File: 01_Data/Engineered_Wood_Table/Cone/Engineered_Wood_Table_Cone_HF50Scan_230626_R1.csv
Names,Time,Stack TC,Smoke TC,Exh Press,Smoke Comp,Smoke Meas,CO Meter,CO2 Meter,O2 Meter,Sample Mass,Ext Coeff,Start Test,Flame Verif
Chan Gain,,500,500,1,1,1,1,1,1,1,1,1.0,1.0
Offset,,0,0,0.132849,0,0,0,0,0,0,0,0.0,0.0
Gain,,1,1,25.011,13.9403,23.7162,1,1,1,1.00087,1.02946,1.0,1.0
Units,sec,C,C,Pa,%,%,%,%,%,g,/m,,
Baseline,,49.6712,51.455,174.535,100.196,100.107,0.000452272,0.0673952,20.9584,-443.584,0.00803135,,
33,8,48.2332,50.1877,179.309,100.75,94.7542,0.000342825,0.0730954,20.9541,418.146,0.55404,0.0,0.0
66,16.25,49.8794,52.5759,170.699,100.528,99.8118,0.000566339,0.0869221,20.9536,417.965,0.0645694,0.0,1.0
99,24.5,51.818,57.5161,161.759,100.699,96.9472,0.00173766,0.101681,20.929,417.195,0.342924,0.0,0.0
132,32.75,57.7553,67.6703,156.463,100.993,97.6586,0.00230111,0.258469,20.8282,416.134,0.303143,0.0,0.0
165,41,62.5453,76.073,153.23,101.161,96.4094,0.00348112,0.426916,20.5771,414.652,0.434489,0.0,0.0
198,49.25,67.9766,83.0978,158.292,101.184,95.0929,0.00441592,0.507428,20.5024,412.981,0.560704,0.0,0.0
231,57.5,71.9729,87.5232,155.203,101.136,96.5418,0.00542908,0.555853,20.4199,411.42,0.419813,0.0,0.0
264,65.75,74.7335,88.7306,155.855,101.038,97.1527,0.00586226,0.548472,20.4081,409.768,0.354076,0.0,0.0
297,74,76.4629,90.0318,153.649,100.999,98.276,0.00612169,0.517298,20.4332,408.477,0.246769,0.0,0.0
330,82.25,77.7694,89.341,156.925,100.967,98.6943,0.00475016,0.486264,20.4636,407.016,0.205557,0.0,0.0
363,90.5,77.966,87.8698,158.001,100.977,98.8999,0.00423448,0.450508,20.5017,405.885,0.187682,0.0,0.0
396,98.75,77.3643,85.809,161.226,100.955,99.4304,0.00336392,0.402372,20.5466,404.734,0.137392,0.0,0.0
429,107,76.3356,84.725,159.522,100.949,99.4231,0.00306957,0.372813,20.5907,403.743,0.137556,0.0,0.0
462,115.25,76.7018,83.8675,162.16,100.977,99.5932,0.0024997,0.349443,20.6224,402.712,0.124595,0.0,0.0
495,123.5,75.9609,82.521,159.376,101.031,99.8914,0.00268397,0.331294,20.6376,401.921,0.102427,0.0,0.0
528,131.75,75.3791,81.5716,162.001,101.109,100.583,0.0025354,0.317409,20.6597,401.011,0.0470868,0.0,0.0
561,140,74.6552,81.138,164.659,101.171,100.219,0.00239137,0.304407,20.6743,400.15,0.0854035,0.0,0.0
594,148.25,74.5662,80.4978,162.638,101.211,100.185,0.00172305,0.297588,20.6836,399.379,0.0920104,0.0,0.0
627,156.5,74.2564,80.3029,159.491,101.212,99.9291,0.0019423,0.292263,20.6932,398.538,0.115172,0.0,0.0
660,164.75,74.1811,79.5977,163.789,101.219,100.229,0.00199214,0.290536,20.6993,397.818,0.0887523,0.0,0.0
693,173,73.5622,79.2469,158.754,101.213,100.096,0.0021004,0.281523,20.7079,396.957,0.100254,0.0,0.0
726,181.25,73.6432,78.9067,159.832,101.219,100.575,0.00147286,0.274874,20.7171,396.256,0.0577028,0.0,0.0
759,189.5,73.0501,78.267,162.002,101.211,100.037,0.00171561,0.269741,20.7232,395.446,0.105394,0.0,0.0
792,197.75,72.616,77.6764,161.275,101.213,100.453,0.00169981,0.265433,20.7271,394.805,0.0680189,0.0,0.0
825,206,72.6535,77.0869,159.658,101.184,100.174,0.00170592,0.260455,20.7338,394.014,0.0905216,0.0,0.0
858,214.25,72.1251,77.0897,161.445,101.16,100.623,0.00170213,0.258949,20.7373,393.404,0.048072,0.0,0.0
891,222.5,71.9414,76.8844,163.361,101.1,100.845,0.00169249,0.257085,20.741,392.583,0.0228617,0.0,0.0
924,230.75,71.9333,76.5422,162.636,101.013,100.227,0.00147262,0.25229,20.7448,391.993,0.0706255,0.0,0.0
957,239,71.798,76.6143,160.43,100.882,100.589,0.00155326,0.250965,20.746,391.242,0.0262542,0.0,0.0
990,247.25,71.7881,76.9579,162.016,100.728,99.9891,0.00117197,0.247297,20.752,390.611,0.0664845,0.0,0.0
1023,255.5,71.9206,76.7011,164.808,100.599,100.152,0.0017491,0.242628,20.7537,389.951,0.0401876,0.0,0.0
1056,263.75,71.2139,76.7247,160.636,100.601,99.9652,0.00176177,0.242787,20.7566,389.33,0.05723,0.0,0.0
1089,272,71.884,76.2371,163.134,101.015,100.914,0.00177189,0.239517,20.7613,388.69,0.00903912,0.0,0.0
1122,280.25,71.679,75.2825,162.668,101.284,100.778,0.00160091,0.236468,20.7635,387.979,0.0451889,0.0,0.0
1155,288.5,71.279,75.6564,165.417,101.324,100.734,0.0014133,0.237784,20.7632,387.399,0.0527875,0.0,0.0
1188,296.75,71.2272,76.1301,163.867,101.146,100.565,0.00121119,0.23691,20.7686,386.678,0.0520169,0.0,0.0
1221,305,70.8751,75.8177,163.03,100.949,100.156,0.00136532,0.233598,20.77,386.168,0.0712364,0.0,0.0
1254,313.25,71.1703,75.166,160.521,101.247,101.015,0.00129457,0.230864,20.7707,385.487,0.0207439,0.0,0.0
1287,321.5,70.951,75.3249,163.158,101.578,100.709,0.00121615,0.23085,20.7756,384.977,0.0776264,0.0,0.0
1320,329.75,70.3224,75.2256,160.08,101.726,100.858,0.00139688,0.229878,20.7722,384.336,0.0773179,0.0,0.0
1353,338,70.916,74.9348,162.284,101.782,101.166,0.00135837,0.224371,20.7775,383.765,0.05484,0.0,0.0
1386,346.25,70.4327,74.8218,159.913,101.737,100.929,0.00130442,0.224403,20.7801,383.035,0.0719498,0.0,0.0
1419,354.5,70.4726,74.5416,163.992,101.665,101.16,0.00162308,0.221083,20.7821,382.444,0.044933,0.0,0.0
1452,362.75,70.9642,74.8407,159.126,101.578,101.162,0.00153247,0.221354,20.7828,381.904,0.0370908,0.0,0.0
1485,371,70.6274,74.9433,163.776,101.535,101.099,0.00149338,0.219131,20.7846,381.153,0.0388296,0.0,0.0
1518,379.25,69.8647,73.3637,165.631,101.501,100.989,0.00130516,0.213897,20.7881,380.673,0.0456602,0.0,0.0
1551,387.5,69.7503,73.6587,162.822,101.524,100.892,0.00121513,0.216519,20.7903,380.082,0.0563806,0.0,0.0
1584,395.75,69.8701,72.9302,167.681,101.557,101.579,0.00148055,0.217839,20.7889,379.442,-0.00193736,0.0,0.0
1617,404,69.1145,72.7446,164.422,101.627,101.002,0.00144178,0.215703,20.7917,378.741,0.0556649,0.0,0.0
1650,412.25,69.1262,72.7132,162.384,101.687,101.318,0.00133265,0.212333,20.7912,378.501,0.032824,0.0,0.0
1683,420.5,69.2586,73.2589,165.173,101.723,101.898,0.000923043,0.217234,20.7904,377.77,-0.0154507,0.0,0.0
1716,428.75,69.7345,73.3332,163.432,101.771,101.728,0.00127393,0.211743,20.7903,377.39,0.00382613,0.0,0.0
1749,437,69.1593,73.2667,159.095,101.755,101.082,0.00128066,0.21373,20.7932,376.689,0.0599209,0.0,0.0
1782,445.25,69.1439,73.6606,163.066,101.758,100.89,0.00125885,0.207809,20.7994,376.259,0.0772987,0.0,0.0
1815,453.5,69.3466,73.9084,162.096,101.689,101.198,0.00118077,0.207765,20.7984,375.598,0.0437278,0.0,0.0
1848,461.75,69.5019,73.0819,169.545,101.64,101.171,0.00110852,0.205412,20.8031,375.128,0.0417339,0.0,0.0
1881,470,68.9865,73.5571,165.968,101.472,100.762,0.00138959,0.205791,20.8002,374.527,0.0633658,0.0,0.0
1914,478.25,69.2334,72.6718,167.888,101.31,100.905,0.00121867,0.201724,20.8054,374.087,0.0362363,0.0,0.0
1947,486.5,68.8866,72.6405,161.581,101.096,100.775,0.00129159,0.200828,20.8047,373.547,0.0286678,0.0,0.0
1980,494.75,68.5574,72.5586,163.819,100.918,100.234,0.00144137,0.200694,20.8069,373.136,0.06145,0.0,0.0
2013,503,68.8291,72.1069,167.846,100.98,100.944,0.00145922,0.198057,20.8092,372.616,0.00316219,0.0,0.0
2046,511.25,68.0578,72.1394,167.628,101.187,100.877,0.00155098,0.197938,20.8138,372.105,0.0277321,0.0,0.0
2079,519.5,67.9803,72.40625,164.417,101.273,100.766,0.00150521,0.195807,20.8156,371.625,0.0452404,0.0,0.0
2112,527.75,68.2995,71.7777,162.751,101.204,100.696,0.00129547,0.194568,20.8191,371.044,0.0455274,0.0,0.0
2145,536,68.3647,71.8814,156.938,100.982,100.471,0.000941947,0.190436,20.8193,370.614,0.0457588,0.0,0.0
2178,544.25,68.4208,71.8141,164.641,100.582,99.7532,0.00118026,0.193026,20.8175,370.043,0.0747271,0.0,0.0
2211,552.5,67.7486,72.0033,168.404,100.523,100.53,0.00138401,0.191162,20.8211,369.633,-0.00065238,0.0,0.0
2244,560.75,67.7087,71.4099,159.183,100.7,100.54,0.001415,0.191524,20.8228,369.093,0.0143598,0.0,0.0
2277,569,67.7146,71.8093,167.199,100.983,100.707,0.00110333,0.189993,20.8246,368.692,0.0247288,0.0,0.0
2310,577.25,67.9353,71.4101,166.215,101.122,100.706,0.0013522,0.189129,20.8248,368.142,0.0372141,0.0,0.0
2343,585.5,67.4481,71.3908,161.484,101.099,100.722,0.00129273,0.186765,20.8243,367.721,0.0338097,0.0,0.0
2376,593.75,67.6753,70.8908,166.807,100.858,100.339,0.00150873,0.186017,20.8269,367.191,0.0465278,0.0,0.0
2409,602,67.728,71.5435,167.423,100.522,100.293,0.00132734,0.185773,20.8261,366.771,0.0205936,0.0,0.0
2442,610.25,67.5673,71.1339,171.27,100.234,99.7155,0.00126426,0.183625,20.8286,366.22,0.0468373,0.0,0.0
2475,618.5,67.4128,71.1269,165.545,100.019,100.104,0.00132234,0.184188,20.8297,365.87,-0.00766737,0.0,0.0
2508,626.75,67.324,71.0665,163.926,99.9027,99.8719,0.00156588,0.183115,20.8305,365.319,0.00278447,0.0,0.0
2541,635,67.0574,70.8141,171.041,99.8861,99.8719,0.00168636,0.180541,20.8311,364.849,0.00128417,0.0,0.0
2574,643.25,67.3616,70.5886,160.975,99.9112,99.7394,0.00152518,0.182771,20.8322,364.409,0.0155366,0.0,0.0
2607,651.5,67.4726,70.9593,161.929,99.9086,100.274,0.0011884,0.181571,20.8343,363.928,-0.0329897,0.0,0.0
2640,659.75,67.3453,70.183,164.759,99.9248,99.6461,0.00155102,0.179299,20.8363,363.558,0.0252247,0.0,0.0
2673,668,66.7597,70.9111,169.365,99.9091,99.7336,0.00191702,0.179325,20.8362,363.047,0.0158698,0.0,0.0
2706,676.25,66.9825,70.7098,165.039,99.9048,99.7271,0.0019406,0.180558,20.8351,362.667,0.016075,0.0,0.0
2739,684.5,66.3838,70.6005,162.777,99.9137,100.02,0.00138335,0.179801,20.8369,362.147,-0.00955627,0.0,0.0
2772,692.75,67.0213,70.4276,161.151,99.9584,99.9493,0.00154479,0.178671,20.838,361.796,0.00082133,0.0,0.0
2805,701,66.9553,70.3706,166.219,99.9967,99.9044,0.00158021,0.177098,20.8399,361.316,0.00833469,0.0,0.0
2838,709.25,66.1346,69.3903,161.178,100.068,100.048,0.00128636,0.175663,20.8404,360.966,0.00177712,0.0,0.0
2871,717.5,66.3234,69.7227,162.48,100.13,99.8654,0.00166743,0.176162,20.8413,360.465,0.0238849,0.0,0.0
2904,725.75,66.6211,70.1489,167.025,100.249,100.073,0.00188721,0.175987,20.8406,360.135,0.0158955,0.0,0.0
2937,734,66.649,70.2927,168.734,100.383,100.614,0.0017748,0.175817,20.8441,359.624,-0.0207615,0.0,0.0
2970,742.25,66.5424,70.2161,170.474,100.597,100.735,0.00170722,0.175364,20.8455,359.274,-0.0123844,0.0,0.0
3003,750.5,66.6512,70.4166,164.4,100.784,101.18,0.00175227,0.174839,20.8463,358.864,-0.0354377,0.0,0.0
3036,758.75,66.1403,70.0962,164.665,100.967,101.149,0.00192357,0.175631,20.8442,358.423,-0.0162843,0.0,0.0
3069,767,66.6274,70.3113,169.467,101.114,101.379,0.00155182,0.175064,20.846,358.063,-0.0236261,0.0,0.0
3102,775.25,66.3903,70.0822,164.478,101.17,101.691,0.001661,0.175246,20.8463,357.613,-0.0463559,0.0,0.0
3135,783.5,66.5526,69.8115,165.778,101.115,101.482,0.00172411,0.174652,20.8473,357.252,-0.0327001,0.0,0.0
3168,791.75,66.2449,69.6548,165.738,100.876,100.758,0.00167061,0.174806,20.8466,356.752,0.0105951,0.0,0.0
3201,800,66.1694,69.7579,163.527,100.593,101.061,0.00164854,0.175685,20.8454,356.512,-0.0419044,0.0,0.0
3234,808.25,66.3601,69.7505,163.056,100.606,100.504,0.00166347,0.177406,20.8446,355.991,0.00917677,0.0,0.0
3267,816.5,65.9685,69.8104,164.025,101.178,101.277,0.00171047,0.177948,20.8436,355.601,-0.00886068,0.0,0.0
3300,824.75,65.8572,69.5895,167.741,101.254,101.068,0.00166505,0.177835,20.8436,355.15,0.0166295,0.0,0.0
3333,833,66.6774,70.4949,168.175,100.854,100.516,0.00151047,0.177873,20.8429,354.79,0.0303052,0.0,0.0
3366,841.25,66.3122,69.7874,162.117,101.218,100.934,0.00161079,0.179039,20.8415,354.31,0.0253493,0.0,0.0
3399,849.5,66.4772,70.1199,168.807,101.647,101.347,0.00161564,0.176517,20.8432,353.949,0.0267307,0.0,0.0
3432,857.75,66.7998,70.4846,166.317,101.747,102.2,0.00171173,0.178771,20.8429,353.519,-0.040145,0.0,0.0
3465,866,66.4108,70.4148,161.224,101.424,101.449,0.00172215,0.180562,20.841,353.089,-0.00218448,0.0,0.0
3498,874.25,66.5261,70.3693,166.195,100.774,100.782,0.00153316,0.179643,20.841,352.698,-0.000651304,0.0,0.0
3531,882.5,66.5609,70.6226,163.24,100.146,100.543,0.00115034,0.178341,20.8433,352.238,-0.0357463,0.0,0.0
3564,890.75,66.6265,71.1335,162.86,99.9571,100.324,0.00145007,0.181847,20.8404,351.818,-0.0331031,0.0,0.0
3597,899,67.0268,70.5253,167.122,100.277,100.34,0.0015139,0.182388,20.8409,351.327,-0.0056426,0.0,0.0
3630,907.25,66.9059,70.5221,163.297,100.84,100.84,0.00121933,0.181264,20.8432,350.997,3.01419e-05,0.0,0.0
3663,915.5,66.4029,70.7414,163.883,101.156,101.778,0.001205,0.183302,20.8422,350.466,-0.0553445,0.0,0.0
3696,923.75,67.3265,71.1049,159.802,101.09,101.02,0.00114547,0.18179,20.8397,350.156,0.00617698,0.0,0.0
3729,932,67.1746,70.7559,161.462,100.782,100.253,0.00156545,0.182404,20.8395,349.616,0.0475269,0.0,0.0
3762,940.25,67.026,70.7044,162.571,100.551,100.54,0.00178586,0.182211,20.8404,349.275,0.000997857,0.0,0.0
3795,948.5,67.3854,70.9958,167.969,100.467,100.14,0.00131716,0.182671,20.8394,348.665,0.0293846,0.0,0.0
3828,956.75,66.9626,70.3113,166.716,100.544,100.181,0.00147645,0.182312,20.8393,348.254,0.0326492,0.0,0.0
3861,965,66.9681,70.8799,161.336,100.695,99.9602,0.00160008,0.183413,20.8394,347.894,0.0661618,0.0,0.0
3894,973.25,66.7953,70.9453,160.907,100.757,100.388,0.00169865,0.184159,20.8367,347.444,0.0330954,0.0,0.0
3927,981.5,67.2747,70.9449,159.912,100.789,100.923,0.00158583,0.182719,20.8392,346.993,-0.0119926,0.0,0.0
3960,989.75,66.9953,70.9517,165.856,100.814,100.287,0.00118505,0.182365,20.8398,346.463,0.0473331,0.0,0.0
3993,998,67.4725,71.4926,164.73,100.805,100.414,0.00135473,0.183512,20.8398,346.083,0.0350965,0.0,0.0
4026,1006.25,67.2221,71.7406,165.46,100.721,100.886,0.00135264,0.183357,20.8399,345.522,-0.0147902,0.0,0.0
4059,1014.5,67.5238,71.7993,163.886,100.648,100.003,0.00149096,0.183832,20.8378,345.112,0.0580311,0.0,0.0
4092,1022.75,67.3453,71.1833,162.704,100.465,100.046,0.00141649,0.184793,20.8354,344.571,0.037748,0.0,0.0
4125,1031,67.4261,71.4673,163.222,100.489,99.8487,0.00141915,0.183431,20.8379,344.161,0.057752,0.0,0.0
4158,1039.25,67.757,71.4571,168.491,100.564,100.522,0.00169026,0.18512,20.8381,343.61,0.0037691,0.0,0.0
4191,1047.5,67.5576,71.5703,163.138,100.752,100.579,0.00150534,0.184002,20.838,343.24,0.015542,0.0,0.0
4224,1055.75,67.5409,71.5403,163.645,100.941,100.786,0.00166756,0.18552,20.8379,342.69,0.0138514,0.0,0.0
4257,1064,67.2592,70.683,162.732,101.114,101.162,0.00154184,0.185255,20.8388,342.219,-0.00426501,0.0,0.0
4290,1072.25,67.3378,71.164,162.647,101.151,100.779,0.00161312,0.184469,20.8389,341.709,0.0332176,0.0,0.0
4323,1080.5,67.3925,71.1176,167.258,101.104,100.766,0.0015368,0.188167,20.8382,341.308,0.0302065,0.0,0.0
4356,1088.75,67.3004,71.507,163.844,100.918,100.341,0.00121988,0.185717,20.8366,340.738,0.051805,0.0,0.0
4389,1097,67.1285,71.5971,166.855,100.643,100.415,0.0012863,0.188138,20.837,340.227,0.0205377,0.0,0.0
4422,1105.25,67.2526,71.697,163.074,100.306,100.366,0.00149301,0.188519,20.8344,339.757,-0.00545895,0.0,0.0
4455,1113.5,67.3953,71.4368,162.861,100.035,99.2697,0.00132513,0.189847,20.8315,339.197,0.0693479,0.0,0.0
4488,1121.75,67.3092,71.7845,167.235,99.9239,100.008,0.00184529,0.189038,20.8333,338.716,-0.00758818,0.0,0.0
4521,1130,67.5746,72.2109,162.261,100.031,99.4174,0.00139266,0.190241,20.8354,338.126,0.0555814,0.0,0.0
4554,1138.25,67.5994,71.4829,166.643,100.343,99.8125,0.00175574,0.1905,20.8342,337.685,0.0478267,0.0,0.0
4587,1146.5,67.3992,71.5328,167.951,100.714,100.714,0.00139394,0.190395,20.8333,336.935,-6.99723e-06,0.0,0.0
4620,1154.75,67.384,71.9766,166.693,101.151,101.069,0.0013946,0.19233,20.8329,336.644,0.00735163,0.0,0.0
4653,1163,68.0345,72.3248,165.06,101.509,101.478,0.00185305,0.193291,20.8319,335.984,0.00273496,0.0,0.0
4686,1171.25,68.3778,72.4459,164.892,101.715,101.434,0.00179432,0.19504,20.8316,335.513,0.025039,0.0,0.0
4719,1179.5,68.1134,71.9983,164.291,101.682,101.611,0.00152354,0.193731,20.8308,334.893,0.00632005,0.0,0.0
4752,1187.75,68.1106,72.1395,166.092,101.443,100.967,0.00118805,0.194898,20.8289,334.372,0.0424529,0.0,0.0
4785,1196,68.115,71.9984,167.812,101.087,101.368,0.0012126,0.19653,20.8304,333.782,-0.0250147,0.0,0.0
4818,1204.25,68.0638,72.9417,159.756,100.831,100.448,0.00154896,0.197487,20.8278,333.261,0.034363,0.0,0.0
4851,1212.5,68.4158,72.4852,165.522,101.201,100.689,0.00147914,0.198808,20.8261,332.661,0.0457695,0.0,0.0
4884,1220.75,68.2047,73.0835,164.228,101.204,101.381,0.00161811,0.199725,20.8256,332.11,-0.0158066,0.0,0.0
4917,1229,68.8746,73.3935,159.553,100.691,100.884,0.00144351,0.205005,20.8212,331.54,-0.0172932,0.0,0.0
4950,1237.25,68.7682,72.924,164.621,100.517,100.08,0.00130772,0.207586,20.8151,331.039,0.0393795,0.0,0.0
4983,1245.5,69.2623,73.9932,159.757,100.706,100.44,0.00138047,0.208875,20.8169,330.399,0.0238699,0.0,0.0
5016,1253.75,69.4907,74.5036,162.236,100.902,101.113,0.00144188,0.216267,20.8086,329.678,-0.0189145,0.0,0.0
5049,1262,69.7792,74.7585,163.581,100.997,100.835,0.00120492,0.215675,20.8056,329.148,0.0144662,0.0,0.0
5082,1270.25,69.8812,74.5224,161.536,101.042,101.119,0.00144854,0.220065,20.8016,328.517,-0.00691322,0.0,0.0
5115,1278.5,69.9994,74.8743,161.81,101.048,101.51,0.00157359,0.216411,20.8037,327.977,-0.0412426,0.0,0.0
5148,1286.75,70.0316,74.6633,164.946,101.022,101.183,0.00144945,0.220794,20.8025,327.276,-0.0143751,0.0,0.0
5181,1295,69.146,74.5605,160.112,100.962,101.194,0.00145933,0.21559,20.8024,326.786,-0.0207831,0.0,0.0
5214,1303.25,69.8856,74.4941,158.777,100.861,101.666,0.00145158,0.211478,20.8067,326.125,-0.0718186,0.0,0.0
5247,1311.5,70.2034,74.2093,163.113,100.745,100.749,0.00137612,0.211296,20.8076,325.615,-0.000364401,0.0,0.0
5280,1319.75,69.8953,74.4698,167.095,100.636,100.877,0.00152278,0.20913,20.8095,324.934,-0.0216069,0.0,0.0
5313,1328,69.7614,74.523,161.894,100.556,101.086,0.00153327,0.209044,20.8095,324.494,-0.0475295,0.0,0.0
5346,1336.25,69.992,74.369,162.29,100.477,100.915,0.00181434,0.210653,20.8103,323.793,-0.0392254,0.0,0.0
5379,1344.5,70.014,74.6664,161.67,100.813,101.381,0.0019298,0.210737,20.8107,323.323,-0.0507598,0.0,0.0
5412,1352.75,70.2296,74.9405,158.563,101.11,100.953,0.00215391,0.212172,20.8071,322.642,0.0139815,0.0,0.0
5445,1361,70.199,75.1057,163.754,101.276,101.615,0.00172341,0.211773,20.8084,322.112,-0.0301167,0.0,0.0
5478,1369.25,70.2149,75.5197,160.557,101.267,101.445,0.00139951,0.216168,20.8026,321.451,-0.015888,0.0,0.0
5511,1377.5,70.9034,75.35,163.502,101.084,101.398,0.00147068,0.215882,20.8015,320.88,-0.0280005,0.0,0.0
5544,1385.75,71.1556,75.7359,162.126,100.867,101.203,0.00126888,0.215633,20.8014,320.26,-0.0300098,0.0,0.0
5577,1394,71.2527,76.4217,161.481,101.093,101.306,0.00134532,0.218669,20.803,319.679,-0.0190391,0.0,0.0
5610,1402.25,71.3568,75.6271,162.201,101.339,101.312,0.00157709,0.216461,20.8019,319.069,0.00242179,0.0,0.0
5643,1410.5,71.3252,75.8072,164.825,101.571,101.867,0.00137912,0.219657,20.8004,318.368,-0.0262227,0.0,0.0
5676,1418.75,70.8914,75.9937,164.879,101.741,101.793,0.00115806,0.217885,20.8009,317.848,-0.00462366,0.0,0.0
5709,1427,71.4817,75.6257,161.584,101.749,101.388,0.00111335,0.214159,20.8029,317.207,0.0320828,0.0,0.0
5742,1435.25,71.0494,76.0608,161.064,101.658,101.788,0.00108025,0.21466,20.8026,316.657,-0.0114768,0.0,0.0
5775,1443.5,71.3015,76.0175,159.034,101.334,101.187,0.0013006,0.213743,20.8038,315.976,0.0130958,0.0,0.0
5808,1451.75,71.2578,75.5299,159.847,100.865,101.505,0.0012748,0.213711,20.8024,315.476,-0.0571162,0.0,0.0
5841,1460,70.9548,75.5817,163.084,100.305,100.637,0.00115923,0.210983,20.8059,314.835,-0.0298197,0.0,0.0
5874,1468.25,71.321,75.8534,166.498,100.012,100.132,0.00109284,0.212305,20.8101,314.285,-0.0108285,0.0,0.0
5907,1476.5,71.1563,75.4479,164.286,99.9699,100.035,0.000936851,0.212949,20.8083,313.694,-0.00591998,0.0,0.0
5940,1484.75,71.0968,75.8593,160.992,100.286,100.42,0.00126677,0.207497,20.8125,313.204,-0.0120767,0.0,0.0
5973,1493,71.0776,75.6433,163.206,100.749,100.659,0.00166581,0.209306,20.8133,312.593,0.00809163,0.0,0.0
6006,1501.25,71.0434,75.3516,159.946,101.066,101.361,0.0015613,0.209418,20.8098,312.123,-0.026335,0.0,0.0
6039,1509.5,71.0088,75.2861,161.1,101.155,101.144,0.00158704,0.208452,20.8083,311.482,0.000996781,0.0,0.0
6072,1517.75,71.0344,75.2346,160.623,101.124,100.837,0.00125397,0.209217,20.8091,310.972,0.0256648,0.0,0.0
6105,1526,71.3336,75.293,161.97,101.026,100.659,0.00136574,0.209398,20.8077,310.541,0.0329195,0.0,0.0
6138,1534.25,71.185,75.1523,163.383,100.965,101.026,0.00161354,0.206311,20.8083,309.891,-0.00541802,0.0,0.0
6171,1542.5,70.6447,74.5396,162.291,100.917,101.178,0.00159266,0.202873,20.8143,309.39,-0.0233206,0.0,0.0
6204,1550.75,70.4635,74.0448,165.392,100.897,100.591,0.00178148,0.201337,20.8159,308.91,0.0274573,0.0,0.0
6237,1559,70.4879,74.3951,163.596,100.897,100.602,0.00168471,0.201235,20.8156,308.53,0.0264559,0.0,0.0
6270,1567.25,70.6051,74.3623,169.21,100.888,101.014,0.0013505,0.197383,20.8161,307.859,-0.0113108,0.0,0.0
6303,1575.5,70.1111,73.9883,165.869,100.923,100.731,0.00157335,0.193786,20.8197,307.469,0.0171828,0.0,0.0
6336,1583.75,70.05,73.7793,159.855,100.939,101.056,0.00163387,0.193639,20.8205,307.008,-0.0104561,0.0,0.0
6369,1592,69.7374,73.2748,163.579,100.997,101.005,0.00168242,0.191815,20.8237,306.538,-0.000688446,0.0,0.0
6402,1600.25,69.4261,73.47,160.027,101.033,100.694,0.00178218,0.189595,20.8268,305.977,0.0303846,0.0,0.0
6435,1608.5,69.4733,73.0367,161.742,101.099,100.762,0.00162811,0.191705,20.8256,305.637,0.0301389,0.0,0.0
6468,1616.75,70.0686,73.7015,165.09,101.135,100.699,0.00170108,0.190052,20.8284,305.017,0.0389754,0.0,0.0
6501,1625,69.3023,73.2339,162.46,101.14,101.21,0.00172334,0.188899,20.8263,304.746,-0.00627493,0.0,0.0
6534,1633.25,69.768,73.6108,160.694,101.107,100.688,0.00160703,0.19028,20.8281,304.206,0.0375829,0.0,0.0
6567,1641.5,69.3989,73.0381,160.603,101.046,101.162,0.00151743,0.187841,20.8304,303.806,-0.0103462,0.0,0.0
6600,1649.75,69.3134,73.3698,164.854,100.903,100.868,0.00128296,0.187139,20.8316,303.325,0.00307503,0.0,0.0
6633,1658,69.4201,73.2567,163.806,100.734,101.251,0.00167279,0.187436,20.8312,302.995,-0.0462272,0.0,0.0
6666,1666.25,69.1471,73.3182,167.29,100.518,100.423,0.00166645,0.18524,20.8322,302.554,0.00848957,0.0,0.0
6699,1674.5,69.0482,73.233,165.391,100.277,99.8777,0.00163263,0.183232,20.8355,302.104,0.036038,0.0,0.0
6732,1682.75,69.4614,72.838,167.314,100.062,99.3095,0.00153576,0.181298,20.838,301.704,0.0681471,0.0,0.0
6765,1691,69.0662,72.5151,167.23,99.9108,99.9138,0.00179123,0.181586,20.8407,301.163,-0.000279355,0.0,0.0
6798,1699.25,68.6309,72.8349,160.691,99.9184,99.4876,0.00186156,0.181327,20.8382,300.843,0.0390236,0.0,0.0
6831,1707.5,68.4141,72.1632,165.714,100.101,100.108,0.00168812,0.180434,20.8399,300.252,-0.000622236,0.0,0.0
6864,1715.75,68.3765,72.1926,165.894,100.432,99.9558,0.00187366,0.181713,20.8402,299.992,0.0429457,0.0,0.0
6897,1724,68.5642,72.0561,160.645,100.798,101.052,0.00192662,0.181634,20.8382,299.462,-0.0227125,0.0,0.0
6930,1732.25,68.5132,72.4951,164.941,101.136,100.685,0.00214087,0.182563,20.838,299.081,0.0403237,0.0,0.0
6963,1740.5,68.4102,72.4889,158.108,101.381,101.525,0.00205956,0.181051,20.8375,298.681,-0.0128108,0.0,0.0
6996,1748.75,69.0906,72.6078,160.56,101.573,101.552,0.00187919,0.180313,20.837,298.331,0.00191919,0.0,0.0
7029,1757,68.9296,72.2884,165.274,101.659,101.489,0.00222275,0.182323,20.8365,297.89,0.0150552,0.0,0.0
7062,1765.25,68.3755,72.2615,160.121,101.706,101.706,0.00203617,0.178395,20.8398,297.55,-2.3683e-05,0.0,0.0
7095,1773.5,68.813,72.3042,159.395,101.665,101.922,0.00186655,0.177431,20.8436,297.05,-0.0227805,0.0,0.0
7128,1781.75,68.3303,72.6778,159.662,101.557,101.43,0.00217743,0.177663,20.8445,296.599,0.0112628,0.0,0.0
7161,1790,68.7086,72.2297,165.714,101.335,100.818,0.00217696,0.17855,20.8425,296.259,0.0461733,0.0,0.0
7194,1798.25,68.53,72.0932,163.83,101.071,101.89,0.00231469,0.177588,20.8393,295.618,-0.0728907,0.0,0.0
7227,1806.5,67.8818,71.4692,164.699,100.874,101.442,0.00262498,0.174394,20.8436,295.388,-0.0506867,0.0,0.0
7260,1814.75,68.0575,71.4098,160.228,101.001,101.306,0.0025597,0.177517,20.8432,294.988,-0.0272889,0.0,0.0
7293,1823,68.0167,71.8279,163.8,101.233,101.192,0.0028024,0.173304,20.844,294.678,0.00365397,0.0,0.0
7326,1831.25,68.0583,71.2874,167.101,101.219,101.285,0.00240032,0.174969,20.8446,294.267,-0.00582411,0.0,0.0
7359,1839.5,67.9772,71.7039,163.743,101.011,101.226,0.00236621,0.17261,20.8471,293.917,-0.0191739,0.0,0.0
7392,1847.75,67.6614,71.3059,166.013,100.63,101.235,0.00227451,0.170956,20.8482,293.527,-0.0541933,0.0,0.0
7425,1856,67.7029,70.9017,166.864,100.46,101.021,0.00296745,0.171285,20.85,293.156,-0.0502705,0.0,0.0
7458,1864.25,67.2853,70.7854,161.445,100.593,100.467,0.00274244,0.169,20.8521,292.716,0.0113478,0.0,0.0
7491,1872.5,67.617,70.7402,169.056,100.833,100.925,0.00241983,0.170588,20.8517,292.296,-0.00822387,0.0,0.0
7524,1880.75,67.1344,70.5011,159.837,101.038,101.261,0.00251115,0.167831,20.8538,291.965,-0.0199151,0.0,0.0
7557,1889,66.97,70.9257,163.493,101.106,101.307,0.00241098,0.16888,20.8531,291.735,-0.0179631,0.0,0.0
7590,1897.25,67.0793,70.525,165.278,101.016,101.051,0.00327332,0.168944,20.851,291.295,-0.00315522,0.0,0.0
7623,1905.5,67.0693,70.2252,163.709,100.754,100.829,0.00290851,0.165354,20.8546,290.964,-0.0068001,0.0,0.0
7656,1913.75,66.9183,70.0776,166.321,100.425,100.458,0.00284758,0.163654,20.8599,290.554,-0.00296947,0.0,0.0
7689,1922,66.7435,69.7441,166.871,100.086,100.745,0.00308448,0.162403,20.8614,290.164,-0.05934,0.0,0.0
7722,1930.25,66.5653,69.8386,166.218,99.9061,100.114,0.00328416,0.163413,20.8645,289.743,-0.0188044,0.0,0.0
7755,1938.5,66.4527,69.7411,162.434,99.8852,99.9906,0.00282892,0.162413,20.8574,289.403,-0.00951855,0.0,0.0
7788,1946.75,66.5582,69.7809,164.784,100.125,100.871,0.00275892,0.161652,20.8594,289.073,-0.0670525,0.0,0.0
7821,1955,66.3365,68.9825,161.336,100.385,100.271,0.00315637,0.159557,20.8621,288.732,0.0101962,0.0,0.0
7854,1963.25,66.0955,69.5114,164.139,100.691,100.71,0.00299177,0.159356,20.8644,288.402,-0.00170425,0.0,0.0
7887,1971.5,66.2034,69.616,160.405,100.838,100.708,0.00322461,0.16066,20.8634,288.022,0.0116434,0.0,0.0
7920,1979.75,66.0354,69.9958,163.548,100.937,101.621,0.00358516,0.161117,20.862,287.812,-0.060979,0.0,0.0
7953,1988,66.1782,69.8229,169.339,100.871,101.516,0.00350074,0.159212,20.8617,287.451,-0.0575609,0.0,0.0
7986,1996.25,66.3376,69.2054,163.164,100.796,101.118,0.0035788,0.158282,20.8647,287.101,-0.0288515,0.0,0.0
8019,2004.5,66.1252,69.4221,162.569,100.628,101.304,0.00365788,0.156626,20.8678,286.691,-0.0605152,0.0,0.0
8052,2012.75,66.1744,69.7522,172.329,100.448,100.643,0.00300672,0.154828,20.869,286.43,-0.0175435,0.0,0.0
8085,2021,65.8991,69.6949,162.041,100.209,101.734,0.00375469,0.156707,20.8678,286.04,-0.136402,0.0,0.0
8118,2029.25,65.8044,69.1766,167.127,100.052,100.238,0.00361508,0.15499,20.8644,285.78,-0.0167427,0.0,0.0
8151,2037.5,65.9568,69.4965,168.739,99.8874,99.6309,0.00336345,0.15363,20.8692,285.369,0.0232192,0.0,0.0
8184,2045.75,65.9429,69.2952,162.999,99.8988,99.937,0.00310568,0.154117,20.868,285.089,-0.00344975,0.0,0.0
8217,2054,65.62,69.2783,159.156,100.016,100.371,0.00298543,0.151562,20.8717,284.729,-0.0319693,0.0,0.0
8250,2062.25,65.8885,69.7304,162.975,100.267,100.442,0.00369265,0.151929,20.8718,284.439,-0.0157419,0.0,0.0
8283,2070.5,65.6124,69.4983,163.291,100.558,100.745,0.00370508,0.151557,20.8716,284.138,-0.0167955,0.0,0.0
8316,2078.75,65.3627,69.1126,163.258,100.868,101.491,0.00301503,0.151148,20.8759,283.788,-0.0556386,0.0,0.0
8349,2087,65.8835,69.2077,164.115,101.086,101.392,0.00307912,0.150283,20.8737,283.468,-0.0273202,0.0,0.0
8382,2095.25,65.5017,69.8654,166.421,101.144,101.888,0.0034231,0.150686,20.8734,283.128,-0.0662017,0.0,0.0
8415,2103.5,65.9863,68.7357,171.109,101.062,101.022,0.00359914,0.149209,20.8763,282.857,0.00353775,0.0,0.0
8448,2111.75,65.7532,68.4631,171.214,100.88,101.446,0.00377388,0.149006,20.8754,282.477,-0.0505022,0.0,0.0
8481,2120,65.7635,68.4778,168.308,100.661,101.525,0.00399033,0.150112,20.8768,282.277,-0.0771561,0.0,0.0
8514,2128.25,65.303,68.8432,167.323,100.505,100.266,0.00375829,0.150616,20.8769,281.816,0.0214388,0.0,0.0
8547,2136.5,65.2109,68.6636,160.277,100.672,100.688,0.00393654,0.149598,20.8764,281.596,-0.00140978,0.0,0.0
8580,2144.75,65.4133,68.4486,164.879,101.155,102.073,0.00382705,0.147644,20.8772,281.256,-0.081556,0.0,0.0
8613,2153,65.3665,68.8127,166.122,101.259,101.537,0.00367095,0.146714,20.8794,280.946,-0.0246855,0.0,0.0
8646,2161.25,65.3751,68.7886,164.138,101.008,101.438,0.00373739,0.14865,20.8789,280.685,-0.0383389,0.0,0.0
8679,2169.5,64.9922,67.9437,168.334,100.961,101.479,0.00358996,0.146368,20.8788,280.295,-0.046271,0.0,0.0
8712,2177.75,65.5323,68.5583,164.064,101.319,101.526,0.00398279,0.14953,20.8801,280.045,-0.0184733,0.0,0.0
8745,2186,65.268,68.8723,165.684,101.624,102.464,0.00399341,0.148103,20.8774,279.654,-0.0743749,0.0,0.0
8778,2194.25,65.6513,68.7053,164.765,101.729,101.955,0.00390745,0.14834,20.8775,279.504,-0.0200251,0.0,0.0
8811,2202.5,65.1758,68.7566,167.917,101.607,102.053,0.00405675,0.147307,20.8787,279.084,-0.0395465,0.0,0.0
8844,2210.75,65.0198,68.4464,170.277,101.381,101.269,0.00426632,0.147374,20.8827,278.774,0.0100446,0.0,0.0
8877,2219,65.698,68.3827,166.872,101.136,101.311,0.00352215,0.149017,20.8777,278.433,-0.0156529,0.0,0.0
8910,2227.25,65.2693,68.8661,167.633,100.952,101.639,0.00349126,0.148791,20.8779,278.083,-0.0612923,0.0,0.0
8943,2235.5,65.269,68.5891,165.689,100.871,102.145,0.00383568,0.14714,20.8775,277.873,-0.1134,0.0,0.0
8976,2243.75,64.955,68.5201,166.683,100.851,101.848,0.00434693,0.148568,20.8765,277.583,-0.0888162,0.0,0.0
9009,2252,64.8117,68.483,169.75,100.861,101.878,0.0043913,0.146231,20.8777,277.252,-0.0906357,0.0,0.0
9042,2260.25,64.8847,68.8594,166.212,100.871,101.82,0.004532,0.148347,20.879,276.972,-0.0845883,0.0,0.0
9075,2268.5,65.1932,68.2976,166.482,100.93,101.756,0.00433804,0.146168,20.8813,276.672,-0.0736189,0.0,0.0
9108,2276.75,65.237,68.4886,169.36,101.007,102.558,0.00371341,0.146349,20.8817,276.352,-0.137582,0.0,0.0
9141,2285,64.7272,68.497,172.241,101.15,102.589,0.00392992,0.145445,20.8831,275.981,-0.127513,0.0,0.0
9174,2293.25,64.8237,68.0498,166.57,101.239,101.919,0.00447737,0.146989,20.8833,275.661,-0.060429,0.0,0.0
9207,2301.5,64.7444,68.4204,175.491,101.371,102.864,0.00449534,0.146317,20.8825,275.361,-0.132038,0.0,0.0
9240,2309.75,64.635,68.1029,163.184,101.507,102.929,0.00465168,0.146,20.881,275.05,-0.125598,0.0,0.0
9273,2318,64.8951,67.6309,170.449,101.651,103.126,0.00451463,0.147676,20.884,274.76,-0.13007,0.0,0.0
9306,2326.25,63.943,67.4727,163.915,101.692,102.669,0.00455995,0.140774,20.8837,274.44,-0.0863999,0.0,0.0
9339,2334.5,64.9492,67.603,167.376,101.706,102.753,0.00537353,0.142627,20.8889,274.17,-0.0925345,0.0,0.0
9372,2342.75,64.3524,67.6589,165.202,101.589,102.021,0.0046564,0.144449,20.8833,273.799,-0.0382902,0.0,0.0
9405,2351,64.6314,67.9416,167.752,101.434,102.572,0.0043153,0.146163,20.8849,273.649,-0.100687,0.0,0.0
9438,2359.25,64.7064,67.7645,169.292,101.19,102.297,0.00404502,0.14724,20.8794,273.259,-0.0983087,0.0,0.0
9471,2367.5,64.2945,68.1076,168.565,101.016,102.151,0.00378329,0.146484,20.8812,273.019,-0.100935,0.0,0.0
9504,2375.75,64.3723,68.0377,163.726,100.824,102.517,0.0039537,0.147045,20.8816,272.598,-0.150381,0.0,0.0
9537,2384,64.5492,67.8268,167.228,100.964,100.62,0.00367315,0.148401,20.8794,272.378,0.0308073,0.0,0.0
9570,2392.25,64.8403,67.9309,167.024,101.172,102.272,0.00377317,0.148233,20.8806,272.038,-0.0976291,0.0,0.0
9603,2400.5,64.6015,67.873,168.708,101.221,102.441,0.00359845,0.147231,20.8819,271.707,-0.108205,0.0,0.0
9636,2408.75,64.6795,68.3559,169.182,101.102,102.655,0.00427799,0.148438,20.8802,271.437,-0.137601,0.0,0.0
9669,2417,64.7293,68.0719,167.641,100.813,102.159,0.00462374,0.150623,20.8774,271.077,-0.119797,0.0,0.0
9702,2425.25,64.7,68.2528,167.49,100.517,102.106,0.00436302,0.149464,20.8791,270.797,-0.141611,0.0,0.0
9735,2433.5,64.5377,67.4459,166.974,100.465,101.364,0.00445899,0.149274,20.8792,270.446,-0.0804378,0.0,0.0
9768,2441.75,64.3978,67.6237,166.976,100.64,102.07,0.00496544,0.146786,20.883,270.216,-0.127448,0.0,0.0
9801,2450,64.4067,67.88,166.06,100.868,102.119,0.00439464,0.148408,20.8812,269.746,-0.111364,0.0,0.0
9834,2458.25,64.4009,67.6076,168.231,101.043,102.804,0.00406623,0.148609,20.8801,269.566,-0.155991,0.0,0.0
9867,2466.5,64.5083,68.0141,169.129,101.082,102.493,0.00397297,0.15014,20.878,269.155,-0.125153,0.0,0.0
9900,2474.75,63.9588,67.1786,169.01,101.074,101.888,0.00423109,0.150025,20.8786,268.885,-0.0724333,0.0,0.0
9933,2483,64.4386,67.9864,166.809,100.931,101.998,0.00410772,0.149732,20.8815,268.525,-0.0949574,0.0,0.0
9966,2491.25,64.5038,67.5984,168.851,100.737,102.33,0.00358867,0.15127,20.878,268.264,-0.141668,0.0,0.0
9999,2499.5,64.5851,67.9194,169.575,100.434,102.271,0.00429293,0.150286,20.8794,267.874,-0.163688,0.0,0.0
10032,2507.75,64.2864,67.8838,166.557,100.123,101.326,0.00451398,0.152542,20.8766,267.544,-0.107805,0.0,0.0
10065,2516,64.3418,68.1312,165.077,99.9116,100.823,0.00406475,0.152811,20.8767,267.184,-0.0819922,0.0,0.0
10098,2524.25,64.0379,67.9385,165.424,99.8525,101.045,0.00385647,0.150781,20.877,266.913,-0.107217,0.0,0.0
10131,2532.5,64.3226,67.9124,165.872,100.008,101.123,0.00377519,0.151243,20.8751,266.603,-0.100104,0.0,0.0
10164,2540.75,64.2369,67.9224,170.548,100.283,101.668,0.00445533,0.15291,20.8754,266.183,-0.123821,0.0,0.0
10197,2549,64.7289,68.1715,167.623,100.671,102.551,0.00449018,0.153657,20.8745,265.972,-0.167105,0.0,0.0
10230,2557.25,64.9248,67.9319,169.158,101.066,102.506,0.00413047,0.153218,20.8751,265.562,-0.127809,0.0,0.0
10263,2565.5,64.9037,68.6451,165.207,101.415,102.287,0.00444005,0.153669,20.8752,265.142,-0.0772766,0.0,0.0
10296,2573.75,64.8125,68.4618,163.956,101.636,102.547,0.00390867,0.152378,20.8749,264.882,-0.080548,0.0,0.0
10329,2582,64.8215,68.4322,168.293,101.689,102.923,0.00385151,0.154576,20.8748,264.621,-0.108944,0.0,0.0
10362,2590.25,64.763,68.0923,167.124,101.537,102.383,0.00394044,0.156787,20.8743,264.211,-0.0749176,0.0,0.0
10395,2598.5,64.3218,68.1649,164.815,101.286,103.313,0.00393315,0.1557,20.8733,263.921,-0.178954,0.0,0.0
10428,2606.75,64.4209,68.3977,163.867,100.954,101.992,0.00418173,0.155644,20.8737,263.45,-0.0923262,0.0,0.0
10461,2615,65.1765,68.3929,169.254,100.861,102.007,0.00395648,0.156199,20.8725,263.21,-0.10201,0.0,0.0
10494,2623.25,64.7612,68.582,168.175,101.2,102.755,0.00422638,0.155046,20.8738,262.79,-0.13775,0.0,0.0
10527,2631.5,64.7642,68.713,167.1,101.235,102.231,0.00399146,0.155485,20.8738,262.429,-0.0883673,0.0,0.0
10560,2639.75,64.5539,68.9337,165.374,100.881,101.877,0.00393449,0.157517,20.8723,261.999,-0.0886787,0.0,0.0
10593,2648,65.3704,68.8871,170.229,100.413,101.334,0.0040123,0.159492,20.8702,261.739,-0.0824218,0.0,0.0
10626,2656.25,65.1608,69.2913,165.434,100.576,102.038,0.00388457,0.159713,20.8698,261.198,-0.130358,0.0,0.0
10659,2664.5,65.1173,68.6824,159.456,100.852,101.937,0.00397057,0.160287,20.868,260.988,-0.0966563,0.0,0.0
10692,2672.75,65.0827,68.4946,167.57,101.036,102.393,0.0035114,0.160922,20.8658,260.638,-0.120492,0.0,0.0
10725,2681,65.1929,68.9989,167.825,101.053,102.247,0.00319365,0.162827,20.8645,260.298,-0.106031,0.0,0.0
10758,2689.25,65.3216,68.7908,167.672,100.877,102.064,0.00326933,0.164911,20.8621,259.897,-0.10566,0.0,0.0
10791,2697.5,65.0805,68.9002,166.383,100.581,102.078,0.00331546,0.164142,20.8626,259.517,-0.133422,0.0,0.0
10824,2705.75,65.7279,69.5648,163.668,100.302,101.812,0.00356062,0.165979,20.8617,259.197,-0.134881,0.0,0.0
10857,2714,65.3792,69.2827,164.486,100.03,101.563,0.00398421,0.163731,20.8632,258.746,-0.137344,0.0,0.0
10890,2722.25,65.4952,69.6022,164.905,99.8997,101.599,0.00371912,0.164217,20.8619,258.466,-0.152294,0.0,0.0
10923,2730.5,65.8854,70.0044,160.727,99.8312,101.032,0.00343194,0.16531,20.8642,257.986,-0.107977,0.0,0.0
10956,2738.75,65.9437,70.0105,162.88,99.8401,101.472,0.00352811,0.169876,20.8624,257.665,-0.146416,0.0,0.0
10989,2747,65.5632,69.7815,167.217,99.827,101.009,0.003201,0.168605,20.8594,257.205,-0.106291,0.0,0.0
11022,2755.25,65.5963,69.9885,164.866,99.8491,101.352,0.00299325,0.168891,20.8588,256.865,-0.134909,0.0,0.0
11055,2763.5,66.1706,70.0922,163.726,99.8844,101.59,0.00293887,0.174083,20.8549,256.434,-0.152908,0.0,0.0
11088,2771.75,66.3315,70.3717,164.175,100.015,101.467,0.00357283,0.176151,20.8539,256.124,-0.130164,0.0,0.0
11121,2780,65.965,70.3469,163.662,100.17,101.711,0.00316919,0.17335,20.8532,255.573,-0.137874,0.0,0.0
11154,2788.25,66.5102,70.2212,164.598,100.399,102.321,0.00335247,0.173599,20.8521,255.243,-0.171271,0.0,0.0
11187,2796.5,66.1644,70.1589,162.052,100.638,102.22,0.0034468,0.180217,20.8493,254.813,-0.14091,0.0,0.0
11220,2804.75,66.1074,70.6314,163.417,100.867,102.427,0.00306429,0.178043,20.8496,254.402,-0.138663,0.0,0.0
11253,2813,67.0756,70.3611,171.441,101.021,102.397,0.00291317,0.177498,20.8483,254.032,-0.122168,0.0,0.0
11286,2821.25,66.7987,70.7093,164.606,101.083,102.443,0.00282503,0.177364,20.8491,253.542,-0.120638,0.0,0.0
11319,2829.5,66.8408,71.246,164.388,101.079,102.275,0.00266047,0.177093,20.8524,253.191,-0.106306,0.0,0.0
11352,2837.75,67.3128,71.296,165.201,100.948,102.653,0.00263053,0.178513,20.8486,252.701,-0.151176,0.0,0.0
11385,2846,67.1108,71.6027,162.037,100.719,101.784,0.0026101,0.179162,20.8504,252.351,-0.0950221,0.0,0.0
11418,2854.25,67.1647,71.6178,163.151,100.517,101.692,0.00281655,0.182338,20.846,251.82,-0.105,0.0,0.0
11451,2862.5,67.4482,71.9641,166.33,100.54,102.351,0.00288988,0.18179,20.8443,251.44,-0.161259,0.0,0.0
11484,2870.75,67.3236,72.0611,163.519,101.039,102.508,0.00269101,0.183016,20.8429,250.919,-0.130293,0.0,0.0
11517,2879,67.415,72.501,169.643,101.282,102.662,0.00243193,0.182665,20.848,250.589,-0.12218,0.0,0.0
11550,2887.25,67.643,72.2531,166.214,101.142,102.708,0.00228286,0.183125,20.8457,250.039,-0.138779,0.0,0.0
11583,2895.5,68.2208,72.7041,159.696,100.847,102.051,0.00242881,0.186657,20.8435,249.668,-0.107174,0.0,0.0
11616,2903.75,68.1305,73.2149,164.706,101.166,102.411,0.00210885,0.188607,20.8386,249.158,-0.110422,0.0,0.0
11649,2912,68.1836,72.9474,163.633,101.5,103.31,0.00252567,0.189489,20.8377,248.727,-0.159579,0.0,0.0
11682,2920.25,68.6882,72.8954,168.681,101.712,102.894,0.00241253,0.191501,20.8374,248.297,-0.104299,0.0,0.0
11715,2928.5,68.6442,73.3276,166.733,101.669,102.957,0.00272847,0.191235,20.8395,247.777,-0.113677,0.0,0.0
11748,2936.75,68.8061,72.7547,164.641,101.349,102.904,0.00226005,0.194531,20.8346,247.346,-0.137528,0.0,0.0
11781,2945,68.4011,73.4502,162.682,100.733,102.13,0.00211218,0.190517,20.8372,246.806,-0.124367,0.0,0.0
11814,2953.25,68.8976,73.3917,165.779,100.141,101.409,0.00203116,0.194743,20.8363,246.345,-0.113608,0.0,0.0
11847,2961.5,68.9762,73.9015,160.485,99.861,101.343,0.00210936,0.195376,20.8348,245.845,-0.133057,0.0,0.0
11880,2969.75,69.2981,74.2162,163.555,100.112,101.216,0.00224774,0.193261,20.833,245.435,-0.0990302,0.0,0.0
11913,2978,69.558,73.8303,158.229,100.633,102.236,0.00192827,0.196321,20.8306,244.864,-0.142711,0.0,0.0
11946,2986.25,69.6815,74.2468,163.444,101.055,102.199,0.00188396,0.198077,20.8274,244.474,-0.10162,0.0,0.0
11979,2994.5,70.193,74.3965,165.682,101.072,102.241,0.00204805,0.197203,20.8283,243.843,-0.103846,0.0,0.0
12012,3002.75,70.1488,74.3154,162.718,100.862,102.234,0.00223081,0.199324,20.8257,243.433,-0.122003,0.0,0.0
12045,3011,69.8385,74.5293,162.733,100.575,101.772,0.0022323,0.200185,20.8265,242.962,-0.106795,0.0,0.0
12078,3019.25,69.6621,74.8914,162.07,100.458,101.531,0.00197928,0.200269,20.8257,242.512,-0.0959969,0.0,0.0
12111,3027.5,70.2763,74.8751,162.917,100.429,101.431,0.00221979,0.200896,20.8253,241.881,-0.0896447,0.0,0.0
12144,3035.75,70.2342,74.977,162.793,100.584,102.092,0.00227669,0.200744,20.8269,241.421,-0.134371,0.0,0.0
12177,3044,70.0269,74.7142,161.622,100.601,101.667,0.00225707,0.203138,20.824,240.841,-0.0951472,0.0,0.0
12210,3052.25,70.1718,75.051,164.324,100.628,101.678,0.00204763,0.202093,20.8248,240.26,-0.0937445,0.0,0.0
12243,3060.5,70.755,75.4677,162.824,100.631,101.147,0.00193894,0.202738,20.8222,239.93,-0.0461985,0.0,0.0
12276,3068.75,70.5107,75.5886,160.223,100.612,101.339,0.00181874,0.204658,20.8218,239.339,-0.0649856,0.0,0.0
12309,3077,71.0244,75.6859,160.097,100.611,101.701,0.00197421,0.205306,20.8216,238.859,-0.097252,0.0,0.0
12342,3085.25,70.8936,75.7451,163.151,100.609,101.196,0.00204771,0.205519,20.822,238.318,-0.0524742,0.0,0.0
12375,3093.5,70.951,75.6823,161.329,100.621,101.861,0.00224563,0.208473,20.8173,237.948,-0.110603,0.0,0.0
12408,3101.75,70.7303,75.8385,162.643,100.627,101.603,0.00175985,0.206496,20.8177,237.317,-0.0871971,0.0,0.0
12441,3110,71.1107,75.5705,161.601,100.602,102.129,0.00198083,0.207663,20.8154,236.837,-0.136031,0.0,0.0
12474,3118.25,71.1469,75.3623,161.507,100.508,101.512,0.00178859,0.205964,20.8169,236.317,-0.0897849,0.0,0.0
12507,3126.5,70.6441,75.5083,160.927,100.439,101.66,0.00178817,0.206489,20.8164,235.846,-0.109168,0.0,0.0
12540,3134.75,71.0437,75.6282,162.288,100.412,100.955,0.00238925,0.208123,20.8183,235.176,-0.0486766,0.0,0.0
12573,3143,70.8901,75.41,163.262,100.475,101.154,0.00220094,0.206911,20.816,234.805,-0.0608018,0.0,0.0
12606,3151.25,71.0519,75.5919,159.092,100.551,101.462,0.00171823,0.20847,20.8176,234.255,-0.081443,0.0,0.0
12639,3159.5,70.831,75.477,164.412,100.686,101.501,0.00231385,0.20991,20.8158,233.734,-0.0727795,0.0,0.0
12672,3167.75,71.267,75.3103,166.232,100.827,101.755,0.00197969,0.208326,20.8167,233.194,-0.0827325,0.0,0.0
12705,3176,71.0823,75.5676,159.662,100.942,102.13,0.00168966,0.207154,20.8172,232.723,-0.105661,0.0,0.0
12738,3184.25,71.5888,75.5837,162.742,101.015,101.736,0.00215036,0.210365,20.8143,232.253,-0.0642099,0.0,0.0
12771,3192.5,70.8993,75.3259,160.57,101.065,102.131,0.00183762,0.209171,20.8117,231.632,-0.094835,0.0,0.0
12804,3200.75,70.8174,75.2576,162.096,101.085,102.042,0.00166156,0.20941,20.813,231.202,-0.0850713,0.0,0.0
12837,3209,70.8075,75.2997,166.211,101.094,101.904,0.00194347,0.209369,20.8096,230.572,-0.0720958,0.0,0.0
12870,3217.25,70.6437,75.1289,162.942,101.077,101.925,0.00192401,0.20905,20.8142,230.031,-0.0754375,0.0,0.0
12903,3225.5,70.6558,76.0737,161.556,100.985,101.293,0.00191895,0.209245,20.8141,229.481,-0.0275357,0.0,0.0
12936,3233.75,71.042,75.5269,164.153,100.91,102.241,0.00189316,0.210849,20.8112,229.02,-0.118264,0.0,0.0
12969,3242,71.1305,75.9975,164.189,100.731,101.405,0.00203465,0.211656,20.8113,228.49,-0.0601679,0.0,0.0
13002,3250.25,71.9744,76.2479,164.873,100.597,101.464,0.00189328,0.213376,20.8116,227.999,-0.0774731,0.0,0.0
13035,3258.5,71.2088,75.5367,166.444,100.435,101.707,0.00190006,0.209844,20.8108,227.409,-0.113627,0.0,0.0
13068,3266.75,71.6344,75.6796,158.676,100.222,101.676,0.0018098,0.211461,20.8132,226.878,-0.13011,0.0,0.0
13101,3275,71.2964,75.7617,163.948,100.019,101.188,0.0019292,0.208736,20.8117,226.268,-0.104882,0.0,0.0
13134,3283.25,71.5302,75.6971,160.136,99.8737,100.937,0.00182528,0.209719,20.8144,225.777,-0.0956509,0.0,0.0
13167,3291.5,71.2992,74.9514,161.359,99.8248,100.82,0.00171036,0.211748,20.8125,225.187,-0.0895794,0.0,0.0
13200,3299.75,70.681,75.5024,160.566,99.9171,101.165,0.00186981,0.210071,20.8141,224.837,-0.112102,0.0,0.0
13233,3308,71.3033,75.548,157.328,100.114,100.832,0.0021199,0.213497,20.8111,224.266,-0.0644858,0.0,0.0
13266,3316.25,71.1024,76.0126,160.382,100.436,101.323,0.00175391,0.213998,20.8054,223.605,-0.0793881,0.0,0.0
13299,3324.5,71.2774,76.1277,163.112,100.826,102.176,0.00161275,0.212079,20.8085,223.235,-0.120151,0.0,0.0
13332,3332.75,71.1165,76.7266,161.326,101.206,102.674,0.00183539,0.215886,20.808,222.515,-0.130028,0.0,0.0
13365,3341,71.8257,76.3647,165.395,101.492,102.454,0.00163067,0.214478,20.8086,222.084,-0.0851713,0.0,0.0
13398,3349.25,72.3011,76.5559,164.436,101.632,102.867,0.00148052,0.212467,20.8104,221.544,-0.109091,0.0,0.0
13431,3357.5,72.1855,77.1124,159.288,101.68,102.716,0.00172801,0.215383,20.8083,221.163,-0.0915312,0.0,0.0
13464,3365.75,71.9648,76.3421,161.14,101.613,102.203,0.00162208,0.217595,20.8074,220.413,-0.052302,0.0,0.0
13497,3374,71.8767,76.8728,161.396,101.535,102.43,0.0017302,0.21597,20.8066,219.982,-0.0792442,0.0,0.0
13530,3382.25,71.9937,76.7276,156.929,101.347,102.045,0.0018206,0.217073,20.8048,219.422,-0.0620114,0.0,0.0
13563,3390.5,71.9046,76.9287,158.068,101.157,103.024,0.00199743,0.216036,20.8044,218.971,-0.165152,0.0,0.0
13596,3398.75,72.4157,76.5059,162.238,100.952,101.772,0.00173502,0.214958,20.8064,218.431,-0.073079,0.0,0.0
13629,3407,71.9866,76.349,162.929,100.782,101.934,0.00197443,0.21497,20.8041,217.93,-0.102623,0.0,0.0
13662,3415.25,71.7013,76.6966,160.53,101.024,102.037,0.0017155,0.212648,20.8074,217.39,-0.0901611,0.0,0.0
13695,3423.5,71.6087,76.2921,160.002,101.212,102.506,0.00161901,0.213606,20.8074,216.759,-0.114781,0.0,0.0
13728,3431.75,71.9778,76.0547,154.146,101.141,102.758,0.00156033,0.212711,20.8047,216.349,-0.143283,0.0,0.0
13761,3440,72.2049,76.975,163.08,100.794,101.748,0.00153294,0.216492,20.8032,215.739,-0.0851001,0.0,0.0
13794,3448.25,71.8708,76.7057,162.445,100.397,100.981,0.00169146,0.217632,20.8017,215.208,-0.052308,0.0,0.0
13827,3456.5,72.1079,76.76,160.277,100.596,101.689,0.00201025,0.21502,20.8023,214.698,-0.0975725,0.0,0.0
13860,3464.75,71.8774,76.7019,162.876,100.86,102.02,0.00202701,0.218235,20.8027,214.127,-0.103276,0.0,0.0
13893,3473,72.0113,76.6844,163.567,101.015,102.055,0.00154284,0.214374,20.8038,213.527,-0.092497,0.0,0.0
13926,3481.25,72.5845,76.6181,162.381,101.016,102.409,0.00158863,0.215045,20.8039,213.096,-0.123671,0.0,0.0
13959,3489.5,71.9262,76.3569,160.777,100.843,102.391,0.00152621,0.216045,20.8027,212.526,-0.137568,0.0,0.0
13992,3497.75,71.6253,76.2362,161.448,100.545,101.776,0.00158145,0.213802,20.8075,211.965,-0.109853,0.0,0.0
14025,3506,72.101,76.2396,159.917,100.163,101.254,0.00177287,0.214338,20.8061,211.525,-0.0977841,0.0,0.0
14058,3514.25,72.0797,76.5869,159.885,99.8882,100.756,0.00190306,0.211864,20.8061,211.075,-0.0780763,0.0,0.0
14091,3522.5,72.0762,76.8097,161.173,99.7691,100.679,0.00189622,0.212634,20.8096,210.454,-0.0819731,0.0,0.0
14124,3530.75,72.1173,76.4542,164.37,99.9265,100.806,0.00140689,0.214835,20.8055,209.994,-0.07909,0.0,0.0
14157,3539,72.1405,76.3678,158.478,100.228,101.23,0.00142637,0.21446,20.8066,209.353,-0.0898257,0.0,0.0
14190,3547.25,72.3796,76.5737,158.484,100.709,101.848,0.0016627,0.213877,20.8071,208.933,-0.101549,0.0,0.0
14223,3555.5,72.2237,77.1046,164.143,101.096,102.413,0.00158885,0.216446,20.8048,208.402,-0.11692,0.0,0.0
14256,3563.75,72.5284,76.4171,162.761,101.424,102.303,0.0015853,0.215707,20.8023,207.862,-0.0778868,0.0,0.0
14289,3572,72.3737,76.5382,162.58,101.621,103.248,0.00176057,0.214101,20.8027,207.391,-0.14342,0.0,0.0
14322,3580.25,72.4978,77.2715,164.454,101.668,102.442,0.00173887,0.217163,20.8043,206.861,-0.0685053,0.0,0.0
14355,3588.5,72.5594,76.8935,169.406,101.592,102.59,0.00179342,0.217929,20.8005,206.38,-0.0883406,0.0,0.0
14388,3596.75,72.2136,76.8669,160.162,101.421,102.819,0.00147701,0.214692,20.804,205.81,-0.123664,0.0,0.0
14421,3605,72.3766,77.2186,163.435,101.217,102.543,0.001463,0.214771,20.8048,205.38,-0.117512,0.0,0.0
14454,3613.25,73.1635,77.1584,156.623,100.966,102.404,0.00158082,0.218565,20.8004,204.779,-0.12765,0.0,0.0
14487,3621.5,72.384,76.7112,161.891,100.795,101.794,0.00173761,0.221764,20.7942,204.259,-0.0890576,0.0,0.0
14520,3629.75,72.8298,76.9662,161.387,101.029,102.267,0.00135801,0.220691,20.7955,203.618,-0.109987,0.0,0.0
14553,3638,72.9402,77.202,165.231,101.211,102.29,0.00156928,0.22201,20.7975,203.128,-0.0957342,0.0,0.0
14586,3646.25,72.6828,77.6715,159.173,101.243,102.516,0.00124615,0.223019,20.797,202.577,-0.112839,0.0,0.0
14619,3654.5,72.6538,77.3987,162.116,101.19,102.024,0.0017758,0.223878,20.7941,202.077,-0.0740883,0.0,0.0
14652,3662.75,72.9616,77.21,160.798,101.086,102.496,0.00142573,0.221826,20.7979,201.526,-0.125028,0.0,0.0
14685,3671,72.7972,77.2931,162.077,100.882,101.217,0.00125867,0.230393,20.7938,200.986,-0.0300071,0.0,0.0
14718,3679.25,73.1899,77.4168,160.271,100.62,101.094,0.00122586,0.226668,20.7902,200.345,-0.0424733,0.0,0.0
14751,3687.5,73.0584,77.1142,160.81,100.393,101.714,0.00145144,0.227763,20.7949,199.815,-0.118018,0.0,0.0
14784,3695.75,73.0503,77.8382,154.251,100.486,101.566,0.00141438,0.226997,20.7919,199.274,-0.0965616,0.0,0.0
14817,3704,73.1711,78.1034,157.845,100.619,101.931,0.00175021,0.23387,20.7894,198.754,-0.116978,0.0,0.0
14850,3712.25,73.2408,78.2512,160.259,100.803,101.494,0.00152094,0.235642,20.7814,198.013,-0.0616873,0.0,0.0
14883,3720.5,73.3322,77.9269,160.22,100.957,102.213,0.00128956,0.231173,20.7856,197.603,-0.111621,0.0,0.0
14916,3728.75,73.6981,78.3817,161.846,101.013,102.063,0.00159646,0.235849,20.7838,196.982,-0.0934557,0.0,0.0
14949,3737,73.5066,78.2145,155.392,100.953,102.062,0.00120164,0.235025,20.7844,196.412,-0.0986537,0.0,0.0
14982,3745.25,73.6255,78.7361,164.723,100.809,101.901,0.00135375,0.237523,20.784,195.681,-0.0972721,0.0,0.0
15015,3753.5,72.8078,76.9811,160.035,100.589,101.553,0.0010141,0.23365,20.7795,195.191,-0.0861178,0.0,0.0
15048,3761.75,73.1408,77.6649,162.935,100.363,101.6,0.00128605,0.239675,20.7838,194.61,-0.110604,0.0,0.0
15081,3770,72.9715,77.6352,160.288,100.109,101.029,0.00173413,0.234803,20.7764,194.05,-0.0826244,0.0,0.0
15114,3778.25,73.2523,78.2046,159.971,99.9261,100.718,0.00135597,0.237559,20.7794,193.349,-0.0712798,0.0,0.0
15147,3786.5,73.0161,78.3682,159.046,99.7861,101.059,0.0014873,0.242766,20.7751,192.728,-0.11445,0.0,0.0
15180,3794.75,73.0932,78.4776,162.656,99.7457,100,0.00141971,0.24251,20.7778,192.178,-0.022992,0.0,0.0
15213,3803,73.1908,78.2735,159.397,99.7733,100.188,0.00174076,0.243861,20.7742,191.587,-0.037466,0.0,0.0
15246,3811.25,73.5282,78.5741,160.76,99.7695,99.5759,0.00157148,0.24081,20.7775,190.997,0.0175449,0.0,0.0
15279,3819.5,73.3993,78.5047,156.733,99.7551,100.596,0.00119237,0.2434,20.7738,190.416,-0.0758397,0.0,0.0
15312,3827.75,73.497,78.5739,161.731,99.7933,100.908,0.00153227,0.238403,20.7754,189.796,-0.100268,0.0,0.0
15345,3836,73.6777,78.643,161.094,99.8733,100.938,0.00154778,0.238709,20.7743,189.245,-0.0957538,0.0,0.0
15378,3844.25,73.2521,78.8764,164.863,100.024,100.546,0.00127832,0.249663,20.7687,188.605,-0.0470106,0.0,0.0
15411,3852.5,74.1149,79.3077,159.606,100.254,100.973,0.00130256,0.249312,20.7656,187.844,-0.0645004,0.0,0.0
15444,3860.75,73.5762,78.1342,159.351,100.489,101.013,0.00148105,0.24722,20.7661,187.324,-0.0469581,0.0,0.0
15458,3864.25,73.7768,78.3829,163.133,100.614,101.882,0.001434,0.247312,20.7685,187.033,-0.113101,0.0,0.0