File: 01_Data/Engineered_Wood_Table/Cone/Engineered_Wood_Table_Cone_HF25Scan_230626_R1.csv
Names,Time,Stack TC,Smoke TC,Exh Press,Smoke Comp,Smoke Meas,CO Meter,CO2 Meter,O2 Meter,Sample Mass,Ext Coeff,Start Test,Flame Verif
Chan Gain,,500,500,1,1,1,1,1,1,1,1,1.0,1.0
Offset,,0,0,0.245636,0,0,0,0,0,0,0,0.0,0.0
Gain,,1,1,25.011,13.9213,14.958,1,1,1,1.00094,1.03834,1.0,1.0
Units,sec,C,C,Pa,%,%,%,%,%,g,/m,,
Baseline,,21.7165,23.0494,149.185,100.674,100.73,0.000258862,0.04908,20.9592,-444.354,-0.00502879,,
37,9,20.7058,21.8657,147.862,99.6794,100.183,0.000272079,0.0533151,20.9568,395.843,-0.045901,0.0,0.0
74,18.25,21.0847,22.6371,148.966,99.815,100.089,0.000242926,0.0494108,20.9609,395.773,-0.025014,0.0,0.0
111,27.5,21.0741,23.2583,145.22,100.03,100.038,0.000145243,0.0478965,20.9621,395.673,-0.000723707,0.0,0.0
148,36.75,21.731,23.7011,146.171,100.309,97.9408,0.000141913,0.0478064,20.9641,395.513,0.217622,0.0,0.0
185,46,21.2568,24.1086,146.86,100.586,99.926,0.00255431,0.0628275,20.9619,395.313,0.0599625,0.0,0.0
222,55.25,22.226,23.8487,147.648,100.849,100.96,0.00102601,0.0557571,20.9503,395.253,-0.0100132,0.0,0.0
259,64.5,21.8837,23.9662,149.976,101.09,100.249,0.000503982,0.0515082,20.962,395.173,0.0760668,0.0,0.0
296,73.75,22.479,24.0055,149.893,101.298,99.7873,4.59998e-05,0.0518931,20.9624,395.042,0.136869,0.0,0.0
333,83,22.2618,24.073,152.832,101.417,99.371,0.000780208,0.0535571,20.9621,394.862,0.185639,0.0,0.0
370,92.25,22.269,24.4011,148.841,101.478,99.0715,0.00100491,0.0562274,20.9602,394.622,0.218621,0.0,0.0
407,101.5,22.56,24.7327,150.056,101.432,97.9417,0.00164132,0.0600147,20.9621,394.332,0.318968,0.0,0.0
444,110.75,22.7866,24.4603,149.526,101.364,96.3386,0.00232248,0.0631258,20.9591,394.042,0.463144,0.0,0.0
481,120,29.2443,41.495,124.203,101.3,97.0005,0.00282703,0.0777303,20.9576,392.12,0.395014,0.0,1.0
518,129.25,36.1687,50.4588,128.291,101.273,97.215,0.0063987,0.628173,20.3959,390.298,0.372446,0.0,0.0
555,138.5,39.7346,54.6708,131.244,101.325,97.2803,0.00626919,0.57857,20.353,388.556,0.371069,0.0,0.0
592,147.75,43.0809,55.7346,129.046,101.434,97.9696,0.00550814,0.529926,20.4192,386.905,0.316492,0.0,0.0
629,157,44.9243,56.4688,132.765,101.497,97.5583,0.00497517,0.48095,20.4754,385.473,0.360492,0.0,0.0
666,166.25,46.0878,57.0464,128.078,101.446,98.6913,0.00441611,0.460108,20.501,384.102,0.250786,0.0,0.0
703,175.5,46.604,55.0321,138.537,101.228,99.2158,0.003432,0.421961,20.5262,382.951,0.182843,0.0,0.0
740,184.75,45.9151,53.5867,138.673,100.893,99.1756,0.00294457,0.371942,20.5767,381.9,0.156397,0.0,0.0
777,194,45.5167,52.0444,137.305,100.55,99.1482,0.0024314,0.331428,20.6283,381.009,0.127832,0.0,0.0
814,203.25,44.5299,50.2203,133.98,100.195,98.4813,0.00223471,0.296759,20.6715,380.098,0.157152,0.0,0.0
851,212.5,44.3708,48.8652,139.667,99.9182,98.9752,0.00213673,0.281895,20.6938,379.288,0.0863698,0.0,0.0
888,221.75,43.07,48.0288,139.295,99.6374,98.3521,0.00184959,0.268493,20.7071,378.437,0.118258,0.0,0.0
925,231,42.606,46.9584,135.998,99.5639,98.274,0.00187252,0.260912,20.7198,377.626,0.118769,0.0,0.0
962,240.25,42.4232,47.078,135.026,99.6667,98.6347,0.00172078,0.258888,20.7223,376.825,0.0948068,0.0,0.0
999,249.5,41.3264,46.6097,139.137,99.9475,98.8465,0.00163783,0.254949,20.7255,376.085,0.100896,0.0,0.0
1036,258.75,41.7753,46.1637,142.536,100.289,99.3522,0.00149858,0.247088,20.7341,375.344,0.0854459,0.0,0.0
1073,268,41.0776,45.1774,136.428,100.601,99.213,0.00164265,0.236106,20.7467,374.633,0.126534,0.0,0.0
1110,277.25,40.3918,44.1334,138.405,100.814,99.6111,0.00169421,0.229695,20.7539,373.953,0.109314,0.0,0.0
1147,286.5,40.1831,44.324,139.455,100.84,99.4349,0.00150423,0.225494,20.7597,373.302,0.127782,0.0,0.0
1184,295.75,40.4611,43.7256,140.095,100.714,99.1404,0.00188549,0.224114,20.7636,372.621,0.143426,0.0,0.0
1221,305,40.1166,42.9955,137.413,100.485,99.4796,0.00146055,0.22726,20.7579,371.951,0.0915858,0.0,0.0
1258,314.25,39.6349,43.4957,138.866,100.286,98.9743,0.00157856,0.224488,20.7589,371.29,0.119893,0.0,0.0
1295,323.5,39.4529,42.9996,139.076,100.618,99.3947,0.00138417,0.221436,20.7631,370.69,0.111409,0.0,0.0
1332,332.75,39.2895,42.9337,140.696,101.049,99.5385,0.00182132,0.216646,20.7698,370.009,0.137156,0.0,0.0
1369,342,39.5169,42.7737,139.49,101.075,99.9096,0.00161299,0.2127,20.7739,369.398,0.105595,0.0,0.0
1406,351.25,39.1773,42.3604,140.587,100.704,99.1569,0.00170647,0.211596,20.775,368.778,0.141032,0.0,0.0
1443,360.5,39.0282,42.2639,140.16,100.795,99.3381,0.00203588,0.21098,20.778,368.177,0.132582,0.0,0.0
1480,369.75,38.8386,42.1595,138.012,101.045,99.6156,0.00180955,0.207941,20.7811,367.496,0.129792,0.0,0.0
1517,379,38.7123,42.3696,139.902,101.263,99.7991,0.00226876,0.206161,20.7823,366.936,0.132616,0.0,0.0
1554,388.25,38.6602,41.599,141.308,101.429,99.822,0.00250756,0.205342,20.7832,366.335,0.145462,0.0,0.0
1591,397.5,38.4305,42.1021,136.821,101.472,100.208,0.00234746,0.203588,20.7834,365.755,0.114145,0.0,0.0
1628,406.75,38.2466,41.7708,137.857,101.434,99.7663,0.00253688,0.204835,20.7845,365.134,0.151003,0.0,0.0
1665,416,38.6839,41.8423,138.743,101.382,100.099,0.00227486,0.204367,20.7837,364.584,0.116059,0.0,0.0
1702,425.25,38.5771,41.9108,134.9,101.327,100.236,0.00237623,0.203053,20.7851,363.903,0.0986399,0.0,0.0
1739,434.5,38.1938,41.2134,139.998,101.209,100.124,0.00236547,0.202234,20.7855,363.403,0.0981877,0.0,0.0
1776,443.75,38.1825,41.9269,140.501,101.094,99.6462,0.00226717,0.20119,20.789,362.812,0.131399,0.0,0.0
1813,453,38.4274,41.273,142.977,100.994,99.5207,0.0022643,0.201502,20.7886,362.222,0.133881,0.0,0.0
1850,462.25,38.249,40.9963,139.458,100.96,99.5654,0.00277755,0.198537,20.791,361.691,0.126722,0.0,0.0
1887,471.5,37.8512,41.0704,137.455,101.001,99.4577,0.00307269,0.197601,20.7907,361.05,0.140261,0.0,0.0
1924,480.75,37.8614,40.2774,141.918,100.988,99.392,0.00291804,0.195322,20.793,360.53,0.145058,0.0,0.0
1961,490,37.9391,40.9487,133.566,101.041,99.4901,0.00313049,0.194377,20.7933,359.939,0.140933,0.0,0.0
1998,499.25,37.8657,40.2385,142.732,101.084,99.8535,0.00305121,0.194156,20.7981,359.429,0.111557,0.0,0.0
2035,508.5,37.7717,40.5126,140.063,101.087,99.706,0.00312672,0.192612,20.7968,358.848,0.125285,0.0,0.0
2072,517.75,37.6439,40.4869,134.706,101.138,99.9251,0.00320473,0.191827,20.799,358.268,0.109844,0.0,0.0
2109,527,37.1795,40.2124,140.707,101.205,99.9137,0.00356329,0.187175,20.8032,357.697,0.117005,0.0,0.0
2146,536.25,37.1806,40.0923,143.906,101.307,99.926,0.00325222,0.190326,20.8053,357.207,0.125015,0.0,0.0
2183,545.5,37.1864,39.3899,147.131,101.386,99.759,0.00390916,0.186256,20.8043,356.646,0.14732,0.0,0.0
2220,554.75,36.4356,39.0362,143.335,101.431,99.995,0.00371789,0.182285,20.8067,356.156,0.129843,0.0,0.0
2257,564,36.881,39.3561,140.559,101.458,100.147,0.00345334,0.182241,20.8093,355.645,0.118445,0.0,0.0
2294,573.25,36.2655,39.2365,142.693,101.463,100.238,0.00404337,0.180623,20.8088,355.115,0.110569,0.0,0.0
2331,582.5,36.2695,38.9005,137.732,101.45,100.293,0.0042955,0.17873,20.8118,354.604,0.104448,0.0,0.0
2368,591.75,36.1249,38.8881,144.602,101.427,100.626,0.00403329,0.178812,20.8104,354.094,0.0722133,0.0,0.0
2405,601,36.1044,38.5021,142.577,101.396,100.047,0.00420109,0.176001,20.8167,353.633,0.121972,0.0,0.0
2442,610.25,35.6788,38.4237,142.855,101.367,100.319,0.00449278,0.175272,20.8194,353.143,0.0946477,0.0,0.0
2479,619.5,36.5249,38.6953,143.266,101.295,100.102,0.00460576,0.176165,20.8194,352.642,0.10794,0.0,0.0
2516,628.75,36.1368,38.353,142.029,101.238,100.065,0.00473286,0.174621,20.8192,352.112,0.106184,0.0,0.0
2553,638,36.1403,38.3598,139.481,101.213,100.458,0.00463524,0.173207,20.8211,351.622,0.0682235,0.0,0.0
2590,647.25,35.8207,38.5941,135.306,101.139,99.932,0.00450579,0.172728,20.8221,351.151,0.109335,0.0,0.0
2627,656.5,35.684,38.6931,140.999,101.065,100.393,0.0044374,0.170977,20.8235,350.671,0.0607887,0.0,0.0
2664,665.75,35.5378,37.9252,141.471,100.974,99.6375,0.00519348,0.169225,20.8241,350.22,0.121315,0.0,0.0
2701,675,35.111,37.6105,144.993,100.825,99.643,0.00504917,0.167604,20.8245,349.75,0.107392,0.0,0.0
2738,684.25,35.3057,37.0168,138.042,100.723,99.2975,0.0060409,0.161734,20.8329,349.259,0.129856,0.0,0.0
2775,693.5,34.7854,36.4688,142.799,100.666,99.6243,0.00566596,0.156256,20.8347,348.839,0.0946982,0.0,0.0
2812,702.75,34.9008,36.0044,143.132,100.544,99.4855,0.00656335,0.150854,20.85,348.388,0.0964324,0.0,0.0
2849,712,33.9789,36.0754,139.949,100.793,99.3582,0.00736647,0.147271,20.8494,347.938,0.130586,0.0,0.0
2886,721.25,33.7967,34.9899,141.305,100.993,100.079,0.008001,0.1434,20.8537,347.488,0.0827736,0.0,0.0
2923,730.5,33.2145,34.6867,144.492,101.026,99.926,0.00776371,0.140379,20.8584,347.027,0.0996925,0.0,0.0
2960,739.75,33.0543,34.7058,141.501,100.958,99.7348,0.00763258,0.141033,20.8612,346.597,0.111051,0.0,0.0
2997,749,32.4331,34.1396,142.432,100.805,99.6695,0.00781176,0.138383,20.8636,346.146,0.103206,0.0,0.0
3034,758.25,31.7436,34.0429,144.828,100.626,99.486,0.00824315,0.135792,20.8681,345.766,0.103816,0.0,0.0
3071,767.5,32.0919,33.951,143.249,100.352,99.4673,0.00807172,0.135838,20.8656,345.346,0.0806149,0.0,0.0
3108,776.75,32.1938,33.5469,143.534,100.172,99.1692,0.00849184,0.132519,20.8714,344.865,0.0916642,0.0,0.0
3145,786,31.4181,33.0554,144.451,100.243,98.9309,0.00833823,0.132817,20.8701,344.505,0.119986,0.0,0.0
3182,795.25,31.251,32.9533,144.639,100.312,99.1925,0.0079713,0.129901,20.8689,344.134,0.102226,0.0,0.0
3219,804.5,31.9978,32.5722,143.74,100.353,99.2422,0.00817889,0.13226,20.8745,343.724,0.1014,0.0,0.0
3256,813.75,30.7031,33.3693,144.119,100.408,99.1523,0.00822222,0.133076,20.8693,343.324,0.114668,0.0,0.0
3293,823,30.9736,33.1224,144.938,100.474,99.2189,0.00820526,0.13178,20.872,342.913,0.114482,0.0,0.0
3330,832.25,31.3657,32.9323,142.153,100.54,99.7809,0.00793962,0.130728,20.8729,342.523,0.069049,0.0,0.0
3367,841.5,30.6923,32.5418,145.289,100.603,99.0692,0.0081621,0.129918,20.8744,342.133,0.139937,0.0,0.0
3404,850.75,30.7078,31.6238,145.557,100.622,98.778,0.00874097,0.125475,20.8778,341.752,0.168445,0.0,0.0
3441,860,29.8369,31.6456,142.188,100.69,99.8156,0.00939367,0.117815,20.8844,341.382,0.0794202,0.0,0.0
3478,869.25,30.1203,30.9011,144.306,100.739,99.6042,0.0104214,0.112981,20.8943,340.982,0.103145,0.0,0.0
3515,878.5,29.9849,30.6994,152.318,100.767,100.167,0.0103771,0.112931,20.8948,340.621,0.0543971,0.0,0.0
3552,887.75,29.798,29.9778,144.567,100.781,99.1774,0.00982598,0.112646,20.8955,340.261,0.146137,0.0,0.0
3589,897,29.2987,30.0272,144.251,100.781,99.5855,0.010005,0.112504,20.8972,339.89,0.108696,0.0,0.0
3626,906.25,28.8988,29.768,139.414,100.794,99.3399,0.00992991,0.111732,20.8976,339.54,0.132376,0.0,0.0
3663,915.5,28.6973,29.8114,140.574,100.783,99.412,0.0100709,0.111856,20.8976,339.13,0.124729,0.0,0.0
3700,924.75,28.8057,29.9061,141.447,100.754,99.3691,0.00980057,0.111605,20.8987,338.819,0.126049,0.0,0.0
3737,934,29.1549,29.6326,145.588,100.716,99.4874,0.00988645,0.111552,20.8984,338.459,0.11184,0.0,0.0
3774,943.25,28.622,30.5203,144.996,100.687,99.6444,0.00988954,0.112489,20.896,338.139,0.0947842,0.0,0.0
3811,952.5,29.1565,30.1178,142.184,100.615,99.7759,0.0101457,0.112189,20.8943,337.789,0.0762778,0.0,0.0
3848,961.75,28.2695,29.7696,145.328,100.569,99.4718,0.00993588,0.111704,20.8943,337.428,0.0999567,0.0,0.0
3885,971,27.999,30.0645,145.441,100.558,100.115,0.00971251,0.113253,20.8952,337.038,0.0402523,0.0,0.0
3922,980.25,28.7425,29.9655,145.431,100.53,99.8142,0.00970061,0.11389,20.8931,336.738,0.0651214,0.0,0.0
3959,989.5,28.277,29.5399,142.575,100.467,99.7608,0.0101706,0.114229,20.8928,336.377,0.0642201,0.0,0.0
3996,998.75,28.2539,29.6164,145.273,100.452,99.7389,0.00997981,0.113232,20.8942,336.047,0.0648734,0.0,0.0
4033,1008,28.3304,29.7337,144.367,100.421,99.1555,0.010093,0.113011,20.8935,335.717,0.115493,0.0,0.0
4070,1017.25,28.0371,29.9531,148.856,100.316,99.287,0.00991709,0.113704,20.8948,335.376,0.0939396,0.0,0.0
4107,1026.5,28.0232,29.1593,143.373,100.272,99.3203,0.00977597,0.113576,20.8949,334.996,0.0868323,0.0,0.0
4144,1035.75,28.018,30.2211,140.153,100.23,99.0852,0.0100259,0.113478,20.8944,334.656,0.104596,0.0,0.0
4181,1045,28.0574,29.8146,144.634,100.163,99.2546,0.009995,0.113219,20.8962,334.285,0.0830167,0.0,0.0
4218,1054.25,28.1777,29.8593,146.024,100.044,99.1605,0.00999804,0.113658,20.8966,333.945,0.0807871,0.0,0.0
4255,1063.5,28.385,30.3048,140.338,99.9326,99.2619,0.0103879,0.113648,20.8952,333.615,0.0613442,0.0,0.0
4292,1072.75,27.8369,30.0389,143.442,99.8179,98.9583,0.0102301,0.114103,20.8941,333.264,0.0787798,0.0,0.0
4329,1082,27.985,29.2966,143.744,99.7062,98.8515,0.0102495,0.115143,20.8923,332.924,0.0784159,0.0,0.0
4366,1091.25,28.2056,30.076,145.121,99.6399,98.2275,0.0101611,0.114789,20.8932,332.554,0.130038,0.0,0.0
4403,1100.5,28.219,29.8445,145.118,99.5736,99.1117,0.0100973,0.115004,20.8923,332.213,0.0423557,0.0,0.0
4440,1109.75,28.4565,29.2672,139.962,99.5409,98.3562,0.0105162,0.114139,20.8927,331.833,0.109057,0.0,0.0
4477,1119,27.8251,29.9833,145.263,99.5027,98.7438,0.0103691,0.114954,20.891,331.473,0.0697386,0.0,0.0
4514,1128.25,28.0361,30.067,146.083,99.4776,98.3293,0.0104304,0.114274,20.8929,331.102,0.105756,0.0,0.0
4551,1137.5,27.6551,30.0495,148.601,99.518,98.4438,0.010711,0.113198,20.8942,330.762,0.0988451,0.0,0.0
4588,1146.75,28.3208,30.3061,140.677,99.5133,98.7433,0.0108726,0.11334,20.8946,330.442,0.0707536,0.0,0.0
4625,1156,27.9695,30.4674,144.571,99.5804,99.0459,0.010368,0.114421,20.8947,330.021,0.0490204,0.0,0.0
4662,1165.25,27.8434,30.0635,142.872,99.7474,98.1394,0.00968247,0.116876,20.8877,329.671,0.148032,0.0,0.0
4699,1174.5,28.0848,29.4176,142.985,99.9297,99.3025,0.010361,0.114841,20.8941,329.311,0.0573464,0.0,0.0
4736,1183.75,27.7671,29.9893,145.886,100.215,99.1025,0.0104009,0.114401,20.8953,328.94,0.10165,0.0,0.0
4773,1193,27.9354,30.062,137.371,100.485,99.8909,0.0105715,0.114541,20.8933,328.56,0.0539686,0.0,0.0
4810,1202.25,28.2265,30.0668,143.681,100.596,99.911,0.0101023,0.118259,20.8915,328.179,0.062221,0.0,0.0
4847,1211.5,27.9576,30.7546,145.434,100.584,99.4417,0.009193,0.120466,20.8861,327.819,0.104024,0.0,0.0
4884,1220.75,28.6318,30.1089,145.312,100.475,99.3696,0.00947054,0.11723,20.8876,327.469,0.10074,0.0,0.0
4921,1230,27.9739,30.4114,145.031,100.24,99.6987,0.010709,0.112297,20.8975,327.108,0.0493001,0.0,0.0
4958,1239.25,28.316,30.0399,143.168,99.9301,98.6287,0.00991815,0.119896,20.8869,326.718,0.119395,0.0,0.0
4995,1248.5,27.9665,29.3855,142.247,99.6204,98.9711,0.0101672,0.114976,20.8926,326.338,0.0595602,0.0,0.0
5032,1257.75,27.6808,29.5944,144.012,99.5061,99.0706,0.0106066,0.113312,20.8964,325.957,0.0399507,0.0,0.0
5069,1267,28.1284,29.8328,142.945,99.555,98.5132,0.0101417,0.115594,20.8928,325.587,0.0958092,0.0,0.0
5106,1276.25,28.295,29.7936,144.54,99.758,98.6301,0.00975116,0.117124,20.888,325.217,0.103572,0.0,0.0
5143,1285.5,28.0577,30.1476,144.278,100.022,99.1779,0.0101925,0.115328,20.8925,324.816,0.077221,0.0,0.0
5180,1294.75,28.3321,30.1993,144.415,100.356,99.5316,0.00921369,0.125393,20.884,324.436,0.0751084,0.0,0.0
5217,1304,28.2551,29.9108,141.936,100.673,100.129,0.00885689,0.124267,20.8813,324.056,0.0493909,0.0,0.0
5254,1313.25,28.2755,30.4794,143.07,100.786,99.9151,0.00913142,0.122646,20.8863,323.665,0.0790629,0.0,0.0
5291,1322.5,28.5282,30.6607,141.262,100.53,99.8028,0.00967003,0.1231,20.8833,323.295,0.0660862,0.0,0.0
5328,1331.75,28.5467,31.1985,146.163,100.213,99.4102,0.00967799,0.121157,20.8835,322.894,0.0732226,0.0,0.0
5365,1341,28.5212,30.3804,142.081,100.872,99.8452,0.00995312,0.11992,20.8906,322.494,0.0932238,0.0,0.0
5402,1350.25,28.7145,30.7457,142.149,100.963,100.321,0.0103964,0.11924,20.8904,322.104,0.0580995,0.0,0.0
5439,1359.5,29.1342,31.2504,142.84,100.681,99.8402,0.0095313,0.124805,20.8846,321.703,0.0763629,0.0,0.0
5476,1368.75,29.1241,31.1119,145.486,101.193,100.524,0.00860808,0.128241,20.8765,321.293,0.0604306,0.0,0.0
5513,1378,29.2774,31.309,142.798,101.448,100.56,0.00929351,0.123915,20.8812,320.893,0.0801554,0.0,0.0
5550,1387.25,29.3591,31.6966,147.244,101.122,99.8932,0.00939261,0.12315,20.8764,320.482,0.111342,0.0,0.0
5587,1396.5,28.8972,31.8393,142.706,100.352,99.3956,0.00900559,0.129255,20.881,320.072,0.0872184,0.0,0.0
5624,1405.75,30.0604,31.8599,142.946,99.6888,98.5657,0.00886711,0.126846,20.8785,319.671,0.103193,0.0,0.0
5661,1415,29.4231,31.7396,141.674,99.5303,98.6762,0.00878556,0.125973,20.8802,319.251,0.0784999,0.0,0.0
5698,1424.25,29.6256,31.8888,143.409,99.8307,98.898,0.00920872,0.127008,20.8808,318.821,0.0854911,0.0,0.0
5735,1433.5,29.9896,32.326,143.765,100.27,99.2436,0.00884827,0.128763,20.8793,318.41,0.0936752,0.0,0.0
5772,1442.75,29.5974,31.6792,148.526,100.593,99.4335,0.0086175,0.131653,20.8744,317.97,0.105585,0.0,0.0
5809,1452,29.7487,32.3881,142.348,100.767,99.4947,0.00857289,0.132067,20.873,317.579,0.115703,0.0,0.0
5846,1461.25,30.2444,32.8525,141.984,100.775,99.1957,0.00852206,0.134227,20.8713,317.149,0.143846,0.0,0.0
5883,1470.5,29.942,32.2505,145.752,100.662,99.4969,0.00836544,0.132134,20.8705,316.679,0.106042,0.0,0.0
5920,1479.75,29.686,32.6974,144.19,100.54,99.4531,0.00987222,0.130022,20.8784,316.268,0.0990159,0.0,0.0
5957,1489,30.0561,33.1748,143.559,100.386,99.1847,0.00892131,0.13008,20.874,315.818,0.109687,0.0,0.0
5994,1498.25,30.4158,33.0594,143.419,100.27,98.9158,0.00855783,0.139018,20.8662,315.377,0.123882,0.0,0.0
6031,1507.5,30.567,33.519,142.584,100.223,99.4257,0.00855839,0.136863,20.8673,314.867,0.072767,0.0,0.0
6068,1516.75,30.5005,33.8501,143.485,100.208,98.8551,0.008836,0.136952,20.8661,314.467,0.1238,0.0,0.0
6105,1526,31.0891,33.8744,138.808,100.205,99.182,0.00808006,0.141995,20.8624,313.976,0.0935022,0.0,0.0
6142,1535.25,30.9988,33.6512,144.764,100.223,99.5106,0.00849917,0.142585,20.8614,313.506,0.0649532,0.0,0.0
6179,1544.5,31.4672,34.3772,141.052,100.244,99.6782,0.00742125,0.147792,20.8556,313.045,0.0515623,0.0,0.0
6216,1553.75,31.3247,35.0441,145.836,100.274,99.2879,0.00699392,0.152344,20.8518,312.555,0.089998,0.0,0.0
6253,1563,31.7551,34.4658,142.107,100.329,99.1546,0.00685326,0.152543,20.8499,312.054,0.107249,0.0,0.0
6290,1572.25,31.9702,35.4816,139.966,100.389,99.2902,0.00775576,0.148241,20.8522,311.594,0.100279,0.0,0.0
6327,1581.5,32.1527,35.285,142.65,100.486,99.6777,0.00666464,0.155429,20.8485,311.083,0.0735425,0.0,0.0
6364,1590.75,32.8727,35.2486,142.543,100.538,99.5458,0.00672746,0.159247,20.8441,310.593,0.0903785,0.0,0.0
6401,1600,32.4096,35.6177,141.608,100.613,99.6855,0.00609029,0.162002,20.8389,310.082,0.0843788,0.0,0.0
6438,1609.25,32.7996,35.7361,140.914,100.668,99.6248,0.00761296,0.159631,20.844,309.582,0.094926,0.0,0.0
6475,1618.5,33.7131,35.9188,136.873,100.71,99.1884,0.00609278,0.165142,20.8369,309.071,0.138639,0.0,0.0
6512,1627.75,33.5244,36.4516,140.555,100.747,99.7571,0.0058198,0.167029,20.8307,308.531,0.0899012,0.0,0.0
6549,1637,33.6861,36.8753,143.005,100.733,99.565,0.0055601,0.168708,20.8299,307.97,0.106274,0.0,0.0
6586,1646.25,33.6521,37.6817,141.394,100.663,99.5084,0.00582854,0.173499,20.8262,307.41,0.105075,0.0,0.0
6623,1655.5,34.3342,38.0479,141.839,100.522,99.0724,0.00518269,0.179267,20.8177,306.879,0.132332,0.0,0.0
6660,1664.75,34.4698,38.1257,143.281,100.346,99.281,0.00474128,0.18024,20.8164,306.359,0.0971844,0.0,0.0
6697,1674,34.8082,38.5548,141.946,100.207,99.2372,0.0045672,0.184388,20.8123,305.818,0.0885862,0.0,0.0
6734,1683.25,35.3276,38.9734,140.337,100.004,98.7077,0.00421855,0.184792,20.8114,305.208,0.118879,0.0,0.0
6771,1692.5,35.5631,39.4193,141.336,99.8332,98.8382,0.00436481,0.186808,20.8064,304.687,0.0912332,0.0,0.0
6808,1701.75,35.4277,39.5733,140.313,99.7368,98.3548,0.00415273,0.190919,20.8003,304.127,0.127087,0.0,0.0
6845,1711,36.2183,40.3489,138.672,99.6561,98.7447,0.00416453,0.192998,20.798,303.566,0.0836827,0.0,0.0
6882,1720.25,36.3808,40.0141,141.023,99.5533,98.3064,0.00417646,0.193328,20.8004,302.976,0.114793,0.0,0.0
6919,1729.5,36.3749,40.4257,137.68,99.4878,98.2215,0.00407942,0.195453,20.797,302.415,0.116675,0.0,0.0
6956,1738.75,36.5633,40.6955,144.834,99.4708,98.0645,0.00397861,0.194929,20.7959,301.775,0.129693,0.0,0.0
6993,1748,37.2199,40.7233,137.106,99.5193,98.6073,0.00411459,0.195988,20.7984,301.264,0.0838548,0.0,0.0
7030,1757.25,37.2806,41.0096,140.779,99.6493,98.3037,0.00417029,0.197435,20.797,300.603,0.123827,0.0,0.0
7067,1766.5,37.5543,41.8082,135.552,99.8196,98.7908,0.00339885,0.202287,20.7904,300.003,0.0943683,0.0,0.0
7104,1775.75,37.754,41.5952,137.185,100.013,98.6191,0.00286506,0.20622,20.7846,299.442,0.127828,0.0,0.0
7141,1785,37.6837,41.6505,139.051,100.194,98.7839,0.0032642,0.206713,20.7826,298.802,0.129127,0.0,0.0
7178,1794.25,37.3454,41.5779,144.594,100.426,98.9569,0.00313805,0.205336,20.7848,298.261,0.134213,0.0,0.0
7215,1803.5,37.9426,41.3409,140.926,100.649,99.3445,0.00318759,0.201773,20.788,297.701,0.118818,0.0,0.0
7252,1812.75,37.6346,40.9009,141.421,100.902,99.6599,0.00359594,0.1937,20.792,297.18,0.112792,0.0,0.0
7289,1822,37.382,40.4412,143.576,101.156,99.8425,0.00377414,0.186681,20.798,296.72,0.119024,0.0,0.0
7326,1831.25,36.8882,40.3051,138.614,101.317,100.19,0.00390266,0.182058,20.8067,296.119,0.101875,0.0,0.0
7363,1840.5,36.8778,40.0582,140.617,101.385,100.322,0.00433773,0.175652,20.8109,295.709,0.0959951,0.0,0.0
7400,1849.75,37.0951,39.0353,141.424,101.385,99.9836,0.00531316,0.170263,20.8236,295.228,0.12676,0.0,0.0
7437,1859,36.6319,38.9429,139.601,101.335,100.661,0.00494655,0.173795,20.8166,294.738,0.0607877,0.0,0.0
7474,1868.25,36.7358,39.0691,137.953,101.178,100.118,0.00520967,0.177571,20.8144,294.207,0.0959747,0.0,0.0
7511,1877.5,36.1895,38.8916,142.016,101.016,99.8037,0.00554364,0.175886,20.8142,293.707,0.110009,0.0,0.0
7548,1886.75,36.5156,39.6635,141.508,100.794,99.6992,0.0045418,0.179903,20.8124,293.206,0.0994584,0.0,0.0
7585,1896,35.935,39.4062,138.838,100.602,99.8594,0.00491266,0.181075,20.8087,292.696,0.0675014,0.0,0.0
7622,1905.25,36.3018,39.8318,140.391,100.546,99.628,0.00449683,0.180303,20.8127,292.165,0.083517,0.0,0.0
7659,1914.5,36.5419,39.9187,144.862,100.8,99.3837,0.00472791,0.18583,20.8109,291.625,0.128897,0.0,0.0
7696,1923.75,35.9993,39.863,140.557,100.954,99.874,0.00512345,0.184753,20.8036,291.125,0.0979622,0.0,0.0
7733,1933,36.535,39.7189,137.68,100.991,99.6645,0.00447919,0.188575,20.8072,290.584,0.120424,0.0,0.0
7770,1942.25,36.7144,39.8647,138.769,100.867,99.6197,0.00457546,0.187831,20.8017,290.043,0.113356,0.0,0.0
7807,1951.5,36.833,39.9037,140.519,100.645,99.1879,0.0044251,0.188564,20.8034,289.513,0.132839,0.0,0.0
7844,1960.75,37.5044,40.4622,142.315,100.306,99.1181,0.00493983,0.190061,20.8036,288.952,0.108522,0.0,0.0
7881,1970,37.2844,40.5888,139.421,100.113,99.2244,0.0041659,0.192455,20.8011,288.412,0.0811832,0.0,0.0
7918,1979.25,37.3509,40.1702,142.705,100.178,99.1035,0.00400825,0.193679,20.7994,287.841,0.0982447,0.0,0.0
7955,1988.5,37.2005,40.2656,137.397,100.202,98.93,0.00412399,0.191157,20.8015,287.291,0.116363,0.0,0.0
7992,1997.75,36.9034,40.3868,139.056,100.247,98.6451,0.00461049,0.190045,20.8006,286.77,0.146719,0.0,0.0
8029,2007,37.3934,40.6462,136.271,100.258,98.7241,0.00450765,0.186786,20.8047,286.28,0.140395,0.0,0.0
8066,2016.25,37.1906,40.1716,138.092,100.278,99.4883,0.00488753,0.187663,20.803,285.749,0.0720571,0.0,0.0
8103,2025.5,37.1714,40.3007,133.827,100.335,98.9556,0.00459795,0.191377,20.8008,285.239,0.126129,0.0,0.0
8140,2034.75,37.428,40.2051,138.924,100.373,99.0117,0.00439539,0.186393,20.8051,284.698,0.124355,0.0,0.0
8177,2044,36.8995,39.5791,139.706,100.465,99.3176,0.00463482,0.180492,20.8089,284.258,0.104664,0.0,0.0
8214,2053.25,36.9345,39.4599,135.9,100.588,99.402,0.00524113,0.179322,20.8136,283.798,0.108009,0.0,0.0
8251,2062.5,37.1973,40.1997,139.341,100.655,99.4326,0.00477953,0.180613,20.8082,283.297,0.111322,0.0,0.0
8288,2071.75,36.4883,39.1509,145.702,100.687,99.465,0.00449523,0.178935,20.8085,282.847,0.111236,0.0,0.0
8325,2081,36.5092,38.893,136.165,100.696,99.6252,0.00465024,0.174784,20.8112,282.336,0.0973434,0.0,0.0
8362,2090.25,36.5054,39.4763,143.475,100.702,99.7654,0.00466472,0.176755,20.8104,281.906,0.0851178,0.0,0.0
8399,2099.5,36.1913,39.6402,141.42,100.705,99.292,0.00447377,0.176279,20.8148,281.455,0.128668,0.0,0.0
8436,2108.75,36.4842,39.4648,138.669,100.708,99.706,0.00441843,0.183261,20.8111,281.005,0.0910365,0.0,0.0
8473,2118,36.5478,39.3369,147.536,100.705,99.842,0.00471237,0.180654,20.802,280.525,0.0783492,0.0,0.0
8510,2127.25,36.218,39.3047,142.368,100.711,99.9758,0.00431934,0.177259,20.8101,280.064,0.0667319,0.0,0.0
8547,2136.5,36.2549,38.7643,141.026,100.694,99.3445,0.00489367,0.172229,20.808,279.634,0.122931,0.0,0.0
8584,2145.75,36.5236,38.9436,142.248,100.709,99.8046,0.00486501,0.175669,20.8196,279.113,0.0821872,0.0,0.0
8621,2155,36.206,38.7781,141.981,100.714,100.067,0.00467246,0.174361,20.8139,278.693,0.0587284,0.0,0.0
8658,2164.25,35.6189,38.4937,139.112,100.728,99.7252,0.00534402,0.171529,20.8192,278.182,0.0911289,0.0,0.0
8695,2173.5,35.9387,37.7886,140.092,100.723,100.042,0.00559992,0.173279,20.8205,277.782,0.0618597,0.0,0.0
8732,2182.75,35.5033,37.975,140.684,100.708,100.223,0.00579672,0.16816,20.822,277.291,0.0439508,0.0,0.0
8769,2192,35.6894,38.2086,142.699,100.72,99.884,0.00562768,0.169437,20.8245,276.851,0.0759397,0.0,0.0
8806,2201.25,35.3092,38.1277,139.655,100.724,99.4235,0.00582556,0.16913,20.8216,276.401,0.118345,0.0,0.0
8843,2210.5,35.4914,37.9845,140.036,100.707,99.9922,0.00543631,0.169768,20.8228,275.94,0.0648508,0.0,0.0
8880,2219.75,35.3596,38.0476,140.534,100.712,99.5992,0.00516423,0.171805,20.8206,275.48,0.101222,0.0,0.0
8917,2229,36.0373,38.6505,139.939,100.694,99.8493,0.00555545,0.17202,20.8199,274.999,0.0766837,0.0,0.0
8954,2238.25,35.8893,38.1954,140.947,100.689,99.5243,0.00514237,0.175053,20.8119,274.589,0.105996,0.0,0.0
8991,2247.5,35.0928,38.9349,145.709,100.688,99.4294,0.00556899,0.173182,20.8155,274.098,0.114573,0.0,0.0
9028,2256.75,35.8573,38.408,138.151,100.697,99.9361,0.00520758,0.175898,20.8136,273.608,0.0690446,0.0,0.0
9065,2266,35.9331,38.5484,141.288,100.698,99.5841,0.00558293,0.179453,20.8184,273.168,0.101293,0.0,0.0
9102,2275.25,36.0426,38.1925,140.399,100.696,99.4563,0.00507037,0.177155,20.8087,272.667,0.112837,0.0,0.0
9139,2284.5,36.3141,39.2385,140.114,100.669,100.204,0.0052879,0.174418,20.8103,272.147,0.0421547,0.0,0.0
9176,2293.75,35.9951,38.5258,140.462,100.676,99.7631,0.00554523,0.180595,20.8107,271.746,0.0829812,0.0,0.0
9213,2303,35.8723,38.8095,140.008,100.687,99.5061,0.00567581,0.177557,20.8101,271.266,0.107437,0.0,0.0
9250,2312.25,35.8529,38.7151,142.442,100.682,99.7074,0.00523945,0.177366,20.8122,270.725,0.0886056,0.0,0.0
9287,2321.5,36.0857,38.5289,141.492,100.689,99.6709,0.00529249,0.172938,20.8135,270.345,0.0925951,0.0,0.0
9324,2330.75,36.4504,39.4818,139.272,100.696,99.8361,0.00594828,0.181383,20.8065,269.864,0.0780833,0.0,0.0
9361,2340,36.4736,39.5017,139.018,100.7,99.4865,0.00606823,0.186285,20.8032,269.364,0.110462,0.0,0.0
9398,2349.25,36.6499,40.4245,142.456,100.711,99.6512,0.00501748,0.190196,20.7979,268.884,0.0963486,0.0,0.0
9435,2358.5,35.848,40.1617,141.249,100.703,99.391,0.00542845,0.189402,20.7951,268.303,0.119432,0.0,0.0
9472,2367.75,37.192,40.4733,140.45,100.716,99.6809,0.0054136,0.188438,20.7994,267.802,0.0940986,0.0,0.0
9509,2377,37.4014,40.7209,139.866,100.685,99.7786,0.00445731,0.187648,20.7983,267.352,0.0823712,0.0,0.0
9546,2386.25,37.6855,41.0161,142.397,100.635,99.4239,0.00446175,0.193465,20.7909,266.842,0.110309,0.0,0.0
9583,2395.5,37.0603,41.153,138.143,100.576,99.0532,0.00443019,0.194991,20.7877,266.351,0.138983,0.0,0.0
9620,2404.75,37.8136,41.1411,138.726,100.512,99.2422,0.00513035,0.191865,20.7951,265.861,0.115772,0.0,0.0
9657,2414,37.8566,41.5353,141.434,100.455,99.3166,0.00516103,0.196303,20.7886,265.33,0.103823,0.0,0.0
9694,2423.25,37.7445,40.9448,138.441,100.389,99.287,0.00538381,0.195759,20.7888,264.81,0.100495,0.0,0.0
9731,2432.5,37.8167,40.861,139.35,100.328,98.8816,0.00507544,0.195043,20.7848,264.299,0.132283,0.0,0.0
9768,2441.75,37.9773,41.1752,140.368,100.279,98.8259,0.00552511,0.196188,20.7877,263.779,0.132938,0.0,0.0
9805,2451,37.2814,40.5813,139.911,100.174,99.1071,0.00565731,0.200939,20.7848,263.248,0.0975615,0.0,0.0
9842,2460.25,38.1026,41.4184,140.019,100.049,99.239,0.0054542,0.195615,20.7872,262.738,0.074081,0.0,0.0
9879,2469.5,37.8741,41.1501,139.269,99.9416,98.3731,0.00571378,0.199801,20.7815,262.147,0.144078,0.0,0.0
9916,2478.75,37.9723,41.0592,136.467,99.8379,98.8424,0.00620047,0.198587,20.7885,261.587,0.0912805,0.0,0.0
9953,2488,37.7742,41.5604,144.612,99.7576,98.4361,0.00564716,0.196196,20.7913,261.116,0.121467,0.0,0.0
9990,2497.25,38.2137,41.7411,139.237,99.6833,98.4023,0.00489636,0.201482,20.779,260.626,0.117802,0.0,0.0
10027,2506.5,38.1064,41.5398,138.473,99.6569,98.4333,0.00513761,0.205512,20.7818,260.005,0.112523,0.0,0.0
10064,2515.75,37.8718,40.9126,143.325,99.747,98.6483,0.00507181,0.19872,20.7835,259.485,0.100877,0.0,0.0
10101,2525,38.0036,41.4164,138.523,99.8383,98.8013,0.00518988,0.201806,20.7818,259.004,0.0951055,0.0,0.0
10138,2534.25,37.8215,40.5902,139.238,100.007,98.7953,0.00530644,0.196435,20.7828,258.504,0.110989,0.0,0.0
10175,2543.5,37.0615,41.1625,135.503,100.262,98.9934,0.00552689,0.194166,20.7926,257.953,0.116005,0.0,0.0
10212,2552.75,37.4645,40.9072,137.718,100.481,99.4682,0.00557735,0.193844,20.7884,257.493,0.0922844,0.0,0.0
10249,2562,37.2177,40.2437,141.892,100.649,99.349,0.00558155,0.191994,20.7926,256.982,0.1184,0.0,0.0
10286,2571.25,37.0346,40.2274,141.335,100.736,99.5157,0.0055936,0.185735,20.7984,256.502,0.111015,0.0,0.0
10323,2580.5,36.9941,40.1182,144.168,100.718,99.5412,0.00581696,0.187043,20.7988,256.031,0.107025,0.0,0.0
10360,2589.75,36.8516,39.4893,137.898,100.645,99.4869,0.00555405,0.183542,20.7981,255.551,0.105386,0.0,0.0
10397,2599,36.2471,39.2024,141.594,100.477,99.266,0.00547621,0.180357,20.8042,255.081,0.110474,0.0,0.0
10434,2608.25,36.2347,38.856,140.28,100.331,98.9528,0.00544383,0.18037,20.8033,254.65,0.125956,0.0,0.0
10471,2617.5,36.9232,39.6086,143.008,100.21,99.1336,0.00570113,0.180558,20.8037,254.18,0.0984112,0.0,0.0
10508,2626.75,36.8939,39.0716,139.618,100.206,98.6716,0.00573746,0.180271,20.8024,253.729,0.140568,0.0,0.0
10545,2636,36.4241,39.5989,142.081,100.659,99.4152,0.00592928,0.181279,20.8007,253.249,0.113256,0.0,0.0
10582,2645.25,36.174,39.0232,142.071,100.957,99.9849,0.00614211,0.178653,20.8019,252.808,0.0881196,0.0,0.0
10619,2654.5,36.5078,39.2375,139.24,100.958,99.7749,0.00609119,0.179335,20.8043,252.358,0.107346,0.0,0.0
10656,2663.75,36.6049,38.825,140.734,100.662,99.6768,0.00566247,0.176446,20.8064,251.938,0.0895539,0.0,0.0
10693,2673,36.2673,38.5915,138.686,100.686,99.2098,0.00628386,0.175919,20.8076,251.487,0.134518,0.0,0.0
10730,2682.25,36.1575,39.0768,136.063,101.021,99.3641,0.00595399,0.173401,20.8068,251.047,0.150598,0.0,0.0
10767,2691.5,36.2959,38.599,139.622,101.323,100.122,0.00576222,0.174801,20.8091,250.606,0.108592,0.0,0.0
10804,2700.75,35.9744,39.5792,139.766,101.405,99.7357,0.00569682,0.177893,20.8108,250.146,0.151163,0.0,0.0
10841,2710,36.6501,39.197,139.7,101.174,99.654,0.0058047,0.180241,20.8051,249.715,0.137845,0.0,0.0
10878,2719.25,36.035,38.8561,138.544,100.685,99.4705,0.00637136,0.174578,20.8089,249.245,0.110581,0.0,0.0
10915,2728.5,36.5373,38.7964,142.397,100.052,98.9711,0.00614535,0.179182,20.8033,248.795,0.0989396,0.0,0.0
10952,2737.75,36.0446,39.2923,140.44,99.5724,98.138,0.00579847,0.178289,20.8047,248.394,0.132162,0.0,0.0
10989,2747,36.453,38.9253,139.521,99.5167,97.8481,0.00580669,0.183511,20.7946,247.904,0.154012,0.0,0.0
11026,2756.25,36.164,38.8902,140.512,99.7755,98.5438,0.0055191,0.187409,20.8005,247.473,0.113133,0.0,0.0
11063,2765.5,36.4616,39.4147,141.845,100.157,98.5844,0.00599427,0.183818,20.7957,246.973,0.144178,0.0,0.0
11100,2774.75,36.8132,39.3641,136.616,100.45,98.9725,0.00603358,0.185735,20.7959,246.583,0.13498,0.0,0.0
11137,2784,36.6027,39.7695,139.481,100.632,99.1801,0.00625473,0.181563,20.7966,246.122,0.13236,0.0,0.0
11174,2793.25,36.5021,39.5564,137.439,100.721,99.3961,0.00581047,0.18725,20.7935,245.632,0.120585,0.0,0.0
11211,2802.5,36.5336,39.802,139.716,100.719,99.3052,0.00599912,0.187179,20.7935,245.181,0.128799,0.0,0.0
11248,2811.75,37.2817,40.4476,136.726,100.695,99.4221,0.00597315,0.188372,20.7892,244.651,0.115896,0.0,0.0
11285,2821,37.3193,40.2009,139.311,100.666,99.5011,0.00542095,0.194194,20.788,244.14,0.10605,0.0,0.0
11322,2830.25,37.6098,41.1651,140.868,100.613,99.6302,0.00554968,0.201579,20.7762,243.65,0.089426,0.0,0.0
11359,2839.5,37.9293,41.4013,144.499,100.601,99.1601,0.00547552,0.201339,20.7753,243.159,0.131397,0.0,0.0
11396,2848.75,37.8782,41.488,143.852,100.594,99.2897,0.00542178,0.202799,20.7735,242.629,0.118881,0.0,0.0
11433,2858,37.9636,41.6524,140.907,100.594,98.9889,0.00535448,0.204989,20.7678,242.118,0.146518,0.0,0.0
11470,2867.25,38.1154,41.4285,135.639,100.583,99.0925,0.00582,0.201901,20.7735,241.598,0.135989,0.0,0.0
11507,2876.5,37.9324,41.9502,141.259,100.548,99.114,0.00543463,0.20151,20.7764,241.107,0.130823,0.0,0.0
11544,2885.75,38.4704,41.8707,142.632,100.561,98.967,0.00530992,0.204365,20.7754,240.527,0.145495,0.0,0.0
11581,2895,38.5193,41.9496,142.387,100.564,99.0806,0.00558729,0.202886,20.7718,239.996,0.135387,0.0,0.0
11618,2904.25,38.8691,41.9683,137.458,100.553,98.8944,0.0058146,0.202436,20.7738,239.526,0.151524,0.0,0.0
11655,2913.5,38.7184,42.0153,140.688,100.568,99.1491,0.00549393,0.206528,20.7727,238.985,0.129441,0.0,0.0
11692,2922.75,38.6034,42.4058,139.566,100.57,98.9501,0.00531057,0.207697,20.7739,238.455,0.147935,0.0,0.0
11729,2932,39.0329,42.1903,135.981,100.559,99.2628,0.00539825,0.206509,20.7738,237.944,0.118196,0.0,0.0
11766,2941.25,38.9891,42.2609,142.116,100.592,99.1865,0.00567663,0.207748,20.7697,237.374,0.128158,0.0,0.0
11803,2950.5,38.769,41.9488,139.431,100.605,99.0268,0.00573957,0.206297,20.7682,236.833,0.144033,0.0,0.0
11840,2959.75,38.4843,42.4509,138.24,100.655,99.0373,0.00523354,0.206762,20.7706,236.293,0.147605,0.0,0.0
11877,2969,38.865,42.5971,138.769,100.68,98.9451,0.00537129,0.205504,20.7713,235.772,0.158358,0.0,0.0
11914,2978.25,38.7914,42.3224,136.059,100.691,99.124,0.00562595,0.20487,20.7733,235.232,0.1429,0.0,0.0
11951,2987.5,38.7445,42.0712,135.9,100.703,99.2144,0.00519088,0.204433,20.7747,234.691,0.135673,0.0,0.0
11988,2996.75,38.275,41.7601,140.994,100.671,99.0427,0.00526519,0.203208,20.7757,234.181,0.148562,0.0,0.0
12025,3006,38.7086,41.5621,136.325,100.625,99.1788,0.00549745,0.205873,20.7767,233.68,0.131831,0.0,0.0
12062,3015.25,38.9244,41.5366,135.02,100.503,99.2071,0.00545643,0.202148,20.7763,233.16,0.118229,0.0,0.0
12099,3024.5,38.0618,41.3984,138.713,100.319,98.9907,0.00572536,0.200682,20.7799,232.609,0.121428,0.0,0.0
12136,3033.75,38.3978,41.156,143.338,100.1,98.8798,0.0056064,0.203524,20.7798,232.109,0.111754,0.0,0.0
12173,3043,38.0307,41.424,140.325,99.8978,98.5014,0.00612634,0.196139,20.7867,231.618,0.128221,0.0,0.0
12210,3052.25,38.422,41.388,141.816,99.682,98.5561,0.00520027,0.198973,20.7829,231.098,0.103457,0.0,0.0
12247,3061.5,38.2649,41.5414,136.091,99.538,98.4023,0.00580519,0.195113,20.7854,230.507,0.104517,0.0,0.0
12284,3070.75,38.1129,41.889,136.86,99.4636,98.2553,0.00574958,0.197009,20.7853,230.037,0.111326,0.0,0.0
12321,3080,38.2446,41.1951,139.069,99.4309,98.1946,0.00549683,0.194918,20.7903,229.496,0.11396,0.0,0.0
12358,3089.25,38.1889,41.2353,142.491,99.4857,98.2959,0.00531165,0.193339,20.7908,228.926,0.109583,0.0,0.0
12395,3098.5,38.5346,40.9847,137.822,99.6386,98.3019,0.00540316,0.193062,20.7943,228.555,0.123025,0.0,0.0
12432,3107.75,37.8673,40.2528,137.794,99.8914,98.4037,0.00585381,0.189583,20.7951,228.055,0.136677,0.0,0.0
12469,3117,37.7859,40.5683,141.789,100.085,98.7798,0.00563687,0.188476,20.796,227.585,0.119575,0.0,0.0
12506,3126.25,37.3052,40.3149,140.856,100.327,99.4184,0.00681926,0.183959,20.8033,227.084,0.082851,0.0,0.0
12543,3135.5,37.5215,39.8702,137.258,100.55,99.5006,0.00624068,0.192116,20.7967,226.584,0.0955535,0.0,0.0
12580,3144.75,37.2371,39.9235,137.454,100.741,99.4125,0.00610158,0.190149,20.7959,226.093,0.120885,0.0,0.0
12617,3154,37.306,39.7512,138.955,100.894,99.5335,0.0060342,0.19003,20.7949,225.573,0.123665,0.0,0.0
12654,3163.25,37.0477,40.061,137.497,101.058,99.7425,0.00547981,0.187562,20.8023,225.112,0.119307,0.0,0.0
12691,3172.5,37.3217,40.2068,140.603,101.166,99.5348,0.00563798,0.185682,20.8006,224.632,0.148091,0.0,0.0
12728,3181.75,37.4512,39.8422,136.611,101.276,100.063,0.00540969,0.187241,20.8013,224.131,0.10971,0.0,0.0
12765,3191,37.2936,39.5325,137.912,101.336,100.31,0.00672597,0.180585,20.8075,223.631,0.092724,0.0,0.0
12802,3200.25,36.7761,39.4731,140.902,101.27,100.228,0.0059428,0.185277,20.8054,223.14,0.0942265,0.0,0.0
12839,3209.5,36.8714,39.0211,140.101,101.195,99.9731,0.00691365,0.17653,20.8063,222.67,0.110679,0.0,0.0
12876,3218.75,36.7063,39.3391,141.2,101.058,100.433,0.0061194,0.181522,20.8101,222.22,0.0564551,0.0,0.0
12913,3228,36.5926,39.1999,143.382,100.865,99.2587,0.00578773,0.183105,20.8069,221.729,0.146238,0.0,0.0
12950,3237.25,36.6526,39.2583,139.298,100.669,99.045,0.00570832,0.182947,20.8064,221.269,0.148122,0.0,0.0
12987,3246.5,35.7971,39.2411,140.517,100.503,99.1569,0.00624511,0.176927,20.8075,220.788,0.122839,0.0,0.0
13024,3255.75,35.55,38.4027,142.694,100.46,98.862,0.00620711,0.175179,20.8128,220.298,0.146077,0.0,0.0
13061,3265,36.155,37.8293,141.805,100.642,98.8592,0.00703647,0.171534,20.8202,219.817,0.1628,0.0,0.0
13098,3274.25,35.5492,37.9538,135.571,100.725,99.3682,0.00753387,0.172297,20.8234,219.337,0.12356,0.0,0.0
13135,3283.5,35.7536,39.0064,140.361,100.79,99.4422,0.00729378,0.173739,20.822,218.896,0.122622,0.0,0.0
13172,3292.75,35.4641,37.8239,139.674,100.824,99.7329,0.00596353,0.180964,20.8149,218.406,0.0990975,0.0,0.0
13209,3302,36.141,39.0241,142.255,100.86,99.5211,0.00721186,0.176222,20.8151,217.855,0.121686,0.0,0.0
13246,3311.25,36.2012,39.105,137.681,100.919,99.4759,0.00574136,0.182141,20.807,217.435,0.131154,0.0,0.0
13283,3320.5,36.2009,39.0896,140.795,100.928,99.6357,0.00631987,0.180212,20.8135,216.975,0.117342,0.0,0.0
13320,3329.75,36.2008,39.1301,143.05,100.948,99.9233,0.00583682,0.182077,20.8143,216.444,0.0928917,0.0,0.0
13357,3339,36.4424,39.5884,135.874,100.947,99.68,0.00620947,0.183277,20.8094,215.954,0.115059,0.0,0.0
13394,3348.25,36.3196,39.3221,141.203,100.934,99.7635,0.00595516,0.187838,20.8069,215.423,0.106279,0.0,0.0
13431,3357.5,36.0317,38.6902,143.356,100.937,100.158,0.00642439,0.181915,20.8124,214.933,0.0705338,0.0,0.0
13468,3366.75,36.6276,39.6606,141.08,100.925,99.7334,0.00544361,0.186729,20.8066,214.432,0.108186,0.0,0.0
13505,3376,37.0641,39.8309,139.343,100.898,99.842,0.0055346,0.185478,20.8045,213.952,0.0958533,0.0,0.0
13542,3385.25,36.5671,40.3311,144.442,100.848,99.7873,0.00563191,0.189481,20.8039,213.431,0.0962874,0.0,0.0
13579,3394.5,37.0871,40.2905,141.922,100.787,99.6681,0.00489,0.192949,20.7937,212.921,0.101642,0.0,0.0
13616,3403.75,36.8562,40.0154,136.835,100.733,99.4034,0.0051884,0.190503,20.7992,212.41,0.120992,0.0,0.0
13653,3413,37.5348,40.4781,136.56,100.709,99.2682,0.00499288,0.191901,20.8007,211.9,0.131268,0.0,0.0
13690,3422.25,37.3694,39.9507,141.117,100.737,100.249,0.00520691,0.189432,20.798,211.389,0.0442782,0.0,0.0
13727,3431.5,37.5523,40.3562,138.929,100.758,99.8284,0.00467454,0.192572,20.8019,210.849,0.0844379,0.0,0.0
13764,3440.75,37.2232,40.875,139.123,100.709,99.5892,0.00508681,0.195398,20.7966,210.298,0.101833,0.0,0.0
13801,3450,37.6755,40.2292,140.967,100.623,99.3874,0.00466002,0.194507,20.7953,209.778,0.112501,0.0,0.0
13838,3459.25,37.5805,40.7445,141.979,100.559,99.627,0.00423629,0.195248,20.794,209.237,0.0848327,0.0,0.0
13875,3468.5,37.9847,41.1625,147.552,100.463,99.1998,0.00445605,0.196787,20.7951,208.707,0.115279,0.0,0.0
13912,3477.75,37.5311,40.8001,142.36,100.56,99.6362,0.00469514,0.197008,20.7944,208.166,0.0840377,0.0,0.0
13949,3487,37.6464,41.2698,138.805,100.668,99.4823,0.00452111,0.201616,20.7925,207.616,0.10788,0.0,0.0
13986,3496.25,37.9751,41.4359,140.468,100.769,99.6375,0.0039651,0.199405,20.7897,207.085,0.102863,0.0,0.0
14023,3505.5,38.0125,41.7244,139.662,100.843,99.5385,0.00429414,0.20083,20.7897,206.545,0.118564,0.0,0.0
14060,3514.75,38.2875,41.828,142.339,100.94,99.932,0.00443892,0.208174,20.7827,205.964,0.0914106,0.0,0.0
14097,3524,38.0568,41.7491,137.987,101.001,100.041,0.00426544,0.207086,20.782,205.354,0.0869947,0.0,0.0
14134,3533.25,38.8915,41.7533,140.261,101.109,99.9192,0.00428544,0.207389,20.7798,204.833,0.107822,0.0,0.0
14171,3542.5,39.1429,42.2549,136.932,101.163,100.271,0.00414478,0.209165,20.7807,204.263,0.0806547,0.0,0.0
14208,3551.75,39.3593,42.8783,142.213,101.23,99.9886,0.00393637,0.2091,20.7799,203.722,0.112399,0.0,0.0
14245,3561,38.7024,42.6807,142.193,101.258,100.058,0.00369042,0.204307,20.7784,203.172,0.108524,0.0,0.0
14282,3570.25,39.2651,42.659,138.504,101.257,99.9174,0.00371124,0.213881,20.778,202.581,0.121297,0.0,0.0
14319,3579.5,38.9719,42.9969,137.942,101.269,100.416,0.00412616,0.208501,20.7756,201.97,0.0769981,0.0,0.0
14356,3588.75,38.9148,43.2773,140.623,101.26,99.7959,0.00321519,0.210058,20.7755,201.45,0.13264,0.0,0.0
14393,3598,39.3731,42.8951,136.037,101.213,99.8142,0.00378726,0.210315,20.7761,200.869,0.12673,0.0,0.0
14430,3607.25,39.9736,43.5206,139.721,101.178,99.9758,0.00354191,0.212925,20.7765,200.279,0.108862,0.0,0.0
14467,3616.5,39.6847,43.3176,138.348,101.147,99.9489,0.00392613,0.214585,20.7653,199.708,0.108523,0.0,0.0
14504,3625.75,39.9648,43.9148,140.012,101.137,99.6763,0.00364828,0.215264,20.7713,199.098,0.132473,0.0,0.0
14541,3635,39.5576,43.4805,134.204,101.186,100.047,0.00326266,0.21275,20.7752,198.547,0.10314,0.0,0.0
14578,3644.25,39.2793,43.5512,144.494,101.259,100.315,0.00324308,0.214565,20.7705,197.977,0.0853534,0.0,0.0
14615,3653.5,40.042,43.6752,145.09,101.347,99.8818,0.00364201,0.212606,20.7799,197.426,0.13268,0.0,0.0
14652,3662.75,39.3911,43.4893,136.568,101.338,99.9142,0.00342184,0.216737,20.7662,196.846,0.128846,0.0,0.0
14689,3672,39.6782,43.6023,140.435,101.179,100.16,0.00324306,0.218036,20.7666,196.295,0.0921931,0.0,0.0
14726,3681.25,40.1003,43.5857,144.114,100.899,99.6809,0.0031427,0.219242,20.7649,195.745,0.110643,0.0,0.0
14763,3690.5,40.0495,43.035,136.69,100.529,99.3742,0.00308467,0.212241,20.7666,195.174,0.105251,0.0,0.0
14800,3699.75,39.3076,42.7969,140.159,100.15,99.1053,0.00332099,0.210219,20.7798,194.624,0.0955267,0.0,0.0
14837,3709,39.559,42.8132,134.457,99.8111,98.7396,0.00331856,0.20808,20.7767,194.103,0.098307,0.0,0.0
14874,3718.25,39.6725,42.6846,144.028,99.5035,98.5808,0.00314724,0.204727,20.783,193.563,0.0848607,0.0,0.0
14911,3727.5,39.4515,42.4431,139.743,99.4492,98.3927,0.00338001,0.201725,20.785,193.062,0.0972747,0.0,0.0
14948,3736.75,38.925,42.0928,141.176,99.6234,98.5424,0.0033184,0.200627,20.788,192.512,0.0993638,0.0,0.0
14985,3746,39.1768,42.1813,140.806,100.007,98.9711,0.00352508,0.198862,20.7908,192.021,0.094839,0.0,0.0
15022,3755.25,38.7678,42.0393,140.962,100.416,99.4787,0.00363614,0.196937,20.7917,191.511,0.085391,0.0,0.0
15059,3764.5,38.3162,41.4456,139.289,100.654,99.6293,0.00363704,0.194694,20.7936,191.02,0.0932012,0.0,0.0
15096,3773.75,38.3774,41.6006,142.3,100.731,99.2687,0.0040138,0.192367,20.7954,190.55,0.133224,0.0,0.0
15133,3783,38.585,41.0989,135.388,100.632,99.2331,0.00398074,0.192148,20.7993,190.069,0.127459,0.0,0.0
15170,3792.25,38.4011,41.2368,138.009,100.359,99.0012,0.00401112,0.191833,20.7994,189.599,0.124087,0.0,0.0
15207,3801.5,38.3883,40.9879,133.707,100.125,98.773,0.00360014,0.188455,20.8004,189.108,0.12384,0.0,0.0
15244,3810.75,38.3119,41.0403,142.868,100.694,99.0336,0.00393471,0.18895,20.7995,188.648,0.151477,0.0,0.0
15281,3820,37.8813,41.0326,138.969,100.96,99.349,0.00408477,0.187904,20.8034,188.187,0.1465,0.0,0.0
15318,3829.25,37.6884,40.9284,142.659,100.573,99.2345,0.00399436,0.188078,20.805,187.707,0.122065,0.0,0.0
15355,3838.5,38.0809,40.4896,142.924,100.804,99.627,0.00348191,0.185343,20.8048,187.247,0.10701,0.0,0.0
15392,3847.75,38.1124,40.6064,141.741,101.251,99.9941,0.00375729,0.182968,20.8084,186.786,0.113735,0.0,0.0
15429,3857,38.0109,40.897,141.239,101.366,100.115,0.00353589,0.186651,20.8035,186.326,0.113116,0.0,0.0
15466,3866.25,37.9526,40.1161,137.88,100.894,99.6535,0.00344378,0.18417,20.8073,185.885,0.112685,0.0,0.0
15503,3875.5,37.6563,41.0759,134.855,100.154,98.9136,0.00406199,0.182099,20.8079,185.395,0.11355,0.0,0.0
15540,3884.75,37.8164,40.8571,138.808,99.5877,98.1133,0.00405475,0.180613,20.808,184.964,0.135849,0.0,0.0
15577,3894,37.6433,40.9073,140.787,99.484,98.2918,0.00427848,0.184042,20.8088,184.514,0.109809,0.0,0.0
15614,3903.25,37.5472,40.1257,143.297,99.6544,98.4201,0.00504404,0.182662,20.8047,184.124,0.113515,0.0,0.0
15651,3912.5,37.6581,40.4788,140.589,99.928,98.5283,0.00444144,0.184715,20.8075,183.663,0.128481,0.0,0.0
15688,3921.75,37.3822,40.0855,143.297,100.194,98.8638,0.00406394,0.184569,20.8082,183.203,0.121765,0.0,0.0
15725,3931,36.9915,40.3452,136.003,100.405,98.815,0.00439132,0.183138,20.8072,182.772,0.145439,0.0,0.0
15762,3940.25,37.2307,40.301,140.401,100.514,99.0039,0.00431764,0.18106,20.8103,182.342,0.137898,0.0,0.0
15799,3949.5,37.0227,40.514,136.471,100.632,99.1884,0.00476573,0.185896,20.8085,181.882,0.131605,0.0,0.0
15836,3958.75,37.3489,40.4787,142.242,100.695,99.3979,0.00500197,0.186721,20.8029,181.421,0.118074,0.0,0.0
15873,3968,37.7969,40.0277,140.763,100.708,99.3778,0.00503178,0.18382,20.8041,180.961,0.121106,0.0,0.0
15910,3977.25,37.5081,40.8079,139.63,100.725,99.4344,0.00453854,0.188883,20.8028,180.49,0.117457,0.0,0.0
15947,3986.5,37.5175,40.0289,138.183,100.719,99.0354,0.00560309,0.187111,20.7968,180.03,0.153576,0.0,0.0
15984,3995.75,37.2059,40.3855,141.218,100.736,99.3436,0.00493835,0.181548,20.8014,179.599,0.126781,0.0,0.0
16021,4005,37.1735,40.8004,140.339,100.735,99.5052,0.00489646,0.186564,20.8036,179.109,0.111861,0.0,0.0
16058,4014.25,37.3069,40.3365,142.926,100.732,99.3728,0.00517483,0.187178,20.8003,178.668,0.123756,0.0,0.0
16095,4023.5,37.3338,40.5431,135.804,100.722,99.4746,0.004732,0.18439,20.8047,178.198,0.113509,0.0,0.0
16132,4032.75,37.1925,40.4918,135.926,100.728,99.7882,0.00415848,0.18631,20.8042,177.728,0.085377,0.0,0.0
16169,4042,36.9375,40.1778,141.983,100.694,99.7275,0.00435121,0.188788,20.804,177.267,0.0878851,0.0,0.0
16206,4051.25,37.8364,40.5745,140.543,100.672,99.3084,0.00455595,0.18938,20.8004,176.807,0.12424,0.0,0.0
16243,4060.5,37.763,40.781,135.403,100.625,99.2454,0.0045274,0.190973,20.8006,176.296,0.125713,0.0,0.0
16280,4069.75,37.4124,40.2997,139.892,100.551,99.3481,0.004579,0.190328,20.7986,175.866,0.109636,0.0,0.0
16317,4079,37.2094,40.5193,141.772,100.497,99.0487,0.00404988,0.192293,20.8007,175.395,0.132205,0.0,0.0
16354,4088.25,37.9608,41.0471,138.05,100.4,99.2778,0.00400908,0.192063,20.7989,174.845,0.102335,0.0,0.0
16391,4097.5,37.9055,40.437,139.912,100.338,99.0313,0.00442668,0.191993,20.7948,174.424,0.11935,0.0,0.0
16428,4106.75,37.5407,40.5204,137.938,100.323,98.746,0.00378969,0.191133,20.7977,173.894,0.144277,0.0,0.0
16465,4116,37.3158,41.2728,139.777,100.285,98.888,0.00384933,0.193467,20.7928,173.383,0.127758,0.0,0.0
16502,4125.25,38.3998,41.6119,138.675,100.22,98.7643,0.0039838,0.198824,20.7917,172.933,0.133292,0.0,0.0
16539,4134.5,38.0039,41.2756,141.446,100.155,98.5648,0.00389313,0.200177,20.7888,172.393,0.14576,0.0,0.0
16576,4143.75,37.644,41.2875,139.896,100.051,98.757,0.00405219,0.196588,20.7905,171.892,0.118548,0.0,0.0
16613,4153,38.2893,41.6017,145.205,99.9454,98.5899,0.0038622,0.203874,20.7883,171.382,0.124372,0.0,0.0
16650,4162.25,38.1701,41.8104,133.968,99.7746,98.7118,0.00396201,0.205018,20.7832,170.811,0.0975411,0.0,0.0
16687,4171.5,38.3969,41.9767,137.761,99.6289,98.2416,0.00364955,0.203996,20.7809,170.341,0.127716,0.0,0.0
16724,4180.75,38.74,41.7239,135.739,99.518,98.1284,0.00375316,0.208158,20.7824,169.79,0.128076,0.0,0.0
16761,4190,38.4997,42.3346,138.016,99.4623,97.9677,0.0039899,0.202432,20.7806,169.23,0.137907,0.0,0.0
16798,4199.25,38.6451,42.9097,138.896,99.4883,98.384,0.00385316,0.206098,20.7817,168.739,0.101657,0.0,0.0
16835,4208.5,39.341,42.5399,136.405,99.5507,98.3115,0.00373233,0.214919,20.7772,168.199,0.114095,0.0,0.0
16872,4217.75,38.9348,43.3369,141.229,99.679,98.641,0.00422197,0.214433,20.7717,167.638,0.0953419,0.0,0.0
16909,4227,39.5184,42.7258,140.159,99.8371,98.6365,0.004094,0.214316,20.7707,167.038,0.110193,0.0,0.0
16946,4236.25,39.5882,43.3253,138.131,100.044,98.6324,0.00362479,0.214955,20.7738,166.497,0.129468,0.0,0.0
16983,4245.5,39.518,43.5044,139.608,100.317,99.0158,0.00392238,0.216547,20.7698,165.916,0.118887,0.0,0.0
17020,4254.75,39.4829,43.1831,137.743,100.575,99.2244,0.00390179,0.215884,20.7715,165.376,0.123102,0.0,0.0
17057,4264,39.6491,43.7829,134.849,100.821,99.2883,0.00385934,0.218648,20.7747,164.815,0.139486,0.0,0.0
17094,4273.25,38.3395,42.0731,141.514,101.08,99.5193,0.00398212,0.21879,20.7631,164.195,0.141743,0.0,0.0
17131,4282.5,38.2317,41.9195,133.316,101.262,99.8576,0.00362385,0.219212,20.7662,163.634,0.127246,0.0,0.0
17168,4291.75,38.7333,42.4626,137.128,101.334,100.223,0.00354158,0.22148,20.7681,163.024,0.100415,0.0,0.0
17205,4301,38.5309,42.3028,136.696,101.354,100.318,0.00373646,0.221458,20.7634,162.453,0.0935828,0.0,0.0
17242,4310.25,38.6575,42.796,136.279,101.332,99.8749,0.0041173,0.225492,20.763,161.833,0.131929,0.0,0.0
17279,4319.5,38.907,42.8284,138.541,101.335,99.9534,0.00373353,0.228727,20.7579,161.282,0.125039,0.0,0.0
17316,4328.75,38.8239,42.926,137.623,101.304,99.7238,0.00391559,0.22612,20.7601,160.621,0.143198,0.0,0.0
17353,4338,39.3657,42.9472,137.73,101.272,99.6887,0.00349352,0.227033,20.7593,160.061,0.143506,0.0,0.0
17390,4347.25,38.9355,42.8354,133.663,101.231,99.8955,0.0033126,0.231668,20.7602,159.47,0.120925,0.0,0.0
17427,4356.5,39.3891,42.6732,137.845,101.156,99.6677,0.00350656,0.230345,20.7552,158.86,0.135025,0.0,0.0
17464,4365.75,39.0396,43.2867,135.902,101.071,99.7791,0.0038951,0.229256,20.7572,158.229,0.11716,0.0,0.0
17501,4375,39.3623,43.8033,138.652,100.983,99.7174,0.00348057,0.235003,20.7501,157.629,0.114858,0.0,0.0
17538,4384.25,39.467,42.6286,133.841,100.89,99.8795,0.00323946,0.233879,20.7521,156.948,0.0917105,0.0,0.0
17549,4387,39.3122,43.3734,133.62,100.846,99.6855,0.00334991,0.233707,20.7523,156.808,0.105431,0.0,0.0