File: 01_Data/Engineered_Wood_Table/Cone/Engineered_Wood_Table_Cone_HF50Scan_230626_R2.csv
Names,Time,Stack TC,Smoke TC,Exh Press,Smoke Comp,Smoke Meas,CO Meter,CO2 Meter,O2 Meter,Sample Mass,Ext Coeff,Start Test,Flame Verif
Chan Gain,,500,500,1,1,1,1,1,1,1,1,1.0,1.0
Offset,,0,0,0.132849,0,0,0,0,0,0,0,0.0,0.0
Gain,,1,1,25.011,13.9403,23.7162,1,1,1,1.00087,1.02946,1.0,1.0
Units,sec,C,C,Pa,%,%,%,%,%,g,/m,,
Baseline,,48.7098,51.4189,175.164,99.6343,104.135,0.000460398,0.0559748,20.9919,-444.458,-0.39897,,
32,7.75,48.5931,50.2484,177.505,100.537,102.772,0.000383614,0.0603522,20.9893,414.092,-0.198513,0.0,0.0
64,15.75,49.8496,53.2158,173.718,100.484,103.479,0.000523263,0.0699475,20.9887,413.832,-0.26521,0.0,0.0
96,23.75,50.1572,53.5815,173.582,100.483,102.51,0.00133547,0.0759028,20.9594,413.632,-0.180355,0.0,0.0
128,31.75,55.0541,65.0422,159.555,100.479,100.12,0.00137661,0.0868262,20.9863,412.421,0.032321,0.0,0.0
160,39.75,60.1434,73.8606,150.718,100.459,96.6099,0.00377541,0.43039,20.648,411.089,0.352814,0.0,0.0
192,47.75,65.9181,81.3996,151.573,100.422,96.2379,0.00440047,0.494446,20.5243,409.408,0.384325,0.0,0.0
224,55.75,70.1136,87.2513,150.033,100.353,96.24,0.00587384,0.560109,20.4433,407.626,0.377884,0.0,0.0
256,63.75,73.8987,90.0759,156.116,100.307,98.2615,0.00611273,0.580834,20.4047,406.095,0.186075,0.0,0.0
288,71.75,77.1644,92.6911,151.041,100.247,99.5585,0.0056896,0.551736,20.4087,404.604,0.0622209,0.0,0.0
320,79.75,78.5161,93.1239,159.647,100.208,100.248,0.00497633,0.510743,20.4417,403.252,-0.00365168,0.0,0.0
352,87.75,79.4855,92.4893,156.561,100.146,100.627,0.00408034,0.469133,20.4892,401.991,-0.0432835,0.0,0.0
384,95.75,79.8057,90.7669,161.014,100.376,101.337,0.00385864,0.426126,20.5362,400.88,-0.0860477,0.0,0.0
416,103.75,79.4201,89.666,159.35,100.611,101.298,0.0030116,0.396063,20.5749,399.829,-0.0614239,0.0,0.0
448,111.75,78.983,88.1009,154.417,100.813,101.762,0.00278072,0.364774,20.6117,398.879,-0.0846062,0.0,0.0
480,119.75,78.5184,86.6489,159.989,100.954,102.149,0.00262836,0.341837,20.6414,397.988,-0.106259,0.0,0.0
512,127.75,77.5937,85.275,159.559,100.95,102.231,0.00253384,0.323866,20.6632,397.077,-0.113791,0.0,0.0
544,135.75,77.3724,84.136,153.391,100.825,101.854,0.00209585,0.312214,20.6826,396.206,-0.0916155,0.0,0.0
576,143.75,76.3187,83.2688,154.976,100.5,101.987,0.00226408,0.301328,20.6969,395.386,-0.132636,0.0,0.0
608,151.75,76.3338,82.9627,158.005,100.555,101.837,0.00161946,0.291493,20.7104,394.675,-0.114405,0.0,0.0
640,159.75,75.365,81.3538,158.376,100.772,101.979,0.00197086,0.284781,20.7184,393.934,-0.107538,0.0,0.0
672,167.75,74.7875,81.2032,160.372,101.033,102.231,0.00199043,0.279628,20.7259,393.134,-0.106411,0.0,0.0
704,175.75,74.4551,80.4501,157.633,101.233,102.909,0.00177935,0.274739,20.7326,392.313,-0.148301,0.0,0.0
736,183.75,74.3809,80.2938,160.28,101.294,103.404,0.00180308,0.268623,20.7394,391.572,-0.186137,0.0,0.0
768,191.75,74.4315,79.9943,164.758,101.208,102.983,0.00179422,0.263568,20.7464,390.952,-0.156979,0.0,0.0
800,199.75,74.2483,79.719,153.901,100.931,102.519,0.00161594,0.258796,20.7525,390.241,-0.140976,0.0,0.0
832,207.75,73.8442,79.3902,161.171,100.495,102.053,0.0016403,0.255616,20.7567,389.46,-0.138899,0.0,0.0
864,215.75,73.4971,79.2612,163.503,99.9954,102.326,0.00190879,0.251383,20.7616,388.73,-0.208067,0.0,0.0
896,223.75,73.7101,77.991,161.236,99.5819,101.513,0.00171556,0.247852,20.7682,388.189,-0.173473,0.0,0.0
928,231.75,72.8648,77.6078,164.995,99.2739,101.542,0.00151576,0.243759,20.7726,387.489,-0.204021,0.0,0.0
960,239.75,72.4702,77.9684,160.627,99.2743,101.061,0.00156417,0.240062,20.7765,386.818,-0.161078,0.0,0.0
992,247.75,72.3262,78.1185,155.094,99.4526,100.913,0.0015496,0.240901,20.7782,386.188,-0.131675,0.0,0.0
1024,255.75,71.7449,77.4526,158.322,99.7555,101.293,0.00159876,0.23805,20.7799,385.537,-0.138152,0.0,0.0
1056,263.75,72.0471,77.647,156.146,100.121,101.825,0.00140655,0.236049,20.7834,384.997,-0.152368,0.0,0.0
1088,271.75,72.0834,77.2489,159.076,100.414,102.601,0.00175441,0.233355,20.7867,384.316,-0.194619,0.0,0.0
1120,279.75,71.8905,77.1559,159.981,100.58,103.332,0.00135238,0.2311,20.7896,383.655,-0.24382,0.0,0.0
1152,287.75,71.3689,76.6452,162.598,100.558,102.727,0.00154794,0.227523,20.7954,382.975,-0.192736,0.0,0.0
1184,295.75,71.56,76.6978,159.872,100.458,101.864,0.00133962,0.225546,20.7976,382.374,-0.125559,0.0,0.0
1216,303.75,71.3221,76.2582,164.849,100.341,103.119,0.00151711,0.223308,20.7989,381.844,-0.24662,0.0,0.0
1248,311.75,71.4448,76.3494,166.069,100.216,102.311,0.00169963,0.222956,20.8013,381.193,-0.186808,0.0,0.0
1280,319.75,71.413,75.9614,164.183,100.127,101.463,0.00151656,0.220548,20.8012,380.563,-0.119706,0.0,0.0
1312,327.75,70.563,75.4178,160.465,100.144,102.244,0.00170546,0.218547,20.8054,379.952,-0.187346,0.0,0.0
1344,335.75,71.0297,75.3279,162.722,100.462,102.53,0.00152511,0.216881,20.8075,379.342,-0.183988,0.0,0.0
1376,343.75,70.9264,75.1213,163.854,100.678,102.52,0.00126241,0.214818,20.809,378.841,-0.163716,0.0,0.0
1408,351.75,70.8164,74.6845,165.388,100.848,103.076,0.00163038,0.211348,20.8093,378.291,-0.19737,0.0,0.0
1440,359.75,70.4044,74.7047,162.044,100.911,102.499,0.00153579,0.210689,20.815,377.6,-0.14098,0.0,0.0
1472,367.75,70.4383,74.2526,164.271,100.93,103.39,0.00131839,0.208561,20.8182,377.02,-0.21746,0.0,0.0
1504,375.75,70.4221,74.6675,164.976,100.93,102.54,0.00121646,0.206936,20.8199,376.509,-0.142977,0.0,0.0
1536,383.75,69.6461,74.3844,163.091,100.847,102.746,0.00129475,0.205693,20.8243,375.989,-0.168486,0.0,0.0
1568,391.75,69.8633,73.9563,162.923,100.763,102.613,0.0012073,0.204783,20.8227,375.408,-0.164244,0.0,0.0
1600,399.75,69.583,74.0445,162.15,100.708,102.769,0.00188818,0.201361,20.8258,374.828,-0.182948,0.0,0.0
1632,407.75,69.4905,74.1539,162.318,100.618,103.093,0.0016764,0.202145,20.8267,374.277,-0.219385,0.0,0.0
1664,415.75,69.4377,73.4967,166.003,100.504,102.936,0.00149471,0.199872,20.8306,373.857,-0.215919,0.0,0.0
1696,423.75,69.2592,73.3988,164.126,100.46,102.054,0.00164073,0.197463,20.8319,373.326,-0.142201,0.0,0.0
1728,431.75,68.9845,72.935,161.281,100.562,102.627,0.00147175,0.195701,20.8338,372.726,-0.183505,0.0,0.0
1760,439.75,69.1346,73.1619,167.488,100.68,103.342,0.00165334,0.196845,20.8342,372.165,-0.235657,0.0,0.0
1792,447.75,68.4246,73.1775,166.081,100.852,102.921,0.00160732,0.194081,20.8359,371.685,-0.183371,0.0,0.0
1824,455.75,68.3888,73.0233,166.917,101.033,103.08,0.00162022,0.19313,20.8365,371.234,-0.181194,0.0,0.0
1856,463.75,68.5826,72.7007,163.148,101.186,103.803,0.00159459,0.189946,20.8395,370.724,-0.230636,0.0,0.0
1888,471.75,68.5223,73.1906,162.685,101.27,102.82,0.00157424,0.189225,20.8411,370.134,-0.137173,0.0,0.0
1920,479.75,68.2838,72.9958,166.572,101.287,103.212,0.0014316,0.189783,20.841,369.593,-0.170017,0.0,0.0
1952,487.75,68.4133,72.36,165.886,101.241,103.307,0.00179288,0.187364,20.842,369.163,-0.182444,0.0,0.0
1984,495.75,68.015,72.4792,166.935,101.073,103.706,0.00181152,0.186144,20.8428,368.742,-0.232263,0.0,0.0
2016,503.75,68.109,72.3354,164.307,100.862,102.742,0.00158612,0.185945,20.8443,368.192,-0.166734,0.0,0.0
2048,511.75,67.5824,72.2332,164.07,100.625,102.638,0.00154251,0.185641,20.8459,367.611,-0.17891,0.0,0.0
2080,519.75,68.0213,71.9054,162.629,100.32,102.288,0.00131041,0.183781,20.847,367.181,-0.175453,0.0,0.0
2112,527.75,68.0028,72.185,170.947,99.9669,101.474,0.00159532,0.183081,20.849,366.801,-0.135149,0.0,0.0
2144,535.75,67.7943,71.8958,160.828,99.6793,101.814,0.00148944,0.181356,20.85,366.37,-0.191322,0.0,0.0
2176,543.75,68.1532,71.7032,168.436,99.4798,101.624,0.00160284,0.180391,20.8508,365.77,-0.192581,0.0,0.0
2208,551.75,67.4623,71.6435,169.436,99.3275,101.205,0.00179112,0.179517,20.8517,365.279,-0.169102,0.0,0.0
2240,559.75,67.4688,71.4184,164.441,99.2811,100.773,0.00148334,0.17818,20.8518,364.929,-0.134683,0.0,0.0
2272,567.75,67.006,71.5954,163.402,99.2526,101.641,0.0016177,0.177263,20.8525,364.489,-0.214706,0.0,0.0
2304,575.75,67.3391,70.7561,162.411,99.2667,101.523,0.00162683,0.177512,20.8532,364.038,-0.202941,0.0,0.0
2336,583.75,66.8618,70.9428,164.373,99.2782,101.225,0.00150866,0.174552,20.8563,363.478,-0.175399,0.0,0.0
2368,591.75,66.912,70.467,164.136,99.3181,101.78,0.00176258,0.175685,20.8577,363.067,-0.221085,0.0,0.0
2400,599.75,66.449,70.598,162.627,99.43,101.581,0.00168037,0.173832,20.858,362.667,-0.193241,0.0,0.0
2432,607.75,66.4672,70.8404,166.615,99.5794,101.799,0.00194039,0.173299,20.8608,362.267,-0.1991,0.0,0.0
2464,615.75,66.8867,70.384,168.787,99.7397,102.029,0.00165705,0.171318,20.8611,361.826,-0.204961,0.0,0.0
2496,623.75,66.4606,70.0259,164.58,99.8903,102.656,0.00189821,0.170892,20.8633,361.286,-0.24664,0.0,0.0
2528,631.75,66.2515,69.9439,162.181,100.018,101.88,0.00180483,0.169718,20.8646,360.795,-0.166536,0.0,0.0
2560,639.75,66.0211,70.3722,168.039,100.126,102.925,0.00205242,0.168215,20.8644,360.545,-0.248986,0.0,0.0
2592,647.75,66.4354,69.8045,165.135,100.239,102.602,0.00200541,0.16842,20.8642,360.105,-0.210421,0.0,0.0
2624,655.75,66.2843,70.0937,165.95,100.313,102.645,0.0019925,0.166986,20.8647,359.674,-0.207537,0.0,0.0
2656,663.75,65.5928,69.8655,168.402,100.399,103.174,0.00177447,0.166086,20.8668,359.204,-0.246268,0.0,0.0
2688,671.75,65.8432,69.5618,165.953,100.48,102.519,0.00191018,0.164339,20.867,358.754,-0.181349,0.0,0.0
2720,679.75,65.8681,69.759,163.195,100.554,102.476,0.00206181,0.164479,20.8703,358.483,-0.170975,0.0,0.0
2752,687.75,66.0495,69.3499,166.838,100.592,103.326,0.00179028,0.162876,20.8669,358.093,-0.242105,0.0,0.0
2784,695.75,65.3417,69.4203,165.871,100.586,103.506,0.00168854,0.162858,20.8707,357.553,-0.258415,0.0,0.0
2816,703.75,65.7398,69.2078,167.207,100.56,102.977,0.00206963,0.162715,20.8724,357.182,-0.214468,0.0,0.0
2848,711.75,65.5947,68.9351,162.78,100.541,102.565,0.00175504,0.162969,20.8726,356.832,-0.180001,0.0,0.0
2880,719.75,65.5424,69.0467,166.599,100.503,102.789,0.00215092,0.161564,20.8745,356.422,-0.203033,0.0,0.0
2912,727.75,65.9099,68.738,162.044,100.426,103.166,0.00214568,0.162391,20.8725,356.111,-0.243021,0.0,0.0
2944,735.75,65.4409,68.4189,167.297,100.354,102.967,0.00181707,0.162691,20.8721,355.641,-0.232051,0.0,0.0
2976,743.75,65.2928,68.5671,169.378,100.273,102.587,0.00202141,0.160337,20.8729,355.251,-0.205979,0.0,0.0
3008,751.75,65.0135,68.2575,163.674,100.203,102.065,0.00220158,0.160163,20.8767,354.89,-0.166212,0.0,0.0
3040,759.75,65.0538,68.4123,165.382,100.152,102.592,0.00203967,0.16072,20.8755,354.58,-0.217389,0.0,0.0
3072,767.75,64.9292,68.6943,168.99,100.107,102.25,0.00245799,0.160994,20.8754,354.2,-0.191259,0.0,0.0
3104,775.75,64.9965,68.495,169.27,100.07,102.826,0.00210142,0.159505,20.8753,353.799,-0.245272,0.0,0.0
3136,783.75,64.9112,68.1449,162.895,100.041,101.77,0.0023556,0.161549,20.8736,353.349,-0.154667,0.0,0.0
3168,791.75,64.8568,68.314,164.832,100.261,102.512,0.00212902,0.161852,20.8732,353.009,-0.200486,0.0,0.0
3200,799.75,65.0497,68.6492,165.64,100.521,102.674,0.00206344,0.160103,20.874,352.678,-0.191414,0.0,0.0
3232,807.75,65.3312,68.3615,166.214,100.659,104.201,0.00232392,0.16093,20.8753,352.238,-0.312364,0.0,0.0
3264,815.75,64.8129,68.3684,162.921,100.751,102.739,0.00221354,0.161925,20.8736,351.757,-0.176387,0.0,0.0
3296,823.75,65.3103,68.421,165.173,100.811,102.857,0.00215131,0.162759,20.8736,351.287,-0.181439,0.0,0.0
3328,831.75,64.8434,67.8944,164.071,100.876,102.726,0.00241053,0.161999,20.8736,350.967,-0.164077,0.0,0.0
3360,839.75,63.8836,67.7979,162.927,100.913,102.333,0.00227981,0.160619,20.874,350.476,-0.126214,0.0,0.0
3392,847.75,64.6087,67.6379,162.719,100.895,102.389,0.0021671,0.164388,20.872,350.196,-0.132729,0.0,0.0
3424,855.75,64.6854,67.9972,160.04,100.779,102.902,0.00250556,0.16576,20.8695,349.876,-0.188211,0.0,0.0
3456,863.75,64.9833,68.8522,165.069,100.626,102.988,0.00214961,0.166771,20.8707,349.536,-0.209525,0.0,0.0
3488,871.75,64.5096,68.3683,164.861,100.495,102.396,0.00210076,0.164056,20.8713,349.165,-0.169268,0.0,0.0
3520,879.75,64.9254,68.7604,159.801,100.426,102.363,0.00202515,0.164076,20.8745,348.785,-0.172527,0.0,0.0
3552,887.75,64.9409,69.2473,159.217,100.47,102.799,0.00221197,0.165718,20.8692,348.375,-0.206944,0.0,0.0
3584,895.75,64.9604,68.6404,163.883,100.527,102.508,0.00200679,0.16455,20.8708,347.934,-0.176188,0.0,0.0
3616,903.75,64.7296,68.7304,168.323,100.599,103.066,0.00191909,0.164561,20.8729,347.524,-0.218757,0.0,0.0
3648,911.75,64.5362,68.6729,167.549,100.668,103.899,0.00212845,0.164945,20.8716,347.183,-0.28523,0.0,0.0
3680,919.75,64.7514,68.6941,167.06,100.722,103.282,0.0018241,0.16489,20.8715,346.793,-0.226668,0.0,0.0
3712,927.75,65.3709,68.5694,162.907,100.773,103.12,0.00200843,0.165792,20.8715,346.373,-0.207906,0.0,0.0
3744,935.75,65.0635,68.7182,165.628,100.871,103.553,0.00221874,0.165836,20.8709,345.922,-0.236964,0.0,0.0
3776,943.75,64.9525,68.6221,166.596,100.978,103.596,0.00241652,0.166028,20.8686,345.502,-0.231095,0.0,0.0
3808,951.75,65.0561,69.0482,161.887,101.052,103.448,0.00197267,0.164727,20.8695,345.152,-0.211636,0.0,0.0
3840,959.75,65.1343,68.967,166.156,101.099,103.711,0.00171446,0.16495,20.8721,344.811,-0.230323,0.0,0.0
3872,967.75,64.8901,68.2505,166.832,101.13,103.985,0.00218358,0.165706,20.8727,344.261,-0.251363,0.0,0.0
3904,975.75,64.739,68.4228,167.152,101.173,103.067,0.00216712,0.167224,20.8725,343.841,-0.167514,0.0,0.0
3936,983.75,65.0114,68.7703,167.316,101.214,103.435,0.00220398,0.166034,20.8688,343.52,-0.196026,0.0,0.0
3968,991.75,65.4184,68.4336,163.175,101.248,103.86,0.00186395,0.167272,20.8686,343.05,-0.230005,0.0,0.0
4000,999.75,65.0246,68.4295,161.842,101.276,103.586,0.0019173,0.165148,20.8712,342.609,-0.203644,0.0,0.0
4032,1007.75,64.9515,69.2045,164.283,101.264,103.894,0.00218703,0.168246,20.8701,342.149,-0.231521,0.0,0.0
4064,1015.75,64.9773,69.0369,166.811,101.275,103.593,0.00179734,0.167782,20.8674,341.779,-0.204427,0.0,0.0
4096,1023.75,65.3003,68.9868,163.155,101.284,103.056,0.00197076,0.166591,20.8699,341.338,-0.15662,0.0,0.0
4128,1031.75,65.3679,69.0021,165.479,101.258,104.383,0.00192938,0.169816,20.8702,340.938,-0.27444,0.0,0.0
4160,1039.75,65.2793,69.1651,161.877,101.227,103.046,0.0020376,0.168838,20.8669,340.398,-0.16079,0.0,0.0
4192,1047.75,65.0026,68.9044,166.59,101.217,103.092,0.00188742,0.170332,20.8698,340.007,-0.165721,0.0,0.0
4224,1055.75,64.8175,68.8285,170.516,101.187,103.504,0.00187129,0.169283,20.8688,339.617,-0.204443,0.0,0.0
4256,1063.75,65.0869,68.8068,164.628,101.195,103.284,0.00202709,0.169934,20.8655,339.257,-0.184581,0.0,0.0
4288,1071.75,65.8862,68.9837,165.718,101.181,103.443,0.00197665,0.170159,20.8676,338.776,-0.199606,0.0,0.0
4320,1079.75,65.2986,69.3867,166.47,101.178,103.426,0.00195594,0.169626,20.8669,338.126,-0.198393,0.0,0.0
4352,1087.75,65.3734,69.6233,167.635,101.153,103.085,0.00190314,0.173325,20.8664,337.745,-0.170846,0.0,0.0
4384,1095.75,65.2838,69.5383,165.642,101.162,103.193,0.00168962,0.173431,20.8638,337.335,-0.17949,0.0,0.0
4416,1103.75,65.5137,69.3394,163.604,101.191,103.724,0.00176333,0.174702,20.8623,336.924,-0.223277,0.0,0.0
4448,1111.75,66.2281,69.1953,168.425,101.213,103.585,0.00184825,0.175133,20.862,336.314,-0.209235,0.0,0.0
4480,1119.75,66.3549,69.9595,169.735,101.213,103.697,0.0021831,0.176305,20.8622,335.874,-0.218909,0.0,0.0
4512,1127.75,65.9564,69.8788,162.828,101.236,103.666,0.00177295,0.177229,20.8584,335.393,-0.214149,0.0,0.0
4544,1135.75,65.7292,70.1904,162.996,101.259,103.031,0.00174705,0.176728,20.8603,334.903,-0.156676,0.0,0.0
4576,1143.75,66.1119,69.515,160.624,101.247,104.125,0.00144839,0.179025,20.8576,334.322,-0.253146,0.0,0.0
4608,1151.75,66.1203,69.4566,160.698,101.231,103.159,0.00181056,0.179224,20.857,333.842,-0.170364,0.0,0.0
4640,1159.75,65.6728,70.397,165.572,101.229,102.988,0.00200256,0.183891,20.8568,333.361,-0.155525,0.0,0.0
4672,1167.75,66.2243,70.5854,161.488,101.241,103.616,0.0014806,0.182745,20.8527,332.921,-0.209342,0.0,0.0
4704,1175.75,66.381,71.0875,163.196,101.223,102.995,0.00177097,0.183088,20.8515,332.491,-0.156728,0.0,0.0
4736,1183.75,66.5728,71.191,165.665,101.174,103.579,0.00185919,0.183592,20.8551,331.94,-0.212122,0.0,0.0
4768,1191.75,66.6254,70.204,162.785,101.102,102.696,0.00181847,0.183915,20.8557,331.28,-0.141229,0.0,0.0
4800,1199.75,65.9612,70.4853,166.488,101.047,103.018,0.0017834,0.183645,20.8534,330.589,-0.17441,0.0,0.0
4832,1207.75,66.0329,69.475,165.387,100.938,103.107,0.00199706,0.187375,20.8508,330.169,-0.191986,0.0,0.0
4864,1215.75,66.2123,70.2142,164.951,100.825,102.711,0.00182428,0.186148,20.8545,329.668,-0.167337,0.0,0.0
4896,1223.75,66.6065,70.9202,160.656,100.677,102.486,0.00172833,0.192249,20.8453,329.218,-0.160871,0.0,0.0
4928,1231.75,66.8765,71.0826,162.203,100.595,103.395,0.00168377,0.194747,20.8455,328.657,-0.247908,0.0,0.0
4960,1239.75,67.1521,71.8276,163.78,100.46,102.399,0.00128413,0.194052,20.8423,328.057,-0.17266,0.0,0.0
4992,1247.75,67.1426,72.0465,166.359,100.395,101.801,0.00165933,0.196821,20.8394,327.506,-0.125636,0.0,0.0
5024,1255.75,67.94,72.0637,162.988,100.322,101.744,0.0016083,0.197346,20.837,326.976,-0.127045,0.0,0.0
5056,1263.75,68.0457,72.899,164.995,100.195,102.522,0.00179093,0.198931,20.8366,326.325,-0.207295,0.0,0.0
5088,1271.75,68.2345,72.9725,164.044,100.065,101.828,0.00165783,0.20217,20.8302,325.785,-0.157717,0.0,0.0
5120,1279.75,68.4062,73.2742,162.416,100.021,102.304,0.00155708,0.203698,20.8296,325.224,-0.20382,0.0,0.0
5152,1287.75,68.843,73.4368,165.807,99.9248,102.027,0.00186328,0.204939,20.8288,324.664,-0.187965,0.0,0.0
5184,1295.75,68.5346,73.6197,158.842,99.7874,101.523,0.00150294,0.206305,20.8283,323.973,-0.15576,0.0,0.0
5216,1303.75,68.5173,73.0441,167.589,99.7006,101.277,0.00172281,0.203868,20.8266,323.383,-0.141702,0.0,0.0
5248,1311.75,68.3517,72.6728,161.528,99.6249,101.031,0.00181051,0.204742,20.8283,322.752,-0.12653,0.0,0.0
5280,1319.75,68.8591,73.3091,163.886,99.5747,101.119,0.00191452,0.200971,20.8258,322.252,-0.138971,0.0,0.0
5312,1327.75,68.0289,72.5305,164.701,99.4815,101.013,0.00168034,0.201125,20.8297,321.721,-0.137917,0.0,0.0
5344,1335.75,68.7181,72.6985,158.628,99.3607,101.44,0.00171804,0.201191,20.8314,321.051,-0.186986,0.0,0.0
5376,1343.75,68.6223,72.9706,158.664,99.2769,100.887,0.0016527,0.201651,20.8297,320.63,-0.145312,0.0,0.0
5408,1351.75,68.9815,73.9155,163.463,99.2479,101.112,0.00174039,0.204629,20.8289,320.06,-0.168068,0.0,0.0
5440,1359.75,69.089,74.3913,159.606,99.2637,100.78,0.00198604,0.206599,20.8255,319.529,-0.136918,0.0,0.0
5472,1367.75,69.6699,74.6322,161.491,99.3101,101.033,0.00221679,0.209124,20.8215,318.959,-0.155306,0.0,0.0
5504,1375.75,69.9118,75.0183,161.238,99.3845,100.988,0.00202663,0.210023,20.82,318.338,-0.144527,0.0,0.0
5536,1383.75,69.954,75.3653,159.743,99.4794,101.178,0.00195968,0.214513,20.8176,317.708,-0.152915,0.0,0.0
5568,1391.75,70.1416,75.7252,162.34,99.5764,101.374,0.00203226,0.214659,20.8131,317.147,-0.16154,0.0,0.0
5600,1399.75,69.8888,75.3462,161.357,99.6529,101.189,0.00163101,0.21462,20.8137,316.637,-0.138142,0.0,0.0
5632,1407.75,70.3501,75.3678,159.631,99.6568,101.422,0.00156033,0.212931,20.8137,316.026,-0.158569,0.0,0.0
5664,1415.75,70.3363,75.4471,160.129,99.7312,101.718,0.00201427,0.215623,20.8142,315.316,-0.178144,0.0,0.0
5696,1423.75,70.6007,75.3525,163.985,99.7823,101.41,0.00197699,0.214369,20.814,314.805,-0.146108,0.0,0.0
5728,1431.75,70.4109,75.4667,156.888,99.8831,101.909,0.00159766,0.211993,20.8164,314.235,-0.181285,0.0,0.0
5760,1439.75,70.0678,75.4666,165.187,99.9746,101.499,0.00193316,0.209122,20.8173,313.714,-0.136647,0.0,0.0
5792,1447.75,70.8334,75.488,163.156,100.043,101.463,0.00173662,0.206788,20.8198,313.214,-0.127242,0.0,0.0
5824,1455.75,70.3971,74.5293,162.976,100.112,101.723,0.00167338,0.204897,20.8191,312.603,-0.144183,0.0,0.0
5856,1463.75,70.1425,74.5494,161.365,100.189,101.679,0.00169638,0.202413,20.8245,312.053,-0.133282,0.0,0.0
5888,1471.75,69.9793,75.136,163.921,100.259,101.62,0.00158251,0.199927,20.8266,311.612,-0.121826,0.0,0.0
5920,1479.75,70.3021,74.251,161.556,100.259,101.843,0.0015754,0.19955,20.8259,311.162,-0.141613,0.0,0.0
5952,1487.75,70.055,74.0193,160.02,100.267,101.444,0.00174032,0.193427,20.8301,310.662,-0.105391,0.0,0.0
5984,1495.75,69.7796,74.0263,159.249,100.237,101.829,0.0016174,0.190951,20.8362,309.901,-0.142284,0.0,0.0
6016,1503.75,69.7562,73.4607,162.054,100.292,102.427,0.00144705,0.191442,20.8391,309.41,-0.190164,0.0,0.0
6048,1511.75,69.3157,73.3788,162.734,100.389,102.354,0.00170649,0.188582,20.8394,309.03,-0.175051,0.0,0.0
6080,1519.75,69.2655,73.0339,162.345,100.43,101.893,0.00169237,0.18764,20.8413,308.6,-0.130585,0.0,0.0
6112,1527.75,69.3824,73.6409,163.788,100.479,102.358,0.00181475,0.188551,20.8405,308.089,-0.1673,0.0,0.0
6144,1535.75,69.0364,73.0307,160.608,100.499,102.227,0.00206245,0.186225,20.8422,307.619,-0.153938,0.0,0.0
6176,1543.75,68.9132,73.1569,157.624,100.559,102.213,0.00197879,0.186679,20.8447,307.118,-0.147271,0.0,0.0
6208,1551.75,69.0179,73.2523,161.202,100.559,101.79,0.00202136,0.18703,20.8402,306.708,-0.10985,0.0,0.0
6240,1559.75,69.2885,72.9544,160.153,100.574,102.302,0.00212256,0.184899,20.8425,306.318,-0.153822,0.0,0.0
6272,1567.75,69.1381,73.0074,166.493,100.556,102.014,0.00189478,0.184307,20.8454,305.797,-0.130039,0.0,0.0
6304,1575.75,69.008,72.8229,161.395,100.534,102.199,0.00199777,0.183615,20.8459,305.387,-0.148349,0.0,0.0
6336,1583.75,68.9446,73.3825,163.637,100.522,103.006,0.00167769,0.182404,20.849,304.967,-0.22047,0.0,0.0
6368,1591.75,68.8326,72.9565,164.391,100.494,102.26,0.00189345,0.183405,20.8473,304.616,-0.157274,0.0,0.0
6400,1599.75,68.6729,72.8937,166.071,100.43,102.303,0.002104,0.182155,20.8457,304.146,-0.166882,0.0,0.0
6432,1607.75,68.2521,72.6376,165.633,100.351,102.543,0.00182815,0.178615,20.848,303.645,-0.195045,0.0,0.0
6464,1615.75,68.7084,72.2839,166.199,100.269,102.331,0.00180059,0.178421,20.8493,303.185,-0.183844,0.0,0.0
6496,1623.75,68.9661,72.6566,162.431,100.18,101.663,0.00225897,0.182531,20.847,302.765,-0.132673,0.0,0.0
6528,1631.75,68.7118,72.3291,164.924,100.099,101.613,0.00254372,0.180934,20.8475,302.264,-0.135601,0.0,0.0
6560,1639.75,68.6265,71.5555,160.964,100.025,102.266,0.00177532,0.177751,20.852,301.824,-0.200113,0.0,0.0
6592,1647.75,67.779,71.5397,161.242,100.112,101.992,0.00219746,0.175566,20.8564,301.443,-0.167989,0.0,0.0
6624,1655.75,68.0109,71.7993,163.693,100.369,101.808,0.00174854,0.175124,20.8569,301.013,-0.128549,0.0,0.0
6656,1663.75,68.3898,72.0138,162.168,100.644,102.144,0.00210121,0.177285,20.8548,300.683,-0.133557,0.0,0.0
6688,1671.75,68.0869,72.0278,160.991,100.781,102.218,0.00188892,0.176772,20.8555,300.363,-0.127862,0.0,0.0
6720,1679.75,67.9687,72.3685,161.666,100.862,102.502,0.00249158,0.174509,20.8544,299.802,-0.145614,0.0,0.0
6752,1687.75,68.0338,71.6234,162.78,100.859,102.691,0.00225958,0.174235,20.8583,299.422,-0.162584,0.0,0.0
6784,1695.75,68.0621,71.7599,162.388,100.842,103.014,0.00213744,0.172647,20.859,299.011,-0.192448,0.0,0.0
6816,1703.75,67.9021,71.5187,161.576,100.753,102.983,0.00220169,0.17147,20.8592,298.641,-0.197686,0.0,0.0
6848,1711.75,67.764,71.4374,164.528,100.603,102.734,0.00244568,0.170552,20.8614,298.171,-0.189221,0.0,0.0
6880,1719.75,67.3114,70.9088,166.262,100.438,102.655,0.00192254,0.170147,20.8616,297.74,-0.197113,0.0,0.0
6912,1727.75,67.445,70.5385,167.125,100.435,102.314,0.00245352,0.170194,20.8656,297.35,-0.167342,0.0,0.0
6944,1735.75,67.1939,71.356,160.864,100.545,102.24,0.0023432,0.169286,20.8626,297.04,-0.150923,0.0,0.0
6976,1743.75,67.3756,71.316,167.263,100.661,102.756,0.00193343,0.168245,20.8651,296.729,-0.18604,0.0,0.0
7008,1751.75,66.9489,70.8684,164.315,100.774,102.479,0.00246394,0.16822,20.8644,296.319,-0.1515,0.0,0.0
7040,1759.75,66.865,70.8277,166.562,100.894,103.236,0.00271669,0.16542,20.8672,295.899,-0.207183,0.0,0.0
7072,1767.75,67.364,71.2214,165.72,101.03,102.935,0.0030034,0.167577,20.8669,295.568,-0.168708,0.0,0.0
7104,1775.75,67.0895,70.5391,167.627,101.137,103.526,0.0028194,0.163614,20.8675,295.268,-0.210819,0.0,0.0
7136,1783.75,67.1381,70.9412,165.65,101.206,103.36,0.00278693,0.162301,20.8685,294.858,-0.190135,0.0,0.0
7168,1791.75,67.0421,70.3151,159.085,101.24,102.897,0.00292039,0.162128,20.8714,294.487,-0.146603,0.0,0.0
7200,1799.75,66.4943,70.6231,166.911,101.266,103.001,0.00284756,0.160147,20.8721,294.087,-0.153429,0.0,0.0
7232,1807.75,66.6447,70.1684,165.42,101.275,103.111,0.00283932,0.158996,20.8724,293.797,-0.162311,0.0,0.0
7264,1815.75,66.3473,69.5034,163.073,101.248,103.538,0.00283025,0.158468,20.8721,293.627,-0.202021,0.0,0.0
7296,1823.75,66.5189,70.0596,166.262,101.184,102.822,0.00318201,0.158321,20.8722,293.116,-0.145043,0.0,0.0
7328,1831.75,66.7248,70.449,165.112,101.089,103.237,0.00426904,0.164925,20.8686,292.636,-0.189925,0.0,0.0
7360,1839.75,66.741,70.4131,164.826,100.974,103.076,0.00327173,0.159841,20.872,292.275,-0.186025,0.0,0.0
7392,1847.75,66.7656,70.3471,162.069,100.813,103.394,0.00336286,0.15775,20.8737,292.035,-0.228249,0.0,0.0
7424,1855.75,66.4575,70.3342,164.945,100.572,102.34,0.00350578,0.155893,20.8769,291.665,-0.157334,0.0,0.0
7456,1863.75,66.71,70.4238,164.228,100.312,102.513,0.00337649,0.154745,20.8777,291.275,-0.195992,0.0,0.0
7488,1871.75,66.2842,70.0736,161.013,100.036,102.103,0.00344791,0.153626,20.8796,290.984,-0.184621,0.0,0.0
7520,1879.75,66.435,69.7054,164.541,99.861,101.972,0.00324064,0.152291,20.8809,290.614,-0.188927,0.0,0.0
7552,1887.75,66.0859,69.7393,163.219,99.7521,102.075,0.00371182,0.152052,20.8821,290.254,-0.207878,0.0,0.0
7584,1895.75,66.2671,69.7253,164.83,99.6278,100.996,0.0036494,0.15154,20.8831,289.983,-0.123155,0.0,0.0
7616,1903.75,66.1305,69.5966,161.923,99.5449,101.841,0.0037934,0.151286,20.8814,289.633,-0.205948,0.0,0.0
7648,1911.75,65.8209,69.5227,166.999,99.4653,101.618,0.00400323,0.149925,20.8824,289.323,-0.193379,0.0,0.0
7680,1919.75,66.4415,69.4277,161.597,99.3841,101.251,0.00376078,0.148655,20.8831,289.113,-0.168093,0.0,0.0
7712,1927.75,66.2862,69.1628,159.153,99.3483,101.5,0.00401754,0.14969,20.8852,288.782,-0.193518,0.0,0.0
7744,1935.75,65.7864,69.4185,164.82,99.3339,101.172,0.00401552,0.149283,20.8851,288.472,-0.165617,0.0,0.0
7776,1943.75,65.5494,68.9457,165.658,99.379,101.619,0.00410996,0.148641,20.8852,288.072,-0.201288,0.0,0.0
7808,1951.75,65.3056,69.0521,168.986,99.493,101.924,0.0045337,0.147696,20.8859,287.762,-0.217971,0.0,0.0
7840,1959.75,65.6807,68.4636,164.471,99.6508,102.273,0.00463339,0.147848,20.8861,287.491,-0.234575,0.0,0.0
7872,1967.75,65.4033,68.4131,167.104,99.8231,101.809,0.00408497,0.144475,20.888,287.221,-0.177855,0.0,0.0
7904,1975.75,65.1163,68.6626,169.086,99.9388,102.512,0.00435928,0.145374,20.8885,286.911,-0.229578,0.0,0.0
7936,1983.75,65.7392,68.6664,165.063,100.096,102.767,0.0042594,0.145393,20.8885,286.47,-0.237781,0.0,0.0
7968,1991.75,64.8628,68.3473,158.773,100.219,102.373,0.0043313,0.144253,20.8899,286.23,-0.192032,0.0,0.0
8000,1999.75,65.205,68.6322,168.159,100.366,102.624,0.00448833,0.143589,20.89,285.97,-0.200879,0.0,0.0
8032,2007.75,64.8579,68.0508,166.667,100.494,103.023,0.00443817,0.143143,20.8905,285.7,-0.224413,0.0,0.0
8064,2015.75,65.1277,67.9076,160.449,100.55,102.671,0.00480687,0.140984,20.8956,285.329,-0.188522,0.0,0.0
8096,2023.75,64.9725,68.1071,168.026,100.603,103.252,0.00482038,0.140949,20.8941,285.019,-0.234657,0.0,0.0
8128,2031.75,64.6234,67.4476,164.886,100.615,103.043,0.00477652,0.143014,20.8935,284.779,-0.215339,0.0,0.0
8160,2039.75,64.7325,67.479,167.036,100.619,103.581,0.00446942,0.141183,20.891,284.489,-0.262,0.0,0.0
8192,2047.75,64.4548,66.7266,164.08,100.614,102.881,0.00431882,0.141603,20.8931,284.158,-0.201172,0.0,0.0
8224,2055.75,64.3113,67.196,167.283,100.602,102.585,0.00454911,0.139195,20.8939,283.838,-0.176182,0.0,0.0
8256,2063.75,63.8936,67.3302,167.148,100.61,103.843,0.00484042,0.137563,20.8966,283.548,-0.285653,0.0,0.0
8288,2071.75,64.0528,66.8778,170.342,100.613,102.842,0.00458941,0.139541,20.8974,283.288,-0.197881,0.0,0.0
8320,2079.75,63.838,66.8503,160.802,100.62,102.802,0.00467955,0.140632,20.8974,283.037,-0.193811,0.0,0.0
8352,2087.75,64.2502,67.0411,168.788,100.607,102.397,0.00538357,0.137204,20.8984,282.717,-0.159284,0.0,0.0
8384,2095.75,63.5642,67.0125,165.195,100.62,102.971,0.00460625,0.137804,20.899,282.397,-0.208575,0.0,0.0
8416,2103.75,63.6017,66.7222,167.536,100.589,103.122,0.00506691,0.131209,20.8993,282.097,-0.224618,0.0,0.0
8448,2111.75,63.4533,67.1313,165.765,100.598,103.5,0.00553652,0.137493,20.9028,281.906,-0.256801,0.0,0.0
8480,2119.75,63.5775,66.4341,163.654,100.591,102.553,0.00521652,0.137937,20.8978,281.626,-0.174436,0.0,0.0
8512,2127.75,63.8689,66.5371,168.587,100.569,102.638,0.00484463,0.138325,20.8999,281.276,-0.183913,0.0,0.0
8544,2135.75,63.544,66.4261,168.622,100.535,102.741,0.00452635,0.139025,20.8981,281.006,-0.195969,0.0,0.0
8576,2143.75,63.7009,66.8539,166.697,100.504,102.998,0.00475955,0.136428,20.8989,280.695,-0.221315,0.0,0.0
8608,2151.75,63.6059,67.2508,164.761,100.476,103.229,0.00517608,0.136952,20.9005,280.435,-0.244095,0.0,0.0
8640,2159.75,63.2649,66.9272,165.672,100.431,102.638,0.00525548,0.134447,20.9028,280.145,-0.19626,0.0,0.0
8672,2167.75,63.377,67.2863,160.189,100.37,102.875,0.00528814,0.133848,20.902,279.875,-0.222568,0.0,0.0
8704,2175.75,63.6173,66.5529,165.627,100.319,103.061,0.00531933,0.135403,20.9013,279.534,-0.243577,0.0,0.0
8736,2183.75,63.3176,67.1467,165.736,100.304,102.898,0.00494553,0.137702,20.9022,279.294,-0.230535,0.0,0.0
8768,2191.75,63.4356,67.0573,163.796,100.305,102.655,0.00515496,0.135481,20.9024,279.094,-0.209157,0.0,0.0
8800,2199.75,63.284,66.3191,166.377,100.291,102.4,0.00555344,0.132645,20.902,278.844,-0.187956,0.0,0.0
8832,2207.75,63.172,66.8157,164.3,100.276,102.303,0.00544673,0.135451,20.905,278.343,-0.180702,0.0,0.0
8864,2215.75,62.8012,66.8825,164.935,100.257,102.303,0.00529528,0.13636,20.8999,278.093,-0.182387,0.0,0.0
8896,2223.75,63.597,66.3363,166.612,100.273,102.852,0.00498913,0.135982,20.9006,277.793,-0.229305,0.0,0.0
8928,2231.75,63.2546,66.8486,167.91,100.259,102.321,0.00480978,0.134811,20.9006,277.653,-0.183831,0.0,0.0
8960,2239.75,63.2687,66.4095,169.017,100.211,102.802,0.00485906,0.135649,20.9006,277.402,-0.230578,0.0,0.0
8992,2247.75,63.0704,66.6352,167.325,100.177,102.382,0.00497725,0.135076,20.902,277.032,-0.196632,0.0,0.0
9024,2255.75,62.8981,66.2996,165.06,100.108,102.406,0.00484804,0.132679,20.9013,276.732,-0.205017,0.0,0.0
9056,2263.75,63.0253,66.4592,163.525,100.042,102.265,0.00521107,0.135099,20.9019,276.652,-0.198449,0.0,0.0
9088,2271.75,62.9591,65.9086,171.87,100,101.628,0.00486333,0.133557,20.9027,276.312,-0.14586,0.0,0.0
9120,2279.75,62.5418,66.0338,166.284,99.9435,101.492,0.00662314,0.126451,20.9093,275.951,-0.138873,0.0,0.0
9152,2287.75,62.729,66.1056,163.524,99.9112,102.332,0.00549329,0.132426,20.9074,275.691,-0.216188,0.0,0.0
9184,2295.75,63.0691,66.4851,170.017,99.9699,101.758,0.00484494,0.134627,20.9036,275.381,-0.160093,0.0,0.0
9216,2303.75,63.4117,66.4718,165.876,100.037,101.912,0.00499516,0.134619,20.9038,275.131,-0.167731,0.0,0.0
9248,2311.75,63.1438,66.2643,166.002,100.118,101.854,0.00506509,0.13435,20.9018,274.91,-0.155204,0.0,0.0
9280,2319.75,63.0522,66.3684,166.538,100.195,102.436,0.00512403,0.13449,20.8995,274.56,-0.199808,0.0,0.0
9312,2327.75,62.875,66.439,162.98,100.246,102.628,0.00536425,0.135844,20.8989,274.24,-0.212062,0.0,0.0
9344,2335.75,63.1071,66.8194,167.213,100.359,102.671,0.004927,0.135163,20.9003,274.04,-0.205694,0.0,0.0
9376,2343.75,63.1469,66.7535,171.805,100.425,102.652,0.00471997,0.135329,20.9009,273.809,-0.198082,0.0,0.0
9408,2351.75,63.3575,66.531,169.945,100.449,102.515,0.005377,0.137,20.9012,273.459,-0.18386,0.0,0.0
9440,2359.75,63.1215,66.6014,166.928,100.495,102.714,0.00551608,0.135601,20.8978,273.069,-0.197208,0.0,0.0
9472,2367.75,62.7254,65.507,167.492,100.521,102.679,0.00541157,0.131224,20.8994,272.909,-0.191757,0.0,0.0
9504,2375.75,62.8828,66.0206,169.305,100.556,103.151,0.00712943,0.131003,20.9091,272.798,-0.230094,0.0,0.0
9536,2383.75,62.3632,65.9289,164.509,100.572,103.148,0.00589879,0.130373,20.9055,271.878,-0.228428,0.0,0.0
9568,2391.75,62.6471,65.4855,166.704,100.571,102.658,0.00617124,0.128023,20.9078,272.068,-0.185441,0.0,0.0
9600,2399.75,62.2969,65.5243,169.681,100.578,102.299,0.00627055,0.135552,20.9075,271.6875,-0.153196,0.0,0.0
9632,2407.75,62.4745,65.5267,168.623,100.61,102.978,0.00646211,0.133225,20.9016,271.487,-0.210087,0.0,0.0
9664,2415.75,62.4831,65.5533,167.714,100.632,102.486,0.00576905,0.131532,20.9046,271.277,-0.164879,0.0,0.0
9696,2423.75,61.756,65.8683,171.029,100.626,102.56,0.00572675,0.131984,20.9051,270.817,-0.171878,0.0,0.0
9728,2431.75,62.8598,65.7678,163.785,100.584,102.764,0.00465047,0.134036,20.9027,270.597,-0.193611,0.0,0.0
9760,2439.75,62.7485,66.2118,167.302,100.521,102.711,0.00474578,0.136357,20.8963,270.336,-0.194621,0.0,0.0
9792,2447.75,62.7649,66.5427,167.251,100.411,103.071,0.00455772,0.13525,20.8978,270.156,-0.236134,0.0,0.0
9824,2455.75,62.7868,66.2363,169.197,100.3,102.463,0.00463271,0.131987,20.9008,269.876,-0.192626,0.0,0.0
9856,2463.75,62.5188,65.929,170.616,100.197,102.189,0.00543408,0.131809,20.9032,269.626,-0.177794,0.0,0.0
9888,2471.75,62.8736,65.9157,174.195,100.068,102.323,0.00584344,0.132456,20.9068,269.205,-0.201219,0.0,0.0
9920,2479.75,62.5589,65.7065,170.129,100.002,101.802,0.00590219,0.128442,20.9069,269.055,-0.161128,0.0,0.0
9952,2487.75,62.6611,65.983,163.383,100.288,101.953,0.00576951,0.13143,20.9068,268.805,-0.148719,0.0,0.0
9984,2495.75,62.5403,65.7834,161.43,100.558,102.441,0.00520435,0.134571,20.9024,268.545,-0.167569,0.0,0.0
10016,2503.75,62.8575,66.0384,165.726,100.759,103.278,0.00488595,0.137501,20.8991,268.244,-0.222971,0.0,0.0
10048,2511.75,62.8461,66.318,166.712,100.885,103.131,0.00441561,0.134895,20.8993,267.844,-0.198836,0.0,0.0
10080,2519.75,62.6167,66.3427,165.528,100.87,102.313,0.00453102,0.137229,20.9019,267.444,-0.12831,0.0,0.0
10112,2527.75,62.6161,65.9916,170.193,100.772,103.064,0.00466859,0.135005,20.9005,267.324,-0.2031,0.0,0.0
10144,2535.75,62.6238,66.5422,161.912,100.554,102.578,0.00537285,0.135129,20.9009,267.053,-0.180001,0.0,0.0
10176,2543.75,62.6116,66.445,165.921,100.426,102.82,0.00506812,0.136457,20.9019,266.683,-0.212752,0.0,0.0
10208,2551.75,63.43,66.9403,163.435,100.503,102.301,0.0043395,0.135797,20.902,266.453,-0.160151,0.0,0.0
10240,2559.75,63.0118,66.6441,165.52,100.582,101.796,0.00394347,0.137085,20.901,266.223,-0.108301,0.0,0.0
10272,2567.75,63.1482,66.4536,165.793,100.677,101.951,0.00438723,0.135934,20.9026,265.972,-0.11362,0.0,0.0
10304,2575.75,63.1911,67.0015,168.008,100.753,102.387,0.00423291,0.13588,20.9024,265.602,-0.145302,0.0,0.0
10336,2583.75,63.227,66.9481,169.631,100.812,103.145,0.0042197,0.135206,20.9024,265.332,-0.206617,0.0,0.0
10368,2591.75,63.6796,66.5288,166.538,100.941,102.71,0.0039014,0.135992,20.9049,265.052,-0.156852,0.0,0.0
10400,2599.75,63.3927,66.4946,167.061,101.043,102.928,0.00376788,0.135923,20.9056,264.791,-0.166894,0.0,0.0
10432,2607.75,63.2279,67.0935,164.082,101.104,103.696,0.00408704,0.135609,20.9057,264.541,-0.228605,0.0,0.0
10464,2615.75,62.7895,67.1112,165.335,101.167,103.142,0.00434074,0.135262,20.9046,264.161,-0.174537,0.0,0.0
10496,2623.75,63.5215,66.6247,164.325,101.219,103.586,0.00437381,0.137502,20.9039,263.901,-0.208767,0.0,0.0
10528,2631.75,63.4792,66.8538,169.522,101.288,103.898,0.00420028,0.137153,20.903,263.711,-0.229774,0.0,0.0
10560,2639.75,63.4032,66.921,168.878,101.302,102.858,0.00418873,0.136832,20.9009,263.47,-0.137671,0.0,0.0
10592,2647.75,63.3341,66.9281,164.306,101.281,103.589,0.00357163,0.138522,20.9007,263.13,-0.203518,0.0,0.0
10624,2655.75,63.6222,66.5714,165.9,101.237,102.499,0.00410339,0.13782,20.9017,262.69,-0.111865,0.0,0.0
10656,2663.75,63.3528,66.6217,167.078,101.196,103.55,0.00395721,0.136601,20.9005,262.479,-0.207624,0.0,0.0
10688,2671.75,63.6415,66.859,163.355,101.155,103.626,0.0042711,0.137797,20.9025,262.239,-0.217932,0.0,0.0
10720,2679.75,63.803,66.8279,163.133,101.103,102.933,0.00432497,0.139068,20.9006,261.949,-0.161979,0.0,0.0
10752,2687.75,63.6872,66.7229,169.386,101.012,102.527,0.00386535,0.138722,20.8979,261.569,-0.134423,0.0,0.0
10784,2695.75,63.6192,67.0396,167.298,100.919,102.823,0.00388481,0.139048,20.8975,261.258,-0.168816,0.0,0.0
10816,2703.75,63.4862,67.7023,167.507,100.813,102.912,0.00321566,0.139086,20.8998,260.988,-0.18609,0.0,0.0
10848,2711.75,63.9897,67.5982,164.537,100.64,102.686,0.00360384,0.139665,20.9023,260.798,-0.181699,0.0,0.0
10880,2719.75,63.5681,67.6529,167.034,100.447,102.388,0.00362042,0.139611,20.9009,260.508,-0.172823,0.0,0.0
10912,2727.75,63.8623,67.9671,162.278,100.248,102.079,0.00375964,0.140666,20.9012,260.147,-0.163404,0.0,0.0
10944,2735.75,64.2385,67.7372,171.215,100.021,101.831,0.00339858,0.140466,20.9013,259.787,-0.161967,0.0,0.0
10976,2743.75,63.5867,67.5328,164.509,99.8737,102.207,0.00357928,0.139934,20.9013,259.557,-0.208516,0.0,0.0
11008,2751.75,63.8781,67.5121,165.997,99.7151,102.041,0.00401823,0.142421,20.8996,259.267,-0.20822,0.0,0.0
11040,2759.75,64.3153,67.5816,163.598,99.584,101.523,0.00329095,0.140392,20.8994,258.986,-0.174181,0.0,0.0
11072,2767.75,63.873,67.4118,165.417,99.4598,101.521,0.00311233,0.143761,20.8989,258.576,-0.185259,0.0,0.0
11104,2775.75,64.0169,67.5374,167.33,99.3768,101.293,0.00388834,0.143621,20.8958,258.286,-0.172428,0.0,0.0
11136,2783.75,64.0282,67.8153,168.536,99.3794,100.955,0.00399359,0.143559,20.8961,258.076,-0.142077,0.0,0.0
11168,2791.75,64.4937,68.0365,166.675,99.4215,101.204,0.0037088,0.143933,20.896,257.725,-0.160495,0.0,0.0
11200,2799.75,64.4017,67.7796,162.42,99.5092,101.627,0.00389834,0.143907,20.8962,257.395,-0.190175,0.0,0.0
11232,2807.75,64.062,67.6091,164.073,99.6091,100.951,0.00331769,0.143835,20.8968,257.005,-0.120839,0.0,0.0
11264,2815.75,64.2821,68.3258,162.136,99.6695,102.019,0.00334086,0.145823,20.8965,256.714,-0.210421,0.0,0.0
11296,2823.75,63.9875,67.9876,163.622,99.7606,101.926,0.00300508,0.146539,20.8933,256.494,-0.193908,0.0,0.0
11328,2831.75,64.3663,68.2177,164.402,99.858,101.778,0.00387619,0.145911,20.894,256.134,-0.17194,0.0,0.0
11360,2839.75,63.8453,68.288,166.955,99.9197,102.232,0.00332816,0.145541,20.8936,255.804,-0.2066,0.0,0.0
11392,2847.75,64.1707,68.2714,163.494,99.9716,101.534,0.00324943,0.147404,20.8928,255.453,-0.140071,0.0,0.0
11424,2855.75,64.8455,67.8871,165.56,100.026,101.418,0.00408777,0.14912,20.8917,255.073,-0.124745,0.0,0.0
11456,2863.75,64.4565,68.3731,166.857,100.109,102.106,0.00342973,0.148185,20.8929,254.793,-0.178338,0.0,0.0
11488,2871.75,64.8806,68.5724,166.022,100.112,101.594,0.00341355,0.149752,20.8918,254.573,-0.132739,0.0,0.0
11520,2879.75,64.2358,68.7947,164.59,100.129,102.4,0.00301656,0.148312,20.8938,254.122,-0.202485,0.0,0.0
11552,2887.75,65.0798,68.78,164.766,100.146,101.584,0.00319873,0.149933,20.8911,253.732,-0.128807,0.0,0.0
11584,2895.75,64.966,68.6621,161.638,100.201,102.041,0.00322,0.151442,20.887,253.532,-0.16429,0.0,0.0
11616,2903.75,65.1969,69.1765,164.409,100.244,101.903,0.00305181,0.152129,20.8888,253.201,-0.148215,0.0,0.0
11648,2911.75,65.2401,68.4904,161.404,100.288,101.859,0.00308593,0.152023,20.8865,252.821,-0.140316,0.0,0.0
11680,2919.75,65.1698,68.8772,162.539,100.358,102.399,0.00317904,0.15294,20.884,252.371,-0.181842,0.0,0.0
11712,2927.75,65.2315,69.138,170.517,100.437,102.776,0.0030663,0.154168,20.8838,252.05,-0.207879,0.0,0.0
11744,2935.75,65.4627,69.6421,163.943,100.486,102.286,0.00319274,0.155308,20.8842,251.77,-0.160339,0.0,0.0
11776,2943.75,65.1349,69.3302,165.438,100.547,102.364,0.00324859,0.154717,20.8856,251.47,-0.161734,0.0,0.0
11808,2951.75,65.3926,69.6913,162.368,100.576,101.983,0.00299707,0.154925,20.8859,251.079,-0.12545,0.0,0.0
11840,2959.75,65.4081,69.0671,164.397,100.619,102.796,0.00314977,0.158497,20.8827,250.649,-0.193316,0.0,0.0
11872,2967.75,65.6751,69.1831,163.429,100.624,102.215,0.00259172,0.158144,20.8822,250.309,-0.141658,0.0,0.0
11904,2975.75,65.5381,69.8255,161.346,100.65,102.346,0.00256283,0.158022,20.8798,250.039,-0.150858,0.0,0.0
11936,2983.75,65.4301,69.6034,166.558,100.659,102.551,0.00248331,0.157658,20.882,249.648,-0.168212,0.0,0.0
11968,2991.75,65.4344,69.4367,162.82,100.662,102.686,0.00241258,0.158924,20.88,249.218,-0.179791,0.0,0.0
12000,2999.75,65.3667,69.6415,167.087,100.67,102.204,0.00223247,0.158854,20.8798,248.827,-0.136577,0.0,0.0
12032,3007.75,65.9503,69.8381,161.972,100.676,102.504,0.00205211,0.159167,20.8816,248.457,-0.162542,0.0,0.0
12064,3015.75,65.5577,70.0504,164.855,100.67,102.053,0.00210177,0.162469,20.8772,248.177,-0.123163,0.0,0.0
12096,3023.75,65.9671,69.8577,165.715,100.639,102.338,0.00226276,0.161822,20.8753,247.777,-0.151147,0.0,0.0
12128,3031.75,66.2464,69.8851,163.196,100.614,102.011,0.00247431,0.162924,20.8759,247.326,-0.124486,0.0,0.0
12160,3039.75,65.8472,70.0565,166.782,100.589,102.42,0.00226825,0.164541,20.8736,246.926,-0.162828,0.0,0.0
12192,3047.75,66.3565,70.2131,161.639,100.577,102.86,0.001978,0.165011,20.8734,246.546,-0.202714,0.0,0.0
12224,3055.75,66.8696,70.545,165.554,100.572,101.801,0.00212574,0.165947,20.8703,246.225,-0.10963,0.0,0.0
12256,3063.75,66.1138,70.2253,162.2,100.511,102.018,0.00189584,0.165441,20.8711,245.785,-0.13441,0.0,0.0
12288,3071.75,66.7119,70.5793,164.566,100.471,102.126,0.00194277,0.167047,20.8704,245.344,-0.14757,0.0,0.0
12320,3079.75,66.3832,70.3321,161.637,100.416,101.721,0.00236906,0.170469,20.8678,244.934,-0.116595,0.0,0.0
12352,3087.75,66.8421,71.1577,168.752,100.378,102.083,0.00184803,0.168444,20.8686,244.654,-0.152108,0.0,0.0
12384,3095.75,66.8242,70.7239,165.343,100.317,101.733,0.00206984,0.172421,20.867,244.223,-0.126503,0.0,0.0
12416,3103.75,66.6857,71.0197,166.005,100.273,101.906,0.00212102,0.170333,20.8648,243.813,-0.145828,0.0,0.0
12448,3111.75,66.7043,70.75,164.612,100.221,101.461,0.00139792,0.170355,20.8686,243.283,-0.110974,0.0,0.0
12480,3119.75,66.9832,71.3531,162.595,100.192,101.76,0.00185048,0.172858,20.8652,242.872,-0.14021,0.0,0.0
12512,3127.75,67.1555,71.5353,165.998,100.175,101.693,0.00143154,0.17553,20.8607,242.532,-0.135768,0.0,0.0
12544,3135.75,67.5533,71.3897,164.564,100.154,102.087,0.00186218,0.176222,20.8601,242.092,-0.17262,0.0,0.0
12576,3143.75,67.7264,71.3991,159.54,100.115,102.071,0.00182,0.174982,20.8613,241.511,-0.174805,0.0,0.0
12608,3151.75,67.2928,71.9316,163.205,100.101,101.578,0.00158064,0.175812,20.8617,241.141,-0.132257,0.0,0.0
12640,3159.75,67.4809,71.7867,160.801,100.099,101.998,0.00157571,0.1749,20.8592,240.73,-0.169716,0.0,0.0
12672,3167.75,67.3835,72.013,161.191,100.08,101.856,0.001711,0.180723,20.8558,240.31,-0.15885,0.0,0.0
12704,3175.75,68.0264,71.7813,162.681,100.053,101.909,0.00217167,0.180476,20.8527,239.83,-0.165913,0.0,0.0
12736,3183.75,67.7101,71.9661,165.223,100.031,101.218,0.00182544,0.179743,20.8568,239.319,-0.106557,0.0,0.0
12768,3191.75,67.7307,72.3353,166.639,100.043,101.629,0.00139641,0.181594,20.8542,238.919,-0.142046,0.0,0.0
12800,3199.75,68.0123,72.797,162.881,100.052,101.594,0.00113859,0.181233,20.8538,238.438,-0.13819,0.0,0.0
12832,3207.75,68.0626,72.172,159.749,100.108,101.082,0.00157249,0.183783,20.8493,237.998,-0.0874216,0.0,0.0
12864,3215.75,67.9443,72.2561,160.286,100.119,101.695,0.00187543,0.184145,20.8507,237.588,-0.141063,0.0,0.0
12896,3223.75,68.2675,72.8229,162.806,100.146,101.71,0.00144013,0.184673,20.8496,237.077,-0.139855,0.0,0.0
12928,3231.75,68.3296,72.9945,156.13,100.203,101.348,0.00174191,0.186877,20.848,236.577,-0.102568,0.0,0.0
12960,3239.75,68.7168,73.0243,165.985,100.172,101.815,0.00151884,0.187059,20.8464,236.206,-0.14693,0.0,0.0
12992,3247.75,68.8899,73.0442,160.056,100.102,101.89,0.00151069,0.186763,20.8459,235.686,-0.159895,0.0,0.0
13024,3255.75,68.2818,72.9986,159.481,100.015,101.387,0.0016273,0.1871,20.8491,235.186,-0.12305,0.0,0.0
13056,3263.75,69.2107,73.3905,160.42,100.017,101.11,0.00143087,0.188581,20.8486,234.715,-0.0981335,0.0,0.0
13088,3271.75,68.5625,73.2709,160.351,100.049,101.488,0.00127264,0.18774,20.8464,234.245,-0.12892,0.0,0.0
13120,3279.75,68.6697,73.5155,158.719,100.097,101.315,0.00138123,0.188725,20.8472,233.854,-0.109216,0.0,0.0
13152,3287.75,69.4105,73.3406,167.517,100.136,101.48,0.00141227,0.188011,20.8465,233.374,-0.120382,0.0,0.0
13184,3295.75,69.4142,73.3829,163.176,100.171,101.636,0.00133774,0.187375,20.8477,232.824,-0.131137,0.0,0.0
13216,3303.75,69.0677,73.1825,168.268,100.183,102.116,0.00123417,0.189798,20.844,232.333,-0.172533,0.0,0.0
13248,3311.75,68.9182,73.7304,159.131,100.213,102.143,0.00136066,0.190465,20.8413,231.913,-0.172281,0.0,0.0
13280,3319.75,69.3235,73.7577,160.948,100.257,101.757,0.00139657,0.191073,20.8413,231.382,-0.1341,0.0,0.0
13312,3327.75,69.4139,73.6507,163.573,100.306,101.833,0.00175619,0.190641,20.8414,230.902,-0.136398,0.0,0.0
13344,3335.75,69.1979,73.7333,158.66,100.342,101.689,0.00144378,0.191956,20.8414,230.421,-0.120427,0.0,0.0
13376,3343.75,69.5591,74.2609,157.426,100.426,102.263,0.00211177,0.193072,20.8408,229.991,-0.163673,0.0,0.0
13408,3351.75,69.5969,74.2422,165.159,100.504,102.042,0.00161632,0.191665,20.8399,229.521,-0.137098,0.0,0.0
13440,3359.75,69.4761,74.1647,163.374,100.591,102.294,0.00129195,0.193196,20.8396,229.04,-0.151527,0.0,0.0
13472,3367.75,69.3904,73.8229,161.653,100.615,102.169,0.00126627,0.19081,20.8398,228.51,-0.138392,0.0,0.0
13504,3375.75,69.7082,73.8034,160.138,100.64,102.219,0.00152692,0.190558,20.842,227.989,-0.140553,0.0,0.0
13536,3383.75,69.8398,74.3598,161.082,100.665,101.856,0.00135465,0.192754,20.8376,227.609,-0.106287,0.0,0.0
13568,3391.75,69.6021,73.8933,160.739,100.653,102.025,0.00133337,0.19326,20.8378,227.129,-0.122294,0.0,0.0
13600,3399.75,69.8755,73.9434,163.522,100.602,101.714,0.00149385,0.189597,20.8424,226.728,-0.0992865,0.0,0.0
13632,3407.75,69.8823,74.2587,166.005,100.523,101.946,0.0013853,0.189942,20.8412,226.148,-0.126996,0.0,0.0
13664,3415.75,69.3818,73.8945,162.442,100.403,101.386,0.00125553,0.190155,20.8428,225.637,-0.0879449,0.0,0.0
13696,3423.75,69.6304,74.477,162.625,100.294,101.662,0.00145367,0.191367,20.8398,225.257,-0.122349,0.0,0.0
13728,3431.75,69.3089,73.9655,165.347,100.195,101.788,0.00170211,0.190432,20.8421,224.827,-0.142446,0.0,0.0
13760,3439.75,69.4735,74.1075,161.181,100.112,101.531,0.00156849,0.190489,20.8405,224.256,-0.12718,0.0,0.0
13792,3447.75,69.651,74.2814,166.093,100.032,101.251,0.00124131,0.19338,20.8384,223.766,-0.109309,0.0,0.0
13824,3455.75,69.7671,74.08,163.046,99.9797,101.63,0.00141844,0.191876,20.8365,223.325,-0.147833,0.0,0.0
13856,3463.75,70.0261,73.8208,160.875,99.9775,101.408,0.0016049,0.191639,20.8359,222.925,-0.128261,0.0,0.0
13888,3471.75,69.6714,73.9251,160.032,99.9886,100.91,0.0012599,0.190322,20.8357,222.535,-0.0828748,0.0,0.0
13920,3479.75,69.5918,73.7153,163.396,99.9507,101.552,0.00159413,0.189928,20.84,221.974,-0.143499,0.0,0.0
13952,3487.75,69.6155,74.0474,159.546,99.9563,101.501,0.00155542,0.188427,20.8406,221.484,-0.138492,0.0,0.0
13984,3495.75,69.7638,73.641,164.121,100.008,101.337,0.00166984,0.189505,20.84,221.063,-0.119215,0.0,0.0
14016,3503.75,69.2067,73.751,162.737,100.019,101.261,0.00134282,0.187511,20.8402,220.623,-0.111506,0.0,0.0
14048,3511.75,69.6178,74.1311,166.881,100.071,101.514,0.00149233,0.187764,20.8431,220.212,-0.12928,0.0,0.0
14080,3519.75,69.5094,73.3623,160.758,100.109,101.674,0.00171688,0.185946,20.8434,219.742,-0.140082,0.0,0.0
14112,3527.75,69.6911,73.9169,159.83,100.114,101.615,0.0016997,0.184897,20.8457,219.262,-0.134387,0.0,0.0
14144,3535.75,69.4557,73.9415,158.8,100.12,101.233,0.00154551,0.185222,20.8443,218.831,-0.0998253,0.0,0.0
14176,3543.75,69.3074,73.6943,168.621,100.084,101.259,0.00161801,0.185158,20.8435,218.481,-0.105334,0.0,0.0
14208,3551.75,69.4753,73.6409,160.033,100.049,101.579,0.00187139,0.185449,20.844,218.001,-0.13707,0.0,0.0
14240,3559.75,69.4603,73.5532,161.791,100.006,101.507,0.00176277,0.183664,20.8432,217.55,-0.134512,0.0,0.0
14272,3567.75,69.157,73.4958,165.036,99.9678,101.451,0.00122907,0.181107,20.8463,217.1,-0.133011,0.0,0.0
14304,3575.75,69.4925,73.1169,165.173,99.9627,101.442,0.00153758,0.181233,20.849,216.779,-0.132635,0.0,0.0
14336,3583.75,68.9764,73.3009,165.031,99.9414,100.94,0.00162362,0.180238,20.8501,216.459,-0.0897964,0.0,0.0
14368,3591.75,68.5224,72.1096,158.363,99.9116,101.907,0.00156761,0.180182,20.8501,215.889,-0.17858,0.0,0.0
14400,3599.75,68.3009,71.8828,161.674,99.9193,101.296,0.00196639,0.182242,20.8462,215.468,-0.123595,0.0,0.0
14432,3607.75,68.4419,72.4106,159.826,99.975,101.555,0.00167451,0.180888,20.8477,215.048,-0.141565,0.0,0.0
14464,3615.75,68.1176,72.256,160.578,99.9848,101.63,0.00150969,0.181119,20.8473,214.738,-0.147372,0.0,0.0
14496,3623.75,68.4844,72.613,161.126,100.023,101.9,0.00159015,0.176888,20.8504,214.267,-0.167833,0.0,0.0
14528,3631.75,68.6118,72.749,165.02,100.046,101.173,0.0017779,0.18076,20.8507,213.847,-0.101208,0.0,0.0
14560,3639.75,68.677,72.5353,164.01,100.068,101.521,0.00181479,0.180744,20.8495,213.407,-0.130129,0.0,0.0
14592,3647.75,68.2022,72.6639,164.476,100.124,101.879,0.00159249,0.17859,20.8495,213.106,-0.156912,0.0,0.0
14624,3655.75,68.4378,72.2894,163.756,100.152,101.787,0.00173148,0.17646,20.8517,212.726,-0.146268,0.0,0.0
14656,3663.75,68.4154,72.1409,167.115,100.2,101.758,0.00155348,0.17537,20.854,212.336,-0.139288,0.0,0.0
14688,3671.75,68.8446,72.2142,161.164,100.243,101.777,0.0014722,0.176391,20.8543,211.795,-0.137125,0.0,0.0
14720,3679.75,68.0426,72.1444,164.244,100.276,101.826,0.00179723,0.17691,20.853,211.405,-0.13854,0.0,0.0
14752,3687.75,68.3257,72.1789,161.803,100.337,101.711,0.00147458,0.177381,20.8525,211.044,-0.122852,0.0,0.0
14784,3695.75,68.1449,72.159,161.442,100.434,102.082,0.00183312,0.177401,20.8547,210.714,-0.146954,0.0,0.0
14811,3702.5,68.3303,72.114,164.594,100.511,101.741,0.00192755,0.176317,20.8549,210.354,-0.109904,0.0,0.0