File: 01_Data/PVC/FTIR/IS/PVC_IS_S_220818_R2.dpt
7497.03,0.11096
7491.25,0.11238
7485.46,0.11079
7479.67,0.10565
7473.89,0.11335
7468.1,0.11652
7462.32,0.10934
7456.53,0.11322
7450.74,0.11459
7444.96,0.11601
7439.17,0.11062
7433.38,0.09769
7427.6,0.10009
7421.81,0.11201
7416.03,0.10803
7410.24,0.10634
7404.45,0.10337
7398.67,0.11397
7392.88,0.11011
7387.09,0.10591
7381.31,0.11422
7375.52,0.11075
7369.74,0.11264
7363.95,0.11173
7358.16,0.11663
7352.38,0.11473
7346.59,0.10941
7340.8,0.11629
7335.02,0.11672
7329.23,0.10622
7323.45,0.10550
7317.66,0.11547
7311.87,0.11036
7306.09,0.10869
7300.3,0.11349
7294.51,0.10827
7288.73,0.10423
7282.94,0.10477
7277.16,0.10990
7271.37,0.10838
7265.58,0.10358
7259.8,0.11113
7254.01,0.10398
7248.22,0.11366
7242.44,0.11162
7236.65,0.10777
7230.87,0.10862
7225.08,0.10561
7219.29,0.10476
7213.51,0.11066
7207.72,0.10443
7201.93,0.10176
7196.15,0.10356
7190.36,0.11105
7184.58,0.10759
7178.79,0.10694
7173,0.10682
7167.22,0.10860
7161.43,0.10111
7155.65,0.10531
7149.86,0.10804
7144.07,0.11367
7138.29,0.10971
7132.5,0.10956
7126.71,0.11059
7120.93,0.10615
7115.14,0.10138
7109.36,0.10763
7103.57,0.11373
7097.78,0.11474
7092,0.10988
7086.21,0.10772
7080.42,0.10368
7074.64,0.10864
7068.85,0.10751
7063.07,0.10488
7057.28,0.10065
7051.49,0.10164
7045.71,0.10400
7039.92,0.10488
7034.13,0.10778
7028.35,0.10712
7022.56,0.10715
7016.78,0.10099
7010.99,0.10678
7005.2,0.10121
6999.42,0.10298
6993.63,0.10764
6987.84,0.10435
6982.06,0.09971
6976.27,0.11178
6970.49,0.10736
6964.7,0.10379
6958.91,0.10439
6953.13,0.10537
6947.34,0.10666
6941.55,0.10234
6935.77,0.10495
6929.98,0.10556
6924.2,0.10332
6918.41,0.10498
6912.62,0.10568
6906.84,0.10738
6901.05,0.10637
6895.26,0.10289
6889.48,0.10745
6883.69,0.10306
6877.91,0.10617
6872.12,0.10703
6866.33,0.10798
6860.55,0.10290
6854.76,0.10319
6848.97,0.10540
6843.19,0.10281
6837.4,0.10143
6831.62,0.10564
6825.83,0.10244
6820.04,0.10294
6814.26,0.10411
6808.47,0.10122
6802.68,0.10280
6796.9,0.10047
6791.11,0.10320
6785.33,0.10293
6779.54,0.10380
6773.75,0.10137
6767.97,0.10247
6762.18,0.10376
6756.39,0.10468
6750.61,0.10079
6744.82,0.10251
6739.04,0.10332
6733.25,0.10550
6727.46,0.10176
6721.68,0.10289
6715.89,0.09987
6710.1,0.09926
6704.32,0.10241
6698.53,0.09904
6692.75,0.10211
6686.96,0.10699
6681.17,0.10043
6675.39,0.10197
6669.6,0.10322
6663.82,0.10340
6658.03,0.10253
6652.24,0.10275
6646.46,0.10437
6640.67,0.10176
6634.88,0.10450
6629.1,0.10427
6623.31,0.10170
6617.53,0.09879
6611.74,0.10142
6605.95,0.09924
6600.17,0.10214
6594.38,0.10163
6588.59,0.09847
6582.81,0.10146
6577.02,0.10023
6571.24,0.10319
6565.45,0.09726
6559.66,0.09992
6553.88,0.09769
6548.09,0.09930
6542.3,0.10304
6536.52,0.10023
6530.73,0.10322
6524.95,0.10142
6519.16,0.09787
6513.37,0.10327
6507.59,0.09714
6501.8,0.09856
6496.01,0.10033
6490.23,0.10268
6484.44,0.09908
6478.66,0.10308
6472.87,0.10101
6467.08,0.10011
6461.3,0.10388
6455.51,0.10129
6449.72,0.09907
6443.94,0.09777
6438.15,0.09588
6432.37,0.09589
6426.58,0.10096
6420.79,0.09965
6415.01,0.10144
6409.22,0.09629
6403.43,0.10179
6397.65,0.09659
6391.86,0.10146
6386.08,0.10068
6380.29,0.10027
6374.5,0.09810
6368.72,0.09743
6362.93,0.09687
6357.14,0.09701
6351.36,0.09537
6345.57,0.09681
6339.79,0.09790
6334,0.09980
6328.21,0.10145
6322.43,0.10392
6316.64,0.09864
6310.85,0.09876
6305.07,0.09700
6299.28,0.09619
6293.5,0.09798
6287.71,0.09865
6281.92,0.09629
6276.14,0.09534
6270.35,0.09540
6264.56,0.09806
6258.78,0.09880
6252.99,0.09887
6247.21,0.10088
6241.42,0.09855
6235.63,0.09714
6229.85,0.09731
6224.06,0.09748
6218.27,0.09838
6212.49,0.09742
6206.7,0.09812
6200.92,0.09674
6195.13,0.09505
6189.34,0.09851
6183.56,0.09893
6177.77,0.09765
6171.98,0.09564
6166.2,0.09730
6160.41,0.09760
6154.63,0.09652
6148.84,0.09793
6143.05,0.09786
6137.27,0.09707
6131.48,0.09643
6125.7,0.09771
6119.91,0.09313
6114.12,0.09564
6108.34,0.09624
6102.55,0.09387
6096.76,0.09464
6090.98,0.09522
6085.19,0.09510
6079.41,0.09643
6073.62,0.09435
6067.83,0.09407
6062.05,0.09466
6056.26,0.09556
6050.47,0.09857
6044.69,0.09803
6038.9,0.09291
6033.12,0.09371
6027.33,0.09471
6021.54,0.09583
6015.76,0.09143
6009.97,0.09315
6004.18,0.09260
5998.4,0.09297
5992.61,0.09440
5986.83,0.09538
5981.04,0.09451
5975.25,0.09239
5969.47,0.09349
5963.68,0.09418
5957.89,0.09233
5952.11,0.09250
5946.32,0.09088
5940.54,0.09214
5934.75,0.08964
5928.96,0.09008
5923.18,0.09016
5917.39,0.08863
5911.6,0.08752
5905.82,0.08998
5900.03,0.08749
5894.25,0.08590
5888.46,0.08368
5882.67,0.08296
5876.89,0.08212
5871.1,0.07950
5865.31,0.07963
5859.53,0.07808
5853.74,0.07720
5847.96,0.07696
5842.17,0.07587
5836.38,0.07490
5830.6,0.07232
5824.81,0.07620
5819.02,0.07428
5813.24,0.07514
5807.45,0.07589
5801.67,0.07516
5795.88,0.07881
5790.09,0.07965
5784.31,0.08019
5778.52,0.08051
5772.73,0.08179
5766.95,0.08258
5761.16,0.08219
5755.38,0.07977
5749.59,0.07928
5743.8,0.07874
5738.02,0.07743
5732.23,0.07841
5726.44,0.07989
5720.66,0.08052
5714.87,0.08082
5709.09,0.08053
5703.3,0.08034
5697.51,0.08246
5691.73,0.08006
5685.94,0.07964
5680.15,0.07905
5674.37,0.08234
5668.58,0.08391
5662.8,0.08276
5657.01,0.07988
5651.22,0.08331
5645.44,0.07984
5639.65,0.08285
5633.87,0.08380
5628.08,0.08274
5622.29,0.08177
5616.51,0.08454
5610.72,0.08328
5604.93,0.08388
5599.15,0.08407
5593.36,0.08423
5587.58,0.08398
5581.79,0.08310
5576,0.08337
5570.22,0.08311
5564.43,0.08312
5558.64,0.08426
5552.86,0.08486
5547.07,0.08294
5541.29,0.08332
5535.5,0.08321
5529.71,0.08431
5523.93,0.08387
5518.14,0.08336
5512.35,0.08369
5506.57,0.08395
5500.78,0.08390
5495,0.08321
5489.21,0.08401
5483.42,0.08327
5477.64,0.08502
5471.85,0.08408
5466.06,0.08386
5460.28,0.08270
5454.49,0.08370
5448.71,0.08376
5442.92,0.08320
5437.13,0.08448
5431.35,0.08410
5425.56,0.08316
5419.77,0.08339
5413.99,0.08225
5408.2,0.08399
5402.42,0.08532
5396.63,0.08316
5390.84,0.08366
5385.06,0.08407
5379.27,0.08341
5373.48,0.08375
5367.7,0.08434
5361.91,0.08180
5356.13,0.08476
5350.34,0.08374
5344.55,0.08350
5338.77,0.08390
5332.98,0.08273
5327.19,0.08492
5321.41,0.08307
5315.62,0.08442
5309.84,0.08329
5304.05,0.08503
5298.26,0.08459
5292.48,0.08523
5286.69,0.08428
5280.9,0.08384
5275.12,0.08336
5269.33,0.08308
5263.55,0.08265
5257.76,0.08190
5251.97,0.08355
5246.19,0.08397
5240.4,0.08234
5234.61,0.08493
5228.83,0.08176
5223.04,0.08282
5217.26,0.08345
5211.47,0.08271
5205.68,0.08379
5199.9,0.08373
5194.11,0.08346
5188.32,0.08310
5182.54,0.08346
5176.75,0.08366
5170.97,0.08203
5165.18,0.08162
5159.39,0.08238
5153.61,0.08196
5147.82,0.08306
5142.03,0.08317
5136.25,0.08160
5130.46,0.08310
5124.68,0.08201
5118.89,0.08358
5113.1,0.08245
5107.32,0.08345
5101.53,0.08317
5095.75,0.08291
5089.96,0.08227
5084.17,0.08333
5078.39,0.08307
5072.6,0.08300
5066.81,0.08255
5061.03,0.08194
5055.24,0.08342
5049.46,0.08316
5043.67,0.08286
5037.88,0.08167
5032.1,0.08048
5026.31,0.08060
5020.52,0.08228
5014.74,0.08300
5008.95,0.08167
5003.17,0.08032
4997.38,0.08243
4991.59,0.08169
4985.81,0.08249
4980.02,0.08089
4974.23,0.08102
4968.45,0.08216
4962.66,0.08162
4956.88,0.08137
4951.09,0.08165
4945.3,0.08203
4939.52,0.08194
4933.73,0.08223
4927.94,0.08157
4922.16,0.08157
4916.37,0.08165
4910.59,0.08066
4904.8,0.08126
4899.01,0.08067
4893.23,0.08171
4887.44,0.08151
4881.65,0.08258
4875.87,0.08183
4870.08,0.08097
4864.3,0.08154
4858.51,0.08162
4852.72,0.08120
4846.94,0.08115
4841.15,0.08090
4835.36,0.08050
4829.58,0.08012
4823.79,0.08164
4818.01,0.08119
4812.22,0.08111
4806.43,0.08121
4800.65,0.08025
4794.86,0.08125
4789.07,0.08109
4783.29,0.07971
4777.5,0.08056
4771.72,0.08053
4765.93,0.08035
4760.14,0.08041
4754.36,0.08126
4748.57,0.08045
4742.78,0.07892
4737,0.07974
4731.21,0.07917
4725.43,0.07932
4719.64,0.07981
4713.85,0.07993
4708.07,0.07951
4702.28,0.07912
4696.49,0.07897
4690.71,0.07974
4684.92,0.07887
4679.14,0.07948
4673.35,0.07859
4667.56,0.07885
4661.78,0.07887
4655.99,0.07839
4650.2,0.07930
4644.42,0.07909
4638.63,0.07856
4632.85,0.07857
4627.06,0.07924
4621.27,0.07905
4615.49,0.07813
4609.7,0.07827
4603.92,0.07860
4598.13,0.07861
4592.34,0.07943
4586.56,0.07860
4580.77,0.07867
4574.98,0.07842
4569.2,0.07819
4563.41,0.07880
4557.63,0.07810
4551.84,0.07833
4546.05,0.07804
4540.27,0.07778
4534.48,0.07766
4528.69,0.07774
4522.91,0.07733
4517.12,0.07709
4511.34,0.07640
4505.55,0.07697
4499.76,0.07680
4493.98,0.07601
4488.19,0.07562
4482.4,0.07568
4476.62,0.07490
4470.83,0.07427
4465.05,0.07392
4459.26,0.07379
4453.47,0.07299
4447.69,0.07167
4441.9,0.07132
4436.11,0.07089
4430.33,0.06967
4424.54,0.06936
4418.76,0.06924
4412.97,0.06824
4407.18,0.06780
4401.4,0.06653
4395.61,0.06652
4389.82,0.06579
4384.04,0.06468
4378.25,0.06309
4372.47,0.06277
4366.68,0.06217
4360.89,0.06165
4355.11,0.06153
4349.32,0.06063
4343.53,0.06058
4337.75,0.06008
4331.96,0.06049
4326.18,0.06048
4320.39,0.06058
4314.6,0.06167
4308.82,0.06173
4303.03,0.06115
4297.24,0.06143
4291.46,0.06089
4285.67,0.06148
4279.89,0.06171
4274.1,0.06161
4268.31,0.06176
4262.53,0.06195
4256.74,0.06175
4250.95,0.06205
4245.17,0.06160
4239.38,0.06133
4233.6,0.06100
4227.81,0.06088
4222.02,0.06103
4216.24,0.06111
4210.45,0.06164
4204.66,0.06212
4198.88,0.06165
4193.09,0.06198
4187.31,0.06190
4181.52,0.06180
4175.73,0.06157
4169.95,0.06107
4164.16,0.06178
4158.37,0.06205
4152.59,0.06190
4146.8,0.06222
4141.02,0.06238
4135.23,0.06291
4129.44,0.06307
4123.66,0.06378
4117.87,0.06300
4112.09,0.06310
4106.3,0.06294
4100.51,0.06255
4094.73,0.06265
4088.94,0.06258
4083.15,0.06252
4077.37,0.06282
4071.58,0.06265
4065.8,0.06261
4060.01,0.06351
4054.22,0.06394
4048.44,0.06320
4042.65,0.06318
4036.86,0.06300
4031.08,0.06339
4025.29,0.06332
4019.51,0.06318
4013.72,0.06360
4007.93,0.06408
4002.15,0.06366
3996.36,0.06428
3990.57,0.06400
3984.79,0.06402
3979,0.06431
3973.22,0.06462
3967.43,0.06464
3961.64,0.06425
3955.86,0.06428
3950.07,0.06465
3944.28,0.06411
3938.5,0.06433
3932.71,0.06400
3926.93,0.06434
3921.14,0.06446
3915.35,0.06488
3909.57,0.06415
3903.78,0.06489
3897.99,0.06419
3892.21,0.06400
3886.42,0.06411
3880.64,0.06420
3874.85,0.06440
3869.06,0.06426
3863.28,0.06486
3857.49,0.06426
3851.7,0.06368
3845.92,0.06427
3840.13,0.06439
3834.35,0.06407
3828.56,0.06426
3822.77,0.06436
3816.99,0.06408
3811.2,0.06450
3805.41,0.06501
3799.63,0.06410
3793.84,0.06440
3788.06,0.06494
3782.27,0.06468
3776.48,0.06453
3770.7,0.06506
3764.91,0.06536
3759.12,0.06437
3753.34,0.06471
3747.55,0.06474
3741.77,0.06449
3735.98,0.06499
3730.19,0.06560
3724.41,0.06592
3718.62,0.06512
3712.83,0.06535
3707.05,0.06463
3701.26,0.06365
3695.48,0.06408
3689.69,0.06322
3683.9,0.06245
3678.12,0.06171
3672.33,0.06173
3666.54,0.06102
3660.76,0.06174
3654.97,0.06265
3649.19,0.06180
3643.4,0.06247
3637.61,0.06226
3631.83,0.06210
3626.04,0.06163
3620.25,0.06113
3614.47,0.06143
3608.68,0.06121
3602.9,0.06061
3597.11,0.06069
3591.32,0.06053
3585.54,0.06032
3579.75,0.05975
3573.97,0.05996
3568.18,0.06014
3562.39,0.06044
3556.61,0.06004
3550.82,0.05899
3545.03,0.05990
3539.25,0.05932
3533.46,0.05961
3527.68,0.06005
3521.89,0.06013
3516.1,0.05982
3510.32,0.05979
3504.53,0.05956
3498.74,0.05976
3492.96,0.05950
3487.17,0.05961
3481.39,0.05924
3475.6,0.05897
3469.81,0.05944
3464.03,0.05972
3458.24,0.05920
3452.45,0.05889
3446.67,0.05939
3440.88,0.05934
3435.1,0.05929
3429.31,0.05932
3423.52,0.05906
3417.74,0.05882
3411.95,0.05819
3406.16,0.05854
3400.38,0.05891
3394.59,0.05861
3388.81,0.05867
3383.02,0.05882
3377.23,0.05898
3371.45,0.05886
3365.66,0.05909
3359.87,0.05918
3354.09,0.05922
3348.3,0.05863
3342.52,0.05803
3336.73,0.05870
3330.94,0.05873
3325.16,0.05811
3319.37,0.05865
3313.58,0.05820
3307.8,0.05769
3302.01,0.05832
3296.23,0.05771
3290.44,0.05743
3284.65,0.05833
3278.87,0.05885
3273.08,0.05779
3267.29,0.05873
3261.51,0.05818
3255.72,0.05813
3249.94,0.05756
3244.15,0.05853
3238.36,0.05900
3232.58,0.05815
3226.79,0.05886
3221,0.05897
3215.22,0.05820
3209.43,0.05778
3203.65,0.05793
3197.86,0.05889
3192.07,0.05871
3186.29,0.05869
3180.5,0.05850
3174.71,0.05884
3168.93,0.05823
3163.14,0.05815
3157.36,0.05830
3151.57,0.05867
3145.78,0.05882
3140,0.05753
3134.21,0.05800
3128.42,0.05820
3122.64,0.05846
3116.85,0.05779
3111.07,0.05811
3105.28,0.05816
3099.49,0.05793
3093.71,0.05757
3087.92,0.05752
3082.14,0.05716
3076.35,0.05725
3070.56,0.05781
3064.78,0.05737
3058.99,0.05638
3053.2,0.05651
3047.42,0.05697
3041.63,0.05621
3035.85,0.05555
3030.06,0.05594
3024.27,0.05593
3018.49,0.05548
3012.7,0.05484
3006.91,0.05484
3001.13,0.05487
2995.34,0.05486
2989.56,0.05399
2983.77,0.05422
2977.98,0.05396
2972.2,0.05422
2966.41,0.05429
2960.62,0.05495
2954.84,0.05494
2949.05,0.05491
2943.27,0.05519
2937.48,0.05480
2931.69,0.05539
2925.91,0.05601
2920.12,0.05659
2914.33,0.05705
2908.55,0.05724
2902.76,0.05729
2896.98,0.05695
2891.19,0.05673
2885.4,0.05676
2879.62,0.05684
2873.83,0.05671
2868.04,0.05641
2862.26,0.05613
2856.47,0.05678
2850.69,0.05736
2844.9,0.05714
2839.11,0.05706
2833.33,0.05705
2827.54,0.05666
2821.75,0.05653
2815.97,0.05664
2810.18,0.05703
2804.4,0.05707
2798.61,0.05721
2792.82,0.05715
2787.04,0.05673
2781.25,0.05680
2775.46,0.05752
2769.68,0.05760
2763.89,0.05720
2758.11,0.05696
2752.32,0.05699
2746.53,0.05701
2740.75,0.05713
2734.96,0.05698
2729.17,0.05705
2723.39,0.05719
2717.6,0.05716
2711.82,0.05713
2706.03,0.05677
2700.24,0.05709
2694.46,0.05711
2688.67,0.05708
2682.88,0.05716
2677.1,0.05690
2671.31,0.05712
2665.53,0.05696
2659.74,0.05693
2653.95,0.05728
2648.17,0.05689
2642.38,0.05659
2636.59,0.05677
2630.81,0.05683
2625.02,0.05680
2619.24,0.05647
2613.45,0.05627
2607.66,0.05622
2601.88,0.05633
2596.09,0.05634
2590.3,0.05630
2584.52,0.05640
2578.73,0.05628
2572.95,0.05636
2567.16,0.05613
2561.37,0.05640
2555.59,0.05620
2549.8,0.05637
2544.02,0.05644
2538.23,0.05621
2532.44,0.05625
2526.66,0.05605
2520.87,0.05583
2515.08,0.05609
2509.3,0.05623
2503.51,0.05627
2497.73,0.05637
2491.94,0.05633
2486.15,0.05651
2480.37,0.05642
2474.58,0.05682
2468.79,0.05673
2463.01,0.05694
2457.22,0.05626
2451.44,0.05650
2445.65,0.05633
2439.86,0.05657
2434.08,0.05680
2428.29,0.05660
2422.5,0.05627
2416.72,0.05606
2410.93,0.05617
2405.15,0.05657
2399.36,0.05649
2393.57,0.05630
2387.79,0.05630
2382,0.05587
2376.21,0.05625
2370.43,0.05611
2364.64,0.05620
2358.86,0.05592
2353.07,0.05644
2347.28,0.05637
2341.5,0.05640
2335.71,0.05627
2329.92,0.05639
2324.14,0.05659
2318.35,0.05621
2312.57,0.05649
2306.78,0.05624
2300.99,0.05628
2295.21,0.05634
2289.42,0.05642
2283.63,0.05636
2277.85,0.05612
2272.06,0.05622
2266.28,0.05578
2260.49,0.05607
2254.7,0.05627
2248.92,0.05633
2243.13,0.05610
2237.34,0.05619
2231.56,0.05664
2225.77,0.05640
2219.99,0.05649
2214.2,0.05649
2208.41,0.05686
2202.63,0.05661
2196.84,0.05694
2191.05,0.05674
2185.27,0.05677
2179.48,0.05659
2173.7,0.05671
2167.91,0.05681
2162.12,0.05682
2156.34,0.05695
2150.55,0.05711
2144.76,0.05694
2138.98,0.05674
2133.19,0.05685
2127.41,0.05703
2121.62,0.05697
2115.83,0.05703
2110.05,0.05700
2104.26,0.05724
2098.47,0.05706
2092.69,0.05714
2086.9,0.05732
2081.12,0.05710
2075.33,0.05715
2069.54,0.05711
2063.76,0.05699
2057.97,0.05719
2052.19,0.05705
2046.4,0.05716
2040.61,0.05749
2034.83,0.05720
2029.04,0.05714
2023.25,0.05727
2017.47,0.05737
2011.68,0.05739
2005.9,0.05747
2000.11,0.05776
1994.32,0.05770
1988.54,0.05765
1982.75,0.05771
1976.96,0.05776
1971.18,0.05796
1965.39,0.05825
1959.61,0.05848
1953.82,0.05821
1948.03,0.05835
1942.25,0.05855
1936.46,0.05861
1930.67,0.05914
1924.89,0.05875
1919.1,0.05919
1913.32,0.05934
1907.53,0.05938
1901.74,0.05965
1895.96,0.05995
1890.17,0.06027
1884.38,0.06050
1878.6,0.06054
1872.81,0.06085
1867.03,0.06078
1861.24,0.06125
1855.45,0.06138
1849.67,0.06175
1843.88,0.06190
1838.09,0.06207
1832.31,0.06203
1826.52,0.06202
1820.74,0.06216
1814.95,0.06230
1809.16,0.06190
1803.38,0.06061
1797.59,0.05765
1791.8,0.05629
1786.02,0.05753
1780.23,0.05846
1774.45,0.05885
1768.66,0.05814
1762.87,0.05691
1757.09,0.05546
1751.3,0.05395
1745.51,0.05269
1739.73,0.05261
1733.94,0.05424
1728.16,0.05496
1722.37,0.05588
1716.58,0.05649
1710.8,0.05744
1705.01,0.05812
1699.22,0.05922
1693.44,0.05971
1687.65,0.06071
1681.87,0.06186
1676.08,0.06301
1670.29,0.06466
1664.51,0.06674
1658.72,0.06852
1652.93,0.06988
1647.15,0.07070
1641.36,0.07134
1635.58,0.07201
1629.79,0.07231
1624,0.07279
1618.22,0.07297
1612.43,0.07301
1606.64,0.07185
1600.86,0.07130
1595.07,0.07387
1589.29,0.07381
1583.5,0.07213
1577.71,0.07072
1571.93,0.07304
1566.14,0.07476
1560.35,0.07612
1554.57,0.07955
1548.78,0.07953
1543,0.07704
1537.21,0.07747
1531.42,0.07969
1525.64,0.07960
1519.85,0.07756
1514.07,0.07509
1508.28,0.07321
1502.49,0.07044
1496.71,0.06744
1490.92,0.06440
1485.13,0.06261
1479.35,0.06016
1473.56,0.05911
1467.78,0.05883
1461.99,0.05941
1456.2,0.06037
1450.42,0.06115
1444.63,0.06123
1438.84,0.06272
1433.06,0.06609
1427.27,0.07038
1421.49,0.07649
1415.7,0.08109
1409.91,0.08623
1404.13,0.08552
1398.34,0.08393
1392.55,0.08493
1386.77,0.08440
1380.98,0.08191
1375.2,0.08106
1369.41,0.07914
1363.62,0.07530
1357.84,0.07157
1352.05,0.06919
1346.26,0.06709
1340.48,0.06367
1334.69,0.06187
1328.91,0.06270
1323.12,0.06313
1317.33,0.06299
1311.55,0.06281
1305.76,0.06285
1299.97,0.06230
1294.19,0.06219
1288.4,0.06110
1282.62,0.05949
1276.83,0.05774
1271.04,0.05660
1265.26,0.05637
1259.47,0.05676
1253.68,0.05892
1247.9,0.06053
1242.11,0.06105
1236.33,0.06212
1230.54,0.06297
1224.75,0.06348
1218.97,0.06233
1213.18,0.06175
1207.39,0.06082
1201.61,0.06023
1195.82,0.06053
1190.04,0.06082
1184.25,0.06066
1178.46,0.05968
1172.68,0.06006
1166.89,0.06066
1161.1,0.06046
1155.32,0.06089
1149.53,0.06095
1143.75,0.06081
1137.96,0.06045
1132.17,0.05975
1126.39,0.05864
1120.6,0.05893
1114.81,0.05838
1109.03,0.05784
1103.24,0.05853
1097.46,0.05854
1091.67,0.05835
1085.88,0.05908
1080.1,0.05893
1074.31,0.05875
1068.52,0.05842
1062.74,0.05915
1056.95,0.05876
1051.17,0.05901
1045.38,0.05901
1039.59,0.05856
1033.81,0.05815
1028.02,0.05849
1022.24,0.05785
1016.45,0.05796
1010.66,0.05811
1004.88,0.05776
999.09,0.05744
993.304,0.05649
987.518,0.05593
981.731,0.05592
975.945,0.05604
970.159,0.05626
964.373,0.05751
958.586,0.05850
952.8,0.05940
947.014,0.05993
941.228,0.05911
935.441,0.05916
929.655,0.05894
923.869,0.05905
918.083,0.05954
912.297,0.05910
906.51,0.05929
900.724,0.05889
894.938,0.05854
889.152,0.05840
883.365,0.05881
877.579,0.06009
871.793,0.06521
866.007,0.06140
860.22,0.05985
854.434,0.05897
848.648,0.05826
842.862,0.05860
837.075,0.05880
831.289,0.05836
825.503,0.05916
819.717,0.05886
813.931,0.05826
808.144,0.05874
802.358,0.05898
796.572,0.05773
790.786,0.05671
784.999,0.05719
779.213,0.05686
773.427,0.05616
767.641,0.05662
761.854,0.05614
756.068,0.05516
750.282,0.05520
744.496,0.05492
738.709,0.05379
732.923,0.05320
727.137,0.05326
721.351,0.05166
715.565,0.05153
709.778,0.05262
703.992,0.05210
698.206,0.05292
692.42,0.05319
686.633,0.05450
680.847,0.05524
675.061,0.05541
669.275,0.05664
663.488,0.05434
657.702,0.05212
651.916,0.05135
646.13,0.05195
640.343,0.05288
634.557,0.05484
628.771,0.05725
622.985,0.05685
617.198,0.06014
611.412,0.06055
605.626,0.06399
599.84,0.06748