File: 01_Data/PVC/FTIR/IS/PVC_IS_T_220818_R8.dpt
7497.03,0.02334
7491.25,0.02587
7485.46,0.02344
7479.67,0.02402
7473.89,0.02949
7468.1,0.02903
7462.32,0.02867
7456.53,0.02986
7450.74,0.02551
7444.96,0.01486
7439.17,0.01330
7433.38,0.02419
7427.6,0.01928
7421.81,0.02343
7416.03,0.02176
7410.24,0.01472
7404.45,0.01760
7398.67,0.02364
7392.88,0.02579
7387.09,0.02240
7381.31,0.02276
7375.52,0.02679
7369.74,0.02605
7363.95,0.02253
7358.16,0.02126
7352.38,0.02157
7346.59,0.02311
7340.8,0.01876
7335.02,0.02452
7329.23,0.01816
7323.45,0.03000
7317.66,0.02289
7311.87,0.02654
7306.09,0.01822
7300.3,0.02899
7294.51,0.02250
7288.73,0.02647
7282.94,0.02328
7277.16,0.02340
7271.37,0.02848
7265.58,0.02315
7259.8,0.01727
7254.01,0.01637
7248.22,0.02262
7242.44,0.02716
7236.65,0.02051
7230.87,0.01632
7225.08,0.01581
7219.29,0.01711
7213.51,0.01436
7207.72,0.02563
7201.93,0.02854
7196.15,0.01831
7190.36,0.01825
7184.58,0.02346
7178.79,0.02256
7173,0.01981
7167.22,0.01983
7161.43,0.02458
7155.65,0.01784
7149.86,0.01783
7144.07,0.01345
7138.29,0.01817
7132.5,0.02224
7126.71,0.01871
7120.93,0.01964
7115.14,0.02244
7109.36,0.01476
7103.57,0.01622
7097.78,0.02761
7092,0.01684
7086.21,0.01686
7080.42,0.01975
7074.64,0.02708
7068.85,0.02221
7063.07,0.01430
7057.28,0.02214
7051.49,0.01888
7045.71,0.02085
7039.92,0.01635
7034.13,0.02434
7028.35,0.01686
7022.56,0.02064
7016.78,0.01731
7010.99,0.01628
7005.2,0.01451
6999.42,0.01652
6993.63,0.01817
6987.84,0.02277
6982.06,0.02191
6976.27,0.02422
6970.49,0.02023
6964.7,0.01870
6958.91,0.02542
6953.13,0.02555
6947.34,0.02308
6941.55,0.02240
6935.77,0.01864
6929.98,0.02066
6924.2,0.02424
6918.41,0.01494
6912.62,0.02470
6906.84,0.02205
6901.05,0.01991
6895.26,0.02148
6889.48,0.02035
6883.69,0.02298
6877.91,0.02509
6872.12,0.01882
6866.33,0.02027
6860.55,0.02591
6854.76,0.02085
6848.97,0.01826
6843.19,0.02040
6837.4,0.02281
6831.62,0.02428
6825.83,0.02676
6820.04,0.02035
6814.26,0.01852
6808.47,0.02200
6802.68,0.02220
6796.9,0.01660
6791.11,0.01935
6785.33,0.02405
6779.54,0.01643
6773.75,0.02170
6767.97,0.01975
6762.18,0.01562
6756.39,0.01944
6750.61,0.01951
6744.82,0.01870
6739.04,0.01850
6733.25,0.02252
6727.46,0.01517
6721.68,0.01487
6715.89,0.02033
6710.1,0.02200
6704.32,0.01544
6698.53,0.02072
6692.75,0.01698
6686.96,0.02105
6681.17,0.01948
6675.39,0.01752
6669.6,0.01839
6663.82,0.01818
6658.03,0.01693
6652.24,0.01682
6646.46,0.01900
6640.67,0.01628
6634.88,0.02243
6629.1,0.02479
6623.31,0.02059
6617.53,0.01871
6611.74,0.02029
6605.95,0.01873
6600.17,0.02019
6594.38,0.01878
6588.59,0.02322
6582.81,0.01721
6577.02,0.01903
6571.24,0.01837
6565.45,0.01972
6559.66,0.01995
6553.88,0.02028
6548.09,0.01880
6542.3,0.02084
6536.52,0.02163
6530.73,0.01832
6524.95,0.02297
6519.16,0.02317
6513.37,0.02354
6507.59,0.01695
6501.8,0.01844
6496.01,0.02174
6490.23,0.01641
6484.44,0.01647
6478.66,0.01679
6472.87,0.01727
6467.08,0.01485
6461.3,0.01981
6455.51,0.01582
6449.72,0.01457
6443.94,0.01881
6438.15,0.01653
6432.37,0.01845
6426.58,0.02036
6420.79,0.01709
6415.01,0.01594
6409.22,0.01629
6403.43,0.01708
6397.65,0.01754
6391.86,0.02236
6386.08,0.01838
6380.29,0.01805
6374.5,0.01849
6368.72,0.01981
6362.93,0.01962
6357.14,0.02066
6351.36,0.02136
6345.57,0.01871
6339.79,0.02234
6334,0.01863
6328.21,0.02019
6322.43,0.01896
6316.64,0.01912
6310.85,0.01636
6305.07,0.01736
6299.28,0.01946
6293.5,0.01974
6287.71,0.02153
6281.92,0.02000
6276.14,0.01932
6270.35,0.01682
6264.56,0.01781
6258.78,0.01758
6252.99,0.02144
6247.21,0.02045
6241.42,0.01811
6235.63,0.02181
6229.85,0.02014
6224.06,0.01955
6218.27,0.01604
6212.49,0.01717
6206.7,0.01666
6200.92,0.01945
6195.13,0.01666
6189.34,0.01670
6183.56,0.02073
6177.77,0.01674
6171.98,0.01967
6166.2,0.01838
6160.41,0.02162
6154.63,0.02029
6148.84,0.01953
6143.05,0.01955
6137.27,0.01904
6131.48,0.01855
6125.7,0.01812
6119.91,0.01748
6114.12,0.01916
6108.34,0.02071
6102.55,0.02117
6096.76,0.01943
6090.98,0.01830
6085.19,0.01859
6079.41,0.01685
6073.62,0.01814
6067.83,0.01692
6062.05,0.01727
6056.26,0.02052
6050.47,0.01815
6044.69,0.01843
6038.9,0.01852
6033.12,0.02140
6027.33,0.01661
6021.54,0.01965
6015.76,0.01998
6009.97,0.01854
6004.18,0.01586
5998.4,0.01787
5992.61,0.02097
5986.83,0.01865
5981.04,0.01978
5975.25,0.02107
5969.47,0.01723
5963.68,0.01862
5957.89,0.01728
5952.11,0.02031
5946.32,0.01778
5940.54,0.01693
5934.75,0.01894
5928.96,0.02082
5923.18,0.01806
5917.39,0.01922
5911.6,0.02031
5905.82,0.01844
5900.03,0.01860
5894.25,0.02033
5888.46,0.01832
5882.67,0.02042
5876.89,0.01890
5871.1,0.01751
5865.31,0.02094
5859.53,0.01934
5853.74,0.01965
5847.96,0.02002
5842.17,0.02039
5836.38,0.01909
5830.6,0.02006
5824.81,0.01842
5819.02,0.01874
5813.24,0.01856
5807.45,0.01973
5801.67,0.01819
5795.88,0.01899
5790.09,0.01769
5784.31,0.01921
5778.52,0.01775
5772.73,0.01799
5766.95,0.01891
5761.16,0.02039
5755.38,0.01899
5749.59,0.01854
5743.8,0.01982
5738.02,0.01736
5732.23,0.01784
5726.44,0.01932
5720.66,0.02018
5714.87,0.01833
5709.09,0.01686
5703.3,0.01878
5697.51,0.01813
5691.73,0.01980
5685.94,0.02029
5680.15,0.02030
5674.37,0.01866
5668.58,0.01978
5662.8,0.01905
5657.01,0.01857
5651.22,0.01729
5645.44,0.01866
5639.65,0.01822
5633.87,0.01954
5628.08,0.01638
5622.29,0.01652
5616.51,0.01892
5610.72,0.02064
5604.93,0.01939
5599.15,0.01913
5593.36,0.01935
5587.58,0.01778
5581.79,0.01964
5576,0.02091
5570.22,0.02042
5564.43,0.01954
5558.64,0.01944
5552.86,0.01874
5547.07,0.02020
5541.29,0.01814
5535.5,0.01922
5529.71,0.01795
5523.93,0.01731
5518.14,0.01719
5512.35,0.01750
5506.57,0.01777
5500.78,0.01833
5495,0.01883
5489.21,0.01780
5483.42,0.01967
5477.64,0.01813
5471.85,0.01687
5466.06,0.01872
5460.28,0.01894
5454.49,0.01877
5448.71,0.02016
5442.92,0.01836
5437.13,0.01822
5431.35,0.01769
5425.56,0.01777
5419.77,0.02085
5413.99,0.01957
5408.2,0.01954
5402.42,0.01829
5396.63,0.01819
5390.84,0.01937
5385.06,0.01966
5379.27,0.02022
5373.48,0.01918
5367.7,0.02014
5361.91,0.01868
5356.13,0.01865
5350.34,0.01789
5344.55,0.01914
5338.77,0.02018
5332.98,0.01794
5327.19,0.01853
5321.41,0.01893
5315.62,0.02017
5309.84,0.01940
5304.05,0.02051
5298.26,0.01967
5292.48,0.01774
5286.69,0.01861
5280.9,0.01978
5275.12,0.01860
5269.33,0.01767
5263.55,0.02023
5257.76,0.01946
5251.97,0.01927
5246.19,0.01934
5240.4,0.02020
5234.61,0.02011
5228.83,0.01844
5223.04,0.01902
5217.26,0.01944
5211.47,0.01894
5205.68,0.01918
5199.9,0.01739
5194.11,0.01929
5188.32,0.01838
5182.54,0.01857
5176.75,0.01879
5170.97,0.01919
5165.18,0.02021
5159.39,0.01905
5153.61,0.01955
5147.82,0.01927
5142.03,0.01869
5136.25,0.01960
5130.46,0.01930
5124.68,0.02080
5118.89,0.01967
5113.1,0.01883
5107.32,0.01859
5101.53,0.01786
5095.75,0.01831
5089.96,0.01852
5084.17,0.01797
5078.39,0.01794
5072.6,0.01952
5066.81,0.01871
5061.03,0.02021
5055.24,0.01888
5049.46,0.01940
5043.67,0.01996
5037.88,0.01785
5032.1,0.01819
5026.31,0.01989
5020.52,0.01906
5014.74,0.01880
5008.95,0.01905
5003.17,0.01934
4997.38,0.01854
4991.59,0.01940
4985.81,0.01967
4980.02,0.01829
4974.23,0.01736
4968.45,0.01795
4962.66,0.01805
4956.88,0.01799
4951.09,0.01803
4945.3,0.01836
4939.52,0.01886
4933.73,0.01973
4927.94,0.01897
4922.16,0.01924
4916.37,0.01916
4910.59,0.02009
4904.8,0.01930
4899.01,0.01914
4893.23,0.01876
4887.44,0.01914
4881.65,0.01945
4875.87,0.02007
4870.08,0.01903
4864.3,0.01991
4858.51,0.01961
4852.72,0.01863
4846.94,0.01841
4841.15,0.01973
4835.36,0.01926
4829.58,0.02089
4823.79,0.02083
4818.01,0.01854
4812.22,0.01948
4806.43,0.01903
4800.65,0.01935
4794.86,0.01881
4789.07,0.01925
4783.29,0.01939
4777.5,0.01874
4771.72,0.01985
4765.93,0.01886
4760.14,0.01878
4754.36,0.01883
4748.57,0.01985
4742.78,0.01956
4737,0.01882
4731.21,0.01890
4725.43,0.01909
4719.64,0.01875
4713.85,0.01907
4708.07,0.01964
4702.28,0.02047
4696.49,0.01992
4690.71,0.01931
4684.92,0.01944
4679.14,0.01884
4673.35,0.01850
4667.56,0.02002
4661.78,0.01973
4655.99,0.02009
4650.2,0.01953
4644.42,0.01960
4638.63,0.01911
4632.85,0.01899
4627.06,0.01875
4621.27,0.01938
4615.49,0.02018
4609.7,0.01994
4603.92,0.01981
4598.13,0.01945
4592.34,0.01944
4586.56,0.01893
4580.77,0.01924
4574.98,0.01889
4569.2,0.01982
4563.41,0.01944
4557.63,0.01928
4551.84,0.01834
4546.05,0.01925
4540.27,0.01884
4534.48,0.01876
4528.69,0.01896
4522.91,0.01973
4517.12,0.01994
4511.34,0.01966
4505.55,0.01950
4499.76,0.01944
4493.98,0.01844
4488.19,0.01961
4482.4,0.01927
4476.62,0.01960
4470.83,0.01937
4465.05,0.01946
4459.26,0.02021
4453.47,0.01914
4447.69,0.01893
4441.9,0.01976
4436.11,0.01978
4430.33,0.01962
4424.54,0.01947
4418.76,0.01923
4412.97,0.01993
4407.18,0.01929
4401.4,0.01942
4395.61,0.01919
4389.82,0.01794
4384.04,0.01978
4378.25,0.01913
4372.47,0.01973
4366.68,0.01945
4360.89,0.01956
4355.11,0.01988
4349.32,0.01910
4343.53,0.01958
4337.75,0.01925
4331.96,0.02004
4326.18,0.01952
4320.39,0.01967
4314.6,0.01929
4308.82,0.01980
4303.03,0.01952
4297.24,0.01893
4291.46,0.01910
4285.67,0.01972
4279.89,0.01973
4274.1,0.02013
4268.31,0.01989
4262.53,0.02035
4256.74,0.01889
4250.95,0.01938
4245.17,0.02017
4239.38,0.01957
4233.6,0.01967
4227.81,0.01980
4222.02,0.01968
4216.24,0.01980
4210.45,0.01961
4204.66,0.01963
4198.88,0.01919
4193.09,0.01928
4187.31,0.01953
4181.52,0.01990
4175.73,0.01961
4169.95,0.01881
4164.16,0.01912
4158.37,0.01953
4152.59,0.01974
4146.8,0.01952
4141.02,0.01965
4135.23,0.01984
4129.44,0.01951
4123.66,0.01999
4117.87,0.01927
4112.09,0.01936
4106.3,0.01957
4100.51,0.01976
4094.73,0.01971
4088.94,0.02000
4083.15,0.01913
4077.37,0.01929
4071.58,0.01927
4065.8,0.01932
4060.01,0.02001
4054.22,0.02013
4048.44,0.01962
4042.65,0.01943
4036.86,0.01896
4031.08,0.01948
4025.29,0.01988
4019.51,0.01910
4013.72,0.01984
4007.93,0.01982
4002.15,0.01942
3996.36,0.02011
3990.57,0.01954
3984.79,0.01995
3979,0.01967
3973.22,0.01973
3967.43,0.01962
3961.64,0.01924
3955.86,0.01918
3950.07,0.01970
3944.28,0.01954
3938.5,0.02017
3932.71,0.02005
3926.93,0.01957
3921.14,0.01999
3915.35,0.01933
3909.57,0.01958
3903.78,0.01987
3897.99,0.01997
3892.21,0.01945
3886.42,0.01952
3880.64,0.01990
3874.85,0.01958
3869.06,0.01959
3863.28,0.01945
3857.49,0.01923
3851.7,0.01940
3845.92,0.02011
3840.13,0.01928
3834.35,0.01951
3828.56,0.01965
3822.77,0.01987
3816.99,0.01976
3811.2,0.02034
3805.41,0.01961
3799.63,0.01974
3793.84,0.01971
3788.06,0.01964
3782.27,0.01939
3776.48,0.01992
3770.7,0.01982
3764.91,0.01932
3759.12,0.01985
3753.34,0.01985
3747.55,0.02015
3741.77,0.01951
3735.98,0.01953
3730.19,0.01950
3724.41,0.01962
3718.62,0.01925
3712.83,0.01995
3707.05,0.01960
3701.26,0.01972
3695.48,0.01999
3689.69,0.01866
3683.9,0.01897
3678.12,0.01933
3672.33,0.01869
3666.54,0.01921
3660.76,0.01942
3654.97,0.01928
3649.19,0.01927
3643.4,0.01966
3637.61,0.01918
3631.83,0.01888
3626.04,0.01853
3620.25,0.01895
3614.47,0.01880
3608.68,0.01849
3602.9,0.01852
3597.11,0.01876
3591.32,0.01910
3585.54,0.01906
3579.75,0.01889
3573.97,0.01881
3568.18,0.01800
3562.39,0.01876
3556.61,0.01850
3550.82,0.01845
3545.03,0.01840
3539.25,0.01869
3533.46,0.01868
3527.68,0.01880
3521.89,0.01792
3516.1,0.01818
3510.32,0.01830
3504.53,0.01817
3498.74,0.01768
3492.96,0.01827
3487.17,0.01811
3481.39,0.01827
3475.6,0.01730
3469.81,0.01793
3464.03,0.01775
3458.24,0.01769
3452.45,0.01809
3446.67,0.01721
3440.88,0.01732
3435.1,0.01765
3429.31,0.01813
3423.52,0.01742
3417.74,0.01788
3411.95,0.01785
3406.16,0.01780
3400.38,0.01803
3394.59,0.01772
3388.81,0.01794
3383.02,0.01802
3377.23,0.01744
3371.45,0.01756
3365.66,0.01746
3359.87,0.01717
3354.09,0.01754
3348.3,0.01820
3342.52,0.01721
3336.73,0.01706
3330.94,0.01728
3325.16,0.01738
3319.37,0.01815
3313.58,0.01671
3307.8,0.01702
3302.01,0.01706
3296.23,0.01765
3290.44,0.01709
3284.65,0.01745
3278.87,0.01735
3273.08,0.01838
3267.29,0.01817
3261.51,0.01740
3255.72,0.01736
3249.94,0.01835
3244.15,0.01719
3238.36,0.01734
3232.58,0.01689
3226.79,0.01793
3221,0.01762
3215.22,0.01789
3209.43,0.01777
3203.65,0.01751
3197.86,0.01723
3192.07,0.01767
3186.29,0.01803
3180.5,0.01750
3174.71,0.01783
3168.93,0.01742
3163.14,0.01710
3157.36,0.01751
3151.57,0.01733
3145.78,0.01789
3140,0.01799
3134.21,0.01782
3128.42,0.01799
3122.64,0.01868
3116.85,0.01848
3111.07,0.01808
3105.28,0.01752
3099.49,0.01862
3093.71,0.01795
3087.92,0.01770
3082.14,0.01728
3076.35,0.01704
3070.56,0.01757
3064.78,0.01773
3058.99,0.01755
3053.2,0.01735
3047.42,0.01725
3041.63,0.01739
3035.85,0.01773
3030.06,0.01734
3024.27,0.01716
3018.49,0.01809
3012.7,0.01786
3006.91,0.01732
3001.13,0.01712
2995.34,0.01741
2989.56,0.01702
2983.77,0.01670
2977.98,0.01732
2972.2,0.01647
2966.41,0.01673
2960.62,0.01706
2954.84,0.01636
2949.05,0.01654
2943.27,0.01631
2937.48,0.01678
2931.69,0.01640
2925.91,0.01671
2920.12,0.01709
2914.33,0.01706
2908.55,0.01781
2902.76,0.01747
2896.98,0.01783
2891.19,0.01744
2885.4,0.01763
2879.62,0.01713
2873.83,0.01720
2868.04,0.01742
2862.26,0.01749
2856.47,0.01770
2850.69,0.01816
2844.9,0.01807
2839.11,0.01847
2833.33,0.01849
2827.54,0.01850
2821.75,0.01859
2815.97,0.01836
2810.18,0.01830
2804.4,0.01804
2798.61,0.01818
2792.82,0.01833
2787.04,0.01836
2781.25,0.01796
2775.46,0.01864
2769.68,0.01834
2763.89,0.01820
2758.11,0.01826
2752.32,0.01812
2746.53,0.01831
2740.75,0.01839
2734.96,0.01826
2729.17,0.01829
2723.39,0.01848
2717.6,0.01796
2711.82,0.01816
2706.03,0.01821
2700.24,0.01832
2694.46,0.01849
2688.67,0.01860
2682.88,0.01795
2677.1,0.01842
2671.31,0.01826
2665.53,0.01835
2659.74,0.01833
2653.95,0.01823
2648.17,0.01824
2642.38,0.01856
2636.59,0.01810
2630.81,0.01832
2625.02,0.01845
2619.24,0.01829
2613.45,0.01859
2607.66,0.01846
2601.88,0.01834
2596.09,0.01842
2590.3,0.01828
2584.52,0.01798
2578.73,0.01836
2572.95,0.01844
2567.16,0.01789
2561.37,0.01791
2555.59,0.01858
2549.8,0.01837
2544.02,0.01817
2538.23,0.01844
2532.44,0.01861
2526.66,0.01844
2520.87,0.01821
2515.08,0.01830
2509.3,0.01851
2503.51,0.01828
2497.73,0.01814
2491.94,0.01827
2486.15,0.01826
2480.37,0.01836
2474.58,0.01811
2468.79,0.01808
2463.01,0.01834
2457.22,0.01825
2451.44,0.01820
2445.65,0.01810
2439.86,0.01838
2434.08,0.01819
2428.29,0.01824
2422.5,0.01829
2416.72,0.01844
2410.93,0.01806
2405.15,0.01825
2399.36,0.01807
2393.57,0.01805
2387.79,0.01841
2382,0.01804
2376.21,0.01812
2370.43,0.01795
2364.64,0.01829
2358.86,0.01835
2353.07,0.01798
2347.28,0.01825
2341.5,0.01827
2335.71,0.01828
2329.92,0.01827
2324.14,0.01835
2318.35,0.01843
2312.57,0.01801
2306.78,0.01811
2300.99,0.01820
2295.21,0.01834
2289.42,0.01819
2283.63,0.01796
2277.85,0.01805
2272.06,0.01811
2266.28,0.01837
2260.49,0.01824
2254.7,0.01800
2248.92,0.01843
2243.13,0.01807
2237.34,0.01831
2231.56,0.01812
2225.77,0.01820
2219.99,0.01845
2214.2,0.01763
2208.41,0.01813
2202.63,0.01811
2196.84,0.01815
2191.05,0.01836
2185.27,0.01814
2179.48,0.01839
2173.7,0.01810
2167.91,0.01830
2162.12,0.01801
2156.34,0.01815
2150.55,0.01828
2144.76,0.01823
2138.98,0.01808
2133.19,0.01797
2127.41,0.01792
2121.62,0.01825
2115.83,0.01792
2110.05,0.01820
2104.26,0.01807
2098.47,0.01826
2092.69,0.01805
2086.9,0.01808
2081.12,0.01810
2075.33,0.01785
2069.54,0.01774
2063.76,0.01771
2057.97,0.01800
2052.19,0.01779
2046.4,0.01790
2040.61,0.01798
2034.83,0.01802
2029.04,0.01758
2023.25,0.01773
2017.47,0.01798
2011.68,0.01753
2005.9,0.01802
2000.11,0.01783
1994.32,0.01798
1988.54,0.01756
1982.75,0.01766
1976.96,0.01787
1971.18,0.01766
1965.39,0.01780
1959.61,0.01776
1953.82,0.01783
1948.03,0.01800
1942.25,0.01795
1936.46,0.01782
1930.67,0.01788
1924.89,0.01766
1919.1,0.01782
1913.32,0.01786
1907.53,0.01746
1901.74,0.01752
1895.96,0.01773
1890.17,0.01775
1884.38,0.01760
1878.6,0.01753
1872.81,0.01763
1867.03,0.01753
1861.24,0.01734
1855.45,0.01750
1849.67,0.01743
1843.88,0.01757
1838.09,0.01713
1832.31,0.01710
1826.52,0.01726
1820.74,0.01703
1814.95,0.01715
1809.16,0.01725
1803.38,0.01640
1797.59,0.01676
1791.8,0.01654
1786.02,0.01640
1780.23,0.01581
1774.45,0.01634
1768.66,0.01568
1762.87,0.01516
1757.09,0.01479
1751.3,0.01437
1745.51,0.01494
1739.73,0.01574
1733.94,0.01680
1728.16,0.01736
1722.37,0.01798
1716.58,0.01835
1710.8,0.01790
1705.01,0.01731
1699.22,0.01686
1693.44,0.01674
1687.65,0.01636
1681.87,0.01578
1676.08,0.01569
1670.29,0.01578
1664.51,0.01584
1658.72,0.01586
1652.93,0.01598
1647.15,0.01562
1641.36,0.01583
1635.58,0.01563
1629.79,0.01577
1624,0.01582
1618.22,0.01624
1612.43,0.01631
1606.64,0.01616
1600.86,0.01595
1595.07,0.01618
1589.29,0.01604
1583.5,0.01591
1577.71,0.01528
1571.93,0.01533
1566.14,0.01521
1560.35,0.01526
1554.57,0.01499
1548.78,0.01538
1543,0.01575
1537.21,0.01561
1531.42,0.01542
1525.64,0.01548
1519.85,0.01567
1514.07,0.01571
1508.28,0.01610
1502.49,0.01570
1496.71,0.01590
1490.92,0.01606
1485.13,0.01577
1479.35,0.01562
1473.56,0.01580
1467.78,0.01547
1461.99,0.01577
1456.2,0.01580
1450.42,0.01563
1444.63,0.01571
1438.84,0.01570
1433.06,0.01605
1427.27,0.01596
1421.49,0.01582
1415.7,0.01531
1409.91,0.01544
1404.13,0.01515
1398.34,0.01506
1392.55,0.01539
1386.77,0.01513
1380.98,0.01504
1375.2,0.01504
1369.41,0.01522
1363.62,0.01577
1357.84,0.01526
1352.05,0.01503
1346.26,0.01483
1340.48,0.01474
1334.69,0.01469
1328.91,0.01460
1323.12,0.01433
1317.33,0.01451
1311.55,0.01445
1305.76,0.01409
1299.97,0.01466
1294.19,0.01519
1288.4,0.01559
1282.62,0.01575
1276.83,0.01616
1271.04,0.01631
1265.26,0.01700
1259.47,0.01722
1253.68,0.01731
1247.9,0.01789
1242.11,0.01729
1236.33,0.01691
1230.54,0.01701
1224.75,0.01650
1218.97,0.01620
1213.18,0.01642
1207.39,0.01603
1201.61,0.01542
1195.82,0.01524
1190.04,0.01490
1184.25,0.01549
1178.46,0.01580
1172.68,0.01554
1166.89,0.01500
1161.1,0.01517
1155.32,0.01519
1149.53,0.01459
1143.75,0.01479
1137.96,0.01488
1132.17,0.01560
1126.39,0.01528
1120.6,0.01523
1114.81,0.01652
1109.03,0.01590
1103.24,0.01567
1097.46,0.01547
1091.67,0.01596
1085.88,0.01540
1080.1,0.01601
1074.31,0.01662
1068.52,0.01692
1062.74,0.01726
1056.95,0.01664
1051.17,0.01679
1045.38,0.01608
1039.59,0.01634
1033.81,0.01644
1028.02,0.01640
1022.24,0.01708
1016.45,0.01639
1010.66,0.01711
1004.88,0.01817
999.09,0.01817
993.304,0.01806
987.518,0.01772
981.731,0.01792
975.945,0.01814
970.159,0.01715
964.373,0.01679
958.586,0.01735
952.8,0.01628
947.014,0.01734
941.228,0.01708
935.441,0.01671
929.655,0.01595
923.869,0.01672
918.083,0.01659
912.297,0.01646
906.51,0.01657
900.724,0.01653
894.938,0.01642
889.152,0.01646
883.365,0.01560
877.579,0.01603
871.793,0.01624
866.007,0.01608
860.22,0.01576
854.434,0.01619
848.648,0.01662
842.862,0.01620
837.075,0.01602
831.289,0.01587
825.503,0.01541
819.717,0.01579
813.931,0.01633
808.144,0.01586
802.358,0.01562
796.572,0.01562
790.786,0.01612
784.999,0.01530
779.213,0.01633
773.427,0.01537
767.641,0.01481
761.854,0.01503
756.068,0.01531
750.282,0.01479
744.496,0.01527
738.709,0.01554
732.923,0.01532
727.137,0.01565
721.351,0.01536
715.565,0.01484
709.778,0.01564
703.992,0.01611
698.206,0.01527
692.42,0.01445
686.633,0.01487
680.847,0.01494
675.061,0.01430
669.275,0.01430
663.488,0.01402
657.702,0.01322
651.916,0.01360
646.13,0.01217
640.343,0.01347
634.557,0.01369
628.771,0.01413
622.985,0.01272
617.198,0.01349
611.412,0.01233
605.626,0.01404
599.84,0.01256