File: 01_Data/PVC/FTIR/IS/PVC_IS_T_220818_R3.dpt
7497.03,0.02696
7491.25,0.02237
7485.46,0.02554
7479.67,0.02523
7473.89,0.01866
7468.1,0.00713
7462.32,0.01456
7456.53,0.02681
7450.74,0.02490
7444.96,0.02883
7439.17,0.01977
7433.38,0.01609
7427.6,0.02226
7421.81,0.02523
7416.03,0.02072
7410.24,0.01615
7404.45,0.01868
7398.67,0.01475
7392.88,0.01637
7387.09,0.02130
7381.31,0.01952
7375.52,0.02046
7369.74,0.01938
7363.95,0.02530
7358.16,0.02871
7352.38,0.02027
7346.59,0.02286
7340.8,0.02102
7335.02,0.02851
7329.23,0.02083
7323.45,0.01947
7317.66,0.01912
7311.87,0.02293
7306.09,0.02656
7300.3,0.02564
7294.51,0.01861
7288.73,0.01867
7282.94,0.02405
7277.16,0.02373
7271.37,0.01978
7265.58,0.02446
7259.8,0.02797
7254.01,0.02022
7248.22,0.01763
7242.44,0.02557
7236.65,0.02578
7230.87,0.01884
7225.08,0.02383
7219.29,0.01864
7213.51,0.02196
7207.72,0.02585
7201.93,0.02029
7196.15,0.01980
7190.36,0.01838
7184.58,0.02238
7178.79,0.02232
7173,0.02208
7167.22,0.01401
7161.43,0.01944
7155.65,0.02300
7149.86,0.01757
7144.07,0.02645
7138.29,0.02652
7132.5,0.02849
7126.71,0.01830
7120.93,0.01879
7115.14,0.02564
7109.36,0.02050
7103.57,0.02703
7097.78,0.01922
7092,0.01933
7086.21,0.02042
7080.42,0.01815
7074.64,0.02638
7068.85,0.02289
7063.07,0.01974
7057.28,0.02322
7051.49,0.02381
7045.71,0.02245
7039.92,0.02294
7034.13,0.02574
7028.35,0.02838
7022.56,0.01922
7016.78,0.01531
7010.99,0.02258
7005.2,0.01522
6999.42,0.02170
6993.63,0.02064
6987.84,0.02193
6982.06,0.02383
6976.27,0.02280
6970.49,0.02355
6964.7,0.02031
6958.91,0.01581
6953.13,0.02033
6947.34,0.01705
6941.55,0.01995
6935.77,0.01865
6929.98,0.02165
6924.2,0.02205
6918.41,0.01753
6912.62,0.01998
6906.84,0.01917
6901.05,0.02704
6895.26,0.01995
6889.48,0.01925
6883.69,0.02199
6877.91,0.01681
6872.12,0.02015
6866.33,0.01610
6860.55,0.01831
6854.76,0.02175
6848.97,0.02276
6843.19,0.01802
6837.4,0.02373
6831.62,0.02362
6825.83,0.01731
6820.04,0.02200
6814.26,0.01761
6808.47,0.02043
6802.68,0.01920
6796.9,0.02134
6791.11,0.01820
6785.33,0.02182
6779.54,0.02485
6773.75,0.02156
6767.97,0.01871
6762.18,0.01966
6756.39,0.02077
6750.61,0.02408
6744.82,0.02504
6739.04,0.02504
6733.25,0.02374
6727.46,0.02177
6721.68,0.02182
6715.89,0.01949
6710.1,0.01923
6704.32,0.01627
6698.53,0.01741
6692.75,0.02012
6686.96,0.02132
6681.17,0.02173
6675.39,0.01849
6669.6,0.01809
6663.82,0.02166
6658.03,0.02260
6652.24,0.02387
6646.46,0.02389
6640.67,0.02262
6634.88,0.01896
6629.1,0.01933
6623.31,0.01735
6617.53,0.02287
6611.74,0.01729
6605.95,0.01964
6600.17,0.02285
6594.38,0.01972
6588.59,0.01874
6582.81,0.02112
6577.02,0.02011
6571.24,0.01527
6565.45,0.01844
6559.66,0.02094
6553.88,0.02097
6548.09,0.02400
6542.3,0.02022
6536.52,0.02686
6530.73,0.02005
6524.95,0.02403
6519.16,0.01589
6513.37,0.01824
6507.59,0.02344
6501.8,0.02438
6496.01,0.01623
6490.23,0.02175
6484.44,0.02108
6478.66,0.01898
6472.87,0.02239
6467.08,0.01954
6461.3,0.02030
6455.51,0.01779
6449.72,0.01996
6443.94,0.01982
6438.15,0.01898
6432.37,0.01869
6426.58,0.02150
6420.79,0.01790
6415.01,0.01847
6409.22,0.02126
6403.43,0.01903
6397.65,0.01965
6391.86,0.02262
6386.08,0.01978
6380.29,0.01787
6374.5,0.01862
6368.72,0.01784
6362.93,0.02147
6357.14,0.01705
6351.36,0.02160
6345.57,0.01927
6339.79,0.01936
6334,0.01944
6328.21,0.01906
6322.43,0.01818
6316.64,0.01845
6310.85,0.02481
6305.07,0.01943
6299.28,0.01898
6293.5,0.01744
6287.71,0.01990
6281.92,0.01745
6276.14,0.01807
6270.35,0.01960
6264.56,0.01687
6258.78,0.02260
6252.99,0.02128
6247.21,0.01720
6241.42,0.01842
6235.63,0.02103
6229.85,0.02253
6224.06,0.01853
6218.27,0.01710
6212.49,0.01852
6206.7,0.01871
6200.92,0.01677
6195.13,0.01826
6189.34,0.01767
6183.56,0.01994
6177.77,0.02033
6171.98,0.01928
6166.2,0.01755
6160.41,0.01922
6154.63,0.01944
6148.84,0.01932
6143.05,0.01928
6137.27,0.01642
6131.48,0.01688
6125.7,0.02037
6119.91,0.01774
6114.12,0.01951
6108.34,0.01846
6102.55,0.01910
6096.76,0.02053
6090.98,0.01680
6085.19,0.01908
6079.41,0.01860
6073.62,0.01934
6067.83,0.02039
6062.05,0.01801
6056.26,0.01987
6050.47,0.02044
6044.69,0.02001
6038.9,0.01741
6033.12,0.01815
6027.33,0.01944
6021.54,0.01789
6015.76,0.01694
6009.97,0.01971
6004.18,0.02113
5998.4,0.02069
5992.61,0.01892
5986.83,0.01823
5981.04,0.01936
5975.25,0.01964
5969.47,0.01936
5963.68,0.01723
5957.89,0.01771
5952.11,0.01912
5946.32,0.01915
5940.54,0.02060
5934.75,0.01896
5928.96,0.01904
5923.18,0.01933
5917.39,0.01976
5911.6,0.02028
5905.82,0.02010
5900.03,0.01761
5894.25,0.01994
5888.46,0.01611
5882.67,0.01819
5876.89,0.01914
5871.1,0.01951
5865.31,0.01831
5859.53,0.01875
5853.74,0.02009
5847.96,0.02064
5842.17,0.01795
5836.38,0.01891
5830.6,0.02054
5824.81,0.01665
5819.02,0.01799
5813.24,0.02011
5807.45,0.01906
5801.67,0.01942
5795.88,0.01794
5790.09,0.02059
5784.31,0.01696
5778.52,0.01731
5772.73,0.01812
5766.95,0.02024
5761.16,0.01780
5755.38,0.01989
5749.59,0.01912
5743.8,0.01848
5738.02,0.01891
5732.23,0.02091
5726.44,0.02003
5720.66,0.01836
5714.87,0.01799
5709.09,0.01773
5703.3,0.01778
5697.51,0.01873
5691.73,0.01907
5685.94,0.01868
5680.15,0.01995
5674.37,0.01941
5668.58,0.02241
5662.8,0.01878
5657.01,0.01882
5651.22,0.01963
5645.44,0.01864
5639.65,0.01835
5633.87,0.01886
5628.08,0.02022
5622.29,0.01917
5616.51,0.01742
5610.72,0.02147
5604.93,0.01957
5599.15,0.02065
5593.36,0.01843
5587.58,0.01888
5581.79,0.01830
5576,0.01846
5570.22,0.01897
5564.43,0.01999
5558.64,0.02020
5552.86,0.01977
5547.07,0.01847
5541.29,0.01785
5535.5,0.01861
5529.71,0.01914
5523.93,0.01958
5518.14,0.01810
5512.35,0.01908
5506.57,0.01947
5500.78,0.01840
5495,0.01829
5489.21,0.01825
5483.42,0.01990
5477.64,0.02048
5471.85,0.01899
5466.06,0.01890
5460.28,0.02109
5454.49,0.01914
5448.71,0.01927
5442.92,0.01776
5437.13,0.01853
5431.35,0.01734
5425.56,0.01922
5419.77,0.01942
5413.99,0.01957
5408.2,0.01946
5402.42,0.01864
5396.63,0.01844
5390.84,0.01697
5385.06,0.01839
5379.27,0.01805
5373.48,0.01902
5367.7,0.01882
5361.91,0.01951
5356.13,0.01803
5350.34,0.01772
5344.55,0.01821
5338.77,0.01692
5332.98,0.01935
5327.19,0.01946
5321.41,0.01906
5315.62,0.02006
5309.84,0.01926
5304.05,0.01882
5298.26,0.01950
5292.48,0.01980
5286.69,0.01790
5280.9,0.02038
5275.12,0.01801
5269.33,0.01915
5263.55,0.01978
5257.76,0.01980
5251.97,0.01857
5246.19,0.01785
5240.4,0.02035
5234.61,0.02020
5228.83,0.02047
5223.04,0.01928
5217.26,0.01982
5211.47,0.01848
5205.68,0.01888
5199.9,0.01982
5194.11,0.02038
5188.32,0.01976
5182.54,0.01931
5176.75,0.02032
5170.97,0.02011
5165.18,0.01859
5159.39,0.01929
5153.61,0.01900
5147.82,0.01962
5142.03,0.01962
5136.25,0.02076
5130.46,0.01864
5124.68,0.01991
5118.89,0.01826
5113.1,0.01855
5107.32,0.01860
5101.53,0.01895
5095.75,0.01920
5089.96,0.01977
5084.17,0.01994
5078.39,0.01914
5072.6,0.01908
5066.81,0.01997
5061.03,0.01893
5055.24,0.01935
5049.46,0.02008
5043.67,0.01871
5037.88,0.01912
5032.1,0.01899
5026.31,0.01840
5020.52,0.01963
5014.74,0.01919
5008.95,0.01893
5003.17,0.02004
4997.38,0.01793
4991.59,0.01875
4985.81,0.01989
4980.02,0.01911
4974.23,0.01990
4968.45,0.01947
4962.66,0.01878
4956.88,0.01927
4951.09,0.01874
4945.3,0.01900
4939.52,0.01959
4933.73,0.01872
4927.94,0.01872
4922.16,0.01989
4916.37,0.01918
4910.59,0.01959
4904.8,0.02033
4899.01,0.01898
4893.23,0.01836
4887.44,0.01891
4881.65,0.01964
4875.87,0.01884
4870.08,0.01954
4864.3,0.01867
4858.51,0.02016
4852.72,0.01963
4846.94,0.01935
4841.15,0.01982
4835.36,0.01846
4829.58,0.02008
4823.79,0.02055
4818.01,0.01964
4812.22,0.01878
4806.43,0.01874
4800.65,0.02007
4794.86,0.01931
4789.07,0.01939
4783.29,0.02016
4777.5,0.01923
4771.72,0.01961
4765.93,0.01926
4760.14,0.01926
4754.36,0.01910
4748.57,0.01871
4742.78,0.01912
4737,0.01966
4731.21,0.01851
4725.43,0.01987
4719.64,0.01926
4713.85,0.01886
4708.07,0.01995
4702.28,0.01895
4696.49,0.01971
4690.71,0.01904
4684.92,0.01925
4679.14,0.01932
4673.35,0.01811
4667.56,0.01900
4661.78,0.01921
4655.99,0.01913
4650.2,0.02024
4644.42,0.01900
4638.63,0.01973
4632.85,0.01974
4627.06,0.01950
4621.27,0.01969
4615.49,0.02017
4609.7,0.01924
4603.92,0.01917
4598.13,0.01988
4592.34,0.01953
4586.56,0.01971
4580.77,0.01962
4574.98,0.01858
4569.2,0.01942
4563.41,0.01944
4557.63,0.02064
4551.84,0.01999
4546.05,0.01939
4540.27,0.01953
4534.48,0.02005
4528.69,0.01959
4522.91,0.01958
4517.12,0.01871
4511.34,0.01916
4505.55,0.01981
4499.76,0.01894
4493.98,0.01950
4488.19,0.01883
4482.4,0.01997
4476.62,0.01906
4470.83,0.01923
4465.05,0.01900
4459.26,0.01874
4453.47,0.01913
4447.69,0.01954
4441.9,0.01956
4436.11,0.02022
4430.33,0.01959
4424.54,0.01912
4418.76,0.02016
4412.97,0.01905
4407.18,0.01937
4401.4,0.01914
4395.61,0.01885
4389.82,0.01949
4384.04,0.01951
4378.25,0.01980
4372.47,0.01987
4366.68,0.01955
4360.89,0.01933
4355.11,0.01927
4349.32,0.02029
4343.53,0.01946
4337.75,0.01930
4331.96,0.01925
4326.18,0.01975
4320.39,0.01949
4314.6,0.02007
4308.82,0.01938
4303.03,0.01918
4297.24,0.01996
4291.46,0.01955
4285.67,0.01913
4279.89,0.02021
4274.1,0.02001
4268.31,0.01988
4262.53,0.01966
4256.74,0.01994
4250.95,0.01895
4245.17,0.01950
4239.38,0.02018
4233.6,0.01943
4227.81,0.01959
4222.02,0.01970
4216.24,0.01983
4210.45,0.02015
4204.66,0.01992
4198.88,0.01982
4193.09,0.01942
4187.31,0.01985
4181.52,0.01938
4175.73,0.01953
4169.95,0.01979
4164.16,0.01966
4158.37,0.01950
4152.59,0.02008
4146.8,0.01907
4141.02,0.01971
4135.23,0.01982
4129.44,0.01948
4123.66,0.01961
4117.87,0.01968
4112.09,0.01877
4106.3,0.01985
4100.51,0.01922
4094.73,0.01961
4088.94,0.01960
4083.15,0.01922
4077.37,0.01936
4071.58,0.01902
4065.8,0.01944
4060.01,0.01928
4054.22,0.01946
4048.44,0.02009
4042.65,0.01950
4036.86,0.01946
4031.08,0.01976
4025.29,0.01988
4019.51,0.01971
4013.72,0.01994
4007.93,0.01896
4002.15,0.01923
3996.36,0.01995
3990.57,0.01974
3984.79,0.01985
3979,0.01984
3973.22,0.02005
3967.43,0.01988
3961.64,0.01933
3955.86,0.02031
3950.07,0.01949
3944.28,0.01980
3938.5,0.01949
3932.71,0.01915
3926.93,0.01940
3921.14,0.01963
3915.35,0.01989
3909.57,0.01943
3903.78,0.02026
3897.99,0.01950
3892.21,0.01961
3886.42,0.01966
3880.64,0.02025
3874.85,0.01927
3869.06,0.01889
3863.28,0.01977
3857.49,0.01975
3851.7,0.01945
3845.92,0.01978
3840.13,0.01912
3834.35,0.01970
3828.56,0.01953
3822.77,0.02003
3816.99,0.02007
3811.2,0.01986
3805.41,0.01962
3799.63,0.01983
3793.84,0.01965
3788.06,0.01944
3782.27,0.01958
3776.48,0.01977
3770.7,0.02011
3764.91,0.01949
3759.12,0.01979
3753.34,0.02014
3747.55,0.01929
3741.77,0.01921
3735.98,0.01992
3730.19,0.01968
3724.41,0.01942
3718.62,0.01916
3712.83,0.01930
3707.05,0.01940
3701.26,0.01885
3695.48,0.01939
3689.69,0.01906
3683.9,0.01910
3678.12,0.01920
3672.33,0.01889
3666.54,0.01894
3660.76,0.01904
3654.97,0.01878
3649.19,0.01918
3643.4,0.01852
3637.61,0.01930
3631.83,0.01966
3626.04,0.01960
3620.25,0.01917
3614.47,0.01885
3608.68,0.01883
3602.9,0.01889
3597.11,0.01831
3591.32,0.01862
3585.54,0.01856
3579.75,0.01806
3573.97,0.01872
3568.18,0.01826
3562.39,0.01916
3556.61,0.01863
3550.82,0.01860
3545.03,0.01893
3539.25,0.01806
3533.46,0.01844
3527.68,0.01872
3521.89,0.01853
3516.1,0.01844
3510.32,0.01783
3504.53,0.01857
3498.74,0.01770
3492.96,0.01792
3487.17,0.01855
3481.39,0.01765
3475.6,0.01820
3469.81,0.01724
3464.03,0.01795
3458.24,0.01776
3452.45,0.01744
3446.67,0.01804
3440.88,0.01751
3435.1,0.01743
3429.31,0.01721
3423.52,0.01806
3417.74,0.01806
3411.95,0.01794
3406.16,0.01735
3400.38,0.01791
3394.59,0.01751
3388.81,0.01734
3383.02,0.01762
3377.23,0.01771
3371.45,0.01821
3365.66,0.01747
3359.87,0.01755
3354.09,0.01746
3348.3,0.01727
3342.52,0.01769
3336.73,0.01687
3330.94,0.01782
3325.16,0.01709
3319.37,0.01690
3313.58,0.01789
3307.8,0.01736
3302.01,0.01762
3296.23,0.01777
3290.44,0.01696
3284.65,0.01723
3278.87,0.01709
3273.08,0.01768
3267.29,0.01720
3261.51,0.01723
3255.72,0.01790
3249.94,0.01772
3244.15,0.01787
3238.36,0.01696
3232.58,0.01732
3226.79,0.01742
3221,0.01692
3215.22,0.01809
3209.43,0.01736
3203.65,0.01737
3197.86,0.01756
3192.07,0.01756
3186.29,0.01721
3180.5,0.01786
3174.71,0.01747
3168.93,0.01736
3163.14,0.01750
3157.36,0.01748
3151.57,0.01829
3145.78,0.01802
3140,0.01815
3134.21,0.01719
3128.42,0.01817
3122.64,0.01718
3116.85,0.01832
3111.07,0.01767
3105.28,0.01721
3099.49,0.01767
3093.71,0.01777
3087.92,0.01781
3082.14,0.01723
3076.35,0.01747
3070.56,0.01802
3064.78,0.01733
3058.99,0.01793
3053.2,0.01773
3047.42,0.01805
3041.63,0.01747
3035.85,0.01749
3030.06,0.01802
3024.27,0.01749
3018.49,0.01767
3012.7,0.01796
3006.91,0.01729
3001.13,0.01726
2995.34,0.01748
2989.56,0.01703
2983.77,0.01738
2977.98,0.01703
2972.2,0.01692
2966.41,0.01702
2960.62,0.01668
2954.84,0.01620
2949.05,0.01683
2943.27,0.01729
2937.48,0.01701
2931.69,0.01708
2925.91,0.01672
2920.12,0.01690
2914.33,0.01739
2908.55,0.01749
2902.76,0.01733
2896.98,0.01707
2891.19,0.01776
2885.4,0.01751
2879.62,0.01772
2873.83,0.01781
2868.04,0.01723
2862.26,0.01735
2856.47,0.01775
2850.69,0.01769
2844.9,0.01809
2839.11,0.01827
2833.33,0.01869
2827.54,0.01854
2821.75,0.01836
2815.97,0.01823
2810.18,0.01827
2804.4,0.01865
2798.61,0.01806
2792.82,0.01841
2787.04,0.01825
2781.25,0.01839
2775.46,0.01819
2769.68,0.01856
2763.89,0.01814
2758.11,0.01816
2752.32,0.01822
2746.53,0.01810
2740.75,0.01865
2734.96,0.01870
2729.17,0.01842
2723.39,0.01846
2717.6,0.01787
2711.82,0.01823
2706.03,0.01823
2700.24,0.01822
2694.46,0.01806
2688.67,0.01849
2682.88,0.01818
2677.1,0.01886
2671.31,0.01865
2665.53,0.01854
2659.74,0.01800
2653.95,0.01818
2648.17,0.01801
2642.38,0.01859
2636.59,0.01867
2630.81,0.01807
2625.02,0.01791
2619.24,0.01857
2613.45,0.01854
2607.66,0.01827
2601.88,0.01852
2596.09,0.01820
2590.3,0.01819
2584.52,0.01831
2578.73,0.01819
2572.95,0.01832
2567.16,0.01818
2561.37,0.01825
2555.59,0.01823
2549.8,0.01845
2544.02,0.01783
2538.23,0.01776
2532.44,0.01817
2526.66,0.01822
2520.87,0.01804
2515.08,0.01793
2509.3,0.01809
2503.51,0.01816
2497.73,0.01819
2491.94,0.01816
2486.15,0.01802
2480.37,0.01819
2474.58,0.01825
2468.79,0.01835
2463.01,0.01814
2457.22,0.01846
2451.44,0.01849
2445.65,0.01825
2439.86,0.01814
2434.08,0.01773
2428.29,0.01840
2422.5,0.01839
2416.72,0.01802
2410.93,0.01810
2405.15,0.01800
2399.36,0.01834
2393.57,0.01800
2387.79,0.01823
2382,0.01832
2376.21,0.01800
2370.43,0.01883
2364.64,0.01831
2358.86,0.01812
2353.07,0.01838
2347.28,0.01808
2341.5,0.01802
2335.71,0.01823
2329.92,0.01818
2324.14,0.01798
2318.35,0.01810
2312.57,0.01805
2306.78,0.01850
2300.99,0.01835
2295.21,0.01831
2289.42,0.01823
2283.63,0.01815
2277.85,0.01776
2272.06,0.01808
2266.28,0.01804
2260.49,0.01802
2254.7,0.01819
2248.92,0.01830
2243.13,0.01806
2237.34,0.01786
2231.56,0.01821
2225.77,0.01824
2219.99,0.01834
2214.2,0.01821
2208.41,0.01826
2202.63,0.01798
2196.84,0.01819
2191.05,0.01800
2185.27,0.01851
2179.48,0.01795
2173.7,0.01779
2167.91,0.01831
2162.12,0.01840
2156.34,0.01825
2150.55,0.01820
2144.76,0.01802
2138.98,0.01867
2133.19,0.01811
2127.41,0.01798
2121.62,0.01805
2115.83,0.01785
2110.05,0.01830
2104.26,0.01795
2098.47,0.01811
2092.69,0.01794
2086.9,0.01787
2081.12,0.01781
2075.33,0.01832
2069.54,0.01837
2063.76,0.01839
2057.97,0.01816
2052.19,0.01805
2046.4,0.01789
2040.61,0.01798
2034.83,0.01803
2029.04,0.01794
2023.25,0.01789
2017.47,0.01785
2011.68,0.01795
2005.9,0.01786
2000.11,0.01787
1994.32,0.01798
1988.54,0.01778
1982.75,0.01750
1976.96,0.01796
1971.18,0.01784
1965.39,0.01823
1959.61,0.01809
1953.82,0.01792
1948.03,0.01802
1942.25,0.01787
1936.46,0.01792
1930.67,0.01805
1924.89,0.01807
1919.1,0.01799
1913.32,0.01764
1907.53,0.01770
1901.74,0.01794
1895.96,0.01774
1890.17,0.01788
1884.38,0.01790
1878.6,0.01760
1872.81,0.01726
1867.03,0.01729
1861.24,0.01733
1855.45,0.01746
1849.67,0.01731
1843.88,0.01731
1838.09,0.01737
1832.31,0.01738
1826.52,0.01733
1820.74,0.01708
1814.95,0.01706
1809.16,0.01689
1803.38,0.01683
1797.59,0.01650
1791.8,0.01667
1786.02,0.01642
1780.23,0.01625
1774.45,0.01624
1768.66,0.01604
1762.87,0.01550
1757.09,0.01479
1751.3,0.01494
1745.51,0.01498
1739.73,0.01549
1733.94,0.01698
1728.16,0.01787
1722.37,0.01840
1716.58,0.01818
1710.8,0.01769
1705.01,0.01732
1699.22,0.01693
1693.44,0.01646
1687.65,0.01592
1681.87,0.01604
1676.08,0.01631
1670.29,0.01593
1664.51,0.01543
1658.72,0.01606
1652.93,0.01589
1647.15,0.01575
1641.36,0.01583
1635.58,0.01585
1629.79,0.01575
1624,0.01644
1618.22,0.01614
1612.43,0.01630
1606.64,0.01606
1600.86,0.01566
1595.07,0.01645
1589.29,0.01609
1583.5,0.01617
1577.71,0.01589
1571.93,0.01552
1566.14,0.01523
1560.35,0.01557
1554.57,0.01551
1548.78,0.01620
1543,0.01596
1537.21,0.01565
1531.42,0.01584
1525.64,0.01573
1519.85,0.01579
1514.07,0.01573
1508.28,0.01598
1502.49,0.01546
1496.71,0.01599
1490.92,0.01588
1485.13,0.01559
1479.35,0.01583
1473.56,0.01592
1467.78,0.01550
1461.99,0.01545
1456.2,0.01558
1450.42,0.01577
1444.63,0.01579
1438.84,0.01579
1433.06,0.01585
1427.27,0.01566
1421.49,0.01556
1415.7,0.01563
1409.91,0.01532
1404.13,0.01516
1398.34,0.01558
1392.55,0.01529
1386.77,0.01523
1380.98,0.01524
1375.2,0.01550
1369.41,0.01541
1363.62,0.01543
1357.84,0.01499
1352.05,0.01554
1346.26,0.01527
1340.48,0.01484
1334.69,0.01490
1328.91,0.01496
1323.12,0.01447
1317.33,0.01441
1311.55,0.01399
1305.76,0.01437
1299.97,0.01486
1294.19,0.01522
1288.4,0.01538
1282.62,0.01608
1276.83,0.01607
1271.04,0.01669
1265.26,0.01697
1259.47,0.01744
1253.68,0.01789
1247.9,0.01722
1242.11,0.01719
1236.33,0.01695
1230.54,0.01691
1224.75,0.01633
1218.97,0.01630
1213.18,0.01626
1207.39,0.01637
1201.61,0.01621
1195.82,0.01573
1190.04,0.01560
1184.25,0.01529
1178.46,0.01523
1172.68,0.01486
1166.89,0.01521
1161.1,0.01460
1155.32,0.01501
1149.53,0.01487
1143.75,0.01491
1137.96,0.01486
1132.17,0.01471
1126.39,0.01532
1120.6,0.01605
1114.81,0.01607
1109.03,0.01597
1103.24,0.01594
1097.46,0.01540
1091.67,0.01513
1085.88,0.01461
1080.1,0.01563
1074.31,0.01597
1068.52,0.01709
1062.74,0.01754
1056.95,0.01752
1051.17,0.01739
1045.38,0.01720
1039.59,0.01682
1033.81,0.01652
1028.02,0.01679
1022.24,0.01608
1016.45,0.01642
1010.66,0.01695
1004.88,0.01857
999.09,0.01829
993.304,0.01870
987.518,0.01817
981.731,0.01815
975.945,0.01800
970.159,0.01795
964.373,0.01755
958.586,0.01693
952.8,0.01688
947.014,0.01698
941.228,0.01711
935.441,0.01669
929.655,0.01634
923.869,0.01635
918.083,0.01616
912.297,0.01570
906.51,0.01608
900.724,0.01599
894.938,0.01632
889.152,0.01535
883.365,0.01618
877.579,0.01615
871.793,0.01637
866.007,0.01580
860.22,0.01597
854.434,0.01654
848.648,0.01544
842.862,0.01515
837.075,0.01573
831.289,0.01596
825.503,0.01624
819.717,0.01616
813.931,0.01581
808.144,0.01642
802.358,0.01544
796.572,0.01587
790.786,0.01537
784.999,0.01636
779.213,0.01549
773.427,0.01552
767.641,0.01481
761.854,0.01454
756.068,0.01462
750.282,0.01486
744.496,0.01444
738.709,0.01522
732.923,0.01608
727.137,0.01500
721.351,0.01521
715.565,0.01539
709.778,0.01422
703.992,0.01538
698.206,0.01524
692.42,0.01492
686.633,0.01458
680.847,0.01437
675.061,0.01421
669.275,0.01374
663.488,0.01475
657.702,0.01461
651.916,0.01478
646.13,0.01316
640.343,0.01278
634.557,0.01479
628.771,0.01425
622.985,0.01395
617.198,0.01378
611.412,0.01440
605.626,0.01085
599.84,0.01214