File: 01_Data/PVC/FTIR/IS/PVC_IS_S_220818_R7.dpt
7497.03,0.10336
7491.25,0.11926
7485.46,0.11327
7479.67,0.10166
7473.89,0.11143
7468.1,0.11333
7462.32,0.11182
7456.53,0.10510
7450.74,0.11659
7444.96,0.11206
7439.17,0.11458
7433.38,0.10977
7427.6,0.09929
7421.81,0.10579
7416.03,0.11247
7410.24,0.10502
7404.45,0.11022
7398.67,0.10825
7392.88,0.10747
7387.09,0.10713
7381.31,0.10603
7375.52,0.11380
7369.74,0.11685
7363.95,0.10718
7358.16,0.10781
7352.38,0.10686
7346.59,0.10399
7340.8,0.10862
7335.02,0.11104
7329.23,0.11172
7323.45,0.10799
7317.66,0.10923
7311.87,0.10853
7306.09,0.10461
7300.3,0.10099
7294.51,0.10402
7288.73,0.11210
7282.94,0.10730
7277.16,0.10591
7271.37,0.10429
7265.58,0.10810
7259.8,0.11216
7254.01,0.11054
7248.22,0.09887
7242.44,0.10541
7236.65,0.11359
7230.87,0.10751
7225.08,0.10169
7219.29,0.10707
7213.51,0.10524
7207.72,0.11166
7201.93,0.10474
7196.15,0.11185
7190.36,0.10799
7184.58,0.10766
7178.79,0.10071
7173,0.10316
7167.22,0.10442
7161.43,0.10547
7155.65,0.11036
7149.86,0.10835
7144.07,0.10941
7138.29,0.10473
7132.5,0.10858
7126.71,0.10245
7120.93,0.10226
7115.14,0.11152
7109.36,0.10148
7103.57,0.10973
7097.78,0.10975
7092,0.10484
7086.21,0.10735
7080.42,0.10402
7074.64,0.10493
7068.85,0.10403
7063.07,0.10717
7057.28,0.10599
7051.49,0.10193
7045.71,0.10218
7039.92,0.09976
7034.13,0.10509
7028.35,0.10225
7022.56,0.10046
7016.78,0.10184
7010.99,0.10571
7005.2,0.10791
6999.42,0.10427
6993.63,0.10698
6987.84,0.10613
6982.06,0.10136
6976.27,0.10166
6970.49,0.10185
6964.7,0.10289
6958.91,0.10318
6953.13,0.10597
6947.34,0.10488
6941.55,0.10664
6935.77,0.10012
6929.98,0.10643
6924.2,0.10303
6918.41,0.10575
6912.62,0.10277
6906.84,0.09785
6901.05,0.10648
6895.26,0.10174
6889.48,0.10232
6883.69,0.09863
6877.91,0.10112
6872.12,0.10544
6866.33,0.10387
6860.55,0.10806
6854.76,0.10140
6848.97,0.10502
6843.19,0.10464
6837.4,0.10257
6831.62,0.10313
6825.83,0.10418
6820.04,0.10230
6814.26,0.10637
6808.47,0.10769
6802.68,0.10753
6796.9,0.10173
6791.11,0.10325
6785.33,0.10525
6779.54,0.10469
6773.75,0.10084
6767.97,0.10323
6762.18,0.10180
6756.39,0.10449
6750.61,0.10237
6744.82,0.10238
6739.04,0.09858
6733.25,0.10753
6727.46,0.09969
6721.68,0.09781
6715.89,0.10411
6710.1,0.10445
6704.32,0.10347
6698.53,0.10559
6692.75,0.10477
6686.96,0.10136
6681.17,0.10163
6675.39,0.10461
6669.6,0.10499
6663.82,0.10099
6658.03,0.10369
6652.24,0.09783
6646.46,0.10262
6640.67,0.10284
6634.88,0.10555
6629.1,0.10271
6623.31,0.10148
6617.53,0.10238
6611.74,0.10057
6605.95,0.09925
6600.17,0.09902
6594.38,0.10006
6588.59,0.10144
6582.81,0.09772
6577.02,0.10085
6571.24,0.10342
6565.45,0.10382
6559.66,0.10089
6553.88,0.10108
6548.09,0.10187
6542.3,0.09713
6536.52,0.10084
6530.73,0.09891
6524.95,0.09909
6519.16,0.10307
6513.37,0.09984
6507.59,0.10042
6501.8,0.10325
6496.01,0.10172
6490.23,0.09818
6484.44,0.10216
6478.66,0.10088
6472.87,0.10185
6467.08,0.10312
6461.3,0.09813
6455.51,0.09798
6449.72,0.09921
6443.94,0.10108
6438.15,0.09865
6432.37,0.10364
6426.58,0.10131
6420.79,0.10169
6415.01,0.09921
6409.22,0.09823
6403.43,0.09793
6397.65,0.09830
6391.86,0.09626
6386.08,0.09726
6380.29,0.09983
6374.5,0.09924
6368.72,0.09900
6362.93,0.09712
6357.14,0.09843
6351.36,0.09841
6345.57,0.09678
6339.79,0.10051
6334,0.10076
6328.21,0.10062
6322.43,0.09822
6316.64,0.09600
6310.85,0.10257
6305.07,0.09691
6299.28,0.09772
6293.5,0.09825
6287.71,0.10237
6281.92,0.09913
6276.14,0.09533
6270.35,0.09611
6264.56,0.09859
6258.78,0.09621
6252.99,0.09754
6247.21,0.09724
6241.42,0.09926
6235.63,0.09873
6229.85,0.09628
6224.06,0.09552
6218.27,0.09541
6212.49,0.09759
6206.7,0.09770
6200.92,0.09701
6195.13,0.09888
6189.34,0.09817
6183.56,0.09564
6177.77,0.09687
6171.98,0.09423
6166.2,0.09623
6160.41,0.09635
6154.63,0.09637
6148.84,0.09818
6143.05,0.09479
6137.27,0.09675
6131.48,0.09784
6125.7,0.09568
6119.91,0.09630
6114.12,0.09385
6108.34,0.09494
6102.55,0.09342
6096.76,0.09201
6090.98,0.09408
6085.19,0.09558
6079.41,0.09501
6073.62,0.09358
6067.83,0.09330
6062.05,0.09406
6056.26,0.09483
6050.47,0.09287
6044.69,0.09242
6038.9,0.09328
6033.12,0.09582
6027.33,0.09507
6021.54,0.09270
6015.76,0.09405
6009.97,0.09474
6004.18,0.09422
5998.4,0.09174
5992.61,0.09216
5986.83,0.09464
5981.04,0.09442
5975.25,0.09294
5969.47,0.09271
5963.68,0.09151
5957.89,0.09093
5952.11,0.09191
5946.32,0.08981
5940.54,0.09048
5934.75,0.09016
5928.96,0.09165
5923.18,0.09175
5917.39,0.08796
5911.6,0.08860
5905.82,0.08824
5900.03,0.08845
5894.25,0.08380
5888.46,0.08379
5882.67,0.08319
5876.89,0.08235
5871.1,0.08228
5865.31,0.08177
5859.53,0.07984
5853.74,0.07677
5847.96,0.07734
5842.17,0.07396
5836.38,0.07336
5830.6,0.07266
5824.81,0.07352
5819.02,0.07374
5813.24,0.07449
5807.45,0.07640
5801.67,0.07637
5795.88,0.07687
5790.09,0.07971
5784.31,0.08051
5778.52,0.07989
5772.73,0.07999
5766.95,0.08138
5761.16,0.08032
5755.38,0.08089
5749.59,0.08110
5743.8,0.07969
5738.02,0.07708
5732.23,0.07780
5726.44,0.07784
5720.66,0.07931
5714.87,0.07905
5709.09,0.07750
5703.3,0.07802
5697.51,0.07944
5691.73,0.08017
5685.94,0.07919
5680.15,0.07940
5674.37,0.08110
5668.58,0.08084
5662.8,0.08031
5657.01,0.08190
5651.22,0.08006
5645.44,0.08183
5639.65,0.08294
5633.87,0.08173
5628.08,0.08249
5622.29,0.08177
5616.51,0.08271
5610.72,0.08202
5604.93,0.08266
5599.15,0.08148
5593.36,0.08326
5587.58,0.08259
5581.79,0.08230
5576,0.08270
5570.22,0.08225
5564.43,0.08284
5558.64,0.08399
5552.86,0.08448
5547.07,0.08196
5541.29,0.08286
5535.5,0.08428
5529.71,0.08490
5523.93,0.08210
5518.14,0.08246
5512.35,0.08364
5506.57,0.08466
5500.78,0.08402
5495,0.08416
5489.21,0.08218
5483.42,0.08414
5477.64,0.08228
5471.85,0.08223
5466.06,0.08200
5460.28,0.08232
5454.49,0.08193
5448.71,0.08090
5442.92,0.08354
5437.13,0.08191
5431.35,0.08312
5425.56,0.08367
5419.77,0.08286
5413.99,0.08364
5408.2,0.08351
5402.42,0.08313
5396.63,0.08249
5390.84,0.08415
5385.06,0.08307
5379.27,0.08434
5373.48,0.08373
5367.7,0.08393
5361.91,0.08311
5356.13,0.08232
5350.34,0.08336
5344.55,0.08360
5338.77,0.08345
5332.98,0.08543
5327.19,0.08303
5321.41,0.08404
5315.62,0.08369
5309.84,0.08300
5304.05,0.08332
5298.26,0.08372
5292.48,0.08435
5286.69,0.08392
5280.9,0.08332
5275.12,0.08295
5269.33,0.08252
5263.55,0.08195
5257.76,0.08300
5251.97,0.08345
5246.19,0.08274
5240.4,0.08321
5234.61,0.08425
5228.83,0.08269
5223.04,0.08261
5217.26,0.08286
5211.47,0.08344
5205.68,0.08340
5199.9,0.08177
5194.11,0.08344
5188.32,0.08267
5182.54,0.08319
5176.75,0.08345
5170.97,0.08242
5165.18,0.08335
5159.39,0.08308
5153.61,0.08357
5147.82,0.08328
5142.03,0.08223
5136.25,0.08233
5130.46,0.08163
5124.68,0.08221
5118.89,0.08236
5113.1,0.08253
5107.32,0.08191
5101.53,0.08263
5095.75,0.08110
5089.96,0.08258
5084.17,0.08289
5078.39,0.08143
5072.6,0.08261
5066.81,0.08104
5061.03,0.08331
5055.24,0.08157
5049.46,0.08231
5043.67,0.08231
5037.88,0.08219
5032.1,0.08125
5026.31,0.08183
5020.52,0.08223
5014.74,0.08162
5008.95,0.08233
5003.17,0.08194
4997.38,0.08185
4991.59,0.08180
4985.81,0.08149
4980.02,0.08097
4974.23,0.08140
4968.45,0.08031
4962.66,0.08072
4956.88,0.08137
4951.09,0.08220
4945.3,0.08150
4939.52,0.08157
4933.73,0.07978
4927.94,0.08036
4922.16,0.08063
4916.37,0.08144
4910.59,0.08174
4904.8,0.08100
4899.01,0.08137
4893.23,0.08120
4887.44,0.08093
4881.65,0.08090
4875.87,0.08045
4870.08,0.08023
4864.3,0.08070
4858.51,0.08053
4852.72,0.07995
4846.94,0.08030
4841.15,0.07961
4835.36,0.07931
4829.58,0.08053
4823.79,0.08125
4818.01,0.08010
4812.22,0.07987
4806.43,0.07992
4800.65,0.08050
4794.86,0.08020
4789.07,0.08024
4783.29,0.07952
4777.5,0.07924
4771.72,0.08044
4765.93,0.08025
4760.14,0.07985
4754.36,0.07941
4748.57,0.07971
4742.78,0.07930
4737,0.07912
4731.21,0.07974
4725.43,0.08008
4719.64,0.07933
4713.85,0.07987
4708.07,0.07925
4702.28,0.07890
4696.49,0.07850
4690.71,0.07826
4684.92,0.07917
4679.14,0.07904
4673.35,0.07879
4667.56,0.07814
4661.78,0.07761
4655.99,0.07868
4650.2,0.07849
4644.42,0.07857
4638.63,0.07809
4632.85,0.07823
4627.06,0.07819
4621.27,0.07842
4615.49,0.07795
4609.7,0.07803
4603.92,0.07797
4598.13,0.07858
4592.34,0.07809
4586.56,0.07856
4580.77,0.07815
4574.98,0.07831
4569.2,0.07672
4563.41,0.07754
4557.63,0.07688
4551.84,0.07776
4546.05,0.07695
4540.27,0.07757
4534.48,0.07598
4528.69,0.07677
4522.91,0.07735
4517.12,0.07683
4511.34,0.07575
4505.55,0.07599
4499.76,0.07607
4493.98,0.07575
4488.19,0.07496
4482.4,0.07430
4476.62,0.07462
4470.83,0.07331
4465.05,0.07317
4459.26,0.07265
4453.47,0.07262
4447.69,0.07249
4441.9,0.07199
4436.11,0.07036
4430.33,0.06963
4424.54,0.06967
4418.76,0.06875
4412.97,0.06803
4407.18,0.06778
4401.4,0.06743
4395.61,0.06615
4389.82,0.06512
4384.04,0.06477
4378.25,0.06394
4372.47,0.06301
4366.68,0.06187
4360.89,0.06113
4355.11,0.06034
4349.32,0.06042
4343.53,0.06024
4337.75,0.05967
4331.96,0.06037
4326.18,0.05924
4320.39,0.05960
4314.6,0.06071
4308.82,0.06097
4303.03,0.06130
4297.24,0.06160
4291.46,0.06090
4285.67,0.06097
4279.89,0.06159
4274.1,0.06148
4268.31,0.06226
4262.53,0.06140
4256.74,0.06148
4250.95,0.06140
4245.17,0.06131
4239.38,0.06164
4233.6,0.06080
4227.81,0.06055
4222.02,0.06094
4216.24,0.06046
4210.45,0.06046
4204.66,0.06133
4198.88,0.06144
4193.09,0.06125
4187.31,0.06102
4181.52,0.06096
4175.73,0.06067
4169.95,0.06121
4164.16,0.06138
4158.37,0.06146
4152.59,0.06131
4146.8,0.06130
4141.02,0.06209
4135.23,0.06225
4129.44,0.06181
4123.66,0.06300
4117.87,0.06259
4112.09,0.06241
4106.3,0.06257
4100.51,0.06261
4094.73,0.06341
4088.94,0.06276
4083.15,0.06254
4077.37,0.06237
4071.58,0.06228
4065.8,0.06220
4060.01,0.06259
4054.22,0.06242
4048.44,0.06350
4042.65,0.06305
4036.86,0.06314
4031.08,0.06296
4025.29,0.06283
4019.51,0.06340
4013.72,0.06324
4007.93,0.06325
4002.15,0.06311
3996.36,0.06324
3990.57,0.06339
3984.79,0.06390
3979,0.06363
3973.22,0.06440
3967.43,0.06426
3961.64,0.06425
3955.86,0.06420
3950.07,0.06427
3944.28,0.06456
3938.5,0.06442
3932.71,0.06418
3926.93,0.06425
3921.14,0.06425
3915.35,0.06442
3909.57,0.06423
3903.78,0.06399
3897.99,0.06377
3892.21,0.06354
3886.42,0.06429
3880.64,0.06387
3874.85,0.06413
3869.06,0.06398
3863.28,0.06389
3857.49,0.06369
3851.7,0.06366
3845.92,0.06385
3840.13,0.06433
3834.35,0.06364
3828.56,0.06349
3822.77,0.06423
3816.99,0.06437
3811.2,0.06439
3805.41,0.06413
3799.63,0.06371
3793.84,0.06393
3788.06,0.06467
3782.27,0.06429
3776.48,0.06489
3770.7,0.06425
3764.91,0.06397
3759.12,0.06495
3753.34,0.06446
3747.55,0.06474
3741.77,0.06462
3735.98,0.06481
3730.19,0.06550
3724.41,0.06523
3718.62,0.06498
3712.83,0.06518
3707.05,0.06433
3701.26,0.06392
3695.48,0.06344
3689.69,0.06257
3683.9,0.06189
3678.12,0.06127
3672.33,0.06120
3666.54,0.06160
3660.76,0.06165
3654.97,0.06180
3649.19,0.06164
3643.4,0.06136
3637.61,0.06230
3631.83,0.06146
3626.04,0.06099
3620.25,0.06128
3614.47,0.06040
3608.68,0.06069
3602.9,0.06077
3597.11,0.06008
3591.32,0.06052
3585.54,0.06054
3579.75,0.06024
3573.97,0.05982
3568.18,0.06024
3562.39,0.06009
3556.61,0.05949
3550.82,0.05981
3545.03,0.05971
3539.25,0.05955
3533.46,0.05954
3527.68,0.05974
3521.89,0.05943
3516.1,0.05941
3510.32,0.05928
3504.53,0.05977
3498.74,0.05951
3492.96,0.05994
3487.17,0.05954
3481.39,0.05946
3475.6,0.05931
3469.81,0.05884
3464.03,0.05912
3458.24,0.05831
3452.45,0.05798
3446.67,0.05850
3440.88,0.05837
3435.1,0.05829
3429.31,0.05876
3423.52,0.05885
3417.74,0.05901
3411.95,0.05808
3406.16,0.05904
3400.38,0.05816
3394.59,0.05881
3388.81,0.05971
3383.02,0.05894
3377.23,0.05879
3371.45,0.05875
3365.66,0.05800
3359.87,0.05819
3354.09,0.05857
3348.3,0.05892
3342.52,0.05854
3336.73,0.05754
3330.94,0.05823
3325.16,0.05786
3319.37,0.05800
3313.58,0.05712
3307.8,0.05777
3302.01,0.05816
3296.23,0.05821
3290.44,0.05783
3284.65,0.05846
3278.87,0.05900
3273.08,0.05875
3267.29,0.05814
3261.51,0.05818
3255.72,0.05920
3249.94,0.05965
3244.15,0.05807
3238.36,0.05772
3232.58,0.05772
3226.79,0.05750
3221,0.05814
3215.22,0.05844
3209.43,0.05821
3203.65,0.05821
3197.86,0.05838
3192.07,0.05765
3186.29,0.05805
3180.5,0.05853
3174.71,0.05792
3168.93,0.05787
3163.14,0.05775
3157.36,0.05878
3151.57,0.05816
3145.78,0.05802
3140,0.05740
3134.21,0.05871
3128.42,0.05806
3122.64,0.05804
3116.85,0.05777
3111.07,0.05757
3105.28,0.05772
3099.49,0.05788
3093.71,0.05843
3087.92,0.05707
3082.14,0.05721
3076.35,0.05660
3070.56,0.05670
3064.78,0.05675
3058.99,0.05664
3053.2,0.05651
3047.42,0.05621
3041.63,0.05594
3035.85,0.05590
3030.06,0.05568
3024.27,0.05548
3018.49,0.05539
3012.7,0.05530
3006.91,0.05528
3001.13,0.05476
2995.34,0.05468
2989.56,0.05434
2983.77,0.05375
2977.98,0.05386
2972.2,0.05375
2966.41,0.05391
2960.62,0.05434
2954.84,0.05436
2949.05,0.05428
2943.27,0.05403
2937.48,0.05436
2931.69,0.05528
2925.91,0.05527
2920.12,0.05617
2914.33,0.05671
2908.55,0.05680
2902.76,0.05698
2896.98,0.05707
2891.19,0.05695
2885.4,0.05679
2879.62,0.05648
2873.83,0.05628
2868.04,0.05617
2862.26,0.05651
2856.47,0.05656
2850.69,0.05670
2844.9,0.05701
2839.11,0.05652
2833.33,0.05689
2827.54,0.05671
2821.75,0.05675
2815.97,0.05659
2810.18,0.05665
2804.4,0.05660
2798.61,0.05674
2792.82,0.05661
2787.04,0.05641
2781.25,0.05657
2775.46,0.05710
2769.68,0.05705
2763.89,0.05670
2758.11,0.05691
2752.32,0.05659
2746.53,0.05643
2740.75,0.05634
2734.96,0.05655
2729.17,0.05656
2723.39,0.05652
2717.6,0.05685
2711.82,0.05678
2706.03,0.05671
2700.24,0.05657
2694.46,0.05661
2688.67,0.05678
2682.88,0.05648
2677.1,0.05655
2671.31,0.05635
2665.53,0.05645
2659.74,0.05638
2653.95,0.05662
2648.17,0.05637
2642.38,0.05636
2636.59,0.05645
2630.81,0.05633
2625.02,0.05618
2619.24,0.05634
2613.45,0.05617
2607.66,0.05629
2601.88,0.05594
2596.09,0.05629
2590.3,0.05591
2584.52,0.05627
2578.73,0.05599
2572.95,0.05606
2567.16,0.05620
2561.37,0.05593
2555.59,0.05612
2549.8,0.05591
2544.02,0.05591
2538.23,0.05600
2532.44,0.05580
2526.66,0.05563
2520.87,0.05590
2515.08,0.05588
2509.3,0.05583
2503.51,0.05565
2497.73,0.05600
2491.94,0.05597
2486.15,0.05606
2480.37,0.05580
2474.58,0.05595
2468.79,0.05592
2463.01,0.05649
2457.22,0.05608
2451.44,0.05591
2445.65,0.05633
2439.86,0.05608
2434.08,0.05623
2428.29,0.05620
2422.5,0.05600
2416.72,0.05593
2410.93,0.05596
2405.15,0.05614
2399.36,0.05614
2393.57,0.05602
2387.79,0.05621
2382,0.05609
2376.21,0.05590
2370.43,0.05596
2364.64,0.05612
2358.86,0.05597
2353.07,0.05603
2347.28,0.05590
2341.5,0.05587
2335.71,0.05609
2329.92,0.05608
2324.14,0.05625
2318.35,0.05598
2312.57,0.05582
2306.78,0.05590
2300.99,0.05572
2295.21,0.05564
2289.42,0.05567
2283.63,0.05558
2277.85,0.05567
2272.06,0.05597
2266.28,0.05573
2260.49,0.05609
2254.7,0.05596
2248.92,0.05574
2243.13,0.05588
2237.34,0.05614
2231.56,0.05617
2225.77,0.05604
2219.99,0.05598
2214.2,0.05586
2208.41,0.05622
2202.63,0.05652
2196.84,0.05607
2191.05,0.05611
2185.27,0.05600
2179.48,0.05653
2173.7,0.05636
2167.91,0.05638
2162.12,0.05628
2156.34,0.05646
2150.55,0.05662
2144.76,0.05637
2138.98,0.05637
2133.19,0.05638
2127.41,0.05667
2121.62,0.05664
2115.83,0.05691
2110.05,0.05634
2104.26,0.05644
2098.47,0.05710
2092.69,0.05713
2086.9,0.05661
2081.12,0.05690
2075.33,0.05675
2069.54,0.05670
2063.76,0.05694
2057.97,0.05685
2052.19,0.05685
2046.4,0.05678
2040.61,0.05673
2034.83,0.05670
2029.04,0.05695
2023.25,0.05712
2017.47,0.05697
2011.68,0.05726
2005.9,0.05711
2000.11,0.05744
1994.32,0.05727
1988.54,0.05747
1982.75,0.05776
1976.96,0.05749
1971.18,0.05807
1965.39,0.05791
1959.61,0.05800
1953.82,0.05802
1948.03,0.05818
1942.25,0.05824
1936.46,0.05814
1930.67,0.05816
1924.89,0.05860
1919.1,0.05885
1913.32,0.05880
1907.53,0.05914
1901.74,0.05944
1895.96,0.05966
1890.17,0.06014
1884.38,0.06016
1878.6,0.06041
1872.81,0.06089
1867.03,0.06082
1861.24,0.06087
1855.45,0.06134
1849.67,0.06126
1843.88,0.06138
1838.09,0.06152
1832.31,0.06166
1826.52,0.06157
1820.74,0.06168
1814.95,0.06169
1809.16,0.06162
1803.38,0.06044
1797.59,0.05730
1791.8,0.05620
1786.02,0.05689
1780.23,0.05787
1774.45,0.05814
1768.66,0.05791
1762.87,0.05684
1757.09,0.05497
1751.3,0.05380
1745.51,0.05265
1739.73,0.05231
1733.94,0.05343
1728.16,0.05496
1722.37,0.05547
1716.58,0.05596
1710.8,0.05699
1705.01,0.05785
1699.22,0.05926
1693.44,0.05983
1687.65,0.06072
1681.87,0.06127
1676.08,0.06264
1670.29,0.06432
1664.51,0.06677
1658.72,0.06851
1652.93,0.07016
1647.15,0.07060
1641.36,0.07096
1635.58,0.07170
1629.79,0.07231
1624,0.07298
1618.22,0.07293
1612.43,0.07288
1606.64,0.07227
1600.86,0.07150
1595.07,0.07371
1589.29,0.07352
1583.5,0.07191
1577.71,0.07048
1571.93,0.07278
1566.14,0.07433
1560.35,0.07579
1554.57,0.07924
1548.78,0.07928
1543,0.07658
1537.21,0.07653
1531.42,0.07890
1525.64,0.07877
1519.85,0.07679
1514.07,0.07463
1508.28,0.07279
1502.49,0.06982
1496.71,0.06673
1490.92,0.06402
1485.13,0.06184
1479.35,0.06007
1473.56,0.05886
1467.78,0.05844
1461.99,0.05899
1456.2,0.05985
1450.42,0.06038
1444.63,0.06107
1438.84,0.06139
1433.06,0.06555
1427.27,0.06966
1421.49,0.07573
1415.7,0.08146
1409.91,0.08574
1404.13,0.08508
1398.34,0.08332
1392.55,0.08455
1386.77,0.08371
1380.98,0.08144
1375.2,0.08025
1369.41,0.07854
1363.62,0.07481
1357.84,0.07139
1352.05,0.06913
1346.26,0.06675
1340.48,0.06300
1334.69,0.06135
1328.91,0.06192
1323.12,0.06209
1317.33,0.06295
1311.55,0.06290
1305.76,0.06232
1299.97,0.06188
1294.19,0.06168
1288.4,0.06086
1282.62,0.05911
1276.83,0.05745
1271.04,0.05635
1265.26,0.05603
1259.47,0.05655
1253.68,0.05881
1247.9,0.06005
1242.11,0.06104
1236.33,0.06205
1230.54,0.06268
1224.75,0.06273
1218.97,0.06215
1213.18,0.06106
1207.39,0.06058
1201.61,0.06045
1195.82,0.05991
1190.04,0.05988
1184.25,0.06041
1178.46,0.05995
1172.68,0.05982
1166.89,0.05990
1161.1,0.05993
1155.32,0.06054
1149.53,0.06029
1143.75,0.06063
1137.96,0.06019
1132.17,0.05926
1126.39,0.05884
1120.6,0.05759
1114.81,0.05755
1109.03,0.05761
1103.24,0.05797
1097.46,0.05805
1091.67,0.05898
1085.88,0.05868
1080.1,0.05866
1074.31,0.05885
1068.52,0.05829
1062.74,0.05828
1056.95,0.05876
1051.17,0.05818
1045.38,0.05885
1039.59,0.05747
1033.81,0.05820
1028.02,0.05808
1022.24,0.05768
1016.45,0.05737
1010.66,0.05739
1004.88,0.05720
999.09,0.05640
993.304,0.05632
987.518,0.05558
981.731,0.05567
975.945,0.05573
970.159,0.05659
964.373,0.05749
958.586,0.05794
952.8,0.05938
947.014,0.05893
941.228,0.05874
935.441,0.05870
929.655,0.05882
923.869,0.05869
918.083,0.05907
912.297,0.05822
906.51,0.05813
900.724,0.05792
894.938,0.05771
889.152,0.05716
883.365,0.05752
877.579,0.06011
871.793,0.06412
866.007,0.06138
860.22,0.05966
854.434,0.05830
848.648,0.05825
842.862,0.05771
837.075,0.05829
831.289,0.05817
825.503,0.05861
819.717,0.05883
813.931,0.05840
808.144,0.05839
802.358,0.05797
796.572,0.05773
790.786,0.05727
784.999,0.05646
779.213,0.05604
773.427,0.05593
767.641,0.05544
761.854,0.05579
756.068,0.05502
750.282,0.05395
744.496,0.05443
738.709,0.05359
732.923,0.05268
727.137,0.05244
721.351,0.05101
715.565,0.05009
709.778,0.05180
703.992,0.05168
698.206,0.05248
692.42,0.05354
686.633,0.05338
680.847,0.05378
675.061,0.05580
669.275,0.05364
663.488,0.05295
657.702,0.05256
651.916,0.05204
646.13,0.05125
640.343,0.05325
634.557,0.05673
628.771,0.05712
622.985,0.05570
617.198,0.05847
611.412,0.06333
605.626,0.06297
599.84,0.06587