File: 01_Data/PVC/FTIR/IS/PVC_IS_T_220818_R7.dpt
7497.03,0.02924
7491.25,0.02945
7485.46,0.02649
7479.67,0.02902
7473.89,0.02355
7468.1,0.01591
7462.32,0.01911
7456.53,0.01701
7450.74,0.02189
7444.96,0.02135
7439.17,0.01934
7433.38,0.02099
7427.6,0.02301
7421.81,0.02503
7416.03,0.01486
7410.24,0.02764
7404.45,0.02469
7398.67,0.02238
7392.88,0.02514
7387.09,0.02404
7381.31,0.02242
7375.52,0.01950
7369.74,0.01992
7363.95,0.02280
7358.16,0.02154
7352.38,0.01697
7346.59,0.01903
7340.8,0.02356
7335.02,0.02314
7329.23,0.02486
7323.45,0.02362
7317.66,0.02401
7311.87,0.02318
7306.09,0.02526
7300.3,0.02728
7294.51,0.02426
7288.73,0.02037
7282.94,0.02192
7277.16,0.01304
7271.37,0.02011
7265.58,0.02365
7259.8,0.01899
7254.01,0.02175
7248.22,0.02035
7242.44,0.02242
7236.65,0.02102
7230.87,0.02289
7225.08,0.02220
7219.29,0.02594
7213.51,0.02167
7207.72,0.02128
7201.93,0.02052
7196.15,0.02236
7190.36,0.02841
7184.58,0.02879
7178.79,0.01768
7173,0.02147
7167.22,0.02303
7161.43,0.01930
7155.65,0.02802
7149.86,0.02291
7144.07,0.01733
7138.29,0.01850
7132.5,0.01871
7126.71,0.02225
7120.93,0.02260
7115.14,0.02039
7109.36,0.02349
7103.57,0.02658
7097.78,0.02350
7092,0.02207
7086.21,0.02123
7080.42,0.02557
7074.64,0.02451
7068.85,0.01922
7063.07,0.01862
7057.28,0.01512
7051.49,0.01959
7045.71,0.02363
7039.92,0.02475
7034.13,0.01643
7028.35,0.02189
7022.56,0.02047
7016.78,0.01973
7010.99,0.02120
7005.2,0.01882
6999.42,0.02597
6993.63,0.02235
6987.84,0.02595
6982.06,0.02437
6976.27,0.01928
6970.49,0.01566
6964.7,0.02122
6958.91,0.02093
6953.13,0.01946
6947.34,0.01639
6941.55,0.02126
6935.77,0.02075
6929.98,0.01838
6924.2,0.02500
6918.41,0.01907
6912.62,0.02410
6906.84,0.02036
6901.05,0.02404
6895.26,0.02284
6889.48,0.01965
6883.69,0.01912
6877.91,0.02336
6872.12,0.01670
6866.33,0.02085
6860.55,0.02508
6854.76,0.01998
6848.97,0.01853
6843.19,0.01857
6837.4,0.01854
6831.62,0.01675
6825.83,0.01489
6820.04,0.01841
6814.26,0.01817
6808.47,0.02062
6802.68,0.02575
6796.9,0.02223
6791.11,0.02079
6785.33,0.02196
6779.54,0.02337
6773.75,0.01850
6767.97,0.02035
6762.18,0.01881
6756.39,0.01729
6750.61,0.02167
6744.82,0.02046
6739.04,0.02091
6733.25,0.01972
6727.46,0.02233
6721.68,0.01849
6715.89,0.02154
6710.1,0.02159
6704.32,0.01852
6698.53,0.02546
6692.75,0.02341
6686.96,0.01662
6681.17,0.01772
6675.39,0.02136
6669.6,0.01790
6663.82,0.02306
6658.03,0.01582
6652.24,0.02425
6646.46,0.02178
6640.67,0.01900
6634.88,0.01962
6629.1,0.01840
6623.31,0.01888
6617.53,0.02055
6611.74,0.02320
6605.95,0.01971
6600.17,0.01469
6594.38,0.01905
6588.59,0.02047
6582.81,0.01904
6577.02,0.01965
6571.24,0.01981
6565.45,0.02381
6559.66,0.01962
6553.88,0.01892
6548.09,0.01809
6542.3,0.01839
6536.52,0.02154
6530.73,0.01800
6524.95,0.01948
6519.16,0.02058
6513.37,0.02159
6507.59,0.01754
6501.8,0.01703
6496.01,0.01676
6490.23,0.01908
6484.44,0.01928
6478.66,0.02112
6472.87,0.01997
6467.08,0.01909
6461.3,0.01677
6455.51,0.01743
6449.72,0.01760
6443.94,0.01873
6438.15,0.01488
6432.37,0.01765
6426.58,0.01820
6420.79,0.01982
6415.01,0.01800
6409.22,0.01836
6403.43,0.01991
6397.65,0.02181
6391.86,0.02504
6386.08,0.01801
6380.29,0.02098
6374.5,0.01985
6368.72,0.01723
6362.93,0.01727
6357.14,0.01588
6351.36,0.01684
6345.57,0.02028
6339.79,0.01951
6334,0.02247
6328.21,0.01995
6322.43,0.02031
6316.64,0.02061
6310.85,0.02464
6305.07,0.01735
6299.28,0.02149
6293.5,0.01867
6287.71,0.02058
6281.92,0.01923
6276.14,0.01902
6270.35,0.01851
6264.56,0.01887
6258.78,0.01586
6252.99,0.02040
6247.21,0.02034
6241.42,0.01542
6235.63,0.01965
6229.85,0.01849
6224.06,0.01496
6218.27,0.01654
6212.49,0.02156
6206.7,0.02094
6200.92,0.01957
6195.13,0.01919
6189.34,0.01971
6183.56,0.01879
6177.77,0.01818
6171.98,0.01608
6166.2,0.01716
6160.41,0.02040
6154.63,0.02170
6148.84,0.01872
6143.05,0.02051
6137.27,0.01925
6131.48,0.01969
6125.7,0.01593
6119.91,0.01796
6114.12,0.02052
6108.34,0.02043
6102.55,0.02025
6096.76,0.02236
6090.98,0.02082
6085.19,0.01993
6079.41,0.01939
6073.62,0.01885
6067.83,0.01629
6062.05,0.01914
6056.26,0.02122
6050.47,0.01728
6044.69,0.02000
6038.9,0.01702
6033.12,0.01931
6027.33,0.01905
6021.54,0.01661
6015.76,0.01961
6009.97,0.02051
6004.18,0.01780
5998.4,0.01933
5992.61,0.01936
5986.83,0.01766
5981.04,0.01987
5975.25,0.01736
5969.47,0.01868
5963.68,0.01896
5957.89,0.01909
5952.11,0.01869
5946.32,0.01767
5940.54,0.01833
5934.75,0.01919
5928.96,0.01756
5923.18,0.02037
5917.39,0.02029
5911.6,0.02046
5905.82,0.01834
5900.03,0.01952
5894.25,0.01903
5888.46,0.01697
5882.67,0.01894
5876.89,0.02009
5871.1,0.01773
5865.31,0.01881
5859.53,0.01816
5853.74,0.01990
5847.96,0.01938
5842.17,0.02014
5836.38,0.02023
5830.6,0.02023
5824.81,0.01925
5819.02,0.02098
5813.24,0.02044
5807.45,0.01981
5801.67,0.01858
5795.88,0.01830
5790.09,0.01641
5784.31,0.01764
5778.52,0.01907
5772.73,0.01552
5766.95,0.01779
5761.16,0.01832
5755.38,0.01726
5749.59,0.01468
5743.8,0.01868
5738.02,0.01902
5732.23,0.01756
5726.44,0.01660
5720.66,0.01661
5714.87,0.01797
5709.09,0.02029
5703.3,0.01770
5697.51,0.01795
5691.73,0.01730
5685.94,0.01863
5680.15,0.01627
5674.37,0.01951
5668.58,0.01940
5662.8,0.01873
5657.01,0.01762
5651.22,0.01923
5645.44,0.01778
5639.65,0.01906
5633.87,0.02128
5628.08,0.01879
5622.29,0.01965
5616.51,0.01877
5610.72,0.01982
5604.93,0.01916
5599.15,0.01827
5593.36,0.01720
5587.58,0.01935
5581.79,0.01849
5576,0.02033
5570.22,0.01967
5564.43,0.01637
5558.64,0.02023
5552.86,0.02041
5547.07,0.01800
5541.29,0.01905
5535.5,0.01929
5529.71,0.01854
5523.93,0.01978
5518.14,0.01916
5512.35,0.01791
5506.57,0.01917
5500.78,0.01893
5495,0.02041
5489.21,0.01858
5483.42,0.01970
5477.64,0.01807
5471.85,0.01905
5466.06,0.01870
5460.28,0.02026
5454.49,0.01887
5448.71,0.01963
5442.92,0.01840
5437.13,0.01810
5431.35,0.01963
5425.56,0.01745
5419.77,0.01842
5413.99,0.01832
5408.2,0.01965
5402.42,0.02080
5396.63,0.02127
5390.84,0.01966
5385.06,0.01968
5379.27,0.02048
5373.48,0.01884
5367.7,0.01997
5361.91,0.02041
5356.13,0.01880
5350.34,0.01947
5344.55,0.01817
5338.77,0.01835
5332.98,0.01889
5327.19,0.01892
5321.41,0.01946
5315.62,0.01851
5309.84,0.01956
5304.05,0.01988
5298.26,0.02038
5292.48,0.02094
5286.69,0.01875
5280.9,0.01927
5275.12,0.01908
5269.33,0.01870
5263.55,0.01836
5257.76,0.02091
5251.97,0.02017
5246.19,0.01969
5240.4,0.01955
5234.61,0.02023
5228.83,0.02030
5223.04,0.02057
5217.26,0.01985
5211.47,0.01827
5205.68,0.02001
5199.9,0.01923
5194.11,0.01919
5188.32,0.02027
5182.54,0.01950
5176.75,0.02005
5170.97,0.02182
5165.18,0.01892
5159.39,0.01902
5153.61,0.01947
5147.82,0.01794
5142.03,0.01934
5136.25,0.02025
5130.46,0.01946
5124.68,0.01943
5118.89,0.01898
5113.1,0.01969
5107.32,0.01970
5101.53,0.01943
5095.75,0.01848
5089.96,0.01959
5084.17,0.01918
5078.39,0.02095
5072.6,0.01964
5066.81,0.01989
5061.03,0.01898
5055.24,0.01848
5049.46,0.01794
5043.67,0.01900
5037.88,0.01934
5032.1,0.01949
5026.31,0.01920
5020.52,0.01950
5014.74,0.02049
5008.95,0.02036
5003.17,0.01836
4997.38,0.01843
4991.59,0.01841
4985.81,0.01927
4980.02,0.02086
4974.23,0.01901
4968.45,0.01959
4962.66,0.02038
4956.88,0.01872
4951.09,0.01915
4945.3,0.02012
4939.52,0.01816
4933.73,0.01937
4927.94,0.01973
4922.16,0.02036
4916.37,0.01998
4910.59,0.01809
4904.8,0.01871
4899.01,0.02029
4893.23,0.02027
4887.44,0.02006
4881.65,0.01861
4875.87,0.02000
4870.08,0.02017
4864.3,0.02001
4858.51,0.02075
4852.72,0.02022
4846.94,0.01972
4841.15,0.01984
4835.36,0.01959
4829.58,0.02023
4823.79,0.02019
4818.01,0.02060
4812.22,0.01955
4806.43,0.02018
4800.65,0.01941
4794.86,0.01895
4789.07,0.01930
4783.29,0.01977
4777.5,0.01989
4771.72,0.01868
4765.93,0.01979
4760.14,0.01999
4754.36,0.01967
4748.57,0.01914
4742.78,0.01969
4737,0.01977
4731.21,0.01941
4725.43,0.01877
4719.64,0.01903
4713.85,0.01992
4708.07,0.02022
4702.28,0.01986
4696.49,0.01952
4690.71,0.02008
4684.92,0.01832
4679.14,0.01893
4673.35,0.01961
4667.56,0.01976
4661.78,0.02016
4655.99,0.01992
4650.2,0.01960
4644.42,0.01968
4638.63,0.01968
4632.85,0.02032
4627.06,0.02012
4621.27,0.01980
4615.49,0.01959
4609.7,0.01956
4603.92,0.02009
4598.13,0.02044
4592.34,0.01910
4586.56,0.01951
4580.77,0.02010
4574.98,0.02029
4569.2,0.01916
4563.41,0.01899
4557.63,0.01888
4551.84,0.01988
4546.05,0.02067
4540.27,0.01907
4534.48,0.01958
4528.69,0.02000
4522.91,0.01959
4517.12,0.01941
4511.34,0.01978
4505.55,0.01970
4499.76,0.02017
4493.98,0.02036
4488.19,0.01943
4482.4,0.01953
4476.62,0.01914
4470.83,0.01991
4465.05,0.01990
4459.26,0.02009
4453.47,0.02004
4447.69,0.01932
4441.9,0.01959
4436.11,0.01956
4430.33,0.01970
4424.54,0.01928
4418.76,0.01947
4412.97,0.01964
4407.18,0.01940
4401.4,0.02015
4395.61,0.01922
4389.82,0.01957
4384.04,0.01982
4378.25,0.02011
4372.47,0.01998
4366.68,0.01933
4360.89,0.01870
4355.11,0.01901
4349.32,0.01997
4343.53,0.01926
4337.75,0.01945
4331.96,0.01932
4326.18,0.01966
4320.39,0.01944
4314.6,0.01972
4308.82,0.01981
4303.03,0.01948
4297.24,0.01994
4291.46,0.01971
4285.67,0.01994
4279.89,0.02007
4274.1,0.02000
4268.31,0.01975
4262.53,0.01937
4256.74,0.01985
4250.95,0.01983
4245.17,0.01997
4239.38,0.02030
4233.6,0.01984
4227.81,0.01952
4222.02,0.01948
4216.24,0.01933
4210.45,0.02080
4204.66,0.01934
4198.88,0.01970
4193.09,0.01950
4187.31,0.01996
4181.52,0.02001
4175.73,0.01877
4169.95,0.01956
4164.16,0.01988
4158.37,0.02010
4152.59,0.01952
4146.8,0.01988
4141.02,0.01984
4135.23,0.02028
4129.44,0.02017
4123.66,0.01991
4117.87,0.01932
4112.09,0.02024
4106.3,0.01921
4100.51,0.01984
4094.73,0.02046
4088.94,0.02033
4083.15,0.01990
4077.37,0.01997
4071.58,0.01973
4065.8,0.01972
4060.01,0.01999
4054.22,0.01980
4048.44,0.01963
4042.65,0.01938
4036.86,0.02023
4031.08,0.02010
4025.29,0.01997
4019.51,0.02022
4013.72,0.02037
4007.93,0.02000
4002.15,0.02009
3996.36,0.02019
3990.57,0.01977
3984.79,0.01988
3979,0.01919
3973.22,0.02047
3967.43,0.01964
3961.64,0.01980
3955.86,0.01979
3950.07,0.01936
3944.28,0.01985
3938.5,0.01949
3932.71,0.02053
3926.93,0.01990
3921.14,0.02027
3915.35,0.01983
3909.57,0.01951
3903.78,0.02083
3897.99,0.02004
3892.21,0.01995
3886.42,0.02009
3880.64,0.02029
3874.85,0.01957
3869.06,0.01924
3863.28,0.02002
3857.49,0.02062
3851.7,0.02030
3845.92,0.02024
3840.13,0.02053
3834.35,0.02035
3828.56,0.01982
3822.77,0.01992
3816.99,0.01991
3811.2,0.01972
3805.41,0.02034
3799.63,0.01981
3793.84,0.01932
3788.06,0.01922
3782.27,0.02005
3776.48,0.01950
3770.7,0.02039
3764.91,0.01985
3759.12,0.01959
3753.34,0.02038
3747.55,0.01994
3741.77,0.01968
3735.98,0.01967
3730.19,0.01982
3724.41,0.01967
3718.62,0.02047
3712.83,0.01973
3707.05,0.02021
3701.26,0.01998
3695.48,0.01924
3689.69,0.01954
3683.9,0.01963
3678.12,0.01992
3672.33,0.01931
3666.54,0.01917
3660.76,0.01979
3654.97,0.02008
3649.19,0.01969
3643.4,0.01944
3637.61,0.01976
3631.83,0.01916
3626.04,0.01929
3620.25,0.01890
3614.47,0.01833
3608.68,0.01891
3602.9,0.01919
3597.11,0.01927
3591.32,0.01918
3585.54,0.01836
3579.75,0.01893
3573.97,0.01896
3568.18,0.01829
3562.39,0.01874
3556.61,0.01897
3550.82,0.01890
3545.03,0.01934
3539.25,0.01844
3533.46,0.01835
3527.68,0.01837
3521.89,0.01865
3516.1,0.01872
3510.32,0.01877
3504.53,0.01784
3498.74,0.01829
3492.96,0.01854
3487.17,0.01764
3481.39,0.01749
3475.6,0.01865
3469.81,0.01873
3464.03,0.01833
3458.24,0.01779
3452.45,0.01836
3446.67,0.01795
3440.88,0.01806
3435.1,0.01823
3429.31,0.01721
3423.52,0.01719
3417.74,0.01716
3411.95,0.01700
3406.16,0.01782
3400.38,0.01707
3394.59,0.01697
3388.81,0.01775
3383.02,0.01830
3377.23,0.01739
3371.45,0.01730
3365.66,0.01745
3359.87,0.01783
3354.09,0.01766
3348.3,0.01791
3342.52,0.01791
3336.73,0.01795
3330.94,0.01724
3325.16,0.01753
3319.37,0.01817
3313.58,0.01777
3307.8,0.01708
3302.01,0.01733
3296.23,0.01703
3290.44,0.01729
3284.65,0.01824
3278.87,0.01852
3273.08,0.01872
3267.29,0.01788
3261.51,0.01821
3255.72,0.01814
3249.94,0.01824
3244.15,0.01789
3238.36,0.01811
3232.58,0.01829
3226.79,0.01776
3221,0.01800
3215.22,0.01844
3209.43,0.01694
3203.65,0.01799
3197.86,0.01729
3192.07,0.01831
3186.29,0.01752
3180.5,0.01776
3174.71,0.01772
3168.93,0.01821
3163.14,0.01812
3157.36,0.01797
3151.57,0.01831
3145.78,0.01801
3140,0.01838
3134.21,0.01811
3128.42,0.01775
3122.64,0.01803
3116.85,0.01824
3111.07,0.01810
3105.28,0.01793
3099.49,0.01828
3093.71,0.01733
3087.92,0.01766
3082.14,0.01829
3076.35,0.01784
3070.56,0.01773
3064.78,0.01825
3058.99,0.01808
3053.2,0.01768
3047.42,0.01780
3041.63,0.01754
3035.85,0.01808
3030.06,0.01802
3024.27,0.01777
3018.49,0.01790
3012.7,0.01794
3006.91,0.01743
3001.13,0.01691
2995.34,0.01726
2989.56,0.01781
2983.77,0.01725
2977.98,0.01727
2972.2,0.01675
2966.41,0.01705
2960.62,0.01639
2954.84,0.01722
2949.05,0.01679
2943.27,0.01679
2937.48,0.01709
2931.69,0.01709
2925.91,0.01734
2920.12,0.01739
2914.33,0.01745
2908.55,0.01723
2902.76,0.01765
2896.98,0.01774
2891.19,0.01794
2885.4,0.01758
2879.62,0.01776
2873.83,0.01749
2868.04,0.01793
2862.26,0.01838
2856.47,0.01794
2850.69,0.01816
2844.9,0.01840
2839.11,0.01846
2833.33,0.01869
2827.54,0.01890
2821.75,0.01861
2815.97,0.01867
2810.18,0.01813
2804.4,0.01857
2798.61,0.01866
2792.82,0.01832
2787.04,0.01861
2781.25,0.01861
2775.46,0.01872
2769.68,0.01843
2763.89,0.01883
2758.11,0.01834
2752.32,0.01804
2746.53,0.01856
2740.75,0.01831
2734.96,0.01829
2729.17,0.01857
2723.39,0.01841
2717.6,0.01848
2711.82,0.01864
2706.03,0.01857
2700.24,0.01840
2694.46,0.01842
2688.67,0.01878
2682.88,0.01902
2677.1,0.01869
2671.31,0.01831
2665.53,0.01836
2659.74,0.01894
2653.95,0.01857
2648.17,0.01868
2642.38,0.01890
2636.59,0.01856
2630.81,0.01840
2625.02,0.01889
2619.24,0.01867
2613.45,0.01845
2607.66,0.01892
2601.88,0.01886
2596.09,0.01886
2590.3,0.01840
2584.52,0.01812
2578.73,0.01856
2572.95,0.01816
2567.16,0.01841
2561.37,0.01869
2555.59,0.01859
2549.8,0.01852
2544.02,0.01833
2538.23,0.01848
2532.44,0.01868
2526.66,0.01833
2520.87,0.01835
2515.08,0.01854
2509.3,0.01888
2503.51,0.01851
2497.73,0.01879
2491.94,0.01845
2486.15,0.01831
2480.37,0.01850
2474.58,0.01854
2468.79,0.01863
2463.01,0.01835
2457.22,0.01852
2451.44,0.01840
2445.65,0.01876
2439.86,0.01849
2434.08,0.01878
2428.29,0.01843
2422.5,0.01863
2416.72,0.01879
2410.93,0.01816
2405.15,0.01825
2399.36,0.01820
2393.57,0.01839
2387.79,0.01826
2382,0.01828
2376.21,0.01847
2370.43,0.01839
2364.64,0.01806
2358.86,0.01820
2353.07,0.01840
2347.28,0.01859
2341.5,0.01835
2335.71,0.01867
2329.92,0.01837
2324.14,0.01845
2318.35,0.01858
2312.57,0.01839
2306.78,0.01819
2300.99,0.01852
2295.21,0.01843
2289.42,0.01836
2283.63,0.01856
2277.85,0.01859
2272.06,0.01840
2266.28,0.01883
2260.49,0.01885
2254.7,0.01836
2248.92,0.01886
2243.13,0.01848
2237.34,0.01829
2231.56,0.01868
2225.77,0.01872
2219.99,0.01836
2214.2,0.01808
2208.41,0.01841
2202.63,0.01865
2196.84,0.01834
2191.05,0.01830
2185.27,0.01838
2179.48,0.01820
2173.7,0.01864
2167.91,0.01818
2162.12,0.01813
2156.34,0.01819
2150.55,0.01821
2144.76,0.01831
2138.98,0.01823
2133.19,0.01815
2127.41,0.01850
2121.62,0.01821
2115.83,0.01834
2110.05,0.01811
2104.26,0.01846
2098.47,0.01849
2092.69,0.01844
2086.9,0.01835
2081.12,0.01805
2075.33,0.01815
2069.54,0.01828
2063.76,0.01809
2057.97,0.01824
2052.19,0.01845
2046.4,0.01841
2040.61,0.01864
2034.83,0.01867
2029.04,0.01798
2023.25,0.01830
2017.47,0.01807
2011.68,0.01797
2005.9,0.01806
2000.11,0.01820
1994.32,0.01850
1988.54,0.01805
1982.75,0.01811
1976.96,0.01829
1971.18,0.01808
1965.39,0.01809
1959.61,0.01804
1953.82,0.01779
1948.03,0.01804
1942.25,0.01821
1936.46,0.01791
1930.67,0.01842
1924.89,0.01800
1919.1,0.01803
1913.32,0.01806
1907.53,0.01789
1901.74,0.01812
1895.96,0.01810
1890.17,0.01783
1884.38,0.01791
1878.6,0.01780
1872.81,0.01801
1867.03,0.01735
1861.24,0.01764
1855.45,0.01752
1849.67,0.01748
1843.88,0.01755
1838.09,0.01787
1832.31,0.01735
1826.52,0.01753
1820.74,0.01744
1814.95,0.01717
1809.16,0.01721
1803.38,0.01688
1797.59,0.01689
1791.8,0.01675
1786.02,0.01623
1780.23,0.01646
1774.45,0.01645
1768.66,0.01569
1762.87,0.01540
1757.09,0.01508
1751.3,0.01430
1745.51,0.01519
1739.73,0.01625
1733.94,0.01732
1728.16,0.01785
1722.37,0.01841
1716.58,0.01838
1710.8,0.01831
1705.01,0.01777
1699.22,0.01721
1693.44,0.01674
1687.65,0.01642
1681.87,0.01671
1676.08,0.01634
1670.29,0.01594
1664.51,0.01584
1658.72,0.01603
1652.93,0.01638
1647.15,0.01594
1641.36,0.01579
1635.58,0.01574
1629.79,0.01611
1624,0.01632
1618.22,0.01669
1612.43,0.01633
1606.64,0.01590
1600.86,0.01612
1595.07,0.01628
1589.29,0.01633
1583.5,0.01576
1577.71,0.01619
1571.93,0.01645
1566.14,0.01587
1560.35,0.01571
1554.57,0.01524
1548.78,0.01557
1543,0.01622
1537.21,0.01588
1531.42,0.01585
1525.64,0.01593
1519.85,0.01603
1514.07,0.01600
1508.28,0.01602
1502.49,0.01620
1496.71,0.01566
1490.92,0.01581
1485.13,0.01571
1479.35,0.01590
1473.56,0.01552
1467.78,0.01558
1461.99,0.01591
1456.2,0.01573
1450.42,0.01629
1444.63,0.01635
1438.84,0.01635
1433.06,0.01618
1427.27,0.01595
1421.49,0.01587
1415.7,0.01545
1409.91,0.01573
1404.13,0.01556
1398.34,0.01542
1392.55,0.01540
1386.77,0.01548
1380.98,0.01555
1375.2,0.01578
1369.41,0.01568
1363.62,0.01550
1357.84,0.01574
1352.05,0.01553
1346.26,0.01486
1340.48,0.01535
1334.69,0.01492
1328.91,0.01454
1323.12,0.01421
1317.33,0.01416
1311.55,0.01451
1305.76,0.01442
1299.97,0.01487
1294.19,0.01530
1288.4,0.01552
1282.62,0.01580
1276.83,0.01669
1271.04,0.01630
1265.26,0.01697
1259.47,0.01748
1253.68,0.01761
1247.9,0.01759
1242.11,0.01754
1236.33,0.01758
1230.54,0.01703
1224.75,0.01663
1218.97,0.01638
1213.18,0.01624
1207.39,0.01597
1201.61,0.01584
1195.82,0.01563
1190.04,0.01586
1184.25,0.01544
1178.46,0.01564
1172.68,0.01481
1166.89,0.01510
1161.1,0.01484
1155.32,0.01497
1149.53,0.01463
1143.75,0.01550
1137.96,0.01535
1132.17,0.01529
1126.39,0.01535
1120.6,0.01585
1114.81,0.01599
1109.03,0.01607
1103.24,0.01590
1097.46,0.01624
1091.67,0.01538
1085.88,0.01580
1080.1,0.01600
1074.31,0.01668
1068.52,0.01708
1062.74,0.01679
1056.95,0.01688
1051.17,0.01699
1045.38,0.01728
1039.59,0.01702
1033.81,0.01770
1028.02,0.01696
1022.24,0.01638
1016.45,0.01674
1010.66,0.01746
1004.88,0.01811
999.09,0.01816
993.304,0.01851
987.518,0.01813
981.731,0.01847
975.945,0.01775
970.159,0.01762
964.373,0.01791
958.586,0.01788
952.8,0.01746
947.014,0.01721
941.228,0.01686
935.441,0.01665
929.655,0.01660
923.869,0.01631
918.083,0.01665
912.297,0.01667
906.51,0.01650
900.724,0.01669
894.938,0.01623
889.152,0.01661
883.365,0.01673
877.579,0.01646
871.793,0.01627
866.007,0.01631
860.22,0.01568
854.434,0.01632
848.648,0.01621
842.862,0.01657
837.075,0.01636
831.289,0.01577
825.503,0.01584
819.717,0.01602
813.931,0.01564
808.144,0.01573
802.358,0.01544
796.572,0.01582
790.786,0.01618
784.999,0.01638
779.213,0.01545
773.427,0.01619
767.641,0.01576
761.854,0.01538
756.068,0.01589
750.282,0.01540
744.496,0.01504
738.709,0.01472
732.923,0.01505
727.137,0.01522
721.351,0.01549
715.565,0.01588
709.778,0.01541
703.992,0.01622
698.206,0.01536
692.42,0.01549
686.633,0.01539
680.847,0.01441
675.061,0.01397
669.275,0.01461
663.488,0.01396
657.702,0.01317
651.916,0.01408
646.13,0.01252
640.343,0.01265
634.557,0.01332
628.771,0.01443
622.985,0.01490
617.198,0.01172
611.412,0.01205
605.626,0.01162
599.84,0.01153