File: 01_Data/PVC/FTIR/IS/PVC_IS_S_220818_R1.dpt
7497.03,0.10613
7491.25,0.10541
7485.46,0.10905
7479.67,0.10671
7473.89,0.11130
7468.1,0.10687
7462.32,0.11366
7456.53,0.10948
7450.74,0.11195
7444.96,0.10376
7439.17,0.11370
7433.38,0.11248
7427.6,0.10213
7421.81,0.11041
7416.03,0.10965
7410.24,0.11319
7404.45,0.11279
7398.67,0.10906
7392.88,0.10353
7387.09,0.11166
7381.31,0.10844
7375.52,0.11141
7369.74,0.10818
7363.95,0.11320
7358.16,0.11180
7352.38,0.10476
7346.59,0.11830
7340.8,0.11664
7335.02,0.11540
7329.23,0.11508
7323.45,0.10829
7317.66,0.10572
7311.87,0.10950
7306.09,0.11125
7300.3,0.10657
7294.51,0.10361
7288.73,0.11358
7282.94,0.10677
7277.16,0.10728
7271.37,0.10470
7265.58,0.11245
7259.8,0.10090
7254.01,0.10351
7248.22,0.10413
7242.44,0.10470
7236.65,0.09892
7230.87,0.10867
7225.08,0.10337
7219.29,0.10944
7213.51,0.11128
7207.72,0.10569
7201.93,0.10641
7196.15,0.10154
7190.36,0.10668
7184.58,0.10064
7178.79,0.10329
7173,0.10586
7167.22,0.10704
7161.43,0.10639
7155.65,0.10113
7149.86,0.11061
7144.07,0.10852
7138.29,0.10542
7132.5,0.10518
7126.71,0.10358
7120.93,0.10279
7115.14,0.10398
7109.36,0.10380
7103.57,0.10306
7097.78,0.10667
7092,0.11045
7086.21,0.10867
7080.42,0.10587
7074.64,0.10648
7068.85,0.10500
7063.07,0.10542
7057.28,0.10311
7051.49,0.10835
7045.71,0.10192
7039.92,0.10307
7034.13,0.10465
7028.35,0.10133
7022.56,0.10006
7016.78,0.10602
7010.99,0.10185
7005.2,0.10178
6999.42,0.09442
6993.63,0.09641
6987.84,0.10308
6982.06,0.10335
6976.27,0.10195
6970.49,0.10373
6964.7,0.10498
6958.91,0.10529
6953.13,0.10409
6947.34,0.10225
6941.55,0.10279
6935.77,0.10240
6929.98,0.10324
6924.2,0.10328
6918.41,0.10144
6912.62,0.10361
6906.84,0.10674
6901.05,0.10828
6895.26,0.10613
6889.48,0.10351
6883.69,0.10368
6877.91,0.10274
6872.12,0.10488
6866.33,0.10397
6860.55,0.10227
6854.76,0.10246
6848.97,0.10670
6843.19,0.10774
6837.4,0.10364
6831.62,0.10098
6825.83,0.10441
6820.04,0.10603
6814.26,0.09899
6808.47,0.09577
6802.68,0.10355
6796.9,0.10411
6791.11,0.10168
6785.33,0.10509
6779.54,0.10325
6773.75,0.10089
6767.97,0.10350
6762.18,0.10440
6756.39,0.11061
6750.61,0.10540
6744.82,0.10124
6739.04,0.10465
6733.25,0.10258
6727.46,0.10256
6721.68,0.09775
6715.89,0.09894
6710.1,0.10334
6704.32,0.10548
6698.53,0.10182
6692.75,0.09828
6686.96,0.10347
6681.17,0.10369
6675.39,0.10180
6669.6,0.10285
6663.82,0.10031
6658.03,0.10262
6652.24,0.10059
6646.46,0.10258
6640.67,0.09825
6634.88,0.10083
6629.1,0.10091
6623.31,0.10109
6617.53,0.10079
6611.74,0.10027
6605.95,0.09892
6600.17,0.09923
6594.38,0.10097
6588.59,0.10041
6582.81,0.10294
6577.02,0.10063
6571.24,0.09909
6565.45,0.10027
6559.66,0.09845
6553.88,0.10094
6548.09,0.10064
6542.3,0.09738
6536.52,0.09979
6530.73,0.09866
6524.95,0.09849
6519.16,0.10404
6513.37,0.10159
6507.59,0.09966
6501.8,0.09995
6496.01,0.10000
6490.23,0.10256
6484.44,0.10133
6478.66,0.10240
6472.87,0.10023
6467.08,0.09973
6461.3,0.10059
6455.51,0.10065
6449.72,0.10437
6443.94,0.10281
6438.15,0.09597
6432.37,0.09612
6426.58,0.10201
6420.79,0.09968
6415.01,0.10128
6409.22,0.09918
6403.43,0.09868
6397.65,0.09717
6391.86,0.10011
6386.08,0.10082
6380.29,0.10162
6374.5,0.10048
6368.72,0.10179
6362.93,0.09868
6357.14,0.09886
6351.36,0.10178
6345.57,0.10035
6339.79,0.09789
6334,0.09696
6328.21,0.09947
6322.43,0.10169
6316.64,0.09712
6310.85,0.09900
6305.07,0.09840
6299.28,0.09734
6293.5,0.09915
6287.71,0.09747
6281.92,0.09712
6276.14,0.10286
6270.35,0.09849
6264.56,0.09817
6258.78,0.09691
6252.99,0.09831
6247.21,0.10012
6241.42,0.10136
6235.63,0.09939
6229.85,0.10225
6224.06,0.09692
6218.27,0.09511
6212.49,0.09835
6206.7,0.09637
6200.92,0.09811
6195.13,0.09812
6189.34,0.09616
6183.56,0.09536
6177.77,0.09753
6171.98,0.09659
6166.2,0.09745
6160.41,0.09516
6154.63,0.09596
6148.84,0.09524
6143.05,0.09666
6137.27,0.09504
6131.48,0.09568
6125.7,0.09300
6119.91,0.09596
6114.12,0.09748
6108.34,0.09621
6102.55,0.09405
6096.76,0.09569
6090.98,0.09351
6085.19,0.09524
6079.41,0.09419
6073.62,0.09190
6067.83,0.09586
6062.05,0.09574
6056.26,0.09481
6050.47,0.09740
6044.69,0.09546
6038.9,0.09662
6033.12,0.09625
6027.33,0.09427
6021.54,0.09292
6015.76,0.09492
6009.97,0.09575
6004.18,0.09525
5998.4,0.09211
5992.61,0.09223
5986.83,0.09152
5981.04,0.09432
5975.25,0.09280
5969.47,0.09386
5963.68,0.09242
5957.89,0.09239
5952.11,0.09091
5946.32,0.09321
5940.54,0.09033
5934.75,0.08992
5928.96,0.09224
5923.18,0.09034
5917.39,0.08832
5911.6,0.08831
5905.82,0.08595
5900.03,0.08661
5894.25,0.08180
5888.46,0.08421
5882.67,0.08254
5876.89,0.08194
5871.1,0.08058
5865.31,0.07824
5859.53,0.07754
5853.74,0.07809
5847.96,0.07513
5842.17,0.07500
5836.38,0.07307
5830.6,0.07429
5824.81,0.07353
5819.02,0.07366
5813.24,0.07484
5807.45,0.07568
5801.67,0.07582
5795.88,0.07717
5790.09,0.07882
5784.31,0.08065
5778.52,0.07967
5772.73,0.08040
5766.95,0.08196
5761.16,0.08105
5755.38,0.07923
5749.59,0.08030
5743.8,0.07848
5738.02,0.07929
5732.23,0.07919
5726.44,0.07945
5720.66,0.08206
5714.87,0.07951
5709.09,0.08079
5703.3,0.07937
5697.51,0.07962
5691.73,0.07989
5685.94,0.08136
5680.15,0.08180
5674.37,0.07920
5668.58,0.08152
5662.8,0.08116
5657.01,0.08209
5651.22,0.08160
5645.44,0.08428
5639.65,0.08219
5633.87,0.08229
5628.08,0.08306
5622.29,0.08284
5616.51,0.08337
5610.72,0.08319
5604.93,0.08176
5599.15,0.08143
5593.36,0.08314
5587.58,0.08402
5581.79,0.08360
5576,0.08210
5570.22,0.08320
5564.43,0.08523
5558.64,0.08377
5552.86,0.08433
5547.07,0.08488
5541.29,0.08337
5535.5,0.08504
5529.71,0.08361
5523.93,0.08320
5518.14,0.08454
5512.35,0.08481
5506.57,0.08455
5500.78,0.08434
5495,0.08386
5489.21,0.08410
5483.42,0.08474
5477.64,0.08343
5471.85,0.08189
5466.06,0.08335
5460.28,0.08422
5454.49,0.08196
5448.71,0.08177
5442.92,0.08403
5437.13,0.08242
5431.35,0.08404
5425.56,0.08404
5419.77,0.08508
5413.99,0.08314
5408.2,0.08281
5402.42,0.08335
5396.63,0.08494
5390.84,0.08300
5385.06,0.08362
5379.27,0.08228
5373.48,0.08475
5367.7,0.08454
5361.91,0.08290
5356.13,0.08456
5350.34,0.08278
5344.55,0.08469
5338.77,0.08279
5332.98,0.08351
5327.19,0.08335
5321.41,0.08278
5315.62,0.08382
5309.84,0.08312
5304.05,0.08284
5298.26,0.08443
5292.48,0.08507
5286.69,0.08300
5280.9,0.08483
5275.12,0.08438
5269.33,0.08412
5263.55,0.08256
5257.76,0.08316
5251.97,0.08242
5246.19,0.08174
5240.4,0.08314
5234.61,0.08455
5228.83,0.08349
5223.04,0.08226
5217.26,0.08255
5211.47,0.08365
5205.68,0.08367
5199.9,0.08352
5194.11,0.08351
5188.32,0.08293
5182.54,0.08396
5176.75,0.08231
5170.97,0.08223
5165.18,0.08283
5159.39,0.08352
5153.61,0.08234
5147.82,0.08266
5142.03,0.08304
5136.25,0.08213
5130.46,0.08359
5124.68,0.08353
5118.89,0.08395
5113.1,0.08202
5107.32,0.08174
5101.53,0.08222
5095.75,0.08214
5089.96,0.08216
5084.17,0.08224
5078.39,0.08250
5072.6,0.08282
5066.81,0.08240
5061.03,0.08209
5055.24,0.08258
5049.46,0.08205
5043.67,0.08186
5037.88,0.08231
5032.1,0.08194
5026.31,0.08241
5020.52,0.08191
5014.74,0.08292
5008.95,0.08270
5003.17,0.08229
4997.38,0.08267
4991.59,0.08273
4985.81,0.08233
4980.02,0.08216
4974.23,0.08320
4968.45,0.08228
4962.66,0.08214
4956.88,0.08228
4951.09,0.08075
4945.3,0.08167
4939.52,0.08150
4933.73,0.08191
4927.94,0.08191
4922.16,0.08096
4916.37,0.08065
4910.59,0.08056
4904.8,0.08103
4899.01,0.08106
4893.23,0.08100
4887.44,0.08106
4881.65,0.08024
4875.87,0.08146
4870.08,0.08041
4864.3,0.08048
4858.51,0.08085
4852.72,0.08081
4846.94,0.08171
4841.15,0.08174
4835.36,0.08052
4829.58,0.08050
4823.79,0.08103
4818.01,0.08080
4812.22,0.08105
4806.43,0.08032
4800.65,0.08074
4794.86,0.07957
4789.07,0.08054
4783.29,0.08097
4777.5,0.08044
4771.72,0.08068
4765.93,0.08054
4760.14,0.08100
4754.36,0.08015
4748.57,0.08064
4742.78,0.07989
4737,0.08029
4731.21,0.08043
4725.43,0.07955
4719.64,0.08052
4713.85,0.07983
4708.07,0.07865
4702.28,0.08017
4696.49,0.07947
4690.71,0.07958
4684.92,0.07871
4679.14,0.07960
4673.35,0.07929
4667.56,0.07943
4661.78,0.07903
4655.99,0.07899
4650.2,0.07890
4644.42,0.07873
4638.63,0.07942
4632.85,0.07826
4627.06,0.07967
4621.27,0.07798
4615.49,0.07869
4609.7,0.07931
4603.92,0.07974
4598.13,0.07860
4592.34,0.07814
4586.56,0.07752
4580.77,0.07901
4574.98,0.07912
4569.2,0.07850
4563.41,0.07856
4557.63,0.07801
4551.84,0.07809
4546.05,0.07811
4540.27,0.07825
4534.48,0.07779
4528.69,0.07794
4522.91,0.07733
4517.12,0.07724
4511.34,0.07621
4505.55,0.07693
4499.76,0.07636
4493.98,0.07605
4488.19,0.07555
4482.4,0.07588
4476.62,0.07478
4470.83,0.07443
4465.05,0.07400
4459.26,0.07324
4453.47,0.07276
4447.69,0.07211
4441.9,0.07145
4436.11,0.07093
4430.33,0.07019
4424.54,0.06941
4418.76,0.06873
4412.97,0.06857
4407.18,0.06802
4401.4,0.06701
4395.61,0.06653
4389.82,0.06590
4384.04,0.06508
4378.25,0.06369
4372.47,0.06318
4366.68,0.06237
4360.89,0.06183
4355.11,0.06113
4349.32,0.06101
4343.53,0.06079
4337.75,0.06099
4331.96,0.06004
4326.18,0.06004
4320.39,0.06089
4314.6,0.06115
4308.82,0.06098
4303.03,0.06146
4297.24,0.06181
4291.46,0.06118
4285.67,0.06213
4279.89,0.06212
4274.1,0.06156
4268.31,0.06240
4262.53,0.06273
4256.74,0.06255
4250.95,0.06188
4245.17,0.06085
4239.38,0.06102
4233.6,0.06120
4227.81,0.06149
4222.02,0.06146
4216.24,0.06099
4210.45,0.06135
4204.66,0.06180
4198.88,0.06161
4193.09,0.06174
4187.31,0.06204
4181.52,0.06141
4175.73,0.06148
4169.95,0.06202
4164.16,0.06209
4158.37,0.06237
4152.59,0.06184
4146.8,0.06190
4141.02,0.06297
4135.23,0.06282
4129.44,0.06318
4123.66,0.06278
4117.87,0.06283
4112.09,0.06275
4106.3,0.06295
4100.51,0.06293
4094.73,0.06365
4088.94,0.06301
4083.15,0.06303
4077.37,0.06275
4071.58,0.06297
4065.8,0.06291
4060.01,0.06364
4054.22,0.06352
4048.44,0.06333
4042.65,0.06321
4036.86,0.06370
4031.08,0.06350
4025.29,0.06379
4019.51,0.06371
4013.72,0.06388
4007.93,0.06386
4002.15,0.06359
3996.36,0.06363
3990.57,0.06425
3984.79,0.06486
3979,0.06468
3973.22,0.06425
3967.43,0.06426
3961.64,0.06463
3955.86,0.06462
3950.07,0.06472
3944.28,0.06512
3938.5,0.06447
3932.71,0.06441
3926.93,0.06461
3921.14,0.06497
3915.35,0.06477
3909.57,0.06470
3903.78,0.06489
3897.99,0.06463
3892.21,0.06474
3886.42,0.06409
3880.64,0.06428
3874.85,0.06432
3869.06,0.06393
3863.28,0.06404
3857.49,0.06366
3851.7,0.06417
3845.92,0.06424
3840.13,0.06387
3834.35,0.06428
3828.56,0.06483
3822.77,0.06427
3816.99,0.06434
3811.2,0.06490
3805.41,0.06485
3799.63,0.06486
3793.84,0.06458
3788.06,0.06462
3782.27,0.06494
3776.48,0.06531
3770.7,0.06528
3764.91,0.06541
3759.12,0.06512
3753.34,0.06483
3747.55,0.06490
3741.77,0.06506
3735.98,0.06543
3730.19,0.06526
3724.41,0.06485
3718.62,0.06535
3712.83,0.06549
3707.05,0.06451
3701.26,0.06384
3695.48,0.06347
3689.69,0.06307
3683.9,0.06230
3678.12,0.06239
3672.33,0.06125
3666.54,0.06157
3660.76,0.06205
3654.97,0.06179
3649.19,0.06226
3643.4,0.06227
3637.61,0.06212
3631.83,0.06225
3626.04,0.06163
3620.25,0.06159
3614.47,0.06153
3608.68,0.06163
3602.9,0.06052
3597.11,0.06061
3591.32,0.06007
3585.54,0.06079
3579.75,0.06044
3573.97,0.06067
3568.18,0.06022
3562.39,0.06027
3556.61,0.05983
3550.82,0.05997
3545.03,0.06017
3539.25,0.06048
3533.46,0.06010
3527.68,0.05990
3521.89,0.06028
3516.1,0.06024
3510.32,0.05991
3504.53,0.06006
3498.74,0.05968
3492.96,0.05970
3487.17,0.06013
3481.39,0.05969
3475.6,0.05918
3469.81,0.05946
3464.03,0.05849
3458.24,0.05904
3452.45,0.05905
3446.67,0.05836
3440.88,0.05872
3435.1,0.05884
3429.31,0.05787
3423.52,0.05870
3417.74,0.05831
3411.95,0.05951
3406.16,0.05960
3400.38,0.05858
3394.59,0.05892
3388.81,0.05931
3383.02,0.05932
3377.23,0.05905
3371.45,0.05917
3365.66,0.05802
3359.87,0.05930
3354.09,0.05913
3348.3,0.05825
3342.52,0.05897
3336.73,0.05871
3330.94,0.05885
3325.16,0.05758
3319.37,0.05857
3313.58,0.05784
3307.8,0.05838
3302.01,0.05847
3296.23,0.05879
3290.44,0.05895
3284.65,0.05881
3278.87,0.05855
3273.08,0.05849
3267.29,0.05792
3261.51,0.05893
3255.72,0.05814
3249.94,0.05854
3244.15,0.05846
3238.36,0.05896
3232.58,0.05890
3226.79,0.05789
3221,0.05946
3215.22,0.05921
3209.43,0.05843
3203.65,0.05827
3197.86,0.05808
3192.07,0.05801
3186.29,0.05848
3180.5,0.05905
3174.71,0.05897
3168.93,0.05822
3163.14,0.05868
3157.36,0.05790
3151.57,0.05798
3145.78,0.05833
3140,0.05887
3134.21,0.05879
3128.42,0.05859
3122.64,0.05795
3116.85,0.05788
3111.07,0.05800
3105.28,0.05753
3099.49,0.05837
3093.71,0.05817
3087.92,0.05808
3082.14,0.05764
3076.35,0.05755
3070.56,0.05784
3064.78,0.05730
3058.99,0.05761
3053.2,0.05671
3047.42,0.05687
3041.63,0.05619
3035.85,0.05618
3030.06,0.05598
3024.27,0.05589
3018.49,0.05568
3012.7,0.05591
3006.91,0.05572
3001.13,0.05487
2995.34,0.05496
2989.56,0.05489
2983.77,0.05445
2977.98,0.05386
2972.2,0.05393
2966.41,0.05469
2960.62,0.05466
2954.84,0.05534
2949.05,0.05503
2943.27,0.05483
2937.48,0.05466
2931.69,0.05510
2925.91,0.05583
2920.12,0.05661
2914.33,0.05746
2908.55,0.05716
2902.76,0.05760
2896.98,0.05760
2891.19,0.05728
2885.4,0.05678
2879.62,0.05716
2873.83,0.05687
2868.04,0.05619
2862.26,0.05683
2856.47,0.05686
2850.69,0.05748
2844.9,0.05714
2839.11,0.05726
2833.33,0.05705
2827.54,0.05683
2821.75,0.05717
2815.97,0.05703
2810.18,0.05717
2804.4,0.05712
2798.61,0.05712
2792.82,0.05734
2787.04,0.05730
2781.25,0.05754
2775.46,0.05743
2769.68,0.05727
2763.89,0.05711
2758.11,0.05716
2752.32,0.05749
2746.53,0.05726
2740.75,0.05678
2734.96,0.05701
2729.17,0.05683
2723.39,0.05711
2717.6,0.05731
2711.82,0.05730
2706.03,0.05716
2700.24,0.05701
2694.46,0.05706
2688.67,0.05721
2682.88,0.05720
2677.1,0.05714
2671.31,0.05686
2665.53,0.05719
2659.74,0.05696
2653.95,0.05722
2648.17,0.05696
2642.38,0.05729
2636.59,0.05667
2630.81,0.05684
2625.02,0.05690
2619.24,0.05688
2613.45,0.05660
2607.66,0.05654
2601.88,0.05649
2596.09,0.05653
2590.3,0.05673
2584.52,0.05653
2578.73,0.05640
2572.95,0.05654
2567.16,0.05631
2561.37,0.05629
2555.59,0.05626
2549.8,0.05658
2544.02,0.05625
2538.23,0.05588
2532.44,0.05617
2526.66,0.05632
2520.87,0.05612
2515.08,0.05631
2509.3,0.05607
2503.51,0.05619
2497.73,0.05675
2491.94,0.05686
2486.15,0.05659
2480.37,0.05650
2474.58,0.05664
2468.79,0.05662
2463.01,0.05671
2457.22,0.05676
2451.44,0.05664
2445.65,0.05638
2439.86,0.05677
2434.08,0.05671
2428.29,0.05652
2422.5,0.05630
2416.72,0.05644
2410.93,0.05667
2405.15,0.05637
2399.36,0.05671
2393.57,0.05657
2387.79,0.05640
2382,0.05634
2376.21,0.05643
2370.43,0.05631
2364.64,0.05599
2358.86,0.05645
2353.07,0.05617
2347.28,0.05652
2341.5,0.05634
2335.71,0.05664
2329.92,0.05642
2324.14,0.05660
2318.35,0.05649
2312.57,0.05645
2306.78,0.05642
2300.99,0.05625
2295.21,0.05661
2289.42,0.05675
2283.63,0.05622
2277.85,0.05632
2272.06,0.05648
2266.28,0.05647
2260.49,0.05625
2254.7,0.05685
2248.92,0.05630
2243.13,0.05627
2237.34,0.05638
2231.56,0.05639
2225.77,0.05658
2219.99,0.05658
2214.2,0.05687
2208.41,0.05649
2202.63,0.05667
2196.84,0.05684
2191.05,0.05652
2185.27,0.05643
2179.48,0.05648
2173.7,0.05709
2167.91,0.05719
2162.12,0.05723
2156.34,0.05749
2150.55,0.05690
2144.76,0.05719
2138.98,0.05724
2133.19,0.05705
2127.41,0.05709
2121.62,0.05732
2115.83,0.05716
2110.05,0.05705
2104.26,0.05731
2098.47,0.05709
2092.69,0.05729
2086.9,0.05722
2081.12,0.05729
2075.33,0.05729
2069.54,0.05744
2063.76,0.05719
2057.97,0.05746
2052.19,0.05753
2046.4,0.05733
2040.61,0.05733
2034.83,0.05713
2029.04,0.05758
2023.25,0.05791
2017.47,0.05761
2011.68,0.05754
2005.9,0.05769
2000.11,0.05744
1994.32,0.05794
1988.54,0.05796
1982.75,0.05805
1976.96,0.05808
1971.18,0.05843
1965.39,0.05851
1959.61,0.05839
1953.82,0.05859
1948.03,0.05883
1942.25,0.05876
1936.46,0.05901
1930.67,0.05889
1924.89,0.05927
1919.1,0.05955
1913.32,0.05953
1907.53,0.05969
1901.74,0.05974
1895.96,0.05996
1890.17,0.06033
1884.38,0.06070
1878.6,0.06071
1872.81,0.06103
1867.03,0.06143
1861.24,0.06165
1855.45,0.06186
1849.67,0.06201
1843.88,0.06179
1838.09,0.06202
1832.31,0.06200
1826.52,0.06218
1820.74,0.06231
1814.95,0.06242
1809.16,0.06218
1803.38,0.06094
1797.59,0.05736
1791.8,0.05640
1786.02,0.05773
1780.23,0.05848
1774.45,0.05895
1768.66,0.05847
1762.87,0.05726
1757.09,0.05567
1751.3,0.05432
1745.51,0.05280
1739.73,0.05297
1733.94,0.05397
1728.16,0.05571
1722.37,0.05643
1716.58,0.05666
1710.8,0.05730
1705.01,0.05844
1699.22,0.05921
1693.44,0.05979
1687.65,0.06026
1681.87,0.06182
1676.08,0.06328
1670.29,0.06455
1664.51,0.06701
1658.72,0.06883
1652.93,0.07039
1647.15,0.07068
1641.36,0.07126
1635.58,0.07229
1629.79,0.07294
1624,0.07287
1618.22,0.07325
1612.43,0.07276
1606.64,0.07153
1600.86,0.07163
1595.07,0.07369
1589.29,0.07390
1583.5,0.07234
1577.71,0.07093
1571.93,0.07321
1566.14,0.07457
1560.35,0.07590
1554.57,0.07964
1548.78,0.08001
1543,0.07707
1537.21,0.07758
1531.42,0.07982
1525.64,0.07948
1519.85,0.07771
1514.07,0.07568
1508.28,0.07326
1502.49,0.07033
1496.71,0.06791
1490.92,0.06443
1485.13,0.06248
1479.35,0.06067
1473.56,0.05962
1467.78,0.05953
1461.99,0.05986
1456.2,0.06023
1450.42,0.06102
1444.63,0.06144
1438.84,0.06222
1433.06,0.06603
1427.27,0.07038
1421.49,0.07661
1415.7,0.08186
1409.91,0.08618
1404.13,0.08574
1398.34,0.08401
1392.55,0.08514
1386.77,0.08442
1380.98,0.08222
1375.2,0.08093
1369.41,0.07963
1363.62,0.07567
1357.84,0.07214
1352.05,0.06926
1346.26,0.06745
1340.48,0.06394
1334.69,0.06216
1328.91,0.06242
1323.12,0.06308
1317.33,0.06335
1311.55,0.06333
1305.76,0.06321
1299.97,0.06230
1294.19,0.06196
1288.4,0.06122
1282.62,0.05970
1276.83,0.05781
1271.04,0.05660
1265.26,0.05613
1259.47,0.05685
1253.68,0.05927
1247.9,0.06028
1242.11,0.06149
1236.33,0.06261
1230.54,0.06301
1224.75,0.06344
1218.97,0.06279
1213.18,0.06117
1207.39,0.06061
1201.61,0.06051
1195.82,0.06047
1190.04,0.06074
1184.25,0.06087
1178.46,0.06090
1172.68,0.06054
1166.89,0.06052
1161.1,0.06107
1155.32,0.06062
1149.53,0.06095
1143.75,0.06087
1137.96,0.06045
1132.17,0.05984
1126.39,0.05936
1120.6,0.05853
1114.81,0.05769
1109.03,0.05820
1103.24,0.05807
1097.46,0.05866
1091.67,0.05882
1085.88,0.05890
1080.1,0.05873
1074.31,0.05883
1068.52,0.05893
1062.74,0.05890
1056.95,0.05929
1051.17,0.05965
1045.38,0.05838
1039.59,0.05817
1033.81,0.05840
1028.02,0.05807
1022.24,0.05791
1016.45,0.05796
1010.66,0.05699
1004.88,0.05704
999.09,0.05671
993.304,0.05655
987.518,0.05623
981.731,0.05585
975.945,0.05642
970.159,0.05680
964.373,0.05791
958.586,0.05868
952.8,0.06033
947.014,0.06011
941.228,0.05993
935.441,0.05932
929.655,0.05899
923.869,0.05943
918.083,0.05881
912.297,0.05875
906.51,0.05900
900.724,0.05852
894.938,0.05802
889.152,0.05731
883.365,0.05828
877.579,0.06020
871.793,0.06542
866.007,0.06183
860.22,0.05939
854.434,0.05874
848.648,0.05887
842.862,0.05884
837.075,0.05908
831.289,0.05950
825.503,0.05895
819.717,0.05926
813.931,0.05870
808.144,0.05890
802.358,0.05800
796.572,0.05760
790.786,0.05768
784.999,0.05731
779.213,0.05664
773.427,0.05642
767.641,0.05639
761.854,0.05674
756.068,0.05576
750.282,0.05522
744.496,0.05433
738.709,0.05402
732.923,0.05340
727.137,0.05215
721.351,0.05260
715.565,0.05123
709.778,0.05301
703.992,0.05350
698.206,0.05313
692.42,0.05317
686.633,0.05432
680.847,0.05589
675.061,0.05454
669.275,0.05496
663.488,0.05389
657.702,0.05156
651.916,0.05041
646.13,0.05200
640.343,0.05274
634.557,0.05617
628.771,0.05486
622.985,0.05623
617.198,0.05796
611.412,0.06149
605.626,0.06430
599.84,0.06392