File: 01_Data/PVC/FTIR/IS/PVC_IS_S_220818_R3.dpt
7497.03,0.10575
7491.25,0.11569
7485.46,0.11288
7479.67,0.11274
7473.89,0.11736
7468.1,0.10738
7462.32,0.11470
7456.53,0.11046
7450.74,0.10022
7444.96,0.10751
7439.17,0.10449
7433.38,0.11368
7427.6,0.11460
7421.81,0.10829
7416.03,0.10313
7410.24,0.11186
7404.45,0.11537
7398.67,0.11229
7392.88,0.10814
7387.09,0.11122
7381.31,0.11095
7375.52,0.10840
7369.74,0.11659
7363.95,0.11160
7358.16,0.10724
7352.38,0.10866
7346.59,0.11426
7340.8,0.10593
7335.02,0.11209
7329.23,0.10942
7323.45,0.10692
7317.66,0.10827
7311.87,0.11100
7306.09,0.11620
7300.3,0.10902
7294.51,0.10864
7288.73,0.11186
7282.94,0.10817
7277.16,0.10377
7271.37,0.10644
7265.58,0.10293
7259.8,0.10447
7254.01,0.10410
7248.22,0.10636
7242.44,0.11107
7236.65,0.10523
7230.87,0.11166
7225.08,0.10494
7219.29,0.10695
7213.51,0.09923
7207.72,0.10445
7201.93,0.10756
7196.15,0.10198
7190.36,0.10869
7184.58,0.10914
7178.79,0.10639
7173,0.10758
7167.22,0.10480
7161.43,0.10413
7155.65,0.10917
7149.86,0.10174
7144.07,0.10156
7138.29,0.10360
7132.5,0.10404
7126.71,0.10114
7120.93,0.10262
7115.14,0.10007
7109.36,0.10471
7103.57,0.10529
7097.78,0.10441
7092,0.10617
7086.21,0.10330
7080.42,0.09992
7074.64,0.10612
7068.85,0.10905
7063.07,0.10970
7057.28,0.10424
7051.49,0.11157
7045.71,0.10391
7039.92,0.10365
7034.13,0.10559
7028.35,0.10337
7022.56,0.10267
7016.78,0.10351
7010.99,0.10347
7005.2,0.10793
6999.42,0.10520
6993.63,0.10235
6987.84,0.10558
6982.06,0.10204
6976.27,0.10559
6970.49,0.10261
6964.7,0.10290
6958.91,0.10758
6953.13,0.10426
6947.34,0.10578
6941.55,0.10136
6935.77,0.09837
6929.98,0.10610
6924.2,0.10801
6918.41,0.10671
6912.62,0.10579
6906.84,0.10514
6901.05,0.10775
6895.26,0.10638
6889.48,0.10786
6883.69,0.10433
6877.91,0.10927
6872.12,0.10681
6866.33,0.10801
6860.55,0.10148
6854.76,0.10268
6848.97,0.10210
6843.19,0.10630
6837.4,0.10384
6831.62,0.10054
6825.83,0.10444
6820.04,0.10108
6814.26,0.10463
6808.47,0.10163
6802.68,0.10426
6796.9,0.10107
6791.11,0.10408
6785.33,0.10450
6779.54,0.10614
6773.75,0.10557
6767.97,0.10463
6762.18,0.09972
6756.39,0.10066
6750.61,0.10426
6744.82,0.10142
6739.04,0.10328
6733.25,0.10319
6727.46,0.09959
6721.68,0.09968
6715.89,0.10401
6710.1,0.10405
6704.32,0.10267
6698.53,0.10496
6692.75,0.10251
6686.96,0.10058
6681.17,0.10711
6675.39,0.10284
6669.6,0.10380
6663.82,0.10291
6658.03,0.09957
6652.24,0.10175
6646.46,0.10560
6640.67,0.10321
6634.88,0.10336
6629.1,0.10237
6623.31,0.09891
6617.53,0.10052
6611.74,0.10523
6605.95,0.10195
6600.17,0.10082
6594.38,0.10216
6588.59,0.10130
6582.81,0.09797
6577.02,0.09916
6571.24,0.10117
6565.45,0.10435
6559.66,0.10021
6553.88,0.09956
6548.09,0.10069
6542.3,0.10121
6536.52,0.10383
6530.73,0.10252
6524.95,0.10531
6519.16,0.10091
6513.37,0.10394
6507.59,0.10127
6501.8,0.10452
6496.01,0.09847
6490.23,0.09860
6484.44,0.09921
6478.66,0.10127
6472.87,0.10087
6467.08,0.09717
6461.3,0.09875
6455.51,0.10242
6449.72,0.09736
6443.94,0.09941
6438.15,0.10137
6432.37,0.10011
6426.58,0.10033
6420.79,0.09937
6415.01,0.09964
6409.22,0.09837
6403.43,0.09547
6397.65,0.09816
6391.86,0.09979
6386.08,0.10122
6380.29,0.09786
6374.5,0.10064
6368.72,0.09824
6362.93,0.09776
6357.14,0.10316
6351.36,0.10170
6345.57,0.09918
6339.79,0.09843
6334,0.10031
6328.21,0.09874
6322.43,0.09954
6316.64,0.09903
6310.85,0.09958
6305.07,0.09798
6299.28,0.09986
6293.5,0.09266
6287.71,0.09751
6281.92,0.09578
6276.14,0.09705
6270.35,0.10008
6264.56,0.10036
6258.78,0.09838
6252.99,0.09724
6247.21,0.09973
6241.42,0.09821
6235.63,0.09835
6229.85,0.09828
6224.06,0.09768
6218.27,0.09762
6212.49,0.09815
6206.7,0.09645
6200.92,0.10049
6195.13,0.09737
6189.34,0.09654
6183.56,0.09741
6177.77,0.09690
6171.98,0.09811
6166.2,0.09850
6160.41,0.09709
6154.63,0.09766
6148.84,0.09526
6143.05,0.09682
6137.27,0.09576
6131.48,0.09455
6125.7,0.09507
6119.91,0.09469
6114.12,0.09710
6108.34,0.09721
6102.55,0.09564
6096.76,0.09394
6090.98,0.09604
6085.19,0.09621
6079.41,0.09553
6073.62,0.09464
6067.83,0.09757
6062.05,0.09821
6056.26,0.09439
6050.47,0.09615
6044.69,0.09340
6038.9,0.09334
6033.12,0.09505
6027.33,0.09316
6021.54,0.09398
6015.76,0.09281
6009.97,0.09158
6004.18,0.09088
5998.4,0.09243
5992.61,0.09099
5986.83,0.09390
5981.04,0.09553
5975.25,0.09526
5969.47,0.09440
5963.68,0.09314
5957.89,0.09131
5952.11,0.09081
5946.32,0.09203
5940.54,0.09224
5934.75,0.09108
5928.96,0.09066
5923.18,0.08948
5917.39,0.08972
5911.6,0.08952
5905.82,0.08854
5900.03,0.08586
5894.25,0.08208
5888.46,0.08313
5882.67,0.08303
5876.89,0.08084
5871.1,0.08206
5865.31,0.08187
5859.53,0.07830
5853.74,0.07863
5847.96,0.07650
5842.17,0.07407
5836.38,0.07472
5830.6,0.07282
5824.81,0.07154
5819.02,0.07483
5813.24,0.07407
5807.45,0.07671
5801.67,0.07455
5795.88,0.07847
5790.09,0.08150
5784.31,0.07677
5778.52,0.07898
5772.73,0.08067
5766.95,0.07996
5761.16,0.08016
5755.38,0.08104
5749.59,0.08011
5743.8,0.07964
5738.02,0.07848
5732.23,0.07949
5726.44,0.08159
5720.66,0.07814
5714.87,0.08016
5709.09,0.07909
5703.3,0.08229
5697.51,0.07924
5691.73,0.07951
5685.94,0.08011
5680.15,0.08061
5674.37,0.08050
5668.58,0.08197
5662.8,0.08134
5657.01,0.08209
5651.22,0.08262
5645.44,0.08189
5639.65,0.08270
5633.87,0.08198
5628.08,0.08082
5622.29,0.08091
5616.51,0.08130
5610.72,0.08203
5604.93,0.08207
5599.15,0.08264
5593.36,0.08014
5587.58,0.08225
5581.79,0.08158
5576,0.08389
5570.22,0.08493
5564.43,0.08288
5558.64,0.08523
5552.86,0.08406
5547.07,0.08327
5541.29,0.08398
5535.5,0.08401
5529.71,0.08412
5523.93,0.08404
5518.14,0.08394
5512.35,0.08357
5506.57,0.08520
5500.78,0.08501
5495,0.08414
5489.21,0.08450
5483.42,0.08314
5477.64,0.08511
5471.85,0.08230
5466.06,0.08288
5460.28,0.08241
5454.49,0.08360
5448.71,0.08326
5442.92,0.08397
5437.13,0.08525
5431.35,0.08500
5425.56,0.08484
5419.77,0.08323
5413.99,0.08265
5408.2,0.08456
5402.42,0.08391
5396.63,0.08245
5390.84,0.08494
5385.06,0.08260
5379.27,0.08126
5373.48,0.08389
5367.7,0.08355
5361.91,0.08300
5356.13,0.08391
5350.34,0.08322
5344.55,0.08386
5338.77,0.08596
5332.98,0.08425
5327.19,0.08314
5321.41,0.08329
5315.62,0.08409
5309.84,0.08491
5304.05,0.08496
5298.26,0.08436
5292.48,0.08555
5286.69,0.08405
5280.9,0.08563
5275.12,0.08329
5269.33,0.08327
5263.55,0.08295
5257.76,0.08412
5251.97,0.08350
5246.19,0.08356
5240.4,0.08271
5234.61,0.08185
5228.83,0.08222
5223.04,0.08342
5217.26,0.08318
5211.47,0.08270
5205.68,0.08198
5199.9,0.08265
5194.11,0.08365
5188.32,0.08242
5182.54,0.08344
5176.75,0.08328
5170.97,0.08299
5165.18,0.08310
5159.39,0.08221
5153.61,0.08338
5147.82,0.08317
5142.03,0.08390
5136.25,0.08294
5130.46,0.08290
5124.68,0.08299
5118.89,0.08263
5113.1,0.08262
5107.32,0.08339
5101.53,0.08258
5095.75,0.08132
5089.96,0.08162
5084.17,0.08248
5078.39,0.08248
5072.6,0.08310
5066.81,0.08255
5061.03,0.08277
5055.24,0.08389
5049.46,0.08407
5043.67,0.08305
5037.88,0.08148
5032.1,0.08282
5026.31,0.08141
5020.52,0.08242
5014.74,0.08235
5008.95,0.08214
5003.17,0.08199
4997.38,0.08208
4991.59,0.08162
4985.81,0.08210
4980.02,0.08166
4974.23,0.08140
4968.45,0.08192
4962.66,0.08084
4956.88,0.08146
4951.09,0.08244
4945.3,0.08211
4939.52,0.08151
4933.73,0.08137
4927.94,0.08220
4922.16,0.08118
4916.37,0.08099
4910.59,0.08087
4904.8,0.08176
4899.01,0.08131
4893.23,0.08126
4887.44,0.08135
4881.65,0.08098
4875.87,0.08106
4870.08,0.08102
4864.3,0.08042
4858.51,0.08092
4852.72,0.08073
4846.94,0.08153
4841.15,0.08140
4835.36,0.08068
4829.58,0.08011
4823.79,0.08058
4818.01,0.08143
4812.22,0.08098
4806.43,0.08064
4800.65,0.07999
4794.86,0.08063
4789.07,0.08037
4783.29,0.08101
4777.5,0.07923
4771.72,0.08005
4765.93,0.08097
4760.14,0.08045
4754.36,0.08019
4748.57,0.08089
4742.78,0.07998
4737,0.08070
4731.21,0.07967
4725.43,0.07977
4719.64,0.07958
4713.85,0.07919
4708.07,0.07987
4702.28,0.07991
4696.49,0.07993
4690.71,0.07885
4684.92,0.07851
4679.14,0.07852
4673.35,0.07895
4667.56,0.07915
4661.78,0.07896
4655.99,0.07978
4650.2,0.07908
4644.42,0.07882
4638.63,0.07918
4632.85,0.07879
4627.06,0.07903
4621.27,0.07884
4615.49,0.07955
4609.7,0.07918
4603.92,0.07889
4598.13,0.07894
4592.34,0.07795
4586.56,0.07853
4580.77,0.07862
4574.98,0.07823
4569.2,0.07870
4563.41,0.07857
4557.63,0.07796
4551.84,0.07770
4546.05,0.07751
4540.27,0.07716
4534.48,0.07752
4528.69,0.07733
4522.91,0.07684
4517.12,0.07599
4511.34,0.07618
4505.55,0.07604
4499.76,0.07581
4493.98,0.07606
4488.19,0.07586
4482.4,0.07555
4476.62,0.07499
4470.83,0.07362
4465.05,0.07366
4459.26,0.07387
4453.47,0.07221
4447.69,0.07225
4441.9,0.07095
4436.11,0.07029
4430.33,0.06973
4424.54,0.06947
4418.76,0.06956
4412.97,0.06800
4407.18,0.06805
4401.4,0.06786
4395.61,0.06682
4389.82,0.06676
4384.04,0.06456
4378.25,0.06373
4372.47,0.06304
4366.68,0.06247
4360.89,0.06178
4355.11,0.06186
4349.32,0.06110
4343.53,0.06110
4337.75,0.06071
4331.96,0.06073
4326.18,0.05972
4320.39,0.06044
4314.6,0.06103
4308.82,0.06135
4303.03,0.06177
4297.24,0.06188
4291.46,0.06200
4285.67,0.06127
4279.89,0.06176
4274.1,0.06225
4268.31,0.06247
4262.53,0.06229
4256.74,0.06239
4250.95,0.06175
4245.17,0.06139
4239.38,0.06185
4233.6,0.06110
4227.81,0.06125
4222.02,0.06058
4216.24,0.06183
4210.45,0.06133
4204.66,0.06076
4198.88,0.06137
4193.09,0.06230
4187.31,0.06190
4181.52,0.06159
4175.73,0.06184
4169.95,0.06156
4164.16,0.06159
4158.37,0.06179
4152.59,0.06236
4146.8,0.06259
4141.02,0.06263
4135.23,0.06271
4129.44,0.06322
4123.66,0.06348
4117.87,0.06312
4112.09,0.06235
4106.3,0.06297
4100.51,0.06294
4094.73,0.06360
4088.94,0.06255
4083.15,0.06267
4077.37,0.06240
4071.58,0.06297
4065.8,0.06332
4060.01,0.06281
4054.22,0.06323
4048.44,0.06349
4042.65,0.06366
4036.86,0.06339
4031.08,0.06351
4025.29,0.06402
4019.51,0.06403
4013.72,0.06353
4007.93,0.06345
4002.15,0.06392
3996.36,0.06362
3990.57,0.06411
3984.79,0.06401
3979,0.06463
3973.22,0.06420
3967.43,0.06472
3961.64,0.06424
3955.86,0.06479
3950.07,0.06471
3944.28,0.06521
3938.5,0.06483
3932.71,0.06417
3926.93,0.06450
3921.14,0.06473
3915.35,0.06473
3909.57,0.06473
3903.78,0.06440
3897.99,0.06479
3892.21,0.06462
3886.42,0.06465
3880.64,0.06424
3874.85,0.06476
3869.06,0.06457
3863.28,0.06439
3857.49,0.06404
3851.7,0.06380
3845.92,0.06400
3840.13,0.06405
3834.35,0.06395
3828.56,0.06463
3822.77,0.06458
3816.99,0.06405
3811.2,0.06424
3805.41,0.06429
3799.63,0.06496
3793.84,0.06473
3788.06,0.06449
3782.27,0.06446
3776.48,0.06467
3770.7,0.06508
3764.91,0.06441
3759.12,0.06458
3753.34,0.06463
3747.55,0.06536
3741.77,0.06474
3735.98,0.06544
3730.19,0.06505
3724.41,0.06536
3718.62,0.06539
3712.83,0.06530
3707.05,0.06461
3701.26,0.06390
3695.48,0.06384
3689.69,0.06329
3683.9,0.06212
3678.12,0.06143
3672.33,0.06144
3666.54,0.06154
3660.76,0.06138
3654.97,0.06132
3649.19,0.06173
3643.4,0.06197
3637.61,0.06234
3631.83,0.06220
3626.04,0.06151
3620.25,0.06110
3614.47,0.06071
3608.68,0.06139
3602.9,0.06075
3597.11,0.06060
3591.32,0.06046
3585.54,0.06070
3579.75,0.06061
3573.97,0.06026
3568.18,0.06052
3562.39,0.06066
3556.61,0.06004
3550.82,0.06011
3545.03,0.05993
3539.25,0.05992
3533.46,0.05958
3527.68,0.05950
3521.89,0.05972
3516.1,0.06025
3510.32,0.05972
3504.53,0.06018
3498.74,0.06001
3492.96,0.06046
3487.17,0.05993
3481.39,0.05975
3475.6,0.05967
3469.81,0.05850
3464.03,0.05910
3458.24,0.05849
3452.45,0.05863
3446.67,0.05950
3440.88,0.05898
3435.1,0.05882
3429.31,0.05895
3423.52,0.05873
3417.74,0.05944
3411.95,0.05857
3406.16,0.05859
3400.38,0.05862
3394.59,0.05936
3388.81,0.05955
3383.02,0.05902
3377.23,0.05868
3371.45,0.05795
3365.66,0.05849
3359.87,0.05853
3354.09,0.05880
3348.3,0.05814
3342.52,0.05860
3336.73,0.05878
3330.94,0.05844
3325.16,0.05849
3319.37,0.05833
3313.58,0.05793
3307.8,0.05879
3302.01,0.05799
3296.23,0.05831
3290.44,0.05889
3284.65,0.05833
3278.87,0.05826
3273.08,0.05865
3267.29,0.05939
3261.51,0.05813
3255.72,0.05893
3249.94,0.05878
3244.15,0.05812
3238.36,0.05763
3232.58,0.05800
3226.79,0.05858
3221,0.05923
3215.22,0.05947
3209.43,0.05897
3203.65,0.05868
3197.86,0.05802
3192.07,0.05826
3186.29,0.05816
3180.5,0.05758
3174.71,0.05847
3168.93,0.05873
3163.14,0.05822
3157.36,0.05779
3151.57,0.05894
3145.78,0.05761
3140,0.05898
3134.21,0.05794
3128.42,0.05859
3122.64,0.05787
3116.85,0.05850
3111.07,0.05781
3105.28,0.05809
3099.49,0.05765
3093.71,0.05806
3087.92,0.05748
3082.14,0.05685
3076.35,0.05691
3070.56,0.05742
3064.78,0.05694
3058.99,0.05681
3053.2,0.05676
3047.42,0.05634
3041.63,0.05603
3035.85,0.05634
3030.06,0.05580
3024.27,0.05608
3018.49,0.05554
3012.7,0.05560
3006.91,0.05553
3001.13,0.05509
2995.34,0.05499
2989.56,0.05461
2983.77,0.05504
2977.98,0.05388
2972.2,0.05401
2966.41,0.05446
2960.62,0.05453
2954.84,0.05480
2949.05,0.05516
2943.27,0.05524
2937.48,0.05518
2931.69,0.05549
2925.91,0.05572
2920.12,0.05628
2914.33,0.05688
2908.55,0.05720
2902.76,0.05731
2896.98,0.05789
2891.19,0.05712
2885.4,0.05702
2879.62,0.05661
2873.83,0.05616
2868.04,0.05654
2862.26,0.05649
2856.47,0.05685
2850.69,0.05733
2844.9,0.05744
2839.11,0.05724
2833.33,0.05689
2827.54,0.05649
2821.75,0.05708
2815.97,0.05683
2810.18,0.05683
2804.4,0.05716
2798.61,0.05699
2792.82,0.05728
2787.04,0.05733
2781.25,0.05779
2775.46,0.05730
2769.68,0.05670
2763.89,0.05710
2758.11,0.05735
2752.32,0.05722
2746.53,0.05678
2740.75,0.05697
2734.96,0.05683
2729.17,0.05720
2723.39,0.05732
2717.6,0.05681
2711.82,0.05721
2706.03,0.05670
2700.24,0.05685
2694.46,0.05681
2688.67,0.05724
2682.88,0.05731
2677.1,0.05671
2671.31,0.05703
2665.53,0.05713
2659.74,0.05663
2653.95,0.05702
2648.17,0.05695
2642.38,0.05697
2636.59,0.05679
2630.81,0.05665
2625.02,0.05642
2619.24,0.05635
2613.45,0.05654
2607.66,0.05645
2601.88,0.05622
2596.09,0.05635
2590.3,0.05655
2584.52,0.05652
2578.73,0.05628
2572.95,0.05652
2567.16,0.05620
2561.37,0.05636
2555.59,0.05635
2549.8,0.05616
2544.02,0.05641
2538.23,0.05602
2532.44,0.05597
2526.66,0.05612
2520.87,0.05626
2515.08,0.05613
2509.3,0.05631
2503.51,0.05679
2497.73,0.05683
2491.94,0.05651
2486.15,0.05636
2480.37,0.05673
2474.58,0.05652
2468.79,0.05649
2463.01,0.05671
2457.22,0.05649
2451.44,0.05608
2445.65,0.05636
2439.86,0.05680
2434.08,0.05662
2428.29,0.05629
2422.5,0.05660
2416.72,0.05681
2410.93,0.05674
2405.15,0.05648
2399.36,0.05663
2393.57,0.05613
2387.79,0.05693
2382,0.05665
2376.21,0.05664
2370.43,0.05645
2364.64,0.05617
2358.86,0.05671
2353.07,0.05652
2347.28,0.05645
2341.5,0.05646
2335.71,0.05622
2329.92,0.05634
2324.14,0.05659
2318.35,0.05639
2312.57,0.05641
2306.78,0.05603
2300.99,0.05613
2295.21,0.05664
2289.42,0.05624
2283.63,0.05622
2277.85,0.05612
2272.06,0.05643
2266.28,0.05656
2260.49,0.05632
2254.7,0.05614
2248.92,0.05595
2243.13,0.05654
2237.34,0.05641
2231.56,0.05657
2225.77,0.05637
2219.99,0.05622
2214.2,0.05624
2208.41,0.05654
2202.63,0.05645
2196.84,0.05655
2191.05,0.05671
2185.27,0.05658
2179.48,0.05704
2173.7,0.05669
2167.91,0.05654
2162.12,0.05664
2156.34,0.05693
2150.55,0.05685
2144.76,0.05688
2138.98,0.05725
2133.19,0.05723
2127.41,0.05720
2121.62,0.05684
2115.83,0.05705
2110.05,0.05706
2104.26,0.05730
2098.47,0.05751
2092.69,0.05720
2086.9,0.05711
2081.12,0.05700
2075.33,0.05743
2069.54,0.05741
2063.76,0.05756
2057.97,0.05725
2052.19,0.05726
2046.4,0.05747
2040.61,0.05705
2034.83,0.05746
2029.04,0.05732
2023.25,0.05731
2017.47,0.05725
2011.68,0.05722
2005.9,0.05752
2000.11,0.05774
1994.32,0.05776
1988.54,0.05776
1982.75,0.05775
1976.96,0.05787
1971.18,0.05812
1965.39,0.05805
1959.61,0.05861
1953.82,0.05849
1948.03,0.05874
1942.25,0.05861
1936.46,0.05862
1930.67,0.05887
1924.89,0.05880
1919.1,0.05903
1913.32,0.05887
1907.53,0.05934
1901.74,0.05964
1895.96,0.06002
1890.17,0.06020
1884.38,0.06065
1878.6,0.06080
1872.81,0.06059
1867.03,0.06094
1861.24,0.06137
1855.45,0.06162
1849.67,0.06171
1843.88,0.06184
1838.09,0.06220
1832.31,0.06224
1826.52,0.06211
1820.74,0.06197
1814.95,0.06223
1809.16,0.06200
1803.38,0.06102
1797.59,0.05739
1791.8,0.05617
1786.02,0.05773
1780.23,0.05840
1774.45,0.05869
1768.66,0.05826
1762.87,0.05682
1757.09,0.05532
1751.3,0.05398
1745.51,0.05269
1739.73,0.05252
1733.94,0.05399
1728.16,0.05516
1722.37,0.05625
1716.58,0.05643
1710.8,0.05710
1705.01,0.05815
1699.22,0.05914
1693.44,0.06000
1687.65,0.06049
1681.87,0.06162
1676.08,0.06311
1670.29,0.06472
1664.51,0.06679
1658.72,0.06892
1652.93,0.07015
1647.15,0.07085
1641.36,0.07149
1635.58,0.07219
1629.79,0.07226
1624,0.07323
1618.22,0.07312
1612.43,0.07298
1606.64,0.07222
1600.86,0.07167
1595.07,0.07423
1589.29,0.07386
1583.5,0.07211
1577.71,0.07120
1571.93,0.07363
1566.14,0.07521
1560.35,0.07642
1554.57,0.07942
1548.78,0.07984
1543,0.07721
1537.21,0.07728
1531.42,0.07986
1525.64,0.07942
1519.85,0.07731
1514.07,0.07521
1508.28,0.07322
1502.49,0.07000
1496.71,0.06742
1490.92,0.06493
1485.13,0.06224
1479.35,0.06079
1473.56,0.05965
1467.78,0.05898
1461.99,0.05964
1456.2,0.06016
1450.42,0.06113
1444.63,0.06140
1438.84,0.06250
1433.06,0.06610
1427.27,0.06988
1421.49,0.07660
1415.7,0.08198
1409.91,0.08642
1404.13,0.08532
1398.34,0.08412
1392.55,0.08522
1386.77,0.08469
1380.98,0.08221
1375.2,0.08075
1369.41,0.07943
1363.62,0.07608
1357.84,0.07157
1352.05,0.06942
1346.26,0.06748
1340.48,0.06361
1334.69,0.06196
1328.91,0.06274
1323.12,0.06303
1317.33,0.06311
1311.55,0.06292
1305.76,0.06276
1299.97,0.06258
1294.19,0.06197
1288.4,0.06105
1282.62,0.05949
1276.83,0.05805
1271.04,0.05670
1265.26,0.05634
1259.47,0.05675
1253.68,0.05934
1247.9,0.06054
1242.11,0.06122
1236.33,0.06215
1230.54,0.06292
1224.75,0.06293
1218.97,0.06237
1213.18,0.06168
1207.39,0.06077
1201.61,0.06039
1195.82,0.06027
1190.04,0.06084
1184.25,0.06024
1178.46,0.05989
1172.68,0.06066
1166.89,0.06074
1161.1,0.06094
1155.32,0.06083
1149.53,0.06106
1143.75,0.06144
1137.96,0.06024
1132.17,0.05999
1126.39,0.05866
1120.6,0.05853
1114.81,0.05777
1109.03,0.05768
1103.24,0.05772
1097.46,0.05862
1091.67,0.05891
1085.88,0.05871
1080.1,0.05845
1074.31,0.05837
1068.52,0.05901
1062.74,0.05842
1056.95,0.05851
1051.17,0.05885
1045.38,0.05863
1039.59,0.05916
1033.81,0.05865
1028.02,0.05795
1022.24,0.05790
1016.45,0.05751
1010.66,0.05791
1004.88,0.05671
999.09,0.05639
993.304,0.05640
987.518,0.05648
981.731,0.05662
975.945,0.05604
970.159,0.05661
964.373,0.05762
958.586,0.05847
952.8,0.05972
947.014,0.05965
941.228,0.05961
935.441,0.05888
929.655,0.05882
923.869,0.05887
918.083,0.05916
912.297,0.05899
906.51,0.05832
900.724,0.05812
894.938,0.05820
889.152,0.05764
883.365,0.05823
877.579,0.06075
871.793,0.06457
866.007,0.06128
860.22,0.05960
854.434,0.05832
848.648,0.05812
842.862,0.05925
837.075,0.05825
831.289,0.05907
825.503,0.05982
819.717,0.05918
813.931,0.05868
808.144,0.05823
802.358,0.05867
796.572,0.05770
790.786,0.05770
784.999,0.05756
779.213,0.05720
773.427,0.05718
767.641,0.05592
761.854,0.05586
756.068,0.05519
750.282,0.05525
744.496,0.05452
738.709,0.05407
732.923,0.05376
727.137,0.05306
721.351,0.05218
715.565,0.05139
709.778,0.05297
703.992,0.05241
698.206,0.05298
692.42,0.05453
686.633,0.05371
680.847,0.05540
675.061,0.05537
669.275,0.05507
663.488,0.05448
657.702,0.05201
651.916,0.05170
646.13,0.05226
640.343,0.05182
634.557,0.05530
628.771,0.05696
622.985,0.05671
617.198,0.05621
611.412,0.05826
605.626,0.06257
599.84,0.06587