File: 01_Data/PVC/FTIR/IS/PVC_IS_S_220818_R6.dpt
7497.03,0.11408
7491.25,0.11414
7485.46,0.12104
7479.67,0.11487
7473.89,0.11656
7468.1,0.10944
7462.32,0.11310
7456.53,0.11252
7450.74,0.10602
7444.96,0.10522
7439.17,0.10966
7433.38,0.11564
7427.6,0.11727
7421.81,0.10864
7416.03,0.11017
7410.24,0.10603
7404.45,0.10775
7398.67,0.10251
7392.88,0.11107
7387.09,0.11199
7381.31,0.11959
7375.52,0.11554
7369.74,0.10849
7363.95,0.10772
7358.16,0.10843
7352.38,0.11203
7346.59,0.11019
7340.8,0.11255
7335.02,0.11185
7329.23,0.10714
7323.45,0.10643
7317.66,0.11048
7311.87,0.11598
7306.09,0.11285
7300.3,0.10937
7294.51,0.10912
7288.73,0.10631
7282.94,0.11312
7277.16,0.10447
7271.37,0.10949
7265.58,0.10645
7259.8,0.11586
7254.01,0.11233
7248.22,0.10845
7242.44,0.10478
7236.65,0.10826
7230.87,0.11149
7225.08,0.10690
7219.29,0.10256
7213.51,0.10155
7207.72,0.10925
7201.93,0.11095
7196.15,0.10576
7190.36,0.10485
7184.58,0.10668
7178.79,0.10241
7173,0.10466
7167.22,0.10633
7161.43,0.10377
7155.65,0.10530
7149.86,0.10684
7144.07,0.10799
7138.29,0.11078
7132.5,0.10783
7126.71,0.10330
7120.93,0.11125
7115.14,0.10579
7109.36,0.10567
7103.57,0.11226
7097.78,0.10660
7092,0.10594
7086.21,0.10281
7080.42,0.10271
7074.64,0.10744
7068.85,0.10116
7063.07,0.10789
7057.28,0.10170
7051.49,0.10240
7045.71,0.10444
7039.92,0.10761
7034.13,0.10039
7028.35,0.10288
7022.56,0.10428
7016.78,0.10114
7010.99,0.10544
7005.2,0.10294
6999.42,0.10302
6993.63,0.10153
6987.84,0.10588
6982.06,0.10462
6976.27,0.10013
6970.49,0.10192
6964.7,0.10704
6958.91,0.10757
6953.13,0.10187
6947.34,0.10363
6941.55,0.10524
6935.77,0.09990
6929.98,0.10555
6924.2,0.10517
6918.41,0.09868
6912.62,0.10644
6906.84,0.10442
6901.05,0.10251
6895.26,0.10629
6889.48,0.10303
6883.69,0.10187
6877.91,0.10299
6872.12,0.10289
6866.33,0.10585
6860.55,0.10857
6854.76,0.09939
6848.97,0.10118
6843.19,0.10417
6837.4,0.10358
6831.62,0.10182
6825.83,0.10379
6820.04,0.10184
6814.26,0.10651
6808.47,0.10645
6802.68,0.10158
6796.9,0.09716
6791.11,0.10007
6785.33,0.10527
6779.54,0.10453
6773.75,0.10226
6767.97,0.10142
6762.18,0.10144
6756.39,0.10355
6750.61,0.10075
6744.82,0.09947
6739.04,0.09813
6733.25,0.10129
6727.46,0.10430
6721.68,0.10602
6715.89,0.10309
6710.1,0.10398
6704.32,0.10026
6698.53,0.10142
6692.75,0.10161
6686.96,0.10480
6681.17,0.10465
6675.39,0.10526
6669.6,0.10373
6663.82,0.10285
6658.03,0.10554
6652.24,0.10168
6646.46,0.10171
6640.67,0.09952
6634.88,0.10082
6629.1,0.09934
6623.31,0.10132
6617.53,0.10062
6611.74,0.10076
6605.95,0.09896
6600.17,0.10090
6594.38,0.10170
6588.59,0.09796
6582.81,0.10097
6577.02,0.10210
6571.24,0.10195
6565.45,0.10067
6559.66,0.09979
6553.88,0.10080
6548.09,0.09951
6542.3,0.10113
6536.52,0.10069
6530.73,0.09785
6524.95,0.10177
6519.16,0.10076
6513.37,0.09886
6507.59,0.10100
6501.8,0.10083
6496.01,0.09755
6490.23,0.09917
6484.44,0.09672
6478.66,0.10134
6472.87,0.10083
6467.08,0.10072
6461.3,0.10148
6455.51,0.09986
6449.72,0.10054
6443.94,0.10216
6438.15,0.09832
6432.37,0.09683
6426.58,0.10247
6420.79,0.09798
6415.01,0.09501
6409.22,0.09787
6403.43,0.10183
6397.65,0.09805
6391.86,0.09913
6386.08,0.09987
6380.29,0.09869
6374.5,0.09609
6368.72,0.10053
6362.93,0.09818
6357.14,0.09786
6351.36,0.10053
6345.57,0.09615
6339.79,0.09807
6334,0.09894
6328.21,0.10193
6322.43,0.09933
6316.64,0.09857
6310.85,0.09793
6305.07,0.10069
6299.28,0.09702
6293.5,0.09791
6287.71,0.09588
6281.92,0.10004
6276.14,0.09865
6270.35,0.09964
6264.56,0.09718
6258.78,0.09708
6252.99,0.09733
6247.21,0.09788
6241.42,0.09558
6235.63,0.09548
6229.85,0.09595
6224.06,0.09679
6218.27,0.09839
6212.49,0.09911
6206.7,0.09745
6200.92,0.09297
6195.13,0.09609
6189.34,0.09575
6183.56,0.09886
6177.77,0.09573
6171.98,0.09744
6166.2,0.09456
6160.41,0.09594
6154.63,0.09819
6148.84,0.09608
6143.05,0.09550
6137.27,0.09428
6131.48,0.09581
6125.7,0.09496
6119.91,0.09446
6114.12,0.09719
6108.34,0.09710
6102.55,0.09441
6096.76,0.09289
6090.98,0.09721
6085.19,0.09437
6079.41,0.09679
6073.62,0.09657
6067.83,0.09499
6062.05,0.09500
6056.26,0.09437
6050.47,0.09311
6044.69,0.09330
6038.9,0.09447
6033.12,0.09603
6027.33,0.09403
6021.54,0.08908
6015.76,0.09189
6009.97,0.09225
6004.18,0.09335
5998.4,0.09462
5992.61,0.09143
5986.83,0.09060
5981.04,0.09148
5975.25,0.09174
5969.47,0.09240
5963.68,0.09033
5957.89,0.09303
5952.11,0.09144
5946.32,0.09296
5940.54,0.09387
5934.75,0.08937
5928.96,0.08833
5923.18,0.09149
5917.39,0.08979
5911.6,0.08641
5905.82,0.08695
5900.03,0.08439
5894.25,0.08327
5888.46,0.08152
5882.67,0.08174
5876.89,0.08103
5871.1,0.08234
5865.31,0.08080
5859.53,0.08063
5853.74,0.07760
5847.96,0.07660
5842.17,0.07555
5836.38,0.07354
5830.6,0.07632
5824.81,0.07302
5819.02,0.07329
5813.24,0.07469
5807.45,0.07642
5801.67,0.07671
5795.88,0.07717
5790.09,0.07970
5784.31,0.08074
5778.52,0.07937
5772.73,0.08023
5766.95,0.07856
5761.16,0.07893
5755.38,0.08125
5749.59,0.07981
5743.8,0.07992
5738.02,0.08004
5732.23,0.07760
5726.44,0.07961
5720.66,0.08010
5714.87,0.08026
5709.09,0.07758
5703.3,0.07737
5697.51,0.07918
5691.73,0.07919
5685.94,0.08073
5680.15,0.08090
5674.37,0.07941
5668.58,0.07980
5662.8,0.08090
5657.01,0.08195
5651.22,0.08000
5645.44,0.08112
5639.65,0.08217
5633.87,0.08186
5628.08,0.08156
5622.29,0.08183
5616.51,0.08059
5610.72,0.08192
5604.93,0.08201
5599.15,0.08297
5593.36,0.08435
5587.58,0.08515
5581.79,0.08396
5576,0.08130
5570.22,0.08309
5564.43,0.08484
5558.64,0.08446
5552.86,0.08380
5547.07,0.08405
5541.29,0.08483
5535.5,0.08461
5529.71,0.08347
5523.93,0.08424
5518.14,0.08411
5512.35,0.08323
5506.57,0.08416
5500.78,0.08378
5495,0.08415
5489.21,0.08380
5483.42,0.08290
5477.64,0.08265
5471.85,0.08361
5466.06,0.08218
5460.28,0.08231
5454.49,0.08339
5448.71,0.08437
5442.92,0.08445
5437.13,0.08317
5431.35,0.08244
5425.56,0.08400
5419.77,0.08184
5413.99,0.08545
5408.2,0.08315
5402.42,0.08454
5396.63,0.08394
5390.84,0.08364
5385.06,0.08271
5379.27,0.08405
5373.48,0.08375
5367.7,0.08412
5361.91,0.08393
5356.13,0.08399
5350.34,0.08252
5344.55,0.08358
5338.77,0.08383
5332.98,0.08322
5327.19,0.08334
5321.41,0.08319
5315.62,0.08424
5309.84,0.08507
5304.05,0.08363
5298.26,0.08403
5292.48,0.08345
5286.69,0.08426
5280.9,0.08324
5275.12,0.08252
5269.33,0.08448
5263.55,0.08149
5257.76,0.08313
5251.97,0.08257
5246.19,0.08113
5240.4,0.08421
5234.61,0.08360
5228.83,0.08379
5223.04,0.08352
5217.26,0.08324
5211.47,0.08322
5205.68,0.08371
5199.9,0.08234
5194.11,0.08223
5188.32,0.08381
5182.54,0.08268
5176.75,0.08312
5170.97,0.08337
5165.18,0.08273
5159.39,0.08193
5153.61,0.08267
5147.82,0.08244
5142.03,0.08339
5136.25,0.08353
5130.46,0.08191
5124.68,0.08284
5118.89,0.08182
5113.1,0.08210
5107.32,0.08286
5101.53,0.08253
5095.75,0.08362
5089.96,0.08338
5084.17,0.08361
5078.39,0.08304
5072.6,0.08152
5066.81,0.08219
5061.03,0.08194
5055.24,0.08164
5049.46,0.08208
5043.67,0.08129
5037.88,0.08208
5032.1,0.08272
5026.31,0.08240
5020.52,0.08248
5014.74,0.08280
5008.95,0.08259
5003.17,0.08178
4997.38,0.08242
4991.59,0.08207
4985.81,0.08117
4980.02,0.08144
4974.23,0.08153
4968.45,0.08044
4962.66,0.08166
4956.88,0.08093
4951.09,0.08184
4945.3,0.08162
4939.52,0.08143
4933.73,0.08131
4927.94,0.08100
4922.16,0.08124
4916.37,0.08139
4910.59,0.08112
4904.8,0.08155
4899.01,0.08227
4893.23,0.08097
4887.44,0.08148
4881.65,0.08030
4875.87,0.08011
4870.08,0.08136
4864.3,0.08140
4858.51,0.08064
4852.72,0.08104
4846.94,0.08018
4841.15,0.08032
4835.36,0.08084
4829.58,0.08103
4823.79,0.08062
4818.01,0.08025
4812.22,0.08068
4806.43,0.08064
4800.65,0.08006
4794.86,0.07988
4789.07,0.08019
4783.29,0.08120
4777.5,0.07963
4771.72,0.07961
4765.93,0.07967
4760.14,0.07941
4754.36,0.07972
4748.57,0.07947
4742.78,0.07978
4737,0.07895
4731.21,0.07881
4725.43,0.07967
4719.64,0.07955
4713.85,0.07930
4708.07,0.07917
4702.28,0.07923
4696.49,0.07960
4690.71,0.07907
4684.92,0.07897
4679.14,0.07877
4673.35,0.07842
4667.56,0.07978
4661.78,0.07872
4655.99,0.07862
4650.2,0.07933
4644.42,0.07970
4638.63,0.07878
4632.85,0.07895
4627.06,0.07982
4621.27,0.07873
4615.49,0.07887
4609.7,0.07880
4603.92,0.07849
4598.13,0.07807
4592.34,0.07819
4586.56,0.07825
4580.77,0.07895
4574.98,0.07874
4569.2,0.07808
4563.41,0.07837
4557.63,0.07760
4551.84,0.07835
4546.05,0.07771
4540.27,0.07741
4534.48,0.07711
4528.69,0.07750
4522.91,0.07645
4517.12,0.07669
4511.34,0.07658
4505.55,0.07643
4499.76,0.07580
4493.98,0.07615
4488.19,0.07583
4482.4,0.07441
4476.62,0.07489
4470.83,0.07387
4465.05,0.07321
4459.26,0.07266
4453.47,0.07242
4447.69,0.07158
4441.9,0.07100
4436.11,0.07034
4430.33,0.06982
4424.54,0.06956
4418.76,0.06950
4412.97,0.06837
4407.18,0.06766
4401.4,0.06760
4395.61,0.06767
4389.82,0.06616
4384.04,0.06475
4378.25,0.06309
4372.47,0.06292
4366.68,0.06216
4360.89,0.06172
4355.11,0.06160
4349.32,0.06112
4343.53,0.06054
4337.75,0.05948
4331.96,0.05967
4326.18,0.06038
4320.39,0.06018
4314.6,0.06096
4308.82,0.06123
4303.03,0.06138
4297.24,0.06162
4291.46,0.06181
4285.67,0.06173
4279.89,0.06221
4274.1,0.06223
4268.31,0.06238
4262.53,0.06238
4256.74,0.06166
4250.95,0.06137
4245.17,0.06141
4239.38,0.06137
4233.6,0.06138
4227.81,0.06130
4222.02,0.06064
4216.24,0.06087
4210.45,0.06031
4204.66,0.06080
4198.88,0.06144
4193.09,0.06198
4187.31,0.06186
4181.52,0.06257
4175.73,0.06200
4169.95,0.06142
4164.16,0.06172
4158.37,0.06134
4152.59,0.06151
4146.8,0.06187
4141.02,0.06194
4135.23,0.06262
4129.44,0.06325
4123.66,0.06260
4117.87,0.06256
4112.09,0.06283
4106.3,0.06276
4100.51,0.06330
4094.73,0.06246
4088.94,0.06289
4083.15,0.06270
4077.37,0.06274
4071.58,0.06307
4065.8,0.06281
4060.01,0.06312
4054.22,0.06328
4048.44,0.06235
4042.65,0.06338
4036.86,0.06298
4031.08,0.06330
4025.29,0.06395
4019.51,0.06358
4013.72,0.06322
4007.93,0.06391
4002.15,0.06407
3996.36,0.06410
3990.57,0.06428
3984.79,0.06385
3979,0.06399
3973.22,0.06443
3967.43,0.06372
3961.64,0.06474
3955.86,0.06432
3950.07,0.06460
3944.28,0.06465
3938.5,0.06442
3932.71,0.06434
3926.93,0.06415
3921.14,0.06473
3915.35,0.06411
3909.57,0.06474
3903.78,0.06443
3897.99,0.06470
3892.21,0.06430
3886.42,0.06387
3880.64,0.06404
3874.85,0.06383
3869.06,0.06402
3863.28,0.06444
3857.49,0.06376
3851.7,0.06355
3845.92,0.06419
3840.13,0.06430
3834.35,0.06406
3828.56,0.06386
3822.77,0.06406
3816.99,0.06433
3811.2,0.06450
3805.41,0.06492
3799.63,0.06439
3793.84,0.06482
3788.06,0.06493
3782.27,0.06495
3776.48,0.06470
3770.7,0.06442
3764.91,0.06457
3759.12,0.06454
3753.34,0.06481
3747.55,0.06458
3741.77,0.06464
3735.98,0.06529
3730.19,0.06524
3724.41,0.06561
3718.62,0.06532
3712.83,0.06473
3707.05,0.06418
3701.26,0.06402
3695.48,0.06322
3689.69,0.06225
3683.9,0.06196
3678.12,0.06191
3672.33,0.06123
3666.54,0.06131
3660.76,0.06127
3654.97,0.06203
3649.19,0.06177
3643.4,0.06180
3637.61,0.06193
3631.83,0.06239
3626.04,0.06165
3620.25,0.06153
3614.47,0.06131
3608.68,0.06073
3602.9,0.06092
3597.11,0.05965
3591.32,0.05996
3585.54,0.06006
3579.75,0.06041
3573.97,0.06109
3568.18,0.06007
3562.39,0.05989
3556.61,0.06006
3550.82,0.05997
3545.03,0.05996
3539.25,0.06011
3533.46,0.05926
3527.68,0.05961
3521.89,0.05947
3516.1,0.05995
3510.32,0.05933
3504.53,0.05942
3498.74,0.05994
3492.96,0.05996
3487.17,0.05929
3481.39,0.05945
3475.6,0.05935
3469.81,0.05935
3464.03,0.05944
3458.24,0.05890
3452.45,0.05875
3446.67,0.05887
3440.88,0.05899
3435.1,0.05859
3429.31,0.05913
3423.52,0.05936
3417.74,0.05941
3411.95,0.05887
3406.16,0.05847
3400.38,0.05858
3394.59,0.05892
3388.81,0.05864
3383.02,0.05893
3377.23,0.05821
3371.45,0.05876
3365.66,0.05826
3359.87,0.05831
3354.09,0.05817
3348.3,0.05812
3342.52,0.05853
3336.73,0.05826
3330.94,0.05796
3325.16,0.05769
3319.37,0.05724
3313.58,0.05810
3307.8,0.05857
3302.01,0.05814
3296.23,0.05770
3290.44,0.05857
3284.65,0.05902
3278.87,0.05913
3273.08,0.05791
3267.29,0.05790
3261.51,0.05769
3255.72,0.05822
3249.94,0.05867
3244.15,0.05834
3238.36,0.05905
3232.58,0.05870
3226.79,0.05816
3221,0.05823
3215.22,0.05864
3209.43,0.05926
3203.65,0.05756
3197.86,0.05824
3192.07,0.05879
3186.29,0.05779
3180.5,0.05790
3174.71,0.05839
3168.93,0.05799
3163.14,0.05878
3157.36,0.05872
3151.57,0.05780
3145.78,0.05759
3140,0.05839
3134.21,0.05799
3128.42,0.05882
3122.64,0.05770
3116.85,0.05818
3111.07,0.05807
3105.28,0.05820
3099.49,0.05746
3093.71,0.05776
3087.92,0.05792
3082.14,0.05784
3076.35,0.05703
3070.56,0.05645
3064.78,0.05638
3058.99,0.05659
3053.2,0.05656
3047.42,0.05646
3041.63,0.05639
3035.85,0.05629
3030.06,0.05589
3024.27,0.05554
3018.49,0.05546
3012.7,0.05558
3006.91,0.05539
3001.13,0.05498
2995.34,0.05482
2989.56,0.05428
2983.77,0.05387
2977.98,0.05385
2972.2,0.05403
2966.41,0.05400
2960.62,0.05467
2954.84,0.05497
2949.05,0.05498
2943.27,0.05471
2937.48,0.05477
2931.69,0.05580
2925.91,0.05609
2920.12,0.05663
2914.33,0.05699
2908.55,0.05722
2902.76,0.05765
2896.98,0.05731
2891.19,0.05695
2885.4,0.05704
2879.62,0.05605
2873.83,0.05637
2868.04,0.05656
2862.26,0.05621
2856.47,0.05612
2850.69,0.05715
2844.9,0.05748
2839.11,0.05680
2833.33,0.05718
2827.54,0.05713
2821.75,0.05602
2815.97,0.05680
2810.18,0.05681
2804.4,0.05697
2798.61,0.05733
2792.82,0.05707
2787.04,0.05743
2781.25,0.05710
2775.46,0.05756
2769.68,0.05709
2763.89,0.05711
2758.11,0.05709
2752.32,0.05697
2746.53,0.05698
2740.75,0.05695
2734.96,0.05673
2729.17,0.05658
2723.39,0.05710
2717.6,0.05685
2711.82,0.05708
2706.03,0.05714
2700.24,0.05673
2694.46,0.05693
2688.67,0.05706
2682.88,0.05683
2677.1,0.05720
2671.31,0.05664
2665.53,0.05693
2659.74,0.05675
2653.95,0.05635
2648.17,0.05679
2642.38,0.05655
2636.59,0.05678
2630.81,0.05644
2625.02,0.05654
2619.24,0.05656
2613.45,0.05642
2607.66,0.05618
2601.88,0.05610
2596.09,0.05633
2590.3,0.05654
2584.52,0.05631
2578.73,0.05648
2572.95,0.05606
2567.16,0.05620
2561.37,0.05636
2555.59,0.05624
2549.8,0.05611
2544.02,0.05601
2538.23,0.05636
2532.44,0.05598
2526.66,0.05624
2520.87,0.05605
2515.08,0.05604
2509.3,0.05608
2503.51,0.05611
2497.73,0.05669
2491.94,0.05668
2486.15,0.05639
2480.37,0.05641
2474.58,0.05643
2468.79,0.05661
2463.01,0.05642
2457.22,0.05640
2451.44,0.05643
2445.65,0.05655
2439.86,0.05621
2434.08,0.05647
2428.29,0.05659
2422.5,0.05644
2416.72,0.05639
2410.93,0.05633
2405.15,0.05609
2399.36,0.05625
2393.57,0.05637
2387.79,0.05622
2382,0.05654
2376.21,0.05618
2370.43,0.05637
2364.64,0.05613
2358.86,0.05628
2353.07,0.05648
2347.28,0.05631
2341.5,0.05619
2335.71,0.05585
2329.92,0.05652
2324.14,0.05622
2318.35,0.05607
2312.57,0.05619
2306.78,0.05589
2300.99,0.05661
2295.21,0.05617
2289.42,0.05602
2283.63,0.05630
2277.85,0.05611
2272.06,0.05599
2266.28,0.05611
2260.49,0.05620
2254.7,0.05624
2248.92,0.05628
2243.13,0.05615
2237.34,0.05615
2231.56,0.05634
2225.77,0.05639
2219.99,0.05620
2214.2,0.05641
2208.41,0.05657
2202.63,0.05623
2196.84,0.05661
2191.05,0.05637
2185.27,0.05685
2179.48,0.05668
2173.7,0.05647
2167.91,0.05665
2162.12,0.05656
2156.34,0.05666
2150.55,0.05674
2144.76,0.05679
2138.98,0.05672
2133.19,0.05675
2127.41,0.05679
2121.62,0.05680
2115.83,0.05712
2110.05,0.05714
2104.26,0.05710
2098.47,0.05696
2092.69,0.05717
2086.9,0.05699
2081.12,0.05730
2075.33,0.05720
2069.54,0.05719
2063.76,0.05735
2057.97,0.05699
2052.19,0.05717
2046.4,0.05698
2040.61,0.05706
2034.83,0.05711
2029.04,0.05696
2023.25,0.05728
2017.47,0.05695
2011.68,0.05730
2005.9,0.05721
2000.11,0.05789
1994.32,0.05754
1988.54,0.05781
1982.75,0.05821
1976.96,0.05819
1971.18,0.05782
1965.39,0.05800
1959.61,0.05818
1953.82,0.05845
1948.03,0.05817
1942.25,0.05824
1936.46,0.05875
1930.67,0.05859
1924.89,0.05894
1919.1,0.05911
1913.32,0.05935
1907.53,0.05949
1901.74,0.05948
1895.96,0.05972
1890.17,0.06014
1884.38,0.06046
1878.6,0.06085
1872.81,0.06082
1867.03,0.06088
1861.24,0.06145
1855.45,0.06167
1849.67,0.06141
1843.88,0.06200
1838.09,0.06187
1832.31,0.06182
1826.52,0.06208
1820.74,0.06192
1814.95,0.06193
1809.16,0.06185
1803.38,0.06083
1797.59,0.05751
1791.8,0.05628
1786.02,0.05709
1780.23,0.05868
1774.45,0.05878
1768.66,0.05815
1762.87,0.05688
1757.09,0.05546
1751.3,0.05376
1745.51,0.05226
1739.73,0.05240
1733.94,0.05338
1728.16,0.05514
1722.37,0.05614
1716.58,0.05660
1710.8,0.05747
1705.01,0.05823
1699.22,0.05915
1693.44,0.05958
1687.65,0.06030
1681.87,0.06126
1676.08,0.06274
1670.29,0.06494
1664.51,0.06674
1658.72,0.06877
1652.93,0.06998
1647.15,0.07121
1641.36,0.07122
1635.58,0.07204
1629.79,0.07267
1624,0.07333
1618.22,0.07373
1612.43,0.07310
1606.64,0.07224
1600.86,0.07173
1595.07,0.07384
1589.29,0.07382
1583.5,0.07196
1577.71,0.07053
1571.93,0.07295
1566.14,0.07443
1560.35,0.07591
1554.57,0.07933
1548.78,0.07958
1543,0.07709
1537.21,0.07700
1531.42,0.07951
1525.64,0.07908
1519.85,0.07746
1514.07,0.07512
1508.28,0.07338
1502.49,0.07029
1496.71,0.06745
1490.92,0.06435
1485.13,0.06196
1479.35,0.06075
1473.56,0.05902
1467.78,0.05905
1461.99,0.05982
1456.2,0.06016
1450.42,0.06127
1444.63,0.06143
1438.84,0.06230
1433.06,0.06612
1427.27,0.06982
1421.49,0.07635
1415.7,0.08165
1409.91,0.08620
1404.13,0.08554
1398.34,0.08359
1392.55,0.08483
1386.77,0.08419
1380.98,0.08167
1375.2,0.08066
1369.41,0.07897
1363.62,0.07543
1357.84,0.07125
1352.05,0.06878
1346.26,0.06733
1340.48,0.06334
1334.69,0.06182
1328.91,0.06246
1323.12,0.06291
1317.33,0.06335
1311.55,0.06328
1305.76,0.06272
1299.97,0.06255
1294.19,0.06214
1288.4,0.06109
1282.62,0.05945
1276.83,0.05772
1271.04,0.05663
1265.26,0.05567
1259.47,0.05705
1253.68,0.05878
1247.9,0.06030
1242.11,0.06158
1236.33,0.06257
1230.54,0.06284
1224.75,0.06339
1218.97,0.06205
1213.18,0.06150
1207.39,0.06097
1201.61,0.06086
1195.82,0.06047
1190.04,0.06090
1184.25,0.06083
1178.46,0.05999
1172.68,0.06020
1166.89,0.06022
1161.1,0.06067
1155.32,0.06022
1149.53,0.06054
1143.75,0.06081
1137.96,0.06033
1132.17,0.05916
1126.39,0.05857
1120.6,0.05815
1114.81,0.05804
1109.03,0.05777
1103.24,0.05802
1097.46,0.05809
1091.67,0.05820
1085.88,0.05851
1080.1,0.05905
1074.31,0.05908
1068.52,0.05860
1062.74,0.05870
1056.95,0.05873
1051.17,0.05821
1045.38,0.05838
1039.59,0.05820
1033.81,0.05810
1028.02,0.05817
1022.24,0.05801
1016.45,0.05738
1010.66,0.05736
1004.88,0.05744
999.09,0.05661
993.304,0.05691
987.518,0.05586
981.731,0.05554
975.945,0.05535
970.159,0.05698
964.373,0.05793
958.586,0.05904
952.8,0.05933
947.014,0.05946
941.228,0.05936
935.441,0.05908
929.655,0.05951
923.869,0.05902
918.083,0.05907
912.297,0.05926
906.51,0.05919
900.724,0.05862
894.938,0.05816
889.152,0.05778
883.365,0.05814
877.579,0.06030
871.793,0.06476
866.007,0.06238
860.22,0.05940
854.434,0.05840
848.648,0.05826
842.862,0.05826
837.075,0.05884
831.289,0.05962
825.503,0.05859
819.717,0.05940
813.931,0.05879
808.144,0.05843
802.358,0.05804
796.572,0.05789
790.786,0.05742
784.999,0.05660
779.213,0.05680
773.427,0.05613
767.641,0.05518
761.854,0.05558
756.068,0.05478
750.282,0.05501
744.496,0.05427
738.709,0.05404
732.923,0.05421
727.137,0.05232
721.351,0.05199
715.565,0.05114
709.778,0.05323
703.992,0.05297
698.206,0.05247
692.42,0.05478
686.633,0.05485
680.847,0.05463
675.061,0.05561
669.275,0.05615
663.488,0.05253
657.702,0.05077
651.916,0.05280
646.13,0.05190
640.343,0.05280
634.557,0.05509
628.771,0.05550
622.985,0.05771
617.198,0.05870
611.412,0.06120
605.626,0.06594
599.84,0.06621