File: 01_Data/PVC/FTIR/IS/PVC_IS_S_220818_R5.dpt
7497.03,0.11640
7491.25,0.11649
7485.46,0.10836
7479.67,0.11130
7473.89,0.11427
7468.1,0.11194
7462.32,0.11289
7456.53,0.10393
7450.74,0.11243
7444.96,0.11400
7439.17,0.11102
7433.38,0.10433
7427.6,0.11150
7421.81,0.10693
7416.03,0.10883
7410.24,0.10502
7404.45,0.10999
7398.67,0.10445
7392.88,0.11039
7387.09,0.10685
7381.31,0.11528
7375.52,0.10940
7369.74,0.11053
7363.95,0.10757
7358.16,0.11252
7352.38,0.11153
7346.59,0.10921
7340.8,0.11176
7335.02,0.10997
7329.23,0.10929
7323.45,0.11320
7317.66,0.11143
7311.87,0.11163
7306.09,0.11246
7300.3,0.11201
7294.51,0.11122
7288.73,0.10893
7282.94,0.10854
7277.16,0.11322
7271.37,0.10523
7265.58,0.10743
7259.8,0.10860
7254.01,0.10977
7248.22,0.11079
7242.44,0.10866
7236.65,0.10905
7230.87,0.10750
7225.08,0.10198
7219.29,0.10252
7213.51,0.11080
7207.72,0.10871
7201.93,0.11075
7196.15,0.10724
7190.36,0.10653
7184.58,0.10467
7178.79,0.11149
7173,0.11165
7167.22,0.10559
7161.43,0.09744
7155.65,0.10264
7149.86,0.10978
7144.07,0.10703
7138.29,0.10456
7132.5,0.10680
7126.71,0.10413
7120.93,0.10577
7115.14,0.10285
7109.36,0.10640
7103.57,0.10318
7097.78,0.10387
7092,0.10864
7086.21,0.10102
7080.42,0.09973
7074.64,0.10460
7068.85,0.09708
7063.07,0.10421
7057.28,0.10936
7051.49,0.11010
7045.71,0.10110
7039.92,0.10287
7034.13,0.10492
7028.35,0.10302
7022.56,0.10620
7016.78,0.10345
7010.99,0.10617
7005.2,0.10524
6999.42,0.10038
6993.63,0.10168
6987.84,0.10725
6982.06,0.10566
6976.27,0.10347
6970.49,0.10551
6964.7,0.10066
6958.91,0.10145
6953.13,0.10293
6947.34,0.10824
6941.55,0.10323
6935.77,0.10389
6929.98,0.10492
6924.2,0.10844
6918.41,0.10418
6912.62,0.10202
6906.84,0.09821
6901.05,0.10754
6895.26,0.10721
6889.48,0.10126
6883.69,0.09608
6877.91,0.10385
6872.12,0.10477
6866.33,0.10496
6860.55,0.10111
6854.76,0.10511
6848.97,0.10609
6843.19,0.10720
6837.4,0.10397
6831.62,0.10093
6825.83,0.10419
6820.04,0.10619
6814.26,0.10321
6808.47,0.10577
6802.68,0.10671
6796.9,0.10568
6791.11,0.10294
6785.33,0.10242
6779.54,0.10188
6773.75,0.10583
6767.97,0.10203
6762.18,0.10521
6756.39,0.10426
6750.61,0.09952
6744.82,0.10091
6739.04,0.10956
6733.25,0.10499
6727.46,0.10094
6721.68,0.10025
6715.89,0.10396
6710.1,0.10213
6704.32,0.10387
6698.53,0.10010
6692.75,0.10432
6686.96,0.10153
6681.17,0.10324
6675.39,0.10081
6669.6,0.10115
6663.82,0.10293
6658.03,0.09814
6652.24,0.10347
6646.46,0.09920
6640.67,0.10102
6634.88,0.09941
6629.1,0.09907
6623.31,0.09845
6617.53,0.10175
6611.74,0.10022
6605.95,0.09889
6600.17,0.09966
6594.38,0.10005
6588.59,0.10318
6582.81,0.10393
6577.02,0.09832
6571.24,0.10176
6565.45,0.10024
6559.66,0.10431
6553.88,0.10090
6548.09,0.10068
6542.3,0.09665
6536.52,0.09883
6530.73,0.09602
6524.95,0.09761
6519.16,0.10027
6513.37,0.10201
6507.59,0.09869
6501.8,0.09785
6496.01,0.10037
6490.23,0.09642
6484.44,0.09860
6478.66,0.09679
6472.87,0.10354
6467.08,0.10578
6461.3,0.09915
6455.51,0.10071
6449.72,0.09973
6443.94,0.10295
6438.15,0.09978
6432.37,0.09541
6426.58,0.10037
6420.79,0.09928
6415.01,0.09748
6409.22,0.09841
6403.43,0.09825
6397.65,0.09937
6391.86,0.09657
6386.08,0.09764
6380.29,0.09754
6374.5,0.09705
6368.72,0.09771
6362.93,0.10245
6357.14,0.09904
6351.36,0.10009
6345.57,0.09790
6339.79,0.09718
6334,0.10127
6328.21,0.09849
6322.43,0.09861
6316.64,0.09853
6310.85,0.09770
6305.07,0.10323
6299.28,0.10111
6293.5,0.09600
6287.71,0.09783
6281.92,0.09795
6276.14,0.09808
6270.35,0.09795
6264.56,0.09861
6258.78,0.09769
6252.99,0.09683
6247.21,0.09726
6241.42,0.09767
6235.63,0.09766
6229.85,0.09765
6224.06,0.09667
6218.27,0.09488
6212.49,0.09472
6206.7,0.09582
6200.92,0.09648
6195.13,0.09335
6189.34,0.09764
6183.56,0.09623
6177.77,0.09576
6171.98,0.09891
6166.2,0.09308
6160.41,0.09675
6154.63,0.09665
6148.84,0.09679
6143.05,0.09765
6137.27,0.09782
6131.48,0.09708
6125.7,0.09591
6119.91,0.09503
6114.12,0.09614
6108.34,0.09504
6102.55,0.09668
6096.76,0.09645
6090.98,0.09627
6085.19,0.09637
6079.41,0.09591
6073.62,0.09639
6067.83,0.09536
6062.05,0.09407
6056.26,0.09503
6050.47,0.09504
6044.69,0.09596
6038.9,0.09403
6033.12,0.09332
6027.33,0.09477
6021.54,0.09617
6015.76,0.09342
6009.97,0.09392
6004.18,0.09409
5998.4,0.09267
5992.61,0.09421
5986.83,0.09323
5981.04,0.09281
5975.25,0.09235
5969.47,0.09080
5963.68,0.09270
5957.89,0.09211
5952.11,0.09307
5946.32,0.09020
5940.54,0.08933
5934.75,0.09146
5928.96,0.08869
5923.18,0.08793
5917.39,0.09052
5911.6,0.09041
5905.82,0.08935
5900.03,0.08546
5894.25,0.08414
5888.46,0.08292
5882.67,0.08148
5876.89,0.08069
5871.1,0.08023
5865.31,0.08079
5859.53,0.07676
5853.74,0.07855
5847.96,0.07775
5842.17,0.07534
5836.38,0.07270
5830.6,0.07164
5824.81,0.07132
5819.02,0.07382
5813.24,0.07500
5807.45,0.07389
5801.67,0.07658
5795.88,0.07640
5790.09,0.07793
5784.31,0.07909
5778.52,0.08154
5772.73,0.08121
5766.95,0.08181
5761.16,0.08241
5755.38,0.07944
5749.59,0.08037
5743.8,0.07976
5738.02,0.07917
5732.23,0.07827
5726.44,0.07948
5720.66,0.08116
5714.87,0.08018
5709.09,0.07888
5703.3,0.07862
5697.51,0.07770
5691.73,0.07950
5685.94,0.08277
5680.15,0.07972
5674.37,0.08242
5668.58,0.08182
5662.8,0.08188
5657.01,0.08054
5651.22,0.08270
5645.44,0.08153
5639.65,0.08388
5633.87,0.08240
5628.08,0.08261
5622.29,0.08150
5616.51,0.08375
5610.72,0.08289
5604.93,0.08213
5599.15,0.08209
5593.36,0.08187
5587.58,0.08276
5581.79,0.08275
5576,0.08254
5570.22,0.08394
5564.43,0.08547
5558.64,0.08357
5552.86,0.08308
5547.07,0.08348
5541.29,0.08434
5535.5,0.08377
5529.71,0.08368
5523.93,0.08437
5518.14,0.08298
5512.35,0.08298
5506.57,0.08493
5500.78,0.08228
5495,0.08290
5489.21,0.08308
5483.42,0.08320
5477.64,0.08277
5471.85,0.08232
5466.06,0.08376
5460.28,0.08322
5454.49,0.08211
5448.71,0.08188
5442.92,0.08254
5437.13,0.08326
5431.35,0.08374
5425.56,0.08196
5419.77,0.08391
5413.99,0.08116
5408.2,0.08289
5402.42,0.08265
5396.63,0.08208
5390.84,0.08248
5385.06,0.08424
5379.27,0.08366
5373.48,0.08357
5367.7,0.08414
5361.91,0.08258
5356.13,0.08370
5350.34,0.08294
5344.55,0.08310
5338.77,0.08126
5332.98,0.08284
5327.19,0.08273
5321.41,0.08355
5315.62,0.08363
5309.84,0.08486
5304.05,0.08309
5298.26,0.08292
5292.48,0.08328
5286.69,0.08356
5280.9,0.08339
5275.12,0.08222
5269.33,0.08385
5263.55,0.08376
5257.76,0.08408
5251.97,0.08228
5246.19,0.08342
5240.4,0.08395
5234.61,0.08387
5228.83,0.08263
5223.04,0.08287
5217.26,0.08312
5211.47,0.08421
5205.68,0.08280
5199.9,0.08320
5194.11,0.08557
5188.32,0.08347
5182.54,0.08370
5176.75,0.08474
5170.97,0.08343
5165.18,0.08299
5159.39,0.08230
5153.61,0.08306
5147.82,0.08295
5142.03,0.08265
5136.25,0.08294
5130.46,0.08187
5124.68,0.08233
5118.89,0.08204
5113.1,0.08331
5107.32,0.08232
5101.53,0.08348
5095.75,0.08345
5089.96,0.08236
5084.17,0.08180
5078.39,0.08209
5072.6,0.08298
5066.81,0.08196
5061.03,0.08311
5055.24,0.08169
5049.46,0.08215
5043.67,0.08333
5037.88,0.08166
5032.1,0.08252
5026.31,0.08179
5020.52,0.08159
5014.74,0.08193
5008.95,0.08329
5003.17,0.08202
4997.38,0.08218
4991.59,0.08283
4985.81,0.08242
4980.02,0.08220
4974.23,0.08237
4968.45,0.08247
4962.66,0.08263
4956.88,0.08186
4951.09,0.08201
4945.3,0.08094
4939.52,0.07992
4933.73,0.08072
4927.94,0.08068
4922.16,0.08183
4916.37,0.08106
4910.59,0.08188
4904.8,0.08094
4899.01,0.08164
4893.23,0.08127
4887.44,0.08095
4881.65,0.08139
4875.87,0.08090
4870.08,0.08126
4864.3,0.08075
4858.51,0.07971
4852.72,0.07989
4846.94,0.08098
4841.15,0.08065
4835.36,0.08024
4829.58,0.08011
4823.79,0.08136
4818.01,0.08081
4812.22,0.08041
4806.43,0.08069
4800.65,0.07999
4794.86,0.07999
4789.07,0.08092
4783.29,0.08027
4777.5,0.08042
4771.72,0.08000
4765.93,0.07972
4760.14,0.07943
4754.36,0.08027
4748.57,0.07965
4742.78,0.08025
4737,0.08016
4731.21,0.07966
4725.43,0.07906
4719.64,0.07950
4713.85,0.08020
4708.07,0.07906
4702.28,0.07982
4696.49,0.07891
4690.71,0.07968
4684.92,0.07890
4679.14,0.07862
4673.35,0.07878
4667.56,0.07856
4661.78,0.07939
4655.99,0.07883
4650.2,0.07879
4644.42,0.07857
4638.63,0.07850
4632.85,0.07871
4627.06,0.07953
4621.27,0.07794
4615.49,0.07848
4609.7,0.07890
4603.92,0.07828
4598.13,0.07851
4592.34,0.07883
4586.56,0.07855
4580.77,0.07820
4574.98,0.07802
4569.2,0.07878
4563.41,0.07767
4557.63,0.07776
4551.84,0.07743
4546.05,0.07739
4540.27,0.07710
4534.48,0.07698
4528.69,0.07738
4522.91,0.07753
4517.12,0.07700
4511.34,0.07684
4505.55,0.07618
4499.76,0.07661
4493.98,0.07592
4488.19,0.07476
4482.4,0.07466
4476.62,0.07528
4470.83,0.07455
4465.05,0.07429
4459.26,0.07279
4453.47,0.07324
4447.69,0.07168
4441.9,0.07114
4436.11,0.07001
4430.33,0.06976
4424.54,0.06918
4418.76,0.06879
4412.97,0.06856
4407.18,0.06720
4401.4,0.06665
4395.61,0.06615
4389.82,0.06581
4384.04,0.06502
4378.25,0.06434
4372.47,0.06318
4366.68,0.06188
4360.89,0.06208
4355.11,0.06099
4349.32,0.06071
4343.53,0.06020
4337.75,0.05965
4331.96,0.06041
4326.18,0.06029
4320.39,0.06085
4314.6,0.06011
4308.82,0.06107
4303.03,0.06078
4297.24,0.06077
4291.46,0.06188
4285.67,0.06153
4279.89,0.06163
4274.1,0.06094
4268.31,0.06117
4262.53,0.06206
4256.74,0.06167
4250.95,0.06179
4245.17,0.06163
4239.38,0.06098
4233.6,0.06090
4227.81,0.06146
4222.02,0.06041
4216.24,0.06087
4210.45,0.06095
4204.66,0.06100
4198.88,0.06079
4193.09,0.06125
4187.31,0.06146
4181.52,0.06151
4175.73,0.06114
4169.95,0.06162
4164.16,0.06186
4158.37,0.06151
4152.59,0.06178
4146.8,0.06156
4141.02,0.06245
4135.23,0.06266
4129.44,0.06237
4123.66,0.06268
4117.87,0.06301
4112.09,0.06254
4106.3,0.06243
4100.51,0.06331
4094.73,0.06268
4088.94,0.06289
4083.15,0.06273
4077.37,0.06255
4071.58,0.06279
4065.8,0.06250
4060.01,0.06302
4054.22,0.06333
4048.44,0.06328
4042.65,0.06308
4036.86,0.06291
4031.08,0.06349
4025.29,0.06275
4019.51,0.06342
4013.72,0.06394
4007.93,0.06395
4002.15,0.06355
3996.36,0.06329
3990.57,0.06390
3984.79,0.06388
3979,0.06396
3973.22,0.06437
3967.43,0.06487
3961.64,0.06438
3955.86,0.06471
3950.07,0.06452
3944.28,0.06423
3938.5,0.06494
3932.71,0.06472
3926.93,0.06448
3921.14,0.06431
3915.35,0.06421
3909.57,0.06449
3903.78,0.06368
3897.99,0.06401
3892.21,0.06463
3886.42,0.06364
3880.64,0.06452
3874.85,0.06394
3869.06,0.06358
3863.28,0.06409
3857.49,0.06410
3851.7,0.06436
3845.92,0.06384
3840.13,0.06453
3834.35,0.06413
3828.56,0.06397
3822.77,0.06344
3816.99,0.06424
3811.2,0.06427
3805.41,0.06432
3799.63,0.06443
3793.84,0.06414
3788.06,0.06474
3782.27,0.06498
3776.48,0.06430
3770.7,0.06448
3764.91,0.06487
3759.12,0.06519
3753.34,0.06505
3747.55,0.06478
3741.77,0.06480
3735.98,0.06469
3730.19,0.06493
3724.41,0.06489
3718.62,0.06554
3712.83,0.06486
3707.05,0.06451
3701.26,0.06415
3695.48,0.06389
3689.69,0.06331
3683.9,0.06207
3678.12,0.06268
3672.33,0.06176
3666.54,0.06165
3660.76,0.06152
3654.97,0.06160
3649.19,0.06198
3643.4,0.06253
3637.61,0.06219
3631.83,0.06173
3626.04,0.06131
3620.25,0.06134
3614.47,0.06161
3608.68,0.06085
3602.9,0.06057
3597.11,0.06055
3591.32,0.05995
3585.54,0.05975
3579.75,0.06006
3573.97,0.06047
3568.18,0.06012
3562.39,0.06016
3556.61,0.05981
3550.82,0.05981
3545.03,0.05988
3539.25,0.06013
3533.46,0.06010
3527.68,0.05980
3521.89,0.05948
3516.1,0.05981
3510.32,0.05977
3504.53,0.05985
3498.74,0.05905
3492.96,0.05928
3487.17,0.05865
3481.39,0.05945
3475.6,0.05908
3469.81,0.05933
3464.03,0.05953
3458.24,0.05965
3452.45,0.05945
3446.67,0.05878
3440.88,0.05909
3435.1,0.05959
3429.31,0.05861
3423.52,0.05801
3417.74,0.05918
3411.95,0.05859
3406.16,0.05877
3400.38,0.05861
3394.59,0.05855
3388.81,0.05827
3383.02,0.05866
3377.23,0.05900
3371.45,0.05871
3365.66,0.05799
3359.87,0.05796
3354.09,0.05772
3348.3,0.05843
3342.52,0.05815
3336.73,0.05837
3330.94,0.05856
3325.16,0.05795
3319.37,0.05777
3313.58,0.05848
3307.8,0.05809
3302.01,0.05844
3296.23,0.05828
3290.44,0.05812
3284.65,0.05803
3278.87,0.05879
3273.08,0.05874
3267.29,0.05795
3261.51,0.05860
3255.72,0.05911
3249.94,0.05813
3244.15,0.05793
3238.36,0.05864
3232.58,0.05869
3226.79,0.05795
3221,0.05802
3215.22,0.05817
3209.43,0.05733
3203.65,0.05777
3197.86,0.05894
3192.07,0.05821
3186.29,0.05758
3180.5,0.05763
3174.71,0.05800
3168.93,0.05807
3163.14,0.05828
3157.36,0.05783
3151.57,0.05802
3145.78,0.05757
3140,0.05797
3134.21,0.05842
3128.42,0.05823
3122.64,0.05795
3116.85,0.05849
3111.07,0.05804
3105.28,0.05831
3099.49,0.05750
3093.71,0.05729
3087.92,0.05773
3082.14,0.05741
3076.35,0.05673
3070.56,0.05702
3064.78,0.05710
3058.99,0.05698
3053.2,0.05712
3047.42,0.05637
3041.63,0.05589
3035.85,0.05612
3030.06,0.05584
3024.27,0.05600
3018.49,0.05558
3012.7,0.05565
3006.91,0.05514
3001.13,0.05450
2995.34,0.05493
2989.56,0.05427
2983.77,0.05384
2977.98,0.05370
2972.2,0.05382
2966.41,0.05437
2960.62,0.05470
2954.84,0.05479
2949.05,0.05485
2943.27,0.05488
2937.48,0.05494
2931.69,0.05532
2925.91,0.05584
2920.12,0.05633
2914.33,0.05719
2908.55,0.05719
2902.76,0.05693
2896.98,0.05688
2891.19,0.05664
2885.4,0.05716
2879.62,0.05668
2873.83,0.05615
2868.04,0.05628
2862.26,0.05631
2856.47,0.05636
2850.69,0.05699
2844.9,0.05717
2839.11,0.05715
2833.33,0.05694
2827.54,0.05692
2821.75,0.05649
2815.97,0.05698
2810.18,0.05695
2804.4,0.05670
2798.61,0.05688
2792.82,0.05674
2787.04,0.05701
2781.25,0.05706
2775.46,0.05720
2769.68,0.05702
2763.89,0.05687
2758.11,0.05709
2752.32,0.05657
2746.53,0.05701
2740.75,0.05680
2734.96,0.05692
2729.17,0.05689
2723.39,0.05710
2717.6,0.05720
2711.82,0.05677
2706.03,0.05663
2700.24,0.05732
2694.46,0.05713
2688.67,0.05675
2682.88,0.05675
2677.1,0.05704
2671.31,0.05709
2665.53,0.05691
2659.74,0.05701
2653.95,0.05694
2648.17,0.05666
2642.38,0.05708
2636.59,0.05653
2630.81,0.05679
2625.02,0.05645
2619.24,0.05645
2613.45,0.05623
2607.66,0.05634
2601.88,0.05603
2596.09,0.05614
2590.3,0.05664
2584.52,0.05640
2578.73,0.05640
2572.95,0.05620
2567.16,0.05629
2561.37,0.05634
2555.59,0.05641
2549.8,0.05622
2544.02,0.05601
2538.23,0.05595
2532.44,0.05618
2526.66,0.05588
2520.87,0.05621
2515.08,0.05587
2509.3,0.05599
2503.51,0.05624
2497.73,0.05670
2491.94,0.05651
2486.15,0.05620
2480.37,0.05637
2474.58,0.05626
2468.79,0.05647
2463.01,0.05629
2457.22,0.05614
2451.44,0.05643
2445.65,0.05638
2439.86,0.05635
2434.08,0.05642
2428.29,0.05628
2422.5,0.05625
2416.72,0.05636
2410.93,0.05624
2405.15,0.05624
2399.36,0.05633
2393.57,0.05604
2387.79,0.05641
2382,0.05633
2376.21,0.05636
2370.43,0.05636
2364.64,0.05637
2358.86,0.05642
2353.07,0.05616
2347.28,0.05609
2341.5,0.05591
2335.71,0.05619
2329.92,0.05633
2324.14,0.05622
2318.35,0.05630
2312.57,0.05599
2306.78,0.05595
2300.99,0.05633
2295.21,0.05615
2289.42,0.05624
2283.63,0.05641
2277.85,0.05627
2272.06,0.05593
2266.28,0.05623
2260.49,0.05636
2254.7,0.05591
2248.92,0.05643
2243.13,0.05599
2237.34,0.05614
2231.56,0.05664
2225.77,0.05662
2219.99,0.05639
2214.2,0.05638
2208.41,0.05624
2202.63,0.05632
2196.84,0.05637
2191.05,0.05662
2185.27,0.05637
2179.48,0.05625
2173.7,0.05619
2167.91,0.05625
2162.12,0.05654
2156.34,0.05646
2150.55,0.05703
2144.76,0.05666
2138.98,0.05667
2133.19,0.05698
2127.41,0.05691
2121.62,0.05671
2115.83,0.05672
2110.05,0.05688
2104.26,0.05701
2098.47,0.05700
2092.69,0.05684
2086.9,0.05701
2081.12,0.05691
2075.33,0.05719
2069.54,0.05706
2063.76,0.05703
2057.97,0.05735
2052.19,0.05680
2046.4,0.05723
2040.61,0.05726
2034.83,0.05730
2029.04,0.05719
2023.25,0.05737
2017.47,0.05732
2011.68,0.05755
2005.9,0.05748
2000.11,0.05750
1994.32,0.05753
1988.54,0.05803
1982.75,0.05734
1976.96,0.05789
1971.18,0.05785
1965.39,0.05801
1959.61,0.05808
1953.82,0.05815
1948.03,0.05881
1942.25,0.05853
1936.46,0.05845
1930.67,0.05861
1924.89,0.05894
1919.1,0.05920
1913.32,0.05923
1907.53,0.05934
1901.74,0.05970
1895.96,0.05989
1890.17,0.05980
1884.38,0.06049
1878.6,0.06051
1872.81,0.06078
1867.03,0.06091
1861.24,0.06130
1855.45,0.06097
1849.67,0.06155
1843.88,0.06189
1838.09,0.06164
1832.31,0.06195
1826.52,0.06198
1820.74,0.06191
1814.95,0.06178
1809.16,0.06206
1803.38,0.06038
1797.59,0.05727
1791.8,0.05667
1786.02,0.05748
1780.23,0.05843
1774.45,0.05865
1768.66,0.05840
1762.87,0.05700
1757.09,0.05526
1751.3,0.05371
1745.51,0.05260
1739.73,0.05231
1733.94,0.05356
1728.16,0.05539
1722.37,0.05615
1716.58,0.05632
1710.8,0.05684
1705.01,0.05789
1699.22,0.05943
1693.44,0.05973
1687.65,0.06017
1681.87,0.06156
1676.08,0.06296
1670.29,0.06450
1664.51,0.06696
1658.72,0.06908
1652.93,0.07043
1647.15,0.07056
1641.36,0.07154
1635.58,0.07195
1629.79,0.07264
1624,0.07265
1618.22,0.07293
1612.43,0.07282
1606.64,0.07215
1600.86,0.07210
1595.07,0.07420
1589.29,0.07399
1583.5,0.07178
1577.71,0.07095
1571.93,0.07302
1566.14,0.07459
1560.35,0.07621
1554.57,0.07971
1548.78,0.07974
1543,0.07737
1537.21,0.07717
1531.42,0.07945
1525.64,0.07924
1519.85,0.07723
1514.07,0.07543
1508.28,0.07293
1502.49,0.06992
1496.71,0.06720
1490.92,0.06445
1485.13,0.06211
1479.35,0.06006
1473.56,0.05916
1467.78,0.05902
1461.99,0.05954
1456.2,0.06016
1450.42,0.06089
1444.63,0.06119
1438.84,0.06206
1433.06,0.06609
1427.27,0.06967
1421.49,0.07620
1415.7,0.08112
1409.91,0.08601
1404.13,0.08547
1398.34,0.08394
1392.55,0.08512
1386.77,0.08412
1380.98,0.08179
1375.2,0.08042
1369.41,0.07887
1363.62,0.07556
1357.84,0.07145
1352.05,0.06923
1346.26,0.06737
1340.48,0.06342
1334.69,0.06149
1328.91,0.06229
1323.12,0.06247
1317.33,0.06327
1311.55,0.06303
1305.76,0.06262
1299.97,0.06218
1294.19,0.06184
1288.4,0.06106
1282.62,0.05918
1276.83,0.05780
1271.04,0.05660
1265.26,0.05570
1259.47,0.05676
1253.68,0.05838
1247.9,0.06029
1242.11,0.06095
1236.33,0.06215
1230.54,0.06316
1224.75,0.06327
1218.97,0.06210
1213.18,0.06093
1207.39,0.06079
1201.61,0.06012
1195.82,0.06026
1190.04,0.06038
1184.25,0.06034
1178.46,0.06009
1172.68,0.05964
1166.89,0.06061
1161.1,0.06007
1155.32,0.06005
1149.53,0.06036
1143.75,0.06045
1137.96,0.06028
1132.17,0.05935
1126.39,0.05857
1120.6,0.05794
1114.81,0.05782
1109.03,0.05793
1103.24,0.05749
1097.46,0.05799
1091.67,0.05846
1085.88,0.05860
1080.1,0.05838
1074.31,0.05877
1068.52,0.05870
1062.74,0.05822
1056.95,0.05871
1051.17,0.05840
1045.38,0.05795
1039.59,0.05821
1033.81,0.05818
1028.02,0.05811
1022.24,0.05811
1016.45,0.05759
1010.66,0.05724
1004.88,0.05708
999.09,0.05633
993.304,0.05596
987.518,0.05654
981.731,0.05561
975.945,0.05609
970.159,0.05691
964.373,0.05749
958.586,0.05830
952.8,0.05919
947.014,0.05935
941.228,0.05946
935.441,0.05939
929.655,0.05861
923.869,0.05846
918.083,0.05853
912.297,0.05837
906.51,0.05886
900.724,0.05819
894.938,0.05839
889.152,0.05794
883.365,0.05805
877.579,0.06046
871.793,0.06475
866.007,0.06142
860.22,0.05858
854.434,0.05858
848.648,0.05841
842.862,0.05898
837.075,0.05835
831.289,0.05865
825.503,0.05957
819.717,0.05931
813.931,0.05908
808.144,0.05861
802.358,0.05717
796.572,0.05759
790.786,0.05714
784.999,0.05672
779.213,0.05667
773.427,0.05620
767.641,0.05531
761.854,0.05526
756.068,0.05449
750.282,0.05450
744.496,0.05440
738.709,0.05449
732.923,0.05397
727.137,0.05226
721.351,0.05209
715.565,0.05197
709.778,0.05297
703.992,0.05236
698.206,0.05248
692.42,0.05418
686.633,0.05499
680.847,0.05385
675.061,0.05507
669.275,0.05519
663.488,0.05280
657.702,0.05212
651.916,0.05142
646.13,0.05219
640.343,0.05178
634.557,0.05539
628.771,0.05746
622.985,0.05731
617.198,0.05974
611.412,0.06250
605.626,0.06036
599.84,0.06118