File: 01_Data/PVC/FTIR/IS/PVC_IS_S_220818_R8.dpt
7497.03,0.10816
7491.25,0.11298
7485.46,0.11380
7479.67,0.10859
7473.89,0.10559
7468.1,0.10688
7462.32,0.11785
7456.53,0.11404
7450.74,0.11638
7444.96,0.11050
7439.17,0.10833
7433.38,0.11306
7427.6,0.11164
7421.81,0.11180
7416.03,0.11130
7410.24,0.10859
7404.45,0.10976
7398.67,0.11437
7392.88,0.11593
7387.09,0.11137
7381.31,0.11045
7375.52,0.10757
7369.74,0.10014
7363.95,0.11065
7358.16,0.10373
7352.38,0.11110
7346.59,0.10495
7340.8,0.11159
7335.02,0.10426
7329.23,0.11247
7323.45,0.10650
7317.66,0.10477
7311.87,0.11226
7306.09,0.10565
7300.3,0.09717
7294.51,0.11061
7288.73,0.10667
7282.94,0.11307
7277.16,0.10369
7271.37,0.10591
7265.58,0.10647
7259.8,0.10989
7254.01,0.11002
7248.22,0.10752
7242.44,0.10219
7236.65,0.10625
7230.87,0.10720
7225.08,0.10868
7219.29,0.10039
7213.51,0.11102
7207.72,0.10235
7201.93,0.10625
7196.15,0.10863
7190.36,0.10775
7184.58,0.10684
7178.79,0.11350
7173,0.10886
7167.22,0.10485
7161.43,0.10262
7155.65,0.10084
7149.86,0.10597
7144.07,0.10868
7138.29,0.10616
7132.5,0.10701
7126.71,0.10549
7120.93,0.10580
7115.14,0.10666
7109.36,0.10492
7103.57,0.10385
7097.78,0.10678
7092,0.10531
7086.21,0.10518
7080.42,0.09966
7074.64,0.10252
7068.85,0.10091
7063.07,0.10369
7057.28,0.10590
7051.49,0.10545
7045.71,0.10134
7039.92,0.10462
7034.13,0.09973
7028.35,0.10280
7022.56,0.10295
7016.78,0.10896
7010.99,0.10491
7005.2,0.10034
6999.42,0.10085
6993.63,0.10393
6987.84,0.10301
6982.06,0.10195
6976.27,0.10693
6970.49,0.09863
6964.7,0.10610
6958.91,0.10210
6953.13,0.10269
6947.34,0.10487
6941.55,0.10413
6935.77,0.10434
6929.98,0.10248
6924.2,0.10432
6918.41,0.10392
6912.62,0.09926
6906.84,0.09501
6901.05,0.10536
6895.26,0.10554
6889.48,0.10698
6883.69,0.10080
6877.91,0.10497
6872.12,0.10502
6866.33,0.10246
6860.55,0.10925
6854.76,0.10548
6848.97,0.10539
6843.19,0.10341
6837.4,0.11119
6831.62,0.10560
6825.83,0.10261
6820.04,0.10133
6814.26,0.10308
6808.47,0.10171
6802.68,0.10269
6796.9,0.10542
6791.11,0.10409
6785.33,0.10362
6779.54,0.10095
6773.75,0.10196
6767.97,0.09833
6762.18,0.10130
6756.39,0.09997
6750.61,0.10017
6744.82,0.09744
6739.04,0.10420
6733.25,0.10377
6727.46,0.10667
6721.68,0.09979
6715.89,0.10283
6710.1,0.10300
6704.32,0.10420
6698.53,0.10022
6692.75,0.10336
6686.96,0.10009
6681.17,0.10638
6675.39,0.10031
6669.6,0.10218
6663.82,0.10360
6658.03,0.10330
6652.24,0.10356
6646.46,0.10029
6640.67,0.10006
6634.88,0.10046
6629.1,0.10097
6623.31,0.10494
6617.53,0.10156
6611.74,0.09958
6605.95,0.09973
6600.17,0.10110
6594.38,0.10073
6588.59,0.09833
6582.81,0.10394
6577.02,0.10431
6571.24,0.10402
6565.45,0.09712
6559.66,0.10058
6553.88,0.10334
6548.09,0.09762
6542.3,0.10073
6536.52,0.10268
6530.73,0.10084
6524.95,0.10210
6519.16,0.10411
6513.37,0.10228
6507.59,0.10156
6501.8,0.09971
6496.01,0.09541
6490.23,0.10021
6484.44,0.10308
6478.66,0.10082
6472.87,0.09789
6467.08,0.09819
6461.3,0.09686
6455.51,0.09886
6449.72,0.10096
6443.94,0.09896
6438.15,0.09862
6432.37,0.10286
6426.58,0.09887
6420.79,0.09854
6415.01,0.09624
6409.22,0.09857
6403.43,0.09784
6397.65,0.09703
6391.86,0.09823
6386.08,0.09948
6380.29,0.09843
6374.5,0.09742
6368.72,0.09627
6362.93,0.09999
6357.14,0.09690
6351.36,0.10009
6345.57,0.09894
6339.79,0.09684
6334,0.09886
6328.21,0.09610
6322.43,0.09956
6316.64,0.09899
6310.85,0.09835
6305.07,0.09621
6299.28,0.09465
6293.5,0.09825
6287.71,0.09830
6281.92,0.09961
6276.14,0.09757
6270.35,0.09943
6264.56,0.09613
6258.78,0.09722
6252.99,0.09609
6247.21,0.09736
6241.42,0.09659
6235.63,0.09630
6229.85,0.09647
6224.06,0.09634
6218.27,0.09597
6212.49,0.09738
6206.7,0.09553
6200.92,0.09725
6195.13,0.09561
6189.34,0.09803
6183.56,0.09607
6177.77,0.09526
6171.98,0.09409
6166.2,0.09504
6160.41,0.09826
6154.63,0.09612
6148.84,0.09741
6143.05,0.09433
6137.27,0.09602
6131.48,0.09458
6125.7,0.09372
6119.91,0.09469
6114.12,0.09662
6108.34,0.09674
6102.55,0.09353
6096.76,0.09641
6090.98,0.09385
6085.19,0.09658
6079.41,0.09499
6073.62,0.09374
6067.83,0.09384
6062.05,0.09238
6056.26,0.09354
6050.47,0.09436
6044.69,0.09483
6038.9,0.09636
6033.12,0.09362
6027.33,0.09385
6021.54,0.09401
6015.76,0.09536
6009.97,0.09152
6004.18,0.09417
5998.4,0.09217
5992.61,0.09235
5986.83,0.09525
5981.04,0.09026
5975.25,0.09261
5969.47,0.09350
5963.68,0.09263
5957.89,0.09219
5952.11,0.09153
5946.32,0.08889
5940.54,0.09000
5934.75,0.08966
5928.96,0.08988
5923.18,0.08963
5917.39,0.08786
5911.6,0.08884
5905.82,0.08643
5900.03,0.08644
5894.25,0.08493
5888.46,0.08256
5882.67,0.08247
5876.89,0.08027
5871.1,0.07985
5865.31,0.07914
5859.53,0.07728
5853.74,0.07442
5847.96,0.07582
5842.17,0.07543
5836.38,0.07134
5830.6,0.07414
5824.81,0.07507
5819.02,0.07581
5813.24,0.07639
5807.45,0.07672
5801.67,0.07815
5795.88,0.07932
5790.09,0.07950
5784.31,0.08098
5778.52,0.07862
5772.73,0.07859
5766.95,0.08022
5761.16,0.08029
5755.38,0.08044
5749.59,0.07796
5743.8,0.08014
5738.02,0.08116
5732.23,0.07982
5726.44,0.07964
5720.66,0.07691
5714.87,0.07966
5709.09,0.08000
5703.3,0.07812
5697.51,0.08055
5691.73,0.08131
5685.94,0.08235
5680.15,0.08037
5674.37,0.08191
5668.58,0.07996
5662.8,0.08092
5657.01,0.08145
5651.22,0.08209
5645.44,0.08223
5639.65,0.08171
5633.87,0.08290
5628.08,0.08311
5622.29,0.08079
5616.51,0.08181
5610.72,0.08183
5604.93,0.08206
5599.15,0.08253
5593.36,0.08059
5587.58,0.08407
5581.79,0.08245
5576,0.08285
5570.22,0.08411
5564.43,0.08396
5558.64,0.08256
5552.86,0.08395
5547.07,0.08483
5541.29,0.08318
5535.5,0.08301
5529.71,0.08378
5523.93,0.08252
5518.14,0.08398
5512.35,0.08483
5506.57,0.08354
5500.78,0.08407
5495,0.08392
5489.21,0.08389
5483.42,0.08451
5477.64,0.08445
5471.85,0.08330
5466.06,0.08339
5460.28,0.08308
5454.49,0.08305
5448.71,0.08264
5442.92,0.08290
5437.13,0.08300
5431.35,0.08584
5425.56,0.08388
5419.77,0.08440
5413.99,0.08363
5408.2,0.08298
5402.42,0.08268
5396.63,0.08258
5390.84,0.08315
5385.06,0.08182
5379.27,0.08206
5373.48,0.08351
5367.7,0.08217
5361.91,0.08257
5356.13,0.08401
5350.34,0.08414
5344.55,0.08271
5338.77,0.08431
5332.98,0.08429
5327.19,0.08475
5321.41,0.08323
5315.62,0.08475
5309.84,0.08430
5304.05,0.08421
5298.26,0.08447
5292.48,0.08314
5286.69,0.08393
5280.9,0.08361
5275.12,0.08443
5269.33,0.08414
5263.55,0.08224
5257.76,0.08308
5251.97,0.08253
5246.19,0.08267
5240.4,0.08335
5234.61,0.08326
5228.83,0.08360
5223.04,0.08299
5217.26,0.08205
5211.47,0.08267
5205.68,0.08302
5199.9,0.08284
5194.11,0.08234
5188.32,0.08260
5182.54,0.08229
5176.75,0.08316
5170.97,0.08447
5165.18,0.08285
5159.39,0.08187
5153.61,0.08284
5147.82,0.08322
5142.03,0.08385
5136.25,0.08208
5130.46,0.08175
5124.68,0.08192
5118.89,0.08333
5113.1,0.08249
5107.32,0.08252
5101.53,0.08144
5095.75,0.08151
5089.96,0.08213
5084.17,0.08180
5078.39,0.08218
5072.6,0.08237
5066.81,0.08365
5061.03,0.08337
5055.24,0.08361
5049.46,0.08302
5043.67,0.08344
5037.88,0.08217
5032.1,0.08202
5026.31,0.08143
5020.52,0.08213
5014.74,0.08283
5008.95,0.08157
5003.17,0.08318
4997.38,0.08319
4991.59,0.08172
4985.81,0.08173
4980.02,0.08198
4974.23,0.08320
4968.45,0.08243
4962.66,0.08222
4956.88,0.08177
4951.09,0.08181
4945.3,0.08108
4939.52,0.08209
4933.73,0.08198
4927.94,0.08169
4922.16,0.08187
4916.37,0.08143
4910.59,0.08180
4904.8,0.08149
4899.01,0.08094
4893.23,0.08117
4887.44,0.08200
4881.65,0.08094
4875.87,0.08110
4870.08,0.08128
4864.3,0.08126
4858.51,0.08086
4852.72,0.08089
4846.94,0.08072
4841.15,0.07966
4835.36,0.07999
4829.58,0.08021
4823.79,0.08048
4818.01,0.08003
4812.22,0.07997
4806.43,0.07988
4800.65,0.08067
4794.86,0.08059
4789.07,0.08013
4783.29,0.07959
4777.5,0.07948
4771.72,0.07962
4765.93,0.07916
4760.14,0.07969
4754.36,0.07967
4748.57,0.08112
4742.78,0.08042
4737,0.08066
4731.21,0.07977
4725.43,0.07980
4719.64,0.07991
4713.85,0.07944
4708.07,0.07919
4702.28,0.07879
4696.49,0.07916
4690.71,0.07888
4684.92,0.07925
4679.14,0.07859
4673.35,0.07860
4667.56,0.07795
4661.78,0.07844
4655.99,0.07826
4650.2,0.07977
4644.42,0.07865
4638.63,0.07913
4632.85,0.07863
4627.06,0.07891
4621.27,0.07834
4615.49,0.07865
4609.7,0.07855
4603.92,0.07822
4598.13,0.07868
4592.34,0.07878
4586.56,0.07779
4580.77,0.07819
4574.98,0.07825
4569.2,0.07794
4563.41,0.07799
4557.63,0.07752
4551.84,0.07755
4546.05,0.07727
4540.27,0.07761
4534.48,0.07839
4528.69,0.07773
4522.91,0.07724
4517.12,0.07697
4511.34,0.07735
4505.55,0.07699
4499.76,0.07585
4493.98,0.07589
4488.19,0.07550
4482.4,0.07553
4476.62,0.07461
4470.83,0.07436
4465.05,0.07405
4459.26,0.07336
4453.47,0.07252
4447.69,0.07161
4441.9,0.07228
4436.11,0.07048
4430.33,0.06976
4424.54,0.06986
4418.76,0.06866
4412.97,0.06902
4407.18,0.06804
4401.4,0.06749
4395.61,0.06695
4389.82,0.06620
4384.04,0.06456
4378.25,0.06391
4372.47,0.06306
4366.68,0.06199
4360.89,0.06186
4355.11,0.06149
4349.32,0.06140
4343.53,0.06101
4337.75,0.06004
4331.96,0.06006
4326.18,0.05999
4320.39,0.06027
4314.6,0.06110
4308.82,0.06147
4303.03,0.06164
4297.24,0.06139
4291.46,0.06187
4285.67,0.06152
4279.89,0.06175
4274.1,0.06138
4268.31,0.06221
4262.53,0.06244
4256.74,0.06167
4250.95,0.06092
4245.17,0.06180
4239.38,0.06143
4233.6,0.06099
4227.81,0.06072
4222.02,0.06071
4216.24,0.06065
4210.45,0.06116
4204.66,0.06147
4198.88,0.06089
4193.09,0.06134
4187.31,0.06160
4181.52,0.06097
4175.73,0.06113
4169.95,0.06151
4164.16,0.06194
4158.37,0.06206
4152.59,0.06141
4146.8,0.06191
4141.02,0.06285
4135.23,0.06264
4129.44,0.06316
4123.66,0.06316
4117.87,0.06265
4112.09,0.06342
4106.3,0.06268
4100.51,0.06284
4094.73,0.06316
4088.94,0.06303
4083.15,0.06300
4077.37,0.06284
4071.58,0.06329
4065.8,0.06253
4060.01,0.06305
4054.22,0.06335
4048.44,0.06401
4042.65,0.06358
4036.86,0.06362
4031.08,0.06384
4025.29,0.06397
4019.51,0.06366
4013.72,0.06320
4007.93,0.06319
4002.15,0.06323
3996.36,0.06389
3990.57,0.06390
3984.79,0.06386
3979,0.06455
3973.22,0.06402
3967.43,0.06422
3961.64,0.06431
3955.86,0.06484
3950.07,0.06528
3944.28,0.06444
3938.5,0.06469
3932.71,0.06496
3926.93,0.06489
3921.14,0.06451
3915.35,0.06439
3909.57,0.06477
3903.78,0.06429
3897.99,0.06406
3892.21,0.06381
3886.42,0.06385
3880.64,0.06380
3874.85,0.06387
3869.06,0.06404
3863.28,0.06428
3857.49,0.06402
3851.7,0.06438
3845.92,0.06455
3840.13,0.06419
3834.35,0.06417
3828.56,0.06434
3822.77,0.06409
3816.99,0.06477
3811.2,0.06497
3805.41,0.06478
3799.63,0.06482
3793.84,0.06483
3788.06,0.06409
3782.27,0.06543
3776.48,0.06485
3770.7,0.06506
3764.91,0.06476
3759.12,0.06446
3753.34,0.06530
3747.55,0.06526
3741.77,0.06501
3735.98,0.06497
3730.19,0.06497
3724.41,0.06591
3718.62,0.06502
3712.83,0.06413
3707.05,0.06450
3701.26,0.06406
3695.48,0.06374
3689.69,0.06287
3683.9,0.06212
3678.12,0.06186
3672.33,0.06210
3666.54,0.06153
3660.76,0.06135
3654.97,0.06214
3649.19,0.06145
3643.4,0.06166
3637.61,0.06190
3631.83,0.06200
3626.04,0.06152
3620.25,0.06150
3614.47,0.06080
3608.68,0.06042
3602.9,0.06074
3597.11,0.06043
3591.32,0.06031
3585.54,0.06034
3579.75,0.05978
3573.97,0.06062
3568.18,0.06007
3562.39,0.06031
3556.61,0.06012
3550.82,0.06006
3545.03,0.05994
3539.25,0.05960
3533.46,0.05970
3527.68,0.06006
3521.89,0.05948
3516.1,0.05947
3510.32,0.05998
3504.53,0.05917
3498.74,0.05973
3492.96,0.05969
3487.17,0.06004
3481.39,0.05984
3475.6,0.05939
3469.81,0.05932
3464.03,0.05935
3458.24,0.05872
3452.45,0.05862
3446.67,0.05839
3440.88,0.05854
3435.1,0.05912
3429.31,0.05887
3423.52,0.05894
3417.74,0.05899
3411.95,0.05891
3406.16,0.05895
3400.38,0.05849
3394.59,0.05929
3388.81,0.05938
3383.02,0.05946
3377.23,0.05912
3371.45,0.05878
3365.66,0.05868
3359.87,0.05795
3354.09,0.05919
3348.3,0.05880
3342.52,0.05903
3336.73,0.05785
3330.94,0.05793
3325.16,0.05858
3319.37,0.05841
3313.58,0.05814
3307.8,0.05824
3302.01,0.05816
3296.23,0.05820
3290.44,0.05799
3284.65,0.05851
3278.87,0.05844
3273.08,0.05858
3267.29,0.05785
3261.51,0.05775
3255.72,0.05851
3249.94,0.05836
3244.15,0.05890
3238.36,0.05867
3232.58,0.05872
3226.79,0.05782
3221,0.05757
3215.22,0.05881
3209.43,0.05859
3203.65,0.05764
3197.86,0.05843
3192.07,0.05872
3186.29,0.05905
3180.5,0.05790
3174.71,0.05805
3168.93,0.05815
3163.14,0.05820
3157.36,0.05820
3151.57,0.05855
3145.78,0.05894
3140,0.05811
3134.21,0.05793
3128.42,0.05833
3122.64,0.05801
3116.85,0.05865
3111.07,0.05821
3105.28,0.05701
3099.49,0.05752
3093.71,0.05731
3087.92,0.05753
3082.14,0.05727
3076.35,0.05731
3070.56,0.05677
3064.78,0.05676
3058.99,0.05723
3053.2,0.05693
3047.42,0.05683
3041.63,0.05644
3035.85,0.05606
3030.06,0.05610
3024.27,0.05591
3018.49,0.05594
3012.7,0.05559
3006.91,0.05541
3001.13,0.05493
2995.34,0.05469
2989.56,0.05423
2983.77,0.05395
2977.98,0.05381
2972.2,0.05422
2966.41,0.05428
2960.62,0.05489
2954.84,0.05480
2949.05,0.05504
2943.27,0.05446
2937.48,0.05536
2931.69,0.05527
2925.91,0.05595
2920.12,0.05628
2914.33,0.05672
2908.55,0.05707
2902.76,0.05745
2896.98,0.05739
2891.19,0.05716
2885.4,0.05636
2879.62,0.05645
2873.83,0.05606
2868.04,0.05610
2862.26,0.05625
2856.47,0.05608
2850.69,0.05735
2844.9,0.05750
2839.11,0.05667
2833.33,0.05707
2827.54,0.05668
2821.75,0.05657
2815.97,0.05648
2810.18,0.05664
2804.4,0.05692
2798.61,0.05740
2792.82,0.05720
2787.04,0.05725
2781.25,0.05712
2775.46,0.05720
2769.68,0.05732
2763.89,0.05715
2758.11,0.05683
2752.32,0.05672
2746.53,0.05713
2740.75,0.05669
2734.96,0.05701
2729.17,0.05659
2723.39,0.05712
2717.6,0.05706
2711.82,0.05706
2706.03,0.05698
2700.24,0.05686
2694.46,0.05727
2688.67,0.05730
2682.88,0.05691
2677.1,0.05701
2671.31,0.05683
2665.53,0.05682
2659.74,0.05708
2653.95,0.05658
2648.17,0.05641
2642.38,0.05648
2636.59,0.05659
2630.81,0.05614
2625.02,0.05648
2619.24,0.05629
2613.45,0.05623
2607.66,0.05641
2601.88,0.05630
2596.09,0.05609
2590.3,0.05613
2584.52,0.05624
2578.73,0.05613
2572.95,0.05622
2567.16,0.05625
2561.37,0.05593
2555.59,0.05618
2549.8,0.05606
2544.02,0.05615
2538.23,0.05632
2532.44,0.05620
2526.66,0.05597
2520.87,0.05581
2515.08,0.05576
2509.3,0.05584
2503.51,0.05619
2497.73,0.05645
2491.94,0.05656
2486.15,0.05644
2480.37,0.05642
2474.58,0.05658
2468.79,0.05658
2463.01,0.05642
2457.22,0.05669
2451.44,0.05651
2445.65,0.05646
2439.86,0.05660
2434.08,0.05634
2428.29,0.05631
2422.5,0.05648
2416.72,0.05643
2410.93,0.05635
2405.15,0.05632
2399.36,0.05659
2393.57,0.05639
2387.79,0.05638
2382,0.05615
2376.21,0.05627
2370.43,0.05652
2364.64,0.05628
2358.86,0.05596
2353.07,0.05659
2347.28,0.05664
2341.5,0.05612
2335.71,0.05649
2329.92,0.05641
2324.14,0.05595
2318.35,0.05612
2312.57,0.05640
2306.78,0.05628
2300.99,0.05625
2295.21,0.05619
2289.42,0.05649
2283.63,0.05621
2277.85,0.05605
2272.06,0.05621
2266.28,0.05626
2260.49,0.05596
2254.7,0.05647
2248.92,0.05622
2243.13,0.05621
2237.34,0.05629
2231.56,0.05629
2225.77,0.05633
2219.99,0.05648
2214.2,0.05646
2208.41,0.05663
2202.63,0.05653
2196.84,0.05662
2191.05,0.05643
2185.27,0.05649
2179.48,0.05654
2173.7,0.05644
2167.91,0.05663
2162.12,0.05651
2156.34,0.05668
2150.55,0.05649
2144.76,0.05647
2138.98,0.05668
2133.19,0.05715
2127.41,0.05699
2121.62,0.05676
2115.83,0.05706
2110.05,0.05674
2104.26,0.05736
2098.47,0.05703
2092.69,0.05702
2086.9,0.05709
2081.12,0.05711
2075.33,0.05705
2069.54,0.05723
2063.76,0.05713
2057.97,0.05736
2052.19,0.05715
2046.4,0.05714
2040.61,0.05683
2034.83,0.05704
2029.04,0.05688
2023.25,0.05733
2017.47,0.05754
2011.68,0.05783
2005.9,0.05738
2000.11,0.05719
1994.32,0.05784
1988.54,0.05757
1982.75,0.05760
1976.96,0.05796
1971.18,0.05794
1965.39,0.05795
1959.61,0.05790
1953.82,0.05804
1948.03,0.05835
1942.25,0.05840
1936.46,0.05850
1930.67,0.05879
1924.89,0.05898
1919.1,0.05933
1913.32,0.05924
1907.53,0.05942
1901.74,0.05944
1895.96,0.05986
1890.17,0.06026
1884.38,0.06025
1878.6,0.06028
1872.81,0.06088
1867.03,0.06119
1861.24,0.06142
1855.45,0.06147
1849.67,0.06177
1843.88,0.06137
1838.09,0.06184
1832.31,0.06206
1826.52,0.06200
1820.74,0.06236
1814.95,0.06178
1809.16,0.06198
1803.38,0.06082
1797.59,0.05754
1791.8,0.05635
1786.02,0.05742
1780.23,0.05828
1774.45,0.05851
1768.66,0.05827
1762.87,0.05690
1757.09,0.05546
1751.3,0.05412
1745.51,0.05258
1739.73,0.05256
1733.94,0.05401
1728.16,0.05526
1722.37,0.05599
1716.58,0.05701
1710.8,0.05732
1705.01,0.05834
1699.22,0.05923
1693.44,0.06003
1687.65,0.06071
1681.87,0.06173
1676.08,0.06290
1670.29,0.06470
1664.51,0.06668
1658.72,0.06877
1652.93,0.07006
1647.15,0.07111
1641.36,0.07134
1635.58,0.07190
1629.79,0.07273
1624,0.07317
1618.22,0.07344
1612.43,0.07319
1606.64,0.07202
1600.86,0.07189
1595.07,0.07427
1589.29,0.07391
1583.5,0.07214
1577.71,0.07082
1571.93,0.07337
1566.14,0.07470
1560.35,0.07568
1554.57,0.07920
1548.78,0.07973
1543,0.07726
1537.21,0.07722
1531.42,0.07958
1525.64,0.07936
1519.85,0.07758
1514.07,0.07558
1508.28,0.07265
1502.49,0.07050
1496.71,0.06756
1490.92,0.06444
1485.13,0.06201
1479.35,0.06061
1473.56,0.05908
1467.78,0.05892
1461.99,0.05947
1456.2,0.05998
1450.42,0.06105
1444.63,0.06154
1438.84,0.06223
1433.06,0.06621
1427.27,0.06994
1421.49,0.07618
1415.7,0.08133
1409.91,0.08573
1404.13,0.08571
1398.34,0.08411
1392.55,0.08498
1386.77,0.08424
1380.98,0.08199
1375.2,0.08051
1369.41,0.07884
1363.62,0.07553
1357.84,0.07159
1352.05,0.06935
1346.26,0.06732
1340.48,0.06323
1334.69,0.06195
1328.91,0.06264
1323.12,0.06322
1317.33,0.06305
1311.55,0.06325
1305.76,0.06294
1299.97,0.06262
1294.19,0.06201
1288.4,0.06139
1282.62,0.05965
1276.83,0.05778
1271.04,0.05645
1265.26,0.05603
1259.47,0.05670
1253.68,0.05864
1247.9,0.06017
1242.11,0.06117
1236.33,0.06243
1230.54,0.06320
1224.75,0.06328
1218.97,0.06208
1213.18,0.06120
1207.39,0.06086
1201.61,0.06027
1195.82,0.06034
1190.04,0.06074
1184.25,0.06041
1178.46,0.06032
1172.68,0.06026
1166.89,0.06076
1161.1,0.06009
1155.32,0.06079
1149.53,0.06073
1143.75,0.06095
1137.96,0.06007
1132.17,0.05949
1126.39,0.05838
1120.6,0.05791
1114.81,0.05811
1109.03,0.05777
1103.24,0.05800
1097.46,0.05818
1091.67,0.05812
1085.88,0.05881
1080.1,0.05919
1074.31,0.05925
1068.52,0.05912
1062.74,0.05909
1056.95,0.05858
1051.17,0.05908
1045.38,0.05903
1039.59,0.05856
1033.81,0.05890
1028.02,0.05836
1022.24,0.05829
1016.45,0.05757
1010.66,0.05792
1004.88,0.05717
999.09,0.05698
993.304,0.05660
987.518,0.05654
981.731,0.05597
975.945,0.05604
970.159,0.05670
964.373,0.05721
958.586,0.05824
952.8,0.05933
947.014,0.05956
941.228,0.05985
935.441,0.05972
929.655,0.05924
923.869,0.05878
918.083,0.05893
912.297,0.05905
906.51,0.05926
900.724,0.05867
894.938,0.05778
889.152,0.05762
883.365,0.05802
877.579,0.06002
871.793,0.06327
866.007,0.06240
860.22,0.05997
854.434,0.05890
848.648,0.05836
842.862,0.05923
837.075,0.05905
831.289,0.05834
825.503,0.05903
819.717,0.05916
813.931,0.05784
808.144,0.05848
802.358,0.05827
796.572,0.05829
790.786,0.05810
784.999,0.05699
779.213,0.05637
773.427,0.05692
767.641,0.05614
761.854,0.05572
756.068,0.05474
750.282,0.05485
744.496,0.05425
738.709,0.05355
732.923,0.05294
727.137,0.05253
721.351,0.05208
715.565,0.05190
709.778,0.05367
703.992,0.05185
698.206,0.05278
692.42,0.05513
686.633,0.05525
680.847,0.05429
675.061,0.05543
669.275,0.05412
663.488,0.05354
657.702,0.05147
651.916,0.05066
646.13,0.05189
640.343,0.05348
634.557,0.05571
628.771,0.05759
622.985,0.05827
617.198,0.05763
611.412,0.06059
605.626,0.06345
599.84,0.06544