File: 01_Data/PVC/FTIR/IS/PVC_IS_T_220818_R4.dpt
7497.03,0.02671
7491.25,0.01608
7485.46,0.01243
7479.67,0.02183
7473.89,0.01798
7468.1,0.01754
7462.32,0.02076
7456.53,0.02739
7450.74,0.01492
7444.96,0.02420
7439.17,0.01849
7433.38,0.02599
7427.6,0.02326
7421.81,0.02972
7416.03,0.02681
7410.24,0.01951
7404.45,0.01663
7398.67,0.02177
7392.88,0.02280
7387.09,0.02195
7381.31,0.02554
7375.52,0.01985
7369.74,0.02329
7363.95,0.02454
7358.16,0.02940
7352.38,0.02429
7346.59,0.02324
7340.8,0.01193
7335.02,0.01736
7329.23,0.01758
7323.45,0.01607
7317.66,0.02223
7311.87,0.02068
7306.09,0.01398
7300.3,0.02214
7294.51,0.02369
7288.73,0.02625
7282.94,0.02532
7277.16,0.01818
7271.37,0.02135
7265.58,0.01283
7259.8,0.02130
7254.01,0.02065
7248.22,0.01866
7242.44,0.02175
7236.65,0.01837
7230.87,0.02322
7225.08,0.02094
7219.29,0.02629
7213.51,0.01258
7207.72,0.02167
7201.93,0.01870
7196.15,0.02241
7190.36,0.02079
7184.58,0.02483
7178.79,0.02310
7173,0.02915
7167.22,0.02039
7161.43,0.01783
7155.65,0.02200
7149.86,0.01840
7144.07,0.02531
7138.29,0.02229
7132.5,0.01342
7126.71,0.02323
7120.93,0.02114
7115.14,0.02303
7109.36,0.02104
7103.57,0.02387
7097.78,0.01602
7092,0.01880
7086.21,0.02229
7080.42,0.01519
7074.64,0.01913
7068.85,0.02485
7063.07,0.01595
7057.28,0.02467
7051.49,0.02430
7045.71,0.02569
7039.92,0.01918
7034.13,0.01643
7028.35,0.02321
7022.56,0.02735
7016.78,0.01874
7010.99,0.01906
7005.2,0.01812
6999.42,0.02174
6993.63,0.02256
6987.84,0.02420
6982.06,0.02462
6976.27,0.02509
6970.49,0.01880
6964.7,0.01833
6958.91,0.02023
6953.13,0.02162
6947.34,0.02308
6941.55,0.01754
6935.77,0.02320
6929.98,0.02178
6924.2,0.02328
6918.41,0.02831
6912.62,0.02076
6906.84,0.01886
6901.05,0.02135
6895.26,0.02297
6889.48,0.02006
6883.69,0.02217
6877.91,0.01785
6872.12,0.01921
6866.33,0.02126
6860.55,0.02374
6854.76,0.02324
6848.97,0.02160
6843.19,0.02057
6837.4,0.01942
6831.62,0.01539
6825.83,0.02365
6820.04,0.02650
6814.26,0.02199
6808.47,0.02099
6802.68,0.02087
6796.9,0.02350
6791.11,0.02349
6785.33,0.02524
6779.54,0.02105
6773.75,0.02129
6767.97,0.01979
6762.18,0.02230
6756.39,0.01587
6750.61,0.01989
6744.82,0.02494
6739.04,0.01748
6733.25,0.02188
6727.46,0.01698
6721.68,0.01815
6715.89,0.01986
6710.1,0.02143
6704.32,0.02045
6698.53,0.02398
6692.75,0.01691
6686.96,0.01780
6681.17,0.02061
6675.39,0.02038
6669.6,0.01885
6663.82,0.01889
6658.03,0.02284
6652.24,0.02337
6646.46,0.01985
6640.67,0.01784
6634.88,0.01430
6629.1,0.01334
6623.31,0.01985
6617.53,0.01866
6611.74,0.01760
6605.95,0.01904
6600.17,0.02072
6594.38,0.01855
6588.59,0.01879
6582.81,0.02267
6577.02,0.01577
6571.24,0.02199
6565.45,0.01700
6559.66,0.01817
6553.88,0.01580
6548.09,0.02128
6542.3,0.02114
6536.52,0.01983
6530.73,0.01929
6524.95,0.01930
6519.16,0.02033
6513.37,0.01626
6507.59,0.01806
6501.8,0.01615
6496.01,0.01744
6490.23,0.02058
6484.44,0.01774
6478.66,0.01893
6472.87,0.02084
6467.08,0.02099
6461.3,0.01990
6455.51,0.01903
6449.72,0.01856
6443.94,0.01888
6438.15,0.02171
6432.37,0.01932
6426.58,0.01723
6420.79,0.01891
6415.01,0.01800
6409.22,0.01463
6403.43,0.01676
6397.65,0.02168
6391.86,0.02322
6386.08,0.02094
6380.29,0.02289
6374.5,0.02097
6368.72,0.02047
6362.93,0.02120
6357.14,0.01934
6351.36,0.01923
6345.57,0.01918
6339.79,0.01581
6334,0.02299
6328.21,0.01673
6322.43,0.01974
6316.64,0.02002
6310.85,0.01809
6305.07,0.02072
6299.28,0.01982
6293.5,0.01976
6287.71,0.01772
6281.92,0.01876
6276.14,0.02019
6270.35,0.02168
6264.56,0.01753
6258.78,0.01973
6252.99,0.01930
6247.21,0.01697
6241.42,0.02062
6235.63,0.01915
6229.85,0.01654
6224.06,0.02147
6218.27,0.02058
6212.49,0.02024
6206.7,0.02085
6200.92,0.01889
6195.13,0.01780
6189.34,0.02062
6183.56,0.01977
6177.77,0.01912
6171.98,0.01974
6166.2,0.01805
6160.41,0.02152
6154.63,0.01796
6148.84,0.01902
6143.05,0.02054
6137.27,0.01902
6131.48,0.02276
6125.7,0.02028
6119.91,0.01522
6114.12,0.01715
6108.34,0.01797
6102.55,0.01725
6096.76,0.01759
6090.98,0.01852
6085.19,0.01915
6079.41,0.01735
6073.62,0.01730
6067.83,0.01734
6062.05,0.01578
6056.26,0.02098
6050.47,0.02061
6044.69,0.01797
6038.9,0.02125
6033.12,0.02120
6027.33,0.01959
6021.54,0.01790
6015.76,0.01742
6009.97,0.01816
6004.18,0.01799
5998.4,0.01906
5992.61,0.01724
5986.83,0.01782
5981.04,0.01784
5975.25,0.01801
5969.47,0.01940
5963.68,0.01910
5957.89,0.01854
5952.11,0.02076
5946.32,0.01884
5940.54,0.01877
5934.75,0.01849
5928.96,0.01838
5923.18,0.01946
5917.39,0.01838
5911.6,0.01810
5905.82,0.01651
5900.03,0.01841
5894.25,0.01776
5888.46,0.01717
5882.67,0.02024
5876.89,0.01939
5871.1,0.01879
5865.31,0.01787
5859.53,0.01673
5853.74,0.01875
5847.96,0.01827
5842.17,0.01560
5836.38,0.01772
5830.6,0.01649
5824.81,0.01707
5819.02,0.01800
5813.24,0.01620
5807.45,0.02048
5801.67,0.01866
5795.88,0.01805
5790.09,0.01855
5784.31,0.01775
5778.52,0.01713
5772.73,0.01760
5766.95,0.01847
5761.16,0.01725
5755.38,0.01734
5749.59,0.01879
5743.8,0.01932
5738.02,0.01917
5732.23,0.02024
5726.44,0.01759
5720.66,0.01794
5714.87,0.01998
5709.09,0.01975
5703.3,0.01776
5697.51,0.01762
5691.73,0.01964
5685.94,0.01800
5680.15,0.01820
5674.37,0.01907
5668.58,0.01885
5662.8,0.01898
5657.01,0.02037
5651.22,0.01836
5645.44,0.01763
5639.65,0.01786
5633.87,0.02032
5628.08,0.01809
5622.29,0.02160
5616.51,0.01826
5610.72,0.02103
5604.93,0.01881
5599.15,0.01694
5593.36,0.01988
5587.58,0.01720
5581.79,0.01806
5576,0.01897
5570.22,0.01812
5564.43,0.01815
5558.64,0.01957
5552.86,0.01919
5547.07,0.02024
5541.29,0.01841
5535.5,0.01797
5529.71,0.01945
5523.93,0.02038
5518.14,0.01889
5512.35,0.01800
5506.57,0.01834
5500.78,0.01758
5495,0.02032
5489.21,0.02112
5483.42,0.01954
5477.64,0.01871
5471.85,0.01823
5466.06,0.01979
5460.28,0.01934
5454.49,0.01894
5448.71,0.02256
5442.92,0.01870
5437.13,0.01848
5431.35,0.01823
5425.56,0.01855
5419.77,0.01885
5413.99,0.01810
5408.2,0.01834
5402.42,0.01814
5396.63,0.01869
5390.84,0.01897
5385.06,0.02048
5379.27,0.01990
5373.48,0.01932
5367.7,0.01955
5361.91,0.01844
5356.13,0.01945
5350.34,0.01910
5344.55,0.01921
5338.77,0.01982
5332.98,0.02099
5327.19,0.01927
5321.41,0.02034
5315.62,0.01904
5309.84,0.01991
5304.05,0.01939
5298.26,0.02001
5292.48,0.02053
5286.69,0.01844
5280.9,0.01961
5275.12,0.01827
5269.33,0.01900
5263.55,0.02020
5257.76,0.01879
5251.97,0.02027
5246.19,0.02039
5240.4,0.01854
5234.61,0.01879
5228.83,0.01879
5223.04,0.01994
5217.26,0.01925
5211.47,0.02029
5205.68,0.01902
5199.9,0.01887
5194.11,0.01938
5188.32,0.02031
5182.54,0.02073
5176.75,0.01870
5170.97,0.01946
5165.18,0.01867
5159.39,0.01829
5153.61,0.01950
5147.82,0.01810
5142.03,0.02041
5136.25,0.02046
5130.46,0.01879
5124.68,0.01933
5118.89,0.01938
5113.1,0.01861
5107.32,0.02054
5101.53,0.02004
5095.75,0.02008
5089.96,0.01934
5084.17,0.01949
5078.39,0.01842
5072.6,0.02023
5066.81,0.01835
5061.03,0.01848
5055.24,0.02031
5049.46,0.01928
5043.67,0.01790
5037.88,0.01975
5032.1,0.02059
5026.31,0.01889
5020.52,0.01998
5014.74,0.01961
5008.95,0.01812
5003.17,0.01992
4997.38,0.02004
4991.59,0.01986
4985.81,0.02068
4980.02,0.01966
4974.23,0.01880
4968.45,0.01953
4962.66,0.01992
4956.88,0.01867
4951.09,0.01940
4945.3,0.02003
4939.52,0.01962
4933.73,0.01952
4927.94,0.02032
4922.16,0.01965
4916.37,0.01848
4910.59,0.01812
4904.8,0.01930
4899.01,0.01880
4893.23,0.01847
4887.44,0.01966
4881.65,0.01907
4875.87,0.01825
4870.08,0.01841
4864.3,0.01884
4858.51,0.01913
4852.72,0.01944
4846.94,0.01837
4841.15,0.01961
4835.36,0.01891
4829.58,0.01908
4823.79,0.01888
4818.01,0.01853
4812.22,0.01809
4806.43,0.01916
4800.65,0.01901
4794.86,0.01886
4789.07,0.01939
4783.29,0.01891
4777.5,0.02030
4771.72,0.02016
4765.93,0.01931
4760.14,0.01864
4754.36,0.01815
4748.57,0.01962
4742.78,0.01920
4737,0.01918
4731.21,0.01928
4725.43,0.01941
4719.64,0.01942
4713.85,0.01917
4708.07,0.01978
4702.28,0.01967
4696.49,0.01878
4690.71,0.01906
4684.92,0.01991
4679.14,0.02026
4673.35,0.01925
4667.56,0.01886
4661.78,0.01987
4655.99,0.01891
4650.2,0.01966
4644.42,0.01961
4638.63,0.01898
4632.85,0.02007
4627.06,0.01979
4621.27,0.01950
4615.49,0.02003
4609.7,0.01935
4603.92,0.01998
4598.13,0.01917
4592.34,0.01895
4586.56,0.01955
4580.77,0.02062
4574.98,0.02055
4569.2,0.01988
4563.41,0.01974
4557.63,0.01928
4551.84,0.01980
4546.05,0.02011
4540.27,0.01930
4534.48,0.01902
4528.69,0.01948
4522.91,0.01984
4517.12,0.01906
4511.34,0.01922
4505.55,0.02041
4499.76,0.01944
4493.98,0.01962
4488.19,0.01986
4482.4,0.01944
4476.62,0.01947
4470.83,0.01966
4465.05,0.01927
4459.26,0.01934
4453.47,0.02017
4447.69,0.01938
4441.9,0.01997
4436.11,0.02026
4430.33,0.01916
4424.54,0.01998
4418.76,0.01934
4412.97,0.01905
4407.18,0.01964
4401.4,0.01969
4395.61,0.01938
4389.82,0.02048
4384.04,0.01982
4378.25,0.01886
4372.47,0.01843
4366.68,0.01968
4360.89,0.01926
4355.11,0.01897
4349.32,0.01909
4343.53,0.01954
4337.75,0.01958
4331.96,0.02001
4326.18,0.01966
4320.39,0.01918
4314.6,0.01959
4308.82,0.01888
4303.03,0.01945
4297.24,0.01945
4291.46,0.01911
4285.67,0.01990
4279.89,0.01927
4274.1,0.01985
4268.31,0.01990
4262.53,0.01985
4256.74,0.01992
4250.95,0.01977
4245.17,0.02012
4239.38,0.01940
4233.6,0.01952
4227.81,0.01969
4222.02,0.01951
4216.24,0.01943
4210.45,0.01935
4204.66,0.01952
4198.88,0.02029
4193.09,0.01945
4187.31,0.02018
4181.52,0.01943
4175.73,0.01914
4169.95,0.01924
4164.16,0.01974
4158.37,0.01968
4152.59,0.01927
4146.8,0.01924
4141.02,0.01924
4135.23,0.01994
4129.44,0.01998
4123.66,0.02009
4117.87,0.01981
4112.09,0.01968
4106.3,0.02025
4100.51,0.01992
4094.73,0.01929
4088.94,0.01941
4083.15,0.01996
4077.37,0.01968
4071.58,0.01941
4065.8,0.01976
4060.01,0.01972
4054.22,0.01915
4048.44,0.01862
4042.65,0.01923
4036.86,0.01966
4031.08,0.01980
4025.29,0.02032
4019.51,0.02016
4013.72,0.02040
4007.93,0.01956
4002.15,0.01997
3996.36,0.02029
3990.57,0.01996
3984.79,0.01990
3979,0.02005
3973.22,0.02007
3967.43,0.01932
3961.64,0.01977
3955.86,0.01962
3950.07,0.01956
3944.28,0.01979
3938.5,0.02030
3932.71,0.01964
3926.93,0.01990
3921.14,0.01971
3915.35,0.01953
3909.57,0.01990
3903.78,0.01990
3897.99,0.01910
3892.21,0.02015
3886.42,0.01974
3880.64,0.01945
3874.85,0.02015
3869.06,0.02020
3863.28,0.01951
3857.49,0.01971
3851.7,0.01979
3845.92,0.01953
3840.13,0.01925
3834.35,0.01897
3828.56,0.02033
3822.77,0.01973
3816.99,0.01980
3811.2,0.01950
3805.41,0.01926
3799.63,0.01925
3793.84,0.01976
3788.06,0.01973
3782.27,0.01978
3776.48,0.01953
3770.7,0.02011
3764.91,0.02007
3759.12,0.01976
3753.34,0.02045
3747.55,0.01940
3741.77,0.01996
3735.98,0.01945
3730.19,0.01991
3724.41,0.01939
3718.62,0.01950
3712.83,0.01905
3707.05,0.01989
3701.26,0.01962
3695.48,0.01938
3689.69,0.01957
3683.9,0.01982
3678.12,0.01972
3672.33,0.01931
3666.54,0.01949
3660.76,0.01895
3654.97,0.01935
3649.19,0.01940
3643.4,0.01890
3637.61,0.01944
3631.83,0.01930
3626.04,0.01830
3620.25,0.01844
3614.47,0.01898
3608.68,0.01929
3602.9,0.01910
3597.11,0.01845
3591.32,0.01840
3585.54,0.01919
3579.75,0.01909
3573.97,0.01850
3568.18,0.01917
3562.39,0.01882
3556.61,0.01807
3550.82,0.01818
3545.03,0.01842
3539.25,0.01851
3533.46,0.01847
3527.68,0.01850
3521.89,0.01832
3516.1,0.01823
3510.32,0.01872
3504.53,0.01831
3498.74,0.01777
3492.96,0.01805
3487.17,0.01827
3481.39,0.01791
3475.6,0.01779
3469.81,0.01757
3464.03,0.01792
3458.24,0.01793
3452.45,0.01821
3446.67,0.01798
3440.88,0.01870
3435.1,0.01753
3429.31,0.01844
3423.52,0.01815
3417.74,0.01736
3411.95,0.01787
3406.16,0.01805
3400.38,0.01792
3394.59,0.01803
3388.81,0.01789
3383.02,0.01710
3377.23,0.01739
3371.45,0.01768
3365.66,0.01735
3359.87,0.01762
3354.09,0.01757
3348.3,0.01744
3342.52,0.01789
3336.73,0.01644
3330.94,0.01714
3325.16,0.01781
3319.37,0.01718
3313.58,0.01759
3307.8,0.01811
3302.01,0.01737
3296.23,0.01739
3290.44,0.01695
3284.65,0.01802
3278.87,0.01777
3273.08,0.01703
3267.29,0.01674
3261.51,0.01754
3255.72,0.01654
3249.94,0.01791
3244.15,0.01767
3238.36,0.01856
3232.58,0.01774
3226.79,0.01830
3221,0.01732
3215.22,0.01716
3209.43,0.01789
3203.65,0.01783
3197.86,0.01811
3192.07,0.01755
3186.29,0.01725
3180.5,0.01742
3174.71,0.01759
3168.93,0.01823
3163.14,0.01867
3157.36,0.01768
3151.57,0.01752
3145.78,0.01723
3140,0.01698
3134.21,0.01776
3128.42,0.01729
3122.64,0.01771
3116.85,0.01839
3111.07,0.01793
3105.28,0.01728
3099.49,0.01758
3093.71,0.01756
3087.92,0.01765
3082.14,0.01789
3076.35,0.01783
3070.56,0.01765
3064.78,0.01775
3058.99,0.01788
3053.2,0.01817
3047.42,0.01803
3041.63,0.01767
3035.85,0.01794
3030.06,0.01801
3024.27,0.01765
3018.49,0.01784
3012.7,0.01790
3006.91,0.01729
3001.13,0.01764
2995.34,0.01803
2989.56,0.01709
2983.77,0.01739
2977.98,0.01696
2972.2,0.01662
2966.41,0.01712
2960.62,0.01732
2954.84,0.01671
2949.05,0.01666
2943.27,0.01655
2937.48,0.01708
2931.69,0.01656
2925.91,0.01700
2920.12,0.01744
2914.33,0.01763
2908.55,0.01759
2902.76,0.01739
2896.98,0.01778
2891.19,0.01801
2885.4,0.01821
2879.62,0.01767
2873.83,0.01780
2868.04,0.01782
2862.26,0.01787
2856.47,0.01791
2850.69,0.01766
2844.9,0.01843
2839.11,0.01847
2833.33,0.01857
2827.54,0.01863
2821.75,0.01825
2815.97,0.01885
2810.18,0.01794
2804.4,0.01838
2798.61,0.01806
2792.82,0.01814
2787.04,0.01839
2781.25,0.01854
2775.46,0.01809
2769.68,0.01869
2763.89,0.01825
2758.11,0.01864
2752.32,0.01866
2746.53,0.01859
2740.75,0.01821
2734.96,0.01807
2729.17,0.01851
2723.39,0.01857
2717.6,0.01837
2711.82,0.01805
2706.03,0.01828
2700.24,0.01864
2694.46,0.01845
2688.67,0.01877
2682.88,0.01804
2677.1,0.01808
2671.31,0.01849
2665.53,0.01836
2659.74,0.01842
2653.95,0.01841
2648.17,0.01851
2642.38,0.01810
2636.59,0.01850
2630.81,0.01830
2625.02,0.01816
2619.24,0.01823
2613.45,0.01836
2607.66,0.01855
2601.88,0.01828
2596.09,0.01849
2590.3,0.01847
2584.52,0.01798
2578.73,0.01855
2572.95,0.01831
2567.16,0.01866
2561.37,0.01848
2555.59,0.01848
2549.8,0.01849
2544.02,0.01870
2538.23,0.01846
2532.44,0.01848
2526.66,0.01875
2520.87,0.01821
2515.08,0.01816
2509.3,0.01851
2503.51,0.01856
2497.73,0.01876
2491.94,0.01821
2486.15,0.01829
2480.37,0.01854
2474.58,0.01884
2468.79,0.01852
2463.01,0.01844
2457.22,0.01833
2451.44,0.01870
2445.65,0.01867
2439.86,0.01850
2434.08,0.01860
2428.29,0.01836
2422.5,0.01814
2416.72,0.01849
2410.93,0.01824
2405.15,0.01852
2399.36,0.01857
2393.57,0.01862
2387.79,0.01821
2382,0.01841
2376.21,0.01859
2370.43,0.01863
2364.64,0.01848
2358.86,0.01873
2353.07,0.01857
2347.28,0.01847
2341.5,0.01852
2335.71,0.01850
2329.92,0.01849
2324.14,0.01855
2318.35,0.01823
2312.57,0.01836
2306.78,0.01845
2300.99,0.01845
2295.21,0.01811
2289.42,0.01820
2283.63,0.01812
2277.85,0.01816
2272.06,0.01829
2266.28,0.01841
2260.49,0.01867
2254.7,0.01839
2248.92,0.01821
2243.13,0.01814
2237.34,0.01818
2231.56,0.01831
2225.77,0.01827
2219.99,0.01845
2214.2,0.01797
2208.41,0.01826
2202.63,0.01814
2196.84,0.01818
2191.05,0.01787
2185.27,0.01846
2179.48,0.01853
2173.7,0.01851
2167.91,0.01834
2162.12,0.01824
2156.34,0.01793
2150.55,0.01831
2144.76,0.01839
2138.98,0.01813
2133.19,0.01799
2127.41,0.01819
2121.62,0.01808
2115.83,0.01819
2110.05,0.01827
2104.26,0.01828
2098.47,0.01801
2092.69,0.01815
2086.9,0.01834
2081.12,0.01814
2075.33,0.01785
2069.54,0.01834
2063.76,0.01800
2057.97,0.01801
2052.19,0.01765
2046.4,0.01801
2040.61,0.01785
2034.83,0.01778
2029.04,0.01797
2023.25,0.01793
2017.47,0.01799
2011.68,0.01802
2005.9,0.01804
2000.11,0.01806
1994.32,0.01838
1988.54,0.01797
1982.75,0.01806
1976.96,0.01775
1971.18,0.01810
1965.39,0.01781
1959.61,0.01781
1953.82,0.01798
1948.03,0.01784
1942.25,0.01810
1936.46,0.01791
1930.67,0.01779
1924.89,0.01789
1919.1,0.01790
1913.32,0.01789
1907.53,0.01716
1901.74,0.01778
1895.96,0.01764
1890.17,0.01782
1884.38,0.01772
1878.6,0.01804
1872.81,0.01774
1867.03,0.01765
1861.24,0.01766
1855.45,0.01788
1849.67,0.01751
1843.88,0.01711
1838.09,0.01720
1832.31,0.01740
1826.52,0.01744
1820.74,0.01722
1814.95,0.01726
1809.16,0.01661
1803.38,0.01685
1797.59,0.01697
1791.8,0.01654
1786.02,0.01628
1780.23,0.01632
1774.45,0.01611
1768.66,0.01576
1762.87,0.01529
1757.09,0.01481
1751.3,0.01470
1745.51,0.01490
1739.73,0.01610
1733.94,0.01711
1728.16,0.01776
1722.37,0.01806
1716.58,0.01825
1710.8,0.01786
1705.01,0.01767
1699.22,0.01693
1693.44,0.01647
1687.65,0.01641
1681.87,0.01645
1676.08,0.01614
1670.29,0.01580
1664.51,0.01616
1658.72,0.01546
1652.93,0.01557
1647.15,0.01560
1641.36,0.01564
1635.58,0.01604
1629.79,0.01594
1624,0.01600
1618.22,0.01629
1612.43,0.01621
1606.64,0.01624
1600.86,0.01598
1595.07,0.01607
1589.29,0.01580
1583.5,0.01559
1577.71,0.01563
1571.93,0.01549
1566.14,0.01538
1560.35,0.01516
1554.57,0.01559
1548.78,0.01577
1543,0.01549
1537.21,0.01533
1531.42,0.01595
1525.64,0.01597
1519.85,0.01544
1514.07,0.01588
1508.28,0.01593
1502.49,0.01586
1496.71,0.01575
1490.92,0.01627
1485.13,0.01580
1479.35,0.01568
1473.56,0.01549
1467.78,0.01556
1461.99,0.01554
1456.2,0.01559
1450.42,0.01607
1444.63,0.01602
1438.84,0.01604
1433.06,0.01614
1427.27,0.01594
1421.49,0.01600
1415.7,0.01596
1409.91,0.01543
1404.13,0.01534
1398.34,0.01527
1392.55,0.01537
1386.77,0.01533
1380.98,0.01524
1375.2,0.01562
1369.41,0.01531
1363.62,0.01559
1357.84,0.01515
1352.05,0.01540
1346.26,0.01504
1340.48,0.01504
1334.69,0.01510
1328.91,0.01484
1323.12,0.01471
1317.33,0.01403
1311.55,0.01405
1305.76,0.01433
1299.97,0.01436
1294.19,0.01522
1288.4,0.01569
1282.62,0.01626
1276.83,0.01647
1271.04,0.01672
1265.26,0.01727
1259.47,0.01694
1253.68,0.01754
1247.9,0.01754
1242.11,0.01705
1236.33,0.01683
1230.54,0.01657
1224.75,0.01691
1218.97,0.01654
1213.18,0.01594
1207.39,0.01593
1201.61,0.01620
1195.82,0.01587
1190.04,0.01535
1184.25,0.01571
1178.46,0.01559
1172.68,0.01523
1166.89,0.01504
1161.1,0.01544
1155.32,0.01439
1149.53,0.01449
1143.75,0.01419
1137.96,0.01511
1132.17,0.01492
1126.39,0.01529
1120.6,0.01561
1114.81,0.01608
1109.03,0.01561
1103.24,0.01539
1097.46,0.01582
1091.67,0.01566
1085.88,0.01545
1080.1,0.01540
1074.31,0.01682
1068.52,0.01758
1062.74,0.01727
1056.95,0.01682
1051.17,0.01630
1045.38,0.01701
1039.59,0.01694
1033.81,0.01718
1028.02,0.01721
1022.24,0.01639
1016.45,0.01593
1010.66,0.01696
1004.88,0.01793
999.09,0.01823
993.304,0.01815
987.518,0.01801
981.731,0.01800
975.945,0.01690
970.159,0.01746
964.373,0.01696
958.586,0.01767
952.8,0.01704
947.014,0.01732
941.228,0.01714
935.441,0.01685
929.655,0.01696
923.869,0.01578
918.083,0.01635
912.297,0.01680
906.51,0.01661
900.724,0.01582
894.938,0.01667
889.152,0.01622
883.365,0.01612
877.579,0.01657
871.793,0.01582
866.007,0.01636
860.22,0.01648
854.434,0.01572
848.648,0.01597
842.862,0.01662
837.075,0.01604
831.289,0.01585
825.503,0.01584
819.717,0.01607
813.931,0.01645
808.144,0.01579
802.358,0.01619
796.572,0.01596
790.786,0.01659
784.999,0.01606
779.213,0.01602
773.427,0.01585
767.641,0.01544
761.854,0.01508
756.068,0.01515
750.282,0.01476
744.496,0.01496
738.709,0.01495
732.923,0.01535
727.137,0.01539
721.351,0.01486
715.565,0.01583
709.778,0.01495
703.992,0.01457
698.206,0.01411
692.42,0.01457
686.633,0.01465
680.847,0.01479
675.061,0.01452
669.275,0.01339
663.488,0.01349
657.702,0.01449
651.916,0.01378
646.13,0.01258
640.343,0.01456
634.557,0.01365
628.771,0.01262
622.985,0.01156
617.198,0.01137
611.412,0.01312
605.626,0.01190
599.84,0.01013