File: 01_Data/PVC/FTIR/IS/PVC_IS_T_220818_R6.dpt
7497.03,0.02303
7491.25,0.03101
7485.46,0.02065
7479.67,0.01936
7473.89,0.02616
7468.1,0.01390
7462.32,0.02100
7456.53,0.02052
7450.74,0.02152
7444.96,0.02022
7439.17,0.01444
7433.38,0.02233
7427.6,0.01966
7421.81,0.03532
7416.03,0.01752
7410.24,0.02007
7404.45,0.02767
7398.67,0.01559
7392.88,0.02031
7387.09,0.02205
7381.31,0.01855
7375.52,0.02413
7369.74,0.02280
7363.95,0.01681
7358.16,0.02569
7352.38,0.03118
7346.59,0.02728
7340.8,0.02003
7335.02,0.02174
7329.23,0.02626
7323.45,0.02163
7317.66,0.02074
7311.87,0.02091
7306.09,0.01964
7300.3,0.01917
7294.51,0.01772
7288.73,0.02657
7282.94,0.02418
7277.16,0.02583
7271.37,0.02233
7265.58,0.02259
7259.8,0.02544
7254.01,0.02428
7248.22,0.02418
7242.44,0.02118
7236.65,0.02427
7230.87,0.01851
7225.08,0.02634
7219.29,0.02502
7213.51,0.02370
7207.72,0.02526
7201.93,0.02067
7196.15,0.03404
7190.36,0.02149
7184.58,0.02298
7178.79,0.02896
7173,0.01747
7167.22,0.02216
7161.43,0.01745
7155.65,0.02616
7149.86,0.02479
7144.07,0.02300
7138.29,0.01525
7132.5,0.01962
7126.71,0.02624
7120.93,0.02368
7115.14,0.02369
7109.36,0.01450
7103.57,0.01954
7097.78,0.02459
7092,0.01993
7086.21,0.02300
7080.42,0.02044
7074.64,0.01963
7068.85,0.02116
7063.07,0.02095
7057.28,0.02181
7051.49,0.02080
7045.71,0.01765
7039.92,0.01896
7034.13,0.01941
7028.35,0.01811
7022.56,0.02378
7016.78,0.02602
7010.99,0.02598
7005.2,0.02325
6999.42,0.02015
6993.63,0.02411
6987.84,0.02292
6982.06,0.02546
6976.27,0.02311
6970.49,0.01917
6964.7,0.02565
6958.91,0.02100
6953.13,0.02357
6947.34,0.01930
6941.55,0.01989
6935.77,0.01793
6929.98,0.02145
6924.2,0.02168
6918.41,0.01791
6912.62,0.02285
6906.84,0.02422
6901.05,0.02000
6895.26,0.02252
6889.48,0.02380
6883.69,0.01546
6877.91,0.01641
6872.12,0.01972
6866.33,0.02252
6860.55,0.01997
6854.76,0.02306
6848.97,0.01829
6843.19,0.01997
6837.4,0.02061
6831.62,0.02507
6825.83,0.01867
6820.04,0.01596
6814.26,0.01640
6808.47,0.02150
6802.68,0.01724
6796.9,0.01749
6791.11,0.01927
6785.33,0.01692
6779.54,0.02168
6773.75,0.01935
6767.97,0.01962
6762.18,0.01939
6756.39,0.01820
6750.61,0.02075
6744.82,0.02254
6739.04,0.01602
6733.25,0.01861
6727.46,0.01992
6721.68,0.01842
6715.89,0.01272
6710.1,0.02170
6704.32,0.02202
6698.53,0.02018
6692.75,0.01574
6686.96,0.02114
6681.17,0.02122
6675.39,0.02221
6669.6,0.02368
6663.82,0.01921
6658.03,0.01968
6652.24,0.01915
6646.46,0.01618
6640.67,0.02108
6634.88,0.01906
6629.1,0.01741
6623.31,0.01771
6617.53,0.01951
6611.74,0.02093
6605.95,0.01804
6600.17,0.01935
6594.38,0.01939
6588.59,0.01959
6582.81,0.01803
6577.02,0.01744
6571.24,0.01768
6565.45,0.01809
6559.66,0.02075
6553.88,0.02172
6548.09,0.01968
6542.3,0.01632
6536.52,0.01749
6530.73,0.02008
6524.95,0.01652
6519.16,0.01867
6513.37,0.01816
6507.59,0.01789
6501.8,0.02104
6496.01,0.01977
6490.23,0.01788
6484.44,0.02137
6478.66,0.01981
6472.87,0.01937
6467.08,0.01807
6461.3,0.02104
6455.51,0.01761
6449.72,0.01727
6443.94,0.02114
6438.15,0.01738
6432.37,0.01632
6426.58,0.01481
6420.79,0.01930
6415.01,0.01955
6409.22,0.01776
6403.43,0.01694
6397.65,0.02006
6391.86,0.01798
6386.08,0.02004
6380.29,0.02293
6374.5,0.02197
6368.72,0.02112
6362.93,0.01964
6357.14,0.01916
6351.36,0.01884
6345.57,0.01859
6339.79,0.01862
6334,0.02225
6328.21,0.01615
6322.43,0.02014
6316.64,0.01787
6310.85,0.01647
6305.07,0.01761
6299.28,0.01753
6293.5,0.01677
6287.71,0.01634
6281.92,0.01873
6276.14,0.01761
6270.35,0.02105
6264.56,0.01845
6258.78,0.01831
6252.99,0.01762
6247.21,0.01719
6241.42,0.01967
6235.63,0.02159
6229.85,0.02188
6224.06,0.02103
6218.27,0.01965
6212.49,0.01793
6206.7,0.01681
6200.92,0.01678
6195.13,0.02087
6189.34,0.02077
6183.56,0.01818
6177.77,0.01983
6171.98,0.01733
6166.2,0.01730
6160.41,0.01906
6154.63,0.01919
6148.84,0.01702
6143.05,0.02057
6137.27,0.01811
6131.48,0.02027
6125.7,0.01898
6119.91,0.01968
6114.12,0.01954
6108.34,0.01589
6102.55,0.01878
6096.76,0.01865
6090.98,0.02023
6085.19,0.01767
6079.41,0.01640
6073.62,0.01676
6067.83,0.02027
6062.05,0.01684
6056.26,0.01811
6050.47,0.01754
6044.69,0.01930
6038.9,0.01855
6033.12,0.01829
6027.33,0.01736
6021.54,0.01876
6015.76,0.02162
6009.97,0.01835
6004.18,0.02001
5998.4,0.01718
5992.61,0.01644
5986.83,0.02085
5981.04,0.01827
5975.25,0.02224
5969.47,0.02201
5963.68,0.02009
5957.89,0.02009
5952.11,0.01807
5946.32,0.01777
5940.54,0.01875
5934.75,0.01791
5928.96,0.02008
5923.18,0.02030
5917.39,0.02103
5911.6,0.01823
5905.82,0.02039
5900.03,0.02007
5894.25,0.01951
5888.46,0.02016
5882.67,0.02066
5876.89,0.01554
5871.1,0.01673
5865.31,0.01661
5859.53,0.02048
5853.74,0.01852
5847.96,0.02095
5842.17,0.01840
5836.38,0.01735
5830.6,0.01776
5824.81,0.01788
5819.02,0.01747
5813.24,0.01953
5807.45,0.01950
5801.67,0.02093
5795.88,0.01912
5790.09,0.01823
5784.31,0.01853
5778.52,0.01776
5772.73,0.01905
5766.95,0.02011
5761.16,0.01687
5755.38,0.01834
5749.59,0.01852
5743.8,0.02034
5738.02,0.01836
5732.23,0.01925
5726.44,0.01966
5720.66,0.01925
5714.87,0.01714
5709.09,0.01772
5703.3,0.01746
5697.51,0.01747
5691.73,0.01963
5685.94,0.01912
5680.15,0.01683
5674.37,0.01806
5668.58,0.01913
5662.8,0.01939
5657.01,0.02061
5651.22,0.01855
5645.44,0.01975
5639.65,0.01642
5633.87,0.01742
5628.08,0.01874
5622.29,0.01715
5616.51,0.01739
5610.72,0.01708
5604.93,0.01841
5599.15,0.01964
5593.36,0.01993
5587.58,0.02047
5581.79,0.02027
5576,0.01646
5570.22,0.01919
5564.43,0.02093
5558.64,0.02078
5552.86,0.01640
5547.07,0.01879
5541.29,0.01921
5535.5,0.01743
5529.71,0.02012
5523.93,0.01849
5518.14,0.01929
5512.35,0.01829
5506.57,0.01818
5500.78,0.01747
5495,0.01959
5489.21,0.01857
5483.42,0.01865
5477.64,0.01859
5471.85,0.01806
5466.06,0.01895
5460.28,0.01968
5454.49,0.01924
5448.71,0.01992
5442.92,0.01834
5437.13,0.01851
5431.35,0.01881
5425.56,0.01884
5419.77,0.01951
5413.99,0.01953
5408.2,0.01908
5402.42,0.01875
5396.63,0.01845
5390.84,0.01858
5385.06,0.02043
5379.27,0.01931
5373.48,0.01782
5367.7,0.01808
5361.91,0.01861
5356.13,0.01907
5350.34,0.01703
5344.55,0.01871
5338.77,0.01944
5332.98,0.01913
5327.19,0.01808
5321.41,0.01732
5315.62,0.01778
5309.84,0.01722
5304.05,0.01814
5298.26,0.01865
5292.48,0.01853
5286.69,0.01873
5280.9,0.01869
5275.12,0.01891
5269.33,0.02061
5263.55,0.01994
5257.76,0.01916
5251.97,0.01958
5246.19,0.02008
5240.4,0.01946
5234.61,0.01888
5228.83,0.01988
5223.04,0.01827
5217.26,0.01879
5211.47,0.02031
5205.68,0.01975
5199.9,0.01909
5194.11,0.01937
5188.32,0.01933
5182.54,0.01932
5176.75,0.01876
5170.97,0.01865
5165.18,0.01977
5159.39,0.01932
5153.61,0.01838
5147.82,0.01886
5142.03,0.01855
5136.25,0.01924
5130.46,0.01970
5124.68,0.01869
5118.89,0.01907
5113.1,0.01957
5107.32,0.01929
5101.53,0.01818
5095.75,0.01963
5089.96,0.01764
5084.17,0.01826
5078.39,0.01830
5072.6,0.01934
5066.81,0.01823
5061.03,0.01834
5055.24,0.01898
5049.46,0.01930
5043.67,0.02020
5037.88,0.01985
5032.1,0.01969
5026.31,0.01936
5020.52,0.01964
5014.74,0.01900
5008.95,0.01962
5003.17,0.01940
4997.38,0.01969
4991.59,0.01923
4985.81,0.01973
4980.02,0.01951
4974.23,0.01838
4968.45,0.01918
4962.66,0.01815
4956.88,0.01850
4951.09,0.01985
4945.3,0.01977
4939.52,0.01900
4933.73,0.01828
4927.94,0.01880
4922.16,0.01907
4916.37,0.01977
4910.59,0.01866
4904.8,0.01943
4899.01,0.01970
4893.23,0.02081
4887.44,0.01933
4881.65,0.01829
4875.87,0.01905
4870.08,0.01898
4864.3,0.01936
4858.51,0.02028
4852.72,0.01981
4846.94,0.01921
4841.15,0.01826
4835.36,0.01837
4829.58,0.01829
4823.79,0.01924
4818.01,0.01922
4812.22,0.01936
4806.43,0.01911
4800.65,0.02019
4794.86,0.01930
4789.07,0.01960
4783.29,0.01898
4777.5,0.02023
4771.72,0.01985
4765.93,0.01917
4760.14,0.01962
4754.36,0.01890
4748.57,0.01919
4742.78,0.01880
4737,0.01922
4731.21,0.01967
4725.43,0.01983
4719.64,0.01976
4713.85,0.01987
4708.07,0.01958
4702.28,0.01898
4696.49,0.01877
4690.71,0.01892
4684.92,0.01891
4679.14,0.01951
4673.35,0.01900
4667.56,0.01886
4661.78,0.01909
4655.99,0.01846
4650.2,0.01972
4644.42,0.01872
4638.63,0.01844
4632.85,0.01906
4627.06,0.01896
4621.27,0.01933
4615.49,0.01793
4609.7,0.02001
4603.92,0.01840
4598.13,0.01892
4592.34,0.01887
4586.56,0.01891
4580.77,0.01867
4574.98,0.01863
4569.2,0.01954
4563.41,0.01935
4557.63,0.01913
4551.84,0.01942
4546.05,0.01952
4540.27,0.01903
4534.48,0.01982
4528.69,0.01980
4522.91,0.01875
4517.12,0.01944
4511.34,0.01897
4505.55,0.01886
4499.76,0.01886
4493.98,0.01962
4488.19,0.01893
4482.4,0.01931
4476.62,0.01987
4470.83,0.01938
4465.05,0.01867
4459.26,0.01899
4453.47,0.01862
4447.69,0.01864
4441.9,0.01934
4436.11,0.01951
4430.33,0.01965
4424.54,0.01897
4418.76,0.01929
4412.97,0.01936
4407.18,0.01908
4401.4,0.01945
4395.61,0.01913
4389.82,0.02004
4384.04,0.01915
4378.25,0.01918
4372.47,0.02018
4366.68,0.01947
4360.89,0.01932
4355.11,0.01928
4349.32,0.01949
4343.53,0.01957
4337.75,0.01986
4331.96,0.01989
4326.18,0.01918
4320.39,0.01943
4314.6,0.01914
4308.82,0.01909
4303.03,0.01960
4297.24,0.01932
4291.46,0.01956
4285.67,0.01908
4279.89,0.01975
4274.1,0.01996
4268.31,0.01938
4262.53,0.01911
4256.74,0.01911
4250.95,0.01938
4245.17,0.01949
4239.38,0.01955
4233.6,0.01913
4227.81,0.01889
4222.02,0.01974
4216.24,0.01973
4210.45,0.01930
4204.66,0.01916
4198.88,0.01980
4193.09,0.01985
4187.31,0.01877
4181.52,0.01880
4175.73,0.01945
4169.95,0.01935
4164.16,0.01894
4158.37,0.01907
4152.59,0.01940
4146.8,0.01954
4141.02,0.01898
4135.23,0.01974
4129.44,0.01939
4123.66,0.01899
4117.87,0.01888
4112.09,0.01906
4106.3,0.01917
4100.51,0.01924
4094.73,0.01925
4088.94,0.01923
4083.15,0.01897
4077.37,0.01980
4071.58,0.01938
4065.8,0.01966
4060.01,0.01934
4054.22,0.01913
4048.44,0.01935
4042.65,0.01936
4036.86,0.01932
4031.08,0.01917
4025.29,0.01899
4019.51,0.01920
4013.72,0.01962
4007.93,0.01912
4002.15,0.01946
3996.36,0.01942
3990.57,0.01945
3984.79,0.01978
3979,0.01952
3973.22,0.01957
3967.43,0.01942
3961.64,0.01899
3955.86,0.01909
3950.07,0.01890
3944.28,0.01936
3938.5,0.01944
3932.71,0.01948
3926.93,0.01998
3921.14,0.01959
3915.35,0.01925
3909.57,0.01962
3903.78,0.01971
3897.99,0.01958
3892.21,0.01905
3886.42,0.01945
3880.64,0.02029
3874.85,0.02000
3869.06,0.01927
3863.28,0.01982
3857.49,0.01889
3851.7,0.01919
3845.92,0.01895
3840.13,0.02015
3834.35,0.01971
3828.56,0.01979
3822.77,0.01960
3816.99,0.01930
3811.2,0.01898
3805.41,0.01950
3799.63,0.01940
3793.84,0.01943
3788.06,0.01984
3782.27,0.01908
3776.48,0.01889
3770.7,0.01964
3764.91,0.01998
3759.12,0.01982
3753.34,0.01970
3747.55,0.01904
3741.77,0.01923
3735.98,0.01890
3730.19,0.01946
3724.41,0.01964
3718.62,0.01900
3712.83,0.01917
3707.05,0.01910
3701.26,0.01896
3695.48,0.01891
3689.69,0.01915
3683.9,0.01865
3678.12,0.01865
3672.33,0.01906
3666.54,0.01873
3660.76,0.01874
3654.97,0.01894
3649.19,0.01936
3643.4,0.01853
3637.61,0.01893
3631.83,0.01904
3626.04,0.01880
3620.25,0.01957
3614.47,0.01845
3608.68,0.01889
3602.9,0.01856
3597.11,0.01848
3591.32,0.01831
3585.54,0.01825
3579.75,0.01813
3573.97,0.01855
3568.18,0.01848
3562.39,0.01794
3556.61,0.01811
3550.82,0.01833
3545.03,0.01846
3539.25,0.01761
3533.46,0.01836
3527.68,0.01818
3521.89,0.01773
3516.1,0.01813
3510.32,0.01829
3504.53,0.01840
3498.74,0.01837
3492.96,0.01798
3487.17,0.01802
3481.39,0.01762
3475.6,0.01692
3469.81,0.01698
3464.03,0.01786
3458.24,0.01737
3452.45,0.01726
3446.67,0.01763
3440.88,0.01752
3435.1,0.01733
3429.31,0.01685
3423.52,0.01757
3417.74,0.01759
3411.95,0.01801
3406.16,0.01745
3400.38,0.01662
3394.59,0.01732
3388.81,0.01774
3383.02,0.01742
3377.23,0.01813
3371.45,0.01675
3365.66,0.01699
3359.87,0.01666
3354.09,0.01673
3348.3,0.01839
3342.52,0.01784
3336.73,0.01660
3330.94,0.01711
3325.16,0.01667
3319.37,0.01666
3313.58,0.01721
3307.8,0.01597
3302.01,0.01670
3296.23,0.01720
3290.44,0.01648
3284.65,0.01723
3278.87,0.01810
3273.08,0.01691
3267.29,0.01753
3261.51,0.01584
3255.72,0.01734
3249.94,0.01679
3244.15,0.01709
3238.36,0.01665
3232.58,0.01815
3226.79,0.01852
3221,0.01811
3215.22,0.01763
3209.43,0.01708
3203.65,0.01694
3197.86,0.01693
3192.07,0.01802
3186.29,0.01734
3180.5,0.01769
3174.71,0.01810
3168.93,0.01720
3163.14,0.01711
3157.36,0.01764
3151.57,0.01765
3145.78,0.01737
3140,0.01697
3134.21,0.01771
3128.42,0.01814
3122.64,0.01737
3116.85,0.01794
3111.07,0.01803
3105.28,0.01755
3099.49,0.01739
3093.71,0.01815
3087.92,0.01725
3082.14,0.01719
3076.35,0.01704
3070.56,0.01724
3064.78,0.01726
3058.99,0.01744
3053.2,0.01727
3047.42,0.01739
3041.63,0.01767
3035.85,0.01792
3030.06,0.01752
3024.27,0.01738
3018.49,0.01720
3012.7,0.01681
3006.91,0.01691
3001.13,0.01704
2995.34,0.01646
2989.56,0.01699
2983.77,0.01719
2977.98,0.01636
2972.2,0.01672
2966.41,0.01639
2960.62,0.01623
2954.84,0.01621
2949.05,0.01626
2943.27,0.01613
2937.48,0.01639
2931.69,0.01607
2925.91,0.01678
2920.12,0.01742
2914.33,0.01717
2908.55,0.01714
2902.76,0.01743
2896.98,0.01770
2891.19,0.01731
2885.4,0.01731
2879.62,0.01743
2873.83,0.01754
2868.04,0.01757
2862.26,0.01776
2856.47,0.01724
2850.69,0.01802
2844.9,0.01809
2839.11,0.01787
2833.33,0.01860
2827.54,0.01862
2821.75,0.01827
2815.97,0.01819
2810.18,0.01824
2804.4,0.01827
2798.61,0.01812
2792.82,0.01811
2787.04,0.01792
2781.25,0.01783
2775.46,0.01783
2769.68,0.01811
2763.89,0.01823
2758.11,0.01831
2752.32,0.01775
2746.53,0.01834
2740.75,0.01792
2734.96,0.01786
2729.17,0.01825
2723.39,0.01811
2717.6,0.01800
2711.82,0.01828
2706.03,0.01822
2700.24,0.01833
2694.46,0.01796
2688.67,0.01825
2682.88,0.01838
2677.1,0.01826
2671.31,0.01820
2665.53,0.01833
2659.74,0.01793
2653.95,0.01801
2648.17,0.01781
2642.38,0.01831
2636.59,0.01829
2630.81,0.01807
2625.02,0.01781
2619.24,0.01823
2613.45,0.01802
2607.66,0.01836
2601.88,0.01819
2596.09,0.01796
2590.3,0.01785
2584.52,0.01785
2578.73,0.01804
2572.95,0.01818
2567.16,0.01805
2561.37,0.01833
2555.59,0.01785
2549.8,0.01784
2544.02,0.01786
2538.23,0.01824
2532.44,0.01811
2526.66,0.01788
2520.87,0.01794
2515.08,0.01787
2509.3,0.01799
2503.51,0.01815
2497.73,0.01806
2491.94,0.01820
2486.15,0.01800
2480.37,0.01815
2474.58,0.01803
2468.79,0.01822
2463.01,0.01815
2457.22,0.01797
2451.44,0.01817
2445.65,0.01857
2439.86,0.01845
2434.08,0.01825
2428.29,0.01828
2422.5,0.01806
2416.72,0.01799
2410.93,0.01813
2405.15,0.01841
2399.36,0.01764
2393.57,0.01788
2387.79,0.01736
2382,0.01800
2376.21,0.01781
2370.43,0.01804
2364.64,0.01802
2358.86,0.01803
2353.07,0.01803
2347.28,0.01835
2341.5,0.01807
2335.71,0.01810
2329.92,0.01789
2324.14,0.01793
2318.35,0.01786
2312.57,0.01804
2306.78,0.01801
2300.99,0.01791
2295.21,0.01756
2289.42,0.01805
2283.63,0.01824
2277.85,0.01815
2272.06,0.01842
2266.28,0.01839
2260.49,0.01787
2254.7,0.01822
2248.92,0.01819
2243.13,0.01796
2237.34,0.01799
2231.56,0.01838
2225.77,0.01822
2219.99,0.01782
2214.2,0.01778
2208.41,0.01807
2202.63,0.01808
2196.84,0.01777
2191.05,0.01786
2185.27,0.01801
2179.48,0.01763
2173.7,0.01763
2167.91,0.01812
2162.12,0.01815
2156.34,0.01775
2150.55,0.01761
2144.76,0.01795
2138.98,0.01766
2133.19,0.01793
2127.41,0.01805
2121.62,0.01766
2115.83,0.01762
2110.05,0.01824
2104.26,0.01784
2098.47,0.01762
2092.69,0.01773
2086.9,0.01778
2081.12,0.01752
2075.33,0.01782
2069.54,0.01787
2063.76,0.01778
2057.97,0.01797
2052.19,0.01772
2046.4,0.01783
2040.61,0.01775
2034.83,0.01791
2029.04,0.01752
2023.25,0.01776
2017.47,0.01769
2011.68,0.01756
2005.9,0.01760
2000.11,0.01752
1994.32,0.01758
1988.54,0.01751
1982.75,0.01775
1976.96,0.01782
1971.18,0.01776
1965.39,0.01770
1959.61,0.01770
1953.82,0.01738
1948.03,0.01733
1942.25,0.01752
1936.46,0.01744
1930.67,0.01762
1924.89,0.01761
1919.1,0.01746
1913.32,0.01738
1907.53,0.01768
1901.74,0.01764
1895.96,0.01758
1890.17,0.01750
1884.38,0.01718
1878.6,0.01759
1872.81,0.01750
1867.03,0.01725
1861.24,0.01730
1855.45,0.01710
1849.67,0.01714
1843.88,0.01709
1838.09,0.01740
1832.31,0.01685
1826.52,0.01698
1820.74,0.01673
1814.95,0.01694
1809.16,0.01680
1803.38,0.01674
1797.59,0.01650
1791.8,0.01611
1786.02,0.01594
1780.23,0.01601
1774.45,0.01601
1768.66,0.01560
1762.87,0.01487
1757.09,0.01416
1751.3,0.01446
1745.51,0.01432
1739.73,0.01570
1733.94,0.01640
1728.16,0.01757
1722.37,0.01831
1716.58,0.01805
1710.8,0.01794
1705.01,0.01759
1699.22,0.01666
1693.44,0.01636
1687.65,0.01625
1681.87,0.01583
1676.08,0.01601
1670.29,0.01544
1664.51,0.01576
1658.72,0.01541
1652.93,0.01552
1647.15,0.01591
1641.36,0.01527
1635.58,0.01520
1629.79,0.01569
1624,0.01595
1618.22,0.01590
1612.43,0.01589
1606.64,0.01566
1600.86,0.01587
1595.07,0.01627
1589.29,0.01609
1583.5,0.01561
1577.71,0.01547
1571.93,0.01511
1566.14,0.01503
1560.35,0.01536
1554.57,0.01479
1548.78,0.01508
1543,0.01532
1537.21,0.01548
1531.42,0.01563
1525.64,0.01589
1519.85,0.01592
1514.07,0.01589
1508.28,0.01581
1502.49,0.01584
1496.71,0.01564
1490.92,0.01596
1485.13,0.01573
1479.35,0.01517
1473.56,0.01546
1467.78,0.01473
1461.99,0.01530
1456.2,0.01606
1450.42,0.01591
1444.63,0.01563
1438.84,0.01574
1433.06,0.01574
1427.27,0.01585
1421.49,0.01520
1415.7,0.01531
1409.91,0.01520
1404.13,0.01501
1398.34,0.01472
1392.55,0.01508
1386.77,0.01515
1380.98,0.01522
1375.2,0.01509
1369.41,0.01502
1363.62,0.01497
1357.84,0.01515
1352.05,0.01492
1346.26,0.01480
1340.48,0.01513
1334.69,0.01466
1328.91,0.01466
1323.12,0.01429
1317.33,0.01420
1311.55,0.01408
1305.76,0.01406
1299.97,0.01458
1294.19,0.01453
1288.4,0.01539
1282.62,0.01572
1276.83,0.01585
1271.04,0.01642
1265.26,0.01662
1259.47,0.01698
1253.68,0.01716
1247.9,0.01715
1242.11,0.01709
1236.33,0.01723
1230.54,0.01650
1224.75,0.01630
1218.97,0.01618
1213.18,0.01587
1207.39,0.01564
1201.61,0.01560
1195.82,0.01509
1190.04,0.01558
1184.25,0.01524
1178.46,0.01448
1172.68,0.01477
1166.89,0.01510
1161.1,0.01477
1155.32,0.01459
1149.53,0.01484
1143.75,0.01422
1137.96,0.01490
1132.17,0.01501
1126.39,0.01532
1120.6,0.01594
1114.81,0.01605
1109.03,0.01558
1103.24,0.01565
1097.46,0.01559
1091.67,0.01488
1085.88,0.01457
1080.1,0.01566
1074.31,0.01667
1068.52,0.01635
1062.74,0.01673
1056.95,0.01640
1051.17,0.01624
1045.38,0.01710
1039.59,0.01659
1033.81,0.01643
1028.02,0.01620
1022.24,0.01641
1016.45,0.01670
1010.66,0.01761
1004.88,0.01771
999.09,0.01797
993.304,0.01772
987.518,0.01762
981.731,0.01750
975.945,0.01796
970.159,0.01743
964.373,0.01707
958.586,0.01709
952.8,0.01703
947.014,0.01696
941.228,0.01646
935.441,0.01601
929.655,0.01612
923.869,0.01576
918.083,0.01585
912.297,0.01587
906.51,0.01592
900.724,0.01631
894.938,0.01625
889.152,0.01649
883.365,0.01618
877.579,0.01586
871.793,0.01674
866.007,0.01651
860.22,0.01644
854.434,0.01549
848.648,0.01584
842.862,0.01589
837.075,0.01635
831.289,0.01547
825.503,0.01582
819.717,0.01525
813.931,0.01663
808.144,0.01556
802.358,0.01597
796.572,0.01570
790.786,0.01544
784.999,0.01600
779.213,0.01477
773.427,0.01456
767.641,0.01567
761.854,0.01617
756.068,0.01504
750.282,0.01493
744.496,0.01545
738.709,0.01535
732.923,0.01536
727.137,0.01617
721.351,0.01514
715.565,0.01445
709.778,0.01460
703.992,0.01447
698.206,0.01542
692.42,0.01432
686.633,0.01358
680.847,0.01413
675.061,0.01422
669.275,0.01489
663.488,0.01456
657.702,0.01401
651.916,0.01531
646.13,0.01389
640.343,0.01333
634.557,0.01393
628.771,0.01409
622.985,0.01469
617.198,0.01147
611.412,0.01388
605.626,0.01284
599.84,0.01269