File: 01_Data/PVC/FTIR/IS/PVC_IS_T_220818_R2.dpt
7497.03,0.02309
7491.25,0.01683
7485.46,0.02212
7479.67,0.01832
7473.89,0.01494
7468.1,0.02397
7462.32,0.01627
7456.53,0.01998
7450.74,0.02835
7444.96,0.02467
7439.17,0.01592
7433.38,0.01958
7427.6,0.02092
7421.81,0.01836
7416.03,0.03132
7410.24,0.02419
7404.45,0.02763
7398.67,0.02650
7392.88,0.02244
7387.09,0.01580
7381.31,0.02678
7375.52,0.01973
7369.74,0.02280
7363.95,0.01899
7358.16,0.02256
7352.38,0.01965
7346.59,0.02486
7340.8,0.02367
7335.02,0.02002
7329.23,0.01655
7323.45,0.01953
7317.66,0.01653
7311.87,0.02454
7306.09,0.03009
7300.3,0.02261
7294.51,0.01799
7288.73,0.01805
7282.94,0.02673
7277.16,0.02147
7271.37,0.02232
7265.58,0.02457
7259.8,0.02626
7254.01,0.02265
7248.22,0.02965
7242.44,0.01687
7236.65,0.01823
7230.87,0.01690
7225.08,0.02435
7219.29,0.01940
7213.51,0.01965
7207.72,0.02174
7201.93,0.02413
7196.15,0.02324
7190.36,0.02091
7184.58,0.01933
7178.79,0.02037
7173,0.02554
7167.22,0.02561
7161.43,0.02409
7155.65,0.02366
7149.86,0.02087
7144.07,0.01921
7138.29,0.01890
7132.5,0.01633
7126.71,0.02381
7120.93,0.02615
7115.14,0.02299
7109.36,0.01984
7103.57,0.01930
7097.78,0.01966
7092,0.01946
7086.21,0.01934
7080.42,0.01971
7074.64,0.02513
7068.85,0.02108
7063.07,0.01931
7057.28,0.02028
7051.49,0.02415
7045.71,0.02301
7039.92,0.02848
7034.13,0.02146
7028.35,0.01604
7022.56,0.02428
7016.78,0.02104
7010.99,0.02253
7005.2,0.01761
6999.42,0.02425
6993.63,0.01567
6987.84,0.02149
6982.06,0.02109
6976.27,0.02030
6970.49,0.02026
6964.7,0.02199
6958.91,0.01923
6953.13,0.02535
6947.34,0.02404
6941.55,0.01966
6935.77,0.02064
6929.98,0.02279
6924.2,0.01579
6918.41,0.01566
6912.62,0.02182
6906.84,0.01963
6901.05,0.02066
6895.26,0.02362
6889.48,0.01928
6883.69,0.01886
6877.91,0.02500
6872.12,0.02338
6866.33,0.02067
6860.55,0.01809
6854.76,0.01595
6848.97,0.02600
6843.19,0.02160
6837.4,0.02254
6831.62,0.02021
6825.83,0.02003
6820.04,0.02027
6814.26,0.02366
6808.47,0.01559
6802.68,0.01602
6796.9,0.02494
6791.11,0.02047
6785.33,0.01799
6779.54,0.01548
6773.75,0.01908
6767.97,0.01782
6762.18,0.02321
6756.39,0.01869
6750.61,0.01679
6744.82,0.01817
6739.04,0.02282
6733.25,0.01922
6727.46,0.02539
6721.68,0.02142
6715.89,0.01928
6710.1,0.02248
6704.32,0.02264
6698.53,0.01945
6692.75,0.01773
6686.96,0.01431
6681.17,0.01873
6675.39,0.02340
6669.6,0.02179
6663.82,0.02006
6658.03,0.01739
6652.24,0.02123
6646.46,0.01983
6640.67,0.02263
6634.88,0.02343
6629.1,0.01816
6623.31,0.01390
6617.53,0.01490
6611.74,0.01902
6605.95,0.01775
6600.17,0.01664
6594.38,0.02246
6588.59,0.01901
6582.81,0.01789
6577.02,0.01919
6571.24,0.01979
6565.45,0.01904
6559.66,0.01718
6553.88,0.01672
6548.09,0.02161
6542.3,0.01790
6536.52,0.01401
6530.73,0.01949
6524.95,0.02488
6519.16,0.01936
6513.37,0.01920
6507.59,0.02178
6501.8,0.02179
6496.01,0.01915
6490.23,0.01670
6484.44,0.01404
6478.66,0.01997
6472.87,0.01890
6467.08,0.01668
6461.3,0.02041
6455.51,0.01997
6449.72,0.01939
6443.94,0.02159
6438.15,0.02179
6432.37,0.01342
6426.58,0.01759
6420.79,0.01668
6415.01,0.01760
6409.22,0.01886
6403.43,0.01732
6397.65,0.01963
6391.86,0.01763
6386.08,0.01937
6380.29,0.01625
6374.5,0.01907
6368.72,0.02171
6362.93,0.01902
6357.14,0.01869
6351.36,0.01875
6345.57,0.01696
6339.79,0.01858
6334,0.02006
6328.21,0.01744
6322.43,0.01848
6316.64,0.01839
6310.85,0.01752
6305.07,0.01881
6299.28,0.02294
6293.5,0.01946
6287.71,0.02130
6281.92,0.01797
6276.14,0.01681
6270.35,0.01494
6264.56,0.01992
6258.78,0.01585
6252.99,0.01930
6247.21,0.02127
6241.42,0.01810
6235.63,0.02087
6229.85,0.01692
6224.06,0.01933
6218.27,0.01773
6212.49,0.02029
6206.7,0.01752
6200.92,0.01996
6195.13,0.01996
6189.34,0.01875
6183.56,0.01819
6177.77,0.01784
6171.98,0.02137
6166.2,0.01549
6160.41,0.01959
6154.63,0.01906
6148.84,0.02121
6143.05,0.02092
6137.27,0.01884
6131.48,0.01713
6125.7,0.02145
6119.91,0.01811
6114.12,0.01662
6108.34,0.01714
6102.55,0.01883
6096.76,0.01917
6090.98,0.01823
6085.19,0.02069
6079.41,0.01628
6073.62,0.01457
6067.83,0.01655
6062.05,0.01897
6056.26,0.01844
6050.47,0.02062
6044.69,0.01763
6038.9,0.02173
6033.12,0.02044
6027.33,0.02012
6021.54,0.01918
6015.76,0.01745
6009.97,0.01926
6004.18,0.01774
5998.4,0.01840
5992.61,0.02006
5986.83,0.01900
5981.04,0.01712
5975.25,0.01658
5969.47,0.01872
5963.68,0.01913
5957.89,0.01888
5952.11,0.01835
5946.32,0.01831
5940.54,0.01837
5934.75,0.01900
5928.96,0.01654
5923.18,0.01866
5917.39,0.01786
5911.6,0.01914
5905.82,0.01763
5900.03,0.01685
5894.25,0.01935
5888.46,0.01990
5882.67,0.02163
5876.89,0.01874
5871.1,0.01792
5865.31,0.01740
5859.53,0.01909
5853.74,0.01875
5847.96,0.01644
5842.17,0.01741
5836.38,0.01893
5830.6,0.02003
5824.81,0.02019
5819.02,0.01732
5813.24,0.01800
5807.45,0.01798
5801.67,0.01763
5795.88,0.01856
5790.09,0.01927
5784.31,0.01794
5778.52,0.01641
5772.73,0.01854
5766.95,0.02113
5761.16,0.02052
5755.38,0.01869
5749.59,0.01829
5743.8,0.01855
5738.02,0.01927
5732.23,0.01805
5726.44,0.02009
5720.66,0.01743
5714.87,0.01772
5709.09,0.01875
5703.3,0.01799
5697.51,0.01743
5691.73,0.01781
5685.94,0.01703
5680.15,0.02239
5674.37,0.01908
5668.58,0.01792
5662.8,0.01892
5657.01,0.01939
5651.22,0.02017
5645.44,0.01716
5639.65,0.01707
5633.87,0.01829
5628.08,0.01943
5622.29,0.01899
5616.51,0.01826
5610.72,0.01867
5604.93,0.01852
5599.15,0.02072
5593.36,0.01799
5587.58,0.01909
5581.79,0.01956
5576,0.01856
5570.22,0.01954
5564.43,0.02021
5558.64,0.02101
5552.86,0.01828
5547.07,0.01901
5541.29,0.01830
5535.5,0.01833
5529.71,0.01713
5523.93,0.01835
5518.14,0.01773
5512.35,0.01839
5506.57,0.01945
5500.78,0.01904
5495,0.01950
5489.21,0.01887
5483.42,0.01785
5477.64,0.01837
5471.85,0.01928
5466.06,0.01854
5460.28,0.01997
5454.49,0.01757
5448.71,0.01814
5442.92,0.01735
5437.13,0.01821
5431.35,0.01900
5425.56,0.01968
5419.77,0.01871
5413.99,0.01826
5408.2,0.01759
5402.42,0.01917
5396.63,0.01933
5390.84,0.01875
5385.06,0.01937
5379.27,0.01818
5373.48,0.01885
5367.7,0.01876
5361.91,0.01946
5356.13,0.01944
5350.34,0.01912
5344.55,0.02040
5338.77,0.01928
5332.98,0.01998
5327.19,0.02049
5321.41,0.02042
5315.62,0.01992
5309.84,0.01881
5304.05,0.01976
5298.26,0.01860
5292.48,0.01897
5286.69,0.01872
5280.9,0.01744
5275.12,0.01868
5269.33,0.01866
5263.55,0.01908
5257.76,0.01813
5251.97,0.01971
5246.19,0.02058
5240.4,0.01919
5234.61,0.01806
5228.83,0.01803
5223.04,0.01898
5217.26,0.01989
5211.47,0.01947
5205.68,0.01901
5199.9,0.01780
5194.11,0.01950
5188.32,0.01922
5182.54,0.02120
5176.75,0.01913
5170.97,0.01869
5165.18,0.01831
5159.39,0.01966
5153.61,0.01921
5147.82,0.01892
5142.03,0.01774
5136.25,0.02020
5130.46,0.01982
5124.68,0.02055
5118.89,0.01885
5113.1,0.01864
5107.32,0.01901
5101.53,0.01990
5095.75,0.01820
5089.96,0.01954
5084.17,0.01863
5078.39,0.01955
5072.6,0.01944
5066.81,0.01958
5061.03,0.01973
5055.24,0.01926
5049.46,0.01815
5043.67,0.01935
5037.88,0.01883
5032.1,0.01891
5026.31,0.02000
5020.52,0.01933
5014.74,0.01906
5008.95,0.01902
5003.17,0.01976
4997.38,0.02051
4991.59,0.01946
4985.81,0.01970
4980.02,0.01967
4974.23,0.01943
4968.45,0.01979
4962.66,0.02029
4956.88,0.01985
4951.09,0.02011
4945.3,0.01867
4939.52,0.01949
4933.73,0.01976
4927.94,0.02008
4922.16,0.01952
4916.37,0.01970
4910.59,0.01822
4904.8,0.01945
4899.01,0.01968
4893.23,0.02036
4887.44,0.01914
4881.65,0.01944
4875.87,0.01921
4870.08,0.01904
4864.3,0.01842
4858.51,0.01951
4852.72,0.01992
4846.94,0.02055
4841.15,0.01913
4835.36,0.01859
4829.58,0.01850
4823.79,0.01845
4818.01,0.01885
4812.22,0.01958
4806.43,0.01954
4800.65,0.02043
4794.86,0.02002
4789.07,0.01955
4783.29,0.01937
4777.5,0.01939
4771.72,0.01917
4765.93,0.01956
4760.14,0.01962
4754.36,0.02031
4748.57,0.02026
4742.78,0.01913
4737,0.02028
4731.21,0.01976
4725.43,0.01973
4719.64,0.01961
4713.85,0.01978
4708.07,0.02032
4702.28,0.01998
4696.49,0.01937
4690.71,0.02004
4684.92,0.01970
4679.14,0.01955
4673.35,0.02017
4667.56,0.01966
4661.78,0.01993
4655.99,0.01905
4650.2,0.01975
4644.42,0.01889
4638.63,0.01950
4632.85,0.01969
4627.06,0.01983
4621.27,0.02029
4615.49,0.01932
4609.7,0.01935
4603.92,0.01927
4598.13,0.01964
4592.34,0.02080
4586.56,0.02008
4580.77,0.01894
4574.98,0.01957
4569.2,0.01852
4563.41,0.01891
4557.63,0.01942
4551.84,0.01963
4546.05,0.01944
4540.27,0.01947
4534.48,0.01976
4528.69,0.01934
4522.91,0.01944
4517.12,0.01972
4511.34,0.01926
4505.55,0.01953
4499.76,0.01965
4493.98,0.02027
4488.19,0.02010
4482.4,0.01993
4476.62,0.01954
4470.83,0.01907
4465.05,0.01916
4459.26,0.01846
4453.47,0.01912
4447.69,0.01999
4441.9,0.01964
4436.11,0.01988
4430.33,0.01924
4424.54,0.01997
4418.76,0.01965
4412.97,0.01961
4407.18,0.02018
4401.4,0.01972
4395.61,0.01966
4389.82,0.01927
4384.04,0.01992
4378.25,0.01943
4372.47,0.01968
4366.68,0.01998
4360.89,0.01977
4355.11,0.01948
4349.32,0.01987
4343.53,0.01981
4337.75,0.02002
4331.96,0.02000
4326.18,0.01924
4320.39,0.01977
4314.6,0.02014
4308.82,0.01941
4303.03,0.01961
4297.24,0.01962
4291.46,0.02028
4285.67,0.02039
4279.89,0.01984
4274.1,0.01978
4268.31,0.02032
4262.53,0.01990
4256.74,0.01966
4250.95,0.01974
4245.17,0.01978
4239.38,0.02036
4233.6,0.01985
4227.81,0.01984
4222.02,0.01917
4216.24,0.02030
4210.45,0.01987
4204.66,0.02037
4198.88,0.02046
4193.09,0.02012
4187.31,0.02006
4181.52,0.02011
4175.73,0.02010
4169.95,0.02019
4164.16,0.02041
4158.37,0.02028
4152.59,0.01914
4146.8,0.01982
4141.02,0.02032
4135.23,0.02019
4129.44,0.01995
4123.66,0.01947
4117.87,0.01960
4112.09,0.01941
4106.3,0.02014
4100.51,0.02038
4094.73,0.01992
4088.94,0.01981
4083.15,0.01990
4077.37,0.02011
4071.58,0.01921
4065.8,0.01956
4060.01,0.01934
4054.22,0.02032
4048.44,0.02043
4042.65,0.02060
4036.86,0.02071
4031.08,0.01920
4025.29,0.02030
4019.51,0.01991
4013.72,0.02025
4007.93,0.02017
4002.15,0.01984
3996.36,0.02022
3990.57,0.01927
3984.79,0.02029
3979,0.01970
3973.22,0.01969
3967.43,0.01985
3961.64,0.01994
3955.86,0.01995
3950.07,0.02076
3944.28,0.02032
3938.5,0.02026
3932.71,0.01966
3926.93,0.02087
3921.14,0.02027
3915.35,0.01953
3909.57,0.01961
3903.78,0.02037
3897.99,0.01986
3892.21,0.02050
3886.42,0.02001
3880.64,0.02019
3874.85,0.02023
3869.06,0.02016
3863.28,0.01977
3857.49,0.02044
3851.7,0.01939
3845.92,0.01970
3840.13,0.01961
3834.35,0.01929
3828.56,0.01978
3822.77,0.01960
3816.99,0.02026
3811.2,0.02051
3805.41,0.02017
3799.63,0.02034
3793.84,0.01971
3788.06,0.02067
3782.27,0.02000
3776.48,0.02080
3770.7,0.02042
3764.91,0.01999
3759.12,0.01968
3753.34,0.01960
3747.55,0.02083
3741.77,0.02006
3735.98,0.02030
3730.19,0.01998
3724.41,0.01987
3718.62,0.02008
3712.83,0.01975
3707.05,0.01944
3701.26,0.01997
3695.48,0.02031
3689.69,0.01908
3683.9,0.01960
3678.12,0.01975
3672.33,0.01945
3666.54,0.01962
3660.76,0.02005
3654.97,0.01980
3649.19,0.01953
3643.4,0.01880
3637.61,0.01959
3631.83,0.01933
3626.04,0.01936
3620.25,0.01949
3614.47,0.01921
3608.68,0.01947
3602.9,0.01904
3597.11,0.01942
3591.32,0.01879
3585.54,0.01910
3579.75,0.01887
3573.97,0.01929
3568.18,0.01879
3562.39,0.01899
3556.61,0.01862
3550.82,0.01821
3545.03,0.01796
3539.25,0.01902
3533.46,0.01853
3527.68,0.01865
3521.89,0.01878
3516.1,0.01812
3510.32,0.01887
3504.53,0.01834
3498.74,0.01851
3492.96,0.01830
3487.17,0.01834
3481.39,0.01855
3475.6,0.01787
3469.81,0.01825
3464.03,0.01792
3458.24,0.01807
3452.45,0.01757
3446.67,0.01794
3440.88,0.01832
3435.1,0.01741
3429.31,0.01742
3423.52,0.01869
3417.74,0.01831
3411.95,0.01808
3406.16,0.01767
3400.38,0.01813
3394.59,0.01801
3388.81,0.01733
3383.02,0.01680
3377.23,0.01726
3371.45,0.01741
3365.66,0.01711
3359.87,0.01751
3354.09,0.01860
3348.3,0.01734
3342.52,0.01702
3336.73,0.01712
3330.94,0.01750
3325.16,0.01729
3319.37,0.01734
3313.58,0.01787
3307.8,0.01691
3302.01,0.01693
3296.23,0.01806
3290.44,0.01716
3284.65,0.01725
3278.87,0.01690
3273.08,0.01709
3267.29,0.01732
3261.51,0.01728
3255.72,0.01839
3249.94,0.01702
3244.15,0.01753
3238.36,0.01877
3232.58,0.01804
3226.79,0.01761
3221,0.01777
3215.22,0.01779
3209.43,0.01798
3203.65,0.01744
3197.86,0.01855
3192.07,0.01825
3186.29,0.01807
3180.5,0.01788
3174.71,0.01777
3168.93,0.01852
3163.14,0.01879
3157.36,0.01782
3151.57,0.01772
3145.78,0.01891
3140,0.01860
3134.21,0.01753
3128.42,0.01713
3122.64,0.01788
3116.85,0.01783
3111.07,0.01850
3105.28,0.01769
3099.49,0.01805
3093.71,0.01878
3087.92,0.01824
3082.14,0.01771
3076.35,0.01765
3070.56,0.01815
3064.78,0.01802
3058.99,0.01820
3053.2,0.01788
3047.42,0.01782
3041.63,0.01794
3035.85,0.01822
3030.06,0.01789
3024.27,0.01776
3018.49,0.01795
3012.7,0.01741
3006.91,0.01740
3001.13,0.01779
2995.34,0.01694
2989.56,0.01698
2983.77,0.01714
2977.98,0.01730
2972.2,0.01710
2966.41,0.01681
2960.62,0.01681
2954.84,0.01714
2949.05,0.01686
2943.27,0.01689
2937.48,0.01730
2931.69,0.01701
2925.91,0.01737
2920.12,0.01742
2914.33,0.01763
2908.55,0.01818
2902.76,0.01795
2896.98,0.01789
2891.19,0.01811
2885.4,0.01794
2879.62,0.01796
2873.83,0.01753
2868.04,0.01727
2862.26,0.01789
2856.47,0.01823
2850.69,0.01827
2844.9,0.01834
2839.11,0.01858
2833.33,0.01845
2827.54,0.01831
2821.75,0.01869
2815.97,0.01851
2810.18,0.01845
2804.4,0.01848
2798.61,0.01837
2792.82,0.01842
2787.04,0.01862
2781.25,0.01853
2775.46,0.01871
2769.68,0.01887
2763.89,0.01864
2758.11,0.01892
2752.32,0.01824
2746.53,0.01884
2740.75,0.01873
2734.96,0.01881
2729.17,0.01869
2723.39,0.01856
2717.6,0.01887
2711.82,0.01862
2706.03,0.01821
2700.24,0.01901
2694.46,0.01905
2688.67,0.01867
2682.88,0.01869
2677.1,0.01898
2671.31,0.01875
2665.53,0.01868
2659.74,0.01859
2653.95,0.01848
2648.17,0.01913
2642.38,0.01855
2636.59,0.01856
2630.81,0.01890
2625.02,0.01847
2619.24,0.01879
2613.45,0.01864
2607.66,0.01915
2601.88,0.01863
2596.09,0.01826
2590.3,0.01855
2584.52,0.01853
2578.73,0.01869
2572.95,0.01871
2567.16,0.01878
2561.37,0.01841
2555.59,0.01877
2549.8,0.01877
2544.02,0.01867
2538.23,0.01878
2532.44,0.01849
2526.66,0.01862
2520.87,0.01921
2515.08,0.01881
2509.3,0.01888
2503.51,0.01875
2497.73,0.01897
2491.94,0.01867
2486.15,0.01880
2480.37,0.01884
2474.58,0.01850
2468.79,0.01853
2463.01,0.01851
2457.22,0.01886
2451.44,0.01887
2445.65,0.01826
2439.86,0.01846
2434.08,0.01833
2428.29,0.01864
2422.5,0.01831
2416.72,0.01882
2410.93,0.01855
2405.15,0.01900
2399.36,0.01836
2393.57,0.01847
2387.79,0.01865
2382,0.01853
2376.21,0.01891
2370.43,0.01861
2364.64,0.01857
2358.86,0.01874
2353.07,0.01851
2347.28,0.01854
2341.5,0.01874
2335.71,0.01893
2329.92,0.01858
2324.14,0.01842
2318.35,0.01889
2312.57,0.01844
2306.78,0.01823
2300.99,0.01865
2295.21,0.01880
2289.42,0.01878
2283.63,0.01864
2277.85,0.01884
2272.06,0.01887
2266.28,0.01866
2260.49,0.01880
2254.7,0.01841
2248.92,0.01837
2243.13,0.01854
2237.34,0.01869
2231.56,0.01851
2225.77,0.01840
2219.99,0.01823
2214.2,0.01856
2208.41,0.01872
2202.63,0.01843
2196.84,0.01847
2191.05,0.01866
2185.27,0.01855
2179.48,0.01847
2173.7,0.01851
2167.91,0.01851
2162.12,0.01826
2156.34,0.01843
2150.55,0.01845
2144.76,0.01856
2138.98,0.01835
2133.19,0.01841
2127.41,0.01848
2121.62,0.01831
2115.83,0.01850
2110.05,0.01826
2104.26,0.01819
2098.47,0.01866
2092.69,0.01855
2086.9,0.01872
2081.12,0.01824
2075.33,0.01841
2069.54,0.01845
2063.76,0.01807
2057.97,0.01861
2052.19,0.01875
2046.4,0.01845
2040.61,0.01864
2034.83,0.01842
2029.04,0.01829
2023.25,0.01836
2017.47,0.01827
2011.68,0.01844
2005.9,0.01869
2000.11,0.01822
1994.32,0.01820
1988.54,0.01812
1982.75,0.01803
1976.96,0.01795
1971.18,0.01833
1965.39,0.01802
1959.61,0.01802
1953.82,0.01816
1948.03,0.01826
1942.25,0.01816
1936.46,0.01826
1930.67,0.01827
1924.89,0.01854
1919.1,0.01796
1913.32,0.01815
1907.53,0.01780
1901.74,0.01803
1895.96,0.01802
1890.17,0.01807
1884.38,0.01811
1878.6,0.01800
1872.81,0.01778
1867.03,0.01784
1861.24,0.01799
1855.45,0.01786
1849.67,0.01783
1843.88,0.01765
1838.09,0.01750
1832.31,0.01770
1826.52,0.01782
1820.74,0.01744
1814.95,0.01732
1809.16,0.01743
1803.38,0.01727
1797.59,0.01685
1791.8,0.01688
1786.02,0.01657
1780.23,0.01618
1774.45,0.01614
1768.66,0.01617
1762.87,0.01541
1757.09,0.01481
1751.3,0.01463
1745.51,0.01533
1739.73,0.01653
1733.94,0.01752
1728.16,0.01791
1722.37,0.01854
1716.58,0.01811
1710.8,0.01819
1705.01,0.01791
1699.22,0.01749
1693.44,0.01705
1687.65,0.01656
1681.87,0.01675
1676.08,0.01659
1670.29,0.01638
1664.51,0.01608
1658.72,0.01587
1652.93,0.01595
1647.15,0.01600
1641.36,0.01622
1635.58,0.01621
1629.79,0.01629
1624,0.01627
1618.22,0.01646
1612.43,0.01622
1606.64,0.01645
1600.86,0.01629
1595.07,0.01653
1589.29,0.01602
1583.5,0.01629
1577.71,0.01602
1571.93,0.01566
1566.14,0.01543
1560.35,0.01584
1554.57,0.01539
1548.78,0.01553
1543,0.01576
1537.21,0.01564
1531.42,0.01610
1525.64,0.01612
1519.85,0.01582
1514.07,0.01627
1508.28,0.01631
1502.49,0.01602
1496.71,0.01595
1490.92,0.01594
1485.13,0.01627
1479.35,0.01580
1473.56,0.01625
1467.78,0.01590
1461.99,0.01603
1456.2,0.01615
1450.42,0.01639
1444.63,0.01644
1438.84,0.01616
1433.06,0.01594
1427.27,0.01603
1421.49,0.01575
1415.7,0.01595
1409.91,0.01560
1404.13,0.01596
1398.34,0.01581
1392.55,0.01564
1386.77,0.01534
1380.98,0.01566
1375.2,0.01578
1369.41,0.01560
1363.62,0.01544
1357.84,0.01576
1352.05,0.01570
1346.26,0.01531
1340.48,0.01543
1334.69,0.01517
1328.91,0.01495
1323.12,0.01479
1317.33,0.01433
1311.55,0.01448
1305.76,0.01445
1299.97,0.01486
1294.19,0.01520
1288.4,0.01563
1282.62,0.01589
1276.83,0.01678
1271.04,0.01687
1265.26,0.01732
1259.47,0.01758
1253.68,0.01776
1247.9,0.01780
1242.11,0.01728
1236.33,0.01711
1230.54,0.01675
1224.75,0.01659
1218.97,0.01734
1213.18,0.01640
1207.39,0.01653
1201.61,0.01551
1195.82,0.01580
1190.04,0.01596
1184.25,0.01554
1178.46,0.01537
1172.68,0.01497
1166.89,0.01478
1161.1,0.01478
1155.32,0.01466
1149.53,0.01471
1143.75,0.01545
1137.96,0.01514
1132.17,0.01524
1126.39,0.01562
1120.6,0.01560
1114.81,0.01625
1109.03,0.01578
1103.24,0.01586
1097.46,0.01555
1091.67,0.01573
1085.88,0.01539
1080.1,0.01594
1074.31,0.01671
1068.52,0.01723
1062.74,0.01757
1056.95,0.01696
1051.17,0.01691
1045.38,0.01627
1039.59,0.01720
1033.81,0.01678
1028.02,0.01673
1022.24,0.01702
1016.45,0.01738
1010.66,0.01750
1004.88,0.01857
999.09,0.01869
993.304,0.01910
987.518,0.01839
981.731,0.01734
975.945,0.01760
970.159,0.01751
964.373,0.01784
958.586,0.01763
952.8,0.01748
947.014,0.01721
941.228,0.01699
935.441,0.01710
929.655,0.01646
923.869,0.01657
918.083,0.01677
912.297,0.01669
906.51,0.01715
900.724,0.01602
894.938,0.01592
889.152,0.01641
883.365,0.01645
877.579,0.01597
871.793,0.01584
866.007,0.01610
860.22,0.01629
854.434,0.01607
848.648,0.01596
842.862,0.01666
837.075,0.01582
831.289,0.01512
825.503,0.01664
819.717,0.01576
813.931,0.01675
808.144,0.01522
802.358,0.01560
796.572,0.01568
790.786,0.01552
784.999,0.01553
779.213,0.01573
773.427,0.01509
767.641,0.01523
761.854,0.01539
756.068,0.01546
750.282,0.01479
744.496,0.01529
738.709,0.01648
732.923,0.01521
727.137,0.01515
721.351,0.01549
715.565,0.01476
709.778,0.01497
703.992,0.01463
698.206,0.01440
692.42,0.01460
686.633,0.01514
680.847,0.01518
675.061,0.01458
669.275,0.01493
663.488,0.01372
657.702,0.01263
651.916,0.01412
646.13,0.01423
640.343,0.01306
634.557,0.01339
628.771,0.01381
622.985,0.01211
617.198,0.01264
611.412,0.01231
605.626,0.01242
599.84,0.01498