File: 01_Data/PVC/FTIR/IS/PVC_IS_S_220818_R4.dpt
7497.03,0.11005
7491.25,0.11368
7485.46,0.10513
7479.67,0.10642
7473.89,0.10984
7468.1,0.11306
7462.32,0.10665
7456.53,0.10280
7450.74,0.11731
7444.96,0.11515
7439.17,0.11736
7433.38,0.11676
7427.6,0.11513
7421.81,0.11318
7416.03,0.10595
7410.24,0.10329
7404.45,0.09891
7398.67,0.11033
7392.88,0.11261
7387.09,0.11024
7381.31,0.10453
7375.52,0.11320
7369.74,0.11356
7363.95,0.11231
7358.16,0.10328
7352.38,0.11369
7346.59,0.11181
7340.8,0.11188
7335.02,0.10931
7329.23,0.11044
7323.45,0.10906
7317.66,0.11049
7311.87,0.11281
7306.09,0.11263
7300.3,0.10851
7294.51,0.10423
7288.73,0.10914
7282.94,0.10533
7277.16,0.10311
7271.37,0.10728
7265.58,0.10510
7259.8,0.10999
7254.01,0.10634
7248.22,0.10977
7242.44,0.10490
7236.65,0.09976
7230.87,0.10445
7225.08,0.10105
7219.29,0.10735
7213.51,0.10827
7207.72,0.10989
7201.93,0.11273
7196.15,0.10930
7190.36,0.10229
7184.58,0.10421
7178.79,0.10740
7173,0.10361
7167.22,0.10925
7161.43,0.10655
7155.65,0.11084
7149.86,0.10478
7144.07,0.10483
7138.29,0.10658
7132.5,0.10994
7126.71,0.10948
7120.93,0.10802
7115.14,0.10598
7109.36,0.10210
7103.57,0.09909
7097.78,0.10426
7092,0.10381
7086.21,0.10081
7080.42,0.10629
7074.64,0.10720
7068.85,0.10435
7063.07,0.10028
7057.28,0.09943
7051.49,0.10080
7045.71,0.10242
7039.92,0.10570
7034.13,0.10590
7028.35,0.10298
7022.56,0.09994
7016.78,0.10335
7010.99,0.11016
7005.2,0.10233
6999.42,0.10191
6993.63,0.10608
6987.84,0.10339
6982.06,0.10363
6976.27,0.10360
6970.49,0.10114
6964.7,0.10375
6958.91,0.10689
6953.13,0.10789
6947.34,0.10287
6941.55,0.10679
6935.77,0.10687
6929.98,0.10407
6924.2,0.10512
6918.41,0.10626
6912.62,0.10023
6906.84,0.10297
6901.05,0.10191
6895.26,0.10708
6889.48,0.10141
6883.69,0.10128
6877.91,0.10679
6872.12,0.10440
6866.33,0.10221
6860.55,0.10363
6854.76,0.10385
6848.97,0.10097
6843.19,0.10435
6837.4,0.10709
6831.62,0.10449
6825.83,0.10366
6820.04,0.10397
6814.26,0.10217
6808.47,0.10212
6802.68,0.10344
6796.9,0.10628
6791.11,0.10578
6785.33,0.10702
6779.54,0.10269
6773.75,0.11122
6767.97,0.10457
6762.18,0.10610
6756.39,0.10348
6750.61,0.10026
6744.82,0.10614
6739.04,0.10537
6733.25,0.10563
6727.46,0.10253
6721.68,0.09956
6715.89,0.10130
6710.1,0.09995
6704.32,0.10095
6698.53,0.10642
6692.75,0.10782
6686.96,0.10445
6681.17,0.09956
6675.39,0.10261
6669.6,0.10527
6663.82,0.10076
6658.03,0.10373
6652.24,0.10186
6646.46,0.10255
6640.67,0.10107
6634.88,0.09984
6629.1,0.09750
6623.31,0.09901
6617.53,0.09788
6611.74,0.09858
6605.95,0.10102
6600.17,0.09961
6594.38,0.10170
6588.59,0.10384
6582.81,0.10002
6577.02,0.10047
6571.24,0.10273
6565.45,0.10439
6559.66,0.10452
6553.88,0.09776
6548.09,0.10368
6542.3,0.10371
6536.52,0.09966
6530.73,0.09860
6524.95,0.09906
6519.16,0.10200
6513.37,0.10233
6507.59,0.10212
6501.8,0.10053
6496.01,0.10039
6490.23,0.09715
6484.44,0.09860
6478.66,0.10064
6472.87,0.09737
6467.08,0.09760
6461.3,0.09816
6455.51,0.09941
6449.72,0.09899
6443.94,0.10042
6438.15,0.09999
6432.37,0.09809
6426.58,0.10229
6420.79,0.09954
6415.01,0.10004
6409.22,0.09960
6403.43,0.09613
6397.65,0.09858
6391.86,0.09723
6386.08,0.10084
6380.29,0.09698
6374.5,0.09869
6368.72,0.09805
6362.93,0.09698
6357.14,0.09882
6351.36,0.09932
6345.57,0.09785
6339.79,0.09792
6334,0.09685
6328.21,0.09674
6322.43,0.09777
6316.64,0.10138
6310.85,0.09934
6305.07,0.10002
6299.28,0.09831
6293.5,0.09898
6287.71,0.09771
6281.92,0.09822
6276.14,0.09779
6270.35,0.09651
6264.56,0.09934
6258.78,0.09770
6252.99,0.09434
6247.21,0.09534
6241.42,0.09727
6235.63,0.09441
6229.85,0.09467
6224.06,0.09757
6218.27,0.09550
6212.49,0.09705
6206.7,0.09844
6200.92,0.09360
6195.13,0.09740
6189.34,0.09743
6183.56,0.09843
6177.77,0.09650
6171.98,0.09356
6166.2,0.09715
6160.41,0.09626
6154.63,0.09680
6148.84,0.09579
6143.05,0.09641
6137.27,0.09475
6131.48,0.09739
6125.7,0.09510
6119.91,0.09601
6114.12,0.09534
6108.34,0.09516
6102.55,0.09664
6096.76,0.09428
6090.98,0.09353
6085.19,0.09606
6079.41,0.09482
6073.62,0.09375
6067.83,0.09253
6062.05,0.09382
6056.26,0.09760
6050.47,0.09867
6044.69,0.09353
6038.9,0.09424
6033.12,0.09403
6027.33,0.09373
6021.54,0.09531
6015.76,0.09497
6009.97,0.09156
6004.18,0.09402
5998.4,0.09182
5992.61,0.09283
5986.83,0.09283
5981.04,0.09387
5975.25,0.09293
5969.47,0.09468
5963.68,0.09028
5957.89,0.09360
5952.11,0.09226
5946.32,0.09171
5940.54,0.09148
5934.75,0.09190
5928.96,0.09117
5923.18,0.08872
5917.39,0.08843
5911.6,0.08865
5905.82,0.08870
5900.03,0.08438
5894.25,0.08388
5888.46,0.08547
5882.67,0.08214
5876.89,0.08319
5871.1,0.08013
5865.31,0.07800
5859.53,0.07823
5853.74,0.07816
5847.96,0.07556
5842.17,0.07542
5836.38,0.07461
5830.6,0.07500
5824.81,0.07353
5819.02,0.07295
5813.24,0.07530
5807.45,0.07375
5801.67,0.07607
5795.88,0.07619
5790.09,0.07811
5784.31,0.07953
5778.52,0.08008
5772.73,0.08067
5766.95,0.08128
5761.16,0.08027
5755.38,0.07998
5749.59,0.07894
5743.8,0.07965
5738.02,0.07771
5732.23,0.07919
5726.44,0.07889
5720.66,0.07985
5714.87,0.07851
5709.09,0.07940
5703.3,0.07958
5697.51,0.08041
5691.73,0.08201
5685.94,0.08024
5680.15,0.08047
5674.37,0.08092
5668.58,0.08277
5662.8,0.08069
5657.01,0.08009
5651.22,0.07920
5645.44,0.08267
5639.65,0.08204
5633.87,0.08218
5628.08,0.08174
5622.29,0.08410
5616.51,0.08241
5610.72,0.08240
5604.93,0.08235
5599.15,0.08292
5593.36,0.08207
5587.58,0.08341
5581.79,0.08375
5576,0.08280
5570.22,0.08287
5564.43,0.08559
5558.64,0.08507
5552.86,0.08487
5547.07,0.08465
5541.29,0.08514
5535.5,0.08417
5529.71,0.08439
5523.93,0.08373
5518.14,0.08511
5512.35,0.08278
5506.57,0.08318
5500.78,0.08206
5495,0.08150
5489.21,0.08301
5483.42,0.08227
5477.64,0.08185
5471.85,0.08183
5466.06,0.08280
5460.28,0.08313
5454.49,0.08384
5448.71,0.08339
5442.92,0.08341
5437.13,0.08358
5431.35,0.08423
5425.56,0.08265
5419.77,0.08287
5413.99,0.08240
5408.2,0.08243
5402.42,0.08319
5396.63,0.08416
5390.84,0.08528
5385.06,0.08347
5379.27,0.08115
5373.48,0.08397
5367.7,0.08377
5361.91,0.08377
5356.13,0.08444
5350.34,0.08313
5344.55,0.08532
5338.77,0.08230
5332.98,0.08409
5327.19,0.08498
5321.41,0.08486
5315.62,0.08402
5309.84,0.08434
5304.05,0.08394
5298.26,0.08475
5292.48,0.08530
5286.69,0.08501
5280.9,0.08432
5275.12,0.08356
5269.33,0.08372
5263.55,0.08257
5257.76,0.08350
5251.97,0.08362
5246.19,0.08313
5240.4,0.08277
5234.61,0.08360
5228.83,0.08251
5223.04,0.08301
5217.26,0.08209
5211.47,0.08320
5205.68,0.08276
5199.9,0.08359
5194.11,0.08273
5188.32,0.08306
5182.54,0.08369
5176.75,0.08366
5170.97,0.08254
5165.18,0.08285
5159.39,0.08305
5153.61,0.08291
5147.82,0.08232
5142.03,0.08264
5136.25,0.08230
5130.46,0.08294
5124.68,0.08292
5118.89,0.08386
5113.1,0.08302
5107.32,0.08340
5101.53,0.08331
5095.75,0.08304
5089.96,0.08218
5084.17,0.08143
5078.39,0.08254
5072.6,0.08329
5066.81,0.08230
5061.03,0.08298
5055.24,0.08205
5049.46,0.08215
5043.67,0.08266
5037.88,0.08239
5032.1,0.08208
5026.31,0.08250
5020.52,0.08246
5014.74,0.08293
5008.95,0.08217
5003.17,0.08146
4997.38,0.08175
4991.59,0.08180
4985.81,0.08360
4980.02,0.08230
4974.23,0.08216
4968.45,0.08257
4962.66,0.08194
4956.88,0.08185
4951.09,0.08187
4945.3,0.08146
4939.52,0.08078
4933.73,0.08152
4927.94,0.08143
4922.16,0.08109
4916.37,0.08114
4910.59,0.08125
4904.8,0.08164
4899.01,0.08208
4893.23,0.08098
4887.44,0.08123
4881.65,0.08166
4875.87,0.08117
4870.08,0.08070
4864.3,0.08022
4858.51,0.08158
4852.72,0.08089
4846.94,0.07989
4841.15,0.07993
4835.36,0.08126
4829.58,0.08037
4823.79,0.08100
4818.01,0.08070
4812.22,0.08093
4806.43,0.08028
4800.65,0.08093
4794.86,0.08065
4789.07,0.08048
4783.29,0.08113
4777.5,0.08064
4771.72,0.08016
4765.93,0.08071
4760.14,0.07978
4754.36,0.08007
4748.57,0.07958
4742.78,0.07950
4737,0.07967
4731.21,0.07989
4725.43,0.07959
4719.64,0.07906
4713.85,0.07991
4708.07,0.08023
4702.28,0.07923
4696.49,0.07998
4690.71,0.08012
4684.92,0.07960
4679.14,0.07928
4673.35,0.07923
4667.56,0.07860
4661.78,0.07915
4655.99,0.07893
4650.2,0.07917
4644.42,0.07849
4638.63,0.07825
4632.85,0.07881
4627.06,0.07855
4621.27,0.07882
4615.49,0.07810
4609.7,0.07889
4603.92,0.07861
4598.13,0.07861
4592.34,0.07834
4586.56,0.07810
4580.77,0.07884
4574.98,0.07831
4569.2,0.07782
4563.41,0.07785
4557.63,0.07755
4551.84,0.07761
4546.05,0.07849
4540.27,0.07855
4534.48,0.07739
4528.69,0.07636
4522.91,0.07704
4517.12,0.07715
4511.34,0.07661
4505.55,0.07703
4499.76,0.07527
4493.98,0.07523
4488.19,0.07504
4482.4,0.07471
4476.62,0.07417
4470.83,0.07459
4465.05,0.07375
4459.26,0.07335
4453.47,0.07280
4447.69,0.07193
4441.9,0.07156
4436.11,0.07083
4430.33,0.07012
4424.54,0.06927
4418.76,0.06920
4412.97,0.06878
4407.18,0.06841
4401.4,0.06781
4395.61,0.06679
4389.82,0.06560
4384.04,0.06535
4378.25,0.06335
4372.47,0.06300
4366.68,0.06249
4360.89,0.06171
4355.11,0.06081
4349.32,0.06228
4343.53,0.06110
4337.75,0.06036
4331.96,0.06081
4326.18,0.06013
4320.39,0.06030
4314.6,0.06115
4308.82,0.06080
4303.03,0.06202
4297.24,0.06134
4291.46,0.06200
4285.67,0.06185
4279.89,0.06231
4274.1,0.06217
4268.31,0.06182
4262.53,0.06243
4256.74,0.06154
4250.95,0.06170
4245.17,0.06201
4239.38,0.06116
4233.6,0.06164
4227.81,0.06120
4222.02,0.06190
4216.24,0.06107
4210.45,0.06088
4204.66,0.06065
4198.88,0.06068
4193.09,0.06155
4187.31,0.06166
4181.52,0.06194
4175.73,0.06209
4169.95,0.06149
4164.16,0.06171
4158.37,0.06193
4152.59,0.06232
4146.8,0.06228
4141.02,0.06226
4135.23,0.06244
4129.44,0.06305
4123.66,0.06378
4117.87,0.06250
4112.09,0.06295
4106.3,0.06283
4100.51,0.06269
4094.73,0.06307
4088.94,0.06289
4083.15,0.06254
4077.37,0.06261
4071.58,0.06296
4065.8,0.06306
4060.01,0.06305
4054.22,0.06346
4048.44,0.06331
4042.65,0.06327
4036.86,0.06318
4031.08,0.06333
4025.29,0.06325
4019.51,0.06343
4013.72,0.06316
4007.93,0.06377
4002.15,0.06301
3996.36,0.06341
3990.57,0.06328
3984.79,0.06408
3979,0.06371
3973.22,0.06461
3967.43,0.06430
3961.64,0.06435
3955.86,0.06422
3950.07,0.06493
3944.28,0.06460
3938.5,0.06474
3932.71,0.06476
3926.93,0.06483
3921.14,0.06473
3915.35,0.06424
3909.57,0.06439
3903.78,0.06413
3897.99,0.06420
3892.21,0.06505
3886.42,0.06465
3880.64,0.06453
3874.85,0.06429
3869.06,0.06387
3863.28,0.06474
3857.49,0.06436
3851.7,0.06474
3845.92,0.06433
3840.13,0.06449
3834.35,0.06431
3828.56,0.06418
3822.77,0.06467
3816.99,0.06443
3811.2,0.06420
3805.41,0.06472
3799.63,0.06425
3793.84,0.06459
3788.06,0.06432
3782.27,0.06478
3776.48,0.06411
3770.7,0.06422
3764.91,0.06468
3759.12,0.06515
3753.34,0.06461
3747.55,0.06506
3741.77,0.06507
3735.98,0.06513
3730.19,0.06523
3724.41,0.06558
3718.62,0.06575
3712.83,0.06442
3707.05,0.06479
3701.26,0.06484
3695.48,0.06348
3689.69,0.06334
3683.9,0.06167
3678.12,0.06158
3672.33,0.06126
3666.54,0.06117
3660.76,0.06082
3654.97,0.06118
3649.19,0.06176
3643.4,0.06192
3637.61,0.06212
3631.83,0.06204
3626.04,0.06128
3620.25,0.06183
3614.47,0.06089
3608.68,0.06059
3602.9,0.06016
3597.11,0.06081
3591.32,0.06002
3585.54,0.06021
3579.75,0.06089
3573.97,0.06044
3568.18,0.06057
3562.39,0.06070
3556.61,0.06003
3550.82,0.05975
3545.03,0.05995
3539.25,0.06005
3533.46,0.05984
3527.68,0.05969
3521.89,0.06010
3516.1,0.05956
3510.32,0.05970
3504.53,0.06020
3498.74,0.05954
3492.96,0.05965
3487.17,0.05944
3481.39,0.05918
3475.6,0.05890
3469.81,0.05920
3464.03,0.05899
3458.24,0.05943
3452.45,0.05940
3446.67,0.05867
3440.88,0.05913
3435.1,0.05923
3429.31,0.05912
3423.52,0.05861
3417.74,0.05945
3411.95,0.05857
3406.16,0.05862
3400.38,0.05917
3394.59,0.05919
3388.81,0.05886
3383.02,0.05866
3377.23,0.05808
3371.45,0.05895
3365.66,0.05908
3359.87,0.05836
3354.09,0.05903
3348.3,0.05796
3342.52,0.05803
3336.73,0.05777
3330.94,0.05829
3325.16,0.05896
3319.37,0.05822
3313.58,0.05797
3307.8,0.05897
3302.01,0.05842
3296.23,0.05863
3290.44,0.05855
3284.65,0.05813
3278.87,0.05796
3273.08,0.05857
3267.29,0.05856
3261.51,0.05840
3255.72,0.05941
3249.94,0.05870
3244.15,0.05795
3238.36,0.05807
3232.58,0.05736
3226.79,0.05843
3221,0.05831
3215.22,0.05785
3209.43,0.05958
3203.65,0.05881
3197.86,0.05791
3192.07,0.05843
3186.29,0.05840
3180.5,0.05956
3174.71,0.05920
3168.93,0.05786
3163.14,0.05804
3157.36,0.05787
3151.57,0.05790
3145.78,0.05872
3140,0.05807
3134.21,0.05944
3128.42,0.05783
3122.64,0.05769
3116.85,0.05844
3111.07,0.05755
3105.28,0.05795
3099.49,0.05780
3093.71,0.05734
3087.92,0.05749
3082.14,0.05700
3076.35,0.05759
3070.56,0.05700
3064.78,0.05724
3058.99,0.05706
3053.2,0.05661
3047.42,0.05592
3041.63,0.05623
3035.85,0.05660
3030.06,0.05612
3024.27,0.05598
3018.49,0.05612
3012.7,0.05523
3006.91,0.05536
3001.13,0.05517
2995.34,0.05467
2989.56,0.05469
2983.77,0.05442
2977.98,0.05423
2972.2,0.05427
2966.41,0.05431
2960.62,0.05425
2954.84,0.05484
2949.05,0.05445
2943.27,0.05512
2937.48,0.05542
2931.69,0.05549
2925.91,0.05610
2920.12,0.05650
2914.33,0.05679
2908.55,0.05709
2902.76,0.05703
2896.98,0.05769
2891.19,0.05695
2885.4,0.05696
2879.62,0.05647
2873.83,0.05618
2868.04,0.05638
2862.26,0.05644
2856.47,0.05654
2850.69,0.05729
2844.9,0.05750
2839.11,0.05721
2833.33,0.05733
2827.54,0.05723
2821.75,0.05621
2815.97,0.05635
2810.18,0.05653
2804.4,0.05701
2798.61,0.05696
2792.82,0.05700
2787.04,0.05672
2781.25,0.05723
2775.46,0.05735
2769.68,0.05759
2763.89,0.05740
2758.11,0.05687
2752.32,0.05698
2746.53,0.05694
2740.75,0.05714
2734.96,0.05703
2729.17,0.05702
2723.39,0.05641
2717.6,0.05687
2711.82,0.05687
2706.03,0.05731
2700.24,0.05676
2694.46,0.05680
2688.67,0.05681
2682.88,0.05647
2677.1,0.05690
2671.31,0.05681
2665.53,0.05679
2659.74,0.05678
2653.95,0.05699
2648.17,0.05698
2642.38,0.05691
2636.59,0.05679
2630.81,0.05678
2625.02,0.05663
2619.24,0.05631
2613.45,0.05597
2607.66,0.05652
2601.88,0.05637
2596.09,0.05670
2590.3,0.05651
2584.52,0.05618
2578.73,0.05595
2572.95,0.05624
2567.16,0.05634
2561.37,0.05624
2555.59,0.05597
2549.8,0.05594
2544.02,0.05603
2538.23,0.05611
2532.44,0.05565
2526.66,0.05597
2520.87,0.05629
2515.08,0.05609
2509.3,0.05615
2503.51,0.05629
2497.73,0.05653
2491.94,0.05667
2486.15,0.05631
2480.37,0.05666
2474.58,0.05655
2468.79,0.05638
2463.01,0.05636
2457.22,0.05641
2451.44,0.05657
2445.65,0.05673
2439.86,0.05650
2434.08,0.05610
2428.29,0.05632
2422.5,0.05654
2416.72,0.05639
2410.93,0.05602
2405.15,0.05622
2399.36,0.05613
2393.57,0.05632
2387.79,0.05603
2382,0.05638
2376.21,0.05655
2370.43,0.05635
2364.64,0.05617
2358.86,0.05589
2353.07,0.05613
2347.28,0.05591
2341.5,0.05613
2335.71,0.05627
2329.92,0.05646
2324.14,0.05614
2318.35,0.05626
2312.57,0.05616
2306.78,0.05581
2300.99,0.05603
2295.21,0.05625
2289.42,0.05603
2283.63,0.05630
2277.85,0.05654
2272.06,0.05608
2266.28,0.05633
2260.49,0.05659
2254.7,0.05643
2248.92,0.05642
2243.13,0.05628
2237.34,0.05624
2231.56,0.05622
2225.77,0.05632
2219.99,0.05658
2214.2,0.05632
2208.41,0.05652
2202.63,0.05661
2196.84,0.05635
2191.05,0.05670
2185.27,0.05641
2179.48,0.05659
2173.7,0.05668
2167.91,0.05675
2162.12,0.05692
2156.34,0.05706
2150.55,0.05679
2144.76,0.05657
2138.98,0.05679
2133.19,0.05672
2127.41,0.05678
2121.62,0.05691
2115.83,0.05685
2110.05,0.05706
2104.26,0.05685
2098.47,0.05716
2092.69,0.05706
2086.9,0.05737
2081.12,0.05712
2075.33,0.05715
2069.54,0.05754
2063.76,0.05704
2057.97,0.05732
2052.19,0.05711
2046.4,0.05706
2040.61,0.05719
2034.83,0.05751
2029.04,0.05759
2023.25,0.05737
2017.47,0.05761
2011.68,0.05760
2005.9,0.05734
2000.11,0.05741
1994.32,0.05762
1988.54,0.05764
1982.75,0.05781
1976.96,0.05811
1971.18,0.05811
1965.39,0.05826
1959.61,0.05849
1953.82,0.05817
1948.03,0.05833
1942.25,0.05839
1936.46,0.05880
1930.67,0.05911
1924.89,0.05868
1919.1,0.05923
1913.32,0.05953
1907.53,0.05978
1901.74,0.05973
1895.96,0.06010
1890.17,0.06041
1884.38,0.06073
1878.6,0.06092
1872.81,0.06066
1867.03,0.06111
1861.24,0.06147
1855.45,0.06148
1849.67,0.06182
1843.88,0.06165
1838.09,0.06179
1832.31,0.06207
1826.52,0.06209
1820.74,0.06192
1814.95,0.06214
1809.16,0.06220
1803.38,0.06055
1797.59,0.05740
1791.8,0.05638
1786.02,0.05773
1780.23,0.05854
1774.45,0.05885
1768.66,0.05825
1762.87,0.05717
1757.09,0.05543
1751.3,0.05380
1745.51,0.05284
1739.73,0.05288
1733.94,0.05382
1728.16,0.05534
1722.37,0.05606
1716.58,0.05629
1710.8,0.05742
1705.01,0.05806
1699.22,0.05884
1693.44,0.05982
1687.65,0.06058
1681.87,0.06143
1676.08,0.06311
1670.29,0.06501
1664.51,0.06695
1658.72,0.06852
1652.93,0.06986
1647.15,0.07093
1641.36,0.07135
1635.58,0.07221
1629.79,0.07275
1624,0.07247
1618.22,0.07290
1612.43,0.07296
1606.64,0.07219
1600.86,0.07135
1595.07,0.07410
1589.29,0.07405
1583.5,0.07211
1577.71,0.07113
1571.93,0.07326
1566.14,0.07455
1560.35,0.07600
1554.57,0.07947
1548.78,0.07967
1543,0.07700
1537.21,0.07747
1531.42,0.07970
1525.64,0.07932
1519.85,0.07751
1514.07,0.07512
1508.28,0.07268
1502.49,0.07035
1496.71,0.06736
1490.92,0.06433
1485.13,0.06184
1479.35,0.06030
1473.56,0.05920
1467.78,0.05902
1461.99,0.05985
1456.2,0.06016
1450.42,0.06070
1444.63,0.06153
1438.84,0.06208
1433.06,0.06604
1427.27,0.06990
1421.49,0.07602
1415.7,0.08164
1409.91,0.08578
1404.13,0.08577
1398.34,0.08393
1392.55,0.08524
1386.77,0.08433
1380.98,0.08207
1375.2,0.08062
1369.41,0.07933
1363.62,0.07576
1357.84,0.07182
1352.05,0.06931
1346.26,0.06726
1340.48,0.06358
1334.69,0.06205
1328.91,0.06223
1323.12,0.06282
1317.33,0.06324
1311.55,0.06321
1305.76,0.06257
1299.97,0.06247
1294.19,0.06219
1288.4,0.06126
1282.62,0.05969
1276.83,0.05811
1271.04,0.05692
1265.26,0.05660
1259.47,0.05720
1253.68,0.05848
1247.9,0.06020
1242.11,0.06124
1236.33,0.06273
1230.54,0.06291
1224.75,0.06281
1218.97,0.06199
1213.18,0.06162
1207.39,0.06069
1201.61,0.06017
1195.82,0.06051
1190.04,0.06022
1184.25,0.06061
1178.46,0.06065
1172.68,0.06028
1166.89,0.06061
1161.1,0.06117
1155.32,0.06098
1149.53,0.06104
1143.75,0.06088
1137.96,0.06050
1132.17,0.05913
1126.39,0.05864
1120.6,0.05831
1114.81,0.05796
1109.03,0.05788
1103.24,0.05828
1097.46,0.05859
1091.67,0.05926
1085.88,0.05955
1080.1,0.05894
1074.31,0.05900
1068.52,0.05918
1062.74,0.05869
1056.95,0.05943
1051.17,0.05878
1045.38,0.05894
1039.59,0.05854
1033.81,0.05830
1028.02,0.05828
1022.24,0.05835
1016.45,0.05759
1010.66,0.05774
1004.88,0.05692
999.09,0.05703
993.304,0.05694
987.518,0.05651
981.731,0.05637
975.945,0.05574
970.159,0.05672
964.373,0.05738
958.586,0.05852
952.8,0.05900
947.014,0.05979
941.228,0.05934
935.441,0.05891
929.655,0.05926
923.869,0.05889
918.083,0.05905
912.297,0.05864
906.51,0.05839
900.724,0.05799
894.938,0.05785
889.152,0.05820
883.365,0.05852
877.579,0.05997
871.793,0.06464
866.007,0.06205
860.22,0.06006
854.434,0.05920
848.648,0.05918
842.862,0.05906
837.075,0.05833
831.289,0.05848
825.503,0.05893
819.717,0.05879
813.931,0.05824
808.144,0.05767
802.358,0.05809
796.572,0.05765
790.786,0.05760
784.999,0.05698
779.213,0.05695
773.427,0.05596
767.641,0.05581
761.854,0.05600
756.068,0.05602
750.282,0.05478
744.496,0.05482
738.709,0.05364
732.923,0.05460
727.137,0.05249
721.351,0.05129
715.565,0.05171
709.778,0.05243
703.992,0.05297
698.206,0.05284
692.42,0.05366
686.633,0.05554
680.847,0.05529
675.061,0.05529
669.275,0.05450
663.488,0.05348
657.702,0.05097
651.916,0.05044
646.13,0.05125
640.343,0.05344
634.557,0.05409
628.771,0.05635
622.985,0.05494
617.198,0.05842
611.412,0.06065
605.626,0.06347
599.84,0.06447