File: 01_Data/Nylon_Carpet_Low_Pile/FTIR/IS/Deprecated/Nylon_Carpet_Low_Pile_IS_T_221122_R10.dpt
7497.03,0.02496
7491.25,0.01496
7485.46,0.01653
7479.67,0.01456
7473.89,0.02514
7468.1,0.01440
7462.32,0.01925
7456.53,0.03032
7450.74,0.02009
7444.96,0.02251
7439.17,0.01800
7433.38,0.01608
7427.6,0.02087
7421.81,0.02235
7416.03,0.02789
7410.24,0.02942
7404.45,0.02858
7398.67,0.01332
7392.88,0.02030
7387.09,0.02638
7381.31,0.02159
7375.52,0.03152
7369.74,0.01857
7363.95,0.02692
7358.16,0.03070
7352.38,0.03161
7346.59,0.02174
7340.8,0.01964
7335.02,0.02490
7329.23,0.01852
7323.45,0.02814
7317.66,0.02390
7311.87,0.02537
7306.09,0.02992
7300.3,0.02149
7294.51,0.02589
7288.73,0.03673
7282.94,0.02757
7277.16,0.02903
7271.37,0.02826
7265.58,0.02387
7259.8,0.02496
7254.01,0.02671
7248.22,0.02503
7242.44,0.02929
7236.65,0.02659
7230.87,0.02121
7225.08,0.01973
7219.29,0.03189
7213.51,0.01772
7207.72,0.02088
7201.93,0.01596
7196.15,0.02241
7190.36,0.02146
7184.58,0.02083
7178.79,0.01526
7173,0.02507
7167.22,0.01898
7161.43,0.03016
7155.65,0.02921
7149.86,0.01978
7144.07,0.03102
7138.29,0.02552
7132.5,0.02878
7126.71,0.02492
7120.93,0.02697
7115.14,0.02293
7109.36,0.02383
7103.57,0.02095
7097.78,0.02499
7092,0.02564
7086.21,0.02419
7080.42,0.02803
7074.64,0.02354
7068.85,0.02172
7063.07,0.02851
7057.28,0.02444
7051.49,0.02420
7045.71,0.02794
7039.92,0.02939
7034.13,0.01669
7028.35,0.02624
7022.56,0.02006
7016.78,0.02844
7010.99,0.02326
7005.2,0.02124
6999.42,0.02352
6993.63,0.01464
6987.84,0.02208
6982.06,0.02078
6976.27,0.02064
6970.49,0.02053
6964.7,0.01811
6958.91,0.02697
6953.13,0.03177
6947.34,0.02105
6941.55,0.01737
6935.77,0.02580
6929.98,0.02462
6924.2,0.02030
6918.41,0.02552
6912.62,0.02259
6906.84,0.02576
6901.05,0.02489
6895.26,0.02108
6889.48,0.02271
6883.69,0.02025
6877.91,0.02716
6872.12,0.02168
6866.33,0.02728
6860.55,0.02453
6854.76,0.02379
6848.97,0.02612
6843.19,0.02093
6837.4,0.01813
6831.62,0.02623
6825.83,0.02506
6820.04,0.02405
6814.26,0.01607
6808.47,0.01940
6802.68,0.02525
6796.9,0.02950
6791.11,0.02232
6785.33,0.02538
6779.54,0.02740
6773.75,0.02257
6767.97,0.02560
6762.18,0.02602
6756.39,0.02567
6750.61,0.02305
6744.82,0.01556
6739.04,0.02130
6733.25,0.02252
6727.46,0.02029
6721.68,0.02118
6715.89,0.02110
6710.1,0.01852
6704.32,0.02429
6698.53,0.01851
6692.75,0.02273
6686.96,0.02347
6681.17,0.02335
6675.39,0.02608
6669.6,0.02344
6663.82,0.02362
6658.03,0.02028
6652.24,0.02558
6646.46,0.02875
6640.67,0.02398
6634.88,0.02402
6629.1,0.02375
6623.31,0.02329
6617.53,0.01761
6611.74,0.01733
6605.95,0.01887
6600.17,0.02671
6594.38,0.02009
6588.59,0.02071
6582.81,0.02293
6577.02,0.01918
6571.24,0.01927
6565.45,0.02331
6559.66,0.01987
6553.88,0.02247
6548.09,0.02791
6542.3,0.02428
6536.52,0.02271
6530.73,0.02042
6524.95,0.02284
6519.16,0.02463
6513.37,0.02338
6507.59,0.02353
6501.8,0.02166
6496.01,0.01996
6490.23,0.02271
6484.44,0.02062
6478.66,0.01632
6472.87,0.02714
6467.08,0.02336
6461.3,0.02096
6455.51,0.02035
6449.72,0.01800
6443.94,0.01928
6438.15,0.02125
6432.37,0.02152
6426.58,0.02438
6420.79,0.02503
6415.01,0.01972
6409.22,0.02378
6403.43,0.01930
6397.65,0.01933
6391.86,0.02139
6386.08,0.02085
6380.29,0.01722
6374.5,0.02492
6368.72,0.02289
6362.93,0.02355
6357.14,0.02442
6351.36,0.02389
6345.57,0.02021
6339.79,0.02451
6334,0.02028
6328.21,0.01994
6322.43,0.02242
6316.64,0.01950
6310.85,0.02305
6305.07,0.02231
6299.28,0.02024
6293.5,0.02153
6287.71,0.02315
6281.92,0.02444
6276.14,0.02234
6270.35,0.02387
6264.56,0.02606
6258.78,0.02260
6252.99,0.02171
6247.21,0.02156
6241.42,0.02247
6235.63,0.02053
6229.85,0.02098
6224.06,0.02416
6218.27,0.02522
6212.49,0.02227
6206.7,0.02305
6200.92,0.02296
6195.13,0.02004
6189.34,0.01956
6183.56,0.02395
6177.77,0.02210
6171.98,0.02153
6166.2,0.02027
6160.41,0.02124
6154.63,0.02016
6148.84,0.02204
6143.05,0.02394
6137.27,0.02079
6131.48,0.02378
6125.7,0.02175
6119.91,0.02154
6114.12,0.02181
6108.34,0.02156
6102.55,0.01978
6096.76,0.01958
6090.98,0.02287
6085.19,0.02323
6079.41,0.02180
6073.62,0.02158
6067.83,0.02273
6062.05,0.02351
6056.26,0.02640
6050.47,0.02096
6044.69,0.01932
6038.9,0.02186
6033.12,0.02038
6027.33,0.01927
6021.54,0.02260
6015.76,0.02160
6009.97,0.02141
6004.18,0.01980
5998.4,0.02307
5992.61,0.02120
5986.83,0.02059
5981.04,0.02140
5975.25,0.02088
5969.47,0.02140
5963.68,0.02238
5957.89,0.02084
5952.11,0.01993
5946.32,0.02083
5940.54,0.02117
5934.75,0.01943
5928.96,0.02141
5923.18,0.01708
5917.39,0.01724
5911.6,0.02396
5905.82,0.02338
5900.03,0.02201
5894.25,0.02008
5888.46,0.02058
5882.67,0.02020
5876.89,0.02025
5871.1,0.02103
5865.31,0.02070
5859.53,0.02116
5853.74,0.02138
5847.96,0.02311
5842.17,0.02503
5836.38,0.02162
5830.6,0.01902
5824.81,0.02066
5819.02,0.02114
5813.24,0.02062
5807.45,0.01899
5801.67,0.02001
5795.88,0.02290
5790.09,0.02347
5784.31,0.02189
5778.52,0.02091
5772.73,0.02113
5766.95,0.01964
5761.16,0.02298
5755.38,0.02036
5749.59,0.02174
5743.8,0.02085
5738.02,0.02061
5732.23,0.02035
5726.44,0.01998
5720.66,0.02211
5714.87,0.02379
5709.09,0.02047
5703.3,0.02137
5697.51,0.02191
5691.73,0.02321
5685.94,0.02418
5680.15,0.02338
5674.37,0.02292
5668.58,0.02281
5662.8,0.02422
5657.01,0.01990
5651.22,0.02136
5645.44,0.02215
5639.65,0.02147
5633.87,0.02139
5628.08,0.02132
5622.29,0.02082
5616.51,0.02206
5610.72,0.02147
5604.93,0.02084
5599.15,0.02279
5593.36,0.02116
5587.58,0.02097
5581.79,0.02052
5576,0.02157
5570.22,0.02224
5564.43,0.02205
5558.64,0.02086
5552.86,0.02117
5547.07,0.02322
5541.29,0.02210
5535.5,0.02139
5529.71,0.02037
5523.93,0.02007
5518.14,0.02156
5512.35,0.01996
5506.57,0.02037
5500.78,0.02129
5495,0.01985
5489.21,0.02161
5483.42,0.02202
5477.64,0.02288
5471.85,0.02070
5466.06,0.02076
5460.28,0.02112
5454.49,0.02272
5448.71,0.02133
5442.92,0.02068
5437.13,0.02101
5431.35,0.01975
5425.56,0.02218
5419.77,0.02349
5413.99,0.02231
5408.2,0.02057
5402.42,0.02167
5396.63,0.02131
5390.84,0.02132
5385.06,0.02155
5379.27,0.02113
5373.48,0.02280
5367.7,0.02257
5361.91,0.02123
5356.13,0.02235
5350.34,0.02162
5344.55,0.02251
5338.77,0.02113
5332.98,0.02327
5327.19,0.02285
5321.41,0.02281
5315.62,0.02174
5309.84,0.02251
5304.05,0.02225
5298.26,0.02355
5292.48,0.02093
5286.69,0.02112
5280.9,0.02297
5275.12,0.02131
5269.33,0.02104
5263.55,0.02116
5257.76,0.02235
5251.97,0.02213
5246.19,0.02197
5240.4,0.02169
5234.61,0.02101
5228.83,0.02248
5223.04,0.02106
5217.26,0.02102
5211.47,0.02244
5205.68,0.02164
5199.9,0.02229
5194.11,0.02094
5188.32,0.02218
5182.54,0.02235
5176.75,0.02202
5170.97,0.02132
5165.18,0.02190
5159.39,0.02180
5153.61,0.02323
5147.82,0.02136
5142.03,0.02056
5136.25,0.01929
5130.46,0.02291
5124.68,0.02088
5118.89,0.02210
5113.1,0.02110
5107.32,0.02206
5101.53,0.02172
5095.75,0.02268
5089.96,0.02343
5084.17,0.02279
5078.39,0.02275
5072.6,0.02141
5066.81,0.02205
5061.03,0.02231
5055.24,0.02290
5049.46,0.02134
5043.67,0.02088
5037.88,0.02270
5032.1,0.02208
5026.31,0.02192
5020.52,0.02248
5014.74,0.02149
5008.95,0.02050
5003.17,0.02114
4997.38,0.02220
4991.59,0.02098
4985.81,0.02200
4980.02,0.02233
4974.23,0.02157
4968.45,0.02185
4962.66,0.02135
4956.88,0.02126
4951.09,0.02072
4945.3,0.02173
4939.52,0.02192
4933.73,0.02086
4927.94,0.02187
4922.16,0.02138
4916.37,0.02196
4910.59,0.02217
4904.8,0.02236
4899.01,0.02290
4893.23,0.02119
4887.44,0.02098
4881.65,0.02213
4875.87,0.02141
4870.08,0.02152
4864.3,0.02152
4858.51,0.02237
4852.72,0.02116
4846.94,0.02212
4841.15,0.02083
4835.36,0.02074
4829.58,0.02174
4823.79,0.02181
4818.01,0.02267
4812.22,0.02234
4806.43,0.02134
4800.65,0.02180
4794.86,0.02205
4789.07,0.02244
4783.29,0.02076
4777.5,0.02201
4771.72,0.02197
4765.93,0.02073
4760.14,0.02174
4754.36,0.02099
4748.57,0.02099
4742.78,0.02223
4737,0.02140
4731.21,0.02149
4725.43,0.02236
4719.64,0.02214
4713.85,0.02069
4708.07,0.02118
4702.28,0.02159
4696.49,0.02187
4690.71,0.02155
4684.92,0.02150
4679.14,0.02136
4673.35,0.02210
4667.56,0.02207
4661.78,0.02280
4655.99,0.02141
4650.2,0.02189
4644.42,0.02109
4638.63,0.02244
4632.85,0.02165
4627.06,0.02073
4621.27,0.02171
4615.49,0.02215
4609.7,0.02186
4603.92,0.02180
4598.13,0.02166
4592.34,0.02269
4586.56,0.02183
4580.77,0.02176
4574.98,0.02259
4569.2,0.02158
4563.41,0.02199
4557.63,0.02269
4551.84,0.02245
4546.05,0.02150
4540.27,0.02096
4534.48,0.02139
4528.69,0.02164
4522.91,0.02138
4517.12,0.02239
4511.34,0.02132
4505.55,0.02229
4499.76,0.02226
4493.98,0.02193
4488.19,0.02170
4482.4,0.02258
4476.62,0.02207
4470.83,0.02179
4465.05,0.02297
4459.26,0.02171
4453.47,0.02082
4447.69,0.02177
4441.9,0.02175
4436.11,0.02188
4430.33,0.02202
4424.54,0.02143
4418.76,0.02140
4412.97,0.02228
4407.18,0.02187
4401.4,0.02228
4395.61,0.02239
4389.82,0.02171
4384.04,0.02226
4378.25,0.02152
4372.47,0.02202
4366.68,0.02173
4360.89,0.02155
4355.11,0.02271
4349.32,0.02162
4343.53,0.02144
4337.75,0.02088
4331.96,0.02160
4326.18,0.02201
4320.39,0.02195
4314.6,0.02194
4308.82,0.02312
4303.03,0.02236
4297.24,0.02190
4291.46,0.02146
4285.67,0.02177
4279.89,0.02238
4274.1,0.02184
4268.31,0.02185
4262.53,0.02179
4256.74,0.02252
4250.95,0.02287
4245.17,0.02196
4239.38,0.02246
4233.6,0.02166
4227.81,0.02213
4222.02,0.02151
4216.24,0.02137
4210.45,0.02166
4204.66,0.02168
4198.88,0.02248
4193.09,0.02151
4187.31,0.02218
4181.52,0.02199
4175.73,0.02209
4169.95,0.02240
4164.16,0.02168
4158.37,0.02169
4152.59,0.02178
4146.8,0.02235
4141.02,0.02231
4135.23,0.02172
4129.44,0.02287
4123.66,0.02191
4117.87,0.02235
4112.09,0.02246
4106.3,0.02202
4100.51,0.02244
4094.73,0.02177
4088.94,0.02244
4083.15,0.02174
4077.37,0.02228
4071.58,0.02278
4065.8,0.02213
4060.01,0.02193
4054.22,0.02215
4048.44,0.02235
4042.65,0.02136
4036.86,0.02174
4031.08,0.02255
4025.29,0.02256
4019.51,0.02275
4013.72,0.02217
4007.93,0.02226
4002.15,0.02211
3996.36,0.02192
3990.57,0.02207
3984.79,0.02154
3979,0.02213
3973.22,0.02228
3967.43,0.02271
3961.64,0.02186
3955.86,0.02222
3950.07,0.02281
3944.28,0.02248
3938.5,0.02207
3932.71,0.02241
3926.93,0.02276
3921.14,0.02191
3915.35,0.02248
3909.57,0.02263
3903.78,0.02272
3897.99,0.02241
3892.21,0.02241
3886.42,0.02234
3880.64,0.02252
3874.85,0.02214
3869.06,0.02272
3863.28,0.02214
3857.49,0.02272
3851.7,0.02179
3845.92,0.02215
3840.13,0.02133
3834.35,0.02247
3828.56,0.02265
3822.77,0.02242
3816.99,0.02218
3811.2,0.02294
3805.41,0.02274
3799.63,0.02221
3793.84,0.02204
3788.06,0.02278
3782.27,0.02277
3776.48,0.02232
3770.7,0.02201
3764.91,0.02263
3759.12,0.02273
3753.34,0.02253
3747.55,0.02264
3741.77,0.02219
3735.98,0.02195
3730.19,0.02227
3724.41,0.02241
3718.62,0.02252
3712.83,0.02308
3707.05,0.02223
3701.26,0.02238
3695.48,0.02189
3689.69,0.02279
3683.9,0.02195
3678.12,0.02155
3672.33,0.02142
3666.54,0.02119
3660.76,0.02242
3654.97,0.02256
3649.19,0.02131
3643.4,0.02219
3637.61,0.02173
3631.83,0.02148
3626.04,0.02181
3620.25,0.02218
3614.47,0.02162
3608.68,0.02151
3602.9,0.02193
3597.11,0.02131
3591.32,0.02113
3585.54,0.02193
3579.75,0.02110
3573.97,0.02103
3568.18,0.02118
3562.39,0.02075
3556.61,0.02127
3550.82,0.02075
3545.03,0.02039
3539.25,0.02160
3533.46,0.02089
3527.68,0.02075
3521.89,0.02073
3516.1,0.02097
3510.32,0.02107
3504.53,0.02114
3498.74,0.02124
3492.96,0.02055
3487.17,0.02077
3481.39,0.02072
3475.6,0.02068
3469.81,0.02107
3464.03,0.02060
3458.24,0.02008
3452.45,0.02081
3446.67,0.02055
3440.88,0.02108
3435.1,0.02121
3429.31,0.02084
3423.52,0.02006
3417.74,0.02004
3411.95,0.02002
3406.16,0.01997
3400.38,0.02070
3394.59,0.02016
3388.81,0.02047
3383.02,0.02047
3377.23,0.02081
3371.45,0.02013
3365.66,0.02028
3359.87,0.01994
3354.09,0.02041
3348.3,0.01985
3342.52,0.02068
3336.73,0.01985
3330.94,0.01971
3325.16,0.01997
3319.37,0.01947
3313.58,0.02036
3307.8,0.02003
3302.01,0.01979
3296.23,0.02011
3290.44,0.01970
3284.65,0.02053
3278.87,0.01946
3273.08,0.02021
3267.29,0.02040
3261.51,0.02084
3255.72,0.02089
3249.94,0.02092
3244.15,0.02002
3238.36,0.02033
3232.58,0.02063
3226.79,0.02001
3221,0.02022
3215.22,0.02015
3209.43,0.02068
3203.65,0.02049
3197.86,0.02084
3192.07,0.02061
3186.29,0.01991
3180.5,0.02082
3174.71,0.02106
3168.93,0.02050
3163.14,0.02075
3157.36,0.02001
3151.57,0.02042
3145.78,0.02063
3140,0.02107
3134.21,0.02104
3128.42,0.02051
3122.64,0.02090
3116.85,0.02089
3111.07,0.02148
3105.28,0.02054
3099.49,0.02093
3093.71,0.02042
3087.92,0.02045
3082.14,0.02082
3076.35,0.02086
3070.56,0.02018
3064.78,0.02023
3058.99,0.02005
3053.2,0.02058
3047.42,0.01999
3041.63,0.02087
3035.85,0.02036
3030.06,0.02087
3024.27,0.02108
3018.49,0.02046
3012.7,0.02022
3006.91,0.02028
3001.13,0.02012
2995.34,0.02033
2989.56,0.01986
2983.77,0.02015
2977.98,0.01991
2972.2,0.01999
2966.41,0.01935
2960.62,0.01922
2954.84,0.01968
2949.05,0.01938
2943.27,0.01918
2937.48,0.01957
2931.69,0.01986
2925.91,0.01933
2920.12,0.01986
2914.33,0.02040
2908.55,0.02044
2902.76,0.02010
2896.98,0.02032
2891.19,0.02041
2885.4,0.02112
2879.62,0.02102
2873.83,0.02084
2868.04,0.02003
2862.26,0.02022
2856.47,0.02108
2850.69,0.02077
2844.9,0.02101
2839.11,0.02138
2833.33,0.02123
2827.54,0.02102
2821.75,0.02151
2815.97,0.02116
2810.18,0.02118
2804.4,0.02132
2798.61,0.02100
2792.82,0.02106
2787.04,0.02138
2781.25,0.02121
2775.46,0.02139
2769.68,0.02086
2763.89,0.02108
2758.11,0.02101
2752.32,0.02088
2746.53,0.02086
2740.75,0.02094
2734.96,0.02120
2729.17,0.02065
2723.39,0.02111
2717.6,0.02108
2711.82,0.02127
2706.03,0.02135
2700.24,0.02113
2694.46,0.02121
2688.67,0.02121
2682.88,0.02134
2677.1,0.02170
2671.31,0.02120
2665.53,0.02122
2659.74,0.02080
2653.95,0.02134
2648.17,0.02104
2642.38,0.02125
2636.59,0.02103
2630.81,0.02123
2625.02,0.02128
2619.24,0.02136
2613.45,0.02087
2607.66,0.02117
2601.88,0.02096
2596.09,0.02075
2590.3,0.02101
2584.52,0.02112
2578.73,0.02125
2572.95,0.02104
2567.16,0.02112
2561.37,0.02107
2555.59,0.02128
2549.8,0.02148
2544.02,0.02116
2538.23,0.02145
2532.44,0.02127
2526.66,0.02103
2520.87,0.02088
2515.08,0.02112
2509.3,0.02090
2503.51,0.02118
2497.73,0.02123
2491.94,0.02090
2486.15,0.02105
2480.37,0.02108
2474.58,0.02108
2468.79,0.02111
2463.01,0.02076
2457.22,0.02051
2451.44,0.02118
2445.65,0.02087
2439.86,0.02127
2434.08,0.02098
2428.29,0.02105
2422.5,0.02097
2416.72,0.02125
2410.93,0.02129
2405.15,0.02141
2399.36,0.02127
2393.57,0.02083
2387.79,0.02109
2382,0.02147
2376.21,0.02121
2370.43,0.02130
2364.64,0.02175
2358.86,0.02140
2353.07,0.02108
2347.28,0.02114
2341.5,0.02136
2335.71,0.02146
2329.92,0.02192
2324.14,0.02160
2318.35,0.02082
2312.57,0.02064
2306.78,0.02104
2300.99,0.02106
2295.21,0.02130
2289.42,0.02088
2283.63,0.02119
2277.85,0.02106
2272.06,0.02102
2266.28,0.02111
2260.49,0.02116
2254.7,0.02089
2248.92,0.02095
2243.13,0.02113
2237.34,0.02149
2231.56,0.02152
2225.77,0.02100
2219.99,0.02086
2214.2,0.02083
2208.41,0.02117
2202.63,0.02098
2196.84,0.02112
2191.05,0.02092
2185.27,0.02127
2179.48,0.02089
2173.7,0.02082
2167.91,0.02104
2162.12,0.02114
2156.34,0.02106
2150.55,0.02130
2144.76,0.02091
2138.98,0.02085
2133.19,0.02060
2127.41,0.02089
2121.62,0.02070
2115.83,0.02093
2110.05,0.02081
2104.26,0.02100
2098.47,0.02072
2092.69,0.02095
2086.9,0.02073
2081.12,0.02098
2075.33,0.02093
2069.54,0.02098
2063.76,0.02089
2057.97,0.02093
2052.19,0.02101
2046.4,0.02076
2040.61,0.02083
2034.83,0.02085
2029.04,0.02077
2023.25,0.02107
2017.47,0.02077
2011.68,0.02076
2005.9,0.02070
2000.11,0.02108
1994.32,0.02055
1988.54,0.02087
1982.75,0.02087
1976.96,0.02088
1971.18,0.02063
1965.39,0.02036
1959.61,0.02090
1953.82,0.02104
1948.03,0.02063
1942.25,0.02043
1936.46,0.02057
1930.67,0.02093
1924.89,0.02091
1919.1,0.02039
1913.32,0.02055
1907.53,0.02035
1901.74,0.02047
1895.96,0.02052
1890.17,0.02049
1884.38,0.02016
1878.6,0.02030
1872.81,0.02050
1867.03,0.02056
1861.24,0.02026
1855.45,0.02041
1849.67,0.01991
1843.88,0.02016
1838.09,0.02014
1832.31,0.02035
1826.52,0.01988
1820.74,0.02006
1814.95,0.02026
1809.16,0.01990
1803.38,0.01949
1797.59,0.01924
1791.8,0.01945
1786.02,0.01949
1780.23,0.01922
1774.45,0.01920
1768.66,0.01893
1762.87,0.01837
1757.09,0.01768
1751.3,0.01734
1745.51,0.01758
1739.73,0.01845
1733.94,0.02016
1728.16,0.02006
1722.37,0.02039
1716.58,0.02062
1710.8,0.02091
1705.01,0.02034
1699.22,0.01990
1693.44,0.01921
1687.65,0.01914
1681.87,0.01918
1676.08,0.01908
1670.29,0.01825
1664.51,0.01840
1658.72,0.01839
1652.93,0.01893
1647.15,0.01910
1641.36,0.01835
1635.58,0.01873
1629.79,0.01892
1624,0.01883
1618.22,0.01854
1612.43,0.01839
1606.64,0.01874
1600.86,0.01904
1595.07,0.01882
1589.29,0.01846
1583.5,0.01851
1577.71,0.01876
1571.93,0.01832
1566.14,0.01833
1560.35,0.01844
1554.57,0.01763
1548.78,0.01806
1543,0.01898
1537.21,0.01866
1531.42,0.01828
1525.64,0.01865
1519.85,0.01863
1514.07,0.01910
1508.28,0.01866
1502.49,0.01861
1496.71,0.01877
1490.92,0.01880
1485.13,0.01863
1479.35,0.01832
1473.56,0.01849
1467.78,0.01811
1461.99,0.01846
1456.2,0.01849
1450.42,0.01863
1444.63,0.01849
1438.84,0.01875
1433.06,0.01835
1427.27,0.01884
1421.49,0.01872
1415.7,0.01857
1409.91,0.01874
1404.13,0.01827
1398.34,0.01846
1392.55,0.01786
1386.77,0.01834
1380.98,0.01835
1375.2,0.01859
1369.41,0.01810
1363.62,0.01809
1357.84,0.01789
1352.05,0.01783
1346.26,0.01794
1340.48,0.01804
1334.69,0.01749
1328.91,0.01750
1323.12,0.01724
1317.33,0.01728
1311.55,0.01686
1305.76,0.01697
1299.97,0.01774
1294.19,0.01765
1288.4,0.01822
1282.62,0.01897
1276.83,0.01924
1271.04,0.01960
1265.26,0.02006
1259.47,0.01990
1253.68,0.01978
1247.9,0.02023
1242.11,0.02004
1236.33,0.02003
1230.54,0.01948
1224.75,0.01954
1218.97,0.01898
1213.18,0.01918
1207.39,0.01871
1201.61,0.01837
1195.82,0.01835
1190.04,0.01862
1184.25,0.01790
1178.46,0.01801
1172.68,0.01808
1166.89,0.01787
1161.1,0.01779
1155.32,0.01741
1149.53,0.01776
1143.75,0.01772
1137.96,0.01828
1132.17,0.01800
1126.39,0.01853
1120.6,0.01868
1114.81,0.01884
1109.03,0.01882
1103.24,0.01900
1097.46,0.01859
1091.67,0.01852
1085.88,0.01822
1080.1,0.01860
1074.31,0.01922
1068.52,0.01983
1062.74,0.01981
1056.95,0.01909
1051.17,0.01976
1045.38,0.01961
1039.59,0.01966
1033.81,0.01921
1028.02,0.01956
1022.24,0.01895
1016.45,0.01951
1010.66,0.02002
1004.88,0.02092
999.09,0.02079
993.304,0.02076
987.518,0.02090
981.731,0.02098
975.945,0.02050
970.159,0.02039
964.373,0.02046
958.586,0.02059
952.8,0.02016
947.014,0.02002
941.228,0.01964
935.441,0.01973
929.655,0.01935
923.869,0.01950
918.083,0.01916
912.297,0.01949
906.51,0.01902
900.724,0.01885
894.938,0.01904
889.152,0.01944
883.365,0.01951
877.579,0.01914
871.793,0.01895
866.007,0.01871
860.22,0.01908
854.434,0.01932
848.648,0.01910
842.862,0.01941
837.075,0.01883
831.289,0.01928
825.503,0.01915
819.717,0.01919
813.931,0.01963
808.144,0.01916
802.358,0.01950
796.572,0.01922
790.786,0.01951
784.999,0.01866
779.213,0.01896
773.427,0.01862
767.641,0.01777
761.854,0.01840
756.068,0.01783
750.282,0.01861
744.496,0.01859
738.709,0.01824
732.923,0.01859
727.137,0.01826
721.351,0.01886
715.565,0.01855
709.778,0.01764
703.992,0.01776
698.206,0.01923
692.42,0.01790
686.633,0.01754
680.847,0.01767
675.061,0.01790
669.275,0.01685
663.488,0.01902
657.702,0.01654
651.916,0.01795
646.13,0.01655
640.343,0.01745
634.557,0.01760
628.771,0.01669
622.985,0.01621
617.198,0.01532
611.412,0.01663
605.626,0.01855
599.84,0.01734