File: 01_Data/Pine_Lap_Siding/FTIR/IS/Pine_Lap_Siding_IS_S_220916_R8.dpt
7497.03,0.82817
7491.25,0.82654
7485.46,0.82660
7479.67,0.82826
7473.89,0.81916
7468.1,0.83088
7462.32,0.83085
7456.53,0.81816
7450.74,0.82877
7444.96,0.82182
7439.17,0.81808
7433.38,0.81969
7427.6,0.80723
7421.81,0.82032
7416.03,0.81186
7410.24,0.80987
7404.45,0.80717
7398.67,0.81423
7392.88,0.81131
7387.09,0.80693
7381.31,0.80202
7375.52,0.80505
7369.74,0.79991
7363.95,0.80879
7358.16,0.80259
7352.38,0.80126
7346.59,0.79834
7340.8,0.80683
7335.02,0.80207
7329.23,0.80114
7323.45,0.79461
7317.66,0.79725
7311.87,0.80706
7306.09,0.80041
7300.3,0.79474
7294.51,0.79979
7288.73,0.79059
7282.94,0.79406
7277.16,0.79160
7271.37,0.79523
7265.58,0.79759
7259.8,0.79186
7254.01,0.79709
7248.22,0.78891
7242.44,0.78994
7236.65,0.79318
7230.87,0.79285
7225.08,0.79456
7219.29,0.78375
7213.51,0.78310
7207.72,0.77752
7201.93,0.78470
7196.15,0.77503
7190.36,0.77823
7184.58,0.77415
7178.79,0.76847
7173,0.76341
7167.22,0.76462
7161.43,0.76406
7155.65,0.76294
7149.86,0.76424
7144.07,0.76390
7138.29,0.76840
7132.5,0.77072
7126.71,0.75433
7120.93,0.76297
7115.14,0.75871
7109.36,0.75304
7103.57,0.75047
7097.78,0.75561
7092,0.74761
7086.21,0.74882
7080.42,0.73923
7074.64,0.73225
7068.85,0.72392
7063.07,0.72325
7057.28,0.73198
7051.49,0.73901
7045.71,0.74176
7039.92,0.74171
7034.13,0.74899
7028.35,0.73724
7022.56,0.74044
7016.78,0.74059
7010.99,0.74073
7005.2,0.73201
6999.42,0.73227
6993.63,0.73440
6987.84,0.73269
6982.06,0.74029
6976.27,0.73542
6970.49,0.73853
6964.7,0.72854
6958.91,0.73504
6953.13,0.73693
6947.34,0.73653
6941.55,0.73170
6935.77,0.73216
6929.98,0.73360
6924.2,0.72649
6918.41,0.72573
6912.62,0.72737
6906.84,0.72827
6901.05,0.73178
6895.26,0.72820
6889.48,0.72813
6883.69,0.72474
6877.91,0.72841
6872.12,0.73499
6866.33,0.73249
6860.55,0.73288
6854.76,0.72915
6848.97,0.73220
6843.19,0.73246
6837.4,0.72942
6831.62,0.72929
6825.83,0.72894
6820.04,0.73144
6814.26,0.73247
6808.47,0.73163
6802.68,0.72833
6796.9,0.72679
6791.11,0.72983
6785.33,0.73256
6779.54,0.72891
6773.75,0.72832
6767.97,0.72763
6762.18,0.72878
6756.39,0.73044
6750.61,0.72715
6744.82,0.73090
6739.04,0.72975
6733.25,0.72718
6727.46,0.73015
6721.68,0.73286
6715.89,0.73593
6710.1,0.73202
6704.32,0.72634
6698.53,0.72845
6692.75,0.72761
6686.96,0.73337
6681.17,0.73465
6675.39,0.73177
6669.6,0.73215
6663.82,0.73064
6658.03,0.73149
6652.24,0.73358
6646.46,0.73129
6640.67,0.73125
6634.88,0.73268
6629.1,0.73508
6623.31,0.73017
6617.53,0.73882
6611.74,0.73694
6605.95,0.73520
6600.17,0.73479
6594.38,0.73878
6588.59,0.73723
6582.81,0.73819
6577.02,0.73993
6571.24,0.73792
6565.45,0.74353
6559.66,0.73652
6553.88,0.73909
6548.09,0.73916
6542.3,0.74037
6536.52,0.74183
6530.73,0.73620
6524.95,0.73719
6519.16,0.73772
6513.37,0.74235
6507.59,0.73864
6501.8,0.73872
6496.01,0.73725
6490.23,0.73693
6484.44,0.73783
6478.66,0.73860
6472.87,0.74044
6467.08,0.73946
6461.3,0.74522
6455.51,0.74473
6449.72,0.73796
6443.94,0.73993
6438.15,0.73534
6432.37,0.74073
6426.58,0.73895
6420.79,0.74175
6415.01,0.74276
6409.22,0.74176
6403.43,0.73855
6397.65,0.74289
6391.86,0.74235
6386.08,0.74290
6380.29,0.73943
6374.5,0.73984
6368.72,0.74217
6362.93,0.74085
6357.14,0.74254
6351.36,0.74316
6345.57,0.74463
6339.79,0.74248
6334,0.74334
6328.21,0.74587
6322.43,0.74387
6316.64,0.74096
6310.85,0.74299
6305.07,0.74233
6299.28,0.74278
6293.5,0.74527
6287.71,0.74735
6281.92,0.74075
6276.14,0.74410
6270.35,0.74435
6264.56,0.74917
6258.78,0.74715
6252.99,0.74571
6247.21,0.74619
6241.42,0.74929
6235.63,0.75061
6229.85,0.74989
6224.06,0.74848
6218.27,0.74760
6212.49,0.75350
6206.7,0.75250
6200.92,0.75375
6195.13,0.75092
6189.34,0.75065
6183.56,0.75465
6177.77,0.75911
6171.98,0.75935
6166.2,0.75651
6160.41,0.75654
6154.63,0.75935
6148.84,0.75628
6143.05,0.75893
6137.27,0.75785
6131.48,0.75547
6125.7,0.75743
6119.91,0.76080
6114.12,0.75804
6108.34,0.75674
6102.55,0.76000
6096.76,0.75837
6090.98,0.75807
6085.19,0.75836
6079.41,0.75843
6073.62,0.76053
6067.83,0.76138
6062.05,0.76070
6056.26,0.75709
6050.47,0.75509
6044.69,0.75543
6038.9,0.75566
6033.12,0.75646
6027.33,0.75177
6021.54,0.74948
6015.76,0.75113
6009.97,0.75207
6004.18,0.74560
5998.4,0.74666
5992.61,0.74409
5986.83,0.74187
5981.04,0.74011
5975.25,0.74021
5969.47,0.73852
5963.68,0.73835
5957.89,0.73571
5952.11,0.73498
5946.32,0.73519
5940.54,0.73776
5934.75,0.74147
5928.96,0.73694
5923.18,0.73755
5917.39,0.73524
5911.6,0.73574
5905.82,0.73528
5900.03,0.73387
5894.25,0.73406
5888.46,0.73199
5882.67,0.73618
5876.89,0.73524
5871.1,0.73461
5865.31,0.73339
5859.53,0.73504
5853.74,0.73290
5847.96,0.73574
5842.17,0.73501
5836.38,0.73521
5830.6,0.73229
5824.81,0.73385
5819.02,0.73681
5813.24,0.73243
5807.45,0.73066
5801.67,0.73273
5795.88,0.73129
5790.09,0.73299
5784.31,0.73460
5778.52,0.73145
5772.73,0.73116
5766.95,0.73568
5761.16,0.73468
5755.38,0.73193
5749.59,0.73481
5743.8,0.73530
5738.02,0.73386
5732.23,0.73170
5726.44,0.73399
5720.66,0.73334
5714.87,0.73249
5709.09,0.73279
5703.3,0.73248
5697.51,0.73266
5691.73,0.73296
5685.94,0.73287
5680.15,0.73196
5674.37,0.73125
5668.58,0.73381
5662.8,0.73240
5657.01,0.73346
5651.22,0.73372
5645.44,0.73089
5639.65,0.73444
5633.87,0.73226
5628.08,0.73467
5622.29,0.73393
5616.51,0.73321
5610.72,0.73392
5604.93,0.73481
5599.15,0.73430
5593.36,0.73233
5587.58,0.73370
5581.79,0.73397
5576,0.73258
5570.22,0.73326
5564.43,0.73391
5558.64,0.73265
5552.86,0.73493
5547.07,0.73557
5541.29,0.73344
5535.5,0.73560
5529.71,0.73482
5523.93,0.73356
5518.14,0.73365
5512.35,0.73627
5506.57,0.73669
5500.78,0.73476
5495,0.73649
5489.21,0.73425
5483.42,0.73692
5477.64,0.73574
5471.85,0.73596
5466.06,0.73691
5460.28,0.73702
5454.49,0.73854
5448.71,0.73986
5442.92,0.73715
5437.13,0.73829
5431.35,0.73971
5425.56,0.74034
5419.77,0.73989
5413.99,0.74109
5408.2,0.74019
5402.42,0.74271
5396.63,0.74145
5390.84,0.74229
5385.06,0.74055
5379.27,0.74302
5373.48,0.74291
5367.7,0.74226
5361.91,0.74196
5356.13,0.74120
5350.34,0.73889
5344.55,0.74121
5338.77,0.73809
5332.98,0.73595
5327.19,0.73554
5321.41,0.73617
5315.62,0.73082
5309.84,0.72756
5304.05,0.72465
5298.26,0.72209
5292.48,0.71826
5286.69,0.71350
5280.9,0.70724
5275.12,0.70286
5269.33,0.69559
5263.55,0.69107
5257.76,0.68536
5251.97,0.67922
5246.19,0.67475
5240.4,0.67096
5234.61,0.66646
5228.83,0.66422
5223.04,0.66092
5217.26,0.65928
5211.47,0.65845
5205.68,0.65674
5199.9,0.65550
5194.11,0.65463
5188.32,0.65411
5182.54,0.65475
5176.75,0.65643
5170.97,0.65588
5165.18,0.65839
5159.39,0.65797
5153.61,0.65984
5147.82,0.66065
5142.03,0.66142
5136.25,0.66283
5130.46,0.66505
5124.68,0.66555
5118.89,0.66612
5113.1,0.66805
5107.32,0.66975
5101.53,0.67161
5095.75,0.67318
5089.96,0.67318
5084.17,0.67479
5078.39,0.67510
5072.6,0.67660
5066.81,0.67786
5061.03,0.67903
5055.24,0.68022
5049.46,0.68087
5043.67,0.68222
5037.88,0.68300
5032.1,0.68373
5026.31,0.68386
5020.52,0.68594
5014.74,0.68571
5008.95,0.68468
5003.17,0.68554
4997.38,0.68595
4991.59,0.68581
4985.81,0.68523
4980.02,0.68363
4974.23,0.68311
4968.45,0.68158
4962.66,0.67920
4956.88,0.67927
4951.09,0.67668
4945.3,0.67414
4939.52,0.67208
4933.73,0.66994
4927.94,0.66848
4922.16,0.66315
4916.37,0.66248
4910.59,0.65957
4904.8,0.65679
4899.01,0.65440
4893.23,0.65221
4887.44,0.64879
4881.65,0.64593
4875.87,0.64353
4870.08,0.64107
4864.3,0.63972
4858.51,0.63720
4852.72,0.63602
4846.94,0.63321
4841.15,0.63101
4835.36,0.62953
4829.58,0.62684
4823.79,0.62469
4818.01,0.62382
4812.22,0.62224
4806.43,0.62128
4800.65,0.62082
4794.86,0.61936
4789.07,0.61731
4783.29,0.61761
4777.5,0.61649
4771.72,0.61558
4765.93,0.61459
4760.14,0.61456
4754.36,0.61418
4748.57,0.61386
4742.78,0.61327
4737,0.61205
4731.21,0.61293
4725.43,0.61234
4719.64,0.61296
4713.85,0.61296
4708.07,0.61191
4702.28,0.61242
4696.49,0.61145
4690.71,0.61028
4684.92,0.60867
4679.14,0.60694
4673.35,0.60550
4667.56,0.60484
4661.78,0.60413
4655.99,0.60502
4650.2,0.60497
4644.42,0.60401
4638.63,0.60298
4632.85,0.60134
4627.06,0.59953
4621.27,0.59886
4615.49,0.60035
4609.7,0.60107
4603.92,0.60404
4598.13,0.60786
4592.34,0.60956
4586.56,0.60992
4580.77,0.61146
4574.98,0.61033
4569.2,0.61089
4563.41,0.61061
4557.63,0.61050
4551.84,0.61068
4546.05,0.61024
4540.27,0.60790
4534.48,0.60047
4528.69,0.59265
4522.91,0.59878
4517.12,0.61188
4511.34,0.61787
4505.55,0.62071
4499.76,0.62189
4493.98,0.62110
4488.19,0.61989
4482.4,0.61811
4476.62,0.61376
4470.83,0.60964
4465.05,0.60514
4459.26,0.59944
4453.47,0.59411
4447.69,0.58781
4441.9,0.58295
4436.11,0.57742
4430.33,0.57179
4424.54,0.56739
4418.76,0.56123
4412.97,0.55563
4407.18,0.55181
4401.4,0.54896
4395.61,0.54642
4389.82,0.54577
4384.04,0.54348
4378.25,0.54297
4372.47,0.54284
4366.68,0.54051
4360.89,0.53784
4355.11,0.53577
4349.32,0.53347
4343.53,0.53255
4337.75,0.53061
4331.96,0.53093
4326.18,0.53042
4320.39,0.53044
4314.6,0.52823
4308.82,0.52774
4303.03,0.52613
4297.24,0.52353
4291.46,0.52177
4285.67,0.51922
4279.89,0.51732
4274.1,0.51636
4268.31,0.51598
4262.53,0.51570
4256.74,0.51525
4250.95,0.51634
4245.17,0.51762
4239.38,0.52054
4233.6,0.52241
4227.81,0.52383
4222.02,0.52419
4216.24,0.52365
4210.45,0.52293
4204.66,0.52395
4198.88,0.52316
4193.09,0.52356
4187.31,0.52467
4181.52,0.52528
4175.73,0.52700
4169.95,0.52855
4164.16,0.52925
4158.37,0.52956
4152.59,0.52944
4146.8,0.52838
4141.02,0.52619
4135.23,0.52326
4129.44,0.52110
4123.66,0.51707
4117.87,0.51344
4112.09,0.50931
4106.3,0.50465
4100.51,0.50100
4094.73,0.49639
4088.94,0.49179
4083.15,0.48756
4077.37,0.48214
4071.58,0.47699
4065.8,0.47193
4060.01,0.46764
4054.22,0.46415
4048.44,0.46083
4042.65,0.45783
4036.86,0.45457
4031.08,0.45410
4025.29,0.45448
4019.51,0.45459
4013.72,0.45542
4007.93,0.45519
4002.15,0.45531
3996.36,0.45572
3990.57,0.45567
3984.79,0.45633
3979,0.45677
3973.22,0.45654
3967.43,0.45734
3961.64,0.45724
3955.86,0.45778
3950.07,0.45708
3944.28,0.45737
3938.5,0.45830
3932.71,0.46081
3926.93,0.46345
3921.14,0.46707
3915.35,0.47098
3909.57,0.47281
3903.78,0.47424
3897.99,0.47527
3892.21,0.47638
3886.42,0.47795
3880.64,0.47810
3874.85,0.47867
3869.06,0.47877
3863.28,0.48063
3857.49,0.48087
3851.7,0.48094
3845.92,0.48194
3840.13,0.48186
3834.35,0.48192
3828.56,0.48171
3822.77,0.48111
3816.99,0.48024
3811.2,0.47928
3805.41,0.47664
3799.63,0.47502
3793.84,0.47187
3788.06,0.46872
3782.27,0.46564
3776.48,0.46129
3770.7,0.45641
3764.91,0.45087
3759.12,0.44382
3753.34,0.43411
3747.55,0.42329
3741.77,0.40847
3735.98,0.39145
3730.19,0.36651
3724.41,0.33462
3718.62,0.28839
3712.83,0.23301
3707.05,0.17745
3701.26,0.12869
3695.48,0.09874
3689.69,0.09717
3683.9,0.10990
3678.12,0.11818
3672.33,0.11121
3666.54,0.11076
3660.76,0.11209
3654.97,0.10234
3649.19,0.10110
3643.4,0.11132
3637.61,0.11622
3631.83,0.11317
3626.04,0.09625
3620.25,0.08387
3614.47,0.10615
3608.68,0.12011
3602.9,0.12564
3597.11,0.12658
3591.32,0.12579
3585.54,0.12426
3579.75,0.12312
3573.97,0.12254
3568.18,0.12150
3562.39,0.12102
3556.61,0.12033
3550.82,0.12021
3545.03,0.11931
3539.25,0.11903
3533.46,0.11879
3527.68,0.11834
3521.89,0.11713
3516.1,0.11529
3510.32,0.11484
3504.53,0.11445
3498.74,0.11404
3492.96,0.11219
3487.17,0.10965
3481.39,0.10803
3475.6,0.10758
3469.81,0.10752
3464.03,0.10642
3458.24,0.10536
3452.45,0.10373
3446.67,0.10292
3440.88,0.10243
3435.1,0.10186
3429.31,0.10181
3423.52,0.10180
3417.74,0.10207
3411.95,0.10125
3406.16,0.10223
3400.38,0.10281
3394.59,0.10348
3388.81,0.10438
3383.02,0.10437
3377.23,0.10494
3371.45,0.10497
3365.66,0.10644
3359.87,0.10682
3354.09,0.10721
3348.3,0.10796
3342.52,0.10886
3336.73,0.11022
3330.94,0.11075
3325.16,0.11159
3319.37,0.11241
3313.58,0.11362
3307.8,0.11404
3302.01,0.11469
3296.23,0.11652
3290.44,0.11732
3284.65,0.11815
3278.87,0.12044
3273.08,0.12154
3267.29,0.12260
3261.51,0.12403
3255.72,0.12544
3249.94,0.12697
3244.15,0.12836
3238.36,0.13040
3232.58,0.13081
3226.79,0.13254
3221,0.13343
3215.22,0.13609
3209.43,0.13748
3203.65,0.13862
3197.86,0.14039
3192.07,0.14201
3186.29,0.14339
3180.5,0.14521
3174.71,0.14714
3168.93,0.14868
3163.14,0.15073
3157.36,0.15285
3151.57,0.15461
3145.78,0.15663
3140,0.15806
3134.21,0.16009
3128.42,0.16162
3122.64,0.16310
3116.85,0.16389
3111.07,0.16423
3105.28,0.16450
3099.49,0.16582
3093.71,0.16578
3087.92,0.16087
3082.14,0.15973
3076.35,0.16393
3070.56,0.16403
3064.78,0.15774
3058.99,0.15770
3053.2,0.16468
3047.42,0.16905
3041.63,0.16709
3035.85,0.15753
3030.06,0.14189
3024.27,0.14333
3018.49,0.15766
3012.7,0.16322
3006.91,0.15835
3001.13,0.15032
2995.34,0.14181
2989.56,0.12584
2983.77,0.11344
2977.98,0.10548
2972.2,0.09636
2966.41,0.08594
2960.62,0.07939
2954.84,0.08002
2949.05,0.08336
2943.27,0.08335
2937.48,0.08136
2931.69,0.08021
2925.91,0.08159
2920.12,0.08489
2914.33,0.08933
2908.55,0.09450
2902.76,0.09916
2896.98,0.10165
2891.19,0.10307
2885.4,0.10179
2879.62,0.09421
2873.83,0.08906
2868.04,0.09295
2862.26,0.09838
2856.47,0.10482
2850.69,0.11182
2844.9,0.12472
2839.11,0.14383
2833.33,0.16201
2827.54,0.17568
2821.75,0.18592
2815.97,0.19378
2810.18,0.20008
2804.4,0.20550
2798.61,0.20975
2792.82,0.21435
2787.04,0.21941
2781.25,0.22230
2775.46,0.22510
2769.68,0.22793
2763.89,0.22959
2758.11,0.23084
2752.32,0.23193
2746.53,0.23246
2740.75,0.23309
2734.96,0.23329
2729.17,0.23453
2723.39,0.23674
2717.6,0.23800
2711.82,0.24049
2706.03,0.24246
2700.24,0.24436
2694.46,0.24615
2688.67,0.24865
2682.88,0.25017
2677.1,0.25127
2671.31,0.25208
2665.53,0.25265
2659.74,0.25248
2653.95,0.25281
2648.17,0.25176
2642.38,0.24979
2636.59,0.24364
2630.81,0.23510
2625.02,0.22658
2619.24,0.21922
2613.45,0.21028
2607.66,0.20053
2601.88,0.19329
2596.09,0.18905
2590.3,0.18640
2584.52,0.18441
2578.73,0.18330
2572.95,0.18227
2567.16,0.18008
2561.37,0.17714
2555.59,0.17290
2549.8,0.16796
2544.02,0.16219
2538.23,0.15125
2532.44,0.12924
2526.66,0.11122
2520.87,0.10069
2515.08,0.09702
2509.3,0.09944
2503.51,0.11373
2497.73,0.13820
2491.94,0.16883
2486.15,0.19396
2480.37,0.21666
2474.58,0.23752
2468.79,0.25487
2463.01,0.26475
2457.22,0.27215
2451.44,0.27798
2445.65,0.28245
2439.86,0.28643
2434.08,0.28962
2428.29,0.29313
2422.5,0.29603
2416.72,0.29873
2410.93,0.30128
2405.15,0.30327
2399.36,0.30483
2393.57,0.30628
2387.79,0.30805
2382,0.30947
2376.21,0.31087
2370.43,0.31184
2364.64,0.31255
2358.86,0.31311
2353.07,0.31323
2347.28,0.31300
2341.5,0.31167
2335.71,0.31253
2329.92,0.31362
2324.14,0.31353
2318.35,0.31327
2312.57,0.31254
2306.78,0.31242
2300.99,0.31275
2295.21,0.31218
2289.42,0.31249
2283.63,0.31203
2277.85,0.31085
2272.06,0.30889
2266.28,0.30692
2260.49,0.30430
2254.7,0.30252
2248.92,0.30021
2243.13,0.29886
2237.34,0.29666
2231.56,0.29372
2225.77,0.29088
2219.99,0.29007
2214.2,0.29016
2208.41,0.28973
2202.63,0.28866
2196.84,0.28649
2191.05,0.28398
2185.27,0.28056
2179.48,0.27732
2173.7,0.27318
2167.91,0.26948
2162.12,0.26510
2156.34,0.25982
2150.55,0.25385
2144.76,0.24908
2138.98,0.24752
2133.19,0.24759
2127.41,0.25138
2121.62,0.25639
2115.83,0.26026
2110.05,0.26194
2104.26,0.26363
2098.47,0.26402
2092.69,0.26434
2086.9,0.26375
2081.12,0.26241
2075.33,0.26078
2069.54,0.25868
2063.76,0.25597
2057.97,0.25457
2052.19,0.25260
2046.4,0.25081
2040.61,0.24869
2034.83,0.24688
2029.04,0.24661
2023.25,0.24664
2017.47,0.24604
2011.68,0.24434
2005.9,0.24189
2000.11,0.24047
1994.32,0.23952
1988.54,0.23907
1982.75,0.23850
1976.96,0.23747
1971.18,0.23575
1965.39,0.23285
1959.61,0.22961
1953.82,0.23054
1948.03,0.22986
1942.25,0.23000
1936.46,0.23281
1930.67,0.23525
1924.89,0.23616
1919.1,0.23552
1913.32,0.23274
1907.53,0.22780
1901.74,0.22190
1895.96,0.21552
1890.17,0.20964
1884.38,0.20557
1878.6,0.20192
1872.81,0.19862
1867.03,0.19796
1861.24,0.20001
1855.45,0.20322
1849.67,0.20424
1843.88,0.20176
1838.09,0.19601
1832.31,0.18698
1826.52,0.17455
1820.74,0.16301
1814.95,0.15165
1809.16,0.13195
1803.38,0.08992
1797.59,0.05863
1791.8,0.06425
1786.02,0.09810
1780.23,0.11849
1774.45,0.12058
1768.66,0.11187
1762.87,0.09756
1757.09,0.08061
1751.3,0.06374
1745.51,0.04888
1739.73,0.03967
1733.94,0.03709
1728.16,0.04000
1722.37,0.04817
1716.58,0.06052
1710.8,0.07042
1705.01,0.07538
1699.22,0.07755
1693.44,0.07715
1687.65,0.07448
1681.87,0.07190
1676.08,0.06936
1670.29,0.06704
1664.51,0.06526
1658.72,0.06463
1652.93,0.06468
1647.15,0.06466
1641.36,0.06310
1635.58,0.06165
1629.79,0.06073
1624,0.05900
1618.22,0.05786
1612.43,0.05686
1606.64,0.05581
1600.86,0.05589
1595.07,0.05835
1589.29,0.06028
1583.5,0.06416
1577.71,0.07114
1571.93,0.08058
1566.14,0.08809
1560.35,0.09495
1554.57,0.10172
1548.78,0.10452
1543,0.10323
1537.21,0.10187
1531.42,0.10015
1525.64,0.09865
1519.85,0.09683
1514.07,0.09505
1508.28,0.09392
1502.49,0.09320
1496.71,0.09278
1490.92,0.09280
1485.13,0.09301
1479.35,0.09332
1473.56,0.09374
1467.78,0.09423
1461.99,0.09506
1456.2,0.09544
1450.42,0.09662
1444.63,0.09684
1438.84,0.09798
1433.06,0.10004
1427.27,0.10254
1421.49,0.10470
1415.7,0.10640
1409.91,0.10629
1404.13,0.10085
1398.34,0.09567
1392.55,0.09314
1386.77,0.09167
1380.98,0.09206
1375.2,0.09286
1369.41,0.09586
1363.62,0.10049
1357.84,0.10562
1352.05,0.10984
1346.26,0.11323
1340.48,0.11651
1334.69,0.11789
1328.91,0.11856
1323.12,0.11912
1317.33,0.11974
1311.55,0.12124
1305.76,0.12397
1299.97,0.12684
1294.19,0.12768
1288.4,0.12546
1282.62,0.12096
1276.83,0.11626
1271.04,0.11078
1265.26,0.10652
1259.47,0.10404
1253.68,0.10184
1247.9,0.09922
1242.11,0.09743
1236.33,0.09808
1230.54,0.10016
1224.75,0.10240
1218.97,0.10314
1213.18,0.10168
1207.39,0.09856
1201.61,0.09507
1195.82,0.09145
1190.04,0.08776
1184.25,0.08419
1178.46,0.08006
1172.68,0.07678
1166.89,0.07421
1161.1,0.07220
1155.32,0.07553
1149.53,0.07921
1143.75,0.08240
1137.96,0.08492
1132.17,0.08488
1126.39,0.08309
1120.6,0.07713
1114.81,0.07279
1109.03,0.07355
1103.24,0.07633
1097.46,0.07813
1091.67,0.08067
1085.88,0.08300
1080.1,0.08467
1074.31,0.08503
1068.52,0.08426
1062.74,0.08002
1056.95,0.07806
1051.17,0.07782
1045.38,0.07745
1039.59,0.07820
1033.81,0.07819
1028.02,0.07654
1022.24,0.07431
1016.45,0.07468
1010.66,0.07587
1004.88,0.07557
999.09,0.07422
993.304,0.07201
987.518,0.07069
981.731,0.06897
975.945,0.06763
970.159,0.06669
964.373,0.06549
958.586,0.06412
952.8,0.06261
947.014,0.06110
941.228,0.06020
935.441,0.06012
929.655,0.05849
923.869,0.05826
918.083,0.05758
912.297,0.05870
906.51,0.06032
900.724,0.06191
894.938,0.06425
889.152,0.06753
883.365,0.06231
877.579,0.06653
871.793,0.06853
866.007,0.06677
860.22,0.06341
854.434,0.06123
848.648,0.05638
842.862,0.05589
837.075,0.05313
831.289,0.05160
825.503,0.04953
819.717,0.04685
813.931,0.04376
808.144,0.04291
802.358,0.04442
796.572,0.04498
790.786,0.04334
784.999,0.04297
779.213,0.04328
773.427,0.04209
767.641,0.04060
761.854,0.04098
756.068,0.04026
750.282,0.04015
744.496,0.03961
738.709,0.03870
732.923,0.03822
727.137,0.03787
721.351,0.03640
715.565,0.03811
709.778,0.04480
703.992,0.04384
698.206,0.04483
692.42,0.04502
686.633,0.04395
680.847,0.04523
675.061,0.04545
669.275,0.04616
663.488,0.04665
657.702,0.04514
651.916,0.04607
646.13,0.04588
640.343,0.04538
634.557,0.04384
628.771,0.04471
622.985,0.04623
617.198,0.04358
611.412,0.04267
605.626,0.04455
599.84,0.04491