File: 01_Data/Pine_Lap_Siding/FTIR/IS/Pine_Lap_Siding_IS_T_220916_R8.dpt
7497.03,0.02406
7491.25,0.02174
7485.46,0.01962
7479.67,0.01693
7473.89,0.02528
7468.1,0.02715
7462.32,0.02430
7456.53,0.03169
7450.74,0.03002
7444.96,0.02022
7439.17,0.02260
7433.38,0.02727
7427.6,0.01956
7421.81,0.01822
7416.03,0.02837
7410.24,0.01604
7404.45,0.03098
7398.67,0.02340
7392.88,0.02502
7387.09,0.02016
7381.31,0.00920
7375.52,0.01912
7369.74,0.02640
7363.95,0.02115
7358.16,0.02171
7352.38,0.02522
7346.59,0.02246
7340.8,0.02829
7335.02,0.01943
7329.23,0.01689
7323.45,0.02418
7317.66,0.01955
7311.87,0.03275
7306.09,0.02874
7300.3,0.02024
7294.51,0.02223
7288.73,0.02453
7282.94,0.02078
7277.16,0.02765
7271.37,0.03044
7265.58,0.02666
7259.8,0.01863
7254.01,0.02957
7248.22,0.01683
7242.44,0.03037
7236.65,0.02888
7230.87,0.02368
7225.08,0.02129
7219.29,0.01949
7213.51,0.01923
7207.72,0.02907
7201.93,0.02407
7196.15,0.02018
7190.36,0.03176
7184.58,0.02743
7178.79,0.02425
7173,0.01762
7167.22,0.02177
7161.43,0.02267
7155.65,0.02885
7149.86,0.02298
7144.07,0.02394
7138.29,0.02347
7132.5,0.02874
7126.71,0.01978
7120.93,0.01951
7115.14,0.02039
7109.36,0.02591
7103.57,0.01930
7097.78,0.02298
7092,0.01923
7086.21,0.02539
7080.42,0.03016
7074.64,0.01858
7068.85,0.02376
7063.07,0.02451
7057.28,0.01473
7051.49,0.02300
7045.71,0.02740
7039.92,0.02827
7034.13,0.02437
7028.35,0.02900
7022.56,0.02631
7016.78,0.02544
7010.99,0.03206
7005.2,0.02304
6999.42,0.02233
6993.63,0.02120
6987.84,0.02371
6982.06,0.02331
6976.27,0.02583
6970.49,0.03042
6964.7,0.01714
6958.91,0.01809
6953.13,0.02587
6947.34,0.02567
6941.55,0.02364
6935.77,0.01800
6929.98,0.02719
6924.2,0.02471
6918.41,0.02352
6912.62,0.02220
6906.84,0.01975
6901.05,0.02436
6895.26,0.01965
6889.48,0.02275
6883.69,0.02304
6877.91,0.02237
6872.12,0.02482
6866.33,0.02158
6860.55,0.03120
6854.76,0.02414
6848.97,0.02274
6843.19,0.02322
6837.4,0.02734
6831.62,0.02663
6825.83,0.02257
6820.04,0.02416
6814.26,0.03005
6808.47,0.02277
6802.68,0.01828
6796.9,0.01895
6791.11,0.02460
6785.33,0.02722
6779.54,0.02352
6773.75,0.02143
6767.97,0.01970
6762.18,0.02275
6756.39,0.02129
6750.61,0.02612
6744.82,0.02331
6739.04,0.01954
6733.25,0.01934
6727.46,0.02415
6721.68,0.02396
6715.89,0.02419
6710.1,0.02605
6704.32,0.02550
6698.53,0.02099
6692.75,0.02626
6686.96,0.02582
6681.17,0.02091
6675.39,0.02421
6669.6,0.02011
6663.82,0.02671
6658.03,0.02638
6652.24,0.02044
6646.46,0.02351
6640.67,0.02192
6634.88,0.02798
6629.1,0.01844
6623.31,0.02149
6617.53,0.02464
6611.74,0.02240
6605.95,0.02788
6600.17,0.02502
6594.38,0.02404
6588.59,0.02459
6582.81,0.02481
6577.02,0.02484
6571.24,0.02479
6565.45,0.02462
6559.66,0.02369
6553.88,0.01936
6548.09,0.02655
6542.3,0.02218
6536.52,0.02353
6530.73,0.02310
6524.95,0.02178
6519.16,0.02622
6513.37,0.02019
6507.59,0.02223
6501.8,0.02347
6496.01,0.02427
6490.23,0.01969
6484.44,0.02120
6478.66,0.02561
6472.87,0.01953
6467.08,0.02841
6461.3,0.02562
6455.51,0.02334
6449.72,0.02095
6443.94,0.02262
6438.15,0.02094
6432.37,0.02390
6426.58,0.02015
6420.79,0.02359
6415.01,0.02425
6409.22,0.02239
6403.43,0.01977
6397.65,0.02063
6391.86,0.02015
6386.08,0.02062
6380.29,0.02110
6374.5,0.02211
6368.72,0.01991
6362.93,0.01935
6357.14,0.01956
6351.36,0.02114
6345.57,0.02321
6339.79,0.02048
6334,0.02034
6328.21,0.02156
6322.43,0.02355
6316.64,0.02061
6310.85,0.02316
6305.07,0.02272
6299.28,0.01996
6293.5,0.02091
6287.71,0.02013
6281.92,0.02361
6276.14,0.02340
6270.35,0.02449
6264.56,0.02171
6258.78,0.02487
6252.99,0.02048
6247.21,0.02144
6241.42,0.02344
6235.63,0.02341
6229.85,0.01853
6224.06,0.02008
6218.27,0.02071
6212.49,0.02270
6206.7,0.02119
6200.92,0.02422
6195.13,0.02129
6189.34,0.02327
6183.56,0.02421
6177.77,0.01915
6171.98,0.02289
6166.2,0.02350
6160.41,0.02196
6154.63,0.02418
6148.84,0.02173
6143.05,0.02113
6137.27,0.01958
6131.48,0.02220
6125.7,0.02490
6119.91,0.01922
6114.12,0.02076
6108.34,0.02474
6102.55,0.02586
6096.76,0.02129
6090.98,0.01865
6085.19,0.02148
6079.41,0.02169
6073.62,0.02223
6067.83,0.02045
6062.05,0.02050
6056.26,0.02263
6050.47,0.02313
6044.69,0.02203
6038.9,0.02122
6033.12,0.02071
6027.33,0.02093
6021.54,0.02129
6015.76,0.02190
6009.97,0.02140
6004.18,0.02150
5998.4,0.02298
5992.61,0.02133
5986.83,0.02105
5981.04,0.02200
5975.25,0.01909
5969.47,0.02269
5963.68,0.02469
5957.89,0.01987
5952.11,0.02146
5946.32,0.02227
5940.54,0.02265
5934.75,0.02086
5928.96,0.02309
5923.18,0.01881
5917.39,0.02014
5911.6,0.02270
5905.82,0.02084
5900.03,0.01962
5894.25,0.01939
5888.46,0.02124
5882.67,0.02155
5876.89,0.02174
5871.1,0.02323
5865.31,0.02214
5859.53,0.02099
5853.74,0.01997
5847.96,0.02088
5842.17,0.01963
5836.38,0.02319
5830.6,0.02314
5824.81,0.02103
5819.02,0.02292
5813.24,0.02146
5807.45,0.02020
5801.67,0.02177
5795.88,0.02157
5790.09,0.02201
5784.31,0.02376
5778.52,0.02118
5772.73,0.02199
5766.95,0.02055
5761.16,0.02206
5755.38,0.02389
5749.59,0.02193
5743.8,0.02277
5738.02,0.02303
5732.23,0.02107
5726.44,0.02293
5720.66,0.02036
5714.87,0.02007
5709.09,0.02087
5703.3,0.02148
5697.51,0.02035
5691.73,0.02174
5685.94,0.02130
5680.15,0.02191
5674.37,0.02217
5668.58,0.02309
5662.8,0.02192
5657.01,0.02093
5651.22,0.02111
5645.44,0.02217
5639.65,0.02127
5633.87,0.02188
5628.08,0.02263
5622.29,0.02055
5616.51,0.02320
5610.72,0.02222
5604.93,0.02307
5599.15,0.02322
5593.36,0.02396
5587.58,0.02071
5581.79,0.02312
5576,0.02240
5570.22,0.02243
5564.43,0.02228
5558.64,0.02258
5552.86,0.02081
5547.07,0.02265
5541.29,0.02183
5535.5,0.02100
5529.71,0.02344
5523.93,0.02326
5518.14,0.01951
5512.35,0.02355
5506.57,0.02328
5500.78,0.02086
5495,0.02172
5489.21,0.02250
5483.42,0.02170
5477.64,0.02280
5471.85,0.02406
5466.06,0.02316
5460.28,0.02343
5454.49,0.02258
5448.71,0.02187
5442.92,0.02132
5437.13,0.02234
5431.35,0.02139
5425.56,0.02133
5419.77,0.02252
5413.99,0.02188
5408.2,0.02370
5402.42,0.02228
5396.63,0.02262
5390.84,0.02208
5385.06,0.02349
5379.27,0.02197
5373.48,0.02282
5367.7,0.02169
5361.91,0.02101
5356.13,0.02220
5350.34,0.02199
5344.55,0.02237
5338.77,0.02233
5332.98,0.02339
5327.19,0.02313
5321.41,0.02266
5315.62,0.02329
5309.84,0.02238
5304.05,0.02226
5298.26,0.02193
5292.48,0.02322
5286.69,0.02214
5280.9,0.02161
5275.12,0.02107
5269.33,0.02188
5263.55,0.02262
5257.76,0.02325
5251.97,0.02249
5246.19,0.02258
5240.4,0.02179
5234.61,0.02131
5228.83,0.02081
5223.04,0.02144
5217.26,0.02268
5211.47,0.02204
5205.68,0.02207
5199.9,0.02068
5194.11,0.02183
5188.32,0.02277
5182.54,0.02120
5176.75,0.02308
5170.97,0.02252
5165.18,0.02144
5159.39,0.02131
5153.61,0.02208
5147.82,0.02147
5142.03,0.02227
5136.25,0.02164
5130.46,0.02131
5124.68,0.02123
5118.89,0.02125
5113.1,0.02259
5107.32,0.02319
5101.53,0.02186
5095.75,0.02104
5089.96,0.02209
5084.17,0.02271
5078.39,0.02181
5072.6,0.02117
5066.81,0.02349
5061.03,0.02278
5055.24,0.02087
5049.46,0.02203
5043.67,0.02188
5037.88,0.02319
5032.1,0.02240
5026.31,0.02266
5020.52,0.02190
5014.74,0.02285
5008.95,0.02356
5003.17,0.02310
4997.38,0.02225
4991.59,0.02194
4985.81,0.02122
4980.02,0.02291
4974.23,0.02329
4968.45,0.02261
4962.66,0.02134
4956.88,0.02275
4951.09,0.02248
4945.3,0.02197
4939.52,0.02140
4933.73,0.02213
4927.94,0.02178
4922.16,0.02316
4916.37,0.02250
4910.59,0.02271
4904.8,0.02222
4899.01,0.02244
4893.23,0.02121
4887.44,0.02116
4881.65,0.02212
4875.87,0.02353
4870.08,0.02255
4864.3,0.02261
4858.51,0.02341
4852.72,0.02322
4846.94,0.02352
4841.15,0.02125
4835.36,0.02249
4829.58,0.02280
4823.79,0.02198
4818.01,0.02350
4812.22,0.02264
4806.43,0.02310
4800.65,0.02244
4794.86,0.02186
4789.07,0.02368
4783.29,0.02252
4777.5,0.02168
4771.72,0.02193
4765.93,0.02293
4760.14,0.02248
4754.36,0.02315
4748.57,0.02272
4742.78,0.02317
4737,0.02308
4731.21,0.02316
4725.43,0.02232
4719.64,0.02233
4713.85,0.02236
4708.07,0.02250
4702.28,0.02295
4696.49,0.02326
4690.71,0.02299
4684.92,0.02351
4679.14,0.02303
4673.35,0.02365
4667.56,0.02312
4661.78,0.02395
4655.99,0.02222
4650.2,0.02215
4644.42,0.02321
4638.63,0.02207
4632.85,0.02223
4627.06,0.02250
4621.27,0.02175
4615.49,0.02224
4609.7,0.02192
4603.92,0.02218
4598.13,0.02230
4592.34,0.02202
4586.56,0.02229
4580.77,0.02187
4574.98,0.02294
4569.2,0.02286
4563.41,0.02133
4557.63,0.02239
4551.84,0.02337
4546.05,0.02289
4540.27,0.02277
4534.48,0.02264
4528.69,0.02251
4522.91,0.02324
4517.12,0.02234
4511.34,0.02306
4505.55,0.02276
4499.76,0.02227
4493.98,0.02301
4488.19,0.02146
4482.4,0.02262
4476.62,0.02285
4470.83,0.02328
4465.05,0.02244
4459.26,0.02189
4453.47,0.02286
4447.69,0.02293
4441.9,0.02247
4436.11,0.02298
4430.33,0.02272
4424.54,0.02316
4418.76,0.02280
4412.97,0.02258
4407.18,0.02326
4401.4,0.02208
4395.61,0.02228
4389.82,0.02243
4384.04,0.02274
4378.25,0.02323
4372.47,0.02287
4366.68,0.02264
4360.89,0.02229
4355.11,0.02260
4349.32,0.02228
4343.53,0.02300
4337.75,0.02287
4331.96,0.02319
4326.18,0.02270
4320.39,0.02292
4314.6,0.02296
4308.82,0.02249
4303.03,0.02237
4297.24,0.02275
4291.46,0.02293
4285.67,0.02346
4279.89,0.02194
4274.1,0.02208
4268.31,0.02283
4262.53,0.02321
4256.74,0.02322
4250.95,0.02407
4245.17,0.02303
4239.38,0.02307
4233.6,0.02290
4227.81,0.02256
4222.02,0.02277
4216.24,0.02301
4210.45,0.02294
4204.66,0.02343
4198.88,0.02275
4193.09,0.02231
4187.31,0.02242
4181.52,0.02312
4175.73,0.02288
4169.95,0.02303
4164.16,0.02235
4158.37,0.02324
4152.59,0.02282
4146.8,0.02245
4141.02,0.02260
4135.23,0.02292
4129.44,0.02250
4123.66,0.02290
4117.87,0.02356
4112.09,0.02276
4106.3,0.02229
4100.51,0.02261
4094.73,0.02343
4088.94,0.02224
4083.15,0.02280
4077.37,0.02263
4071.58,0.02259
4065.8,0.02267
4060.01,0.02279
4054.22,0.02302
4048.44,0.02281
4042.65,0.02387
4036.86,0.02295
4031.08,0.02338
4025.29,0.02275
4019.51,0.02279
4013.72,0.02325
4007.93,0.02302
4002.15,0.02349
3996.36,0.02359
3990.57,0.02330
3984.79,0.02317
3979,0.02314
3973.22,0.02288
3967.43,0.02311
3961.64,0.02274
3955.86,0.02348
3950.07,0.02321
3944.28,0.02219
3938.5,0.02276
3932.71,0.02284
3926.93,0.02321
3921.14,0.02233
3915.35,0.02309
3909.57,0.02272
3903.78,0.02443
3897.99,0.02265
3892.21,0.02251
3886.42,0.02298
3880.64,0.02279
3874.85,0.02257
3869.06,0.02279
3863.28,0.02264
3857.49,0.02361
3851.7,0.02310
3845.92,0.02303
3840.13,0.02300
3834.35,0.02279
3828.56,0.02311
3822.77,0.02296
3816.99,0.02312
3811.2,0.02301
3805.41,0.02329
3799.63,0.02241
3793.84,0.02253
3788.06,0.02290
3782.27,0.02348
3776.48,0.02243
3770.7,0.02299
3764.91,0.02295
3759.12,0.02261
3753.34,0.02314
3747.55,0.02270
3741.77,0.02223
3735.98,0.02337
3730.19,0.02294
3724.41,0.02332
3718.62,0.02304
3712.83,0.02314
3707.05,0.02265
3701.26,0.02213
3695.48,0.02301
3689.69,0.02292
3683.9,0.02261
3678.12,0.02223
3672.33,0.02248
3666.54,0.02187
3660.76,0.02202
3654.97,0.02240
3649.19,0.02298
3643.4,0.02213
3637.61,0.02220
3631.83,0.02244
3626.04,0.02192
3620.25,0.02199
3614.47,0.02212
3608.68,0.02245
3602.9,0.02200
3597.11,0.02175
3591.32,0.02174
3585.54,0.02186
3579.75,0.02213
3573.97,0.02263
3568.18,0.02134
3562.39,0.02188
3556.61,0.02190
3550.82,0.02184
3545.03,0.02119
3539.25,0.02155
3533.46,0.02203
3527.68,0.02148
3521.89,0.02117
3516.1,0.02121
3510.32,0.02198
3504.53,0.02142
3498.74,0.02123
3492.96,0.02136
3487.17,0.02143
3481.39,0.02159
3475.6,0.02244
3469.81,0.02083
3464.03,0.02155
3458.24,0.02118
3452.45,0.02141
3446.67,0.02020
3440.88,0.02092
3435.1,0.02042
3429.31,0.02162
3423.52,0.02081
3417.74,0.02059
3411.95,0.02116
3406.16,0.02058
3400.38,0.02083
3394.59,0.02078
3388.81,0.02012
3383.02,0.02071
3377.23,0.02067
3371.45,0.02000
3365.66,0.02113
3359.87,0.02050
3354.09,0.02037
3348.3,0.02032
3342.52,0.02094
3336.73,0.02071
3330.94,0.02072
3325.16,0.02101
3319.37,0.02009
3313.58,0.02012
3307.8,0.02044
3302.01,0.02012
3296.23,0.02011
3290.44,0.02078
3284.65,0.02028
3278.87,0.02034
3273.08,0.02039
3267.29,0.02057
3261.51,0.02120
3255.72,0.02125
3249.94,0.02141
3244.15,0.02094
3238.36,0.02117
3232.58,0.02060
3226.79,0.02118
3221,0.02101
3215.22,0.02088
3209.43,0.02069
3203.65,0.02049
3197.86,0.02055
3192.07,0.02043
3186.29,0.02072
3180.5,0.02094
3174.71,0.02107
3168.93,0.02145
3163.14,0.02075
3157.36,0.02046
3151.57,0.02013
3145.78,0.02105
3140,0.02099
3134.21,0.02113
3128.42,0.02156
3122.64,0.02085
3116.85,0.02085
3111.07,0.02124
3105.28,0.02115
3099.49,0.02132
3093.71,0.02071
3087.92,0.02123
3082.14,0.02114
3076.35,0.02075
3070.56,0.02114
3064.78,0.02138
3058.99,0.02162
3053.2,0.02155
3047.42,0.02043
3041.63,0.02125
3035.85,0.02068
3030.06,0.02085
3024.27,0.02120
3018.49,0.02093
3012.7,0.02057
3006.91,0.02095
3001.13,0.02065
2995.34,0.02049
2989.56,0.02032
2983.77,0.02024
2977.98,0.02031
2972.2,0.01948
2966.41,0.02006
2960.62,0.01985
2954.84,0.01990
2949.05,0.02032
2943.27,0.02007
2937.48,0.01994
2931.69,0.01988
2925.91,0.02045
2920.12,0.02077
2914.33,0.02045
2908.55,0.02085
2902.76,0.02055
2896.98,0.02127
2891.19,0.02076
2885.4,0.02075
2879.62,0.02087
2873.83,0.02095
2868.04,0.02070
2862.26,0.02056
2856.47,0.02084
2850.69,0.02112
2844.9,0.02187
2839.11,0.02161
2833.33,0.02143
2827.54,0.02166
2821.75,0.02144
2815.97,0.02164
2810.18,0.02170
2804.4,0.02149
2798.61,0.02168
2792.82,0.02202
2787.04,0.02185
2781.25,0.02171
2775.46,0.02133
2769.68,0.02127
2763.89,0.02137
2758.11,0.02167
2752.32,0.02165
2746.53,0.02145
2740.75,0.02194
2734.96,0.02159
2729.17,0.02159
2723.39,0.02203
2717.6,0.02129
2711.82,0.02147
2706.03,0.02208
2700.24,0.02194
2694.46,0.02190
2688.67,0.02124
2682.88,0.02162
2677.1,0.02160
2671.31,0.02163
2665.53,0.02155
2659.74,0.02121
2653.95,0.02146
2648.17,0.02216
2642.38,0.02197
2636.59,0.02177
2630.81,0.02169
2625.02,0.02183
2619.24,0.02158
2613.45,0.02157
2607.66,0.02115
2601.88,0.02141
2596.09,0.02169
2590.3,0.02155
2584.52,0.02152
2578.73,0.02194
2572.95,0.02187
2567.16,0.02126
2561.37,0.02151
2555.59,0.02177
2549.8,0.02188
2544.02,0.02141
2538.23,0.02161
2532.44,0.02168
2526.66,0.02133
2520.87,0.02130
2515.08,0.02167
2509.3,0.02145
2503.51,0.02174
2497.73,0.02114
2491.94,0.02124
2486.15,0.02120
2480.37,0.02159
2474.58,0.02144
2468.79,0.02136
2463.01,0.02141
2457.22,0.02158
2451.44,0.02165
2445.65,0.02157
2439.86,0.02134
2434.08,0.02109
2428.29,0.02163
2422.5,0.02168
2416.72,0.02149
2410.93,0.02153
2405.15,0.02176
2399.36,0.02155
2393.57,0.02122
2387.79,0.02156
2382,0.02152
2376.21,0.02187
2370.43,0.02158
2364.64,0.02224
2358.86,0.02158
2353.07,0.02176
2347.28,0.02129
2341.5,0.02182
2335.71,0.02172
2329.92,0.02151
2324.14,0.02158
2318.35,0.02132
2312.57,0.02153
2306.78,0.02127
2300.99,0.02190
2295.21,0.02159
2289.42,0.02185
2283.63,0.02119
2277.85,0.02145
2272.06,0.02155
2266.28,0.02147
2260.49,0.02160
2254.7,0.02156
2248.92,0.02141
2243.13,0.02112
2237.34,0.02128
2231.56,0.02136
2225.77,0.02186
2219.99,0.02151
2214.2,0.02129
2208.41,0.02150
2202.63,0.02156
2196.84,0.02137
2191.05,0.02136
2185.27,0.02136
2179.48,0.02145
2173.7,0.02160
2167.91,0.02137
2162.12,0.02120
2156.34,0.02161
2150.55,0.02148
2144.76,0.02144
2138.98,0.02137
2133.19,0.02174
2127.41,0.02134
2121.62,0.02148
2115.83,0.02119
2110.05,0.02152
2104.26,0.02126
2098.47,0.02125
2092.69,0.02112
2086.9,0.02130
2081.12,0.02096
2075.33,0.02096
2069.54,0.02135
2063.76,0.02134
2057.97,0.02124
2052.19,0.02118
2046.4,0.02137
2040.61,0.02117
2034.83,0.02084
2029.04,0.02121
2023.25,0.02133
2017.47,0.02136
2011.68,0.02116
2005.9,0.02076
2000.11,0.02104
1994.32,0.02106
1988.54,0.02113
1982.75,0.02086
1976.96,0.02120
1971.18,0.02121
1965.39,0.02110
1959.61,0.02093
1953.82,0.02100
1948.03,0.02105
1942.25,0.02114
1936.46,0.02097
1930.67,0.02071
1924.89,0.02113
1919.1,0.02073
1913.32,0.02057
1907.53,0.02121
1901.74,0.02054
1895.96,0.02053
1890.17,0.02062
1884.38,0.02073
1878.6,0.02112
1872.81,0.02088
1867.03,0.02089
1861.24,0.02083
1855.45,0.02080
1849.67,0.02064
1843.88,0.02033
1838.09,0.02043
1832.31,0.02058
1826.52,0.02030
1820.74,0.02018
1814.95,0.02044
1809.16,0.02037
1803.38,0.01994
1797.59,0.01943
1791.8,0.01933
1786.02,0.01923
1780.23,0.01907
1774.45,0.01907
1768.66,0.01867
1762.87,0.01827
1757.09,0.01789
1751.3,0.01736
1745.51,0.01788
1739.73,0.01900
1733.94,0.02017
1728.16,0.02061
1722.37,0.02094
1716.58,0.02102
1710.8,0.02093
1705.01,0.02078
1699.22,0.02016
1693.44,0.01949
1687.65,0.01980
1681.87,0.01913
1676.08,0.01886
1670.29,0.01903
1664.51,0.01885
1658.72,0.01861
1652.93,0.01825
1647.15,0.01838
1641.36,0.01861
1635.58,0.01928
1629.79,0.01894
1624,0.01942
1618.22,0.01942
1612.43,0.01896
1606.64,0.01877
1600.86,0.01936
1595.07,0.01902
1589.29,0.01895
1583.5,0.01886
1577.71,0.01865
1571.93,0.01858
1566.14,0.01875
1560.35,0.01872
1554.57,0.01841
1548.78,0.01845
1543,0.01884
1537.21,0.01895
1531.42,0.01886
1525.64,0.01878
1519.85,0.01890
1514.07,0.01900
1508.28,0.01913
1502.49,0.01929
1496.71,0.01885
1490.92,0.01903
1485.13,0.01899
1479.35,0.01890
1473.56,0.01886
1467.78,0.01838
1461.99,0.01882
1456.2,0.01876
1450.42,0.01884
1444.63,0.01897
1438.84,0.01881
1433.06,0.01898
1427.27,0.01884
1421.49,0.01922
1415.7,0.01874
1409.91,0.01879
1404.13,0.01843
1398.34,0.01853
1392.55,0.01782
1386.77,0.01862
1380.98,0.01838
1375.2,0.01846
1369.41,0.01810
1363.62,0.01829
1357.84,0.01841
1352.05,0.01819
1346.26,0.01799
1340.48,0.01799
1334.69,0.01781
1328.91,0.01777
1323.12,0.01715
1317.33,0.01724
1311.55,0.01720
1305.76,0.01739
1299.97,0.01775
1294.19,0.01800
1288.4,0.01838
1282.62,0.01884
1276.83,0.01895
1271.04,0.01925
1265.26,0.02038
1259.47,0.02018
1253.68,0.02025
1247.9,0.02035
1242.11,0.02056
1236.33,0.02030
1230.54,0.02010
1224.75,0.01984
1218.97,0.01943
1213.18,0.01865
1207.39,0.01881
1201.61,0.01863
1195.82,0.01826
1190.04,0.01846
1184.25,0.01829
1178.46,0.01832
1172.68,0.01819
1166.89,0.01777
1161.1,0.01771
1155.32,0.01765
1149.53,0.01738
1143.75,0.01781
1137.96,0.01813
1132.17,0.01879
1126.39,0.01846
1120.6,0.01855
1114.81,0.01857
1109.03,0.01839
1103.24,0.01836
1097.46,0.01792
1091.67,0.01808
1085.88,0.01828
1080.1,0.01815
1074.31,0.01984
1068.52,0.02010
1062.74,0.01970
1056.95,0.01938
1051.17,0.01943
1045.38,0.01961
1039.59,0.02002
1033.81,0.01948
1028.02,0.01999
1022.24,0.01990
1016.45,0.01961
1010.66,0.02052
1004.88,0.02095
999.09,0.02121
993.304,0.02100
987.518,0.02126
981.731,0.01985
975.945,0.02049
970.159,0.02000
964.373,0.02054
958.586,0.02058
952.8,0.02011
947.014,0.02018
941.228,0.02005
935.441,0.01978
929.655,0.01988
923.869,0.01973
918.083,0.01984
912.297,0.02004
906.51,0.01902
900.724,0.01912
894.938,0.01942
889.152,0.01969
883.365,0.01880
877.579,0.01945
871.793,0.01914
866.007,0.01831
860.22,0.01896
854.434,0.01940
848.648,0.01880
842.862,0.01919
837.075,0.01851
831.289,0.01893
825.503,0.01981
819.717,0.01909
813.931,0.01903
808.144,0.01979
802.358,0.01968
796.572,0.01922
790.786,0.01843
784.999,0.01885
779.213,0.01872
773.427,0.01885
767.641,0.01918
761.854,0.01818
756.068,0.01789
750.282,0.01748
744.496,0.01831
738.709,0.01910
732.923,0.01915
727.137,0.01868
721.351,0.01840
715.565,0.01728
709.778,0.01741
703.992,0.01779
698.206,0.01813
692.42,0.01718
686.633,0.01764
680.847,0.01744
675.061,0.01707
669.275,0.01768
663.488,0.01714
657.702,0.01683
651.916,0.01630
646.13,0.01630
640.343,0.01686
634.557,0.01575
628.771,0.01722
622.985,0.01767
617.198,0.01535
611.412,0.01715
605.626,0.01667
599.84,0.01460