File: 01_Data/Pine_Lap_Siding/FTIR/IS/Pine_Lap_Siding_IS_T_220916_R3.dpt
7497.03,0.01752
7491.25,0.01537
7485.46,0.02294
7479.67,0.02145
7473.89,0.02947
7468.1,0.02888
7462.32,0.02946
7456.53,0.02232
7450.74,0.02609
7444.96,0.02299
7439.17,0.02285
7433.38,0.01832
7427.6,0.03618
7421.81,0.02832
7416.03,0.02091
7410.24,0.02217
7404.45,0.02120
7398.67,0.02207
7392.88,0.02243
7387.09,0.03136
7381.31,0.02375
7375.52,0.01812
7369.74,0.02601
7363.95,0.02470
7358.16,0.02339
7352.38,0.01740
7346.59,0.02475
7340.8,0.02392
7335.02,0.02382
7329.23,0.02402
7323.45,0.02173
7317.66,0.02344
7311.87,0.02638
7306.09,0.02443
7300.3,0.02010
7294.51,0.02117
7288.73,0.01815
7282.94,0.01891
7277.16,0.02246
7271.37,0.02456
7265.58,0.02427
7259.8,0.02607
7254.01,0.01944
7248.22,0.01567
7242.44,0.02537
7236.65,0.02181
7230.87,0.02507
7225.08,0.02721
7219.29,0.03663
7213.51,0.02657
7207.72,0.02566
7201.93,0.02639
7196.15,0.01803
7190.36,0.01891
7184.58,0.02175
7178.79,0.02236
7173,0.02322
7167.22,0.02870
7161.43,0.02425
7155.65,0.02469
7149.86,0.02255
7144.07,0.02331
7138.29,0.02407
7132.5,0.02336
7126.71,0.02728
7120.93,0.02526
7115.14,0.02192
7109.36,0.02391
7103.57,0.02566
7097.78,0.01654
7092,0.02819
7086.21,0.01533
7080.42,0.02048
7074.64,0.02706
7068.85,0.02319
7063.07,0.02628
7057.28,0.02848
7051.49,0.02369
7045.71,0.02911
7039.92,0.02900
7034.13,0.02381
7028.35,0.02701
7022.56,0.02604
7016.78,0.02660
7010.99,0.02845
7005.2,0.01820
6999.42,0.01867
6993.63,0.02283
6987.84,0.03156
6982.06,0.02449
6976.27,0.02406
6970.49,0.02765
6964.7,0.02258
6958.91,0.02529
6953.13,0.02758
6947.34,0.01719
6941.55,0.02104
6935.77,0.02056
6929.98,0.02325
6924.2,0.02589
6918.41,0.02117
6912.62,0.02120
6906.84,0.02512
6901.05,0.02626
6895.26,0.02513
6889.48,0.01862
6883.69,0.02635
6877.91,0.02029
6872.12,0.02329
6866.33,0.02509
6860.55,0.02468
6854.76,0.01962
6848.97,0.02120
6843.19,0.02447
6837.4,0.02612
6831.62,0.02476
6825.83,0.02321
6820.04,0.02414
6814.26,0.02722
6808.47,0.03015
6802.68,0.02276
6796.9,0.02411
6791.11,0.02066
6785.33,0.02160
6779.54,0.02311
6773.75,0.02584
6767.97,0.02539
6762.18,0.02824
6756.39,0.02483
6750.61,0.02287
6744.82,0.02132
6739.04,0.02240
6733.25,0.02039
6727.46,0.02557
6721.68,0.02481
6715.89,0.02808
6710.1,0.02489
6704.32,0.02606
6698.53,0.02362
6692.75,0.02061
6686.96,0.02370
6681.17,0.02208
6675.39,0.02593
6669.6,0.02330
6663.82,0.02161
6658.03,0.02484
6652.24,0.02331
6646.46,0.02235
6640.67,0.01983
6634.88,0.02375
6629.1,0.02409
6623.31,0.02360
6617.53,0.02227
6611.74,0.02431
6605.95,0.02072
6600.17,0.02321
6594.38,0.02331
6588.59,0.02442
6582.81,0.01886
6577.02,0.02282
6571.24,0.01830
6565.45,0.02520
6559.66,0.01964
6553.88,0.02185
6548.09,0.01926
6542.3,0.02272
6536.52,0.02177
6530.73,0.02060
6524.95,0.02360
6519.16,0.02203
6513.37,0.02254
6507.59,0.02303
6501.8,0.02439
6496.01,0.02321
6490.23,0.02697
6484.44,0.02289
6478.66,0.02415
6472.87,0.02374
6467.08,0.02534
6461.3,0.02359
6455.51,0.02142
6449.72,0.02247
6443.94,0.02527
6438.15,0.02299
6432.37,0.02440
6426.58,0.02156
6420.79,0.02435
6415.01,0.02188
6409.22,0.02196
6403.43,0.02206
6397.65,0.02023
6391.86,0.02128
6386.08,0.02152
6380.29,0.02357
6374.5,0.02517
6368.72,0.02350
6362.93,0.02258
6357.14,0.02475
6351.36,0.02525
6345.57,0.02234
6339.79,0.02041
6334,0.01980
6328.21,0.02132
6322.43,0.02013
6316.64,0.02325
6310.85,0.02543
6305.07,0.02447
6299.28,0.02356
6293.5,0.02206
6287.71,0.02306
6281.92,0.02349
6276.14,0.02445
6270.35,0.02226
6264.56,0.02180
6258.78,0.02458
6252.99,0.02371
6247.21,0.02056
6241.42,0.02195
6235.63,0.02245
6229.85,0.02121
6224.06,0.02218
6218.27,0.02277
6212.49,0.02379
6206.7,0.02157
6200.92,0.02321
6195.13,0.02147
6189.34,0.02307
6183.56,0.02070
6177.77,0.02042
6171.98,0.02263
6166.2,0.01985
6160.41,0.02168
6154.63,0.02497
6148.84,0.02105
6143.05,0.01968
6137.27,0.02138
6131.48,0.02182
6125.7,0.02256
6119.91,0.02044
6114.12,0.02247
6108.34,0.01917
6102.55,0.02276
6096.76,0.02231
6090.98,0.02275
6085.19,0.01908
6079.41,0.02345
6073.62,0.01975
6067.83,0.02092
6062.05,0.02134
6056.26,0.02047
6050.47,0.02287
6044.69,0.02314
6038.9,0.02126
6033.12,0.02326
6027.33,0.02431
6021.54,0.02264
6015.76,0.02229
6009.97,0.02616
6004.18,0.02235
5998.4,0.02274
5992.61,0.02212
5986.83,0.02307
5981.04,0.01886
5975.25,0.01987
5969.47,0.01993
5963.68,0.02276
5957.89,0.01949
5952.11,0.01981
5946.32,0.02121
5940.54,0.02368
5934.75,0.02277
5928.96,0.02292
5923.18,0.02158
5917.39,0.02216
5911.6,0.02290
5905.82,0.02169
5900.03,0.02155
5894.25,0.02301
5888.46,0.02162
5882.67,0.02197
5876.89,0.01991
5871.1,0.02242
5865.31,0.02219
5859.53,0.02284
5853.74,0.02112
5847.96,0.02251
5842.17,0.01824
5836.38,0.02250
5830.6,0.02103
5824.81,0.01908
5819.02,0.02241
5813.24,0.02055
5807.45,0.02374
5801.67,0.02225
5795.88,0.02370
5790.09,0.02276
5784.31,0.02235
5778.52,0.02274
5772.73,0.02121
5766.95,0.02097
5761.16,0.02152
5755.38,0.02012
5749.59,0.02152
5743.8,0.02068
5738.02,0.02066
5732.23,0.02299
5726.44,0.02169
5720.66,0.02198
5714.87,0.02028
5709.09,0.02141
5703.3,0.02334
5697.51,0.02432
5691.73,0.02065
5685.94,0.02173
5680.15,0.02253
5674.37,0.02089
5668.58,0.02206
5662.8,0.02211
5657.01,0.02367
5651.22,0.02224
5645.44,0.02193
5639.65,0.01979
5633.87,0.02276
5628.08,0.02377
5622.29,0.02290
5616.51,0.02251
5610.72,0.02364
5604.93,0.02146
5599.15,0.02176
5593.36,0.01985
5587.58,0.02063
5581.79,0.02271
5576,0.02356
5570.22,0.02108
5564.43,0.02123
5558.64,0.02161
5552.86,0.02104
5547.07,0.02210
5541.29,0.02302
5535.5,0.02303
5529.71,0.02161
5523.93,0.02316
5518.14,0.02271
5512.35,0.02366
5506.57,0.02256
5500.78,0.02078
5495,0.02262
5489.21,0.02220
5483.42,0.02214
5477.64,0.02239
5471.85,0.02300
5466.06,0.02189
5460.28,0.02163
5454.49,0.02128
5448.71,0.02367
5442.92,0.02214
5437.13,0.02085
5431.35,0.02332
5425.56,0.02165
5419.77,0.02264
5413.99,0.02224
5408.2,0.02228
5402.42,0.02265
5396.63,0.02205
5390.84,0.02212
5385.06,0.02224
5379.27,0.02177
5373.48,0.02324
5367.7,0.02230
5361.91,0.02150
5356.13,0.02206
5350.34,0.02160
5344.55,0.02026
5338.77,0.02325
5332.98,0.02170
5327.19,0.02288
5321.41,0.02201
5315.62,0.02246
5309.84,0.02216
5304.05,0.02128
5298.26,0.02141
5292.48,0.02176
5286.69,0.02165
5280.9,0.02147
5275.12,0.02125
5269.33,0.02107
5263.55,0.02213
5257.76,0.02013
5251.97,0.02182
5246.19,0.02310
5240.4,0.02285
5234.61,0.02192
5228.83,0.02181
5223.04,0.02212
5217.26,0.02085
5211.47,0.02139
5205.68,0.02268
5199.9,0.02089
5194.11,0.02354
5188.32,0.02417
5182.54,0.02289
5176.75,0.02180
5170.97,0.02212
5165.18,0.02101
5159.39,0.02147
5153.61,0.02094
5147.82,0.02166
5142.03,0.02076
5136.25,0.02285
5130.46,0.02233
5124.68,0.02201
5118.89,0.02218
5113.1,0.02234
5107.32,0.02187
5101.53,0.02216
5095.75,0.02065
5089.96,0.02132
5084.17,0.02192
5078.39,0.02197
5072.6,0.02178
5066.81,0.02050
5061.03,0.02164
5055.24,0.02215
5049.46,0.02263
5043.67,0.02323
5037.88,0.02209
5032.1,0.02312
5026.31,0.02253
5020.52,0.02052
5014.74,0.02162
5008.95,0.02154
5003.17,0.02295
4997.38,0.02237
4991.59,0.02151
4985.81,0.02135
4980.02,0.02188
4974.23,0.02213
4968.45,0.02189
4962.66,0.02190
4956.88,0.02173
4951.09,0.02182
4945.3,0.02313
4939.52,0.02190
4933.73,0.02116
4927.94,0.02067
4922.16,0.02273
4916.37,0.02170
4910.59,0.02175
4904.8,0.02285
4899.01,0.02183
4893.23,0.02269
4887.44,0.02224
4881.65,0.02193
4875.87,0.02173
4870.08,0.02221
4864.3,0.02185
4858.51,0.02248
4852.72,0.02219
4846.94,0.02241
4841.15,0.02190
4835.36,0.02157
4829.58,0.02202
4823.79,0.02310
4818.01,0.02170
4812.22,0.02200
4806.43,0.02319
4800.65,0.02233
4794.86,0.02185
4789.07,0.02167
4783.29,0.02178
4777.5,0.02223
4771.72,0.02258
4765.93,0.02201
4760.14,0.02216
4754.36,0.02108
4748.57,0.02270
4742.78,0.02220
4737,0.02169
4731.21,0.02297
4725.43,0.02292
4719.64,0.02301
4713.85,0.02289
4708.07,0.02203
4702.28,0.02107
4696.49,0.02165
4690.71,0.02211
4684.92,0.02223
4679.14,0.02238
4673.35,0.02231
4667.56,0.02216
4661.78,0.02239
4655.99,0.02340
4650.2,0.02225
4644.42,0.02172
4638.63,0.02080
4632.85,0.02136
4627.06,0.02192
4621.27,0.02171
4615.49,0.02282
4609.7,0.02153
4603.92,0.02267
4598.13,0.02239
4592.34,0.02255
4586.56,0.02241
4580.77,0.02219
4574.98,0.02217
4569.2,0.02163
4563.41,0.02279
4557.63,0.02204
4551.84,0.02142
4546.05,0.02148
4540.27,0.02217
4534.48,0.02321
4528.69,0.02272
4522.91,0.02195
4517.12,0.02315
4511.34,0.02228
4505.55,0.02251
4499.76,0.02281
4493.98,0.02222
4488.19,0.02210
4482.4,0.02228
4476.62,0.02261
4470.83,0.02231
4465.05,0.02168
4459.26,0.02168
4453.47,0.02163
4447.69,0.02225
4441.9,0.02190
4436.11,0.02171
4430.33,0.02186
4424.54,0.02196
4418.76,0.02199
4412.97,0.02251
4407.18,0.02213
4401.4,0.02244
4395.61,0.02291
4389.82,0.02228
4384.04,0.02221
4378.25,0.02221
4372.47,0.02120
4366.68,0.02213
4360.89,0.02208
4355.11,0.02199
4349.32,0.02183
4343.53,0.02216
4337.75,0.02216
4331.96,0.02193
4326.18,0.02191
4320.39,0.02223
4314.6,0.02274
4308.82,0.02205
4303.03,0.02195
4297.24,0.02223
4291.46,0.02174
4285.67,0.02267
4279.89,0.02244
4274.1,0.02204
4268.31,0.02197
4262.53,0.02238
4256.74,0.02342
4250.95,0.02245
4245.17,0.02192
4239.38,0.02188
4233.6,0.02199
4227.81,0.02155
4222.02,0.02262
4216.24,0.02201
4210.45,0.02224
4204.66,0.02257
4198.88,0.02237
4193.09,0.02231
4187.31,0.02244
4181.52,0.02221
4175.73,0.02148
4169.95,0.02198
4164.16,0.02225
4158.37,0.02239
4152.59,0.02186
4146.8,0.02243
4141.02,0.02285
4135.23,0.02279
4129.44,0.02284
4123.66,0.02229
4117.87,0.02277
4112.09,0.02270
4106.3,0.02240
4100.51,0.02221
4094.73,0.02240
4088.94,0.02200
4083.15,0.02246
4077.37,0.02268
4071.58,0.02199
4065.8,0.02178
4060.01,0.02222
4054.22,0.02208
4048.44,0.02272
4042.65,0.02249
4036.86,0.02187
4031.08,0.02258
4025.29,0.02241
4019.51,0.02231
4013.72,0.02190
4007.93,0.02195
4002.15,0.02234
3996.36,0.02264
3990.57,0.02250
3984.79,0.02257
3979,0.02183
3973.22,0.02236
3967.43,0.02266
3961.64,0.02223
3955.86,0.02284
3950.07,0.02304
3944.28,0.02252
3938.5,0.02250
3932.71,0.02209
3926.93,0.02258
3921.14,0.02271
3915.35,0.02265
3909.57,0.02214
3903.78,0.02243
3897.99,0.02259
3892.21,0.02210
3886.42,0.02310
3880.64,0.02255
3874.85,0.02297
3869.06,0.02272
3863.28,0.02175
3857.49,0.02221
3851.7,0.02172
3845.92,0.02236
3840.13,0.02226
3834.35,0.02211
3828.56,0.02185
3822.77,0.02218
3816.99,0.02227
3811.2,0.02278
3805.41,0.02299
3799.63,0.02293
3793.84,0.02253
3788.06,0.02253
3782.27,0.02257
3776.48,0.02224
3770.7,0.02253
3764.91,0.02230
3759.12,0.02204
3753.34,0.02264
3747.55,0.02223
3741.77,0.02271
3735.98,0.02306
3730.19,0.02231
3724.41,0.02176
3718.62,0.02212
3712.83,0.02229
3707.05,0.02187
3701.26,0.02189
3695.48,0.02213
3689.69,0.02279
3683.9,0.02215
3678.12,0.02208
3672.33,0.02234
3666.54,0.02208
3660.76,0.02228
3654.97,0.02220
3649.19,0.02211
3643.4,0.02149
3637.61,0.02175
3631.83,0.02197
3626.04,0.02202
3620.25,0.02167
3614.47,0.02180
3608.68,0.02221
3602.9,0.02107
3597.11,0.02177
3591.32,0.02167
3585.54,0.02161
3579.75,0.02123
3573.97,0.02103
3568.18,0.02061
3562.39,0.02096
3556.61,0.02118
3550.82,0.02147
3545.03,0.02145
3539.25,0.02060
3533.46,0.02115
3527.68,0.02100
3521.89,0.02105
3516.1,0.02129
3510.32,0.02108
3504.53,0.02111
3498.74,0.02126
3492.96,0.02064
3487.17,0.02137
3481.39,0.02049
3475.6,0.02075
3469.81,0.01997
3464.03,0.02082
3458.24,0.02089
3452.45,0.01986
3446.67,0.02059
3440.88,0.02114
3435.1,0.02044
3429.31,0.02077
3423.52,0.02047
3417.74,0.02031
3411.95,0.02052
3406.16,0.01989
3400.38,0.01997
3394.59,0.02032
3388.81,0.02047
3383.02,0.02057
3377.23,0.01976
3371.45,0.02047
3365.66,0.02021
3359.87,0.02025
3354.09,0.02037
3348.3,0.02037
3342.52,0.02042
3336.73,0.02013
3330.94,0.01965
3325.16,0.01970
3319.37,0.01996
3313.58,0.02026
3307.8,0.02013
3302.01,0.01987
3296.23,0.02052
3290.44,0.01984
3284.65,0.02039
3278.87,0.01968
3273.08,0.02019
3267.29,0.02011
3261.51,0.02064
3255.72,0.01990
3249.94,0.02081
3244.15,0.02016
3238.36,0.02031
3232.58,0.01971
3226.79,0.02075
3221,0.02075
3215.22,0.02013
3209.43,0.02029
3203.65,0.02004
3197.86,0.02042
3192.07,0.02095
3186.29,0.02124
3180.5,0.02025
3174.71,0.02053
3168.93,0.02036
3163.14,0.02012
3157.36,0.02081
3151.57,0.02076
3145.78,0.02000
3140,0.02047
3134.21,0.02073
3128.42,0.02090
3122.64,0.01991
3116.85,0.02107
3111.07,0.02056
3105.28,0.02065
3099.49,0.02022
3093.71,0.02080
3087.92,0.02034
3082.14,0.02085
3076.35,0.02092
3070.56,0.02080
3064.78,0.02019
3058.99,0.02043
3053.2,0.02033
3047.42,0.02039
3041.63,0.02075
3035.85,0.02070
3030.06,0.02046
3024.27,0.02071
3018.49,0.02011
3012.7,0.02085
3006.91,0.02026
3001.13,0.02054
2995.34,0.02030
2989.56,0.01979
2983.77,0.02008
2977.98,0.02006
2972.2,0.01945
2966.41,0.01916
2960.62,0.01897
2954.84,0.01947
2949.05,0.01869
2943.27,0.01949
2937.48,0.01965
2931.69,0.01929
2925.91,0.01991
2920.12,0.01966
2914.33,0.01990
2908.55,0.02020
2902.76,0.02046
2896.98,0.01990
2891.19,0.01980
2885.4,0.02024
2879.62,0.02039
2873.83,0.01984
2868.04,0.02041
2862.26,0.01974
2856.47,0.02003
2850.69,0.02013
2844.9,0.02084
2839.11,0.02101
2833.33,0.02100
2827.54,0.02121
2821.75,0.02104
2815.97,0.02094
2810.18,0.02066
2804.4,0.02113
2798.61,0.02115
2792.82,0.02149
2787.04,0.02107
2781.25,0.02128
2775.46,0.02112
2769.68,0.02136
2763.89,0.02138
2758.11,0.02117
2752.32,0.02077
2746.53,0.02118
2740.75,0.02099
2734.96,0.02082
2729.17,0.02079
2723.39,0.02069
2717.6,0.02081
2711.82,0.02057
2706.03,0.02095
2700.24,0.02122
2694.46,0.02077
2688.67,0.02116
2682.88,0.02146
2677.1,0.02098
2671.31,0.02077
2665.53,0.02109
2659.74,0.02109
2653.95,0.02085
2648.17,0.02116
2642.38,0.02051
2636.59,0.02078
2630.81,0.02125
2625.02,0.02111
2619.24,0.02123
2613.45,0.02102
2607.66,0.02039
2601.88,0.02071
2596.09,0.02134
2590.3,0.02109
2584.52,0.02055
2578.73,0.02058
2572.95,0.02108
2567.16,0.02091
2561.37,0.02113
2555.59,0.02086
2549.8,0.02122
2544.02,0.02111
2538.23,0.02100
2532.44,0.02071
2526.66,0.02114
2520.87,0.02108
2515.08,0.02114
2509.3,0.02072
2503.51,0.02129
2497.73,0.02096
2491.94,0.02066
2486.15,0.02086
2480.37,0.02101
2474.58,0.02096
2468.79,0.02120
2463.01,0.02124
2457.22,0.02108
2451.44,0.02089
2445.65,0.02096
2439.86,0.02100
2434.08,0.02113
2428.29,0.02081
2422.5,0.02106
2416.72,0.02104
2410.93,0.02080
2405.15,0.02092
2399.36,0.02115
2393.57,0.02071
2387.79,0.02108
2382,0.02096
2376.21,0.02067
2370.43,0.02114
2364.64,0.02083
2358.86,0.02088
2353.07,0.02108
2347.28,0.02103
2341.5,0.02089
2335.71,0.02085
2329.92,0.02102
2324.14,0.02111
2318.35,0.02103
2312.57,0.02081
2306.78,0.02054
2300.99,0.02091
2295.21,0.02080
2289.42,0.02060
2283.63,0.02091
2277.85,0.02077
2272.06,0.02142
2266.28,0.02110
2260.49,0.02083
2254.7,0.02104
2248.92,0.02078
2243.13,0.02066
2237.34,0.02055
2231.56,0.02101
2225.77,0.02063
2219.99,0.02064
2214.2,0.02091
2208.41,0.02075
2202.63,0.02059
2196.84,0.02090
2191.05,0.02091
2185.27,0.02088
2179.48,0.02060
2173.7,0.02044
2167.91,0.02051
2162.12,0.02092
2156.34,0.02057
2150.55,0.02084
2144.76,0.02086
2138.98,0.02082
2133.19,0.02082
2127.41,0.02047
2121.62,0.02072
2115.83,0.02088
2110.05,0.02060
2104.26,0.02044
2098.47,0.02085
2092.69,0.02074
2086.9,0.02094
2081.12,0.02095
2075.33,0.02090
2069.54,0.02061
2063.76,0.02029
2057.97,0.02075
2052.19,0.02073
2046.4,0.02060
2040.61,0.02034
2034.83,0.02033
2029.04,0.02035
2023.25,0.02035
2017.47,0.02061
2011.68,0.02072
2005.9,0.02082
2000.11,0.02044
1994.32,0.02066
1988.54,0.02069
1982.75,0.02020
1976.96,0.02033
1971.18,0.02031
1965.39,0.02044
1959.61,0.02008
1953.82,0.02053
1948.03,0.02022
1942.25,0.02034
1936.46,0.02018
1930.67,0.02041
1924.89,0.02045
1919.1,0.02043
1913.32,0.02056
1907.53,0.02070
1901.74,0.02041
1895.96,0.02012
1890.17,0.02012
1884.38,0.01983
1878.6,0.02029
1872.81,0.02006
1867.03,0.02013
1861.24,0.02010
1855.45,0.01989
1849.67,0.02001
1843.88,0.01997
1838.09,0.02007
1832.31,0.01966
1826.52,0.01938
1820.74,0.01955
1814.95,0.01988
1809.16,0.01929
1803.38,0.01905
1797.59,0.01925
1791.8,0.01928
1786.02,0.01901
1780.23,0.01886
1774.45,0.01884
1768.66,0.01804
1762.87,0.01789
1757.09,0.01757
1751.3,0.01715
1745.51,0.01748
1739.73,0.01833
1733.94,0.01893
1728.16,0.01997
1722.37,0.02070
1716.58,0.02032
1710.8,0.02011
1705.01,0.01984
1699.22,0.01934
1693.44,0.01903
1687.65,0.01906
1681.87,0.01859
1676.08,0.01843
1670.29,0.01846
1664.51,0.01814
1658.72,0.01792
1652.93,0.01867
1647.15,0.01858
1641.36,0.01832
1635.58,0.01832
1629.79,0.01859
1624,0.01840
1618.22,0.01851
1612.43,0.01829
1606.64,0.01868
1600.86,0.01871
1595.07,0.01829
1589.29,0.01864
1583.5,0.01818
1577.71,0.01782
1571.93,0.01790
1566.14,0.01789
1560.35,0.01830
1554.57,0.01782
1548.78,0.01791
1543,0.01830
1537.21,0.01796
1531.42,0.01833
1525.64,0.01820
1519.85,0.01784
1514.07,0.01825
1508.28,0.01870
1502.49,0.01839
1496.71,0.01810
1490.92,0.01866
1485.13,0.01853
1479.35,0.01847
1473.56,0.01838
1467.78,0.01823
1461.99,0.01826
1456.2,0.01855
1450.42,0.01835
1444.63,0.01870
1438.84,0.01882
1433.06,0.01832
1427.27,0.01855
1421.49,0.01857
1415.7,0.01825
1409.91,0.01803
1404.13,0.01780
1398.34,0.01796
1392.55,0.01800
1386.77,0.01735
1380.98,0.01788
1375.2,0.01834
1369.41,0.01802
1363.62,0.01790
1357.84,0.01760
1352.05,0.01809
1346.26,0.01729
1340.48,0.01770
1334.69,0.01749
1328.91,0.01782
1323.12,0.01749
1317.33,0.01710
1311.55,0.01717
1305.76,0.01693
1299.97,0.01683
1294.19,0.01748
1288.4,0.01781
1282.62,0.01871
1276.83,0.01859
1271.04,0.01924
1265.26,0.01943
1259.47,0.01937
1253.68,0.01994
1247.9,0.01982
1242.11,0.01977
1236.33,0.01997
1230.54,0.01942
1224.75,0.01954
1218.97,0.01910
1213.18,0.01893
1207.39,0.01871
1201.61,0.01861
1195.82,0.01782
1190.04,0.01831
1184.25,0.01753
1178.46,0.01772
1172.68,0.01801
1166.89,0.01727
1161.1,0.01757
1155.32,0.01721
1149.53,0.01745
1143.75,0.01779
1137.96,0.01740
1132.17,0.01718
1126.39,0.01771
1120.6,0.01833
1114.81,0.01815
1109.03,0.01834
1103.24,0.01819
1097.46,0.01844
1091.67,0.01772
1085.88,0.01748
1080.1,0.01757
1074.31,0.01894
1068.52,0.01960
1062.74,0.01991
1056.95,0.01929
1051.17,0.01980
1045.38,0.01947
1039.59,0.01952
1033.81,0.01887
1028.02,0.01900
1022.24,0.01829
1016.45,0.01898
1010.66,0.01950
1004.88,0.02034
999.09,0.02072
993.304,0.02081
987.518,0.02127
981.731,0.02019
975.945,0.02021
970.159,0.02049
964.373,0.02000
958.586,0.01989
952.8,0.01997
947.014,0.01998
941.228,0.02023
935.441,0.01935
929.655,0.01937
923.869,0.01923
918.083,0.01879
912.297,0.01885
906.51,0.01922
900.724,0.01815
894.938,0.01874
889.152,0.01868
883.365,0.01875
877.579,0.01876
871.793,0.01802
866.007,0.01838
860.22,0.01854
854.434,0.01895
848.648,0.01840
842.862,0.01871
837.075,0.01874
831.289,0.01910
825.503,0.01810
819.717,0.01871
813.931,0.01836
808.144,0.01904
802.358,0.01867
796.572,0.01800
790.786,0.01801
784.999,0.01768
779.213,0.01814
773.427,0.01817
767.641,0.01799
761.854,0.01840
756.068,0.01790
750.282,0.01737
744.496,0.01798
738.709,0.01833
732.923,0.01782
727.137,0.01767
721.351,0.01773
715.565,0.01764
709.778,0.01671
703.992,0.01906
698.206,0.01868
692.42,0.01712
686.633,0.01740
680.847,0.01755
675.061,0.01603
669.275,0.01745
663.488,0.01675
657.702,0.01632
651.916,0.01719
646.13,0.01862
640.343,0.01764
634.557,0.01519
628.771,0.01563
622.985,0.01754
617.198,0.01457
611.412,0.01783
605.626,0.01810
599.84,0.01821