File: 01_Data/Pine_Lap_Siding/FTIR/IS/Pine_Lap_Siding_IS_S_220916_R4.dpt
7497.03,0.82943
7491.25,0.83506
7485.46,0.82960
7479.67,0.83045
7473.89,0.82603
7468.1,0.82430
7462.32,0.82414
7456.53,0.81816
7450.74,0.82885
7444.96,0.81866
7439.17,0.81551
7433.38,0.82179
7427.6,0.80837
7421.81,0.81617
7416.03,0.80769
7410.24,0.80269
7404.45,0.80616
7398.67,0.80969
7392.88,0.79672
7387.09,0.80070
7381.31,0.80673
7375.52,0.81181
7369.74,0.80127
7363.95,0.80023
7358.16,0.80544
7352.38,0.80550
7346.59,0.80266
7340.8,0.80334
7335.02,0.80406
7329.23,0.79566
7323.45,0.79222
7317.66,0.79715
7311.87,0.79647
7306.09,0.79182
7300.3,0.79186
7294.51,0.79218
7288.73,0.79551
7282.94,0.78813
7277.16,0.79050
7271.37,0.78833
7265.58,0.79452
7259.8,0.79744
7254.01,0.79327
7248.22,0.78194
7242.44,0.79194
7236.65,0.79129
7230.87,0.78708
7225.08,0.78539
7219.29,0.78438
7213.51,0.78716
7207.72,0.77759
7201.93,0.77358
7196.15,0.77363
7190.36,0.77283
7184.58,0.75871
7178.79,0.76066
7173,0.75953
7167.22,0.76147
7161.43,0.76498
7155.65,0.76665
7149.86,0.76767
7144.07,0.76142
7138.29,0.76087
7132.5,0.75623
7126.71,0.75374
7120.93,0.75603
7115.14,0.75331
7109.36,0.75714
7103.57,0.75682
7097.78,0.75336
7092,0.75454
7086.21,0.75796
7080.42,0.74467
7074.64,0.73333
7068.85,0.72189
7063.07,0.72312
7057.28,0.73200
7051.49,0.73373
7045.71,0.73865
7039.92,0.73823
7034.13,0.73687
7028.35,0.74415
7022.56,0.73989
7016.78,0.73914
7010.99,0.73990
7005.2,0.73623
6999.42,0.73274
6993.63,0.73236
6987.84,0.73468
6982.06,0.73098
6976.27,0.73240
6970.49,0.73333
6964.7,0.73134
6958.91,0.73074
6953.13,0.73063
6947.34,0.72391
6941.55,0.72695
6935.77,0.73094
6929.98,0.72708
6924.2,0.73280
6918.41,0.73005
6912.62,0.73567
6906.84,0.73347
6901.05,0.73196
6895.26,0.72719
6889.48,0.72437
6883.69,0.72968
6877.91,0.73025
6872.12,0.73062
6866.33,0.73119
6860.55,0.72707
6854.76,0.72595
6848.97,0.73341
6843.19,0.73086
6837.4,0.73765
6831.62,0.72696
6825.83,0.72551
6820.04,0.72427
6814.26,0.72877
6808.47,0.73257
6802.68,0.73120
6796.9,0.72663
6791.11,0.72815
6785.33,0.72830
6779.54,0.73032
6773.75,0.72596
6767.97,0.72957
6762.18,0.73003
6756.39,0.72860
6750.61,0.72875
6744.82,0.73092
6739.04,0.72944
6733.25,0.72892
6727.46,0.72916
6721.68,0.72851
6715.89,0.72941
6710.1,0.72798
6704.32,0.72938
6698.53,0.73094
6692.75,0.73322
6686.96,0.73558
6681.17,0.73480
6675.39,0.72910
6669.6,0.73014
6663.82,0.73054
6658.03,0.73523
6652.24,0.73111
6646.46,0.73211
6640.67,0.73316
6634.88,0.73049
6629.1,0.73702
6623.31,0.73424
6617.53,0.73425
6611.74,0.73572
6605.95,0.73438
6600.17,0.73717
6594.38,0.73547
6588.59,0.73493
6582.81,0.73884
6577.02,0.73657
6571.24,0.74034
6565.45,0.73536
6559.66,0.73533
6553.88,0.73994
6548.09,0.73650
6542.3,0.74015
6536.52,0.74126
6530.73,0.73883
6524.95,0.73502
6519.16,0.73913
6513.37,0.73613
6507.59,0.73791
6501.8,0.73874
6496.01,0.74270
6490.23,0.74001
6484.44,0.73430
6478.66,0.73929
6472.87,0.73692
6467.08,0.73428
6461.3,0.73762
6455.51,0.73794
6449.72,0.74098
6443.94,0.74059
6438.15,0.73715
6432.37,0.74184
6426.58,0.73807
6420.79,0.74329
6415.01,0.73743
6409.22,0.73672
6403.43,0.74133
6397.65,0.73977
6391.86,0.74106
6386.08,0.73839
6380.29,0.74344
6374.5,0.74380
6368.72,0.74009
6362.93,0.74141
6357.14,0.73978
6351.36,0.74009
6345.57,0.74021
6339.79,0.74206
6334,0.74365
6328.21,0.74129
6322.43,0.74084
6316.64,0.73812
6310.85,0.74030
6305.07,0.74188
6299.28,0.74319
6293.5,0.74284
6287.71,0.74253
6281.92,0.74393
6276.14,0.73962
6270.35,0.74238
6264.56,0.74503
6258.78,0.74554
6252.99,0.74586
6247.21,0.74686
6241.42,0.74600
6235.63,0.74969
6229.85,0.74851
6224.06,0.74986
6218.27,0.74989
6212.49,0.75430
6206.7,0.75228
6200.92,0.75243
6195.13,0.75433
6189.34,0.75379
6183.56,0.75380
6177.77,0.75407
6171.98,0.75551
6166.2,0.75609
6160.41,0.75547
6154.63,0.75746
6148.84,0.75612
6143.05,0.75793
6137.27,0.75776
6131.48,0.75732
6125.7,0.75608
6119.91,0.75518
6114.12,0.75535
6108.34,0.75782
6102.55,0.75944
6096.76,0.75727
6090.98,0.75925
6085.19,0.75737
6079.41,0.75845
6073.62,0.75712
6067.83,0.75785
6062.05,0.75594
6056.26,0.75508
6050.47,0.75582
6044.69,0.75513
6038.9,0.75567
6033.12,0.75679
6027.33,0.75428
6021.54,0.75117
6015.76,0.74883
6009.97,0.74789
6004.18,0.74448
5998.4,0.74667
5992.61,0.74220
5986.83,0.73888
5981.04,0.73671
5975.25,0.73991
5969.47,0.73908
5963.68,0.73898
5957.89,0.73751
5952.11,0.73798
5946.32,0.73516
5940.54,0.73766
5934.75,0.73800
5928.96,0.73838
5923.18,0.73734
5917.39,0.73577
5911.6,0.73506
5905.82,0.73746
5900.03,0.73621
5894.25,0.73529
5888.46,0.73506
5882.67,0.73260
5876.89,0.73397
5871.1,0.73168
5865.31,0.73194
5859.53,0.73416
5853.74,0.73631
5847.96,0.73560
5842.17,0.73387
5836.38,0.73349
5830.6,0.73356
5824.81,0.73393
5819.02,0.73147
5813.24,0.73243
5807.45,0.73226
5801.67,0.73090
5795.88,0.73078
5790.09,0.73236
5784.31,0.73313
5778.52,0.73251
5772.73,0.73442
5766.95,0.73308
5761.16,0.73593
5755.38,0.73502
5749.59,0.73318
5743.8,0.73468
5738.02,0.73376
5732.23,0.73212
5726.44,0.73289
5720.66,0.73295
5714.87,0.73115
5709.09,0.73412
5703.3,0.73169
5697.51,0.73283
5691.73,0.73319
5685.94,0.73197
5680.15,0.73065
5674.37,0.73249
5668.58,0.73225
5662.8,0.73359
5657.01,0.73261
5651.22,0.73251
5645.44,0.73376
5639.65,0.73305
5633.87,0.73441
5628.08,0.73380
5622.29,0.73352
5616.51,0.73184
5610.72,0.73306
5604.93,0.73340
5599.15,0.73277
5593.36,0.73081
5587.58,0.73215
5581.79,0.73384
5576,0.73369
5570.22,0.73425
5564.43,0.73145
5558.64,0.73360
5552.86,0.73558
5547.07,0.73341
5541.29,0.73393
5535.5,0.73430
5529.71,0.73627
5523.93,0.73360
5518.14,0.73570
5512.35,0.73493
5506.57,0.73598
5500.78,0.73373
5495,0.73431
5489.21,0.73548
5483.42,0.73743
5477.64,0.73513
5471.85,0.73579
5466.06,0.73543
5460.28,0.73684
5454.49,0.73641
5448.71,0.73803
5442.92,0.73664
5437.13,0.73779
5431.35,0.73808
5425.56,0.73900
5419.77,0.73955
5413.99,0.74215
5408.2,0.74145
5402.42,0.73983
5396.63,0.74101
5390.84,0.74161
5385.06,0.74239
5379.27,0.73921
5373.48,0.74090
5367.7,0.74049
5361.91,0.74190
5356.13,0.74052
5350.34,0.73768
5344.55,0.73822
5338.77,0.73777
5332.98,0.73437
5327.19,0.73301
5321.41,0.73103
5315.62,0.72986
5309.84,0.72724
5304.05,0.72419
5298.26,0.71987
5292.48,0.71482
5286.69,0.71022
5280.9,0.70380
5275.12,0.69815
5269.33,0.69133
5263.55,0.68467
5257.76,0.68031
5251.97,0.67363
5246.19,0.66900
5240.4,0.66521
5234.61,0.66191
5228.83,0.65817
5223.04,0.65633
5217.26,0.65424
5211.47,0.65204
5205.68,0.65102
5199.9,0.65133
5194.11,0.64877
5188.32,0.64964
5182.54,0.65024
5176.75,0.65157
5170.97,0.65089
5165.18,0.65208
5159.39,0.65288
5153.61,0.65318
5147.82,0.65356
5142.03,0.65586
5136.25,0.65796
5130.46,0.65869
5124.68,0.65922
5118.89,0.66111
5113.1,0.66465
5107.32,0.66524
5101.53,0.66738
5095.75,0.66777
5089.96,0.66979
5084.17,0.66845
5078.39,0.67140
5072.6,0.67130
5066.81,0.67408
5061.03,0.67475
5055.24,0.67578
5049.46,0.67618
5043.67,0.67746
5037.88,0.67818
5032.1,0.67847
5026.31,0.68008
5020.52,0.68156
5014.74,0.68003
5008.95,0.68152
5003.17,0.68167
4997.38,0.68232
4991.59,0.68198
4985.81,0.68139
4980.02,0.68258
4974.23,0.68061
4968.45,0.67977
4962.66,0.67980
4956.88,0.67743
4951.09,0.67561
4945.3,0.67358
4939.52,0.67125
4933.73,0.66679
4927.94,0.66628
4922.16,0.66464
4916.37,0.66188
4910.59,0.65893
4904.8,0.65698
4899.01,0.65450
4893.23,0.65139
4887.44,0.64812
4881.65,0.64689
4875.87,0.64500
4870.08,0.64287
4864.3,0.64024
4858.51,0.63668
4852.72,0.63403
4846.94,0.63197
4841.15,0.63132
4835.36,0.62945
4829.58,0.62763
4823.79,0.62441
4818.01,0.62447
4812.22,0.62198
4806.43,0.62099
4800.65,0.61979
4794.86,0.61903
4789.07,0.61854
4783.29,0.61733
4777.5,0.61669
4771.72,0.61576
4765.93,0.61448
4760.14,0.61397
4754.36,0.61440
4748.57,0.61326
4742.78,0.61318
4737,0.61300
4731.21,0.61230
4725.43,0.61321
4719.64,0.61257
4713.85,0.61243
4708.07,0.61232
4702.28,0.61138
4696.49,0.61183
4690.71,0.61020
4684.92,0.60947
4679.14,0.60752
4673.35,0.60434
4667.56,0.60329
4661.78,0.60428
4655.99,0.60506
4650.2,0.60589
4644.42,0.60451
4638.63,0.60364
4632.85,0.60139
4627.06,0.59950
4621.27,0.59878
4615.49,0.59906
4609.7,0.60031
4603.92,0.60340
4598.13,0.60735
4592.34,0.60992
4586.56,0.61142
4580.77,0.61181
4574.98,0.60967
4569.2,0.60949
4563.41,0.61100
4557.63,0.61055
4551.84,0.61179
4546.05,0.61117
4540.27,0.60737
4534.48,0.60071
4528.69,0.59299
4522.91,0.59902
4517.12,0.61108
4511.34,0.61835
4505.55,0.62049
4499.76,0.62207
4493.98,0.62102
4488.19,0.61904
4482.4,0.61625
4476.62,0.61376
4470.83,0.61008
4465.05,0.60472
4459.26,0.59968
4453.47,0.59341
4447.69,0.58864
4441.9,0.58259
4436.11,0.57779
4430.33,0.57238
4424.54,0.56590
4418.76,0.56059
4412.97,0.55580
4407.18,0.55153
4401.4,0.54932
4395.61,0.54752
4389.82,0.54628
4384.04,0.54433
4378.25,0.54247
4372.47,0.54266
4366.68,0.54127
4360.89,0.53955
4355.11,0.53650
4349.32,0.53289
4343.53,0.53288
4337.75,0.53109
4331.96,0.53031
4326.18,0.53021
4320.39,0.53005
4314.6,0.52915
4308.82,0.52804
4303.03,0.52581
4297.24,0.52312
4291.46,0.52153
4285.67,0.51923
4279.89,0.51793
4274.1,0.51687
4268.31,0.51625
4262.53,0.51442
4256.74,0.51473
4250.95,0.51592
4245.17,0.51815
4239.38,0.52011
4233.6,0.52244
4227.81,0.52367
4222.02,0.52433
4216.24,0.52435
4210.45,0.52356
4204.66,0.52461
4198.88,0.52336
4193.09,0.52348
4187.31,0.52405
4181.52,0.52496
4175.73,0.52625
4169.95,0.52762
4164.16,0.52848
4158.37,0.52967
4152.59,0.52850
4146.8,0.52836
4141.02,0.52606
4135.23,0.52331
4129.44,0.51989
4123.66,0.51572
4117.87,0.51325
4112.09,0.50847
4106.3,0.50378
4100.51,0.50006
4094.73,0.49573
4088.94,0.49132
4083.15,0.48664
4077.37,0.48189
4071.58,0.47661
4065.8,0.47080
4060.01,0.46703
4054.22,0.46341
4048.44,0.46035
4042.65,0.45673
4036.86,0.45465
4031.08,0.45342
4025.29,0.45413
4019.51,0.45410
4013.72,0.45481
4007.93,0.45477
4002.15,0.45472
3996.36,0.45554
3990.57,0.45590
3984.79,0.45658
3979,0.45595
3973.22,0.45651
3967.43,0.45685
3961.64,0.45661
3955.86,0.45718
3950.07,0.45702
3944.28,0.45716
3938.5,0.45802
3932.71,0.45996
3926.93,0.46275
3921.14,0.46655
3915.35,0.46952
3909.57,0.47238
3903.78,0.47375
3897.99,0.47452
3892.21,0.47609
3886.42,0.47647
3880.64,0.47691
3874.85,0.47809
3869.06,0.47789
3863.28,0.47869
3857.49,0.48035
3851.7,0.48001
3845.92,0.48060
3840.13,0.48051
3834.35,0.48027
3828.56,0.48016
3822.77,0.47961
3816.99,0.47927
3811.2,0.47774
3805.41,0.47593
3799.63,0.47283
3793.84,0.47069
3788.06,0.46735
3782.27,0.46357
3776.48,0.45969
3770.7,0.45465
3764.91,0.44902
3759.12,0.44187
3753.34,0.43314
3747.55,0.42132
3741.77,0.40651
3735.98,0.38971
3730.19,0.36470
3724.41,0.33300
3718.62,0.28751
3712.83,0.23246
3707.05,0.17787
3701.26,0.12882
3695.48,0.09813
3689.69,0.09604
3683.9,0.10987
3678.12,0.11795
3672.33,0.11152
3666.54,0.11065
3660.76,0.11199
3654.97,0.10133
3649.19,0.10117
3643.4,0.11049
3637.61,0.11546
3631.83,0.11205
3626.04,0.09668
3620.25,0.08306
3614.47,0.10542
3608.68,0.12005
3602.9,0.12478
3597.11,0.12610
3591.32,0.12503
3585.54,0.12409
3579.75,0.12282
3573.97,0.12194
3568.18,0.12071
3562.39,0.12004
3556.61,0.11957
3550.82,0.11970
3545.03,0.11909
3539.25,0.11799
3533.46,0.11828
3527.68,0.11747
3521.89,0.11644
3516.1,0.11567
3510.32,0.11441
3504.53,0.11360
3498.74,0.11252
3492.96,0.11187
3487.17,0.10926
3481.39,0.10718
3475.6,0.10690
3469.81,0.10711
3464.03,0.10558
3458.24,0.10482
3452.45,0.10370
3446.67,0.10226
3440.88,0.10149
3435.1,0.10134
3429.31,0.10136
3423.52,0.10115
3417.74,0.10088
3411.95,0.10215
3406.16,0.10164
3400.38,0.10284
3394.59,0.10265
3388.81,0.10294
3383.02,0.10366
3377.23,0.10387
3371.45,0.10445
3365.66,0.10564
3359.87,0.10650
3354.09,0.10740
3348.3,0.10779
3342.52,0.10829
3336.73,0.10851
3330.94,0.10949
3325.16,0.11134
3319.37,0.11137
3313.58,0.11249
3307.8,0.11364
3302.01,0.11461
3296.23,0.11565
3290.44,0.11576
3284.65,0.11788
3278.87,0.11885
3273.08,0.12047
3267.29,0.12117
3261.51,0.12386
3255.72,0.12540
3249.94,0.12600
3244.15,0.12718
3238.36,0.12870
3232.58,0.13005
3226.79,0.13134
3221,0.13262
3215.22,0.13420
3209.43,0.13576
3203.65,0.13741
3197.86,0.13913
3192.07,0.14059
3186.29,0.14261
3180.5,0.14462
3174.71,0.14523
3168.93,0.14770
3163.14,0.14884
3157.36,0.15092
3151.57,0.15295
3145.78,0.15567
3140,0.15674
3134.21,0.15806
3128.42,0.15984
3122.64,0.16142
3116.85,0.16265
3111.07,0.16240
3105.28,0.16190
3099.49,0.16380
3093.71,0.16373
3087.92,0.16006
3082.14,0.15884
3076.35,0.16316
3070.56,0.16199
3064.78,0.15644
3058.99,0.15560
3053.2,0.16298
3047.42,0.16730
3041.63,0.16628
3035.85,0.15658
3030.06,0.14154
3024.27,0.14277
3018.49,0.15727
3012.7,0.16231
3006.91,0.15724
3001.13,0.14959
2995.34,0.14070
2989.56,0.12544
2983.77,0.11361
2977.98,0.10533
2972.2,0.09624
2966.41,0.08636
2960.62,0.07945
2954.84,0.07978
2949.05,0.08313
2943.27,0.08389
2937.48,0.08150
2931.69,0.07923
2925.91,0.08102
2920.12,0.08473
2914.33,0.08980
2908.55,0.09529
2902.76,0.09932
2896.98,0.10204
2891.19,0.10351
2885.4,0.10166
2879.62,0.09398
2873.83,0.08892
2868.04,0.09266
2862.26,0.09894
2856.47,0.10470
2850.69,0.11138
2844.9,0.12486
2839.11,0.14384
2833.33,0.16133
2827.54,0.17571
2821.75,0.18572
2815.97,0.19347
2810.18,0.19975
2804.4,0.20533
2798.61,0.20917
2792.82,0.21435
2787.04,0.21822
2781.25,0.22167
2775.46,0.22502
2769.68,0.22702
2763.89,0.22907
2758.11,0.23094
2752.32,0.23154
2746.53,0.23188
2740.75,0.23216
2734.96,0.23262
2729.17,0.23416
2723.39,0.23635
2717.6,0.23787
2711.82,0.23944
2706.03,0.24185
2700.24,0.24425
2694.46,0.24629
2688.67,0.24825
2682.88,0.24985
2677.1,0.25118
2671.31,0.25142
2665.53,0.25201
2659.74,0.25216
2653.95,0.25231
2648.17,0.25159
2642.38,0.24899
2636.59,0.24385
2630.81,0.23497
2625.02,0.22622
2619.24,0.21895
2613.45,0.21020
2607.66,0.20025
2601.88,0.19327
2596.09,0.18889
2590.3,0.18620
2584.52,0.18424
2578.73,0.18339
2572.95,0.18193
2567.16,0.17996
2561.37,0.17722
2555.59,0.17302
2549.8,0.16737
2544.02,0.16186
2538.23,0.15139
2532.44,0.12970
2526.66,0.11088
2520.87,0.10101
2515.08,0.09729
2509.3,0.09989
2503.51,0.11406
2497.73,0.13931
2491.94,0.16830
2486.15,0.19438
2480.37,0.21637
2474.58,0.23729
2468.79,0.25410
2463.01,0.26484
2457.22,0.27157
2451.44,0.27778
2445.65,0.28210
2439.86,0.28566
2434.08,0.28875
2428.29,0.29213
2422.5,0.29478
2416.72,0.29757
2410.93,0.30023
2405.15,0.30240
2399.36,0.30402
2393.57,0.30549
2387.79,0.30728
2382,0.30846
2376.21,0.30990
2370.43,0.31092
2364.64,0.31164
2358.86,0.31173
2353.07,0.31207
2347.28,0.31136
2341.5,0.31067
2335.71,0.31072
2329.92,0.31233
2324.14,0.31214
2318.35,0.31143
2312.57,0.31070
2306.78,0.31114
2300.99,0.31073
2295.21,0.31061
2289.42,0.31071
2283.63,0.31000
2277.85,0.30853
2272.06,0.30718
2266.28,0.30523
2260.49,0.30255
2254.7,0.30022
2248.92,0.29804
2243.13,0.29633
2237.34,0.29444
2231.56,0.29118
2225.77,0.28852
2219.99,0.28742
2214.2,0.28765
2208.41,0.28755
2202.63,0.28643
2196.84,0.28446
2191.05,0.28162
2185.27,0.27822
2179.48,0.27467
2173.7,0.27092
2167.91,0.26717
2162.12,0.26289
2156.34,0.25793
2150.55,0.25171
2144.76,0.24695
2138.98,0.24496
2133.19,0.24593
2127.41,0.24943
2121.62,0.25396
2115.83,0.25786
2110.05,0.25999
2104.26,0.26105
2098.47,0.26154
2092.69,0.26197
2086.9,0.26158
2081.12,0.26047
2075.33,0.25844
2069.54,0.25582
2063.76,0.25413
2057.97,0.25212
2052.19,0.25029
2046.4,0.24905
2040.61,0.24715
2034.83,0.24545
2029.04,0.24460
2023.25,0.24456
2017.47,0.24413
2011.68,0.24202
2005.9,0.24000
2000.11,0.23877
1994.32,0.23776
1988.54,0.23693
1982.75,0.23689
1976.96,0.23522
1971.18,0.23378
1965.39,0.23098
1959.61,0.22770
1953.82,0.22867
1948.03,0.22796
1942.25,0.22858
1936.46,0.23087
1930.67,0.23344
1924.89,0.23467
1919.1,0.23399
1913.32,0.23087
1907.53,0.22625
1901.74,0.22047
1895.96,0.21418
1890.17,0.20854
1884.38,0.20392
1878.6,0.20061
1872.81,0.19751
1867.03,0.19645
1861.24,0.19875
1855.45,0.20182
1849.67,0.20236
1843.88,0.20042
1838.09,0.19519
1832.31,0.18573
1826.52,0.17358
1820.74,0.16226
1814.95,0.15069
1809.16,0.13099
1803.38,0.09014
1797.59,0.05915
1791.8,0.06407
1786.02,0.09806
1780.23,0.11839
1774.45,0.12077
1768.66,0.11194
1762.87,0.09795
1757.09,0.08068
1751.3,0.06361
1745.51,0.04916
1739.73,0.03982
1733.94,0.03663
1728.16,0.03999
1722.37,0.04787
1716.58,0.06066
1710.8,0.07014
1705.01,0.07443
1699.22,0.07682
1693.44,0.07611
1687.65,0.07412
1681.87,0.07106
1676.08,0.06840
1670.29,0.06647
1664.51,0.06508
1658.72,0.06410
1652.93,0.06410
1647.15,0.06364
1641.36,0.06238
1635.58,0.06153
1629.79,0.06034
1624,0.05874
1618.22,0.05778
1612.43,0.05672
1606.64,0.05591
1600.86,0.05593
1595.07,0.05841
1589.29,0.06031
1583.5,0.06404
1577.71,0.07151
1571.93,0.08055
1566.14,0.08781
1560.35,0.09449
1554.57,0.10216
1548.78,0.10453
1543,0.10378
1537.21,0.10139
1531.42,0.09995
1525.64,0.09911
1519.85,0.09687
1514.07,0.09499
1508.28,0.09386
1502.49,0.09320
1496.71,0.09289
1490.92,0.09279
1485.13,0.09311
1479.35,0.09333
1473.56,0.09393
1467.78,0.09412
1461.99,0.09527
1456.2,0.09585
1450.42,0.09624
1444.63,0.09680
1438.84,0.09832
1433.06,0.10034
1427.27,0.10211
1421.49,0.10461
1415.7,0.10615
1409.91,0.10649
1404.13,0.10121
1398.34,0.09596
1392.55,0.09381
1386.77,0.09231
1380.98,0.09217
1375.2,0.09286
1369.41,0.09615
1363.62,0.10078
1357.84,0.10600
1352.05,0.10983
1346.26,0.11340
1340.48,0.11633
1334.69,0.11835
1328.91,0.11883
1323.12,0.11910
1317.33,0.12020
1311.55,0.12143
1305.76,0.12426
1299.97,0.12684
1294.19,0.12756
1288.4,0.12532
1282.62,0.12063
1276.83,0.11584
1271.04,0.11108
1265.26,0.10684
1259.47,0.10426
1253.68,0.10196
1247.9,0.09904
1242.11,0.09710
1236.33,0.09770
1230.54,0.10016
1224.75,0.10242
1218.97,0.10294
1213.18,0.10164
1207.39,0.09899
1201.61,0.09519
1195.82,0.09168
1190.04,0.08797
1184.25,0.08372
1178.46,0.07959
1172.68,0.07674
1166.89,0.07446
1161.1,0.07201
1155.32,0.07470
1149.53,0.07898
1143.75,0.08311
1137.96,0.08524
1132.17,0.08524
1126.39,0.08289
1120.6,0.07778
1114.81,0.07330
1109.03,0.07369
1103.24,0.07577
1097.46,0.07825
1091.67,0.08075
1085.88,0.08237
1080.1,0.08477
1074.31,0.08533
1068.52,0.08256
1062.74,0.07992
1056.95,0.07813
1051.17,0.07768
1045.38,0.07760
1039.59,0.07842
1033.81,0.07918
1028.02,0.07681
1022.24,0.07467
1016.45,0.07452
1010.66,0.07556
1004.88,0.07556
999.09,0.07364
993.304,0.07172
987.518,0.06986
981.731,0.06900
975.945,0.06757
970.159,0.06622
964.373,0.06565
958.586,0.06433
952.8,0.06296
947.014,0.06130
941.228,0.06031
935.441,0.06053
929.655,0.05915
923.869,0.05761
918.083,0.05835
912.297,0.05884
906.51,0.06079
900.724,0.06184
894.938,0.06437
889.152,0.06753
883.365,0.06217
877.579,0.06649
871.793,0.06920
866.007,0.06749
860.22,0.06402
854.434,0.06084
848.648,0.05538
842.862,0.05585
837.075,0.05284
831.289,0.05147
825.503,0.04956
819.717,0.04615
813.931,0.04481
808.144,0.04386
802.358,0.04398
796.572,0.04441
790.786,0.04325
784.999,0.04314
779.213,0.04292
773.427,0.04161
767.641,0.04069
761.854,0.04016
756.068,0.03986
750.282,0.03975
744.496,0.03939
738.709,0.03962
732.923,0.03879
727.137,0.03853
721.351,0.03714
715.565,0.03823
709.778,0.04481
703.992,0.04370
698.206,0.04459
692.42,0.04615
686.633,0.04457
680.847,0.04450
675.061,0.04487
669.275,0.04704
663.488,0.04663
657.702,0.04557
651.916,0.04619
646.13,0.04622
640.343,0.04494
634.557,0.04446
628.771,0.04388
622.985,0.04282
617.198,0.04420
611.412,0.04449
605.626,0.04341
599.84,0.04363