File: 01_Data/Pine_Lap_Siding/FTIR/IS/Pine_Lap_Siding_IS_S_220916_R6.dpt
7497.03,0.82413
7491.25,0.82939
7485.46,0.83169
7479.67,0.82973
7473.89,0.82649
7468.1,0.81715
7462.32,0.82587
7456.53,0.82671
7450.74,0.82395
7444.96,0.81617
7439.17,0.82491
7433.38,0.81894
7427.6,0.81238
7421.81,0.81742
7416.03,0.82060
7410.24,0.81247
7404.45,0.81956
7398.67,0.80870
7392.88,0.80303
7387.09,0.80350
7381.31,0.81329
7375.52,0.80901
7369.74,0.80189
7363.95,0.79385
7358.16,0.79988
7352.38,0.79768
7346.59,0.79915
7340.8,0.79860
7335.02,0.80470
7329.23,0.79561
7323.45,0.80143
7317.66,0.79629
7311.87,0.79413
7306.09,0.79472
7300.3,0.80177
7294.51,0.79783
7288.73,0.79115
7282.94,0.79424
7277.16,0.78763
7271.37,0.78695
7265.58,0.78657
7259.8,0.79959
7254.01,0.79624
7248.22,0.78782
7242.44,0.79111
7236.65,0.78700
7230.87,0.78233
7225.08,0.78017
7219.29,0.79924
7213.51,0.78528
7207.72,0.77962
7201.93,0.78485
7196.15,0.76869
7190.36,0.77029
7184.58,0.77353
7178.79,0.76087
7173,0.76558
7167.22,0.76385
7161.43,0.76513
7155.65,0.76398
7149.86,0.76386
7144.07,0.76839
7138.29,0.77287
7132.5,0.76412
7126.71,0.76071
7120.93,0.75354
7115.14,0.75577
7109.36,0.75806
7103.57,0.75557
7097.78,0.75490
7092,0.75555
7086.21,0.74494
7080.42,0.74009
7074.64,0.73937
7068.85,0.72375
7063.07,0.72205
7057.28,0.73245
7051.49,0.74362
7045.71,0.74025
7039.92,0.74706
7034.13,0.74444
7028.35,0.73609
7022.56,0.73882
7016.78,0.73757
7010.99,0.73435
7005.2,0.73717
6999.42,0.73595
6993.63,0.73535
6987.84,0.73609
6982.06,0.73575
6976.27,0.72813
6970.49,0.73344
6964.7,0.73118
6958.91,0.73177
6953.13,0.72932
6947.34,0.72795
6941.55,0.72803
6935.77,0.72888
6929.98,0.73350
6924.2,0.73212
6918.41,0.72960
6912.62,0.73308
6906.84,0.73316
6901.05,0.72349
6895.26,0.72491
6889.48,0.72684
6883.69,0.72928
6877.91,0.72618
6872.12,0.73251
6866.33,0.72985
6860.55,0.72766
6854.76,0.73406
6848.97,0.72898
6843.19,0.72698
6837.4,0.73080
6831.62,0.72363
6825.83,0.73052
6820.04,0.72273
6814.26,0.72902
6808.47,0.73566
6802.68,0.73224
6796.9,0.73019
6791.11,0.72529
6785.33,0.72932
6779.54,0.73069
6773.75,0.72870
6767.97,0.73470
6762.18,0.73223
6756.39,0.72751
6750.61,0.72762
6744.82,0.72983
6739.04,0.73241
6733.25,0.73295
6727.46,0.73045
6721.68,0.73080
6715.89,0.73091
6710.1,0.73560
6704.32,0.73509
6698.53,0.73604
6692.75,0.73271
6686.96,0.73136
6681.17,0.73048
6675.39,0.73019
6669.6,0.73072
6663.82,0.73390
6658.03,0.73675
6652.24,0.73390
6646.46,0.73152
6640.67,0.73143
6634.88,0.72989
6629.1,0.73651
6623.31,0.73488
6617.53,0.73864
6611.74,0.73685
6605.95,0.73713
6600.17,0.73960
6594.38,0.73489
6588.59,0.73669
6582.81,0.73930
6577.02,0.74242
6571.24,0.73957
6565.45,0.73960
6559.66,0.73827
6553.88,0.73923
6548.09,0.73770
6542.3,0.73851
6536.52,0.73572
6530.73,0.73638
6524.95,0.73718
6519.16,0.73937
6513.37,0.73801
6507.59,0.73697
6501.8,0.73951
6496.01,0.73951
6490.23,0.73992
6484.44,0.73500
6478.66,0.74311
6472.87,0.73883
6467.08,0.73863
6461.3,0.73942
6455.51,0.73957
6449.72,0.74061
6443.94,0.74168
6438.15,0.73717
6432.37,0.74179
6426.58,0.74221
6420.79,0.74432
6415.01,0.73944
6409.22,0.73954
6403.43,0.74116
6397.65,0.73801
6391.86,0.74352
6386.08,0.74186
6380.29,0.73932
6374.5,0.74287
6368.72,0.74531
6362.93,0.73646
6357.14,0.73701
6351.36,0.73858
6345.57,0.74033
6339.79,0.74287
6334,0.74271
6328.21,0.73737
6322.43,0.73546
6316.64,0.74237
6310.85,0.74614
6305.07,0.74257
6299.28,0.74659
6293.5,0.73939
6287.71,0.74484
6281.92,0.74251
6276.14,0.74195
6270.35,0.74458
6264.56,0.74170
6258.78,0.74735
6252.99,0.74705
6247.21,0.74800
6241.42,0.74812
6235.63,0.74708
6229.85,0.74972
6224.06,0.74653
6218.27,0.75215
6212.49,0.75384
6206.7,0.74853
6200.92,0.75479
6195.13,0.75300
6189.34,0.75514
6183.56,0.75170
6177.77,0.75277
6171.98,0.75244
6166.2,0.75363
6160.41,0.75409
6154.63,0.75532
6148.84,0.75612
6143.05,0.75695
6137.27,0.75316
6131.48,0.75244
6125.7,0.75473
6119.91,0.75200
6114.12,0.75548
6108.34,0.75679
6102.55,0.75802
6096.76,0.75984
6090.98,0.75751
6085.19,0.75899
6079.41,0.75831
6073.62,0.75832
6067.83,0.76038
6062.05,0.76036
6056.26,0.75897
6050.47,0.75590
6044.69,0.75608
6038.9,0.75283
6033.12,0.75665
6027.33,0.75310
6021.54,0.74853
6015.76,0.74922
6009.97,0.74727
6004.18,0.74621
5998.4,0.74424
5992.61,0.74070
5986.83,0.74174
5981.04,0.74093
5975.25,0.73991
5969.47,0.73646
5963.68,0.73661
5957.89,0.73585
5952.11,0.73638
5946.32,0.73533
5940.54,0.73619
5934.75,0.73639
5928.96,0.73819
5923.18,0.73748
5917.39,0.73629
5911.6,0.73550
5905.82,0.73614
5900.03,0.73241
5894.25,0.73438
5888.46,0.73433
5882.67,0.73520
5876.89,0.73256
5871.1,0.73216
5865.31,0.73321
5859.53,0.73604
5853.74,0.73314
5847.96,0.73445
5842.17,0.73427
5836.38,0.73697
5830.6,0.73312
5824.81,0.73204
5819.02,0.73285
5813.24,0.73044
5807.45,0.73018
5801.67,0.72929
5795.88,0.73202
5790.09,0.73176
5784.31,0.73299
5778.52,0.73334
5772.73,0.73348
5766.95,0.73327
5761.16,0.73299
5755.38,0.73310
5749.59,0.73230
5743.8,0.73531
5738.02,0.73393
5732.23,0.73390
5726.44,0.73000
5720.66,0.73348
5714.87,0.73427
5709.09,0.73128
5703.3,0.73256
5697.51,0.73046
5691.73,0.73078
5685.94,0.73192
5680.15,0.73111
5674.37,0.73274
5668.58,0.73355
5662.8,0.73283
5657.01,0.73087
5651.22,0.73223
5645.44,0.73317
5639.65,0.73314
5633.87,0.73265
5628.08,0.73312
5622.29,0.73235
5616.51,0.73193
5610.72,0.73103
5604.93,0.73323
5599.15,0.73296
5593.36,0.73204
5587.58,0.73328
5581.79,0.73214
5576,0.73412
5570.22,0.73420
5564.43,0.73308
5558.64,0.73361
5552.86,0.73478
5547.07,0.73517
5541.29,0.73386
5535.5,0.73510
5529.71,0.73567
5523.93,0.73346
5518.14,0.73639
5512.35,0.73613
5506.57,0.73416
5500.78,0.73537
5495,0.73405
5489.21,0.73580
5483.42,0.73536
5477.64,0.73660
5471.85,0.73725
5466.06,0.73652
5460.28,0.73684
5454.49,0.73737
5448.71,0.73663
5442.92,0.73706
5437.13,0.73803
5431.35,0.73928
5425.56,0.74046
5419.77,0.74043
5413.99,0.73952
5408.2,0.74102
5402.42,0.73992
5396.63,0.74103
5390.84,0.74316
5385.06,0.74284
5379.27,0.74071
5373.48,0.74262
5367.7,0.74146
5361.91,0.74170
5356.13,0.74026
5350.34,0.73987
5344.55,0.73976
5338.77,0.73731
5332.98,0.73640
5327.19,0.73437
5321.41,0.73262
5315.62,0.73069
5309.84,0.72823
5304.05,0.72309
5298.26,0.71967
5292.48,0.71632
5286.69,0.71117
5280.9,0.70531
5275.12,0.69935
5269.33,0.69354
5263.55,0.68980
5257.76,0.68220
5251.97,0.67629
5246.19,0.67227
5240.4,0.66788
5234.61,0.66367
5228.83,0.66106
5223.04,0.65920
5217.26,0.65700
5211.47,0.65588
5205.68,0.65457
5199.9,0.65131
5194.11,0.65266
5188.32,0.65242
5182.54,0.65270
5176.75,0.65170
5170.97,0.65388
5165.18,0.65562
5159.39,0.65662
5153.61,0.65750
5147.82,0.65739
5142.03,0.65838
5136.25,0.65895
5130.46,0.66159
5124.68,0.66343
5118.89,0.66564
5113.1,0.66542
5107.32,0.66677
5101.53,0.66850
5095.75,0.66868
5089.96,0.67078
5084.17,0.67177
5078.39,0.67372
5072.6,0.67512
5066.81,0.67609
5061.03,0.67662
5055.24,0.67752
5049.46,0.67938
5043.67,0.67916
5037.88,0.67997
5032.1,0.68214
5026.31,0.68277
5020.52,0.68267
5014.74,0.68384
5008.95,0.68287
5003.17,0.68378
4997.38,0.68395
4991.59,0.68310
4985.81,0.68390
4980.02,0.68355
4974.23,0.68041
4968.45,0.68215
4962.66,0.68042
4956.88,0.67707
4951.09,0.67556
4945.3,0.67392
4939.52,0.67233
4933.73,0.66937
4927.94,0.66643
4922.16,0.66392
4916.37,0.66232
4910.59,0.65926
4904.8,0.65592
4899.01,0.65300
4893.23,0.65125
4887.44,0.64970
4881.65,0.64628
4875.87,0.64442
4870.08,0.64161
4864.3,0.63843
4858.51,0.63648
4852.72,0.63516
4846.94,0.63175
4841.15,0.63115
4835.36,0.62883
4829.58,0.62740
4823.79,0.62408
4818.01,0.62344
4812.22,0.62240
4806.43,0.62044
4800.65,0.61892
4794.86,0.61791
4789.07,0.61709
4783.29,0.61696
4777.5,0.61559
4771.72,0.61539
4765.93,0.61536
4760.14,0.61435
4754.36,0.61380
4748.57,0.61321
4742.78,0.61468
4737,0.61200
4731.21,0.61210
4725.43,0.61170
4719.64,0.61152
4713.85,0.61187
4708.07,0.61151
4702.28,0.61182
4696.49,0.61171
4690.71,0.60995
4684.92,0.60923
4679.14,0.60658
4673.35,0.60487
4667.56,0.60332
4661.78,0.60453
4655.99,0.60462
4650.2,0.60397
4644.42,0.60373
4638.63,0.60330
4632.85,0.60056
4627.06,0.59895
4621.27,0.60003
4615.49,0.59969
4609.7,0.60021
4603.92,0.60335
4598.13,0.60720
4592.34,0.61000
4586.56,0.61112
4580.77,0.61057
4574.98,0.60953
4569.2,0.61012
4563.41,0.61099
4557.63,0.60968
4551.84,0.61062
4546.05,0.61091
4540.27,0.60722
4534.48,0.59987
4528.69,0.59304
4522.91,0.59913
4517.12,0.61225
4511.34,0.61751
4505.55,0.62043
4499.76,0.62113
4493.98,0.62131
4488.19,0.62063
4482.4,0.61737
4476.62,0.61315
4470.83,0.60979
4465.05,0.60493
4459.26,0.59879
4453.47,0.59386
4447.69,0.58776
4441.9,0.58214
4436.11,0.57659
4430.33,0.57134
4424.54,0.56685
4418.76,0.56148
4412.97,0.55576
4407.18,0.55162
4401.4,0.54921
4395.61,0.54702
4389.82,0.54521
4384.04,0.54414
4378.25,0.54282
4372.47,0.54161
4366.68,0.54069
4360.89,0.53881
4355.11,0.53509
4349.32,0.53328
4343.53,0.53116
4337.75,0.53067
4331.96,0.52962
4326.18,0.53003
4320.39,0.53014
4314.6,0.52876
4308.82,0.52669
4303.03,0.52532
4297.24,0.52278
4291.46,0.52034
4285.67,0.51865
4279.89,0.51782
4274.1,0.51611
4268.31,0.51555
4262.53,0.51512
4256.74,0.51434
4250.95,0.51626
4245.17,0.51895
4239.38,0.52045
4233.6,0.52244
4227.81,0.52346
4222.02,0.52345
4216.24,0.52422
4210.45,0.52365
4204.66,0.52341
4198.88,0.52284
4193.09,0.52258
4187.31,0.52385
4181.52,0.52489
4175.73,0.52645
4169.95,0.52762
4164.16,0.52873
4158.37,0.52967
4152.59,0.52862
4146.8,0.52772
4141.02,0.52613
4135.23,0.52260
4129.44,0.52013
4123.66,0.51696
4117.87,0.51356
4112.09,0.50850
4106.3,0.50467
4100.51,0.50047
4094.73,0.49590
4088.94,0.49127
4083.15,0.48667
4077.37,0.48203
4071.58,0.47683
4065.8,0.47137
4060.01,0.46748
4054.22,0.46361
4048.44,0.46032
4042.65,0.45686
4036.86,0.45485
4031.08,0.45371
4025.29,0.45369
4019.51,0.45435
4013.72,0.45501
4007.93,0.45507
4002.15,0.45406
3996.36,0.45558
3990.57,0.45557
3984.79,0.45583
3979,0.45532
3973.22,0.45637
3967.43,0.45708
3961.64,0.45712
3955.86,0.45639
3950.07,0.45611
3944.28,0.45646
3938.5,0.45795
3932.71,0.46014
3926.93,0.46274
3921.14,0.46689
3915.35,0.46956
3909.57,0.47262
3903.78,0.47415
3897.99,0.47517
3892.21,0.47590
3886.42,0.47730
3880.64,0.47699
3874.85,0.47820
3869.06,0.47840
3863.28,0.47944
3857.49,0.48059
3851.7,0.48069
3845.92,0.48049
3840.13,0.48085
3834.35,0.48065
3828.56,0.48012
3822.77,0.47965
3816.99,0.47940
3811.2,0.47803
3805.41,0.47625
3799.63,0.47406
3793.84,0.47061
3788.06,0.46799
3782.27,0.46421
3776.48,0.46000
3770.7,0.45596
3764.91,0.45031
3759.12,0.44250
3753.34,0.43390
3747.55,0.42286
3741.77,0.40721
3735.98,0.39100
3730.19,0.36584
3724.41,0.33411
3718.62,0.28797
3712.83,0.23254
3707.05,0.17747
3701.26,0.12870
3695.48,0.09854
3689.69,0.09721
3683.9,0.10972
3678.12,0.11720
3672.33,0.11136
3666.54,0.11071
3660.76,0.11187
3654.97,0.10253
3649.19,0.10144
3643.4,0.11039
3637.61,0.11600
3631.83,0.11278
3626.04,0.09642
3620.25,0.08367
3614.47,0.10575
3608.68,0.12037
3602.9,0.12566
3597.11,0.12624
3591.32,0.12552
3585.54,0.12448
3579.75,0.12364
3573.97,0.12240
3568.18,0.12154
3562.39,0.12046
3556.61,0.11989
3550.82,0.11957
3545.03,0.12004
3539.25,0.11907
3533.46,0.11907
3527.68,0.11813
3521.89,0.11646
3516.1,0.11519
3510.32,0.11442
3504.53,0.11386
3498.74,0.11273
3492.96,0.11123
3487.17,0.10936
3481.39,0.10785
3475.6,0.10778
3469.81,0.10694
3464.03,0.10527
3458.24,0.10472
3452.45,0.10390
3446.67,0.10288
3440.88,0.10264
3435.1,0.10231
3429.31,0.10216
3423.52,0.10109
3417.74,0.10093
3411.95,0.10170
3406.16,0.10263
3400.38,0.10285
3394.59,0.10275
3388.81,0.10346
3383.02,0.10399
3377.23,0.10511
3371.45,0.10553
3365.66,0.10588
3359.87,0.10658
3354.09,0.10746
3348.3,0.10823
3342.52,0.10869
3336.73,0.10941
3330.94,0.11035
3325.16,0.11137
3319.37,0.11215
3313.58,0.11391
3307.8,0.11462
3302.01,0.11502
3296.23,0.11697
3290.44,0.11750
3284.65,0.11829
3278.87,0.11965
3273.08,0.12133
3267.29,0.12287
3261.51,0.12428
3255.72,0.12571
3249.94,0.12685
3244.15,0.12740
3238.36,0.12883
3232.58,0.13044
3226.79,0.13255
3221,0.13371
3215.22,0.13469
3209.43,0.13643
3203.65,0.13765
3197.86,0.13978
3192.07,0.14149
3186.29,0.14318
3180.5,0.14455
3174.71,0.14669
3168.93,0.14844
3163.14,0.15041
3157.36,0.15229
3151.57,0.15428
3145.78,0.15569
3140,0.15791
3134.21,0.15913
3128.42,0.16094
3122.64,0.16230
3116.85,0.16330
3111.07,0.16340
3105.28,0.16311
3099.49,0.16491
3093.71,0.16499
3087.92,0.16029
3082.14,0.15840
3076.35,0.16381
3070.56,0.16274
3064.78,0.15723
3058.99,0.15658
3053.2,0.16338
3047.42,0.16796
3041.63,0.16632
3035.85,0.15731
3030.06,0.14225
3024.27,0.14366
3018.49,0.15783
3012.7,0.16266
3006.91,0.15764
3001.13,0.15028
2995.34,0.14068
2989.56,0.12518
2983.77,0.11353
2977.98,0.10587
2972.2,0.09588
2966.41,0.08577
2960.62,0.07944
2954.84,0.07961
2949.05,0.08328
2943.27,0.08378
2937.48,0.08137
2931.69,0.07979
2925.91,0.08074
2920.12,0.08458
2914.33,0.08929
2908.55,0.09469
2902.76,0.09892
2896.98,0.10225
2891.19,0.10366
2885.4,0.10200
2879.62,0.09419
2873.83,0.08885
2868.04,0.09257
2862.26,0.09853
2856.47,0.10418
2850.69,0.11122
2844.9,0.12478
2839.11,0.14395
2833.33,0.16192
2827.54,0.17558
2821.75,0.18595
2815.97,0.19365
2810.18,0.20043
2804.4,0.20513
2798.61,0.20992
2792.82,0.21475
2787.04,0.21857
2781.25,0.22168
2775.46,0.22483
2769.68,0.22726
2763.89,0.22937
2758.11,0.23028
2752.32,0.23163
2746.53,0.23196
2740.75,0.23259
2734.96,0.23264
2729.17,0.23450
2723.39,0.23686
2717.6,0.23805
2711.82,0.24000
2706.03,0.24219
2700.24,0.24417
2694.46,0.24631
2688.67,0.24814
2682.88,0.25018
2677.1,0.25118
2671.31,0.25150
2665.53,0.25196
2659.74,0.25215
2653.95,0.25253
2648.17,0.25199
2642.38,0.24928
2636.59,0.24350
2630.81,0.23488
2625.02,0.22661
2619.24,0.21860
2613.45,0.21001
2607.66,0.20021
2601.88,0.19301
2596.09,0.18894
2590.3,0.18640
2584.52,0.18412
2578.73,0.18326
2572.95,0.18190
2567.16,0.18047
2561.37,0.17704
2555.59,0.17284
2549.8,0.16759
2544.02,0.16177
2538.23,0.15121
2532.44,0.12913
2526.66,0.11105
2520.87,0.10067
2515.08,0.09718
2509.3,0.09923
2503.51,0.11427
2497.73,0.13913
2491.94,0.16846
2486.15,0.19417
2480.37,0.21647
2474.58,0.23776
2468.79,0.25385
2463.01,0.26486
2457.22,0.27166
2451.44,0.27753
2445.65,0.28238
2439.86,0.28588
2434.08,0.28873
2428.29,0.29254
2422.5,0.29570
2416.72,0.29834
2410.93,0.30069
2405.15,0.30253
2399.36,0.30440
2393.57,0.30581
2387.79,0.30740
2382,0.30910
2376.21,0.31015
2370.43,0.31119
2364.64,0.31171
2358.86,0.31201
2353.07,0.31269
2347.28,0.31247
2341.5,0.31115
2335.71,0.31181
2329.92,0.31267
2324.14,0.31313
2318.35,0.31233
2312.57,0.31164
2306.78,0.31136
2300.99,0.31146
2295.21,0.31136
2289.42,0.31104
2283.63,0.31111
2277.85,0.30986
2272.06,0.30799
2266.28,0.30595
2260.49,0.30369
2254.7,0.30142
2248.92,0.29944
2243.13,0.29761
2237.34,0.29525
2231.56,0.29237
2225.77,0.28950
2219.99,0.28863
2214.2,0.28901
2208.41,0.28864
2202.63,0.28766
2196.84,0.28575
2191.05,0.28301
2185.27,0.27953
2179.48,0.27622
2173.7,0.27240
2167.91,0.26855
2162.12,0.26426
2156.34,0.25876
2150.55,0.25300
2144.76,0.24800
2138.98,0.24635
2133.19,0.24709
2127.41,0.25065
2121.62,0.25517
2115.83,0.25897
2110.05,0.26127
2104.26,0.26208
2098.47,0.26295
2092.69,0.26336
2086.9,0.26301
2081.12,0.26154
2075.33,0.26001
2069.54,0.25802
2063.76,0.25564
2057.97,0.25344
2052.19,0.25177
2046.4,0.24976
2040.61,0.24794
2034.83,0.24623
2029.04,0.24564
2023.25,0.24549
2017.47,0.24507
2011.68,0.24324
2005.9,0.24115
2000.11,0.23961
1994.32,0.23894
1988.54,0.23832
1982.75,0.23750
1976.96,0.23622
1971.18,0.23458
1965.39,0.23193
1959.61,0.22866
1953.82,0.22975
1948.03,0.22935
1942.25,0.22938
1936.46,0.23211
1930.67,0.23493
1924.89,0.23562
1919.1,0.23499
1913.32,0.23195
1907.53,0.22657
1901.74,0.22094
1895.96,0.21513
1890.17,0.20905
1884.38,0.20442
1878.6,0.20102
1872.81,0.19814
1867.03,0.19731
1861.24,0.19950
1855.45,0.20229
1849.67,0.20360
1843.88,0.20173
1838.09,0.19590
1832.31,0.18682
1826.52,0.17429
1820.74,0.16265
1814.95,0.15091
1809.16,0.13141
1803.38,0.09028
1797.59,0.05869
1791.8,0.06449
1786.02,0.09835
1780.23,0.11845
1774.45,0.12047
1768.66,0.11174
1762.87,0.09748
1757.09,0.08050
1751.3,0.06360
1745.51,0.04849
1739.73,0.03961
1733.94,0.03693
1728.16,0.04003
1722.37,0.04812
1716.58,0.06091
1710.8,0.07015
1705.01,0.07489
1699.22,0.07709
1693.44,0.07617
1687.65,0.07439
1681.87,0.07169
1676.08,0.06959
1670.29,0.06680
1664.51,0.06525
1658.72,0.06443
1652.93,0.06452
1647.15,0.06338
1641.36,0.06262
1635.58,0.06169
1629.79,0.06016
1624,0.05891
1618.22,0.05790
1612.43,0.05683
1606.64,0.05604
1600.86,0.05585
1595.07,0.05843
1589.29,0.06000
1583.5,0.06406
1577.71,0.07156
1571.93,0.08055
1566.14,0.08812
1560.35,0.09502
1554.57,0.10204
1548.78,0.10449
1543,0.10335
1537.21,0.10164
1531.42,0.10000
1525.64,0.09895
1519.85,0.09685
1514.07,0.09493
1508.28,0.09355
1502.49,0.09354
1496.71,0.09287
1490.92,0.09286
1485.13,0.09356
1479.35,0.09352
1473.56,0.09411
1467.78,0.09441
1461.99,0.09468
1456.2,0.09554
1450.42,0.09615
1444.63,0.09673
1438.84,0.09801
1433.06,0.09980
1427.27,0.10242
1421.49,0.10437
1415.7,0.10619
1409.91,0.10634
1404.13,0.10075
1398.34,0.09621
1392.55,0.09315
1386.77,0.09141
1380.98,0.09194
1375.2,0.09302
1369.41,0.09558
1363.62,0.10022
1357.84,0.10558
1352.05,0.10965
1346.26,0.11278
1340.48,0.11603
1334.69,0.11830
1328.91,0.11863
1323.12,0.11915
1317.33,0.11967
1311.55,0.12175
1305.76,0.12391
1299.97,0.12671
1294.19,0.12776
1288.4,0.12516
1282.62,0.12066
1276.83,0.11613
1271.04,0.11122
1265.26,0.10650
1259.47,0.10422
1253.68,0.10191
1247.9,0.09916
1242.11,0.09767
1236.33,0.09798
1230.54,0.09978
1224.75,0.10208
1218.97,0.10292
1213.18,0.10204
1207.39,0.09921
1201.61,0.09505
1195.82,0.09151
1190.04,0.08800
1184.25,0.08360
1178.46,0.07982
1172.68,0.07680
1166.89,0.07407
1161.1,0.07225
1155.32,0.07504
1149.53,0.07971
1143.75,0.08271
1137.96,0.08522
1132.17,0.08510
1126.39,0.08254
1120.6,0.07750
1114.81,0.07285
1109.03,0.07424
1103.24,0.07623
1097.46,0.07852
1091.67,0.08077
1085.88,0.08229
1080.1,0.08437
1074.31,0.08539
1068.52,0.08331
1062.74,0.08017
1056.95,0.07751
1051.17,0.07667
1045.38,0.07718
1039.59,0.07826
1033.81,0.07944
1028.02,0.07658
1022.24,0.07479
1016.45,0.07471
1010.66,0.07552
1004.88,0.07569
999.09,0.07390
993.304,0.07200
987.518,0.06988
981.731,0.06873
975.945,0.06809
970.159,0.06612
964.373,0.06530
958.586,0.06447
952.8,0.06285
947.014,0.06081
941.228,0.05971
935.441,0.05976
929.655,0.05973
923.869,0.05839
918.083,0.05794
912.297,0.05877
906.51,0.05986
900.724,0.06176
894.938,0.06423
889.152,0.06771
883.365,0.06173
877.579,0.06665
871.793,0.06834
866.007,0.06731
860.22,0.06400
854.434,0.06058
848.648,0.05533
842.862,0.05634
837.075,0.05364
831.289,0.05153
825.503,0.04976
819.717,0.04757
813.931,0.04546
808.144,0.04319
802.358,0.04457
796.572,0.04492
790.786,0.04314
784.999,0.04249
779.213,0.04263
773.427,0.04141
767.641,0.04104
761.854,0.04133
756.068,0.04059
750.282,0.04027
744.496,0.03924
738.709,0.03913
732.923,0.03870
727.137,0.03786
721.351,0.03740
715.565,0.03858
709.778,0.04474
703.992,0.04272
698.206,0.04431
692.42,0.04545
686.633,0.04552
680.847,0.04599
675.061,0.04511
669.275,0.04505
663.488,0.04557
657.702,0.04662
651.916,0.04555
646.13,0.04656
640.343,0.04624
634.557,0.04609
628.771,0.04665
622.985,0.04410
617.198,0.04523
611.412,0.04326
605.626,0.04484
599.84,0.04863