File: 01_Data/Pine_Lap_Siding/FTIR/IS/Pine_Lap_Siding_IS_S_220916_R3.dpt
7497.03,0.83085
7491.25,0.83122
7485.46,0.83271
7479.67,0.82370
7473.89,0.83094
7468.1,0.82137
7462.32,0.82342
7456.53,0.82556
7450.74,0.82008
7444.96,0.81386
7439.17,0.81391
7433.38,0.82208
7427.6,0.80741
7421.81,0.81300
7416.03,0.80609
7410.24,0.80958
7404.45,0.81166
7398.67,0.81064
7392.88,0.80607
7387.09,0.80936
7381.31,0.81047
7375.52,0.81377
7369.74,0.80067
7363.95,0.80046
7358.16,0.80198
7352.38,0.81066
7346.59,0.79428
7340.8,0.80731
7335.02,0.80415
7329.23,0.79509
7323.45,0.79444
7317.66,0.79434
7311.87,0.79977
7306.09,0.79101
7300.3,0.80062
7294.51,0.79734
7288.73,0.78961
7282.94,0.79434
7277.16,0.79209
7271.37,0.78637
7265.58,0.79143
7259.8,0.79905
7254.01,0.78728
7248.22,0.78426
7242.44,0.78999
7236.65,0.79019
7230.87,0.78778
7225.08,0.79452
7219.29,0.78631
7213.51,0.78823
7207.72,0.78698
7201.93,0.77925
7196.15,0.77762
7190.36,0.77478
7184.58,0.76891
7178.79,0.76335
7173,0.76317
7167.22,0.76031
7161.43,0.76418
7155.65,0.76319
7149.86,0.76322
7144.07,0.76659
7138.29,0.76083
7132.5,0.76270
7126.71,0.75967
7120.93,0.75665
7115.14,0.75333
7109.36,0.75209
7103.57,0.75670
7097.78,0.74834
7092,0.74648
7086.21,0.74781
7080.42,0.73779
7074.64,0.73294
7068.85,0.72454
7063.07,0.72363
7057.28,0.73015
7051.49,0.73864
7045.71,0.74381
7039.92,0.73769
7034.13,0.73981
7028.35,0.73709
7022.56,0.73448
7016.78,0.73247
7010.99,0.74046
7005.2,0.73762
6999.42,0.73605
6993.63,0.72985
6987.84,0.72941
6982.06,0.73149
6976.27,0.73651
6970.49,0.72724
6964.7,0.72596
6958.91,0.73403
6953.13,0.72772
6947.34,0.72605
6941.55,0.72491
6935.77,0.72908
6929.98,0.73202
6924.2,0.73065
6918.41,0.72726
6912.62,0.73371
6906.84,0.72749
6901.05,0.72604
6895.26,0.72099
6889.48,0.73171
6883.69,0.72934
6877.91,0.73254
6872.12,0.73385
6866.33,0.73026
6860.55,0.73407
6854.76,0.73373
6848.97,0.73001
6843.19,0.72886
6837.4,0.72867
6831.62,0.73321
6825.83,0.72521
6820.04,0.72802
6814.26,0.73256
6808.47,0.73274
6802.68,0.72756
6796.9,0.72497
6791.11,0.72843
6785.33,0.72613
6779.54,0.72666
6773.75,0.72892
6767.97,0.73272
6762.18,0.73033
6756.39,0.72934
6750.61,0.73398
6744.82,0.72945
6739.04,0.72877
6733.25,0.72555
6727.46,0.73086
6721.68,0.72512
6715.89,0.73099
6710.1,0.72930
6704.32,0.72647
6698.53,0.73381
6692.75,0.73265
6686.96,0.72943
6681.17,0.73334
6675.39,0.72994
6669.6,0.73652
6663.82,0.73559
6658.03,0.72979
6652.24,0.73072
6646.46,0.72891
6640.67,0.73296
6634.88,0.73095
6629.1,0.73225
6623.31,0.73518
6617.53,0.73505
6611.74,0.73223
6605.95,0.73410
6600.17,0.73815
6594.38,0.73722
6588.59,0.73386
6582.81,0.73591
6577.02,0.73725
6571.24,0.73614
6565.45,0.73972
6559.66,0.73836
6553.88,0.73598
6548.09,0.73876
6542.3,0.73871
6536.52,0.73376
6530.73,0.73419
6524.95,0.73921
6519.16,0.73805
6513.37,0.73600
6507.59,0.73971
6501.8,0.73407
6496.01,0.73853
6490.23,0.73715
6484.44,0.74144
6478.66,0.74111
6472.87,0.73645
6467.08,0.73845
6461.3,0.73821
6455.51,0.74116
6449.72,0.73726
6443.94,0.73620
6438.15,0.73647
6432.37,0.73818
6426.58,0.73915
6420.79,0.73820
6415.01,0.73990
6409.22,0.73986
6403.43,0.73802
6397.65,0.73998
6391.86,0.74061
6386.08,0.74292
6380.29,0.74262
6374.5,0.73861
6368.72,0.73903
6362.93,0.74184
6357.14,0.74110
6351.36,0.73917
6345.57,0.74264
6339.79,0.74351
6334,0.73717
6328.21,0.74252
6322.43,0.74149
6316.64,0.74009
6310.85,0.74403
6305.07,0.74371
6299.28,0.74231
6293.5,0.74275
6287.71,0.74309
6281.92,0.74457
6276.14,0.74039
6270.35,0.74437
6264.56,0.74492
6258.78,0.74627
6252.99,0.74711
6247.21,0.74526
6241.42,0.74715
6235.63,0.74958
6229.85,0.74951
6224.06,0.75029
6218.27,0.74753
6212.49,0.74794
6206.7,0.75067
6200.92,0.74814
6195.13,0.74869
6189.34,0.75124
6183.56,0.75057
6177.77,0.75357
6171.98,0.74989
6166.2,0.75181
6160.41,0.75422
6154.63,0.75720
6148.84,0.75470
6143.05,0.75591
6137.27,0.75589
6131.48,0.75404
6125.7,0.75307
6119.91,0.75576
6114.12,0.75783
6108.34,0.75591
6102.55,0.75628
6096.76,0.75622
6090.98,0.75714
6085.19,0.75667
6079.41,0.75789
6073.62,0.75778
6067.83,0.75685
6062.05,0.75682
6056.26,0.75694
6050.47,0.75634
6044.69,0.75492
6038.9,0.75516
6033.12,0.75303
6027.33,0.75114
6021.54,0.74958
6015.76,0.74913
6009.97,0.74634
6004.18,0.74535
5998.4,0.74367
5992.61,0.74185
5986.83,0.73910
5981.04,0.73880
5975.25,0.73763
5969.47,0.73925
5963.68,0.73689
5957.89,0.73554
5952.11,0.73677
5946.32,0.73642
5940.54,0.73878
5934.75,0.73865
5928.96,0.73545
5923.18,0.73514
5917.39,0.73622
5911.6,0.73736
5905.82,0.73503
5900.03,0.73390
5894.25,0.73553
5888.46,0.73246
5882.67,0.73264
5876.89,0.73107
5871.1,0.73356
5865.31,0.73351
5859.53,0.73412
5853.74,0.73258
5847.96,0.73223
5842.17,0.73298
5836.38,0.73381
5830.6,0.72846
5824.81,0.73139
5819.02,0.73073
5813.24,0.72968
5807.45,0.72899
5801.67,0.73100
5795.88,0.73132
5790.09,0.73003
5784.31,0.73376
5778.52,0.73212
5772.73,0.73266
5766.95,0.73314
5761.16,0.73344
5755.38,0.73315
5749.59,0.73475
5743.8,0.73412
5738.02,0.73238
5732.23,0.73246
5726.44,0.73105
5720.66,0.73221
5714.87,0.73265
5709.09,0.73170
5703.3,0.73217
5697.51,0.73288
5691.73,0.73202
5685.94,0.73259
5680.15,0.73036
5674.37,0.73026
5668.58,0.73156
5662.8,0.73268
5657.01,0.73164
5651.22,0.73146
5645.44,0.73380
5639.65,0.73201
5633.87,0.73187
5628.08,0.73161
5622.29,0.73155
5616.51,0.73126
5610.72,0.73383
5604.93,0.73294
5599.15,0.73033
5593.36,0.73266
5587.58,0.73142
5581.79,0.73349
5576,0.73206
5570.22,0.73275
5564.43,0.73203
5558.64,0.73318
5552.86,0.73360
5547.07,0.73318
5541.29,0.73378
5535.5,0.73412
5529.71,0.73242
5523.93,0.73334
5518.14,0.73394
5512.35,0.73370
5506.57,0.73169
5500.78,0.73459
5495,0.73520
5489.21,0.73555
5483.42,0.73561
5477.64,0.73508
5471.85,0.73515
5466.06,0.73568
5460.28,0.73350
5454.49,0.73568
5448.71,0.73643
5442.92,0.73625
5437.13,0.73772
5431.35,0.73800
5425.56,0.73828
5419.77,0.73841
5413.99,0.73857
5408.2,0.73932
5402.42,0.74082
5396.63,0.74089
5390.84,0.74165
5385.06,0.73883
5379.27,0.73887
5373.48,0.74032
5367.7,0.74009
5361.91,0.73986
5356.13,0.73903
5350.34,0.73946
5344.55,0.73723
5338.77,0.73736
5332.98,0.73463
5327.19,0.73107
5321.41,0.72975
5315.62,0.72930
5309.84,0.72524
5304.05,0.72102
5298.26,0.71670
5292.48,0.71314
5286.69,0.70709
5280.9,0.70201
5275.12,0.69710
5269.33,0.68859
5263.55,0.68394
5257.76,0.67805
5251.97,0.67203
5246.19,0.66742
5240.4,0.66291
5234.61,0.65882
5228.83,0.65474
5223.04,0.65137
5217.26,0.65108
5211.47,0.64855
5205.68,0.64782
5199.9,0.64689
5194.11,0.64644
5188.32,0.64788
5182.54,0.64786
5176.75,0.64741
5170.97,0.64794
5165.18,0.65035
5159.39,0.64927
5153.61,0.64908
5147.82,0.65082
5142.03,0.65309
5136.25,0.65366
5130.46,0.65651
5124.68,0.65773
5118.89,0.66105
5113.1,0.66091
5107.32,0.66272
5101.53,0.66416
5095.75,0.66423
5089.96,0.66456
5084.17,0.66626
5078.39,0.66776
5072.6,0.67022
5066.81,0.66945
5061.03,0.67128
5055.24,0.67284
5049.46,0.67426
5043.67,0.67613
5037.88,0.67648
5032.1,0.67519
5026.31,0.67769
5020.52,0.67932
5014.74,0.67759
5008.95,0.67959
5003.17,0.68130
4997.38,0.68077
4991.59,0.68083
4985.81,0.68038
4980.02,0.68030
4974.23,0.67899
4968.45,0.67844
4962.66,0.67639
4956.88,0.67578
4951.09,0.67334
4945.3,0.67161
4939.52,0.67041
4933.73,0.66800
4927.94,0.66428
4922.16,0.66396
4916.37,0.66207
4910.59,0.65862
4904.8,0.65575
4899.01,0.65288
4893.23,0.64973
4887.44,0.64699
4881.65,0.64576
4875.87,0.64284
4870.08,0.63993
4864.3,0.63863
4858.51,0.63607
4852.72,0.63446
4846.94,0.63114
4841.15,0.63016
4835.36,0.62886
4829.58,0.62565
4823.79,0.62459
4818.01,0.62257
4812.22,0.62238
4806.43,0.61977
4800.65,0.61829
4794.86,0.61802
4789.07,0.61756
4783.29,0.61639
4777.5,0.61593
4771.72,0.61560
4765.93,0.61471
4760.14,0.61412
4754.36,0.61261
4748.57,0.61193
4742.78,0.61398
4737,0.61283
4731.21,0.61254
4725.43,0.61289
4719.64,0.61243
4713.85,0.61160
4708.07,0.61047
4702.28,0.61069
4696.49,0.60987
4690.71,0.60922
4684.92,0.60821
4679.14,0.60705
4673.35,0.60439
4667.56,0.60295
4661.78,0.60259
4655.99,0.60336
4650.2,0.60459
4644.42,0.60283
4638.63,0.60217
4632.85,0.60061
4627.06,0.59887
4621.27,0.59812
4615.49,0.59841
4609.7,0.60040
4603.92,0.60269
4598.13,0.60634
4592.34,0.60896
4586.56,0.60984
4580.77,0.61020
4574.98,0.60836
4569.2,0.60885
4563.41,0.60903
4557.63,0.60996
4551.84,0.61027
4546.05,0.61021
4540.27,0.60621
4534.48,0.59970
4528.69,0.59150
4522.91,0.59805
4517.12,0.61017
4511.34,0.61658
4505.55,0.61940
4499.76,0.62053
4493.98,0.62046
4488.19,0.61817
4482.4,0.61620
4476.62,0.61334
4470.83,0.60882
4465.05,0.60359
4459.26,0.59847
4453.47,0.59347
4447.69,0.58766
4441.9,0.58156
4436.11,0.57685
4430.33,0.57133
4424.54,0.56523
4418.76,0.56003
4412.97,0.55465
4407.18,0.55181
4401.4,0.54820
4395.61,0.54602
4389.82,0.54426
4384.04,0.54357
4378.25,0.54162
4372.47,0.54126
4366.68,0.53975
4360.89,0.53811
4355.11,0.53576
4349.32,0.53378
4343.53,0.53208
4337.75,0.52983
4331.96,0.52864
4326.18,0.52989
4320.39,0.52933
4314.6,0.52924
4308.82,0.52715
4303.03,0.52469
4297.24,0.52292
4291.46,0.52066
4285.67,0.51857
4279.89,0.51719
4274.1,0.51577
4268.31,0.51398
4262.53,0.51422
4256.74,0.51468
4250.95,0.51625
4245.17,0.51683
4239.38,0.51964
4233.6,0.52123
4227.81,0.52250
4222.02,0.52358
4216.24,0.52310
4210.45,0.52262
4204.66,0.52253
4198.88,0.52247
4193.09,0.52187
4187.31,0.52296
4181.52,0.52463
4175.73,0.52532
4169.95,0.52768
4164.16,0.52780
4158.37,0.52840
4152.59,0.52721
4146.8,0.52617
4141.02,0.52543
4135.23,0.52244
4129.44,0.51897
4123.66,0.51515
4117.87,0.51171
4112.09,0.50680
4106.3,0.50290
4100.51,0.49922
4094.73,0.49529
4088.94,0.49069
4083.15,0.48623
4077.37,0.48120
4071.58,0.47579
4065.8,0.47022
4060.01,0.46562
4054.22,0.46196
4048.44,0.45945
4042.65,0.45606
4036.86,0.45379
4031.08,0.45312
4025.29,0.45326
4019.51,0.45311
4013.72,0.45360
4007.93,0.45418
4002.15,0.45434
3996.36,0.45460
3990.57,0.45483
3984.79,0.45579
3979,0.45568
3973.22,0.45593
3967.43,0.45557
3961.64,0.45581
3955.86,0.45562
3950.07,0.45528
3944.28,0.45574
3938.5,0.45630
3932.71,0.45943
3926.93,0.46113
3921.14,0.46546
3915.35,0.46927
3909.57,0.47132
3903.78,0.47291
3897.99,0.47399
3892.21,0.47502
3886.42,0.47557
3880.64,0.47605
3874.85,0.47630
3869.06,0.47698
3863.28,0.47858
3857.49,0.47856
3851.7,0.47865
3845.92,0.47868
3840.13,0.47943
3834.35,0.47993
3828.56,0.47853
3822.77,0.47873
3816.99,0.47665
3811.2,0.47620
3805.41,0.47426
3799.63,0.47178
3793.84,0.46910
3788.06,0.46588
3782.27,0.46263
3776.48,0.45816
3770.7,0.45288
3764.91,0.44754
3759.12,0.44060
3753.34,0.43172
3747.55,0.42048
3741.77,0.40555
3735.98,0.38858
3730.19,0.36456
3724.41,0.33223
3718.62,0.28682
3712.83,0.23138
3707.05,0.17717
3701.26,0.12876
3695.48,0.09877
3689.69,0.09622
3683.9,0.10932
3678.12,0.11715
3672.33,0.11098
3666.54,0.11078
3660.76,0.11219
3654.97,0.10212
3649.19,0.10076
3643.4,0.11103
3637.61,0.11578
3631.83,0.11215
3626.04,0.09671
3620.25,0.08391
3614.47,0.10537
3608.68,0.12006
3602.9,0.12436
3597.11,0.12540
3591.32,0.12468
3585.54,0.12345
3579.75,0.12308
3573.97,0.12152
3568.18,0.12092
3562.39,0.12017
3556.61,0.11937
3550.82,0.11891
3545.03,0.11834
3539.25,0.11810
3533.46,0.11831
3527.68,0.11732
3521.89,0.11590
3516.1,0.11435
3510.32,0.11385
3504.53,0.11319
3498.74,0.11294
3492.96,0.11068
3487.17,0.10897
3481.39,0.10724
3475.6,0.10675
3469.81,0.10633
3464.03,0.10519
3458.24,0.10447
3452.45,0.10300
3446.67,0.10208
3440.88,0.10150
3435.1,0.10100
3429.31,0.10113
3423.52,0.10089
3417.74,0.10090
3411.95,0.10145
3406.16,0.10188
3400.38,0.10183
3394.59,0.10192
3388.81,0.10325
3383.02,0.10350
3377.23,0.10379
3371.45,0.10562
3365.66,0.10512
3359.87,0.10564
3354.09,0.10624
3348.3,0.10722
3342.52,0.10773
3336.73,0.10894
3330.94,0.10933
3325.16,0.11065
3319.37,0.11141
3313.58,0.11266
3307.8,0.11337
3302.01,0.11392
3296.23,0.11503
3290.44,0.11609
3284.65,0.11736
3278.87,0.11841
3273.08,0.11978
3267.29,0.12173
3261.51,0.12300
3255.72,0.12454
3249.94,0.12580
3244.15,0.12672
3238.36,0.12714
3232.58,0.12892
3226.79,0.13096
3221,0.13201
3215.22,0.13403
3209.43,0.13527
3203.65,0.13616
3197.86,0.13761
3192.07,0.13942
3186.29,0.14180
3180.5,0.14319
3174.71,0.14394
3168.93,0.14668
3163.14,0.14818
3157.36,0.15044
3151.57,0.15250
3145.78,0.15351
3140,0.15545
3134.21,0.15749
3128.42,0.15940
3122.64,0.16067
3116.85,0.16173
3111.07,0.16132
3105.28,0.16149
3099.49,0.16316
3093.71,0.16306
3087.92,0.15835
3082.14,0.15774
3076.35,0.16173
3070.56,0.16115
3064.78,0.15551
3058.99,0.15523
3053.2,0.16277
3047.42,0.16707
3041.63,0.16511
3035.85,0.15606
3030.06,0.14099
3024.27,0.14242
3018.49,0.15672
3012.7,0.16135
3006.91,0.15699
3001.13,0.14936
2995.34,0.14067
2989.56,0.12480
2983.77,0.11317
2977.98,0.10530
2972.2,0.09610
2966.41,0.08642
2960.62,0.07932
2954.84,0.07963
2949.05,0.08290
2943.27,0.08372
2937.48,0.08062
2931.69,0.07860
2925.91,0.08099
2920.12,0.08388
2914.33,0.08894
2908.55,0.09440
2902.76,0.09923
2896.98,0.10199
2891.19,0.10345
2885.4,0.10144
2879.62,0.09401
2873.83,0.08906
2868.04,0.09224
2862.26,0.09811
2856.47,0.10416
2850.69,0.11150
2844.9,0.12465
2839.11,0.14360
2833.33,0.16145
2827.54,0.17466
2821.75,0.18522
2815.97,0.19315
2810.18,0.19965
2804.4,0.20475
2798.61,0.20876
2792.82,0.21395
2787.04,0.21764
2781.25,0.22119
2775.46,0.22449
2769.68,0.22735
2763.89,0.22846
2758.11,0.23011
2752.32,0.23090
2746.53,0.23146
2740.75,0.23189
2734.96,0.23171
2729.17,0.23343
2723.39,0.23566
2717.6,0.23716
2711.82,0.23914
2706.03,0.24131
2700.24,0.24340
2694.46,0.24568
2688.67,0.24741
2682.88,0.24919
2677.1,0.25010
2671.31,0.25071
2665.53,0.25145
2659.74,0.25161
2653.95,0.25169
2648.17,0.25062
2642.38,0.24813
2636.59,0.24275
2630.81,0.23405
2625.02,0.22558
2619.24,0.21790
2613.45,0.20983
2607.66,0.19979
2601.88,0.19283
2596.09,0.18899
2590.3,0.18575
2584.52,0.18409
2578.73,0.18311
2572.95,0.18206
2567.16,0.17951
2561.37,0.17651
2555.59,0.17278
2549.8,0.16738
2544.02,0.16191
2538.23,0.15093
2532.44,0.12957
2526.66,0.11125
2520.87,0.10091
2515.08,0.09714
2509.3,0.09975
2503.51,0.11396
2497.73,0.13820
2491.94,0.16807
2486.15,0.19396
2480.37,0.21596
2474.58,0.23670
2468.79,0.25392
2463.01,0.26397
2457.22,0.27088
2451.44,0.27675
2445.65,0.28130
2439.86,0.28498
2434.08,0.28811
2428.29,0.29124
2422.5,0.29413
2416.72,0.29714
2410.93,0.29949
2405.15,0.30114
2399.36,0.30302
2393.57,0.30469
2387.79,0.30625
2382,0.30761
2376.21,0.30886
2370.43,0.31011
2364.64,0.31021
2358.86,0.31064
2353.07,0.31062
2347.28,0.31023
2341.5,0.30915
2335.71,0.30960
2329.92,0.31062
2324.14,0.31133
2318.35,0.31028
2312.57,0.30966
2306.78,0.30944
2300.99,0.30961
2295.21,0.30915
2289.42,0.30897
2283.63,0.30885
2277.85,0.30791
2272.06,0.30600
2266.28,0.30355
2260.49,0.30109
2254.7,0.29898
2248.92,0.29698
2243.13,0.29511
2237.34,0.29288
2231.56,0.29010
2225.77,0.28734
2219.99,0.28650
2214.2,0.28630
2208.41,0.28604
2202.63,0.28485
2196.84,0.28281
2191.05,0.27981
2185.27,0.27645
2179.48,0.27333
2173.7,0.26987
2167.91,0.26581
2162.12,0.26126
2156.34,0.25644
2150.55,0.25008
2144.76,0.24568
2138.98,0.24397
2133.19,0.24484
2127.41,0.24818
2121.62,0.25286
2115.83,0.25617
2110.05,0.25838
2104.26,0.25920
2098.47,0.26061
2092.69,0.26030
2086.9,0.25974
2081.12,0.25862
2075.33,0.25689
2069.54,0.25494
2063.76,0.25284
2057.97,0.25103
2052.19,0.24887
2046.4,0.24749
2040.61,0.24548
2034.83,0.24370
2029.04,0.24319
2023.25,0.24314
2017.47,0.24280
2011.68,0.24093
2005.9,0.23883
2000.11,0.23734
1994.32,0.23665
1988.54,0.23598
1982.75,0.23547
1976.96,0.23446
1971.18,0.23253
1965.39,0.22962
1959.61,0.22683
1953.82,0.22795
1948.03,0.22732
1942.25,0.22766
1936.46,0.23013
1930.67,0.23264
1924.89,0.23353
1919.1,0.23279
1913.32,0.22991
1907.53,0.22529
1901.74,0.21936
1895.96,0.21313
1890.17,0.20741
1884.38,0.20306
1878.6,0.19946
1872.81,0.19634
1867.03,0.19557
1861.24,0.19788
1855.45,0.20080
1849.67,0.20179
1843.88,0.19958
1838.09,0.19402
1832.31,0.18505
1826.52,0.17291
1820.74,0.16147
1814.95,0.15027
1809.16,0.13059
1803.38,0.08973
1797.59,0.05883
1791.8,0.06384
1786.02,0.09730
1780.23,0.11821
1774.45,0.12029
1768.66,0.11169
1762.87,0.09759
1757.09,0.08090
1751.3,0.06339
1745.51,0.04894
1739.73,0.03972
1733.94,0.03725
1728.16,0.04029
1722.37,0.04796
1716.58,0.06041
1710.8,0.06981
1705.01,0.07473
1699.22,0.07668
1693.44,0.07596
1687.65,0.07347
1681.87,0.07125
1676.08,0.06809
1670.29,0.06590
1664.51,0.06444
1658.72,0.06375
1652.93,0.06349
1647.15,0.06281
1641.36,0.06219
1635.58,0.06107
1629.79,0.05989
1624,0.05848
1618.22,0.05750
1612.43,0.05647
1606.64,0.05581
1600.86,0.05546
1595.07,0.05832
1589.29,0.06022
1583.5,0.06408
1577.71,0.07156
1571.93,0.08024
1566.14,0.08776
1560.35,0.09456
1554.57,0.10201
1548.78,0.10397
1543,0.10302
1537.21,0.10124
1531.42,0.09985
1525.64,0.09869
1519.85,0.09675
1514.07,0.09489
1508.28,0.09362
1502.49,0.09311
1496.71,0.09263
1490.92,0.09265
1485.13,0.09305
1479.35,0.09351
1473.56,0.09422
1467.78,0.09479
1461.99,0.09493
1456.2,0.09561
1450.42,0.09618
1444.63,0.09715
1438.84,0.09803
1433.06,0.09983
1427.27,0.10191
1421.49,0.10425
1415.7,0.10588
1409.91,0.10616
1404.13,0.10097
1398.34,0.09578
1392.55,0.09350
1386.77,0.09205
1380.98,0.09211
1375.2,0.09275
1369.41,0.09569
1363.62,0.10043
1357.84,0.10540
1352.05,0.10985
1346.26,0.11311
1340.48,0.11630
1334.69,0.11804
1328.91,0.11874
1323.12,0.11882
1317.33,0.11973
1311.55,0.12142
1305.76,0.12403
1299.97,0.12668
1294.19,0.12765
1288.4,0.12554
1282.62,0.12052
1276.83,0.11612
1271.04,0.11103
1265.26,0.10658
1259.47,0.10410
1253.68,0.10172
1247.9,0.09914
1242.11,0.09740
1236.33,0.09802
1230.54,0.09973
1224.75,0.10197
1218.97,0.10268
1213.18,0.10147
1207.39,0.09916
1201.61,0.09521
1195.82,0.09185
1190.04,0.08738
1184.25,0.08356
1178.46,0.07989
1172.68,0.07650
1166.89,0.07401
1161.1,0.07258
1155.32,0.07502
1149.53,0.07856
1143.75,0.08224
1137.96,0.08508
1132.17,0.08500
1126.39,0.08243
1120.6,0.07723
1114.81,0.07267
1109.03,0.07370
1103.24,0.07625
1097.46,0.07816
1091.67,0.08023
1085.88,0.08176
1080.1,0.08406
1074.31,0.08488
1068.52,0.08274
1062.74,0.07962
1056.95,0.07787
1051.17,0.07816
1045.38,0.07716
1039.59,0.07863
1033.81,0.07840
1028.02,0.07634
1022.24,0.07483
1016.45,0.07417
1010.66,0.07558
1004.88,0.07620
999.09,0.07371
993.304,0.07141
987.518,0.07051
981.731,0.06920
975.945,0.06740
970.159,0.06651
964.373,0.06530
958.586,0.06438
952.8,0.06255
947.014,0.06167
941.228,0.05972
935.441,0.06016
929.655,0.05923
923.869,0.05824
918.083,0.05818
912.297,0.05918
906.51,0.06000
900.724,0.06164
894.938,0.06364
889.152,0.06735
883.365,0.06284
877.579,0.06679
871.793,0.06869
866.007,0.06613
860.22,0.06415
854.434,0.06030
848.648,0.05574
842.862,0.05551
837.075,0.05305
831.289,0.05110
825.503,0.04870
819.717,0.04692
813.931,0.04466
808.144,0.04437
802.358,0.04380
796.572,0.04380
790.786,0.04361
784.999,0.04269
779.213,0.04331
773.427,0.04200
767.641,0.04062
761.854,0.04084
756.068,0.04080
750.282,0.03951
744.496,0.03976
738.709,0.03914
732.923,0.03843
727.137,0.03850
721.351,0.03646
715.565,0.03821
709.778,0.04492
703.992,0.04315
698.206,0.04385
692.42,0.04568
686.633,0.04489
680.847,0.04484
675.061,0.04416
669.275,0.04533
663.488,0.04552
657.702,0.04533
651.916,0.04468
646.13,0.04496
640.343,0.04429
634.557,0.04372
628.771,0.04603
622.985,0.04631
617.198,0.04411
611.412,0.04393
605.626,0.04618
599.84,0.04828