File: 01_Data/Pine_Lap_Siding/FTIR/IS/Pine_Lap_Siding_IS_S_220916_R1.dpt
7497.03,0.83156
7491.25,0.82921
7485.46,0.82581
7479.67,0.81842
7473.89,0.82219
7468.1,0.82662
7462.32,0.82246
7456.53,0.82505
7450.74,0.82761
7444.96,0.82177
7439.17,0.81273
7433.38,0.80856
7427.6,0.81433
7421.81,0.81323
7416.03,0.80471
7410.24,0.80867
7404.45,0.80620
7398.67,0.80268
7392.88,0.80741
7387.09,0.80730
7381.31,0.80346
7375.52,0.80508
7369.74,0.79818
7363.95,0.79408
7358.16,0.79044
7352.38,0.80340
7346.59,0.79781
7340.8,0.79851
7335.02,0.79682
7329.23,0.79622
7323.45,0.79009
7317.66,0.78905
7311.87,0.78950
7306.09,0.79245
7300.3,0.79527
7294.51,0.78755
7288.73,0.79307
7282.94,0.79721
7277.16,0.79124
7271.37,0.79455
7265.58,0.78569
7259.8,0.78724
7254.01,0.78970
7248.22,0.79600
7242.44,0.78659
7236.65,0.78617
7230.87,0.78620
7225.08,0.78358
7219.29,0.78740
7213.51,0.78155
7207.72,0.77553
7201.93,0.77434
7196.15,0.77703
7190.36,0.76362
7184.58,0.76138
7178.79,0.76617
7173,0.76041
7167.22,0.75862
7161.43,0.75469
7155.65,0.75920
7149.86,0.75902
7144.07,0.75334
7138.29,0.76324
7132.5,0.75774
7126.71,0.75710
7120.93,0.75057
7115.14,0.75102
7109.36,0.74696
7103.57,0.74670
7097.78,0.75196
7092,0.74927
7086.21,0.74872
7080.42,0.74073
7074.64,0.72724
7068.85,0.71736
7063.07,0.71722
7057.28,0.73243
7051.49,0.73332
7045.71,0.73604
7039.92,0.73586
7034.13,0.73576
7028.35,0.72930
7022.56,0.73672
7016.78,0.73200
7010.99,0.73205
7005.2,0.73656
6999.42,0.72722
6993.63,0.72512
6987.84,0.73212
6982.06,0.72615
6976.27,0.72871
6970.49,0.72697
6964.7,0.73267
6958.91,0.72661
6953.13,0.73012
6947.34,0.72731
6941.55,0.72406
6935.77,0.72760
6929.98,0.72452
6924.2,0.72499
6918.41,0.72219
6912.62,0.72892
6906.84,0.72718
6901.05,0.72668
6895.26,0.72306
6889.48,0.72368
6883.69,0.72303
6877.91,0.72546
6872.12,0.72537
6866.33,0.72702
6860.55,0.72142
6854.76,0.72625
6848.97,0.72657
6843.19,0.72325
6837.4,0.72381
6831.62,0.72463
6825.83,0.72824
6820.04,0.72115
6814.26,0.72736
6808.47,0.72583
6802.68,0.72836
6796.9,0.72190
6791.11,0.72531
6785.33,0.72472
6779.54,0.71999
6773.75,0.72468
6767.97,0.72265
6762.18,0.72743
6756.39,0.72294
6750.61,0.72482
6744.82,0.73148
6739.04,0.72498
6733.25,0.72269
6727.46,0.72573
6721.68,0.72806
6715.89,0.73034
6710.1,0.72600
6704.32,0.73037
6698.53,0.72754
6692.75,0.72314
6686.96,0.72543
6681.17,0.72630
6675.39,0.72989
6669.6,0.72838
6663.82,0.72850
6658.03,0.72631
6652.24,0.72508
6646.46,0.72790
6640.67,0.72957
6634.88,0.72693
6629.1,0.72814
6623.31,0.73157
6617.53,0.73090
6611.74,0.72761
6605.95,0.72796
6600.17,0.72894
6594.38,0.73060
6588.59,0.73298
6582.81,0.73226
6577.02,0.72891
6571.24,0.72948
6565.45,0.73321
6559.66,0.73504
6553.88,0.73085
6548.09,0.73472
6542.3,0.73213
6536.52,0.73217
6530.73,0.73383
6524.95,0.73655
6519.16,0.73351
6513.37,0.73733
6507.59,0.73700
6501.8,0.73462
6496.01,0.73346
6490.23,0.73457
6484.44,0.73483
6478.66,0.73227
6472.87,0.73301
6467.08,0.73185
6461.3,0.73272
6455.51,0.73239
6449.72,0.73164
6443.94,0.73077
6438.15,0.73243
6432.37,0.73873
6426.58,0.73369
6420.79,0.73377
6415.01,0.73526
6409.22,0.73811
6403.43,0.73586
6397.65,0.73487
6391.86,0.73870
6386.08,0.73696
6380.29,0.73428
6374.5,0.73430
6368.72,0.73566
6362.93,0.73687
6357.14,0.73661
6351.36,0.73618
6345.57,0.73561
6339.79,0.73615
6334,0.73770
6328.21,0.73995
6322.43,0.73672
6316.64,0.73254
6310.85,0.73896
6305.07,0.73768
6299.28,0.73673
6293.5,0.74042
6287.71,0.73767
6281.92,0.73855
6276.14,0.73976
6270.35,0.73775
6264.56,0.73762
6258.78,0.73697
6252.99,0.74061
6247.21,0.74401
6241.42,0.74388
6235.63,0.74088
6229.85,0.74428
6224.06,0.74721
6218.27,0.74683
6212.49,0.74337
6206.7,0.74458
6200.92,0.74407
6195.13,0.75130
6189.34,0.74850
6183.56,0.74878
6177.77,0.74946
6171.98,0.75147
6166.2,0.74862
6160.41,0.74812
6154.63,0.75222
6148.84,0.75082
6143.05,0.75052
6137.27,0.75158
6131.48,0.74847
6125.7,0.75150
6119.91,0.75309
6114.12,0.75470
6108.34,0.75125
6102.55,0.75401
6096.76,0.75181
6090.98,0.75405
6085.19,0.75134
6079.41,0.75012
6073.62,0.75008
6067.83,0.75034
6062.05,0.75511
6056.26,0.75324
6050.47,0.75250
6044.69,0.75041
6038.9,0.75103
6033.12,0.75021
6027.33,0.74522
6021.54,0.74404
6015.76,0.74586
6009.97,0.74492
6004.18,0.74042
5998.4,0.74224
5992.61,0.73728
5986.83,0.73803
5981.04,0.73236
5975.25,0.73283
5969.47,0.73502
5963.68,0.73260
5957.89,0.73387
5952.11,0.73422
5946.32,0.73473
5940.54,0.73231
5934.75,0.73153
5928.96,0.73326
5923.18,0.73197
5917.39,0.73029
5911.6,0.72969
5905.82,0.72990
5900.03,0.72850
5894.25,0.72980
5888.46,0.72775
5882.67,0.72917
5876.89,0.73011
5871.1,0.73117
5865.31,0.73254
5859.53,0.72983
5853.74,0.72960
5847.96,0.72941
5842.17,0.72917
5836.38,0.73118
5830.6,0.72907
5824.81,0.73015
5819.02,0.72821
5813.24,0.72479
5807.45,0.72729
5801.67,0.72824
5795.88,0.72656
5790.09,0.72566
5784.31,0.72704
5778.52,0.73002
5772.73,0.72982
5766.95,0.72841
5761.16,0.72948
5755.38,0.73024
5749.59,0.72781
5743.8,0.73132
5738.02,0.72791
5732.23,0.72791
5726.44,0.72794
5720.66,0.72654
5714.87,0.72539
5709.09,0.72796
5703.3,0.72663
5697.51,0.72526
5691.73,0.72676
5685.94,0.72917
5680.15,0.72850
5674.37,0.72578
5668.58,0.72746
5662.8,0.72619
5657.01,0.72605
5651.22,0.72652
5645.44,0.72677
5639.65,0.72727
5633.87,0.72648
5628.08,0.72712
5622.29,0.72543
5616.51,0.72845
5610.72,0.72815
5604.93,0.72763
5599.15,0.72729
5593.36,0.72613
5587.58,0.72608
5581.79,0.72736
5576,0.72655
5570.22,0.72676
5564.43,0.72776
5558.64,0.72945
5552.86,0.72866
5547.07,0.72763
5541.29,0.72868
5535.5,0.72811
5529.71,0.73033
5523.93,0.72969
5518.14,0.72982
5512.35,0.72916
5506.57,0.72900
5500.78,0.72942
5495,0.72953
5489.21,0.72948
5483.42,0.73037
5477.64,0.73092
5471.85,0.72913
5466.06,0.72966
5460.28,0.72981
5454.49,0.73114
5448.71,0.72987
5442.92,0.73266
5437.13,0.73358
5431.35,0.73427
5425.56,0.73231
5419.77,0.73480
5413.99,0.73477
5408.2,0.73471
5402.42,0.73552
5396.63,0.73624
5390.84,0.73496
5385.06,0.73409
5379.27,0.73392
5373.48,0.73441
5367.7,0.73541
5361.91,0.73691
5356.13,0.73310
5350.34,0.73122
5344.55,0.73056
5338.77,0.72829
5332.98,0.72732
5327.19,0.72413
5321.41,0.72426
5315.62,0.72038
5309.84,0.71698
5304.05,0.71469
5298.26,0.70890
5292.48,0.70554
5286.69,0.69873
5280.9,0.69539
5275.12,0.68765
5269.33,0.67975
5263.55,0.67246
5257.76,0.66780
5251.97,0.66191
5246.19,0.65476
5240.4,0.65198
5234.61,0.64618
5228.83,0.64478
5223.04,0.63998
5217.26,0.63868
5211.47,0.63690
5205.68,0.63703
5199.9,0.63494
5194.11,0.63379
5188.32,0.63385
5182.54,0.63362
5176.75,0.63438
5170.97,0.63475
5165.18,0.63455
5159.39,0.63696
5153.61,0.63914
5147.82,0.64030
5142.03,0.64108
5136.25,0.64137
5130.46,0.64252
5124.68,0.64521
5118.89,0.64659
5113.1,0.64747
5107.32,0.64894
5101.53,0.65066
5095.75,0.65262
5089.96,0.65488
5084.17,0.65505
5078.39,0.65671
5072.6,0.65822
5066.81,0.65991
5061.03,0.65993
5055.24,0.66148
5049.46,0.66333
5043.67,0.66254
5037.88,0.66455
5032.1,0.66559
5026.31,0.66645
5020.52,0.66798
5014.74,0.66809
5008.95,0.66860
5003.17,0.66946
4997.38,0.67090
4991.59,0.67135
4985.81,0.67029
4980.02,0.66981
4974.23,0.67011
4968.45,0.67002
4962.66,0.66994
4956.88,0.66842
4951.09,0.66689
4945.3,0.66423
4939.52,0.66302
4933.73,0.66067
4927.94,0.65842
4922.16,0.65852
4916.37,0.65442
4910.59,0.65312
4904.8,0.65201
4899.01,0.64868
4893.23,0.64532
4887.44,0.64315
4881.65,0.64024
4875.87,0.63883
4870.08,0.63703
4864.3,0.63349
4858.51,0.63166
4852.72,0.62985
4846.94,0.62745
4841.15,0.62669
4835.36,0.62478
4829.58,0.62132
4823.79,0.62064
4818.01,0.61917
4812.22,0.61667
4806.43,0.61621
4800.65,0.61483
4794.86,0.61461
4789.07,0.61325
4783.29,0.61204
4777.5,0.61100
4771.72,0.61033
4765.93,0.61128
4760.14,0.60988
4754.36,0.60886
4748.57,0.60946
4742.78,0.60892
4737,0.60840
4731.21,0.60888
4725.43,0.60699
4719.64,0.60716
4713.85,0.60818
4708.07,0.60826
4702.28,0.60655
4696.49,0.60677
4690.71,0.60529
4684.92,0.60393
4679.14,0.60269
4673.35,0.60025
4667.56,0.59956
4661.78,0.59987
4655.99,0.59929
4650.2,0.60005
4644.42,0.59928
4638.63,0.59723
4632.85,0.59782
4627.06,0.59550
4621.27,0.59548
4615.49,0.59464
4609.7,0.59662
4603.92,0.59959
4598.13,0.60286
4592.34,0.60542
4586.56,0.60630
4580.77,0.60498
4574.98,0.60491
4569.2,0.60444
4563.41,0.60504
4557.63,0.60629
4551.84,0.60551
4546.05,0.60662
4540.27,0.60357
4534.48,0.59627
4528.69,0.58899
4522.91,0.59520
4517.12,0.60623
4511.34,0.61205
4505.55,0.61531
4499.76,0.61657
4493.98,0.61552
4488.19,0.61517
4482.4,0.61314
4476.62,0.60917
4470.83,0.60573
4465.05,0.60067
4459.26,0.59501
4453.47,0.58942
4447.69,0.58387
4441.9,0.57863
4436.11,0.57319
4430.33,0.56872
4424.54,0.56295
4418.76,0.55753
4412.97,0.55266
4407.18,0.54778
4401.4,0.54585
4395.61,0.54330
4389.82,0.54122
4384.04,0.54041
4378.25,0.54043
4372.47,0.53848
4366.68,0.53785
4360.89,0.53541
4355.11,0.53258
4349.32,0.53010
4343.53,0.52829
4337.75,0.52707
4331.96,0.52637
4326.18,0.52627
4320.39,0.52649
4314.6,0.52535
4308.82,0.52387
4303.03,0.52128
4297.24,0.51999
4291.46,0.51905
4285.67,0.51552
4279.89,0.51427
4274.1,0.51388
4268.31,0.51240
4262.53,0.51160
4256.74,0.51183
4250.95,0.51213
4245.17,0.51446
4239.38,0.51697
4233.6,0.51773
4227.81,0.51989
4222.02,0.51979
4216.24,0.51930
4210.45,0.51922
4204.66,0.51881
4198.88,0.51809
4193.09,0.51937
4187.31,0.51959
4181.52,0.52073
4175.73,0.52216
4169.95,0.52293
4164.16,0.52403
4158.37,0.52456
4152.59,0.52340
4146.8,0.52263
4141.02,0.52019
4135.23,0.51819
4129.44,0.51452
4123.66,0.51105
4117.87,0.50759
4112.09,0.50371
4106.3,0.49916
4100.51,0.49439
4094.73,0.49093
4088.94,0.48653
4083.15,0.48234
4077.37,0.47706
4071.58,0.47184
4065.8,0.46771
4060.01,0.46274
4054.22,0.45912
4048.44,0.45624
4042.65,0.45326
4036.86,0.45034
4031.08,0.45016
4025.29,0.44976
4019.51,0.44970
4013.72,0.45004
4007.93,0.45090
4002.15,0.45002
3996.36,0.45121
3990.57,0.45132
3984.79,0.45170
3979,0.45173
3973.22,0.45189
3967.43,0.45209
3961.64,0.45265
3955.86,0.45225
3950.07,0.45161
3944.28,0.45190
3938.5,0.45328
3932.71,0.45481
3926.93,0.45831
3921.14,0.46207
3915.35,0.46494
3909.57,0.46657
3903.78,0.46865
3897.99,0.46952
3892.21,0.47028
3886.42,0.47055
3880.64,0.47098
3874.85,0.47155
3869.06,0.47250
3863.28,0.47314
3857.49,0.47321
3851.7,0.47355
3845.92,0.47403
3840.13,0.47378
3834.35,0.47416
3828.56,0.47299
3822.77,0.47323
3816.99,0.47199
3811.2,0.47123
3805.41,0.46824
3799.63,0.46645
3793.84,0.46399
3788.06,0.46026
3782.27,0.45615
3776.48,0.45203
3770.7,0.44800
3764.91,0.44115
3759.12,0.43476
3753.34,0.42669
3747.55,0.41364
3741.77,0.40011
3735.98,0.38297
3730.19,0.35917
3724.41,0.32818
3718.62,0.28398
3712.83,0.22877
3707.05,0.17567
3701.26,0.12799
3695.48,0.09846
3689.69,0.09561
3683.9,0.10908
3678.12,0.11680
3672.33,0.11118
3666.54,0.10978
3660.76,0.11096
3654.97,0.10112
3649.19,0.09984
3643.4,0.10949
3637.61,0.11474
3631.83,0.11092
3626.04,0.09527
3620.25,0.08250
3614.47,0.10378
3608.68,0.11833
3602.9,0.12312
3597.11,0.12408
3591.32,0.12319
3585.54,0.12244
3579.75,0.12067
3573.97,0.11993
3568.18,0.11900
3562.39,0.11780
3556.61,0.11712
3550.82,0.11656
3545.03,0.11682
3539.25,0.11618
3533.46,0.11591
3527.68,0.11568
3521.89,0.11433
3516.1,0.11235
3510.32,0.11201
3504.53,0.11173
3498.74,0.11044
3492.96,0.10964
3487.17,0.10782
3481.39,0.10583
3475.6,0.10537
3469.81,0.10517
3464.03,0.10408
3458.24,0.10320
3452.45,0.10144
3446.67,0.10056
3440.88,0.10061
3435.1,0.10021
3429.31,0.10008
3423.52,0.09955
3417.74,0.09979
3411.95,0.10020
3406.16,0.10056
3400.38,0.10069
3394.59,0.10160
3388.81,0.10182
3383.02,0.10229
3377.23,0.10228
3371.45,0.10335
3365.66,0.10378
3359.87,0.10459
3354.09,0.10522
3348.3,0.10571
3342.52,0.10664
3336.73,0.10708
3330.94,0.10809
3325.16,0.10890
3319.37,0.10853
3313.58,0.11090
3307.8,0.11221
3302.01,0.11280
3296.23,0.11357
3290.44,0.11446
3284.65,0.11617
3278.87,0.11679
3273.08,0.11837
3267.29,0.11948
3261.51,0.12057
3255.72,0.12166
3249.94,0.12341
3244.15,0.12509
3238.36,0.12587
3232.58,0.12725
3226.79,0.12805
3221,0.12899
3215.22,0.13062
3209.43,0.13192
3203.65,0.13322
3197.86,0.13556
3192.07,0.13724
3186.29,0.13853
3180.5,0.14028
3174.71,0.14162
3168.93,0.14323
3163.14,0.14506
3157.36,0.14693
3151.57,0.14897
3145.78,0.15046
3140,0.15175
3134.21,0.15437
3128.42,0.15497
3122.64,0.15720
3116.85,0.15796
3111.07,0.15803
3105.28,0.15752
3099.49,0.15931
3093.71,0.15956
3087.92,0.15531
3082.14,0.15421
3076.35,0.15845
3070.56,0.15838
3064.78,0.15241
3058.99,0.15191
3053.2,0.15978
3047.42,0.16358
3041.63,0.16174
3035.85,0.15335
3030.06,0.13866
3024.27,0.14041
3018.49,0.15369
3012.7,0.15884
3006.91,0.15453
3001.13,0.14757
2995.34,0.13879
2989.56,0.12358
2983.77,0.11207
2977.98,0.10430
2972.2,0.09563
2966.41,0.08526
2960.62,0.07902
2954.84,0.07885
2949.05,0.08306
2943.27,0.08354
2937.48,0.08082
2931.69,0.07905
2925.91,0.08113
2920.12,0.08435
2914.33,0.08895
2908.55,0.09452
2902.76,0.09867
2896.98,0.10116
2891.19,0.10296
2885.4,0.10108
2879.62,0.09379
2873.83,0.08894
2868.04,0.09294
2862.26,0.09778
2856.47,0.10405
2850.69,0.11125
2844.9,0.12421
2839.11,0.14265
2833.33,0.16002
2827.54,0.17356
2821.75,0.18352
2815.97,0.19141
2810.18,0.19750
2804.4,0.20242
2798.61,0.20659
2792.82,0.21147
2787.04,0.21548
2781.25,0.21914
2775.46,0.22180
2769.68,0.22413
2763.89,0.22611
2758.11,0.22755
2752.32,0.22850
2746.53,0.22918
2740.75,0.22897
2734.96,0.22945
2729.17,0.23068
2723.39,0.23356
2717.6,0.23532
2711.82,0.23663
2706.03,0.23906
2700.24,0.24086
2694.46,0.24262
2688.67,0.24478
2682.88,0.24629
2677.1,0.24758
2671.31,0.24862
2665.53,0.24896
2659.74,0.24893
2653.95,0.24904
2648.17,0.24833
2642.38,0.24582
2636.59,0.24059
2630.81,0.23205
2625.02,0.22360
2619.24,0.21609
2613.45,0.20754
2607.66,0.19828
2601.88,0.19069
2596.09,0.18714
2590.3,0.18458
2584.52,0.18282
2578.73,0.18153
2572.95,0.18005
2567.16,0.17859
2561.37,0.17555
2555.59,0.17156
2549.8,0.16661
2544.02,0.16052
2538.23,0.14966
2532.44,0.12873
2526.66,0.11056
2520.87,0.09996
2515.08,0.09689
2509.3,0.09937
2503.51,0.11342
2497.73,0.13746
2491.94,0.16704
2486.15,0.19247
2480.37,0.21420
2474.58,0.23453
2468.79,0.25160
2463.01,0.26168
2457.22,0.26835
2451.44,0.27413
2445.65,0.27842
2439.86,0.28211
2434.08,0.28530
2428.29,0.28837
2422.5,0.29135
2416.72,0.29428
2410.93,0.29609
2405.15,0.29812
2399.36,0.29994
2393.57,0.30106
2387.79,0.30271
2382,0.30380
2376.21,0.30490
2370.43,0.30553
2364.64,0.30565
2358.86,0.30638
2353.07,0.30625
2347.28,0.30547
2341.5,0.30472
2335.71,0.30496
2329.92,0.30598
2324.14,0.30631
2318.35,0.30536
2312.57,0.30462
2306.78,0.30463
2300.99,0.30434
2295.21,0.30378
2289.42,0.30388
2283.63,0.30309
2277.85,0.30229
2272.06,0.30038
2266.28,0.29777
2260.49,0.29517
2254.7,0.29308
2248.92,0.29124
2243.13,0.28917
2237.34,0.28674
2231.56,0.28433
2225.77,0.28128
2219.99,0.27968
2214.2,0.27977
2208.41,0.27944
2202.63,0.27817
2196.84,0.27617
2191.05,0.27391
2185.27,0.27050
2179.48,0.26681
2173.7,0.26351
2167.91,0.25953
2162.12,0.25555
2156.34,0.25067
2150.55,0.24452
2144.76,0.23993
2138.98,0.23830
2133.19,0.23904
2127.41,0.24237
2121.62,0.24652
2115.83,0.24986
2110.05,0.25208
2104.26,0.25331
2098.47,0.25369
2092.69,0.25379
2086.9,0.25333
2081.12,0.25257
2075.33,0.25064
2069.54,0.24893
2063.76,0.24675
2057.97,0.24498
2052.19,0.24345
2046.4,0.24167
2040.61,0.23984
2034.83,0.23835
2029.04,0.23781
2023.25,0.23794
2017.47,0.23734
2011.68,0.23579
2005.9,0.23352
2000.11,0.23219
1994.32,0.23199
1988.54,0.23109
1982.75,0.23052
1976.96,0.22934
1971.18,0.22797
1965.39,0.22531
1959.61,0.22213
1953.82,0.22291
1948.03,0.22283
1942.25,0.22302
1936.46,0.22518
1930.67,0.22780
1924.89,0.22879
1919.1,0.22827
1913.32,0.22530
1907.53,0.22042
1901.74,0.21502
1895.96,0.20883
1890.17,0.20353
1884.38,0.19954
1878.6,0.19561
1872.81,0.19288
1867.03,0.19180
1861.24,0.19414
1855.45,0.19674
1849.67,0.19804
1843.88,0.19612
1838.09,0.19043
1832.31,0.18173
1826.52,0.16962
1820.74,0.15875
1814.95,0.14761
1809.16,0.12862
1803.38,0.08841
1797.59,0.05872
1791.8,0.06363
1786.02,0.09662
1780.23,0.11708
1774.45,0.11864
1768.66,0.11059
1762.87,0.09730
1757.09,0.08084
1751.3,0.06367
1745.51,0.04906
1739.73,0.03991
1733.94,0.03695
1728.16,0.04014
1722.37,0.04745
1716.58,0.06041
1710.8,0.06888
1705.01,0.07300
1699.22,0.07528
1693.44,0.07462
1687.65,0.07201
1681.87,0.06951
1676.08,0.06725
1670.29,0.06518
1664.51,0.06319
1658.72,0.06237
1652.93,0.06200
1647.15,0.06185
1641.36,0.06054
1635.58,0.05984
1629.79,0.05937
1624,0.05840
1618.22,0.05742
1612.43,0.05605
1606.64,0.05539
1600.86,0.05589
1595.07,0.05844
1589.29,0.06010
1583.5,0.06365
1577.71,0.07131
1571.93,0.08001
1566.14,0.08743
1560.35,0.09443
1554.57,0.10189
1548.78,0.10382
1543,0.10248
1537.21,0.10087
1531.42,0.09996
1525.64,0.09844
1519.85,0.09618
1514.07,0.09443
1508.28,0.09362
1502.49,0.09288
1496.71,0.09274
1490.92,0.09309
1485.13,0.09310
1479.35,0.09315
1473.56,0.09385
1467.78,0.09409
1461.99,0.09495
1456.2,0.09536
1450.42,0.09576
1444.63,0.09629
1438.84,0.09780
1433.06,0.10015
1427.27,0.10206
1421.49,0.10463
1415.7,0.10610
1409.91,0.10623
1404.13,0.10084
1398.34,0.09574
1392.55,0.09329
1386.77,0.09191
1380.98,0.09166
1375.2,0.09241
1369.41,0.09568
1363.62,0.10038
1357.84,0.10562
1352.05,0.10960
1346.26,0.11298
1340.48,0.11599
1334.69,0.11805
1328.91,0.11822
1323.12,0.11885
1317.33,0.11950
1311.55,0.12088
1305.76,0.12349
1299.97,0.12647
1294.19,0.12727
1288.4,0.12491
1282.62,0.12056
1276.83,0.11570
1271.04,0.11073
1265.26,0.10646
1259.47,0.10369
1253.68,0.10154
1247.9,0.09924
1242.11,0.09717
1236.33,0.09798
1230.54,0.09980
1224.75,0.10247
1218.97,0.10282
1213.18,0.10112
1207.39,0.09886
1201.61,0.09533
1195.82,0.09124
1190.04,0.08746
1184.25,0.08360
1178.46,0.08001
1172.68,0.07700
1166.89,0.07428
1161.1,0.07227
1155.32,0.07493
1149.53,0.07879
1143.75,0.08281
1137.96,0.08495
1132.17,0.08491
1126.39,0.08253
1120.6,0.07752
1114.81,0.07269
1109.03,0.07442
1103.24,0.07618
1097.46,0.07843
1091.67,0.08006
1085.88,0.08318
1080.1,0.08453
1074.31,0.08494
1068.52,0.08326
1062.74,0.07946
1056.95,0.07838
1051.17,0.07737
1045.38,0.07770
1039.59,0.07847
1033.81,0.07846
1028.02,0.07709
1022.24,0.07460
1016.45,0.07441
1010.66,0.07561
1004.88,0.07622
999.09,0.07372
993.304,0.07204
987.518,0.07007
981.731,0.06860
975.945,0.06799
970.159,0.06604
964.373,0.06502
958.586,0.06348
952.8,0.06280
947.014,0.06134
941.228,0.06082
935.441,0.06007
929.655,0.05936
923.869,0.05862
918.083,0.05848
912.297,0.05926
906.51,0.06010
900.724,0.06195
894.938,0.06381
889.152,0.06758
883.365,0.06296
877.579,0.06757
871.793,0.06960
866.007,0.06693
860.22,0.06380
854.434,0.06024
848.648,0.05564
842.862,0.05532
837.075,0.05267
831.289,0.05158
825.503,0.04996
819.717,0.04658
813.931,0.04551
808.144,0.04359
802.358,0.04448
796.572,0.04417
790.786,0.04386
784.999,0.04336
779.213,0.04328
773.427,0.04223
767.641,0.04062
761.854,0.04052
756.068,0.04018
750.282,0.04010
744.496,0.03859
738.709,0.03807
732.923,0.03896
727.137,0.03872
721.351,0.03638
715.565,0.03912
709.778,0.04506
703.992,0.04492
698.206,0.04607
692.42,0.04481
686.633,0.04639
680.847,0.04549
675.061,0.04648
669.275,0.04551
663.488,0.04510
657.702,0.04598
651.916,0.04583
646.13,0.04516
640.343,0.04418
634.557,0.04429
628.771,0.04472
622.985,0.04454
617.198,0.04327
611.412,0.04625
605.626,0.04519
599.84,0.04513