File: 01_Data/Pine_Lap_Siding/FTIR/IS/Pine_Lap_Siding_IS_S_220916_R5.dpt
7497.03,0.83336
7491.25,0.83390
7485.46,0.82238
7479.67,0.81882
7473.89,0.83013
7468.1,0.82247
7462.32,0.82570
7456.53,0.81898
7450.74,0.83008
7444.96,0.81970
7439.17,0.81297
7433.38,0.81452
7427.6,0.80853
7421.81,0.79827
7416.03,0.81364
7410.24,0.81765
7404.45,0.82312
7398.67,0.80876
7392.88,0.80687
7387.09,0.80832
7381.31,0.80815
7375.52,0.80189
7369.74,0.80031
7363.95,0.80600
7358.16,0.81069
7352.38,0.80360
7346.59,0.80154
7340.8,0.80741
7335.02,0.79707
7329.23,0.80080
7323.45,0.79274
7317.66,0.79859
7311.87,0.80972
7306.09,0.80161
7300.3,0.80403
7294.51,0.78980
7288.73,0.78893
7282.94,0.79703
7277.16,0.79011
7271.37,0.79083
7265.58,0.79589
7259.8,0.79301
7254.01,0.79102
7248.22,0.79303
7242.44,0.79266
7236.65,0.78506
7230.87,0.79156
7225.08,0.78257
7219.29,0.78501
7213.51,0.78700
7207.72,0.77798
7201.93,0.78691
7196.15,0.77354
7190.36,0.77782
7184.58,0.77363
7178.79,0.75829
7173,0.76454
7167.22,0.76488
7161.43,0.76019
7155.65,0.76147
7149.86,0.75426
7144.07,0.76007
7138.29,0.75903
7132.5,0.76071
7126.71,0.76065
7120.93,0.76066
7115.14,0.75275
7109.36,0.75291
7103.57,0.75338
7097.78,0.75598
7092,0.75168
7086.21,0.74549
7080.42,0.73576
7074.64,0.72920
7068.85,0.71826
7063.07,0.72260
7057.28,0.73392
7051.49,0.73747
7045.71,0.74336
7039.92,0.74068
7034.13,0.73771
7028.35,0.73672
7022.56,0.73776
7016.78,0.73333
7010.99,0.73845
7005.2,0.73471
6999.42,0.73565
6993.63,0.72943
6987.84,0.73401
6982.06,0.73402
6976.27,0.73468
6970.49,0.73068
6964.7,0.73210
6958.91,0.72943
6953.13,0.73411
6947.34,0.72801
6941.55,0.73604
6935.77,0.73117
6929.98,0.72737
6924.2,0.73271
6918.41,0.73176
6912.62,0.72880
6906.84,0.72609
6901.05,0.72614
6895.26,0.73026
6889.48,0.72785
6883.69,0.73044
6877.91,0.72758
6872.12,0.73179
6866.33,0.73044
6860.55,0.73086
6854.76,0.72723
6848.97,0.73133
6843.19,0.72911
6837.4,0.73166
6831.62,0.73009
6825.83,0.72510
6820.04,0.72772
6814.26,0.72730
6808.47,0.72825
6802.68,0.72982
6796.9,0.72350
6791.11,0.72562
6785.33,0.72559
6779.54,0.72474
6773.75,0.72782
6767.97,0.73033
6762.18,0.72899
6756.39,0.72220
6750.61,0.72277
6744.82,0.71974
6739.04,0.72761
6733.25,0.72681
6727.46,0.72647
6721.68,0.72874
6715.89,0.72831
6710.1,0.73158
6704.32,0.72931
6698.53,0.73198
6692.75,0.73147
6686.96,0.72979
6681.17,0.73479
6675.39,0.73638
6669.6,0.73083
6663.82,0.73593
6658.03,0.73127
6652.24,0.72900
6646.46,0.73405
6640.67,0.73100
6634.88,0.74000
6629.1,0.73500
6623.31,0.73047
6617.53,0.73435
6611.74,0.73176
6605.95,0.72835
6600.17,0.73428
6594.38,0.73467
6588.59,0.73678
6582.81,0.73744
6577.02,0.73951
6571.24,0.73508
6565.45,0.74310
6559.66,0.73876
6553.88,0.73442
6548.09,0.73933
6542.3,0.73621
6536.52,0.74044
6530.73,0.74123
6524.95,0.73595
6519.16,0.73497
6513.37,0.73898
6507.59,0.73849
6501.8,0.73983
6496.01,0.73624
6490.23,0.74131
6484.44,0.73810
6478.66,0.73846
6472.87,0.73960
6467.08,0.73870
6461.3,0.74063
6455.51,0.73935
6449.72,0.73744
6443.94,0.74391
6438.15,0.73847
6432.37,0.74402
6426.58,0.74410
6420.79,0.73968
6415.01,0.73876
6409.22,0.74164
6403.43,0.74436
6397.65,0.74092
6391.86,0.74056
6386.08,0.73844
6380.29,0.73895
6374.5,0.74094
6368.72,0.74124
6362.93,0.73852
6357.14,0.74009
6351.36,0.74321
6345.57,0.74384
6339.79,0.74273
6334,0.74248
6328.21,0.74360
6322.43,0.74228
6316.64,0.73980
6310.85,0.74315
6305.07,0.74007
6299.28,0.74417
6293.5,0.74187
6287.71,0.74368
6281.92,0.74537
6276.14,0.74255
6270.35,0.74350
6264.56,0.74601
6258.78,0.74768
6252.99,0.74805
6247.21,0.74367
6241.42,0.74808
6235.63,0.74606
6229.85,0.75020
6224.06,0.75071
6218.27,0.75175
6212.49,0.74918
6206.7,0.75323
6200.92,0.75460
6195.13,0.75388
6189.34,0.75438
6183.56,0.75130
6177.77,0.75152
6171.98,0.75476
6166.2,0.75475
6160.41,0.75720
6154.63,0.75510
6148.84,0.75436
6143.05,0.75572
6137.27,0.75328
6131.48,0.75808
6125.7,0.75816
6119.91,0.75724
6114.12,0.75665
6108.34,0.75676
6102.55,0.75813
6096.76,0.75945
6090.98,0.75734
6085.19,0.75863
6079.41,0.75792
6073.62,0.75873
6067.83,0.75907
6062.05,0.76054
6056.26,0.76101
6050.47,0.75711
6044.69,0.75814
6038.9,0.75239
6033.12,0.75374
6027.33,0.75176
6021.54,0.75001
6015.76,0.74694
6009.97,0.74754
6004.18,0.74589
5998.4,0.74440
5992.61,0.74431
5986.83,0.74168
5981.04,0.74249
5975.25,0.74083
5969.47,0.73960
5963.68,0.73746
5957.89,0.73824
5952.11,0.73732
5946.32,0.73479
5940.54,0.73655
5934.75,0.73386
5928.96,0.73761
5923.18,0.73730
5917.39,0.73637
5911.6,0.73414
5905.82,0.73424
5900.03,0.73260
5894.25,0.73380
5888.46,0.73327
5882.67,0.73310
5876.89,0.73217
5871.1,0.73233
5865.31,0.73490
5859.53,0.73812
5853.74,0.73519
5847.96,0.73363
5842.17,0.73440
5836.38,0.73410
5830.6,0.73171
5824.81,0.73333
5819.02,0.73141
5813.24,0.72973
5807.45,0.72981
5801.67,0.73128
5795.88,0.72922
5790.09,0.73172
5784.31,0.73580
5778.52,0.73193
5772.73,0.73116
5766.95,0.73457
5761.16,0.73342
5755.38,0.73126
5749.59,0.73529
5743.8,0.73502
5738.02,0.73199
5732.23,0.73396
5726.44,0.73276
5720.66,0.73166
5714.87,0.73330
5709.09,0.73187
5703.3,0.73139
5697.51,0.73180
5691.73,0.73199
5685.94,0.73102
5680.15,0.73192
5674.37,0.73134
5668.58,0.73184
5662.8,0.73223
5657.01,0.73091
5651.22,0.73056
5645.44,0.73309
5639.65,0.73271
5633.87,0.73139
5628.08,0.73346
5622.29,0.73336
5616.51,0.73331
5610.72,0.73234
5604.93,0.73319
5599.15,0.73287
5593.36,0.73376
5587.58,0.73173
5581.79,0.73044
5576,0.73240
5570.22,0.73251
5564.43,0.73262
5558.64,0.73479
5552.86,0.73376
5547.07,0.73423
5541.29,0.73182
5535.5,0.73304
5529.71,0.73567
5523.93,0.73548
5518.14,0.73342
5512.35,0.73487
5506.57,0.73604
5500.78,0.73600
5495,0.73381
5489.21,0.73573
5483.42,0.73523
5477.64,0.73566
5471.85,0.73365
5466.06,0.73598
5460.28,0.73469
5454.49,0.73570
5448.71,0.73702
5442.92,0.73883
5437.13,0.73843
5431.35,0.73926
5425.56,0.73933
5419.77,0.74113
5413.99,0.74009
5408.2,0.73980
5402.42,0.74258
5396.63,0.74264
5390.84,0.74207
5385.06,0.74085
5379.27,0.74139
5373.48,0.74169
5367.7,0.74008
5361.91,0.73989
5356.13,0.74118
5350.34,0.73995
5344.55,0.73911
5338.77,0.73706
5332.98,0.73621
5327.19,0.73535
5321.41,0.73126
5315.62,0.73015
5309.84,0.72633
5304.05,0.72277
5298.26,0.71934
5292.48,0.71371
5286.69,0.70993
5280.9,0.70478
5275.12,0.69910
5269.33,0.69268
5263.55,0.68604
5257.76,0.68203
5251.97,0.67650
5246.19,0.67064
5240.4,0.66654
5234.61,0.66350
5228.83,0.65954
5223.04,0.65664
5217.26,0.65535
5211.47,0.65290
5205.68,0.65132
5199.9,0.65151
5194.11,0.65022
5188.32,0.65186
5182.54,0.65166
5176.75,0.65171
5170.97,0.65288
5165.18,0.65242
5159.39,0.65334
5153.61,0.65499
5147.82,0.65750
5142.03,0.65717
5136.25,0.65877
5130.46,0.65972
5124.68,0.66103
5118.89,0.66297
5113.1,0.66532
5107.32,0.66531
5101.53,0.66710
5095.75,0.66819
5089.96,0.66898
5084.17,0.66977
5078.39,0.67226
5072.6,0.67395
5066.81,0.67461
5061.03,0.67481
5055.24,0.67631
5049.46,0.67778
5043.67,0.67801
5037.88,0.68014
5032.1,0.68104
5026.31,0.68140
5020.52,0.68200
5014.74,0.68222
5008.95,0.68208
5003.17,0.68282
4997.38,0.68310
4991.59,0.68372
4985.81,0.68246
4980.02,0.68238
4974.23,0.68277
4968.45,0.68181
4962.66,0.67843
4956.88,0.67755
4951.09,0.67627
4945.3,0.67369
4939.52,0.67272
4933.73,0.67053
4927.94,0.66635
4922.16,0.66372
4916.37,0.66234
4910.59,0.65986
4904.8,0.65664
4899.01,0.65391
4893.23,0.65202
4887.44,0.64938
4881.65,0.64689
4875.87,0.64385
4870.08,0.64136
4864.3,0.63966
4858.51,0.63686
4852.72,0.63448
4846.94,0.63304
4841.15,0.63007
4835.36,0.62843
4829.58,0.62590
4823.79,0.62439
4818.01,0.62292
4812.22,0.62245
4806.43,0.62038
4800.65,0.61937
4794.86,0.61882
4789.07,0.61752
4783.29,0.61638
4777.5,0.61558
4771.72,0.61482
4765.93,0.61480
4760.14,0.61410
4754.36,0.61398
4748.57,0.61337
4742.78,0.61402
4737,0.61304
4731.21,0.61309
4725.43,0.61223
4719.64,0.61259
4713.85,0.61276
4708.07,0.61170
4702.28,0.61120
4696.49,0.61029
4690.71,0.61034
4684.92,0.60908
4679.14,0.60771
4673.35,0.60475
4667.56,0.60341
4661.78,0.60401
4655.99,0.60477
4650.2,0.60546
4644.42,0.60480
4638.63,0.60275
4632.85,0.60099
4627.06,0.59921
4621.27,0.59761
4615.49,0.59992
4609.7,0.60056
4603.92,0.60392
4598.13,0.60743
4592.34,0.61027
4586.56,0.61115
4580.77,0.61046
4574.98,0.60943
4569.2,0.60964
4563.41,0.61059
4557.63,0.61012
4551.84,0.61026
4546.05,0.60945
4540.27,0.60741
4534.48,0.60137
4528.69,0.59258
4522.91,0.59910
4517.12,0.61128
4511.34,0.61719
4505.55,0.61999
4499.76,0.62098
4493.98,0.62107
4488.19,0.61967
4482.4,0.61821
4476.62,0.61455
4470.83,0.61048
4465.05,0.60462
4459.26,0.59972
4453.47,0.59371
4447.69,0.58741
4441.9,0.58237
4436.11,0.57738
4430.33,0.57213
4424.54,0.56721
4418.76,0.56058
4412.97,0.55564
4407.18,0.55194
4401.4,0.54851
4395.61,0.54698
4389.82,0.54513
4384.04,0.54454
4378.25,0.54300
4372.47,0.54120
4366.68,0.53981
4360.89,0.53802
4355.11,0.53571
4349.32,0.53332
4343.53,0.53229
4337.75,0.53128
4331.96,0.52998
4326.18,0.52980
4320.39,0.53038
4314.6,0.52910
4308.82,0.52722
4303.03,0.52510
4297.24,0.52297
4291.46,0.52112
4285.67,0.51899
4279.89,0.51729
4274.1,0.51626
4268.31,0.51595
4262.53,0.51521
4256.74,0.51490
4250.95,0.51543
4245.17,0.51857
4239.38,0.52074
4233.6,0.52232
4227.81,0.52336
4222.02,0.52415
4216.24,0.52370
4210.45,0.52384
4204.66,0.52369
4198.88,0.52300
4193.09,0.52290
4187.31,0.52412
4181.52,0.52533
4175.73,0.52634
4169.95,0.52770
4164.16,0.52938
4158.37,0.53003
4152.59,0.52934
4146.8,0.52776
4141.02,0.52580
4135.23,0.52345
4129.44,0.51997
4123.66,0.51621
4117.87,0.51293
4112.09,0.50877
4106.3,0.50398
4100.51,0.49930
4094.73,0.49493
4088.94,0.49113
4083.15,0.48657
4077.37,0.48191
4071.58,0.47610
4065.8,0.47140
4060.01,0.46702
4054.22,0.46274
4048.44,0.46074
4042.65,0.45668
4036.86,0.45482
4031.08,0.45368
4025.29,0.45366
4019.51,0.45435
4013.72,0.45451
4007.93,0.45459
4002.15,0.45504
3996.36,0.45565
3990.57,0.45538
3984.79,0.45560
3979,0.45605
3973.22,0.45654
3967.43,0.45679
3961.64,0.45731
3955.86,0.45624
3950.07,0.45567
3944.28,0.45639
3938.5,0.45740
3932.71,0.45969
3926.93,0.46394
3921.14,0.46677
3915.35,0.46996
3909.57,0.47212
3903.78,0.47332
3897.99,0.47457
3892.21,0.47565
3886.42,0.47664
3880.64,0.47716
3874.85,0.47761
3869.06,0.47904
3863.28,0.47932
3857.49,0.47971
3851.7,0.48011
3845.92,0.48085
3840.13,0.48104
3834.35,0.47975
3828.56,0.47953
3822.77,0.47984
3816.99,0.47901
3811.2,0.47801
3805.41,0.47614
3799.63,0.47326
3793.84,0.47140
3788.06,0.46826
3782.27,0.46447
3776.48,0.45997
3770.7,0.45504
3764.91,0.44938
3759.12,0.44213
3753.34,0.43325
3747.55,0.42172
3741.77,0.40688
3735.98,0.39013
3730.19,0.36582
3724.41,0.33331
3718.62,0.28761
3712.83,0.23251
3707.05,0.17760
3701.26,0.12886
3695.48,0.09811
3689.69,0.09655
3683.9,0.10917
3678.12,0.11725
3672.33,0.11093
3666.54,0.11110
3660.76,0.11224
3654.97,0.10262
3649.19,0.10131
3643.4,0.11021
3637.61,0.11603
3631.83,0.11316
3626.04,0.09710
3620.25,0.08446
3614.47,0.10601
3608.68,0.12032
3602.9,0.12578
3597.11,0.12631
3591.32,0.12498
3585.54,0.12394
3579.75,0.12327
3573.97,0.12224
3568.18,0.12128
3562.39,0.12103
3556.61,0.11944
3550.82,0.11965
3545.03,0.11936
3539.25,0.11941
3533.46,0.11885
3527.68,0.11785
3521.89,0.11702
3516.1,0.11535
3510.32,0.11386
3504.53,0.11383
3498.74,0.11276
3492.96,0.11195
3487.17,0.10930
3481.39,0.10801
3475.6,0.10791
3469.81,0.10700
3464.03,0.10576
3458.24,0.10441
3452.45,0.10380
3446.67,0.10331
3440.88,0.10246
3435.1,0.10176
3429.31,0.10132
3423.52,0.10152
3417.74,0.10140
3411.95,0.10159
3406.16,0.10252
3400.38,0.10247
3394.59,0.10264
3388.81,0.10344
3383.02,0.10317
3377.23,0.10430
3371.45,0.10494
3365.66,0.10540
3359.87,0.10648
3354.09,0.10730
3348.3,0.10697
3342.52,0.10840
3336.73,0.10978
3330.94,0.11025
3325.16,0.11119
3319.37,0.11208
3313.58,0.11258
3307.8,0.11390
3302.01,0.11441
3296.23,0.11561
3290.44,0.11632
3284.65,0.11819
3278.87,0.11934
3273.08,0.12102
3267.29,0.12234
3261.51,0.12337
3255.72,0.12552
3249.94,0.12586
3244.15,0.12757
3238.36,0.12874
3232.58,0.13074
3226.79,0.13144
3221,0.13302
3215.22,0.13450
3209.43,0.13599
3203.65,0.13779
3197.86,0.13937
3192.07,0.14156
3186.29,0.14235
3180.5,0.14417
3174.71,0.14618
3168.93,0.14734
3163.14,0.14967
3157.36,0.15182
3151.57,0.15387
3145.78,0.15541
3140,0.15762
3134.21,0.15923
3128.42,0.16036
3122.64,0.16206
3116.85,0.16334
3111.07,0.16348
3105.28,0.16242
3099.49,0.16443
3093.71,0.16485
3087.92,0.15983
3082.14,0.15916
3076.35,0.16381
3070.56,0.16255
3064.78,0.15665
3058.99,0.15625
3053.2,0.16334
3047.42,0.16745
3041.63,0.16600
3035.85,0.15725
3030.06,0.14186
3024.27,0.14326
3018.49,0.15796
3012.7,0.16255
3006.91,0.15784
3001.13,0.15004
2995.34,0.14080
2989.56,0.12569
2983.77,0.11375
2977.98,0.10572
2972.2,0.09626
2966.41,0.08589
2960.62,0.07932
2954.84,0.07988
2949.05,0.08316
2943.27,0.08397
2937.48,0.08120
2931.69,0.07896
2925.91,0.08169
2920.12,0.08467
2914.33,0.08938
2908.55,0.09492
2902.76,0.09892
2896.98,0.10205
2891.19,0.10344
2885.4,0.10190
2879.62,0.09430
2873.83,0.08904
2868.04,0.09258
2862.26,0.09893
2856.47,0.10419
2850.69,0.11159
2844.9,0.12526
2839.11,0.14395
2833.33,0.16165
2827.54,0.17491
2821.75,0.18563
2815.97,0.19398
2810.18,0.19991
2804.4,0.20493
2798.61,0.20935
2792.82,0.21447
2787.04,0.21856
2781.25,0.22234
2775.46,0.22498
2769.68,0.22797
2763.89,0.22894
2758.11,0.23081
2752.32,0.23174
2746.53,0.23224
2740.75,0.23261
2734.96,0.23285
2729.17,0.23425
2723.39,0.23664
2717.6,0.23832
2711.82,0.23993
2706.03,0.24166
2700.24,0.24427
2694.46,0.24612
2688.67,0.24798
2682.88,0.24989
2677.1,0.25118
2671.31,0.25186
2665.53,0.25227
2659.74,0.25244
2653.95,0.25226
2648.17,0.25132
2642.38,0.24906
2636.59,0.24323
2630.81,0.23487
2625.02,0.22644
2619.24,0.21869
2613.45,0.20980
2607.66,0.20002
2601.88,0.19281
2596.09,0.18855
2590.3,0.18611
2584.52,0.18436
2578.73,0.18327
2572.95,0.18179
2567.16,0.17994
2561.37,0.17764
2555.59,0.17279
2549.8,0.16764
2544.02,0.16203
2538.23,0.15119
2532.44,0.12951
2526.66,0.11115
2520.87,0.10100
2515.08,0.09698
2509.3,0.09994
2503.51,0.11375
2497.73,0.13860
2491.94,0.16854
2486.15,0.19409
2480.37,0.21660
2474.58,0.23735
2468.79,0.25404
2463.01,0.26462
2457.22,0.27167
2451.44,0.27720
2445.65,0.28191
2439.86,0.28549
2434.08,0.28910
2428.29,0.29237
2422.5,0.29520
2416.72,0.29807
2410.93,0.30037
2405.15,0.30276
2399.36,0.30437
2393.57,0.30545
2387.79,0.30739
2382,0.30865
2376.21,0.30975
2370.43,0.31093
2364.64,0.31173
2358.86,0.31226
2353.07,0.31206
2347.28,0.31177
2341.5,0.31090
2335.71,0.31118
2329.92,0.31230
2324.14,0.31269
2318.35,0.31196
2312.57,0.31123
2306.78,0.31085
2300.99,0.31096
2295.21,0.31100
2289.42,0.31034
2283.63,0.31035
2277.85,0.30946
2272.06,0.30750
2266.28,0.30529
2260.49,0.30300
2254.7,0.30063
2248.92,0.29900
2243.13,0.29710
2237.34,0.29480
2231.56,0.29192
2225.77,0.28919
2219.99,0.28828
2214.2,0.28865
2208.41,0.28811
2202.63,0.28721
2196.84,0.28500
2191.05,0.28252
2185.27,0.27876
2179.48,0.27543
2173.7,0.27180
2167.91,0.26800
2162.12,0.26359
2156.34,0.25834
2150.55,0.25182
2144.76,0.24709
2138.98,0.24556
2133.19,0.24638
2127.41,0.25005
2121.62,0.25431
2115.83,0.25838
2110.05,0.26047
2104.26,0.26178
2098.47,0.26254
2092.69,0.26283
2086.9,0.26234
2081.12,0.26093
2075.33,0.25885
2069.54,0.25713
2063.76,0.25480
2057.97,0.25300
2052.19,0.25116
2046.4,0.24944
2040.61,0.24723
2034.83,0.24597
2029.04,0.24514
2023.25,0.24525
2017.47,0.24468
2011.68,0.24315
2005.9,0.24088
2000.11,0.23918
1994.32,0.23833
1988.54,0.23757
1982.75,0.23687
1976.96,0.23585
1971.18,0.23410
1965.39,0.23147
1959.61,0.22817
1953.82,0.22904
1948.03,0.22858
1942.25,0.22883
1936.46,0.23132
1930.67,0.23372
1924.89,0.23497
1919.1,0.23459
1913.32,0.23117
1907.53,0.22647
1901.74,0.22069
1895.96,0.21444
1890.17,0.20859
1884.38,0.20449
1878.6,0.20062
1872.81,0.19780
1867.03,0.19693
1861.24,0.19905
1855.45,0.20220
1849.67,0.20320
1843.88,0.20128
1838.09,0.19565
1832.31,0.18604
1826.52,0.17368
1820.74,0.16207
1814.95,0.15118
1809.16,0.13108
1803.38,0.08989
1797.59,0.05860
1791.8,0.06405
1786.02,0.09795
1780.23,0.11847
1774.45,0.12111
1768.66,0.11207
1762.87,0.09773
1757.09,0.08033
1751.3,0.06324
1745.51,0.04895
1739.73,0.03956
1733.94,0.03728
1728.16,0.03979
1722.37,0.04762
1716.58,0.06071
1710.8,0.07026
1705.01,0.07492
1699.22,0.07692
1693.44,0.07657
1687.65,0.07374
1681.87,0.07108
1676.08,0.06905
1670.29,0.06679
1664.51,0.06465
1658.72,0.06417
1652.93,0.06452
1647.15,0.06392
1641.36,0.06237
1635.58,0.06173
1629.79,0.06049
1624,0.05896
1618.22,0.05789
1612.43,0.05666
1606.64,0.05603
1600.86,0.05607
1595.07,0.05820
1589.29,0.06035
1583.5,0.06363
1577.71,0.07117
1571.93,0.08017
1566.14,0.08833
1560.35,0.09502
1554.57,0.10247
1548.78,0.10396
1543,0.10340
1537.21,0.10152
1531.42,0.10002
1525.64,0.09881
1519.85,0.09674
1514.07,0.09512
1508.28,0.09387
1502.49,0.09361
1496.71,0.09281
1490.92,0.09275
1485.13,0.09341
1479.35,0.09344
1473.56,0.09432
1467.78,0.09449
1461.99,0.09512
1456.2,0.09556
1450.42,0.09629
1444.63,0.09656
1438.84,0.09787
1433.06,0.09974
1427.27,0.10213
1421.49,0.10430
1415.7,0.10621
1409.91,0.10627
1404.13,0.10089
1398.34,0.09605
1392.55,0.09381
1386.77,0.09208
1380.98,0.09180
1375.2,0.09246
1369.41,0.09588
1363.62,0.10036
1357.84,0.10555
1352.05,0.10963
1346.26,0.11280
1340.48,0.11615
1334.69,0.11822
1328.91,0.11890
1323.12,0.11885
1317.33,0.11991
1311.55,0.12127
1305.76,0.12388
1299.97,0.12645
1294.19,0.12710
1288.4,0.12501
1282.62,0.12094
1276.83,0.11612
1271.04,0.11097
1265.26,0.10652
1259.47,0.10415
1253.68,0.10167
1247.9,0.09897
1242.11,0.09759
1236.33,0.09768
1230.54,0.09980
1224.75,0.10239
1218.97,0.10338
1213.18,0.10150
1207.39,0.09873
1201.61,0.09590
1195.82,0.09180
1190.04,0.08787
1184.25,0.08385
1178.46,0.07985
1172.68,0.07700
1166.89,0.07466
1161.1,0.07216
1155.32,0.07473
1149.53,0.07889
1143.75,0.08250
1137.96,0.08504
1132.17,0.08482
1126.39,0.08257
1120.6,0.07823
1114.81,0.07284
1109.03,0.07378
1103.24,0.07632
1097.46,0.07896
1091.67,0.08057
1085.88,0.08237
1080.1,0.08469
1074.31,0.08481
1068.52,0.08273
1062.74,0.07990
1056.95,0.07803
1051.17,0.07741
1045.38,0.07722
1039.59,0.07830
1033.81,0.07838
1028.02,0.07676
1022.24,0.07478
1016.45,0.07448
1010.66,0.07618
1004.88,0.07620
999.09,0.07411
993.304,0.07199
987.518,0.07018
981.731,0.06788
975.945,0.06728
970.159,0.06631
964.373,0.06475
958.586,0.06417
952.8,0.06315
947.014,0.06154
941.228,0.06029
935.441,0.05925
929.655,0.05851
923.869,0.05799
918.083,0.05776
912.297,0.05900
906.51,0.06023
900.724,0.06242
894.938,0.06442
889.152,0.06809
883.365,0.06248
877.579,0.06714
871.793,0.06889
866.007,0.06745
860.22,0.06407
854.434,0.06072
848.648,0.05617
842.862,0.05602
837.075,0.05317
831.289,0.05086
825.503,0.04936
819.717,0.04703
813.931,0.04515
808.144,0.04418
802.358,0.04505
796.572,0.04449
790.786,0.04297
784.999,0.04306
779.213,0.04295
773.427,0.04183
767.641,0.04176
761.854,0.04075
756.068,0.04059
750.282,0.03974
744.496,0.03944
738.709,0.03854
732.923,0.03810
727.137,0.03853
721.351,0.03712
715.565,0.03817
709.778,0.04442
703.992,0.04345
698.206,0.04479
692.42,0.04414
686.633,0.04463
680.847,0.04520
675.061,0.04642
669.275,0.04533
663.488,0.04599
657.702,0.04589
651.916,0.04481
646.13,0.04547
640.343,0.04638
634.557,0.04575
628.771,0.04505
622.985,0.04468
617.198,0.04263
611.412,0.04611
605.626,0.04617
599.84,0.04707