File: 01_Data/Pine_Lap_Siding/FTIR/IS/Pine_Lap_Siding_IS_S_220916_R7.dpt
7497.03,0.82482
7491.25,0.82909
7485.46,0.82337
7479.67,0.82420
7473.89,0.83093
7468.1,0.82254
7462.32,0.83110
7456.53,0.82556
7450.74,0.82178
7444.96,0.82288
7439.17,0.81208
7433.38,0.81398
7427.6,0.81557
7421.81,0.81628
7416.03,0.81484
7410.24,0.80402
7404.45,0.80959
7398.67,0.81148
7392.88,0.80494
7387.09,0.80331
7381.31,0.80069
7375.52,0.81216
7369.74,0.80493
7363.95,0.80155
7358.16,0.80707
7352.38,0.80594
7346.59,0.80163
7340.8,0.80417
7335.02,0.80150
7329.23,0.79636
7323.45,0.79909
7317.66,0.80181
7311.87,0.80181
7306.09,0.79492
7300.3,0.80110
7294.51,0.79848
7288.73,0.79001
7282.94,0.80078
7277.16,0.79764
7271.37,0.79406
7265.58,0.79191
7259.8,0.79519
7254.01,0.79525
7248.22,0.79355
7242.44,0.78695
7236.65,0.78734
7230.87,0.78889
7225.08,0.78707
7219.29,0.78975
7213.51,0.78244
7207.72,0.77759
7201.93,0.78117
7196.15,0.77714
7190.36,0.77534
7184.58,0.77028
7178.79,0.76366
7173,0.76527
7167.22,0.76585
7161.43,0.76078
7155.65,0.76219
7149.86,0.76927
7144.07,0.76149
7138.29,0.76110
7132.5,0.76342
7126.71,0.75802
7120.93,0.75531
7115.14,0.75447
7109.36,0.76198
7103.57,0.75759
7097.78,0.75264
7092,0.75042
7086.21,0.74617
7080.42,0.74410
7074.64,0.73233
7068.85,0.72016
7063.07,0.72554
7057.28,0.73391
7051.49,0.74187
7045.71,0.74126
7039.92,0.73822
7034.13,0.74378
7028.35,0.74382
7022.56,0.73872
7016.78,0.73623
7010.99,0.73491
7005.2,0.73358
6999.42,0.73369
6993.63,0.73972
6987.84,0.73339
6982.06,0.73746
6976.27,0.72836
6970.49,0.73128
6964.7,0.73403
6958.91,0.73339
6953.13,0.72760
6947.34,0.72510
6941.55,0.72586
6935.77,0.73213
6929.98,0.72456
6924.2,0.73062
6918.41,0.73279
6912.62,0.72824
6906.84,0.72715
6901.05,0.73183
6895.26,0.73385
6889.48,0.73264
6883.69,0.72994
6877.91,0.72919
6872.12,0.73202
6866.33,0.73136
6860.55,0.73082
6854.76,0.73058
6848.97,0.73019
6843.19,0.73260
6837.4,0.73000
6831.62,0.72540
6825.83,0.73168
6820.04,0.72350
6814.26,0.72982
6808.47,0.72887
6802.68,0.73444
6796.9,0.73199
6791.11,0.72812
6785.33,0.73032
6779.54,0.73268
6773.75,0.72961
6767.97,0.72716
6762.18,0.72600
6756.39,0.72704
6750.61,0.73124
6744.82,0.73038
6739.04,0.72739
6733.25,0.73038
6727.46,0.73005
6721.68,0.73321
6715.89,0.72925
6710.1,0.73004
6704.32,0.73490
6698.53,0.73293
6692.75,0.73197
6686.96,0.73244
6681.17,0.72995
6675.39,0.72909
6669.6,0.73031
6663.82,0.72812
6658.03,0.73388
6652.24,0.72887
6646.46,0.73078
6640.67,0.73639
6634.88,0.73141
6629.1,0.73207
6623.31,0.73418
6617.53,0.73768
6611.74,0.73684
6605.95,0.73392
6600.17,0.73820
6594.38,0.74126
6588.59,0.73765
6582.81,0.73465
6577.02,0.73518
6571.24,0.73522
6565.45,0.74342
6559.66,0.73589
6553.88,0.73827
6548.09,0.73893
6542.3,0.73678
6536.52,0.74008
6530.73,0.73154
6524.95,0.73748
6519.16,0.73947
6513.37,0.73627
6507.59,0.73827
6501.8,0.73827
6496.01,0.74064
6490.23,0.73607
6484.44,0.74011
6478.66,0.74166
6472.87,0.73727
6467.08,0.74135
6461.3,0.73821
6455.51,0.73648
6449.72,0.74171
6443.94,0.73568
6438.15,0.73777
6432.37,0.73851
6426.58,0.73737
6420.79,0.74011
6415.01,0.74072
6409.22,0.73880
6403.43,0.73887
6397.65,0.74142
6391.86,0.74359
6386.08,0.74050
6380.29,0.73953
6374.5,0.73931
6368.72,0.73920
6362.93,0.74009
6357.14,0.73837
6351.36,0.73924
6345.57,0.74078
6339.79,0.74295
6334,0.73736
6328.21,0.73872
6322.43,0.73928
6316.64,0.74402
6310.85,0.73961
6305.07,0.73826
6299.28,0.74279
6293.5,0.74272
6287.71,0.74379
6281.92,0.74536
6276.14,0.74229
6270.35,0.74183
6264.56,0.74505
6258.78,0.74569
6252.99,0.74247
6247.21,0.74966
6241.42,0.74649
6235.63,0.75086
6229.85,0.74715
6224.06,0.74882
6218.27,0.74947
6212.49,0.75444
6206.7,0.74874
6200.92,0.75188
6195.13,0.75309
6189.34,0.75482
6183.56,0.75260
6177.77,0.75423
6171.98,0.75371
6166.2,0.75495
6160.41,0.75615
6154.63,0.75679
6148.84,0.75395
6143.05,0.75400
6137.27,0.75603
6131.48,0.75833
6125.7,0.75747
6119.91,0.75720
6114.12,0.75707
6108.34,0.75903
6102.55,0.76022
6096.76,0.75570
6090.98,0.76058
6085.19,0.75842
6079.41,0.75683
6073.62,0.75620
6067.83,0.75653
6062.05,0.75743
6056.26,0.75441
6050.47,0.75977
6044.69,0.75681
6038.9,0.75547
6033.12,0.75245
6027.33,0.75202
6021.54,0.74738
6015.76,0.75137
6009.97,0.74667
6004.18,0.74379
5998.4,0.74241
5992.61,0.74299
5986.83,0.73927
5981.04,0.73795
5975.25,0.73588
5969.47,0.73582
5963.68,0.73568
5957.89,0.73494
5952.11,0.73573
5946.32,0.73658
5940.54,0.73779
5934.75,0.73845
5928.96,0.73713
5923.18,0.73542
5917.39,0.73667
5911.6,0.73468
5905.82,0.73560
5900.03,0.73548
5894.25,0.73192
5888.46,0.73482
5882.67,0.73214
5876.89,0.73105
5871.1,0.73235
5865.31,0.73132
5859.53,0.73283
5853.74,0.73349
5847.96,0.73552
5842.17,0.73446
5836.38,0.73366
5830.6,0.73346
5824.81,0.73326
5819.02,0.73044
5813.24,0.73183
5807.45,0.73045
5801.67,0.73231
5795.88,0.73312
5790.09,0.73182
5784.31,0.73040
5778.52,0.73180
5772.73,0.73157
5766.95,0.73364
5761.16,0.73208
5755.38,0.73497
5749.59,0.73232
5743.8,0.73268
5738.02,0.73416
5732.23,0.73190
5726.44,0.73083
5720.66,0.73234
5714.87,0.73293
5709.09,0.73321
5703.3,0.73107
5697.51,0.73101
5691.73,0.73097
5685.94,0.73273
5680.15,0.73220
5674.37,0.73300
5668.58,0.73196
5662.8,0.73049
5657.01,0.73148
5651.22,0.73380
5645.44,0.73187
5639.65,0.73179
5633.87,0.73038
5628.08,0.73356
5622.29,0.73165
5616.51,0.73218
5610.72,0.73252
5604.93,0.73249
5599.15,0.73239
5593.36,0.73249
5587.58,0.73266
5581.79,0.73124
5576,0.73095
5570.22,0.73239
5564.43,0.73302
5558.64,0.73537
5552.86,0.73378
5547.07,0.73512
5541.29,0.73325
5535.5,0.73308
5529.71,0.73340
5523.93,0.73457
5518.14,0.73307
5512.35,0.73253
5506.57,0.73647
5500.78,0.73298
5495,0.73360
5489.21,0.73314
5483.42,0.73419
5477.64,0.73590
5471.85,0.73549
5466.06,0.73558
5460.28,0.73678
5454.49,0.73600
5448.71,0.73632
5442.92,0.73728
5437.13,0.73833
5431.35,0.73837
5425.56,0.73761
5419.77,0.73930
5413.99,0.73984
5408.2,0.73854
5402.42,0.74080
5396.63,0.74095
5390.84,0.74240
5385.06,0.74051
5379.27,0.73986
5373.48,0.73952
5367.7,0.74206
5361.91,0.74072
5356.13,0.73858
5350.34,0.73797
5344.55,0.73869
5338.77,0.73728
5332.98,0.73470
5327.19,0.73481
5321.41,0.73328
5315.62,0.73029
5309.84,0.72674
5304.05,0.72256
5298.26,0.71957
5292.48,0.71648
5286.69,0.71266
5280.9,0.70598
5275.12,0.70004
5269.33,0.69327
5263.55,0.68801
5257.76,0.68191
5251.97,0.67735
5246.19,0.67243
5240.4,0.66693
5234.61,0.66454
5228.83,0.66137
5223.04,0.65972
5217.26,0.65708
5211.47,0.65532
5205.68,0.65547
5199.9,0.65267
5194.11,0.65288
5188.32,0.65313
5182.54,0.65341
5176.75,0.65356
5170.97,0.65391
5165.18,0.65562
5159.39,0.65595
5153.61,0.65775
5147.82,0.65850
5142.03,0.65847
5136.25,0.65844
5130.46,0.66155
5124.68,0.66523
5118.89,0.66475
5113.1,0.66792
5107.32,0.66885
5101.53,0.66947
5095.75,0.67027
5089.96,0.67021
5084.17,0.67215
5078.39,0.67354
5072.6,0.67507
5066.81,0.67566
5061.03,0.67706
5055.24,0.67780
5049.46,0.67883
5043.67,0.68021
5037.88,0.68060
5032.1,0.68179
5026.31,0.68143
5020.52,0.68188
5014.74,0.68316
5008.95,0.68268
5003.17,0.68389
4997.38,0.68416
4991.59,0.68387
4985.81,0.68330
4980.02,0.68238
4974.23,0.68142
4968.45,0.68008
4962.66,0.67970
4956.88,0.67755
4951.09,0.67594
4945.3,0.67372
4939.52,0.67046
4933.73,0.66852
4927.94,0.66540
4922.16,0.66328
4916.37,0.65979
4910.59,0.65769
4904.8,0.65646
4899.01,0.65375
4893.23,0.65045
4887.44,0.64763
4881.65,0.64564
4875.87,0.64355
4870.08,0.64077
4864.3,0.63829
4858.51,0.63558
4852.72,0.63308
4846.94,0.63252
4841.15,0.62961
4835.36,0.62850
4829.58,0.62582
4823.79,0.62409
4818.01,0.62242
4812.22,0.62082
4806.43,0.61966
4800.65,0.61827
4794.86,0.61585
4789.07,0.61651
4783.29,0.61533
4777.5,0.61533
4771.72,0.61521
4765.93,0.61401
4760.14,0.61241
4754.36,0.61244
4748.57,0.61213
4742.78,0.61205
4737,0.61235
4731.21,0.61221
4725.43,0.61184
4719.64,0.61182
4713.85,0.61165
4708.07,0.61214
4702.28,0.60994
4696.49,0.61024
4690.71,0.60949
4684.92,0.60770
4679.14,0.60653
4673.35,0.60278
4667.56,0.60250
4661.78,0.60318
4655.99,0.60452
4650.2,0.60400
4644.42,0.60284
4638.63,0.60183
4632.85,0.60070
4627.06,0.59916
4621.27,0.59902
4615.49,0.59918
4609.7,0.60023
4603.92,0.60258
4598.13,0.60601
4592.34,0.60892
4586.56,0.61013
4580.77,0.60938
4574.98,0.60924
4569.2,0.60913
4563.41,0.60993
4557.63,0.60946
4551.84,0.60940
4546.05,0.60888
4540.27,0.60685
4534.48,0.60051
4528.69,0.59200
4522.91,0.59791
4517.12,0.61060
4511.34,0.61744
4505.55,0.61889
4499.76,0.61969
4493.98,0.62046
4488.19,0.61831
4482.4,0.61684
4476.62,0.61362
4470.83,0.60821
4465.05,0.60344
4459.26,0.59784
4453.47,0.59275
4447.69,0.58664
4441.9,0.58160
4436.11,0.57606
4430.33,0.57057
4424.54,0.56566
4418.76,0.55979
4412.97,0.55473
4407.18,0.55052
4401.4,0.54793
4395.61,0.54572
4389.82,0.54453
4384.04,0.54370
4378.25,0.54283
4372.47,0.54043
4366.68,0.53948
4360.89,0.53659
4355.11,0.53430
4349.32,0.53257
4343.53,0.53063
4337.75,0.52924
4331.96,0.52982
4326.18,0.52854
4320.39,0.52797
4314.6,0.52795
4308.82,0.52546
4303.03,0.52405
4297.24,0.52202
4291.46,0.51998
4285.67,0.51796
4279.89,0.51643
4274.1,0.51545
4268.31,0.51436
4262.53,0.51381
4256.74,0.51461
4250.95,0.51503
4245.17,0.51665
4239.38,0.52005
4233.6,0.52178
4227.81,0.52250
4222.02,0.52307
4216.24,0.52359
4210.45,0.52217
4204.66,0.52248
4198.88,0.52139
4193.09,0.52214
4187.31,0.52289
4181.52,0.52396
4175.73,0.52591
4169.95,0.52723
4164.16,0.52901
4158.37,0.52867
4152.59,0.52875
4146.8,0.52648
4141.02,0.52493
4135.23,0.52263
4129.44,0.51977
4123.66,0.51551
4117.87,0.51258
4112.09,0.50782
4106.3,0.50270
4100.51,0.49928
4094.73,0.49522
4088.94,0.49139
4083.15,0.48694
4077.37,0.48112
4071.58,0.47506
4065.8,0.47036
4060.01,0.46664
4054.22,0.46330
4048.44,0.45981
4042.65,0.45630
4036.86,0.45361
4031.08,0.45313
4025.29,0.45334
4019.51,0.45366
4013.72,0.45444
4007.93,0.45389
4002.15,0.45366
3996.36,0.45491
3990.57,0.45485
3984.79,0.45534
3979,0.45527
3973.22,0.45607
3967.43,0.45613
3961.64,0.45632
3955.86,0.45586
3950.07,0.45541
3944.28,0.45642
3938.5,0.45712
3932.71,0.45952
3926.93,0.46291
3921.14,0.46584
3915.35,0.46995
3909.57,0.47224
3903.78,0.47331
3897.99,0.47415
3892.21,0.47516
3886.42,0.47630
3880.64,0.47646
3874.85,0.47716
3869.06,0.47897
3863.28,0.47870
3857.49,0.47932
3851.7,0.48009
3845.92,0.47950
3840.13,0.48068
3834.35,0.47981
3828.56,0.48044
3822.77,0.48016
3816.99,0.47921
3811.2,0.47753
3805.41,0.47567
3799.63,0.47365
3793.84,0.47089
3788.06,0.46789
3782.27,0.46428
3776.48,0.45997
3770.7,0.45563
3764.91,0.44979
3759.12,0.44181
3753.34,0.43365
3747.55,0.42179
3741.77,0.40714
3735.98,0.39065
3730.19,0.36554
3724.41,0.33298
3718.62,0.28785
3712.83,0.23219
3707.05,0.17709
3701.26,0.12883
3695.48,0.09793
3689.69,0.09646
3683.9,0.10941
3678.12,0.11772
3672.33,0.11106
3666.54,0.11070
3660.76,0.11188
3654.97,0.10216
3649.19,0.10116
3643.4,0.11056
3637.61,0.11598
3631.83,0.11244
3626.04,0.09691
3620.25,0.08410
3614.47,0.10598
3608.68,0.12086
3602.9,0.12516
3597.11,0.12544
3591.32,0.12546
3585.54,0.12397
3579.75,0.12307
3573.97,0.12191
3568.18,0.12139
3562.39,0.12072
3556.61,0.11989
3550.82,0.11975
3545.03,0.12015
3539.25,0.11934
3533.46,0.11844
3527.68,0.11847
3521.89,0.11674
3516.1,0.11525
3510.32,0.11450
3504.53,0.11350
3498.74,0.11298
3492.96,0.11163
3487.17,0.10867
3481.39,0.10839
3475.6,0.10768
3469.81,0.10689
3464.03,0.10575
3458.24,0.10568
3452.45,0.10437
3446.67,0.10237
3440.88,0.10231
3435.1,0.10245
3429.31,0.10153
3423.52,0.10137
3417.74,0.10146
3411.95,0.10137
3406.16,0.10217
3400.38,0.10238
3394.59,0.10273
3388.81,0.10322
3383.02,0.10416
3377.23,0.10423
3371.45,0.10475
3365.66,0.10568
3359.87,0.10597
3354.09,0.10808
3348.3,0.10791
3342.52,0.10889
3336.73,0.10917
3330.94,0.11083
3325.16,0.11129
3319.37,0.11278
3313.58,0.11396
3307.8,0.11397
3302.01,0.11482
3296.23,0.11640
3290.44,0.11715
3284.65,0.11827
3278.87,0.11919
3273.08,0.12103
3267.29,0.12258
3261.51,0.12405
3255.72,0.12600
3249.94,0.12655
3244.15,0.12856
3238.36,0.12995
3232.58,0.13126
3226.79,0.13243
3221,0.13372
3215.22,0.13479
3209.43,0.13610
3203.65,0.13829
3197.86,0.13962
3192.07,0.14114
3186.29,0.14327
3180.5,0.14441
3174.71,0.14642
3168.93,0.14834
3163.14,0.15007
3157.36,0.15236
3151.57,0.15419
3145.78,0.15547
3140,0.15846
3134.21,0.15923
3128.42,0.16148
3122.64,0.16253
3116.85,0.16425
3111.07,0.16342
3105.28,0.16334
3099.49,0.16469
3093.71,0.16542
3087.92,0.16032
3082.14,0.15883
3076.35,0.16354
3070.56,0.16276
3064.78,0.15714
3058.99,0.15642
3053.2,0.16413
3047.42,0.16803
3041.63,0.16680
3035.85,0.15739
3030.06,0.14184
3024.27,0.14260
3018.49,0.15714
3012.7,0.16266
3006.91,0.15776
3001.13,0.14989
2995.34,0.14068
2989.56,0.12536
2983.77,0.11322
2977.98,0.10573
2972.2,0.09626
2966.41,0.08612
2960.62,0.07974
2954.84,0.07948
2949.05,0.08337
2943.27,0.08350
2937.48,0.08094
2931.69,0.07914
2925.91,0.08107
2920.12,0.08469
2914.33,0.08950
2908.55,0.09504
2902.76,0.09917
2896.98,0.10195
2891.19,0.10398
2885.4,0.10175
2879.62,0.09384
2873.83,0.08907
2868.04,0.09254
2862.26,0.09817
2856.47,0.10441
2850.69,0.11177
2844.9,0.12494
2839.11,0.14365
2833.33,0.16164
2827.54,0.17527
2821.75,0.18562
2815.97,0.19371
2810.18,0.19931
2804.4,0.20475
2798.61,0.20928
2792.82,0.21455
2787.04,0.21868
2781.25,0.22163
2775.46,0.22494
2769.68,0.22729
2763.89,0.22898
2758.11,0.23081
2752.32,0.23168
2746.53,0.23192
2740.75,0.23223
2734.96,0.23269
2729.17,0.23389
2723.39,0.23604
2717.6,0.23821
2711.82,0.23988
2706.03,0.24196
2700.24,0.24393
2694.46,0.24595
2688.67,0.24787
2682.88,0.24898
2677.1,0.25065
2671.31,0.25130
2665.53,0.25202
2659.74,0.25207
2653.95,0.25215
2648.17,0.25108
2642.38,0.24842
2636.59,0.24346
2630.81,0.23449
2625.02,0.22569
2619.24,0.21819
2613.45,0.20963
2607.66,0.19953
2601.88,0.19259
2596.09,0.18842
2590.3,0.18594
2584.52,0.18421
2578.73,0.18349
2572.95,0.18183
2567.16,0.17962
2561.37,0.17691
2555.59,0.17288
2549.8,0.16773
2544.02,0.16199
2538.23,0.15080
2532.44,0.12937
2526.66,0.11081
2520.87,0.10053
2515.08,0.09727
2509.3,0.09988
2503.51,0.11389
2497.73,0.13818
2491.94,0.16814
2486.15,0.19379
2480.37,0.21637
2474.58,0.23749
2468.79,0.25391
2463.01,0.26458
2457.22,0.27162
2451.44,0.27711
2445.65,0.28166
2439.86,0.28540
2434.08,0.28848
2428.29,0.29190
2422.5,0.29483
2416.72,0.29766
2410.93,0.30059
2405.15,0.30194
2399.36,0.30397
2393.57,0.30540
2387.79,0.30758
2382,0.30875
2376.21,0.31017
2370.43,0.31132
2364.64,0.31195
2358.86,0.31230
2353.07,0.31209
2347.28,0.31208
2341.5,0.31069
2335.71,0.31124
2329.92,0.31230
2324.14,0.31275
2318.35,0.31236
2312.57,0.31174
2306.78,0.31155
2300.99,0.31130
2295.21,0.31088
2289.42,0.31129
2283.63,0.31112
2277.85,0.31003
2272.06,0.30819
2266.28,0.30612
2260.49,0.30357
2254.7,0.30114
2248.92,0.29908
2243.13,0.29760
2237.34,0.29536
2231.56,0.29222
2225.77,0.28983
2219.99,0.28865
2214.2,0.28894
2208.41,0.28852
2202.63,0.28792
2196.84,0.28572
2191.05,0.28302
2185.27,0.27966
2179.48,0.27615
2173.7,0.27194
2167.91,0.26893
2162.12,0.26425
2156.34,0.25901
2150.55,0.25273
2144.76,0.24779
2138.98,0.24630
2133.19,0.24717
2127.41,0.25057
2121.62,0.25533
2115.83,0.25919
2110.05,0.26133
2104.26,0.26236
2098.47,0.26330
2092.69,0.26364
2086.9,0.26329
2081.12,0.26174
2075.33,0.25980
2069.54,0.25768
2063.76,0.25557
2057.97,0.25358
2052.19,0.25168
2046.4,0.24970
2040.61,0.24788
2034.83,0.24649
2029.04,0.24565
2023.25,0.24596
2017.47,0.24543
2011.68,0.24329
2005.9,0.24134
2000.11,0.23961
1994.32,0.23886
1988.54,0.23796
1982.75,0.23764
1976.96,0.23641
1971.18,0.23471
1965.39,0.23193
1959.61,0.22869
1953.82,0.22963
1948.03,0.22920
1942.25,0.22952
1936.46,0.23176
1930.67,0.23453
1924.89,0.23583
1919.1,0.23508
1913.32,0.23153
1907.53,0.22691
1901.74,0.22072
1895.96,0.21462
1890.17,0.20896
1884.38,0.20467
1878.6,0.20059
1872.81,0.19791
1867.03,0.19742
1861.24,0.19965
1855.45,0.20201
1849.67,0.20336
1843.88,0.20126
1838.09,0.19550
1832.31,0.18670
1826.52,0.17425
1820.74,0.16252
1814.95,0.15122
1809.16,0.13116
1803.38,0.08979
1797.59,0.05892
1791.8,0.06385
1786.02,0.09784
1780.23,0.11850
1774.45,0.12081
1768.66,0.11192
1762.87,0.09758
1757.09,0.08055
1751.3,0.06336
1745.51,0.04874
1739.73,0.03979
1733.94,0.03677
1728.16,0.03987
1722.37,0.04784
1716.58,0.06074
1710.8,0.07061
1705.01,0.07491
1699.22,0.07724
1693.44,0.07682
1687.65,0.07434
1681.87,0.07168
1676.08,0.06933
1670.29,0.06706
1664.51,0.06530
1658.72,0.06441
1652.93,0.06463
1647.15,0.06404
1641.36,0.06290
1635.58,0.06143
1629.79,0.06049
1624,0.05911
1618.22,0.05769
1612.43,0.05709
1606.64,0.05554
1600.86,0.05554
1595.07,0.05841
1589.29,0.06019
1583.5,0.06384
1577.71,0.07102
1571.93,0.08020
1566.14,0.08772
1560.35,0.09528
1554.57,0.10170
1548.78,0.10369
1543,0.10341
1537.21,0.10136
1531.42,0.09995
1525.64,0.09857
1519.85,0.09668
1514.07,0.09492
1508.28,0.09387
1502.49,0.09280
1496.71,0.09235
1490.92,0.09278
1485.13,0.09331
1479.35,0.09351
1473.56,0.09390
1467.78,0.09400
1461.99,0.09488
1456.2,0.09537
1450.42,0.09594
1444.63,0.09664
1438.84,0.09800
1433.06,0.10003
1427.27,0.10242
1421.49,0.10417
1415.7,0.10598
1409.91,0.10616
1404.13,0.10080
1398.34,0.09582
1392.55,0.09351
1386.77,0.09194
1380.98,0.09180
1375.2,0.09239
1369.41,0.09580
1363.62,0.10041
1357.84,0.10555
1352.05,0.10943
1346.26,0.11289
1340.48,0.11571
1334.69,0.11787
1328.91,0.11861
1323.12,0.11859
1317.33,0.11988
1311.55,0.12090
1305.76,0.12353
1299.97,0.12659
1294.19,0.12733
1288.4,0.12468
1282.62,0.12082
1276.83,0.11605
1271.04,0.11078
1265.26,0.10649
1259.47,0.10371
1253.68,0.10155
1247.9,0.09885
1242.11,0.09728
1236.33,0.09818
1230.54,0.09950
1224.75,0.10217
1218.97,0.10256
1213.18,0.10163
1207.39,0.09851
1201.61,0.09517
1195.82,0.09164
1190.04,0.08728
1184.25,0.08394
1178.46,0.08021
1172.68,0.07686
1166.89,0.07377
1161.1,0.07218
1155.32,0.07518
1149.53,0.07928
1143.75,0.08252
1137.96,0.08507
1132.17,0.08498
1126.39,0.08264
1120.6,0.07741
1114.81,0.07329
1109.03,0.07388
1103.24,0.07622
1097.46,0.07856
1091.67,0.08075
1085.88,0.08273
1080.1,0.08415
1074.31,0.08472
1068.52,0.08367
1062.74,0.08008
1056.95,0.07813
1051.17,0.07739
1045.38,0.07793
1039.59,0.07804
1033.81,0.07894
1028.02,0.07635
1022.24,0.07419
1016.45,0.07502
1010.66,0.07661
1004.88,0.07591
999.09,0.07409
993.304,0.07160
987.518,0.07014
981.731,0.06871
975.945,0.06732
970.159,0.06624
964.373,0.06577
958.586,0.06400
952.8,0.06241
947.014,0.06158
941.228,0.06039
935.441,0.06011
929.655,0.05863
923.869,0.05803
918.083,0.05829
912.297,0.05926
906.51,0.06025
900.724,0.06206
894.938,0.06452
889.152,0.06826
883.365,0.06266
877.579,0.06686
871.793,0.06931
866.007,0.06703
860.22,0.06363
854.434,0.06052
848.648,0.05566
842.862,0.05639
837.075,0.05380
831.289,0.05235
825.503,0.04982
819.717,0.04691
813.931,0.04539
808.144,0.04456
802.358,0.04595
796.572,0.04481
790.786,0.04329
784.999,0.04355
779.213,0.04372
773.427,0.04214
767.641,0.04063
761.854,0.04130
756.068,0.04032
750.282,0.03925
744.496,0.03879
738.709,0.03839
732.923,0.03795
727.137,0.03867
721.351,0.03684
715.565,0.03866
709.778,0.04588
703.992,0.04423
698.206,0.04563
692.42,0.04480
686.633,0.04480
680.847,0.04548
675.061,0.04615
669.275,0.04509
663.488,0.04596
657.702,0.04641
651.916,0.04565
646.13,0.04660
640.343,0.04523
634.557,0.04493
628.771,0.04359
622.985,0.04495
617.198,0.04313
611.412,0.04417
605.626,0.04414
599.84,0.04305