File: 01_Data/Pine_Lap_Siding/FTIR/IS/Pine_Lap_Siding_IS_S_220916_R2.dpt
7497.03,0.83178
7491.25,0.82618
7485.46,0.82607
7479.67,0.82618
7473.89,0.82619
7468.1,0.82762
7462.32,0.82697
7456.53,0.82277
7450.74,0.82928
7444.96,0.82819
7439.17,0.82018
7433.38,0.81421
7427.6,0.82117
7421.81,0.81741
7416.03,0.81346
7410.24,0.80970
7404.45,0.81224
7398.67,0.81070
7392.88,0.81196
7387.09,0.79872
7381.31,0.79747
7375.52,0.80641
7369.74,0.80510
7363.95,0.80184
7358.16,0.79812
7352.38,0.79643
7346.59,0.80945
7340.8,0.80848
7335.02,0.80706
7329.23,0.79159
7323.45,0.79547
7317.66,0.79419
7311.87,0.80213
7306.09,0.79816
7300.3,0.79430
7294.51,0.79805
7288.73,0.79091
7282.94,0.79758
7277.16,0.79250
7271.37,0.78358
7265.58,0.78511
7259.8,0.79458
7254.01,0.79376
7248.22,0.78573
7242.44,0.79035
7236.65,0.78590
7230.87,0.78486
7225.08,0.78923
7219.29,0.78265
7213.51,0.78727
7207.72,0.77881
7201.93,0.77773
7196.15,0.77383
7190.36,0.77211
7184.58,0.76879
7178.79,0.76839
7173,0.75888
7167.22,0.75877
7161.43,0.76156
7155.65,0.76339
7149.86,0.76610
7144.07,0.76068
7138.29,0.75452
7132.5,0.76620
7126.71,0.75540
7120.93,0.75540
7115.14,0.75363
7109.36,0.74592
7103.57,0.74821
7097.78,0.74356
7092,0.74783
7086.21,0.74162
7080.42,0.74550
7074.64,0.74004
7068.85,0.72243
7063.07,0.72697
7057.28,0.72592
7051.49,0.73672
7045.71,0.74406
7039.92,0.73681
7034.13,0.74191
7028.35,0.73851
7022.56,0.73554
7016.78,0.74076
7010.99,0.72954
7005.2,0.73730
6999.42,0.73426
6993.63,0.73518
6987.84,0.73349
6982.06,0.73266
6976.27,0.73070
6970.49,0.73773
6964.7,0.73723
6958.91,0.72951
6953.13,0.72919
6947.34,0.72847
6941.55,0.73035
6935.77,0.73157
6929.98,0.72738
6924.2,0.72950
6918.41,0.72601
6912.62,0.72579
6906.84,0.73195
6901.05,0.73096
6895.26,0.72947
6889.48,0.72931
6883.69,0.72918
6877.91,0.73090
6872.12,0.72525
6866.33,0.72684
6860.55,0.72717
6854.76,0.73169
6848.97,0.73027
6843.19,0.72840
6837.4,0.72250
6831.62,0.72962
6825.83,0.72475
6820.04,0.73142
6814.26,0.72579
6808.47,0.71866
6802.68,0.72309
6796.9,0.72622
6791.11,0.72808
6785.33,0.72642
6779.54,0.72410
6773.75,0.72793
6767.97,0.72974
6762.18,0.73159
6756.39,0.72588
6750.61,0.72780
6744.82,0.72485
6739.04,0.72219
6733.25,0.72237
6727.46,0.72257
6721.68,0.72374
6715.89,0.72748
6710.1,0.72747
6704.32,0.72816
6698.53,0.72926
6692.75,0.72699
6686.96,0.72617
6681.17,0.72630
6675.39,0.72662
6669.6,0.72832
6663.82,0.73268
6658.03,0.73214
6652.24,0.72830
6646.46,0.72958
6640.67,0.73055
6634.88,0.73100
6629.1,0.73001
6623.31,0.73000
6617.53,0.72821
6611.74,0.73053
6605.95,0.73159
6600.17,0.73266
6594.38,0.73603
6588.59,0.73677
6582.81,0.73603
6577.02,0.73168
6571.24,0.73480
6565.45,0.73636
6559.66,0.73308
6553.88,0.73596
6548.09,0.73173
6542.3,0.73372
6536.52,0.73543
6530.73,0.73666
6524.95,0.73663
6519.16,0.73163
6513.37,0.73217
6507.59,0.73516
6501.8,0.73356
6496.01,0.73712
6490.23,0.73332
6484.44,0.73774
6478.66,0.73335
6472.87,0.73789
6467.08,0.73635
6461.3,0.73823
6455.51,0.73346
6449.72,0.73920
6443.94,0.73894
6438.15,0.74004
6432.37,0.73874
6426.58,0.73508
6420.79,0.73970
6415.01,0.73521
6409.22,0.73691
6403.43,0.74054
6397.65,0.73549
6391.86,0.73352
6386.08,0.73552
6380.29,0.73943
6374.5,0.73615
6368.72,0.73852
6362.93,0.73737
6357.14,0.74041
6351.36,0.73958
6345.57,0.74060
6339.79,0.73720
6334,0.73862
6328.21,0.74669
6322.43,0.74072
6316.64,0.73761
6310.85,0.73766
6305.07,0.74055
6299.28,0.73748
6293.5,0.73947
6287.71,0.74037
6281.92,0.74205
6276.14,0.74499
6270.35,0.74194
6264.56,0.74241
6258.78,0.74123
6252.99,0.74430
6247.21,0.74467
6241.42,0.74424
6235.63,0.74666
6229.85,0.74647
6224.06,0.74753
6218.27,0.74924
6212.49,0.74805
6206.7,0.75083
6200.92,0.75158
6195.13,0.75128
6189.34,0.74840
6183.56,0.75056
6177.77,0.75171
6171.98,0.75129
6166.2,0.75381
6160.41,0.75148
6154.63,0.75673
6148.84,0.75467
6143.05,0.75477
6137.27,0.75526
6131.48,0.75519
6125.7,0.75698
6119.91,0.75574
6114.12,0.75411
6108.34,0.75390
6102.55,0.75382
6096.76,0.75357
6090.98,0.75821
6085.19,0.75498
6079.41,0.75548
6073.62,0.75467
6067.83,0.75493
6062.05,0.75496
6056.26,0.75441
6050.47,0.75153
6044.69,0.75187
6038.9,0.75373
6033.12,0.74888
6027.33,0.75171
6021.54,0.74763
6015.76,0.74821
6009.97,0.74576
6004.18,0.74403
5998.4,0.74328
5992.61,0.74178
5986.83,0.73707
5981.04,0.73734
5975.25,0.73419
5969.47,0.73497
5963.68,0.73521
5957.89,0.73387
5952.11,0.73570
5946.32,0.73578
5940.54,0.73606
5934.75,0.73521
5928.96,0.73350
5923.18,0.73394
5917.39,0.73180
5911.6,0.73350
5905.82,0.73430
5900.03,0.73364
5894.25,0.73393
5888.46,0.73129
5882.67,0.72751
5876.89,0.72920
5871.1,0.73073
5865.31,0.72819
5859.53,0.73314
5853.74,0.73088
5847.96,0.73261
5842.17,0.73294
5836.38,0.72939
5830.6,0.73214
5824.81,0.73101
5819.02,0.72834
5813.24,0.72981
5807.45,0.72473
5801.67,0.72547
5795.88,0.72794
5790.09,0.72996
5784.31,0.73018
5778.52,0.72870
5772.73,0.72977
5766.95,0.73161
5761.16,0.73335
5755.38,0.72970
5749.59,0.73185
5743.8,0.73122
5738.02,0.73250
5732.23,0.73066
5726.44,0.72853
5720.66,0.73168
5714.87,0.73004
5709.09,0.73109
5703.3,0.73017
5697.51,0.72780
5691.73,0.72917
5685.94,0.72790
5680.15,0.72828
5674.37,0.72809
5668.58,0.72903
5662.8,0.72986
5657.01,0.72762
5651.22,0.72950
5645.44,0.73046
5639.65,0.72886
5633.87,0.73055
5628.08,0.72985
5622.29,0.73051
5616.51,0.73027
5610.72,0.72943
5604.93,0.72915
5599.15,0.72986
5593.36,0.72849
5587.58,0.73020
5581.79,0.72955
5576,0.72806
5570.22,0.73075
5564.43,0.72968
5558.64,0.73112
5552.86,0.73043
5547.07,0.73030
5541.29,0.73103
5535.5,0.72947
5529.71,0.73106
5523.93,0.73155
5518.14,0.73119
5512.35,0.73432
5506.57,0.73129
5500.78,0.73248
5495,0.73152
5489.21,0.73290
5483.42,0.73251
5477.64,0.73096
5471.85,0.73108
5466.06,0.73275
5460.28,0.73508
5454.49,0.73374
5448.71,0.73351
5442.92,0.73387
5437.13,0.73358
5431.35,0.73403
5425.56,0.73513
5419.77,0.73608
5413.99,0.73847
5408.2,0.73830
5402.42,0.73585
5396.63,0.73654
5390.84,0.73754
5385.06,0.73681
5379.27,0.73837
5373.48,0.73763
5367.7,0.73732
5361.91,0.73575
5356.13,0.73526
5350.34,0.73542
5344.55,0.73367
5338.77,0.73169
5332.98,0.73097
5327.19,0.72905
5321.41,0.72676
5315.62,0.72458
5309.84,0.72100
5304.05,0.71830
5298.26,0.71399
5292.48,0.71008
5286.69,0.70409
5280.9,0.69835
5275.12,0.69113
5269.33,0.68636
5263.55,0.68081
5257.76,0.67261
5251.97,0.66850
5246.19,0.66354
5240.4,0.65807
5234.61,0.65276
5228.83,0.65009
5223.04,0.64839
5217.26,0.64507
5211.47,0.64345
5205.68,0.64394
5199.9,0.64297
5194.11,0.64228
5188.32,0.64213
5182.54,0.64061
5176.75,0.64198
5170.97,0.64313
5165.18,0.64297
5159.39,0.64472
5153.61,0.64592
5147.82,0.64870
5142.03,0.64902
5136.25,0.64945
5130.46,0.64992
5124.68,0.65184
5118.89,0.65332
5113.1,0.65447
5107.32,0.65670
5101.53,0.65941
5095.75,0.65887
5089.96,0.66056
5084.17,0.66187
5078.39,0.66378
5072.6,0.66524
5066.81,0.66642
5061.03,0.66715
5055.24,0.66908
5049.46,0.67086
5043.67,0.67027
5037.88,0.67103
5032.1,0.67278
5026.31,0.67368
5020.52,0.67392
5014.74,0.67508
5008.95,0.67503
5003.17,0.67740
4997.38,0.67691
4991.59,0.67783
4985.81,0.67699
4980.02,0.67689
4974.23,0.67538
4968.45,0.67403
4962.66,0.67354
4956.88,0.67198
4951.09,0.67036
4945.3,0.66952
4939.52,0.66638
4933.73,0.66494
4927.94,0.66270
4922.16,0.66014
4916.37,0.65818
4910.59,0.65520
4904.8,0.65320
4899.01,0.65091
4893.23,0.64797
4887.44,0.64706
4881.65,0.64306
4875.87,0.64074
4870.08,0.63932
4864.3,0.63632
4858.51,0.63386
4852.72,0.63168
4846.94,0.62999
4841.15,0.62749
4835.36,0.62546
4829.58,0.62348
4823.79,0.62234
4818.01,0.62086
4812.22,0.61973
4806.43,0.61826
4800.65,0.61742
4794.86,0.61619
4789.07,0.61573
4783.29,0.61418
4777.5,0.61345
4771.72,0.61220
4765.93,0.61228
4760.14,0.61209
4754.36,0.61092
4748.57,0.61144
4742.78,0.61064
4737,0.60962
4731.21,0.60963
4725.43,0.60930
4719.64,0.60942
4713.85,0.60998
4708.07,0.60904
4702.28,0.60840
4696.49,0.60825
4690.71,0.60698
4684.92,0.60690
4679.14,0.60442
4673.35,0.60261
4667.56,0.60069
4661.78,0.60080
4655.99,0.60167
4650.2,0.60255
4644.42,0.60032
4638.63,0.60003
4632.85,0.59843
4627.06,0.59610
4621.27,0.59652
4615.49,0.59815
4609.7,0.59785
4603.92,0.60027
4598.13,0.60490
4592.34,0.60717
4586.56,0.60782
4580.77,0.60778
4574.98,0.60685
4569.2,0.60647
4563.41,0.60850
4557.63,0.60746
4551.84,0.60726
4546.05,0.60724
4540.27,0.60462
4534.48,0.59738
4528.69,0.59014
4522.91,0.59661
4517.12,0.60893
4511.34,0.61498
4505.55,0.61736
4499.76,0.61843
4493.98,0.61836
4488.19,0.61730
4482.4,0.61515
4476.62,0.61027
4470.83,0.60606
4465.05,0.60154
4459.26,0.59682
4453.47,0.59049
4447.69,0.58500
4441.9,0.57900
4436.11,0.57421
4430.33,0.57018
4424.54,0.56474
4418.76,0.55825
4412.97,0.55348
4407.18,0.54946
4401.4,0.54705
4395.61,0.54485
4389.82,0.54344
4384.04,0.54205
4378.25,0.54068
4372.47,0.53927
4366.68,0.53802
4360.89,0.53658
4355.11,0.53418
4349.32,0.53105
4343.53,0.52996
4337.75,0.52872
4331.96,0.52781
4326.18,0.52777
4320.39,0.52839
4314.6,0.52612
4308.82,0.52568
4303.03,0.52305
4297.24,0.52098
4291.46,0.51929
4285.67,0.51695
4279.89,0.51503
4274.1,0.51372
4268.31,0.51339
4262.53,0.51281
4256.74,0.51325
4250.95,0.51399
4245.17,0.51538
4239.38,0.51791
4233.6,0.51990
4227.81,0.52088
4222.02,0.52091
4216.24,0.52014
4210.45,0.52058
4204.66,0.52024
4198.88,0.52048
4193.09,0.52052
4187.31,0.52131
4181.52,0.52228
4175.73,0.52324
4169.95,0.52444
4164.16,0.52576
4158.37,0.52629
4152.59,0.52569
4146.8,0.52442
4141.02,0.52265
4135.23,0.51973
4129.44,0.51743
4123.66,0.51404
4117.87,0.50981
4112.09,0.50541
4106.3,0.50123
4100.51,0.49720
4094.73,0.49261
4088.94,0.48777
4083.15,0.48439
4077.37,0.47918
4071.58,0.47353
4065.8,0.46842
4060.01,0.46390
4054.22,0.46151
4048.44,0.45806
4042.65,0.45359
4036.86,0.45192
4031.08,0.45219
4025.29,0.45062
4019.51,0.45152
4013.72,0.45195
4007.93,0.45228
4002.15,0.45249
3996.36,0.45269
3990.57,0.45302
3984.79,0.45343
3979,0.45357
3973.22,0.45382
3967.43,0.45450
3961.64,0.45455
3955.86,0.45381
3950.07,0.45308
3944.28,0.45410
3938.5,0.45554
3932.71,0.45775
3926.93,0.46024
3921.14,0.46366
3915.35,0.46697
3909.57,0.46838
3903.78,0.47047
3897.99,0.47167
3892.21,0.47260
3886.42,0.47248
3880.64,0.47434
3874.85,0.47499
3869.06,0.47443
3863.28,0.47561
3857.49,0.47606
3851.7,0.47702
3845.92,0.47679
3840.13,0.47734
3834.35,0.47672
3828.56,0.47687
3822.77,0.47680
3816.99,0.47522
3811.2,0.47400
3805.41,0.47255
3799.63,0.46965
3793.84,0.46698
3788.06,0.46319
3782.27,0.46037
3776.48,0.45582
3770.7,0.45109
3764.91,0.44476
3759.12,0.43733
3753.34,0.42901
3747.55,0.41740
3741.77,0.40263
3735.98,0.38696
3730.19,0.36280
3724.41,0.33035
3718.62,0.28583
3712.83,0.23086
3707.05,0.17600
3701.26,0.12790
3695.48,0.09807
3689.69,0.09656
3683.9,0.10949
3678.12,0.11664
3672.33,0.11019
3666.54,0.11018
3660.76,0.11170
3654.97,0.10190
3649.19,0.10073
3643.4,0.10996
3637.61,0.11579
3631.83,0.11130
3626.04,0.09602
3620.25,0.08354
3614.47,0.10460
3608.68,0.11929
3602.9,0.12400
3597.11,0.12540
3591.32,0.12424
3585.54,0.12294
3579.75,0.12100
3573.97,0.12103
3568.18,0.12019
3562.39,0.11920
3556.61,0.11820
3550.82,0.11845
3545.03,0.11795
3539.25,0.11806
3533.46,0.11721
3527.68,0.11611
3521.89,0.11565
3516.1,0.11405
3510.32,0.11282
3504.53,0.11255
3498.74,0.11202
3492.96,0.11011
3487.17,0.10858
3481.39,0.10712
3475.6,0.10647
3469.81,0.10552
3464.03,0.10490
3458.24,0.10374
3452.45,0.10307
3446.67,0.10193
3440.88,0.10087
3435.1,0.10125
3429.31,0.10051
3423.52,0.10096
3417.74,0.10089
3411.95,0.10069
3406.16,0.10138
3400.38,0.10121
3394.59,0.10142
3388.81,0.10238
3383.02,0.10270
3377.23,0.10390
3371.45,0.10382
3365.66,0.10399
3359.87,0.10452
3354.09,0.10557
3348.3,0.10684
3342.52,0.10750
3336.73,0.10798
3330.94,0.10854
3325.16,0.11015
3319.37,0.11132
3313.58,0.11105
3307.8,0.11259
3302.01,0.11317
3296.23,0.11415
3290.44,0.11625
3284.65,0.11706
3278.87,0.11768
3273.08,0.11948
3267.29,0.12084
3261.51,0.12172
3255.72,0.12300
3249.94,0.12509
3244.15,0.12628
3238.36,0.12805
3232.58,0.12937
3226.79,0.12953
3221,0.13086
3215.22,0.13233
3209.43,0.13470
3203.65,0.13551
3197.86,0.13705
3192.07,0.13861
3186.29,0.14069
3180.5,0.14167
3174.71,0.14373
3168.93,0.14507
3163.14,0.14632
3157.36,0.14918
3151.57,0.15067
3145.78,0.15240
3140,0.15455
3134.21,0.15564
3128.42,0.15729
3122.64,0.15909
3116.85,0.16006
3111.07,0.15996
3105.28,0.15987
3099.49,0.16169
3093.71,0.16170
3087.92,0.15808
3082.14,0.15620
3076.35,0.16086
3070.56,0.16049
3064.78,0.15434
3058.99,0.15415
3053.2,0.16093
3047.42,0.16596
3041.63,0.16414
3035.85,0.15507
3030.06,0.13999
3024.27,0.14172
3018.49,0.15586
3012.7,0.16029
3006.91,0.15606
3001.13,0.14883
2995.34,0.13955
2989.56,0.12505
2983.77,0.11262
2977.98,0.10493
2972.2,0.09597
2966.41,0.08595
2960.62,0.07941
2954.84,0.07999
2949.05,0.08300
2943.27,0.08358
2937.48,0.08096
2931.69,0.07914
2925.91,0.08046
2920.12,0.08414
2914.33,0.08934
2908.55,0.09488
2902.76,0.09884
2896.98,0.10141
2891.19,0.10320
2885.4,0.10165
2879.62,0.09378
2873.83,0.08846
2868.04,0.09270
2862.26,0.09834
2856.47,0.10406
2850.69,0.11152
2844.9,0.12439
2839.11,0.14302
2833.33,0.16041
2827.54,0.17396
2821.75,0.18455
2815.97,0.19275
2810.18,0.19843
2804.4,0.20342
2798.61,0.20770
2792.82,0.21246
2787.04,0.21656
2781.25,0.22019
2775.46,0.22294
2769.68,0.22522
2763.89,0.22713
2758.11,0.22861
2752.32,0.22976
2746.53,0.23020
2740.75,0.23036
2734.96,0.23129
2729.17,0.23257
2723.39,0.23430
2717.6,0.23617
2711.82,0.23843
2706.03,0.24010
2700.24,0.24245
2694.46,0.24429
2688.67,0.24607
2682.88,0.24823
2677.1,0.24945
2671.31,0.24969
2665.53,0.24997
2659.74,0.25065
2653.95,0.25067
2648.17,0.24976
2642.38,0.24746
2636.59,0.24135
2630.81,0.23357
2625.02,0.22477
2619.24,0.21717
2613.45,0.20853
2607.66,0.19893
2601.88,0.19149
2596.09,0.18774
2590.3,0.18505
2584.52,0.18344
2578.73,0.18211
2572.95,0.18082
2567.16,0.17943
2561.37,0.17609
2555.59,0.17201
2549.8,0.16683
2544.02,0.16132
2538.23,0.15041
2532.44,0.12904
2526.66,0.11031
2520.87,0.10022
2515.08,0.09688
2509.3,0.09953
2503.51,0.11334
2497.73,0.13770
2491.94,0.16768
2486.15,0.19308
2480.37,0.21508
2474.58,0.23577
2468.79,0.25276
2463.01,0.26251
2457.22,0.26999
2451.44,0.27553
2445.65,0.27994
2439.86,0.28383
2434.08,0.28670
2428.29,0.28970
2422.5,0.29308
2416.72,0.29606
2410.93,0.29791
2405.15,0.29976
2399.36,0.30183
2393.57,0.30331
2387.79,0.30460
2382,0.30582
2376.21,0.30728
2370.43,0.30816
2364.64,0.30896
2358.86,0.30935
2353.07,0.30894
2347.28,0.30807
2341.5,0.30744
2335.71,0.30789
2329.92,0.30849
2324.14,0.30873
2318.35,0.30789
2312.57,0.30719
2306.78,0.30741
2300.99,0.30747
2295.21,0.30711
2289.42,0.30669
2283.63,0.30637
2277.85,0.30531
2272.06,0.30370
2266.28,0.30165
2260.49,0.29876
2254.7,0.29682
2248.92,0.29466
2243.13,0.29257
2237.34,0.29085
2231.56,0.28808
2225.77,0.28489
2219.99,0.28391
2214.2,0.28403
2208.41,0.28386
2202.63,0.28242
2196.84,0.28010
2191.05,0.27756
2185.27,0.27427
2179.48,0.27091
2173.7,0.26741
2167.91,0.26348
2162.12,0.25942
2156.34,0.25432
2150.55,0.24833
2144.76,0.24366
2138.98,0.24188
2133.19,0.24261
2127.41,0.24606
2121.62,0.25055
2115.83,0.25393
2110.05,0.25558
2104.26,0.25733
2098.47,0.25798
2092.69,0.25821
2086.9,0.25754
2081.12,0.25635
2075.33,0.25488
2069.54,0.25254
2063.76,0.25042
2057.97,0.24880
2052.19,0.24700
2046.4,0.24552
2040.61,0.24354
2034.83,0.24175
2029.04,0.24128
2023.25,0.24111
2017.47,0.24057
2011.68,0.23917
2005.9,0.23675
2000.11,0.23545
1994.32,0.23496
1988.54,0.23435
1982.75,0.23351
1976.96,0.23226
1971.18,0.23079
1965.39,0.22789
1959.61,0.22481
1953.82,0.22583
1948.03,0.22522
1942.25,0.22582
1936.46,0.22819
1930.67,0.23045
1924.89,0.23185
1919.1,0.23115
1913.32,0.22792
1907.53,0.22332
1901.74,0.21731
1895.96,0.21128
1890.17,0.20601
1884.38,0.20159
1878.6,0.19807
1872.81,0.19524
1867.03,0.19429
1861.24,0.19631
1855.45,0.19956
1849.67,0.20061
1843.88,0.19794
1838.09,0.19276
1832.31,0.18382
1826.52,0.17171
1820.74,0.16029
1814.95,0.14930
1809.16,0.13001
1803.38,0.08924
1797.59,0.05880
1791.8,0.06386
1786.02,0.09690
1780.23,0.11753
1774.45,0.12013
1768.66,0.11150
1762.87,0.09766
1757.09,0.08039
1751.3,0.06339
1745.51,0.04910
1739.73,0.04015
1733.94,0.03714
1728.16,0.03967
1722.37,0.04772
1716.58,0.06036
1710.8,0.06936
1705.01,0.07385
1699.22,0.07606
1693.44,0.07523
1687.65,0.07330
1681.87,0.07033
1676.08,0.06786
1670.29,0.06567
1664.51,0.06398
1658.72,0.06301
1652.93,0.06313
1647.15,0.06235
1641.36,0.06165
1635.58,0.06054
1629.79,0.05969
1624,0.05852
1618.22,0.05766
1612.43,0.05631
1606.64,0.05549
1600.86,0.05547
1595.07,0.05847
1589.29,0.05990
1583.5,0.06373
1577.71,0.07150
1571.93,0.08006
1566.14,0.08735
1560.35,0.09417
1554.57,0.10155
1548.78,0.10355
1543,0.10316
1537.21,0.10133
1531.42,0.10004
1525.64,0.09852
1519.85,0.09638
1514.07,0.09477
1508.28,0.09377
1502.49,0.09309
1496.71,0.09263
1490.92,0.09291
1485.13,0.09285
1479.35,0.09345
1473.56,0.09392
1467.78,0.09403
1461.99,0.09471
1456.2,0.09539
1450.42,0.09595
1444.63,0.09646
1438.84,0.09778
1433.06,0.09995
1427.27,0.10231
1421.49,0.10441
1415.7,0.10582
1409.91,0.10661
1404.13,0.10078
1398.34,0.09588
1392.55,0.09316
1386.77,0.09188
1380.98,0.09171
1375.2,0.09275
1369.41,0.09549
1363.62,0.10012
1357.84,0.10537
1352.05,0.10952
1346.26,0.11291
1340.48,0.11592
1334.69,0.11769
1328.91,0.11809
1323.12,0.11880
1317.33,0.11956
1311.55,0.12104
1305.76,0.12385
1299.97,0.12631
1294.19,0.12738
1288.4,0.12480
1282.62,0.12044
1276.83,0.11607
1271.04,0.11076
1265.26,0.10661
1259.47,0.10415
1253.68,0.10145
1247.9,0.09926
1242.11,0.09699
1236.33,0.09773
1230.54,0.09992
1224.75,0.10164
1218.97,0.10297
1213.18,0.10152
1207.39,0.09884
1201.61,0.09497
1195.82,0.09205
1190.04,0.08793
1184.25,0.08364
1178.46,0.08033
1172.68,0.07663
1166.89,0.07386
1161.1,0.07209
1155.32,0.07501
1149.53,0.07895
1143.75,0.08265
1137.96,0.08509
1132.17,0.08474
1126.39,0.08260
1120.6,0.07796
1114.81,0.07315
1109.03,0.07384
1103.24,0.07615
1097.46,0.07863
1091.67,0.08098
1085.88,0.08240
1080.1,0.08433
1074.31,0.08531
1068.52,0.08341
1062.74,0.07960
1056.95,0.07756
1051.17,0.07790
1045.38,0.07795
1039.59,0.07821
1033.81,0.07906
1028.02,0.07676
1022.24,0.07426
1016.45,0.07538
1010.66,0.07631
1004.88,0.07593
999.09,0.07387
993.304,0.07163
987.518,0.06980
981.731,0.06839
975.945,0.06740
970.159,0.06695
964.373,0.06524
958.586,0.06461
952.8,0.06235
947.014,0.06115
941.228,0.06043
935.441,0.05987
929.655,0.05899
923.869,0.05858
918.083,0.05837
912.297,0.05931
906.51,0.06030
900.724,0.06197
894.938,0.06407
889.152,0.06789
883.365,0.06236
877.579,0.06684
871.793,0.06890
866.007,0.06663
860.22,0.06376
854.434,0.06082
848.648,0.05603
842.862,0.05646
837.075,0.05362
831.289,0.05127
825.503,0.04918
819.717,0.04704
813.931,0.04480
808.144,0.04386
802.358,0.04494
796.572,0.04436
790.786,0.04333
784.999,0.04320
779.213,0.04308
773.427,0.04193
767.641,0.04031
761.854,0.04085
756.068,0.04063
750.282,0.03937
744.496,0.03978
738.709,0.03903
732.923,0.03734
727.137,0.03820
721.351,0.03736
715.565,0.03881
709.778,0.04546
703.992,0.04437
698.206,0.04579
692.42,0.04542
686.633,0.04540
680.847,0.04493
675.061,0.04539
669.275,0.04625
663.488,0.04678
657.702,0.04706
651.916,0.04555
646.13,0.04623
640.343,0.04626
634.557,0.04429
628.771,0.04433
622.985,0.04494
617.198,0.04497
611.412,0.04581
605.626,0.04557
599.84,0.04275