File: 01_Data/Masonite_Board/MCC/Extra/Masonite_New_Grinder_MCC_30K_min_220328_R1.txt
Sample ID:	C:\MCC\MCC Cal\Test\Masonite_New_grinder_MCC_30K_min_220328_R1.txt
Sample Weight (mg):	4.24
Heating Rate (C/s):	0.5
Combustor Temp (C):	900
N2 Flow Rate (cc/min):	80
O2 Flow Rate (cc/min):	20
Calibration File:	C:\MCC\MCC Cal\Coeff1 JN10440_30_210304.txt.txt
T Correction Coefficients:	0	1.024463	0
Time Shift (s):	14
*
Time (s)	Temperature (C)	N2 flow rate (cc/min)	O2 flow rate (cc/min)	Flow Rate (cc/min)	Oxygen (%)	HRR (W/g)	Heating rate (C/s)
0.000	107.637	80.007	19.993	103.642	20.021	-0.082	-0.006
2.000	107.646	80.007	19.992	103.642	20.023	-0.180	0.021
4.000	107.638	80.005	19.992	103.643	20.024	-0.300	-0.022
6.000	107.689	80.007	19.994	103.658	20.025	-0.376	0.017
8.000	107.673	80.006	19.994	103.665	20.027	-0.494	0.022
10.001	107.635	80.005	19.993	103.649	20.027	-0.518	0.011
12.000	107.652	80.005	19.993	103.652	20.024	-0.287	0.002
14.000	107.653	80.005	19.993	103.671	20.024	-0.279	-0.006
16.001	107.666	80.005	19.993	103.669	20.025	-0.359	-0.024
18.001	107.662	80.004	19.993	103.603	20.025	-0.380	0.002
20.000	107.701	80.004	19.994	103.679	20.022	-0.150	0.029
22.000	107.710	80.004	19.993	103.721	20.025	-0.326	0.018
24.000	107.728	80.004	19.994	103.659	20.027	-0.541	-0.006
26.000	107.736	80.006	19.993	103.674	20.027	-0.472	0.007
28.000	107.753	80.005	19.994	103.689	20.022	-0.091	0.006
30.000	107.817	80.006	19.992	103.720	20.017	0.284	0.006
32.000	107.841	80.007	19.993	103.743	20.012	0.624	0.031
34.000	107.873	80.007	19.992	103.759	20.010	0.815	0.005
36.000	108.027	80.007	19.992	103.775	20.000	1.543	0.089
38.000	108.110	80.005	19.994	103.802	19.999	1.613	0.070
40.001	108.295	80.004	19.992	103.828	19.994	2.018	0.098
42.000	108.502	80.005	19.993	103.831	19.995	1.937	0.073
44.000	108.724	80.005	19.992	103.818	19.995	1.946	0.129
46.000	108.952	80.004	19.993	103.826	19.994	2.003	0.109
48.000	109.218	80.006	19.993	103.849	19.993	2.105	0.136
50.000	109.533	80.004	19.992	103.861	19.993	2.079	0.187
52.000	109.831	80.006	19.993	103.877	19.992	2.153	0.130
54.001	110.170	80.005	19.993	103.865	19.989	2.423	0.177
56.000	110.528	80.007	19.993	103.867	19.984	2.758	0.180
58.000	110.925	80.007	19.993	103.880	19.990	2.306	0.187
60.000	111.332	80.009	19.992	103.871	19.985	2.697	0.199
62.000	111.713	80.008	19.993	103.869	19.987	2.585	0.177
64.000	112.202	80.005	19.993	103.838	19.983	2.848	0.256
66.001	112.606	80.006	19.993	103.836	19.983	2.886	0.230
68.000	113.089	80.004	19.995	103.861	19.981	3.005	0.256
70.000	113.568	80.005	19.993	103.866	19.978	3.234	0.237
72.001	114.138	80.007	19.993	103.851	19.980	3.054	0.280
74.000	114.649	80.004	19.995	103.871	19.977	3.287	0.266
76.000	115.157	80.005	19.993	103.872	19.978	3.236	0.261
78.000	115.728	80.003	19.994	103.867	19.980	3.052	0.276
80.000	116.308	80.004	19.995	103.904	19.983	2.852	0.282
82.000	116.866	80.005	19.991	103.897	19.984	2.747	0.274
84.000	117.477	80.004	19.993	103.896	19.982	2.944	0.310
86.000	118.147	80.005	19.994	103.919	19.979	3.193	0.323
88.001	118.749	80.005	19.993	103.882	19.975	3.487	0.275
90.000	119.397	80.006	19.991	103.896	19.975	3.443	0.321
92.000	120.054	80.004	19.993	103.889	19.978	3.225	0.352
94.000	120.797	80.004	19.993	103.892	19.981	3.026	0.366
96.000	121.485	80.004	19.993	103.901	19.980	3.120	0.363
98.000	122.171	80.003	19.995	103.940	19.976	3.398	0.365
100.000	122.886	80.003	19.994	103.907	19.979	3.157	0.348
102.000	123.606	80.005	19.994	103.870	19.978	3.253	0.351
104.000	124.348	80.004	19.993	103.880	19.978	3.205	0.376
106.000	125.126	80.004	19.993	103.855	19.977	3.294	0.403
108.001	125.884	80.005	19.993	103.850	19.975	3.504	0.381
110.000	126.662	80.006	19.993	103.881	19.974	3.578	0.377
112.000	127.404	80.005	19.994	103.880	19.974	3.510	0.389
114.001	128.239	80.006	19.992	103.899	19.976	3.353	0.396
116.001	129.046	80.007	19.992	103.906	19.975	3.497	0.414
118.000	129.920	80.004	19.994	103.922	19.976	3.389	0.416
120.000	130.716	80.006	19.992	103.934	19.975	3.451	0.401
122.000	131.542	80.006	19.993	103.921	19.973	3.591	0.389
124.000	132.416	80.006	19.992	103.920	19.973	3.609	0.473
126.001	133.283	80.005	19.994	103.908	19.978	3.272	0.448
128.000	134.126	80.007	19.993	103.915	19.978	3.200	0.433
130.000	135.018	80.006	19.993	103.917	19.980	3.092	0.466
132.000	135.859	80.006	19.992	103.926	19.980	3.084	0.451
134.000	136.779	80.007	19.992	103.916	19.978	3.258	0.463
136.000	137.699	80.007	19.993	103.913	19.978	3.251	0.461
138.000	138.590	80.008	19.992	103.911	19.976	3.359	0.452
140.000	139.548	80.008	19.993	103.908	19.976	3.384	0.501
142.000	140.456	80.007	19.993	103.911	19.978	3.262	0.488
144.000	141.379	80.007	19.993	103.919	19.980	3.101	0.445
146.000	142.316	80.006	19.996	103.913	19.980	3.048	0.473
148.000	143.253	80.005	19.992	103.900	19.979	3.145	0.463
150.000	144.201	80.003	19.995	103.891	19.976	3.365	0.472
152.000	145.153	80.004	19.994	103.892	19.982	2.922	0.452
154.000	146.067	80.006	19.993	103.914	19.979	3.151	0.450
156.000	147.036	80.004	19.996	103.918	19.979	3.190	0.510
158.000	148.044	80.006	19.990	103.910	19.982	2.938	0.504
160.000	149.018	80.003	19.992	103.907	19.980	3.068	0.513
162.000	149.953	80.006	19.992	103.887	19.982	2.920	0.475
164.000	150.902	80.006	19.995	103.878	19.978	3.223	0.475
166.000	151.924	80.004	19.989	103.898	19.978	3.251	0.520
168.000	152.831	80.003	19.994	103.924	19.978	3.240	0.449
170.000	153.801	80.004	19.995	103.883	19.977	3.340	0.446
172.000	154.783	80.003	19.994	103.868	19.980	3.105	0.479
174.000	155.747	80.007	19.992	103.893	19.982	2.925	0.445
176.000	156.686	80.002	19.995	103.894	19.980	3.107	0.452
178.000	157.670	80.004	19.994	103.891	19.977	3.330	0.490
180.000	158.687	80.004	19.993	103.901	19.980	3.120	0.490
182.000	159.612	80.003	19.992	103.905	19.981	3.017	0.480
184.000	160.609	80.004	19.994	103.893	19.980	3.096	0.462
186.000	161.623	80.004	19.993	103.915	19.982	2.924	0.500
188.000	162.620	80.004	19.993	103.879	19.978	3.222	0.511
190.000	163.560	80.006	19.992	103.844	19.980	3.068	0.454
192.000	164.566	80.006	19.993	103.864	19.980	3.092	0.509
194.000	165.589	80.006	19.993	103.879	19.981	3.044	0.530
196.000	166.599	80.005	19.992	103.872	19.981	2.998	0.530
198.000	167.564	80.007	19.993	103.869	19.978	3.237	0.516
200.000	168.526	80.006	19.993	103.855	19.978	3.246	0.478
202.000	169.543	80.004	19.994	103.874	19.978	3.266	0.528
204.000	170.496	80.005	19.993	103.863	19.981	3.021	0.474
206.000	171.519	80.005	19.995	103.842	19.977	3.311	0.506
208.000	172.455	80.006	19.993	103.867	19.975	3.494	0.496
210.000	173.450	80.007	19.994	103.875	19.975	3.471	0.474
212.000	174.454	80.006	19.993	103.851	19.975	3.479	0.509
214.001	175.391	80.007	19.992	103.858	19.973	3.614	0.474
216.000	176.364	80.007	19.993	103.856	19.970	3.852	0.482
218.000	177.366	80.008	19.992	103.862	19.973	3.647	0.491
220.000	178.363	80.007	19.994	103.882	19.978	3.210	0.490
222.000	179.368	80.005	19.993	103.878	19.980	3.114	0.494
224.000	180.311	80.008	19.992	103.872	19.978	3.270	0.484
226.000	181.356	80.008	19.993	103.881	19.978	3.239	0.500
228.000	182.358	80.006	19.993	103.908	19.981	3.024	0.505
230.000	183.334	80.005	19.993	103.890	19.977	3.348	0.501
232.000	184.350	80.006	19.993	103.866	19.976	3.422	0.490
234.000	185.372	80.004	19.995	103.834	19.977	3.340	0.522
236.000	186.411	80.004	19.995	103.832	19.975	3.453	0.528
238.000	187.405	80.003	19.994	103.875	19.980	3.119	0.504
240.000	188.406	80.006	19.992	103.869	19.975	3.479	0.527
242.000	189.411	80.004	19.996	103.882	19.977	3.301	0.516
244.000	190.386	80.003	19.993	103.852	19.978	3.244	0.495
246.000	191.383	80.003	19.996	103.840	19.979	3.144	0.512
248.000	192.405	80.006	19.992	103.864	19.976	3.395	0.499
250.000	193.367	80.005	19.994	103.875	19.976	3.415	0.488
252.000	194.434	80.006	19.993	103.869	19.977	3.318	0.526
254.000	195.363	80.004	19.996	103.881	19.975	3.440	0.469
256.000	196.384	80.006	19.994	103.877	19.976	3.386	0.496
258.000	197.421	80.008	19.993	103.895	19.974	3.563	0.484
260.000	198.421	80.004	19.996	103.834	19.975	3.431	0.532
262.000	199.393	80.004	19.995	103.845	19.977	3.341	0.485
264.000	200.381	80.004	19.994	103.896	19.972	3.676	0.511
266.001	201.385	80.004	19.995	103.918	19.974	3.577	0.505
268.000	202.367	80.006	19.995	103.847	19.975	3.469	0.503
270.000	203.400	80.004	19.994	103.863	19.977	3.333	0.518
272.000	204.349	80.007	19.994	103.834	19.975	3.498	0.485
274.000	205.338	80.006	19.994	103.879	19.974	3.509	0.509
276.000	206.368	80.008	19.992	103.864	19.981	3.010	0.517
278.000	207.322	80.008	19.994	103.859	19.978	3.247	0.503
280.000	208.344	80.008	19.993	103.923	19.978	3.234	0.527
282.000	209.336	80.007	19.994	103.838	19.978	3.264	0.522
284.000	210.264	80.007	19.993	103.816	19.974	3.543	0.498
286.000	211.275	80.007	19.994	103.840	19.973	3.592	0.464
288.000	212.295	80.005	19.994	103.855	19.975	3.467	0.508
290.000	213.269	80.005	19.992	103.833	19.973	3.587	0.516
292.000	214.299	80.006	19.993	103.838	19.972	3.662	0.538
294.000	215.309	80.006	19.994	103.839	19.971	3.759	0.514
296.000	216.265	80.006	19.993	103.819	19.974	3.513	0.471
298.000	217.176	80.007	19.993	103.866	19.977	3.294	0.448
300.000	218.185	80.007	19.992	103.907	19.981	3.037	0.514
302.000	219.196	80.008	19.993	103.855	19.976	3.403	0.514
304.000	220.154	80.007	19.992	103.856	19.976	3.366	0.480
306.000	221.110	80.007	19.993	103.807	19.974	3.511	0.486
308.000	222.082	80.007	19.993	103.851	19.975	3.429	0.507
310.001	223.094	80.007	19.992	103.851	19.980	3.069	0.483
312.000	224.050	80.006	19.992	103.803	19.976	3.422	0.486
314.000	225.112	80.005	19.992	103.861	19.970	3.819	0.511
316.001	226.029	80.005	19.992	103.849	19.969	3.952	0.458
318.000	227.025	80.005	19.993	103.830	19.972	3.710	0.493
320.000	228.004	80.005	19.993	103.837	19.971	3.742	0.465
322.001	228.975	80.005	19.993	103.823	19.973	3.587	0.497
324.000	230.027	80.008	19.994	103.828	19.970	3.841	0.508
326.000	230.954	80.003	19.994	103.861	19.970	3.872	0.482
328.000	231.892	80.003	19.995	103.834	19.965	4.212	0.474
330.000	232.903	80.005	19.994	103.838	19.964	4.294	0.481
332.000	233.882	80.006	19.994	103.831	19.963	4.349	0.458
334.000	234.900	80.005	19.995	103.824	19.961	4.568	0.502
336.001	235.827	80.006	19.994	103.838	19.960	4.587	0.473
338.000	236.822	80.006	19.995	103.875	19.964	4.274	0.502
340.000	237.796	80.005	19.994	103.888	19.960	4.594	0.508
342.000	238.799	80.004	19.995	103.880	19.962	4.426	0.507
344.000	239.769	80.005	19.994	103.864	19.959	4.726	0.503
346.000	240.689	80.005	19.994	103.837	19.953	5.113	0.491
348.000	241.700	80.005	19.993	103.855	19.953	5.129	0.514
350.000	242.695	80.004	19.994	103.849	19.950	5.368	0.518
352.000	243.676	80.005	19.994	103.856	19.948	5.542	0.487
354.000	244.620	80.006	19.994	103.853	19.945	5.742	0.508
356.000	245.650	80.006	19.994	103.876	19.947	5.623	0.494
358.000	246.594	80.005	19.994	103.879	19.943	5.909	0.482
360.000	247.579	80.005	19.995	103.883	19.940	6.133	0.479
362.000	248.582	80.006	19.993	103.878	19.943	5.925	0.513
364.000	249.574	80.006	19.993	103.881	19.940	6.149	0.476
366.000	250.584	80.005	19.994	103.860	19.937	6.405	0.500
368.000	251.571	80.007	19.993	103.868	19.938	6.303	0.485
370.000	252.618	80.005	19.993	103.850	19.935	6.549	0.531
372.000	253.559	80.005	19.993	103.848	19.931	6.835	0.507
374.000	254.527	80.005	19.993	103.840	19.929	6.999	0.479
376.000	255.573	80.004	19.992	103.840	19.922	7.496	0.565
378.000	256.543	80.006	19.992	103.858	19.924	7.354	0.505
380.000	257.547	80.007	19.992	103.880	19.917	7.891	0.516
382.000	258.576	80.006	19.993	103.863	19.913	8.181	0.519
384.000	259.515	80.007	19.994	103.833	19.908	8.607	0.474
386.000	260.523	80.007	19.993	103.834	19.904	8.860	0.493
388.000	261.512	80.007	19.992	103.886	19.900	9.220	0.515
390.000	262.487	80.006	19.994	103.916	19.893	9.707	0.501
392.000	263.484	80.005	19.994	103.869	19.890	10.000	0.506
394.000	264.502	80.005	19.993	103.879	19.885	10.342	0.486
396.000	265.473	80.005	19.995	103.913	19.880	10.761	0.507
398.000	266.421	80.005	19.995	103.904	19.878	10.875	0.472
400.000	267.461	80.005	19.993	103.879	19.870	11.503	0.522
402.000	268.400	80.006	19.994	103.886	19.868	11.655	0.431
404.000	269.417	80.006	19.994	103.901	19.864	11.976	0.506
406.000	270.406	80.004	19.993	103.933	19.855	12.641	0.502
408.000	271.413	80.006	19.993	103.889	19.847	13.245	0.498
410.000	272.421	80.006	19.993	103.846	19.841	13.732	0.517
412.000	273.397	80.005	19.993	103.886	19.830	14.557	0.500
414.000	274.430	80.005	19.994	103.878	19.825	14.956	0.495
416.000	275.413	80.005	19.993	103.905	19.822	15.134	0.480
418.000	276.448	80.004	19.994	103.915	19.813	15.829	0.515
420.000	277.418	80.004	19.993	103.917	19.806	16.386	0.471
422.000	278.400	80.005	19.995	103.897	19.796	17.122	0.485
424.000	279.392	80.004	19.993	103.908	19.789	17.709	0.492
426.000	280.415	80.006	19.993	103.896	19.779	18.460	0.508
428.000	281.395	80.004	19.994	103.875	19.768	19.277	0.492
430.000	282.422	80.004	19.994	103.877	19.759	19.994	0.526
432.000	283.356	80.005	19.994	103.899	19.754	20.384	0.477
434.000	284.394	80.007	19.993	103.953	19.748	20.841	0.520
436.000	285.351	80.007	19.992	103.934	19.738	21.591	0.487
438.000	286.355	80.008	19.992	103.933	19.737	21.662	0.546
440.000	287.335	80.007	19.993	103.995	19.732	22.049	0.511
442.000	288.339	80.007	19.994	103.965	19.722	22.792	0.521
444.000	289.288	80.004	19.993	103.931	19.712	23.553	0.479
446.000	290.280	80.005	19.994	103.900	19.701	24.386	0.522
448.000	291.291	80.004	19.994	103.897	19.696	24.786	0.471
450.000	292.272	80.004	19.994	103.897	19.694	24.969	0.467
452.000	293.291	80.006	19.994	103.953	19.689	25.313	0.515
454.000	294.353	80.004	19.995	103.904	19.686	25.569	0.548
456.000	295.287	80.006	19.993	103.891	19.683	25.793	0.512
458.000	296.308	80.005	19.994	103.952	19.676	26.370	0.513
460.000	297.286	80.007	19.994	103.949	19.673	26.611	0.479
462.000	298.252	80.008	19.993	103.929	19.672	26.632	0.486
464.000	299.314	80.007	19.993	103.994	19.669	26.869	0.511
466.000	300.257	80.007	19.992	103.964	19.664	27.285	0.493
468.000	301.350	80.007	19.994	103.961	19.661	27.514	0.524
470.000	302.321	80.006	19.992	104.005	19.658	27.711	0.466
472.000	303.333	80.005	19.994	103.940	19.657	27.813	0.522
474.000	304.337	80.006	19.993	103.946	19.655	27.958	0.543
476.000	305.302	80.005	19.993	103.952	19.654	28.057	0.493
478.000	306.332	80.005	19.993	103.951	19.649	28.399	0.508
480.000	307.289	80.006	19.993	103.941	19.648	28.493	0.490
482.000	308.292	80.006	19.993	103.922	19.645	28.740	0.503
484.000	309.312	80.005	19.993	103.943	19.639	29.134	0.511
486.000	310.275	80.005	19.993	103.951	19.637	29.347	0.478
488.000	311.341	80.004	19.994	103.946	19.635	29.465	0.513
490.000	312.418	80.005	19.993	103.947	19.630	29.830	0.545
492.001	313.374	80.005	19.992	103.937	19.625	30.251	0.463
494.000	314.452	80.006	19.993	103.929	19.622	30.486	0.535
496.000	315.437	80.005	19.992	103.932	19.621	30.542	0.514
498.000	316.395	80.005	19.992	103.941	19.619	30.723	0.486
500.000	317.373	80.005	19.993	103.941	19.614	31.046	0.474
502.000	318.393	80.004	19.993	103.954	19.609	31.432	0.511
504.000	319.391	80.005	19.993	103.931	19.604	31.886	0.464
506.000	320.368	80.004	19.993	103.931	19.597	32.370	0.488
508.000	321.354	80.004	19.993	103.920	19.589	33.006	0.509
510.000	322.408	80.004	19.993	103.933	19.584	33.388	0.510
512.000	323.354	80.005	19.994	103.957	19.582	33.575	0.497
514.000	324.387	80.004	19.993	103.963	19.572	34.267	0.522
516.000	325.387	80.005	19.993	103.969	19.564	34.942	0.504
518.000	326.379	80.007	19.995	103.952	19.552	35.871	0.517
520.000	327.371	80.006	19.994	103.970	19.545	36.363	0.483
522.000	328.371	80.007	19.993	104.025	19.538	36.873	0.515
524.000	329.330	80.007	19.994	103.953	19.528	37.672	0.493
526.000	330.353	80.006	19.993	103.934	19.516	38.554	0.508
528.000	331.342	80.006	19.993	104.036	19.503	39.617	0.494
530.000	332.367	80.006	19.993	103.982	19.492	40.430	0.512
532.000	333.385	80.006	19.993	103.965	19.477	41.586	0.494
534.000	334.392	80.007	19.993	103.990	19.464	42.645	0.511
536.000	335.459	80.006	19.994	103.986	19.450	43.643	0.535
538.000	336.466	80.006	19.993	103.969	19.433	44.997	0.510
540.000	337.463	80.006	19.993	104.027	19.418	46.127	0.497
542.000	338.501	80.006	19.994	104.067	19.400	47.498	0.510
544.000	339.529	80.007	19.994	104.076	19.385	48.623	0.540
546.000	340.558	80.007	19.994	104.065	19.362	50.452	0.509
548.000	341.628	80.007	19.993	104.030	19.342	51.989	0.510
550.001	342.619	80.006	19.994	104.033	19.320	53.644	0.507
552.000	343.624	80.007	19.993	104.073	19.296	55.469	0.501
554.000	344.679	80.004	19.993	104.076	19.277	56.977	0.513
556.000	345.678	80.004	19.993	104.073	19.251	58.947	0.522
558.000	346.694	80.004	19.992	104.086	19.222	61.177	0.518
560.000	347.680	80.004	19.994	104.127	19.199	62.978	0.478
562.000	348.647	80.005	19.993	104.121	19.169	65.273	0.469
564.000	349.740	80.005	19.993	104.117	19.143	67.242	0.533
566.000	350.719	80.004	19.993	104.139	19.109	69.849	0.508
568.000	351.734	80.005	19.993	104.138	19.077	72.316	0.507
570.000	352.786	80.004	19.993	104.153	19.047	74.652	0.551
572.000	353.775	80.004	19.993	104.152	19.018	76.878	0.510
574.000	354.772	80.004	19.995	104.159	18.987	79.237	0.487
576.000	355.784	80.006	19.993	104.176	18.954	81.773	0.536
578.000	356.777	80.006	19.994	104.205	18.922	84.264	0.503
580.000	357.795	80.005	19.992	104.224	18.893	86.443	0.473
582.000	358.737	80.005	19.993	104.224	18.857	89.219	0.463
584.000	359.725	80.004	19.994	104.227	18.829	91.409	0.486
586.000	360.735	80.006	19.992	104.214	18.793	94.166	0.498
588.001	361.673	80.005	19.992	104.219	18.765	96.330	0.471
590.000	362.671	80.005	19.993	104.217	18.735	98.688	0.487
592.000	363.620	80.004	19.993	104.202	18.711	100.530	0.438
594.000	364.650	80.004	19.992	104.230	18.688	102.195	0.501
596.000	365.598	80.004	19.993	104.276	18.668	103.723	0.468
598.000	366.638	80.006	19.993	104.247	18.653	104.866	0.516
600.000	367.623	80.005	19.992	104.290	18.644	105.488	0.497
602.000	368.609	80.007	19.992	104.344	18.640	105.830	0.483
604.000	369.629	80.008	19.994	104.297	18.643	105.597	0.506
606.000	370.599	80.005	19.994	104.267	18.643	105.532	0.452
608.000	371.588	80.006	19.993	104.221	18.652	104.825	0.509
610.000	372.598	80.006	19.994	104.189	18.669	103.520	0.470
612.000	373.662	80.006	19.993	104.186	18.692	101.728	0.503
614.000	374.691	80.005	19.993	104.162	18.719	99.581	0.477
616.000	375.697	80.006	19.992	104.139	18.759	96.469	0.542
618.000	376.753	80.005	19.993	104.118	18.801	93.311	0.544
620.000	377.765	80.006	19.993	104.068	18.857	88.938	0.510
622.000	378.740	80.006	19.992	104.069	18.918	84.243	0.500
624.000	379.775	80.007	19.993	104.028	18.982	79.343	0.541
626.000	380.778	80.007	19.992	103.961	19.048	74.290	0.523
628.000	381.821	80.008	19.992	103.942	19.121	68.719	0.515
630.000	382.803	80.008	19.993	103.963	19.195	63.037	0.525
632.000	383.811	80.005	19.993	103.910	19.271	57.198	0.508
634.000	384.819	80.007	19.993	103.863	19.350	51.222	0.511
636.000	385.887	80.003	19.994	103.844	19.421	45.805	0.501
638.000	386.866	80.004	19.994	103.839	19.487	40.752	0.510
640.000	387.882	80.003	19.994	103.836	19.551	35.820	0.517
642.000	388.937	80.004	19.994	103.798	19.609	31.390	0.507
644.000	389.925	80.004	19.994	103.807	19.665	27.105	0.521
646.000	390.966	80.004	19.994	103.825	19.708	23.819	0.523
648.000	391.989	80.005	19.993	103.841	19.744	21.077	0.520
650.000	393.017	80.005	19.993	103.790	19.779	18.425	0.529
652.000	393.991	80.007	19.993	103.760	19.803	16.623	0.496
654.000	395.065	80.006	19.993	103.793	19.821	15.214	0.507
656.000	396.082	80.005	19.993	103.788	19.847	13.198	0.492
658.000	397.090	80.006	19.994	103.803	19.857	12.440	0.536
660.000	398.095	80.004	19.993	103.801	19.872	11.308	0.484
662.000	399.061	80.005	19.994	103.801	19.882	10.573	0.472
664.000	400.082	80.007	19.993	103.821	19.890	9.960	0.488
666.000	401.026	80.005	19.993	103.767	19.896	9.484	0.466
668.000	402.039	80.004	19.993	103.779	19.896	9.493	0.503
670.000	403.077	80.005	19.993	103.792	19.899	9.241	0.501
672.000	404.031	80.005	19.993	103.785	19.903	8.998	0.504
674.000	405.054	80.005	19.992	103.770	19.908	8.617	0.498
676.000	406.021	80.005	19.994	103.774	19.910	8.434	0.516
678.000	407.045	80.006	19.993	103.809	19.916	7.954	0.507
680.000	408.043	80.006	19.992	103.828	19.920	7.653	0.485
682.000	409.004	80.007	19.993	103.837	19.922	7.494	0.489
684.000	409.984	80.007	19.992	103.837	19.921	7.591	0.494
686.000	411.043	80.006	19.992	103.782	19.917	7.911	0.524
688.000	412.005	80.007	19.992	103.780	19.920	7.695	0.503
690.000	412.987	80.007	19.993	103.771	19.922	7.490	0.458
692.000	413.998	80.005	19.993	103.787	19.924	7.325	0.482
694.001	414.991	80.005	19.993	103.856	19.930	6.890	0.517
696.000	416.009	80.005	19.993	103.786	19.927	7.095	0.505
698.000	416.989	80.006	19.993	103.759	19.930	6.916	0.459
700.000	417.947	80.006	19.993	103.846	19.930	6.874	0.471
702.000	418.988	80.008	19.994	103.860	19.931	6.860	0.521
704.000	419.988	80.006	19.993	103.741	19.936	6.410	0.511
706.000	421.016	80.007	19.994	103.769	19.934	6.618	0.533
708.000	422.063	80.008	19.993	103.776	19.936	6.427	0.525
710.000	423.033	80.008	19.993	103.803	19.935	6.500	0.492
712.000	424.036	80.008	19.993	103.807	19.936	6.437	0.491
714.000	425.030	80.008	19.992	103.836	19.937	6.373	0.509
716.000	426.033	80.005	19.993	103.796	19.937	6.340	0.486
718.000	427.013	80.005	19.994	103.778	19.938	6.285	0.514
720.000	428.033	80.006	19.994	103.814	19.934	6.616	0.495
722.000	429.022	80.005	19.993	103.818	19.940	6.148	0.514
724.000	430.017	80.005	19.994	103.834	19.942	5.977	0.495
726.000	431.003	80.005	19.994	103.879	19.942	6.010	0.482
728.000	432.010	80.005	19.994	103.824	19.944	5.824	0.500
730.000	433.055	80.006	19.994	103.808	19.945	5.768	0.507
732.000	434.031	80.006	19.994	103.746	19.947	5.624	0.481
734.000	435.060	80.006	19.994	103.791	19.946	5.676	0.519
736.000	436.054	80.005	19.994	103.832	19.946	5.682	0.518
738.000	437.087	80.006	19.993	103.757	19.949	5.441	0.521
740.000	438.105	80.007	19.994	103.808	19.949	5.482	0.508
742.000	439.059	80.007	19.993	103.784	19.950	5.341	0.487
744.000	440.135	80.007	19.992	103.789	19.952	5.190	0.508
746.000	441.140	80.005	19.993	103.790	19.952	5.214	0.493
748.000	442.169	80.005	19.993	103.832	19.953	5.150	0.492
750.000	443.193	80.005	19.993	103.819	19.957	4.810	0.484
752.000	444.214	80.007	19.992	103.782	19.955	4.965	0.491
754.000	445.245	80.005	19.993	103.778	19.956	4.943	0.502
756.000	446.285	80.006	19.993	103.801	19.957	4.822	0.521
758.000	447.287	80.005	19.994	103.802	19.958	4.744	0.511
760.000	448.288	80.006	19.992	103.802	19.963	4.386	0.488
762.000	449.326	80.006	19.993	103.813	19.969	3.949	0.508
764.000	450.334	80.006	19.993	103.809	19.964	4.270	0.503
766.000	451.355	80.006	19.992	103.793	19.968	3.962	0.482
768.000	452.400	80.005	19.994	103.801	19.964	4.299	0.528
770.000	453.401	80.006	19.993	103.799	19.963	4.350	0.483
772.000	454.399	80.007	19.993	103.773	19.967	4.081	0.503
774.000	455.450	80.006	19.992	103.763	19.965	4.201	0.518
776.001	456.491	80.008	19.993	103.772	19.969	3.931	0.523
778.000	457.495	80.009	19.993	103.794	19.969	3.889	0.516
780.000	458.502	80.006	19.992	103.799	19.973	3.586	0.497
782.000	459.558	80.007	19.993	103.818	19.976	3.416	0.532
784.000	460.585	80.009	19.992	103.835	19.976	3.350	0.524
786.000	461.578	80.009	19.993	103.820	19.977	3.306	0.529
788.000	462.591	80.007	19.993	103.797	19.974	3.514	0.520
790.000	463.643	80.009	19.992	103.796	19.977	3.290	0.519
792.000	464.611	80.008	19.993	103.777	19.974	3.548	0.490
794.000	465.637	80.007	19.993	103.760	19.974	3.534	0.495
796.000	466.615	80.006	19.994	103.770	19.979	3.152	0.502
798.000	467.611	80.005	19.994	103.780	19.978	3.218	0.516
800.000	468.643	80.007	19.993	103.772	19.981	2.998	0.501
802.000	469.646	80.006	19.995	103.785	19.981	3.023	0.482
804.000	470.682	80.005	19.994	103.774	19.982	2.957	0.511
806.000	471.721	80.006	19.993	103.771	19.983	2.852	0.514
808.000	472.693	80.006	19.994	103.792	19.983	2.840	0.498
810.000	473.770	80.005	19.994	103.798	19.988	2.481	0.529
812.000	474.792	80.005	19.993	103.796	19.986	2.589	0.529
814.000	475.770	80.006	19.993	103.784	19.981	3.012	0.500
816.000	476.818	80.005	19.994	103.786	19.984	2.811	0.514
818.000	477.845	80.005	19.994	103.814	19.983	2.882	0.518
820.000	478.867	80.006	19.994	103.796	19.984	2.742	0.483
822.000	479.888	80.004	19.994	103.767	19.983	2.826	0.507
824.000	480.874	80.005	19.994	103.785	19.981	3.023	0.500
826.000	481.901	80.006	19.993	103.772	19.985	2.698	0.503
828.000	482.876	80.004	19.994	103.789	19.985	2.723	0.486
830.000	483.875	80.004	19.994	103.780	19.988	2.469	0.498
832.000	484.891	80.004	19.995	103.778	19.984	2.764	0.523
834.000	485.914	80.004	19.992	103.780	19.981	2.998	0.505
836.000	486.915	80.004	19.993	103.783	19.986	2.658	0.496
838.000	487.921	80.005	19.993	103.811	19.985	2.719	0.492
840.000	488.916	80.006	19.993	103.787	19.983	2.875	0.496
842.000	489.938	80.007	19.992	103.756	19.984	2.778	0.517
844.000	490.948	80.006	19.993	103.778	19.986	2.640	0.502
846.000	491.964	80.008	19.992	103.807	19.985	2.661	0.498
848.000	492.965	80.006	19.993	103.824	19.992	2.197	0.504
850.000	494.046	80.006	19.993	103.805	19.990	2.328	0.512
852.000	495.069	80.007	19.994	103.794	19.991	2.206	0.538
854.000	496.079	80.006	19.994	103.789	19.990	2.334	0.522
856.000	497.084	80.007	19.994	103.782	19.990	2.317	0.527
858.000	498.102	80.006	19.993	103.758	19.989	2.407	0.511
860.000	499.138	80.004	19.995	103.751	19.989	2.403	0.517
862.000	500.175	80.007	19.994	103.746	19.989	2.398	0.532
864.000	501.194	80.007	19.992	103.778	19.986	2.640	0.492
866.000	502.207	80.008	19.992	103.801	19.986	2.621	0.470
868.000	503.250	80.008	19.992	103.789	19.986	2.645	0.530
870.000	504.267	80.009	19.992	103.761	19.987	2.518	0.508
872.000	505.263	80.006	19.995	103.761	19.986	2.602	0.515
874.000	506.280	80.008	19.991	103.750	19.986	2.608	0.501
876.000	507.296	80.007	19.994	103.777	19.985	2.736	0.501
878.000	508.320	80.007	19.994	103.784	19.986	2.625	0.518
880.000	509.332	80.006	19.992	103.808	19.989	2.399	0.536
882.000	510.348	80.005	19.993	103.802	19.990	2.333	0.481
884.000	511.337	80.006	19.992	103.773	19.989	2.371	0.504
886.000	512.336	80.004	19.993	103.794	19.992	2.176	0.497
888.000	513.361	80.005	19.992	103.789	19.991	2.270	0.537
890.000	514.393	80.004	19.993	103.766	19.990	2.299	0.511
892.000	515.406	80.004	19.994	103.771	19.988	2.469	0.488
894.000	516.407	80.006	19.993	103.776	19.989	2.406	0.500
896.000	517.452	80.005	19.993	103.773	19.989	2.412	0.500
898.000	518.435	80.005	19.994	103.761	19.991	2.234	0.510
900.000	519.513	80.005	19.994	103.803	19.990	2.318	0.543
902.000	520.565	80.006	19.993	103.830	19.989	2.358	0.536
904.000	521.554	80.005	19.994	103.779	19.993	2.113	0.512
906.000	522.560	80.004	19.995	103.799	19.987	2.562	0.513
908.000	523.616	80.005	19.994	103.783	19.989	2.380	0.522
910.000	524.611	80.005	19.993	103.778	19.991	2.265	0.513
912.000	525.624	80.004	19.995	103.745	19.988	2.467	0.510
914.000	526.620	80.004	19.995	103.743	19.992	2.166	0.495
916.000	527.631	80.005	19.994	103.762	19.993	2.122	0.492
918.000	528.697	80.005	19.994	103.769	19.991	2.206	0.524
920.000	529.679	80.004	19.995	103.756	19.990	2.295	0.530
922.000	530.697	80.004	19.994	103.782	19.995	1.967	0.519
924.000	531.700	80.006	19.996	103.791	19.993	2.070	0.528
926.000	532.717	80.006	19.994	103.779	19.994	1.999	0.492
928.000	533.761	80.006	19.995	103.785	19.993	2.060	0.516
930.000	534.802	80.007	19.993	103.764	19.991	2.228	0.511
932.000	535.762	80.007	19.993	103.754	19.994	2.006	0.484
934.000	536.750	80.007	19.993	103.773	19.989	2.423	0.480
936.000	537.805	80.005	19.992	103.826	19.987	2.520	0.512
938.000	538.804	80.006	19.994	103.767	19.985	2.667	0.512
940.000	539.805	80.006	19.994	103.780	19.987	2.533	0.508
942.000	540.808	80.005	19.992	103.786	19.988	2.432	0.499
944.000	541.805	80.006	19.994	103.809	19.994	1.983	0.504
946.000	542.818	80.007	19.993	103.811	19.997	1.750	0.504
948.000	543.800	80.007	19.993	103.828	20.000	1.571	0.508
950.000	544.763	80.008	19.993	103.852	19.996	1.825	0.487
952.000	545.782	80.007	19.992	103.787	19.993	2.066	0.510
954.000	546.797	80.007	19.993	103.726	19.989	2.383	0.521
956.000	547.859	80.007	19.992	103.699	19.990	2.336	0.542
958.000	548.923	80.005	19.993	103.744	19.987	2.525	0.538
960.000	550.019	80.004	19.994	103.737	19.990	2.350	0.563
962.000	551.080	80.005	19.992	103.736	19.987	2.524	0.506
964.000	552.132	80.005	19.993	103.796	19.990	2.303	0.520
966.000	553.236	80.005	19.992	103.806	19.992	2.188	0.560
968.000	554.350	80.004	19.993	103.773	19.990	2.353	0.580
970.000	555.485	80.006	19.993	103.721	19.986	2.606	0.559
972.000	556.543	80.006	19.993	103.789	19.988	2.473	0.522
974.000	557.663	80.006	19.993	103.765	19.989	2.395	0.542
976.000	558.808	80.006	19.994	103.777	19.991	2.251	0.535
978.000	559.901	80.007	19.993	103.816	19.989	2.405	0.523
980.000	561.044	80.007	19.992	103.813	19.993	2.085	0.538
982.000	562.144	80.006	19.993	103.779	19.990	2.305	0.528
984.000	563.275	80.006	19.995	103.800	19.994	2.022	0.526
986.000	564.341	80.007	19.994	103.820	19.989	2.420	0.552
988.000	565.458	80.005	19.994	103.778	19.990	2.303	0.543
990.000	566.517	80.005	19.993	103.752	19.988	2.442	0.550
992.000	567.636	80.005	19.994	103.746	19.988	2.467	0.527
994.000	568.716	80.006	19.994	103.777	19.985	2.699	0.544
996.000	569.827	80.005	19.994	103.763	19.989	2.430	0.519
998.000	570.952	80.005	19.995	103.802	19.992	2.183	0.535
1000.000	571.999	80.005	19.994	103.821	19.991	2.274	0.522
1002.000	573.113	80.006	19.993	103.794	19.992	2.198	0.555
1004.000	574.263	80.005	19.994	103.772	19.997	1.768	0.527
1006.000	575.334	80.005	19.993	103.762	19.994	2.035	0.552
1008.000	576.353	80.007	19.993	103.772	19.993	2.111	0.501
1010.000	577.528	80.006	19.994	103.776	19.989	2.371	0.571
1012.000	578.604	80.007	19.994	103.761	19.992	2.200	0.579
1014.000	579.631	80.005	19.994	103.759	19.987	2.519	0.575
1016.000	580.639	80.006	19.995	103.759	19.988	2.450	0.546
1018.000	581.800	80.005	19.995	103.765	19.988	2.448	0.584
1020.000	582.794	80.005	19.994	103.771	19.995	1.944	0.510
1022.000	583.922	80.006	19.993	103.762	20.005	1.170	0.554
1024.000	584.967	80.006	19.994	103.763	19.988	2.464	0.528
1026.000	586.046	80.007	19.992	103.788	19.990	2.344	0.569
1028.000	587.076	80.007	19.993	103.796	19.990	2.297	0.618
1030.001	588.139	80.007	19.992	103.798	19.993	2.117	0.562
1032.000	589.328	80.007	19.993	103.796	19.991	2.210	0.535
1034.000	590.925	80.009	19.993	103.763	19.991	2.272	0.611
1036.000	592.105	80.009	19.992	103.760	19.993	2.062	1.355
1038.000	592.446	80.008	19.992	103.768	19.994	1.973	0.514
1040.000	593.596	80.006	19.994	103.756	19.990	2.346	0.519
1042.000	594.672	80.006	19.993	103.757	19.994	2.003	0.520
1044.000	595.748	80.005	19.993	103.763	19.990	2.301	0.488
1046.000	596.806	80.006	19.993	103.775	19.992	2.158	0.512
1048.001	597.846	80.006	19.993	103.746	19.994	2.039	0.435
1050.000	598.909	80.005	19.993	103.776	19.990	2.314	0.570
1052.000	600.002	80.007	19.994	103.784	19.989	2.401	0.491
1054.001	600.943	80.005	19.993	103.765	19.994	2.039	0.504
1056.000	602.026	80.007	19.992	103.763	19.994	2.037	0.514
1058.001	603.021	80.006	19.992	103.792	19.991	2.212	0.464
1060.000	604.040	80.007	19.993	103.772	19.990	2.286	0.496
1062.000	605.109	80.007	19.993	103.758	19.994	1.982	0.506
1064.000	606.095	80.006	19.992	103.760	19.993	2.075	0.505
1066.000	607.189	80.006	19.993	103.779	19.994	2.007	0.520
1068.000	608.262	80.005	19.993	103.762	19.990	2.339	0.509
1070.000	609.272	80.006	19.993	103.745	19.988	2.506	0.529
1072.000	610.347	80.006	19.993	103.761	19.991	2.249	0.564
1074.000	611.399	80.005	19.993	103.757	19.991	2.233	0.525
1076.000	612.492	80.006	19.993	103.761	19.988	2.492	0.539
1078.000	613.531	80.005	19.993	103.757	19.993	2.105	0.519
1080.001	614.578	80.005	19.993	103.777	19.992	2.140	0.511
1082.001	615.611	80.005	19.994	103.886	19.993	2.098	0.511
1084.000	616.685	80.005	19.993	103.806	19.993	2.066	0.528
1086.000	617.736	80.006	19.993	103.732	19.993	2.104	0.516
1088.000	618.783	80.007	19.995	103.815	19.991	2.237	0.528
1090.000	619.819	80.008	19.993	103.763	19.993	2.087	0.508
1092.000	620.875	80.006	19.994	103.751	19.991	2.237	0.541
1094.000	621.886	80.007	19.994	103.737	19.990	2.292	0.505
1096.000	622.914	80.007	19.993	103.728	19.992	2.136	0.497
1098.000	623.934	80.006	19.993	103.739	19.993	2.064	0.490
1100.000	624.942	80.006	19.993	103.742	19.992	2.181	0.490
1102.000	625.955	80.006	19.994	103.735	19.992	2.153	0.524
1104.000	626.995	80.006	19.994	103.741	19.992	2.203	0.506
1106.001	627.995	80.007	19.993	103.736	19.986	2.587	0.500
1108.000	628.992	80.007	19.993	103.753	19.992	2.199	0.488
1110.000	629.982	80.007	19.995	103.760	19.995	1.964	0.463
1112.000	630.999	80.005	19.994	103.759	19.995	1.908	0.527
1114.001	632.035	80.008	19.993	103.800	19.996	1.851	0.516
1116.000	632.981	80.007	19.993	103.792	19.994	2.018	0.473
1118.000	633.995	80.008	19.994	103.739	19.992	2.170	0.523
1120.000	635.004	80.007	19.994	103.725	19.995	1.946	0.479
1122.001	635.948	80.007	19.994	103.737	19.998	1.690	0.466
1124.000	636.880	80.007	19.993	103.747	19.993	2.123	0.449
1126.000	637.909	80.007	19.993	103.774	19.991	2.244	0.482
1128.000	638.891	80.007	19.992	103.753	19.990	2.304	0.523
1130.001	639.770	80.006	19.993	103.764	19.991	2.228	0.443
1132.001	640.794	80.006	19.993	103.742	19.991	2.221	0.495
1134.000	641.746	80.005	19.993	103.741	19.989	2.374	0.460
1136.000	642.718	80.004	19.993	103.721	19.991	2.221	0.489
1138.000	643.584	80.004	19.993	103.769	20.002	1.425	0.433
1140.000	644.559	80.005	19.993	103.826	20.005	1.144	0.483
1142.000	645.511	80.005	19.995	103.788	20.011	0.687	0.502
1144.001	646.440	80.006	19.993	103.788	20.007	1.040	0.488
1146.001	646.951	80.003	19.993	103.773	20.003	1.299	0.221
1148.000	648.329	80.005	19.994	103.748	20.002	1.432	0.834
1150.000	649.253	80.005	19.992	103.783	19.993	2.121	0.419
1152.000	650.252	80.003	19.994	103.752	19.993	2.092	0.534
1154.000	651.178	80.004	19.992	103.737	19.989	2.390	0.443
1156.000	652.115	80.006	19.993	103.762	19.991	2.208	0.461
1158.000	653.105	80.003	19.992	103.787	19.990	2.345	0.470
1160.000	654.084	80.004	19.992	103.770	19.990	2.284	0.507
1162.000	655.080	80.005	19.992	103.768	19.995	1.905	0.520
1164.000	656.034	80.005	19.993	103.775	19.994	1.988	0.484
1166.000	657.042	80.006	19.992	103.759	19.993	2.079	0.500
1168.000	658.018	80.007	19.993	103.740	19.994	2.018	0.491
1170.000	659.046	80.005	19.994	103.734	19.987	2.568	0.522
1172.000	660.061	80.005	19.994	103.745	19.986	2.629	0.525
1174.000	661.075	80.007	19.995	103.718	19.990	2.289	0.535
1176.000	662.142	80.006	19.993	103.757	19.982	2.894	0.523
1178.000	663.157	80.006	19.995	103.756	19.986	2.601	0.525
1180.000	664.168	80.005	19.995	103.757	19.989	2.402	0.521
1182.000	665.227	80.006	19.994	103.757	19.990	2.321	0.525
1184.001	666.260	80.005	19.994	103.772	19.990	2.349	0.502
1186.000	667.356	80.007	19.993	103.796	19.991	2.271	0.514
1188.001	668.543	80.006	19.994	103.774	19.991	2.278	0.611
1190.001	669.335	80.006	19.993	103.743	19.993	2.123	0.828
1192.001	670.483	80.006	19.993	103.765	19.989	2.358	0.521
1194.001	671.525	80.008	19.994	103.761	19.987	2.563	0.538
1196.000	672.546	80.007	19.993	103.704	19.986	2.593	0.512
1198.000	673.583	80.006	19.993	103.747	19.992	2.145	0.518
1200.000	674.613	80.007	19.992	103.764	19.990	2.301	0.511
1202.000	675.708	80.006	19.993	103.757	19.990	2.292	0.541
1204.001	676.758	80.004	19.994	103.757	19.991	2.265	0.505
1206.000	677.788	80.004	19.994	103.763	19.988	2.497	0.503
1208.000	678.855	80.004	19.995	103.792	19.992	2.129	0.525
1210.000	679.842	80.004	19.994	103.784	19.996	1.846	0.498
1212.000	680.915	80.003	19.993	103.744	19.994	2.005	0.514
1214.000	681.907	80.005	19.993	103.744	19.991	2.210	0.519
1216.001	682.947	80.005	19.993	103.754	19.989	2.394	0.532
1218.001	684.004	80.006	19.993	103.729	19.993	2.121	0.518
1220.000	685.036	80.005	19.993	103.740	19.988	2.483	0.540
1222.000	686.068	80.006	19.994	103.745	19.984	2.760	0.532
1224.000	687.157	80.006	19.994	103.730	19.989	2.417	0.517
1226.000	688.226	80.004	19.994	103.735	19.990	2.296	0.498
1228.000	689.254	80.004	19.993	103.747	19.990	2.294	0.569
1230.000	690.242	80.006	19.993	103.763	19.992	2.195	0.510
1232.001	691.292	80.004	19.993	103.762	19.992	2.195	0.501
1234.001	692.371	80.003	19.993	103.759	19.992	2.135	0.520
1236.000	693.375	80.004	19.994	103.740	19.992	2.202	0.513
1238.001	694.412	80.004	19.995	103.749	19.993	2.109	0.538
1240.000	695.434	80.004	19.995	103.731	19.993	2.089	0.519
1242.000	696.467	80.004	19.993	103.721	19.996	1.876	0.471
1244.001	697.517	80.004	19.993	103.780	19.998	1.715	0.518
1246.000	698.553	80.006	19.993	103.815	20.000	1.578	0.504
1248.000	699.597	80.007	19.991	103.767	19.997	1.755	0.498
1250.001	700.661	80.007	19.992	103.750	19.997	1.751	0.539
1252.001	701.649	80.006	19.993	103.756	19.995	1.969	0.487
1254.000	702.709	80.007	19.994	103.766	19.993	2.070	0.522
1256.000	703.780	80.006	19.993	103.756	19.995	1.969	0.530
1258.000	704.861	80.006	19.992	103.726	19.994	2.037	0.523
1260.000	705.878	80.006	19.992	103.727	19.995	1.914	0.541
1262.001	706.902	80.006	19.993	103.749	19.993	2.065	0.494
1264.000	707.922	80.005	19.993	103.772	19.996	1.842	0.507
1266.000	708.966	80.005	19.993	103.812	19.994	2.016	0.518
1268.000	710.013	80.006	19.993	103.672	19.993	2.103	0.497
1270.000	711.044	80.007	19.994	103.699	19.994	2.022	0.493
1272.000	712.015	80.006	19.994	103.767	19.997	1.753	0.473
1274.000	713.092	80.007	19.993	103.776	19.996	1.831	0.542
1276.000	714.058	80.006	19.993	103.760	19.995	1.906	0.518
1278.000	715.102	80.007	19.994	103.770	19.998	1.741	0.501
1280.000	716.126	80.007	19.994	103.768	19.998	1.711	0.491
1282.000	717.078	80.007	19.994	103.738	19.998	1.684	0.495
1284.000	718.085	80.005	19.993	103.725	20.000	1.584	0.484
1286.000	719.108	80.004	19.994	103.743	19.995	1.931	0.497
1288.000	720.082	80.004	19.994	103.761	19.995	1.920	0.484
1290.001	721.012	80.004	19.994	103.751	19.996	1.850	0.505
1292.001	722.046	80.003	19.993	103.758	20.001	1.493	0.489
1294.001	722.992	80.003	19.995	103.758	19.999	1.601	0.505
1296.001	723.961	80.005	19.995	103.754	19.995	1.897	0.468
1298.001	724.981	80.004	19.996	103.749	19.997	1.791	0.498
1300.000	725.932	80.004	19.995	103.730	19.993	2.112	0.493
1302.000	726.952	80.004	19.994	103.737	19.994	2.028	0.523
1304.001	727.985	80.007	19.994	103.739	19.996	1.834	0.538
1306.001	729.045	80.005	19.994	103.741	19.996	1.880	0.507
1308.000	730.035	80.005	19.994	103.754	19.993	2.051	0.521
1310.000	731.048	80.004	19.993	103.746	19.993	2.119	0.512
1312.000	732.117	80.005	19.994	103.735	19.991	2.246	0.539
1314.001	733.126	80.004	19.993	103.747	19.995	1.921	0.483
1316.000	734.113	80.005	19.994	103.759	19.993	2.112	0.484
1318.001	735.260	80.004	19.992	103.758	19.996	1.884	0.458
1320.000	736.290	80.004	19.994	103.753	19.995	1.967	0.505
1322.001	737.342	80.005	19.993	103.759	19.993	2.085	0.498
1324.000	738.384	80.005	19.995	103.773	19.995	1.907	0.535
1326.001	739.436	80.005	19.994	103.752	19.996	1.850	0.551
1328.000	740.477	80.005	19.993	103.739	19.992	2.170	0.533
1330.000	741.519	80.006	19.993	103.751	19.994	2.034	0.518
1332.000	742.562	80.007	19.992	103.753	19.992	2.155	0.528
1334.000	743.542	80.006	19.993	103.742	19.992	2.195	0.462
1336.000	744.540	80.006	19.994	103.730	19.998	1.732	0.491
1338.000	745.570	80.006	19.993	103.737	19.994	2.034	0.521