File: 01_Data/Masonite_Board/MCC/Extra/Masonite_New_Grinder_MCC_30K_min_220328_R2.txt
Sample ID:	C:\MCC\MCC Cal\Test\Masonite_New_grinder_MCC_30K_min_220328_R2.txt
Sample Weight (mg):	4.72
Heating Rate (C/s):	0.5
Combustor Temp (C):	900
N2 Flow Rate (cc/min):	80
O2 Flow Rate (cc/min):	20
Calibration File:	C:\MCC\MCC Cal\Coeff1 JN10440_30_210304.txt.txt
T Correction Coefficients:	0	1.024463	0
Time Shift (s):	14
*
Time (s)	Temperature (C)	N2 flow rate (cc/min)	O2 flow rate (cc/min)	Flow Rate (cc/min)	Oxygen (%)	HRR (W/g)	Heating rate (C/s)
0.000	108.982	80.006	19.993	103.602	20.048	0.495	0.049
2.000	108.927	80.011	19.997	103.601	20.048	0.495	-0.027
4.000	108.941	80.006	19.994	103.607	20.047	0.594	-0.020
6.000	108.946	80.007	19.993	103.619	20.051	0.345	-0.010
8.000	108.944	80.006	19.992	103.648	20.047	0.596	-0.000
10.000	108.925	80.006	19.991	103.651	20.047	0.564	-0.017
12.001	108.940	80.006	19.993	103.649	20.045	0.705	-0.014
14.001	108.955	80.006	19.993	103.660	20.043	0.867	-0.018
16.000	108.989	80.005	19.992	103.684	20.039	1.116	0.005
18.000	109.053	80.006	19.993	103.635	20.036	1.378	0.067
20.000	109.118	80.004	19.993	103.707	20.035	1.389	0.039
22.000	109.177	80.005	19.994	103.794	20.032	1.615	-0.006
24.000	109.299	80.004	19.997	103.797	20.032	1.591	0.081
26.000	109.480	80.004	19.994	103.844	20.031	1.670	0.130
28.000	109.664	80.003	19.997	103.852	20.025	2.077	0.116
30.000	109.836	80.005	19.993	103.797	20.023	2.230	0.116
32.000	110.112	80.005	19.994	103.792	20.025	2.134	0.117
33.999	110.378	80.005	19.993	103.790	20.022	2.330	0.160
35.999	110.621	80.005	19.994	103.766	20.017	2.655	0.135
37.999	110.925	80.005	19.993	103.771	20.022	2.316	0.164
40.000	111.229	80.003	19.994	103.776	20.017	2.658	0.150
41.999	111.537	80.006	19.992	103.866	20.018	2.574	0.136
44.000	111.921	80.005	19.993	103.843	20.015	2.811	0.198
45.999	112.307	80.005	19.993	103.774	20.011	3.074	0.205
48.000	112.649	80.007	19.995	103.822	20.011	3.069	0.162
49.999	113.075	80.005	19.992	103.887	20.013	2.915	0.178
51.999	113.521	80.007	19.994	103.892	20.012	3.010	0.214
53.999	114.001	80.007	19.994	103.881	20.014	2.862	0.254
56.000	114.433	80.007	19.994	103.849	20.010	3.138	0.222
57.999	114.962	80.006	19.994	103.829	20.006	3.409	0.263
59.999	115.478	80.008	19.994	103.845	20.007	3.368	0.260
62.000	116.023	80.004	19.995	103.859	20.004	3.546	0.252
63.999	116.595	80.005	19.992	103.848	20.003	3.624	0.278
65.999	117.194	80.004	19.994	103.856	20.003	3.609	0.293
67.999	117.787	80.007	19.993	103.881	20.005	3.496	0.294
69.999	118.443	80.008	19.993	103.908	20.004	3.542	0.307
71.999	119.054	80.007	19.994	103.907	20.007	3.344	0.294
74.000	119.756	80.007	19.994	103.889	20.006	3.399	0.358
75.999	120.464	80.007	19.993	103.905	20.006	3.424	0.359
77.999	121.130	80.008	19.993	103.887	20.005	3.452	0.333
79.999	121.860	80.008	19.992	103.889	20.005	3.449	0.374
82.000	122.645	80.006	19.992	103.878	20.005	3.474	0.376
83.999	123.348	80.005	19.992	103.880	20.004	3.526	0.339
85.999	124.182	80.005	19.992	103.876	20.002	3.717	0.415
87.999	124.881	80.006	19.992	103.866	20.002	3.704	0.354
89.999	125.669	80.004	19.993	103.877	20.002	3.699	0.385
91.999	126.480	80.004	19.994	103.892	20.004	3.536	0.410
93.999	127.241	80.006	19.994	103.904	20.006	3.417	0.383
96.000	128.086	80.005	19.993	103.904	20.001	3.788	0.403
97.999	128.859	80.004	19.994	103.883	20.004	3.555	0.397
99.999	129.762	80.004	19.997	103.893	20.002	3.669	0.411
102.001	130.577	80.006	19.992	103.923	20.002	3.697	0.407
104.000	131.442	80.006	19.993	103.914	20.002	3.694	0.445
105.999	132.330	80.007	19.993	103.900	20.002	3.683	0.406
107.999	133.234	80.005	19.994	103.889	20.002	3.674	0.450
109.999	134.035	80.006	19.993	103.872	20.002	3.657	0.382
111.999	134.948	80.005	19.993	103.867	19.997	3.998	0.430
114.000	135.818	80.005	19.995	103.881	20.001	3.747	0.448
116.000	136.738	80.003	19.994	103.890	19.999	3.880	0.461
117.999	137.688	80.005	19.993	103.893	20.007	3.359	0.462
120.000	138.604	80.003	19.995	103.905	20.003	3.644	0.447
121.999	139.540	80.003	19.995	103.902	20.002	3.677	0.445
123.999	140.468	80.004	19.993	103.850	20.000	3.789	0.461
125.999	141.380	80.005	19.993	103.868	20.005	3.468	0.452
127.999	142.329	80.005	19.994	103.889	20.002	3.713	0.471
130.000	143.309	80.007	19.993	103.911	20.000	3.812	0.483
132.000	144.291	80.006	19.994	103.835	19.999	3.880	0.505
134.000	145.247	80.006	19.992	103.898	20.004	3.566	0.447
136.000	146.193	80.006	19.993	103.850	20.003	3.639	0.429
138.000	147.207	80.006	19.994	103.929	20.001	3.776	0.494
140.000	148.197	80.005	19.994	103.909	20.003	3.635	0.496
142.000	149.166	80.006	19.994	103.874	20.005	3.468	0.519
144.000	150.120	80.004	19.994	103.854	20.006	3.379	0.459
146.000	151.131	80.006	19.994	103.906	20.001	3.749	0.470
148.000	152.139	80.004	19.995	103.864	20.004	3.515	0.513
150.000	153.122	80.007	19.993	103.858	20.002	3.655	0.480
152.000	154.059	80.007	19.996	103.902	20.005	3.494	0.484
154.000	155.053	80.006	19.994	103.853	20.006	3.432	0.511
156.000	156.011	80.007	19.993	103.776	20.006	3.412	0.464
158.000	157.047	80.007	19.993	103.864	20.002	3.707	0.490
160.000	158.044	80.006	19.992	103.921	20.003	3.628	0.498
162.000	159.045	80.007	19.992	103.877	20.001	3.732	0.499
164.000	160.014	80.006	19.993	103.849	20.001	3.722	0.457
166.000	161.076	80.005	19.992	103.817	20.002	3.648	0.523
168.000	162.053	80.004	19.992	103.925	20.001	3.761	0.521
170.000	163.045	80.005	19.993	103.912	20.002	3.693	0.504
172.000	164.063	80.004	19.992	103.878	20.005	3.500	0.496
174.000	165.092	80.003	19.993	103.872	20.000	3.790	0.549
176.000	166.072	80.004	19.993	103.841	19.995	4.191	0.503
178.000	167.067	80.005	19.994	103.843	19.999	3.891	0.506
180.000	168.065	80.004	19.994	103.851	19.997	4.013	0.463
182.000	169.067	80.004	19.994	103.889	19.997	4.004	0.493
184.000	170.066	80.004	19.993	103.894	19.998	3.972	0.516
186.000	171.049	80.005	19.993	103.875	19.999	3.886	0.501
188.000	172.070	80.005	19.994	103.855	19.999	3.921	0.506
190.000	173.057	80.004	19.993	103.899	20.000	3.847	0.525
192.000	174.089	80.004	19.993	103.877	19.999	3.883	0.487
194.000	175.085	80.004	19.993	103.822	19.998	3.963	0.505
196.000	176.047	80.005	19.993	103.847	19.998	3.931	0.490
198.000	177.024	80.003	19.992	103.832	19.997	4.025	0.497
200.000	178.028	80.003	19.993	103.886	19.994	4.211	0.512
202.000	179.035	80.006	19.994	103.863	20.000	3.807	0.516
204.000	179.987	80.003	19.993	103.788	19.998	3.977	0.464
206.000	180.984	80.004	19.993	103.815	19.992	4.402	0.498
208.000	181.989	80.005	19.993	103.813	19.993	4.319	0.519
210.000	182.975	80.006	19.994	103.837	19.995	4.133	0.490
212.000	183.902	80.005	19.994	103.843	19.999	3.912	0.466
214.000	184.926	80.006	19.994	103.846	19.997	4.031	0.499
216.000	185.935	80.006	19.993	103.799	19.998	3.928	0.495
218.000	186.953	80.006	19.994	103.851	19.996	4.109	0.498
220.000	187.909	80.005	19.994	103.824	20.002	3.704	0.444
222.000	188.874	80.005	19.994	103.842	19.998	3.980	0.515
224.000	189.856	80.007	19.993	103.766	19.997	4.020	0.473
226.000	190.844	80.006	19.993	103.805	19.995	4.172	0.484
228.000	191.871	80.006	19.994	103.774	19.995	4.162	0.463
230.000	192.842	80.006	19.994	103.795	19.996	4.079	0.492
232.000	193.836	80.006	19.994	103.809	19.994	4.242	0.474
234.000	194.857	80.006	19.994	103.800	19.994	4.239	0.489
236.000	195.860	80.007	19.994	103.875	19.996	4.077	0.486
238.000	196.797	80.006	19.993	103.879	19.997	4.049	0.496
240.000	197.739	80.007	19.994	103.874	20.000	3.799	0.481
242.000	198.782	80.007	19.995	103.815	19.999	3.894	0.517
244.000	199.738	80.006	19.995	103.778	19.998	3.952	0.468
246.000	200.684	80.006	19.995	103.844	19.990	4.478	0.472
248.000	201.680	80.004	19.994	103.835	19.992	4.354	0.486
250.000	202.624	80.004	19.994	103.792	19.987	4.691	0.476
252.000	203.650	80.004	19.994	103.790	19.993	4.306	0.500
254.000	204.603	80.004	19.994	103.779	19.989	4.593	0.496
256.000	205.555	80.005	19.992	103.756	19.990	4.471	0.494
258.000	206.548	80.004	19.993	103.864	19.998	3.949	0.468
260.000	207.500	80.003	19.993	104.026	20.000	3.821	0.468
262.000	208.497	80.003	19.993	103.856	19.994	4.239	0.514
264.000	209.430	80.006	19.993	103.770	19.992	4.355	0.478
266.000	210.436	80.004	19.994	103.792	19.992	4.349	0.491
268.000	211.402	80.004	19.992	103.775	19.992	4.364	0.465
270.000	212.381	80.005	19.992	103.809	19.994	4.222	0.524
272.000	213.402	80.005	19.993	103.836	19.996	4.123	0.520
274.000	214.371	80.004	19.993	103.852	19.995	4.150	0.486
276.000	215.326	80.004	19.993	103.890	19.991	4.404	0.489
278.000	216.323	80.005	19.994	103.882	19.994	4.250	0.524
280.000	217.346	80.004	19.994	103.811	19.993	4.294	0.508
282.000	218.304	80.004	19.994	103.821	19.993	4.321	0.495
284.000	219.331	80.004	19.993	103.801	19.989	4.561	0.513
286.000	220.314	80.006	19.993	103.813	19.988	4.617	0.477
288.000	221.310	80.004	19.994	103.828	19.990	4.490	0.486
290.000	222.314	80.005	19.993	103.886	19.990	4.489	0.508
292.000	223.268	80.007	19.992	103.734	19.990	4.483	0.493
294.000	224.240	80.006	19.993	103.760	19.989	4.595	0.465
296.000	225.207	80.006	19.993	103.821	19.988	4.641	0.497
298.000	226.219	80.008	19.991	103.867	19.984	4.890	0.495
300.000	227.211	80.007	19.994	103.841	19.984	4.942	0.514
302.000	228.222	80.007	19.995	103.836	19.987	4.735	0.511
304.000	229.218	80.005	19.993	103.813	19.989	4.571	0.487
306.000	230.244	80.006	19.993	103.818	19.987	4.710	0.514
308.000	231.253	80.005	19.992	103.834	19.985	4.866	0.512
310.000	232.191	80.005	19.995	103.819	19.984	4.883	0.470
312.000	233.183	80.007	19.994	103.826	19.983	4.978	0.527
314.000	234.157	80.006	19.994	103.867	19.985	4.868	0.477
316.000	235.171	80.006	19.993	103.813	19.982	5.036	0.507
318.000	236.190	80.006	19.994	103.805	19.979	5.278	0.537
320.000	237.172	80.006	19.994	103.802	19.979	5.262	0.502
322.000	238.156	80.008	19.993	103.806	19.978	5.358	0.488
324.000	239.153	80.007	19.992	103.795	19.977	5.394	0.500
326.000	240.131	80.006	19.993	103.831	19.976	5.451	0.497
328.000	241.126	80.006	19.994	103.847	19.974	5.600	0.524
330.000	242.121	80.005	19.994	103.859	19.974	5.597	0.470
332.000	243.113	80.004	19.995	103.875	19.974	5.628	0.487
334.000	244.142	80.003	19.995	103.822	19.967	6.100	0.496
336.000	245.127	80.003	19.994	103.795	19.965	6.229	0.514
338.000	246.152	80.004	19.995	103.781	19.957	6.808	0.497
340.000	247.159	80.003	19.995	103.734	19.955	6.910	0.502
342.000	248.125	80.003	19.995	103.794	19.954	7.004	0.485
344.000	249.168	80.005	19.994	103.862	19.953	7.070	0.514
346.000	250.172	80.004	19.994	103.803	19.951	7.220	0.501
348.000	251.195	80.004	19.993	103.811	19.951	7.171	0.482
350.000	252.184	80.005	19.993	103.995	19.953	7.065	0.493
352.000	253.168	80.005	19.993	103.939	19.943	7.707	0.484
354.000	254.178	80.005	19.993	103.824	19.945	7.635	0.480
356.000	255.202	80.005	19.993	103.938	19.939	7.991	0.500
358.000	256.199	80.006	19.993	103.833	19.933	8.425	0.489
360.000	257.175	80.005	19.995	103.775	19.927	8.827	0.482
362.000	258.178	80.005	19.995	103.781	19.924	9.023	0.525
364.000	259.168	80.005	19.993	103.905	19.921	9.228	0.500
366.000	260.132	80.005	19.993	103.926	19.921	9.231	0.464
368.000	261.142	80.004	19.994	103.849	19.909	10.064	0.486
370.000	262.108	80.005	19.993	103.832	19.907	10.181	0.481
372.000	263.111	80.004	19.993	103.816	19.902	10.565	0.499
374.000	264.101	80.006	19.993	103.839	19.899	10.774	0.516
376.000	265.097	80.007	19.994	103.893	19.890	11.387	0.502
378.000	266.085	80.006	19.992	103.798	19.883	11.889	0.501
380.000	267.104	80.006	19.992	103.769	19.876	12.327	0.527
382.000	268.032	80.006	19.993	103.916	19.873	12.544	0.486
384.000	269.045	80.006	19.992	103.850	19.868	12.889	0.512
386.000	270.064	80.006	19.992	103.863	19.862	13.256	0.508
388.000	271.123	80.005	19.993	103.953	19.859	13.519	0.510
390.000	272.113	80.005	19.992	103.962	19.847	14.317	0.500
392.000	273.129	80.006	19.994	103.860	19.838	14.982	0.518
394.000	274.104	80.006	19.993	103.836	19.829	15.595	0.469
396.000	275.123	80.007	19.993	103.813	19.818	16.350	0.543
398.000	276.100	80.007	19.993	103.830	19.811	16.827	0.490
400.000	277.110	80.007	19.993	103.815	19.799	17.642	0.519
402.000	278.056	80.006	19.994	103.847	19.795	17.883	0.472
404.000	279.083	80.007	19.994	103.922	19.789	18.284	0.490
406.000	280.079	80.006	19.992	103.935	19.784	18.681	0.490
408.000	281.051	80.008	19.994	103.881	19.774	19.373	0.499
410.000	282.053	80.006	19.993	103.951	19.766	19.893	0.495
412.000	283.065	80.006	19.994	103.925	19.755	20.681	0.498
414.000	284.015	80.005	19.994	103.897	19.749	21.093	0.496
416.000	285.036	80.004	19.994	103.883	19.737	21.859	0.498
418.000	286.038	80.005	19.994	103.902	19.729	22.445	0.503
420.000	287.060	80.003	19.995	103.902	19.727	22.592	0.542
422.000	288.037	80.005	19.995	103.912	19.716	23.295	0.502
424.000	289.000	80.004	19.994	103.950	19.713	23.508	0.488
426.000	290.001	80.003	19.995	103.915	19.703	24.242	0.494
428.000	290.976	80.003	19.995	103.880	19.703	24.201	0.514
430.000	291.997	80.005	19.994	103.959	19.695	24.779	0.501
432.000	292.918	80.005	19.995	103.904	19.689	25.198	0.479
434.000	293.983	80.004	19.995	103.902	19.682	25.630	0.510
436.000	294.968	80.004	19.995	103.931	19.674	26.233	0.499
438.000	295.988	80.004	19.995	103.921	19.665	26.801	0.462
440.000	296.961	80.004	19.995	103.912	19.661	27.124	0.477
442.000	297.978	80.005	19.993	103.896	19.658	27.355	0.518
444.000	298.967	80.005	19.994	103.902	19.654	27.576	0.494
446.000	299.960	80.004	19.994	103.909	19.649	27.969	0.493
448.000	300.966	80.004	19.994	103.916	19.644	28.288	0.495
450.000	301.910	80.003	19.992	103.908	19.643	28.338	0.478
452.000	302.959	80.005	19.992	103.936	19.641	28.454	0.523
454.000	303.929	80.004	19.993	103.982	19.643	28.335	0.495
456.000	304.950	80.006	19.993	103.914	19.640	28.578	0.484
458.000	305.976	80.006	19.993	103.918	19.636	28.852	0.517
460.000	306.975	80.007	19.994	103.921	19.633	29.038	0.474
462.000	307.972	80.007	19.992	103.956	19.633	29.026	0.510
464.000	309.012	80.008	19.993	103.929	19.630	29.235	0.518
466.000	310.037	80.006	19.992	103.919	19.626	29.493	0.508
468.000	311.030	80.005	19.993	103.889	19.618	30.043	0.522
470.000	312.100	80.004	19.994	103.891	19.616	30.231	0.526
472.000	313.085	80.006	19.993	103.886	19.611	30.577	0.491
474.000	314.152	80.006	19.993	103.902	19.611	30.526	0.517
476.000	315.159	80.007	19.992	103.923	19.602	31.129	0.505
478.000	316.157	80.008	19.992	103.927	19.603	31.118	0.491
480.000	317.188	80.009	19.994	103.986	19.598	31.434	0.492
482.000	318.187	80.007	19.993	103.987	19.595	31.666	0.540
484.000	319.218	80.008	19.993	103.937	19.585	32.374	0.483
486.000	320.214	80.009	19.993	103.912	19.581	32.643	0.496
488.000	321.220	80.007	19.993	103.923	19.574	33.104	0.545
490.000	322.203	80.006	19.993	103.943	19.566	33.665	0.501
492.000	323.201	80.005	19.993	103.952	19.556	34.351	0.486
494.000	324.203	80.005	19.993	103.943	19.549	34.840	0.533
496.000	325.212	80.004	19.994	103.955	19.543	35.215	0.474
498.000	326.216	80.004	19.993	103.965	19.533	35.900	0.485
500.000	327.169	80.005	19.994	103.973	19.525	36.475	0.483
502.000	328.142	80.004	19.994	103.954	19.513	37.285	0.480
504.000	329.123	80.004	19.993	103.959	19.503	37.975	0.482
506.000	330.132	80.005	19.994	103.977	19.496	38.450	0.495
508.000	331.129	80.004	19.993	103.960	19.485	39.203	0.497
510.000	332.063	80.004	19.993	103.981	19.475	39.929	0.491
512.000	333.097	80.006	19.993	104.002	19.458	41.060	0.511
514.000	334.100	80.005	19.994	104.000	19.445	42.006	0.536
516.000	335.044	80.004	19.994	103.992	19.427	43.244	0.503
518.000	335.993	80.004	19.994	103.959	19.411	44.309	0.459
520.000	336.988	80.005	19.994	103.975	19.391	45.745	0.483
522.000	337.994	80.004	19.994	103.985	19.378	46.650	0.496
524.000	338.948	80.004	19.995	104.020	19.354	48.261	0.486
526.000	339.899	80.003	19.994	104.036	19.338	49.404	0.493
528.000	340.863	80.004	19.994	103.997	19.316	50.864	0.484
530.000	341.855	80.004	19.995	104.053	19.299	52.029	0.443
532.000	342.850	80.004	19.995	104.096	19.276	53.624	0.479
534.000	343.758	80.006	19.995	104.045	19.251	55.360	0.454
536.000	344.774	80.007	19.993	104.078	19.224	57.250	0.484
538.000	345.733	80.007	19.993	104.070	19.198	59.022	0.493
540.000	346.721	80.009	19.993	104.073	19.171	60.904	0.513
542.000	347.674	80.007	19.994	104.040	19.142	62.934	0.484
544.000	348.672	80.007	19.994	104.091	19.113	64.916	0.452
546.000	349.661	80.006	19.994	104.138	19.087	66.736	0.496
548.000	350.659	80.006	19.991	104.149	19.055	68.947	0.491
550.000	351.643	80.006	19.993	104.122	19.025	71.018	0.495
552.000	352.681	80.007	19.992	104.173	18.993	73.210	0.519
554.000	353.637	80.006	19.993	104.154	18.960	75.452	0.497
556.000	354.641	80.006	19.994	104.181	18.924	77.919	0.464
558.000	355.623	80.006	19.994	104.220	18.893	80.092	0.501
560.000	356.618	80.006	19.993	104.234	18.860	82.390	0.483
562.000	357.588	80.006	19.993	104.242	18.823	84.947	0.480
564.000	358.554	80.007	19.993	104.195	18.785	87.509	0.504
566.000	359.585	80.007	19.992	104.196	18.755	89.623	0.509
568.000	360.536	80.008	19.992	104.213	18.722	91.937	0.470
570.000	361.532	80.005	19.992	104.234	18.693	93.919	0.502
572.000	362.508	80.007	19.993	104.205	18.661	96.169	0.490
574.000	363.505	80.005	19.993	104.228	18.639	97.658	0.514
576.000	364.481	80.004	19.993	104.232	18.619	99.007	0.481
578.000	365.434	80.005	19.994	104.313	18.602	100.213	0.464
580.000	366.460	80.006	19.993	104.240	18.586	101.273	0.504
582.000	367.502	80.005	19.993	104.295	18.577	101.836	0.532
584.000	368.459	80.003	19.991	104.305	18.575	101.946	0.494
586.000	369.465	80.004	19.994	104.252	18.573	102.105	0.509
588.000	370.488	80.003	19.994	104.265	18.582	101.392	0.492
590.000	371.489	80.004	19.993	104.247	18.589	100.912	0.505
592.000	372.546	80.005	19.995	104.216	18.609	99.552	0.548
594.000	373.569	80.004	19.994	104.182	18.633	97.897	0.525
596.000	374.595	80.005	19.994	104.206	18.662	95.747	0.516
598.000	375.650	80.005	19.994	104.127	18.698	93.270	0.531
600.000	376.685	80.005	19.994	104.071	18.745	90.173	0.534
602.000	377.708	80.004	19.994	104.078	18.803	86.076	0.516
604.000	378.790	80.005	19.994	104.108	18.863	81.852	0.538
606.000	379.803	80.003	19.994	104.031	18.928	77.408	0.507
608.000	380.844	80.004	19.994	103.943	18.996	72.754	0.520
610.000	381.884	80.004	19.993	104.021	19.074	67.383	0.531
612.000	382.916	80.003	19.994	104.066	19.149	62.196	0.509
614.000	383.960	80.004	19.993	103.889	19.222	57.253	0.506
616.000	384.986	80.004	19.994	103.809	19.294	52.341	0.547
618.000	386.021	80.003	19.995	103.871	19.370	47.064	0.495
620.000	387.009	80.005	19.994	103.861	19.444	42.012	0.513
622.000	388.049	80.005	19.994	103.840	19.509	37.566	0.515
624.000	389.086	80.005	19.994	103.797	19.568	33.466	0.551
626.000	390.086	80.007	19.993	103.908	19.629	29.254	0.508
628.000	391.086	80.005	19.992	103.834	19.683	25.581	0.522
630.000	392.109	80.004	19.993	103.820	19.727	22.546	0.538
632.000	393.163	80.005	19.993	103.864	19.763	20.072	0.533
634.000	394.193	80.005	19.992	103.874	19.793	17.984	0.534
636.000	395.190	80.005	19.993	103.854	19.820	16.201	0.495
638.000	396.227	80.006	19.994	103.783	19.844	14.487	0.513
640.000	397.266	80.003	19.993	103.758	19.862	13.294	0.511
642.000	398.291	80.006	19.993	103.692	19.870	12.720	0.508
644.000	399.338	80.004	19.994	103.746	19.883	11.836	0.513
646.000	400.332	80.006	19.993	103.780	19.892	11.250	0.521
648.000	401.389	80.007	19.993	103.798	19.900	10.698	0.510
650.000	402.414	80.007	19.992	103.768	19.912	9.885	0.491
652.000	403.467	80.006	19.992	103.758	19.914	9.724	0.535
654.000	404.452	80.006	19.993	103.745	19.918	9.431	0.499
656.000	405.476	80.005	19.993	103.776	19.923	9.107	0.500
658.000	406.503	80.005	19.994	103.878	19.929	8.692	0.528
660.000	407.508	80.004	19.994	103.781	19.923	9.097	0.494
662.000	408.540	80.005	19.994	103.710	19.931	8.542	0.527
664.000	409.583	80.006	19.993	103.777	19.931	8.540	0.518
666.000	410.585	80.006	19.995	103.764	19.932	8.505	0.529
668.000	411.609	80.004	19.992	103.768	19.933	8.414	0.526
670.000	412.607	80.004	19.993	103.784	19.940	7.967	0.511
672.000	413.636	80.005	19.992	103.831	19.939	8.015	0.539
674.000	414.583	80.003	19.993	103.839	19.945	7.578	0.472
676.000	415.629	80.006	19.992	103.781	19.944	7.623	0.538
678.000	416.652	80.005	19.993	103.736	19.944	7.631	0.530
680.000	417.635	80.004	19.994	103.820	19.949	7.298	0.498
682.000	418.659	80.005	19.993	103.827	19.950	7.275	0.510
684.000	419.669	80.005	19.994	103.751	19.945	7.585	0.498
686.000	420.696	80.005	19.994	103.745	19.947	7.452	0.506
688.000	421.701	80.004	19.994	103.724	19.947	7.465	0.511
690.000	422.681	80.003	19.994	103.752	19.947	7.442	0.455
692.000	423.689	80.003	19.994	103.784	19.948	7.388	0.480
694.000	424.686	80.005	19.994	103.765	19.952	7.088	0.501
696.000	425.676	80.005	19.994	103.799	19.950	7.226	0.465
698.000	426.667	80.006	19.993	103.821	19.952	7.122	0.511
700.000	427.617	80.007	19.994	103.794	19.949	7.311	0.478
702.000	428.588	80.006	19.994	103.743	19.951	7.144	0.470
704.000	429.591	80.006	19.994	103.785	19.956	6.868	0.497
706.000	430.540	80.005	19.993	103.770	19.959	6.612	0.491
708.000	431.545	80.006	19.993	103.809	19.961	6.480	0.495
710.000	432.498	80.005	19.993	103.811	19.960	6.597	0.462
712.000	433.472	80.003	19.995	103.725	19.959	6.617	0.490
714.000	434.479	80.004	19.994	103.757	19.962	6.394	0.504
716.000	435.402	80.005	19.994	103.775	19.964	6.317	0.482
718.000	436.437	80.005	19.994	103.788	19.970	5.881	0.505
720.000	437.431	80.004	19.995	103.824	19.972	5.771	0.485
722.000	438.414	80.007	19.995	103.814	19.970	5.885	0.476
724.000	439.435	80.007	19.994	103.748	19.972	5.771	0.500
726.000	440.425	80.008	19.993	103.745	19.969	5.957	0.497
728.000	441.356	80.008	19.992	103.752	19.971	5.781	0.486
730.000	442.350	80.008	19.994	103.731	19.971	5.796	0.498
732.000	443.388	80.007	19.994	103.745	19.973	5.639	0.511
734.000	444.386	80.007	19.994	103.751	19.977	5.419	0.507
736.000	445.357	80.006	19.993	103.787	19.982	5.036	0.472
738.000	446.359	80.005	19.992	103.814	19.982	5.043	0.486
740.000	447.347	80.004	19.992	103.818	19.986	4.755	0.502
742.000	448.353	80.005	19.994	103.805	19.988	4.647	0.490
744.000	449.375	80.005	19.993	103.759	19.987	4.677	0.524
746.000	450.357	80.005	19.993	103.732	19.986	4.758	0.494
748.000	451.391	80.003	19.994	103.755	19.988	4.665	0.529
750.000	452.403	80.004	19.993	103.757	19.993	4.329	0.495
752.000	453.403	80.006	19.994	103.755	19.990	4.477	0.485
754.000	454.419	80.005	19.992	103.802	19.995	4.141	0.517
756.000	455.522	80.005	19.993	103.775	19.999	3.868	0.548
758.000	456.547	80.006	19.993	103.788	19.995	4.140	0.522
760.000	457.535	80.006	19.993	103.830	19.997	4.045	0.533
762.000	458.535	80.007	19.993	103.792	19.995	4.132	0.505
764.000	459.613	80.006	19.994	103.742	19.993	4.275	0.524
766.000	460.640	80.005	19.993	103.744	19.993	4.331	0.518
768.000	461.610	80.005	19.992	103.752	19.996	4.061	0.497
770.000	462.630	80.003	19.992	103.764	19.999	3.920	0.485
772.000	463.670	80.004	19.992	103.782	20.000	3.790	0.501
774.000	464.628	80.005	19.994	103.825	20.004	3.535	0.494
776.000	465.637	80.003	19.995	103.853	20.005	3.471	0.492
778.000	466.670	80.005	19.994	103.796	20.007	3.306	0.532
780.000	467.711	80.005	19.993	103.786	20.005	3.462	0.506
782.000	468.668	80.005	19.994	103.755	20.002	3.696	0.482
784.000	469.717	80.007	19.993	103.744	20.002	3.691	0.522
786.000	470.763	80.006	19.994	103.740	20.005	3.481	0.536
788.000	471.763	80.007	19.993	103.800	20.005	3.440	0.528
790.000	472.781	80.006	19.993	103.782	20.007	3.332	0.502
792.000	473.792	80.006	19.993	103.745	20.006	3.394	0.495
794.000	474.833	80.006	19.993	103.723	20.012	2.962	0.517
796.000	475.808	80.006	19.994	103.804	20.009	3.168	0.496
798.000	476.823	80.007	19.995	103.800	20.011	3.077	0.489
800.000	477.838	80.005	19.994	103.713	20.009	3.225	0.495
802.000	478.857	80.006	19.993	103.772	20.011	3.073	0.495
804.000	479.892	80.006	19.994	103.757	20.008	3.270	0.484
806.000	480.882	80.006	19.993	103.739	20.010	3.131	0.485
808.000	481.953	80.007	19.994	103.721	20.012	2.988	0.533
810.000	482.970	80.007	19.994	103.772	20.010	3.145	0.493
812.000	483.981	80.007	19.994	103.860	20.011	3.041	0.508
814.000	484.992	80.007	19.994	103.809	20.017	2.679	0.510
816.000	486.009	80.006	19.994	103.750	20.014	2.871	0.560
818.000	487.028	80.006	19.993	103.801	20.014	2.825	0.499
820.000	488.090	80.005	19.993	103.772	20.015	2.800	0.510
822.000	489.135	80.003	19.993	103.782	20.015	2.767	0.526
824.000	490.121	80.006	19.993	103.801	20.018	2.566	0.479
826.000	491.134	80.007	19.993	103.765	20.015	2.817	0.507
828.000	492.189	80.004	19.993	103.747	20.011	3.088	0.539
830.000	493.193	80.005	19.992	103.749	20.010	3.114	0.496
832.000	494.185	80.004	19.993	103.779	20.011	3.048	0.513
834.000	495.259	80.004	19.992	103.792	20.013	2.951	0.509
836.000	496.265	80.004	19.993	103.794	20.014	2.829	0.509
838.000	497.300	80.004	19.994	103.774	20.011	3.065	0.513
840.000	498.298	80.005	19.994	103.761	20.012	2.965	0.503
842.000	499.306	80.005	19.995	103.764	20.011	3.073	0.503
844.000	500.310	80.004	19.993	103.775	20.014	2.874	0.516
846.000	501.330	80.005	19.994	103.766	20.009	3.217	0.521
848.000	502.334	80.005	19.993	103.766	20.011	3.093	0.478
850.000	503.325	80.005	19.993	103.780	20.013	2.933	0.490
852.000	504.380	80.004	19.993	103.805	20.011	3.083	0.525
854.000	505.396	80.005	19.992	103.737	20.016	2.726	0.525
856.000	506.387	80.005	19.994	103.753	20.015	2.764	0.505
858.000	507.424	80.004	19.992	103.774	20.012	2.992	0.512
860.000	508.420	80.005	19.992	103.757	20.010	3.126	0.495
862.000	509.491	80.005	19.993	103.743	20.008	3.236	0.528
864.000	510.461	80.005	19.993	103.762	20.010	3.154	0.496
866.000	511.499	80.007	19.993	103.741	20.011	3.076	0.499
868.000	512.516	80.006	19.993	103.747	20.010	3.150	0.513
870.000	513.515	80.007	19.994	103.776	20.013	2.935	0.518
872.000	514.526	80.005	19.994	103.776	20.014	2.852	0.505
874.000	515.514	80.005	19.994	103.764	20.012	3.006	0.499
876.000	516.502	80.006	19.994	103.768	20.012	3.023	0.487
878.000	517.531	80.005	19.994	103.762	20.015	2.816	0.507
880.000	518.563	80.005	19.993	103.766	20.015	2.768	0.487
882.000	519.527	80.006	19.993	103.759	20.013	2.941	0.478
884.000	520.558	80.005	19.994	103.751	20.016	2.720	0.512
886.000	521.613	80.006	19.992	103.757	20.017	2.679	0.502
888.000	522.621	80.006	19.992	103.770	20.015	2.757	0.541
890.000	523.629	80.007	19.993	103.774	20.016	2.687	0.509
892.000	524.673	80.007	19.993	103.763	20.015	2.796	0.534
894.000	525.681	80.008	19.993	103.767	20.014	2.890	0.506
896.000	526.684	80.005	19.993	103.747	20.013	2.903	0.503
898.000	527.719	80.005	19.993	103.764	20.015	2.791	0.487
900.000	528.727	80.010	19.995	103.763	20.017	2.618	0.528
902.000	529.781	80.006	19.995	103.784	20.015	2.806	0.511
904.000	530.845	80.005	19.996	103.794	20.018	2.580	0.550
906.000	531.879	80.004	19.995	103.756	20.014	2.825	0.524
908.000	532.880	80.004	19.995	103.740	20.017	2.629	0.517
910.000	533.978	80.004	19.993	103.763	20.019	2.527	0.541
912.000	535.017	80.005	19.992	103.772	20.015	2.787	0.541
914.000	536.040	80.005	19.992	103.759	20.015	2.766	0.506
916.000	537.075	80.004	19.993	103.748	20.015	2.808	0.530
918.000	538.123	80.005	19.992	103.744	20.011	3.062	0.515
920.000	539.232	80.004	19.993	103.755	20.013	2.933	0.533
922.000	540.322	80.005	19.993	103.747	20.013	2.937	0.561
924.000	541.368	80.006	19.993	103.750	20.019	2.493	0.550
926.000	542.407	80.004	19.993	103.790	20.021	2.365	0.524
928.000	543.473	80.004	19.993	103.853	20.021	2.411	0.534
930.000	544.584	80.004	19.994	103.744	20.021	2.406	0.562
932.000	545.618	80.003	19.994	103.790	20.022	2.292	0.547
934.000	546.703	80.004	19.993	103.812	20.020	2.472	0.525
936.000	547.733	80.004	19.995	103.752	20.022	2.312	0.558
938.000	548.916	80.005	19.993	103.761	20.024	2.181	0.553
940.000	549.997	80.005	19.993	103.791	20.024	2.153	0.521
942.000	551.077	80.005	19.993	103.803	20.020	2.437	0.501
944.000	552.171	80.006	19.993	103.764	20.014	2.850	0.486
946.000	553.304	80.008	19.992	103.781	20.016	2.729	0.602
948.000	554.346	80.005	19.992	103.735	20.023	2.211	0.494
950.000	555.398	80.007	19.992	103.767	20.019	2.536	0.495
952.000	556.562	80.006	19.992	103.745	20.020	2.456	0.544
954.000	557.615	80.006	19.993	103.745	20.020	2.438	0.487
956.000	558.481	80.005	19.993	103.779	20.020	2.426	0.271
958.000	559.459	80.005	19.992	103.784	20.018	2.573	0.437
960.000	561.170	80.003	19.993	103.741	20.019	2.525	0.704
962.000	562.051	80.005	19.996	103.739	20.018	2.578	-0.102
964.000	563.025	80.006	19.994	103.759	20.018	2.617	0.430
966.000	564.331	80.007	19.994	103.770	20.017	2.666	0.646
968.000	565.340	80.006	19.995	103.767	20.022	2.288	0.552
970.000	566.331	80.005	19.993	103.768	20.022	2.323	0.504
972.000	567.435	80.007	19.993	103.772	20.025	2.128	0.547
974.000	568.517	80.007	19.993	103.772	20.027	1.993	0.604
976.000	569.548	80.007	19.993	103.789	20.024	2.180	0.531
978.000	570.655	80.006	19.993	103.773	20.023	2.223	0.482
980.000	571.687	80.006	19.992	103.763	20.021	2.377	0.514
982.000	572.758	80.005	19.994	103.744	20.021	2.404	0.511
984.000	573.842	80.005	19.994	103.753	20.018	2.563	0.552
986.000	575.068	80.005	19.992	103.761	20.022	2.323	0.550
988.000	576.188	80.004	19.994	103.778	20.019	2.519	0.531
990.000	577.252	80.004	19.993	103.754	20.020	2.440	0.530
992.000	578.356	80.004	19.993	103.760	20.020	2.465	0.549
994.000	579.466	80.005	19.995	103.770	20.018	2.554	0.573
996.000	580.582	80.004	19.996	103.758	20.022	2.316	0.583
998.000	581.637	80.005	19.994	103.818	20.020	2.412	0.556
1000.000	582.685	80.005	19.994	103.715	20.018	2.570	0.491
1002.000	583.751	80.004	19.994	103.719	20.017	2.663	0.526
1004.000	584.843	80.004	19.994	103.745	20.021	2.397	0.539
1006.000	585.850	80.004	19.993	103.771	20.020	2.420	0.533
1008.000	586.952	80.005	19.993	103.744	20.017	2.652	0.563
1010.000	588.001	80.004	19.993	103.721	20.019	2.546	0.564
1012.000	589.004	80.004	19.993	103.728	20.021	2.411	0.511
1014.000	590.085	80.005	19.993	103.777	20.025	2.115	0.521
1016.000	591.094	80.004	19.992	103.796	20.024	2.173	0.507
1018.000	592.115	80.003	19.994	103.790	20.026	2.008	0.522
1020.000	593.194	80.004	19.994	103.724	20.023	2.256	0.517
1022.000	594.204	80.004	19.996	103.770	20.025	2.130	0.520
1024.000	595.227	80.005	19.994	103.788	20.025	2.089	0.518
1026.000	596.224	80.006	19.993	103.780	20.020	2.465	0.515
1027.999	597.240	80.006	19.994	103.747	20.020	2.460	0.510
1030.000	598.230	80.006	19.993	103.709	20.024	2.149	0.493
1032.000	599.212	80.006	19.993	103.726	20.023	2.218	0.498
1034.001	600.193	80.007	19.992	103.779	20.028	1.917	0.461
1035.999	601.199	80.005	19.993	103.799	20.030	1.759	0.499
1037.999	602.174	80.005	19.993	103.744	20.025	2.114	0.489
1039.999	603.195	80.005	19.992	103.748	20.025	2.073	0.528
1042.000	604.151	80.006	19.993	103.772	20.025	2.101	0.467
1043.999	605.247	80.006	19.993	103.769	20.026	2.044	0.601
1045.999	606.215	80.006	19.994	103.748	20.023	2.266	0.510
1047.999	607.273	80.008	19.993	103.732	20.021	2.358	0.512
1049.999	608.304	80.007	19.993	103.741	20.024	2.149	0.527
1052.000	609.323	80.007	19.993	103.766	20.025	2.120	0.530
1053.999	610.332	80.008	19.994	103.723	20.027	1.972	0.497
1055.999	611.377	80.007	19.993	103.762	20.027	1.968	0.520
1057.999	612.390	80.008	19.994	103.755	20.030	1.738	0.534
1059.999	613.378	80.008	19.992	103.740	20.028	1.898	0.474
1061.999	614.362	80.006	19.992	103.746	20.027	1.951	0.496
1063.999	615.376	80.005	19.993	103.733	20.028	1.896	0.513
1065.999	616.361	80.005	19.993	103.736	20.023	2.240	0.498
1068.000	617.305	80.005	19.993	103.762	20.025	2.116	0.448
1069.999	618.231	80.005	19.993	103.743	20.023	2.263	0.451
1071.999	619.189	80.004	19.995	103.732	20.023	2.244	0.490
1073.999	620.182	80.006	19.993	103.723	20.024	2.175	0.477
1075.999	621.122	80.007	19.993	103.756	20.028	1.928	0.501
1077.999	622.035	80.005	19.993	103.755	20.024	2.150	0.433
1080.000	623.043	80.007	19.994	103.750	20.027	1.934	0.479
1081.999	624.005	80.005	19.996	103.775	20.024	2.177	0.488
1084.000	624.956	80.004	19.995	103.771	20.029	1.856	0.473
1085.999	625.939	80.005	19.995	103.753	20.027	1.955	0.481
1088.000	626.987	80.005	19.995	103.746	20.027	1.998	0.528
1089.999	627.977	80.003	19.996	103.742	20.027	1.973	0.493
1091.999	628.967	80.003	19.994	103.753	20.027	1.999	0.489
1094.000	630.039	80.004	19.994	103.750	20.026	2.016	0.529
1095.999	630.968	80.003	19.994	103.758	20.025	2.110	0.489
1097.999	632.022	80.002	19.994	103.722	20.029	1.797	0.529
1099.999	632.998	80.004	19.994	103.693	20.031	1.708	0.503
1101.999	633.988	80.003	19.993	103.753	20.028	1.907	0.454
1103.999	635.057	80.004	19.992	103.783	20.030	1.761	0.497
1105.999	636.058	80.006	19.993	103.735	20.033	1.579	0.521
1108.000	637.098	80.006	19.993	103.744	20.033	1.550	0.531
1109.999	638.077	80.007	19.993	103.742	20.030	1.769	0.532
1111.999	639.140	80.006	19.992	103.752	20.025	2.136	0.505
1113.999	640.191	80.007	19.993	103.724	20.029	1.859	0.513
1115.999	641.155	80.005	19.992	103.744	20.026	2.051	0.498
1117.999	642.202	80.006	19.993	103.726	20.025	2.071	0.498
1120.001	643.283	80.005	19.994	103.735	20.030	1.774	0.538
1122.000	644.309	80.006	19.994	103.762	20.033	1.574	0.522
1123.999	645.297	80.006	19.992	103.787	20.032	1.597	0.504
1126.000	646.323	80.006	19.993	103.770	20.031	1.681	0.483
1127.999	647.334	80.006	19.992	103.741	20.029	1.817	0.469
1129.999	648.291	80.005	19.993	103.757	20.033	1.573	0.526
1132.000	649.268	80.008	19.993	103.725	20.030	1.778	0.618
1133.999	650.360	80.008	19.992	103.727	20.031	1.691	0.488
1135.999	651.444	80.008	19.994	103.725	20.029	1.824	0.482
1137.999	652.493	80.008	19.992	103.751	20.028	1.896	0.498
1139.999	653.501	80.008	19.993	103.773	20.028	1.872	0.528
1141.999	654.540	80.007	19.993	103.751	20.028	1.909	0.488
1143.999	655.580	80.007	19.992	103.743	20.025	2.135	0.511
1145.999	656.641	80.005	19.993	103.758	20.026	2.004	0.520
1147.999	657.669	80.005	19.992	103.760	20.026	2.050	0.568
1149.999	658.746	80.005	19.993	103.763	20.026	2.014	0.534
1151.999	659.779	80.004	19.994	103.762	20.026	2.022	0.544
1154.000	660.859	80.005	19.994	103.759	20.025	2.105	0.540
1155.999	661.905	80.005	19.994	103.757	20.026	2.065	0.524
1157.999	662.961	80.004	19.995	103.757	20.028	1.898	0.508
1160.000	664.066	80.003	19.994	103.766	20.033	1.584	0.534
1161.999	665.099	80.004	19.993	103.778	20.034	1.518	0.513
1163.999	666.149	80.005	19.993	103.745	20.032	1.643	0.529
1165.999	666.804	80.005	19.993	103.753	20.037	1.299	0.327
1167.999	668.279	80.005	19.992	103.755	20.034	1.487	0.537
1169.999	669.328	80.004	19.994	103.743	20.033	1.529	0.524
1171.999	670.364	80.006	19.993	103.733	20.034	1.516	0.544
1174.000	671.428	80.004	19.994	103.712	20.033	1.529	0.506
1176.000	672.472	80.005	19.993	103.705	20.030	1.729	0.520
1177.999	673.494	80.004	19.994	103.719	20.029	1.831	0.508
1179.999	674.590	80.004	19.995	103.724	20.029	1.818	0.523
1182.000	675.583	80.004	19.995	103.730	20.032	1.637	0.514
1184.000	676.613	80.005	19.994	103.727	20.032	1.594	0.506
1185.999	677.644	80.005	19.994	103.739	20.032	1.644	0.498
1187.999	678.679	80.006	19.995	103.751	20.030	1.772	0.408
1189.999	679.673	80.006	19.993	103.725	20.029	1.854	0.523
1191.999	680.690	80.008	19.994	103.734	20.030	1.743	0.512
1194.000	681.736	80.008	19.994	103.749	20.031	1.681	0.514
1195.999	682.749	80.007	19.993	103.764	20.028	1.905	0.518
1198.000	683.786	80.008	19.993	103.767	20.029	1.809	0.509
1199.999	684.814	80.006	19.995	103.737	20.031	1.672	0.527
1201.999	685.819	80.006	19.994	103.780	20.030	1.746	0.489
1203.999	686.821	80.006	19.994	103.760	20.034	1.516	0.512
1205.999	687.814	80.006	19.993	103.739	20.030	1.734	0.509
1208.000	688.867	80.006	19.994	103.754	20.031	1.696	0.522
1210.000	689.837	80.007	19.992	103.757	20.033	1.567	0.464
1211.999	690.860	80.006	19.993	103.761	20.031	1.658	0.466
1213.999	691.893	80.006	19.992	103.753	20.030	1.751	0.516
1216.000	692.903	80.008	19.993	103.723	20.032	1.621	0.496
1217.999	693.962	80.006	19.994	103.718	20.030	1.771	0.524
1219.999	694.991	80.006	19.992	103.728	20.031	1.682	0.526
1222.000	695.986	80.008	19.993	103.752	20.030	1.745	0.473
1223.999	697.020	80.006	19.993	103.724	20.033	1.535	0.545
1225.999	698.107	80.005	19.993	103.735	20.035	1.436	0.530
1227.999	699.102	80.006	19.993	103.788	20.032	1.590	0.521
1229.999	700.102	80.006	19.993	103.718	20.033	1.569	0.533
1232.000	701.161	80.004	19.993	103.712	20.033	1.573	0.522
1233.999	702.131	80.006	19.991	103.724	20.036	1.364	0.489
1235.999	703.196	80.006	19.992	103.747	20.035	1.415	0.489
1237.999	704.307	80.005	19.992	103.763	20.030	1.772	0.562
1239.999	705.357	80.006	19.993	103.715	20.032	1.618	0.555
1241.999	706.406	80.006	19.994	103.727	20.036	1.371	0.525
1243.999	707.478	80.006	19.992	103.738	20.031	1.658	0.510
1245.999	708.572	80.006	19.993	103.741	20.034	1.458	0.531
1248.001	709.590	80.005	19.994	103.745	20.033	1.567	0.532
1249.999	710.668	80.006	19.994	103.728	20.032	1.647	0.527
1251.999	711.703	80.006	19.995	103.746	20.032	1.618	0.513
1253.999	712.732	80.005	19.994	103.715	20.034	1.472	0.501
1255.999	713.784	80.005	19.995	103.708	20.037	1.288	0.528
1257.999	714.819	80.006	19.994	103.693	20.035	1.402	0.534
1260.000	715.817	80.005	19.995	103.731	20.031	1.706	0.535
1261.999	716.799	80.005	19.996	103.733	20.029	1.820	0.478
1264.000	717.781	80.004	19.994	103.734	20.033	1.537	0.458
1265.999	718.802	80.006	19.995	103.740	20.030	1.764	0.480
1268.000	719.823	80.006	19.994	103.736	20.032	1.639	0.501
1269.999	720.828	80.006	19.994	103.728	20.035	1.449	0.504
1271.999	721.801	80.006	19.993	103.755	20.037	1.257	0.469
1273.999	722.730	80.007	19.994	103.759	20.039	1.170	0.478
1275.999	723.631	80.006	19.995	103.714	20.036	1.330	0.448
1277.999	724.603	80.008	19.994	103.734	20.036	1.320	0.471
1279.999	725.535	80.005	19.994	103.725	20.036	1.330	0.462
1281.999	726.511	80.005	19.994	103.733	20.037	1.247	0.506
1283.999	727.477	80.008	19.993	103.732	20.033	1.542	0.501
1285.999	728.443	80.006	19.994	103.747	20.033	1.545	0.480
1287.999	729.375	80.008	19.993	103.723	20.034	1.476	0.478
1289.999	730.336	80.006	19.994	103.733	20.032	1.611	0.460
1291.999	731.354	80.006	19.992	103.707	20.033	1.563	0.514
1293.999	732.320	80.007	19.993	103.700	20.035	1.431	0.493
1296.000	733.327	80.007	19.993	103.753	20.031	1.677	0.484
1297.999	734.293	80.008	19.992	103.771	20.032	1.628	0.475
1299.999	735.216	80.007	19.992	103.731	20.033	1.542	0.489
1301.999	736.223	80.007	19.992	103.719	20.036	1.381	0.506
1303.999	737.198	80.007	19.992	103.742	20.036	1.339	0.476
1305.999	738.146	80.007	19.992	103.755	20.036	1.341	0.489
1308.000	739.156	80.005	19.994	103.733	20.038	1.187	0.501
1310.001	740.055	80.006	19.994	103.734	20.038	1.216	0.457
1311.999	741.085	80.005	19.993	103.716	20.033	1.552	0.511
1313.999	742.054	80.005	19.994	103.699	20.032	1.653	0.477
1315.999	743.025	80.006	19.993	103.715	20.032	1.603	0.477
1317.000	743.539	80.006	19.993	103.727	20.033	1.582	0.506