File: 01_Data/PEX_Pipe/FTIR/IS/PEX_Pipe_IS_S_221108_R7.dpt
7497.03,1.00132
7491.25,1.01161
7485.46,1.00688
7479.67,1.00061
7473.89,1.00607
7468.1,1.01085
7462.32,0.99862
7456.53,1.00082
7450.74,1.00041
7444.96,1.00680
7439.17,1.00091
7433.38,1.00153
7427.6,0.99681
7421.81,1.00745
7416.03,1.00971
7410.24,0.99900
7404.45,1.00419
7398.67,0.99970
7392.88,0.98642
7387.09,1.00203
7381.31,1.00028
7375.52,1.00481
7369.74,1.00935
7363.95,1.00670
7358.16,1.00058
7352.38,0.99711
7346.59,1.00405
7340.8,1.00268
7335.02,1.00093
7329.23,1.00857
7323.45,0.99698
7317.66,0.99921
7311.87,0.99159
7306.09,1.00523
7300.3,1.00930
7294.51,0.99828
7288.73,0.99064
7282.94,0.99592
7277.16,0.99566
7271.37,0.99604
7265.58,1.00382
7259.8,1.00753
7254.01,0.99935
7248.22,0.99639
7242.44,0.99378
7236.65,0.99063
7230.87,0.99168
7225.08,0.99843
7219.29,1.01429
7213.51,1.00836
7207.72,1.00705
7201.93,0.99696
7196.15,1.01149
7190.36,0.99227
7184.58,1.00808
7178.79,1.00291
7173,0.99807
7167.22,0.99608
7161.43,1.00318
7155.65,0.99791
7149.86,1.00271
7144.07,1.00934
7138.29,1.00400
7132.5,0.99695
7126.71,0.99115
7120.93,0.99979
7115.14,1.00109
7109.36,0.99825
7103.57,0.99824
7097.78,0.99991
7092,1.00676
7086.21,0.98965
7080.42,1.00297
7074.64,1.00326
7068.85,0.99484
7063.07,1.00080
7057.28,1.00654
7051.49,0.99774
7045.71,0.99666
7039.92,0.99835
7034.13,0.99262
7028.35,0.99884
7022.56,1.00097
7016.78,1.01112
7010.99,1.01097
7005.2,1.00384
6999.42,1.00428
6993.63,0.99272
6987.84,1.00496
6982.06,0.99665
6976.27,1.00400
6970.49,0.99881
6964.7,0.99865
6958.91,1.00240
6953.13,0.99489
6947.34,0.99887
6941.55,1.00229
6935.77,1.00263
6929.98,1.00239
6924.2,1.00552
6918.41,0.99676
6912.62,0.99535
6906.84,0.99753
6901.05,1.00192
6895.26,1.00123
6889.48,1.00847
6883.69,0.99848
6877.91,0.99561
6872.12,0.99660
6866.33,1.00313
6860.55,1.00027
6854.76,0.99654
6848.97,0.99939
6843.19,1.00337
6837.4,1.00565
6831.62,0.99978
6825.83,1.00703
6820.04,1.00587
6814.26,1.00487
6808.47,1.00376
6802.68,0.99474
6796.9,0.99623
6791.11,0.99814
6785.33,0.99801
6779.54,0.99920
6773.75,1.00834
6767.97,0.99675
6762.18,0.99998
6756.39,1.00202
6750.61,0.99801
6744.82,1.01230
6739.04,1.00249
6733.25,0.99672
6727.46,0.99633
6721.68,1.00335
6715.89,1.00356
6710.1,1.00013
6704.32,1.00200
6698.53,0.99971
6692.75,0.99702
6686.96,0.99961
6681.17,1.00318
6675.39,1.00525
6669.6,1.00048
6663.82,1.00087
6658.03,1.00152
6652.24,0.99529
6646.46,0.99483
6640.67,0.99652
6634.88,0.99747
6629.1,1.00248
6623.31,0.99804
6617.53,0.99827
6611.74,0.99602
6605.95,0.99613
6600.17,1.00143
6594.38,0.99727
6588.59,1.00181
6582.81,1.00021
6577.02,1.00131
6571.24,1.00001
6565.45,1.00149
6559.66,0.99766
6553.88,0.99964
6548.09,0.99603
6542.3,1.00371
6536.52,1.00224
6530.73,1.00275
6524.95,0.99759
6519.16,0.99611
6513.37,1.00117
6507.59,1.00298
6501.8,1.00219
6496.01,1.00468
6490.23,1.00340
6484.44,1.00451
6478.66,1.00068
6472.87,1.00077
6467.08,1.00223
6461.3,1.00620
6455.51,0.99774
6449.72,1.00089
6443.94,1.00021
6438.15,1.00037
6432.37,0.99887
6426.58,1.00486
6420.79,0.99915
6415.01,0.99837
6409.22,0.99990
6403.43,0.99611
6397.65,0.99820
6391.86,0.99937
6386.08,1.00164
6380.29,1.00023
6374.5,1.00021
6368.72,1.00067
6362.93,1.00189
6357.14,1.00425
6351.36,1.00048
6345.57,1.00209
6339.79,0.99789
6334,0.99856
6328.21,0.99953
6322.43,1.00172
6316.64,1.00289
6310.85,0.99898
6305.07,1.00220
6299.28,1.00060
6293.5,1.00154
6287.71,0.99641
6281.92,0.99817
6276.14,0.99949
6270.35,1.00602
6264.56,0.99875
6258.78,1.00017
6252.99,1.00051
6247.21,0.99970
6241.42,1.00258
6235.63,1.00209
6229.85,0.99787
6224.06,0.99833
6218.27,1.00007
6212.49,0.99606
6206.7,1.00050
6200.92,0.99981
6195.13,1.00201
6189.34,0.99751
6183.56,0.99691
6177.77,0.99968
6171.98,1.00045
6166.2,1.00141
6160.41,0.99797
6154.63,0.99804
6148.84,0.99802
6143.05,1.00036
6137.27,0.99988
6131.48,0.99969
6125.7,1.00131
6119.91,1.00100
6114.12,1.00005
6108.34,0.99617
6102.55,0.99995
6096.76,0.99952
6090.98,1.00138
6085.19,1.00363
6079.41,1.00313
6073.62,1.00062
6067.83,1.00306
6062.05,1.00221
6056.26,1.00139
6050.47,0.99879
6044.69,0.99917
6038.9,1.00563
6033.12,1.00508
6027.33,0.99990
6021.54,1.00310
6015.76,1.00059
6009.97,1.00369
6004.18,0.99758
5998.4,1.00256
5992.61,0.99968
5986.83,1.00730
5981.04,0.99891
5975.25,0.99984
5969.47,1.00250
5963.68,1.00061
5957.89,1.00147
5952.11,0.99652
5946.32,1.00008
5940.54,1.00328
5934.75,1.00325
5928.96,1.00166
5923.18,1.00098
5917.39,1.00095
5911.6,1.00114
5905.82,1.00135
5900.03,1.00246
5894.25,0.99820
5888.46,0.99723
5882.67,0.99919
5876.89,0.99945
5871.1,0.99994
5865.31,0.99957
5859.53,0.99899
5853.74,0.99959
5847.96,0.99905
5842.17,1.00264
5836.38,1.00127
5830.6,0.99639
5824.81,1.00211
5819.02,1.00372
5813.24,1.00157
5807.45,0.99690
5801.67,1.00176
5795.88,1.00205
5790.09,1.00006
5784.31,0.99919
5778.52,1.00064
5772.73,1.00246
5766.95,1.00001
5761.16,0.99928
5755.38,0.99964
5749.59,0.99985
5743.8,1.00177
5738.02,1.00240
5732.23,1.00194
5726.44,1.00206
5720.66,1.00057
5714.87,0.99800
5709.09,1.00140
5703.3,0.99859
5697.51,0.99790
5691.73,1.00055
5685.94,1.00015
5680.15,1.00038
5674.37,1.00138
5668.58,1.00267
5662.8,1.00019
5657.01,0.99979
5651.22,1.00109
5645.44,1.00050
5639.65,1.00369
5633.87,1.00160
5628.08,1.00078
5622.29,0.99809
5616.51,1.00110
5610.72,0.99937
5604.93,0.99867
5599.15,0.99972
5593.36,1.00190
5587.58,1.00034
5581.79,1.00044
5576,1.00203
5570.22,1.00214
5564.43,1.00255
5558.64,1.00086
5552.86,1.00086
5547.07,1.00135
5541.29,0.99790
5535.5,1.00202
5529.71,0.99889
5523.93,1.00183
5518.14,0.99817
5512.35,0.99996
5506.57,1.00227
5500.78,1.00218
5495,1.00105
5489.21,1.00299
5483.42,1.00049
5477.64,0.99985
5471.85,1.00102
5466.06,1.00104
5460.28,1.00098
5454.49,1.00230
5448.71,0.99983
5442.92,1.00105
5437.13,0.99724
5431.35,0.99852
5425.56,1.00172
5419.77,1.00045
5413.99,1.00061
5408.2,1.00051
5402.42,1.00153
5396.63,1.00190
5390.84,1.00150
5385.06,0.99961
5379.27,0.99939
5373.48,1.00009
5367.7,1.00473
5361.91,1.00302
5356.13,0.99953
5350.34,0.99816
5344.55,1.00074
5338.77,1.00140
5332.98,1.00128
5327.19,1.00002
5321.41,1.00145
5315.62,1.00244
5309.84,0.99878
5304.05,1.00076
5298.26,1.00036
5292.48,0.99981
5286.69,0.99808
5280.9,0.99799
5275.12,1.00105
5269.33,1.00178
5263.55,1.00088
5257.76,1.00007
5251.97,1.00080
5246.19,1.00104
5240.4,0.99982
5234.61,0.99932
5228.83,1.00015
5223.04,0.99832
5217.26,0.99920
5211.47,1.00055
5205.68,0.99979
5199.9,0.99933
5194.11,0.99909
5188.32,1.00069
5182.54,1.00126
5176.75,1.00082
5170.97,0.99893
5165.18,0.99994
5159.39,1.00003
5153.61,1.00055
5147.82,0.99920
5142.03,0.99999
5136.25,0.99937
5130.46,1.00024
5124.68,1.00037
5118.89,1.00109
5113.1,1.00106
5107.32,0.99945
5101.53,1.00008
5095.75,1.00009
5089.96,1.00035
5084.17,1.00116
5078.39,1.00118
5072.6,1.00003
5066.81,1.00166
5061.03,1.00099
5055.24,0.99892
5049.46,0.99995
5043.67,0.99891
5037.88,0.99900
5032.1,0.99936
5026.31,1.00150
5020.52,0.99900
5014.74,1.00041
5008.95,1.00083
5003.17,1.00022
4997.38,1.00030
4991.59,0.99902
4985.81,1.00135
4980.02,0.99851
4974.23,1.00248
4968.45,0.99947
4962.66,0.99966
4956.88,0.99757
4951.09,0.99954
4945.3,1.00232
4939.52,1.00118
4933.73,1.00146
4927.94,0.99813
4922.16,1.00107
4916.37,1.00141
4910.59,0.99981
4904.8,0.99980
4899.01,1.00120
4893.23,1.00151
4887.44,1.00164
4881.65,1.00171
4875.87,0.99850
4870.08,0.99942
4864.3,0.99953
4858.51,0.99938
4852.72,1.00043
4846.94,1.00113
4841.15,0.99950
4835.36,0.99885
4829.58,1.00117
4823.79,0.99967
4818.01,0.99860
4812.22,1.00014
4806.43,1.00059
4800.65,1.00122
4794.86,1.00062
4789.07,1.00120
4783.29,1.00081
4777.5,1.00005
4771.72,0.99910
4765.93,0.99937
4760.14,0.99983
4754.36,0.99991
4748.57,1.00096
4742.78,1.00104
4737,0.99960
4731.21,1.00070
4725.43,1.00106
4719.64,1.00101
4713.85,1.00052
4708.07,1.00079
4702.28,0.99928
4696.49,1.00055
4690.71,1.00139
4684.92,0.99946
4679.14,0.99972
4673.35,1.00049
4667.56,1.00077
4661.78,0.99894
4655.99,1.00146
4650.2,1.00067
4644.42,1.00062
4638.63,1.00201
4632.85,0.99998
4627.06,1.00105
4621.27,0.99962
4615.49,1.00017
4609.7,1.00005
4603.92,1.00047
4598.13,1.00036
4592.34,0.99900
4586.56,0.99944
4580.77,1.00035
4574.98,1.00091
4569.2,1.00072
4563.41,0.99985
4557.63,0.99977
4551.84,1.00080
4546.05,0.99999
4540.27,1.00044
4534.48,1.00024
4528.69,1.00051
4522.91,1.00024
4517.12,0.99969
4511.34,1.00064
4505.55,1.00048
4499.76,0.99993
4493.98,0.99891
4488.19,1.00045
4482.4,1.00105
4476.62,1.00108
4470.83,1.00034
4465.05,1.00069
4459.26,1.00113
4453.47,1.00000
4447.69,0.99981
4441.9,1.00070
4436.11,0.99971
4430.33,0.99981
4424.54,0.99979
4418.76,0.99985
4412.97,1.00011
4407.18,1.00051
4401.4,1.00104
4395.61,1.00052
4389.82,1.00088
4384.04,1.00035
4378.25,0.99943
4372.47,1.00050
4366.68,0.99981
4360.89,0.99948
4355.11,0.99951
4349.32,1.00069
4343.53,0.99936
4337.75,1.00077
4331.96,0.99957
4326.18,0.99943
4320.39,1.00045
4314.6,0.99978
4308.82,0.99962
4303.03,0.99979
4297.24,0.99904
4291.46,0.99992
4285.67,1.00156
4279.89,0.99935
4274.1,1.00041
4268.31,1.00010
4262.53,0.99999
4256.74,1.00025
4250.95,1.00029
4245.17,1.00024
4239.38,0.99993
4233.6,1.00020
4227.81,1.00081
4222.02,0.99946
4216.24,0.99983
4210.45,1.00035
4204.66,1.00021
4198.88,1.00051
4193.09,1.00033
4187.31,1.00109
4181.52,1.00109
4175.73,1.00077
4169.95,1.00090
4164.16,1.00123
4158.37,0.99983
4152.59,0.99977
4146.8,1.00078
4141.02,0.99948
4135.23,0.99953
4129.44,0.99958
4123.66,1.00051
4117.87,0.99972
4112.09,0.99924
4106.3,0.99960
4100.51,0.99931
4094.73,0.99982
4088.94,0.99950
4083.15,0.99926
4077.37,1.00008
4071.58,1.00078
4065.8,1.00054
4060.01,1.00004
4054.22,0.99986
4048.44,0.99960
4042.65,1.00060
4036.86,1.00034
4031.08,1.00082
4025.29,0.99944
4019.51,0.99985
4013.72,1.00022
4007.93,0.99991
4002.15,1.00064
3996.36,1.00030
3990.57,0.99974
3984.79,1.00002
3979,0.99959
3973.22,0.99979
3967.43,0.99956
3961.64,1.00031
3955.86,1.00066
3950.07,1.00071
3944.28,1.00006
3938.5,0.99928
3932.71,1.00053
3926.93,1.00039
3921.14,0.99949
3915.35,1.00002
3909.57,0.99977
3903.78,1.00068
3897.99,1.00027
3892.21,1.00033
3886.42,1.00161
3880.64,1.00103
3874.85,0.99979
3869.06,1.00021
3863.28,0.99995
3857.49,1.00018
3851.7,1.00021
3845.92,0.99954
3840.13,0.99967
3834.35,1.00045
3828.56,1.00030
3822.77,1.00093
3816.99,0.99986
3811.2,1.00016
3805.41,1.00125
3799.63,1.00094
3793.84,1.00026
3788.06,1.00013
3782.27,1.00037
3776.48,1.00056
3770.7,1.00069
3764.91,1.00071
3759.12,1.00049
3753.34,1.00014
3747.55,0.99989
3741.77,1.00076
3735.98,1.00032
3730.19,0.99974
3724.41,1.00013
3718.62,1.00050
3712.83,1.00085
3707.05,1.00130
3701.26,1.00061
3695.48,1.00020
3689.69,1.00013
3683.9,0.99956
3678.12,1.00024
3672.33,0.99972
3666.54,1.00027
3660.76,0.99948
3654.97,0.99990
3649.19,1.00100
3643.4,0.99961
3637.61,1.00076
3631.83,1.00066
3626.04,1.00047
3620.25,1.00079
3614.47,1.00072
3608.68,0.99973
3602.9,0.99955
3597.11,1.00110
3591.32,1.00039
3585.54,1.00045
3579.75,1.00040
3573.97,1.00037
3568.18,1.00061
3562.39,1.00071
3556.61,1.00118
3550.82,1.00064
3545.03,1.00103
3539.25,1.00082
3533.46,0.99956
3527.68,1.00038
3521.89,1.00005
3516.1,1.00054
3510.32,1.00008
3504.53,0.99954
3498.74,0.99987
3492.96,0.99970
3487.17,0.99991
3481.39,1.00018
3475.6,1.00009
3469.81,0.99979
3464.03,0.99995
3458.24,1.00069
3452.45,1.00050
3446.67,1.00136
3440.88,1.00052
3435.1,0.99945
3429.31,0.99909
3423.52,0.99980
3417.74,1.00007
3411.95,1.00020
3406.16,1.00062
3400.38,1.00159
3394.59,1.00095
3388.81,0.99939
3383.02,0.99987
3377.23,0.99974
3371.45,1.00047
3365.66,1.00066
3359.87,1.00075
3354.09,1.00022
3348.3,1.00031
3342.52,0.99978
3336.73,1.00131
3330.94,1.00043
3325.16,1.00089
3319.37,0.99964
3313.58,1.00039
3307.8,1.00072
3302.01,1.00073
3296.23,0.99917
3290.44,0.99980
3284.65,0.99923
3278.87,1.00031
3273.08,0.99916
3267.29,1.00019
3261.51,0.99977
3255.72,0.99991
3249.94,0.99983
3244.15,1.00084
3238.36,0.99951
3232.58,1.00073
3226.79,1.00037
3221,1.00066
3215.22,1.00003
3209.43,1.00017
3203.65,1.00056
3197.86,1.00072
3192.07,1.00058
3186.29,1.00061
3180.5,0.99908
3174.71,0.99929
3168.93,1.00130
3163.14,1.00055
3157.36,0.99983
3151.57,1.00019
3145.78,1.00062
3140,0.99956
3134.21,0.99926
3128.42,0.99989
3122.64,0.99955
3116.85,0.99991
3111.07,1.00045
3105.28,1.00009
3099.49,1.00008
3093.71,1.00048
3087.92,1.00058
3082.14,1.00008
3076.35,0.99983
3070.56,0.99992
3064.78,0.99998
3058.99,1.00007
3053.2,1.00037
3047.42,1.00036
3041.63,0.99954
3035.85,0.99993
3030.06,0.99952
3024.27,1.00024
3018.49,1.00008
3012.7,0.99992
3006.91,1.00008
3001.13,1.00047
2995.34,1.00091
2989.56,1.00007
2983.77,0.99983
2977.98,0.99958
2972.2,0.99986
2966.41,1.00028
2960.62,1.00001
2954.84,1.00026
2949.05,1.00002
2943.27,0.99987
2937.48,0.99985
2931.69,0.99992
2925.91,1.00002
2920.12,0.99981
2914.33,0.99992
2908.55,0.99998
2902.76,0.99966
2896.98,1.00014
2891.19,1.00051
2885.4,1.00036
2879.62,1.00080
2873.83,1.00024
2868.04,0.99973
2862.26,0.99994
2856.47,1.00011
2850.69,1.00032
2844.9,0.99978
2839.11,1.00028
2833.33,1.00047
2827.54,1.00029
2821.75,1.00045
2815.97,1.00062
2810.18,1.00076
2804.4,1.00047
2798.61,1.00053
2792.82,1.00004
2787.04,1.00017
2781.25,0.99987
2775.46,1.00039
2769.68,0.99968
2763.89,1.00015
2758.11,1.00018
2752.32,1.00044
2746.53,1.00052
2740.75,1.00037
2734.96,1.00010
2729.17,0.99969
2723.39,0.99974
2717.6,1.00004
2711.82,1.00001
2706.03,1.00088
2700.24,1.00057
2694.46,1.00013
2688.67,1.00031
2682.88,1.00000
2677.1,0.99998
2671.31,1.00042
2665.53,0.99976
2659.74,0.99969
2653.95,1.00030
2648.17,1.00006
2642.38,1.00039
2636.59,0.99996
2630.81,0.99975
2625.02,1.00001
2619.24,1.00019
2613.45,1.00020
2607.66,1.00021
2601.88,0.99999
2596.09,1.00011
2590.3,1.00040
2584.52,1.00022
2578.73,0.99991
2572.95,1.00044
2567.16,0.99993
2561.37,1.00002
2555.59,1.00022
2549.8,1.00037
2544.02,1.00083
2538.23,1.00041
2532.44,1.00055
2526.66,0.99970
2520.87,1.00075
2515.08,1.00147
2509.3,1.00051
2503.51,1.00002
2497.73,1.00089
2491.94,1.00028
2486.15,1.00069
2480.37,0.99988
2474.58,0.99962
2468.79,1.00007
2463.01,1.00016
2457.22,0.99989
2451.44,1.00015
2445.65,1.00030
2439.86,0.99998
2434.08,1.00028
2428.29,1.00009
2422.5,1.00074
2416.72,0.99985
2410.93,1.00025
2405.15,1.00051
2399.36,1.00016
2393.57,1.00005
2387.79,0.99978
2382,1.00041
2376.21,1.00062
2370.43,1.00085
2364.64,1.00083
2358.86,1.00054
2353.07,1.00055
2347.28,1.00020
2341.5,1.00075
2335.71,1.00068
2329.92,1.00030
2324.14,1.00101
2318.35,1.00069
2312.57,1.00030
2306.78,1.00071
2300.99,1.00039
2295.21,0.99978
2289.42,1.00000
2283.63,0.99975
2277.85,1.00007
2272.06,1.00004
2266.28,1.00002
2260.49,1.00004
2254.7,1.00002
2248.92,1.00039
2243.13,1.00031
2237.34,1.00027
2231.56,1.00051
2225.77,1.00000
2219.99,1.00005
2214.2,1.00056
2208.41,1.00024
2202.63,1.00019
2196.84,1.00007
2191.05,1.00021
2185.27,1.00014
2179.48,0.99990
2173.7,1.00025
2167.91,1.00015
2162.12,0.99994
2156.34,0.99994
2150.55,1.00038
2144.76,1.00071
2138.98,1.00020
2133.19,1.00003
2127.41,0.99968
2121.62,0.99986
2115.83,1.00006
2110.05,1.00030
2104.26,1.00033
2098.47,0.99996
2092.69,1.00034
2086.9,1.00024
2081.12,1.00038
2075.33,1.00008
2069.54,1.00036
2063.76,1.00042
2057.97,1.00025
2052.19,1.00020
2046.4,1.00011
2040.61,1.00008
2034.83,0.99972
2029.04,0.99968
2023.25,1.00009
2017.47,1.00039
2011.68,0.99961
2005.9,1.00035
2000.11,1.00046
1994.32,1.00076
1988.54,1.00017
1982.75,1.00006
1976.96,1.00001
1971.18,1.00022
1965.39,1.00002
1959.61,0.99993
1953.82,1.00003
1948.03,1.00033
1942.25,1.00077
1936.46,1.00041
1930.67,1.00024
1924.89,1.00062
1919.1,1.00016
1913.32,0.99989
1907.53,1.00045
1901.74,1.00015
1895.96,1.00012
1890.17,1.00008
1884.38,1.00024
1878.6,1.00058
1872.81,1.00039
1867.03,1.00010
1861.24,1.00055
1855.45,1.00002
1849.67,0.99984
1843.88,0.99987
1838.09,1.00019
1832.31,1.00019
1826.52,1.00016
1820.74,1.00033
1814.95,1.00009
1809.16,1.00029
1803.38,0.99993
1797.59,1.00036
1791.8,1.00004
1786.02,1.00002
1780.23,1.00048
1774.45,1.00058
1768.66,0.99991
1762.87,1.00041
1757.09,1.00066
1751.3,1.00018
1745.51,1.00013
1739.73,1.00022
1733.94,1.00091
1728.16,1.00028
1722.37,1.00009
1716.58,1.00011
1710.8,1.00019
1705.01,1.00038
1699.22,1.00065
1693.44,0.99967
1687.65,1.00014
1681.87,1.00078
1676.08,1.00030
1670.29,1.00005
1664.51,1.00018
1658.72,1.00009
1652.93,1.00025
1647.15,1.00023
1641.36,1.00012
1635.58,1.00059
1629.79,1.00018
1624,1.00026
1618.22,1.00050
1612.43,1.00040
1606.64,0.99957
1600.86,1.00021
1595.07,1.00064
1589.29,0.99997
1583.5,0.99976
1577.71,1.00009
1571.93,1.00023
1566.14,1.00017
1560.35,1.00076
1554.57,1.00111
1548.78,1.00001
1543,0.99968
1537.21,1.00072
1531.42,0.99997
1525.64,1.00029
1519.85,1.00021
1514.07,1.00071
1508.28,1.00080
1502.49,1.00050
1496.71,1.00035
1490.92,1.00031
1485.13,1.00007
1479.35,1.00031
1473.56,0.99979
1467.78,1.00026
1461.99,1.00016
1456.2,1.00051
1450.42,1.00034
1444.63,0.99988
1438.84,0.99967
1433.06,0.99979
1427.27,1.00009
1421.49,1.00014
1415.7,1.00018
1409.91,1.00044
1404.13,1.00013
1398.34,0.99956
1392.55,0.99954
1386.77,1.00015
1380.98,1.00001
1375.2,1.00030
1369.41,0.99978
1363.62,0.99987
1357.84,1.00007
1352.05,1.00012
1346.26,1.00019
1340.48,1.00003
1334.69,1.00011
1328.91,1.00017
1323.12,1.00036
1317.33,1.00092
1311.55,1.00023
1305.76,0.99950
1299.97,0.99952
1294.19,0.99991
1288.4,0.99990
1282.62,1.00061
1276.83,1.00012
1271.04,1.00030
1265.26,1.00042
1259.47,1.00012
1253.68,0.99982
1247.9,1.00029
1242.11,1.00037
1236.33,1.00039
1230.54,1.00050
1224.75,1.00043
1218.97,1.00014
1213.18,1.00043
1207.39,0.99945
1201.61,0.99956
1195.82,0.99973
1190.04,1.00068
1184.25,1.00012
1178.46,0.99989
1172.68,1.00097
1166.89,0.99977
1161.1,0.99983
1155.32,1.00032
1149.53,0.99977
1143.75,0.99919
1137.96,1.00016
1132.17,1.00004
1126.39,0.99995
1120.6,1.00020
1114.81,0.99992
1109.03,0.99981
1103.24,1.00041
1097.46,1.00035
1091.67,1.00032
1085.88,1.00082
1080.1,1.00047
1074.31,1.00032
1068.52,0.99933
1062.74,1.00031
1056.95,1.00050
1051.17,1.00009
1045.38,1.00004
1039.59,1.00054
1033.81,1.00044
1028.02,1.00062
1022.24,0.99952
1016.45,1.00059
1010.66,1.00062
1004.88,1.00044
999.09,1.00042
993.304,1.00037
987.518,1.00015
981.731,1.00005
975.945,1.00023
970.159,1.00003
964.373,0.99998
958.586,1.00075
952.8,1.00119
947.014,0.99971
941.228,1.00046
935.441,1.00073
929.655,1.00070
923.869,1.00072
918.083,1.00062
912.297,1.00006
906.51,1.00049
900.724,1.00078
894.938,1.00014
889.152,0.99969
883.365,0.99935
877.579,1.00038
871.793,0.99973
866.007,0.99983
860.22,1.00044
854.434,0.99965
848.648,0.99989
842.862,1.00000
837.075,0.99976
831.289,1.00020
825.503,1.00107
819.717,1.00082
813.931,1.00052
808.144,1.00010
802.358,1.00159
796.572,0.99977
790.786,0.99903
784.999,0.99933
779.213,1.00004
773.427,0.99997
767.641,0.99967
761.854,1.00057
756.068,1.00098
750.282,1.00060
744.496,0.99989
738.709,0.99919
732.923,0.99984
727.137,1.00123
721.351,1.00030
715.565,0.99972
709.778,0.99990
703.992,1.00063
698.206,1.00054
692.42,1.00162
686.633,1.00037
680.847,1.00108
675.061,0.99982
669.275,1.00027
663.488,0.99991
657.702,0.99895
651.916,1.00007
646.13,0.99929
640.343,0.99809
634.557,0.99997
628.771,1.00272
622.985,1.00121
617.198,0.99967
611.412,0.99836
605.626,1.00179
599.84,1.00296