File: 01_Data/PEX_Pipe/FTIR/IS/PEX_Pipe_IS_S_221108_R4.dpt
7497.03,0.71065
7491.25,0.69621
7485.46,0.69391
7479.67,0.69592
7473.89,0.70687
7468.1,0.69652
7462.32,0.69806
7456.53,0.69892
7450.74,0.69507
7444.96,0.68552
7439.17,0.69403
7433.38,0.68651
7427.6,0.69164
7421.81,0.69679
7416.03,0.70280
7410.24,0.68680
7404.45,0.67597
7398.67,0.68793
7392.88,0.68228
7387.09,0.66936
7381.31,0.67261
7375.52,0.66671
7369.74,0.66639
7363.95,0.67045
7358.16,0.66806
7352.38,0.67000
7346.59,0.64890
7340.8,0.65447
7335.02,0.63628
7329.23,0.62191
7323.45,0.62895
7317.66,0.62001
7311.87,0.61409
7306.09,0.59979
7300.3,0.59122
7294.51,0.57234
7288.73,0.56322
7282.94,0.54950
7277.16,0.54433
7271.37,0.52944
7265.58,0.52121
7259.8,0.50689
7254.01,0.49457
7248.22,0.47076
7242.44,0.46097
7236.65,0.44586
7230.87,0.42748
7225.08,0.40815
7219.29,0.39922
7213.51,0.37842
7207.72,0.36928
7201.93,0.35519
7196.15,0.33399
7190.36,0.31541
7184.58,0.29545
7178.79,0.27116
7173,0.25469
7167.22,0.26643
7161.43,0.29617
7155.65,0.33966
7149.86,0.34654
7144.07,0.35564
7138.29,0.36567
7132.5,0.36410
7126.71,0.36611
7120.93,0.36121
7115.14,0.35498
7109.36,0.33685
7103.57,0.33011
7097.78,0.33144
7092,0.33040
7086.21,0.33150
7080.42,0.31738
7074.64,0.29744
7068.85,0.29007
7063.07,0.28609
7057.28,0.29255
7051.49,0.29510
7045.71,0.30527
7039.92,0.31122
7034.13,0.30404
7028.35,0.30257
7022.56,0.29475
7016.78,0.30225
7010.99,0.30768
7005.2,0.30944
6999.42,0.31342
6993.63,0.31999
6987.84,0.32154
6982.06,0.32246
6976.27,0.32211
6970.49,0.32385
6964.7,0.31486
6958.91,0.31603
6953.13,0.31467
6947.34,0.31903
6941.55,0.32508
6935.77,0.32624
6929.98,0.34218
6924.2,0.34509
6918.41,0.34709
6912.62,0.35152
6906.84,0.35462
6901.05,0.35808
6895.26,0.35853
6889.48,0.36490
6883.69,0.37518
6877.91,0.37600
6872.12,0.37659
6866.33,0.38415
6860.55,0.39055
6854.76,0.38580
6848.97,0.39440
6843.19,0.39373
6837.4,0.39814
6831.62,0.39827
6825.83,0.40882
6820.04,0.41639
6814.26,0.42376
6808.47,0.42283
6802.68,0.42686
6796.9,0.43306
6791.11,0.44275
6785.33,0.45487
6779.54,0.45864
6773.75,0.46558
6767.97,0.46260
6762.18,0.47015
6756.39,0.47722
6750.61,0.47515
6744.82,0.47646
6739.04,0.47927
6733.25,0.48204
6727.46,0.48209
6721.68,0.48874
6715.89,0.48862
6710.1,0.49121
6704.32,0.49712
6698.53,0.49894
6692.75,0.50091
6686.96,0.50919
6681.17,0.50964
6675.39,0.50876
6669.6,0.51083
6663.82,0.50906
6658.03,0.51285
6652.24,0.52193
6646.46,0.51832
6640.67,0.51785
6634.88,0.52474
6629.1,0.51977
6623.31,0.51881
6617.53,0.52133
6611.74,0.52145
6605.95,0.52228
6600.17,0.52057
6594.38,0.52364
6588.59,0.51883
6582.81,0.51772
6577.02,0.51359
6571.24,0.52026
6565.45,0.51653
6559.66,0.51293
6553.88,0.51398
6548.09,0.50754
6542.3,0.50685
6536.52,0.50376
6530.73,0.50339
6524.95,0.50298
6519.16,0.49788
6513.37,0.49313
6507.59,0.48820
6501.8,0.48439
6496.01,0.47630
6490.23,0.47165
6484.44,0.46648
6478.66,0.47214
6472.87,0.48936
6467.08,0.50084
6461.3,0.51174
6455.51,0.52314
6449.72,0.52877
6443.94,0.53564
6438.15,0.53874
6432.37,0.54128
6426.58,0.53997
6420.79,0.54457
6415.01,0.54378
6409.22,0.54818
6403.43,0.55148
6397.65,0.55697
6391.86,0.55596
6386.08,0.55522
6380.29,0.55627
6374.5,0.56381
6368.72,0.56300
6362.93,0.56586
6357.14,0.57010
6351.36,0.56929
6345.57,0.57340
6339.79,0.57456
6334,0.57301
6328.21,0.57440
6322.43,0.57418
6316.64,0.57613
6310.85,0.57745
6305.07,0.57370
6299.28,0.57800
6293.5,0.57483
6287.71,0.57388
6281.92,0.57517
6276.14,0.57402
6270.35,0.57335
6264.56,0.57322
6258.78,0.57384
6252.99,0.57401
6247.21,0.57394
6241.42,0.57258
6235.63,0.57337
6229.85,0.57444
6224.06,0.57367
6218.27,0.57275
6212.49,0.57153
6206.7,0.57242
6200.92,0.57304
6195.13,0.57097
6189.34,0.56881
6183.56,0.56966
6177.77,0.57039
6171.98,0.56661
6166.2,0.56225
6160.41,0.56229
6154.63,0.55914
6148.84,0.55775
6143.05,0.56039
6137.27,0.55795
6131.48,0.55508
6125.7,0.55329
6119.91,0.55166
6114.12,0.54578
6108.34,0.54652
6102.55,0.54576
6096.76,0.54150
6090.98,0.53726
6085.19,0.53605
6079.41,0.53378
6073.62,0.52573
6067.83,0.52972
6062.05,0.52993
6056.26,0.52100
6050.47,0.51563
6044.69,0.51220
6038.9,0.51011
6033.12,0.50287
6027.33,0.49870
6021.54,0.49188
6015.76,0.48543
6009.97,0.47404
6004.18,0.46326
5998.4,0.45594
5992.61,0.44772
5986.83,0.43953
5981.04,0.42920
5975.25,0.41683
5969.47,0.40381
5963.68,0.39159
5957.89,0.37674
5952.11,0.36856
5946.32,0.35691
5940.54,0.34696
5934.75,0.34014
5928.96,0.32802
5923.18,0.31810
5917.39,0.30827
5911.6,0.29759
5905.82,0.28931
5900.03,0.27598
5894.25,0.26675
5888.46,0.25388
5882.67,0.23703
5876.89,0.22090
5871.1,0.20111
5865.31,0.18111
5859.53,0.15992
5853.74,0.14568
5847.96,0.13317
5842.17,0.12485
5836.38,0.12012
5830.6,0.11263
5824.81,0.10504
5819.02,0.10241
5813.24,0.09953
5807.45,0.09376
5801.67,0.08970
5795.88,0.08397
5790.09,0.07903
5784.31,0.07386
5778.52,0.07148
5772.73,0.07281
5766.95,0.07599
5761.16,0.08364
5755.38,0.09222
5749.59,0.09768
5743.8,0.10478
5738.02,0.10835
5732.23,0.11099
5726.44,0.11934
5720.66,0.13195
5714.87,0.13234
5709.09,0.13203
5703.3,0.12575
5697.51,0.12179
5691.73,0.11638
5685.94,0.11160
5680.15,0.10574
5674.37,0.10168
5668.58,0.09158
5662.8,0.09160
5657.01,0.09984
5651.22,0.10917
5645.44,0.11859
5639.65,0.12431
5633.87,0.12906
5628.08,0.13204
5622.29,0.13533
5616.51,0.13896
5610.72,0.14077
5604.93,0.14507
5599.15,0.14761
5593.36,0.14833
5587.58,0.14864
5581.79,0.14396
5576,0.14240
5570.22,0.14024
5564.43,0.13711
5558.64,0.13386
5552.86,0.13553
5547.07,0.13538
5541.29,0.13601
5535.5,0.13501
5529.71,0.13543
5523.93,0.13711
5518.14,0.13559
5512.35,0.13413
5506.57,0.13403
5500.78,0.13163
5495,0.13151
5489.21,0.13009
5483.42,0.13177
5477.64,0.13483
5471.85,0.13621
5466.06,0.13708
5460.28,0.14084
5454.49,0.14202
5448.71,0.14270
5442.92,0.14012
5437.13,0.14185
5431.35,0.14242
5425.56,0.14432
5419.77,0.14584
5413.99,0.14896
5408.2,0.15511
5402.42,0.15820
5396.63,0.16020
5390.84,0.16329
5385.06,0.16469
5379.27,0.16687
5373.48,0.16749
5367.7,0.16918
5361.91,0.17403
5356.13,0.17621
5350.34,0.18156
5344.55,0.18405
5338.77,0.18679
5332.98,0.18780
5327.19,0.18817
5321.41,0.18805
5315.62,0.18393
5309.84,0.18080
5304.05,0.18227
5298.26,0.18215
5292.48,0.18299
5286.69,0.18363
5280.9,0.18292
5275.12,0.18309
5269.33,0.18201
5263.55,0.18373
5257.76,0.18185
5251.97,0.18073
5246.19,0.18010
5240.4,0.17708
5234.61,0.17829
5228.83,0.17543
5223.04,0.17509
5217.26,0.17491
5211.47,0.17332
5205.68,0.17482
5199.9,0.17405
5194.11,0.17142
5188.32,0.17154
5182.54,0.17129
5176.75,0.17225
5170.97,0.17265
5165.18,0.17182
5159.39,0.17210
5153.61,0.17201
5147.82,0.17476
5142.03,0.17763
5136.25,0.17755
5130.46,0.17737
5124.68,0.17694
5118.89,0.17621
5113.1,0.17560
5107.32,0.17400
5101.53,0.17457
5095.75,0.17473
5089.96,0.17347
5084.17,0.17645
5078.39,0.17648
5072.6,0.17693
5066.81,0.17685
5061.03,0.17657
5055.24,0.17848
5049.46,0.17919
5043.67,0.17990
5037.88,0.18096
5032.1,0.18063
5026.31,0.17865
5020.52,0.17746
5014.74,0.17689
5008.95,0.17632
5003.17,0.17394
4997.38,0.16999
4991.59,0.16628
4985.81,0.16372
4980.02,0.16047
4974.23,0.15891
4968.45,0.15625
4962.66,0.15517
4956.88,0.16045
4951.09,0.16547
4945.3,0.16986
4939.52,0.17203
4933.73,0.17153
4927.94,0.17126
4922.16,0.17132
4916.37,0.17057
4910.59,0.16898
4904.8,0.16815
4899.01,0.16700
4893.23,0.16732
4887.44,0.16519
4881.65,0.16325
4875.87,0.16115
4870.08,0.16040
4864.3,0.16004
4858.51,0.16155
4852.72,0.16413
4846.94,0.16799
4841.15,0.17074
4835.36,0.17293
4829.58,0.17520
4823.79,0.17603
4818.01,0.17827
4812.22,0.17997
4806.43,0.18214
4800.65,0.18469
4794.86,0.18523
4789.07,0.18542
4783.29,0.18564
4777.5,0.18817
4771.72,0.19093
4765.93,0.19418
4760.14,0.19682
4754.36,0.19663
4748.57,0.19829
4742.78,0.20106
4737,0.20194
4731.21,0.20322
4725.43,0.20485
4719.64,0.20717
4713.85,0.20779
4708.07,0.20985
4702.28,0.21045
4696.49,0.20916
4690.71,0.20917
4684.92,0.20764
4679.14,0.20456
4673.35,0.19970
4667.56,0.19742
4661.78,0.19862
4655.99,0.20265
4650.2,0.20595
4644.42,0.20777
4638.63,0.20778
4632.85,0.20798
4627.06,0.20702
4621.27,0.20658
4615.49,0.20541
4609.7,0.20392
4603.92,0.20335
4598.13,0.20246
4592.34,0.20254
4586.56,0.20049
4580.77,0.19777
4574.98,0.19528
4569.2,0.19239
4563.41,0.18949
4557.63,0.18513
4551.84,0.18188
4546.05,0.17812
4540.27,0.17438
4534.48,0.17162
4528.69,0.16722
4522.91,0.16395
4517.12,0.16021
4511.34,0.15665
4505.55,0.15171
4499.76,0.14671
4493.98,0.14238
4488.19,0.13991
4482.4,0.13541
4476.62,0.13107
4470.83,0.12653
4465.05,0.12271
4459.26,0.11723
4453.47,0.11254
4447.69,0.10765
4441.9,0.10410
4436.11,0.10042
4430.33,0.09649
4424.54,0.09286
4418.76,0.08912
4412.97,0.08463
4407.18,0.07871
4401.4,0.07529
4395.61,0.07082
4389.82,0.06857
4384.04,0.06625
4378.25,0.06404
4372.47,0.06247
4366.68,0.06137
4360.89,0.06076
4355.11,0.05962
4349.32,0.05787
4343.53,0.05556
4337.75,0.05517
4331.96,0.05420
4326.18,0.05331
4320.39,0.05251
4314.6,0.05459
4308.82,0.05717
4303.03,0.05894
4297.24,0.05952
4291.46,0.05959
4285.67,0.05875
4279.89,0.05918
4274.1,0.05839
4268.31,0.05738
4262.53,0.05678
4256.74,0.05435
4250.95,0.05401
4245.17,0.05497
4239.38,0.05675
4233.6,0.05684
4227.81,0.05701
4222.02,0.05625
4216.24,0.05597
4210.45,0.05642
4204.66,0.05608
4198.88,0.05513
4193.09,0.05407
4187.31,0.05487
4181.52,0.05450
4175.73,0.05446
4169.95,0.05496
4164.16,0.05411
4158.37,0.05450
4152.59,0.05505
4146.8,0.05525
4141.02,0.05502
4135.23,0.05515
4129.44,0.05519
4123.66,0.05547
4117.87,0.05527
4112.09,0.05535
4106.3,0.05570
4100.51,0.05517
4094.73,0.05504
4088.94,0.05529
4083.15,0.05635
4077.37,0.05730
4071.58,0.05717
4065.8,0.05812
4060.01,0.05692
4054.22,0.05750
4048.44,0.05740
4042.65,0.05839
4036.86,0.05887
4031.08,0.05833
4025.29,0.05816
4019.51,0.05774
4013.72,0.05901
4007.93,0.06039
4002.15,0.06083
3996.36,0.06111
3990.57,0.06071
3984.79,0.06015
3979,0.05986
3973.22,0.05941
3967.43,0.06083
3961.64,0.06063
3955.86,0.06071
3950.07,0.06136
3944.28,0.06003
3938.5,0.06035
3932.71,0.05960
3926.93,0.05952
3921.14,0.05957
3915.35,0.05875
3909.57,0.05928
3903.78,0.05965
3897.99,0.05848
3892.21,0.05966
3886.42,0.05870
3880.64,0.05951
3874.85,0.05921
3869.06,0.05932
3863.28,0.05931
3857.49,0.06036
3851.7,0.06018
3845.92,0.06089
3840.13,0.06084
3834.35,0.06019
3828.56,0.05966
3822.77,0.05965
3816.99,0.06022
3811.2,0.06013
3805.41,0.06090
3799.63,0.06119
3793.84,0.06165
3788.06,0.06178
3782.27,0.06171
3776.48,0.06225
3770.7,0.06291
3764.91,0.06272
3759.12,0.06295
3753.34,0.06298
3747.55,0.06374
3741.77,0.06315
3735.98,0.06353
3730.19,0.06329
3724.41,0.06356
3718.62,0.06238
3712.83,0.06233
3707.05,0.06122
3701.26,0.05927
3695.48,0.05809
3689.69,0.05924
3683.9,0.05869
3678.12,0.05939
3672.33,0.05896
3666.54,0.05854
3660.76,0.05867
3654.97,0.05798
3649.19,0.05678
3643.4,0.05595
3637.61,0.05806
3631.83,0.05805
3626.04,0.05776
3620.25,0.05770
3614.47,0.05717
3608.68,0.05655
3602.9,0.05504
3597.11,0.05600
3591.32,0.05878
3585.54,0.06104
3579.75,0.06206
3573.97,0.06263
3568.18,0.06300
3562.39,0.06402
3556.61,0.06537
3550.82,0.06514
3545.03,0.06555
3539.25,0.06607
3533.46,0.06556
3527.68,0.06598
3521.89,0.06563
3516.1,0.06541
3510.32,0.06538
3504.53,0.06456
3498.74,0.06449
3492.96,0.06346
3487.17,0.06283
3481.39,0.06300
3475.6,0.06312
3469.81,0.06157
3464.03,0.06152
3458.24,0.06095
3452.45,0.06121
3446.67,0.06038
3440.88,0.06007
3435.1,0.06020
3429.31,0.05983
3423.52,0.06053
3417.74,0.05984
3411.95,0.05992
3406.16,0.06026
3400.38,0.06048
3394.59,0.06007
3388.81,0.05954
3383.02,0.05872
3377.23,0.05907
3371.45,0.05886
3365.66,0.05834
3359.87,0.05912
3354.09,0.05954
3348.3,0.05989
3342.52,0.06039
3336.73,0.05989
3330.94,0.06054
3325.16,0.06075
3319.37,0.06144
3313.58,0.06154
3307.8,0.06197
3302.01,0.06160
3296.23,0.06245
3290.44,0.06244
3284.65,0.06240
3278.87,0.06165
3273.08,0.06232
3267.29,0.06176
3261.51,0.06218
3255.72,0.06287
3249.94,0.06195
3244.15,0.06236
3238.36,0.06214
3232.58,0.06185
3226.79,0.06170
3221,0.06229
3215.22,0.06082
3209.43,0.06028
3203.65,0.06046
3197.86,0.05972
3192.07,0.06004
3186.29,0.05979
3180.5,0.05921
3174.71,0.05923
3168.93,0.05828
3163.14,0.05769
3157.36,0.05771
3151.57,0.05763
3145.78,0.05737
3140,0.05652
3134.21,0.05549
3128.42,0.05593
3122.64,0.05467
3116.85,0.05384
3111.07,0.05318
3105.28,0.05295
3099.49,0.05203
3093.71,0.05127
3087.92,0.05026
3082.14,0.05006
3076.35,0.05036
3070.56,0.04988
3064.78,0.04986
3058.99,0.04946
3053.2,0.04912
3047.42,0.04909
3041.63,0.04836
3035.85,0.04852
3030.06,0.04871
3024.27,0.04799
3018.49,0.04763
3012.7,0.04737
3006.91,0.04674
3001.13,0.04649
2995.34,0.04663
2989.56,0.04636
2983.77,0.04552
2977.98,0.04519
2972.2,0.04355
2966.41,0.04273
2960.62,0.04193
2954.84,0.04100
2949.05,0.03912
2943.27,0.03665
2937.48,0.03412
2931.69,0.03281
2925.91,0.03816
2920.12,0.06062
2914.33,0.08026
2908.55,0.06906
2902.76,0.06272
2896.98,0.06029
2891.19,0.05842
2885.4,0.05730
2879.62,0.05542
2873.83,0.05404
2868.04,0.05165
2862.26,0.04812
2856.47,0.04507
2850.69,0.05661
2844.9,0.07091
2839.11,0.06515
2833.33,0.06214
2827.54,0.05982
2821.75,0.05903
2815.97,0.05803
2810.18,0.05721
2804.4,0.05753
2798.61,0.05650
2792.82,0.05680
2787.04,0.05626
2781.25,0.05578
2775.46,0.05557
2769.68,0.05564
2763.89,0.05532
2758.11,0.05574
2752.32,0.05527
2746.53,0.05493
2740.75,0.05500
2734.96,0.05508
2729.17,0.05458
2723.39,0.05425
2717.6,0.05458
2711.82,0.05416
2706.03,0.05476
2700.24,0.05443
2694.46,0.05439
2688.67,0.05435
2682.88,0.05391
2677.1,0.05403
2671.31,0.05372
2665.53,0.05399
2659.74,0.05421
2653.95,0.05376
2648.17,0.05398
2642.38,0.05402
2636.59,0.05388
2630.81,0.05382
2625.02,0.05345
2619.24,0.05391
2613.45,0.05406
2607.66,0.05448
2601.88,0.05376
2596.09,0.05408
2590.3,0.05431
2584.52,0.05369
2578.73,0.05411
2572.95,0.05413
2567.16,0.05409
2561.37,0.05384
2555.59,0.05443
2549.8,0.05440
2544.02,0.05443
2538.23,0.05436
2532.44,0.05417
2526.66,0.05399
2520.87,0.05462
2515.08,0.05528
2509.3,0.05485
2503.51,0.05539
2497.73,0.05514
2491.94,0.05533
2486.15,0.05578
2480.37,0.05577
2474.58,0.05551
2468.79,0.05659
2463.01,0.05829
2457.22,0.05896
2451.44,0.05916
2445.65,0.05952
2439.86,0.05936
2434.08,0.05836
2428.29,0.05745
2422.5,0.05634
2416.72,0.05594
2410.93,0.05615
2405.15,0.05689
2399.36,0.05759
2393.57,0.05769
2387.79,0.05773
2382,0.05794
2376.21,0.05778
2370.43,0.05735
2364.64,0.05670
2358.86,0.05546
2353.07,0.05426
2347.28,0.05370
2341.5,0.05355
2335.71,0.05380
2329.92,0.05373
2324.14,0.05358
2318.35,0.05367
2312.57,0.05410
2306.78,0.05436
2300.99,0.05470
2295.21,0.05476
2289.42,0.05505
2283.63,0.05483
2277.85,0.05504
2272.06,0.05583
2266.28,0.05728
2260.49,0.05873
2254.7,0.05870
2248.92,0.05838
2243.13,0.05733
2237.34,0.06058
2231.56,0.06544
2225.77,0.06506
2219.99,0.06358
2214.2,0.06545
2208.41,0.06661
2202.63,0.06606
2196.84,0.06539
2191.05,0.06512
2185.27,0.06482
2179.48,0.06452
2173.7,0.06439
2167.91,0.06363
2162.12,0.06171
2156.34,0.05988
2150.55,0.05909
2144.76,0.05936
2138.98,0.06141
2133.19,0.06554
2127.41,0.06879
2121.62,0.07165
2115.83,0.07283
2110.05,0.07292
2104.26,0.07294
2098.47,0.07288
2092.69,0.07233
2086.9,0.07078
2081.12,0.06951
2075.33,0.06797
2069.54,0.06600
2063.76,0.06413
2057.97,0.06194
2052.19,0.06038
2046.4,0.05832
2040.61,0.05631
2034.83,0.05486
2029.04,0.05439
2023.25,0.05383
2017.47,0.05349
2011.68,0.05515
2005.9,0.06042
2000.11,0.06587
1994.32,0.07004
1988.54,0.07265
1982.75,0.07330
1976.96,0.07339
1971.18,0.07214
1965.39,0.06941
1959.61,0.06772
1953.82,0.06777
1948.03,0.06818
1942.25,0.06757
1936.46,0.06640
1930.67,0.06491
1924.89,0.06361
1919.1,0.06193
1913.32,0.05951
1907.53,0.05721
1901.74,0.05488
1895.96,0.05425
1890.17,0.05701
1884.38,0.06605
1878.6,0.07393
1872.81,0.07980
1867.03,0.08471
1861.24,0.08846
1855.45,0.09124
1849.67,0.09295
1843.88,0.09272
1838.09,0.08985
1832.31,0.08669
1826.52,0.07748
1820.74,0.06662
1814.95,0.06781
1809.16,0.07150
1803.38,0.07261
1797.59,0.07248
1791.8,0.07357
1786.02,0.07561
1780.23,0.07593
1774.45,0.07480
1768.66,0.07200
1762.87,0.06931
1757.09,0.06446
1751.3,0.05888
1745.51,0.05579
1739.73,0.05590
1733.94,0.05810
1728.16,0.05956
1722.37,0.06033
1716.58,0.06056
1710.8,0.06063
1705.01,0.06178
1699.22,0.06150
1693.44,0.06105
1687.65,0.06102
1681.87,0.06044
1676.08,0.05979
1670.29,0.05832
1664.51,0.05785
1658.72,0.05720
1652.93,0.05632
1647.15,0.05486
1641.36,0.05380
1635.58,0.05387
1629.79,0.05423
1624,0.05347
1618.22,0.05423
1612.43,0.05362
1606.64,0.05343
1600.86,0.05352
1595.07,0.05305
1589.29,0.05270
1583.5,0.05288
1577.71,0.05311
1571.93,0.05268
1566.14,0.05292
1560.35,0.05271
1554.57,0.05210
1548.78,0.05183
1543,0.05190
1537.21,0.05182
1531.42,0.05196
1525.64,0.05203
1519.85,0.05200
1514.07,0.05146
1508.28,0.05165
1502.49,0.05093
1496.71,0.05093
1490.92,0.05098
1485.13,0.04982
1479.35,0.04839
1473.56,0.04916
1467.78,0.05242
1461.99,0.05463
1456.2,0.05584
1450.42,0.05475
1444.63,0.05402
1438.84,0.05400
1433.06,0.05395
1427.27,0.05417
1421.49,0.05407
1415.7,0.05392
1409.91,0.05354
1404.13,0.05363
1398.34,0.05348
1392.55,0.05332
1386.77,0.05301
1380.98,0.05289
1375.2,0.05290
1369.41,0.05263
1363.62,0.05304
1357.84,0.05269
1352.05,0.05325
1346.26,0.05341
1340.48,0.05323
1334.69,0.05279
1328.91,0.05313
1323.12,0.05271
1317.33,0.05284
1311.55,0.05284
1305.76,0.05281
1299.97,0.05305
1294.19,0.05298
1288.4,0.05305
1282.62,0.05284
1276.83,0.05319
1271.04,0.05314
1265.26,0.05316
1259.47,0.05327
1253.68,0.05322
1247.9,0.05335
1242.11,0.05348
1236.33,0.05328
1230.54,0.05257
1224.75,0.05265
1218.97,0.05295
1213.18,0.05302
1207.39,0.05290
1201.61,0.05287
1195.82,0.05239
1190.04,0.05253
1184.25,0.05229
1178.46,0.05256
1172.68,0.05246
1166.89,0.05278
1161.1,0.05253
1155.32,0.05314
1149.53,0.05255
1143.75,0.05280
1137.96,0.05269
1132.17,0.05232
1126.39,0.05293
1120.6,0.05276
1114.81,0.05245
1109.03,0.05253
1103.24,0.05265
1097.46,0.05269
1091.67,0.05276
1085.88,0.05285
1080.1,0.05300
1074.31,0.05342
1068.52,0.05323
1062.74,0.05381
1056.95,0.05374
1051.17,0.05394
1045.38,0.05367
1039.59,0.05363
1033.81,0.05321
1028.02,0.05379
1022.24,0.05358
1016.45,0.05411
1010.66,0.05320
1004.88,0.05338
999.09,0.05355
993.304,0.05401
987.518,0.05324
981.731,0.05342
975.945,0.05320
970.159,0.05350
964.373,0.05339
958.586,0.05354
952.8,0.05416
947.014,0.05354
941.228,0.05349
935.441,0.05347
929.655,0.05366
923.869,0.05359
918.083,0.05304
912.297,0.05315
906.51,0.05306
900.724,0.05312
894.938,0.05303
889.152,0.05261
883.365,0.05258
877.579,0.05286
871.793,0.05262
866.007,0.05219
860.22,0.05267
854.434,0.05220
848.648,0.05281
842.862,0.05312
837.075,0.05255
831.289,0.05265
825.503,0.05291
819.717,0.05318
813.931,0.05262
808.144,0.05242
802.358,0.05234
796.572,0.05291
790.786,0.05257
784.999,0.05278
779.213,0.05169
773.427,0.05197
767.641,0.05151
761.854,0.05173
756.068,0.05161
750.282,0.05096
744.496,0.05024
738.709,0.04947
732.923,0.04773
727.137,0.05143
721.351,0.05117
715.565,0.05895
709.778,0.05654
703.992,0.05585
698.206,0.05442
692.42,0.05410
686.633,0.05461
680.847,0.05286
675.061,0.05278
669.275,0.05369
663.488,0.05354
657.702,0.05380
651.916,0.05293
646.13,0.05378
640.343,0.05219
634.557,0.05438
628.771,0.05280
622.985,0.05149
617.198,0.05486
611.412,0.05206
605.626,0.05120
599.84,0.05470