File: 01_Data/PEX_Pipe/FTIR/IS/PEX_Pipe_IS_S_221108_R3.dpt
7497.03,0.69870
7491.25,0.69887
7485.46,0.70584
7479.67,0.70123
7473.89,0.69786
7468.1,0.70493
7462.32,0.70703
7456.53,0.68699
7450.74,0.69944
7444.96,0.68665
7439.17,0.69319
7433.38,0.68610
7427.6,0.69154
7421.81,0.69712
7416.03,0.67346
7410.24,0.68304
7404.45,0.69165
7398.67,0.68246
7392.88,0.68182
7387.09,0.67311
7381.31,0.67492
7375.52,0.68893
7369.74,0.66296
7363.95,0.67628
7358.16,0.66571
7352.38,0.65959
7346.59,0.64976
7340.8,0.65112
7335.02,0.63851
7329.23,0.62774
7323.45,0.62620
7317.66,0.62097
7311.87,0.61263
7306.09,0.58859
7300.3,0.59324
7294.51,0.57956
7288.73,0.56833
7282.94,0.55134
7277.16,0.54329
7271.37,0.52435
7265.58,0.51897
7259.8,0.51557
7254.01,0.49673
7248.22,0.47497
7242.44,0.45250
7236.65,0.44578
7230.87,0.42148
7225.08,0.40914
7219.29,0.39494
7213.51,0.38524
7207.72,0.36334
7201.93,0.34540
7196.15,0.33150
7190.36,0.30890
7184.58,0.30030
7178.79,0.26226
7173,0.25963
7167.22,0.27463
7161.43,0.29945
7155.65,0.33149
7149.86,0.34971
7144.07,0.35241
7138.29,0.36690
7132.5,0.37211
7126.71,0.37572
7120.93,0.36052
7115.14,0.35445
7109.36,0.35016
7103.57,0.33687
7097.78,0.33676
7092,0.32695
7086.21,0.32729
7080.42,0.31881
7074.64,0.29595
7068.85,0.28438
7063.07,0.28991
7057.28,0.29376
7051.49,0.30009
7045.71,0.30156
7039.92,0.29974
7034.13,0.30286
7028.35,0.30765
7022.56,0.30232
7016.78,0.30067
7010.99,0.30338
7005.2,0.30780
6999.42,0.31278
6993.63,0.31803
6987.84,0.32204
6982.06,0.32199
6976.27,0.32388
6970.49,0.31775
6964.7,0.32343
6958.91,0.31843
6953.13,0.31995
6947.34,0.31881
6941.55,0.32438
6935.77,0.33446
6929.98,0.34804
6924.2,0.35032
6918.41,0.35361
6912.62,0.34727
6906.84,0.35748
6901.05,0.35521
6895.26,0.36234
6889.48,0.36502
6883.69,0.36681
6877.91,0.37805
6872.12,0.38189
6866.33,0.38083
6860.55,0.38562
6854.76,0.39245
6848.97,0.39249
6843.19,0.40278
6837.4,0.39113
6831.62,0.39841
6825.83,0.41039
6820.04,0.41230
6814.26,0.41804
6808.47,0.42880
6802.68,0.43426
6796.9,0.44338
6791.11,0.45226
6785.33,0.44877
6779.54,0.45928
6773.75,0.46294
6767.97,0.46293
6762.18,0.47028
6756.39,0.47064
6750.61,0.47337
6744.82,0.47675
6739.04,0.48043
6733.25,0.48403
6727.46,0.48830
6721.68,0.48913
6715.89,0.48942
6710.1,0.49458
6704.32,0.50292
6698.53,0.50716
6692.75,0.50545
6686.96,0.50785
6681.17,0.51037
6675.39,0.50965
6669.6,0.51534
6663.82,0.51460
6658.03,0.51193
6652.24,0.51372
6646.46,0.51890
6640.67,0.51937
6634.88,0.51951
6629.1,0.52596
6623.31,0.52618
6617.53,0.52065
6611.74,0.52284
6605.95,0.52814
6600.17,0.52163
6594.38,0.52195
6588.59,0.52682
6582.81,0.51902
6577.02,0.51513
6571.24,0.51854
6565.45,0.51270
6559.66,0.51304
6553.88,0.51233
6548.09,0.51336
6542.3,0.50681
6536.52,0.50176
6530.73,0.50517
6524.95,0.50341
6519.16,0.50215
6513.37,0.49471
6507.59,0.49424
6501.8,0.48520
6496.01,0.48199
6490.23,0.47184
6484.44,0.47039
6478.66,0.47340
6472.87,0.48991
6467.08,0.50854
6461.3,0.51788
6455.51,0.52670
6449.72,0.53145
6443.94,0.53718
6438.15,0.53849
6432.37,0.54491
6426.58,0.54912
6420.79,0.54920
6415.01,0.54476
6409.22,0.55507
6403.43,0.55568
6397.65,0.55823
6391.86,0.55845
6386.08,0.55798
6380.29,0.56093
6374.5,0.56574
6368.72,0.56844
6362.93,0.56889
6357.14,0.57069
6351.36,0.57012
6345.57,0.57558
6339.79,0.57761
6334,0.57423
6328.21,0.57816
6322.43,0.58029
6316.64,0.57778
6310.85,0.57773
6305.07,0.58172
6299.28,0.57780
6293.5,0.58191
6287.71,0.57662
6281.92,0.57635
6276.14,0.57762
6270.35,0.57611
6264.56,0.57636
6258.78,0.57184
6252.99,0.57573
6247.21,0.58127
6241.42,0.57901
6235.63,0.57969
6229.85,0.57896
6224.06,0.57446
6218.27,0.57347
6212.49,0.57285
6206.7,0.57349
6200.92,0.57405
6195.13,0.57022
6189.34,0.57283
6183.56,0.57106
6177.77,0.56647
6171.98,0.57461
6166.2,0.56851
6160.41,0.56691
6154.63,0.56155
6148.84,0.56522
6143.05,0.56180
6137.27,0.56065
6131.48,0.55870
6125.7,0.55821
6119.91,0.55254
6114.12,0.54907
6108.34,0.54867
6102.55,0.54626
6096.76,0.54562
6090.98,0.54133
6085.19,0.53861
6079.41,0.52960
6073.62,0.53065
6067.83,0.52654
6062.05,0.52563
6056.26,0.52542
6050.47,0.52231
6044.69,0.51486
6038.9,0.51011
6033.12,0.50551
6027.33,0.50041
6021.54,0.49152
6015.76,0.48483
6009.97,0.47300
6004.18,0.46950
5998.4,0.45830
5992.61,0.44979
5986.83,0.44048
5981.04,0.42810
5975.25,0.41906
5969.47,0.40687
5963.68,0.39217
5957.89,0.37905
5952.11,0.36793
5946.32,0.35824
5940.54,0.34937
5934.75,0.34091
5928.96,0.32966
5923.18,0.32040
5917.39,0.30884
5911.6,0.29998
5905.82,0.28553
5900.03,0.27655
5894.25,0.26457
5888.46,0.25652
5882.67,0.24055
5876.89,0.22166
5871.1,0.20025
5865.31,0.18105
5859.53,0.16158
5853.74,0.14589
5847.96,0.13427
5842.17,0.12337
5836.38,0.11804
5830.6,0.11247
5824.81,0.10520
5819.02,0.10069
5813.24,0.09688
5807.45,0.09267
5801.67,0.08804
5795.88,0.08421
5790.09,0.08001
5784.31,0.07575
5778.52,0.07342
5772.73,0.07337
5766.95,0.07461
5761.16,0.08378
5755.38,0.09074
5749.59,0.09839
5743.8,0.10598
5738.02,0.10773
5732.23,0.11062
5726.44,0.12171
5720.66,0.12945
5714.87,0.13482
5709.09,0.13190
5703.3,0.12775
5697.51,0.11898
5691.73,0.11484
5685.94,0.11111
5680.15,0.10704
5674.37,0.10132
5668.58,0.09142
5662.8,0.08920
5657.01,0.09716
5651.22,0.10973
5645.44,0.11796
5639.65,0.12489
5633.87,0.12796
5628.08,0.13164
5622.29,0.13497
5616.51,0.13647
5610.72,0.13970
5604.93,0.14425
5599.15,0.14751
5593.36,0.14828
5587.58,0.14902
5581.79,0.14621
5576,0.14412
5570.22,0.14081
5564.43,0.13785
5558.64,0.13499
5552.86,0.13463
5547.07,0.13459
5541.29,0.13537
5535.5,0.13590
5529.71,0.13374
5523.93,0.13440
5518.14,0.13522
5512.35,0.13536
5506.57,0.13497
5500.78,0.13321
5495,0.13156
5489.21,0.13240
5483.42,0.13435
5477.64,0.13725
5471.85,0.13724
5466.06,0.14048
5460.28,0.14057
5454.49,0.13933
5448.71,0.14221
5442.92,0.14143
5437.13,0.14225
5431.35,0.14406
5425.56,0.14721
5419.77,0.14699
5413.99,0.15044
5408.2,0.15681
5402.42,0.15917
5396.63,0.16331
5390.84,0.16494
5385.06,0.16652
5379.27,0.16698
5373.48,0.16899
5367.7,0.17242
5361.91,0.17576
5356.13,0.17590
5350.34,0.18037
5344.55,0.18525
5338.77,0.18817
5332.98,0.18819
5327.19,0.18982
5321.41,0.18845
5315.62,0.18509
5309.84,0.18173
5304.05,0.18096
5298.26,0.18352
5292.48,0.18374
5286.69,0.18440
5280.9,0.18301
5275.12,0.18297
5269.33,0.18311
5263.55,0.18357
5257.76,0.18224
5251.97,0.18141
5246.19,0.17979
5240.4,0.17737
5234.61,0.17656
5228.83,0.17603
5223.04,0.17397
5217.26,0.17424
5211.47,0.17515
5205.68,0.17395
5199.9,0.17335
5194.11,0.17462
5188.32,0.17274
5182.54,0.17324
5176.75,0.17218
5170.97,0.17248
5165.18,0.17348
5159.39,0.17243
5153.61,0.17498
5147.82,0.17548
5142.03,0.17673
5136.25,0.17815
5130.46,0.17911
5124.68,0.17748
5118.89,0.17698
5113.1,0.17659
5107.32,0.17506
5101.53,0.17445
5095.75,0.17314
5089.96,0.17422
5084.17,0.17460
5078.39,0.17570
5072.6,0.17582
5066.81,0.17775
5061.03,0.17703
5055.24,0.17885
5049.46,0.17955
5043.67,0.18043
5037.88,0.18217
5032.1,0.17963
5026.31,0.17955
5020.52,0.17651
5014.74,0.17766
5008.95,0.17617
5003.17,0.17451
4997.38,0.17053
4991.59,0.16706
4985.81,0.16297
4980.02,0.15928
4974.23,0.15942
4968.45,0.15687
4962.66,0.15626
4956.88,0.16019
4951.09,0.16714
4945.3,0.16927
4939.52,0.17155
4933.73,0.17161
4927.94,0.17160
4922.16,0.17101
4916.37,0.17158
4910.59,0.17138
4904.8,0.17057
4899.01,0.16739
4893.23,0.16619
4887.44,0.16656
4881.65,0.16472
4875.87,0.16306
4870.08,0.16127
4864.3,0.16199
4858.51,0.16141
4852.72,0.16602
4846.94,0.16968
4841.15,0.17014
4835.36,0.17405
4829.58,0.17543
4823.79,0.17738
4818.01,0.17873
4812.22,0.18215
4806.43,0.18380
4800.65,0.18486
4794.86,0.18679
4789.07,0.18681
4783.29,0.18748
4777.5,0.18836
4771.72,0.19248
4765.93,0.19496
4760.14,0.19810
4754.36,0.19799
4748.57,0.19999
4742.78,0.20227
4737,0.20222
4731.21,0.20343
4725.43,0.20512
4719.64,0.20768
4713.85,0.20964
4708.07,0.21022
4702.28,0.21007
4696.49,0.21213
4690.71,0.21074
4684.92,0.20973
4679.14,0.20490
4673.35,0.20095
4667.56,0.19752
4661.78,0.20038
4655.99,0.20412
4650.2,0.20789
4644.42,0.20982
4638.63,0.20827
4632.85,0.20928
4627.06,0.20755
4621.27,0.20761
4615.49,0.20576
4609.7,0.20567
4603.92,0.20465
4598.13,0.20401
4592.34,0.20182
4586.56,0.20089
4580.77,0.19941
4574.98,0.19650
4569.2,0.19299
4563.41,0.19062
4557.63,0.18735
4551.84,0.18295
4546.05,0.17843
4540.27,0.17580
4534.48,0.17144
4528.69,0.16884
4522.91,0.16379
4517.12,0.16092
4511.34,0.15707
4505.55,0.15254
4499.76,0.14795
4493.98,0.14375
4488.19,0.13873
4482.4,0.13609
4476.62,0.13184
4470.83,0.12725
4465.05,0.12305
4459.26,0.11800
4453.47,0.11377
4447.69,0.10830
4441.9,0.10395
4436.11,0.10077
4430.33,0.09706
4424.54,0.09333
4418.76,0.08899
4412.97,0.08532
4407.18,0.08006
4401.4,0.07541
4395.61,0.07193
4389.82,0.06843
4384.04,0.06663
4378.25,0.06462
4372.47,0.06296
4366.68,0.06201
4360.89,0.06124
4355.11,0.05894
4349.32,0.05707
4343.53,0.05600
4337.75,0.05501
4331.96,0.05412
4326.18,0.05280
4320.39,0.05301
4314.6,0.05552
4308.82,0.05784
4303.03,0.05947
4297.24,0.06020
4291.46,0.06030
4285.67,0.05862
4279.89,0.05862
4274.1,0.05797
4268.31,0.05680
4262.53,0.05642
4256.74,0.05541
4250.95,0.05412
4245.17,0.05520
4239.38,0.05671
4233.6,0.05752
4227.81,0.05668
4222.02,0.05638
4216.24,0.05614
4210.45,0.05601
4204.66,0.05578
4198.88,0.05533
4193.09,0.05508
4187.31,0.05448
4181.52,0.05538
4175.73,0.05548
4169.95,0.05574
4164.16,0.05535
4158.37,0.05577
4152.59,0.05569
4146.8,0.05481
4141.02,0.05528
4135.23,0.05509
4129.44,0.05560
4123.66,0.05583
4117.87,0.05511
4112.09,0.05562
4106.3,0.05555
4100.51,0.05549
4094.73,0.05588
4088.94,0.05604
4083.15,0.05626
4077.37,0.05685
4071.58,0.05713
4065.8,0.05775
4060.01,0.05756
4054.22,0.05734
4048.44,0.05796
4042.65,0.05824
4036.86,0.05831
4031.08,0.05836
4025.29,0.05824
4019.51,0.05852
4013.72,0.06026
4007.93,0.05962
4002.15,0.06132
3996.36,0.06107
3990.57,0.06160
3984.79,0.06129
3979,0.06018
3973.22,0.06023
3967.43,0.06044
3961.64,0.06083
3955.86,0.06128
3950.07,0.06093
3944.28,0.06077
3938.5,0.05995
3932.71,0.05993
3926.93,0.06002
3921.14,0.05994
3915.35,0.05925
3909.57,0.05962
3903.78,0.05954
3897.99,0.05885
3892.21,0.05936
3886.42,0.05924
3880.64,0.05915
3874.85,0.06009
3869.06,0.05871
3863.28,0.06029
3857.49,0.06097
3851.7,0.06114
3845.92,0.06068
3840.13,0.06006
3834.35,0.06127
3828.56,0.06057
3822.77,0.05933
3816.99,0.05959
3811.2,0.06047
3805.41,0.06105
3799.63,0.06141
3793.84,0.06158
3788.06,0.06183
3782.27,0.06227
3776.48,0.06210
3770.7,0.06294
3764.91,0.06275
3759.12,0.06318
3753.34,0.06385
3747.55,0.06439
3741.77,0.06311
3735.98,0.06333
3730.19,0.06338
3724.41,0.06272
3718.62,0.06294
3712.83,0.06297
3707.05,0.06158
3701.26,0.05974
3695.48,0.05854
3689.69,0.05957
3683.9,0.05904
3678.12,0.05885
3672.33,0.05872
3666.54,0.05940
3660.76,0.05851
3654.97,0.05817
3649.19,0.05678
3643.4,0.05689
3637.61,0.05767
3631.83,0.05838
3626.04,0.05819
3620.25,0.05778
3614.47,0.05674
3608.68,0.05618
3602.9,0.05578
3597.11,0.05746
3591.32,0.05963
3585.54,0.06094
3579.75,0.06191
3573.97,0.06229
3568.18,0.06292
3562.39,0.06474
3556.61,0.06439
3550.82,0.06528
3545.03,0.06564
3539.25,0.06625
3533.46,0.06563
3527.68,0.06586
3521.89,0.06563
3516.1,0.06552
3510.32,0.06596
3504.53,0.06537
3498.74,0.06431
3492.96,0.06405
3487.17,0.06393
3481.39,0.06318
3475.6,0.06247
3469.81,0.06200
3464.03,0.06154
3458.24,0.06084
3452.45,0.06076
3446.67,0.06058
3440.88,0.06095
3435.1,0.05995
3429.31,0.06046
3423.52,0.06024
3417.74,0.06021
3411.95,0.05973
3406.16,0.05986
3400.38,0.06015
3394.59,0.05937
3388.81,0.05960
3383.02,0.05910
3377.23,0.05867
3371.45,0.05806
3365.66,0.05867
3359.87,0.05915
3354.09,0.05973
3348.3,0.05999
3342.52,0.05999
3336.73,0.06129
3330.94,0.06180
3325.16,0.06139
3319.37,0.06169
3313.58,0.06193
3307.8,0.06229
3302.01,0.06173
3296.23,0.06218
3290.44,0.06288
3284.65,0.06244
3278.87,0.06185
3273.08,0.06303
3267.29,0.06334
3261.51,0.06327
3255.72,0.06188
3249.94,0.06194
3244.15,0.06206
3238.36,0.06214
3232.58,0.06178
3226.79,0.06234
3221,0.06191
3215.22,0.06208
3209.43,0.06197
3203.65,0.06092
3197.86,0.05979
3192.07,0.05925
3186.29,0.05979
3180.5,0.05990
3174.71,0.05956
3168.93,0.05836
3163.14,0.05810
3157.36,0.05836
3151.57,0.05759
3145.78,0.05782
3140,0.05696
3134.21,0.05555
3128.42,0.05579
3122.64,0.05513
3116.85,0.05485
3111.07,0.05384
3105.28,0.05344
3099.49,0.05223
3093.71,0.05165
3087.92,0.05089
3082.14,0.05019
3076.35,0.05033
3070.56,0.05069
3064.78,0.05047
3058.99,0.04985
3053.2,0.04953
3047.42,0.04902
3041.63,0.04896
3035.85,0.04857
3030.06,0.04829
3024.27,0.04813
3018.49,0.04766
3012.7,0.04766
3006.91,0.04712
3001.13,0.04675
2995.34,0.04695
2989.56,0.04662
2983.77,0.04536
2977.98,0.04483
2972.2,0.04443
2966.41,0.04344
2960.62,0.04217
2954.84,0.04161
2949.05,0.03990
2943.27,0.03697
2937.48,0.03419
2931.69,0.03280
2925.91,0.03769
2920.12,0.06079
2914.33,0.08063
2908.55,0.06972
2902.76,0.06300
2896.98,0.06013
2891.19,0.05852
2885.4,0.05730
2879.62,0.05636
2873.83,0.05438
2868.04,0.05187
2862.26,0.04799
2856.47,0.04462
2850.69,0.05622
2844.9,0.07076
2839.11,0.06498
2833.33,0.06199
2827.54,0.06046
2821.75,0.05884
2815.97,0.05862
2810.18,0.05756
2804.4,0.05728
2798.61,0.05678
2792.82,0.05624
2787.04,0.05627
2781.25,0.05626
2775.46,0.05633
2769.68,0.05605
2763.89,0.05516
2758.11,0.05527
2752.32,0.05535
2746.53,0.05540
2740.75,0.05516
2734.96,0.05526
2729.17,0.05485
2723.39,0.05495
2717.6,0.05455
2711.82,0.05479
2706.03,0.05487
2700.24,0.05447
2694.46,0.05459
2688.67,0.05425
2682.88,0.05427
2677.1,0.05455
2671.31,0.05439
2665.53,0.05371
2659.74,0.05419
2653.95,0.05427
2648.17,0.05413
2642.38,0.05392
2636.59,0.05432
2630.81,0.05401
2625.02,0.05424
2619.24,0.05440
2613.45,0.05387
2607.66,0.05421
2601.88,0.05403
2596.09,0.05451
2590.3,0.05425
2584.52,0.05469
2578.73,0.05426
2572.95,0.05417
2567.16,0.05451
2561.37,0.05458
2555.59,0.05446
2549.8,0.05431
2544.02,0.05438
2538.23,0.05476
2532.44,0.05497
2526.66,0.05462
2520.87,0.05473
2515.08,0.05493
2509.3,0.05569
2503.51,0.05543
2497.73,0.05559
2491.94,0.05586
2486.15,0.05595
2480.37,0.05574
2474.58,0.05611
2468.79,0.05691
2463.01,0.05857
2457.22,0.05902
2451.44,0.05967
2445.65,0.05957
2439.86,0.05954
2434.08,0.05876
2428.29,0.05797
2422.5,0.05651
2416.72,0.05573
2410.93,0.05678
2405.15,0.05736
2399.36,0.05730
2393.57,0.05778
2387.79,0.05789
2382,0.05782
2376.21,0.05785
2370.43,0.05772
2364.64,0.05695
2358.86,0.05529
2353.07,0.05395
2347.28,0.05373
2341.5,0.05379
2335.71,0.05425
2329.92,0.05377
2324.14,0.05357
2318.35,0.05399
2312.57,0.05453
2306.78,0.05473
2300.99,0.05459
2295.21,0.05524
2289.42,0.05508
2283.63,0.05528
2277.85,0.05514
2272.06,0.05569
2266.28,0.05767
2260.49,0.05843
2254.7,0.05869
2248.92,0.05825
2243.13,0.05766
2237.34,0.06081
2231.56,0.06595
2225.77,0.06450
2219.99,0.06381
2214.2,0.06559
2208.41,0.06678
2202.63,0.06645
2196.84,0.06579
2191.05,0.06531
2185.27,0.06500
2179.48,0.06484
2173.7,0.06480
2167.91,0.06386
2162.12,0.06181
2156.34,0.06029
2150.55,0.05927
2144.76,0.05924
2138.98,0.06177
2133.19,0.06600
2127.41,0.06940
2121.62,0.07214
2115.83,0.07297
2110.05,0.07313
2104.26,0.07312
2098.47,0.07315
2092.69,0.07273
2086.9,0.07096
2081.12,0.06935
2075.33,0.06809
2069.54,0.06630
2063.76,0.06433
2057.97,0.06204
2052.19,0.06020
2046.4,0.05866
2040.61,0.05666
2034.83,0.05546
2029.04,0.05474
2023.25,0.05379
2017.47,0.05344
2011.68,0.05532
2005.9,0.06035
2000.11,0.06611
1994.32,0.07039
1988.54,0.07293
1982.75,0.07392
1976.96,0.07364
1971.18,0.07240
1965.39,0.06972
1959.61,0.06796
1953.82,0.06811
1948.03,0.06827
1942.25,0.06770
1936.46,0.06655
1930.67,0.06530
1924.89,0.06398
1919.1,0.06189
1913.32,0.05971
1907.53,0.05734
1901.74,0.05506
1895.96,0.05457
1890.17,0.05764
1884.38,0.06653
1878.6,0.07428
1872.81,0.08055
1867.03,0.08532
1861.24,0.08897
1855.45,0.09175
1849.67,0.09315
1843.88,0.09293
1838.09,0.09011
1832.31,0.08714
1826.52,0.07761
1820.74,0.06695
1814.95,0.06854
1809.16,0.07135
1803.38,0.07244
1797.59,0.07296
1791.8,0.07378
1786.02,0.07588
1780.23,0.07616
1774.45,0.07487
1768.66,0.07210
1762.87,0.06987
1757.09,0.06466
1751.3,0.05956
1745.51,0.05617
1739.73,0.05650
1733.94,0.05866
1728.16,0.06018
1722.37,0.06045
1716.58,0.06035
1710.8,0.06096
1705.01,0.06173
1699.22,0.06135
1693.44,0.06147
1687.65,0.06122
1681.87,0.06061
1676.08,0.05946
1670.29,0.05886
1664.51,0.05796
1658.72,0.05724
1652.93,0.05676
1647.15,0.05580
1641.36,0.05400
1635.58,0.05424
1629.79,0.05428
1624,0.05409
1618.22,0.05425
1612.43,0.05361
1606.64,0.05352
1600.86,0.05316
1595.07,0.05324
1589.29,0.05302
1583.5,0.05310
1577.71,0.05342
1571.93,0.05287
1566.14,0.05302
1560.35,0.05354
1554.57,0.05256
1548.78,0.05234
1543,0.05268
1537.21,0.05203
1531.42,0.05178
1525.64,0.05204
1519.85,0.05222
1514.07,0.05175
1508.28,0.05131
1502.49,0.05120
1496.71,0.05108
1490.92,0.05073
1485.13,0.05022
1479.35,0.04866
1473.56,0.04912
1467.78,0.05262
1461.99,0.05490
1456.2,0.05565
1450.42,0.05520
1444.63,0.05465
1438.84,0.05448
1433.06,0.05420
1427.27,0.05415
1421.49,0.05402
1415.7,0.05386
1409.91,0.05405
1404.13,0.05358
1398.34,0.05370
1392.55,0.05324
1386.77,0.05345
1380.98,0.05333
1375.2,0.05325
1369.41,0.05320
1363.62,0.05308
1357.84,0.05331
1352.05,0.05317
1346.26,0.05337
1340.48,0.05324
1334.69,0.05343
1328.91,0.05295
1323.12,0.05295
1317.33,0.05310
1311.55,0.05263
1305.76,0.05307
1299.97,0.05273
1294.19,0.05275
1288.4,0.05268
1282.62,0.05311
1276.83,0.05324
1271.04,0.05297
1265.26,0.05302
1259.47,0.05318
1253.68,0.05322
1247.9,0.05329
1242.11,0.05333
1236.33,0.05355
1230.54,0.05364
1224.75,0.05317
1218.97,0.05304
1213.18,0.05321
1207.39,0.05303
1201.61,0.05252
1195.82,0.05270
1190.04,0.05251
1184.25,0.05272
1178.46,0.05314
1172.68,0.05308
1166.89,0.05286
1161.1,0.05273
1155.32,0.05288
1149.53,0.05288
1143.75,0.05303
1137.96,0.05311
1132.17,0.05303
1126.39,0.05265
1120.6,0.05290
1114.81,0.05299
1109.03,0.05174
1103.24,0.05276
1097.46,0.05285
1091.67,0.05223
1085.88,0.05265
1080.1,0.05290
1074.31,0.05289
1068.52,0.05285
1062.74,0.05313
1056.95,0.05326
1051.17,0.05363
1045.38,0.05354
1039.59,0.05366
1033.81,0.05335
1028.02,0.05418
1022.24,0.05404
1016.45,0.05478
1010.66,0.05416
1004.88,0.05418
999.09,0.05432
993.304,0.05338
987.518,0.05370
981.731,0.05385
975.945,0.05338
970.159,0.05315
964.373,0.05356
958.586,0.05363
952.8,0.05425
947.014,0.05406
941.228,0.05363
935.441,0.05332
929.655,0.05369
923.869,0.05310
918.083,0.05327
912.297,0.05352
906.51,0.05277
900.724,0.05249
894.938,0.05259
889.152,0.05255
883.365,0.05206
877.579,0.05293
871.793,0.05287
866.007,0.05264
860.22,0.05286
854.434,0.05271
848.648,0.05324
842.862,0.05292
837.075,0.05306
831.289,0.05250
825.503,0.05269
819.717,0.05274
813.931,0.05335
808.144,0.05299
802.358,0.05287
796.572,0.05209
790.786,0.05311
784.999,0.05233
779.213,0.05300
773.427,0.05236
767.641,0.05115
761.854,0.05170
756.068,0.05199
750.282,0.05095
744.496,0.05081
738.709,0.04914
732.923,0.04769
727.137,0.05195
721.351,0.05113
715.565,0.05839
709.778,0.05642
703.992,0.05500
698.206,0.05393
692.42,0.05486
686.633,0.05455
680.847,0.05502
675.061,0.05498
669.275,0.05380
663.488,0.05388
657.702,0.05288
651.916,0.05338
646.13,0.05364
640.343,0.05485
634.557,0.05306
628.771,0.05228
622.985,0.05528
617.198,0.05128
611.412,0.05275
605.626,0.05243
599.84,0.05192