File: 01_Data/PEX_Pipe/FTIR/IS/PEX_Pipe_IS_S_221108_R2.dpt
7497.03,0.70188
7491.25,0.71596
7485.46,0.70972
7479.67,0.69777
7473.89,0.69250
7468.1,0.69623
7462.32,0.69792
7456.53,0.70375
7450.74,0.69927
7444.96,0.70234
7439.17,0.68778
7433.38,0.68816
7427.6,0.69346
7421.81,0.68400
7416.03,0.68513
7410.24,0.68607
7404.45,0.68591
7398.67,0.67238
7392.88,0.66831
7387.09,0.67259
7381.31,0.68397
7375.52,0.67048
7369.74,0.65625
7363.95,0.66061
7358.16,0.65519
7352.38,0.65836
7346.59,0.65533
7340.8,0.65739
7335.02,0.63811
7329.23,0.62501
7323.45,0.61616
7317.66,0.62296
7311.87,0.60678
7306.09,0.58705
7300.3,0.59168
7294.51,0.57110
7288.73,0.56571
7282.94,0.55174
7277.16,0.53836
7271.37,0.53095
7265.58,0.51772
7259.8,0.50512
7254.01,0.49133
7248.22,0.47353
7242.44,0.46335
7236.65,0.44861
7230.87,0.42441
7225.08,0.40271
7219.29,0.39958
7213.51,0.38103
7207.72,0.36010
7201.93,0.35366
7196.15,0.33830
7190.36,0.31981
7184.58,0.29125
7178.79,0.26942
7173,0.26041
7167.22,0.27569
7161.43,0.30088
7155.65,0.33409
7149.86,0.35115
7144.07,0.36102
7138.29,0.36333
7132.5,0.36249
7126.71,0.37443
7120.93,0.36644
7115.14,0.35623
7109.36,0.34212
7103.57,0.34149
7097.78,0.33487
7092,0.32659
7086.21,0.32019
7080.42,0.32041
7074.64,0.30133
7068.85,0.29153
7063.07,0.28378
7057.28,0.29062
7051.49,0.29502
7045.71,0.30507
7039.92,0.30368
7034.13,0.30574
7028.35,0.30539
7022.56,0.30121
7016.78,0.30841
7010.99,0.30962
7005.2,0.31091
6999.42,0.31024
6993.63,0.31610
6987.84,0.32050
6982.06,0.32043
6976.27,0.32416
6970.49,0.32429
6964.7,0.32225
6958.91,0.31530
6953.13,0.31652
6947.34,0.32037
6941.55,0.31917
6935.77,0.32974
6929.98,0.34508
6924.2,0.34919
6918.41,0.35486
6912.62,0.35510
6906.84,0.35245
6901.05,0.36082
6895.26,0.36644
6889.48,0.36552
6883.69,0.37174
6877.91,0.37626
6872.12,0.38258
6866.33,0.38524
6860.55,0.38579
6854.76,0.39308
6848.97,0.39297
6843.19,0.39724
6837.4,0.39844
6831.62,0.39712
6825.83,0.41055
6820.04,0.41722
6814.26,0.42235
6808.47,0.43132
6802.68,0.43563
6796.9,0.44116
6791.11,0.44732
6785.33,0.45669
6779.54,0.45342
6773.75,0.45975
6767.97,0.46579
6762.18,0.47221
6756.39,0.47992
6750.61,0.48049
6744.82,0.48478
6739.04,0.48105
6733.25,0.48040
6727.46,0.48801
6721.68,0.49009
6715.89,0.48637
6710.1,0.49508
6704.32,0.50386
6698.53,0.50268
6692.75,0.50276
6686.96,0.50304
6681.17,0.50519
6675.39,0.51135
6669.6,0.51579
6663.82,0.51464
6658.03,0.51021
6652.24,0.52003
6646.46,0.51616
6640.67,0.52211
6634.88,0.52280
6629.1,0.52451
6623.31,0.52357
6617.53,0.52067
6611.74,0.52157
6605.95,0.52243
6600.17,0.52681
6594.38,0.52354
6588.59,0.52475
6582.81,0.52214
6577.02,0.52140
6571.24,0.51526
6565.45,0.51567
6559.66,0.51604
6553.88,0.51625
6548.09,0.51127
6542.3,0.50886
6536.52,0.51194
6530.73,0.50812
6524.95,0.50374
6519.16,0.49891
6513.37,0.49768
6507.59,0.49336
6501.8,0.48440
6496.01,0.48002
6490.23,0.47142
6484.44,0.46951
6478.66,0.47288
6472.87,0.48863
6467.08,0.50572
6461.3,0.51665
6455.51,0.52752
6449.72,0.53211
6443.94,0.53456
6438.15,0.54006
6432.37,0.54393
6426.58,0.54238
6420.79,0.54842
6415.01,0.55363
6409.22,0.55525
6403.43,0.55352
6397.65,0.55642
6391.86,0.55785
6386.08,0.56289
6380.29,0.56201
6374.5,0.56025
6368.72,0.56609
6362.93,0.57119
6357.14,0.56949
6351.36,0.57502
6345.57,0.57495
6339.79,0.57546
6334,0.57713
6328.21,0.57317
6322.43,0.57394
6316.64,0.57522
6310.85,0.57963
6305.07,0.58037
6299.28,0.57483
6293.5,0.58065
6287.71,0.57710
6281.92,0.57559
6276.14,0.57578
6270.35,0.57467
6264.56,0.57876
6258.78,0.57693
6252.99,0.57710
6247.21,0.57785
6241.42,0.57624
6235.63,0.57740
6229.85,0.57538
6224.06,0.57746
6218.27,0.57574
6212.49,0.57598
6206.7,0.57628
6200.92,0.57394
6195.13,0.57360
6189.34,0.57043
6183.56,0.57017
6177.77,0.56820
6171.98,0.56662
6166.2,0.56510
6160.41,0.56555
6154.63,0.56357
6148.84,0.56345
6143.05,0.56070
6137.27,0.55922
6131.48,0.55538
6125.7,0.55434
6119.91,0.54879
6114.12,0.55242
6108.34,0.54947
6102.55,0.54690
6096.76,0.54466
6090.98,0.53935
6085.19,0.53756
6079.41,0.53086
6073.62,0.53033
6067.83,0.53130
6062.05,0.52622
6056.26,0.52840
6050.47,0.52199
6044.69,0.51403
6038.9,0.50764
6033.12,0.50324
6027.33,0.49897
6021.54,0.49283
6015.76,0.48330
6009.97,0.47348
6004.18,0.46434
5998.4,0.46030
5992.61,0.44729
5986.83,0.44043
5981.04,0.42975
5975.25,0.41807
5969.47,0.40601
5963.68,0.39079
5957.89,0.37774
5952.11,0.37002
5946.32,0.36006
5940.54,0.34846
5934.75,0.34033
5928.96,0.32745
5923.18,0.31783
5917.39,0.30635
5911.6,0.29886
5905.82,0.28543
5900.03,0.27919
5894.25,0.26784
5888.46,0.25559
5882.67,0.23757
5876.89,0.22180
5871.1,0.20207
5865.31,0.18292
5859.53,0.16623
5853.74,0.14356
5847.96,0.13350
5842.17,0.12517
5836.38,0.11874
5830.6,0.11102
5824.81,0.10717
5819.02,0.10166
5813.24,0.09770
5807.45,0.09246
5801.67,0.09053
5795.88,0.08628
5790.09,0.08166
5784.31,0.07646
5778.52,0.07157
5772.73,0.07283
5766.95,0.07698
5761.16,0.08356
5755.38,0.09056
5749.59,0.09865
5743.8,0.10652
5738.02,0.10821
5732.23,0.11030
5726.44,0.12196
5720.66,0.13151
5714.87,0.13365
5709.09,0.13097
5703.3,0.12672
5697.51,0.12088
5691.73,0.11461
5685.94,0.11065
5680.15,0.10662
5674.37,0.09977
5668.58,0.09206
5662.8,0.09195
5657.01,0.09822
5651.22,0.10953
5645.44,0.11724
5639.65,0.12361
5633.87,0.12975
5628.08,0.13115
5622.29,0.13589
5616.51,0.13665
5610.72,0.14269
5604.93,0.14482
5599.15,0.14658
5593.36,0.14800
5587.58,0.14757
5581.79,0.14795
5576,0.14401
5570.22,0.13961
5564.43,0.13743
5558.64,0.13519
5552.86,0.13427
5547.07,0.13470
5541.29,0.13609
5535.5,0.13525
5529.71,0.13684
5523.93,0.13514
5518.14,0.13579
5512.35,0.13640
5506.57,0.13468
5500.78,0.13266
5495,0.13133
5489.21,0.13155
5483.42,0.13452
5477.64,0.13612
5471.85,0.13761
5466.06,0.13964
5460.28,0.14156
5454.49,0.14141
5448.71,0.14303
5442.92,0.14102
5437.13,0.14344
5431.35,0.14403
5425.56,0.14435
5419.77,0.14660
5413.99,0.15094
5408.2,0.15512
5402.42,0.16018
5396.63,0.16170
5390.84,0.16427
5385.06,0.16738
5379.27,0.16816
5373.48,0.16897
5367.7,0.16886
5361.91,0.17423
5356.13,0.17705
5350.34,0.17972
5344.55,0.18406
5338.77,0.18868
5332.98,0.18982
5327.19,0.18989
5321.41,0.18849
5315.62,0.18454
5309.84,0.18042
5304.05,0.18239
5298.26,0.18261
5292.48,0.18408
5286.69,0.18465
5280.9,0.18356
5275.12,0.18243
5269.33,0.18163
5263.55,0.18221
5257.76,0.18089
5251.97,0.18153
5246.19,0.17840
5240.4,0.17923
5234.61,0.17768
5228.83,0.17721
5223.04,0.17514
5217.26,0.17339
5211.47,0.17345
5205.68,0.17530
5199.9,0.17324
5194.11,0.17287
5188.32,0.17352
5182.54,0.17285
5176.75,0.17327
5170.97,0.17235
5165.18,0.17244
5159.39,0.17204
5153.61,0.17285
5147.82,0.17645
5142.03,0.17653
5136.25,0.17743
5130.46,0.17672
5124.68,0.17612
5118.89,0.17677
5113.1,0.17542
5107.32,0.17440
5101.53,0.17361
5095.75,0.17503
5089.96,0.17573
5084.17,0.17572
5078.39,0.17707
5072.6,0.17612
5066.81,0.17530
5061.03,0.17596
5055.24,0.17930
5049.46,0.18106
5043.67,0.18085
5037.88,0.18050
5032.1,0.17929
5026.31,0.17859
5020.52,0.17674
5014.74,0.17574
5008.95,0.17615
5003.17,0.17515
4997.38,0.17028
4991.59,0.16643
4985.81,0.16373
4980.02,0.16149
4974.23,0.15960
4968.45,0.15662
4962.66,0.15514
4956.88,0.16092
4951.09,0.16660
4945.3,0.16880
4939.52,0.17237
4933.73,0.17214
4927.94,0.17123
4922.16,0.17163
4916.37,0.17217
4910.59,0.16982
4904.8,0.16939
4899.01,0.16778
4893.23,0.16631
4887.44,0.16543
4881.65,0.16405
4875.87,0.16268
4870.08,0.16220
4864.3,0.16286
4858.51,0.16341
4852.72,0.16575
4846.94,0.16902
4841.15,0.17239
4835.36,0.17403
4829.58,0.17650
4823.79,0.17735
4818.01,0.17873
4812.22,0.18084
4806.43,0.18352
4800.65,0.18518
4794.86,0.18560
4789.07,0.18788
4783.29,0.18771
4777.5,0.18816
4771.72,0.19105
4765.93,0.19390
4760.14,0.19716
4754.36,0.19862
4748.57,0.19989
4742.78,0.20243
4737,0.20189
4731.21,0.20344
4725.43,0.20592
4719.64,0.20797
4713.85,0.20916
4708.07,0.21107
4702.28,0.21079
4696.49,0.21096
4690.71,0.21037
4684.92,0.20881
4679.14,0.20599
4673.35,0.19988
4667.56,0.19699
4661.78,0.19936
4655.99,0.20404
4650.2,0.20807
4644.42,0.20859
4638.63,0.20911
4632.85,0.20926
4627.06,0.20796
4621.27,0.20647
4615.49,0.20624
4609.7,0.20448
4603.92,0.20300
4598.13,0.20286
4592.34,0.20193
4586.56,0.19976
4580.77,0.19852
4574.98,0.19627
4569.2,0.19314
4563.41,0.19123
4557.63,0.18680
4551.84,0.18257
4546.05,0.17765
4540.27,0.17435
4534.48,0.17091
4528.69,0.16803
4522.91,0.16508
4517.12,0.16129
4511.34,0.15643
4505.55,0.15227
4499.76,0.14820
4493.98,0.14418
4488.19,0.13994
4482.4,0.13577
4476.62,0.13095
4470.83,0.12803
4465.05,0.12329
4459.26,0.11881
4453.47,0.11390
4447.69,0.10847
4441.9,0.10376
4436.11,0.10048
4430.33,0.09688
4424.54,0.09272
4418.76,0.08889
4412.97,0.08403
4407.18,0.07955
4401.4,0.07562
4395.61,0.07292
4389.82,0.06823
4384.04,0.06616
4378.25,0.06524
4372.47,0.06389
4366.68,0.06261
4360.89,0.06019
4355.11,0.05938
4349.32,0.05786
4343.53,0.05600
4337.75,0.05528
4331.96,0.05467
4326.18,0.05294
4320.39,0.05262
4314.6,0.05474
4308.82,0.05693
4303.03,0.05907
4297.24,0.05993
4291.46,0.05931
4285.67,0.05946
4279.89,0.05850
4274.1,0.05761
4268.31,0.05718
4262.53,0.05652
4256.74,0.05507
4250.95,0.05364
4245.17,0.05502
4239.38,0.05703
4233.6,0.05645
4227.81,0.05683
4222.02,0.05631
4216.24,0.05612
4210.45,0.05634
4204.66,0.05604
4198.88,0.05513
4193.09,0.05510
4187.31,0.05533
4181.52,0.05477
4175.73,0.05596
4169.95,0.05525
4164.16,0.05531
4158.37,0.05505
4152.59,0.05556
4146.8,0.05564
4141.02,0.05560
4135.23,0.05589
4129.44,0.05577
4123.66,0.05583
4117.87,0.05513
4112.09,0.05534
4106.3,0.05596
4100.51,0.05575
4094.73,0.05548
4088.94,0.05507
4083.15,0.05625
4077.37,0.05636
4071.58,0.05700
4065.8,0.05722
4060.01,0.05817
4054.22,0.05758
4048.44,0.05778
4042.65,0.05881
4036.86,0.05900
4031.08,0.05864
4025.29,0.05785
4019.51,0.05884
4013.72,0.05980
4007.93,0.06097
4002.15,0.06169
3996.36,0.06181
3990.57,0.06082
3984.79,0.06096
3979,0.06034
3973.22,0.06108
3967.43,0.06149
3961.64,0.06100
3955.86,0.06068
3950.07,0.06042
3944.28,0.06071
3938.5,0.06044
3932.71,0.06039
3926.93,0.06006
3921.14,0.06031
3915.35,0.05918
3909.57,0.05916
3903.78,0.05980
3897.99,0.05918
3892.21,0.05894
3886.42,0.05899
3880.64,0.05846
3874.85,0.05953
3869.06,0.05944
3863.28,0.06045
3857.49,0.05996
3851.7,0.06083
3845.92,0.06068
3840.13,0.06051
3834.35,0.05991
3828.56,0.05981
3822.77,0.05995
3816.99,0.06009
3811.2,0.05983
3805.41,0.06098
3799.63,0.06186
3793.84,0.06087
3788.06,0.06218
3782.27,0.06206
3776.48,0.06215
3770.7,0.06218
3764.91,0.06298
3759.12,0.06393
3753.34,0.06419
3747.55,0.06343
3741.77,0.06326
3735.98,0.06373
3730.19,0.06302
3724.41,0.06281
3718.62,0.06259
3712.83,0.06221
3707.05,0.06054
3701.26,0.05946
3695.48,0.05831
3689.69,0.05823
3683.9,0.05908
3678.12,0.05967
3672.33,0.05931
3666.54,0.05851
3660.76,0.05886
3654.97,0.05782
3649.19,0.05689
3643.4,0.05621
3637.61,0.05720
3631.83,0.05790
3626.04,0.05863
3620.25,0.05808
3614.47,0.05619
3608.68,0.05540
3602.9,0.05421
3597.11,0.05653
3591.32,0.05892
3585.54,0.06033
3579.75,0.06213
3573.97,0.06258
3568.18,0.06307
3562.39,0.06399
3556.61,0.06551
3550.82,0.06579
3545.03,0.06596
3539.25,0.06617
3533.46,0.06535
3527.68,0.06597
3521.89,0.06613
3516.1,0.06563
3510.32,0.06476
3504.53,0.06487
3498.74,0.06460
3492.96,0.06421
3487.17,0.06356
3481.39,0.06325
3475.6,0.06291
3469.81,0.06286
3464.03,0.06156
3458.24,0.06140
3452.45,0.06169
3446.67,0.06033
3440.88,0.06070
3435.1,0.05961
3429.31,0.06026
3423.52,0.06034
3417.74,0.06039
3411.95,0.06060
3406.16,0.06060
3400.38,0.06004
3394.59,0.05992
3388.81,0.05902
3383.02,0.05949
3377.23,0.05840
3371.45,0.05806
3365.66,0.05888
3359.87,0.05924
3354.09,0.05942
3348.3,0.06070
3342.52,0.06059
3336.73,0.06114
3330.94,0.06133
3325.16,0.06147
3319.37,0.06133
3313.58,0.06183
3307.8,0.06137
3302.01,0.06253
3296.23,0.06230
3290.44,0.06236
3284.65,0.06246
3278.87,0.06188
3273.08,0.06204
3267.29,0.06314
3261.51,0.06239
3255.72,0.06279
3249.94,0.06286
3244.15,0.06275
3238.36,0.06219
3232.58,0.06271
3226.79,0.06213
3221,0.06117
3215.22,0.06151
3209.43,0.06142
3203.65,0.06010
3197.86,0.05970
3192.07,0.05978
3186.29,0.05953
3180.5,0.05881
3174.71,0.05820
3168.93,0.05888
3163.14,0.05855
3157.36,0.05795
3151.57,0.05760
3145.78,0.05715
3140,0.05633
3134.21,0.05642
3128.42,0.05594
3122.64,0.05434
3116.85,0.05359
3111.07,0.05338
3105.28,0.05279
3099.49,0.05211
3093.71,0.05169
3087.92,0.05096
3082.14,0.05030
3076.35,0.05020
3070.56,0.04998
3064.78,0.04985
3058.99,0.04919
3053.2,0.04907
3047.42,0.04933
3041.63,0.04878
3035.85,0.04881
3030.06,0.04876
3024.27,0.04764
3018.49,0.04828
3012.7,0.04774
3006.91,0.04738
3001.13,0.04748
2995.34,0.04648
2989.56,0.04620
2983.77,0.04594
2977.98,0.04492
2972.2,0.04425
2966.41,0.04295
2960.62,0.04236
2954.84,0.04149
2949.05,0.03952
2943.27,0.03674
2937.48,0.03437
2931.69,0.03309
2925.91,0.03794
2920.12,0.06054
2914.33,0.08063
2908.55,0.06958
2902.76,0.06319
2896.98,0.06060
2891.19,0.05816
2885.4,0.05747
2879.62,0.05593
2873.83,0.05400
2868.04,0.05191
2862.26,0.04848
2856.47,0.04551
2850.69,0.05664
2844.9,0.07114
2839.11,0.06558
2833.33,0.06219
2827.54,0.05994
2821.75,0.05903
2815.97,0.05848
2810.18,0.05713
2804.4,0.05714
2798.61,0.05689
2792.82,0.05652
2787.04,0.05632
2781.25,0.05619
2775.46,0.05574
2769.68,0.05542
2763.89,0.05550
2758.11,0.05562
2752.32,0.05532
2746.53,0.05509
2740.75,0.05499
2734.96,0.05510
2729.17,0.05474
2723.39,0.05481
2717.6,0.05494
2711.82,0.05474
2706.03,0.05509
2700.24,0.05438
2694.46,0.05461
2688.67,0.05448
2682.88,0.05416
2677.1,0.05438
2671.31,0.05403
2665.53,0.05400
2659.74,0.05399
2653.95,0.05410
2648.17,0.05437
2642.38,0.05430
2636.59,0.05374
2630.81,0.05422
2625.02,0.05397
2619.24,0.05390
2613.45,0.05370
2607.66,0.05397
2601.88,0.05403
2596.09,0.05410
2590.3,0.05424
2584.52,0.05453
2578.73,0.05425
2572.95,0.05390
2567.16,0.05412
2561.37,0.05417
2555.59,0.05472
2549.8,0.05445
2544.02,0.05453
2538.23,0.05490
2532.44,0.05468
2526.66,0.05451
2520.87,0.05474
2515.08,0.05473
2509.3,0.05537
2503.51,0.05540
2497.73,0.05566
2491.94,0.05566
2486.15,0.05577
2480.37,0.05617
2474.58,0.05561
2468.79,0.05704
2463.01,0.05850
2457.22,0.05949
2451.44,0.05985
2445.65,0.05947
2439.86,0.05912
2434.08,0.05867
2428.29,0.05773
2422.5,0.05654
2416.72,0.05574
2410.93,0.05611
2405.15,0.05711
2399.36,0.05789
2393.57,0.05783
2387.79,0.05839
2382,0.05803
2376.21,0.05815
2370.43,0.05727
2364.64,0.05673
2358.86,0.05562
2353.07,0.05422
2347.28,0.05383
2341.5,0.05369
2335.71,0.05402
2329.92,0.05394
2324.14,0.05358
2318.35,0.05378
2312.57,0.05412
2306.78,0.05427
2300.99,0.05467
2295.21,0.05481
2289.42,0.05513
2283.63,0.05541
2277.85,0.05533
2272.06,0.05571
2266.28,0.05769
2260.49,0.05882
2254.7,0.05888
2248.92,0.05830
2243.13,0.05747
2237.34,0.06088
2231.56,0.06552
2225.77,0.06463
2219.99,0.06375
2214.2,0.06614
2208.41,0.06660
2202.63,0.06648
2196.84,0.06562
2191.05,0.06511
2185.27,0.06502
2179.48,0.06457
2173.7,0.06462
2167.91,0.06373
2162.12,0.06188
2156.34,0.05961
2150.55,0.05927
2144.76,0.05930
2138.98,0.06164
2133.19,0.06569
2127.41,0.06964
2121.62,0.07227
2115.83,0.07279
2110.05,0.07297
2104.26,0.07299
2098.47,0.07311
2092.69,0.07258
2086.9,0.07093
2081.12,0.06968
2075.33,0.06817
2069.54,0.06603
2063.76,0.06400
2057.97,0.06239
2052.19,0.06023
2046.4,0.05830
2040.61,0.05652
2034.83,0.05543
2029.04,0.05473
2023.25,0.05391
2017.47,0.05366
2011.68,0.05539
2005.9,0.06049
2000.11,0.06651
1994.32,0.07074
1988.54,0.07277
1982.75,0.07349
1976.96,0.07339
1971.18,0.07232
1965.39,0.06948
1959.61,0.06746
1953.82,0.06810
1948.03,0.06823
1942.25,0.06770
1936.46,0.06661
1930.67,0.06538
1924.89,0.06399
1919.1,0.06200
1913.32,0.05956
1907.53,0.05721
1901.74,0.05499
1895.96,0.05439
1890.17,0.05731
1884.38,0.06627
1878.6,0.07445
1872.81,0.08055
1867.03,0.08513
1861.24,0.08881
1855.45,0.09144
1849.67,0.09305
1843.88,0.09276
1838.09,0.09008
1832.31,0.08709
1826.52,0.07751
1820.74,0.06712
1814.95,0.06814
1809.16,0.07175
1803.38,0.07304
1797.59,0.07250
1791.8,0.07359
1786.02,0.07573
1780.23,0.07616
1774.45,0.07483
1768.66,0.07233
1762.87,0.06955
1757.09,0.06487
1751.3,0.05943
1745.51,0.05648
1739.73,0.05569
1733.94,0.05877
1728.16,0.05997
1722.37,0.06060
1716.58,0.06062
1710.8,0.06105
1705.01,0.06154
1699.22,0.06172
1693.44,0.06138
1687.65,0.06123
1681.87,0.06059
1676.08,0.05990
1670.29,0.05878
1664.51,0.05788
1658.72,0.05733
1652.93,0.05659
1647.15,0.05591
1641.36,0.05448
1635.58,0.05387
1629.79,0.05387
1624,0.05419
1618.22,0.05397
1612.43,0.05371
1606.64,0.05339
1600.86,0.05352
1595.07,0.05344
1589.29,0.05308
1583.5,0.05312
1577.71,0.05345
1571.93,0.05399
1566.14,0.05366
1560.35,0.05310
1554.57,0.05211
1548.78,0.05250
1543,0.05254
1537.21,0.05183
1531.42,0.05221
1525.64,0.05209
1519.85,0.05148
1514.07,0.05161
1508.28,0.05169
1502.49,0.05150
1496.71,0.05128
1490.92,0.05130
1485.13,0.05020
1479.35,0.04838
1473.56,0.04934
1467.78,0.05285
1461.99,0.05493
1456.2,0.05597
1450.42,0.05492
1444.63,0.05433
1438.84,0.05447
1433.06,0.05385
1427.27,0.05423
1421.49,0.05446
1415.7,0.05426
1409.91,0.05416
1404.13,0.05372
1398.34,0.05379
1392.55,0.05372
1386.77,0.05329
1380.98,0.05277
1375.2,0.05315
1369.41,0.05339
1363.62,0.05363
1357.84,0.05312
1352.05,0.05337
1346.26,0.05332
1340.48,0.05328
1334.69,0.05295
1328.91,0.05306
1323.12,0.05326
1317.33,0.05301
1311.55,0.05273
1305.76,0.05307
1299.97,0.05301
1294.19,0.05313
1288.4,0.05300
1282.62,0.05292
1276.83,0.05307
1271.04,0.05344
1265.26,0.05339
1259.47,0.05308
1253.68,0.05348
1247.9,0.05344
1242.11,0.05326
1236.33,0.05363
1230.54,0.05304
1224.75,0.05311
1218.97,0.05324
1213.18,0.05327
1207.39,0.05324
1201.61,0.05295
1195.82,0.05292
1190.04,0.05292
1184.25,0.05279
1178.46,0.05277
1172.68,0.05265
1166.89,0.05298
1161.1,0.05325
1155.32,0.05315
1149.53,0.05259
1143.75,0.05246
1137.96,0.05266
1132.17,0.05283
1126.39,0.05288
1120.6,0.05253
1114.81,0.05283
1109.03,0.05271
1103.24,0.05213
1097.46,0.05191
1091.67,0.05328
1085.88,0.05257
1080.1,0.05289
1074.31,0.05254
1068.52,0.05315
1062.74,0.05262
1056.95,0.05315
1051.17,0.05386
1045.38,0.05338
1039.59,0.05321
1033.81,0.05287
1028.02,0.05342
1022.24,0.05377
1016.45,0.05458
1010.66,0.05388
1004.88,0.05356
999.09,0.05310
993.304,0.05368
987.518,0.05360
981.731,0.05320
975.945,0.05348
970.159,0.05321
964.373,0.05356
958.586,0.05361
952.8,0.05405
947.014,0.05376
941.228,0.05380
935.441,0.05406
929.655,0.05296
923.869,0.05329
918.083,0.05327
912.297,0.05292
906.51,0.05266
900.724,0.05276
894.938,0.05296
889.152,0.05291
883.365,0.05312
877.579,0.05283
871.793,0.05343
866.007,0.05273
860.22,0.05280
854.434,0.05243
848.648,0.05270
842.862,0.05249
837.075,0.05297
831.289,0.05272
825.503,0.05259
819.717,0.05256
813.931,0.05185
808.144,0.05291
802.358,0.05273
796.572,0.05276
790.786,0.05228
784.999,0.05324
779.213,0.05274
773.427,0.05254
767.641,0.05200
761.854,0.05174
756.068,0.05126
750.282,0.05148
744.496,0.05086
738.709,0.04971
732.923,0.04729
727.137,0.05202
721.351,0.05154
715.565,0.05883
709.778,0.05642
703.992,0.05520
698.206,0.05491
692.42,0.05457
686.633,0.05373
680.847,0.05413
675.061,0.05360
669.275,0.05353
663.488,0.05362
657.702,0.05336
651.916,0.05376
646.13,0.05411
640.343,0.05380
634.557,0.05377
628.771,0.05164
622.985,0.05348
617.198,0.05282
611.412,0.05135
605.626,0.05158
599.84,0.05248