File: 01_Data/PEX_Pipe/FTIR/IS/PEX_Pipe_IS_S_221108_R1.dpt
7497.03,0.69059
7491.25,0.69487
7485.46,0.68654
7479.67,0.69655
7473.89,0.70180
7468.1,0.69754
7462.32,0.69268
7456.53,0.69442
7450.74,0.69339
7444.96,0.68136
7439.17,0.68764
7433.38,0.68110
7427.6,0.68657
7421.81,0.68361
7416.03,0.68195
7410.24,0.68704
7404.45,0.68238
7398.67,0.68178
7392.88,0.66951
7387.09,0.67944
7381.31,0.67286
7375.52,0.67161
7369.74,0.66445
7363.95,0.66806
7358.16,0.66480
7352.38,0.66434
7346.59,0.65519
7340.8,0.65311
7335.02,0.64223
7329.23,0.62910
7323.45,0.60522
7317.66,0.60875
7311.87,0.60449
7306.09,0.58908
7300.3,0.59583
7294.51,0.57809
7288.73,0.55654
7282.94,0.55329
7277.16,0.54660
7271.37,0.53054
7265.58,0.51513
7259.8,0.51567
7254.01,0.49790
7248.22,0.48224
7242.44,0.46407
7236.65,0.44983
7230.87,0.42572
7225.08,0.40864
7219.29,0.39576
7213.51,0.38864
7207.72,0.37993
7201.93,0.35308
7196.15,0.33462
7190.36,0.31333
7184.58,0.29188
7178.79,0.26722
7173,0.25955
7167.22,0.27160
7161.43,0.31126
7155.65,0.33077
7149.86,0.34349
7144.07,0.35995
7138.29,0.36232
7132.5,0.36840
7126.71,0.37330
7120.93,0.36569
7115.14,0.36065
7109.36,0.34205
7103.57,0.34225
7097.78,0.32811
7092,0.33155
7086.21,0.32913
7080.42,0.31715
7074.64,0.29911
7068.85,0.29264
7063.07,0.28240
7057.28,0.29410
7051.49,0.30639
7045.71,0.30394
7039.92,0.30588
7034.13,0.30753
7028.35,0.30169
7022.56,0.30385
7016.78,0.30606
7010.99,0.30869
7005.2,0.31252
6999.42,0.31430
6993.63,0.31034
6987.84,0.31457
6982.06,0.31351
6976.27,0.31617
6970.49,0.31892
6964.7,0.31536
6958.91,0.31379
6953.13,0.31503
6947.34,0.31982
6941.55,0.32435
6935.77,0.33794
6929.98,0.34184
6924.2,0.34559
6918.41,0.35130
6912.62,0.35587
6906.84,0.35465
6901.05,0.35931
6895.26,0.36326
6889.48,0.36732
6883.69,0.37235
6877.91,0.37432
6872.12,0.38003
6866.33,0.38426
6860.55,0.38568
6854.76,0.38617
6848.97,0.39340
6843.19,0.39526
6837.4,0.39332
6831.62,0.40140
6825.83,0.40788
6820.04,0.41520
6814.26,0.42568
6808.47,0.42533
6802.68,0.43239
6796.9,0.44492
6791.11,0.44357
6785.33,0.45820
6779.54,0.46192
6773.75,0.45738
6767.97,0.46465
6762.18,0.46762
6756.39,0.47442
6750.61,0.47455
6744.82,0.47473
6739.04,0.48085
6733.25,0.48084
6727.46,0.48317
6721.68,0.49332
6715.89,0.49328
6710.1,0.49733
6704.32,0.49433
6698.53,0.50262
6692.75,0.50372
6686.96,0.50331
6681.17,0.50566
6675.39,0.50870
6669.6,0.51047
6663.82,0.51568
6658.03,0.51878
6652.24,0.51791
6646.46,0.51955
6640.67,0.52203
6634.88,0.51949
6629.1,0.51834
6623.31,0.52332
6617.53,0.52258
6611.74,0.52328
6605.95,0.51816
6600.17,0.51441
6594.38,0.51952
6588.59,0.51804
6582.81,0.51732
6577.02,0.51878
6571.24,0.51684
6565.45,0.51567
6559.66,0.51355
6553.88,0.51108
6548.09,0.50713
6542.3,0.50687
6536.52,0.50323
6530.73,0.50890
6524.95,0.50359
6519.16,0.49397
6513.37,0.49628
6507.59,0.48870
6501.8,0.48584
6496.01,0.47203
6490.23,0.46463
6484.44,0.46539
6478.66,0.46966
6472.87,0.48929
6467.08,0.50392
6461.3,0.51754
6455.51,0.52507
6449.72,0.52935
6443.94,0.53598
6438.15,0.53448
6432.37,0.53917
6426.58,0.54646
6420.79,0.54283
6415.01,0.54393
6409.22,0.55073
6403.43,0.55311
6397.65,0.55658
6391.86,0.55948
6386.08,0.55897
6380.29,0.56221
6374.5,0.56448
6368.72,0.56113
6362.93,0.56649
6357.14,0.56814
6351.36,0.56807
6345.57,0.57306
6339.79,0.57258
6334,0.57218
6328.21,0.57579
6322.43,0.57271
6316.64,0.57379
6310.85,0.57391
6305.07,0.57322
6299.28,0.57689
6293.5,0.57291
6287.71,0.57164
6281.92,0.57702
6276.14,0.57523
6270.35,0.57282
6264.56,0.57303
6258.78,0.57346
6252.99,0.57561
6247.21,0.57425
6241.42,0.57611
6235.63,0.57616
6229.85,0.57366
6224.06,0.57505
6218.27,0.57108
6212.49,0.57400
6206.7,0.57272
6200.92,0.57061
6195.13,0.56946
6189.34,0.56957
6183.56,0.56777
6177.77,0.56531
6171.98,0.56528
6166.2,0.56343
6160.41,0.56398
6154.63,0.56259
6148.84,0.55970
6143.05,0.56271
6137.27,0.55606
6131.48,0.55482
6125.7,0.55193
6119.91,0.55136
6114.12,0.55125
6108.34,0.54595
6102.55,0.54625
6096.76,0.54426
6090.98,0.53868
6085.19,0.53193
6079.41,0.52956
6073.62,0.53267
6067.83,0.52686
6062.05,0.52192
6056.26,0.52253
6050.47,0.51836
6044.69,0.51230
6038.9,0.50924
6033.12,0.50389
6027.33,0.49464
6021.54,0.48628
6015.76,0.48134
6009.97,0.47277
6004.18,0.46409
5998.4,0.45660
5992.61,0.44620
5986.83,0.43982
5981.04,0.42786
5975.25,0.41805
5969.47,0.40486
5963.68,0.39188
5957.89,0.37648
5952.11,0.36709
5946.32,0.35954
5940.54,0.35007
5934.75,0.34095
5928.96,0.33030
5923.18,0.31983
5917.39,0.30629
5911.6,0.29575
5905.82,0.28470
5900.03,0.27818
5894.25,0.26261
5888.46,0.25342
5882.67,0.23825
5876.89,0.21984
5871.1,0.19948
5865.31,0.18184
5859.53,0.16229
5853.74,0.14471
5847.96,0.13272
5842.17,0.12260
5836.38,0.11879
5830.6,0.11339
5824.81,0.10655
5819.02,0.10098
5813.24,0.09770
5807.45,0.09363
5801.67,0.08816
5795.88,0.08262
5790.09,0.08249
5784.31,0.07595
5778.52,0.07160
5772.73,0.07190
5766.95,0.07677
5761.16,0.08255
5755.38,0.08986
5749.59,0.09673
5743.8,0.10476
5738.02,0.10759
5732.23,0.11020
5726.44,0.11957
5720.66,0.12947
5714.87,0.13493
5709.09,0.13144
5703.3,0.12696
5697.51,0.11935
5691.73,0.11574
5685.94,0.11185
5680.15,0.10531
5674.37,0.09790
5668.58,0.09273
5662.8,0.09213
5657.01,0.09720
5651.22,0.10812
5645.44,0.11733
5639.65,0.12299
5633.87,0.12751
5628.08,0.13084
5622.29,0.13583
5616.51,0.13895
5610.72,0.14128
5604.93,0.14349
5599.15,0.14560
5593.36,0.14815
5587.58,0.15046
5581.79,0.14618
5576,0.14126
5570.22,0.13982
5564.43,0.13694
5558.64,0.13427
5552.86,0.13361
5547.07,0.13483
5541.29,0.13449
5535.5,0.13578
5529.71,0.13681
5523.93,0.13771
5518.14,0.13539
5512.35,0.13396
5506.57,0.13420
5500.78,0.13225
5495,0.13073
5489.21,0.13148
5483.42,0.13249
5477.64,0.13693
5471.85,0.13857
5466.06,0.14067
5460.28,0.13943
5454.49,0.14085
5448.71,0.14295
5442.92,0.14250
5437.13,0.14341
5431.35,0.14421
5425.56,0.14397
5419.77,0.14378
5413.99,0.15061
5408.2,0.15444
5402.42,0.15907
5396.63,0.16222
5390.84,0.16458
5385.06,0.16453
5379.27,0.16654
5373.48,0.16708
5367.7,0.17031
5361.91,0.17369
5356.13,0.17650
5350.34,0.18005
5344.55,0.18402
5338.77,0.18721
5332.98,0.18958
5327.19,0.18991
5321.41,0.18767
5315.62,0.18468
5309.84,0.18105
5304.05,0.18039
5298.26,0.18196
5292.48,0.18341
5286.69,0.18357
5280.9,0.18276
5275.12,0.18220
5269.33,0.18152
5263.55,0.18101
5257.76,0.18144
5251.97,0.17947
5246.19,0.17924
5240.4,0.17654
5234.61,0.17566
5228.83,0.17502
5223.04,0.17432
5217.26,0.17268
5211.47,0.17244
5205.68,0.17376
5199.9,0.17230
5194.11,0.17201
5188.32,0.17173
5182.54,0.17230
5176.75,0.17184
5170.97,0.17271
5165.18,0.17339
5159.39,0.17196
5153.61,0.17319
5147.82,0.17445
5142.03,0.17663
5136.25,0.17752
5130.46,0.17626
5124.68,0.17592
5118.89,0.17538
5113.1,0.17399
5107.32,0.17265
5101.53,0.17350
5095.75,0.17277
5089.96,0.17419
5084.17,0.17346
5078.39,0.17619
5072.6,0.17554
5066.81,0.17592
5061.03,0.17704
5055.24,0.17746
5049.46,0.18101
5043.67,0.17991
5037.88,0.17929
5032.1,0.17871
5026.31,0.17672
5020.52,0.17573
5014.74,0.17583
5008.95,0.17655
5003.17,0.17453
4997.38,0.16921
4991.59,0.16630
4985.81,0.16358
4980.02,0.16037
4974.23,0.15826
4968.45,0.15586
4962.66,0.15553
4956.88,0.15948
4951.09,0.16563
4945.3,0.16811
4939.52,0.17030
4933.73,0.17120
4927.94,0.17052
4922.16,0.16968
4916.37,0.16975
4910.59,0.17008
4904.8,0.16966
4899.01,0.16765
4893.23,0.16649
4887.44,0.16607
4881.65,0.16436
4875.87,0.16125
4870.08,0.16125
4864.3,0.16197
4858.51,0.16278
4852.72,0.16581
4846.94,0.16810
4841.15,0.17172
4835.36,0.17279
4829.58,0.17453
4823.79,0.17696
4818.01,0.17880
4812.22,0.18070
4806.43,0.18288
4800.65,0.18416
4794.86,0.18477
4789.07,0.18629
4783.29,0.18691
4777.5,0.18903
4771.72,0.19124
4765.93,0.19407
4760.14,0.19585
4754.36,0.19748
4748.57,0.19977
4742.78,0.20051
4737,0.20182
4731.21,0.20202
4725.43,0.20401
4719.64,0.20733
4713.85,0.20783
4708.07,0.20978
4702.28,0.20934
4696.49,0.21026
4690.71,0.20963
4684.92,0.20809
4679.14,0.20510
4673.35,0.19965
4667.56,0.19604
4661.78,0.19885
4655.99,0.20324
4650.2,0.20732
4644.42,0.20746
4638.63,0.20843
4632.85,0.20712
4627.06,0.20741
4621.27,0.20512
4615.49,0.20445
4609.7,0.20391
4603.92,0.20295
4598.13,0.20197
4592.34,0.20123
4586.56,0.19992
4580.77,0.19780
4574.98,0.19497
4569.2,0.19324
4563.41,0.18934
4557.63,0.18609
4551.84,0.18228
4546.05,0.17749
4540.27,0.17403
4534.48,0.17041
4528.69,0.16769
4522.91,0.16390
4517.12,0.15949
4511.34,0.15636
4505.55,0.15192
4499.76,0.14702
4493.98,0.14250
4488.19,0.13906
4482.4,0.13512
4476.62,0.13062
4470.83,0.12675
4465.05,0.12383
4459.26,0.11810
4453.47,0.11321
4447.69,0.10849
4441.9,0.10351
4436.11,0.10039
4430.33,0.09565
4424.54,0.09284
4418.76,0.08940
4412.97,0.08453
4407.18,0.07910
4401.4,0.07549
4395.61,0.07148
4389.82,0.06845
4384.04,0.06650
4378.25,0.06458
4372.47,0.06309
4366.68,0.06190
4360.89,0.05977
4355.11,0.05913
4349.32,0.05781
4343.53,0.05673
4337.75,0.05490
4331.96,0.05383
4326.18,0.05319
4320.39,0.05294
4314.6,0.05431
4308.82,0.05715
4303.03,0.05955
4297.24,0.06008
4291.46,0.05989
4285.67,0.05866
4279.89,0.05838
4274.1,0.05882
4268.31,0.05797
4262.53,0.05648
4256.74,0.05529
4250.95,0.05369
4245.17,0.05505
4239.38,0.05634
4233.6,0.05645
4227.81,0.05678
4222.02,0.05538
4216.24,0.05650
4210.45,0.05585
4204.66,0.05594
4198.88,0.05440
4193.09,0.05490
4187.31,0.05483
4181.52,0.05520
4175.73,0.05519
4169.95,0.05527
4164.16,0.05551
4158.37,0.05483
4152.59,0.05465
4146.8,0.05486
4141.02,0.05571
4135.23,0.05548
4129.44,0.05541
4123.66,0.05514
4117.87,0.05489
4112.09,0.05551
4106.3,0.05485
4100.51,0.05488
4094.73,0.05605
4088.94,0.05539
4083.15,0.05626
4077.37,0.05689
4071.58,0.05684
4065.8,0.05765
4060.01,0.05780
4054.22,0.05800
4048.44,0.05845
4042.65,0.05826
4036.86,0.05805
4031.08,0.05823
4025.29,0.05775
4019.51,0.05844
4013.72,0.05997
4007.93,0.06123
4002.15,0.06070
3996.36,0.06061
3990.57,0.06067
3984.79,0.06076
3979,0.05994
3973.22,0.06047
3967.43,0.06029
3961.64,0.06079
3955.86,0.06025
3950.07,0.06043
3944.28,0.06079
3938.5,0.06053
3932.71,0.05997
3926.93,0.05963
3921.14,0.05951
3915.35,0.06001
3909.57,0.05931
3903.78,0.05933
3897.99,0.05920
3892.21,0.05898
3886.42,0.05941
3880.64,0.05900
3874.85,0.05847
3869.06,0.05937
3863.28,0.05997
3857.49,0.06014
3851.7,0.05968
3845.92,0.06012
3840.13,0.06092
3834.35,0.05957
3828.56,0.06016
3822.77,0.05993
3816.99,0.06000
3811.2,0.06026
3805.41,0.06046
3799.63,0.06127
3793.84,0.06145
3788.06,0.06146
3782.27,0.06208
3776.48,0.06260
3770.7,0.06301
3764.91,0.06319
3759.12,0.06314
3753.34,0.06367
3747.55,0.06313
3741.77,0.06337
3735.98,0.06341
3730.19,0.06316
3724.41,0.06311
3718.62,0.06235
3712.83,0.06195
3707.05,0.06089
3701.26,0.05955
3695.48,0.05800
3689.69,0.05801
3683.9,0.05920
3678.12,0.05886
3672.33,0.05834
3666.54,0.05913
3660.76,0.05868
3654.97,0.05734
3649.19,0.05742
3643.4,0.05635
3637.61,0.05712
3631.83,0.05823
3626.04,0.05841
3620.25,0.05705
3614.47,0.05576
3608.68,0.05473
3602.9,0.05420
3597.11,0.05664
3591.32,0.05906
3585.54,0.06079
3579.75,0.06156
3573.97,0.06183
3568.18,0.06312
3562.39,0.06408
3556.61,0.06469
3550.82,0.06552
3545.03,0.06549
3539.25,0.06582
3533.46,0.06588
3527.68,0.06551
3521.89,0.06509
3516.1,0.06525
3510.32,0.06438
3504.53,0.06456
3498.74,0.06433
3492.96,0.06400
3487.17,0.06342
3481.39,0.06352
3475.6,0.06326
3469.81,0.06226
3464.03,0.06193
3458.24,0.06115
3452.45,0.06080
3446.67,0.06055
3440.88,0.06035
3435.1,0.05934
3429.31,0.05993
3423.52,0.05986
3417.74,0.06044
3411.95,0.06021
3406.16,0.05955
3400.38,0.05948
3394.59,0.05890
3388.81,0.05910
3383.02,0.05914
3377.23,0.05815
3371.45,0.05903
3365.66,0.05887
3359.87,0.05889
3354.09,0.06000
3348.3,0.05978
3342.52,0.06006
3336.73,0.05997
3330.94,0.06074
3325.16,0.06085
3319.37,0.06145
3313.58,0.06128
3307.8,0.06190
3302.01,0.06240
3296.23,0.06247
3290.44,0.06180
3284.65,0.06183
3278.87,0.06227
3273.08,0.06230
3267.29,0.06294
3261.51,0.06246
3255.72,0.06147
3249.94,0.06138
3244.15,0.06203
3238.36,0.06143
3232.58,0.06169
3226.79,0.06130
3221,0.06239
3215.22,0.06163
3209.43,0.06121
3203.65,0.06055
3197.86,0.06026
3192.07,0.05953
3186.29,0.05947
3180.5,0.05942
3174.71,0.05852
3168.93,0.05852
3163.14,0.05787
3157.36,0.05719
3151.57,0.05627
3145.78,0.05618
3140,0.05608
3134.21,0.05581
3128.42,0.05479
3122.64,0.05515
3116.85,0.05431
3111.07,0.05299
3105.28,0.05289
3099.49,0.05222
3093.71,0.05160
3087.92,0.05080
3082.14,0.05001
3076.35,0.05011
3070.56,0.04987
3064.78,0.05012
3058.99,0.04969
3053.2,0.04971
3047.42,0.04914
3041.63,0.04859
3035.85,0.04849
3030.06,0.04787
3024.27,0.04840
3018.49,0.04814
3012.7,0.04775
3006.91,0.04740
3001.13,0.04706
2995.34,0.04666
2989.56,0.04594
2983.77,0.04552
2977.98,0.04434
2972.2,0.04388
2966.41,0.04244
2960.62,0.04209
2954.84,0.04145
2949.05,0.03902
2943.27,0.03681
2937.48,0.03400
2931.69,0.03291
2925.91,0.03786
2920.12,0.06038
2914.33,0.07978
2908.55,0.06964
2902.76,0.06343
2896.98,0.06029
2891.19,0.05846
2885.4,0.05722
2879.62,0.05608
2873.83,0.05366
2868.04,0.05150
2862.26,0.04803
2856.47,0.04501
2850.69,0.05647
2844.9,0.07107
2839.11,0.06509
2833.33,0.06189
2827.54,0.06032
2821.75,0.05920
2815.97,0.05814
2810.18,0.05758
2804.4,0.05710
2798.61,0.05662
2792.82,0.05664
2787.04,0.05618
2781.25,0.05604
2775.46,0.05511
2769.68,0.05502
2763.89,0.05497
2758.11,0.05531
2752.32,0.05558
2746.53,0.05519
2740.75,0.05470
2734.96,0.05460
2729.17,0.05497
2723.39,0.05449
2717.6,0.05438
2711.82,0.05431
2706.03,0.05460
2700.24,0.05438
2694.46,0.05463
2688.67,0.05406
2682.88,0.05442
2677.1,0.05432
2671.31,0.05393
2665.53,0.05413
2659.74,0.05380
2653.95,0.05371
2648.17,0.05405
2642.38,0.05356
2636.59,0.05419
2630.81,0.05362
2625.02,0.05399
2619.24,0.05352
2613.45,0.05426
2607.66,0.05427
2601.88,0.05414
2596.09,0.05409
2590.3,0.05408
2584.52,0.05401
2578.73,0.05411
2572.95,0.05410
2567.16,0.05389
2561.37,0.05458
2555.59,0.05418
2549.8,0.05390
2544.02,0.05413
2538.23,0.05451
2532.44,0.05459
2526.66,0.05430
2520.87,0.05447
2515.08,0.05482
2509.3,0.05507
2503.51,0.05500
2497.73,0.05544
2491.94,0.05537
2486.15,0.05569
2480.37,0.05585
2474.58,0.05576
2468.79,0.05683
2463.01,0.05848
2457.22,0.05930
2451.44,0.05973
2445.65,0.05945
2439.86,0.05909
2434.08,0.05816
2428.29,0.05728
2422.5,0.05631
2416.72,0.05567
2410.93,0.05599
2405.15,0.05691
2399.36,0.05751
2393.57,0.05751
2387.79,0.05756
2382,0.05798
2376.21,0.05813
2370.43,0.05748
2364.64,0.05651
2358.86,0.05517
2353.07,0.05371
2347.28,0.05398
2341.5,0.05346
2335.71,0.05373
2329.92,0.05371
2324.14,0.05378
2318.35,0.05424
2312.57,0.05383
2306.78,0.05428
2300.99,0.05457
2295.21,0.05456
2289.42,0.05484
2283.63,0.05509
2277.85,0.05517
2272.06,0.05561
2266.28,0.05773
2260.49,0.05841
2254.7,0.05874
2248.92,0.05838
2243.13,0.05741
2237.34,0.06020
2231.56,0.06516
2225.77,0.06438
2219.99,0.06380
2214.2,0.06585
2208.41,0.06618
2202.63,0.06619
2196.84,0.06525
2191.05,0.06457
2185.27,0.06444
2179.48,0.06441
2173.7,0.06432
2167.91,0.06339
2162.12,0.06185
2156.34,0.05991
2150.55,0.05898
2144.76,0.05943
2138.98,0.06170
2133.19,0.06534
2127.41,0.06921
2121.62,0.07156
2115.83,0.07282
2110.05,0.07291
2104.26,0.07335
2098.47,0.07317
2092.69,0.07218
2086.9,0.07092
2081.12,0.06957
2075.33,0.06775
2069.54,0.06571
2063.76,0.06383
2057.97,0.06211
2052.19,0.06000
2046.4,0.05827
2040.61,0.05658
2034.83,0.05523
2029.04,0.05437
2023.25,0.05358
2017.47,0.05344
2011.68,0.05533
2005.9,0.06004
2000.11,0.06597
1994.32,0.07005
1988.54,0.07288
1982.75,0.07347
1976.96,0.07341
1971.18,0.07168
1965.39,0.06918
1959.61,0.06778
1953.82,0.06776
1948.03,0.06796
1942.25,0.06710
1936.46,0.06638
1930.67,0.06495
1924.89,0.06373
1919.1,0.06196
1913.32,0.05924
1907.53,0.05693
1901.74,0.05492
1895.96,0.05401
1890.17,0.05718
1884.38,0.06621
1878.6,0.07420
1872.81,0.08021
1867.03,0.08530
1861.24,0.08827
1855.45,0.09082
1849.67,0.09292
1843.88,0.09233
1838.09,0.08950
1832.31,0.08679
1826.52,0.07744
1820.74,0.06676
1814.95,0.06785
1809.16,0.07115
1803.38,0.07279
1797.59,0.07222
1791.8,0.07340
1786.02,0.07519
1780.23,0.07593
1774.45,0.07470
1768.66,0.07204
1762.87,0.06957
1757.09,0.06461
1751.3,0.05908
1745.51,0.05624
1739.73,0.05588
1733.94,0.05825
1728.16,0.05988
1722.37,0.05989
1716.58,0.06001
1710.8,0.06060
1705.01,0.06177
1699.22,0.06114
1693.44,0.06102
1687.65,0.06102
1681.87,0.06024
1676.08,0.05948
1670.29,0.05844
1664.51,0.05774
1658.72,0.05711
1652.93,0.05698
1647.15,0.05531
1641.36,0.05395
1635.58,0.05338
1629.79,0.05409
1624,0.05383
1618.22,0.05385
1612.43,0.05348
1606.64,0.05349
1600.86,0.05329
1595.07,0.05324
1589.29,0.05328
1583.5,0.05329
1577.71,0.05359
1571.93,0.05318
1566.14,0.05290
1560.35,0.05290
1554.57,0.05268
1548.78,0.05224
1543,0.05214
1537.21,0.05208
1531.42,0.05179
1525.64,0.05167
1519.85,0.05169
1514.07,0.05123
1508.28,0.05148
1502.49,0.05094
1496.71,0.05111
1490.92,0.05069
1485.13,0.05012
1479.35,0.04851
1473.56,0.04896
1467.78,0.05257
1461.99,0.05443
1456.2,0.05554
1450.42,0.05485
1444.63,0.05438
1438.84,0.05415
1433.06,0.05412
1427.27,0.05415
1421.49,0.05408
1415.7,0.05392
1409.91,0.05382
1404.13,0.05365
1398.34,0.05341
1392.55,0.05323
1386.77,0.05316
1380.98,0.05295
1375.2,0.05294
1369.41,0.05291
1363.62,0.05317
1357.84,0.05319
1352.05,0.05274
1346.26,0.05316
1340.48,0.05365
1334.69,0.05312
1328.91,0.05287
1323.12,0.05291
1317.33,0.05312
1311.55,0.05265
1305.76,0.05246
1299.97,0.05250
1294.19,0.05311
1288.4,0.05284
1282.62,0.05267
1276.83,0.05279
1271.04,0.05296
1265.26,0.05304
1259.47,0.05320
1253.68,0.05316
1247.9,0.05274
1242.11,0.05293
1236.33,0.05318
1230.54,0.05315
1224.75,0.05340
1218.97,0.05278
1213.18,0.05262
1207.39,0.05269
1201.61,0.05249
1195.82,0.05251
1190.04,0.05270
1184.25,0.05286
1178.46,0.05287
1172.68,0.05274
1166.89,0.05327
1161.1,0.05299
1155.32,0.05301
1149.53,0.05290
1143.75,0.05286
1137.96,0.05285
1132.17,0.05302
1126.39,0.05226
1120.6,0.05256
1114.81,0.05215
1109.03,0.05274
1103.24,0.05193
1097.46,0.05205
1091.67,0.05228
1085.88,0.05321
1080.1,0.05289
1074.31,0.05340
1068.52,0.05346
1062.74,0.05336
1056.95,0.05308
1051.17,0.05338
1045.38,0.05361
1039.59,0.05399
1033.81,0.05321
1028.02,0.05363
1022.24,0.05369
1016.45,0.05427
1010.66,0.05444
1004.88,0.05362
999.09,0.05343
993.304,0.05327
987.518,0.05345
981.731,0.05404
975.945,0.05374
970.159,0.05372
964.373,0.05308
958.586,0.05393
952.8,0.05455
947.014,0.05398
941.228,0.05328
935.441,0.05333
929.655,0.05397
923.869,0.05323
918.083,0.05296
912.297,0.05324
906.51,0.05281
900.724,0.05326
894.938,0.05326
889.152,0.05220
883.365,0.05287
877.579,0.05249
871.793,0.05263
866.007,0.05294
860.22,0.05253
854.434,0.05267
848.648,0.05332
842.862,0.05268
837.075,0.05274
831.289,0.05253
825.503,0.05207
819.717,0.05247
813.931,0.05212
808.144,0.05265
802.358,0.05229
796.572,0.05182
790.786,0.05171
784.999,0.05254
779.213,0.05243
773.427,0.05148
767.641,0.05146
761.854,0.05181
756.068,0.05096
750.282,0.05076
744.496,0.05071
738.709,0.04932
732.923,0.04700
727.137,0.05224
721.351,0.05126
715.565,0.05865
709.778,0.05620
703.992,0.05524
698.206,0.05460
692.42,0.05406
686.633,0.05465
680.847,0.05411
675.061,0.05337
669.275,0.05323
663.488,0.05397
657.702,0.05311
651.916,0.05324
646.13,0.05077
640.343,0.05279
634.557,0.05095
628.771,0.05227
622.985,0.05374
617.198,0.05180
611.412,0.05115
605.626,0.05243
599.84,0.05412