File: 01_Data/PEX_Pipe/FTIR/IS/PEX_Pipe_IS_S_221108_R8.dpt
7497.03,0.69855
7491.25,0.70620
7485.46,0.69966
7479.67,0.69065
7473.89,0.69519
7468.1,0.71225
7462.32,0.69920
7456.53,0.70833
7450.74,0.69836
7444.96,0.70173
7439.17,0.70137
7433.38,0.69571
7427.6,0.70087
7421.81,0.68977
7416.03,0.69419
7410.24,0.68245
7404.45,0.68115
7398.67,0.67110
7392.88,0.67788
7387.09,0.67220
7381.31,0.68224
7375.52,0.67398
7369.74,0.66719
7363.95,0.66334
7358.16,0.66904
7352.38,0.66636
7346.59,0.65700
7340.8,0.65676
7335.02,0.63767
7329.23,0.64182
7323.45,0.61829
7317.66,0.60792
7311.87,0.61255
7306.09,0.60650
7300.3,0.58843
7294.51,0.57885
7288.73,0.55931
7282.94,0.55556
7277.16,0.54566
7271.37,0.53202
7265.58,0.51966
7259.8,0.50375
7254.01,0.48933
7248.22,0.47702
7242.44,0.46153
7236.65,0.43855
7230.87,0.42541
7225.08,0.40991
7219.29,0.39787
7213.51,0.38689
7207.72,0.37362
7201.93,0.34858
7196.15,0.33300
7190.36,0.30846
7184.58,0.29584
7178.79,0.27057
7173,0.26642
7167.22,0.27343
7161.43,0.30624
7155.65,0.33819
7149.86,0.34809
7144.07,0.36440
7138.29,0.36484
7132.5,0.35955
7126.71,0.36878
7120.93,0.35967
7115.14,0.34909
7109.36,0.34747
7103.57,0.34697
7097.78,0.34387
7092,0.33056
7086.21,0.32332
7080.42,0.32007
7074.64,0.30488
7068.85,0.29556
7063.07,0.28803
7057.28,0.29383
7051.49,0.29977
7045.71,0.30803
7039.92,0.30585
7034.13,0.30807
7028.35,0.30263
7022.56,0.30149
7016.78,0.30893
7010.99,0.30798
7005.2,0.31618
6999.42,0.31908
6993.63,0.31961
6987.84,0.31776
6982.06,0.32202
6976.27,0.32104
6970.49,0.32079
6964.7,0.32105
6958.91,0.31772
6953.13,0.32279
6947.34,0.32418
6941.55,0.33064
6935.77,0.33368
6929.98,0.34430
6924.2,0.34731
6918.41,0.35050
6912.62,0.36413
6906.84,0.36219
6901.05,0.35692
6895.26,0.35963
6889.48,0.37087
6883.69,0.37654
6877.91,0.37930
6872.12,0.38152
6866.33,0.39047
6860.55,0.38927
6854.76,0.39188
6848.97,0.39164
6843.19,0.39241
6837.4,0.39927
6831.62,0.40338
6825.83,0.40384
6820.04,0.41536
6814.26,0.42556
6808.47,0.43197
6802.68,0.43247
6796.9,0.43811
6791.11,0.44407
6785.33,0.45165
6779.54,0.46082
6773.75,0.46416
6767.97,0.46826
6762.18,0.47427
6756.39,0.47472
6750.61,0.48187
6744.82,0.47641
6739.04,0.48598
6733.25,0.48749
6727.46,0.48701
6721.68,0.49437
6715.89,0.49608
6710.1,0.49591
6704.32,0.49701
6698.53,0.50028
6692.75,0.50652
6686.96,0.50742
6681.17,0.51093
6675.39,0.51380
6669.6,0.51618
6663.82,0.51249
6658.03,0.52199
6652.24,0.52374
6646.46,0.52241
6640.67,0.52310
6634.88,0.52981
6629.1,0.52209
6623.31,0.52376
6617.53,0.52047
6611.74,0.52316
6605.95,0.53048
6600.17,0.52662
6594.38,0.52560
6588.59,0.52232
6582.81,0.52550
6577.02,0.51991
6571.24,0.51974
6565.45,0.51569
6559.66,0.51759
6553.88,0.51671
6548.09,0.51472
6542.3,0.51244
6536.52,0.50521
6530.73,0.50816
6524.95,0.50486
6519.16,0.50531
6513.37,0.49424
6507.59,0.49137
6501.8,0.48359
6496.01,0.48386
6490.23,0.47361
6484.44,0.46997
6478.66,0.47379
6472.87,0.49116
6467.08,0.51049
6461.3,0.52197
6455.51,0.52828
6449.72,0.53495
6443.94,0.53917
6438.15,0.54404
6432.37,0.54457
6426.58,0.54500
6420.79,0.54746
6415.01,0.55323
6409.22,0.55769
6403.43,0.55918
6397.65,0.56589
6391.86,0.56447
6386.08,0.56152
6380.29,0.56047
6374.5,0.56053
6368.72,0.56905
6362.93,0.56852
6357.14,0.57486
6351.36,0.57432
6345.57,0.57517
6339.79,0.57447
6334,0.57601
6328.21,0.58364
6322.43,0.58111
6316.64,0.57817
6310.85,0.58199
6305.07,0.58062
6299.28,0.57801
6293.5,0.57741
6287.71,0.58119
6281.92,0.58307
6276.14,0.57829
6270.35,0.58249
6264.56,0.58050
6258.78,0.57986
6252.99,0.57883
6247.21,0.58201
6241.42,0.58230
6235.63,0.58132
6229.85,0.57991
6224.06,0.57896
6218.27,0.57655
6212.49,0.57840
6206.7,0.57718
6200.92,0.57967
6195.13,0.57660
6189.34,0.57417
6183.56,0.57510
6177.77,0.57161
6171.98,0.57181
6166.2,0.57005
6160.41,0.57006
6154.63,0.56578
6148.84,0.56662
6143.05,0.56505
6137.27,0.56412
6131.48,0.56170
6125.7,0.55948
6119.91,0.55898
6114.12,0.55530
6108.34,0.55367
6102.55,0.55085
6096.76,0.54785
6090.98,0.54345
6085.19,0.53814
6079.41,0.53815
6073.62,0.53291
6067.83,0.52985
6062.05,0.52960
6056.26,0.52684
6050.47,0.52144
6044.69,0.52021
6038.9,0.51178
6033.12,0.50457
6027.33,0.49961
6021.54,0.49370
6015.76,0.48793
6009.97,0.47937
6004.18,0.47028
5998.4,0.46465
5992.61,0.45302
5986.83,0.44251
5981.04,0.42859
5975.25,0.42121
5969.47,0.40609
5963.68,0.39520
5957.89,0.38131
5952.11,0.37043
5946.32,0.36000
5940.54,0.35182
5934.75,0.33936
5928.96,0.33090
5923.18,0.32037
5917.39,0.30742
5911.6,0.29880
5905.82,0.29029
5900.03,0.27898
5894.25,0.26890
5888.46,0.25702
5882.67,0.23845
5876.89,0.21992
5871.1,0.20287
5865.31,0.18453
5859.53,0.16566
5853.74,0.14643
5847.96,0.13180
5842.17,0.12240
5836.38,0.11779
5830.6,0.11305
5824.81,0.10697
5819.02,0.10118
5813.24,0.09794
5807.45,0.09591
5801.67,0.08871
5795.88,0.08414
5790.09,0.08135
5784.31,0.07747
5778.52,0.07506
5772.73,0.07241
5766.95,0.07674
5761.16,0.08391
5755.38,0.09016
5749.59,0.09783
5743.8,0.10696
5738.02,0.10867
5732.23,0.11242
5726.44,0.12075
5720.66,0.12980
5714.87,0.13473
5709.09,0.13475
5703.3,0.12571
5697.51,0.12058
5691.73,0.11658
5685.94,0.11003
5680.15,0.10389
5674.37,0.09893
5668.58,0.09124
5662.8,0.09140
5657.01,0.09804
5651.22,0.10906
5645.44,0.11833
5639.65,0.12534
5633.87,0.12865
5628.08,0.13221
5622.29,0.13413
5616.51,0.13877
5610.72,0.14175
5604.93,0.14702
5599.15,0.14915
5593.36,0.14750
5587.58,0.14849
5581.79,0.14810
5576,0.14249
5570.22,0.13881
5564.43,0.13666
5558.64,0.13644
5552.86,0.13548
5547.07,0.13343
5541.29,0.13462
5535.5,0.13505
5529.71,0.13820
5523.93,0.13773
5518.14,0.13621
5512.35,0.13498
5506.57,0.13493
5500.78,0.13426
5495,0.13337
5489.21,0.13313
5483.42,0.13418
5477.64,0.13750
5471.85,0.13978
5466.06,0.14026
5460.28,0.14140
5454.49,0.14149
5448.71,0.14178
5442.92,0.14394
5437.13,0.14443
5431.35,0.14365
5425.56,0.14451
5419.77,0.14536
5413.99,0.14913
5408.2,0.15429
5402.42,0.16103
5396.63,0.16330
5390.84,0.16418
5385.06,0.16849
5379.27,0.16878
5373.48,0.16889
5367.7,0.17255
5361.91,0.17436
5356.13,0.17801
5350.34,0.17909
5344.55,0.18440
5338.77,0.18677
5332.98,0.18835
5327.19,0.19038
5321.41,0.19017
5315.62,0.18356
5309.84,0.18176
5304.05,0.18219
5298.26,0.18328
5292.48,0.18642
5286.69,0.18603
5280.9,0.18334
5275.12,0.18427
5269.33,0.18488
5263.55,0.18259
5257.76,0.18246
5251.97,0.18227
5246.19,0.18150
5240.4,0.17915
5234.61,0.17686
5228.83,0.17826
5223.04,0.17630
5217.26,0.17546
5211.47,0.17357
5205.68,0.17601
5199.9,0.17499
5194.11,0.17446
5188.32,0.17463
5182.54,0.17287
5176.75,0.17310
5170.97,0.17409
5165.18,0.17459
5159.39,0.17418
5153.61,0.17419
5147.82,0.17521
5142.03,0.17720
5136.25,0.17862
5130.46,0.17901
5124.68,0.17804
5118.89,0.17651
5113.1,0.17679
5107.32,0.17639
5101.53,0.17578
5095.75,0.17574
5089.96,0.17581
5084.17,0.17694
5078.39,0.17709
5072.6,0.17781
5066.81,0.17772
5061.03,0.17839
5055.24,0.18098
5049.46,0.18200
5043.67,0.18157
5037.88,0.18177
5032.1,0.18117
5026.31,0.17952
5020.52,0.17810
5014.74,0.17729
5008.95,0.17668
5003.17,0.17505
4997.38,0.17068
4991.59,0.16894
4985.81,0.16483
4980.02,0.16359
4974.23,0.16040
4968.45,0.15718
4962.66,0.15633
4956.88,0.16158
4951.09,0.16705
4945.3,0.17111
4939.52,0.17137
4933.73,0.17150
4927.94,0.17230
4922.16,0.17100
4916.37,0.17225
4910.59,0.17214
4904.8,0.16954
4899.01,0.16909
4893.23,0.16847
4887.44,0.16626
4881.65,0.16430
4875.87,0.16406
4870.08,0.16321
4864.3,0.16273
4858.51,0.16340
4852.72,0.16711
4846.94,0.17038
4841.15,0.17309
4835.36,0.17477
4829.58,0.17577
4823.79,0.17657
4818.01,0.17847
4812.22,0.18159
4806.43,0.18496
4800.65,0.18627
4794.86,0.18720
4789.07,0.18820
4783.29,0.18781
4777.5,0.18907
4771.72,0.19173
4765.93,0.19452
4760.14,0.19818
4754.36,0.20004
4748.57,0.20047
4742.78,0.20027
4737,0.20199
4731.21,0.20392
4725.43,0.20609
4719.64,0.20868
4713.85,0.21112
4708.07,0.21196
4702.28,0.21204
4696.49,0.21162
4690.71,0.21240
4684.92,0.20936
4679.14,0.20731
4673.35,0.20150
4667.56,0.19771
4661.78,0.20015
4655.99,0.20535
4650.2,0.20840
4644.42,0.21065
4638.63,0.20958
4632.85,0.20933
4627.06,0.20965
4621.27,0.20661
4615.49,0.20652
4609.7,0.20647
4603.92,0.20549
4598.13,0.20422
4592.34,0.20290
4586.56,0.20040
4580.77,0.20007
4574.98,0.19765
4569.2,0.19526
4563.41,0.19264
4557.63,0.18655
4551.84,0.18362
4546.05,0.17974
4540.27,0.17531
4534.48,0.17250
4528.69,0.16889
4522.91,0.16503
4517.12,0.16113
4511.34,0.15661
4505.55,0.15246
4499.76,0.14823
4493.98,0.14365
4488.19,0.13991
4482.4,0.13561
4476.62,0.13220
4470.83,0.12857
4465.05,0.12349
4459.26,0.11810
4453.47,0.11420
4447.69,0.10930
4441.9,0.10498
4436.11,0.10118
4430.33,0.09748
4424.54,0.09354
4418.76,0.08903
4412.97,0.08467
4407.18,0.08009
4401.4,0.07560
4395.61,0.07196
4389.82,0.06881
4384.04,0.06582
4378.25,0.06489
4372.47,0.06376
4366.68,0.06267
4360.89,0.06038
4355.11,0.05922
4349.32,0.05754
4343.53,0.05568
4337.75,0.05507
4331.96,0.05514
4326.18,0.05280
4320.39,0.05304
4314.6,0.05600
4308.82,0.05804
4303.03,0.05956
4297.24,0.05878
4291.46,0.05937
4285.67,0.05945
4279.89,0.05919
4274.1,0.05872
4268.31,0.05773
4262.53,0.05673
4256.74,0.05430
4250.95,0.05415
4245.17,0.05493
4239.38,0.05693
4233.6,0.05677
4227.81,0.05679
4222.02,0.05589
4216.24,0.05689
4210.45,0.05594
4204.66,0.05599
4198.88,0.05510
4193.09,0.05510
4187.31,0.05537
4181.52,0.05501
4175.73,0.05520
4169.95,0.05522
4164.16,0.05545
4158.37,0.05538
4152.59,0.05547
4146.8,0.05557
4141.02,0.05537
4135.23,0.05585
4129.44,0.05517
4123.66,0.05492
4117.87,0.05519
4112.09,0.05597
4106.3,0.05596
4100.51,0.05563
4094.73,0.05567
4088.94,0.05593
4083.15,0.05640
4077.37,0.05686
4071.58,0.05693
4065.8,0.05809
4060.01,0.05858
4054.22,0.05834
4048.44,0.05751
4042.65,0.05785
4036.86,0.05903
4031.08,0.05882
4025.29,0.05922
4019.51,0.05799
4013.72,0.06013
4007.93,0.06148
4002.15,0.06174
3996.36,0.06162
3990.57,0.06132
3984.79,0.06085
3979,0.06037
3973.22,0.06000
3967.43,0.06111
3961.64,0.06104
3955.86,0.06181
3950.07,0.06115
3944.28,0.06070
3938.5,0.06051
3932.71,0.06028
3926.93,0.05978
3921.14,0.05952
3915.35,0.05976
3909.57,0.05960
3903.78,0.06012
3897.99,0.05976
3892.21,0.05947
3886.42,0.05983
3880.64,0.05945
3874.85,0.05924
3869.06,0.05959
3863.28,0.06086
3857.49,0.06097
3851.7,0.06085
3845.92,0.06072
3840.13,0.06066
3834.35,0.06028
3828.56,0.06055
3822.77,0.05942
3816.99,0.06006
3811.2,0.06023
3805.41,0.06114
3799.63,0.06188
3793.84,0.06201
3788.06,0.06184
3782.27,0.06303
3776.48,0.06266
3770.7,0.06264
3764.91,0.06284
3759.12,0.06310
3753.34,0.06334
3747.55,0.06355
3741.77,0.06422
3735.98,0.06374
3730.19,0.06312
3724.41,0.06332
3718.62,0.06239
3712.83,0.06231
3707.05,0.06144
3701.26,0.05979
3695.48,0.05874
3689.69,0.05908
3683.9,0.05919
3678.12,0.05945
3672.33,0.05983
3666.54,0.05939
3660.76,0.05857
3654.97,0.05816
3649.19,0.05779
3643.4,0.05657
3637.61,0.05777
3631.83,0.05882
3626.04,0.05796
3620.25,0.05709
3614.47,0.05686
3608.68,0.05552
3602.9,0.05498
3597.11,0.05671
3591.32,0.05917
3585.54,0.06078
3579.75,0.06164
3573.97,0.06290
3568.18,0.06405
3562.39,0.06447
3556.61,0.06485
3550.82,0.06562
3545.03,0.06639
3539.25,0.06634
3533.46,0.06614
3527.68,0.06585
3521.89,0.06560
3516.1,0.06493
3510.32,0.06507
3504.53,0.06466
3498.74,0.06464
3492.96,0.06505
3487.17,0.06393
3481.39,0.06378
3475.6,0.06284
3469.81,0.06239
3464.03,0.06170
3458.24,0.06174
3452.45,0.06131
3446.67,0.06106
3440.88,0.06051
3435.1,0.05955
3429.31,0.06083
3423.52,0.05971
3417.74,0.06065
3411.95,0.06103
3406.16,0.06083
3400.38,0.06046
3394.59,0.05992
3388.81,0.05949
3383.02,0.05900
3377.23,0.05828
3371.45,0.05794
3365.66,0.05873
3359.87,0.05908
3354.09,0.06025
3348.3,0.06113
3342.52,0.06051
3336.73,0.06145
3330.94,0.06124
3325.16,0.06127
3319.37,0.06225
3313.58,0.06246
3307.8,0.06238
3302.01,0.06208
3296.23,0.06273
3290.44,0.06237
3284.65,0.06244
3278.87,0.06198
3273.08,0.06158
3267.29,0.06209
3261.51,0.06223
3255.72,0.06318
3249.94,0.06227
3244.15,0.06216
3238.36,0.06276
3232.58,0.06307
3226.79,0.06157
3221,0.06167
3215.22,0.06146
3209.43,0.06129
3203.65,0.06093
3197.86,0.06064
3192.07,0.05994
3186.29,0.05966
3180.5,0.05949
3174.71,0.05917
3168.93,0.05871
3163.14,0.05834
3157.36,0.05770
3151.57,0.05762
3145.78,0.05719
3140,0.05643
3134.21,0.05682
3128.42,0.05578
3122.64,0.05568
3116.85,0.05407
3111.07,0.05409
3105.28,0.05377
3099.49,0.05238
3093.71,0.05144
3087.92,0.05065
3082.14,0.05057
3076.35,0.05044
3070.56,0.05002
3064.78,0.05026
3058.99,0.04955
3053.2,0.04951
3047.42,0.04947
3041.63,0.04909
3035.85,0.04870
3030.06,0.04814
3024.27,0.04768
3018.49,0.04761
3012.7,0.04772
3006.91,0.04770
3001.13,0.04707
2995.34,0.04692
2989.56,0.04612
2983.77,0.04508
2977.98,0.04472
2972.2,0.04410
2966.41,0.04280
2960.62,0.04198
2954.84,0.04070
2949.05,0.03955
2943.27,0.03691
2937.48,0.03475
2931.69,0.03286
2925.91,0.03810
2920.12,0.06127
2914.33,0.08102
2908.55,0.07005
2902.76,0.06324
2896.98,0.06049
2891.19,0.05925
2885.4,0.05798
2879.62,0.05617
2873.83,0.05416
2868.04,0.05178
2862.26,0.04848
2856.47,0.04519
2850.69,0.05673
2844.9,0.07190
2839.11,0.06593
2833.33,0.06201
2827.54,0.06041
2821.75,0.05948
2815.97,0.05878
2810.18,0.05820
2804.4,0.05809
2798.61,0.05694
2792.82,0.05639
2787.04,0.05634
2781.25,0.05644
2775.46,0.05611
2769.68,0.05589
2763.89,0.05625
2758.11,0.05590
2752.32,0.05528
2746.53,0.05514
2740.75,0.05539
2734.96,0.05485
2729.17,0.05507
2723.39,0.05475
2717.6,0.05457
2711.82,0.05521
2706.03,0.05494
2700.24,0.05430
2694.46,0.05481
2688.67,0.05515
2682.88,0.05484
2677.1,0.05457
2671.31,0.05455
2665.53,0.05446
2659.74,0.05453
2653.95,0.05438
2648.17,0.05389
2642.38,0.05431
2636.59,0.05429
2630.81,0.05392
2625.02,0.05432
2619.24,0.05421
2613.45,0.05432
2607.66,0.05416
2601.88,0.05416
2596.09,0.05455
2590.3,0.05446
2584.52,0.05417
2578.73,0.05486
2572.95,0.05481
2567.16,0.05445
2561.37,0.05454
2555.59,0.05443
2549.8,0.05482
2544.02,0.05503
2538.23,0.05495
2532.44,0.05460
2526.66,0.05468
2520.87,0.05500
2515.08,0.05561
2509.3,0.05555
2503.51,0.05552
2497.73,0.05541
2491.94,0.05589
2486.15,0.05645
2480.37,0.05680
2474.58,0.05570
2468.79,0.05723
2463.01,0.05871
2457.22,0.05935
2451.44,0.05985
2445.65,0.05996
2439.86,0.05964
2434.08,0.05891
2428.29,0.05766
2422.5,0.05619
2416.72,0.05580
2410.93,0.05672
2405.15,0.05755
2399.36,0.05774
2393.57,0.05798
2387.79,0.05810
2382,0.05814
2376.21,0.05805
2370.43,0.05767
2364.64,0.05714
2358.86,0.05571
2353.07,0.05449
2347.28,0.05427
2341.5,0.05429
2335.71,0.05384
2329.92,0.05409
2324.14,0.05433
2318.35,0.05418
2312.57,0.05418
2306.78,0.05490
2300.99,0.05478
2295.21,0.05494
2289.42,0.05513
2283.63,0.05548
2277.85,0.05504
2272.06,0.05600
2266.28,0.05745
2260.49,0.05901
2254.7,0.05905
2248.92,0.05823
2243.13,0.05777
2237.34,0.06090
2231.56,0.06585
2225.77,0.06535
2219.99,0.06436
2214.2,0.06644
2208.41,0.06699
2202.63,0.06697
2196.84,0.06607
2191.05,0.06532
2185.27,0.06499
2179.48,0.06503
2173.7,0.06503
2167.91,0.06417
2162.12,0.06208
2156.34,0.06060
2150.55,0.05909
2144.76,0.05975
2138.98,0.06214
2133.19,0.06596
2127.41,0.06998
2121.62,0.07228
2115.83,0.07351
2110.05,0.07397
2104.26,0.07377
2098.47,0.07399
2092.69,0.07267
2086.9,0.07114
2081.12,0.07030
2075.33,0.06856
2069.54,0.06640
2063.76,0.06458
2057.97,0.06264
2052.19,0.06046
2046.4,0.05862
2040.61,0.05690
2034.83,0.05575
2029.04,0.05477
2023.25,0.05417
2017.47,0.05384
2011.68,0.05559
2005.9,0.06045
2000.11,0.06654
1994.32,0.07067
1988.54,0.07373
1982.75,0.07394
1976.96,0.07410
1971.18,0.07257
1965.39,0.06985
1959.61,0.06814
1953.82,0.06800
1948.03,0.06845
1942.25,0.06788
1936.46,0.06719
1930.67,0.06591
1924.89,0.06421
1919.1,0.06257
1913.32,0.06017
1907.53,0.05755
1901.74,0.05514
1895.96,0.05454
1890.17,0.05742
1884.38,0.06663
1878.6,0.07516
1872.81,0.08082
1867.03,0.08578
1861.24,0.08971
1855.45,0.09210
1849.67,0.09383
1843.88,0.09358
1838.09,0.09065
1832.31,0.08775
1826.52,0.07836
1820.74,0.06733
1814.95,0.06883
1809.16,0.07216
1803.38,0.07311
1797.59,0.07308
1791.8,0.07422
1786.02,0.07623
1780.23,0.07682
1774.45,0.07526
1768.66,0.07288
1762.87,0.07038
1757.09,0.06536
1751.3,0.05955
1745.51,0.05596
1739.73,0.05652
1733.94,0.05883
1728.16,0.06045
1722.37,0.06110
1716.58,0.06085
1710.8,0.06133
1705.01,0.06205
1699.22,0.06208
1693.44,0.06185
1687.65,0.06153
1681.87,0.06055
1676.08,0.06012
1670.29,0.05901
1664.51,0.05811
1658.72,0.05757
1652.93,0.05693
1647.15,0.05620
1641.36,0.05472
1635.58,0.05486
1629.79,0.05431
1624,0.05433
1618.22,0.05406
1612.43,0.05360
1606.64,0.05369
1600.86,0.05388
1595.07,0.05324
1589.29,0.05305
1583.5,0.05330
1577.71,0.05338
1571.93,0.05381
1566.14,0.05357
1560.35,0.05340
1554.57,0.05304
1548.78,0.05239
1543,0.05231
1537.21,0.05252
1531.42,0.05220
1525.64,0.05227
1519.85,0.05201
1514.07,0.05168
1508.28,0.05137
1502.49,0.05102
1496.71,0.05146
1490.92,0.05108
1485.13,0.05035
1479.35,0.04817
1473.56,0.04887
1467.78,0.05290
1461.99,0.05491
1456.2,0.05615
1450.42,0.05525
1444.63,0.05461
1438.84,0.05443
1433.06,0.05451
1427.27,0.05431
1421.49,0.05463
1415.7,0.05406
1409.91,0.05424
1404.13,0.05366
1398.34,0.05349
1392.55,0.05327
1386.77,0.05332
1380.98,0.05312
1375.2,0.05347
1369.41,0.05303
1363.62,0.05372
1357.84,0.05382
1352.05,0.05361
1346.26,0.05352
1340.48,0.05360
1334.69,0.05339
1328.91,0.05321
1323.12,0.05323
1317.33,0.05355
1311.55,0.05306
1305.76,0.05306
1299.97,0.05303
1294.19,0.05325
1288.4,0.05313
1282.62,0.05331
1276.83,0.05288
1271.04,0.05328
1265.26,0.05351
1259.47,0.05354
1253.68,0.05370
1247.9,0.05341
1242.11,0.05324
1236.33,0.05348
1230.54,0.05353
1224.75,0.05307
1218.97,0.05322
1213.18,0.05329
1207.39,0.05288
1201.61,0.05288
1195.82,0.05292
1190.04,0.05262
1184.25,0.05287
1178.46,0.05293
1172.68,0.05299
1166.89,0.05311
1161.1,0.05326
1155.32,0.05310
1149.53,0.05295
1143.75,0.05256
1137.96,0.05299
1132.17,0.05268
1126.39,0.05316
1120.6,0.05320
1114.81,0.05266
1109.03,0.05317
1103.24,0.05270
1097.46,0.05356
1091.67,0.05265
1085.88,0.05248
1080.1,0.05312
1074.31,0.05332
1068.52,0.05333
1062.74,0.05340
1056.95,0.05310
1051.17,0.05357
1045.38,0.05412
1039.59,0.05372
1033.81,0.05375
1028.02,0.05382
1022.24,0.05405
1016.45,0.05434
1010.66,0.05433
1004.88,0.05398
999.09,0.05387
993.304,0.05378
987.518,0.05377
981.731,0.05385
975.945,0.05330
970.159,0.05323
964.373,0.05375
958.586,0.05408
952.8,0.05420
947.014,0.05428
941.228,0.05408
935.441,0.05354
929.655,0.05327
923.869,0.05396
918.083,0.05342
912.297,0.05304
906.51,0.05271
900.724,0.05276
894.938,0.05353
889.152,0.05332
883.365,0.05357
877.579,0.05309
871.793,0.05340
866.007,0.05337
860.22,0.05337
854.434,0.05298
848.648,0.05301
842.862,0.05251
837.075,0.05256
831.289,0.05270
825.503,0.05229
819.717,0.05277
813.931,0.05282
808.144,0.05355
802.358,0.05252
796.572,0.05281
790.786,0.05274
784.999,0.05247
779.213,0.05228
773.427,0.05272
767.641,0.05214
761.854,0.05145
756.068,0.05062
750.282,0.05095
744.496,0.04949
738.709,0.04896
732.923,0.04720
727.137,0.05205
721.351,0.05108
715.565,0.05850
709.778,0.05612
703.992,0.05593
698.206,0.05453
692.42,0.05408
686.633,0.05466
680.847,0.05439
675.061,0.05376
669.275,0.05480
663.488,0.05403
657.702,0.05452
651.916,0.05498
646.13,0.05355
640.343,0.05329
634.557,0.05461
628.771,0.05294
622.985,0.05300
617.198,0.05371
611.412,0.05125
605.626,0.05229
599.84,0.05235