File: 01_Data/PEX_Pipe/FTIR/IS/PEX_Pipe_IS_S_221108_R5.dpt
7497.03,0.71419
7491.25,0.70792
7485.46,0.70327
7479.67,0.69960
7473.89,0.69534
7468.1,0.69120
7462.32,0.69702
7456.53,0.70275
7450.74,0.69437
7444.96,0.70008
7439.17,0.68825
7433.38,0.68774
7427.6,0.70085
7421.81,0.69325
7416.03,0.68870
7410.24,0.68600
7404.45,0.68478
7398.67,0.69029
7392.88,0.67313
7387.09,0.68267
7381.31,0.68538
7375.52,0.67649
7369.74,0.66834
7363.95,0.66376
7358.16,0.67023
7352.38,0.67340
7346.59,0.65004
7340.8,0.65313
7335.02,0.64230
7329.23,0.63689
7323.45,0.63306
7317.66,0.62129
7311.87,0.61808
7306.09,0.60557
7300.3,0.60472
7294.51,0.59108
7288.73,0.57425
7282.94,0.55719
7277.16,0.54384
7271.37,0.53126
7265.58,0.50927
7259.8,0.49790
7254.01,0.49983
7248.22,0.47091
7242.44,0.45949
7236.65,0.43740
7230.87,0.43148
7225.08,0.40798
7219.29,0.38711
7213.51,0.37589
7207.72,0.37187
7201.93,0.35650
7196.15,0.33996
7190.36,0.31002
7184.58,0.29037
7178.79,0.26818
7173,0.25246
7167.22,0.28084
7161.43,0.29680
7155.65,0.32991
7149.86,0.34659
7144.07,0.35720
7138.29,0.37197
7132.5,0.37031
7126.71,0.36123
7120.93,0.36767
7115.14,0.36213
7109.36,0.35343
7103.57,0.34175
7097.78,0.33930
7092,0.33846
7086.21,0.32368
7080.42,0.31494
7074.64,0.30531
7068.85,0.29259
7063.07,0.28401
7057.28,0.28896
7051.49,0.30271
7045.71,0.30246
7039.92,0.30294
7034.13,0.30588
7028.35,0.29819
7022.56,0.30704
7016.78,0.30795
7010.99,0.30784
7005.2,0.31570
6999.42,0.32126
6993.63,0.31965
6987.84,0.31940
6982.06,0.32349
6976.27,0.32291
6970.49,0.32559
6964.7,0.32539
6958.91,0.33025
6953.13,0.32652
6947.34,0.32138
6941.55,0.33280
6935.77,0.33038
6929.98,0.33897
6924.2,0.35050
6918.41,0.35689
6912.62,0.35371
6906.84,0.36406
6901.05,0.36337
6895.26,0.36993
6889.48,0.36768
6883.69,0.37668
6877.91,0.38220
6872.12,0.38281
6866.33,0.38995
6860.55,0.38722
6854.76,0.38959
6848.97,0.39565
6843.19,0.39710
6837.4,0.40429
6831.62,0.41131
6825.83,0.41417
6820.04,0.42000
6814.26,0.42699
6808.47,0.42990
6802.68,0.43540
6796.9,0.44434
6791.11,0.44973
6785.33,0.45667
6779.54,0.46269
6773.75,0.46359
6767.97,0.46480
6762.18,0.47495
6756.39,0.47713
6750.61,0.48194
6744.82,0.48359
6739.04,0.49426
6733.25,0.48950
6727.46,0.48354
6721.68,0.49385
6715.89,0.49609
6710.1,0.50068
6704.32,0.49988
6698.53,0.50388
6692.75,0.50503
6686.96,0.50725
6681.17,0.50860
6675.39,0.51076
6669.6,0.51642
6663.82,0.51332
6658.03,0.52072
6652.24,0.51628
6646.46,0.52499
6640.67,0.52218
6634.88,0.52265
6629.1,0.52877
6623.31,0.52258
6617.53,0.52566
6611.74,0.52569
6605.95,0.52285
6600.17,0.52976
6594.38,0.52423
6588.59,0.52590
6582.81,0.52717
6577.02,0.52424
6571.24,0.52167
6565.45,0.51790
6559.66,0.51626
6553.88,0.51281
6548.09,0.51481
6542.3,0.51631
6536.52,0.51160
6530.73,0.51228
6524.95,0.50533
6519.16,0.50355
6513.37,0.49994
6507.59,0.49422
6501.8,0.49167
6496.01,0.48040
6490.23,0.47576
6484.44,0.47039
6478.66,0.47824
6472.87,0.49028
6467.08,0.50954
6461.3,0.52028
6455.51,0.53021
6449.72,0.53528
6443.94,0.54422
6438.15,0.54389
6432.37,0.54748
6426.58,0.55132
6420.79,0.54676
6415.01,0.55044
6409.22,0.54964
6403.43,0.55790
6397.65,0.56099
6391.86,0.56299
6386.08,0.56558
6380.29,0.56040
6374.5,0.56735
6368.72,0.57418
6362.93,0.57338
6357.14,0.57449
6351.36,0.57308
6345.57,0.57229
6339.79,0.56994
6334,0.57649
6328.21,0.58083
6322.43,0.57966
6316.64,0.57861
6310.85,0.57914
6305.07,0.58035
6299.28,0.58440
6293.5,0.57656
6287.71,0.57943
6281.92,0.58398
6276.14,0.58021
6270.35,0.57682
6264.56,0.57506
6258.78,0.58031
6252.99,0.57588
6247.21,0.58322
6241.42,0.57994
6235.63,0.58003
6229.85,0.58378
6224.06,0.57985
6218.27,0.57970
6212.49,0.57891
6206.7,0.57565
6200.92,0.57446
6195.13,0.57688
6189.34,0.57889
6183.56,0.57387
6177.77,0.57233
6171.98,0.56937
6166.2,0.57175
6160.41,0.57118
6154.63,0.56707
6148.84,0.56643
6143.05,0.56549
6137.27,0.56418
6131.48,0.56207
6125.7,0.56051
6119.91,0.55911
6114.12,0.55519
6108.34,0.55449
6102.55,0.54872
6096.76,0.54716
6090.98,0.54562
6085.19,0.54200
6079.41,0.53662
6073.62,0.53351
6067.83,0.53416
6062.05,0.53142
6056.26,0.53086
6050.47,0.52522
6044.69,0.52013
6038.9,0.51246
6033.12,0.50956
6027.33,0.50034
6021.54,0.49570
6015.76,0.48802
6009.97,0.48200
6004.18,0.47223
5998.4,0.46211
5992.61,0.45292
5986.83,0.44540
5981.04,0.43270
5975.25,0.42119
5969.47,0.40586
5963.68,0.39404
5957.89,0.38336
5952.11,0.37196
5946.32,0.36208
5940.54,0.35027
5934.75,0.34114
5928.96,0.32834
5923.18,0.31748
5917.39,0.30825
5911.6,0.29806
5905.82,0.28988
5900.03,0.27842
5894.25,0.26883
5888.46,0.25740
5882.67,0.24087
5876.89,0.22437
5871.1,0.20450
5865.31,0.18322
5859.53,0.16163
5853.74,0.14636
5847.96,0.13355
5842.17,0.12314
5836.38,0.12086
5830.6,0.11082
5824.81,0.10606
5819.02,0.10123
5813.24,0.09688
5807.45,0.09379
5801.67,0.08849
5795.88,0.08554
5790.09,0.08300
5784.31,0.07464
5778.52,0.07268
5772.73,0.07348
5766.95,0.07712
5761.16,0.08314
5755.38,0.09145
5749.59,0.09826
5743.8,0.10446
5738.02,0.10900
5732.23,0.11275
5726.44,0.12246
5720.66,0.13037
5714.87,0.13149
5709.09,0.13207
5703.3,0.12686
5697.51,0.12085
5691.73,0.11383
5685.94,0.11263
5680.15,0.10582
5674.37,0.09977
5668.58,0.09377
5662.8,0.09189
5657.01,0.09822
5651.22,0.11063
5645.44,0.12193
5639.65,0.12651
5633.87,0.12963
5628.08,0.13413
5622.29,0.13577
5616.51,0.13940
5610.72,0.14358
5604.93,0.14363
5599.15,0.14859
5593.36,0.14812
5587.58,0.14755
5581.79,0.14763
5576,0.14472
5570.22,0.13872
5564.43,0.13734
5558.64,0.13394
5552.86,0.13566
5547.07,0.13466
5541.29,0.13584
5535.5,0.13604
5529.71,0.13668
5523.93,0.13816
5518.14,0.13423
5512.35,0.13559
5506.57,0.13354
5500.78,0.13327
5495,0.13309
5489.21,0.13111
5483.42,0.13363
5477.64,0.13504
5471.85,0.13798
5466.06,0.13913
5460.28,0.14130
5454.49,0.14231
5448.71,0.14237
5442.92,0.14320
5437.13,0.14477
5431.35,0.14411
5425.56,0.14679
5419.77,0.14562
5413.99,0.15005
5408.2,0.15540
5402.42,0.16015
5396.63,0.16170
5390.84,0.16643
5385.06,0.16745
5379.27,0.16630
5373.48,0.16795
5367.7,0.17224
5361.91,0.17424
5356.13,0.17813
5350.34,0.18022
5344.55,0.18553
5338.77,0.18571
5332.98,0.18974
5327.19,0.19126
5321.41,0.19020
5315.62,0.18444
5309.84,0.18226
5304.05,0.18241
5298.26,0.18369
5292.48,0.18473
5286.69,0.18473
5280.9,0.18405
5275.12,0.18404
5269.33,0.18224
5263.55,0.18295
5257.76,0.18017
5251.97,0.18063
5246.19,0.18070
5240.4,0.18013
5234.61,0.17602
5228.83,0.17553
5223.04,0.17515
5217.26,0.17405
5211.47,0.17574
5205.68,0.17497
5199.9,0.17523
5194.11,0.17281
5188.32,0.17184
5182.54,0.17271
5176.75,0.17382
5170.97,0.17374
5165.18,0.17435
5159.39,0.17326
5153.61,0.17357
5147.82,0.17735
5142.03,0.17791
5136.25,0.17773
5130.46,0.17833
5124.68,0.17866
5118.89,0.17742
5113.1,0.17576
5107.32,0.17535
5101.53,0.17438
5095.75,0.17541
5089.96,0.17550
5084.17,0.17542
5078.39,0.17722
5072.6,0.17778
5066.81,0.17736
5061.03,0.17776
5055.24,0.17948
5049.46,0.18207
5043.67,0.18166
5037.88,0.18228
5032.1,0.18094
5026.31,0.18177
5020.52,0.17893
5014.74,0.17894
5008.95,0.17760
5003.17,0.17552
4997.38,0.17151
4991.59,0.16721
4985.81,0.16550
4980.02,0.16268
4974.23,0.16030
4968.45,0.15768
4962.66,0.15700
4956.88,0.16257
4951.09,0.16834
4945.3,0.17072
4939.52,0.17194
4933.73,0.17202
4927.94,0.17211
4922.16,0.17234
4916.37,0.17256
4910.59,0.17156
4904.8,0.17045
4899.01,0.16946
4893.23,0.16785
4887.44,0.16633
4881.65,0.16415
4875.87,0.16294
4870.08,0.16252
4864.3,0.16319
4858.51,0.16316
4852.72,0.16576
4846.94,0.16961
4841.15,0.17216
4835.36,0.17380
4829.58,0.17675
4823.79,0.17821
4818.01,0.18015
4812.22,0.18315
4806.43,0.18466
4800.65,0.18658
4794.86,0.18723
4789.07,0.18733
4783.29,0.18864
4777.5,0.18956
4771.72,0.19328
4765.93,0.19632
4760.14,0.19811
4754.36,0.19984
4748.57,0.20056
4742.78,0.20346
4737,0.20288
4731.21,0.20505
4725.43,0.20629
4719.64,0.20836
4713.85,0.21054
4708.07,0.21056
4702.28,0.21285
4696.49,0.21256
4690.71,0.21102
4684.92,0.21000
4679.14,0.20721
4673.35,0.20147
4667.56,0.19844
4661.78,0.20109
4655.99,0.20563
4650.2,0.20863
4644.42,0.20984
4638.63,0.20982
4632.85,0.21026
4627.06,0.20910
4621.27,0.20819
4615.49,0.20640
4609.7,0.20593
4603.92,0.20461
4598.13,0.20580
4592.34,0.20356
4586.56,0.20079
4580.77,0.19942
4574.98,0.19730
4569.2,0.19529
4563.41,0.19193
4557.63,0.18806
4551.84,0.18410
4546.05,0.17964
4540.27,0.17483
4534.48,0.17230
4528.69,0.16921
4522.91,0.16543
4517.12,0.16192
4511.34,0.15686
4505.55,0.15309
4499.76,0.14890
4493.98,0.14456
4488.19,0.14077
4482.4,0.13688
4476.62,0.13243
4470.83,0.12766
4465.05,0.12363
4459.26,0.11939
4453.47,0.11360
4447.69,0.10968
4441.9,0.10516
4436.11,0.10168
4430.33,0.09722
4424.54,0.09408
4418.76,0.08919
4412.97,0.08555
4407.18,0.08012
4401.4,0.07560
4395.61,0.07164
4389.82,0.06926
4384.04,0.06732
4378.25,0.06491
4372.47,0.06315
4366.68,0.06126
4360.89,0.06085
4355.11,0.05910
4349.32,0.05784
4343.53,0.05637
4337.75,0.05537
4331.96,0.05418
4326.18,0.05347
4320.39,0.05293
4314.6,0.05495
4308.82,0.05762
4303.03,0.05972
4297.24,0.05997
4291.46,0.05936
4285.67,0.05966
4279.89,0.05828
4274.1,0.05875
4268.31,0.05777
4262.53,0.05606
4256.74,0.05486
4250.95,0.05380
4245.17,0.05519
4239.38,0.05667
4233.6,0.05732
4227.81,0.05729
4222.02,0.05675
4216.24,0.05583
4210.45,0.05665
4204.66,0.05658
4198.88,0.05462
4193.09,0.05468
4187.31,0.05538
4181.52,0.05470
4175.73,0.05486
4169.95,0.05617
4164.16,0.05516
4158.37,0.05599
4152.59,0.05579
4146.8,0.05604
4141.02,0.05476
4135.23,0.05556
4129.44,0.05593
4123.66,0.05567
4117.87,0.05534
4112.09,0.05528
4106.3,0.05565
4100.51,0.05563
4094.73,0.05510
4088.94,0.05586
4083.15,0.05649
4077.37,0.05737
4071.58,0.05730
4065.8,0.05759
4060.01,0.05829
4054.22,0.05757
4048.44,0.05759
4042.65,0.05845
4036.86,0.05803
4031.08,0.05790
4025.29,0.05830
4019.51,0.05862
4013.72,0.06052
4007.93,0.06048
4002.15,0.06173
3996.36,0.06172
3990.57,0.06076
3984.79,0.06125
3979,0.06094
3973.22,0.06030
3967.43,0.06057
3961.64,0.06127
3955.86,0.06138
3950.07,0.06095
3944.28,0.06018
3938.5,0.05996
3932.71,0.05990
3926.93,0.05994
3921.14,0.05968
3915.35,0.05909
3909.57,0.05930
3903.78,0.06014
3897.99,0.05960
3892.21,0.05939
3886.42,0.05936
3880.64,0.06012
3874.85,0.05982
3869.06,0.06020
3863.28,0.06077
3857.49,0.06037
3851.7,0.06116
3845.92,0.06117
3840.13,0.06122
3834.35,0.06024
3828.56,0.06037
3822.77,0.05985
3816.99,0.06006
3811.2,0.06088
3805.41,0.06100
3799.63,0.06195
3793.84,0.06233
3788.06,0.06233
3782.27,0.06254
3776.48,0.06329
3770.7,0.06289
3764.91,0.06314
3759.12,0.06406
3753.34,0.06321
3747.55,0.06414
3741.77,0.06437
3735.98,0.06422
3730.19,0.06398
3724.41,0.06338
3718.62,0.06324
3712.83,0.06257
3707.05,0.06141
3701.26,0.05954
3695.48,0.05853
3689.69,0.05863
3683.9,0.05940
3678.12,0.05977
3672.33,0.05958
3666.54,0.05901
3660.76,0.05880
3654.97,0.05826
3649.19,0.05707
3643.4,0.05677
3637.61,0.05727
3631.83,0.05851
3626.04,0.05837
3620.25,0.05806
3614.47,0.05662
3608.68,0.05548
3602.9,0.05517
3597.11,0.05674
3591.32,0.05930
3585.54,0.06075
3579.75,0.06230
3573.97,0.06243
3568.18,0.06331
3562.39,0.06439
3556.61,0.06449
3550.82,0.06577
3545.03,0.06594
3539.25,0.06657
3533.46,0.06642
3527.68,0.06611
3521.89,0.06614
3516.1,0.06618
3510.32,0.06545
3504.53,0.06491
3498.74,0.06442
3492.96,0.06469
3487.17,0.06451
3481.39,0.06398
3475.6,0.06355
3469.81,0.06293
3464.03,0.06237
3458.24,0.06161
3452.45,0.06171
3446.67,0.06077
3440.88,0.06151
3435.1,0.06052
3429.31,0.06045
3423.52,0.06094
3417.74,0.06088
3411.95,0.06015
3406.16,0.05931
3400.38,0.05956
3394.59,0.05871
3388.81,0.05938
3383.02,0.05954
3377.23,0.05807
3371.45,0.05901
3365.66,0.05908
3359.87,0.05940
3354.09,0.05922
3348.3,0.06046
3342.52,0.06120
3336.73,0.06049
3330.94,0.06141
3325.16,0.06134
3319.37,0.06134
3313.58,0.06163
3307.8,0.06255
3302.01,0.06257
3296.23,0.06260
3290.44,0.06366
3284.65,0.06246
3278.87,0.06279
3273.08,0.06245
3267.29,0.06292
3261.51,0.06226
3255.72,0.06293
3249.94,0.06379
3244.15,0.06354
3238.36,0.06259
3232.58,0.06202
3226.79,0.06225
3221,0.06071
3215.22,0.06131
3209.43,0.06099
3203.65,0.06073
3197.86,0.06040
3192.07,0.05943
3186.29,0.06021
3180.5,0.05950
3174.71,0.05920
3168.93,0.05905
3163.14,0.05831
3157.36,0.05761
3151.57,0.05713
3145.78,0.05678
3140,0.05634
3134.21,0.05690
3128.42,0.05615
3122.64,0.05605
3116.85,0.05446
3111.07,0.05398
3105.28,0.05296
3099.49,0.05180
3093.71,0.05090
3087.92,0.05089
3082.14,0.05072
3076.35,0.05007
3070.56,0.04993
3064.78,0.05005
3058.99,0.04979
3053.2,0.04969
3047.42,0.04942
3041.63,0.04889
3035.85,0.04896
3030.06,0.04818
3024.27,0.04801
3018.49,0.04856
3012.7,0.04746
3006.91,0.04741
3001.13,0.04653
2995.34,0.04635
2989.56,0.04633
2983.77,0.04576
2977.98,0.04465
2972.2,0.04432
2966.41,0.04365
2960.62,0.04195
2954.84,0.04111
2949.05,0.03996
2943.27,0.03717
2937.48,0.03457
2931.69,0.03304
2925.91,0.03812
2920.12,0.06125
2914.33,0.08092
2908.55,0.07050
2902.76,0.06326
2896.98,0.06077
2891.19,0.05917
2885.4,0.05763
2879.62,0.05577
2873.83,0.05423
2868.04,0.05190
2862.26,0.04886
2856.47,0.04522
2850.69,0.05689
2844.9,0.07164
2839.11,0.06564
2833.33,0.06243
2827.54,0.06069
2821.75,0.05973
2815.97,0.05864
2810.18,0.05795
2804.4,0.05772
2798.61,0.05700
2792.82,0.05687
2787.04,0.05658
2781.25,0.05632
2775.46,0.05611
2769.68,0.05556
2763.89,0.05589
2758.11,0.05571
2752.32,0.05578
2746.53,0.05522
2740.75,0.05540
2734.96,0.05525
2729.17,0.05527
2723.39,0.05483
2717.6,0.05526
2711.82,0.05467
2706.03,0.05507
2700.24,0.05528
2694.46,0.05468
2688.67,0.05435
2682.88,0.05448
2677.1,0.05445
2671.31,0.05408
2665.53,0.05432
2659.74,0.05429
2653.95,0.05406
2648.17,0.05424
2642.38,0.05442
2636.59,0.05395
2630.81,0.05453
2625.02,0.05444
2619.24,0.05425
2613.45,0.05415
2607.66,0.05436
2601.88,0.05435
2596.09,0.05444
2590.3,0.05456
2584.52,0.05437
2578.73,0.05484
2572.95,0.05462
2567.16,0.05531
2561.37,0.05456
2555.59,0.05462
2549.8,0.05453
2544.02,0.05473
2538.23,0.05536
2532.44,0.05479
2526.66,0.05453
2520.87,0.05458
2515.08,0.05548
2509.3,0.05535
2503.51,0.05538
2497.73,0.05572
2491.94,0.05595
2486.15,0.05595
2480.37,0.05620
2474.58,0.05625
2468.79,0.05704
2463.01,0.05898
2457.22,0.05974
2451.44,0.06027
2445.65,0.06018
2439.86,0.05976
2434.08,0.05889
2428.29,0.05840
2422.5,0.05686
2416.72,0.05598
2410.93,0.05640
2405.15,0.05757
2399.36,0.05831
2393.57,0.05793
2387.79,0.05802
2382,0.05844
2376.21,0.05809
2370.43,0.05792
2364.64,0.05704
2358.86,0.05556
2353.07,0.05425
2347.28,0.05398
2341.5,0.05409
2335.71,0.05423
2329.92,0.05383
2324.14,0.05376
2318.35,0.05415
2312.57,0.05436
2306.78,0.05444
2300.99,0.05506
2295.21,0.05503
2289.42,0.05569
2283.63,0.05543
2277.85,0.05551
2272.06,0.05607
2266.28,0.05791
2260.49,0.05901
2254.7,0.05926
2248.92,0.05844
2243.13,0.05800
2237.34,0.06128
2231.56,0.06591
2225.77,0.06470
2219.99,0.06436
2214.2,0.06592
2208.41,0.06697
2202.63,0.06711
2196.84,0.06619
2191.05,0.06550
2185.27,0.06534
2179.48,0.06500
2173.7,0.06499
2167.91,0.06450
2162.12,0.06197
2156.34,0.06029
2150.55,0.05934
2144.76,0.05970
2138.98,0.06222
2133.19,0.06635
2127.41,0.07002
2121.62,0.07219
2115.83,0.07318
2110.05,0.07357
2104.26,0.07349
2098.47,0.07381
2092.69,0.07291
2086.9,0.07173
2081.12,0.06990
2075.33,0.06797
2069.54,0.06629
2063.76,0.06441
2057.97,0.06268
2052.19,0.06086
2046.4,0.05865
2040.61,0.05688
2034.83,0.05549
2029.04,0.05470
2023.25,0.05405
2017.47,0.05408
2011.68,0.05536
2005.9,0.06074
2000.11,0.06614
1994.32,0.07094
1988.54,0.07336
1982.75,0.07416
1976.96,0.07387
1971.18,0.07295
1965.39,0.06978
1959.61,0.06829
1953.82,0.06846
1948.03,0.06828
1942.25,0.06817
1936.46,0.06734
1930.67,0.06617
1924.89,0.06431
1919.1,0.06254
1913.32,0.05980
1907.53,0.05746
1901.74,0.05531
1895.96,0.05459
1890.17,0.05745
1884.38,0.06676
1878.6,0.07477
1872.81,0.08119
1867.03,0.08585
1861.24,0.08933
1855.45,0.09230
1849.67,0.09388
1843.88,0.09360
1838.09,0.09097
1832.31,0.08784
1826.52,0.07851
1820.74,0.06749
1814.95,0.06868
1809.16,0.07202
1803.38,0.07294
1797.59,0.07292
1791.8,0.07446
1786.02,0.07629
1780.23,0.07605
1774.45,0.07520
1768.66,0.07281
1762.87,0.06990
1757.09,0.06519
1751.3,0.05986
1745.51,0.05652
1739.73,0.05605
1733.94,0.05859
1728.16,0.06030
1722.37,0.06122
1716.58,0.06113
1710.8,0.06099
1705.01,0.06175
1699.22,0.06144
1693.44,0.06159
1687.65,0.06167
1681.87,0.06075
1676.08,0.05995
1670.29,0.05894
1664.51,0.05822
1658.72,0.05717
1652.93,0.05655
1647.15,0.05607
1641.36,0.05443
1635.58,0.05427
1629.79,0.05445
1624,0.05406
1618.22,0.05439
1612.43,0.05407
1606.64,0.05387
1600.86,0.05336
1595.07,0.05342
1589.29,0.05354
1583.5,0.05368
1577.71,0.05374
1571.93,0.05342
1566.14,0.05310
1560.35,0.05361
1554.57,0.05265
1548.78,0.05249
1543,0.05291
1537.21,0.05227
1531.42,0.05231
1525.64,0.05218
1519.85,0.05201
1514.07,0.05187
1508.28,0.05189
1502.49,0.05132
1496.71,0.05118
1490.92,0.05110
1485.13,0.05065
1479.35,0.04880
1473.56,0.04908
1467.78,0.05308
1461.99,0.05483
1456.2,0.05557
1450.42,0.05521
1444.63,0.05506
1438.84,0.05438
1433.06,0.05452
1427.27,0.05449
1421.49,0.05436
1415.7,0.05390
1409.91,0.05377
1404.13,0.05372
1398.34,0.05389
1392.55,0.05393
1386.77,0.05335
1380.98,0.05300
1375.2,0.05316
1369.41,0.05343
1363.62,0.05371
1357.84,0.05363
1352.05,0.05354
1346.26,0.05342
1340.48,0.05341
1334.69,0.05341
1328.91,0.05338
1323.12,0.05323
1317.33,0.05322
1311.55,0.05320
1305.76,0.05314
1299.97,0.05342
1294.19,0.05324
1288.4,0.05344
1282.62,0.05333
1276.83,0.05337
1271.04,0.05385
1265.26,0.05336
1259.47,0.05361
1253.68,0.05384
1247.9,0.05370
1242.11,0.05357
1236.33,0.05318
1230.54,0.05318
1224.75,0.05345
1218.97,0.05348
1213.18,0.05347
1207.39,0.05353
1201.61,0.05323
1195.82,0.05252
1190.04,0.05319
1184.25,0.05348
1178.46,0.05280
1172.68,0.05269
1166.89,0.05324
1161.1,0.05336
1155.32,0.05345
1149.53,0.05317
1143.75,0.05310
1137.96,0.05295
1132.17,0.05270
1126.39,0.05255
1120.6,0.05228
1114.81,0.05300
1109.03,0.05291
1103.24,0.05276
1097.46,0.05297
1091.67,0.05296
1085.88,0.05321
1080.1,0.05345
1074.31,0.05357
1068.52,0.05330
1062.74,0.05299
1056.95,0.05329
1051.17,0.05387
1045.38,0.05327
1039.59,0.05379
1033.81,0.05385
1028.02,0.05452
1022.24,0.05464
1016.45,0.05406
1010.66,0.05403
1004.88,0.05374
999.09,0.05363
993.304,0.05375
987.518,0.05378
981.731,0.05377
975.945,0.05412
970.159,0.05415
964.373,0.05316
958.586,0.05360
952.8,0.05434
947.014,0.05418
941.228,0.05393
935.441,0.05374
929.655,0.05381
923.869,0.05336
918.083,0.05325
912.297,0.05313
906.51,0.05299
900.724,0.05246
894.938,0.05239
889.152,0.05289
883.365,0.05262
877.579,0.05310
871.793,0.05262
866.007,0.05321
860.22,0.05271
854.434,0.05302
848.648,0.05257
842.862,0.05228
837.075,0.05245
831.289,0.05305
825.503,0.05293
819.717,0.05379
813.931,0.05325
808.144,0.05249
802.358,0.05359
796.572,0.05297
790.786,0.05244
784.999,0.05252
779.213,0.05236
773.427,0.05253
767.641,0.05214
761.854,0.05130
756.068,0.05157
750.282,0.05186
744.496,0.05094
738.709,0.04974
732.923,0.04772
727.137,0.05189
721.351,0.05154
715.565,0.05903
709.778,0.05703
703.992,0.05518
698.206,0.05500
692.42,0.05402
686.633,0.05373
680.847,0.05443
675.061,0.05350
669.275,0.05366
663.488,0.05271
657.702,0.05326
651.916,0.05274
646.13,0.05390
640.343,0.05212
634.557,0.05282
628.771,0.05399
622.985,0.05260
617.198,0.05203
611.412,0.05241
605.626,0.05223
599.84,0.05029