File: 01_Data/PEX_Pipe/FTIR/IS/PEX_Pipe_IS_S_221108_R6.dpt
7497.03,0.69227
7491.25,0.70630
7485.46,0.70095
7479.67,0.69858
7473.89,0.70382
7468.1,0.70337
7462.32,0.70216
7456.53,0.70255
7450.74,0.70170
7444.96,0.68914
7439.17,0.68744
7433.38,0.68221
7427.6,0.69240
7421.81,0.68630
7416.03,0.67242
7410.24,0.69187
7404.45,0.67777
7398.67,0.67734
7392.88,0.67401
7387.09,0.67450
7381.31,0.67117
7375.52,0.66895
7369.74,0.67120
7363.95,0.66663
7358.16,0.65895
7352.38,0.65239
7346.59,0.65917
7340.8,0.65662
7335.02,0.64277
7329.23,0.63293
7323.45,0.63213
7317.66,0.61431
7311.87,0.61887
7306.09,0.60294
7300.3,0.59217
7294.51,0.57313
7288.73,0.56094
7282.94,0.55696
7277.16,0.54462
7271.37,0.52563
7265.58,0.51036
7259.8,0.50966
7254.01,0.47911
7248.22,0.47217
7242.44,0.45643
7236.65,0.44542
7230.87,0.42894
7225.08,0.40832
7219.29,0.39399
7213.51,0.38413
7207.72,0.36602
7201.93,0.34514
7196.15,0.32740
7190.36,0.31599
7184.58,0.29399
7178.79,0.26706
7173,0.25694
7167.22,0.27237
7161.43,0.29450
7155.65,0.32782
7149.86,0.35082
7144.07,0.35333
7138.29,0.36896
7132.5,0.36789
7126.71,0.36231
7120.93,0.36347
7115.14,0.36338
7109.36,0.34883
7103.57,0.34146
7097.78,0.33385
7092,0.33479
7086.21,0.32997
7080.42,0.32686
7074.64,0.30732
7068.85,0.29287
7063.07,0.28309
7057.28,0.29216
7051.49,0.29831
7045.71,0.30988
7039.92,0.30769
7034.13,0.30606
7028.35,0.30631
7022.56,0.30812
7016.78,0.30528
7010.99,0.30956
7005.2,0.31168
6999.42,0.31799
6993.63,0.31943
6987.84,0.31851
6982.06,0.32792
6976.27,0.31838
6970.49,0.32088
6964.7,0.31889
6958.91,0.31973
6953.13,0.31837
6947.34,0.31925
6941.55,0.32408
6935.77,0.33281
6929.98,0.34103
6924.2,0.34361
6918.41,0.35066
6912.62,0.35287
6906.84,0.35837
6901.05,0.35616
6895.26,0.35812
6889.48,0.36697
6883.69,0.37111
6877.91,0.37497
6872.12,0.38607
6866.33,0.38374
6860.55,0.38112
6854.76,0.38777
6848.97,0.39024
6843.19,0.39408
6837.4,0.39903
6831.62,0.40122
6825.83,0.40794
6820.04,0.41187
6814.26,0.41986
6808.47,0.43113
6802.68,0.43634
6796.9,0.44074
6791.11,0.44476
6785.33,0.45671
6779.54,0.46062
6773.75,0.46133
6767.97,0.46539
6762.18,0.46765
6756.39,0.47132
6750.61,0.47535
6744.82,0.47761
6739.04,0.48530
6733.25,0.48474
6727.46,0.48430
6721.68,0.49012
6715.89,0.49344
6710.1,0.50092
6704.32,0.50531
6698.53,0.50455
6692.75,0.50318
6686.96,0.50379
6681.17,0.50816
6675.39,0.50976
6669.6,0.51131
6663.82,0.51387
6658.03,0.51967
6652.24,0.52165
6646.46,0.52250
6640.67,0.52352
6634.88,0.52329
6629.1,0.51791
6623.31,0.51694
6617.53,0.52378
6611.74,0.52536
6605.95,0.52650
6600.17,0.52020
6594.38,0.52297
6588.59,0.52763
6582.81,0.52001
6577.02,0.51935
6571.24,0.51521
6565.45,0.51379
6559.66,0.51492
6553.88,0.51702
6548.09,0.51404
6542.3,0.50858
6536.52,0.50728
6530.73,0.50709
6524.95,0.50509
6519.16,0.49545
6513.37,0.49901
6507.59,0.49382
6501.8,0.48769
6496.01,0.47928
6490.23,0.47068
6484.44,0.47025
6478.66,0.47313
6472.87,0.49149
6467.08,0.50334
6461.3,0.51814
6455.51,0.52299
6449.72,0.52963
6443.94,0.53812
6438.15,0.54138
6432.37,0.54697
6426.58,0.54606
6420.79,0.54651
6415.01,0.55003
6409.22,0.55088
6403.43,0.55418
6397.65,0.55549
6391.86,0.56166
6386.08,0.56084
6380.29,0.56059
6374.5,0.56336
6368.72,0.56473
6362.93,0.56583
6357.14,0.57304
6351.36,0.57591
6345.57,0.57439
6339.79,0.57492
6334,0.57548
6328.21,0.57762
6322.43,0.57750
6316.64,0.57694
6310.85,0.57669
6305.07,0.58067
6299.28,0.57986
6293.5,0.57896
6287.71,0.57640
6281.92,0.57703
6276.14,0.57844
6270.35,0.57829
6264.56,0.58017
6258.78,0.57640
6252.99,0.57838
6247.21,0.57641
6241.42,0.57729
6235.63,0.58199
6229.85,0.58010
6224.06,0.57698
6218.27,0.57779
6212.49,0.57491
6206.7,0.57444
6200.92,0.57325
6195.13,0.57146
6189.34,0.56965
6183.56,0.57332
6177.77,0.57147
6171.98,0.56830
6166.2,0.56954
6160.41,0.56668
6154.63,0.56319
6148.84,0.56470
6143.05,0.56216
6137.27,0.55764
6131.48,0.55716
6125.7,0.55724
6119.91,0.55461
6114.12,0.55030
6108.34,0.54906
6102.55,0.54760
6096.76,0.54620
6090.98,0.54130
6085.19,0.53741
6079.41,0.53385
6073.62,0.53183
6067.83,0.52879
6062.05,0.52623
6056.26,0.52159
6050.47,0.51577
6044.69,0.51664
6038.9,0.50922
6033.12,0.50381
6027.33,0.49860
6021.54,0.49267
6015.76,0.48542
6009.97,0.47512
6004.18,0.46644
5998.4,0.45838
5992.61,0.45178
5986.83,0.43915
5981.04,0.43067
5975.25,0.41893
5969.47,0.40474
5963.68,0.39226
5957.89,0.38174
5952.11,0.37100
5946.32,0.36042
5940.54,0.34885
5934.75,0.34057
5928.96,0.32869
5923.18,0.31641
5917.39,0.30656
5911.6,0.29614
5905.82,0.28966
5900.03,0.27712
5894.25,0.26798
5888.46,0.25185
5882.67,0.23630
5876.89,0.22168
5871.1,0.20148
5865.31,0.18140
5859.53,0.16112
5853.74,0.14500
5847.96,0.13139
5842.17,0.12438
5836.38,0.11861
5830.6,0.11150
5824.81,0.10555
5819.02,0.09832
5813.24,0.09594
5807.45,0.09323
5801.67,0.08741
5795.88,0.08669
5790.09,0.07927
5784.31,0.07711
5778.52,0.07390
5772.73,0.07248
5766.95,0.07504
5761.16,0.08194
5755.38,0.09283
5749.59,0.09825
5743.8,0.10492
5738.02,0.10856
5732.23,0.11139
5726.44,0.11911
5720.66,0.13134
5714.87,0.13514
5709.09,0.13193
5703.3,0.12499
5697.51,0.11887
5691.73,0.11349
5685.94,0.11205
5680.15,0.10567
5674.37,0.09816
5668.58,0.09160
5662.8,0.09193
5657.01,0.09847
5651.22,0.10976
5645.44,0.11799
5639.65,0.12537
5633.87,0.12975
5628.08,0.13166
5622.29,0.13438
5616.51,0.13966
5610.72,0.14032
5604.93,0.14381
5599.15,0.14719
5593.36,0.14742
5587.58,0.14884
5581.79,0.14716
5576,0.14319
5570.22,0.13997
5564.43,0.13664
5558.64,0.13498
5552.86,0.13528
5547.07,0.13499
5541.29,0.13446
5535.5,0.13554
5529.71,0.13398
5523.93,0.13702
5518.14,0.13561
5512.35,0.13452
5506.57,0.13381
5500.78,0.13277
5495,0.13254
5489.21,0.13285
5483.42,0.13284
5477.64,0.13526
5471.85,0.13840
5466.06,0.14044
5460.28,0.14150
5454.49,0.14164
5448.71,0.14427
5442.92,0.14263
5437.13,0.14460
5431.35,0.14377
5425.56,0.14593
5419.77,0.14717
5413.99,0.15136
5408.2,0.15538
5402.42,0.15926
5396.63,0.16354
5390.84,0.16517
5385.06,0.16594
5379.27,0.16758
5373.48,0.16790
5367.7,0.16961
5361.91,0.17504
5356.13,0.17736
5350.34,0.18067
5344.55,0.18530
5338.77,0.18708
5332.98,0.18880
5327.19,0.18942
5321.41,0.18761
5315.62,0.18467
5309.84,0.18088
5304.05,0.18368
5298.26,0.18338
5292.48,0.18383
5286.69,0.18368
5280.9,0.18312
5275.12,0.18218
5269.33,0.18210
5263.55,0.18219
5257.76,0.18074
5251.97,0.18040
5246.19,0.17933
5240.4,0.17795
5234.61,0.17592
5228.83,0.17593
5223.04,0.17399
5217.26,0.17497
5211.47,0.17514
5205.68,0.17400
5199.9,0.17483
5194.11,0.17168
5188.32,0.17263
5182.54,0.17289
5176.75,0.17230
5170.97,0.17180
5165.18,0.17383
5159.39,0.17349
5153.61,0.17370
5147.82,0.17654
5142.03,0.17775
5136.25,0.17727
5130.46,0.17760
5124.68,0.17680
5118.89,0.17518
5113.1,0.17612
5107.32,0.17555
5101.53,0.17407
5095.75,0.17438
5089.96,0.17638
5084.17,0.17549
5078.39,0.17645
5072.6,0.17843
5066.81,0.17732
5061.03,0.17639
5055.24,0.17951
5049.46,0.18060
5043.67,0.18132
5037.88,0.18125
5032.1,0.17928
5026.31,0.17864
5020.52,0.17714
5014.74,0.17827
5008.95,0.17726
5003.17,0.17412
4997.38,0.17146
4991.59,0.16620
4985.81,0.16372
4980.02,0.16151
4974.23,0.15996
4968.45,0.15697
4962.66,0.15559
4956.88,0.16036
4951.09,0.16496
4945.3,0.16977
4939.52,0.17105
4933.73,0.17201
4927.94,0.17151
4922.16,0.17142
4916.37,0.17116
4910.59,0.16954
4904.8,0.16905
4899.01,0.16805
4893.23,0.16736
4887.44,0.16531
4881.65,0.16429
4875.87,0.16370
4870.08,0.16101
4864.3,0.16309
4858.51,0.16342
4852.72,0.16622
4846.94,0.16907
4841.15,0.17180
4835.36,0.17346
4829.58,0.17483
4823.79,0.17654
4818.01,0.17979
4812.22,0.18178
4806.43,0.18269
4800.65,0.18563
4794.86,0.18594
4789.07,0.18655
4783.29,0.18732
4777.5,0.18922
4771.72,0.19089
4765.93,0.19481
4760.14,0.19751
4754.36,0.19842
4748.57,0.19994
4742.78,0.20170
4737,0.20311
4731.21,0.20257
4725.43,0.20566
4719.64,0.20729
4713.85,0.20926
4708.07,0.21050
4702.28,0.21040
4696.49,0.21052
4690.71,0.21070
4684.92,0.20893
4679.14,0.20546
4673.35,0.20000
4667.56,0.19780
4661.78,0.19940
4655.99,0.20437
4650.2,0.20799
4644.42,0.20860
4638.63,0.20984
4632.85,0.20880
4627.06,0.20847
4621.27,0.20691
4615.49,0.20512
4609.7,0.20479
4603.92,0.20442
4598.13,0.20302
4592.34,0.20132
4586.56,0.20079
4580.77,0.19769
4574.98,0.19667
4569.2,0.19450
4563.41,0.19099
4557.63,0.18684
4551.84,0.18254
4546.05,0.17921
4540.27,0.17455
4534.48,0.17117
4528.69,0.16848
4522.91,0.16430
4517.12,0.16095
4511.34,0.15669
4505.55,0.15290
4499.76,0.14798
4493.98,0.14409
4488.19,0.14023
4482.4,0.13576
4476.62,0.13103
4470.83,0.12709
4465.05,0.12197
4459.26,0.11840
4453.47,0.11360
4447.69,0.10903
4441.9,0.10457
4436.11,0.10025
4430.33,0.09630
4424.54,0.09319
4418.76,0.08841
4412.97,0.08410
4407.18,0.07955
4401.4,0.07490
4395.61,0.07138
4389.82,0.06845
4384.04,0.06721
4378.25,0.06505
4372.47,0.06304
4366.68,0.06252
4360.89,0.06035
4355.11,0.05958
4349.32,0.05843
4343.53,0.05624
4337.75,0.05540
4331.96,0.05432
4326.18,0.05343
4320.39,0.05263
4314.6,0.05472
4308.82,0.05809
4303.03,0.05990
4297.24,0.05968
4291.46,0.05914
4285.67,0.05958
4279.89,0.05889
4274.1,0.05856
4268.31,0.05666
4262.53,0.05572
4256.74,0.05435
4250.95,0.05318
4245.17,0.05498
4239.38,0.05683
4233.6,0.05680
4227.81,0.05624
4222.02,0.05634
4216.24,0.05592
4210.45,0.05639
4204.66,0.05589
4198.88,0.05483
4193.09,0.05451
4187.31,0.05551
4181.52,0.05557
4175.73,0.05522
4169.95,0.05483
4164.16,0.05477
4158.37,0.05471
4152.59,0.05521
4146.8,0.05512
4141.02,0.05498
4135.23,0.05593
4129.44,0.05536
4123.66,0.05533
4117.87,0.05563
4112.09,0.05561
4106.3,0.05480
4100.51,0.05494
4094.73,0.05479
4088.94,0.05582
4083.15,0.05633
4077.37,0.05729
4071.58,0.05758
4065.8,0.05758
4060.01,0.05782
4054.22,0.05824
4048.44,0.05792
4042.65,0.05790
4036.86,0.05823
4031.08,0.05879
4025.29,0.05828
4019.51,0.05856
4013.72,0.06030
4007.93,0.06083
4002.15,0.06117
3996.36,0.06268
3990.57,0.06128
3984.79,0.06003
3979,0.06006
3973.22,0.06049
3967.43,0.06088
3961.64,0.06091
3955.86,0.06128
3950.07,0.06098
3944.28,0.06051
3938.5,0.06032
3932.71,0.05999
3926.93,0.05912
3921.14,0.05967
3915.35,0.05974
3909.57,0.05930
3903.78,0.05975
3897.99,0.05951
3892.21,0.05930
3886.42,0.05994
3880.64,0.05923
3874.85,0.05971
3869.06,0.05969
3863.28,0.06055
3857.49,0.06087
3851.7,0.05962
3845.92,0.06054
3840.13,0.06096
3834.35,0.06010
3828.56,0.06057
3822.77,0.06002
3816.99,0.05968
3811.2,0.06000
3805.41,0.06070
3799.63,0.06148
3793.84,0.06201
3788.06,0.06167
3782.27,0.06206
3776.48,0.06221
3770.7,0.06293
3764.91,0.06314
3759.12,0.06323
3753.34,0.06360
3747.55,0.06347
3741.77,0.06365
3735.98,0.06358
3730.19,0.06240
3724.41,0.06248
3718.62,0.06229
3712.83,0.06196
3707.05,0.06106
3701.26,0.05956
3695.48,0.05894
3689.69,0.05895
3683.9,0.05922
3678.12,0.05895
3672.33,0.05943
3666.54,0.05901
3660.76,0.05868
3654.97,0.05800
3649.19,0.05682
3643.4,0.05651
3637.61,0.05728
3631.83,0.05845
3626.04,0.05865
3620.25,0.05733
3614.47,0.05603
3608.68,0.05418
3602.9,0.05493
3597.11,0.05663
3591.32,0.05933
3585.54,0.06133
3579.75,0.06209
3573.97,0.06271
3568.18,0.06337
3562.39,0.06421
3556.61,0.06489
3550.82,0.06553
3545.03,0.06648
3539.25,0.06553
3533.46,0.06589
3527.68,0.06495
3521.89,0.06584
3516.1,0.06538
3510.32,0.06513
3504.53,0.06503
3498.74,0.06417
3492.96,0.06373
3487.17,0.06429
3481.39,0.06324
3475.6,0.06283
3469.81,0.06316
3464.03,0.06203
3458.24,0.06126
3452.45,0.06099
3446.67,0.06051
3440.88,0.06074
3435.1,0.06056
3429.31,0.05952
3423.52,0.05964
3417.74,0.05999
3411.95,0.06040
3406.16,0.05967
3400.38,0.05960
3394.59,0.05993
3388.81,0.05953
3383.02,0.05933
3377.23,0.05847
3371.45,0.05837
3365.66,0.05913
3359.87,0.05964
3354.09,0.06028
3348.3,0.06038
3342.52,0.06065
3336.73,0.06115
3330.94,0.06096
3325.16,0.06079
3319.37,0.06098
3313.58,0.06229
3307.8,0.06185
3302.01,0.06215
3296.23,0.06221
3290.44,0.06213
3284.65,0.06271
3278.87,0.06262
3273.08,0.06287
3267.29,0.06221
3261.51,0.06245
3255.72,0.06317
3249.94,0.06290
3244.15,0.06152
3238.36,0.06223
3232.58,0.06244
3226.79,0.06162
3221,0.06068
3215.22,0.06103
3209.43,0.06129
3203.65,0.06004
3197.86,0.05995
3192.07,0.06014
3186.29,0.05951
3180.5,0.05885
3174.71,0.05824
3168.93,0.05852
3163.14,0.05798
3157.36,0.05758
3151.57,0.05787
3145.78,0.05753
3140,0.05709
3134.21,0.05634
3128.42,0.05519
3122.64,0.05476
3116.85,0.05402
3111.07,0.05364
3105.28,0.05297
3099.49,0.05194
3093.71,0.05097
3087.92,0.05090
3082.14,0.05028
3076.35,0.05016
3070.56,0.05026
3064.78,0.04984
3058.99,0.04956
3053.2,0.04981
3047.42,0.04911
3041.63,0.04845
3035.85,0.04853
3030.06,0.04852
3024.27,0.04765
3018.49,0.04780
3012.7,0.04770
3006.91,0.04724
3001.13,0.04674
2995.34,0.04612
2989.56,0.04563
2983.77,0.04534
2977.98,0.04478
2972.2,0.04394
2966.41,0.04348
2960.62,0.04238
2954.84,0.04088
2949.05,0.03965
2943.27,0.03670
2937.48,0.03422
2931.69,0.03295
2925.91,0.03807
2920.12,0.06016
2914.33,0.08001
2908.55,0.06966
2902.76,0.06292
2896.98,0.05993
2891.19,0.05814
2885.4,0.05745
2879.62,0.05569
2873.83,0.05427
2868.04,0.05175
2862.26,0.04850
2856.47,0.04505
2850.69,0.05615
2844.9,0.07130
2839.11,0.06577
2833.33,0.06179
2827.54,0.06014
2821.75,0.05915
2815.97,0.05850
2810.18,0.05743
2804.4,0.05770
2798.61,0.05736
2792.82,0.05644
2787.04,0.05589
2781.25,0.05580
2775.46,0.05633
2769.68,0.05556
2763.89,0.05544
2758.11,0.05535
2752.32,0.05522
2746.53,0.05500
2740.75,0.05494
2734.96,0.05484
2729.17,0.05528
2723.39,0.05490
2717.6,0.05446
2711.82,0.05475
2706.03,0.05436
2700.24,0.05454
2694.46,0.05444
2688.67,0.05446
2682.88,0.05436
2677.1,0.05429
2671.31,0.05448
2665.53,0.05458
2659.74,0.05405
2653.95,0.05425
2648.17,0.05368
2642.38,0.05371
2636.59,0.05379
2630.81,0.05418
2625.02,0.05434
2619.24,0.05397
2613.45,0.05382
2607.66,0.05368
2601.88,0.05400
2596.09,0.05378
2590.3,0.05401
2584.52,0.05413
2578.73,0.05401
2572.95,0.05461
2567.16,0.05448
2561.37,0.05437
2555.59,0.05459
2549.8,0.05452
2544.02,0.05471
2538.23,0.05476
2532.44,0.05484
2526.66,0.05496
2520.87,0.05473
2515.08,0.05511
2509.3,0.05526
2503.51,0.05556
2497.73,0.05538
2491.94,0.05562
2486.15,0.05585
2480.37,0.05576
2474.58,0.05582
2468.79,0.05686
2463.01,0.05830
2457.22,0.05950
2451.44,0.05963
2445.65,0.05958
2439.86,0.05953
2434.08,0.05847
2428.29,0.05796
2422.5,0.05633
2416.72,0.05579
2410.93,0.05619
2405.15,0.05715
2399.36,0.05750
2393.57,0.05775
2387.79,0.05775
2382,0.05786
2376.21,0.05789
2370.43,0.05732
2364.64,0.05685
2358.86,0.05505
2353.07,0.05418
2347.28,0.05378
2341.5,0.05388
2335.71,0.05373
2329.92,0.05360
2324.14,0.05372
2318.35,0.05389
2312.57,0.05439
2306.78,0.05455
2300.99,0.05485
2295.21,0.05513
2289.42,0.05495
2283.63,0.05564
2277.85,0.05569
2272.06,0.05597
2266.28,0.05784
2260.49,0.05896
2254.7,0.05928
2248.92,0.05827
2243.13,0.05735
2237.34,0.06094
2231.56,0.06540
2225.77,0.06464
2219.99,0.06402
2214.2,0.06621
2208.41,0.06680
2202.63,0.06654
2196.84,0.06582
2191.05,0.06534
2185.27,0.06488
2179.48,0.06496
2173.7,0.06471
2167.91,0.06395
2162.12,0.06176
2156.34,0.05976
2150.55,0.05937
2144.76,0.05950
2138.98,0.06176
2133.19,0.06589
2127.41,0.06940
2121.62,0.07194
2115.83,0.07290
2110.05,0.07338
2104.26,0.07326
2098.47,0.07338
2092.69,0.07242
2086.9,0.07126
2081.12,0.06983
2075.33,0.06827
2069.54,0.06586
2063.76,0.06412
2057.97,0.06248
2052.19,0.06008
2046.4,0.05841
2040.61,0.05656
2034.83,0.05529
2029.04,0.05410
2023.25,0.05361
2017.47,0.05362
2011.68,0.05533
2005.9,0.06035
2000.11,0.06616
1994.32,0.07027
1988.54,0.07268
1982.75,0.07362
1976.96,0.07381
1971.18,0.07240
1965.39,0.06988
1959.61,0.06792
1953.82,0.06791
1948.03,0.06796
1942.25,0.06811
1936.46,0.06655
1930.67,0.06545
1924.89,0.06380
1919.1,0.06213
1913.32,0.05971
1907.53,0.05746
1901.74,0.05532
1895.96,0.05436
1890.17,0.05758
1884.38,0.06631
1878.6,0.07424
1872.81,0.08025
1867.03,0.08547
1861.24,0.08889
1855.45,0.09153
1849.67,0.09351
1843.88,0.09321
1838.09,0.09027
1832.31,0.08709
1826.52,0.07796
1820.74,0.06697
1814.95,0.06834
1809.16,0.07155
1803.38,0.07293
1797.59,0.07255
1791.8,0.07391
1786.02,0.07588
1780.23,0.07625
1774.45,0.07523
1768.66,0.07247
1762.87,0.06998
1757.09,0.06451
1751.3,0.05956
1745.51,0.05613
1739.73,0.05584
1733.94,0.05870
1728.16,0.06000
1722.37,0.06052
1716.58,0.06085
1710.8,0.06146
1705.01,0.06194
1699.22,0.06142
1693.44,0.06147
1687.65,0.06123
1681.87,0.06012
1676.08,0.06002
1670.29,0.05890
1664.51,0.05817
1658.72,0.05734
1652.93,0.05649
1647.15,0.05565
1641.36,0.05424
1635.58,0.05416
1629.79,0.05412
1624,0.05389
1618.22,0.05387
1612.43,0.05367
1606.64,0.05359
1600.86,0.05341
1595.07,0.05365
1589.29,0.05344
1583.5,0.05325
1577.71,0.05300
1571.93,0.05298
1566.14,0.05301
1560.35,0.05355
1554.57,0.05251
1548.78,0.05267
1543,0.05214
1537.21,0.05182
1531.42,0.05196
1525.64,0.05199
1519.85,0.05130
1514.07,0.05091
1508.28,0.05119
1502.49,0.05108
1496.71,0.05115
1490.92,0.05112
1485.13,0.04999
1479.35,0.04801
1473.56,0.04905
1467.78,0.05265
1461.99,0.05468
1456.2,0.05597
1450.42,0.05484
1444.63,0.05467
1438.84,0.05478
1433.06,0.05425
1427.27,0.05439
1421.49,0.05427
1415.7,0.05424
1409.91,0.05384
1404.13,0.05374
1398.34,0.05320
1392.55,0.05332
1386.77,0.05339
1380.98,0.05298
1375.2,0.05305
1369.41,0.05333
1363.62,0.05304
1357.84,0.05287
1352.05,0.05327
1346.26,0.05366
1340.48,0.05318
1334.69,0.05306
1328.91,0.05277
1323.12,0.05344
1317.33,0.05329
1311.55,0.05301
1305.76,0.05290
1299.97,0.05319
1294.19,0.05321
1288.4,0.05310
1282.62,0.05287
1276.83,0.05298
1271.04,0.05299
1265.26,0.05312
1259.47,0.05327
1253.68,0.05326
1247.9,0.05364
1242.11,0.05306
1236.33,0.05306
1230.54,0.05355
1224.75,0.05311
1218.97,0.05364
1213.18,0.05300
1207.39,0.05290
1201.61,0.05295
1195.82,0.05287
1190.04,0.05275
1184.25,0.05259
1178.46,0.05268
1172.68,0.05256
1166.89,0.05301
1161.1,0.05259
1155.32,0.05249
1149.53,0.05257
1143.75,0.05279
1137.96,0.05271
1132.17,0.05214
1126.39,0.05234
1120.6,0.05253
1114.81,0.05289
1109.03,0.05254
1103.24,0.05281
1097.46,0.05327
1091.67,0.05289
1085.88,0.05315
1080.1,0.05304
1074.31,0.05300
1068.52,0.05339
1062.74,0.05266
1056.95,0.05363
1051.17,0.05318
1045.38,0.05408
1039.59,0.05377
1033.81,0.05391
1028.02,0.05366
1022.24,0.05423
1016.45,0.05380
1010.66,0.05413
1004.88,0.05367
999.09,0.05338
993.304,0.05366
987.518,0.05398
981.731,0.05395
975.945,0.05327
970.159,0.05310
964.373,0.05354
958.586,0.05398
952.8,0.05381
947.014,0.05391
941.228,0.05414
935.441,0.05336
929.655,0.05342
923.869,0.05327
918.083,0.05343
912.297,0.05227
906.51,0.05345
900.724,0.05351
894.938,0.05313
889.152,0.05323
883.365,0.05276
877.579,0.05252
871.793,0.05274
866.007,0.05316
860.22,0.05301
854.434,0.05281
848.648,0.05205
842.862,0.05262
837.075,0.05247
831.289,0.05223
825.503,0.05221
819.717,0.05247
813.931,0.05249
808.144,0.05263
802.358,0.05301
796.572,0.05221
790.786,0.05249
784.999,0.05268
779.213,0.05201
773.427,0.05207
767.641,0.05225
761.854,0.05199
756.068,0.05117
750.282,0.05035
744.496,0.04977
738.709,0.04928
732.923,0.04718
727.137,0.05171
721.351,0.05137
715.565,0.05923
709.778,0.05673
703.992,0.05456
698.206,0.05534
692.42,0.05454
686.633,0.05457
680.847,0.05353
675.061,0.05327
669.275,0.05303
663.488,0.05290
657.702,0.05172
651.916,0.05393
646.13,0.05244
640.343,0.05110
634.557,0.05149
628.771,0.05234
622.985,0.05235
617.198,0.05143
611.412,0.05223
605.626,0.05399
599.84,0.05301