File: 01_Data/PlasticC/FTIR/IS/PlasticC_IS_S_220907_R5.dpt
7497.03,0.82845
7491.25,0.83785
7485.46,0.83149
7479.67,0.82739
7473.89,0.82760
7468.1,0.82887
7462.32,0.82425
7456.53,0.81987
7450.74,0.81102
7444.96,0.79728
7439.17,0.81855
7433.38,0.81000
7427.6,0.80510
7421.81,0.81387
7416.03,0.80438
7410.24,0.81248
7404.45,0.80857
7398.67,0.79533
7392.88,0.79442
7387.09,0.80274
7381.31,0.80337
7375.52,0.80594
7369.74,0.81481
7363.95,0.80833
7358.16,0.81209
7352.38,0.80876
7346.59,0.80830
7340.8,0.80620
7335.02,0.80506
7329.23,0.78766
7323.45,0.78353
7317.66,0.78907
7311.87,0.77788
7306.09,0.79010
7300.3,0.77965
7294.51,0.77571
7288.73,0.75311
7282.94,0.75161
7277.16,0.75889
7271.37,0.75438
7265.58,0.74624
7259.8,0.75075
7254.01,0.74496
7248.22,0.72998
7242.44,0.73030
7236.65,0.73157
7230.87,0.72822
7225.08,0.72375
7219.29,0.72351
7213.51,0.71593
7207.72,0.70951
7201.93,0.71089
7196.15,0.70326
7190.36,0.70277
7184.58,0.69808
7178.79,0.69703
7173,0.69958
7167.22,0.69989
7161.43,0.69763
7155.65,0.69507
7149.86,0.69652
7144.07,0.69876
7138.29,0.70210
7132.5,0.69631
7126.71,0.69847
7120.93,0.69490
7115.14,0.68482
7109.36,0.69095
7103.57,0.68853
7097.78,0.68683
7092,0.67819
7086.21,0.67658
7080.42,0.66687
7074.64,0.66961
7068.85,0.66821
7063.07,0.67118
7057.28,0.68114
7051.49,0.67864
7045.71,0.68740
7039.92,0.68949
7034.13,0.69538
7028.35,0.68760
7022.56,0.69611
7016.78,0.68777
7010.99,0.69355
7005.2,0.69485
6999.42,0.69838
6993.63,0.69106
6987.84,0.68631
6982.06,0.68913
6976.27,0.69169
6970.49,0.69444
6964.7,0.69124
6958.91,0.69560
6953.13,0.70035
6947.34,0.69740
6941.55,0.70060
6935.77,0.70068
6929.98,0.70224
6924.2,0.70838
6918.41,0.70434
6912.62,0.70821
6906.84,0.71138
6901.05,0.71241
6895.26,0.72112
6889.48,0.71974
6883.69,0.71660
6877.91,0.71673
6872.12,0.72509
6866.33,0.72949
6860.55,0.72628
6854.76,0.73145
6848.97,0.72764
6843.19,0.72964
6837.4,0.73228
6831.62,0.74114
6825.83,0.73141
6820.04,0.73395
6814.26,0.73346
6808.47,0.73603
6802.68,0.74042
6796.9,0.72917
6791.11,0.74129
6785.33,0.74018
6779.54,0.74377
6773.75,0.73768
6767.97,0.74359
6762.18,0.74297
6756.39,0.74275
6750.61,0.74499
6744.82,0.74626
6739.04,0.75072
6733.25,0.74790
6727.46,0.74933
6721.68,0.75065
6715.89,0.74749
6710.1,0.74777
6704.32,0.75001
6698.53,0.75559
6692.75,0.75461
6686.96,0.75496
6681.17,0.75910
6675.39,0.75855
6669.6,0.76344
6663.82,0.76390
6658.03,0.76548
6652.24,0.76988
6646.46,0.76662
6640.67,0.76490
6634.88,0.76953
6629.1,0.77397
6623.31,0.77009
6617.53,0.77093
6611.74,0.77395
6605.95,0.77720
6600.17,0.77497
6594.38,0.77881
6588.59,0.78140
6582.81,0.78224
6577.02,0.78019
6571.24,0.78283
6565.45,0.78121
6559.66,0.78067
6553.88,0.78234
6548.09,0.78701
6542.3,0.78546
6536.52,0.78819
6530.73,0.78609
6524.95,0.78558
6519.16,0.79065
6513.37,0.79403
6507.59,0.79567
6501.8,0.79505
6496.01,0.79106
6490.23,0.79717
6484.44,0.80008
6478.66,0.80227
6472.87,0.79864
6467.08,0.80009
6461.3,0.80121
6455.51,0.80271
6449.72,0.80656
6443.94,0.80362
6438.15,0.80880
6432.37,0.80218
6426.58,0.80520
6420.79,0.80624
6415.01,0.80709
6409.22,0.80204
6403.43,0.80386
6397.65,0.80135
6391.86,0.79759
6386.08,0.79682
6380.29,0.79955
6374.5,0.79374
6368.72,0.78961
6362.93,0.78801
6357.14,0.78254
6351.36,0.78740
6345.57,0.78880
6339.79,0.78685
6334,0.78430
6328.21,0.78157
6322.43,0.77652
6316.64,0.78160
6310.85,0.77482
6305.07,0.77149
6299.28,0.76790
6293.5,0.76635
6287.71,0.76594
6281.92,0.76870
6276.14,0.77028
6270.35,0.76557
6264.56,0.76053
6258.78,0.75941
6252.99,0.75224
6247.21,0.74291
6241.42,0.74190
6235.63,0.73767
6229.85,0.73285
6224.06,0.72255
6218.27,0.71967
6212.49,0.71302
6206.7,0.70541
6200.92,0.69597
6195.13,0.68844
6189.34,0.67610
6183.56,0.66515
6177.77,0.65349
6171.98,0.63112
6166.2,0.61207
6160.41,0.58995
6154.63,0.56521
6148.84,0.53955
6143.05,0.51787
6137.27,0.50744
6131.48,0.49586
6125.7,0.47585
6119.91,0.45689
6114.12,0.44193
6108.34,0.43756
6102.55,0.44016
6096.76,0.44615
6090.98,0.44656
6085.19,0.43994
6079.41,0.43144
6073.62,0.43005
6067.83,0.43844
6062.05,0.46358
6056.26,0.48064
6050.47,0.48278
6044.69,0.47224
6038.9,0.45048
6033.12,0.42828
6027.33,0.39828
6021.54,0.36604
6015.76,0.33723
6009.97,0.31211
6004.18,0.28439
5998.4,0.26629
5992.61,0.24978
5986.83,0.23476
5981.04,0.22033
5975.25,0.20713
5969.47,0.19858
5963.68,0.19593
5957.89,0.19405
5952.11,0.19353
5946.32,0.19278
5940.54,0.19601
5934.75,0.20100
5928.96,0.20737
5923.18,0.21075
5917.39,0.21120
5911.6,0.21657
5905.82,0.22018
5900.03,0.22278
5894.25,0.23067
5888.46,0.23904
5882.67,0.25538
5876.89,0.26935
5871.1,0.28011
5865.31,0.29164
5859.53,0.29859
5853.74,0.29929
5847.96,0.30058
5842.17,0.30118
5836.38,0.30129
5830.6,0.30356
5824.81,0.30505
5819.02,0.30660
5813.24,0.30532
5807.45,0.30469
5801.67,0.30184
5795.88,0.30273
5790.09,0.30497
5784.31,0.30930
5778.52,0.32259
5772.73,0.33419
5766.95,0.34946
5761.16,0.36752
5755.38,0.38126
5749.59,0.39535
5743.8,0.40056
5738.02,0.40769
5732.23,0.40527
5726.44,0.39815
5720.66,0.38600
5714.87,0.37131
5709.09,0.35828
5703.3,0.35207
5697.51,0.34672
5691.73,0.34104
5685.94,0.33877
5680.15,0.33282
5674.37,0.32730
5668.58,0.32215
5662.8,0.32563
5657.01,0.33241
5651.22,0.34101
5645.44,0.35248
5639.65,0.36330
5633.87,0.37055
5628.08,0.37822
5622.29,0.38583
5616.51,0.38885
5610.72,0.38769
5604.93,0.39123
5599.15,0.38874
5593.36,0.38650
5587.58,0.38135
5581.79,0.38187
5576,0.38785
5570.22,0.39441
5564.43,0.39453
5558.64,0.39548
5552.86,0.39381
5547.07,0.39528
5541.29,0.39542
5535.5,0.39382
5529.71,0.39348
5523.93,0.39554
5518.14,0.39576
5512.35,0.39795
5506.57,0.39893
5500.78,0.40186
5495,0.40766
5489.21,0.41149
5483.42,0.41546
5477.64,0.41960
5471.85,0.42117
5466.06,0.42184
5460.28,0.42173
5454.49,0.42387
5448.71,0.42378
5442.92,0.42021
5437.13,0.41882
5431.35,0.41989
5425.56,0.41857
5419.77,0.41873
5413.99,0.41771
5408.2,0.41608
5402.42,0.41629
5396.63,0.41412
5390.84,0.41189
5385.06,0.41079
5379.27,0.40957
5373.48,0.40845
5367.7,0.41167
5361.91,0.41511
5356.13,0.41760
5350.34,0.41879
5344.55,0.42573
5338.77,0.42887
5332.98,0.43417
5327.19,0.43489
5321.41,0.43715
5315.62,0.44110
5309.84,0.44133
5304.05,0.44241
5298.26,0.44185
5292.48,0.44177
5286.69,0.44336
5280.9,0.44426
5275.12,0.44561
5269.33,0.44688
5263.55,0.44665
5257.76,0.44535
5251.97,0.44441
5246.19,0.44463
5240.4,0.44374
5234.61,0.44263
5228.83,0.44277
5223.04,0.44429
5217.26,0.44931
5211.47,0.45040
5205.68,0.45348
5199.9,0.45554
5194.11,0.45578
5188.32,0.45618
5182.54,0.45724
5176.75,0.45782
5170.97,0.45798
5165.18,0.45748
5159.39,0.45999
5153.61,0.45954
5147.82,0.45900
5142.03,0.45837
5136.25,0.45496
5130.46,0.45385
5124.68,0.45397
5118.89,0.45474
5113.1,0.45593
5107.32,0.45578
5101.53,0.45695
5095.75,0.45882
5089.96,0.45953
5084.17,0.45938
5078.39,0.46079
5072.6,0.46161
5066.81,0.46145
5061.03,0.46122
5055.24,0.46048
5049.46,0.46027
5043.67,0.45950
5037.88,0.45846
5032.1,0.46055
5026.31,0.46079
5020.52,0.46005
5014.74,0.46131
5008.95,0.46168
5003.17,0.45961
4997.38,0.45680
4991.59,0.45515
4985.81,0.45141
4980.02,0.44996
4974.23,0.45015
4968.45,0.45138
4962.66,0.45177
4956.88,0.45227
4951.09,0.45065
4945.3,0.45026
4939.52,0.45034
4933.73,0.45012
4927.94,0.45155
4922.16,0.45054
4916.37,0.45168
4910.59,0.45124
4904.8,0.44978
4899.01,0.44879
4893.23,0.44603
4887.44,0.44389
4881.65,0.44157
4875.87,0.43840
4870.08,0.43619
4864.3,0.43386
4858.51,0.43373
4852.72,0.43192
4846.94,0.42781
4841.15,0.42323
4835.36,0.42016
4829.58,0.41972
4823.79,0.42024
4818.01,0.42138
4812.22,0.42303
4806.43,0.42467
4800.65,0.42387
4794.86,0.42038
4789.07,0.41663
4783.29,0.41191
4777.5,0.40494
4771.72,0.39301
4765.93,0.38201
4760.14,0.37618
4754.36,0.37627
4748.57,0.37553
4742.78,0.37099
4737,0.36448
4731.21,0.35538
4725.43,0.34065
4719.64,0.32237
4713.85,0.30365
4708.07,0.29173
4702.28,0.28375
4696.49,0.27348
4690.71,0.25531
4684.92,0.22545
4679.14,0.18623
4673.35,0.15273
4667.56,0.13288
4661.78,0.13040
4655.99,0.13867
4650.2,0.15337
4644.42,0.16201
4638.63,0.15707
4632.85,0.14508
4627.06,0.13600
4621.27,0.13280
4615.49,0.13097
4609.7,0.12764
4603.92,0.12950
4598.13,0.14364
4592.34,0.16147
4586.56,0.17185
4580.77,0.16932
4574.98,0.15174
4569.2,0.14729
4563.41,0.16939
4557.63,0.19176
4551.84,0.20909
4546.05,0.22762
4540.27,0.23764
4534.48,0.23822
4528.69,0.24060
4522.91,0.24376
4517.12,0.24190
4511.34,0.23991
4505.55,0.23638
4499.76,0.23777
4493.98,0.24978
4488.19,0.25217
4482.4,0.25116
4476.62,0.25378
4470.83,0.26185
4465.05,0.26809
4459.26,0.27157
4453.47,0.26733
4447.69,0.25754
4441.9,0.24693
4436.11,0.24564
4430.33,0.24680
4424.54,0.24210
4418.76,0.23407
4412.97,0.22671
4407.18,0.21785
4401.4,0.20983
4395.61,0.20049
4389.82,0.19044
4384.04,0.18012
4378.25,0.17056
4372.47,0.16160
4366.68,0.15176
4360.89,0.14347
4355.11,0.13549
4349.32,0.13078
4343.53,0.12585
4337.75,0.12217
4331.96,0.11963
4326.18,0.12097
4320.39,0.12580
4314.6,0.13294
4308.82,0.13893
4303.03,0.13998
4297.24,0.13814
4291.46,0.13589
4285.67,0.13177
4279.89,0.12605
4274.1,0.12072
4268.31,0.11514
4262.53,0.10922
4256.74,0.10619
4250.95,0.10466
4245.17,0.10466
4239.38,0.10528
4233.6,0.10785
4227.81,0.10805
4222.02,0.10922
4216.24,0.10946
4210.45,0.10897
4204.66,0.10975
4198.88,0.11173
4193.09,0.11553
4187.31,0.11720
4181.52,0.11935
4175.73,0.12055
4169.95,0.12320
4164.16,0.12557
4158.37,0.12535
4152.59,0.12619
4146.8,0.12636
4141.02,0.12405
4135.23,0.12247
4129.44,0.11987
4123.66,0.11747
4117.87,0.11457
4112.09,0.11301
4106.3,0.11073
4100.51,0.10979
4094.73,0.10736
4088.94,0.10412
4083.15,0.09963
4077.37,0.09398
4071.58,0.08904
4065.8,0.08502
4060.01,0.08271
4054.22,0.08159
4048.44,0.08158
4042.65,0.08129
4036.86,0.08043
4031.08,0.08302
4025.29,0.08723
4019.51,0.09500
4013.72,0.10421
4007.93,0.10903
4002.15,0.10909
3996.36,0.11164
3990.57,0.11803
3984.79,0.12104
3979,0.12102
3973.22,0.12169
3967.43,0.12334
3961.64,0.12505
3955.86,0.12560
3950.07,0.12601
3944.28,0.12454
3938.5,0.12282
3932.71,0.12360
3926.93,0.12481
3921.14,0.12547
3915.35,0.12671
3909.57,0.12696
3903.78,0.12867
3897.99,0.12882
3892.21,0.12907
3886.42,0.13061
3880.64,0.13193
3874.85,0.13166
3869.06,0.13120
3863.28,0.13107
3857.49,0.13216
3851.7,0.13084
3845.92,0.13013
3840.13,0.12897
3834.35,0.12661
3828.56,0.12505
3822.77,0.12297
3816.99,0.12197
3811.2,0.12212
3805.41,0.12225
3799.63,0.12225
3793.84,0.12565
3788.06,0.12894
3782.27,0.13156
3776.48,0.13216
3770.7,0.13151
3764.91,0.12920
3759.12,0.13075
3753.34,0.13454
3747.55,0.13663
3741.77,0.13776
3735.98,0.13624
3730.19,0.13379
3724.41,0.12792
3718.62,0.12656
3712.83,0.13014
3707.05,0.12749
3701.26,0.12054
3695.48,0.12176
3689.69,0.12382
3683.9,0.12190
3678.12,0.11882
3672.33,0.11883
3666.54,0.11799
3660.76,0.11469
3654.97,0.10746
3649.19,0.09984
3643.4,0.10025
3637.61,0.11234
3631.83,0.12035
3626.04,0.11642
3620.25,0.11129
3614.47,0.12069
3608.68,0.13451
3602.9,0.14039
3597.11,0.14119
3591.32,0.14145
3585.54,0.14285
3579.75,0.14616
3573.97,0.15151
3568.18,0.15508
3562.39,0.15580
3556.61,0.15527
3550.82,0.15562
3545.03,0.15335
3539.25,0.15209
3533.46,0.15071
3527.68,0.14941
3521.89,0.14790
3516.1,0.14636
3510.32,0.14510
3504.53,0.14420
3498.74,0.14206
3492.96,0.14027
3487.17,0.13684
3481.39,0.13528
3475.6,0.13247
3469.81,0.13126
3464.03,0.12958
3458.24,0.12847
3452.45,0.12713
3446.67,0.12389
3440.88,0.12165
3435.1,0.12423
3429.31,0.12836
3423.52,0.13191
3417.74,0.13253
3411.95,0.13478
3406.16,0.13556
3400.38,0.13674
3394.59,0.13661
3388.81,0.13746
3383.02,0.13810
3377.23,0.13891
3371.45,0.14098
3365.66,0.14303
3359.87,0.14248
3354.09,0.14159
3348.3,0.14018
3342.52,0.13951
3336.73,0.13825
3330.94,0.13602
3325.16,0.13486
3319.37,0.13379
3313.58,0.13171
3307.8,0.12760
3302.01,0.12138
3296.23,0.12097
3290.44,0.12401
3284.65,0.12551
3278.87,0.12510
3273.08,0.12430
3267.29,0.12405
3261.51,0.12279
3255.72,0.12149
3249.94,0.12035
3244.15,0.11965
3238.36,0.11855
3232.58,0.11677
3226.79,0.11427
3221,0.11254
3215.22,0.10949
3209.43,0.10571
3203.65,0.10132
3197.86,0.09900
3192.07,0.09834
3186.29,0.09747
3180.5,0.09562
3174.71,0.09330
3168.93,0.08751
3163.14,0.08124
3157.36,0.08326
3151.57,0.08556
3145.78,0.08497
3140,0.08394
3134.21,0.08174
3128.42,0.07905
3122.64,0.07611
3116.85,0.07194
3111.07,0.06841
3105.28,0.06584
3099.49,0.06594
3093.71,0.06599
3087.92,0.06380
3082.14,0.06422
3076.35,0.06460
3070.56,0.06448
3064.78,0.06381
3058.99,0.06461
3053.2,0.06530
3047.42,0.06539
3041.63,0.06449
3035.85,0.06354
3030.06,0.06271
3024.27,0.06520
3018.49,0.06746
3012.7,0.06719
3006.91,0.06614
3001.13,0.06658
2995.34,0.06660
2989.56,0.06672
2983.77,0.06611
2977.98,0.06563
2972.2,0.06566
2966.41,0.06525
2960.62,0.06504
2954.84,0.06471
2949.05,0.06386
2943.27,0.06328
2937.48,0.06321
2931.69,0.06425
2925.91,0.06656
2920.12,0.06933
2914.33,0.06908
2908.55,0.06925
2902.76,0.06940
2896.98,0.06888
2891.19,0.06832
2885.4,0.06796
2879.62,0.06742
2873.83,0.06774
2868.04,0.06843
2862.26,0.06825
2856.47,0.06786
2850.69,0.06850
2844.9,0.06911
2839.11,0.06879
2833.33,0.06874
2827.54,0.06921
2821.75,0.06957
2815.97,0.07046
2810.18,0.07064
2804.4,0.07103
2798.61,0.07165
2792.82,0.07199
2787.04,0.07291
2781.25,0.07244
2775.46,0.07374
2769.68,0.07511
2763.89,0.07580
2758.11,0.07625
2752.32,0.07649
2746.53,0.07676
2740.75,0.07680
2734.96,0.07553
2729.17,0.07546
2723.39,0.07502
2717.6,0.07491
2711.82,0.07541
2706.03,0.07508
2700.24,0.07550
2694.46,0.07489
2688.67,0.07456
2682.88,0.07433
2677.1,0.07483
2671.31,0.07509
2665.53,0.07484
2659.74,0.07464
2653.95,0.07450
2648.17,0.07434
2642.38,0.07429
2636.59,0.07373
2630.81,0.07274
2625.02,0.07431
2619.24,0.07523
2613.45,0.07494
2607.66,0.07398
2601.88,0.07320
2596.09,0.07422
2590.3,0.07541
2584.52,0.07455
2578.73,0.07446
2572.95,0.07614
2567.16,0.07637
2561.37,0.07630
2555.59,0.07634
2549.8,0.07569
2544.02,0.07610
2538.23,0.07631
2532.44,0.07649
2526.66,0.07624
2520.87,0.07581
2515.08,0.07536
2509.3,0.07514
2503.51,0.07541
2497.73,0.07637
2491.94,0.07668
2486.15,0.07748
2480.37,0.07791
2474.58,0.07931
2468.79,0.08042
2463.01,0.08123
2457.22,0.08154
2451.44,0.08088
2445.65,0.08154
2439.86,0.08158
2434.08,0.08178
2428.29,0.08220
2422.5,0.08274
2416.72,0.08273
2410.93,0.08198
2405.15,0.08112
2399.36,0.08010
2393.57,0.08025
2387.79,0.07985
2382,0.07912
2376.21,0.07877
2370.43,0.07810
2364.64,0.07667
2358.86,0.07611
2353.07,0.07630
2347.28,0.07515
2341.5,0.07278
2335.71,0.07124
2329.92,0.07402
2324.14,0.07706
2318.35,0.07575
2312.57,0.07320
2306.78,0.07457
2300.99,0.07732
2295.21,0.07758
2289.42,0.07836
2283.63,0.07964
2277.85,0.08056
2272.06,0.07999
2266.28,0.07897
2260.49,0.07812
2254.7,0.07716
2248.92,0.07797
2243.13,0.07935
2237.34,0.08045
2231.56,0.08099
2225.77,0.08147
2219.99,0.08190
2214.2,0.08169
2208.41,0.08177
2202.63,0.08231
2196.84,0.08263
2191.05,0.08173
2185.27,0.08113
2179.48,0.08182
2173.7,0.08334
2167.91,0.08427
2162.12,0.08455
2156.34,0.08473
2150.55,0.08496
2144.76,0.08495
2138.98,0.08584
2133.19,0.08664
2127.41,0.08722
2121.62,0.08711
2115.83,0.08674
2110.05,0.08697
2104.26,0.08770
2098.47,0.08846
2092.69,0.08871
2086.9,0.08892
2081.12,0.08832
2075.33,0.08743
2069.54,0.08651
2063.76,0.08606
2057.97,0.08577
2052.19,0.08598
2046.4,0.08584
2040.61,0.08456
2034.83,0.08322
2029.04,0.08246
2023.25,0.08216
2017.47,0.08147
2011.68,0.07962
2005.9,0.07829
2000.11,0.07707
1994.32,0.07457
1988.54,0.07128
1982.75,0.07034
1976.96,0.07037
1971.18,0.06850
1965.39,0.06682
1959.61,0.06628
1953.82,0.06582
1948.03,0.06604
1942.25,0.06593
1936.46,0.06631
1930.67,0.06696
1924.89,0.06775
1919.1,0.06906
1913.32,0.06992
1907.53,0.07000
1901.74,0.06891
1895.96,0.06739
1890.17,0.06629
1884.38,0.06602
1878.6,0.06600
1872.81,0.06585
1867.03,0.06579
1861.24,0.06644
1855.45,0.06765
1849.67,0.06877
1843.88,0.06989
1838.09,0.06927
1832.31,0.06820
1826.52,0.06671
1820.74,0.06576
1814.95,0.06573
1809.16,0.06555
1803.38,0.06531
1797.59,0.06587
1791.8,0.06648
1786.02,0.06738
1780.23,0.06710
1774.45,0.06682
1768.66,0.06709
1762.87,0.06654
1757.09,0.06558
1751.3,0.06548
1745.51,0.06509
1739.73,0.06552
1733.94,0.06529
1728.16,0.06602
1722.37,0.06636
1716.58,0.06706
1710.8,0.06696
1705.01,0.06666
1699.22,0.06591
1693.44,0.06553
1687.65,0.06555
1681.87,0.06504
1676.08,0.06517
1670.29,0.06478
1664.51,0.06471
1658.72,0.06556
1652.93,0.06601
1647.15,0.06597
1641.36,0.06542
1635.58,0.06577
1629.79,0.06596
1624,0.06550
1618.22,0.06438
1612.43,0.06368
1606.64,0.06234
1600.86,0.06458
1595.07,0.06599
1589.29,0.06519
1583.5,0.06493
1577.71,0.06588
1571.93,0.06586
1566.14,0.06543
1560.35,0.06609
1554.57,0.06497
1548.78,0.06396
1543,0.06437
1537.21,0.06433
1531.42,0.06414
1525.64,0.06392
1519.85,0.06342
1514.07,0.06305
1508.28,0.06275
1502.49,0.06073
1496.71,0.05885
1490.92,0.06699
1485.13,0.06726
1479.35,0.06537
1473.56,0.06473
1467.78,0.06366
1461.99,0.06193
1456.2,0.05942
1450.42,0.06738
1444.63,0.06878
1438.84,0.06854
1433.06,0.06754
1427.27,0.06715
1421.49,0.06684
1415.7,0.06599
1409.91,0.06566
1404.13,0.06535
1398.34,0.06480
1392.55,0.06455
1386.77,0.06396
1380.98,0.06426
1375.2,0.06406
1369.41,0.06475
1363.62,0.06460
1357.84,0.06477
1352.05,0.06488
1346.26,0.06477
1340.48,0.06489
1334.69,0.06443
1328.91,0.06453
1323.12,0.06458
1317.33,0.06507
1311.55,0.06462
1305.76,0.06475
1299.97,0.06520
1294.19,0.06448
1288.4,0.06484
1282.62,0.06488
1276.83,0.06507
1271.04,0.06527
1265.26,0.06522
1259.47,0.06521
1253.68,0.06489
1247.9,0.06485
1242.11,0.06445
1236.33,0.06461
1230.54,0.06470
1224.75,0.06427
1218.97,0.06460
1213.18,0.06416
1207.39,0.06389
1201.61,0.06325
1195.82,0.06339
1190.04,0.06408
1184.25,0.06414
1178.46,0.06424
1172.68,0.06435
1166.89,0.06443
1161.1,0.06476
1155.32,0.06412
1149.53,0.06485
1143.75,0.06571
1137.96,0.06513
1132.17,0.06536
1126.39,0.06503
1120.6,0.06438
1114.81,0.06371
1109.03,0.06374
1103.24,0.06313
1097.46,0.06299
1091.67,0.06276
1085.88,0.06233
1080.1,0.06215
1074.31,0.06241
1068.52,0.06225
1062.74,0.06331
1056.95,0.06356
1051.17,0.06311
1045.38,0.06297
1039.59,0.06238
1033.81,0.06154
1028.02,0.06360
1022.24,0.06467
1016.45,0.06557
1010.66,0.06496
1004.88,0.06490
999.09,0.06444
993.304,0.06384
987.518,0.06315
981.731,0.06343
975.945,0.06312
970.159,0.06346
964.373,0.06328
958.586,0.06323
952.8,0.06324
947.014,0.06292
941.228,0.06314
935.441,0.06293
929.655,0.06242
923.869,0.06229
918.083,0.06200
912.297,0.06096
906.51,0.06270
900.724,0.06306
894.938,0.06280
889.152,0.06207
883.365,0.06090
877.579,0.06189
871.793,0.06184
866.007,0.06090
860.22,0.06121
854.434,0.06107
848.648,0.06070
842.862,0.06021
837.075,0.06000
831.289,0.06062
825.503,0.06005
819.717,0.06054
813.931,0.05894
808.144,0.05877
802.358,0.05753
796.572,0.05795
790.786,0.05617
784.999,0.05453
779.213,0.05297
773.427,0.05185
767.641,0.05253
761.854,0.05511
756.068,0.06004
750.282,0.06339
744.496,0.06680
738.709,0.06517
732.923,0.06133
727.137,0.05826
721.351,0.05465
715.565,0.04921
709.778,0.04142
703.992,0.04675
698.206,0.11174
692.42,0.11103
686.633,0.08667
680.847,0.07835
675.061,0.07450
669.275,0.07302
663.488,0.07079
657.702,0.06997
651.916,0.07106
646.13,0.07045
640.343,0.07001
634.557,0.06827
628.771,0.06688
622.985,0.06783
617.198,0.06426
611.412,0.06514
605.626,0.06864
599.84,0.06790