File: 01_Data/PlasticC/FTIR/IS/PlasticC_IS_S_220907_R8.dpt
7497.03,0.81572
7491.25,0.82696
7485.46,0.82163
7479.67,0.82833
7473.89,0.81890
7468.1,0.81558
7462.32,0.81092
7456.53,0.81145
7450.74,0.80647
7444.96,0.80500
7439.17,0.79786
7433.38,0.79830
7427.6,0.80028
7421.81,0.79949
7416.03,0.79536
7410.24,0.79011
7404.45,0.80478
7398.67,0.78698
7392.88,0.79912
7387.09,0.79539
7381.31,0.79634
7375.52,0.80760
7369.74,0.80308
7363.95,0.80762
7358.16,0.81308
7352.38,0.81238
7346.59,0.80496
7340.8,0.80213
7335.02,0.78920
7329.23,0.79059
7323.45,0.78386
7317.66,0.79033
7311.87,0.78079
7306.09,0.77548
7300.3,0.76590
7294.51,0.75998
7288.73,0.75524
7282.94,0.75042
7277.16,0.75464
7271.37,0.74335
7265.58,0.74746
7259.8,0.74636
7254.01,0.73564
7248.22,0.72909
7242.44,0.72348
7236.65,0.72165
7230.87,0.72044
7225.08,0.71876
7219.29,0.71319
7213.51,0.71599
7207.72,0.70929
7201.93,0.71117
7196.15,0.70631
7190.36,0.69957
7184.58,0.69210
7178.79,0.69469
7173,0.69316
7167.22,0.69395
7161.43,0.69486
7155.65,0.69388
7149.86,0.69854
7144.07,0.70328
7138.29,0.69900
7132.5,0.69682
7126.71,0.69486
7120.93,0.68929
7115.14,0.68710
7109.36,0.68286
7103.57,0.68892
7097.78,0.68452
7092,0.67698
7086.21,0.67103
7080.42,0.67349
7074.64,0.66463
7068.85,0.67334
7063.07,0.67750
7057.28,0.67781
7051.49,0.68097
7045.71,0.67842
7039.92,0.67942
7034.13,0.68705
7028.35,0.68720
7022.56,0.68660
7016.78,0.68653
7010.99,0.69166
7005.2,0.69104
6999.42,0.68876
6993.63,0.68958
6987.84,0.69153
6982.06,0.68400
6976.27,0.68846
6970.49,0.69148
6964.7,0.69087
6958.91,0.68660
6953.13,0.68962
6947.34,0.68907
6941.55,0.69344
6935.77,0.69636
6929.98,0.69883
6924.2,0.69639
6918.41,0.69535
6912.62,0.70671
6906.84,0.70463
6901.05,0.71020
6895.26,0.70929
6889.48,0.71437
6883.69,0.70943
6877.91,0.71232
6872.12,0.71498
6866.33,0.71708
6860.55,0.72386
6854.76,0.72201
6848.97,0.72588
6843.19,0.72164
6837.4,0.72363
6831.62,0.72535
6825.83,0.73074
6820.04,0.73112
6814.26,0.72997
6808.47,0.72988
6802.68,0.72645
6796.9,0.73146
6791.11,0.73057
6785.33,0.73277
6779.54,0.73725
6773.75,0.73502
6767.97,0.73805
6762.18,0.73755
6756.39,0.73454
6750.61,0.73859
6744.82,0.73561
6739.04,0.73732
6733.25,0.74184
6727.46,0.74527
6721.68,0.74177
6715.89,0.74631
6710.1,0.74777
6704.32,0.74836
6698.53,0.74839
6692.75,0.74955
6686.96,0.74922
6681.17,0.75373
6675.39,0.75286
6669.6,0.75470
6663.82,0.75572
6658.03,0.75837
6652.24,0.76090
6646.46,0.76284
6640.67,0.76087
6634.88,0.76195
6629.1,0.76369
6623.31,0.76389
6617.53,0.76549
6611.74,0.76732
6605.95,0.76453
6600.17,0.76401
6594.38,0.76721
6588.59,0.76971
6582.81,0.76840
6577.02,0.76844
6571.24,0.77407
6565.45,0.77420
6559.66,0.77447
6553.88,0.77710
6548.09,0.77163
6542.3,0.77344
6536.52,0.77739
6530.73,0.77862
6524.95,0.77965
6519.16,0.78110
6513.37,0.78587
6507.59,0.79124
6501.8,0.78789
6496.01,0.78501
6490.23,0.79056
6484.44,0.79639
6478.66,0.79518
6472.87,0.79551
6467.08,0.79726
6461.3,0.79502
6455.51,0.79852
6449.72,0.79561
6443.94,0.79800
6438.15,0.79628
6432.37,0.79696
6426.58,0.79451
6420.79,0.79671
6415.01,0.79814
6409.22,0.79614
6403.43,0.79221
6397.65,0.79055
6391.86,0.79264
6386.08,0.79158
6380.29,0.78660
6374.5,0.78799
6368.72,0.78417
6362.93,0.78093
6357.14,0.77861
6351.36,0.78290
6345.57,0.78267
6339.79,0.78264
6334,0.78186
6328.21,0.77919
6322.43,0.77502
6316.64,0.77334
6310.85,0.76878
6305.07,0.76617
6299.28,0.76450
6293.5,0.75847
6287.71,0.75949
6281.92,0.76169
6276.14,0.75942
6270.35,0.75636
6264.56,0.75280
6258.78,0.74905
6252.99,0.74269
6247.21,0.73850
6241.42,0.73122
6235.63,0.72748
6229.85,0.72243
6224.06,0.71619
6218.27,0.71021
6212.49,0.70674
6206.7,0.69718
6200.92,0.68749
6195.13,0.68389
6189.34,0.66669
6183.56,0.65737
6177.77,0.64797
6171.98,0.62691
6166.2,0.60902
6160.41,0.58272
6154.63,0.55887
6148.84,0.53458
6143.05,0.51147
6137.27,0.49950
6131.48,0.48998
6125.7,0.47167
6119.91,0.45170
6114.12,0.43843
6108.34,0.43093
6102.55,0.43629
6096.76,0.44087
6090.98,0.44464
6085.19,0.43606
6079.41,0.42949
6073.62,0.42395
6067.83,0.43733
6062.05,0.45862
6056.26,0.47791
6050.47,0.48104
6044.69,0.46685
6038.9,0.44870
6033.12,0.41996
6027.33,0.39258
6021.54,0.36160
6015.76,0.33597
6009.97,0.30723
6004.18,0.28450
5998.4,0.26196
5992.61,0.24982
5986.83,0.23489
5981.04,0.22046
5975.25,0.20484
5969.47,0.19996
5963.68,0.19529
5957.89,0.19560
5952.11,0.19276
5946.32,0.19075
5940.54,0.19128
5934.75,0.19756
5928.96,0.20194
5923.18,0.20732
5917.39,0.21106
5911.6,0.21335
5905.82,0.22032
5900.03,0.22389
5894.25,0.22830
5888.46,0.24241
5882.67,0.25461
5876.89,0.26511
5871.1,0.28006
5865.31,0.29052
5859.53,0.29442
5853.74,0.29553
5847.96,0.29643
5842.17,0.29728
5836.38,0.29930
5830.6,0.30130
5824.81,0.30158
5819.02,0.30208
5813.24,0.30274
5807.45,0.29913
5801.67,0.30215
5795.88,0.30237
5790.09,0.30444
5784.31,0.30921
5778.52,0.32025
5772.73,0.33289
5766.95,0.34961
5761.16,0.36213
5755.38,0.37702
5749.59,0.39026
5743.8,0.39998
5738.02,0.40420
5732.23,0.40311
5726.44,0.39446
5720.66,0.38181
5714.87,0.36856
5709.09,0.35864
5703.3,0.34610
5697.51,0.34109
5691.73,0.33812
5685.94,0.33463
5680.15,0.33129
5674.37,0.32336
5668.58,0.31958
5662.8,0.32635
5657.01,0.33133
5651.22,0.33903
5645.44,0.35045
5639.65,0.35889
5633.87,0.36928
5628.08,0.37508
5622.29,0.38155
5616.51,0.38443
5610.72,0.38512
5604.93,0.38649
5599.15,0.38473
5593.36,0.38254
5587.58,0.37727
5581.79,0.37835
5576,0.38471
5570.22,0.38987
5564.43,0.39051
5558.64,0.39135
5552.86,0.39314
5547.07,0.39252
5541.29,0.39078
5535.5,0.39132
5529.71,0.39065
5523.93,0.39226
5518.14,0.39379
5512.35,0.39618
5506.57,0.39655
5500.78,0.39874
5495,0.40357
5489.21,0.41031
5483.42,0.41322
5477.64,0.41536
5471.85,0.41637
5466.06,0.41855
5460.28,0.42127
5454.49,0.41773
5448.71,0.41683
5442.92,0.41608
5437.13,0.41440
5431.35,0.41555
5425.56,0.41490
5419.77,0.41400
5413.99,0.41369
5408.2,0.41361
5402.42,0.41035
5396.63,0.40981
5390.84,0.40823
5385.06,0.40627
5379.27,0.40786
5373.48,0.40724
5367.7,0.40824
5361.91,0.40961
5356.13,0.41556
5350.34,0.41862
5344.55,0.42203
5338.77,0.42696
5332.98,0.42822
5327.19,0.43215
5321.41,0.43476
5315.62,0.43646
5309.84,0.43822
5304.05,0.43718
5298.26,0.43602
5292.48,0.43858
5286.69,0.43988
5280.9,0.44060
5275.12,0.44190
5269.33,0.44106
5263.55,0.44232
5257.76,0.44069
5251.97,0.44110
5246.19,0.44035
5240.4,0.44008
5234.61,0.43901
5228.83,0.43987
5223.04,0.44050
5217.26,0.44468
5211.47,0.44694
5205.68,0.44842
5199.9,0.45036
5194.11,0.45207
5188.32,0.45312
5182.54,0.45385
5176.75,0.45317
5170.97,0.45407
5165.18,0.45571
5159.39,0.45559
5153.61,0.45636
5147.82,0.45467
5142.03,0.45243
5136.25,0.45148
5130.46,0.44933
5124.68,0.44888
5118.89,0.44821
5113.1,0.45105
5107.32,0.45225
5101.53,0.45481
5095.75,0.45457
5089.96,0.45543
5084.17,0.45651
5078.39,0.45619
5072.6,0.45538
5066.81,0.45701
5061.03,0.45654
5055.24,0.45441
5049.46,0.45490
5043.67,0.45344
5037.88,0.45458
5032.1,0.45513
5026.31,0.45641
5020.52,0.45817
5014.74,0.45799
5008.95,0.45771
5003.17,0.45666
4997.38,0.45455
4991.59,0.45061
4985.81,0.44667
4980.02,0.44579
4974.23,0.44557
4968.45,0.44737
4962.66,0.44607
4956.88,0.44717
4951.09,0.44778
4945.3,0.44617
4939.52,0.44548
4933.73,0.44496
4927.94,0.44562
4922.16,0.44622
4916.37,0.44624
4910.59,0.44768
4904.8,0.44555
4899.01,0.44504
4893.23,0.44310
4887.44,0.43988
4881.65,0.43726
4875.87,0.43416
4870.08,0.43091
4864.3,0.43083
4858.51,0.42939
4852.72,0.42817
4846.94,0.42490
4841.15,0.41908
4835.36,0.41541
4829.58,0.41525
4823.79,0.41573
4818.01,0.41855
4812.22,0.41881
4806.43,0.42012
4800.65,0.41835
4794.86,0.41639
4789.07,0.41298
4783.29,0.40897
4777.5,0.39937
4771.72,0.38966
4765.93,0.37888
4760.14,0.37303
4754.36,0.37361
4748.57,0.37247
4742.78,0.36856
4737,0.36086
4731.21,0.35182
4725.43,0.33808
4719.64,0.31980
4713.85,0.30066
4708.07,0.28758
4702.28,0.28196
4696.49,0.27124
4690.71,0.25360
4684.92,0.22366
4679.14,0.18415
4673.35,0.15055
4667.56,0.13272
4661.78,0.12947
4655.99,0.13736
4650.2,0.15304
4644.42,0.16038
4638.63,0.15588
4632.85,0.14464
4627.06,0.13503
4621.27,0.13214
4615.49,0.13110
4609.7,0.12648
4603.92,0.12801
4598.13,0.14222
4592.34,0.16136
4586.56,0.17067
4580.77,0.16863
4574.98,0.15109
4569.2,0.14688
4563.41,0.16769
4557.63,0.19064
4551.84,0.20779
4546.05,0.22543
4540.27,0.23548
4534.48,0.23606
4528.69,0.23860
4522.91,0.24133
4517.12,0.23948
4511.34,0.23818
4505.55,0.23352
4499.76,0.23667
4493.98,0.24808
4488.19,0.24902
4482.4,0.24855
4476.62,0.25105
4470.83,0.25965
4465.05,0.26643
4459.26,0.26920
4453.47,0.26532
4447.69,0.25637
4441.9,0.24468
4436.11,0.24266
4430.33,0.24365
4424.54,0.24002
4418.76,0.23279
4412.97,0.22478
4407.18,0.21660
4401.4,0.20820
4395.61,0.19850
4389.82,0.18749
4384.04,0.17872
4378.25,0.16891
4372.47,0.15986
4366.68,0.15071
4360.89,0.14112
4355.11,0.13514
4349.32,0.13042
4343.53,0.12478
4337.75,0.12085
4331.96,0.11878
4326.18,0.11962
4320.39,0.12515
4314.6,0.13218
4308.82,0.13808
4303.03,0.13768
4297.24,0.13705
4291.46,0.13500
4285.67,0.13069
4279.89,0.12531
4274.1,0.12020
4268.31,0.11457
4262.53,0.10969
4256.74,0.10532
4250.95,0.10283
4245.17,0.10434
4239.38,0.10580
4233.6,0.10655
4227.81,0.10732
4222.02,0.10881
4216.24,0.10920
4210.45,0.10788
4204.66,0.10821
4198.88,0.11095
4193.09,0.11455
4187.31,0.11682
4181.52,0.11828
4175.73,0.11961
4169.95,0.12313
4164.16,0.12444
4158.37,0.12425
4152.59,0.12514
4146.8,0.12467
4141.02,0.12382
4135.23,0.12148
4129.44,0.11860
4123.66,0.11593
4117.87,0.11394
4112.09,0.11168
4106.3,0.10967
4100.51,0.10885
4094.73,0.10647
4088.94,0.10275
4083.15,0.09811
4077.37,0.09414
4071.58,0.08795
4065.8,0.08390
4060.01,0.08183
4054.22,0.08077
4048.44,0.08051
4042.65,0.08103
4036.86,0.07959
4031.08,0.08242
4025.29,0.08672
4019.51,0.09417
4013.72,0.10384
4007.93,0.10786
4002.15,0.10832
3996.36,0.11059
3990.57,0.11755
3984.79,0.12092
3979,0.12042
3973.22,0.12029
3967.43,0.12272
3961.64,0.12408
3955.86,0.12455
3950.07,0.12474
3944.28,0.12379
3938.5,0.12223
3932.71,0.12240
3926.93,0.12337
3921.14,0.12462
3915.35,0.12631
3909.57,0.12700
3903.78,0.12704
3897.99,0.12786
3892.21,0.12874
3886.42,0.12977
3880.64,0.13078
3874.85,0.12970
3869.06,0.13017
3863.28,0.13035
3857.49,0.13077
3851.7,0.13072
3845.92,0.12918
3840.13,0.12788
3834.35,0.12618
3828.56,0.12389
3822.77,0.12198
3816.99,0.12166
3811.2,0.12191
3805.41,0.12119
3799.63,0.12270
3793.84,0.12516
3788.06,0.12796
3782.27,0.13027
3776.48,0.13107
3770.7,0.13067
3764.91,0.12928
3759.12,0.13038
3753.34,0.13276
3747.55,0.13617
3741.77,0.13538
3735.98,0.13487
3730.19,0.13190
3724.41,0.12626
3718.62,0.12524
3712.83,0.12989
3707.05,0.12655
3701.26,0.11980
3695.48,0.12048
3689.69,0.12403
3683.9,0.12175
3678.12,0.11913
3672.33,0.11800
3666.54,0.11844
3660.76,0.11447
3654.97,0.10638
3649.19,0.10057
3643.4,0.10018
3637.61,0.11155
3631.83,0.11994
3626.04,0.11546
3620.25,0.11022
3614.47,0.12039
3608.68,0.13358
3602.9,0.13932
3597.11,0.14079
3591.32,0.14161
3585.54,0.14294
3579.75,0.14593
3573.97,0.15034
3568.18,0.15413
3562.39,0.15517
3556.61,0.15442
3550.82,0.15464
3545.03,0.15379
3539.25,0.15111
3533.46,0.15054
3527.68,0.14888
3521.89,0.14721
3516.1,0.14523
3510.32,0.14417
3504.53,0.14353
3498.74,0.14160
3492.96,0.13862
3487.17,0.13651
3481.39,0.13414
3475.6,0.13282
3469.81,0.13068
3464.03,0.12909
3458.24,0.12809
3452.45,0.12625
3446.67,0.12371
3440.88,0.12109
3435.1,0.12285
3429.31,0.12685
3423.52,0.13044
3417.74,0.13240
3411.95,0.13338
3406.16,0.13384
3400.38,0.13505
3394.59,0.13671
3388.81,0.13735
3383.02,0.13669
3377.23,0.13747
3371.45,0.13982
3365.66,0.14128
3359.87,0.14231
3354.09,0.14093
3348.3,0.13918
3342.52,0.13776
3336.73,0.13718
3330.94,0.13503
3325.16,0.13377
3319.37,0.13334
3313.58,0.13116
3307.8,0.12669
3302.01,0.12126
3296.23,0.12102
3290.44,0.12314
3284.65,0.12478
3278.87,0.12431
3273.08,0.12319
3267.29,0.12360
3261.51,0.12169
3255.72,0.12076
3249.94,0.11969
3244.15,0.11803
3238.36,0.11739
3232.58,0.11620
3226.79,0.11409
3221,0.11128
3215.22,0.10824
3209.43,0.10488
3203.65,0.09976
3197.86,0.09805
3192.07,0.09786
3186.29,0.09662
3180.5,0.09502
3174.71,0.09242
3168.93,0.08668
3163.14,0.08044
3157.36,0.08238
3151.57,0.08496
3145.78,0.08431
3140,0.08291
3134.21,0.08106
3128.42,0.07876
3122.64,0.07530
3116.85,0.07150
3111.07,0.06809
3105.28,0.06570
3099.49,0.06615
3093.71,0.06481
3087.92,0.06391
3082.14,0.06368
3076.35,0.06469
3070.56,0.06443
3064.78,0.06361
3058.99,0.06383
3053.2,0.06430
3047.42,0.06470
3041.63,0.06454
3035.85,0.06259
3030.06,0.06259
3024.27,0.06534
3018.49,0.06645
3012.7,0.06673
3006.91,0.06625
3001.13,0.06600
2995.34,0.06613
2989.56,0.06646
2983.77,0.06615
2977.98,0.06624
2972.2,0.06514
2966.41,0.06526
2960.62,0.06468
2954.84,0.06403
2949.05,0.06361
2943.27,0.06312
2937.48,0.06306
2931.69,0.06438
2925.91,0.06676
2920.12,0.06827
2914.33,0.06868
2908.55,0.06892
2902.76,0.06916
2896.98,0.06882
2891.19,0.06888
2885.4,0.06785
2879.62,0.06768
2873.83,0.06763
2868.04,0.06760
2862.26,0.06720
2856.47,0.06746
2850.69,0.06834
2844.9,0.06869
2839.11,0.06860
2833.33,0.06888
2827.54,0.06902
2821.75,0.06983
2815.97,0.06983
2810.18,0.06997
2804.4,0.07050
2798.61,0.07121
2792.82,0.07207
2787.04,0.07212
2781.25,0.07216
2775.46,0.07292
2769.68,0.07451
2763.89,0.07513
2758.11,0.07551
2752.32,0.07595
2746.53,0.07610
2740.75,0.07581
2734.96,0.07587
2729.17,0.07494
2723.39,0.07462
2717.6,0.07425
2711.82,0.07489
2706.03,0.07468
2700.24,0.07465
2694.46,0.07422
2688.67,0.07387
2682.88,0.07443
2677.1,0.07425
2671.31,0.07434
2665.53,0.07425
2659.74,0.07430
2653.95,0.07423
2648.17,0.07399
2642.38,0.07383
2636.59,0.07331
2630.81,0.07243
2625.02,0.07329
2619.24,0.07451
2613.45,0.07471
2607.66,0.07366
2601.88,0.07253
2596.09,0.07421
2590.3,0.07495
2584.52,0.07451
2578.73,0.07444
2572.95,0.07571
2567.16,0.07571
2561.37,0.07586
2555.59,0.07578
2549.8,0.07519
2544.02,0.07541
2538.23,0.07630
2532.44,0.07577
2526.66,0.07584
2520.87,0.07517
2515.08,0.07504
2509.3,0.07475
2503.51,0.07495
2497.73,0.07593
2491.94,0.07648
2486.15,0.07693
2480.37,0.07697
2474.58,0.07808
2468.79,0.07957
2463.01,0.08020
2457.22,0.08056
2451.44,0.08000
2445.65,0.08043
2439.86,0.08118
2434.08,0.08130
2428.29,0.08198
2422.5,0.08195
2416.72,0.08212
2410.93,0.08132
2405.15,0.08067
2399.36,0.07991
2393.57,0.07933
2387.79,0.07897
2382,0.07859
2376.21,0.07817
2370.43,0.07814
2364.64,0.07613
2358.86,0.07553
2353.07,0.07575
2347.28,0.07443
2341.5,0.07219
2335.71,0.07065
2329.92,0.07393
2324.14,0.07682
2318.35,0.07539
2312.57,0.07322
2306.78,0.07470
2300.99,0.07723
2295.21,0.07738
2289.42,0.07769
2283.63,0.07904
2277.85,0.08020
2272.06,0.07993
2266.28,0.07837
2260.49,0.07778
2254.7,0.07692
2248.92,0.07759
2243.13,0.07945
2237.34,0.08023
2231.56,0.08061
2225.77,0.08131
2219.99,0.08108
2214.2,0.08093
2208.41,0.08127
2202.63,0.08192
2196.84,0.08235
2191.05,0.08119
2185.27,0.08019
2179.48,0.08141
2173.7,0.08333
2167.91,0.08383
2162.12,0.08423
2156.34,0.08382
2150.55,0.08403
2144.76,0.08435
2138.98,0.08518
2133.19,0.08590
2127.41,0.08637
2121.62,0.08634
2115.83,0.08613
2110.05,0.08673
2104.26,0.08694
2098.47,0.08760
2092.69,0.08821
2086.9,0.08822
2081.12,0.08841
2075.33,0.08698
2069.54,0.08612
2063.76,0.08546
2057.97,0.08530
2052.19,0.08511
2046.4,0.08516
2040.61,0.08400
2034.83,0.08270
2029.04,0.08157
2023.25,0.08139
2017.47,0.08067
2011.68,0.07923
2005.9,0.07772
2000.11,0.07653
1994.32,0.07415
1988.54,0.07114
1982.75,0.07017
1976.96,0.06945
1971.18,0.06777
1965.39,0.06621
1959.61,0.06557
1953.82,0.06566
1948.03,0.06552
1942.25,0.06548
1936.46,0.06591
1930.67,0.06678
1924.89,0.06803
1919.1,0.06846
1913.32,0.06952
1907.53,0.06973
1901.74,0.06851
1895.96,0.06675
1890.17,0.06576
1884.38,0.06546
1878.6,0.06557
1872.81,0.06552
1867.03,0.06558
1861.24,0.06595
1855.45,0.06730
1849.67,0.06816
1843.88,0.06901
1838.09,0.06842
1832.31,0.06768
1826.52,0.06634
1820.74,0.06558
1814.95,0.06501
1809.16,0.06493
1803.38,0.06476
1797.59,0.06515
1791.8,0.06592
1786.02,0.06642
1780.23,0.06684
1774.45,0.06643
1768.66,0.06645
1762.87,0.06598
1757.09,0.06487
1751.3,0.06459
1745.51,0.06480
1739.73,0.06495
1733.94,0.06560
1728.16,0.06566
1722.37,0.06642
1716.58,0.06662
1710.8,0.06633
1705.01,0.06613
1699.22,0.06566
1693.44,0.06472
1687.65,0.06477
1681.87,0.06393
1676.08,0.06431
1670.29,0.06395
1664.51,0.06437
1658.72,0.06505
1652.93,0.06584
1647.15,0.06555
1641.36,0.06539
1635.58,0.06515
1629.79,0.06552
1624,0.06483
1618.22,0.06405
1612.43,0.06300
1606.64,0.06236
1600.86,0.06432
1595.07,0.06572
1589.29,0.06473
1583.5,0.06474
1577.71,0.06564
1571.93,0.06517
1566.14,0.06516
1560.35,0.06536
1554.57,0.06426
1548.78,0.06358
1543,0.06369
1537.21,0.06367
1531.42,0.06386
1525.64,0.06367
1519.85,0.06341
1514.07,0.06267
1508.28,0.06172
1502.49,0.05976
1496.71,0.05839
1490.92,0.06653
1485.13,0.06675
1479.35,0.06551
1473.56,0.06444
1467.78,0.06333
1461.99,0.06144
1456.2,0.05922
1450.42,0.06669
1444.63,0.06846
1438.84,0.06804
1433.06,0.06750
1427.27,0.06681
1421.49,0.06590
1415.7,0.06572
1409.91,0.06531
1404.13,0.06497
1398.34,0.06489
1392.55,0.06433
1386.77,0.06399
1380.98,0.06402
1375.2,0.06412
1369.41,0.06433
1363.62,0.06456
1357.84,0.06443
1352.05,0.06471
1346.26,0.06461
1340.48,0.06473
1334.69,0.06419
1328.91,0.06415
1323.12,0.06429
1317.33,0.06446
1311.55,0.06430
1305.76,0.06428
1299.97,0.06432
1294.19,0.06410
1288.4,0.06429
1282.62,0.06457
1276.83,0.06438
1271.04,0.06468
1265.26,0.06462
1259.47,0.06460
1253.68,0.06407
1247.9,0.06413
1242.11,0.06416
1236.33,0.06406
1230.54,0.06462
1224.75,0.06480
1218.97,0.06422
1213.18,0.06403
1207.39,0.06385
1201.61,0.06344
1195.82,0.06361
1190.04,0.06329
1184.25,0.06328
1178.46,0.06393
1172.68,0.06413
1166.89,0.06374
1161.1,0.06436
1155.32,0.06391
1149.53,0.06517
1143.75,0.06506
1137.96,0.06460
1132.17,0.06515
1126.39,0.06485
1120.6,0.06457
1114.81,0.06359
1109.03,0.06267
1103.24,0.06290
1097.46,0.06348
1091.67,0.06252
1085.88,0.06192
1080.1,0.06179
1074.31,0.06165
1068.52,0.06260
1062.74,0.06249
1056.95,0.06312
1051.17,0.06258
1045.38,0.06287
1039.59,0.06241
1033.81,0.06149
1028.02,0.06371
1022.24,0.06524
1016.45,0.06503
1010.66,0.06468
1004.88,0.06406
999.09,0.06433
993.304,0.06432
987.518,0.06364
981.731,0.06324
975.945,0.06380
970.159,0.06272
964.373,0.06340
958.586,0.06341
952.8,0.06317
947.014,0.06275
941.228,0.06266
935.441,0.06305
929.655,0.06275
923.869,0.06204
918.083,0.06133
912.297,0.06125
906.51,0.06286
900.724,0.06361
894.938,0.06264
889.152,0.06236
883.365,0.06220
877.579,0.06097
871.793,0.06100
866.007,0.06120
860.22,0.06097
854.434,0.06056
848.648,0.05997
842.862,0.06055
837.075,0.06062
831.289,0.06040
825.503,0.06000
819.717,0.05942
813.931,0.05907
808.144,0.05803
802.358,0.05803
796.572,0.05678
790.786,0.05631
784.999,0.05488
779.213,0.05311
773.427,0.05184
767.641,0.05245
761.854,0.05505
756.068,0.06080
750.282,0.06374
744.496,0.06592
738.709,0.06452
732.923,0.06130
727.137,0.05865
721.351,0.05494
715.565,0.04928
709.778,0.04096
703.992,0.04734
698.206,0.11172
692.42,0.11042
686.633,0.08598
680.847,0.07941
675.061,0.07566
669.275,0.07344
663.488,0.07204
657.702,0.07037
651.916,0.07008
646.13,0.06941
640.343,0.06823
634.557,0.06935
628.771,0.06871
622.985,0.06942
617.198,0.06764
611.412,0.06657
605.626,0.06872
599.84,0.06636