File: 01_Data/PlasticC/FTIR/IS/PlasticC_IS_S_220907_R3.dpt
7497.03,0.83392
7491.25,0.83184
7485.46,0.82522
7479.67,0.82422
7473.89,0.82811
7468.1,0.81574
7462.32,0.82464
7456.53,0.81441
7450.74,0.80829
7444.96,0.79470
7439.17,0.80289
7433.38,0.80368
7427.6,0.81180
7421.81,0.80516
7416.03,0.80607
7410.24,0.81153
7404.45,0.80197
7398.67,0.79585
7392.88,0.80078
7387.09,0.80908
7381.31,0.80528
7375.52,0.80456
7369.74,0.80629
7363.95,0.80124
7358.16,0.80107
7352.38,0.80817
7346.59,0.80544
7340.8,0.80344
7335.02,0.79817
7329.23,0.79198
7323.45,0.78360
7317.66,0.77855
7311.87,0.77753
7306.09,0.78468
7300.3,0.77371
7294.51,0.76248
7288.73,0.75583
7282.94,0.74974
7277.16,0.75711
7271.37,0.74898
7265.58,0.74483
7259.8,0.74847
7254.01,0.73965
7248.22,0.74138
7242.44,0.72924
7236.65,0.72002
7230.87,0.72077
7225.08,0.72030
7219.29,0.71797
7213.51,0.72197
7207.72,0.71055
7201.93,0.71256
7196.15,0.70103
7190.36,0.70572
7184.58,0.69470
7178.79,0.69663
7173,0.69196
7167.22,0.69503
7161.43,0.69684
7155.65,0.69821
7149.86,0.70334
7144.07,0.70359
7138.29,0.69558
7132.5,0.70045
7126.71,0.70195
7120.93,0.69732
7115.14,0.69566
7109.36,0.69030
7103.57,0.69374
7097.78,0.68409
7092,0.67741
7086.21,0.67348
7080.42,0.67069
7074.64,0.66770
7068.85,0.67353
7063.07,0.67433
7057.28,0.67857
7051.49,0.68092
7045.71,0.68168
7039.92,0.67991
7034.13,0.68531
7028.35,0.68952
7022.56,0.69167
7016.78,0.69215
7010.99,0.69140
7005.2,0.68747
6999.42,0.68783
6993.63,0.68241
6987.84,0.68149
6982.06,0.68913
6976.27,0.69008
6970.49,0.69309
6964.7,0.69252
6958.91,0.69333
6953.13,0.69243
6947.34,0.69991
6941.55,0.69382
6935.77,0.69560
6929.98,0.69182
6924.2,0.70271
6918.41,0.70426
6912.62,0.70896
6906.84,0.71154
6901.05,0.71653
6895.26,0.71703
6889.48,0.71110
6883.69,0.71819
6877.91,0.71992
6872.12,0.71986
6866.33,0.72054
6860.55,0.72222
6854.76,0.72814
6848.97,0.72972
6843.19,0.72423
6837.4,0.72660
6831.62,0.73056
6825.83,0.73289
6820.04,0.73388
6814.26,0.72799
6808.47,0.73624
6802.68,0.72900
6796.9,0.73104
6791.11,0.73878
6785.33,0.73639
6779.54,0.73687
6773.75,0.73984
6767.97,0.73995
6762.18,0.73716
6756.39,0.73779
6750.61,0.74012
6744.82,0.74320
6739.04,0.74113
6733.25,0.74289
6727.46,0.74760
6721.68,0.74474
6715.89,0.74720
6710.1,0.75480
6704.32,0.75048
6698.53,0.75062
6692.75,0.75057
6686.96,0.75207
6681.17,0.76052
6675.39,0.75758
6669.6,0.75624
6663.82,0.76365
6658.03,0.76621
6652.24,0.77545
6646.46,0.77020
6640.67,0.76930
6634.88,0.76934
6629.1,0.77036
6623.31,0.76684
6617.53,0.76954
6611.74,0.77189
6605.95,0.76799
6600.17,0.77512
6594.38,0.77492
6588.59,0.77706
6582.81,0.77507
6577.02,0.77280
6571.24,0.77806
6565.45,0.77949
6559.66,0.77884
6553.88,0.77673
6548.09,0.78392
6542.3,0.78056
6536.52,0.78385
6530.73,0.78186
6524.95,0.78237
6519.16,0.78595
6513.37,0.78738
6507.59,0.78943
6501.8,0.79593
6496.01,0.79330
6490.23,0.79506
6484.44,0.79578
6478.66,0.79440
6472.87,0.79606
6467.08,0.79472
6461.3,0.79912
6455.51,0.80043
6449.72,0.80012
6443.94,0.80201
6438.15,0.80135
6432.37,0.79939
6426.58,0.79918
6420.79,0.80133
6415.01,0.80288
6409.22,0.80324
6403.43,0.80155
6397.65,0.79839
6391.86,0.79731
6386.08,0.79110
6380.29,0.79334
6374.5,0.78889
6368.72,0.78792
6362.93,0.78913
6357.14,0.78675
6351.36,0.78354
6345.57,0.78289
6339.79,0.78122
6334,0.77878
6328.21,0.77863
6322.43,0.78355
6316.64,0.77551
6310.85,0.77513
6305.07,0.77064
6299.28,0.76597
6293.5,0.76321
6287.71,0.76324
6281.92,0.76327
6276.14,0.76061
6270.35,0.76323
6264.56,0.76020
6258.78,0.75535
6252.99,0.74323
6247.21,0.73799
6241.42,0.73624
6235.63,0.73137
6229.85,0.72769
6224.06,0.72110
6218.27,0.71551
6212.49,0.71071
6206.7,0.70247
6200.92,0.69523
6195.13,0.68278
6189.34,0.67464
6183.56,0.66133
6177.77,0.64771
6171.98,0.63259
6166.2,0.60902
6160.41,0.58698
6154.63,0.56243
6148.84,0.53908
6143.05,0.51611
6137.27,0.50211
6131.48,0.49418
6125.7,0.47763
6119.91,0.45764
6114.12,0.44195
6108.34,0.43406
6102.55,0.43833
6096.76,0.44772
6090.98,0.44460
6085.19,0.43697
6079.41,0.42921
6073.62,0.42837
6067.83,0.43967
6062.05,0.46102
6056.26,0.47676
6050.47,0.48000
6044.69,0.47089
6038.9,0.45012
6033.12,0.42608
6027.33,0.39664
6021.54,0.36725
6015.76,0.33670
6009.97,0.30636
6004.18,0.28352
5998.4,0.26821
5992.61,0.25038
5986.83,0.23583
5981.04,0.22120
5975.25,0.20448
5969.47,0.20054
5963.68,0.19718
5957.89,0.19417
5952.11,0.19282
5946.32,0.19230
5940.54,0.19336
5934.75,0.19654
5928.96,0.20409
5923.18,0.21308
5917.39,0.20917
5911.6,0.21655
5905.82,0.21715
5900.03,0.22363
5894.25,0.23159
5888.46,0.23970
5882.67,0.25578
5876.89,0.27245
5871.1,0.28241
5865.31,0.29140
5859.53,0.29413
5853.74,0.29788
5847.96,0.29979
5842.17,0.30044
5836.38,0.29881
5830.6,0.30142
5824.81,0.30472
5819.02,0.30382
5813.24,0.30189
5807.45,0.30272
5801.67,0.30039
5795.88,0.30060
5790.09,0.30555
5784.31,0.30897
5778.52,0.31971
5772.73,0.33317
5766.95,0.34867
5761.16,0.36595
5755.38,0.37974
5749.59,0.39148
5743.8,0.40342
5738.02,0.40721
5732.23,0.40189
5726.44,0.39627
5720.66,0.38392
5714.87,0.37027
5709.09,0.35642
5703.3,0.34736
5697.51,0.34218
5691.73,0.34073
5685.94,0.33715
5680.15,0.33083
5674.37,0.32534
5668.58,0.32281
5662.8,0.32387
5657.01,0.33135
5651.22,0.34070
5645.44,0.35208
5639.65,0.35959
5633.87,0.37140
5628.08,0.37682
5622.29,0.38524
5616.51,0.38576
5610.72,0.38555
5604.93,0.38813
5599.15,0.39047
5593.36,0.38375
5587.58,0.38129
5581.79,0.37954
5576,0.38594
5570.22,0.39115
5564.43,0.39429
5558.64,0.39379
5552.86,0.39209
5547.07,0.39466
5541.29,0.39422
5535.5,0.39252
5529.71,0.39194
5523.93,0.39296
5518.14,0.39462
5512.35,0.39746
5506.57,0.39740
5500.78,0.40190
5495,0.40544
5489.21,0.41093
5483.42,0.41434
5477.64,0.41783
5471.85,0.41868
5466.06,0.42053
5460.28,0.42043
5454.49,0.42091
5448.71,0.41968
5442.92,0.41808
5437.13,0.41757
5431.35,0.41736
5425.56,0.41648
5419.77,0.41552
5413.99,0.41355
5408.2,0.41243
5402.42,0.41347
5396.63,0.41058
5390.84,0.41060
5385.06,0.40957
5379.27,0.40872
5373.48,0.41063
5367.7,0.40937
5361.91,0.40993
5356.13,0.41315
5350.34,0.41896
5344.55,0.42481
5338.77,0.42757
5332.98,0.43074
5327.19,0.43381
5321.41,0.43605
5315.62,0.43854
5309.84,0.44048
5304.05,0.43953
5298.26,0.43883
5292.48,0.44133
5286.69,0.44081
5280.9,0.44187
5275.12,0.44228
5269.33,0.44295
5263.55,0.44153
5257.76,0.44203
5251.97,0.44140
5246.19,0.44060
5240.4,0.43976
5234.61,0.44060
5228.83,0.44101
5223.04,0.44381
5217.26,0.44551
5211.47,0.44831
5205.68,0.44961
5199.9,0.45317
5194.11,0.45533
5188.32,0.45444
5182.54,0.45570
5176.75,0.45632
5170.97,0.45648
5165.18,0.45806
5159.39,0.45850
5153.61,0.45794
5147.82,0.45925
5142.03,0.45538
5136.25,0.45311
5130.46,0.45088
5124.68,0.45222
5118.89,0.45082
5113.1,0.45344
5107.32,0.45457
5101.53,0.45584
5095.75,0.45799
5089.96,0.45852
5084.17,0.45792
5078.39,0.45859
5072.6,0.45894
5066.81,0.45905
5061.03,0.45938
5055.24,0.45939
5049.46,0.45831
5043.67,0.45659
5037.88,0.45677
5032.1,0.45754
5026.31,0.45870
5020.52,0.45873
5014.74,0.46014
5008.95,0.46055
5003.17,0.45875
4997.38,0.45614
4991.59,0.45341
4985.81,0.45057
4980.02,0.44832
4974.23,0.44748
4968.45,0.44931
4962.66,0.45112
4956.88,0.45078
4951.09,0.44943
4945.3,0.44754
4939.52,0.44723
4933.73,0.44721
4927.94,0.44818
4922.16,0.44942
4916.37,0.44970
4910.59,0.44851
4904.8,0.44735
4899.01,0.44719
4893.23,0.44621
4887.44,0.44215
4881.65,0.44016
4875.87,0.43613
4870.08,0.43351
4864.3,0.43189
4858.51,0.43320
4852.72,0.42988
4846.94,0.42618
4841.15,0.42147
4835.36,0.41879
4829.58,0.41810
4823.79,0.41865
4818.01,0.41966
4812.22,0.42141
4806.43,0.42104
4800.65,0.42079
4794.86,0.41871
4789.07,0.41570
4783.29,0.41040
4777.5,0.40295
4771.72,0.39106
4765.93,0.38035
4760.14,0.37458
4754.36,0.37492
4748.57,0.37378
4742.78,0.36893
4737,0.36224
4731.21,0.35282
4725.43,0.34050
4719.64,0.32077
4713.85,0.30203
4708.07,0.29078
4702.28,0.28253
4696.49,0.27190
4690.71,0.25483
4684.92,0.22548
4679.14,0.18649
4673.35,0.15118
4667.56,0.13239
4661.78,0.13023
4655.99,0.13762
4650.2,0.15252
4644.42,0.16136
4638.63,0.15697
4632.85,0.14555
4627.06,0.13510
4621.27,0.13257
4615.49,0.13137
4609.7,0.12665
4603.92,0.12862
4598.13,0.14332
4592.34,0.16063
4586.56,0.17135
4580.77,0.16902
4574.98,0.15056
4569.2,0.14717
4563.41,0.16897
4557.63,0.19079
4551.84,0.20806
4546.05,0.22647
4540.27,0.23539
4534.48,0.23701
4528.69,0.24039
4522.91,0.24244
4517.12,0.24161
4511.34,0.23877
4505.55,0.23449
4499.76,0.23725
4493.98,0.24998
4488.19,0.25249
4482.4,0.25007
4476.62,0.25357
4470.83,0.26065
4465.05,0.26748
4459.26,0.27040
4453.47,0.26749
4447.69,0.25756
4441.9,0.24712
4436.11,0.24463
4430.33,0.24563
4424.54,0.24140
4418.76,0.23333
4412.97,0.22501
4407.18,0.21686
4401.4,0.20829
4395.61,0.19921
4389.82,0.18880
4384.04,0.17949
4378.25,0.17009
4372.47,0.16062
4366.68,0.15116
4360.89,0.14231
4355.11,0.13594
4349.32,0.12875
4343.53,0.12525
4337.75,0.12089
4331.96,0.11964
4326.18,0.12000
4320.39,0.12562
4314.6,0.13230
4308.82,0.13805
4303.03,0.13951
4297.24,0.13819
4291.46,0.13527
4285.67,0.13180
4279.89,0.12541
4274.1,0.12035
4268.31,0.11518
4262.53,0.10888
4256.74,0.10546
4250.95,0.10351
4245.17,0.10322
4239.38,0.10497
4233.6,0.10610
4227.81,0.10828
4222.02,0.10886
4216.24,0.10897
4210.45,0.10914
4204.66,0.10978
4198.88,0.11139
4193.09,0.11432
4187.31,0.11682
4181.52,0.11803
4175.73,0.11965
4169.95,0.12363
4164.16,0.12503
4158.37,0.12460
4152.59,0.12451
4146.8,0.12527
4141.02,0.12443
4135.23,0.12253
4129.44,0.11885
4123.66,0.11599
4117.87,0.11471
4112.09,0.11235
4106.3,0.11025
4100.51,0.10945
4094.73,0.10675
4088.94,0.10285
4083.15,0.09866
4077.37,0.09437
4071.58,0.08898
4065.8,0.08474
4060.01,0.08262
4054.22,0.08103
4048.44,0.08146
4042.65,0.08075
4036.86,0.08032
4031.08,0.08308
4025.29,0.08669
4019.51,0.09467
4013.72,0.10448
4007.93,0.10849
4002.15,0.10807
3996.36,0.11079
3990.57,0.11824
3984.79,0.12112
3979,0.12067
3973.22,0.12139
3967.43,0.12245
3961.64,0.12421
3955.86,0.12569
3950.07,0.12516
3944.28,0.12462
3938.5,0.12203
3932.71,0.12267
3926.93,0.12280
3921.14,0.12458
3915.35,0.12651
3909.57,0.12789
3903.78,0.12799
3897.99,0.12828
3892.21,0.12953
3886.42,0.13043
3880.64,0.13117
3874.85,0.13123
3869.06,0.13068
3863.28,0.13074
3857.49,0.13193
3851.7,0.13187
3845.92,0.12960
3840.13,0.12819
3834.35,0.12618
3828.56,0.12429
3822.77,0.12320
3816.99,0.12089
3811.2,0.12188
3805.41,0.12231
3799.63,0.12289
3793.84,0.12483
3788.06,0.12867
3782.27,0.13112
3776.48,0.13144
3770.7,0.13105
3764.91,0.13021
3759.12,0.13066
3753.34,0.13394
3747.55,0.13601
3741.77,0.13637
3735.98,0.13602
3730.19,0.13279
3724.41,0.12703
3718.62,0.12632
3712.83,0.12981
3707.05,0.12688
3701.26,0.12023
3695.48,0.12032
3689.69,0.12308
3683.9,0.11991
3678.12,0.11750
3672.33,0.11673
3666.54,0.11612
3660.76,0.11327
3654.97,0.10608
3649.19,0.09988
3643.4,0.09950
3637.61,0.11113
3631.83,0.11947
3626.04,0.11588
3620.25,0.11044
3614.47,0.12016
3608.68,0.13414
3602.9,0.13979
3597.11,0.13971
3591.32,0.13953
3585.54,0.14059
3579.75,0.14399
3573.97,0.14858
3568.18,0.15368
3562.39,0.15422
3556.61,0.15480
3550.82,0.15383
3545.03,0.15326
3539.25,0.15195
3533.46,0.15070
3527.68,0.14925
3521.89,0.14719
3516.1,0.14509
3510.32,0.14438
3504.53,0.14377
3498.74,0.14106
3492.96,0.13892
3487.17,0.13708
3481.39,0.13429
3475.6,0.13223
3469.81,0.13037
3464.03,0.12928
3458.24,0.12801
3452.45,0.12654
3446.67,0.12342
3440.88,0.12191
3435.1,0.12399
3429.31,0.12725
3423.52,0.13114
3417.74,0.13258
3411.95,0.13426
3406.16,0.13429
3400.38,0.13603
3394.59,0.13643
3388.81,0.13676
3383.02,0.13681
3377.23,0.13805
3371.45,0.13981
3365.66,0.14191
3359.87,0.14136
3354.09,0.14115
3348.3,0.13925
3342.52,0.13776
3336.73,0.13697
3330.94,0.13593
3325.16,0.13462
3319.37,0.13339
3313.58,0.13185
3307.8,0.12645
3302.01,0.12105
3296.23,0.12093
3290.44,0.12376
3284.65,0.12493
3278.87,0.12459
3273.08,0.12453
3267.29,0.12362
3261.51,0.12257
3255.72,0.12092
3249.94,0.11952
3244.15,0.11879
3238.36,0.11755
3232.58,0.11608
3226.79,0.11389
3221,0.11173
3215.22,0.10931
3209.43,0.10495
3203.65,0.10016
3197.86,0.09877
3192.07,0.09812
3186.29,0.09702
3180.5,0.09566
3174.71,0.09246
3168.93,0.08698
3163.14,0.08189
3157.36,0.08266
3151.57,0.08477
3145.78,0.08467
3140,0.08300
3134.21,0.08148
3128.42,0.07891
3122.64,0.07565
3116.85,0.07196
3111.07,0.06774
3105.28,0.06569
3099.49,0.06579
3093.71,0.06532
3087.92,0.06368
3082.14,0.06404
3076.35,0.06423
3070.56,0.06407
3064.78,0.06408
3058.99,0.06446
3053.2,0.06496
3047.42,0.06502
3041.63,0.06385
3035.85,0.06328
3030.06,0.06281
3024.27,0.06525
3018.49,0.06705
3012.7,0.06748
3006.91,0.06662
3001.13,0.06584
2995.34,0.06643
2989.56,0.06665
2983.77,0.06608
2977.98,0.06613
2972.2,0.06547
2966.41,0.06513
2960.62,0.06480
2954.84,0.06428
2949.05,0.06349
2943.27,0.06283
2937.48,0.06345
2931.69,0.06407
2925.91,0.06703
2920.12,0.06890
2914.33,0.06932
2908.55,0.06892
2902.76,0.06905
2896.98,0.06880
2891.19,0.06822
2885.4,0.06854
2879.62,0.06781
2873.83,0.06749
2868.04,0.06764
2862.26,0.06762
2856.47,0.06751
2850.69,0.06874
2844.9,0.06883
2839.11,0.06875
2833.33,0.06865
2827.54,0.06877
2821.75,0.06969
2815.97,0.07013
2810.18,0.07060
2804.4,0.07057
2798.61,0.07147
2792.82,0.07204
2787.04,0.07273
2781.25,0.07293
2775.46,0.07303
2769.68,0.07424
2763.89,0.07474
2758.11,0.07560
2752.32,0.07567
2746.53,0.07628
2740.75,0.07654
2734.96,0.07570
2729.17,0.07502
2723.39,0.07493
2717.6,0.07468
2711.82,0.07507
2706.03,0.07485
2700.24,0.07519
2694.46,0.07477
2688.67,0.07441
2682.88,0.07457
2677.1,0.07413
2671.31,0.07406
2665.53,0.07458
2659.74,0.07468
2653.95,0.07493
2648.17,0.07442
2642.38,0.07412
2636.59,0.07328
2630.81,0.07274
2625.02,0.07428
2619.24,0.07470
2613.45,0.07466
2607.66,0.07352
2601.88,0.07307
2596.09,0.07477
2590.3,0.07566
2584.52,0.07441
2578.73,0.07421
2572.95,0.07569
2567.16,0.07620
2561.37,0.07607
2555.59,0.07625
2549.8,0.07583
2544.02,0.07586
2538.23,0.07604
2532.44,0.07626
2526.66,0.07640
2520.87,0.07593
2515.08,0.07507
2509.3,0.07526
2503.51,0.07556
2497.73,0.07608
2491.94,0.07654
2486.15,0.07690
2480.37,0.07746
2474.58,0.07897
2468.79,0.08024
2463.01,0.08073
2457.22,0.08071
2451.44,0.08026
2445.65,0.08108
2439.86,0.08105
2434.08,0.08162
2428.29,0.08192
2422.5,0.08225
2416.72,0.08255
2410.93,0.08186
2405.15,0.08100
2399.36,0.08019
2393.57,0.07966
2387.79,0.07936
2382,0.07926
2376.21,0.07875
2370.43,0.07823
2364.64,0.07655
2358.86,0.07609
2353.07,0.07596
2347.28,0.07485
2341.5,0.07229
2335.71,0.07156
2329.92,0.07443
2324.14,0.07666
2318.35,0.07574
2312.57,0.07292
2306.78,0.07445
2300.99,0.07718
2295.21,0.07752
2289.42,0.07824
2283.63,0.07947
2277.85,0.08051
2272.06,0.07978
2266.28,0.07849
2260.49,0.07800
2254.7,0.07713
2248.92,0.07785
2243.13,0.07936
2237.34,0.08038
2231.56,0.08069
2225.77,0.08130
2219.99,0.08152
2214.2,0.08080
2208.41,0.08122
2202.63,0.08282
2196.84,0.08258
2191.05,0.08191
2185.27,0.08056
2179.48,0.08135
2173.7,0.08329
2167.91,0.08442
2162.12,0.08450
2156.34,0.08417
2150.55,0.08445
2144.76,0.08494
2138.98,0.08555
2133.19,0.08632
2127.41,0.08652
2121.62,0.08653
2115.83,0.08669
2110.05,0.08663
2104.26,0.08747
2098.47,0.08767
2092.69,0.08864
2086.9,0.08880
2081.12,0.08806
2075.33,0.08700
2069.54,0.08653
2063.76,0.08602
2057.97,0.08579
2052.19,0.08526
2046.4,0.08515
2040.61,0.08438
2034.83,0.08297
2029.04,0.08178
2023.25,0.08189
2017.47,0.08121
2011.68,0.07947
2005.9,0.07812
2000.11,0.07683
1994.32,0.07436
1988.54,0.07121
1982.75,0.07041
1976.96,0.06986
1971.18,0.06791
1965.39,0.06654
1959.61,0.06576
1953.82,0.06607
1948.03,0.06570
1942.25,0.06561
1936.46,0.06608
1930.67,0.06689
1924.89,0.06785
1919.1,0.06895
1913.32,0.06980
1907.53,0.06992
1901.74,0.06835
1895.96,0.06689
1890.17,0.06608
1884.38,0.06610
1878.6,0.06555
1872.81,0.06585
1867.03,0.06602
1861.24,0.06638
1855.45,0.06722
1849.67,0.06883
1843.88,0.06928
1838.09,0.06931
1832.31,0.06814
1826.52,0.06656
1820.74,0.06558
1814.95,0.06571
1809.16,0.06549
1803.38,0.06523
1797.59,0.06554
1791.8,0.06618
1786.02,0.06664
1780.23,0.06659
1774.45,0.06643
1768.66,0.06678
1762.87,0.06602
1757.09,0.06526
1751.3,0.06545
1745.51,0.06509
1739.73,0.06553
1733.94,0.06562
1728.16,0.06557
1722.37,0.06623
1716.58,0.06662
1710.8,0.06656
1705.01,0.06601
1699.22,0.06570
1693.44,0.06547
1687.65,0.06502
1681.87,0.06480
1676.08,0.06474
1670.29,0.06444
1664.51,0.06481
1658.72,0.06475
1652.93,0.06575
1647.15,0.06587
1641.36,0.06498
1635.58,0.06558
1629.79,0.06565
1624,0.06525
1618.22,0.06445
1612.43,0.06352
1606.64,0.06228
1600.86,0.06435
1595.07,0.06577
1589.29,0.06553
1583.5,0.06515
1577.71,0.06594
1571.93,0.06523
1566.14,0.06553
1560.35,0.06532
1554.57,0.06455
1548.78,0.06403
1543,0.06397
1537.21,0.06404
1531.42,0.06409
1525.64,0.06422
1519.85,0.06414
1514.07,0.06264
1508.28,0.06243
1502.49,0.06041
1496.71,0.05838
1490.92,0.06728
1485.13,0.06731
1479.35,0.06555
1473.56,0.06455
1467.78,0.06344
1461.99,0.06189
1456.2,0.05954
1450.42,0.06691
1444.63,0.06842
1438.84,0.06775
1433.06,0.06744
1427.27,0.06661
1421.49,0.06605
1415.7,0.06586
1409.91,0.06567
1404.13,0.06495
1398.34,0.06483
1392.55,0.06471
1386.77,0.06410
1380.98,0.06417
1375.2,0.06454
1369.41,0.06465
1363.62,0.06455
1357.84,0.06485
1352.05,0.06444
1346.26,0.06494
1340.48,0.06499
1334.69,0.06478
1328.91,0.06440
1323.12,0.06441
1317.33,0.06477
1311.55,0.06443
1305.76,0.06470
1299.97,0.06463
1294.19,0.06450
1288.4,0.06448
1282.62,0.06463
1276.83,0.06475
1271.04,0.06499
1265.26,0.06526
1259.47,0.06509
1253.68,0.06512
1247.9,0.06493
1242.11,0.06466
1236.33,0.06451
1230.54,0.06435
1224.75,0.06463
1218.97,0.06469
1213.18,0.06436
1207.39,0.06403
1201.61,0.06340
1195.82,0.06347
1190.04,0.06347
1184.25,0.06339
1178.46,0.06432
1172.68,0.06460
1166.89,0.06422
1161.1,0.06411
1155.32,0.06389
1149.53,0.06530
1143.75,0.06475
1137.96,0.06498
1132.17,0.06475
1126.39,0.06508
1120.6,0.06445
1114.81,0.06372
1109.03,0.06411
1103.24,0.06349
1097.46,0.06256
1091.67,0.06245
1085.88,0.06230
1080.1,0.06191
1074.31,0.06214
1068.52,0.06259
1062.74,0.06386
1056.95,0.06330
1051.17,0.06331
1045.38,0.06219
1039.59,0.06193
1033.81,0.06207
1028.02,0.06390
1022.24,0.06492
1016.45,0.06473
1010.66,0.06438
1004.88,0.06407
999.09,0.06414
993.304,0.06387
987.518,0.06378
981.731,0.06338
975.945,0.06328
970.159,0.06268
964.373,0.06287
958.586,0.06348
952.8,0.06313
947.014,0.06267
941.228,0.06321
935.441,0.06307
929.655,0.06284
923.869,0.06208
918.083,0.06163
912.297,0.06131
906.51,0.06197
900.724,0.06236
894.938,0.06236
889.152,0.06249
883.365,0.06180
877.579,0.06207
871.793,0.06204
866.007,0.06227
860.22,0.06147
854.434,0.06083
848.648,0.06062
842.862,0.06047
837.075,0.06061
831.289,0.06053
825.503,0.05988
819.717,0.06015
813.931,0.05866
808.144,0.05842
802.358,0.05847
796.572,0.05723
790.786,0.05611
784.999,0.05458
779.213,0.05326
773.427,0.05156
767.641,0.05248
761.854,0.05549
756.068,0.05940
750.282,0.06358
744.496,0.06647
738.709,0.06526
732.923,0.06183
727.137,0.05804
721.351,0.05559
715.565,0.04907
709.778,0.04084
703.992,0.04755
698.206,0.11238
692.42,0.11079
686.633,0.08646
680.847,0.07973
675.061,0.07482
669.275,0.07296
663.488,0.07100
657.702,0.06913
651.916,0.07036
646.13,0.06779
640.343,0.06742
634.557,0.06613
628.771,0.06670
622.985,0.06596
617.198,0.06500
611.412,0.06573
605.626,0.06507
599.84,0.06334