File: 01_Data/PlasticC/FTIR/IS/PlasticC_IS_S_220907_R7.dpt
7497.03,0.83343
7491.25,0.83184
7485.46,0.83391
7479.67,0.82843
7473.89,0.82082
7468.1,0.81312
7462.32,0.81952
7456.53,0.81384
7450.74,0.82035
7444.96,0.80749
7439.17,0.79869
7433.38,0.79849
7427.6,0.79520
7421.81,0.79961
7416.03,0.79578
7410.24,0.80234
7404.45,0.79697
7398.67,0.79661
7392.88,0.79428
7387.09,0.80728
7381.31,0.80512
7375.52,0.80087
7369.74,0.80264
7363.95,0.80702
7358.16,0.80005
7352.38,0.80990
7346.59,0.79738
7340.8,0.80257
7335.02,0.79699
7329.23,0.79059
7323.45,0.78733
7317.66,0.78436
7311.87,0.77763
7306.09,0.76404
7300.3,0.77358
7294.51,0.77375
7288.73,0.76568
7282.94,0.75709
7277.16,0.75776
7271.37,0.74903
7265.58,0.74023
7259.8,0.74688
7254.01,0.73581
7248.22,0.73103
7242.44,0.73193
7236.65,0.73021
7230.87,0.72934
7225.08,0.72044
7219.29,0.72014
7213.51,0.72009
7207.72,0.70936
7201.93,0.70772
7196.15,0.70477
7190.36,0.70635
7184.58,0.69719
7178.79,0.70333
7173,0.70147
7167.22,0.69503
7161.43,0.70088
7155.65,0.68985
7149.86,0.69585
7144.07,0.69594
7138.29,0.70276
7132.5,0.70020
7126.71,0.69230
7120.93,0.69122
7115.14,0.69134
7109.36,0.69341
7103.57,0.68854
7097.78,0.68707
7092,0.67552
7086.21,0.67537
7080.42,0.66439
7074.64,0.67120
7068.85,0.67289
7063.07,0.67416
7057.28,0.67810
7051.49,0.67781
7045.71,0.68195
7039.92,0.68361
7034.13,0.68310
7028.35,0.68533
7022.56,0.68839
7016.78,0.69638
7010.99,0.69606
7005.2,0.69150
6999.42,0.68908
6993.63,0.68519
6987.84,0.68698
6982.06,0.69386
6976.27,0.68660
6970.49,0.68503
6964.7,0.69489
6958.91,0.69921
6953.13,0.69064
6947.34,0.69479
6941.55,0.69865
6935.77,0.69948
6929.98,0.69827
6924.2,0.70258
6918.41,0.70811
6912.62,0.70804
6906.84,0.71339
6901.05,0.70994
6895.26,0.71167
6889.48,0.71544
6883.69,0.71753
6877.91,0.72357
6872.12,0.71918
6866.33,0.72531
6860.55,0.73066
6854.76,0.72951
6848.97,0.72898
6843.19,0.72521
6837.4,0.73470
6831.62,0.73551
6825.83,0.73140
6820.04,0.73444
6814.26,0.73017
6808.47,0.72623
6802.68,0.73342
6796.9,0.73913
6791.11,0.73605
6785.33,0.73156
6779.54,0.74108
6773.75,0.74285
6767.97,0.74402
6762.18,0.74253
6756.39,0.74491
6750.61,0.74199
6744.82,0.74159
6739.04,0.74133
6733.25,0.73893
6727.46,0.74283
6721.68,0.74454
6715.89,0.74916
6710.1,0.74961
6704.32,0.74959
6698.53,0.75172
6692.75,0.75311
6686.96,0.75609
6681.17,0.75445
6675.39,0.75696
6669.6,0.76203
6663.82,0.76497
6658.03,0.76036
6652.24,0.77011
6646.46,0.76890
6640.67,0.76747
6634.88,0.76848
6629.1,0.76891
6623.31,0.76177
6617.53,0.77079
6611.74,0.76908
6605.95,0.77313
6600.17,0.77047
6594.38,0.77439
6588.59,0.77456
6582.81,0.77545
6577.02,0.77519
6571.24,0.77981
6565.45,0.78088
6559.66,0.78059
6553.88,0.77866
6548.09,0.78335
6542.3,0.78175
6536.52,0.78075
6530.73,0.78103
6524.95,0.78469
6519.16,0.78704
6513.37,0.78483
6507.59,0.78708
6501.8,0.79238
6496.01,0.79230
6490.23,0.79162
6484.44,0.79422
6478.66,0.79565
6472.87,0.80247
6467.08,0.79817
6461.3,0.79950
6455.51,0.79681
6449.72,0.80116
6443.94,0.79736
6438.15,0.80189
6432.37,0.80403
6426.58,0.80099
6420.79,0.79515
6415.01,0.80006
6409.22,0.79886
6403.43,0.80021
6397.65,0.79786
6391.86,0.79470
6386.08,0.79199
6380.29,0.79110
6374.5,0.79181
6368.72,0.78558
6362.93,0.78571
6357.14,0.78152
6351.36,0.78285
6345.57,0.78305
6339.79,0.78106
6334,0.78574
6328.21,0.78414
6322.43,0.78115
6316.64,0.77618
6310.85,0.77378
6305.07,0.76556
6299.28,0.76814
6293.5,0.76126
6287.71,0.76289
6281.92,0.76361
6276.14,0.76222
6270.35,0.75832
6264.56,0.75646
6258.78,0.75223
6252.99,0.74552
6247.21,0.74451
6241.42,0.73868
6235.63,0.73368
6229.85,0.72911
6224.06,0.72265
6218.27,0.71316
6212.49,0.71188
6206.7,0.70600
6200.92,0.69425
6195.13,0.68596
6189.34,0.67457
6183.56,0.66201
6177.77,0.64905
6171.98,0.63085
6166.2,0.60597
6160.41,0.58447
6154.63,0.56517
6148.84,0.54088
6143.05,0.51554
6137.27,0.50497
6131.48,0.49384
6125.7,0.47354
6119.91,0.45540
6114.12,0.44041
6108.34,0.43571
6102.55,0.44057
6096.76,0.44459
6090.98,0.44390
6085.19,0.43867
6079.41,0.43043
6073.62,0.42724
6067.83,0.43857
6062.05,0.46169
6056.26,0.47612
6050.47,0.47812
6044.69,0.47068
6038.9,0.45052
6033.12,0.42713
6027.33,0.39723
6021.54,0.36501
6015.76,0.33302
6009.97,0.30696
6004.18,0.28486
5998.4,0.26707
5992.61,0.25148
5986.83,0.23323
5981.04,0.22031
5975.25,0.20478
5969.47,0.19967
5963.68,0.19663
5957.89,0.19653
5952.11,0.19238
5946.32,0.19409
5940.54,0.19490
5934.75,0.19878
5928.96,0.20606
5923.18,0.21000
5917.39,0.21091
5911.6,0.21251
5905.82,0.21829
5900.03,0.22433
5894.25,0.23043
5888.46,0.23845
5882.67,0.25583
5876.89,0.26919
5871.1,0.28117
5865.31,0.29149
5859.53,0.29677
5853.74,0.29788
5847.96,0.29828
5842.17,0.29771
5836.38,0.29868
5830.6,0.30163
5824.81,0.30430
5819.02,0.30469
5813.24,0.30614
5807.45,0.30341
5801.67,0.30160
5795.88,0.30325
5790.09,0.30560
5784.31,0.30964
5778.52,0.32122
5772.73,0.33452
5766.95,0.34920
5761.16,0.36434
5755.38,0.38013
5749.59,0.39314
5743.8,0.40086
5738.02,0.40673
5732.23,0.40477
5726.44,0.39684
5720.66,0.38279
5714.87,0.36965
5709.09,0.36059
5703.3,0.34872
5697.51,0.34169
5691.73,0.33980
5685.94,0.33849
5680.15,0.33208
5674.37,0.32375
5668.58,0.32282
5662.8,0.32357
5657.01,0.33053
5651.22,0.34185
5645.44,0.35285
5639.65,0.36198
5633.87,0.36903
5628.08,0.37886
5622.29,0.38590
5616.51,0.38719
5610.72,0.38742
5604.93,0.38620
5599.15,0.38741
5593.36,0.38358
5587.58,0.37687
5581.79,0.38000
5576,0.38720
5570.22,0.39062
5564.43,0.39280
5558.64,0.39417
5552.86,0.39454
5547.07,0.39385
5541.29,0.39493
5535.5,0.39370
5529.71,0.39244
5523.93,0.39252
5518.14,0.39644
5512.35,0.39882
5506.57,0.39884
5500.78,0.39999
5495,0.40570
5489.21,0.41165
5483.42,0.41391
5477.64,0.41641
5471.85,0.41802
5466.06,0.41921
5460.28,0.41965
5454.49,0.42222
5448.71,0.42067
5442.92,0.41957
5437.13,0.41798
5431.35,0.41716
5425.56,0.41687
5419.77,0.41607
5413.99,0.41573
5408.2,0.41509
5402.42,0.41291
5396.63,0.41124
5390.84,0.40967
5385.06,0.40846
5379.27,0.40777
5373.48,0.40867
5367.7,0.40974
5361.91,0.41104
5356.13,0.41508
5350.34,0.41841
5344.55,0.42480
5338.77,0.42889
5332.98,0.43062
5327.19,0.43311
5321.41,0.43796
5315.62,0.43858
5309.84,0.43909
5304.05,0.43913
5298.26,0.43816
5292.48,0.43981
5286.69,0.44231
5280.9,0.44430
5275.12,0.44564
5269.33,0.44431
5263.55,0.44312
5257.76,0.44293
5251.97,0.44461
5246.19,0.44547
5240.4,0.44348
5234.61,0.44143
5228.83,0.44197
5223.04,0.44376
5217.26,0.44749
5211.47,0.45069
5205.68,0.45151
5199.9,0.45251
5194.11,0.45426
5188.32,0.45436
5182.54,0.45560
5176.75,0.45640
5170.97,0.45737
5165.18,0.45780
5159.39,0.45954
5153.61,0.45861
5147.82,0.45866
5142.03,0.45630
5136.25,0.45491
5130.46,0.45028
5124.68,0.45068
5118.89,0.45219
5113.1,0.45251
5107.32,0.45412
5101.53,0.45726
5095.75,0.45717
5089.96,0.45814
5084.17,0.45873
5078.39,0.45900
5072.6,0.45776
5066.81,0.46026
5061.03,0.45913
5055.24,0.46003
5049.46,0.45833
5043.67,0.45707
5037.88,0.45701
5032.1,0.45807
5026.31,0.45988
5020.52,0.45975
5014.74,0.46052
5008.95,0.46101
5003.17,0.45802
4997.38,0.45792
4991.59,0.45417
4985.81,0.44915
4980.02,0.44703
4974.23,0.44881
4968.45,0.45052
4962.66,0.45077
4956.88,0.45143
4951.09,0.45039
4945.3,0.44983
4939.52,0.44841
4933.73,0.44768
4927.94,0.44898
4922.16,0.44976
4916.37,0.45021
4910.59,0.45004
4904.8,0.44937
4899.01,0.44728
4893.23,0.44538
4887.44,0.44220
4881.65,0.43903
4875.87,0.43682
4870.08,0.43396
4864.3,0.43335
4858.51,0.43269
4852.72,0.43105
4846.94,0.42624
4841.15,0.42219
4835.36,0.41872
4829.58,0.41803
4823.79,0.41864
4818.01,0.41989
4812.22,0.42137
4806.43,0.42302
4800.65,0.42038
4794.86,0.41938
4789.07,0.41601
4783.29,0.41189
4777.5,0.40216
4771.72,0.39187
4765.93,0.37855
4760.14,0.37357
4754.36,0.37520
4748.57,0.37446
4742.78,0.37018
4737,0.36254
4731.21,0.35345
4725.43,0.33999
4719.64,0.32045
4713.85,0.30236
4708.07,0.29137
4702.28,0.28270
4696.49,0.27285
4690.71,0.25581
4684.92,0.22493
4679.14,0.18721
4673.35,0.15175
4667.56,0.13337
4661.78,0.13043
4655.99,0.13792
4650.2,0.15381
4644.42,0.16224
4638.63,0.15699
4632.85,0.14530
4627.06,0.13527
4621.27,0.13277
4615.49,0.13178
4609.7,0.12754
4603.92,0.12892
4598.13,0.14250
4592.34,0.16108
4586.56,0.17248
4580.77,0.16869
4574.98,0.15088
4569.2,0.14815
4563.41,0.16876
4557.63,0.19092
4551.84,0.20787
4546.05,0.22573
4540.27,0.23631
4534.48,0.23774
4528.69,0.23950
4522.91,0.24203
4517.12,0.24111
4511.34,0.23874
4505.55,0.23487
4499.76,0.23703
4493.98,0.24847
4488.19,0.25146
4482.4,0.25082
4476.62,0.25327
4470.83,0.26078
4465.05,0.26740
4459.26,0.27213
4453.47,0.26738
4447.69,0.25751
4441.9,0.24643
4436.11,0.24416
4430.33,0.24517
4424.54,0.24118
4418.76,0.23340
4412.97,0.22655
4407.18,0.21755
4401.4,0.20885
4395.61,0.19930
4389.82,0.18928
4384.04,0.17827
4378.25,0.16984
4372.47,0.16107
4366.68,0.15111
4360.89,0.14236
4355.11,0.13571
4349.32,0.13021
4343.53,0.12490
4337.75,0.12130
4331.96,0.11919
4326.18,0.12090
4320.39,0.12515
4314.6,0.13263
4308.82,0.13808
4303.03,0.14011
4297.24,0.13820
4291.46,0.13471
4285.67,0.13096
4279.89,0.12597
4274.1,0.12050
4268.31,0.11518
4262.53,0.11005
4256.74,0.10603
4250.95,0.10443
4245.17,0.10380
4239.38,0.10517
4233.6,0.10720
4227.81,0.10802
4222.02,0.10854
4216.24,0.10935
4210.45,0.10910
4204.66,0.10914
4198.88,0.11169
4193.09,0.11547
4187.31,0.11771
4181.52,0.11890
4175.73,0.12070
4169.95,0.12373
4164.16,0.12516
4158.37,0.12492
4152.59,0.12477
4146.8,0.12575
4141.02,0.12418
4135.23,0.12199
4129.44,0.11919
4123.66,0.11640
4117.87,0.11508
4112.09,0.11212
4106.3,0.11061
4100.51,0.10920
4094.73,0.10741
4088.94,0.10364
4083.15,0.09894
4077.37,0.09391
4071.58,0.08902
4065.8,0.08514
4060.01,0.08251
4054.22,0.08156
4048.44,0.08179
4042.65,0.08116
4036.86,0.08068
4031.08,0.08233
4025.29,0.08702
4019.51,0.09489
4013.72,0.10418
4007.93,0.10822
4002.15,0.10874
3996.36,0.11061
3990.57,0.11747
3984.79,0.12091
3979,0.12079
3973.22,0.12091
3967.43,0.12303
3961.64,0.12421
3955.86,0.12539
3950.07,0.12724
3944.28,0.12455
3938.5,0.12289
3932.71,0.12244
3926.93,0.12433
3921.14,0.12520
3915.35,0.12623
3909.57,0.12765
3903.78,0.12785
3897.99,0.12849
3892.21,0.12929
3886.42,0.13065
3880.64,0.13152
3874.85,0.13145
3869.06,0.13140
3863.28,0.13037
3857.49,0.13134
3851.7,0.13063
3845.92,0.12933
3840.13,0.12828
3834.35,0.12590
3828.56,0.12463
3822.77,0.12287
3816.99,0.12164
3811.2,0.12225
3805.41,0.12244
3799.63,0.12265
3793.84,0.12502
3788.06,0.12879
3782.27,0.13091
3776.48,0.13131
3770.7,0.13036
3764.91,0.13013
3759.12,0.13100
3753.34,0.13351
3747.55,0.13672
3741.77,0.13649
3735.98,0.13562
3730.19,0.13315
3724.41,0.12737
3718.62,0.12644
3712.83,0.13044
3707.05,0.12697
3701.26,0.12108
3695.48,0.12178
3689.69,0.12466
3683.9,0.12170
3678.12,0.11951
3672.33,0.11899
3666.54,0.11808
3660.76,0.11452
3654.97,0.10705
3649.19,0.09972
3643.4,0.10026
3637.61,0.11143
3631.83,0.11967
3626.04,0.11680
3620.25,0.11104
3614.47,0.12100
3608.68,0.13492
3602.9,0.13998
3597.11,0.14157
3591.32,0.14142
3585.54,0.14274
3579.75,0.14665
3573.97,0.15156
3568.18,0.15502
3562.39,0.15498
3556.61,0.15520
3550.82,0.15506
3545.03,0.15406
3539.25,0.15249
3533.46,0.15043
3527.68,0.14927
3521.89,0.14808
3516.1,0.14610
3510.32,0.14469
3504.53,0.14371
3498.74,0.14265
3492.96,0.13988
3487.17,0.13614
3481.39,0.13398
3475.6,0.13280
3469.81,0.13025
3464.03,0.12957
3458.24,0.12842
3452.45,0.12659
3446.67,0.12347
3440.88,0.12241
3435.1,0.12363
3429.31,0.12731
3423.52,0.13085
3417.74,0.13281
3411.95,0.13383
3406.16,0.13470
3400.38,0.13601
3394.59,0.13637
3388.81,0.13719
3383.02,0.13733
3377.23,0.13772
3371.45,0.14052
3365.66,0.14224
3359.87,0.14286
3354.09,0.14159
3348.3,0.14009
3342.52,0.13841
3336.73,0.13714
3330.94,0.13590
3325.16,0.13467
3319.37,0.13374
3313.58,0.13177
3307.8,0.12692
3302.01,0.12134
3296.23,0.12134
3290.44,0.12375
3284.65,0.12516
3278.87,0.12508
3273.08,0.12455
3267.29,0.12395
3261.51,0.12241
3255.72,0.12135
3249.94,0.12011
3244.15,0.11965
3238.36,0.11797
3232.58,0.11657
3226.79,0.11424
3221,0.11200
3215.22,0.10928
3209.43,0.10554
3203.65,0.10055
3197.86,0.09841
3192.07,0.09840
3186.29,0.09678
3180.5,0.09488
3174.71,0.09264
3168.93,0.08739
3163.14,0.08121
3157.36,0.08298
3151.57,0.08520
3145.78,0.08490
3140,0.08323
3134.21,0.08087
3128.42,0.07897
3122.64,0.07566
3116.85,0.07165
3111.07,0.06789
3105.28,0.06599
3099.49,0.06555
3093.71,0.06547
3087.92,0.06390
3082.14,0.06389
3076.35,0.06415
3070.56,0.06381
3064.78,0.06313
3058.99,0.06442
3053.2,0.06520
3047.42,0.06549
3041.63,0.06413
3035.85,0.06355
3030.06,0.06291
3024.27,0.06569
3018.49,0.06700
3012.7,0.06694
3006.91,0.06653
3001.13,0.06657
2995.34,0.06635
2989.56,0.06627
2983.77,0.06627
2977.98,0.06574
2972.2,0.06540
2966.41,0.06506
2960.62,0.06440
2954.84,0.06462
2949.05,0.06371
2943.27,0.06353
2937.48,0.06340
2931.69,0.06467
2925.91,0.06624
2920.12,0.06847
2914.33,0.06937
2908.55,0.06918
2902.76,0.06926
2896.98,0.06920
2891.19,0.06820
2885.4,0.06797
2879.62,0.06811
2873.83,0.06807
2868.04,0.06764
2862.26,0.06692
2856.47,0.06758
2850.69,0.06865
2844.9,0.06869
2839.11,0.06864
2833.33,0.06912
2827.54,0.06919
2821.75,0.06996
2815.97,0.06996
2810.18,0.07042
2804.4,0.07111
2798.61,0.07192
2792.82,0.07238
2787.04,0.07258
2781.25,0.07285
2775.46,0.07324
2769.68,0.07426
2763.89,0.07480
2758.11,0.07577
2752.32,0.07644
2746.53,0.07634
2740.75,0.07611
2734.96,0.07578
2729.17,0.07497
2723.39,0.07475
2717.6,0.07465
2711.82,0.07459
2706.03,0.07483
2700.24,0.07481
2694.46,0.07465
2688.67,0.07401
2682.88,0.07425
2677.1,0.07428
2671.31,0.07469
2665.53,0.07451
2659.74,0.07466
2653.95,0.07459
2648.17,0.07439
2642.38,0.07391
2636.59,0.07338
2630.81,0.07281
2625.02,0.07383
2619.24,0.07454
2613.45,0.07467
2607.66,0.07333
2601.88,0.07301
2596.09,0.07441
2590.3,0.07543
2584.52,0.07497
2578.73,0.07465
2572.95,0.07602
2567.16,0.07622
2561.37,0.07589
2555.59,0.07604
2549.8,0.07567
2544.02,0.07535
2538.23,0.07605
2532.44,0.07618
2526.66,0.07562
2520.87,0.07592
2515.08,0.07539
2509.3,0.07519
2503.51,0.07541
2497.73,0.07652
2491.94,0.07656
2486.15,0.07692
2480.37,0.07791
2474.58,0.07884
2468.79,0.07983
2463.01,0.08091
2457.22,0.08081
2451.44,0.08066
2445.65,0.08096
2439.86,0.08125
2434.08,0.08154
2428.29,0.08203
2422.5,0.08242
2416.72,0.08245
2410.93,0.08150
2405.15,0.08082
2399.36,0.08063
2393.57,0.07982
2387.79,0.07950
2382,0.07941
2376.21,0.07893
2370.43,0.07807
2364.64,0.07665
2358.86,0.07579
2353.07,0.07600
2347.28,0.07495
2341.5,0.07242
2335.71,0.07114
2329.92,0.07429
2324.14,0.07698
2318.35,0.07528
2312.57,0.07322
2306.78,0.07481
2300.99,0.07772
2295.21,0.07778
2289.42,0.07798
2283.63,0.07972
2277.85,0.08042
2272.06,0.07962
2266.28,0.07921
2260.49,0.07795
2254.7,0.07715
2248.92,0.07773
2243.13,0.07938
2237.34,0.08013
2231.56,0.08076
2225.77,0.08142
2219.99,0.08156
2214.2,0.08124
2208.41,0.08141
2202.63,0.08260
2196.84,0.08282
2191.05,0.08165
2185.27,0.08048
2179.48,0.08171
2173.7,0.08343
2167.91,0.08408
2162.12,0.08432
2156.34,0.08397
2150.55,0.08422
2144.76,0.08438
2138.98,0.08501
2133.19,0.08610
2127.41,0.08662
2121.62,0.08664
2115.83,0.08644
2110.05,0.08661
2104.26,0.08770
2098.47,0.08810
2092.69,0.08860
2086.9,0.08863
2081.12,0.08801
2075.33,0.08690
2069.54,0.08645
2063.76,0.08578
2057.97,0.08565
2052.19,0.08520
2046.4,0.08531
2040.61,0.08448
2034.83,0.08285
2029.04,0.08206
2023.25,0.08176
2017.47,0.08113
2011.68,0.07960
2005.9,0.07802
2000.11,0.07702
1994.32,0.07441
1988.54,0.07130
1982.75,0.07032
1976.96,0.06949
1971.18,0.06815
1965.39,0.06663
1959.61,0.06560
1953.82,0.06550
1948.03,0.06572
1942.25,0.06565
1936.46,0.06599
1930.67,0.06674
1924.89,0.06775
1919.1,0.06894
1913.32,0.07009
1907.53,0.06990
1901.74,0.06832
1895.96,0.06741
1890.17,0.06639
1884.38,0.06541
1878.6,0.06564
1872.81,0.06560
1867.03,0.06589
1861.24,0.06625
1855.45,0.06734
1849.67,0.06846
1843.88,0.06957
1838.09,0.06936
1832.31,0.06822
1826.52,0.06670
1820.74,0.06552
1814.95,0.06527
1809.16,0.06513
1803.38,0.06508
1797.59,0.06507
1791.8,0.06632
1786.02,0.06671
1780.23,0.06714
1774.45,0.06663
1768.66,0.06686
1762.87,0.06613
1757.09,0.06543
1751.3,0.06490
1745.51,0.06528
1739.73,0.06530
1733.94,0.06588
1728.16,0.06609
1722.37,0.06656
1716.58,0.06692
1710.8,0.06634
1705.01,0.06630
1699.22,0.06549
1693.44,0.06512
1687.65,0.06496
1681.87,0.06435
1676.08,0.06485
1670.29,0.06478
1664.51,0.06471
1658.72,0.06522
1652.93,0.06545
1647.15,0.06613
1641.36,0.06545
1635.58,0.06545
1629.79,0.06536
1624,0.06474
1618.22,0.06452
1612.43,0.06350
1606.64,0.06235
1600.86,0.06418
1595.07,0.06601
1589.29,0.06511
1583.5,0.06491
1577.71,0.06568
1571.93,0.06547
1566.14,0.06515
1560.35,0.06531
1554.57,0.06491
1548.78,0.06411
1543,0.06379
1537.21,0.06409
1531.42,0.06372
1525.64,0.06416
1519.85,0.06364
1514.07,0.06294
1508.28,0.06250
1502.49,0.06007
1496.71,0.05863
1490.92,0.06720
1485.13,0.06753
1479.35,0.06559
1473.56,0.06440
1467.78,0.06307
1461.99,0.06141
1456.2,0.05958
1450.42,0.06680
1444.63,0.06864
1438.84,0.06830
1433.06,0.06764
1427.27,0.06665
1421.49,0.06627
1415.7,0.06616
1409.91,0.06571
1404.13,0.06522
1398.34,0.06501
1392.55,0.06434
1386.77,0.06433
1380.98,0.06413
1375.2,0.06448
1369.41,0.06467
1363.62,0.06504
1357.84,0.06507
1352.05,0.06466
1346.26,0.06507
1340.48,0.06479
1334.69,0.06432
1328.91,0.06436
1323.12,0.06447
1317.33,0.06447
1311.55,0.06429
1305.76,0.06486
1299.97,0.06465
1294.19,0.06448
1288.4,0.06477
1282.62,0.06471
1276.83,0.06471
1271.04,0.06497
1265.26,0.06511
1259.47,0.06475
1253.68,0.06434
1247.9,0.06433
1242.11,0.06453
1236.33,0.06440
1230.54,0.06475
1224.75,0.06453
1218.97,0.06450
1213.18,0.06420
1207.39,0.06405
1201.61,0.06325
1195.82,0.06387
1190.04,0.06314
1184.25,0.06408
1178.46,0.06410
1172.68,0.06441
1166.89,0.06475
1161.1,0.06436
1155.32,0.06405
1149.53,0.06533
1143.75,0.06524
1137.96,0.06502
1132.17,0.06459
1126.39,0.06422
1120.6,0.06439
1114.81,0.06374
1109.03,0.06322
1103.24,0.06324
1097.46,0.06339
1091.67,0.06236
1085.88,0.06252
1080.1,0.06192
1074.31,0.06168
1068.52,0.06172
1062.74,0.06331
1056.95,0.06362
1051.17,0.06320
1045.38,0.06321
1039.59,0.06180
1033.81,0.06187
1028.02,0.06416
1022.24,0.06529
1016.45,0.06507
1010.66,0.06482
1004.88,0.06434
999.09,0.06411
993.304,0.06386
987.518,0.06333
981.731,0.06331
975.945,0.06406
970.159,0.06306
964.373,0.06296
958.586,0.06275
952.8,0.06278
947.014,0.06302
941.228,0.06320
935.441,0.06244
929.655,0.06260
923.869,0.06162
918.083,0.06159
912.297,0.06150
906.51,0.06198
900.724,0.06289
894.938,0.06290
889.152,0.06215
883.365,0.06212
877.579,0.06214
871.793,0.06189
866.007,0.06184
860.22,0.06163
854.434,0.06034
848.648,0.06030
842.862,0.06032
837.075,0.06064
831.289,0.06034
825.503,0.05971
819.717,0.05977
813.931,0.05926
808.144,0.05859
802.358,0.05863
796.572,0.05752
790.786,0.05652
784.999,0.05440
779.213,0.05233
773.427,0.05125
767.641,0.05154
761.854,0.05541
756.068,0.06009
750.282,0.06360
744.496,0.06610
738.709,0.06417
732.923,0.06224
727.137,0.05797
721.351,0.05370
715.565,0.04969
709.778,0.04114
703.992,0.04681
698.206,0.11284
692.42,0.11061
686.633,0.08619
680.847,0.07795
675.061,0.07498
669.275,0.07387
663.488,0.07286
657.702,0.07105
651.916,0.07113
646.13,0.06846
640.343,0.06846
634.557,0.06766
628.771,0.06791
622.985,0.06544
617.198,0.06764
611.412,0.06684
605.626,0.06412
599.84,0.06477