File: 01_Data/PlasticC/FTIR/IS/PlasticC_IS_T_220907_R3.dpt
7497.03,0.03197
7491.25,0.02569
7485.46,0.01777
7479.67,0.02681
7473.89,0.02958
7468.1,0.02853
7462.32,0.02574
7456.53,0.02837
7450.74,0.02330
7444.96,0.01902
7439.17,0.02973
7433.38,0.02303
7427.6,0.01727
7421.81,0.02628
7416.03,0.03218
7410.24,0.02063
7404.45,0.02604
7398.67,0.02190
7392.88,0.02419
7387.09,0.01728
7381.31,0.02059
7375.52,0.03324
7369.74,0.02916
7363.95,0.02578
7358.16,0.02540
7352.38,0.02786
7346.59,0.02036
7340.8,0.02527
7335.02,0.02488
7329.23,0.02699
7323.45,0.02128
7317.66,0.02726
7311.87,0.02246
7306.09,0.02987
7300.3,0.02006
7294.51,0.02198
7288.73,0.02071
7282.94,0.02497
7277.16,0.02099
7271.37,0.02190
7265.58,0.02866
7259.8,0.02385
7254.01,0.02136
7248.22,0.02680
7242.44,0.02511
7236.65,0.02790
7230.87,0.02224
7225.08,0.01673
7219.29,0.02463
7213.51,0.03040
7207.72,0.02566
7201.93,0.02028
7196.15,0.02721
7190.36,0.02472
7184.58,0.02821
7178.79,0.02115
7173,0.02252
7167.22,0.02518
7161.43,0.02438
7155.65,0.02496
7149.86,0.02970
7144.07,0.02495
7138.29,0.01450
7132.5,0.02975
7126.71,0.02394
7120.93,0.02400
7115.14,0.01800
7109.36,0.01865
7103.57,0.02432
7097.78,0.02570
7092,0.02796
7086.21,0.02318
7080.42,0.01699
7074.64,0.01756
7068.85,0.02429
7063.07,0.02654
7057.28,0.02400
7051.49,0.02117
7045.71,0.02089
7039.92,0.02489
7034.13,0.02718
7028.35,0.02603
7022.56,0.02367
7016.78,0.02625
7010.99,0.01872
7005.2,0.02610
6999.42,0.02395
6993.63,0.02072
6987.84,0.01748
6982.06,0.02808
6976.27,0.02466
6970.49,0.02797
6964.7,0.01942
6958.91,0.01986
6953.13,0.02551
6947.34,0.02779
6941.55,0.02549
6935.77,0.02880
6929.98,0.02029
6924.2,0.02098
6918.41,0.02071
6912.62,0.02581
6906.84,0.01965
6901.05,0.02119
6895.26,0.02383
6889.48,0.02388
6883.69,0.01905
6877.91,0.02838
6872.12,0.02262
6866.33,0.02616
6860.55,0.02620
6854.76,0.02574
6848.97,0.01981
6843.19,0.02195
6837.4,0.02487
6831.62,0.02229
6825.83,0.02581
6820.04,0.02880
6814.26,0.02227
6808.47,0.02165
6802.68,0.02694
6796.9,0.02259
6791.11,0.02095
6785.33,0.02178
6779.54,0.02356
6773.75,0.02649
6767.97,0.02445
6762.18,0.02201
6756.39,0.01975
6750.61,0.02437
6744.82,0.02492
6739.04,0.02480
6733.25,0.02431
6727.46,0.02472
6721.68,0.02322
6715.89,0.02221
6710.1,0.02388
6704.32,0.02144
6698.53,0.02500
6692.75,0.02681
6686.96,0.02094
6681.17,0.02219
6675.39,0.02340
6669.6,0.01653
6663.82,0.02335
6658.03,0.02378
6652.24,0.02785
6646.46,0.02625
6640.67,0.02492
6634.88,0.01965
6629.1,0.01821
6623.31,0.02184
6617.53,0.01798
6611.74,0.02673
6605.95,0.02458
6600.17,0.02368
6594.38,0.02206
6588.59,0.02398
6582.81,0.02250
6577.02,0.02344
6571.24,0.02724
6565.45,0.02163
6559.66,0.02452
6553.88,0.02521
6548.09,0.02474
6542.3,0.02368
6536.52,0.02207
6530.73,0.02330
6524.95,0.02181
6519.16,0.02204
6513.37,0.02171
6507.59,0.02191
6501.8,0.01738
6496.01,0.02357
6490.23,0.02096
6484.44,0.02352
6478.66,0.02173
6472.87,0.01861
6467.08,0.02313
6461.3,0.02526
6455.51,0.02101
6449.72,0.02098
6443.94,0.02091
6438.15,0.02130
6432.37,0.02300
6426.58,0.02112
6420.79,0.02223
6415.01,0.02131
6409.22,0.02550
6403.43,0.02246
6397.65,0.02249
6391.86,0.01983
6386.08,0.02305
6380.29,0.02005
6374.5,0.02382
6368.72,0.01872
6362.93,0.01942
6357.14,0.02253
6351.36,0.02116
6345.57,0.02303
6339.79,0.02354
6334,0.02146
6328.21,0.01981
6322.43,0.02218
6316.64,0.02096
6310.85,0.02274
6305.07,0.02114
6299.28,0.02047
6293.5,0.02191
6287.71,0.02485
6281.92,0.02303
6276.14,0.02070
6270.35,0.02198
6264.56,0.02264
6258.78,0.02485
6252.99,0.02060
6247.21,0.02160
6241.42,0.02342
6235.63,0.02380
6229.85,0.02044
6224.06,0.02179
6218.27,0.02458
6212.49,0.02085
6206.7,0.02350
6200.92,0.02274
6195.13,0.01998
6189.34,0.02033
6183.56,0.02486
6177.77,0.02372
6171.98,0.02405
6166.2,0.02193
6160.41,0.02151
6154.63,0.02105
6148.84,0.02201
6143.05,0.02436
6137.27,0.02021
6131.48,0.02430
6125.7,0.02053
6119.91,0.02317
6114.12,0.02399
6108.34,0.02224
6102.55,0.02239
6096.76,0.02251
6090.98,0.02106
6085.19,0.02064
6079.41,0.02091
6073.62,0.02498
6067.83,0.02200
6062.05,0.02294
6056.26,0.02191
6050.47,0.02239
6044.69,0.02344
6038.9,0.02040
6033.12,0.02079
6027.33,0.02272
6021.54,0.02159
6015.76,0.02305
6009.97,0.02131
6004.18,0.02439
5998.4,0.02237
5992.61,0.01968
5986.83,0.02225
5981.04,0.02477
5975.25,0.02096
5969.47,0.02055
5963.68,0.02129
5957.89,0.02070
5952.11,0.02221
5946.32,0.02267
5940.54,0.02015
5934.75,0.02061
5928.96,0.02331
5923.18,0.02060
5917.39,0.02026
5911.6,0.02130
5905.82,0.02297
5900.03,0.02153
5894.25,0.02436
5888.46,0.02098
5882.67,0.02153
5876.89,0.02267
5871.1,0.02253
5865.31,0.02313
5859.53,0.02492
5853.74,0.02234
5847.96,0.02224
5842.17,0.02171
5836.38,0.02088
5830.6,0.02247
5824.81,0.02224
5819.02,0.02171
5813.24,0.02162
5807.45,0.02188
5801.67,0.02110
5795.88,0.02310
5790.09,0.02250
5784.31,0.02091
5778.52,0.02281
5772.73,0.02191
5766.95,0.02118
5761.16,0.02334
5755.38,0.02211
5749.59,0.01927
5743.8,0.02232
5738.02,0.02149
5732.23,0.02235
5726.44,0.02052
5720.66,0.02171
5714.87,0.02126
5709.09,0.02086
5703.3,0.02147
5697.51,0.02324
5691.73,0.02192
5685.94,0.02171
5680.15,0.02039
5674.37,0.02113
5668.58,0.01948
5662.8,0.02061
5657.01,0.02055
5651.22,0.02162
5645.44,0.02095
5639.65,0.02186
5633.87,0.02051
5628.08,0.02125
5622.29,0.02059
5616.51,0.02038
5610.72,0.02169
5604.93,0.02098
5599.15,0.02090
5593.36,0.02223
5587.58,0.02245
5581.79,0.02108
5576,0.02030
5570.22,0.02171
5564.43,0.02285
5558.64,0.02069
5552.86,0.02177
5547.07,0.02272
5541.29,0.02169
5535.5,0.02067
5529.71,0.02266
5523.93,0.02070
5518.14,0.02202
5512.35,0.02273
5506.57,0.02180
5500.78,0.02063
5495,0.02142
5489.21,0.02238
5483.42,0.02194
5477.64,0.02136
5471.85,0.02092
5466.06,0.02125
5460.28,0.02178
5454.49,0.02165
5448.71,0.02139
5442.92,0.02234
5437.13,0.02179
5431.35,0.02018
5425.56,0.02299
5419.77,0.02178
5413.99,0.02211
5408.2,0.02150
5402.42,0.02129
5396.63,0.02303
5390.84,0.02219
5385.06,0.02240
5379.27,0.02164
5373.48,0.02211
5367.7,0.02232
5361.91,0.02039
5356.13,0.02269
5350.34,0.02161
5344.55,0.02290
5338.77,0.02032
5332.98,0.02070
5327.19,0.02182
5321.41,0.02049
5315.62,0.02100
5309.84,0.02068
5304.05,0.01881
5298.26,0.02163
5292.48,0.02271
5286.69,0.02185
5280.9,0.02158
5275.12,0.02158
5269.33,0.02303
5263.55,0.02275
5257.76,0.02267
5251.97,0.02305
5246.19,0.02140
5240.4,0.02257
5234.61,0.02306
5228.83,0.02201
5223.04,0.02270
5217.26,0.02213
5211.47,0.02119
5205.68,0.02289
5199.9,0.02296
5194.11,0.02190
5188.32,0.02227
5182.54,0.02300
5176.75,0.02201
5170.97,0.02211
5165.18,0.02193
5159.39,0.02201
5153.61,0.02180
5147.82,0.02098
5142.03,0.02104
5136.25,0.02119
5130.46,0.02190
5124.68,0.02372
5118.89,0.02301
5113.1,0.02268
5107.32,0.02234
5101.53,0.02193
5095.75,0.02124
5089.96,0.02287
5084.17,0.02281
5078.39,0.02244
5072.6,0.02183
5066.81,0.02224
5061.03,0.02207
5055.24,0.02220
5049.46,0.02247
5043.67,0.02302
5037.88,0.02191
5032.1,0.02366
5026.31,0.02195
5020.52,0.02196
5014.74,0.02177
5008.95,0.02130
5003.17,0.02196
4997.38,0.02229
4991.59,0.02162
4985.81,0.02103
4980.02,0.02259
4974.23,0.02243
4968.45,0.02129
4962.66,0.02139
4956.88,0.02191
4951.09,0.02289
4945.3,0.02163
4939.52,0.02208
4933.73,0.02202
4927.94,0.02145
4922.16,0.02342
4916.37,0.02348
4910.59,0.02204
4904.8,0.02112
4899.01,0.02163
4893.23,0.02105
4887.44,0.02056
4881.65,0.02161
4875.87,0.02162
4870.08,0.02184
4864.3,0.02147
4858.51,0.02351
4852.72,0.02238
4846.94,0.02156
4841.15,0.02206
4835.36,0.02150
4829.58,0.02138
4823.79,0.02171
4818.01,0.02157
4812.22,0.02202
4806.43,0.02299
4800.65,0.02207
4794.86,0.02145
4789.07,0.02201
4783.29,0.02137
4777.5,0.02260
4771.72,0.02327
4765.93,0.02248
4760.14,0.02155
4754.36,0.02221
4748.57,0.02205
4742.78,0.02177
4737,0.02197
4731.21,0.02100
4725.43,0.02095
4719.64,0.02281
4713.85,0.02191
4708.07,0.02277
4702.28,0.02240
4696.49,0.02209
4690.71,0.02223
4684.92,0.02227
4679.14,0.02265
4673.35,0.02058
4667.56,0.02170
4661.78,0.02250
4655.99,0.02215
4650.2,0.02121
4644.42,0.02264
4638.63,0.02276
4632.85,0.02304
4627.06,0.02238
4621.27,0.02259
4615.49,0.02291
4609.7,0.02230
4603.92,0.02190
4598.13,0.02230
4592.34,0.02280
4586.56,0.02286
4580.77,0.02266
4574.98,0.02260
4569.2,0.02216
4563.41,0.02172
4557.63,0.02218
4551.84,0.02287
4546.05,0.02225
4540.27,0.02244
4534.48,0.02228
4528.69,0.02207
4522.91,0.02193
4517.12,0.02193
4511.34,0.02233
4505.55,0.02146
4499.76,0.02254
4493.98,0.02267
4488.19,0.02221
4482.4,0.02232
4476.62,0.02177
4470.83,0.02233
4465.05,0.02119
4459.26,0.02111
4453.47,0.02232
4447.69,0.02209
4441.9,0.02298
4436.11,0.02215
4430.33,0.02189
4424.54,0.02228
4418.76,0.02234
4412.97,0.02282
4407.18,0.02236
4401.4,0.02254
4395.61,0.02123
4389.82,0.02277
4384.04,0.02203
4378.25,0.02184
4372.47,0.02241
4366.68,0.02212
4360.89,0.02208
4355.11,0.02281
4349.32,0.02221
4343.53,0.02260
4337.75,0.02210
4331.96,0.02197
4326.18,0.02169
4320.39,0.02223
4314.6,0.02236
4308.82,0.02237
4303.03,0.02233
4297.24,0.02333
4291.46,0.02274
4285.67,0.02263
4279.89,0.02224
4274.1,0.02222
4268.31,0.02194
4262.53,0.02179
4256.74,0.02216
4250.95,0.02194
4245.17,0.02195
4239.38,0.02192
4233.6,0.02209
4227.81,0.02196
4222.02,0.02193
4216.24,0.02227
4210.45,0.02336
4204.66,0.02201
4198.88,0.02208
4193.09,0.02218
4187.31,0.02219
4181.52,0.02262
4175.73,0.02222
4169.95,0.02249
4164.16,0.02230
4158.37,0.02196
4152.59,0.02132
4146.8,0.02160
4141.02,0.02199
4135.23,0.02217
4129.44,0.02231
4123.66,0.02153
4117.87,0.02255
4112.09,0.02239
4106.3,0.02161
4100.51,0.02216
4094.73,0.02190
4088.94,0.02258
4083.15,0.02251
4077.37,0.02236
4071.58,0.02235
4065.8,0.02171
4060.01,0.02242
4054.22,0.02239
4048.44,0.02202
4042.65,0.02179
4036.86,0.02213
4031.08,0.02195
4025.29,0.02217
4019.51,0.02269
4013.72,0.02259
4007.93,0.02196
4002.15,0.02214
3996.36,0.02166
3990.57,0.02209
3984.79,0.02196
3979,0.02188
3973.22,0.02256
3967.43,0.02262
3961.64,0.02198
3955.86,0.02198
3950.07,0.02264
3944.28,0.02307
3938.5,0.02195
3932.71,0.02218
3926.93,0.02177
3921.14,0.02210
3915.35,0.02238
3909.57,0.02212
3903.78,0.02237
3897.99,0.02231
3892.21,0.02210
3886.42,0.02242
3880.64,0.02235
3874.85,0.02313
3869.06,0.02238
3863.28,0.02240
3857.49,0.02216
3851.7,0.02219
3845.92,0.02168
3840.13,0.02325
3834.35,0.02230
3828.56,0.02201
3822.77,0.02306
3816.99,0.02259
3811.2,0.02206
3805.41,0.02224
3799.63,0.02209
3793.84,0.02200
3788.06,0.02246
3782.27,0.02223
3776.48,0.02296
3770.7,0.02220
3764.91,0.02208
3759.12,0.02226
3753.34,0.02270
3747.55,0.02159
3741.77,0.02253
3735.98,0.02210
3730.19,0.02178
3724.41,0.02311
3718.62,0.02230
3712.83,0.02191
3707.05,0.02206
3701.26,0.02211
3695.48,0.02176
3689.69,0.02256
3683.9,0.02158
3678.12,0.02233
3672.33,0.02192
3666.54,0.02235
3660.76,0.02243
3654.97,0.02298
3649.19,0.02170
3643.4,0.02170
3637.61,0.02134
3631.83,0.02234
3626.04,0.02134
3620.25,0.02124
3614.47,0.02149
3608.68,0.02148
3602.9,0.02166
3597.11,0.02141
3591.32,0.02205
3585.54,0.02084
3579.75,0.02097
3573.97,0.02093
3568.18,0.02150
3562.39,0.02191
3556.61,0.02050
3550.82,0.02113
3545.03,0.02113
3539.25,0.02125
3533.46,0.02079
3527.68,0.02080
3521.89,0.02158
3516.1,0.02054
3510.32,0.02127
3504.53,0.02054
3498.74,0.02088
3492.96,0.02065
3487.17,0.02135
3481.39,0.02053
3475.6,0.02089
3469.81,0.02028
3464.03,0.02074
3458.24,0.02073
3452.45,0.02107
3446.67,0.02010
3440.88,0.02095
3435.1,0.02064
3429.31,0.02051
3423.52,0.01983
3417.74,0.02087
3411.95,0.02030
3406.16,0.02102
3400.38,0.02008
3394.59,0.02055
3388.81,0.02010
3383.02,0.01987
3377.23,0.02034
3371.45,0.02063
3365.66,0.02011
3359.87,0.02099
3354.09,0.02011
3348.3,0.01978
3342.52,0.01957
3336.73,0.01953
3330.94,0.02046
3325.16,0.01945
3319.37,0.01953
3313.58,0.01972
3307.8,0.02017
3302.01,0.01960
3296.23,0.01995
3290.44,0.01989
3284.65,0.01958
3278.87,0.01995
3273.08,0.01981
3267.29,0.01981
3261.51,0.02064
3255.72,0.02035
3249.94,0.01954
3244.15,0.01979
3238.36,0.02053
3232.58,0.02025
3226.79,0.02012
3221,0.02031
3215.22,0.02062
3209.43,0.02065
3203.65,0.02075
3197.86,0.02089
3192.07,0.02015
3186.29,0.02033
3180.5,0.01997
3174.71,0.02076
3168.93,0.02048
3163.14,0.02026
3157.36,0.02061
3151.57,0.02009
3145.78,0.02066
3140,0.02003
3134.21,0.02053
3128.42,0.02062
3122.64,0.02062
3116.85,0.02041
3111.07,0.02052
3105.28,0.02072
3099.49,0.02086
3093.71,0.02071
3087.92,0.02004
3082.14,0.02011
3076.35,0.01990
3070.56,0.02020
3064.78,0.02042
3058.99,0.02008
3053.2,0.02029
3047.42,0.02074
3041.63,0.02064
3035.85,0.01998
3030.06,0.02051
3024.27,0.02074
3018.49,0.02017
3012.7,0.02046
3006.91,0.02095
3001.13,0.01975
2995.34,0.01999
2989.56,0.01993
2983.77,0.01992
2977.98,0.01981
2972.2,0.01959
2966.41,0.01963
2960.62,0.01989
2954.84,0.01919
2949.05,0.01924
2943.27,0.01878
2937.48,0.01907
2931.69,0.01962
2925.91,0.01956
2920.12,0.01990
2914.33,0.01977
2908.55,0.02023
2902.76,0.02067
2896.98,0.02033
2891.19,0.02041
2885.4,0.02020
2879.62,0.01991
2873.83,0.01982
2868.04,0.01978
2862.26,0.01986
2856.47,0.02032
2850.69,0.02072
2844.9,0.02049
2839.11,0.02104
2833.33,0.02119
2827.54,0.02099
2821.75,0.02105
2815.97,0.02107
2810.18,0.02081
2804.4,0.02134
2798.61,0.02126
2792.82,0.02137
2787.04,0.02070
2781.25,0.02094
2775.46,0.02114
2769.68,0.02118
2763.89,0.02093
2758.11,0.02105
2752.32,0.02079
2746.53,0.02100
2740.75,0.02120
2734.96,0.02100
2729.17,0.02102
2723.39,0.02085
2717.6,0.02073
2711.82,0.02103
2706.03,0.02141
2700.24,0.02155
2694.46,0.02117
2688.67,0.02113
2682.88,0.02090
2677.1,0.02093
2671.31,0.02106
2665.53,0.02084
2659.74,0.02118
2653.95,0.02170
2648.17,0.02107
2642.38,0.02079
2636.59,0.02075
2630.81,0.02135
2625.02,0.02127
2619.24,0.02137
2613.45,0.02091
2607.66,0.02111
2601.88,0.02088
2596.09,0.02092
2590.3,0.02099
2584.52,0.02061
2578.73,0.02066
2572.95,0.02077
2567.16,0.02102
2561.37,0.02088
2555.59,0.02088
2549.8,0.02114
2544.02,0.02092
2538.23,0.02043
2532.44,0.02067
2526.66,0.02104
2520.87,0.02088
2515.08,0.02130
2509.3,0.02052
2503.51,0.02128
2497.73,0.02110
2491.94,0.02085
2486.15,0.02076
2480.37,0.02059
2474.58,0.02079
2468.79,0.02115
2463.01,0.02047
2457.22,0.02046
2451.44,0.02109
2445.65,0.02093
2439.86,0.02079
2434.08,0.02089
2428.29,0.02108
2422.5,0.02116
2416.72,0.02051
2410.93,0.02075
2405.15,0.02075
2399.36,0.02102
2393.57,0.02090
2387.79,0.02071
2382,0.02121
2376.21,0.02075
2370.43,0.02132
2364.64,0.02095
2358.86,0.02065
2353.07,0.02078
2347.28,0.02083
2341.5,0.02092
2335.71,0.02117
2329.92,0.02113
2324.14,0.02050
2318.35,0.02076
2312.57,0.02077
2306.78,0.02061
2300.99,0.02043
2295.21,0.02083
2289.42,0.02062
2283.63,0.02099
2277.85,0.02070
2272.06,0.02096
2266.28,0.02077
2260.49,0.02070
2254.7,0.02078
2248.92,0.02062
2243.13,0.02074
2237.34,0.02034
2231.56,0.02104
2225.77,0.02055
2219.99,0.02058
2214.2,0.02055
2208.41,0.02089
2202.63,0.02059
2196.84,0.02053
2191.05,0.02044
2185.27,0.02057
2179.48,0.02071
2173.7,0.02042
2167.91,0.02078
2162.12,0.02081
2156.34,0.02090
2150.55,0.02071
2144.76,0.02093
2138.98,0.02078
2133.19,0.02043
2127.41,0.02051
2121.62,0.02043
2115.83,0.02044
2110.05,0.02054
2104.26,0.02069
2098.47,0.02067
2092.69,0.02077
2086.9,0.02065
2081.12,0.02087
2075.33,0.02078
2069.54,0.02092
2063.76,0.02056
2057.97,0.02070
2052.19,0.02069
2046.4,0.02039
2040.61,0.02071
2034.83,0.02011
2029.04,0.02056
2023.25,0.02023
2017.47,0.02040
2011.68,0.02065
2005.9,0.02060
2000.11,0.02043
1994.32,0.02061
1988.54,0.02077
1982.75,0.02021
1976.96,0.02032
1971.18,0.02048
1965.39,0.02036
1959.61,0.02028
1953.82,0.02020
1948.03,0.02064
1942.25,0.02039
1936.46,0.02023
1930.67,0.02035
1924.89,0.02034
1919.1,0.02065
1913.32,0.02026
1907.53,0.02031
1901.74,0.02029
1895.96,0.02032
1890.17,0.02056
1884.38,0.02038
1878.6,0.02054
1872.81,0.02047
1867.03,0.02027
1861.24,0.02010
1855.45,0.02028
1849.67,0.01999
1843.88,0.01972
1838.09,0.01995
1832.31,0.01976
1826.52,0.01984
1820.74,0.01954
1814.95,0.01975
1809.16,0.01958
1803.38,0.01935
1797.59,0.01917
1791.8,0.01902
1786.02,0.01905
1780.23,0.01885
1774.45,0.01844
1768.66,0.01812
1762.87,0.01776
1757.09,0.01737
1751.3,0.01712
1745.51,0.01747
1739.73,0.01836
1733.94,0.01986
1728.16,0.02020
1722.37,0.02077
1716.58,0.02120
1710.8,0.02047
1705.01,0.02049
1699.22,0.01953
1693.44,0.01893
1687.65,0.01897
1681.87,0.01835
1676.08,0.01854
1670.29,0.01849
1664.51,0.01849
1658.72,0.01841
1652.93,0.01914
1647.15,0.01824
1641.36,0.01856
1635.58,0.01858
1629.79,0.01860
1624,0.01866
1618.22,0.01876
1612.43,0.01868
1606.64,0.01852
1600.86,0.01846
1595.07,0.01878
1589.29,0.01862
1583.5,0.01845
1577.71,0.01869
1571.93,0.01812
1566.14,0.01798
1560.35,0.01752
1554.57,0.01750
1548.78,0.01778
1543,0.01882
1537.21,0.01865
1531.42,0.01805
1525.64,0.01814
1519.85,0.01819
1514.07,0.01845
1508.28,0.01919
1502.49,0.01856
1496.71,0.01894
1490.92,0.01851
1485.13,0.01867
1479.35,0.01871
1473.56,0.01838
1467.78,0.01851
1461.99,0.01832
1456.2,0.01800
1450.42,0.01859
1444.63,0.01860
1438.84,0.01877
1433.06,0.01868
1427.27,0.01857
1421.49,0.01812
1415.7,0.01820
1409.91,0.01844
1404.13,0.01801
1398.34,0.01833
1392.55,0.01731
1386.77,0.01794
1380.98,0.01778
1375.2,0.01821
1369.41,0.01798
1363.62,0.01797
1357.84,0.01800
1352.05,0.01784
1346.26,0.01782
1340.48,0.01771
1334.69,0.01732
1328.91,0.01689
1323.12,0.01654
1317.33,0.01672
1311.55,0.01660
1305.76,0.01659
1299.97,0.01713
1294.19,0.01736
1288.4,0.01839
1282.62,0.01875
1276.83,0.01897
1271.04,0.01950
1265.26,0.01955
1259.47,0.01978
1253.68,0.01999
1247.9,0.02003
1242.11,0.02024
1236.33,0.01955
1230.54,0.01919
1224.75,0.01881
1218.97,0.01879
1213.18,0.01870
1207.39,0.01867
1201.61,0.01812
1195.82,0.01814
1190.04,0.01820
1184.25,0.01806
1178.46,0.01726
1172.68,0.01741
1166.89,0.01705
1161.1,0.01751
1155.32,0.01721
1149.53,0.01750
1143.75,0.01752
1137.96,0.01807
1132.17,0.01758
1126.39,0.01791
1120.6,0.01907
1114.81,0.01927
1109.03,0.01878
1103.24,0.01908
1097.46,0.01823
1091.67,0.01846
1085.88,0.01737
1080.1,0.01821
1074.31,0.01909
1068.52,0.02006
1062.74,0.01917
1056.95,0.02010
1051.17,0.02000
1045.38,0.01895
1039.59,0.01939
1033.81,0.01908
1028.02,0.01909
1022.24,0.01889
1016.45,0.01945
1010.66,0.01924
1004.88,0.02096
999.09,0.02074
993.304,0.02056
987.518,0.02029
981.731,0.02020
975.945,0.02038
970.159,0.02042
964.373,0.02009
958.586,0.01953
952.8,0.01962
947.014,0.01893
941.228,0.01939
935.441,0.01935
929.655,0.01958
923.869,0.01943
918.083,0.01926
912.297,0.01882
906.51,0.01906
900.724,0.01936
894.938,0.01886
889.152,0.01919
883.365,0.01959
877.579,0.01883
871.793,0.01862
866.007,0.01928
860.22,0.01943
854.434,0.01954
848.648,0.01829
842.862,0.01927
837.075,0.01925
831.289,0.01900
825.503,0.01830
819.717,0.01878
813.931,0.01979
808.144,0.01843
802.358,0.01822
796.572,0.01834
790.786,0.01886
784.999,0.01835
779.213,0.01828
773.427,0.01817
767.641,0.01830
761.854,0.01828
756.068,0.01813
750.282,0.01795
744.496,0.01826
738.709,0.01890
732.923,0.01819
727.137,0.01817
721.351,0.01712
715.565,0.01781
709.778,0.01812
703.992,0.01812
698.206,0.01798
692.42,0.01776
686.633,0.01670
680.847,0.01765
675.061,0.01796
669.275,0.01608
663.488,0.01729
657.702,0.01692
651.916,0.01826
646.13,0.01676
640.343,0.01795
634.557,0.01569
628.771,0.01714
622.985,0.01658
617.198,0.01651
611.412,0.01786
605.626,0.01647
599.84,0.01314