File: 01_Data/PlasticC/FTIR/IS/PlasticC_IS_S_220907_R1.dpt
7497.03,0.85305
7491.25,0.84331
7485.46,0.82472
7479.67,0.82616
7473.89,0.83676
7468.1,0.82236
7462.32,0.81965
7456.53,0.81842
7450.74,0.81758
7444.96,0.80200
7439.17,0.80209
7433.38,0.80135
7427.6,0.80722
7421.81,0.79928
7416.03,0.79546
7410.24,0.79861
7404.45,0.79728
7398.67,0.79700
7392.88,0.80408
7387.09,0.80445
7381.31,0.81103
7375.52,0.81138
7369.74,0.81093
7363.95,0.80354
7358.16,0.79839
7352.38,0.80905
7346.59,0.80831
7340.8,0.80967
7335.02,0.79820
7329.23,0.78741
7323.45,0.78522
7317.66,0.78401
7311.87,0.78125
7306.09,0.77138
7300.3,0.76296
7294.51,0.77304
7288.73,0.75398
7282.94,0.74802
7277.16,0.74941
7271.37,0.74148
7265.58,0.74080
7259.8,0.73809
7254.01,0.73128
7248.22,0.73260
7242.44,0.72044
7236.65,0.72712
7230.87,0.72103
7225.08,0.72281
7219.29,0.71900
7213.51,0.71562
7207.72,0.70796
7201.93,0.70316
7196.15,0.69981
7190.36,0.69728
7184.58,0.70647
7178.79,0.70103
7173,0.69861
7167.22,0.70034
7161.43,0.69613
7155.65,0.69487
7149.86,0.69698
7144.07,0.70209
7138.29,0.69957
7132.5,0.69172
7126.71,0.69273
7120.93,0.69183
7115.14,0.69284
7109.36,0.69310
7103.57,0.67996
7097.78,0.67777
7092,0.67756
7086.21,0.67799
7080.42,0.66884
7074.64,0.67603
7068.85,0.67016
7063.07,0.67023
7057.28,0.67816
7051.49,0.67544
7045.71,0.67673
7039.92,0.68220
7034.13,0.68648
7028.35,0.68622
7022.56,0.68721
7016.78,0.69064
7010.99,0.69357
7005.2,0.69144
6999.42,0.68789
6993.63,0.69246
6987.84,0.68684
6982.06,0.69127
6976.27,0.68533
6970.49,0.69517
6964.7,0.69383
6958.91,0.69392
6953.13,0.69090
6947.34,0.70016
6941.55,0.69699
6935.77,0.70395
6929.98,0.69597
6924.2,0.70325
6918.41,0.70324
6912.62,0.70280
6906.84,0.70342
6901.05,0.71108
6895.26,0.70918
6889.48,0.71389
6883.69,0.71176
6877.91,0.71778
6872.12,0.72316
6866.33,0.72563
6860.55,0.72424
6854.76,0.72694
6848.97,0.72281
6843.19,0.72875
6837.4,0.73001
6831.62,0.73146
6825.83,0.73258
6820.04,0.72397
6814.26,0.72703
6808.47,0.72607
6802.68,0.72954
6796.9,0.73384
6791.11,0.73140
6785.33,0.73385
6779.54,0.73998
6773.75,0.74513
6767.97,0.74303
6762.18,0.74323
6756.39,0.73907
6750.61,0.74434
6744.82,0.74836
6739.04,0.74425
6733.25,0.74123
6727.46,0.74658
6721.68,0.74657
6715.89,0.73993
6710.1,0.75196
6704.32,0.74695
6698.53,0.75091
6692.75,0.74855
6686.96,0.75811
6681.17,0.75758
6675.39,0.75403
6669.6,0.75769
6663.82,0.75851
6658.03,0.76596
6652.24,0.76342
6646.46,0.76902
6640.67,0.76406
6634.88,0.76335
6629.1,0.77094
6623.31,0.76822
6617.53,0.76935
6611.74,0.76835
6605.95,0.77030
6600.17,0.76842
6594.38,0.77220
6588.59,0.77131
6582.81,0.77468
6577.02,0.77259
6571.24,0.77444
6565.45,0.77682
6559.66,0.78151
6553.88,0.78068
6548.09,0.78244
6542.3,0.78052
6536.52,0.77992
6530.73,0.77933
6524.95,0.78314
6519.16,0.78716
6513.37,0.78669
6507.59,0.78511
6501.8,0.79129
6496.01,0.79029
6490.23,0.79192
6484.44,0.79333
6478.66,0.79791
6472.87,0.80090
6467.08,0.79974
6461.3,0.79426
6455.51,0.79756
6449.72,0.79828
6443.94,0.79732
6438.15,0.80077
6432.37,0.79935
6426.58,0.79811
6420.79,0.79936
6415.01,0.79941
6409.22,0.80184
6403.43,0.79729
6397.65,0.79504
6391.86,0.79780
6386.08,0.79306
6380.29,0.79244
6374.5,0.78870
6368.72,0.78811
6362.93,0.78658
6357.14,0.78020
6351.36,0.78627
6345.57,0.78230
6339.79,0.78341
6334,0.78503
6328.21,0.78162
6322.43,0.77806
6316.64,0.77348
6310.85,0.77027
6305.07,0.77046
6299.28,0.76845
6293.5,0.76384
6287.71,0.76373
6281.92,0.76390
6276.14,0.76593
6270.35,0.76220
6264.56,0.75609
6258.78,0.75347
6252.99,0.74677
6247.21,0.74090
6241.42,0.73624
6235.63,0.72700
6229.85,0.72569
6224.06,0.72055
6218.27,0.71533
6212.49,0.70706
6206.7,0.70088
6200.92,0.69159
6195.13,0.68587
6189.34,0.67404
6183.56,0.66085
6177.77,0.64904
6171.98,0.63215
6166.2,0.60893
6160.41,0.58738
6154.63,0.56161
6148.84,0.53779
6143.05,0.51840
6137.27,0.50393
6131.48,0.49025
6125.7,0.47518
6119.91,0.45509
6114.12,0.43592
6108.34,0.43531
6102.55,0.43751
6096.76,0.44371
6090.98,0.44273
6085.19,0.43592
6079.41,0.42850
6073.62,0.42453
6067.83,0.43705
6062.05,0.46241
6056.26,0.47818
6050.47,0.48011
6044.69,0.46979
6038.9,0.44743
6033.12,0.42280
6027.33,0.39585
6021.54,0.36432
6015.76,0.33774
6009.97,0.31029
6004.18,0.28509
5998.4,0.26601
5992.61,0.24728
5986.83,0.23470
5981.04,0.21628
5975.25,0.20524
5969.47,0.19737
5963.68,0.19440
5957.89,0.19532
5952.11,0.19434
5946.32,0.19191
5940.54,0.19350
5934.75,0.19945
5928.96,0.20415
5923.18,0.20942
5917.39,0.20901
5911.6,0.21571
5905.82,0.22116
5900.03,0.22329
5894.25,0.22959
5888.46,0.23970
5882.67,0.25465
5876.89,0.26770
5871.1,0.28206
5865.31,0.29001
5859.53,0.29658
5853.74,0.29748
5847.96,0.29753
5842.17,0.29885
5836.38,0.30052
5830.6,0.30178
5824.81,0.30392
5819.02,0.30230
5813.24,0.30266
5807.45,0.30256
5801.67,0.30174
5795.88,0.30268
5790.09,0.30521
5784.31,0.30798
5778.52,0.32172
5772.73,0.33541
5766.95,0.35011
5761.16,0.36542
5755.38,0.37925
5749.59,0.39326
5743.8,0.40173
5738.02,0.40534
5732.23,0.40368
5726.44,0.39608
5720.66,0.38211
5714.87,0.36869
5709.09,0.35801
5703.3,0.34523
5697.51,0.34281
5691.73,0.34022
5685.94,0.33734
5680.15,0.33274
5674.37,0.32694
5668.58,0.32272
5662.8,0.32485
5657.01,0.33035
5651.22,0.34272
5645.44,0.35342
5639.65,0.36138
5633.87,0.36763
5628.08,0.37736
5622.29,0.38161
5616.51,0.38457
5610.72,0.38801
5604.93,0.38794
5599.15,0.38730
5593.36,0.38252
5587.58,0.37960
5581.79,0.37844
5576,0.38795
5570.22,0.39211
5564.43,0.39322
5558.64,0.39526
5552.86,0.39410
5547.07,0.39474
5541.29,0.39363
5535.5,0.39334
5529.71,0.39173
5523.93,0.39347
5518.14,0.39408
5512.35,0.39600
5506.57,0.39563
5500.78,0.39998
5495,0.40666
5489.21,0.41113
5483.42,0.41234
5477.64,0.41651
5471.85,0.41687
5466.06,0.41805
5460.28,0.41933
5454.49,0.42040
5448.71,0.42003
5442.92,0.41856
5437.13,0.41719
5431.35,0.41739
5425.56,0.41527
5419.77,0.41508
5413.99,0.41361
5408.2,0.41351
5402.42,0.41342
5396.63,0.41157
5390.84,0.40979
5385.06,0.40709
5379.27,0.40766
5373.48,0.40855
5367.7,0.40834
5361.91,0.41098
5356.13,0.41413
5350.34,0.41735
5344.55,0.42385
5338.77,0.42960
5332.98,0.43085
5327.19,0.43325
5321.41,0.43471
5315.62,0.43854
5309.84,0.43950
5304.05,0.43883
5298.26,0.43772
5292.48,0.43822
5286.69,0.43953
5280.9,0.44093
5275.12,0.44162
5269.33,0.44105
5263.55,0.44031
5257.76,0.43955
5251.97,0.43853
5246.19,0.44000
5240.4,0.43835
5234.61,0.43930
5228.83,0.44061
5223.04,0.44192
5217.26,0.44536
5211.47,0.44792
5205.68,0.44948
5199.9,0.45086
5194.11,0.45247
5188.32,0.45207
5182.54,0.45323
5176.75,0.45451
5170.97,0.45463
5165.18,0.45648
5159.39,0.45749
5153.61,0.45642
5147.82,0.45519
5142.03,0.45460
5136.25,0.45179
5130.46,0.45164
5124.68,0.45128
5118.89,0.45219
5113.1,0.45175
5107.32,0.45226
5101.53,0.45474
5095.75,0.45675
5089.96,0.45696
5084.17,0.45687
5078.39,0.45737
5072.6,0.45790
5066.81,0.45996
5061.03,0.45750
5055.24,0.45777
5049.46,0.45833
5043.67,0.45637
5037.88,0.45615
5032.1,0.45680
5026.31,0.45874
5020.52,0.45953
5014.74,0.45835
5008.95,0.45910
5003.17,0.45752
4997.38,0.45593
4991.59,0.45268
4985.81,0.44907
4980.02,0.44826
4974.23,0.44731
4968.45,0.44797
4962.66,0.45017
4956.88,0.44965
4951.09,0.44966
4945.3,0.44749
4939.52,0.44651
4933.73,0.44757
4927.94,0.44763
4922.16,0.44862
4916.37,0.44878
4910.59,0.44780
4904.8,0.44784
4899.01,0.44592
4893.23,0.44476
4887.44,0.44273
4881.65,0.43973
4875.87,0.43495
4870.08,0.43295
4864.3,0.43165
4858.51,0.43247
4852.72,0.42994
4846.94,0.42595
4841.15,0.42076
4835.36,0.41819
4829.58,0.41720
4823.79,0.41962
4818.01,0.41909
4812.22,0.42194
4806.43,0.42085
4800.65,0.42132
4794.86,0.41859
4789.07,0.41523
4783.29,0.41030
4777.5,0.40212
4771.72,0.39136
4765.93,0.37940
4760.14,0.37418
4754.36,0.37387
4748.57,0.37385
4742.78,0.36936
4737,0.36142
4731.21,0.35393
4725.43,0.34040
4719.64,0.32069
4713.85,0.30170
4708.07,0.28977
4702.28,0.28271
4696.49,0.27245
4690.71,0.25400
4684.92,0.22450
4679.14,0.18514
4673.35,0.15100
4667.56,0.13354
4661.78,0.12975
4655.99,0.13732
4650.2,0.15337
4644.42,0.16179
4638.63,0.15669
4632.85,0.14535
4627.06,0.13466
4621.27,0.13175
4615.49,0.13187
4609.7,0.12722
4603.92,0.12998
4598.13,0.14291
4592.34,0.15980
4586.56,0.17092
4580.77,0.16829
4574.98,0.15043
4569.2,0.14742
4563.41,0.16862
4557.63,0.19012
4551.84,0.20846
4546.05,0.22648
4540.27,0.23604
4534.48,0.23656
4528.69,0.23945
4522.91,0.24281
4517.12,0.24034
4511.34,0.23934
4505.55,0.23362
4499.76,0.23690
4493.98,0.24941
4488.19,0.25139
4482.4,0.24947
4476.62,0.25308
4470.83,0.26088
4465.05,0.26726
4459.26,0.26977
4453.47,0.26616
4447.69,0.25684
4441.9,0.24582
4436.11,0.24368
4430.33,0.24568
4424.54,0.24081
4418.76,0.23314
4412.97,0.22470
4407.18,0.21659
4401.4,0.20828
4395.61,0.19922
4389.82,0.18950
4384.04,0.17933
4378.25,0.16989
4372.47,0.16077
4366.68,0.15104
4360.89,0.14215
4355.11,0.13474
4349.32,0.12951
4343.53,0.12473
4337.75,0.12063
4331.96,0.11855
4326.18,0.12009
4320.39,0.12533
4314.6,0.13265
4308.82,0.13805
4303.03,0.13917
4297.24,0.13773
4291.46,0.13574
4285.67,0.13055
4279.89,0.12578
4274.1,0.12044
4268.31,0.11488
4262.53,0.10949
4256.74,0.10561
4250.95,0.10374
4245.17,0.10379
4239.38,0.10511
4233.6,0.10619
4227.81,0.10799
4222.02,0.10848
4216.24,0.10871
4210.45,0.10842
4204.66,0.10892
4198.88,0.11141
4193.09,0.11479
4187.31,0.11699
4181.52,0.11820
4175.73,0.11968
4169.95,0.12360
4164.16,0.12432
4158.37,0.12502
4152.59,0.12496
4146.8,0.12405
4141.02,0.12391
4135.23,0.12183
4129.44,0.11927
4123.66,0.11654
4117.87,0.11495
4112.09,0.11234
4106.3,0.11112
4100.51,0.10969
4094.73,0.10743
4088.94,0.10299
4083.15,0.09865
4077.37,0.09416
4071.58,0.08909
4065.8,0.08439
4060.01,0.08159
4054.22,0.08109
4048.44,0.08183
4042.65,0.08109
4036.86,0.07947
4031.08,0.08182
4025.29,0.08673
4019.51,0.09414
4013.72,0.10393
4007.93,0.10798
4002.15,0.10727
3996.36,0.11058
3990.57,0.11769
3984.79,0.12056
3979,0.12089
3973.22,0.12016
3967.43,0.12203
3961.64,0.12408
3955.86,0.12518
3950.07,0.12538
3944.28,0.12416
3938.5,0.12277
3932.71,0.12292
3926.93,0.12413
3921.14,0.12517
3915.35,0.12656
3909.57,0.12766
3903.78,0.12744
3897.99,0.12716
3892.21,0.12854
3886.42,0.13042
3880.64,0.13133
3874.85,0.13088
3869.06,0.13132
3863.28,0.13095
3857.49,0.13118
3851.7,0.13108
3845.92,0.12893
3840.13,0.12749
3834.35,0.12627
3828.56,0.12442
3822.77,0.12254
3816.99,0.12131
3811.2,0.12079
3805.41,0.12247
3799.63,0.12312
3793.84,0.12387
3788.06,0.12789
3782.27,0.13017
3776.48,0.13102
3770.7,0.13004
3764.91,0.12915
3759.12,0.12992
3753.34,0.13328
3747.55,0.13614
3741.77,0.13557
3735.98,0.13508
3730.19,0.13253
3724.41,0.12666
3718.62,0.12574
3712.83,0.12925
3707.05,0.12570
3701.26,0.11950
3695.48,0.11901
3689.69,0.12120
3683.9,0.11801
3678.12,0.11538
3672.33,0.11353
3666.54,0.11373
3660.76,0.11077
3654.97,0.10540
3649.19,0.09928
3643.4,0.09987
3637.61,0.11119
3631.83,0.11883
3626.04,0.11603
3620.25,0.11052
3614.47,0.11972
3608.68,0.13341
3602.9,0.13821
3597.11,0.13737
3591.32,0.13645
3585.54,0.13731
3579.75,0.14075
3573.97,0.14616
3568.18,0.15197
3562.39,0.15382
3556.61,0.15341
3550.82,0.15269
3545.03,0.15193
3539.25,0.15059
3533.46,0.14873
3527.68,0.14763
3521.89,0.14646
3516.1,0.14552
3510.32,0.14331
3504.53,0.14252
3498.74,0.14087
3492.96,0.13767
3487.17,0.13464
3481.39,0.13408
3475.6,0.13197
3469.81,0.13020
3464.03,0.12874
3458.24,0.12775
3452.45,0.12664
3446.67,0.12325
3440.88,0.12065
3435.1,0.12338
3429.31,0.12747
3423.52,0.13028
3417.74,0.13207
3411.95,0.13340
3406.16,0.13451
3400.38,0.13513
3394.59,0.13521
3388.81,0.13619
3383.02,0.13626
3377.23,0.13683
3371.45,0.13965
3365.66,0.14164
3359.87,0.14180
3354.09,0.14137
3348.3,0.13879
3342.52,0.13740
3336.73,0.13698
3330.94,0.13561
3325.16,0.13404
3319.37,0.13266
3313.58,0.13140
3307.8,0.12680
3302.01,0.12111
3296.23,0.12096
3290.44,0.12342
3284.65,0.12468
3278.87,0.12472
3273.08,0.12453
3267.29,0.12278
3261.51,0.12106
3255.72,0.12001
3249.94,0.11929
3244.15,0.11875
3238.36,0.11793
3232.58,0.11661
3226.79,0.11358
3221,0.11187
3215.22,0.10913
3209.43,0.10497
3203.65,0.10042
3197.86,0.09812
3192.07,0.09824
3186.29,0.09615
3180.5,0.09551
3174.71,0.09298
3168.93,0.08662
3163.14,0.08092
3157.36,0.08230
3151.57,0.08463
3145.78,0.08429
3140,0.08263
3134.21,0.08097
3128.42,0.07867
3122.64,0.07591
3116.85,0.07156
3111.07,0.06796
3105.28,0.06610
3099.49,0.06495
3093.71,0.06555
3087.92,0.06413
3082.14,0.06414
3076.35,0.06459
3070.56,0.06399
3064.78,0.06390
3058.99,0.06503
3053.2,0.06538
3047.42,0.06495
3041.63,0.06451
3035.85,0.06316
3030.06,0.06285
3024.27,0.06535
3018.49,0.06745
3012.7,0.06678
3006.91,0.06630
3001.13,0.06631
2995.34,0.06672
2989.56,0.06658
2983.77,0.06588
2977.98,0.06608
2972.2,0.06567
2966.41,0.06489
2960.62,0.06447
2954.84,0.06391
2949.05,0.06351
2943.27,0.06297
2937.48,0.06341
2931.69,0.06493
2925.91,0.06663
2920.12,0.06885
2914.33,0.06962
2908.55,0.06911
2902.76,0.06943
2896.98,0.06903
2891.19,0.06860
2885.4,0.06847
2879.62,0.06793
2873.83,0.06775
2868.04,0.06769
2862.26,0.06751
2856.47,0.06767
2850.69,0.06851
2844.9,0.06851
2839.11,0.06855
2833.33,0.06864
2827.54,0.06897
2821.75,0.06971
2815.97,0.07023
2810.18,0.07025
2804.4,0.07055
2798.61,0.07116
2792.82,0.07211
2787.04,0.07267
2781.25,0.07242
2775.46,0.07324
2769.68,0.07419
2763.89,0.07509
2758.11,0.07584
2752.32,0.07632
2746.53,0.07665
2740.75,0.07648
2734.96,0.07595
2729.17,0.07533
2723.39,0.07477
2717.6,0.07495
2711.82,0.07526
2706.03,0.07511
2700.24,0.07474
2694.46,0.07478
2688.67,0.07475
2682.88,0.07464
2677.1,0.07456
2671.31,0.07465
2665.53,0.07463
2659.74,0.07452
2653.95,0.07432
2648.17,0.07448
2642.38,0.07425
2636.59,0.07317
2630.81,0.07237
2625.02,0.07383
2619.24,0.07515
2613.45,0.07511
2607.66,0.07359
2601.88,0.07302
2596.09,0.07458
2590.3,0.07572
2584.52,0.07488
2578.73,0.07434
2572.95,0.07581
2567.16,0.07605
2561.37,0.07599
2555.59,0.07604
2549.8,0.07582
2544.02,0.07549
2538.23,0.07600
2532.44,0.07629
2526.66,0.07575
2520.87,0.07541
2515.08,0.07513
2509.3,0.07482
2503.51,0.07540
2497.73,0.07590
2491.94,0.07642
2486.15,0.07697
2480.37,0.07757
2474.58,0.07843
2468.79,0.07993
2463.01,0.08066
2457.22,0.08069
2451.44,0.08088
2445.65,0.08114
2439.86,0.08093
2434.08,0.08128
2428.29,0.08220
2422.5,0.08239
2416.72,0.08220
2410.93,0.08173
2405.15,0.08064
2399.36,0.08017
2393.57,0.07946
2387.79,0.07953
2382,0.07919
2376.21,0.07887
2370.43,0.07847
2364.64,0.07671
2358.86,0.07617
2353.07,0.07605
2347.28,0.07505
2341.5,0.07259
2335.71,0.07164
2329.92,0.07463
2324.14,0.07688
2318.35,0.07552
2312.57,0.07346
2306.78,0.07504
2300.99,0.07731
2295.21,0.07788
2289.42,0.07790
2283.63,0.07933
2277.85,0.07987
2272.06,0.07961
2266.28,0.07853
2260.49,0.07797
2254.7,0.07751
2248.92,0.07794
2243.13,0.07918
2237.34,0.07992
2231.56,0.08078
2225.77,0.08108
2219.99,0.08138
2214.2,0.08135
2208.41,0.08135
2202.63,0.08250
2196.84,0.08259
2191.05,0.08139
2185.27,0.08052
2179.48,0.08164
2173.7,0.08345
2167.91,0.08432
2162.12,0.08474
2156.34,0.08413
2150.55,0.08441
2144.76,0.08468
2138.98,0.08538
2133.19,0.08633
2127.41,0.08664
2121.62,0.08661
2115.83,0.08646
2110.05,0.08697
2104.26,0.08751
2098.47,0.08797
2092.69,0.08857
2086.9,0.08856
2081.12,0.08799
2075.33,0.08707
2069.54,0.08609
2063.76,0.08547
2057.97,0.08600
2052.19,0.08578
2046.4,0.08497
2040.61,0.08413
2034.83,0.08256
2029.04,0.08190
2023.25,0.08179
2017.47,0.08162
2011.68,0.07876
2005.9,0.07806
2000.11,0.07691
1994.32,0.07456
1988.54,0.07130
1982.75,0.07005
1976.96,0.06953
1971.18,0.06804
1965.39,0.06698
1959.61,0.06615
1953.82,0.06550
1948.03,0.06547
1942.25,0.06590
1936.46,0.06629
1930.67,0.06690
1924.89,0.06806
1919.1,0.06887
1913.32,0.06973
1907.53,0.06967
1901.74,0.06837
1895.96,0.06710
1890.17,0.06620
1884.38,0.06584
1878.6,0.06586
1872.81,0.06550
1867.03,0.06590
1861.24,0.06607
1855.45,0.06723
1849.67,0.06865
1843.88,0.06953
1838.09,0.06926
1832.31,0.06832
1826.52,0.06660
1820.74,0.06549
1814.95,0.06553
1809.16,0.06509
1803.38,0.06533
1797.59,0.06527
1791.8,0.06581
1786.02,0.06699
1780.23,0.06696
1774.45,0.06679
1768.66,0.06676
1762.87,0.06623
1757.09,0.06516
1751.3,0.06501
1745.51,0.06521
1739.73,0.06541
1733.94,0.06620
1728.16,0.06620
1722.37,0.06644
1716.58,0.06726
1710.8,0.06658
1705.01,0.06640
1699.22,0.06608
1693.44,0.06573
1687.65,0.06548
1681.87,0.06468
1676.08,0.06475
1670.29,0.06491
1664.51,0.06497
1658.72,0.06552
1652.93,0.06594
1647.15,0.06615
1641.36,0.06564
1635.58,0.06597
1629.79,0.06552
1624,0.06536
1618.22,0.06423
1612.43,0.06352
1606.64,0.06254
1600.86,0.06411
1595.07,0.06583
1589.29,0.06541
1583.5,0.06498
1577.71,0.06576
1571.93,0.06568
1566.14,0.06563
1560.35,0.06672
1554.57,0.06502
1548.78,0.06416
1543,0.06427
1537.21,0.06404
1531.42,0.06399
1525.64,0.06403
1519.85,0.06402
1514.07,0.06316
1508.28,0.06268
1502.49,0.06059
1496.71,0.05872
1490.92,0.06761
1485.13,0.06723
1479.35,0.06595
1473.56,0.06448
1467.78,0.06348
1461.99,0.06183
1456.2,0.05945
1450.42,0.06680
1444.63,0.06829
1438.84,0.06852
1433.06,0.06741
1427.27,0.06670
1421.49,0.06680
1415.7,0.06629
1409.91,0.06556
1404.13,0.06492
1398.34,0.06498
1392.55,0.06427
1386.77,0.06382
1380.98,0.06425
1375.2,0.06444
1369.41,0.06478
1363.62,0.06510
1357.84,0.06453
1352.05,0.06472
1346.26,0.06482
1340.48,0.06469
1334.69,0.06457
1328.91,0.06448
1323.12,0.06447
1317.33,0.06454
1311.55,0.06483
1305.76,0.06470
1299.97,0.06479
1294.19,0.06457
1288.4,0.06482
1282.62,0.06440
1276.83,0.06497
1271.04,0.06489
1265.26,0.06478
1259.47,0.06516
1253.68,0.06440
1247.9,0.06493
1242.11,0.06478
1236.33,0.06456
1230.54,0.06410
1224.75,0.06428
1218.97,0.06430
1213.18,0.06454
1207.39,0.06411
1201.61,0.06399
1195.82,0.06374
1190.04,0.06312
1184.25,0.06390
1178.46,0.06464
1172.68,0.06489
1166.89,0.06463
1161.1,0.06409
1155.32,0.06411
1149.53,0.06439
1143.75,0.06495
1137.96,0.06561
1132.17,0.06525
1126.39,0.06459
1120.6,0.06427
1114.81,0.06368
1109.03,0.06393
1103.24,0.06400
1097.46,0.06321
1091.67,0.06275
1085.88,0.06218
1080.1,0.06249
1074.31,0.06182
1068.52,0.06219
1062.74,0.06351
1056.95,0.06277
1051.17,0.06324
1045.38,0.06334
1039.59,0.06258
1033.81,0.06191
1028.02,0.06410
1022.24,0.06517
1016.45,0.06452
1010.66,0.06459
1004.88,0.06430
999.09,0.06394
993.304,0.06388
987.518,0.06326
981.731,0.06308
975.945,0.06368
970.159,0.06312
964.373,0.06334
958.586,0.06292
952.8,0.06298
947.014,0.06286
941.228,0.06314
935.441,0.06322
929.655,0.06271
923.869,0.06219
918.083,0.06240
912.297,0.06173
906.51,0.06246
900.724,0.06322
894.938,0.06332
889.152,0.06278
883.365,0.06224
877.579,0.06309
871.793,0.06205
866.007,0.06183
860.22,0.06108
854.434,0.06118
848.648,0.06082
842.862,0.06089
837.075,0.06058
831.289,0.06009
825.503,0.06052
819.717,0.05928
813.931,0.05909
808.144,0.05942
802.358,0.05820
796.572,0.05680
790.786,0.05539
784.999,0.05432
779.213,0.05253
773.427,0.05149
767.641,0.05227
761.854,0.05536
756.068,0.06081
750.282,0.06378
744.496,0.06704
738.709,0.06492
732.923,0.06089
727.137,0.05891
721.351,0.05548
715.565,0.04974
709.778,0.04082
703.992,0.04717
698.206,0.11162
692.42,0.11026
686.633,0.08610
680.847,0.07812
675.061,0.07313
669.275,0.07179
663.488,0.07210
657.702,0.07125
651.916,0.07047
646.13,0.07003
640.343,0.06902
634.557,0.06835
628.771,0.06788
622.985,0.06572
617.198,0.06789
611.412,0.06606
605.626,0.06617
599.84,0.06582