File: 01_Data/PlasticC/FTIR/IS/PlasticC_IS_S_220907_R4.dpt
7497.03,0.81884
7491.25,0.83697
7485.46,0.83158
7479.67,0.82382
7473.89,0.82602
7468.1,0.82563
7462.32,0.81167
7456.53,0.80851
7450.74,0.80914
7444.96,0.80469
7439.17,0.79565
7433.38,0.79741
7427.6,0.79962
7421.81,0.80800
7416.03,0.80331
7410.24,0.80418
7404.45,0.79939
7398.67,0.80073
7392.88,0.80377
7387.09,0.81172
7381.31,0.81528
7375.52,0.81707
7369.74,0.81173
7363.95,0.79957
7358.16,0.80600
7352.38,0.81052
7346.59,0.79664
7340.8,0.80898
7335.02,0.79928
7329.23,0.79368
7323.45,0.78747
7317.66,0.78346
7311.87,0.77884
7306.09,0.77051
7300.3,0.77356
7294.51,0.76966
7288.73,0.76696
7282.94,0.75643
7277.16,0.75142
7271.37,0.75035
7265.58,0.73817
7259.8,0.74015
7254.01,0.72810
7248.22,0.72784
7242.44,0.73442
7236.65,0.72358
7230.87,0.72142
7225.08,0.71644
7219.29,0.71923
7213.51,0.71537
7207.72,0.71260
7201.93,0.71252
7196.15,0.69523
7190.36,0.71007
7184.58,0.70066
7178.79,0.70978
7173,0.69272
7167.22,0.69753
7161.43,0.69938
7155.65,0.70589
7149.86,0.69640
7144.07,0.69790
7138.29,0.69453
7132.5,0.69532
7126.71,0.69168
7120.93,0.69424
7115.14,0.68820
7109.36,0.68723
7103.57,0.67877
7097.78,0.68348
7092,0.67331
7086.21,0.67344
7080.42,0.67108
7074.64,0.67566
7068.85,0.67365
7063.07,0.66932
7057.28,0.68058
7051.49,0.67810
7045.71,0.68228
7039.92,0.68248
7034.13,0.68993
7028.35,0.68837
7022.56,0.69690
7016.78,0.68894
7010.99,0.68921
7005.2,0.68898
6999.42,0.68663
6993.63,0.69025
6987.84,0.69074
6982.06,0.68834
6976.27,0.69314
6970.49,0.68823
6964.7,0.69353
6958.91,0.69493
6953.13,0.69377
6947.34,0.69350
6941.55,0.69513
6935.77,0.69867
6929.98,0.70062
6924.2,0.70267
6918.41,0.69668
6912.62,0.70543
6906.84,0.70702
6901.05,0.70923
6895.26,0.70720
6889.48,0.71667
6883.69,0.71460
6877.91,0.71976
6872.12,0.71749
6866.33,0.72419
6860.55,0.72789
6854.76,0.72682
6848.97,0.73102
6843.19,0.72874
6837.4,0.73109
6831.62,0.73317
6825.83,0.73156
6820.04,0.73423
6814.26,0.73487
6808.47,0.73765
6802.68,0.73248
6796.9,0.72792
6791.11,0.73541
6785.33,0.73809
6779.54,0.74155
6773.75,0.73894
6767.97,0.74525
6762.18,0.74274
6756.39,0.74384
6750.61,0.74089
6744.82,0.74405
6739.04,0.73935
6733.25,0.74000
6727.46,0.75051
6721.68,0.74950
6715.89,0.74837
6710.1,0.74609
6704.32,0.74591
6698.53,0.75161
6692.75,0.75491
6686.96,0.75266
6681.17,0.75808
6675.39,0.76031
6669.6,0.76001
6663.82,0.76450
6658.03,0.76427
6652.24,0.76802
6646.46,0.76306
6640.67,0.76434
6634.88,0.76785
6629.1,0.77064
6623.31,0.77122
6617.53,0.76743
6611.74,0.76858
6605.95,0.76720
6600.17,0.76957
6594.38,0.76974
6588.59,0.77409
6582.81,0.77768
6577.02,0.77684
6571.24,0.78244
6565.45,0.78149
6559.66,0.77611
6553.88,0.77934
6548.09,0.77902
6542.3,0.78061
6536.52,0.77897
6530.73,0.78026
6524.95,0.78794
6519.16,0.78746
6513.37,0.78756
6507.59,0.78943
6501.8,0.79344
6496.01,0.79661
6490.23,0.79814
6484.44,0.79570
6478.66,0.79770
6472.87,0.80172
6467.08,0.79647
6461.3,0.80121
6455.51,0.79752
6449.72,0.80178
6443.94,0.80020
6438.15,0.80592
6432.37,0.80346
6426.58,0.80150
6420.79,0.79700
6415.01,0.80373
6409.22,0.80107
6403.43,0.79777
6397.65,0.80355
6391.86,0.79860
6386.08,0.79409
6380.29,0.79170
6374.5,0.79211
6368.72,0.78896
6362.93,0.78753
6357.14,0.78377
6351.36,0.78628
6345.57,0.78717
6339.79,0.78216
6334,0.78336
6328.21,0.78070
6322.43,0.78000
6316.64,0.77822
6310.85,0.77506
6305.07,0.76974
6299.28,0.76935
6293.5,0.76270
6287.71,0.76510
6281.92,0.76857
6276.14,0.76496
6270.35,0.75912
6264.56,0.76040
6258.78,0.75427
6252.99,0.74682
6247.21,0.74135
6241.42,0.73936
6235.63,0.73399
6229.85,0.72881
6224.06,0.71836
6218.27,0.71340
6212.49,0.70834
6206.7,0.70722
6200.92,0.69636
6195.13,0.68120
6189.34,0.67314
6183.56,0.66076
6177.77,0.64660
6171.98,0.63123
6166.2,0.60829
6160.41,0.58945
6154.63,0.56245
6148.84,0.53740
6143.05,0.52004
6137.27,0.50149
6131.48,0.49331
6125.7,0.47437
6119.91,0.45695
6114.12,0.43901
6108.34,0.43286
6102.55,0.43638
6096.76,0.44276
6090.98,0.44340
6085.19,0.43906
6079.41,0.43048
6073.62,0.42809
6067.83,0.43771
6062.05,0.45984
6056.26,0.47715
6050.47,0.47884
6044.69,0.47192
6038.9,0.45179
6033.12,0.42673
6027.33,0.39585
6021.54,0.36680
6015.76,0.33637
6009.97,0.30780
6004.18,0.28524
5998.4,0.26490
5992.61,0.24821
5986.83,0.23547
5981.04,0.21901
5975.25,0.20594
5969.47,0.20180
5963.68,0.19218
5957.89,0.19459
5952.11,0.19310
5946.32,0.19140
5940.54,0.19370
5934.75,0.19757
5928.96,0.20543
5923.18,0.20898
5917.39,0.21104
5911.6,0.21399
5905.82,0.21900
5900.03,0.22491
5894.25,0.22868
5888.46,0.23963
5882.67,0.25385
5876.89,0.26793
5871.1,0.28152
5865.31,0.29427
5859.53,0.29573
5853.74,0.29692
5847.96,0.30027
5842.17,0.29887
5836.38,0.29674
5830.6,0.30107
5824.81,0.30358
5819.02,0.30414
5813.24,0.30334
5807.45,0.30440
5801.67,0.30352
5795.88,0.30116
5790.09,0.30482
5784.31,0.30891
5778.52,0.31908
5772.73,0.33338
5766.95,0.35071
5761.16,0.36454
5755.38,0.37877
5749.59,0.39221
5743.8,0.40082
5738.02,0.40655
5732.23,0.40601
5726.44,0.39713
5720.66,0.38226
5714.87,0.37125
5709.09,0.35708
5703.3,0.34945
5697.51,0.34264
5691.73,0.34112
5685.94,0.33652
5680.15,0.33067
5674.37,0.32648
5668.58,0.32522
5662.8,0.32343
5657.01,0.32970
5651.22,0.34014
5645.44,0.35100
5639.65,0.36450
5633.87,0.37013
5628.08,0.37552
5622.29,0.38300
5616.51,0.38675
5610.72,0.38706
5604.93,0.38766
5599.15,0.38655
5593.36,0.38305
5587.58,0.38096
5581.79,0.37928
5576,0.38571
5570.22,0.39067
5564.43,0.39428
5558.64,0.39516
5552.86,0.39591
5547.07,0.39387
5541.29,0.39239
5535.5,0.39354
5529.71,0.39372
5523.93,0.39374
5518.14,0.39432
5512.35,0.39723
5506.57,0.39963
5500.78,0.40083
5495,0.40702
5489.21,0.41031
5483.42,0.41325
5477.64,0.41566
5471.85,0.41903
5466.06,0.41944
5460.28,0.42173
5454.49,0.42209
5448.71,0.41998
5442.92,0.42080
5437.13,0.41955
5431.35,0.41713
5425.56,0.41639
5419.77,0.41488
5413.99,0.41627
5408.2,0.41565
5402.42,0.41252
5396.63,0.41145
5390.84,0.40861
5385.06,0.40926
5379.27,0.40905
5373.48,0.40884
5367.7,0.40977
5361.91,0.41089
5356.13,0.41501
5350.34,0.41804
5344.55,0.42319
5338.77,0.42793
5332.98,0.43114
5327.19,0.43284
5321.41,0.43700
5315.62,0.44042
5309.84,0.44013
5304.05,0.43799
5298.26,0.44069
5292.48,0.44115
5286.69,0.44197
5280.9,0.44407
5275.12,0.44296
5269.33,0.44386
5263.55,0.44292
5257.76,0.44172
5251.97,0.44233
5246.19,0.44173
5240.4,0.44135
5234.61,0.44163
5228.83,0.44253
5223.04,0.44380
5217.26,0.44724
5211.47,0.45066
5205.68,0.45151
5199.9,0.45199
5194.11,0.45254
5188.32,0.45508
5182.54,0.45628
5176.75,0.45570
5170.97,0.45660
5165.18,0.45590
5159.39,0.45838
5153.61,0.45900
5147.82,0.45819
5142.03,0.45528
5136.25,0.45329
5130.46,0.45257
5124.68,0.45237
5118.89,0.45145
5113.1,0.45372
5107.32,0.45556
5101.53,0.45655
5095.75,0.45838
5089.96,0.45924
5084.17,0.45829
5078.39,0.45855
5072.6,0.45871
5066.81,0.45727
5061.03,0.45910
5055.24,0.45870
5049.46,0.45790
5043.67,0.45750
5037.88,0.45587
5032.1,0.45781
5026.31,0.46005
5020.52,0.45980
5014.74,0.45929
5008.95,0.45953
5003.17,0.45898
4997.38,0.45607
4991.59,0.45326
4985.81,0.44993
4980.02,0.44866
4974.23,0.44906
4968.45,0.44963
4962.66,0.45012
4956.88,0.45136
4951.09,0.45071
4945.3,0.44934
4939.52,0.44858
4933.73,0.44787
4927.94,0.44849
4922.16,0.44968
4916.37,0.44883
4910.59,0.44837
4904.8,0.44725
4899.01,0.44670
4893.23,0.44454
4887.44,0.44333
4881.65,0.43961
4875.87,0.43513
4870.08,0.43424
4864.3,0.43223
4858.51,0.43177
4852.72,0.42992
4846.94,0.42557
4841.15,0.42186
4835.36,0.41851
4829.58,0.41793
4823.79,0.41817
4818.01,0.41849
4812.22,0.42143
4806.43,0.42185
4800.65,0.42075
4794.86,0.41937
4789.07,0.41593
4783.29,0.41112
4777.5,0.40214
4771.72,0.39199
4765.93,0.38105
4760.14,0.37556
4754.36,0.37588
4748.57,0.37370
4742.78,0.37023
4737,0.36233
4731.21,0.35394
4725.43,0.34045
4719.64,0.32152
4713.85,0.30372
4708.07,0.28983
4702.28,0.28249
4696.49,0.27355
4690.71,0.25516
4684.92,0.22577
4679.14,0.18634
4673.35,0.15123
4667.56,0.13260
4661.78,0.12914
4655.99,0.13786
4650.2,0.15321
4644.42,0.16226
4638.63,0.15810
4632.85,0.14483
4627.06,0.13516
4621.27,0.13214
4615.49,0.13170
4609.7,0.12751
4603.92,0.12885
4598.13,0.14313
4592.34,0.16087
4586.56,0.17110
4580.77,0.16874
4574.98,0.15217
4569.2,0.14836
4563.41,0.16891
4557.63,0.19148
4551.84,0.20800
4546.05,0.22612
4540.27,0.23628
4534.48,0.23716
4528.69,0.24008
4522.91,0.24377
4517.12,0.24041
4511.34,0.24062
4505.55,0.23442
4499.76,0.23667
4493.98,0.24927
4488.19,0.25144
4482.4,0.25009
4476.62,0.25363
4470.83,0.26110
4465.05,0.26749
4459.26,0.27158
4453.47,0.26674
4447.69,0.25684
4441.9,0.24579
4436.11,0.24430
4430.33,0.24601
4424.54,0.24155
4418.76,0.23387
4412.97,0.22598
4407.18,0.21717
4401.4,0.20892
4395.61,0.19943
4389.82,0.18916
4384.04,0.17959
4378.25,0.17063
4372.47,0.16045
4366.68,0.15130
4360.89,0.14228
4355.11,0.13587
4349.32,0.13054
4343.53,0.12540
4337.75,0.12147
4331.96,0.12016
4326.18,0.11976
4320.39,0.12585
4314.6,0.13296
4308.82,0.13758
4303.03,0.14009
4297.24,0.13826
4291.46,0.13528
4285.67,0.13142
4279.89,0.12543
4274.1,0.12064
4268.31,0.11547
4262.53,0.10885
4256.74,0.10562
4250.95,0.10387
4245.17,0.10358
4239.38,0.10562
4233.6,0.10742
4227.81,0.10773
4222.02,0.10859
4216.24,0.10984
4210.45,0.10922
4204.66,0.10994
4198.88,0.11123
4193.09,0.11540
4187.31,0.11706
4181.52,0.11972
4175.73,0.12107
4169.95,0.12376
4164.16,0.12494
4158.37,0.12554
4152.59,0.12519
4146.8,0.12557
4141.02,0.12429
4135.23,0.12145
4129.44,0.11883
4123.66,0.11654
4117.87,0.11407
4112.09,0.11222
4106.3,0.11085
4100.51,0.10870
4094.73,0.10737
4088.94,0.10387
4083.15,0.09928
4077.37,0.09415
4071.58,0.08869
4065.8,0.08498
4060.01,0.08192
4054.22,0.08038
4048.44,0.08135
4042.65,0.08145
4036.86,0.08019
4031.08,0.08197
4025.29,0.08699
4019.51,0.09466
4013.72,0.10449
4007.93,0.10862
4002.15,0.10810
3996.36,0.11127
3990.57,0.11835
3984.79,0.12095
3979,0.12079
3973.22,0.12143
3967.43,0.12292
3961.64,0.12448
3955.86,0.12573
3950.07,0.12663
3944.28,0.12471
3938.5,0.12302
3932.71,0.12316
3926.93,0.12471
3921.14,0.12566
3915.35,0.12643
3909.57,0.12737
3903.78,0.12718
3897.99,0.12788
3892.21,0.12952
3886.42,0.13050
3880.64,0.13128
3874.85,0.13131
3869.06,0.13158
3863.28,0.13104
3857.49,0.13119
3851.7,0.13100
3845.92,0.13019
3840.13,0.12833
3834.35,0.12641
3828.56,0.12504
3822.77,0.12348
3816.99,0.12210
3811.2,0.12175
3805.41,0.12181
3799.63,0.12218
3793.84,0.12477
3788.06,0.12891
3782.27,0.13115
3776.48,0.13194
3770.7,0.13123
3764.91,0.12982
3759.12,0.13042
3753.34,0.13349
3747.55,0.13705
3741.77,0.13657
3735.98,0.13601
3730.19,0.13275
3724.41,0.12700
3718.62,0.12615
3712.83,0.13037
3707.05,0.12670
3701.26,0.12004
3695.48,0.12102
3689.69,0.12394
3683.9,0.12127
3678.12,0.11849
3672.33,0.11756
3666.54,0.11687
3660.76,0.11355
3654.97,0.10702
3649.19,0.09987
3643.4,0.10039
3637.61,0.11140
3631.83,0.11975
3626.04,0.11600
3620.25,0.11081
3614.47,0.12043
3608.68,0.13403
3602.9,0.13985
3597.11,0.14151
3591.32,0.14080
3585.54,0.14194
3579.75,0.14503
3573.97,0.14979
3568.18,0.15457
3562.39,0.15582
3556.61,0.15435
3550.82,0.15388
3545.03,0.15361
3539.25,0.15208
3533.46,0.15093
3527.68,0.14943
3521.89,0.14770
3516.1,0.14616
3510.32,0.14443
3504.53,0.14351
3498.74,0.14180
3492.96,0.13930
3487.17,0.13668
3481.39,0.13470
3475.6,0.13303
3469.81,0.12991
3464.03,0.12930
3458.24,0.12799
3452.45,0.12715
3446.67,0.12364
3440.88,0.12226
3435.1,0.12350
3429.31,0.12757
3423.52,0.13063
3417.74,0.13268
3411.95,0.13383
3406.16,0.13465
3400.38,0.13518
3394.59,0.13662
3388.81,0.13717
3383.02,0.13676
3377.23,0.13808
3371.45,0.14036
3365.66,0.14136
3359.87,0.14181
3354.09,0.14148
3348.3,0.13964
3342.52,0.13764
3336.73,0.13653
3330.94,0.13593
3325.16,0.13530
3319.37,0.13406
3313.58,0.13203
3307.8,0.12727
3302.01,0.12146
3296.23,0.12126
3290.44,0.12405
3284.65,0.12554
3278.87,0.12508
3273.08,0.12476
3267.29,0.12312
3261.51,0.12256
3255.72,0.12046
3249.94,0.12069
3244.15,0.11878
3238.36,0.11773
3232.58,0.11625
3226.79,0.11438
3221,0.11164
3215.22,0.10945
3209.43,0.10575
3203.65,0.10091
3197.86,0.09852
3192.07,0.09857
3186.29,0.09731
3180.5,0.09584
3174.71,0.09336
3168.93,0.08736
3163.14,0.08111
3157.36,0.08263
3151.57,0.08484
3145.78,0.08437
3140,0.08326
3134.21,0.08186
3128.42,0.07910
3122.64,0.07601
3116.85,0.07196
3111.07,0.06819
3105.28,0.06569
3099.49,0.06567
3093.71,0.06550
3087.92,0.06403
3082.14,0.06350
3076.35,0.06488
3070.56,0.06421
3064.78,0.06379
3058.99,0.06395
3053.2,0.06501
3047.42,0.06489
3041.63,0.06426
3035.85,0.06357
3030.06,0.06309
3024.27,0.06558
3018.49,0.06695
3012.7,0.06720
3006.91,0.06645
3001.13,0.06634
2995.34,0.06621
2989.56,0.06649
2983.77,0.06670
2977.98,0.06522
2972.2,0.06532
2966.41,0.06554
2960.62,0.06474
2954.84,0.06433
2949.05,0.06404
2943.27,0.06328
2937.48,0.06328
2931.69,0.06469
2925.91,0.06691
2920.12,0.06851
2914.33,0.06956
2908.55,0.06952
2902.76,0.06926
2896.98,0.06940
2891.19,0.06856
2885.4,0.06847
2879.62,0.06777
2873.83,0.06803
2868.04,0.06737
2862.26,0.06747
2856.47,0.06781
2850.69,0.06872
2844.9,0.06910
2839.11,0.06888
2833.33,0.06888
2827.54,0.06934
2821.75,0.06950
2815.97,0.07023
2810.18,0.07085
2804.4,0.07094
2798.61,0.07152
2792.82,0.07238
2787.04,0.07265
2781.25,0.07291
2775.46,0.07386
2769.68,0.07422
2763.89,0.07577
2758.11,0.07574
2752.32,0.07598
2746.53,0.07668
2740.75,0.07638
2734.96,0.07598
2729.17,0.07533
2723.39,0.07492
2717.6,0.07464
2711.82,0.07479
2706.03,0.07502
2700.24,0.07493
2694.46,0.07443
2688.67,0.07455
2682.88,0.07448
2677.1,0.07483
2671.31,0.07439
2665.53,0.07459
2659.74,0.07467
2653.95,0.07462
2648.17,0.07469
2642.38,0.07424
2636.59,0.07311
2630.81,0.07270
2625.02,0.07405
2619.24,0.07493
2613.45,0.07485
2607.66,0.07393
2601.88,0.07326
2596.09,0.07490
2590.3,0.07552
2584.52,0.07456
2578.73,0.07497
2572.95,0.07601
2567.16,0.07654
2561.37,0.07625
2555.59,0.07594
2549.8,0.07577
2544.02,0.07567
2538.23,0.07622
2532.44,0.07654
2526.66,0.07616
2520.87,0.07556
2515.08,0.07500
2509.3,0.07505
2503.51,0.07547
2497.73,0.07645
2491.94,0.07647
2486.15,0.07682
2480.37,0.07767
2474.58,0.07884
2468.79,0.07991
2463.01,0.08070
2457.22,0.08111
2451.44,0.08082
2445.65,0.08140
2439.86,0.08126
2434.08,0.08148
2428.29,0.08173
2422.5,0.08263
2416.72,0.08243
2410.93,0.08168
2405.15,0.08104
2399.36,0.07990
2393.57,0.07978
2387.79,0.07944
2382,0.07876
2376.21,0.07853
2370.43,0.07808
2364.64,0.07645
2358.86,0.07619
2353.07,0.07625
2347.28,0.07494
2341.5,0.07244
2335.71,0.07185
2329.92,0.07409
2324.14,0.07722
2318.35,0.07569
2312.57,0.07351
2306.78,0.07448
2300.99,0.07761
2295.21,0.07780
2289.42,0.07795
2283.63,0.07954
2277.85,0.08036
2272.06,0.07975
2266.28,0.07876
2260.49,0.07803
2254.7,0.07717
2248.92,0.07779
2243.13,0.07921
2237.34,0.08016
2231.56,0.08053
2225.77,0.08161
2219.99,0.08165
2214.2,0.08124
2208.41,0.08150
2202.63,0.08283
2196.84,0.08238
2191.05,0.08165
2185.27,0.08074
2179.48,0.08164
2173.7,0.08361
2167.91,0.08397
2162.12,0.08467
2156.34,0.08493
2150.55,0.08435
2144.76,0.08460
2138.98,0.08531
2133.19,0.08667
2127.41,0.08693
2121.62,0.08689
2115.83,0.08684
2110.05,0.08703
2104.26,0.08776
2098.47,0.08789
2092.69,0.08843
2086.9,0.08859
2081.12,0.08853
2075.33,0.08738
2069.54,0.08633
2063.76,0.08594
2057.97,0.08546
2052.19,0.08527
2046.4,0.08563
2040.61,0.08454
2034.83,0.08312
2029.04,0.08217
2023.25,0.08181
2017.47,0.08094
2011.68,0.07942
2005.9,0.07827
2000.11,0.07695
1994.32,0.07435
1988.54,0.07104
1982.75,0.07027
1976.96,0.06994
1971.18,0.06819
1965.39,0.06672
1959.61,0.06614
1953.82,0.06578
1948.03,0.06597
1942.25,0.06593
1936.46,0.06627
1930.67,0.06690
1924.89,0.06772
1919.1,0.06879
1913.32,0.06999
1907.53,0.07003
1901.74,0.06873
1895.96,0.06715
1890.17,0.06602
1884.38,0.06545
1878.6,0.06555
1872.81,0.06566
1867.03,0.06604
1861.24,0.06628
1855.45,0.06705
1849.67,0.06853
1843.88,0.06970
1838.09,0.06911
1832.31,0.06786
1826.52,0.06683
1820.74,0.06596
1814.95,0.06543
1809.16,0.06511
1803.38,0.06524
1797.59,0.06570
1791.8,0.06623
1786.02,0.06717
1780.23,0.06697
1774.45,0.06694
1768.66,0.06694
1762.87,0.06627
1757.09,0.06560
1751.3,0.06510
1745.51,0.06510
1739.73,0.06528
1733.94,0.06589
1728.16,0.06582
1722.37,0.06639
1716.58,0.06676
1710.8,0.06663
1705.01,0.06622
1699.22,0.06629
1693.44,0.06585
1687.65,0.06520
1681.87,0.06454
1676.08,0.06478
1670.29,0.06504
1664.51,0.06471
1658.72,0.06515
1652.93,0.06602
1647.15,0.06619
1641.36,0.06557
1635.58,0.06581
1629.79,0.06559
1624,0.06490
1618.22,0.06451
1612.43,0.06335
1606.64,0.06219
1600.86,0.06430
1595.07,0.06610
1589.29,0.06528
1583.5,0.06498
1577.71,0.06580
1571.93,0.06561
1566.14,0.06547
1560.35,0.06582
1554.57,0.06443
1548.78,0.06414
1543,0.06430
1537.21,0.06399
1531.42,0.06400
1525.64,0.06408
1519.85,0.06348
1514.07,0.06288
1508.28,0.06177
1502.49,0.06050
1496.71,0.05862
1490.92,0.06738
1485.13,0.06710
1479.35,0.06563
1473.56,0.06473
1467.78,0.06372
1461.99,0.06183
1456.2,0.05938
1450.42,0.06700
1444.63,0.06856
1438.84,0.06854
1433.06,0.06791
1427.27,0.06682
1421.49,0.06667
1415.7,0.06596
1409.91,0.06559
1404.13,0.06533
1398.34,0.06519
1392.55,0.06452
1386.77,0.06400
1380.98,0.06433
1375.2,0.06449
1369.41,0.06445
1363.62,0.06471
1357.84,0.06481
1352.05,0.06494
1346.26,0.06462
1340.48,0.06497
1334.69,0.06416
1328.91,0.06442
1323.12,0.06459
1317.33,0.06447
1311.55,0.06463
1305.76,0.06470
1299.97,0.06503
1294.19,0.06447
1288.4,0.06476
1282.62,0.06481
1276.83,0.06474
1271.04,0.06486
1265.26,0.06507
1259.47,0.06476
1253.68,0.06467
1247.9,0.06463
1242.11,0.06482
1236.33,0.06477
1230.54,0.06448
1224.75,0.06450
1218.97,0.06429
1213.18,0.06384
1207.39,0.06350
1201.61,0.06357
1195.82,0.06403
1190.04,0.06383
1184.25,0.06356
1178.46,0.06446
1172.68,0.06436
1166.89,0.06434
1161.1,0.06463
1155.32,0.06473
1149.53,0.06523
1143.75,0.06530
1137.96,0.06489
1132.17,0.06520
1126.39,0.06493
1120.6,0.06476
1114.81,0.06357
1109.03,0.06332
1103.24,0.06315
1097.46,0.06360
1091.67,0.06283
1085.88,0.06205
1080.1,0.06158
1074.31,0.06246
1068.52,0.06270
1062.74,0.06360
1056.95,0.06405
1051.17,0.06335
1045.38,0.06400
1039.59,0.06275
1033.81,0.06167
1028.02,0.06374
1022.24,0.06539
1016.45,0.06494
1010.66,0.06435
1004.88,0.06437
999.09,0.06432
993.304,0.06413
987.518,0.06376
981.731,0.06349
975.945,0.06330
970.159,0.06273
964.373,0.06263
958.586,0.06351
952.8,0.06363
947.014,0.06303
941.228,0.06310
935.441,0.06331
929.655,0.06308
923.869,0.06260
918.083,0.06196
912.297,0.06137
906.51,0.06168
900.724,0.06321
894.938,0.06284
889.152,0.06249
883.365,0.06269
877.579,0.06179
871.793,0.06233
866.007,0.06086
860.22,0.06125
854.434,0.06048
848.648,0.05954
842.862,0.06051
837.075,0.05989
831.289,0.06062
825.503,0.05936
819.717,0.05934
813.931,0.05875
808.144,0.05821
802.358,0.05863
796.572,0.05799
790.786,0.05637
784.999,0.05452
779.213,0.05285
773.427,0.05135
767.641,0.05231
761.854,0.05503
756.068,0.06043
750.282,0.06412
744.496,0.06607
738.709,0.06485
732.923,0.06157
727.137,0.05823
721.351,0.05423
715.565,0.04968
709.778,0.04090
703.992,0.04666
698.206,0.11104
692.42,0.11048
686.633,0.08727
680.847,0.07932
675.061,0.07388
669.275,0.07374
663.488,0.07213
657.702,0.07165
651.916,0.06891
646.13,0.06843
640.343,0.06807
634.557,0.06787
628.771,0.06627
622.985,0.06572
617.198,0.06629
611.412,0.06866
605.626,0.06606
599.84,0.06588