File: 01_Data/PlasticC/FTIR/IS/PlasticC_IS_S_220907_R6.dpt
7497.03,0.82565
7491.25,0.83159
7485.46,0.83469
7479.67,0.82281
7473.89,0.83071
7468.1,0.81948
7462.32,0.82448
7456.53,0.81521
7450.74,0.80526
7444.96,0.80191
7439.17,0.79802
7433.38,0.80003
7427.6,0.78955
7421.81,0.80518
7416.03,0.79804
7410.24,0.79682
7404.45,0.80232
7398.67,0.79356
7392.88,0.80808
7387.09,0.80926
7381.31,0.80817
7375.52,0.80372
7369.74,0.80031
7363.95,0.80898
7358.16,0.80576
7352.38,0.81816
7346.59,0.80129
7340.8,0.81434
7335.02,0.79705
7329.23,0.79515
7323.45,0.77832
7317.66,0.77480
7311.87,0.77378
7306.09,0.77315
7300.3,0.76943
7294.51,0.76866
7288.73,0.76170
7282.94,0.75787
7277.16,0.74500
7271.37,0.74757
7265.58,0.74760
7259.8,0.74954
7254.01,0.73640
7248.22,0.73461
7242.44,0.72084
7236.65,0.72185
7230.87,0.71306
7225.08,0.71254
7219.29,0.72363
7213.51,0.72134
7207.72,0.70623
7201.93,0.70646
7196.15,0.69710
7190.36,0.69407
7184.58,0.69565
7178.79,0.69883
7173,0.69186
7167.22,0.69887
7161.43,0.69428
7155.65,0.70155
7149.86,0.69638
7144.07,0.69514
7138.29,0.69606
7132.5,0.70356
7126.71,0.69847
7120.93,0.68993
7115.14,0.69297
7109.36,0.68846
7103.57,0.68162
7097.78,0.67772
7092,0.67299
7086.21,0.67328
7080.42,0.68073
7074.64,0.67204
7068.85,0.66271
7063.07,0.66895
7057.28,0.67606
7051.49,0.67776
7045.71,0.67816
7039.92,0.68213
7034.13,0.68360
7028.35,0.68460
7022.56,0.68479
7016.78,0.68952
7010.99,0.68831
7005.2,0.69029
6999.42,0.68321
6993.63,0.68570
6987.84,0.68909
6982.06,0.68615
6976.27,0.69736
6970.49,0.69409
6964.7,0.69228
6958.91,0.69110
6953.13,0.69249
6947.34,0.69016
6941.55,0.69845
6935.77,0.69756
6929.98,0.69562
6924.2,0.69847
6918.41,0.69713
6912.62,0.70563
6906.84,0.70964
6901.05,0.70450
6895.26,0.70945
6889.48,0.71494
6883.69,0.71161
6877.91,0.71484
6872.12,0.72354
6866.33,0.71833
6860.55,0.71703
6854.76,0.72528
6848.97,0.71968
6843.19,0.71975
6837.4,0.72538
6831.62,0.72973
6825.83,0.72731
6820.04,0.73187
6814.26,0.72700
6808.47,0.73180
6802.68,0.73239
6796.9,0.72703
6791.11,0.73217
6785.33,0.73330
6779.54,0.73433
6773.75,0.74181
6767.97,0.73770
6762.18,0.73989
6756.39,0.73896
6750.61,0.74456
6744.82,0.73846
6739.04,0.73607
6733.25,0.74488
6727.46,0.74564
6721.68,0.74490
6715.89,0.74364
6710.1,0.74445
6704.32,0.74611
6698.53,0.74769
6692.75,0.74507
6686.96,0.74998
6681.17,0.75508
6675.39,0.75565
6669.6,0.75869
6663.82,0.75718
6658.03,0.76395
6652.24,0.76532
6646.46,0.76477
6640.67,0.76406
6634.88,0.76799
6629.1,0.76425
6623.31,0.76661
6617.53,0.76630
6611.74,0.76425
6605.95,0.76938
6600.17,0.76567
6594.38,0.76601
6588.59,0.77106
6582.81,0.77325
6577.02,0.77492
6571.24,0.77514
6565.45,0.77357
6559.66,0.77541
6553.88,0.77569
6548.09,0.77766
6542.3,0.77834
6536.52,0.77899
6530.73,0.77685
6524.95,0.77819
6519.16,0.78158
6513.37,0.78667
6507.59,0.79065
6501.8,0.79321
6496.01,0.79042
6490.23,0.79265
6484.44,0.79164
6478.66,0.79352
6472.87,0.79490
6467.08,0.79833
6461.3,0.79544
6455.51,0.79910
6449.72,0.79876
6443.94,0.79410
6438.15,0.79830
6432.37,0.79610
6426.58,0.79694
6420.79,0.80191
6415.01,0.79975
6409.22,0.79793
6403.43,0.79680
6397.65,0.79434
6391.86,0.79504
6386.08,0.79042
6380.29,0.79291
6374.5,0.78485
6368.72,0.78448
6362.93,0.78573
6357.14,0.78153
6351.36,0.77927
6345.57,0.78276
6339.79,0.78150
6334,0.78168
6328.21,0.77817
6322.43,0.77256
6316.64,0.77149
6310.85,0.77415
6305.07,0.76541
6299.28,0.76558
6293.5,0.76033
6287.71,0.76040
6281.92,0.76191
6276.14,0.76081
6270.35,0.75645
6264.56,0.75255
6258.78,0.74685
6252.99,0.74241
6247.21,0.73646
6241.42,0.73314
6235.63,0.72912
6229.85,0.72589
6224.06,0.71919
6218.27,0.71213
6212.49,0.70904
6206.7,0.70095
6200.92,0.68942
6195.13,0.68482
6189.34,0.66980
6183.56,0.65914
6177.77,0.64448
6171.98,0.62599
6166.2,0.60729
6160.41,0.58401
6154.63,0.56139
6148.84,0.53595
6143.05,0.51451
6137.27,0.50182
6131.48,0.49149
6125.7,0.47643
6119.91,0.45091
6114.12,0.43680
6108.34,0.43313
6102.55,0.43806
6096.76,0.44430
6090.98,0.44342
6085.19,0.43653
6079.41,0.42422
6073.62,0.42396
6067.83,0.43629
6062.05,0.46160
6056.26,0.47523
6050.47,0.47774
6044.69,0.46821
6038.9,0.44776
6033.12,0.42398
6027.33,0.39513
6021.54,0.36519
6015.76,0.33298
6009.97,0.30989
6004.18,0.28739
5998.4,0.26538
5992.61,0.24810
5986.83,0.23531
5981.04,0.22007
5975.25,0.20612
5969.47,0.19855
5963.68,0.19789
5957.89,0.19243
5952.11,0.19165
5946.32,0.18872
5940.54,0.19282
5934.75,0.19791
5928.96,0.20511
5923.18,0.20995
5917.39,0.21111
5911.6,0.21476
5905.82,0.22132
5900.03,0.22315
5894.25,0.23036
5888.46,0.23955
5882.67,0.25500
5876.89,0.26920
5871.1,0.27974
5865.31,0.28905
5859.53,0.29467
5853.74,0.29315
5847.96,0.29615
5842.17,0.29828
5836.38,0.29915
5830.6,0.30036
5824.81,0.30241
5819.02,0.30603
5813.24,0.30377
5807.45,0.30028
5801.67,0.29913
5795.88,0.30056
5790.09,0.30459
5784.31,0.30966
5778.52,0.32053
5772.73,0.33015
5766.95,0.34767
5761.16,0.36345
5755.38,0.38014
5749.59,0.39037
5743.8,0.40066
5738.02,0.40463
5732.23,0.40355
5726.44,0.39498
5720.66,0.38268
5714.87,0.36942
5709.09,0.35547
5703.3,0.34800
5697.51,0.34329
5691.73,0.33850
5685.94,0.33437
5680.15,0.33017
5674.37,0.32520
5668.58,0.32147
5662.8,0.32461
5657.01,0.33098
5651.22,0.33902
5645.44,0.35017
5639.65,0.36035
5633.87,0.36911
5628.08,0.37680
5622.29,0.38201
5616.51,0.38446
5610.72,0.38429
5604.93,0.38802
5599.15,0.38675
5593.36,0.38273
5587.58,0.37744
5581.79,0.37730
5576,0.38539
5570.22,0.38874
5564.43,0.39397
5558.64,0.39382
5552.86,0.39153
5547.07,0.39295
5541.29,0.39026
5535.5,0.39182
5529.71,0.39179
5523.93,0.39215
5518.14,0.39471
5512.35,0.39456
5506.57,0.39741
5500.78,0.39740
5495,0.40410
5489.21,0.40776
5483.42,0.41194
5477.64,0.41502
5471.85,0.41801
5466.06,0.41932
5460.28,0.42100
5454.49,0.42096
5448.71,0.41896
5442.92,0.41821
5437.13,0.41649
5431.35,0.41408
5425.56,0.41462
5419.77,0.41338
5413.99,0.41182
5408.2,0.41071
5402.42,0.41115
5396.63,0.41036
5390.84,0.40829
5385.06,0.40718
5379.27,0.40735
5373.48,0.40592
5367.7,0.40880
5361.91,0.41186
5356.13,0.41464
5350.34,0.41836
5344.55,0.42300
5338.77,0.42674
5332.98,0.43030
5327.19,0.43169
5321.41,0.43424
5315.62,0.43572
5309.84,0.43907
5304.05,0.43777
5298.26,0.43751
5292.48,0.43919
5286.69,0.43998
5280.9,0.44098
5275.12,0.44181
5269.33,0.44264
5263.55,0.44197
5257.76,0.44039
5251.97,0.44138
5246.19,0.44246
5240.4,0.43984
5234.61,0.43895
5228.83,0.44024
5223.04,0.44176
5217.26,0.44492
5211.47,0.44760
5205.68,0.44952
5199.9,0.45095
5194.11,0.45086
5188.32,0.45377
5182.54,0.45364
5176.75,0.45312
5170.97,0.45537
5165.18,0.45401
5159.39,0.45557
5153.61,0.45499
5147.82,0.45626
5142.03,0.45485
5136.25,0.45210
5130.46,0.45033
5124.68,0.44960
5118.89,0.45084
5113.1,0.45217
5107.32,0.45243
5101.53,0.45355
5095.75,0.45602
5089.96,0.45700
5084.17,0.45694
5078.39,0.45515
5072.6,0.45767
5066.81,0.45690
5061.03,0.45770
5055.24,0.45641
5049.46,0.45495
5043.67,0.45414
5037.88,0.45623
5032.1,0.45601
5026.31,0.45868
5020.52,0.45937
5014.74,0.45750
5008.95,0.45805
5003.17,0.45564
4997.38,0.45445
4991.59,0.45205
4985.81,0.44762
4980.02,0.44574
4974.23,0.44596
4968.45,0.44808
4962.66,0.44968
4956.88,0.44847
4951.09,0.44754
4945.3,0.44666
4939.52,0.44682
4933.73,0.44529
4927.94,0.44686
4922.16,0.44804
4916.37,0.44719
4910.59,0.44719
4904.8,0.44644
4899.01,0.44567
4893.23,0.44365
4887.44,0.44149
4881.65,0.43652
4875.87,0.43456
4870.08,0.43211
4864.3,0.43080
4858.51,0.42975
4852.72,0.42812
4846.94,0.42499
4841.15,0.42069
4835.36,0.41721
4829.58,0.41651
4823.79,0.41798
4818.01,0.41804
4812.22,0.42023
4806.43,0.42170
4800.65,0.41956
4794.86,0.41745
4789.07,0.41420
4783.29,0.41067
4777.5,0.40074
4771.72,0.39194
4765.93,0.37982
4760.14,0.37349
4754.36,0.37402
4748.57,0.37295
4742.78,0.36860
4737,0.36116
4731.21,0.35231
4725.43,0.33885
4719.64,0.31994
4713.85,0.30195
4708.07,0.28959
4702.28,0.28210
4696.49,0.27211
4690.71,0.25402
4684.92,0.22374
4679.14,0.18478
4673.35,0.15047
4667.56,0.13296
4661.78,0.12969
4655.99,0.13777
4650.2,0.15185
4644.42,0.16141
4638.63,0.15609
4632.85,0.14469
4627.06,0.13599
4621.27,0.13236
4615.49,0.13145
4609.7,0.12585
4603.92,0.12848
4598.13,0.14218
4592.34,0.15956
4586.56,0.17067
4580.77,0.16805
4574.98,0.15117
4569.2,0.14748
4563.41,0.16867
4557.63,0.18991
4551.84,0.20739
4546.05,0.22555
4540.27,0.23518
4534.48,0.23599
4528.69,0.23863
4522.91,0.24113
4517.12,0.24009
4511.34,0.23815
4505.55,0.23341
4499.76,0.23625
4493.98,0.24773
4488.19,0.25068
4482.4,0.24864
4476.62,0.25185
4470.83,0.25916
4465.05,0.26572
4459.26,0.26907
4453.47,0.26614
4447.69,0.25599
4441.9,0.24537
4436.11,0.24356
4430.33,0.24474
4424.54,0.24087
4418.76,0.23296
4412.97,0.22525
4407.18,0.21614
4401.4,0.20770
4395.61,0.19826
4389.82,0.18849
4384.04,0.17850
4378.25,0.16986
4372.47,0.16020
4366.68,0.15025
4360.89,0.14184
4355.11,0.13550
4349.32,0.12988
4343.53,0.12554
4337.75,0.12112
4331.96,0.11840
4326.18,0.11980
4320.39,0.12437
4314.6,0.13178
4308.82,0.13820
4303.03,0.13928
4297.24,0.13771
4291.46,0.13467
4285.67,0.13170
4279.89,0.12542
4274.1,0.11998
4268.31,0.11512
4262.53,0.10900
4256.74,0.10583
4250.95,0.10363
4245.17,0.10350
4239.38,0.10451
4233.6,0.10720
4227.81,0.10788
4222.02,0.10916
4216.24,0.10937
4210.45,0.10806
4204.66,0.10814
4198.88,0.11014
4193.09,0.11417
4187.31,0.11625
4181.52,0.11824
4175.73,0.12049
4169.95,0.12282
4164.16,0.12388
4158.37,0.12493
4152.59,0.12409
4146.8,0.12466
4141.02,0.12456
4135.23,0.12099
4129.44,0.11899
4123.66,0.11606
4117.87,0.11391
4112.09,0.11135
4106.3,0.10977
4100.51,0.10926
4094.73,0.10653
4088.94,0.10362
4083.15,0.09895
4077.37,0.09379
4071.58,0.08887
4065.8,0.08445
4060.01,0.08188
4054.22,0.08096
4048.44,0.08095
4042.65,0.08125
4036.86,0.08026
4031.08,0.08198
4025.29,0.08659
4019.51,0.09395
4013.72,0.10429
4007.93,0.10819
4002.15,0.10797
3996.36,0.11084
3990.57,0.11742
3984.79,0.12108
3979,0.12048
3973.22,0.12076
3967.43,0.12246
3961.64,0.12387
3955.86,0.12512
3950.07,0.12542
3944.28,0.12425
3938.5,0.12250
3932.71,0.12237
3926.93,0.12328
3921.14,0.12447
3915.35,0.12638
3909.57,0.12730
3903.78,0.12722
3897.99,0.12780
3892.21,0.12891
3886.42,0.13030
3880.64,0.13080
3874.85,0.13064
3869.06,0.13085
3863.28,0.13072
3857.49,0.13100
3851.7,0.12984
3845.92,0.12933
3840.13,0.12719
3834.35,0.12591
3828.56,0.12423
3822.77,0.12240
3816.99,0.12118
3811.2,0.12150
3805.41,0.12116
3799.63,0.12233
3793.84,0.12458
3788.06,0.12805
3782.27,0.13004
3776.48,0.13055
3770.7,0.13076
3764.91,0.12893
3759.12,0.13025
3753.34,0.13407
3747.55,0.13579
3741.77,0.13615
3735.98,0.13473
3730.19,0.13260
3724.41,0.12659
3718.62,0.12546
3712.83,0.12992
3707.05,0.12692
3701.26,0.11991
3695.48,0.12126
3689.69,0.12418
3683.9,0.12138
3678.12,0.11832
3672.33,0.11803
3666.54,0.11830
3660.76,0.11424
3654.97,0.10599
3649.19,0.09943
3643.4,0.10054
3637.61,0.11142
3631.83,0.11875
3626.04,0.11609
3620.25,0.11112
3614.47,0.12044
3608.68,0.13369
3602.9,0.13980
3597.11,0.14115
3591.32,0.14106
3585.54,0.14224
3579.75,0.14529
3573.97,0.15010
3568.18,0.15475
3562.39,0.15470
3556.61,0.15466
3550.82,0.15380
3545.03,0.15349
3539.25,0.15142
3533.46,0.14936
3527.68,0.14845
3521.89,0.14743
3516.1,0.14537
3510.32,0.14378
3504.53,0.14292
3498.74,0.14096
3492.96,0.13938
3487.17,0.13613
3481.39,0.13384
3475.6,0.13194
3469.81,0.13035
3464.03,0.12872
3458.24,0.12789
3452.45,0.12584
3446.67,0.12339
3440.88,0.12113
3435.1,0.12323
3429.31,0.12780
3423.52,0.13087
3417.74,0.13278
3411.95,0.13344
3406.16,0.13436
3400.38,0.13561
3394.59,0.13614
3388.81,0.13657
3383.02,0.13684
3377.23,0.13802
3371.45,0.14000
3365.66,0.14139
3359.87,0.14158
3354.09,0.14078
3348.3,0.13984
3342.52,0.13806
3336.73,0.13660
3330.94,0.13500
3325.16,0.13357
3319.37,0.13288
3313.58,0.13081
3307.8,0.12565
3302.01,0.12082
3296.23,0.12113
3290.44,0.12405
3284.65,0.12423
3278.87,0.12402
3273.08,0.12368
3267.29,0.12285
3261.51,0.12195
3255.72,0.12069
3249.94,0.11995
3244.15,0.11901
3238.36,0.11869
3232.58,0.11645
3226.79,0.11400
3221,0.11181
3215.22,0.10811
3209.43,0.10451
3203.65,0.10140
3197.86,0.09833
3192.07,0.09758
3186.29,0.09688
3180.5,0.09519
3174.71,0.09272
3168.93,0.08709
3163.14,0.08097
3157.36,0.08262
3151.57,0.08461
3145.78,0.08429
3140,0.08328
3134.21,0.08174
3128.42,0.07908
3122.64,0.07523
3116.85,0.07159
3111.07,0.06823
3105.28,0.06573
3099.49,0.06566
3093.71,0.06474
3087.92,0.06425
3082.14,0.06385
3076.35,0.06406
3070.56,0.06400
3064.78,0.06325
3058.99,0.06403
3053.2,0.06483
3047.42,0.06472
3041.63,0.06403
3035.85,0.06302
3030.06,0.06238
3024.27,0.06567
3018.49,0.06733
3012.7,0.06657
3006.91,0.06569
3001.13,0.06606
2995.34,0.06628
2989.56,0.06630
2983.77,0.06655
2977.98,0.06556
2972.2,0.06506
2966.41,0.06523
2960.62,0.06443
2954.84,0.06429
2949.05,0.06344
2943.27,0.06316
2937.48,0.06302
2931.69,0.06480
2925.91,0.06622
2920.12,0.06848
2914.33,0.06933
2908.55,0.06882
2902.76,0.06897
2896.98,0.06847
2891.19,0.06844
2885.4,0.06797
2879.62,0.06756
2873.83,0.06754
2868.04,0.06751
2862.26,0.06767
2856.47,0.06789
2850.69,0.06880
2844.9,0.06844
2839.11,0.06860
2833.33,0.06861
2827.54,0.06855
2821.75,0.06961
2815.97,0.07009
2810.18,0.07021
2804.4,0.07065
2798.61,0.07094
2792.82,0.07229
2787.04,0.07248
2781.25,0.07253
2775.46,0.07268
2769.68,0.07443
2763.89,0.07511
2758.11,0.07549
2752.32,0.07588
2746.53,0.07633
2740.75,0.07598
2734.96,0.07522
2729.17,0.07513
2723.39,0.07478
2717.6,0.07413
2711.82,0.07448
2706.03,0.07464
2700.24,0.07466
2694.46,0.07467
2688.67,0.07433
2682.88,0.07397
2677.1,0.07395
2671.31,0.07410
2665.53,0.07423
2659.74,0.07410
2653.95,0.07403
2648.17,0.07394
2642.38,0.07427
2636.59,0.07323
2630.81,0.07243
2625.02,0.07401
2619.24,0.07436
2613.45,0.07415
2607.66,0.07377
2601.88,0.07297
2596.09,0.07402
2590.3,0.07528
2584.52,0.07456
2578.73,0.07414
2572.95,0.07580
2567.16,0.07583
2561.37,0.07583
2555.59,0.07583
2549.8,0.07517
2544.02,0.07545
2538.23,0.07619
2532.44,0.07615
2526.66,0.07603
2520.87,0.07536
2515.08,0.07499
2509.3,0.07520
2503.51,0.07509
2497.73,0.07577
2491.94,0.07637
2486.15,0.07657
2480.37,0.07729
2474.58,0.07848
2468.79,0.07968
2463.01,0.08034
2457.22,0.08108
2451.44,0.07998
2445.65,0.08079
2439.86,0.08083
2434.08,0.08124
2428.29,0.08215
2422.5,0.08240
2416.72,0.08186
2410.93,0.08142
2405.15,0.08086
2399.36,0.07969
2393.57,0.07938
2387.79,0.07909
2382,0.07864
2376.21,0.07876
2370.43,0.07832
2364.64,0.07699
2358.86,0.07583
2353.07,0.07560
2347.28,0.07475
2341.5,0.07223
2335.71,0.07090
2329.92,0.07371
2324.14,0.07669
2318.35,0.07564
2312.57,0.07308
2306.78,0.07449
2300.99,0.07705
2295.21,0.07763
2289.42,0.07772
2283.63,0.07937
2277.85,0.07984
2272.06,0.07940
2266.28,0.07841
2260.49,0.07710
2254.7,0.07655
2248.92,0.07774
2243.13,0.07878
2237.34,0.07991
2231.56,0.08059
2225.77,0.08077
2219.99,0.08105
2214.2,0.08115
2208.41,0.08137
2202.63,0.08217
2196.84,0.08251
2191.05,0.08151
2185.27,0.08035
2179.48,0.08145
2173.7,0.08339
2167.91,0.08373
2162.12,0.08415
2156.34,0.08421
2150.55,0.08415
2144.76,0.08414
2138.98,0.08575
2133.19,0.08585
2127.41,0.08615
2121.62,0.08622
2115.83,0.08626
2110.05,0.08668
2104.26,0.08746
2098.47,0.08807
2092.69,0.08833
2086.9,0.08846
2081.12,0.08804
2075.33,0.08693
2069.54,0.08595
2063.76,0.08552
2057.97,0.08551
2052.19,0.08503
2046.4,0.08487
2040.61,0.08410
2034.83,0.08242
2029.04,0.08177
2023.25,0.08138
2017.47,0.08064
2011.68,0.07893
2005.9,0.07765
2000.11,0.07666
1994.32,0.07430
1988.54,0.07139
1982.75,0.07010
1976.96,0.06953
1971.18,0.06778
1965.39,0.06647
1959.61,0.06601
1953.82,0.06565
1948.03,0.06530
1942.25,0.06550
1936.46,0.06605
1930.67,0.06676
1924.89,0.06756
1919.1,0.06860
1913.32,0.06977
1907.53,0.06949
1901.74,0.06835
1895.96,0.06695
1890.17,0.06590
1884.38,0.06553
1878.6,0.06544
1872.81,0.06532
1867.03,0.06553
1861.24,0.06639
1855.45,0.06711
1849.67,0.06842
1843.88,0.06956
1838.09,0.06878
1832.31,0.06768
1826.52,0.06678
1820.74,0.06551
1814.95,0.06540
1809.16,0.06506
1803.38,0.06505
1797.59,0.06507
1791.8,0.06608
1786.02,0.06663
1780.23,0.06666
1774.45,0.06598
1768.66,0.06654
1762.87,0.06596
1757.09,0.06510
1751.3,0.06491
1745.51,0.06462
1739.73,0.06486
1733.94,0.06528
1728.16,0.06552
1722.37,0.06615
1716.58,0.06677
1710.8,0.06617
1705.01,0.06577
1699.22,0.06557
1693.44,0.06545
1687.65,0.06532
1681.87,0.06440
1676.08,0.06425
1670.29,0.06419
1664.51,0.06436
1658.72,0.06479
1652.93,0.06581
1647.15,0.06548
1641.36,0.06525
1635.58,0.06495
1629.79,0.06542
1624,0.06533
1618.22,0.06457
1612.43,0.06335
1606.64,0.06206
1600.86,0.06408
1595.07,0.06570
1589.29,0.06526
1583.5,0.06494
1577.71,0.06535
1571.93,0.06531
1566.14,0.06514
1560.35,0.06538
1554.57,0.06437
1548.78,0.06410
1543,0.06419
1537.21,0.06416
1531.42,0.06364
1525.64,0.06421
1519.85,0.06373
1514.07,0.06245
1508.28,0.06192
1502.49,0.06005
1496.71,0.05829
1490.92,0.06699
1485.13,0.06746
1479.35,0.06546
1473.56,0.06419
1467.78,0.06331
1461.99,0.06153
1456.2,0.05887
1450.42,0.06668
1444.63,0.06851
1438.84,0.06827
1433.06,0.06760
1427.27,0.06644
1421.49,0.06617
1415.7,0.06559
1409.91,0.06554
1404.13,0.06478
1398.34,0.06451
1392.55,0.06407
1386.77,0.06388
1380.98,0.06420
1375.2,0.06440
1369.41,0.06434
1363.62,0.06428
1357.84,0.06464
1352.05,0.06449
1346.26,0.06463
1340.48,0.06433
1334.69,0.06398
1328.91,0.06407
1323.12,0.06421
1317.33,0.06440
1311.55,0.06419
1305.76,0.06441
1299.97,0.06491
1294.19,0.06471
1288.4,0.06466
1282.62,0.06457
1276.83,0.06464
1271.04,0.06444
1265.26,0.06470
1259.47,0.06467
1253.68,0.06460
1247.9,0.06469
1242.11,0.06474
1236.33,0.06458
1230.54,0.06446
1224.75,0.06423
1218.97,0.06387
1213.18,0.06399
1207.39,0.06377
1201.61,0.06406
1195.82,0.06361
1190.04,0.06352
1184.25,0.06375
1178.46,0.06404
1172.68,0.06409
1166.89,0.06395
1161.1,0.06393
1155.32,0.06382
1149.53,0.06520
1143.75,0.06510
1137.96,0.06534
1132.17,0.06488
1126.39,0.06468
1120.6,0.06438
1114.81,0.06373
1109.03,0.06377
1103.24,0.06363
1097.46,0.06304
1091.67,0.06258
1085.88,0.06231
1080.1,0.06216
1074.31,0.06176
1068.52,0.06222
1062.74,0.06296
1056.95,0.06314
1051.17,0.06373
1045.38,0.06305
1039.59,0.06248
1033.81,0.06098
1028.02,0.06339
1022.24,0.06547
1016.45,0.06567
1010.66,0.06458
1004.88,0.06436
999.09,0.06376
993.304,0.06369
987.518,0.06346
981.731,0.06321
975.945,0.06346
970.159,0.06316
964.373,0.06247
958.586,0.06351
952.8,0.06305
947.014,0.06285
941.228,0.06302
935.441,0.06325
929.655,0.06235
923.869,0.06248
918.083,0.06179
912.297,0.06157
906.51,0.06200
900.724,0.06285
894.938,0.06298
889.152,0.06258
883.365,0.06292
877.579,0.06156
871.793,0.06152
866.007,0.06142
860.22,0.06132
854.434,0.06141
848.648,0.06091
842.862,0.06062
837.075,0.06069
831.289,0.06028
825.503,0.06000
819.717,0.05907
813.931,0.05911
808.144,0.05884
802.358,0.05822
796.572,0.05737
790.786,0.05540
784.999,0.05461
779.213,0.05331
773.427,0.05151
767.641,0.05247
761.854,0.05476
756.068,0.05984
750.282,0.06328
744.496,0.06678
738.709,0.06472
732.923,0.06183
727.137,0.05824
721.351,0.05495
715.565,0.04927
709.778,0.04047
703.992,0.04742
698.206,0.11175
692.42,0.11052
686.633,0.08462
680.847,0.07795
675.061,0.07531
669.275,0.07352
663.488,0.07178
657.702,0.07011
651.916,0.07049
646.13,0.06914
640.343,0.06953
634.557,0.06732
628.771,0.06747
622.985,0.06587
617.198,0.06710
611.412,0.06696
605.626,0.06820
599.84,0.06530