File: 01_Data/PlasticC/FTIR/IS/PlasticC_IS_S_220907_R2.dpt
7497.03,0.82170
7491.25,0.82546
7485.46,0.82492
7479.67,0.81413
7473.89,0.82554
7468.1,0.82641
7462.32,0.81373
7456.53,0.81671
7450.74,0.80980
7444.96,0.80681
7439.17,0.80129
7433.38,0.78753
7427.6,0.80589
7421.81,0.80310
7416.03,0.80628
7410.24,0.79572
7404.45,0.80533
7398.67,0.80398
7392.88,0.80882
7387.09,0.79784
7381.31,0.80582
7375.52,0.80356
7369.74,0.80716
7363.95,0.80323
7358.16,0.80515
7352.38,0.79543
7346.59,0.80397
7340.8,0.80687
7335.02,0.79187
7329.23,0.78683
7323.45,0.77257
7317.66,0.77656
7311.87,0.77808
7306.09,0.77728
7300.3,0.76972
7294.51,0.76814
7288.73,0.75644
7282.94,0.75085
7277.16,0.74904
7271.37,0.75476
7265.58,0.74796
7259.8,0.74452
7254.01,0.73593
7248.22,0.73454
7242.44,0.72287
7236.65,0.72266
7230.87,0.71470
7225.08,0.71919
7219.29,0.72498
7213.51,0.70158
7207.72,0.70325
7201.93,0.70791
7196.15,0.70141
7190.36,0.71060
7184.58,0.70577
7178.79,0.69769
7173,0.69193
7167.22,0.69247
7161.43,0.69669
7155.65,0.69144
7149.86,0.69853
7144.07,0.69427
7138.29,0.70130
7132.5,0.69428
7126.71,0.69583
7120.93,0.68985
7115.14,0.68750
7109.36,0.68597
7103.57,0.68578
7097.78,0.67891
7092,0.67548
7086.21,0.66936
7080.42,0.67203
7074.64,0.67003
7068.85,0.67305
7063.07,0.67016
7057.28,0.67341
7051.49,0.67703
7045.71,0.68060
7039.92,0.68960
7034.13,0.68352
7028.35,0.68987
7022.56,0.69253
7016.78,0.68496
7010.99,0.68929
7005.2,0.68338
6999.42,0.68799
6993.63,0.68603
6987.84,0.68464
6982.06,0.68574
6976.27,0.68277
6970.49,0.68192
6964.7,0.68651
6958.91,0.68694
6953.13,0.68773
6947.34,0.69678
6941.55,0.69423
6935.77,0.69673
6929.98,0.69429
6924.2,0.69822
6918.41,0.70046
6912.62,0.70351
6906.84,0.70675
6901.05,0.71343
6895.26,0.71526
6889.48,0.71557
6883.69,0.71017
6877.91,0.71893
6872.12,0.71740
6866.33,0.71766
6860.55,0.72332
6854.76,0.72734
6848.97,0.72495
6843.19,0.72858
6837.4,0.72486
6831.62,0.72749
6825.83,0.73235
6820.04,0.72660
6814.26,0.72856
6808.47,0.72882
6802.68,0.72990
6796.9,0.73065
6791.11,0.73425
6785.33,0.73549
6779.54,0.73320
6773.75,0.74529
6767.97,0.73989
6762.18,0.73584
6756.39,0.74136
6750.61,0.74365
6744.82,0.74249
6739.04,0.74383
6733.25,0.73953
6727.46,0.74046
6721.68,0.74118
6715.89,0.73896
6710.1,0.74371
6704.32,0.73977
6698.53,0.75155
6692.75,0.74444
6686.96,0.75049
6681.17,0.75250
6675.39,0.75313
6669.6,0.75373
6663.82,0.75848
6658.03,0.76263
6652.24,0.76523
6646.46,0.76413
6640.67,0.76784
6634.88,0.76472
6629.1,0.75878
6623.31,0.76654
6617.53,0.76304
6611.74,0.76375
6605.95,0.76537
6600.17,0.77137
6594.38,0.77452
6588.59,0.77307
6582.81,0.76847
6577.02,0.77408
6571.24,0.77298
6565.45,0.77619
6559.66,0.77868
6553.88,0.77554
6548.09,0.77949
6542.3,0.77981
6536.52,0.77720
6530.73,0.78269
6524.95,0.78216
6519.16,0.78579
6513.37,0.78993
6507.59,0.78690
6501.8,0.78790
6496.01,0.78660
6490.23,0.79356
6484.44,0.79131
6478.66,0.79269
6472.87,0.79152
6467.08,0.79565
6461.3,0.79480
6455.51,0.79600
6449.72,0.79651
6443.94,0.79951
6438.15,0.79727
6432.37,0.80016
6426.58,0.79672
6420.79,0.79433
6415.01,0.79962
6409.22,0.79658
6403.43,0.79371
6397.65,0.79708
6391.86,0.79519
6386.08,0.79509
6380.29,0.78731
6374.5,0.78388
6368.72,0.78866
6362.93,0.78198
6357.14,0.78103
6351.36,0.78027
6345.57,0.78220
6339.79,0.78039
6334,0.77757
6328.21,0.77738
6322.43,0.77789
6316.64,0.77360
6310.85,0.76747
6305.07,0.77054
6299.28,0.76473
6293.5,0.76205
6287.71,0.76200
6281.92,0.76042
6276.14,0.76186
6270.35,0.75591
6264.56,0.75531
6258.78,0.75037
6252.99,0.74189
6247.21,0.73763
6241.42,0.73313
6235.63,0.73021
6229.85,0.72397
6224.06,0.71908
6218.27,0.71376
6212.49,0.70257
6206.7,0.69990
6200.92,0.69098
6195.13,0.68228
6189.34,0.67073
6183.56,0.65742
6177.77,0.64358
6171.98,0.62960
6166.2,0.60694
6160.41,0.58518
6154.63,0.56124
6148.84,0.53867
6143.05,0.51678
6137.27,0.50135
6131.48,0.48948
6125.7,0.47336
6119.91,0.45341
6114.12,0.43866
6108.34,0.43313
6102.55,0.43956
6096.76,0.43991
6090.98,0.44042
6085.19,0.43529
6079.41,0.42712
6073.62,0.42343
6067.83,0.43920
6062.05,0.45880
6056.26,0.47254
6050.47,0.48026
6044.69,0.47180
6038.9,0.44772
6033.12,0.42092
6027.33,0.39292
6021.54,0.36235
6015.76,0.33486
6009.97,0.30960
6004.18,0.28556
5998.4,0.26570
5992.61,0.24922
5986.83,0.23269
5981.04,0.21811
5975.25,0.20400
5969.47,0.19699
5963.68,0.19228
5957.89,0.19073
5952.11,0.19254
5946.32,0.18938
5940.54,0.19273
5934.75,0.19667
5928.96,0.20640
5923.18,0.21103
5917.39,0.21209
5911.6,0.21368
5905.82,0.21837
5900.03,0.22534
5894.25,0.23211
5888.46,0.24069
5882.67,0.25237
5876.89,0.26810
5871.1,0.27980
5865.31,0.28990
5859.53,0.29485
5853.74,0.29683
5847.96,0.29505
5842.17,0.29678
5836.38,0.29772
5830.6,0.29904
5824.81,0.30123
5819.02,0.30180
5813.24,0.30141
5807.45,0.30096
5801.67,0.29925
5795.88,0.29973
5790.09,0.30243
5784.31,0.30837
5778.52,0.32077
5772.73,0.33396
5766.95,0.34757
5761.16,0.36403
5755.38,0.37868
5749.59,0.38999
5743.8,0.40126
5738.02,0.40429
5732.23,0.40397
5726.44,0.39494
5720.66,0.38191
5714.87,0.36832
5709.09,0.35647
5703.3,0.34647
5697.51,0.34100
5691.73,0.33847
5685.94,0.33510
5680.15,0.33122
5674.37,0.32460
5668.58,0.31928
5662.8,0.32182
5657.01,0.32949
5651.22,0.34152
5645.44,0.34953
5639.65,0.35979
5633.87,0.36786
5628.08,0.37676
5622.29,0.38281
5616.51,0.38771
5610.72,0.38476
5604.93,0.38416
5599.15,0.38605
5593.36,0.38311
5587.58,0.37799
5581.79,0.37934
5576,0.38440
5570.22,0.38987
5564.43,0.39207
5558.64,0.39178
5552.86,0.39127
5547.07,0.39165
5541.29,0.39190
5535.5,0.39319
5529.71,0.39261
5523.93,0.39358
5518.14,0.39467
5512.35,0.39584
5506.57,0.39832
5500.78,0.39916
5495,0.40448
5489.21,0.40868
5483.42,0.41272
5477.64,0.41463
5471.85,0.41645
5466.06,0.41640
5460.28,0.41961
5454.49,0.41922
5448.71,0.41750
5442.92,0.41756
5437.13,0.41877
5431.35,0.41546
5425.56,0.41427
5419.77,0.41250
5413.99,0.41478
5408.2,0.41065
5402.42,0.41221
5396.63,0.40971
5390.84,0.40973
5385.06,0.40782
5379.27,0.40760
5373.48,0.40602
5367.7,0.40679
5361.91,0.40953
5356.13,0.41310
5350.34,0.41613
5344.55,0.42252
5338.77,0.42701
5332.98,0.42933
5327.19,0.43114
5321.41,0.43482
5315.62,0.43620
5309.84,0.43654
5304.05,0.43826
5298.26,0.43852
5292.48,0.43813
5286.69,0.43803
5280.9,0.44056
5275.12,0.44108
5269.33,0.44117
5263.55,0.43979
5257.76,0.43930
5251.97,0.44047
5246.19,0.43908
5240.4,0.43880
5234.61,0.43849
5228.83,0.43847
5223.04,0.43950
5217.26,0.44332
5211.47,0.44682
5205.68,0.44766
5199.9,0.44908
5194.11,0.45159
5188.32,0.45280
5182.54,0.45394
5176.75,0.45328
5170.97,0.45349
5165.18,0.45501
5159.39,0.45736
5153.61,0.45629
5147.82,0.45537
5142.03,0.45287
5136.25,0.45086
5130.46,0.45070
5124.68,0.45004
5118.89,0.45149
5113.1,0.45267
5107.32,0.45396
5101.53,0.45538
5095.75,0.45434
5089.96,0.45611
5084.17,0.45737
5078.39,0.45771
5072.6,0.45761
5066.81,0.45876
5061.03,0.45916
5055.24,0.45553
5049.46,0.45612
5043.67,0.45507
5037.88,0.45570
5032.1,0.45528
5026.31,0.45634
5020.52,0.45775
5014.74,0.45843
5008.95,0.45760
5003.17,0.45651
4997.38,0.45386
4991.59,0.45185
4985.81,0.44771
4980.02,0.44647
4974.23,0.44581
4968.45,0.44541
4962.66,0.44783
4956.88,0.44808
4951.09,0.44779
4945.3,0.44680
4939.52,0.44626
4933.73,0.44487
4927.94,0.44644
4922.16,0.44842
4916.37,0.44711
4910.59,0.44546
4904.8,0.44536
4899.01,0.44458
4893.23,0.44285
4887.44,0.44092
4881.65,0.43730
4875.87,0.43497
4870.08,0.43212
4864.3,0.43082
4858.51,0.43056
4852.72,0.42843
4846.94,0.42336
4841.15,0.42001
4835.36,0.41664
4829.58,0.41633
4823.79,0.41744
4818.01,0.41839
4812.22,0.41901
4806.43,0.41957
4800.65,0.41977
4794.86,0.41795
4789.07,0.41471
4783.29,0.40778
4777.5,0.40061
4771.72,0.39085
4765.93,0.37822
4760.14,0.37210
4754.36,0.37392
4748.57,0.37282
4742.78,0.36780
4737,0.36108
4731.21,0.35245
4725.43,0.33829
4719.64,0.32010
4713.85,0.30073
4708.07,0.28883
4702.28,0.28135
4696.49,0.27151
4690.71,0.25339
4684.92,0.22462
4679.14,0.18543
4673.35,0.15019
4667.56,0.13265
4661.78,0.12972
4655.99,0.13716
4650.2,0.15309
4644.42,0.16171
4638.63,0.15741
4632.85,0.14485
4627.06,0.13429
4621.27,0.13248
4615.49,0.13145
4609.7,0.12725
4603.92,0.12888
4598.13,0.14320
4592.34,0.15950
4586.56,0.17059
4580.77,0.16828
4574.98,0.15035
4569.2,0.14708
4563.41,0.16834
4557.63,0.19040
4551.84,0.20770
4546.05,0.22634
4540.27,0.23487
4534.48,0.23621
4528.69,0.23920
4522.91,0.24176
4517.12,0.24047
4511.34,0.23814
4505.55,0.23417
4499.76,0.23615
4493.98,0.24742
4488.19,0.25002
4482.4,0.24903
4476.62,0.25218
4470.83,0.26006
4465.05,0.26587
4459.26,0.26915
4453.47,0.26607
4447.69,0.25644
4441.9,0.24566
4436.11,0.24336
4430.33,0.24484
4424.54,0.24085
4418.76,0.23259
4412.97,0.22514
4407.18,0.21621
4401.4,0.20813
4395.61,0.19877
4389.82,0.18803
4384.04,0.17834
4378.25,0.16914
4372.47,0.15993
4366.68,0.15119
4360.89,0.14178
4355.11,0.13450
4349.32,0.12923
4343.53,0.12421
4337.75,0.12135
4331.96,0.11935
4326.18,0.11950
4320.39,0.12546
4314.6,0.13232
4308.82,0.13769
4303.03,0.13922
4297.24,0.13815
4291.46,0.13445
4285.67,0.13112
4279.89,0.12559
4274.1,0.11974
4268.31,0.11435
4262.53,0.10904
4256.74,0.10557
4250.95,0.10372
4245.17,0.10329
4239.38,0.10517
4233.6,0.10680
4227.81,0.10736
4222.02,0.10780
4216.24,0.10832
4210.45,0.10772
4204.66,0.10916
4198.88,0.11111
4193.09,0.11471
4187.31,0.11760
4181.52,0.11739
4175.73,0.11983
4169.95,0.12320
4164.16,0.12509
4158.37,0.12510
4152.59,0.12476
4146.8,0.12462
4141.02,0.12363
4135.23,0.12198
4129.44,0.11876
4123.66,0.11629
4117.87,0.11408
4112.09,0.11192
4106.3,0.11011
4100.51,0.10936
4094.73,0.10709
4088.94,0.10330
4083.15,0.09815
4077.37,0.09375
4071.58,0.08905
4065.8,0.08448
4060.01,0.08221
4054.22,0.08095
4048.44,0.08098
4042.65,0.08128
4036.86,0.08011
4031.08,0.08223
4025.29,0.08562
4019.51,0.09406
4013.72,0.10379
4007.93,0.10838
4002.15,0.10791
3996.36,0.11050
3990.57,0.11720
3984.79,0.12147
3979,0.12055
3973.22,0.12067
3967.43,0.12214
3961.64,0.12365
3955.86,0.12489
3950.07,0.12533
3944.28,0.12429
3938.5,0.12246
3932.71,0.12216
3926.93,0.12379
3921.14,0.12485
3915.35,0.12630
3909.57,0.12696
3903.78,0.12728
3897.99,0.12743
3892.21,0.12911
3886.42,0.13044
3880.64,0.13089
3874.85,0.13060
3869.06,0.13010
3863.28,0.13047
3857.49,0.13065
3851.7,0.13072
3845.92,0.12922
3840.13,0.12788
3834.35,0.12601
3828.56,0.12456
3822.77,0.12253
3816.99,0.12189
3811.2,0.12144
3805.41,0.12183
3799.63,0.12283
3793.84,0.12500
3788.06,0.12752
3782.27,0.13023
3776.48,0.13125
3770.7,0.12975
3764.91,0.12944
3759.12,0.13042
3753.34,0.13328
3747.55,0.13573
3741.77,0.13578
3735.98,0.13547
3730.19,0.13181
3724.41,0.12753
3718.62,0.12551
3712.83,0.12942
3707.05,0.12635
3701.26,0.11960
3695.48,0.11996
3689.69,0.12194
3683.9,0.11932
3678.12,0.11685
3672.33,0.11541
3666.54,0.11572
3660.76,0.11258
3654.97,0.10553
3649.19,0.09875
3643.4,0.09988
3637.61,0.11063
3631.83,0.11858
3626.04,0.11532
3620.25,0.11031
3614.47,0.11982
3608.68,0.13341
3602.9,0.13848
3597.11,0.13942
3591.32,0.13880
3585.54,0.13964
3579.75,0.14282
3573.97,0.14806
3568.18,0.15212
3562.39,0.15336
3556.61,0.15319
3550.82,0.15287
3545.03,0.15233
3539.25,0.15075
3533.46,0.14962
3527.68,0.14831
3521.89,0.14618
3516.1,0.14483
3510.32,0.14352
3504.53,0.14248
3498.74,0.14025
3492.96,0.13764
3487.17,0.13697
3481.39,0.13377
3475.6,0.13162
3469.81,0.12949
3464.03,0.12827
3458.24,0.12732
3452.45,0.12630
3446.67,0.12318
3440.88,0.12185
3435.1,0.12335
3429.31,0.12695
3423.52,0.13009
3417.74,0.13255
3411.95,0.13340
3406.16,0.13389
3400.38,0.13464
3394.59,0.13586
3388.81,0.13632
3383.02,0.13606
3377.23,0.13665
3371.45,0.13934
3365.66,0.14105
3359.87,0.14135
3354.09,0.14021
3348.3,0.13898
3342.52,0.13756
3336.73,0.13610
3330.94,0.13535
3325.16,0.13408
3319.37,0.13292
3313.58,0.13126
3307.8,0.12644
3302.01,0.12038
3296.23,0.12029
3290.44,0.12317
3284.65,0.12458
3278.87,0.12430
3273.08,0.12371
3267.29,0.12304
3261.51,0.12247
3255.72,0.12090
3249.94,0.12006
3244.15,0.11925
3238.36,0.11778
3232.58,0.11614
3226.79,0.11386
3221,0.11154
3215.22,0.10921
3209.43,0.10412
3203.65,0.10083
3197.86,0.09842
3192.07,0.09767
3186.29,0.09581
3180.5,0.09503
3174.71,0.09258
3168.93,0.08725
3163.14,0.08112
3157.36,0.08148
3151.57,0.08481
3145.78,0.08471
3140,0.08345
3134.21,0.08150
3128.42,0.07897
3122.64,0.07595
3116.85,0.07162
3111.07,0.06782
3105.28,0.06547
3099.49,0.06560
3093.71,0.06540
3087.92,0.06412
3082.14,0.06377
3076.35,0.06456
3070.56,0.06413
3064.78,0.06320
3058.99,0.06414
3053.2,0.06455
3047.42,0.06436
3041.63,0.06408
3035.85,0.06328
3030.06,0.06335
3024.27,0.06548
3018.49,0.06682
3012.7,0.06674
3006.91,0.06618
3001.13,0.06589
2995.34,0.06672
2989.56,0.06665
2983.77,0.06682
2977.98,0.06572
2972.2,0.06530
2966.41,0.06492
2960.62,0.06455
2954.84,0.06399
2949.05,0.06332
2943.27,0.06351
2937.48,0.06342
2931.69,0.06457
2925.91,0.06615
2920.12,0.06842
2914.33,0.06907
2908.55,0.06909
2902.76,0.06886
2896.98,0.06876
2891.19,0.06834
2885.4,0.06812
2879.62,0.06764
2873.83,0.06747
2868.04,0.06733
2862.26,0.06717
2856.47,0.06763
2850.69,0.06837
2844.9,0.06854
2839.11,0.06865
2833.33,0.06866
2827.54,0.06915
2821.75,0.06966
2815.97,0.06976
2810.18,0.07045
2804.4,0.07054
2798.61,0.07104
2792.82,0.07186
2787.04,0.07263
2781.25,0.07226
2775.46,0.07324
2769.68,0.07419
2763.89,0.07483
2758.11,0.07558
2752.32,0.07589
2746.53,0.07651
2740.75,0.07605
2734.96,0.07545
2729.17,0.07463
2723.39,0.07438
2717.6,0.07486
2711.82,0.07494
2706.03,0.07488
2700.24,0.07463
2694.46,0.07445
2688.67,0.07418
2682.88,0.07450
2677.1,0.07431
2671.31,0.07392
2665.53,0.07422
2659.74,0.07487
2653.95,0.07407
2648.17,0.07431
2642.38,0.07411
2636.59,0.07297
2630.81,0.07214
2625.02,0.07359
2619.24,0.07449
2613.45,0.07446
2607.66,0.07354
2601.88,0.07300
2596.09,0.07462
2590.3,0.07542
2584.52,0.07460
2578.73,0.07418
2572.95,0.07559
2567.16,0.07578
2561.37,0.07585
2555.59,0.07598
2549.8,0.07569
2544.02,0.07506
2538.23,0.07597
2532.44,0.07620
2526.66,0.07611
2520.87,0.07551
2515.08,0.07519
2509.3,0.07502
2503.51,0.07520
2497.73,0.07595
2491.94,0.07622
2486.15,0.07712
2480.37,0.07746
2474.58,0.07858
2468.79,0.07932
2463.01,0.08100
2457.22,0.08091
2451.44,0.08047
2445.65,0.08114
2439.86,0.08088
2434.08,0.08125
2428.29,0.08167
2422.5,0.08226
2416.72,0.08223
2410.93,0.08158
2405.15,0.08052
2399.36,0.07959
2393.57,0.07960
2387.79,0.07948
2382,0.07883
2376.21,0.07864
2370.43,0.07781
2364.64,0.07661
2358.86,0.07610
2353.07,0.07586
2347.28,0.07504
2341.5,0.07270
2335.71,0.07096
2329.92,0.07405
2324.14,0.07678
2318.35,0.07539
2312.57,0.07294
2306.78,0.07460
2300.99,0.07735
2295.21,0.07727
2289.42,0.07796
2283.63,0.07955
2277.85,0.08042
2272.06,0.07964
2266.28,0.07842
2260.49,0.07769
2254.7,0.07718
2248.92,0.07768
2243.13,0.07890
2237.34,0.07971
2231.56,0.08023
2225.77,0.08087
2219.99,0.08115
2214.2,0.08133
2208.41,0.08112
2202.63,0.08210
2196.84,0.08240
2191.05,0.08135
2185.27,0.08039
2179.48,0.08153
2173.7,0.08343
2167.91,0.08438
2162.12,0.08437
2156.34,0.08408
2150.55,0.08427
2144.76,0.08435
2138.98,0.08534
2133.19,0.08601
2127.41,0.08660
2121.62,0.08623
2115.83,0.08615
2110.05,0.08667
2104.26,0.08750
2098.47,0.08759
2092.69,0.08825
2086.9,0.08838
2081.12,0.08784
2075.33,0.08668
2069.54,0.08596
2063.76,0.08556
2057.97,0.08553
2052.19,0.08508
2046.4,0.08495
2040.61,0.08439
2034.83,0.08278
2029.04,0.08161
2023.25,0.08154
2017.47,0.08084
2011.68,0.07891
2005.9,0.07788
2000.11,0.07694
1994.32,0.07400
1988.54,0.07097
1982.75,0.07019
1976.96,0.06973
1971.18,0.06816
1965.39,0.06674
1959.61,0.06576
1953.82,0.06576
1948.03,0.06563
1942.25,0.06607
1936.46,0.06596
1930.67,0.06690
1924.89,0.06774
1919.1,0.06874
1913.32,0.06986
1907.53,0.06973
1901.74,0.06845
1895.96,0.06693
1890.17,0.06605
1884.38,0.06560
1878.6,0.06567
1872.81,0.06565
1867.03,0.06566
1861.24,0.06624
1855.45,0.06728
1849.67,0.06836
1843.88,0.06925
1838.09,0.06909
1832.31,0.06783
1826.52,0.06642
1820.74,0.06564
1814.95,0.06544
1809.16,0.06524
1803.38,0.06498
1797.59,0.06480
1791.8,0.06595
1786.02,0.06657
1780.23,0.06670
1774.45,0.06643
1768.66,0.06696
1762.87,0.06602
1757.09,0.06529
1751.3,0.06520
1745.51,0.06484
1739.73,0.06515
1733.94,0.06582
1728.16,0.06559
1722.37,0.06610
1716.58,0.06664
1710.8,0.06631
1705.01,0.06623
1699.22,0.06589
1693.44,0.06535
1687.65,0.06516
1681.87,0.06496
1676.08,0.06425
1670.29,0.06473
1664.51,0.06465
1658.72,0.06517
1652.93,0.06577
1647.15,0.06585
1641.36,0.06545
1635.58,0.06550
1629.79,0.06545
1624,0.06525
1618.22,0.06416
1612.43,0.06288
1606.64,0.06194
1600.86,0.06405
1595.07,0.06594
1589.29,0.06488
1583.5,0.06503
1577.71,0.06554
1571.93,0.06545
1566.14,0.06569
1560.35,0.06572
1554.57,0.06425
1548.78,0.06392
1543,0.06411
1537.21,0.06374
1531.42,0.06399
1525.64,0.06391
1519.85,0.06336
1514.07,0.06270
1508.28,0.06235
1502.49,0.06020
1496.71,0.05804
1490.92,0.06661
1485.13,0.06699
1479.35,0.06525
1473.56,0.06445
1467.78,0.06339
1461.99,0.06150
1456.2,0.05909
1450.42,0.06710
1444.63,0.06847
1438.84,0.06813
1433.06,0.06722
1427.27,0.06645
1421.49,0.06642
1415.7,0.06579
1409.91,0.06521
1404.13,0.06513
1398.34,0.06498
1392.55,0.06442
1386.77,0.06392
1380.98,0.06366
1375.2,0.06430
1369.41,0.06460
1363.62,0.06487
1357.84,0.06503
1352.05,0.06499
1346.26,0.06445
1340.48,0.06452
1334.69,0.06427
1328.91,0.06442
1323.12,0.06428
1317.33,0.06416
1311.55,0.06430
1305.76,0.06495
1299.97,0.06442
1294.19,0.06417
1288.4,0.06454
1282.62,0.06490
1276.83,0.06485
1271.04,0.06471
1265.26,0.06479
1259.47,0.06450
1253.68,0.06445
1247.9,0.06452
1242.11,0.06448
1236.33,0.06442
1230.54,0.06427
1224.75,0.06436
1218.97,0.06428
1213.18,0.06421
1207.39,0.06398
1201.61,0.06300
1195.82,0.06374
1190.04,0.06376
1184.25,0.06352
1178.46,0.06431
1172.68,0.06427
1166.89,0.06380
1161.1,0.06409
1155.32,0.06429
1149.53,0.06505
1143.75,0.06470
1137.96,0.06563
1132.17,0.06499
1126.39,0.06477
1120.6,0.06364
1114.81,0.06399
1109.03,0.06408
1103.24,0.06386
1097.46,0.06385
1091.67,0.06322
1085.88,0.06198
1080.1,0.06206
1074.31,0.06231
1068.52,0.06253
1062.74,0.06366
1056.95,0.06303
1051.17,0.06373
1045.38,0.06297
1039.59,0.06255
1033.81,0.06190
1028.02,0.06373
1022.24,0.06504
1016.45,0.06513
1010.66,0.06510
1004.88,0.06420
999.09,0.06457
993.304,0.06426
987.518,0.06313
981.731,0.06328
975.945,0.06259
970.159,0.06325
964.373,0.06320
958.586,0.06286
952.8,0.06270
947.014,0.06263
941.228,0.06318
935.441,0.06300
929.655,0.06232
923.869,0.06189
918.083,0.06155
912.297,0.06126
906.51,0.06180
900.724,0.06315
894.938,0.06284
889.152,0.06246
883.365,0.06199
877.579,0.06140
871.793,0.06165
866.007,0.06205
860.22,0.06166
854.434,0.06109
848.648,0.06081
842.862,0.06056
837.075,0.06030
831.289,0.06070
825.503,0.06067
819.717,0.06017
813.931,0.05962
808.144,0.05926
802.358,0.05789
796.572,0.05690
790.786,0.05587
784.999,0.05497
779.213,0.05338
773.427,0.05149
767.641,0.05286
761.854,0.05556
756.068,0.06044
750.282,0.06378
744.496,0.06555
738.709,0.06548
732.923,0.06104
727.137,0.05772
721.351,0.05567
715.565,0.05038
709.778,0.04155
703.992,0.04781
698.206,0.11190
692.42,0.11055
686.633,0.08671
680.847,0.07826
675.061,0.07542
669.275,0.07353
663.488,0.07290
657.702,0.07005
651.916,0.07119
646.13,0.06904
640.343,0.06790
634.557,0.06799
628.771,0.06604
622.985,0.06643
617.198,0.06731
611.412,0.06719
605.626,0.06835
599.84,0.06508