File: 01_Data/Plywood/STA/N2/10K_min/Plywood_STA_N2_10KData_22243_R2.csv
##Temp./Â°C,Time/min,Mass loss(subtr.)/mg,DSC(subtr.2)/(mW/mg)
49.866,10.01,-0.06833,0.03956125
50.466,10.72783,-0.07122283,0.06883891
51.066,10.91552,-0.07256128,0.09467165
51.666,11.05587,-0.0727208,0.11324
52.266,11.17348,-0.07386762,0.13027
52.866,11.27796,-0.06979008,0.14704
53.466,11.3743,-0.071811,0.16003
54.066,11.4647,-0.07610994,0.17035
54.666,11.55011,-0.07535764,0.17809
55.266,11.63187,-0.07618084,0.18909
55.866,11.71105,-0.07469689,0.19671
56.466,11.78793,-0.07561043,0.20453
57.066,11.86285,-0.07525243,0.20826
57.666,11.93628,-0.07544584,0.21551
58.266,12.00818,-0.07598115,0.22126
58.866,12.07905,-0.07646635,0.22642
59.466,12.14914,-0.0767757,0.23261
60.066,12.21827,-0.07684967,0.23501
60.666,12.2869,-0.07688747,0.23996
61.266,12.35505,-0.0779116,0.24596
61.866,12.42247,-0.07837319,0.24781
62.466,12.48956,-0.07839016,0.2523
63.066,12.55635,-0.07835011,0.2543
63.666,12.62308,-0.07960632,0.25824
64.266,12.68961,-0.07974302,0.26233
64.866,12.75559,-0.07777734,0.26359
65.466,12.82109,-0.07965033,0.26741
66.066,12.8865,-0.08150014,0.274
66.666,12.95113,-0.08020395,0.27502
67.266,13.01631,-0.08159936,0.27752
67.866,13.08117,-0.08280992,0.28114
68.466,13.14682,-0.08271566,0.28334
69.066,13.21143,-0.08411179,0.28404
69.666,13.27559,-0.08280255,0.28718
70.266,13.33973,-0.08280549,0.2923
70.866,13.40349,-0.08281129,0.29562
71.466,13.46728,-0.08410967,0.29838
72.066,13.53076,-0.08416789,0.29865
72.666,13.59445,-0.08553928,0.30238
73.266,13.65787,-0.08535437,0.30703
73.866,13.72137,-0.08544049,0.30906
74.466,13.7843,-0.08676689,0.3098
75.066,13.8473,-0.08678385,0.31445
75.666,13.91018,-0.08753107,0.31859
76.266,13.97298,-0.08829099,0.31929
76.866,14.03552,-0.08961628,0.31992
77.466,14.09797,-0.08961,0.32209
78.066,14.16028,-0.08961001,0.32441
78.666,14.22249,-0.08980364,0.32602
79.266,14.28484,-0.08961511,0.33029
79.866,14.34702,-0.09093452,0.33165
80.466,14.40883,-0.09092999,0.33593
81.066,14.47049,-0.09094612,0.33507
81.666,14.53159,-0.09225807,0.33711
82.266,14.59295,-0.09355637,0.33902
82.866,14.65446,-0.0948781,0.34019
83.466,14.71552,-0.09432153,0.34039
84.066,14.77721,-0.09388921,0.33865
84.666,14.83801,-0.09480206,0.34337
85.266,14.89908,-0.09485618,0.34181
85.866,14.96023,-0.09619109,0.3415
86.466,15.02112,-0.09717893,0.34363
87.066,15.08231,-0.09718427,0.34288
87.666,15.14324,-0.09870175,0.34473
88.266,15.20415,-0.09884533,0.3419
88.866,15.2648,-0.09947874,0.34385
89.466,15.32537,-0.09949864,0.34246
90.066,15.38568,-0.10014,0.34296
90.666,15.44596,-0.10154,0.34263
91.266,15.5061,-0.10146,0.3418
91.866,15.56611,-0.10244,0.3389
92.466,15.62607,-0.10137,0.33951
93.066,15.68583,-0.10277,0.33883
93.666,15.74561,-0.10286,0.33867
94.266,15.8052,-0.10473,0.33648
94.866,15.865,-0.10475,0.33787
95.466,15.92484,-0.10466,0.33564
96.066,15.98407,-0.10583,0.33354
96.666,16.04389,-0.10511,0.33387
97.266,16.10331,-0.10475,0.33106
97.866,16.16254,-0.1074,0.32938
98.466,16.22229,-0.10738,0.32675
99.066,16.28151,-0.10654,0.32513
99.666,16.34067,-0.10738,0.3235
100.266,16.39988,-0.1087,0.3208
100.866,16.45923,-0.1087,0.32075
101.466,16.51834,-0.10971,0.31885
102.066,16.57755,-0.11004,0.31973
102.666,16.63659,-0.10688,0.31642
103.266,16.69558,-0.10957,0.31536
103.866,16.75434,-0.11142,0.31519
104.466,16.81299,-0.11133,0.31155
105.066,16.87168,-0.11133,0.31216
105.666,16.93056,-0.11266,0.30947
106.266,16.98934,-0.11133,0.30766
106.866,17.04829,-0.11133,0.30601
107.466,17.1073,-0.1127,0.30536
108.066,17.16631,-0.11203,0.30642
108.666,17.22525,-0.11263,0.30364
109.266,17.28389,-0.11264,0.30281
109.866,17.34257,-0.11265,0.30078
110.466,17.40128,-0.11396,0.3
111.066,17.46017,-0.113,0.29837
111.666,17.519,-0.11397,0.29721
112.266,17.57767,-0.11462,0.2966
112.866,17.63641,-0.1148,0.29547
113.466,17.69512,-0.11441,0.29498
114.066,17.75378,-0.11431,0.29446
114.666,17.81237,-0.11495,0.29507
115.266,17.8705,-0.11495,0.29209
115.866,17.92914,-0.11528,0.293
116.466,17.98779,-0.11651,0.29212
117.066,18.04632,-0.11527,0.2909
117.666,18.10546,-0.11528,0.28978
118.266,18.16391,-0.11433,0.28857
118.866,18.22258,-0.1143,0.29082
119.466,18.28116,-0.11524,0.28861
120.066,18.33974,-0.11396,0.29034
120.666,18.39834,-0.1153,0.2894
121.266,18.45678,-0.11528,0.28892
121.866,18.51534,-0.11528,0.29062
122.466,18.57398,-0.11528,0.28933
123.066,18.63258,-0.11528,0.28926
123.666,18.69121,-0.11659,0.29178
124.266,18.74966,-0.11528,0.29183
124.866,18.80816,-0.11528,0.29226
125.466,18.86651,-0.11528,0.29129
126.066,18.92488,-0.11653,0.29193
126.666,18.9833,-0.1166,0.29262
127.266,19.04165,-0.11656,0.29193
127.866,19.10001,-0.11659,0.29218
128.466,19.1585,-0.11659,0.2936
129.066,19.21686,-0.11567,0.29344
129.666,19.27513,-0.11659,0.29403
130.266,19.33325,-0.11659,0.29558
130.866,19.39151,-0.11659,0.29751
131.466,19.44963,-0.11659,0.29688
132.066,19.50799,-0.11758,0.29454
132.666,19.56616,-0.11646,0.2971
133.266,19.62442,-0.11627,0.29785
133.866,19.68275,-0.11627,0.29779
134.466,19.74082,-0.11626,0.29929
135.066,19.79908,-0.1166,0.29803
135.666,19.85715,-0.11661,0.30087
136.266,19.91513,-0.11659,0.30008
136.866,19.97314,-0.11522,0.2996
137.466,20.03112,-0.11533,0.30192
138.066,20.08904,-0.11659,0.30047
138.666,20.1471,-0.11659,0.30024
139.266,20.20502,-0.11796,0.30138
139.866,20.26309,-0.11791,0.30068
140.466,20.32098,-0.11791,0.3
141.066,20.37882,-0.11791,0.30141
141.666,20.43658,-0.11791,0.30258
142.266,20.49433,-0.11786,0.30126
142.866,20.55211,-0.1179,0.3035
143.466,20.61021,-0.11791,0.30445
144.066,20.66807,-0.11793,0.3053
144.666,20.72604,-0.11923,0.30507
145.266,20.78399,-0.11923,0.30325
145.866,20.84179,-0.11923,0.30594
146.466,20.89965,-0.1179,0.30669
147.066,20.95744,-0.11791,0.3055
147.666,21.01536,-0.11791,0.30735
148.266,21.07348,-0.11921,0.3073
148.866,21.13152,-0.11789,0.30737
149.466,21.18953,-0.11791,0.30978
150.066,21.24743,-0.11791,0.30927
150.666,21.30522,-0.11922,0.30893
151.266,21.3631,-0.11923,0.30851
151.866,21.4212,-0.11921,0.31133
152.466,21.47905,-0.12028,0.31191
153.066,21.53694,-0.11912,0.3109
153.666,21.59483,-0.11937,0.31311
154.266,21.65249,-0.12345,0.3165
154.866,21.71014,-0.12207,0.31693
155.466,21.76768,-0.12208,0.31595
156.066,21.8251,-0.12161,0.31963
156.666,21.88253,-0.12075,0.32013
157.266,21.94038,-0.12175,0.32209
157.866,21.99815,-0.12171,0.32282
158.466,22.0559,-0.12307,0.32212
159.066,22.11367,-0.12307,0.32312
159.666,22.17131,-0.12305,0.32417
160.266,22.22896,-0.12372,0.32662
160.866,22.28664,-0.12438,0.32588
161.466,22.34427,-0.12438,0.32813
162.066,22.40185,-0.12438,0.32646
162.666,22.4595,-0.12469,0.32861
163.266,22.51716,-0.12483,0.33053
163.866,22.57472,-0.12438,0.33158
164.466,22.63232,-0.12575,0.33006
165.066,22.68975,-0.12704,0.332
165.666,22.74724,-0.1257,0.33322
166.266,22.80463,-0.12679,0.33542
166.866,22.86221,-0.12702,0.33561
167.466,22.91975,-0.12702,0.3364
168.066,22.9774,-0.12702,0.33853
168.666,23.03507,-0.12705,0.34008
169.266,23.09283,-0.12701,0.33859
169.866,23.15048,-0.12701,0.33806
170.466,23.20787,-0.12701,0.34129
171.066,23.26512,-0.12702,0.34255
171.666,23.32246,-0.12833,0.34394
172.266,23.37952,-0.12834,0.34435
172.866,23.43678,-0.12705,0.34421
173.466,23.4943,-0.12769,0.34444
174.066,23.5517,-0.12734,0.3431
174.666,23.60915,-0.12866,0.3456
175.266,23.66668,-0.12999,0.34648
175.866,23.72424,-0.1313,0.34605
176.466,23.78183,-0.12998,0.34748
177.066,23.83921,-0.13129,0.34779
177.666,23.89656,-0.13129,0.34672
178.266,23.95408,-0.13204,0.34965
178.866,24.01129,-0.13261,0.34977
179.466,24.06868,-0.13394,0.34993
180.066,24.12612,-0.13331,0.35024
180.666,24.18357,-0.13195,0.35271
181.266,24.24112,-0.13194,0.35172
181.866,24.29838,-0.13447,0.35478
182.466,24.3556,-0.13458,0.35319
183.066,24.41287,-0.13471,0.35326
183.666,24.47011,-0.1359,0.35582
184.266,24.5276,-0.13595,0.35547
184.866,24.5851,-0.13731,0.35605
185.466,24.64256,-0.13722,0.35785
186.066,24.7001,-0.1382,0.35677
186.666,24.75757,-0.13985,0.35873
187.266,24.81503,-0.13985,0.35909
187.866,24.87254,-0.1388,0.35763
188.466,24.93011,-0.13886,0.35981
189.066,24.98757,-0.13978,0.35793
189.666,25.04514,-0.14151,0.36022
190.266,25.10281,-0.14215,0.35673
190.866,25.16014,-0.14181,0.35912
191.466,25.2175,-0.14116,0.35803
192.066,25.27485,-0.14109,0.35926
192.666,25.33233,-0.14429,0.35962
193.266,25.38994,-0.14446,0.36124
193.866,25.44754,-0.14702,0.36019
194.466,25.50498,-0.14696,0.36124
195.066,25.56247,-0.14698,0.36062
195.666,25.61985,-0.14796,0.36093
196.266,25.67708,-0.14829,0.36243
196.866,25.73433,-0.14868,0.36148
197.466,25.79152,-0.14961,0.36226
198.066,25.8488,-0.14961,0.35841
198.666,25.90604,-0.1497,0.3586
199.266,25.96322,-0.15225,0.36082
199.866,26.02024,-0.15224,0.35981
200.466,26.07739,-0.15219,0.36115
201.066,26.13452,-0.15356,0.36109
201.666,26.19184,-0.15356,0.36095
202.266,26.24911,-0.1558,0.36015
202.866,26.30635,-0.15748,0.36017
203.466,26.36363,-0.15751,0.36093
204.066,26.42081,-0.15882,0.36156
204.666,26.47808,-0.15879,0.35932
205.266,26.53522,-0.16009,0.36064
205.866,26.59248,-0.16145,0.35969
206.466,26.64976,-0.16209,0.35954
207.066,26.70707,-0.16276,0.36161
207.666,26.7645,-0.16511,0.35722
208.266,26.82195,-0.16555,0.36015
208.866,26.87935,-0.16672,0.35814
209.466,26.93679,-0.16803,0.36092
210.066,26.99399,-0.16806,0.36117
210.666,27.05132,-0.16835,0.36079
211.266,27.10865,-0.16967,0.36029
211.866,27.16601,-0.1713,0.36215
212.466,27.2234,-0.17234,0.36052
213.066,27.28085,-0.17363,0.36095
213.666,27.33831,-0.17494,0.36175
214.266,27.39565,-0.17554,0.36303
214.866,27.45287,-0.17778,0.36238
215.466,27.51009,-0.17912,0.36379
216.066,27.56732,-0.17815,0.36126
216.666,27.62448,-0.1806,0.36119
217.266,27.68185,-0.18349,0.36308
217.866,27.73918,-0.18481,0.36478
218.466,27.7965,-0.1861,0.36588
219.066,27.85385,-0.18613,0.36272
219.666,27.91121,-0.1861,0.36205
220.266,27.96868,-0.18967,0.36582
220.866,28.02606,-0.19234,0.36707
221.466,28.0833,-0.19397,0.36529
222.066,28.14047,-0.19506,0.36488
222.666,28.19764,-0.1973,0.36775
223.266,28.25492,-0.19873,0.3675
223.866,28.31221,-0.20125,0.36777
224.466,28.36946,-0.20126,0.36795
225.066,28.42659,-0.20297,0.36765
225.666,28.48371,-0.20422,0.3689
226.266,28.54085,-0.20674,0.36639
226.866,28.59794,-0.20815,0.36846
227.466,28.65512,-0.20949,0.36801
228.066,28.71239,-0.21016,0.36969
228.666,28.76974,-0.21158,0.36984
229.266,28.82691,-0.21331,0.36963
229.866,28.88418,-0.21705,0.3691
230.466,28.9414,-0.21999,0.37037
231.066,28.99863,-0.22123,0.37257
231.666,29.0557,-0.22249,0.36927
232.266,29.11282,-0.2252,0.37025
232.866,29.16986,-0.22803,0.37313
233.466,29.22711,-0.22995,0.37203
234.066,29.28443,-0.23012,0.37163
234.666,29.34162,-0.23098,0.37142
235.266,29.39891,-0.23588,0.37299
235.866,29.4561,-0.23665,0.37287
236.466,29.51337,-0.2383,0.37135
237.066,29.57037,-0.24067,0.37223
237.666,29.62758,-0.24201,0.37331
238.266,29.68477,-0.24319,0.37333
238.866,29.74198,-0.24769,0.37419
239.466,29.79917,-0.25187,0.37435
240.066,29.85629,-0.25224,0.3731
240.666,29.91339,-0.25397,0.37324
241.266,29.97079,-0.25514,0.37362
241.866,30.02814,-0.25796,0.37431
242.466,30.08562,-0.26157,0.37584
243.066,30.1429,-0.26389,0.37776
243.666,30.2,-0.26686,0.37771
244.266,30.25735,-0.26935,0.3763
244.866,30.31484,-0.27228,0.37738
245.466,30.37237,-0.27531,0.37678
246.066,30.42996,-0.27707,0.37607
246.666,30.48744,-0.27946,0.38003
247.266,30.54486,-0.28186,0.37556
247.866,30.60216,-0.28448,0.37751
248.466,30.65956,-0.28692,0.37707
249.066,30.71694,-0.28999,0.37782
249.666,30.77427,-0.29299,0.37682
250.266,30.83154,-0.29586,0.37621
250.866,30.8888,-0.29911,0.37701
251.466,30.94601,-0.30173,0.37808
252.066,31.00309,-0.3047,0.37808
252.666,31.06047,-0.30738,0.37644
253.266,31.11798,-0.31041,0.37488
253.866,31.17512,-0.31299,0.37681
254.466,31.23265,-0.31577,0.37477
255.066,31.28997,-0.31852,0.37553
255.666,31.34729,-0.32238,0.3761
256.266,31.40494,-0.32587,0.37579
256.866,31.46233,-0.32929,0.37778
257.466,31.51974,-0.3321,0.37792
258.066,31.577,-0.33637,0.37814
258.666,31.63438,-0.34007,0.37725
259.266,31.69161,-0.34325,0.37849
259.866,31.74894,-0.34606,0.3777
260.466,31.80621,-0.3504,0.37908
261.066,31.86354,-0.35178,0.37852
261.666,31.92075,-0.35707,0.37756
262.266,31.97798,-0.36341,0.37802
262.866,32.03528,-0.36642,0.3792
263.466,32.09272,-0.36975,0.37682
264.066,32.15018,-0.37339,0.38099
264.666,32.20752,-0.37772,0.37966
265.266,32.26486,-0.38293,0.37875
265.866,32.32181,-0.38652,0.37861
266.466,32.37905,-0.39162,0.37911
267.066,32.43628,-0.39633,0.37771
267.666,32.49364,-0.40032,0.37932
268.266,32.55118,-0.40509,0.37699
268.866,32.6084,-0.41052,0.37971
269.466,32.66568,-0.41556,0.37728
270.066,32.72276,-0.41996,0.3781
270.666,32.7799,-0.42348,0.37903
271.266,32.83708,-0.42809,0.37684
271.866,32.89417,-0.43472,0.38009
272.466,32.95128,-0.43974,0.37858
273.066,33.0081,-0.4448,0.37639
273.666,33.06524,-0.44885,0.37683
274.266,33.12248,-0.45424,0.37512
274.866,33.17974,-0.45977,0.37525
275.466,33.23746,-0.46512,0.37442
276.066,33.29479,-0.4719,0.37322
276.666,33.35203,-0.47789,0.37347
277.266,33.40911,-0.48525,0.37412
277.866,33.46613,-0.4914,0.37439
278.466,33.52354,-0.49685,0.37416
279.066,33.58087,-0.50191,0.37449
279.666,33.63826,-0.51013,0.37461
280.266,33.69568,-0.51701,0.37216
280.866,33.75315,-0.52332,0.3707
281.466,33.81065,-0.53018,0.36842
282.066,33.86811,-0.53736,0.37067
282.666,33.9256,-0.54459,0.36738
283.266,33.98303,-0.55208,0.36913
283.866,34.04049,-0.55945,0.36535
284.466,34.09784,-0.56838,0.36477
285.066,34.15533,-0.57686,0.3662
285.666,34.21288,-0.58351,0.36601
286.266,34.27036,-0.58985,0.36574
286.866,34.32795,-0.60161,0.36452
287.466,34.38564,-0.60914,0.3661
288.066,34.44325,-0.61737,0.3665
288.666,34.50086,-0.62607,0.36604
289.266,34.5584,-0.63404,0.36623
289.866,34.61578,-0.64337,0.36771
290.466,34.673,-0.65228,0.3696
291.066,34.7303,-0.66256,0.3677
291.666,34.78782,-0.67195,0.36925
292.266,34.84539,-0.6824,0.36976
292.866,34.90291,-0.69023,0.37121
293.466,34.96054,-0.70148,0.36831
294.066,35.01804,-0.71147,0.37211
294.666,35.07567,-0.71991,0.37334
295.266,35.13307,-0.73004,0.37416
295.866,35.19056,-0.74085,0.37568
296.466,35.24798,-0.75234,0.37407
297.066,35.30542,-0.76218,0.3755
297.666,35.36302,-0.77302,0.37623
298.266,35.42063,-0.78393,0.37699
298.866,35.47823,-0.79379,0.37736
299.466,35.53563,-0.80591,0.37648
300.066,35.59308,-0.81759,0.37823
300.666,35.65068,-0.8278,0.37764
301.266,35.70787,-0.83936,0.37899
301.866,35.76532,-0.85001,0.3797
302.466,35.82284,-0.86363,0.3832
303.066,35.88052,-0.87598,0.38332
303.666,35.93835,-0.88915,0.38362
304.266,35.99609,-0.90125,0.38352
304.866,36.05353,-0.91333,0.38505
305.466,36.11089,-0.92497,0.3851
306.066,36.16855,-0.9376,0.38831
306.666,36.22608,-0.95065,0.38775
307.266,36.28388,-0.96486,0.39008
307.866,36.34127,-0.97823,0.39032
308.466,36.39873,-0.99154,0.39107
309.066,36.45638,-1.00447,0.39097
309.666,36.51397,-1.01897,0.39114
310.266,36.57141,-1.03116,0.39108
310.866,36.62899,-1.04478,0.39041
311.466,36.68638,-1.06138,0.39276
312.066,36.74404,-1.07495,0.39279
312.666,36.80161,-1.08963,0.39306
313.266,36.85925,-1.10425,0.39397
313.866,36.91688,-1.11883,0.39048
314.466,36.9744,-1.13404,0.39299
315.066,37.03192,-1.1455,0.39466
315.666,37.08966,-1.1645,0.39493
316.266,37.14732,-1.18025,0.3925
316.866,37.20513,-1.19572,0.39137
317.466,37.26313,-1.21096,0.39176
318.066,37.32084,-1.22689,0.39174
318.666,37.37847,-1.24304,0.39225
319.266,37.43625,-1.25899,0.39002
319.866,37.49391,-1.2751,0.3937
320.466,37.55166,-1.29137,0.39002
321.066,37.60953,-1.30663,0.39151
321.666,37.66721,-1.32321,0.39049
322.266,37.72475,-1.33963,0.38926
322.866,37.78231,-1.3575,0.39046
323.466,37.84011,-1.37538,0.38969
324.066,37.89788,-1.39387,0.38972
324.666,37.95588,-1.41039,0.39047
325.266,38.01359,-1.427,0.38731
325.866,38.07105,-1.4447,0.38712
326.466,38.12879,-1.46201,0.38675
327.066,38.18663,-1.48163,0.38731
327.666,38.24438,-1.49915,0.3846
328.266,38.30224,-1.51847,0.38352
328.866,38.35995,-1.5358,0.38366
329.466,38.41742,-1.55447,0.38336
330.066,38.47529,-1.57219,0.38296
330.666,38.53306,-1.5901,0.37994
331.266,38.59103,-1.61006,0.3805
331.866,38.64913,-1.62916,0.37807
332.466,38.70713,-1.64728,0.37559
333.066,38.76505,-1.66389,0.37399
333.666,38.82293,-1.68855,0.37369
334.266,38.88073,-1.70767,0.37296
334.866,38.93855,-1.72664,0.37121
335.466,38.99646,-1.74516,0.36857
336.066,39.05444,-1.76596,0.36473
336.666,39.11232,-1.78274,0.36314
337.266,39.1703,-1.80086,0.36122
337.866,39.22823,-1.82383,0.36043
338.466,39.28619,-1.84395,0.35782
339.066,39.34424,-1.86261,0.35364
339.666,39.40216,-1.88324,0.3535
340.266,39.46011,-1.90297,0.3489
340.866,39.51813,-1.92233,0.3453
341.466,39.57619,-1.94139,0.3407
342.066,39.63438,-1.9605,0.33807
342.666,39.69259,-1.98075,0.33342
343.266,39.75073,-1.99992,0.32834
343.866,39.80897,-2.01982,0.32525
344.466,39.86712,-2.03879,0.32045
345.066,39.92536,-2.05752,0.31703
345.666,39.98337,-2.07623,0.31099
346.266,40.04152,-2.09465,0.30405
346.866,40.09964,-2.11499,0.30242
347.466,40.15786,-2.13304,0.29361
348.066,40.21604,-2.15098,0.29025
348.666,40.27412,-2.16782,0.28455
349.266,40.33216,-2.187,0.27923
349.866,40.39016,-2.20506,0.27308
350.466,40.44824,-2.22262,0.26612
351.066,40.50623,-2.23906,0.26091
351.666,40.56429,-2.25741,0.25567
352.266,40.62233,-2.27306,0.24915
352.866,40.6804,-2.28984,0.24044
353.466,40.73844,-2.30669,0.23535
354.066,40.79646,-2.3229,0.22856
354.666,40.85448,-2.3388,0.22361
355.266,40.91264,-2.35339,0.21211
355.866,40.97082,-2.36764,0.2071
356.466,41.02895,-2.38221,0.19901
357.066,41.08693,-2.39788,0.19334
357.666,41.14481,-2.41167,0.1858
358.266,41.20259,-2.42484,0.1798
358.866,41.26023,-2.43803,0.17379
359.466,41.31806,-2.45011,0.1654
360.066,41.37601,-2.46387,0.15703
360.666,41.43399,-2.47465,0.15259
361.266,41.49203,-2.48778,0.14629
361.866,41.54993,-2.49885,0.1366
362.466,41.60793,-2.50979,0.13116
363.066,41.66609,-2.52005,0.12568
363.666,41.7239,-2.53169,0.11859
364.266,41.78189,-2.54024,0.11103
364.866,41.83955,-2.54923,0.10417
365.466,41.89757,-2.55975,0.0987276
366.066,41.9557,-2.56666,0.09470605
366.666,42.01379,-2.57594,0.08780767
367.266,42.07193,-2.58576,0.08031753
367.866,42.12942,-2.59215,0.07665759
368.466,42.18756,-2.59861,0.06873191
369.066,42.2456,-2.6073,0.0649015
369.666,42.30414,-2.61318,0.0562389
370.266,42.36277,-2.62001,0.05108896
370.866,42.42106,-2.62581,0.04612717
371.466,42.4794,-2.63384,0.0426605
372.066,42.5377,-2.63735,0.03609814
372.666,42.59584,-2.64199,0.03177718
373.266,42.654,-2.64574,0.02620593
373.866,42.71222,-2.65181,0.0232135
374.466,42.77051,-2.65704,0.01661539
375.066,42.82889,-2.6613,0.01537404
375.666,42.88746,-2.66634,0.00993873
376.266,42.94586,-2.67046,0.007244696
376.866,43.00418,-2.67497,0.002917386
377.466,43.06234,-2.67873,0.000396204
378.066,43.12064,-2.6805,-0.003179122
378.666,43.17892,-2.68468,-0.005564385
379.266,43.23718,-2.68749,-0.009484372
379.866,43.2955,-2.69037,-0.01291109
380.466,43.35363,-2.69389,-0.01405871
381.066,43.41194,-2.69692,-0.01910263
381.666,43.46995,-2.70201,-0.01919062
382.266,43.52802,-2.70327,-0.02125945
382.866,43.58616,-2.70487,-0.02498378
383.466,43.64439,-2.70842,-0.02753599
384.066,43.70276,-2.7109,-0.02810598
384.666,43.76101,-2.71119,-0.03091062
385.266,43.81917,-2.71541,-0.03222547
385.866,43.8773,-2.71836,-0.03687364
386.466,43.93561,-2.72158,-0.03688949
387.066,43.9939,-2.72685,-0.03928237
387.666,44.05227,-2.73046,-0.04271973
388.266,44.11071,-2.73325,-0.04337448
388.866,44.16917,-2.73569,-0.04685141
389.466,44.22763,-2.73706,-0.05070593
390.066,44.2862,-2.73884,-0.05174913
390.666,44.34458,-2.74062,-0.05384495
391.266,44.40295,-2.74247,-0.05582184
391.866,44.46129,-2.74521,-0.05823315
392.466,44.51936,-2.74678,-0.05911931
393.066,44.57744,-2.74848,-0.05907
393.666,44.63572,-2.75096,-0.0616572
394.266,44.69388,-2.75104,-0.06416206
394.866,44.75216,-2.75083,-0.06559208
395.466,44.81046,-2.75377,-0.06601976
396.066,44.86888,-2.75696,-0.06887924
396.666,44.92714,-2.76142,-0.06985944
397.266,44.98556,-2.7626,-0.07300512
397.866,45.04387,-2.76612,-0.07462989
398.466,45.10216,-2.76956,-0.07524258
399.066,45.16074,-2.77131,-0.07490983
399.666,45.21919,-2.77434,-0.07761912
400.266,45.2777,-2.77693,-0.07993098
400.866,45.33598,-2.77975,-0.08232007
401.466,45.3942,-2.78119,-0.08249002
402.066,45.45238,-2.78365,-0.08305867
402.666,45.51075,-2.78672,-0.08489101
403.266,45.56919,-2.7887,-0.08713079
403.866,45.62784,-2.79077,-0.08672817
404.466,45.68638,-2.79332,-0.08769763
405.066,45.74486,-2.79554,-0.09022129
405.666,45.80342,-2.79717,-0.09291619
406.266,45.86187,-2.79985,-0.09062861
406.866,45.92022,-2.80282,-0.09115419
407.466,45.97862,-2.805,-0.09220885
408.066,46.03727,-2.80655,-0.09133035
408.666,46.09595,-2.80816,-0.09415018
409.266,46.15443,-2.81085,-0.09390731
409.866,46.21288,-2.8138,-0.0929533
410.466,46.27134,-2.81599,-0.09408774
411.066,46.32994,-2.81805,-0.09521195
411.666,46.38827,-2.82018,-0.09751806
412.266,46.4466,-2.8227,-0.09541014
412.866,46.50507,-2.82537,-0.09604616
413.466,46.56368,-2.82665,-0.09491518
414.066,46.623,-2.82948,-0.09492531
414.666,46.68167,-2.83075,-0.09635304
415.266,46.7403,-2.83364,-0.09402429
415.866,46.79891,-2.83561,-0.0983683
416.466,46.85762,-2.83781,-0.09669676
417.066,46.91627,-2.83958,-0.09345061
417.666,46.97494,-2.84181,-0.09741197
418.266,47.03356,-2.84432,-0.09642297
418.866,47.09215,-2.84689,-0.09476361
419.466,47.15084,-2.84807,-0.09474076
420.066,47.20895,-2.85052,-0.09560192
420.666,47.26756,-2.85212,-0.09286588
421.266,47.32639,-2.85427,-0.09271945
421.866,47.38509,-2.85605,-0.0938752
422.466,47.44438,-2.85782,-0.09348331
423.066,47.50315,-2.85961,-0.09334334
423.666,47.56183,-2.86179,-0.09163753
424.266,47.62061,-2.86394,-0.0903849
424.866,47.67948,-2.86662,-0.08601055
425.466,47.73835,-2.86803,-0.08869974
426.066,47.79709,-2.87057,-0.08736973
426.666,47.85576,-2.87176,-0.0853579
427.266,47.91423,-2.8736,-0.08489815
427.866,47.97276,-2.87664,-0.08281165
428.466,48.03151,-2.87793,-0.08068899
429.066,48.09015,-2.87794,-0.08166086
429.666,48.14904,-2.87942,-0.08123102
430.266,48.20777,-2.88214,-0.07978818
430.866,48.26646,-2.88481,-0.08137031
431.466,48.32505,-2.88619,-0.07503321
432.066,48.38359,-2.88911,-0.07573418
432.666,48.44207,-2.89006,-0.07547759
433.266,48.50071,-2.89123,-0.07411405
433.866,48.55931,-2.89254,-0.07137906
434.466,48.61812,-2.89445,-0.0701895
435.066,48.67673,-2.89665,-0.06958662
435.666,48.73545,-2.89791,-0.06757347
436.266,48.79382,-2.90014,-0.06664638
436.866,48.85248,-2.90225,-0.06829883
437.466,48.9112,-2.90339,-0.0641555
438.066,48.96995,-2.90558,-0.06075492
438.666,49.02888,-2.90682,-0.06080446
439.266,49.08766,-2.90803,-0.05993858
439.866,49.14633,-2.9096,-0.05773368
440.466,49.20515,-2.91103,-0.05795976
441.066,49.26372,-2.91348,-0.05655937
441.666,49.32237,-2.91488,-0.05446195
442.266,49.38103,-2.91665,-0.05196091
442.866,49.43986,-2.91633,-0.05278087
443.466,49.49871,-2.91764,-0.05256755
444.066,49.55741,-2.92008,-0.05099125
444.666,49.61607,-2.92161,-0.05136918
445.266,49.67468,-2.92305,-0.04805954
445.866,49.73343,-2.92427,-0.04585444
446.466,49.7922,-2.92666,-0.04762554
447.066,49.85095,-2.92796,-0.04463894
447.666,49.90965,-2.92937,-0.04453096
448.266,49.96841,-2.93021,-0.04730974
448.866,50.02732,-2.9308,-0.04264242
449.466,50.08632,-2.93312,-0.04187782
450.066,50.14537,-2.93474,-0.04371175
450.666,50.20442,-2.93608,-0.04006808
451.266,50.26355,-2.93744,-0.03866569
451.866,50.3226,-2.9387,-0.03735483
452.466,50.38169,-2.94007,-0.03710574
453.066,50.44074,-2.94148,-0.03669588
453.666,50.49991,-2.94211,-0.03806498
454.266,50.55911,-2.94343,-0.03790218
454.866,50.61814,-2.94475,-0.03599032
455.466,50.67728,-2.94601,-0.03400368
456.066,50.73633,-2.94798,-0.03263033
456.666,50.79528,-2.94872,-0.03311644
457.266,50.85423,-2.95021,-0.03189471
457.866,50.91323,-2.95251,-0.03079798
458.466,50.97233,-2.954,-0.02924562
459.066,51.03153,-2.95527,-0.03033874
459.666,51.09079,-2.95527,-0.02880562
460.266,51.14996,-2.95593,-0.02802986
460.866,51.20902,-2.95724,-0.02859103
461.466,51.2681,-2.95724,-0.02477907
462.066,51.32707,-2.95899,-0.02834057
462.666,51.38595,-2.96119,-0.02815498
463.266,51.44526,-2.96251,-0.02421117
463.866,51.50438,-2.96329,-0.02817998
464.466,51.56386,-2.96401,-0.02470725
465.066,51.6231,-2.96528,-0.02575152
465.666,51.68234,-2.96782,-0.0243737
466.266,51.74169,-2.96919,-0.02305339
466.866,51.8011,-2.97051,-0.02188039
467.466,51.86043,-2.97021,-0.0219987
468.066,51.9197,-2.97085,-0.02469668
468.666,51.9788,-2.97217,-0.02362414
469.266,52.03801,-2.97344,-0.0236286
469.866,52.09732,-2.9761,-0.02277689
470.466,52.15676,-2.97703,-0.01887997
471.066,52.21603,-2.97739,-0.01731188
471.666,52.2754,-2.97833,-0.02195009
472.266,52.33475,-2.97877,-0.02242378
472.866,52.39418,-2.98006,-0.01906
473.466,52.45377,-2.98139,-0.02075992
474.066,52.51313,-2.98141,-0.02051016
474.666,52.57246,-2.9841,-0.02265294
475.266,52.63194,-2.98541,-0.01946242
475.866,52.69145,-2.98534,-0.01997877
476.466,52.75085,-2.98665,-0.01833259
477.066,52.81024,-2.98664,-0.02133436
477.666,52.86953,-2.98793,-0.02186806
478.266,52.92894,-2.98793,-0.02037394
478.866,52.9884,-2.99059,-0.02020862
479.466,53.04779,-2.99192,-0.01821233
480.066,53.10676,-2.99257,-0.01974901
480.666,53.16621,-2.99304,-0.01835409
481.266,53.22565,-2.99322,-0.01872579
481.866,53.28527,-2.99463,-0.02029147
482.466,53.34508,-2.99453,-0.02149871
483.066,53.40455,-2.99584,-0.01954732
483.666,53.46396,-2.99717,-0.02146266
484.266,53.52344,-2.99717,-0.02147444
484.866,53.58293,-2.99847,-0.01995304
485.466,53.64212,-2.99865,-0.02053553
486.066,53.70179,-2.9998,-0.01842336
486.666,53.76124,-3.00112,-0.02057809
487.266,53.82094,-3.00255,-0.01967063
487.866,53.8805,-3.00318,-0.02030927
488.466,53.93984,-3.00287,-0.02060057
489.066,53.9993,-3.00419,-0.01832674
489.666,54.05865,-3.00506,-0.01868302
490.266,54.11827,-3.00633,-0.01963008
490.866,54.17782,-3.00682,-0.01860155
491.466,54.2372,-3.00813,-0.01987945
492.066,54.29654,-3.00809,-0.01747728
492.666,54.35582,-3.00945,-0.01981845
493.266,54.41522,-3.0106,-0.02048617
493.866,54.47463,-3.01168,-0.01936417
494.466,54.53417,-3.01178,-0.01861968
495.066,54.59367,-3.01187,-0.01824047
495.666,54.653,-3.01201,-0.02051205
496.266,54.71248,-3.01309,-0.02143229
496.866,54.77192,-3.01439,-0.02286097
497.466,54.83134,-3.01439,-0.02276425
498.066,54.8908,-3.01571,-0.0222024
498.666,54.95033,-3.01703,-0.02257895
499.266,55.00983,-3.01703,-0.02257507
499.866,55.06928,-3.01835,-0.02368197
500.466,55.12866,-3.01966,-0.02555217
501.066,55.188,-3.0203,-0.0238196
501.666,55.24739,-3.02032,-0.02426829
502.266,55.30687,-3.02083,-0.02341268
502.866,55.36617,-3.02196,-0.02525074
503.466,55.42554,-3.02242,-0.02331638
504.066,55.48475,-3.02392,-0.02322688
504.666,55.54414,-3.02551,-0.02435499
505.266,55.60357,-3.02621,-0.02487129
505.866,55.66306,-3.02726,-0.02605877
506.466,55.72255,-3.02722,-0.0270262
507.066,55.78217,-3.02722,-0.02609693
507.666,55.84172,-3.02723,-0.02576724
508.266,55.90144,-3.02854,-0.02447565
508.866,55.96127,-3.02984,-0.02647594
509.466,56.02104,-3.03117,-0.02772314
510.066,56.08068,-3.03249,-0.02652882
510.666,56.1403,-3.03249,-0.02713027
511.266,56.19978,-3.0325,-0.02822655
511.866,56.25935,-3.03246,-0.02810062
512.466,56.319,-3.03381,-0.02798396
513.066,56.37848,-3.03513,-0.0287435
513.666,56.43811,-3.03513,-0.02889197
514.266,56.49763,-3.03179,-0.03016032
514.866,56.55746,-3.03371,-0.03100702
515.466,56.61726,-3.03622,-0.03085714
516.066,56.67667,-3.03691,-0.03217514
516.666,56.73613,-3.03541,-0.03553575
517.266,56.7957,-3.03653,-0.03175991
517.866,56.85526,-3.0376,-0.03079753
518.466,56.91515,-3.03885,-0.03047531
519.066,56.97459,-3.04008,-0.03018567
519.666,57.03418,-3.04016,-0.02836762
520.266,57.09373,-3.04016,-0.0310709
520.866,57.15336,-3.04029,-0.02843879
521.466,57.21293,-3.04471,-0.02578552
522.066,57.27248,-3.04727,-0.02377637
522.666,57.33229,-3.04557,-0.02414329
523.266,57.39189,-3.04442,-0.02094665
523.866,57.45169,-3.04319,-0.02169904
524.466,57.5113,-3.04601,-0.01825862
525.066,57.57107,-3.04886,-0.01784625
525.666,57.631,-3.04883,-0.01366816
526.266,57.69065,-3.04988,-0.01148514
526.866,57.75032,-3.04883,-0.008998173
527.466,57.80985,-3.05014,-0.007069518
528.066,57.86959,-3.0511,-0.007221424
528.666,57.92939,-3.05113,-0.00526322
529.266,57.98917,-3.0514,-0.002551286
529.866,58.04879,-3.05242,0.00102689
530.466,58.10857,-3.05377,0.001909617
531.066,58.16836,-3.05376,0.00300209
531.666,58.22818,-3.0537,0.003389011
532.266,58.28789,-3.05511,0.002532076
532.866,58.34749,-3.05508,0.003121127
533.466,58.40718,-3.05641,0.006705341
534.066,58.46691,-3.05772,0.003079977
534.666,58.52663,-3.05773,0.007110655
535.266,58.58634,-3.05904,0.008076805
535.866,58.64603,-3.05728,0.007546495
536.466,58.70565,-3.05494,0.006085238
537.066,58.76544,-3.05903,0.007826272
537.666,58.82524,-3.0607,0.01106025
538.266,58.88502,-3.062,0.01098571
538.866,58.94464,-3.062,0.0117999
539.466,59.00414,-3.0634,0.01200515
540.066,59.0638,-3.06331,0.01378039
540.666,59.12353,-3.06328,0.01416103
541.266,59.18338,-3.06357,0.01318829
541.866,59.24305,-3.06463,0.01321162
542.466,59.30282,-3.06486,0.01806849
543.066,59.3625,-3.06593,0.01584216
543.666,59.42233,-3.06661,0.01763557
544.266,59.48199,-3.06818,0.02072612
544.866,59.54158,-3.06733,0.01801449
545.466,59.60138,-3.06714,0.02076194
546.066,59.66111,-3.06682,0.02037166
546.666,59.72094,-3.06813,0.02262255
547.266,59.78081,-3.06812,0.02211306
547.866,59.8406,-3.07077,0.02469879
548.466,59.9003,-3.07077,0.01883083
549.066,59.9598,-3.07077,0.01956201
549.666,60.01938,-3.07077,0.02184183
550.266,60.07912,-3.07103,0.01932173
550.866,60.13874,-3.0721,0.01417588
551.466,60.19829,-3.0734,0.01218406
552.066,60.25789,-3.0747,0.01080987
552.666,60.31767,-3.07472,0.008622011
553.266,60.37737,-3.07569,0.008503208
553.866,60.43721,-3.07702,0.007074314
554.466,60.49685,-3.07833,0.003554413
555.066,60.5566,-3.07802,0.001289617
555.666,60.61651,-3.07801,0.001553195
556.266,60.67631,-3.078,0.003653522
556.866,60.73625,-3.07833,-0.00046468
557.466,60.79614,-3.07893,-0.001959034
558.066,60.85606,-3.07966,-0.001473827
558.666,60.9161,-3.07966,-0.003812201
559.266,60.97607,-3.08102,-0.001455702
559.866,61.03598,-3.08233,-0.002691259
560.466,61.09606,-3.08229,-0.006568695
561.066,61.15625,-3.0822,-0.003787563
561.666,61.21638,-3.08229,-0.00664415
562.266,61.27646,-3.08229,-0.008740911
562.866,61.33651,-3.08229,-0.008562567
563.466,61.39662,-3.08345,-0.01063914
564.066,61.45665,-3.0836,-0.009341338
564.666,61.51668,-3.08495,-0.0108753
565.266,61.57637,-3.08528,-0.01015794
565.866,61.63638,-3.08624,-0.01349632
566.466,61.69627,-3.08624,-0.01338707
567.066,61.75656,-3.08687,-0.01221404
567.666,61.81658,-3.08622,-0.01408449
568.266,61.87667,-3.08755,-0.01300153
568.866,61.93678,-3.08755,-0.01484107
569.466,61.99671,-3.08884,-0.01215034
570.066,62.05662,-3.08887,-0.01446061
570.666,62.11653,-3.08924,-0.01542349
571.266,62.17633,-3.09018,-0.01617538
571.866,62.23624,-3.09078,-0.01644036
572.466,62.29638,-3.0915,-0.01549514
573.066,62.35678,-3.0915,-0.01541522
573.666,62.41701,-3.09155,-0.02037188
574.266,62.47704,-3.09147,-0.01977946
574.866,62.53701,-3.09183,-0.01988668
575.466,62.59698,-3.09385,-0.02152055
576.066,62.65681,-3.09548,-0.02209164
576.666,62.71685,-3.09383,-0.01950956
577.266,62.77687,-3.09249,-0.01945982
577.866,62.83697,-3.09379,-0.02249771
578.466,62.89693,-3.09394,-0.02089649
579.066,62.95678,-3.09512,-0.02122645
579.666,63.0169,-3.09512,-0.02393512
580.266,63.07717,-3.09621,-0.02354631
580.866,63.13739,-3.09644,-0.02304474
581.466,63.19748,-3.09644,-0.02477749
582.066,63.25736,-3.09533,-0.02608017
582.666,63.31746,-3.09512,-0.02572557
583.266,63.37744,-3.09512,-0.0286513
583.866,63.43762,-3.0964,-0.02771778
584.466,63.49771,-3.09709,-0.0263572
585.066,63.55788,-3.09843,-0.02615341
585.666,63.61791,-3.09976,-0.02975986
586.266,63.67772,-3.10086,-0.02808019
586.866,63.73783,-3.10056,-0.02957512
587.466,63.79799,-3.09974,-0.02832532
588.066,63.8583,-3.10039,-0.03250547
588.666,63.9185,-3.10038,-0.03131984
589.266,63.97864,-3.10038,-0.03383566
589.866,64.03871,-3.10038,-0.03182631
590.466,64.09876,-3.10172,-0.03227934
591.066,64.1589,-3.1017,-0.03303339
591.666,64.21903,-3.10295,-0.0332525
592.266,64.2794,-3.10433,-0.03290796
592.866,64.33965,-3.10498,-0.03193314
593.466,64.39974,-3.10433,-0.03463789
594.066,64.45999,-3.10433,-0.03680517
594.666,64.52029,-3.10466,-0.03708641
595.266,64.58078,-3.10467,-0.03684306
595.866,64.64107,-3.10597,-0.03692361
596.466,64.70142,-3.10598,-0.03586332
597.066,64.76177,-3.1073,-0.03806
597.666,64.82195,-3.1073,-0.03494787
598.266,64.88224,-3.1073,-0.0378328
598.866,64.94256,-3.10728,-0.03704428
599.466,65.00302,-3.10766,-0.03713941
600.066,65.06346,-3.10851,-0.03747057
600.666,65.12365,-3.1085,-0.03636611
601.266,65.18383,-3.10949,-0.03952626
601.866,65.24374,-3.11048,-0.03608995
602.466,65.30406,-3.11048,-0.03631892
603.066,65.36442,-3.1119,-0.03652553
603.666,65.42477,-3.1118,-0.03653888
604.266,65.48507,-3.11244,-0.03834697
604.866,65.54525,-3.11245,-0.03622694
605.466,65.60527,-3.11374,-0.03429254
606.066,65.66536,-3.11376,-0.03605195
606.666,65.72553,-3.11511,-0.03780963
607.266,65.78573,-3.11449,-0.03669587
607.866,65.84552,-3.11344,-0.03680955
608.466,65.90569,-3.11323,-0.03363664
609.066,65.96567,-3.1141,-0.03778611
609.666,66.02585,-3.1141,-0.03557692
610.266,66.0863,-3.11411,-0.03551772
610.866,66.14646,-3.11541,-0.03542116
611.466,66.2068,-3.11541,-0.03798629
612.066,66.26684,-3.11541,-0.0394167
612.666,66.32703,-3.11679,-0.03960181
613.266,66.38725,-3.11553,-0.03667076
613.866,66.44721,-3.11614,-0.03795409
614.466,66.50746,-3.11805,-0.04051936
615.066,66.56774,-3.11805,-0.0375608
615.666,66.62824,-3.11805,-0.03753756
616.266,66.6886,-3.11684,-0.037783
616.866,66.74906,-3.11804,-0.03587844
617.466,66.80941,-3.11805,-0.03748214
618.066,66.86988,-3.11936,-0.0381606
618.666,66.93003,-3.11936,-0.03892388
619.266,66.99026,-3.12004,-0.03668848
619.866,67.05063,-3.12035,-0.03747042
620.466,67.11118,-3.12066,-0.0372497
621.066,67.1711,-3.12142,-0.0410701
621.666,67.23138,-3.12199,-0.03831468
622.266,67.29161,-3.12199,-0.04049133
622.866,67.35205,-3.122,-0.0378796
623.466,67.41256,-3.12331,-0.03956496
624.066,67.47305,-3.12268,-0.03951526
624.666,67.53341,-3.122,-0.03911782
625.266,67.59395,-3.1222,-0.03871658
625.866,67.65461,-3.12396,-0.04149513
626.466,67.71505,-3.12397,-0.03855522
627.066,67.77548,-3.12265,-0.03864656
627.666,67.83589,-3.12265,-0.03887898
628.266,67.89632,-3.12264,-0.03728618
628.866,67.95669,-3.12462,-0.03784271
629.466,68.01722,-3.12571,-0.03587603
630.066,68.07746,-3.12575,-0.03757164
630.666,68.13779,-3.12562,-0.03566727
631.266,68.19817,-3.12686,-0.03368959
631.866,68.25873,-3.12693,-0.0371359
632.466,68.31938,-3.12693,-0.0339488
633.066,68.38007,-3.12934,-0.03448385
633.666,68.44059,-3.12824,-0.03759298
634.266,68.50108,-3.12693,-0.03538282
634.866,68.56146,-3.12728,-0.03776292
635.466,68.62181,-3.12724,-0.03618422
636.066,68.68217,-3.12824,-0.03721686
636.666,68.74242,-3.12728,-0.03772425
637.266,68.80266,-3.12814,-0.03206242
637.866,68.86314,-3.12989,-0.03219829
638.466,68.9235,-3.12991,-0.03186977
639.066,68.98398,-3.12923,-0.03420539
639.666,69.04456,-3.12923,-0.03206494
640.266,69.10508,-3.12933,-0.0347153
640.866,69.16576,-3.12913,-0.03395112
641.466,69.22618,-3.13055,-0.03612116
642.066,69.28676,-3.13119,-0.03339729
642.666,69.34726,-3.13183,-0.03345734
643.266,69.40791,-3.1322,-0.03547002
643.866,69.46847,-3.13125,-0.03255911
644.466,69.52907,-3.13253,-0.03441855
645.066,69.58961,-3.13253,-0.03558966
645.666,69.65037,-3.13253,-0.03732992
646.266,69.71092,-3.13253,-0.03368992
646.866,69.77129,-3.13352,-0.03407129
647.466,69.83169,-3.13352,-0.03710401
648.066,69.89209,-3.13352,-0.0364941
648.666,69.95263,-3.13352,-0.03831996
649.266,70.01312,-3.1335,-0.03506322
649.866,70.07351,-3.13504,-0.03739797
650.466,70.13389,-3.13516,-0.03524201
651.066,70.19436,-3.13653,-0.03560806
651.666,70.25495,-3.13631,-0.03619499
652.266,70.31528,-3.13549,-0.03450893
652.866,70.37559,-3.13622,-0.03408032
653.466,70.43571,-3.13647,-0.03597389
654.066,70.49592,-3.13647,-0.03382359
654.666,70.55634,-3.13647,-0.03492155
655.266,70.61672,-3.1367,-0.03346947
655.866,70.67736,-3.13648,-0.03586596
656.466,70.73796,-3.13783,-0.03709302
657.066,70.79849,-3.13779,-0.0379042
657.666,70.85896,-3.13878,-0.03520992
658.266,70.91938,-3.1391,-0.03663507
658.866,70.97995,-3.13911,-0.03903623
659.466,71.04048,-3.13812,-0.03674377
660.066,71.10115,-3.13812,-0.036885
660.666,71.16168,-3.13812,-0.03742106
661.266,71.22229,-3.13779,-0.04088516
661.866,71.28276,-3.13911,-0.04012795
662.466,71.34341,-3.1391,-0.03944953
663.066,71.40368,-3.13909,-0.04211083
663.666,71.46446,-3.14042,-0.04164436
664.266,71.52507,-3.14115,-0.04207616
664.866,71.58613,-3.14108,-0.03913666
665.466,71.64663,-3.14108,-0.04241574
666.066,71.70702,-3.14213,-0.04157134
666.666,71.7674,-3.14207,-0.04200327
667.266,71.8279,-3.14207,-0.04420869
667.866,71.88855,-3.14207,-0.04120863
668.466,71.94914,-3.14266,-0.04053529
669.066,72.00967,-3.14371,-0.0430161
669.666,72.07006,-3.14503,-0.04287642
670.266,72.13069,-3.14372,-0.04233334
670.866,72.1914,-3.14503,-0.04019815
671.466,72.25221,-3.14557,-0.04171324
672.066,72.31282,-3.14635,-0.04326515
672.666,72.37351,-3.14493,-0.0438608
673.266,72.43392,-3.14576,-0.04323161
673.866,72.49444,-3.14518,-0.04816199
674.466,72.55492,-3.14503,-0.04377896
675.066,72.61547,-3.14503,-0.04248984
675.666,72.67568,-3.14634,-0.04511387
676.266,72.73625,-3.14635,-0.04475845
676.866,72.79668,-3.14766,-0.04500911
677.466,72.85741,-3.14767,-0.04563039
678.066,72.91794,-3.14775,-0.04619511
678.666,72.97837,-3.1476,-0.04708331
679.266,73.03896,-3.14766,-0.04873394
679.866,73.09959,-3.14766,-0.04872744
680.466,73.16027,-3.15029,-0.05271418
681.066,73.22104,-3.15026,-0.05145688
681.666,73.28179,-3.14911,-0.05164905
682.266,73.34249,-3.15029,-0.05048574
682.866,73.40309,-3.15029,-0.04966628
683.466,73.46369,-3.15028,-0.04808892
684.066,73.52439,-3.15161,-0.04754998
684.666,73.58521,-3.15024,-0.05022752
685.266,73.64593,-3.15029,-0.05160331
685.866,73.70663,-3.15029,-0.04919507
686.466,73.76734,-3.15029,-0.05496435
687.066,73.82794,-3.15153,-0.05229708
687.666,73.88857,-3.15009,-0.05232261
688.266,73.94912,-3.14946,-0.05303044
688.866,74.0097,-3.15149,-0.05128049
689.466,74.07008,-3.15347,-0.050567
690.066,74.13056,-3.15413,-0.05460231
690.666,74.19084,-3.15413,-0.05366025
691.266,74.25125,-3.15413,-0.05314793
691.866,74.31158,-3.15413,-0.05365106
692.466,74.37202,-3.15512,-0.05419489
693.066,74.43267,-3.15502,-0.05052877
693.666,74.49334,-3.1536,-0.05089341
694.266,74.55403,-3.15481,-0.05108544
694.866,74.6147,-3.15563,-0.04990137
695.466,74.67525,-3.15705,-0.05249414
696.066,74.73588,-3.1583,-0.05390097
696.666,74.79658,-3.1583,-0.05605712
697.266,74.85726,-3.15721,-0.05284962
697.866,74.91804,-3.15699,-0.05446138
698.466,74.97873,-3.157,-0.0550008
699.066,75.03944,-3.15896,-0.05432827
699.666,75.10011,-3.15961,-0.05385024
700.266,75.1603,-3.15961,-0.0522993
700.866,75.22097,-3.1596,-0.05351949
701.466,75.28174,-3.15995,-0.05327696
702.066,75.34301,-3.15854,-0.05472011
702.666,75.40416,-3.15832,-0.05629137
703.266,75.46497,-3.15962,-0.0593108
703.866,75.52604,-3.15967,-0.05577891
704.466,75.58697,-3.15968,-0.06008713
705.066,75.64813,-3.15962,-0.06058377
705.666,75.70909,-3.15714,-0.06022621
706.266,75.77,-3.15995,-0.0589352
706.866,75.83093,-3.15992,-0.06439776
707.466,75.89194,-3.16126,-0.06198463
708.066,75.95293,-3.15994,-0.06375893
708.666,76.01408,-3.16017,-0.06187286
709.266,76.07527,-3.16183,-0.06475951
709.866,76.13633,-3.16192,-0.06699122
710.466,76.1973,-3.16192,-0.06690912
711.066,76.25837,-3.16192,-0.06763152
711.666,76.31931,-3.16192,-0.06531282
712.266,76.38037,-3.16357,-0.06707503
712.866,76.44129,-3.16356,-0.07010212
713.466,76.50239,-3.1629,-0.06997023
714.066,76.5634,-3.1629,-0.06976786
714.666,76.62421,-3.16419,-0.07053725
715.266,76.68503,-3.16422,-0.07308982
715.866,76.7458,-3.16429,-0.07143947
716.466,76.80665,-3.16356,-0.07342
717.066,76.86737,-3.16467,-0.07346925
717.666,76.92812,-3.16396,-0.07927118
718.266,76.98882,-3.16422,-0.07503295
718.866,77.04971,-3.16488,-0.07785405
719.466,77.11075,-3.16554,-0.07416995
720.066,77.17178,-3.1663,-0.07820559
720.666,77.23277,-3.16653,-0.07862056
721.266,77.29344,-3.16653,-0.07964373
721.866,77.35421,-3.1658,-0.07865712
722.466,77.41496,-3.16587,-0.07819044
723.066,77.47587,-3.16556,-0.08379954
723.666,77.53668,-3.16685,-0.08260427
724.266,77.5975,-3.16701,-0.08122936
724.866,77.6584,-3.16817,-0.08545041
725.466,77.71905,-3.16817,-0.08475
726.066,77.77975,-3.16753,-0.08527724
726.666,77.84051,-3.16684,-0.08814643
727.266,77.90112,-3.16817,-0.08643513
727.866,77.96205,-3.16817,-0.08530054
728.466,78.02288,-3.16753,-0.08770704
729.066,78.08359,-3.16872,-0.08833865
729.666,78.14427,-3.16883,-0.08896818
730.266,78.20486,-3.16883,-0.09063484
730.866,78.26504,-3.16885,-0.09033693
731.466,78.3258,-3.17014,-0.08919966
732.066,78.38657,-3.17143,-0.09315825
732.666,78.44799,-3.17146,-0.09488763
733.266,78.50879,-3.17146,-0.09477181
733.866,78.5696,-3.17179,-0.09631695
734.466,78.63041,-3.17212,-0.09667558
735.066,78.69117,-3.17212,-0.1001
735.666,78.75203,-3.17173,-0.10038
736.266,78.81287,-3.17245,-0.10213
736.866,78.87388,-3.17234,-0.10254
737.466,78.93488,-3.17343,-0.1016
738.066,78.99583,-3.17343,-0.10606
738.666,79.0568,-3.17342,-0.1037
739.266,79.11782,-3.17266,-0.10218
739.866,79.17889,-3.17303,-0.10265
740.466,79.24007,-3.17409,-0.10677
741.066,79.30119,-3.17475,-0.1062
741.666,79.36224,-3.17412,-0.10725
742.266,79.4232,-3.17541,-0.10633
742.866,79.48427,-3.17475,-0.10649
743.466,79.54533,-3.17475,-0.10809
744.066,79.60655,-3.17475,-0.11074
744.666,79.66764,-3.17571,-0.11485
745.266,79.7287,-3.17519,-0.11222
745.866,79.78949,-3.17442,-0.11042
746.466,79.85026,-3.17442,-0.11342
747.066,79.91105,-3.17477,-0.11809
747.666,79.97184,-3.1749,-0.11195
748.266,80.0331,-3.17577,-0.11586
748.866,80.09408,-3.17706,-0.11277
749.466,80.15507,-3.1757,-0.11253
750.066,80.21602,-3.17607,-0.11707
750.666,80.27709,-3.17725,-0.11797
751.266,80.33816,-3.17839,-0.1192
751.866,80.39909,-3.17837,-0.11778
752.466,80.45993,-3.17772,-0.11744
753.066,80.52053,-3.17771,-0.11965
753.666,80.5808,-3.17838,-0.11817
754.266,80.6414,-3.17706,-0.12047
754.866,80.70223,-3.17706,-0.11974
755.466,80.7631,-3.17706,-0.11709
756.066,80.82435,-3.17708,-0.12135
756.666,80.88534,-3.17838,-0.12364
757.266,80.94631,-3.17838,-0.12112
757.866,81.00732,-3.17838,-0.12284
758.466,81.06814,-3.17838,-0.12764
759.066,81.12895,-3.17838,-0.12376
759.666,81.18996,-3.17969,-0.12734
760.266,81.25105,-3.17969,-0.12253
760.866,81.31195,-3.17969,-0.12435
761.466,81.3729,-3.18101,-0.12534
762.066,81.43368,-3.18101,-0.12731
762.666,81.49455,-3.18231,-0.12563
763.266,81.55536,-3.18099,-0.12657
763.866,81.61633,-3.18425,-0.13212
764.466,81.67716,-3.1818,-0.12685
765.066,81.73815,-3.18056,-0.13152
765.666,81.79896,-3.18056,-0.13523
766.266,81.86001,-3.18056,-0.13437
766.866,81.92112,-3.18056,-0.13037
767.466,81.98213,-3.18154,-0.13021
768.066,82.0431,-3.18287,-0.13062
768.666,82.10395,-3.18287,-0.1326
769.266,82.16493,-3.18287,-0.13465
769.866,82.22587,-3.18287,-0.13749
770.466,82.28662,-3.18148,-0.13599
771.066,82.34758,-3.1815,-0.13749
771.666,82.40857,-3.18409,-0.13786
772.266,82.46959,-3.18419,-0.13729
772.866,82.53072,-3.18349,-0.13811
773.466,82.5916,-3.1832,-0.13784
774.066,82.65255,-3.18315,-0.13901
774.666,82.71361,-3.18451,-0.13894
775.266,82.77461,-3.18451,-0.14293
775.866,82.83581,-3.18551,-0.14376
776.466,82.89699,-3.1855,-0.14016
777.066,82.95819,-3.1865,-0.14082
777.666,83.0191,-3.18607,-0.14385
778.266,83.07994,-3.18506,-0.14412
778.866,83.14101,-3.18572,-0.14229
779.466,83.20219,-3.18533,-0.14432
780.066,83.26324,-3.1854,-0.14679
780.666,83.32426,-3.18662,-0.14944
781.266,83.38518,-3.18671,-0.14797
781.866,83.44619,-3.18671,-0.14603
782.466,83.50729,-3.18781,-0.14892
783.066,83.56847,-3.18802,-0.15028
783.666,83.62968,-3.18935,-0.14675
784.266,83.69081,-3.18934,-0.14886
784.866,83.75194,-3.18803,-0.14899
785.466,83.81297,-3.18803,-0.14857
786.066,83.87396,-3.18803,-0.14731
786.666,83.93504,-3.18803,-0.14622
787.266,83.99608,-3.18803,-0.15227
787.866,84.0572,-3.18808,-0.14844
788.466,84.11816,-3.18683,-0.15381
789.066,84.17922,-3.18824,-0.15287
789.666,84.24021,-3.18956,-0.15448
790.266,84.30128,-3.19088,-0.15353
790.866,84.36246,-3.19087,-0.15225
791.466,84.42346,-3.18956,-0.15298
792.066,84.48457,-3.18956,-0.15444
792.666,84.54564,-3.18951,-0.15483
793.266,84.60678,-3.19088,-0.15553
793.866,84.66785,-3.19088,-0.15627
794.466,84.72888,-3.19088,-0.15916
795.066,84.78977,-3.19088,-0.1549
795.666,84.85089,-3.19088,-0.16066
796.266,84.91199,-3.19186,-0.15838
796.866,84.97314,-3.19037,-0.16148
797.066,84.99369,-3.18933,-0.1624