File: 01_Data/Plywood/STA/N2/10K_min/Plywood_STA_N2_10KData_22253_R3.csv
##Temp./Â°C,Time/min,Mass loss(subtr.)/mg,DSC(subtr.2)/(mW/mg),Sensit./(uV/mW)
49.699,10.01,-0.02677,0.02365368,
50.299,10.7345,-0.02873529,0.05482566,
50.899,10.92386,-0.02839681,0.07913933,
51.499,11.06482,-0.02956299,0.09920036,
52.099,11.18282,-0.03130364,0.11655,
52.699,11.28797,-0.03194861,0.13115,
53.299,11.38307,-0.02922707,0.14558,
53.899,11.47256,-0.02940214,0.15376,
54.499,11.55863,-0.02739124,0.16657,
55.099,11.64079,-0.02719959,0.17563,
55.699,11.72036,-0.02798065,0.1863,
56.299,11.79737,-0.02714919,0.19256,
56.899,11.87233,-0.02775112,0.20079,
57.499,11.94566,-0.02957996,0.20722,
58.099,12.01789,-0.03167249,0.21448,
58.699,12.0892,-0.03052389,0.219,
59.299,12.15968,-0.03050173,0.22336,
59.899,12.22859,-0.03047691,0.22855,
60.499,12.29694,-0.03098537,0.23278,
61.099,12.36485,-0.03210872,0.23601,
61.699,12.43285,-0.03331906,0.23972,
62.299,12.50015,-0.03333743,0.24223,
62.899,12.56675,-0.03119737,0.2471,
63.499,12.63332,-0.0324892,0.25001,
64.099,12.69933,-0.03380899,0.25383,
64.699,12.76521,-0.03256202,0.25689,
65.299,12.83086,-0.03121609,0.26071,
65.899,12.89659,-0.03114563,0.26177,
66.499,12.9619,-0.03002372,0.26558,
67.099,13.02685,-0.03112052,0.26941,
67.699,13.09178,-0.03580011,0.27151,
68.299,13.15691,-0.03571941,0.27695,
68.899,13.22143,-0.03324839,0.27781,
69.499,13.28576,-0.03302346,0.28081,
70.099,13.34958,-0.03424935,0.2844,
70.699,13.41354,-0.03355973,0.2888,
71.299,13.4773,-0.03488162,0.29018,
71.899,13.54059,-0.03549843,0.2923,
72.499,13.60391,-0.03576706,0.29827,
73.099,13.66691,-0.03586996,0.29913,
73.699,13.73041,-0.03721195,0.30173,
74.299,13.79362,-0.03719004,0.30373,
74.899,13.85668,-0.03718663,0.30683,
75.499,13.91964,-0.03933856,0.31102,
76.099,13.98236,-0.04070417,0.31177,
76.699,14.045,-0.03737696,0.3155,
77.299,14.10718,-0.03652999,0.31607,
77.899,14.1694,-0.03653828,0.31857,
78.499,14.23153,-0.03784783,0.32147,
79.099,14.29373,-0.03916812,0.32105,
79.699,14.35578,-0.03916641,0.32659,
80.299,14.41767,-0.03933246,0.32891,
80.899,14.47954,-0.04047788,0.32907,
81.499,14.54133,-0.04048046,0.33424,
82.099,14.60274,-0.04179639,0.33292,
82.699,14.66392,-0.0417735,0.33558,
83.299,14.72516,-0.04178506,0.33711,
83.899,14.78627,-0.04239328,0.33642,
84.499,14.84731,-0.04311002,0.33697,
85.099,14.90827,-0.04310999,0.33725,
85.699,14.96915,-0.04309618,0.34069,
86.299,15.02985,-0.04507994,0.34226,
86.899,15.09013,-0.04507999,0.3413,
87.499,15.15038,-0.04577161,0.34554,
88.099,15.21066,-0.04639976,0.34108,
88.699,15.27081,-0.04508693,0.34375,
89.299,15.33115,-0.04508999,0.3432,
89.899,15.39136,-0.04554688,0.34536,
90.499,15.4515,-0.04234449,0.34229,
91.099,15.5115,-0.04727389,0.34419,
91.699,15.57107,-0.04627962,0.3412,
92.299,15.6307,-0.04683983,0.34251,
92.899,15.69049,-0.04979994,0.34174,
93.499,15.75044,-0.04848953,0.33796,
94.099,15.81008,-0.04980012,0.34052,
94.699,15.86946,-0.05078959,0.33957,
95.299,15.92877,-0.05079,0.33669,
95.899,15.98823,-0.05079,0.3365,
96.499,16.0477,-0.05077886,0.33739,
97.099,16.107,-0.05081872,0.33595,
97.699,16.16632,-0.05206857,0.33474,
98.299,16.22562,-0.05210097,0.33363,
98.899,16.28466,-0.05347041,0.33217,
99.499,16.34378,-0.05342002,0.33295,
100.099,16.40291,-0.05342,0.32666,
100.699,16.46203,-0.05341995,0.32582,
101.299,16.52115,-0.05204667,0.32688,
101.899,16.58027,-0.05341601,0.32494,
102.499,16.63943,-0.05473943,0.32417,
103.099,16.6983,-0.05452231,0.32169,
103.699,16.75722,-0.05341973,0.32067,
104.299,16.81609,-0.05342,0.31902,
104.899,16.8748,-0.0534195,0.31818,
105.499,16.93387,-0.05452446,0.31489,
106.099,16.99257,-0.05473941,0.31421,
106.699,17.05114,-0.05474288,0.31399,
107.299,17.10971,-0.05605934,0.31083,
107.899,17.16818,-0.05604952,0.31006,
108.499,17.22697,-0.05473095,0.3089,
109.099,17.28583,-0.05605031,0.30658,
109.699,17.34478,-0.05737707,0.30515,
110.299,17.40346,-0.05617067,0.30449,
110.899,17.46203,-0.05606001,0.30357,
111.499,17.52047,-0.05606,0.30404,
112.099,17.57902,-0.05606,0.30252,
112.699,17.63751,-0.05605999,0.29837,
113.299,17.69604,-0.0559631,0.30002,
113.899,17.7545,-0.0560563,0.29942,
114.499,17.81293,-0.05604556,0.29953,
115.099,17.87114,-0.05704407,0.29909,
115.699,17.92966,-0.05705354,0.29585,
116.299,17.98868,-0.05671592,0.29587,
116.899,18.04763,-0.05750458,0.29769,
117.499,18.10661,-0.05737007,0.29728,
118.099,18.16515,-0.05736809,0.29503,
118.699,18.22331,-0.05641743,0.29617,
119.299,18.28179,-0.05639001,0.29565,
119.899,18.34034,-0.05639,0.29689,
120.499,18.39889,-0.05639,0.29685,
121.099,18.45756,-0.05638938,0.29613,
121.699,18.51617,-0.05605339,0.29485,
122.299,18.57466,-0.0547364,0.29747,
122.899,18.63343,-0.05474069,0.29639,
123.499,18.69196,-0.0560906,0.2962,
124.099,18.75036,-0.05604969,0.29821,
124.699,18.80872,-0.05670241,0.29759,
125.299,18.86662,-0.0573733,0.29662,
125.899,18.9246,-0.05586837,0.2973,
126.499,18.98288,-0.05736867,0.29849,
127.099,19.04146,-0.05605553,0.29739,
127.699,19.10068,-0.05606003,0.29746,
128.299,19.15883,-0.05460663,0.29817,
128.899,19.21711,-0.05462997,0.29725,
129.499,19.27522,-0.0546232,0.29779,
130.099,19.33374,-0.05594815,0.29961,
130.699,19.39206,-0.05596132,0.30192,
131.299,19.45028,-0.05692803,0.3021,
131.899,19.50847,-0.05726014,0.30299,
132.499,19.56655,-0.05595438,0.3014,
133.099,19.62429,-0.0572464,0.30244,
133.699,19.68224,-0.05725995,0.30448,
134.299,19.74,-0.05879015,0.30477,
134.899,19.79787,-0.05814011,0.30654,
135.499,19.85571,-0.05814,0.30753,
136.099,19.91351,-0.05814019,0.30785,
136.699,19.97101,-0.05739781,0.30905,
137.299,20.02901,-0.05584598,0.30731,
137.899,20.08695,-0.05715422,0.31036,
138.499,20.1449,-0.0571494,0.30901,
139.099,20.20215,-0.05682773,0.31098,
139.699,20.25984,-0.05682,0.31072,
140.299,20.31777,-0.05681997,0.31122,
140.899,20.37579,-0.05672241,0.31112,
141.499,20.43398,-0.0568129,0.31206,
142.099,20.49162,-0.05682,0.31051,
142.699,20.54935,-0.05682,0.31321,
143.299,20.60682,-0.05682,0.3129,
143.899,20.6644,-0.0568244,0.3154,
144.499,20.72202,-0.05615583,0.31532,
145.099,20.77965,-0.05616011,0.31699,
145.699,20.83735,-0.05683372,0.31839,
146.299,20.89497,-0.05597886,0.31957,
146.899,20.95257,-0.05682356,0.31723,
147.499,21.01032,-0.05681987,0.31878,
148.099,21.06801,-0.05912639,0.31898,
148.699,21.1258,-0.05913049,0.32041,
149.299,21.18345,-0.05792783,0.32172,
149.899,21.24105,-0.0578474,0.32062,
150.499,21.29865,-0.05933633,0.32374,
151.099,21.35631,-0.0611926,0.32195,
151.699,21.41427,-0.0579028,0.32324,
152.299,21.47174,-0.05790223,0.32541,
152.899,21.52922,-0.05924031,0.3283,
153.499,21.58678,-0.06053169,0.32444,
154.099,21.64441,-0.05922325,0.32802,
154.699,21.70255,-0.05872193,0.32789,
155.299,21.76049,-0.05824003,0.3298,
155.899,21.81853,-0.05817587,0.32967,
156.499,21.87649,-0.0595599,0.33084,
157.099,21.9343,-0.05955416,0.33202,
157.699,21.99196,-0.06087946,0.33317,
158.299,22.04968,-0.06056058,0.33346,
158.899,22.10727,-0.05951188,0.33158,
159.499,22.16496,-0.05956993,0.33382,
160.099,22.22275,-0.06017032,0.33603,
160.699,22.28,-0.06088,0.33486,
161.299,22.33717,-0.06087784,0.33812,
161.899,22.39466,-0.062818,0.33825,
162.499,22.45221,-0.06285076,0.33891,
163.099,22.51064,-0.06281842,0.34169,
163.699,22.56854,-0.06195618,0.34227,
164.299,22.6261,-0.06120975,0.34317,
164.899,22.68377,-0.06121,0.3443,
165.499,22.74137,-0.06120999,0.34453,
166.099,22.79921,-0.06121575,0.34418,
166.699,22.85689,-0.06253235,0.34718,
167.299,22.91455,-0.06252993,0.34663,
167.899,22.97209,-0.06243009,0.3495,
168.499,23.02955,-0.06154002,0.34928,
169.099,23.08725,-0.06153997,0.3494,
169.699,23.14486,-0.06145067,0.35046,
170.299,23.20255,-0.06329513,0.35223,
170.899,23.26014,-0.06352,0.35295,
171.499,23.31769,-0.06352,0.35501,
172.099,23.3752,-0.06351998,0.35537,
172.699,23.43243,-0.06349534,0.35883,
173.299,23.49005,-0.06482997,0.35521,
173.899,23.54754,-0.06482997,0.35626,
174.499,23.60517,-0.06476257,0.35908,
175.099,23.66275,-0.06548034,0.36067,
175.699,23.72017,-0.06548,0.36312,
176.299,23.77768,-0.06548,0.36398,
176.899,23.83465,-0.06548,0.36185,
177.499,23.89207,-0.06548,0.36362,
178.099,23.94943,-0.06548004,0.3654,
178.699,24.00695,-0.06685934,0.36765,
179.299,24.06453,-0.06685322,0.36812,
179.899,24.1219,-0.06812037,0.37064,
180.499,24.17931,-0.06813858,0.36927,
181.099,24.2365,-0.0668144,0.3701,
181.699,24.29364,-0.06908047,0.37342,
182.299,24.35085,-0.06943989,0.37222,
182.899,24.40797,-0.07023546,0.37511,
183.499,24.46512,-0.07075978,0.3756,
184.099,24.5224,-0.07286202,0.37457,
184.699,24.57974,-0.07229841,0.37783,
185.299,24.63696,-0.07229005,0.37979,
185.899,24.69379,-0.07229282,0.3808,
186.499,24.75059,-0.07097428,0.38161,
187.099,24.80758,-0.07096954,0.38145,
187.699,24.86498,-0.07221298,0.38343,
188.299,24.92243,-0.07314084,0.38172,
188.899,24.97965,-0.07360037,0.38522,
189.499,25.03694,-0.07492419,0.3857,
190.099,25.09423,-0.07493737,0.38625,
190.699,25.15146,-0.07690876,0.3868,
191.299,25.2086,-0.07756134,0.38777,
191.899,25.26589,-0.07756,0.38673,
192.499,25.32299,-0.07756,0.38836,
193.099,25.38042,-0.07755998,0.38582,
193.699,25.43769,-0.07819392,0.38781,
194.299,25.49492,-0.08018066,0.39054,
194.899,25.55219,-0.08173274,0.39117,
195.499,25.60919,-0.0801409,0.38983,
196.099,25.66633,-0.08019965,0.39202,
196.699,25.72347,-0.08074839,0.39065,
197.299,25.78058,-0.08205039,0.39114,
197.899,25.83787,-0.08472404,0.39198,
198.499,25.89533,-0.08496727,0.39391,
199.099,25.95265,-0.08600026,0.39508,
199.699,26.0101,-0.08599996,0.39315,
200.299,26.06754,-0.08515325,0.39543,
200.899,26.12478,-0.08599396,0.39498,
201.499,26.1823,-0.08726489,0.39529,
202.099,26.23947,-0.08863057,0.396,
202.699,26.2968,-0.0899546,0.39603,
203.299,26.35368,-0.08995001,0.39812,
203.899,26.41082,-0.08994993,0.39699,
204.499,26.46807,-0.09075525,0.39684,
205.099,26.52541,-0.0915581,0.39731,
205.699,26.5827,-0.09252807,0.39629,
206.299,26.63981,-0.0938996,0.3986,
206.899,26.69688,-0.09520102,0.39755,
207.499,26.75407,-0.09642331,0.39716,
208.099,26.81127,-0.09656703,0.40046,
208.699,26.86843,-0.09784931,0.3988,
209.299,26.92559,-0.09916316,0.39906,
209.899,26.98273,-0.0991598,0.39914,
210.499,27.0399,-0.10145,0.39737,
211.099,27.09706,-0.10182,0.39819,
211.699,27.15431,-0.10314,0.39797,
212.299,27.21159,-0.10582,0.39534,
212.899,27.26889,-0.10717,0.39491,
213.499,27.32607,-0.10848,0.39573,
214.099,27.38318,-0.11247,0.39552,
214.699,27.44041,-0.11134,0.39545,
215.299,27.49781,-0.1115,0.39759,
215.899,27.55509,-0.1116,0.39418,
216.499,27.61232,-0.11132,0.39816,
217.099,27.66934,-0.11254,0.39643,
217.699,27.72643,-0.11511,0.39794,
218.299,27.78378,-0.11659,0.39785,
218.899,27.84103,-0.1179,0.39985,
219.499,27.8986,-0.12055,0.39641,
220.099,27.95599,-0.12196,0.40061,
220.699,28.01333,-0.12345,0.39793,
221.299,28.07063,-0.12705,0.40162,
221.899,28.12784,-0.12718,0.40132,
222.499,28.18514,-0.12709,0.40062,
223.099,28.24225,-0.12897,0.40068,
223.699,28.29944,-0.13032,0.4008,
224.299,28.35656,-0.13088,0.40199,
224.899,28.4136,-0.13539,0.40375,
225.499,28.47074,-0.13699,0.40165,
226.099,28.52783,-0.13696,0.40258,
226.699,28.58524,-0.13957,0.40312,
227.299,28.6427,-0.14093,0.40567,
227.899,28.70023,-0.14227,0.405,
228.499,28.75747,-0.14488,0.40723,
229.099,28.81473,-0.14624,0.40676,
229.699,28.87209,-0.14769,0.40854,
230.299,28.92938,-0.15027,0.40779,
230.899,28.98661,-0.15207,0.40846,
231.499,29.04401,-0.15613,0.41037,
232.099,29.10128,-0.15756,0.40972,
232.699,29.15808,-0.15904,0.40972,
233.299,29.21545,-0.15899,0.40732,
233.899,29.27271,-0.16096,0.40568,
234.499,29.32987,-0.16311,0.41015,
235.099,29.38726,-0.16664,0.41049,
235.699,29.44446,-0.17086,0.41076,
236.299,29.50165,-0.17158,0.4105,
236.899,29.55871,-0.17213,0.41268,
237.499,29.61576,-0.17343,0.40909,
238.099,29.67304,-0.17475,0.41224,
238.699,29.73047,-0.17545,0.41084,
239.299,29.78788,-0.17905,0.40974,
239.899,29.84522,-0.18193,0.4122,
240.499,29.90254,-0.18542,0.41133,
241.099,29.95981,-0.18964,0.41174,
241.699,30.01744,-0.19465,0.41298,
242.299,30.0749,-0.19669,0.41439,
242.899,30.13215,-0.19852,0.41522,
243.499,30.18954,-0.1981,0.41507,
244.099,30.24688,-0.20086,0.41486,
244.699,30.30426,-0.20426,0.41369,
245.299,30.36172,-0.20709,0.41494,
245.899,30.41894,-0.21123,0.4142,
246.499,30.47627,-0.21407,0.41562,
247.099,30.53358,-0.2161,0.4152,
247.699,30.59108,-0.21744,0.41468,
248.299,30.64867,-0.21917,0.41568,
248.899,30.70617,-0.22035,0.41449,
249.499,30.76367,-0.22164,0.41501,
250.099,30.82098,-0.22447,0.4155,
250.699,30.87825,-0.22594,0.41307,
251.299,30.93548,-0.23179,0.41277,
251.899,30.99261,-0.23543,0.41224,
252.499,31.04962,-0.23832,0.41175,
253.099,31.10708,-0.24181,0.41305,
253.699,31.16443,-0.24667,0.41114,
254.299,31.2222,-0.24969,0.41224,
254.899,31.27966,-0.25259,0.41324,
255.499,31.33705,-0.25413,0.41043,
256.099,31.39435,-0.25756,0.41153,
256.699,31.45157,-0.25822,0.41113,
257.299,31.5088,-0.26178,0.41031,
257.899,31.56598,-0.26508,0.41117,
258.499,31.6231,-0.26854,0.41165,
259.099,31.68028,-0.2726,0.41171,
259.699,31.73741,-0.27812,0.41168,
260.299,31.79469,-0.28234,0.40908,
260.899,31.85169,-0.29022,0.41104,
261.499,31.90895,-0.29029,0.40952,
262.099,31.96613,-0.29211,0.40855,
262.699,32.02306,-0.29582,0.41137,
263.299,32.08011,-0.30065,0.41092,
263.899,32.13721,-0.30378,0.41185,
264.499,32.19438,-0.30884,0.41092,
265.099,32.25194,-0.31358,0.40884,
265.699,32.30929,-0.31665,0.40963,
266.299,32.36655,-0.3228,0.41052,
266.899,32.42381,-0.32566,0.40915,
267.499,32.48097,-0.32952,0.40837,
268.099,32.53823,-0.33367,0.40977,
268.699,32.59531,-0.33614,0.40886,
269.299,32.65241,-0.34173,0.40774,
269.899,32.70966,-0.34713,0.40724,
270.499,32.76696,-0.35023,0.40407,
271.099,32.82446,-0.35601,0.40407,
271.699,32.88184,-0.36224,0.40397,
272.299,32.93879,-0.36576,0.40614,
272.899,32.9961,-0.37146,0.4006,
273.499,33.05325,-0.37653,0.40409,
274.099,33.11059,-0.38464,0.40129,
274.699,33.16836,-0.39192,0.39888,
275.299,33.22584,-0.39614,0.39906,
275.899,33.28324,-0.40111,0.40154,
276.499,33.34074,-0.40689,0.40096,
277.099,33.39815,-0.41219,0.40031,
277.699,33.45551,-0.4176,0.40036,
278.299,33.51309,-0.42562,0.4016,
278.899,33.57045,-0.43255,0.40016,
279.499,33.62789,-0.4401,0.40026,
280.099,33.68535,-0.44633,0.397,
280.699,33.74288,-0.45313,0.39666,
281.299,33.80047,-0.45939,0.39554,
281.899,33.8581,-0.46379,0.39506,
282.499,33.9156,-0.47263,0.39564,
283.099,33.97311,-0.48116,0.3951,
283.699,34.03069,-0.49015,0.39466,
284.299,34.08829,-0.49663,0.39423,
284.899,34.1458,-0.50502,0.39363,
285.499,34.20341,-0.51273,0.39516,
286.099,34.26086,-0.5201,0.39381,
286.699,34.31843,-0.53008,0.3957,
287.299,34.37595,-0.5385,0.39685,
287.899,34.43359,-0.54551,0.39589,
288.499,34.49123,-0.5524,0.39532,
289.099,34.54876,-0.56313,0.39541,
289.699,34.6063,-0.5697,0.39797,
290.299,34.66371,-0.57879,0.3962,
290.899,34.72143,-0.58767,0.39637,
291.499,34.77906,-0.59801,0.39782,
292.099,34.83658,-0.60719,0.39853,
292.699,34.89439,-0.61601,0.39916,
293.299,34.95216,-0.62423,0.39595,
293.899,35.0098,-0.63669,0.39969,
294.499,35.06767,-0.64652,0.40009,
295.099,35.12526,-0.65773,0.39829,
295.699,35.18287,-0.66879,0.40126,
296.299,35.24035,-0.67779,0.40057,
296.899,35.29787,-0.68706,0.40279,
297.499,35.35534,-0.6978,0.40286,
298.099,35.4128,-0.70896,0.40338,
298.699,35.47039,-0.71894,0.40401,
299.299,35.52787,-0.72932,0.40452,
299.899,35.58545,-0.74042,0.40604,
300.499,35.64299,-0.75424,0.40936,
301.099,35.70036,-0.76516,0.4097,
301.699,35.75782,-0.77598,0.4093,
302.299,35.81539,-0.78704,0.41101,
302.899,35.87301,-0.7981,0.41291,
303.499,35.93059,-0.8103,0.41163,
304.099,35.98822,-0.82394,0.41434,
304.699,36.04581,-0.83643,0.41367,
305.299,36.10322,-0.84987,0.4148,
305.899,36.16088,-0.8633,0.41646,
306.499,36.21797,-0.87435,0.41927,
307.099,36.27542,-0.88599,0.41686,
307.699,36.33283,-0.89918,0.41661,
308.299,36.39034,-0.91167,0.41957,
308.899,36.44827,-0.92638,0.41869,
309.499,36.50584,-0.94153,0.42067,
310.099,36.5635,-0.9559,0.42301,
310.699,36.62092,-0.96763,0.4239,
311.299,36.6785,-0.98293,0.42568,
311.899,36.73584,-0.9972,0.42817,
312.499,36.79337,-1.01155,0.42702,
313.099,36.85084,-1.0245,0.42672,
313.699,36.90821,-1.0381,0.42805,
314.299,36.96595,-1.05244,0.42873,
314.899,37.02347,-1.06739,0.42701,
315.499,37.0811,-1.08496,0.42786,
316.099,37.13882,-1.09788,0.43065,
316.699,37.19645,-1.1147,0.43269,
317.299,37.25415,-1.13072,0.42881,
317.899,37.31185,-1.14566,0.43107,
318.499,37.36967,-1.15997,0.42921,
319.099,37.42732,-1.17692,0.42876,
319.699,37.48507,-1.19513,0.43056,
320.299,37.5427,-1.21075,0.43246,
320.899,37.60023,-1.22802,0.42995,
321.499,37.65781,-1.24316,0.42911,
322.099,37.7155,-1.26027,0.42992,
322.699,37.77316,-1.27698,0.43223,
323.299,37.83099,-1.2941,0.43103,
323.899,37.88873,-1.30989,0.43229,
324.499,37.94658,-1.32775,0.43166,
325.099,38.00441,-1.34707,0.43147,
325.699,38.06247,-1.3637,0.43602,
326.299,38.12039,-1.38184,0.43612,
326.899,38.17837,-1.399,0.43494,
327.499,38.23622,-1.41819,0.43531,
328.099,38.29399,-1.43583,0.43703,
328.699,38.35203,-1.45391,0.43751,
329.299,38.40985,-1.47096,0.43969,
329.899,38.46809,-1.48888,0.43905,
330.499,38.5259,-1.51002,0.43924,
331.099,38.58403,-1.52816,0.43962,
331.699,38.64211,-1.54644,0.44111,
332.299,38.70008,-1.56438,0.44265,
332.899,38.75802,-1.58511,0.44213,
333.499,38.8156,-1.60339,0.44358,
334.099,38.8735,-1.62456,0.44298,
334.699,38.93153,-1.6425,0.44614,
335.299,38.98949,-1.66195,0.4432,
335.899,39.04755,-1.68282,0.44533,
336.499,39.10545,-1.7007,0.44545,
337.099,39.16346,-1.7206,0.44485,
337.699,39.22141,-1.73946,0.44301,
338.299,39.27945,-1.76028,0.44473,
338.899,39.33747,-1.77616,0.4433,
339.499,39.39532,-1.7965,0.44223,
340.099,39.45348,-1.81599,0.43864,
340.699,39.51149,-1.83578,0.43663,
341.299,39.5696,-1.85273,0.43842,
341.899,39.6278,-1.87333,0.43565,
342.499,39.68592,-1.89445,0.43449,
343.099,39.74394,-1.91485,0.43088,
343.699,39.80189,-1.93347,0.42871,
344.299,39.85969,-1.95026,0.4249,
344.899,39.91749,-1.96863,0.42077,
345.499,39.97534,-1.98612,0.41792,
346.099,40.03319,-2.00502,0.41328,
346.699,40.09117,-2.02336,0.41215,
347.299,40.14917,-2.04225,0.40557,
347.899,40.20729,-2.06082,0.40136,
348.499,40.26542,-2.07897,0.39924,
349.099,40.32339,-2.09704,0.39097,
349.699,40.38123,-2.11289,0.38563,
350.299,40.43907,-2.1312,0.37995,
350.899,40.49677,-2.14806,0.37465,
351.499,40.55474,-2.16438,0.36863,
352.099,40.61259,-2.1822,0.36348,
352.699,40.67043,-2.19935,0.3561,
353.299,40.72823,-2.213,0.35036,
353.899,40.78588,-2.22807,0.34186,
354.499,40.84358,-2.2433,0.33435,
355.099,40.90133,-2.25728,0.32643,
355.699,40.95923,-2.27138,0.32029,
356.299,41.01703,-2.28535,0.31319,
356.899,41.07505,-2.2998,0.30357,
357.499,41.13312,-2.31383,0.29573,
358.099,41.19115,-2.32741,0.28672,
358.699,41.2491,-2.33919,0.27826,
359.299,41.30701,-2.35142,0.26825,
359.899,41.36496,-2.36402,0.26099,
360.499,41.42295,-2.37667,0.25011,
361.099,41.48095,-2.38647,0.24343,
361.699,41.53892,-2.39702,0.23574,
362.299,41.59713,-2.4071,0.2295,
362.899,41.6554,-2.41695,0.2182,
363.499,41.71348,-2.4259,0.21481,
364.099,41.77157,-2.43768,0.20623,
364.699,41.82961,-2.44628,0.20053,
365.299,41.88757,-2.4538,0.19318,
365.899,41.94569,-2.46302,0.18773,
366.499,42.00385,-2.46983,0.18164,
367.099,42.06199,-2.47669,0.17638,
367.699,42.12019,-2.48574,0.1696,
368.299,42.17845,-2.49178,0.1637,
368.899,42.23662,-2.49968,0.1584,
369.499,42.29491,-2.50565,0.15557,
370.099,42.35311,-2.51064,0.15228,
370.699,42.41125,-2.51594,0.14865,
371.299,42.4695,-2.52132,0.14252,
371.899,42.52753,-2.52801,0.14123,
372.499,42.58562,-2.53237,0.13811,
373.099,42.64372,-2.53754,0.13832,
373.699,42.70163,-2.54315,0.13398,
374.299,42.75937,-2.54806,0.13285,
374.899,42.81741,-2.55192,0.12988,
375.499,42.87538,-2.55596,0.12999,
376.099,42.93345,-2.55766,0.128,
376.699,42.99123,-2.56099,0.1251,
377.299,43.04894,-2.56532,0.12394,
377.899,43.1067,-2.56964,0.12408,
378.499,43.16431,-2.57299,0.12458,
379.099,43.22193,-2.5763,0.12621,
379.699,43.27968,-2.57991,0.12151,
380.299,43.3371,-2.58407,0.11909,
380.899,43.39457,-2.58658,0.11681,
381.499,43.45207,-2.58725,0.11747,
382.099,43.50968,-2.59022,0.11176,
382.699,43.56749,-2.59218,0.10981,
383.299,43.62562,-2.5941,0.11029,
383.899,43.68359,-2.59619,0.10558,
384.499,43.74165,-2.59931,0.10591,
385.099,43.79957,-2.60329,0.10029,
385.699,43.85741,-2.60464,0.09801248,
386.299,43.91545,-2.60828,0.09314608,
386.899,43.97336,-2.60992,0.09035204,
387.499,44.03148,-2.61324,0.08655439,
388.099,44.08965,-2.6139,0.08351915,
388.699,44.14774,-2.61829,0.08282832,
389.299,44.20592,-2.62119,0.07796075,
389.899,44.26411,-2.62286,0.07366306,
390.499,44.32233,-2.62582,0.07024609,
391.099,44.38057,-2.62748,0.06890024,
391.699,44.43871,-2.63339,0.06366665,
392.299,44.4971,-2.63349,0.05975508,
392.899,44.55573,-2.63431,0.05548824,
393.499,44.61424,-2.63614,0.05042721,
394.099,44.67262,-2.63773,0.04686252,
394.699,44.73093,-2.6397,0.04186617,
395.299,44.7893,-2.64224,0.0415195,
395.899,44.84794,-2.6452,0.03749058,
396.499,44.90661,-2.64823,0.03167647,
397.099,44.96523,-2.6515,0.02628065,
397.699,45.02378,-2.65251,0.02616941,
398.299,45.08222,-2.65375,0.02145952,
398.899,45.14063,-2.65683,0.01648722,
399.499,45.1991,-2.65985,0.0146625,
400.099,45.25765,-2.6629,0.01271504,
400.699,45.31626,-2.66552,0.009987633,
401.299,45.37471,-2.66735,0.005710014,
401.899,45.43315,-2.66984,0.004918967,
402.499,45.49163,-2.67147,-0.001551083,
403.099,45.55008,-2.67481,-0.001269016,
403.699,45.60874,-2.67616,-0.00178921,
404.299,45.66734,-2.67926,-0.006384275,
404.899,45.72584,-2.68157,-0.0107311,
405.499,45.78451,-2.68326,-0.01235174,
406.099,45.84308,-2.68551,-0.01678199,
406.699,45.9017,-2.68804,-0.01594874,
407.299,45.96034,-2.69094,-0.0182118,
407.899,46.01885,-2.69335,-0.02202849,
408.499,46.07745,-2.69392,-0.02354758,
409.099,46.13605,-2.69671,-0.02321924,
409.699,46.19473,-2.69922,-0.0263864,
410.299,46.25348,-2.70129,-0.02797153,
410.899,46.31226,-2.70394,-0.02755493,
411.499,46.37084,-2.70541,-0.02836507,
412.099,46.42939,-2.70671,-0.03119849,
412.699,46.48783,-2.70976,-0.02848074,
413.299,46.54631,-2.71111,-0.02718168,
413.899,46.60487,-2.71389,-0.03021096,
414.499,46.66359,-2.71687,-0.0289686,
415.099,46.72225,-2.71908,-0.03045588,
415.699,46.7809,-2.72097,-0.03153831,
416.299,46.83976,-2.72371,-0.0300297,
416.899,46.89848,-2.72575,-0.02745988,
417.499,46.95724,-2.72967,-0.02775698,
418.099,47.0158,-2.73363,-0.02983207,
418.699,47.0744,-2.73519,-0.02792392,
419.299,47.13295,-2.73558,-0.02552232,
419.899,47.19107,-2.73698,-0.0273336,
420.499,47.24974,-2.73832,-0.02482926,
421.099,47.30848,-2.74115,-0.02494527,
421.699,47.36739,-2.74261,-0.02266893,
422.299,47.42631,-2.74393,-0.0250921,
422.899,47.48505,-2.74569,-0.02224237,
423.499,47.5438,-2.7486,-0.02258187,
424.099,47.60248,-2.75004,-0.02466192,
424.699,47.6611,-2.75294,-0.02394886,
425.299,47.71988,-2.75576,-0.02527506,
425.899,47.77852,-2.75715,-0.02266509,
426.499,47.83743,-2.75746,-0.02571024,
427.099,47.89623,-2.75999,-0.02640815,
427.699,47.95513,-2.76126,-0.02628329,
428.299,48.01424,-2.76258,-0.02739017,
428.899,48.07301,-2.76414,-0.02409341,
429.499,48.13198,-2.76713,-0.02376533,
430.099,48.19101,-2.76945,-0.02383185,
430.699,48.25006,-2.77079,-0.02362972,
431.299,48.30915,-2.77469,-0.02039126,
431.899,48.36797,-2.7753,-0.02112027,
432.499,48.42674,-2.77669,-0.01809479,
433.099,48.4855,-2.77887,-0.01764254,
433.699,48.54447,-2.7799,-0.01450059,
434.299,48.60345,-2.78156,-0.01647039,
434.899,48.66246,-2.78333,-0.01420657,
435.499,48.72173,-2.7852,-0.01060132,
436.099,48.78092,-2.79078,-0.01136503,
436.699,48.84013,-2.79492,-0.01120729,
437.299,48.89939,-2.79324,-0.006126338,
437.899,48.95848,-2.79258,-0.008274595,
438.499,49.01763,-2.79266,-0.007463395,
439.099,49.07671,-2.79281,-0.00667349,
439.699,49.13588,-2.79419,-0.006827045,
440.299,49.19517,-2.79664,-0.002325305,
440.899,49.25444,-2.79808,-0.000539719,
441.499,49.31352,-2.8014,-0.001381856,
442.099,49.37264,-2.80394,-0.002080189,
442.699,49.43175,-2.80746,0.000466368,
443.299,49.4909,-2.80797,0.004379144,
443.899,49.55011,-2.80864,0.003667591,
444.499,49.60919,-2.8106,0.004290155,
445.099,49.66817,-2.81222,0.005485355,
445.699,49.72713,-2.8119,0.003631202,
446.299,49.7859,-2.81449,0.00720531,
446.899,49.84487,-2.81496,0.006562253,
447.499,49.9038,-2.81767,0.006482286,
448.099,49.96249,-2.81892,0.008196494,
448.699,50.02176,-2.82176,0.01190564,
449.299,50.08059,-2.82299,0.01557467,
449.899,50.13953,-2.823,0.01455092,
450.499,50.1985,-2.82431,0.01720279,
451.099,50.25741,-2.82426,0.01596174,
451.699,50.31642,-2.82574,0.01634419,
452.299,50.37548,-2.82821,0.01832141,
452.899,50.43446,-2.83069,0.01941655,
453.499,50.49333,-2.83263,0.01963317,
454.099,50.55229,-2.83396,0.02113941,
454.699,50.61116,-2.83397,0.0217626,
455.299,50.67002,-2.83528,0.02295283,
455.899,50.72903,-2.83662,0.02413792,
456.499,50.78788,-2.83776,0.02402512,
457.099,50.84687,-2.83783,0.0256499,
457.699,50.90586,-2.83924,0.02363125,
458.299,50.96487,-2.84186,0.0268928,
458.899,51.02409,-2.84426,0.02778118,
459.499,51.08326,-2.84591,0.02839256,
460.099,51.14237,-2.846,0.0291108,
460.699,51.20143,-2.8474,0.02834566,
461.299,51.26055,-2.84998,0.02952296,
461.899,51.31976,-2.8513,0.03069498,
462.499,51.37881,-2.85257,0.02951013,
463.099,51.43792,-2.8528,0.02843394,
463.699,51.49699,-2.85257,0.02950533,
464.299,51.55601,-2.85391,0.02900118,
464.899,51.61517,-2.85413,0.03272974,
465.499,51.67425,-2.85538,0.03294777,
466.099,51.73359,-2.85667,0.03357362,
466.699,51.79308,-2.85793,0.03213129,
467.299,51.85234,-2.85927,0.03401499,
467.899,51.91193,-2.85926,0.03340466,
468.499,51.97107,-2.86061,0.0348363,
469.099,52.03043,-2.86196,0.03395527,
469.699,52.08981,-2.86325,0.03486952,
470.299,52.14914,-2.86457,0.03672066,
470.899,52.20883,-2.8659,0.03526172,
471.499,52.26812,-2.86595,0.03491025,
472.099,52.32743,-2.86719,0.03675892,
472.699,52.38671,-2.86853,0.03473844,
473.299,52.446,-2.87132,0.03670853,
473.899,52.50545,-2.87397,0.04029872,
474.499,52.56479,-2.87384,0.03730122,
475.099,52.62406,-2.87391,0.03800181,
475.699,52.68334,-2.87521,0.04031474,
476.299,52.74258,-2.87658,0.03918286,
476.899,52.80185,-2.87848,0.03852845,
477.499,52.86128,-2.87981,0.03875999,
478.099,52.92073,-2.87981,0.03830476,
478.699,52.98011,-2.87981,0.0369068,
479.299,53.03959,-2.87979,0.0382991,
479.899,53.09878,-2.88256,0.04017615,
480.499,53.15818,-2.88372,0.04160314,
481.099,53.21739,-2.88508,0.04464607,
481.699,53.27675,-2.88639,0.04246108,
482.299,53.33618,-2.88574,0.03869497,
482.899,53.39563,-2.88804,0.0431763,
483.499,53.45507,-2.88984,0.04101026,
484.099,53.51435,-2.88912,0.04045715,
484.699,53.5738,-2.88911,0.04514829,
485.299,53.63309,-2.89022,0.04233515,
485.899,53.69235,-2.89176,0.04445198,
486.499,53.75162,-2.89255,0.04424012,
487.099,53.81078,-2.89452,0.04485629,
487.699,53.86957,-2.89513,0.04402196,
488.299,53.92888,-2.89582,0.04420854,
488.899,53.98815,-2.89714,0.04410756,
489.499,54.04752,-2.89836,0.0431447,
490.099,54.10733,-2.89802,0.04126326,
490.699,54.1666,-2.89843,0.04521832,
491.299,54.22611,-2.89905,0.04253029,
491.899,54.28542,-2.90069,0.04240505,
492.499,54.34477,-2.90242,0.04310921,
493.099,54.40398,-2.9024,0.04359103,
493.699,54.46322,-2.90123,0.04154785,
494.299,54.52251,-2.90241,0.04402583,
494.899,54.58191,-2.90372,0.04400692,
495.499,54.64123,-2.90503,0.04374353,
496.099,54.70075,-2.90636,0.04658998,
496.699,54.76011,-2.90768,0.04392865,
497.299,54.81972,-2.91229,0.04759172,
497.899,54.87904,-2.91047,0.04519486,
498.499,54.93847,-2.91007,0.04243935,
499.099,54.99784,-2.90934,0.04552614,
499.699,55.05735,-2.90943,0.04395354,
500.299,55.11691,-2.91067,0.04298705,
500.899,55.1764,-2.91347,0.04501488,
501.499,55.23574,-2.9134,0.04522639,
502.099,55.29515,-2.91481,0.04578938,
502.699,55.3546,-2.91614,0.04916361,
503.299,55.41415,-2.91743,0.0481076,
503.899,55.47358,-2.9176,0.04927524,
504.499,55.53279,-2.91903,0.05065393,
505.099,55.59232,-2.9196,0.04897198,
505.699,55.65174,-2.92143,0.04595469,
506.299,55.71137,-2.92139,0.05048915,
506.899,55.77063,-2.92272,0.04858228,
507.499,55.82989,-2.92335,0.05631963,
508.099,55.88933,-2.92272,0.05840352,
508.699,55.94861,-2.92396,0.05979565,
509.299,56.00791,-2.92401,0.06426388,
509.899,56.06724,-2.92401,0.06686467,
510.499,56.12636,-2.92537,0.07264026,
511.099,56.18577,-2.92536,0.0752668,
511.699,56.24527,-2.92671,0.07733467,
512.299,56.30456,-2.9291,0.08135477,
512.899,56.36424,-2.92939,0.08609772,
513.499,56.42367,-2.92957,0.08880205,
514.099,56.4831,-2.93161,0.08896607,
514.699,56.54267,-2.93203,0.09058509,
515.299,56.60224,-2.93334,0.08892701,
515.899,56.66182,-2.93334,0.09244177,
516.499,56.72147,-2.93438,0.09365952,
517.099,56.78106,-2.93432,0.09726412,
517.699,56.84063,-2.93431,0.09839995,
518.299,56.90012,-2.93564,0.09692426,
518.899,56.95956,-2.93564,0.10115,
519.499,57.01917,-2.93623,0.10478,
520.099,57.07886,-2.93823,0.10463,
520.699,57.1384,-2.93962,0.10232,
521.299,57.19784,-2.9422,0.10484,
521.899,57.2573,-2.94224,0.10624,
522.499,57.31687,-2.94091,0.11047,
523.099,57.37667,-2.9408,0.10985,
523.699,57.43637,-2.94222,0.11168,
524.299,57.49596,-2.94352,0.11103,
524.899,57.55568,-2.94353,0.11128,
525.499,57.61542,-2.94482,0.11292,
526.099,57.67518,-2.94484,0.11597,
526.699,57.73498,-2.9461,0.1153,
527.299,57.79436,-2.94849,0.11857,
527.899,57.8541,-2.94876,0.11846,
528.499,57.91412,-2.95012,0.12174,
529.099,57.97429,-2.95148,0.12257,
529.699,58.03456,-2.95143,0.12464,
530.299,58.09453,-2.95143,0.12469,
530.899,58.1544,-2.95143,0.12281,
531.499,58.2143,-2.95181,0.12223,
532.099,58.27399,-2.95145,0.1244,
532.699,58.33375,-2.95285,0.1231,
533.299,58.39365,-2.95473,0.12341,
533.899,58.45342,-2.95615,0.12405,
534.499,58.51342,-2.95605,0.12225,
535.099,58.57344,-2.95472,0.12073,
535.699,58.63346,-2.95605,0.11962,
536.299,58.69334,-2.95633,0.11955,
536.899,58.75318,-2.95736,0.11865,
537.499,58.81313,-2.95828,0.1165,
538.099,58.87304,-2.95868,0.10954,
538.699,58.93309,-2.95869,0.10079,
539.299,58.99298,-2.96064,0.09734044,
539.899,59.05294,-2.96065,0.09307942,
540.499,59.11298,-2.96155,0.08872837,
541.099,59.1729,-2.96194,0.08406114,
541.699,59.23284,-2.96329,0.07733619,
542.299,59.29259,-2.96444,0.07753147,
542.899,59.35238,-2.96455,0.07504092,
543.499,59.41227,-2.96582,0.07278484,
544.099,59.47228,-2.9646,0.07305365,
544.699,59.53217,-2.96544,0.07218727,
545.299,59.59212,-2.96676,0.06911445,
545.899,59.65197,-2.96724,0.06814815,
546.499,59.71187,-2.96835,0.06772808,
547.099,59.77179,-2.96936,0.06917914,
547.699,59.83154,-2.96987,0.06778624,
548.299,59.89131,-2.97051,0.06736674,
548.899,59.951,-2.97118,0.06512866,
549.499,60.01074,-2.97118,0.06578115,
550.099,60.07075,-2.96986,0.06800005,
550.699,60.13071,-2.97115,0.06573119,
551.299,60.19073,-2.9712,0.06636152,
551.899,60.25073,-2.97253,0.0674324,
552.499,60.31067,-2.97249,0.06559857,
553.099,60.37058,-2.97384,0.06431894,
553.699,60.43051,-2.97381,0.06513638,
554.299,60.49071,-2.97513,0.06523257,
554.899,60.55086,-2.97644,0.06656789,
555.499,60.61063,-2.97776,0.06456751,
556.099,60.67066,-2.97643,0.06518384,
556.699,60.73057,-2.97748,0.06429076,
557.299,60.7909,-2.97645,0.06580901,
557.899,60.85099,-2.97645,0.06540146,
558.499,60.91097,-2.97646,0.06287868,
559.099,60.97069,-2.9778,0.06236544,
559.699,61.03064,-2.97945,0.065489,
560.299,61.09055,-2.98007,0.06486493,
560.899,61.15088,-2.98007,0.06563971,
561.499,61.21071,-2.98007,0.06375349,
562.099,61.27064,-2.98138,0.06592814,
562.699,61.33051,-2.98171,0.06370728,
563.299,61.39045,-2.98207,0.06527446,
563.899,61.45037,-2.98402,0.0650453,
564.499,61.5104,-2.98268,0.06254323,
565.099,61.57034,-2.98335,0.06430754,
565.699,61.63053,-2.98402,0.06269513,
566.299,61.69067,-2.98533,0.06559948,
566.899,61.75077,-2.9856,0.06207078,
567.499,61.81101,-2.98533,0.06554705,
568.099,61.87111,-2.98533,0.06399967,
568.699,61.93132,-2.98707,0.0622723,
569.299,61.99137,-2.98729,0.05998107,
569.899,62.05151,-2.986,0.06271464,
570.499,62.11164,-2.98866,0.06157379,
571.099,62.17175,-2.98912,0.06246381,
571.699,62.23201,-2.98994,0.05811016,
572.299,62.29212,-2.98864,0.06063178,
572.899,62.35212,-2.98946,0.06109498,
573.499,62.41229,-2.98993,0.05899772,
574.099,62.47243,-2.99257,0.0608259,
574.699,62.53276,-2.99258,0.06204343,
575.299,62.59311,-2.99388,0.06148065,
575.899,62.65323,-2.99373,0.06190059,
576.499,62.71337,-2.99257,0.0606348,
577.099,62.7734,-2.99304,0.06101362,
577.699,62.83349,-2.99489,0.05984705,
578.299,62.8937,-2.99583,0.05965356,
578.899,62.95381,-2.99626,0.06034462,
579.499,63.01398,-2.99616,0.05985887,
580.099,63.07431,-2.99619,0.06204735,
580.699,63.13449,-2.99619,0.06112525,
581.299,63.19461,-2.9962,0.06021598,
581.899,63.25481,-2.99883,0.06433932,
582.499,63.31513,-2.99877,0.06539835,
583.099,63.37541,-2.99884,0.06320892,
583.699,63.43572,-2.99883,0.066853,
584.299,63.49575,-2.99892,0.06490317,
584.899,63.55595,-3.00038,0.06397917,
585.499,63.61604,-3.00014,0.06446755,
586.099,63.67614,-3.00147,0.06633297,
586.699,63.73619,-3.00146,0.06770503,
587.299,63.79628,-3.00276,0.06882741,
587.899,63.85632,-3.00288,0.07264318,
588.499,63.91653,-3.00408,0.07071349,
589.099,63.97673,-3.00541,0.07147295,
589.699,64.03704,-3.00433,0.07098382,
590.299,64.09719,-3.00409,0.07171711,
590.899,64.15743,-3.00529,0.07259115,
591.499,64.21757,-3.0054,0.07633637,
592.099,64.27769,-3.00644,0.07652206,
592.699,64.33781,-3.0064,0.07861818,
593.299,64.3976,-3.00771,0.07730031,
593.899,64.45786,-3.0077,0.08017374,
594.499,64.51796,-3.00779,0.08002798,
595.099,64.57833,-3.00771,0.08581166,
595.699,64.63859,-3.00773,0.08443944,
596.299,64.69884,-3.00705,0.08801846,
596.899,64.75908,-3.00838,0.08948472,
597.499,64.81913,-3.00733,0.09411302,
598.099,64.87937,-3.00869,0.09567439,
598.699,64.93949,-3.01001,0.0969088,
599.299,64.99969,-3.01001,0.10026,
599.899,65.0598,-3.01001,0.10253,
600.499,65.11975,-3.01099,0.10463,
601.099,65.17973,-3.0123,0.10635,
601.699,65.23982,-3.01168,0.10814,
602.299,65.30006,-3.011,0.10942,
602.899,65.36035,-3.011,0.11028,
603.499,65.42055,-3.01232,0.11627,
604.099,65.48085,-3.01296,0.11869,
604.699,65.54126,-3.01494,0.11895,
605.299,65.60172,-3.01494,0.12482,
605.899,65.662,-3.01494,0.12137,
606.499,65.72216,-3.01494,0.1254,
607.099,65.78255,-3.01627,0.12473,
607.699,65.84285,-3.01626,0.12653,
608.299,65.90303,-3.01626,0.12595,
608.899,65.96326,-3.01626,0.12506,
609.499,66.02345,-3.01745,0.1268,
610.099,66.08351,-3.0189,0.12527,
610.699,66.14376,-3.01889,0.12203,
611.299,66.20404,-3.01889,0.12265,
611.899,66.26437,-3.01757,0.12225,
612.499,66.32488,-3.01888,0.12149,
613.099,66.38517,-3.02026,0.11874,
613.699,66.4453,-3.02022,0.11968,
614.299,66.50538,-3.01889,0.11943,
614.899,66.56534,-3.01889,0.12131,
615.499,66.62552,-3.01998,0.11999,
616.099,66.68575,-3.02023,0.12139,
616.699,66.74601,-3.02086,0.12111,
617.299,66.80625,-3.01988,0.1223,
617.899,66.8665,-3.01996,0.12232,
618.499,66.92676,-3.02238,0.12416,
619.099,66.98717,-3.02459,0.12108,
619.699,67.04752,-3.02328,0.12415,
620.299,67.10794,-3.02355,0.12567,
620.899,67.16829,-3.02361,0.1248,
621.499,67.22846,-3.02461,0.12592,
622.099,67.28887,-3.02591,0.12463,
622.699,67.34933,-3.02458,0.12506,
623.299,67.41002,-3.02459,0.12502,
623.899,67.47055,-3.02459,0.1288,
624.499,67.53096,-3.02525,0.12876,
625.099,67.59142,-3.02591,0.13121,
625.699,67.65182,-3.02591,0.12912,
626.299,67.71242,-3.02591,0.13175,
626.899,67.77284,-3.02728,0.132,
627.499,67.83326,-3.02713,0.13153,
628.099,67.89368,-3.02953,0.12994,
628.699,67.95382,-3.0299,0.13217,
629.299,68.01402,-3.02861,0.13129,
629.899,68.07422,-3.02932,0.1306,
630.499,68.13452,-3.02823,0.13113,
631.099,68.19522,-3.0269,0.13307,
631.699,68.25572,-3.02862,0.13187,
632.299,68.31618,-3.02986,0.12888,
632.899,68.3768,-3.03103,0.13469,
633.499,68.43708,-3.03118,0.13321,
634.099,68.49747,-3.03217,0.12991,
634.699,68.55778,-3.03217,0.13219,
635.299,68.61821,-3.03217,0.13081,
635.899,68.67871,-3.03348,0.12843,
636.499,68.73905,-3.03349,0.13334,
637.099,68.79931,-3.03349,0.13402,
637.699,68.85959,-3.03349,0.13348,
638.299,68.9196,-3.03348,0.13336,
638.899,68.97994,-3.03315,0.13419,
639.499,69.04029,-3.03416,0.13306,
640.099,69.1006,-3.03377,0.13255,
640.699,69.16098,-3.03348,0.13452,
641.299,69.22118,-3.03348,0.1326,
641.899,69.28159,-3.03348,0.13671,
642.499,69.342,-3.03594,0.13493,
643.099,69.40262,-3.03612,0.13532,
643.699,69.463,-3.03684,0.13562,
644.299,69.52321,-3.03544,0.13489,
644.899,69.58352,-3.03618,0.13417,
645.499,69.64384,-3.03611,0.13524,
646.099,69.7043,-3.03612,0.13662,
646.699,69.76467,-3.03743,0.135,
647.299,69.82521,-3.03738,0.13356,
647.899,69.88505,-3.03847,0.13493,
648.499,69.94563,-3.03743,0.13274,
649.099,70.00615,-3.03733,0.13102,
649.699,70.06695,-3.03874,0.13385,
650.299,70.12776,-3.0401,0.13364,
650.899,70.1883,-3.03983,0.13558,
651.499,70.24884,-3.03908,0.13701,
652.099,70.30971,-3.03906,0.13288,
652.699,70.37039,-3.0404,0.13278,
653.299,70.43107,-3.0404,0.1345,
653.899,70.49152,-3.04007,0.13069,
654.499,70.55211,-3.04139,0.13473,
655.099,70.61247,-3.04143,0.13535,
655.699,70.67305,-3.04006,0.13384,
656.299,70.73369,-3.04023,0.13523,
656.899,70.79432,-3.04232,0.13582,
657.499,70.85503,-3.0427,0.13655,
658.099,70.91569,-3.0414,0.13726,
658.699,70.97639,-3.04138,0.13538,
659.299,71.03706,-3.04133,0.13567,
659.899,71.09758,-3.0427,0.1359,
660.499,71.15803,-3.04401,0.13936,
661.099,71.21842,-3.04401,0.13489,
661.699,71.27861,-3.04401,0.14091,
662.299,71.33903,-3.04368,0.13975,
662.899,71.39943,-3.04368,0.13968,
663.499,71.45978,-3.04368,0.13985,
664.099,71.52029,-3.04269,0.13837,
664.699,71.58078,-3.04335,0.13826,
665.299,71.64121,-3.04401,0.13809,
665.899,71.70157,-3.04532,0.1345,
666.499,71.76202,-3.04645,0.14181,
667.099,71.82235,-3.04664,0.13921,
667.699,71.88295,-3.04591,0.13932,
668.299,71.94342,-3.04598,0.13962,
668.899,72.00393,-3.04598,0.13982,
669.499,72.06439,-3.04597,0.13937,
670.099,72.12489,-3.04643,0.1431,
670.699,72.18543,-3.04732,0.14105,
671.299,72.24621,-3.04731,0.14191,
671.899,72.30682,-3.04829,0.14139,
672.499,72.36745,-3.04829,0.1391,
673.099,72.42795,-3.04829,0.13974,
673.699,72.48817,-3.04829,0.13729,
674.299,72.54837,-3.04829,0.13725,
674.899,72.60855,-3.04829,0.13727,
675.499,72.66911,-3.04829,0.14052,
676.099,72.72964,-3.04862,0.14003,
676.699,72.79,-3.04994,0.1387,
677.299,72.8505,-3.04994,0.14149,
677.899,72.91088,-3.05119,0.13997,
678.499,72.9713,-3.04993,0.13837,
679.099,73.0318,-3.05124,0.1364,
679.699,73.09236,-3.0513,0.13829,
680.299,73.15299,-3.05191,0.13598,
680.899,73.21304,-3.05058,0.13688,
681.499,73.2736,-3.05059,0.13752,
682.099,73.33408,-3.05123,0.1369,
682.699,73.39499,-3.05132,0.13991,
683.299,73.45606,-3.05257,0.13598,
683.899,73.51694,-3.05388,0.13865,
684.499,73.57796,-3.05386,0.13724,
685.099,73.63878,-3.05257,0.13465,
685.699,73.69961,-3.05161,0.13524,
686.299,73.7605,-3.05125,0.13627,
686.899,73.82137,-3.05256,0.13827,
687.499,73.88227,-3.05257,0.13706,
688.099,73.94306,-3.05257,0.13629,
688.699,74.00376,-3.05258,0.13803,
689.299,74.06463,-3.05488,0.13528,
689.899,74.12539,-3.05488,0.13443,
690.499,74.1861,-3.05498,0.13524,
691.099,74.24666,-3.05356,0.13657,
691.699,74.3073,-3.05357,0.13782,
692.299,74.36817,-3.05382,0.13413,
692.899,74.42898,-3.05521,0.13452,
693.499,74.48976,-3.05651,0.13625,
694.099,74.55047,-3.05783,0.13634,
694.699,74.61124,-3.05783,0.13542,
695.299,74.67194,-3.05783,0.1364,
695.899,74.73259,-3.05783,0.13665,
696.499,74.79318,-3.05664,0.13129,
697.099,74.85375,-3.05784,0.13362,
697.699,74.91437,-3.05783,0.13629,
698.299,74.97505,-3.05783,0.13172,
698.899,75.03571,-3.05784,0.13023,
699.499,75.09634,-3.05652,0.13531,
700.099,75.15724,-3.05695,0.13146,
700.699,75.21795,-3.05833,0.1309,
701.299,75.27865,-3.05915,0.13127,
701.899,75.33928,-3.05915,0.13323,
702.499,75.39987,-3.05915,0.13277,
703.099,75.46053,-3.06146,0.13396,
703.699,75.52133,-3.06145,0.13131,
704.299,75.58201,-3.06148,0.13039,
704.899,75.64277,-3.06079,0.13011,
705.499,75.70318,-3.0622,0.13408,
706.099,75.7638,-3.06211,0.13526,
706.699,75.82455,-3.06335,0.13055,
707.299,75.88518,-3.0623,0.12736,
707.899,75.94595,-3.06352,0.12828,
708.499,76.00644,-3.06344,0.12677,
709.099,76.06687,-3.06227,0.12769,
709.699,76.12753,-3.06235,0.12927,
710.299,76.18837,-3.06211,0.1237,
710.899,76.24894,-3.06079,0.12728,
711.499,76.30964,-3.0608,0.12312,
712.099,76.37022,-3.0608,0.12133,
712.699,76.43116,-3.0608,0.12589,
713.299,76.49168,-3.0608,0.12648,
713.899,76.55268,-3.06223,0.12459,
714.499,76.61337,-3.06342,0.12306,
715.099,76.67396,-3.06342,0.12269,
715.699,76.73473,-3.06373,0.12233,
716.299,76.79536,-3.06398,0.12165,
716.899,76.85635,-3.06405,0.11776,
717.499,76.91712,-3.06277,0.11669,
718.099,76.97796,-3.06296,0.11592,
718.699,77.0386,-3.06409,0.11942,
719.299,77.09923,-3.06409,0.11851,
719.899,77.16027,-3.06541,0.11486,
720.499,77.22125,-3.06604,0.11303,
721.099,77.28238,-3.0654,0.11187,
721.699,77.34355,-3.06536,0.11268,
722.299,77.4047,-3.06675,0.11595,
722.899,77.46548,-3.06639,0.11432,
723.499,77.52639,-3.06639,0.11163,
724.099,77.58727,-3.06639,0.10992,
724.699,77.64824,-3.06588,0.10929,
725.299,77.70926,-3.06507,0.11149,
725.899,77.76998,-3.06573,0.10697,
726.499,77.83076,-3.06639,0.10984,
727.099,77.89147,-3.06777,0.10626,
727.699,77.95223,-3.06902,0.10702,
728.299,78.013,-3.06902,0.10925,
728.899,78.07388,-3.0677,0.10455,
729.499,78.13479,-3.06813,0.1073,
730.099,78.19576,-3.07045,0.10415,
730.699,78.25651,-3.07176,0.10687,
731.299,78.31726,-3.07176,0.10392,
731.899,78.37801,-3.07045,0.10251,
732.499,78.43883,-3.07043,0.10104,
733.099,78.49973,-3.06913,0.10105,
733.699,78.56048,-3.07044,0.10118,
734.299,78.62131,-3.07012,0.09921126,
734.899,78.68226,-3.06996,0.10151,
735.499,78.74292,-3.07045,0.10233,
736.099,78.80368,-3.07045,0.09740058,
736.699,78.86446,-3.07045,0.09921952,
737.299,78.92514,-3.07045,0.09533817,
737.899,78.98581,-3.07104,0.09347604,
738.499,79.0465,-3.07144,0.09603896,
739.099,79.10707,-3.07144,0.09409613,
739.699,79.16811,-3.07144,0.09468976,
740.299,79.2289,-3.07174,0.09177905,
740.899,79.28963,-3.07308,0.09457153,
741.499,79.35042,-3.07309,0.09249117,
742.099,79.41127,-3.07181,0.09085927,
742.699,79.47222,-3.07308,0.0889973,
743.299,79.53323,-3.07308,0.09076155,
743.899,79.59423,-3.07209,0.08994992,
744.499,79.65531,-3.07209,0.08924089,
745.099,79.7164,-3.07209,0.09139049,
745.699,79.77728,-3.07204,0.08678674,
746.299,79.83793,-3.0734,0.08902325,
746.899,79.89891,-3.0734,0.08529893,
747.499,79.95969,-3.0734,0.08971894,
748.099,80.02061,-3.07308,0.08599376,
748.699,80.08165,-3.07211,0.08754858,
749.299,80.14269,-3.07221,0.08982858,
749.899,80.20376,-3.07341,0.08698815,
750.499,80.26468,-3.07341,0.08682713,
751.099,80.32562,-3.0743,0.08463725,
751.699,80.3867,-3.07572,0.08543635,
752.299,80.4478,-3.07572,0.08307512,
752.899,80.50916,-3.07572,0.08576694,
753.499,80.57044,-3.07571,0.08446422,
754.099,80.6316,-3.07611,0.08450613,
754.699,80.69284,-3.07637,0.08187271,
755.299,80.75398,-3.07575,0.08176802,
755.899,80.81514,-3.07538,0.08317664,
756.499,80.87626,-3.07538,0.08143308,
757.099,80.93717,-3.07538,0.08025353,
757.699,80.99811,-3.07558,0.07869222,
758.299,81.05912,-3.07671,0.07837612,
758.899,81.12002,-3.07604,0.07984771,
759.499,81.18079,-3.07735,0.07974981,
760.099,81.24161,-3.07867,0.0762535,
760.699,81.30244,-3.07867,0.07629787,
761.299,81.36364,-3.07844,0.07899629,
761.899,81.42477,-3.078,0.07670232,
762.499,81.4859,-3.07737,0.07635385,
763.099,81.54689,-3.07868,0.07770181,
763.699,81.60777,-3.07868,0.07377529,
764.299,81.66856,-3.07846,0.07668286,
764.899,81.72943,-3.07608,0.07486764,
765.499,81.79024,-3.07604,0.07763183,
766.099,81.85084,-3.07604,0.07134322,
766.699,81.91158,-3.07737,0.07717395,
767.299,81.9724,-3.07868,0.0778443,
767.899,82.03349,-3.07998,0.07444756,
768.499,82.09446,-3.0797,0.07278304,
769.099,82.15536,-3.07933,0.07448123,
769.699,82.21625,-3.07933,0.0732319,
770.299,82.2771,-3.07933,0.07148396,
770.899,82.3381,-3.08069,0.07425939,
771.499,82.39893,-3.07999,0.07480385,
772.099,82.45983,-3.08064,0.07380007,
772.699,82.52065,-3.08131,0.07409979,
773.299,82.58137,-3.08052,0.07156981,
773.899,82.6421,-3.0813,0.07236165,
774.499,82.70294,-3.0813,0.07053621,
775.099,82.76388,-3.0813,0.07418941,
775.699,82.82488,-3.0813,0.06955818,
776.299,82.88603,-3.0813,0.06893561,
776.899,82.94691,-3.0813,0.06752786,
777.499,83.00785,-3.0813,0.06613638,
778.099,83.06816,-3.0813,0.06716046,
778.699,83.12875,-3.08157,0.0642727,
779.299,83.18972,-3.08163,0.06540334,
779.899,83.2506,-3.08196,0.06343511,
780.499,83.3121,-3.08329,0.06504621,
781.099,83.37317,-3.08263,0.0650068,
781.699,83.43442,-3.08201,0.06287517,
782.299,83.49568,-3.08464,0.06704025,
782.899,83.55671,-3.08451,0.06517343,
783.499,83.61776,-3.0846,0.0633596,
784.099,83.67878,-3.0852,0.05928448,
784.699,83.73975,-3.08459,0.06629824,
785.299,83.80067,-3.08526,0.0609365,
785.899,83.86174,-3.08528,0.06275247,
786.499,83.92303,-3.08394,0.06265944,
787.099,83.9842,-3.08394,0.06425554,
787.699,84.04534,-3.08394,0.06401369,
788.299,84.10643,-3.08394,0.06433225,
788.899,84.1675,-3.08523,0.06224793,
789.499,84.22874,-3.08459,0.05829195,
790.099,84.28983,-3.0859,0.0636195,
790.699,84.35083,-3.08591,0.0626255,
791.299,84.41197,-3.08526,0.06520223,
791.899,84.47306,-3.08611,0.06620772,
792.499,84.53428,-3.08625,0.06880336,
793.099,84.59541,-3.08894,0.06853463,
793.699,84.65656,-3.08887,0.06369204,
794.299,84.71773,-3.08885,0.06424014,
794.899,84.77904,-3.08756,0.07104679,
795.499,84.84031,-3.08624,0.07181414,
796.099,84.90142,-3.08631,0.07031086,
796.699,84.96257,-3.08859,0.06649775,
796.999,84.99271,-3.08854,0.06783821,