File: 01_Data/Plywood/STA/N2/10K_min/Plywood_STA_N2_10KData_22243_R1.csv
##Temp./Â°C,Time/min,Mass loss(subtr.)/mg,DSC(subtr.2)/(mW/mg)
49.94,10.00917,0.00439,0.000695778
50.54,10.71756,0.004694137,0.03074741
51.14,10.90857,0.006220664,0.05665766
51.74,11.04905,0.005146793,0.07902493
52.34,11.16623,0.004777583,0.09376584
52.94,11.27115,0.004911799,0.10942
53.54,11.36686,0.003293287,0.12221
54.14,11.457,0.004263323,0.13484
54.74,11.5428,0.005524808,0.14655
55.34,11.62452,0.004235716,0.15573
55.94,11.70336,0.00361194,0.16593
56.54,11.78012,0.004212041,0.17209
57.14,11.85484,0.004250541,0.17925
57.74,11.92814,0.003982932,0.18816
58.34,12.00024,0.003586335,0.19167
58.94,12.07119,0.004742797,0.19741
59.54,12.14107,0.003977284,0.20103
60.14,12.21036,0.002858231,0.20905
60.74,12.27888,0.002516222,0.21066
61.34,12.34692,0.002532108,0.21453
61.94,12.41405,0.002522636,0.21836
62.54,12.48131,0.001012046,0.22348
63.14,12.54847,0.002364883,0.22598
63.74,12.61521,0.001673644,0.23134
64.34,12.68144,0.001106411,0.23409
64.94,12.74733,0.001087919,0.23663
65.54,12.81289,0.001706132,0.2404
66.14,12.87825,0.001674321,0.24364
66.74,12.94337,0.002453916,0.24756
67.34,13.00829,0.001081918,0.25248
67.94,13.07277,0.002374419,0.25254
68.54,13.1372,0.002398676,0.25454
69.14,13.20159,0.001075869,0.25801
69.74,13.26597,0.001088609,0.26014
70.34,13.33026,0.002396258,0.26311
70.94,13.39438,0.001343473,0.26742
71.54,13.45795,0.001100285,0.27104
72.14,13.52143,-5.35E-05,0.27358
72.74,13.58507,0.000855069,0.27779
73.34,13.64828,0.001090032,0.27755
73.94,13.71167,0.001138771,0.28111
74.54,13.77463,-0.000315354,0.28315
75.14,13.8377,0.000877395,0.28463
75.74,13.90045,-0.000219874,0.28983
76.34,13.96306,0.000578499,0.29093
76.94,14.02564,0.000135319,0.29497
77.54,14.088,-0.0002304,0.29552
78.14,14.1501,-0.000551161,0.29685
78.74,14.21239,-0.000185269,0.29909
79.34,14.2745,-0.001587031,0.30066
79.94,14.33662,-0.00154001,0.3051
80.54,14.39868,-0.001539999,0.304
81.14,14.46068,-0.001548909,0.30545
81.74,14.52223,-0.002837492,0.30896
82.34,14.58393,-0.002861031,0.31122
82.94,14.64519,-0.001541401,0.31226
83.54,14.70633,-0.001533542,0.31314
84.14,14.76752,-0.0028599,0.31383
84.74,14.82868,-0.003194388,0.31508
85.34,14.88991,-0.004193961,0.31551
85.94,14.95101,-0.002884351,0.31733
86.54,15.01192,-0.003920699,0.31761
87.14,15.07285,-0.004169984,0.31857
87.74,15.13358,-0.004276453,0.32006
88.34,15.19408,-0.004183649,0.32016
88.94,15.25457,-0.005493302,0.31804
89.54,15.31497,-0.005490002,0.32031
90.14,15.37531,-0.00549174,0.31982
90.74,15.43547,-0.006203861,0.3196
91.34,15.49554,-0.005489949,0.32027
91.94,15.55515,-0.006447511,0.31681
92.54,15.61489,-0.00679805,0.31813
93.14,15.6747,-0.005483254,0.31849
93.74,15.73514,-0.0066099,0.31767
94.34,15.79529,-0.005449998,0.31755
94.94,15.85556,-0.005490588,0.31519
95.54,15.91507,-0.007721595,0.31484
96.14,15.97441,-0.00680151,0.31481
96.74,16.03366,-0.008126922,0.31166
97.34,16.09298,-0.008139412,0.31133
97.94,16.15232,-0.007400204,0.31077
98.54,16.21153,-0.008779859,0.30965
99.14,16.2709,-0.008745746,0.30872
99.74,16.33003,-0.008122022,0.30783
100.34,16.38915,-0.009429969,0.30894
100.94,16.44831,-0.009451733,0.30684
101.54,16.5073,-0.009365124,0.3023
102.14,16.5663,-0.009439959,0.30202
102.74,16.6252,-0.009440001,0.30149
103.34,16.68424,-0.00944095,0.30039
103.94,16.74316,-0.01079983,0.29715
104.54,16.80196,-0.01077284,0.29684
105.14,16.86072,-0.01207034,0.29593
105.74,16.91941,-0.01206999,0.29437
106.34,16.97836,-0.01210982,0.29446
106.94,17.03734,-0.01205899,0.29138
107.54,17.09617,-0.0120767,0.29257
108.14,17.15509,-0.01076133,0.28928
108.74,17.21402,-0.01104192,0.28771
109.34,17.27295,-0.0117401,0.28741
109.94,17.33179,-0.01176697,0.2866
110.54,17.39058,-0.01172388,0.28506
111.14,17.4492,-0.01173811,0.28674
111.74,17.5079,-0.01129351,0.28553
112.34,17.56655,-0.01174002,0.2838
112.94,17.62529,-0.01174,0.28115
113.54,17.68353,-0.01173419,0.28199
114.14,17.74239,-0.01213467,0.2839
114.74,17.80088,-0.01174005,0.28418
115.34,17.85978,-0.01173999,0.28494
115.94,17.9191,-0.01206727,0.28166
116.54,17.97772,-0.01241066,0.28024
117.14,18.03632,-0.01141068,0.28165
117.74,18.09483,-0.01140901,0.28331
118.34,18.15337,-0.01003735,0.28038
118.94,18.21176,-0.01008998,0.28144
119.54,18.27032,-0.01009,0.28193
120.14,18.32892,-0.01009,0.28208
120.74,18.38777,-0.01009012,0.28298
121.34,18.44664,-0.009741106,0.28511
121.94,18.50527,-0.009037563,0.28329
122.54,18.56371,-0.01045189,0.28317
123.14,18.62203,-0.01174038,0.28095
123.74,18.68042,-0.01174149,0.28157
124.34,18.73884,-0.01041963,0.28124
124.94,18.7974,-0.01042006,0.28312
125.54,18.8556,-0.01082549,0.28164
126.14,18.91427,-0.01140839,0.28249
126.74,18.97264,-0.01008301,0.28383
127.34,19.03118,-0.01009,0.28407
127.94,19.08945,-0.01009003,0.28625
128.54,19.14756,-0.010431,0.28643
129.14,19.20559,-0.01042014,0.29055
129.74,19.26384,-0.011776,0.2903
130.34,19.32206,-0.01042956,0.28816
130.94,19.38036,-0.01043,0.29004
131.54,19.43847,-0.01042998,0.2907
132.14,19.49667,-0.01017907,0.28976
132.74,19.55493,-0.01041949,0.2908
133.34,19.61314,-0.0104201,0.29231
133.94,19.67129,-0.01182048,0.29254
134.54,19.72919,-0.01174,0.29277
135.14,19.78717,-0.01174297,0.2949
135.74,19.84525,-0.01043072,0.29248
136.34,19.90326,-0.0104196,0.29519
136.94,19.96131,-0.01171817,0.29421
137.54,20.01917,-0.01075962,0.2963
138.14,20.07731,-0.01043542,0.29927
138.74,20.13545,-0.01101045,0.29608
139.34,20.19364,-0.01171775,0.29934
139.94,20.25174,-0.01239954,0.30017
140.54,20.30958,-0.01240048,0.3004
141.14,20.36738,-0.01107759,0.30227
141.74,20.42514,-0.01108,0.29969
142.34,20.48318,-0.01108,0.30151
142.94,20.54132,-0.01107994,0.30259
143.54,20.59927,-0.009754531,0.30356
144.14,20.65736,-0.01107899,0.30335
144.74,20.71533,-0.01232767,0.30594
145.34,20.77336,-0.01370905,0.30424
145.94,20.83124,-0.01374986,0.30824
146.54,20.88909,-0.01238999,0.30728
147.14,20.94691,-0.01239085,0.30834
147.74,21.00476,-0.01375524,0.31008
148.34,21.06251,-0.01371004,0.30949
148.94,21.12032,-0.01373187,0.3103
149.54,21.1782,-0.01366393,0.3128
150.14,21.23619,-0.01371993,0.31477
150.74,21.29402,-0.01372005,0.31424
151.34,21.35175,-0.0138046,0.31771
151.94,21.40948,-0.0163399,0.31617
152.54,21.46714,-0.01499164,0.31604
153.14,21.52486,-0.01502997,0.31781
153.74,21.58272,-0.01503168,0.31908
154.34,21.64043,-0.01702932,0.31814
154.94,21.69836,-0.01701014,0.31787
155.54,21.756,-0.01617348,0.32061
156.14,21.81362,-0.01502949,0.32082
156.74,21.8712,-0.01503044,0.32092
157.34,21.92889,-0.01633031,0.32394
157.94,21.986,-0.01701019,0.32431
158.54,22.0436,-0.01701,0.32351
159.14,22.10128,-0.01701011,0.32806
159.74,22.15885,-0.01637532,0.32784
160.34,22.21705,-0.01699898,0.32627
160.94,22.2745,-0.01560425,0.32892
161.54,22.33201,-0.01591739,0.33134
162.14,22.38957,-0.01700417,0.33007
162.74,22.44716,-0.01798953,0.33134
163.34,22.5048,-0.01799,0.33178
163.94,22.56244,-0.01799008,0.33277
164.54,22.61982,-0.01802846,0.33753
165.14,22.67733,-0.01799062,0.33855
165.74,22.73479,-0.01798324,0.33626
166.34,22.79208,-0.01930704,0.33731
166.94,22.84919,-0.01832037,0.33785
167.54,22.90679,-0.01831677,0.34023
168.14,22.96432,-0.01961792,0.3379
168.74,23.02185,-0.01959912,0.34161
169.34,23.0797,-0.01964,0.34101
169.94,23.13708,-0.01964002,0.34352
170.54,23.19456,-0.01969014,0.34286
171.14,23.25188,-0.01833092,0.34573
171.74,23.30915,-0.01833001,0.3479
172.34,23.36643,-0.0196686,0.34529
172.94,23.42388,-0.01823812,0.3473
173.54,23.48141,-0.01833599,0.34688
174.14,23.53891,-0.01963933,0.34663
174.74,23.59651,-0.02092935,0.34871
175.34,23.65398,-0.02094992,0.35109
175.94,23.71117,-0.02086811,0.34968
176.54,23.76866,-0.01964009,0.3515
177.14,23.82592,-0.01964,0.35286
177.74,23.88353,-0.01963989,0.352
178.34,23.94116,-0.01949616,0.35493
178.94,23.99857,-0.01789389,0.35405
179.54,24.05617,-0.01937754,0.35441
180.14,24.11349,-0.0205448,0.35459
180.74,24.17064,-0.02194185,0.35677
181.34,24.22811,-0.02062882,0.35661
181.94,24.28556,-0.02063,0.35896
182.54,24.34304,-0.02062532,0.35789
183.14,24.40052,-0.02193883,0.35724
183.74,24.4578,-0.02194,0.36136
184.34,24.51507,-0.02193977,0.3615
184.94,24.57254,-0.02295286,0.3638
185.54,24.62994,-0.02392002,0.36248
186.14,24.68728,-0.02391464,0.36396
186.74,24.74467,-0.02522838,0.36568
187.34,24.80206,-0.02523802,0.36742
187.94,24.85915,-0.02654996,0.3645
188.54,24.9162,-0.02655,0.36826
189.14,24.97317,-0.02655,0.36795
189.74,25.03024,-0.02655,0.3686
190.34,25.08742,-0.02655,0.36909
190.94,25.14469,-0.02655,0.36937
191.54,25.2017,-0.02655069,0.36985
192.14,25.25874,-0.0272155,0.36949
192.74,25.31579,-0.02853478,0.37277
193.34,25.37291,-0.02853704,0.37354
193.94,25.43001,-0.02888513,0.37168
194.54,25.48722,-0.02982987,0.37337
195.14,25.54434,-0.0297688,0.374
195.74,25.60155,-0.0311275,0.37174
196.34,25.65856,-0.03247039,0.37176
196.94,25.71561,-0.03246811,0.37401
197.54,25.77279,-0.03312303,0.3721
198.14,25.83009,-0.03313348,0.37224
198.74,25.88757,-0.03510302,0.3727
199.34,25.94483,-0.03646399,0.37184
199.94,26.00212,-0.03642002,0.37168
200.54,26.05944,-0.03642,0.36926
201.14,26.11662,-0.03656926,0.36888
201.74,26.17399,-0.03889008,0.36929
202.34,26.23138,-0.0396009,0.36766
202.94,26.28888,-0.04145436,0.36728
203.54,26.34647,-0.04179079,0.36835
204.14,26.40382,-0.04419061,0.36711
204.74,26.4613,-0.04582017,0.36625
205.34,26.51868,-0.04574048,0.36865
205.94,26.57617,-0.04706243,0.36794
206.54,26.63369,-0.04573326,0.36576
207.14,26.69104,-0.04726837,0.36758
207.74,26.74853,-0.04990558,0.36519
208.34,26.80596,-0.05122223,0.36676
208.94,26.86338,-0.05254965,0.36747
209.54,26.92069,-0.05387251,0.3664
210.14,26.97785,-0.05516953,0.36951
210.74,27.03511,-0.05518086,0.36903
211.34,27.09244,-0.05518129,0.37068
211.94,27.14971,-0.05650197,0.37019
212.54,27.20715,-0.05730907,0.37236
213.14,27.26457,-0.05965821,0.3686
213.74,27.32189,-0.06044022,0.37225
214.34,27.37918,-0.06174988,0.37317
214.94,27.4365,-0.06307387,0.37181
215.54,27.49381,-0.06448067,0.37302
216.14,27.55097,-0.06569936,0.37223
216.74,27.60817,-0.06833577,0.37339
217.34,27.66549,-0.06966543,0.37282
217.94,27.72285,-0.07106799,0.37488
218.54,27.78027,-0.07234151,0.37671
219.14,27.83778,-0.07350337,0.37692
219.74,27.89524,-0.07482992,0.37598
220.34,27.95246,-0.07650543,0.37553
220.94,28.00985,-0.07694468,0.37735
221.54,28.067,-0.07772944,0.37534
222.14,28.12431,-0.08012222,0.37649
222.74,28.18197,-0.08144576,0.37805
223.34,28.23939,-0.08294266,0.37884
223.94,28.29669,-0.08534468,0.37913
224.54,28.35381,-0.0872922,0.381
225.14,28.41081,-0.08952721,0.38141
225.74,28.46811,-0.09148166,0.38032
226.34,28.52534,-0.09404857,0.38091
226.94,28.58259,-0.09349384,0.38342
227.54,28.63969,-0.09514535,0.38112
228.14,28.69687,-0.09742508,0.38159
228.74,28.75407,-0.09976937,0.38199
229.34,28.81132,-0.10189,0.3815
229.94,28.86853,-0.10295,0.38376
230.54,28.92571,-0.10559,0.38373
231.14,28.98253,-0.10747,0.3848
231.74,29.03978,-0.11042,0.38384
232.34,29.0969,-0.11236,0.38459
232.94,29.15422,-0.11375,0.38464
233.54,29.21167,-0.11408,0.38546
234.14,29.26887,-0.11659,0.3844
234.74,29.32592,-0.11972,0.38466
235.34,29.38295,-0.12142,0.38666
235.94,29.4403,-0.12299,0.38562
236.54,29.49762,-0.12597,0.38542
237.14,29.55484,-0.12913,0.38748
237.74,29.61211,-0.13137,0.38553
238.34,29.66924,-0.13294,0.38812
238.94,29.72646,-0.13488,0.39086
239.54,29.78365,-0.13742,0.38852
240.14,29.84102,-0.13929,0.38992
240.74,29.8983,-0.14175,0.38968
241.34,29.95548,-0.14432,0.39139
241.94,30.01269,-0.14635,0.38904
242.54,30.06981,-0.14909,0.39244
243.14,30.12697,-0.15066,0.39103
243.74,30.18404,-0.15351,0.39152
244.34,30.24132,-0.1563,0.39081
244.94,30.29868,-0.15791,0.39079
245.54,30.35587,-0.16066,0.39248
246.14,30.41317,-0.16364,0.39121
246.74,30.47037,-0.1668,0.39311
247.34,30.52757,-0.16812,0.39222
247.94,30.58492,-0.17128,0.39219
248.54,30.64212,-0.17349,0.39243
249.14,30.69931,-0.17649,0.39334
249.74,30.75661,-0.17991,0.39125
250.34,30.81379,-0.18172,0.39046
250.94,30.87095,-0.18479,0.39312
251.54,30.92823,-0.18857,0.39285
252.14,30.98561,-0.19199,0.39328
252.74,31.04291,-0.19458,0.39446
253.34,31.10023,-0.19654,0.3944
253.94,31.15726,-0.19971,0.39351
254.54,31.21438,-0.20437,0.39376
255.14,31.27165,-0.2076,0.39157
255.74,31.32889,-0.21083,0.39335
256.34,31.38626,-0.21363,0.39321
256.94,31.44364,-0.21794,0.39284
257.54,31.50106,-0.22093,0.39
258.14,31.55858,-0.22255,0.39355
258.74,31.61602,-0.22421,0.39318
259.34,31.67343,-0.22787,0.39117
259.94,31.73081,-0.23262,0.3883
260.54,31.78823,-0.23545,0.39072
261.14,31.84598,-0.23925,0.38893
261.74,31.90346,-0.24238,0.38822
262.34,31.96103,-0.2456,0.39174
262.94,32.0185,-0.24957,0.39002
263.54,32.07569,-0.25478,0.3906
264.14,32.13276,-0.25849,0.39225
264.74,32.19007,-0.26267,0.39112
265.34,32.24741,-0.2659,0.39299
265.94,32.30507,-0.27057,0.39121
266.54,32.36245,-0.27443,0.39156
267.14,32.41984,-0.27974,0.39274
267.74,32.47701,-0.28289,0.39122
268.34,32.53425,-0.28766,0.39267
268.94,32.59139,-0.2925,0.39201
269.54,32.64845,-0.29673,0.3915
270.14,32.7055,-0.30315,0.39208
270.74,32.76254,-0.30895,0.39142
271.34,32.81995,-0.31271,0.3908
271.94,32.87725,-0.3188,0.39316
272.54,32.93477,-0.32428,0.39224
273.14,32.99213,-0.32755,0.39217
273.74,33.04942,-0.33458,0.39046
274.34,33.10666,-0.34,0.39347
274.94,33.16397,-0.34505,0.39353
275.54,33.22119,-0.35051,0.39294
276.14,33.27848,-0.35621,0.39428
276.74,33.33582,-0.36301,0.39248
277.34,33.39296,-0.36911,0.39204
277.94,33.45,-0.37411,0.39056
278.54,33.50709,-0.38013,0.39092
279.14,33.5645,-0.38651,0.39085
279.74,33.62196,-0.39308,0.38989
280.34,33.6793,-0.39993,0.39166
280.94,33.73665,-0.40709,0.38969
281.54,33.79392,-0.41388,0.38783
282.14,33.85105,-0.42175,0.38854
282.74,33.90852,-0.42968,0.38886
283.34,33.96581,-0.4358,0.38734
283.94,34.02318,-0.44335,0.38734
284.54,34.08049,-0.45082,0.38833
285.14,34.13765,-0.45934,0.38891
285.74,34.19491,-0.46723,0.3901
286.34,34.25243,-0.47503,0.3868
286.94,34.31006,-0.48332,0.38788
287.54,34.36777,-0.49197,0.388
288.14,34.42533,-0.49983,0.38806
288.74,34.48276,-0.51006,0.38855
289.34,34.54033,-0.52038,0.38832
289.94,34.59751,-0.52717,0.38553
290.54,34.65497,-0.5348,0.38751
291.14,34.71251,-0.54537,0.38722
291.74,34.77006,-0.55404,0.38798
292.34,34.82816,-0.56313,0.38879
292.94,34.88566,-0.57353,0.38792
293.54,34.94314,-0.58324,0.38878
294.14,35.00084,-0.5919,0.38969
294.74,35.05846,-0.6015,0.3905
295.34,35.11613,-0.61192,0.39017
295.94,35.17371,-0.62215,0.39045
296.54,35.23093,-0.63182,0.39127
297.14,35.28854,-0.6437,0.39151
297.74,35.34612,-0.65497,0.39512
298.34,35.40363,-0.66672,0.39614
298.94,35.46132,-0.67806,0.39809
299.54,35.51893,-0.68955,0.39818
300.14,35.5766,-0.69993,0.40055
300.74,35.63427,-0.71007,0.4023
301.34,35.69183,-0.72232,0.40439
301.94,35.74919,-0.73479,0.40536
302.54,35.80656,-0.74714,0.40532
303.14,35.86395,-0.75894,0.40648
303.74,35.92142,-0.76921,0.40961
304.34,35.97901,-0.78225,0.41005
304.94,36.03642,-0.79561,0.41124
305.54,36.09396,-0.80781,0.41454
306.14,36.1515,-0.82057,0.4154
306.74,36.20898,-0.83435,0.41475
307.34,36.26654,-0.84738,0.41285
307.94,36.32405,-0.85961,0.41478
308.54,36.38143,-0.87372,0.41636
309.14,36.43907,-0.88735,0.41788
309.74,36.49663,-0.90071,0.41848
310.34,36.55408,-0.91469,0.41901
310.94,36.61129,-0.92828,0.41947
311.54,36.66866,-0.94338,0.42072
312.14,36.72623,-0.95721,0.4221
312.74,36.78385,-0.97159,0.42252
313.34,36.84166,-0.98642,0.42323
313.94,36.89914,-1.00055,0.42396
314.54,36.95672,-1.0153,0.42404
315.14,37.01449,-1.03036,0.42637
315.74,37.07228,-1.0456,0.42595
316.34,37.13014,-1.06059,0.42612
316.94,37.1878,-1.07761,0.42551
317.54,37.24536,-1.09136,0.42573
318.14,37.30293,-1.10797,0.42435
318.74,37.36085,-1.12421,0.4251
319.34,37.4186,-1.14033,0.42577
319.94,37.47645,-1.15706,0.42548
320.54,37.53432,-1.17209,0.42543
321.14,37.59194,-1.18975,0.42848
321.74,37.64969,-1.20593,0.42855
322.34,37.70744,-1.22323,0.42709
322.94,37.76515,-1.24072,0.42478
323.54,37.82276,-1.25711,0.42718
324.14,37.88047,-1.27378,0.42774
324.74,37.93816,-1.29207,0.42673
325.34,37.99595,-1.30947,0.42655
325.94,38.05376,-1.32685,0.42669
326.54,38.11157,-1.34461,0.42608
327.14,38.16922,-1.36079,0.4251
327.74,38.2271,-1.38026,0.42477
328.34,38.28491,-1.39862,0.42597
328.94,38.34275,-1.41826,0.42243
329.54,38.40064,-1.43696,0.42369
330.14,38.45867,-1.45382,0.42122
330.74,38.51678,-1.47432,0.42007
331.34,38.57481,-1.49281,0.41989
331.94,38.63272,-1.51194,0.41759
332.54,38.69068,-1.53127,0.41531
333.14,38.74859,-1.55045,0.41376
333.74,38.80646,-1.56811,0.41232
334.34,38.86429,-1.58705,0.4117
334.94,38.92217,-1.6068,0.41032
335.54,38.97998,-1.62719,0.40979
336.14,39.03776,-1.64655,0.40507
336.74,39.09572,-1.66535,0.40224
337.34,39.15368,-1.68558,0.3982
337.94,39.21153,-1.70572,0.39605
338.54,39.2695,-1.72538,0.39353
339.14,39.32734,-1.74385,0.39291
339.74,39.38522,-1.76428,0.39074
340.34,39.44315,-1.78301,0.38578
340.94,39.50107,-1.80285,0.38232
341.54,39.55901,-1.82273,0.37826
342.14,39.61709,-1.84104,0.37517
342.74,39.6751,-1.86099,0.37026
343.34,39.73301,-1.88003,0.36576
343.94,39.79085,-1.90065,0.36204
344.54,39.8485,-1.91896,0.35839
345.14,39.90624,-1.93867,0.3533
345.74,39.96406,-1.9572,0.34675
346.34,40.02174,-1.97618,0.34129
346.94,40.07958,-1.9942,0.33813
347.54,40.13719,-2.012,0.3324
348.14,40.19494,-2.03169,0.32659
348.74,40.2527,-2.04882,0.32208
349.34,40.31053,-2.06791,0.31731
349.94,40.3683,-2.08456,0.31065
350.54,40.42586,-2.10188,0.30344
351.14,40.48343,-2.11846,0.2961
351.74,40.54099,-2.13398,0.28954
352.34,40.59869,-2.15073,0.28319
352.94,40.65643,-2.16715,0.27457
353.54,40.71366,-2.18316,0.27004
354.14,40.7714,-2.19871,0.26339
354.74,40.82917,-2.21457,0.25482
355.34,40.88691,-2.22895,0.24792
355.94,40.94453,-2.24481,0.24272
356.54,41.00209,-2.2582,0.23522
357.14,41.05974,-2.27188,0.22757
357.74,41.11778,-2.28546,0.21896
358.34,41.17561,-2.29937,0.21122
358.94,41.23334,-2.31215,0.20637
359.54,41.29113,-2.32461,0.19779
360.14,41.34908,-2.33465,0.18887
360.74,41.40708,-2.34618,0.18198
361.34,41.46504,-2.35985,0.17506
361.94,41.52294,-2.37071,0.16866
362.54,41.58099,-2.38181,0.16211
363.14,41.63909,-2.39159,0.15545
363.74,41.69721,-2.40097,0.15099
364.34,41.75528,-2.41029,0.14088
364.94,41.81331,-2.41958,0.1375
365.54,41.87148,-2.42934,0.12958
366.14,41.92954,-2.43805,0.12195
366.74,41.98777,-2.44567,0.11603
367.34,42.046,-2.45263,0.11013
367.94,42.10434,-2.45938,0.10453
368.54,42.16262,-2.46733,0.09779569
369.14,42.22093,-2.47531,0.09027967
369.74,42.27923,-2.48188,0.08684491
370.34,42.33738,-2.48716,0.08217162
370.94,42.39549,-2.49313,0.07940248
371.54,42.45373,-2.50005,0.07425831
372.14,42.51201,-2.50603,0.067509
372.74,42.57036,-2.51039,0.0638278
373.34,42.62888,-2.51456,0.06072405
373.94,42.68711,-2.51991,0.05543529
374.54,42.74562,-2.52584,0.04985011
375.14,42.80406,-2.52917,0.0466935
375.74,42.86261,-2.53336,0.03982309
376.34,42.92105,-2.53897,0.03857025
376.94,42.97922,-2.54253,0.03258465
377.54,43.03752,-2.54693,0.03037478
378.14,43.09589,-2.5488,0.02929656
378.74,43.15413,-2.55263,0.026866
379.34,43.21256,-2.55658,0.02279185
379.94,43.27089,-2.55981,0.02246923
380.54,43.32911,-2.56424,0.01717106
381.14,43.38696,-2.5675,0.01761074
381.74,43.44516,-2.56979,0.01499122
382.34,43.50344,-2.57185,0.0135093
382.94,43.56186,-2.57389,0.01110756
383.54,43.62057,-2.57652,0.009050217
384.14,43.67888,-2.57938,0.005451497
384.74,43.73715,-2.58269,0.00396156
385.34,43.79554,-2.5855,0.000580925
385.94,43.85396,-2.58863,0.000627787
386.54,43.91241,-2.5913,-0.0007281
387.14,43.97062,-2.59371,-0.004315911
387.74,44.02894,-2.59627,-0.008077334
388.34,44.08718,-2.59831,-0.009882689
388.94,44.14547,-2.60061,-0.008779352
389.54,44.20388,-2.6037,-0.01261837
390.14,44.26222,-2.60673,-0.01384734
390.74,44.32055,-2.60817,-0.01451824
391.34,44.37892,-2.61085,-0.0151524
391.94,44.43708,-2.61235,-0.01715896
392.54,44.49534,-2.61547,-0.01773717
393.14,44.55365,-2.61769,-0.02017839
393.74,44.61185,-2.6213,-0.02345699
394.34,44.66996,-2.6229,-0.02488926
394.94,44.72806,-2.62599,-0.02597159
395.54,44.78628,-2.62757,-0.02866253
396.14,44.8446,-2.6304,-0.02923111
396.74,44.9031,-2.63252,-0.02992439
397.34,44.96134,-2.63478,-0.02786856
397.94,45.01945,-2.63785,-0.02923752
398.54,45.07758,-2.63918,-0.03349972
399.14,45.13579,-2.64189,-0.03618711
399.74,45.19421,-2.64486,-0.03601279
400.34,45.25277,-2.64693,-0.03703572
400.94,45.31119,-2.64934,-0.03641564
401.54,45.36965,-2.65194,-0.03920742
402.14,45.42799,-2.65537,-0.04102544
402.74,45.48633,-2.65799,-0.04143593
403.34,45.54489,-2.65966,-0.04114706
403.94,45.60358,-2.66198,-0.04481634
404.54,45.66225,-2.66445,-0.04342728
405.14,45.72083,-2.66528,-0.04308326
405.74,45.77944,-2.66801,-0.04643845
406.34,45.83799,-2.67066,-0.04715538
406.94,45.89645,-2.67232,-0.04826224
407.54,45.95493,-2.67485,-0.0501438
408.14,46.01356,-2.67769,-0.05063372
408.74,46.07221,-2.67929,-0.05301378
409.34,46.131,-2.68074,-0.04964879
409.94,46.18959,-2.68348,-0.05239798
410.54,46.24811,-2.68479,-0.05130627
411.14,46.30668,-2.68843,-0.05309137
411.74,46.36543,-2.69153,-0.05122212
412.34,46.42413,-2.69381,-0.0517707
412.94,46.48282,-2.69666,-0.05324712
413.54,46.54127,-2.69942,-0.05359235
414.14,46.6,-2.69943,-0.053426
414.74,46.65872,-2.70223,-0.05173919
415.34,46.7177,-2.70517,-0.05623761
415.94,46.77652,-2.70641,-0.05228184
416.54,46.83524,-2.70954,-0.04950717
417.14,46.8941,-2.71174,-0.05215466
417.74,46.95281,-2.7111,-0.05282516
418.34,47.01176,-2.71365,-0.05272817
418.94,47.07048,-2.7158,-0.05345238
419.54,47.12927,-2.71923,-0.05422808
420.14,47.18814,-2.72052,-0.05197944
420.74,47.24683,-2.72316,-0.05068066
421.34,47.30571,-2.72459,-0.05184134
421.94,47.36469,-2.72554,-0.05012517
422.54,47.42362,-2.72815,-0.04676695
423.14,47.4828,-2.7295,-0.04725489
423.74,47.54173,-2.73151,-0.04596397
424.34,47.60069,-2.73327,-0.04835243
424.94,47.65959,-2.73562,-0.04506055
425.54,47.71837,-2.7375,-0.04238244
426.14,47.77729,-2.74027,-0.04052225
426.74,47.83616,-2.74194,-0.04339459
427.34,47.89511,-2.74494,-0.04054295
427.94,47.95412,-2.74634,-0.03846587
428.54,48.01306,-2.7473,-0.035476
429.14,48.07216,-2.75003,-0.03651441
429.74,48.13103,-2.75155,-0.03459208
430.34,48.19018,-2.75294,-0.03421386
430.94,48.24937,-2.75435,-0.03263611
431.54,48.30855,-2.7567,-0.02917957
432.14,48.36766,-2.75772,-0.03219278
432.74,48.42648,-2.75908,-0.02905884
433.34,48.48551,-2.76061,-0.02743573
433.94,48.54444,-2.76375,-0.02786424
434.54,48.60341,-2.76518,-0.02612221
435.14,48.66259,-2.76658,-0.02289189
435.74,48.72164,-2.77036,-0.0187398
436.34,48.78068,-2.77154,-0.01842569
436.94,48.8396,-2.77288,-0.02004266
437.54,48.89847,-2.7738,-0.01629415
438.14,48.957,-2.77487,-0.01758976
438.74,49.01596,-2.77729,-0.01631299
439.34,49.07485,-2.77892,-0.01396049
439.94,49.13391,-2.78045,-0.01162237
440.54,49.1932,-2.78317,-0.01416481
441.14,49.25186,-2.78391,-0.01079976
441.74,49.31071,-2.78515,-0.008100601
442.34,49.36949,-2.78647,-0.007940606
442.94,49.42835,-2.7878,-0.008040584
443.54,49.48724,-2.78997,-0.003748414
444.14,49.54601,-2.79106,-0.00499934
444.74,49.60483,-2.79244,-0.003280363
445.34,49.6636,-2.79384,-0.001241406
445.94,49.72227,-2.79549,0.002645646
446.54,49.78106,-2.79789,0.002041888
447.14,49.83985,-2.79919,0.003736415
447.74,49.89894,-2.80148,0.004274641
448.34,49.95791,-2.80338,0.00599238
448.94,50.01692,-2.80569,0.008114468
449.54,50.07583,-2.80575,0.00635997
450.14,50.13496,-2.80681,0.009985401
450.74,50.19396,-2.80945,0.008912169
451.34,50.25347,-2.81095,0.00967406
451.94,50.31245,-2.81234,0.01161801
452.54,50.37144,-2.81264,0.01147015
453.14,50.43035,-2.81373,0.01357576
453.74,50.48925,-2.81499,0.01453274
454.34,50.54851,-2.81631,0.01549248
454.94,50.60761,-2.81715,0.0157875
455.54,50.66686,-2.81971,0.01789512
456.14,50.726,-2.82158,0.01824614
456.74,50.78515,-2.82293,0.01588243
457.34,50.84433,-2.82426,0.02116516
457.94,50.90348,-2.82549,0.01975031
458.54,50.96263,-2.82553,0.01746899
459.14,51.02192,-2.82567,0.01853647
459.74,51.08123,-2.82796,0.02026104
460.34,51.14028,-2.82995,0.02232964
460.94,51.19936,-2.8321,0.02114118
461.54,51.25839,-2.83269,0.02130058
462.14,51.31749,-2.83343,0.02204018
462.74,51.37668,-2.8361,0.02457039
463.34,51.43577,-2.83742,0.0267729
463.94,51.49483,-2.8388,0.02695067
464.54,51.55391,-2.83927,0.02606864
465.14,51.61302,-2.84015,0.02392372
465.74,51.67209,-2.84101,0.02846068
466.34,51.73131,-2.84272,0.02712798
466.94,51.79028,-2.84275,0.02562423
467.54,51.84919,-2.84274,0.02692667
468.14,51.90781,-2.84405,0.02755568
468.74,51.96675,-2.84537,0.02936536
469.34,52.02575,-2.84807,0.02948789
469.94,52.08475,-2.8493,0.02878628
470.54,52.1441,-2.84977,0.02927669
471.14,52.2031,-2.84947,0.0305696
471.74,52.2621,-2.85075,0.02917534
472.34,52.32126,-2.85206,0.03124024
472.94,52.38032,-2.85338,0.02839754
473.54,52.43949,-2.85469,0.02944182
474.14,52.4987,-2.85469,0.03229735
474.74,52.55796,-2.85625,0.03087375
475.34,52.6173,-2.85729,0.03049534
475.94,52.67645,-2.85857,0.02788201
476.54,52.73576,-2.86128,0.02913824
477.14,52.79525,-2.86142,0.02902875
477.74,52.85485,-2.86105,0.0292417
478.34,52.9143,-2.86134,0.03147267
478.94,52.97343,-2.86259,0.03340124
479.54,53.03258,-2.86404,0.03141431
480.14,53.09172,-2.86566,0.03087429
480.74,53.15098,-2.86729,0.03350936
481.34,53.21051,-2.86807,0.03194368
481.94,53.26996,-2.86862,0.03156305
482.54,53.32948,-2.86994,0.03140142
483.14,53.38882,-2.86721,0.03662002
483.74,53.44828,-2.8706,0.03319453
484.34,53.50767,-2.87197,0.03363292
484.94,53.56709,-2.8745,0.03237642
485.54,53.62658,-2.87466,0.03135077
486.14,53.68603,-2.87572,0.03487175
486.74,53.74552,-2.8766,0.03581706
487.34,53.805,-2.87729,0.03241239
487.94,53.86451,-2.87859,0.03180689
488.54,53.92414,-2.87967,0.03283786
489.14,53.98394,-2.87988,0.03216917
489.74,54.04339,-2.88126,0.0305871
490.34,54.10286,-2.88254,0.03276861
490.94,54.16215,-2.88287,0.03114673
491.54,54.22131,-2.8829,0.03451813
492.14,54.28066,-2.88416,0.0309467
492.74,54.3401,-2.88585,0.03238697
493.34,54.39978,-2.88585,0.03269699
493.94,54.45956,-2.88716,0.03184339
494.54,54.51912,-2.88848,0.03461207
495.14,54.57874,-2.88847,0.03347086
495.74,54.63837,-2.89007,0.03145598
496.34,54.69782,-2.89117,0.03313028
496.94,54.75749,-2.89129,0.03082252
497.54,54.81696,-2.89501,0.03397473
498.14,54.8764,-2.89642,0.03100432
498.74,54.93576,-2.89637,0.03069065
499.34,54.99494,-2.89777,0.02900115
499.94,55.05428,-2.89769,0.03128133
500.54,55.11374,-2.8981,0.02880711
501.14,55.17331,-2.899,0.02853969
501.74,55.23284,-2.9003,0.02881321
502.34,55.29218,-2.9016,0.03057457
502.94,55.35155,-2.90067,0.03122215
503.54,55.41114,-2.90197,0.03076044
504.14,55.47061,-2.90315,0.03078803
504.74,55.53004,-2.90604,0.03264221
505.34,55.5895,-2.90471,0.03075095
505.94,55.64877,-2.90471,0.02788201
506.54,55.7082,-2.90603,0.03040989
507.14,55.7676,-2.90734,0.0309405
507.74,55.82694,-2.91,0.02919361
508.34,55.8864,-2.90988,0.03238449
508.94,55.94559,-2.91002,0.03357914
509.54,56.00506,-2.90998,0.02966656
510.14,56.0643,-2.91136,0.03067347
510.74,56.12373,-2.91129,0.02960466
511.34,56.18361,-2.91262,0.02837135
511.94,56.24308,-2.91393,0.02647423
512.54,56.30276,-2.91392,0.03000228
513.14,56.36213,-2.91405,0.02760526
513.74,56.42161,-2.9151,0.02504145
514.34,56.48126,-2.91456,0.02739077
514.94,56.54111,-2.916,0.02792726
515.54,56.60076,-2.91655,0.02778186
516.14,56.66042,-2.91787,0.0293475
516.74,56.71986,-2.91921,0.02808719
517.34,56.77972,-2.9205,0.02658491
517.94,56.83963,-2.92087,0.02618726
518.54,56.89939,-2.9205,0.02709807
519.14,56.95927,-2.92215,0.02706903
519.74,57.01905,-2.92215,0.027347
520.34,57.07878,-2.92443,0.0269903
520.94,57.13865,-2.92445,0.03006479
521.54,57.19835,-2.92537,0.03198873
522.14,57.25798,-2.92578,0.03160868
522.74,57.31749,-2.92643,0.03248763
523.34,57.3771,-2.92569,0.03534838
523.94,57.4367,-2.92708,0.03532875
524.54,57.49641,-2.92818,0.03746241
525.14,57.55614,-2.9284,0.04139138
525.74,57.61578,-2.92903,0.04354142
526.34,57.67537,-2.93198,0.04553698
526.94,57.73482,-2.93202,0.04912394
527.54,57.79437,-2.9329,0.0504498
528.14,57.85399,-2.93325,0.05524342
528.74,57.91358,-2.93465,0.05570405
529.34,57.97309,-2.93602,0.0577028
529.94,58.03272,-2.93666,0.06405527
530.54,58.09234,-2.93729,0.06500562
531.14,58.15209,-2.93861,0.06435226
531.74,58.21177,-2.93857,0.06797513
532.34,58.27153,-2.93891,0.06578524
532.94,58.3312,-2.93893,0.06901635
533.54,58.39085,-2.94025,0.0681981
534.14,58.45036,-2.94121,0.06755357
534.74,58.50999,-2.94255,0.07138264
535.34,58.56972,-2.94288,0.0709232
535.94,58.62944,-2.94288,0.0726969
536.54,58.68915,-2.9442,0.07268886
537.14,58.74871,-2.94514,0.07638531
537.74,58.80823,-2.94485,0.07780741
538.34,58.86785,-2.94616,0.07769473
538.94,58.92742,-2.94749,0.07926827
539.54,58.987,-2.94802,0.07945442
540.14,59.04675,-2.94815,0.0817653
540.74,59.10633,-2.94937,0.08545722
541.34,59.16596,-2.95078,0.08495275
541.94,59.22568,-2.95077,0.08620271
542.54,59.28514,-2.95097,0.08677389
543.14,59.34509,-2.9521,0.08916423
543.74,59.40486,-2.95209,0.08918066
544.34,59.46462,-2.9534,0.08991532
544.94,59.52451,-2.95341,0.09380938
545.54,59.58408,-2.95372,0.09329171
546.14,59.6438,-2.95505,0.09410095
546.74,59.70345,-2.95605,0.09342804
547.34,59.76325,-2.95637,0.09591589
547.94,59.82293,-2.95771,0.09676646
548.54,59.88274,-2.959,0.09689408
549.14,59.94248,-2.95782,0.09928502
549.74,60.00224,-2.95769,0.09920467
550.34,60.06219,-2.959,0.1008
550.94,60.12197,-2.95802,0.10041
551.54,60.18176,-2.95933,0.10004
552.14,60.2412,-2.96069,0.10037
552.74,60.30111,-2.96205,0.10062
553.34,60.36105,-2.96194,0.1009
553.94,60.42136,-2.96197,0.10059
554.54,60.48114,-2.96198,0.10192
555.14,60.54077,-2.96327,0.10243
555.74,60.60039,-2.96196,0.10133
556.34,60.66027,-2.96331,0.102
556.94,60.72022,-2.96361,0.10016
557.54,60.7803,-2.96361,0.09890332
558.14,60.84027,-2.96494,0.09674064
558.74,60.90022,-2.96624,0.09278273
559.34,60.96025,-2.96551,0.09273079
559.94,61.02033,-2.96617,0.08917215
560.54,61.08039,-2.96493,0.08525587
561.14,61.14048,-2.96557,0.084919
561.74,61.20051,-2.9669,0.08471786
562.34,61.26063,-2.96822,0.08514101
562.94,61.32081,-2.96824,0.08013475
563.54,61.38105,-2.96954,0.08246972
564.14,61.44114,-2.97101,0.07867953
564.74,61.50113,-2.97151,0.0798053
565.34,61.56116,-2.97151,0.07771971
565.94,61.62131,-2.97287,0.07688483
566.54,61.68142,-2.9728,0.07586962
567.14,61.74154,-2.97423,0.0773973
567.74,61.80166,-2.97513,0.07571936
568.34,61.86173,-2.9743,0.07885881
568.94,61.92184,-2.97513,0.07844807
569.54,61.98202,-2.97381,0.07693376
570.14,62.04188,-2.97498,0.07694559
570.74,62.10196,-2.97574,0.0799001
571.34,62.16197,-2.97668,0.07823854
571.94,62.22194,-2.97743,0.0771383
572.54,62.28196,-2.97602,0.07841983
573.14,62.34216,-2.97737,0.07830882
573.74,62.40253,-2.97875,0.07751652
574.34,62.46261,-2.97875,0.07505679
574.94,62.52228,-2.97875,0.07656501
575.54,62.58221,-2.98004,0.07926319
576.14,62.64214,-2.98003,0.07574922
576.74,62.70238,-2.98138,0.07649667
577.34,62.76251,-2.98137,0.07726148
577.94,62.82261,-2.9827,0.07587508
578.54,62.88284,-2.9827,0.07592515
579.14,62.94317,-2.9827,0.07741299
579.74,63.00349,-2.98402,0.07480248
580.34,63.06386,-2.98401,0.07533329
580.94,63.12412,-2.98401,0.07520421
581.54,63.18439,-2.98532,0.07598482
582.14,63.24471,-2.98585,0.0742894
582.74,63.30481,-2.98718,0.07374421
583.34,63.36496,-2.98666,0.07187565
583.94,63.42488,-2.98668,0.07127441
584.54,63.48523,-2.98888,0.07080262
585.14,63.54562,-2.98763,0.07123586
585.74,63.60606,-2.98764,0.07070126
586.34,63.66636,-2.98789,0.07229932
586.94,63.72644,-2.9893,0.06536882
587.54,63.78667,-2.98993,0.06941765
588.14,63.84693,-2.99127,0.06908343
588.74,63.90708,-2.98994,0.06971435
589.34,63.96727,-2.99002,0.06751659
589.94,64.02749,-2.98863,0.06713917
590.54,64.08792,-2.99117,0.06651572
591.14,64.14814,-2.99126,0.06500138
591.74,64.20836,-2.99126,0.06248616
592.34,64.26854,-2.99257,0.06415482
592.94,64.32869,-2.99258,0.06493472
593.54,64.3889,-2.99257,0.06213028
594.14,64.44906,-2.99355,0.06310622
594.74,64.50912,-2.99454,0.06145061
595.34,64.56928,-2.9952,0.06436223
595.94,64.62947,-2.99586,0.06445141
596.54,64.68952,-2.99652,0.06258006
597.14,64.74975,-2.99652,0.06187404
597.74,64.80996,-2.99652,0.06102303
598.34,64.8704,-2.99727,0.06109503
598.94,64.93081,-2.99783,0.06344579
599.54,64.99121,-2.99783,0.05915365
600.14,65.05151,-2.99913,0.06248041
600.74,65.11185,-2.99775,0.06235146
601.34,65.17206,-2.99785,0.06155844
601.94,65.23236,-2.99919,0.06306971
602.54,65.29263,-2.99913,0.06465353
603.14,65.35292,-2.99915,0.06328891
603.74,65.41316,-2.99916,0.06346216
604.34,65.47361,-2.99783,0.06376511
604.94,65.53385,-2.99783,0.06540446
605.54,65.59425,-2.99916,0.06484547
606.14,65.65451,-3.00163,0.06350544
606.74,65.71465,-3.00178,0.06340473
607.34,65.77494,-3.00275,0.06284893
607.94,65.83528,-3.00277,0.06213091
608.54,65.89526,-3.00176,0.06288996
609.14,65.95567,-3.00211,0.06258794
609.74,66.01608,-3.00341,0.06457259
610.34,66.07657,-3.00463,0.06572279
610.94,66.13724,-3.00474,0.06596037
611.54,66.19758,-3.00474,0.06490198
612.14,66.25802,-3.00565,0.06382831
612.74,66.31839,-3.00574,0.06633913
613.34,66.37872,-3.00704,0.06722096
613.94,66.43908,-3.00573,0.06903806
614.54,66.49939,-3.00573,0.06753701
615.14,66.5597,-3.00573,0.06423066
615.74,66.62003,-3.00573,0.06590532
616.34,66.6803,-3.00584,0.06793191
616.94,66.74083,-3.00739,0.06974858
617.54,66.80116,-3.00837,0.0701363
618.14,66.86152,-3.0087,0.06750983
618.74,66.92172,-3.0101,0.07058103
619.34,66.98187,-3.01001,0.073633
619.94,67.04212,-3.01134,0.0705152
620.54,67.10252,-3.01131,0.0700829
621.14,67.16301,-3.01001,0.07179936
621.74,67.22366,-3.01001,0.07045219
622.34,67.28436,-3.0095,0.06981192
622.94,67.34489,-3.0099,0.07474365
623.54,67.40539,-3.01133,0.07589295
624.14,67.46572,-3.01248,0.07390549
624.74,67.52611,-3.01264,0.07741273
625.34,67.58662,-3.01341,0.07456894
625.94,67.6472,-3.01385,0.07467465
626.54,67.70785,-3.01462,0.07702305
627.14,67.7685,-3.01495,0.07622844
627.74,67.82913,-3.01626,0.07699715
628.34,67.88962,-3.01626,0.07396289
628.94,67.95012,-3.01492,0.07779277
629.54,68.01026,-3.01601,0.07923627
630.14,68.07065,-3.01626,0.07892619
630.74,68.13106,-3.01758,0.08163993
631.34,68.19136,-3.01858,0.08147233
631.94,68.25188,-3.01857,0.07945236
632.54,68.31207,-3.01857,0.08178243
633.14,68.37224,-3.01986,0.08163095
633.74,68.43276,-3.01988,0.08024345
634.34,68.49283,-3.01992,0.08339865
634.94,68.55351,-3.01856,0.08244367
635.54,68.61378,-3.01856,0.08398397
636.14,68.6743,-3.01986,0.08248841
636.74,68.73481,-3.01988,0.0834032
637.34,68.79526,-3.01988,0.08379778
637.94,68.85563,-3.02053,0.08591083
638.54,68.91619,-3.0199,0.08507899
639.14,68.97662,-3.02024,0.08632388
639.74,69.0372,-3.02138,0.08741232
640.34,69.09758,-3.02251,0.08622459
640.94,69.15816,-3.02309,0.08987787
641.54,69.21864,-3.02383,0.0870746
642.14,69.27902,-3.02514,0.08758517
642.74,69.33932,-3.02448,0.08934907
643.34,69.39949,-3.02448,0.09026734
643.94,69.45957,-3.02448,0.08721099
644.54,69.51983,-3.02317,0.08616312
645.14,69.58001,-3.02449,0.08911902
645.74,69.64025,-3.02511,0.08804255
646.34,69.70067,-3.02515,0.09009116
646.94,69.76105,-3.02515,0.08946105
647.54,69.82145,-3.02515,0.08839244
648.14,69.88187,-3.02515,0.09011531
648.74,69.94224,-3.02647,0.08959516
649.34,70.00257,-3.02515,0.09007324
649.94,70.06297,-3.02515,0.09103311
650.54,70.12328,-3.02637,0.09050091
651.14,70.18365,-3.02647,0.09019795
651.74,70.24396,-3.02778,0.08782888
652.34,70.30427,-3.02778,0.08945482
652.94,70.36473,-3.02808,0.09056858
653.54,70.42509,-3.0291,0.08513062
654.14,70.48548,-3.0291,0.08739002
654.74,70.54596,-3.02791,0.08354045
655.34,70.60632,-3.02909,0.08900422
655.94,70.66692,-3.02909,0.08915889
656.54,70.72738,-3.02909,0.08767657
657.14,70.78797,-3.03008,0.08860077
657.74,70.84855,-3.03041,0.08923918
658.34,70.90901,-3.03041,0.09014916
658.94,70.96965,-3.03172,0.09098228
659.54,71.03039,-3.03172,0.08778527
660.14,71.09114,-3.03043,0.08566622
660.74,71.15192,-3.03054,0.08746257
661.34,71.21254,-3.03238,0.08795956
661.94,71.27312,-3.03238,0.0881104
662.54,71.33375,-3.03311,0.08583175
663.14,71.39426,-3.03228,0.08757229
663.74,71.45507,-3.03371,0.08538543
664.34,71.51583,-3.03371,0.08579477
664.94,71.57648,-3.03371,0.08568496
665.54,71.63707,-3.03371,0.08757441
666.14,71.69754,-3.03454,0.08912439
666.74,71.75803,-3.03502,0.08884858
667.34,71.81839,-3.03502,0.09035312
667.94,71.87868,-3.03502,0.08744882
668.54,71.93901,-3.03502,0.08688881
669.14,71.99968,-3.03502,0.08484867
669.74,72.06033,-3.03634,0.08838325
670.34,72.12105,-3.03568,0.0900323
670.94,72.18157,-3.03568,0.0873267
671.54,72.24208,-3.03703,0.08690278
672.14,72.30232,-3.03568,0.0844591
672.74,72.36285,-3.03568,0.08547453
673.34,72.42334,-3.03567,0.0843961
673.94,72.48413,-3.03663,0.08349287
674.54,72.545,-3.0381,0.08593633
675.14,72.60561,-3.03832,0.08549148
675.74,72.66647,-3.03699,0.08414384
676.34,72.72729,-3.03719,0.08884302
676.94,72.78813,-3.03831,0.08773593
677.54,72.84878,-3.03829,0.08618225
678.14,72.90942,-3.03962,0.08602346
678.74,72.96982,-3.03962,0.08770838
679.34,73.03046,-3.03962,0.08731099
679.94,73.09092,-3.03959,0.08998185
680.54,73.15133,-3.04094,0.08503885
681.14,73.21175,-3.04097,0.08568285
681.74,73.27223,-3.04104,0.0846902
682.34,73.33283,-3.0409,0.0842054
682.94,73.39361,-3.04193,0.08760184
683.54,73.45433,-3.0422,0.08837987
684.14,73.51489,-3.04324,0.08730636
684.74,73.57554,-3.04223,0.08328455
685.34,73.63591,-3.04325,0.08267672
685.94,73.69652,-3.04325,0.08405971
686.54,73.75699,-3.04325,0.08198704
687.14,73.81756,-3.04383,0.0821012
687.74,73.87816,-3.04391,0.08526269
688.34,73.93863,-3.04457,0.0827207
688.94,73.99904,-3.04457,0.08442749
689.54,74.05948,-3.04588,0.08557188
690.14,74.11982,-3.04489,0.08383041
690.74,74.18065,-3.04588,0.08151587
691.34,74.24126,-3.04588,0.08377112
691.94,74.302,-3.04621,0.08593415
692.54,74.36274,-3.04753,0.08002797
693.14,74.42334,-3.04752,0.08207691
693.74,74.48393,-3.04752,0.08315356
694.34,74.5445,-3.04755,0.08069114
694.94,74.6051,-3.04719,0.08327263
695.54,74.66559,-3.04719,0.08350812
696.14,74.72621,-3.04719,0.08002823
696.74,74.78697,-3.04851,0.08290485
697.34,74.84774,-3.04851,0.08347111
697.94,74.90864,-3.04719,0.08286602
698.54,74.96959,-3.0472,0.08342286
699.14,75.03039,-3.04951,0.08324312
699.74,75.09124,-3.04854,0.08332554
700.34,75.15203,-3.04874,0.08181444
700.94,75.2127,-3.04978,0.08233935
701.54,75.27337,-3.05114,0.0799057
702.14,75.33417,-3.04981,0.08173629
702.74,75.39474,-3.04982,0.07850726
703.34,75.45571,-3.04994,0.07831864
703.94,75.51665,-3.05114,0.07933968
704.54,75.57748,-3.05112,0.07828721
705.14,75.63817,-3.04983,0.07560387
705.74,75.69883,-3.04983,0.08129284
706.34,75.75953,-3.05114,0.07741038
706.94,75.82056,-3.05114,0.07951767
707.54,75.8814,-3.05214,0.07678184
708.14,75.9421,-3.05222,0.07691772
708.74,76.00289,-3.05247,0.07499427
709.34,76.06366,-3.05147,0.07946322
709.94,76.12422,-3.05149,0.07898247
710.54,76.18503,-3.0528,0.0772334
711.14,76.24559,-3.05246,0.07936117
711.74,76.30631,-3.05381,0.08005294
712.34,76.3669,-3.05378,0.08033521
712.94,76.42737,-3.05496,0.07456422
713.54,76.48779,-3.05516,0.07605549
714.14,76.54825,-3.0541,0.0726934
714.74,76.60853,-3.0541,0.07350507
715.34,76.66915,-3.0541,0.07494097
715.94,76.72964,-3.05509,0.0744217
716.54,76.79038,-3.05575,0.07653655
717.14,76.85083,-3.05674,0.07387389
717.74,76.91127,-3.05674,0.0724054
718.34,76.97176,-3.0571,0.07481167
718.94,77.03237,-3.05707,0.07351348
719.54,77.09316,-3.05707,0.07504548
720.14,77.15399,-3.05707,0.07415793
720.74,77.21476,-3.05707,0.07279559
721.34,77.27538,-3.05707,0.07473396
721.94,77.33625,-3.05707,0.07535806
722.54,77.39705,-3.05845,0.0712749
723.14,77.45793,-3.05674,0.07190245
723.74,77.51881,-3.05671,0.07207747
724.34,77.57981,-3.05805,0.07189865
724.94,77.64064,-3.06039,0.07194009
725.54,77.7015,-3.06036,0.06926838
726.14,77.76236,-3.06036,0.06596573
726.74,77.82313,-3.05962,0.06817712
727.34,77.88408,-3.06008,0.06687011
727.94,77.945,-3.06035,0.06733408
728.54,78.00605,-3.06035,0.0620096
729.14,78.06697,-3.06035,0.0626225
729.74,78.12808,-3.06035,0.06380429
730.34,78.18891,-3.06099,0.06227812
730.94,78.25005,-3.06167,0.06116556
731.54,78.31093,-3.0616,0.05927124
732.14,78.37211,-3.06126,0.05900755
732.74,78.43303,-3.06298,0.05890838
733.34,78.49396,-3.06298,0.05668592
733.94,78.55473,-3.06268,0.05899947
734.54,78.61554,-3.06167,0.05605905
735.14,78.67633,-3.06167,0.053694
735.74,78.73707,-3.06219,0.05157634
736.34,78.79789,-3.063,0.05472806
736.94,78.85865,-3.06299,0.05351632
737.54,78.91953,-3.06299,0.04860246
738.14,78.98054,-3.06167,0.05204831
738.74,79.04161,-3.06308,0.04840941
739.34,79.10277,-3.06295,0.04979263
739.94,79.16395,-3.0643,0.04766313
740.54,79.22507,-3.0643,0.04671006
741.14,79.28606,-3.0643,0.04531258
741.74,79.3471,-3.06438,0.03948301
742.34,79.40807,-3.06299,0.04387348
742.94,79.46907,-3.06299,0.03838814
743.54,79.52976,-3.06298,0.04173819
744.14,79.59055,-3.06496,0.03909502
744.74,79.65118,-3.06496,0.03835436
745.34,79.71196,-3.06557,0.03763502
745.94,79.77274,-3.06507,0.03489147
746.54,79.83351,-3.06496,0.03326775
747.14,79.89432,-3.06496,0.03352219
747.74,79.95511,-3.06496,0.02992333
748.34,80.01589,-3.06496,0.02767672
748.94,80.07634,-3.06626,0.02966771
749.54,80.13719,-3.06628,0.02906736
750.14,80.19816,-3.06628,0.03230672
750.74,80.25941,-3.06726,0.02868169
751.34,80.32078,-3.06597,0.03162083
751.94,80.38186,-3.066,0.02608158
752.54,80.44286,-3.06596,0.02745022
753.14,80.50381,-3.06595,0.02993029
753.74,80.56475,-3.06651,0.02966257
754.34,80.6257,-3.06694,0.02714335
754.94,80.68675,-3.06693,0.02411573
755.54,80.74768,-3.06825,0.02290497
756.14,80.80867,-3.06695,0.02105544
756.74,80.86934,-3.06693,0.02100429
757.34,80.93047,-3.06693,0.02099994
757.94,80.99174,-3.06711,0.01610594
758.54,81.05313,-3.0669,0.01678544
759.14,81.11423,-3.06852,0.01712939
759.74,81.1754,-3.06957,0.01685517
760.34,81.23652,-3.06958,0.01696932
760.94,81.2972,-3.06832,0.01236228
761.54,81.35811,-3.06761,0.01276295
762.14,81.41907,-3.06826,0.01234696
762.74,81.48038,-3.06826,0.01129559
763.34,81.54165,-3.06965,0.01097009
763.94,81.60272,-3.06858,0.009639652
764.54,81.66375,-3.06858,0.009964395
765.14,81.7246,-3.06857,0.01310635
765.74,81.78542,-3.06989,0.006448978
766.34,81.84624,-3.07059,0.005619632
766.94,81.90703,-3.0699,0.003385913
767.54,81.96802,-3.0699,0.007752576
768.14,82.02877,-3.07086,0.004946229
768.74,82.08958,-3.07123,0.002691348
769.34,82.15038,-3.07151,0.00210189
769.94,82.21134,-3.07121,0.002399876
770.54,82.27245,-3.07121,-0.001795727
771.14,82.3334,-3.07121,-0.000220253
771.74,82.39423,-3.07386,4.77E-05
772.34,82.45505,-3.07255,-0.005518446
772.94,82.51575,-3.07288,-0.00297946
773.54,82.57673,-3.07353,-0.004479608
774.14,82.63799,-3.07352,-0.002489907
774.74,82.69929,-3.07352,-0.00179982
775.34,82.76077,-3.07323,-0.01030373
775.94,82.82167,-3.07316,-0.004370101
776.54,82.88252,-3.07451,-0.01077433
777.14,82.94344,-3.07459,-0.01073181
777.74,83.00444,-3.07425,-0.009006331
778.34,83.06528,-3.0745,-0.01397822
778.94,83.12631,-3.0745,-0.01102415
779.54,83.18745,-3.0745,-0.01053097
780.14,83.24848,-3.0745,-0.01699737
780.74,83.30948,-3.07385,-0.01182039
781.34,83.37024,-3.07517,-0.01677733
781.94,83.43098,-3.07517,-0.02227202
782.54,83.49176,-3.07575,-0.02211329
783.14,83.55263,-3.07648,-0.02369988
783.74,83.61335,-3.07648,-0.02449246
784.34,83.67428,-3.0765,-0.02308851
784.94,83.73538,-3.07707,-0.02565356
785.54,83.79635,-3.0778,-0.02715095
786.14,83.85748,-3.07754,-0.0276149
786.74,83.91839,-3.07714,-0.02770686
787.34,83.97929,-3.07515,-0.02738589
787.94,84.04026,-3.07587,-0.02739502
788.54,84.10122,-3.07629,-0.03018097
789.14,84.1623,-3.078,-0.03144537
789.74,84.22329,-3.07814,-0.03074527
790.34,84.28416,-3.07942,-0.03204376
790.94,84.34504,-3.07811,-0.03354762
791.54,84.40611,-3.07681,-0.03527737
792.14,84.4671,-3.07816,-0.0390259
792.74,84.528,-3.07714,-0.03600258
793.34,84.58912,-3.07714,-0.03375743
793.94,84.65006,-3.07714,-0.03723712
794.54,84.71113,-3.07714,-0.03800648
795.14,84.77196,-3.07714,-0.03629023
795.74,84.83276,-3.07714,-0.04256137
796.34,84.89365,-3.07855,-0.04206951
796.94,84.95457,-3.07846,-0.04399673
797.34,84.99571,-3.07846,-0.04063048