File: 01_Data/Window_Screen/FTIR/IS/Window_Screen_IS_S_220829_R8.dpt
7497.03,0.03665
7491.25,0.05164
7485.46,0.04136
7479.67,0.04026
7473.89,0.03600
7468.1,0.03807
7462.32,0.04386
7456.53,0.03793
7450.74,0.03841
7444.96,0.03880
7439.17,0.03515
7433.38,0.03195
7427.6,0.03874
7421.81,0.04008
7416.03,0.03717
7410.24,0.04622
7404.45,0.03976
7398.67,0.04142
7392.88,0.03548
7387.09,0.04346
7381.31,0.04520
7375.52,0.03888
7369.74,0.04313
7363.95,0.04735
7358.16,0.03723
7352.38,0.04217
7346.59,0.04056
7340.8,0.03822
7335.02,0.03744
7329.23,0.03027
7323.45,0.03314
7317.66,0.03995
7311.87,0.03799
7306.09,0.03464
7300.3,0.03650
7294.51,0.03637
7288.73,0.03388
7282.94,0.04291
7277.16,0.03480
7271.37,0.04067
7265.58,0.04216
7259.8,0.03810
7254.01,0.03858
7248.22,0.05109
7242.44,0.04398
7236.65,0.04150
7230.87,0.03816
7225.08,0.03677
7219.29,0.03559
7213.51,0.03564
7207.72,0.03622
7201.93,0.03644
7196.15,0.03691
7190.36,0.04034
7184.58,0.03927
7178.79,0.04032
7173,0.03883
7167.22,0.04055
7161.43,0.03792
7155.65,0.04448
7149.86,0.04452
7144.07,0.04005
7138.29,0.03877
7132.5,0.04001
7126.71,0.04062
7120.93,0.03868
7115.14,0.04139
7109.36,0.03895
7103.57,0.03877
7097.78,0.03960
7092,0.04501
7086.21,0.03679
7080.42,0.04439
7074.64,0.03765
7068.85,0.03245
7063.07,0.03371
7057.28,0.03801
7051.49,0.03464
7045.71,0.03870
7039.92,0.04051
7034.13,0.04081
7028.35,0.04037
7022.56,0.03693
7016.78,0.03348
7010.99,0.03349
7005.2,0.03871
6999.42,0.03759
6993.63,0.04123
6987.84,0.03871
6982.06,0.03463
6976.27,0.03507
6970.49,0.03797
6964.7,0.04235
6958.91,0.04104
6953.13,0.04288
6947.34,0.03824
6941.55,0.03873
6935.77,0.03807
6929.98,0.04101
6924.2,0.03638
6918.41,0.03736
6912.62,0.03646
6906.84,0.03409
6901.05,0.04328
6895.26,0.03827
6889.48,0.03900
6883.69,0.04010
6877.91,0.03933
6872.12,0.04113
6866.33,0.03861
6860.55,0.04329
6854.76,0.04374
6848.97,0.03773
6843.19,0.03447
6837.4,0.03616
6831.62,0.03818
6825.83,0.03782
6820.04,0.03444
6814.26,0.03521
6808.47,0.03838
6802.68,0.04021
6796.9,0.03645
6791.11,0.03709
6785.33,0.03431
6779.54,0.03281
6773.75,0.03344
6767.97,0.03687
6762.18,0.03842
6756.39,0.03842
6750.61,0.03810
6744.82,0.03519
6739.04,0.03840
6733.25,0.03277
6727.46,0.03320
6721.68,0.03898
6715.89,0.04234
6710.1,0.04376
6704.32,0.03724
6698.53,0.03634
6692.75,0.03487
6686.96,0.03634
6681.17,0.03539
6675.39,0.03475
6669.6,0.03485
6663.82,0.04255
6658.03,0.03821
6652.24,0.03473
6646.46,0.03708
6640.67,0.03672
6634.88,0.03486
6629.1,0.03530
6623.31,0.03528
6617.53,0.03751
6611.74,0.03910
6605.95,0.03642
6600.17,0.03764
6594.38,0.03753
6588.59,0.03710
6582.81,0.03617
6577.02,0.03285
6571.24,0.03478
6565.45,0.03821
6559.66,0.03598
6553.88,0.03550
6548.09,0.04102
6542.3,0.03689
6536.52,0.03666
6530.73,0.03639
6524.95,0.03654
6519.16,0.04027
6513.37,0.03366
6507.59,0.03399
6501.8,0.03692
6496.01,0.03550
6490.23,0.03674
6484.44,0.03373
6478.66,0.03498
6472.87,0.03790
6467.08,0.03363
6461.3,0.03718
6455.51,0.03710
6449.72,0.03827
6443.94,0.03353
6438.15,0.04079
6432.37,0.03396
6426.58,0.04104
6420.79,0.03822
6415.01,0.03575
6409.22,0.03502
6403.43,0.03764
6397.65,0.03815
6391.86,0.03682
6386.08,0.03781
6380.29,0.03749
6374.5,0.03722
6368.72,0.03685
6362.93,0.03323
6357.14,0.03702
6351.36,0.03748
6345.57,0.04116
6339.79,0.03700
6334,0.03736
6328.21,0.03907
6322.43,0.03563
6316.64,0.03585
6310.85,0.03862
6305.07,0.03959
6299.28,0.03919
6293.5,0.04262
6287.71,0.03545
6281.92,0.03836
6276.14,0.03657
6270.35,0.03473
6264.56,0.03334
6258.78,0.03311
6252.99,0.03866
6247.21,0.04034
6241.42,0.03813
6235.63,0.03772
6229.85,0.03725
6224.06,0.03638
6218.27,0.03730
6212.49,0.03419
6206.7,0.03477
6200.92,0.03767
6195.13,0.03748
6189.34,0.03906
6183.56,0.03846
6177.77,0.03863
6171.98,0.03989
6166.2,0.03689
6160.41,0.03650
6154.63,0.03595
6148.84,0.03628
6143.05,0.03771
6137.27,0.03719
6131.48,0.03775
6125.7,0.03782
6119.91,0.03723
6114.12,0.03607
6108.34,0.03765
6102.55,0.03469
6096.76,0.04056
6090.98,0.03642
6085.19,0.03688
6079.41,0.03764
6073.62,0.03720
6067.83,0.03809
6062.05,0.03788
6056.26,0.03770
6050.47,0.03550
6044.69,0.03598
6038.9,0.03555
6033.12,0.03821
6027.33,0.03688
6021.54,0.03761
6015.76,0.03661
6009.97,0.03731
6004.18,0.03676
5998.4,0.03941
5992.61,0.03657
5986.83,0.03748
5981.04,0.03721
5975.25,0.03922
5969.47,0.03686
5963.68,0.03699
5957.89,0.03627
5952.11,0.03609
5946.32,0.03651
5940.54,0.03519
5934.75,0.03672
5928.96,0.04099
5923.18,0.03796
5917.39,0.03796
5911.6,0.03609
5905.82,0.03588
5900.03,0.03573
5894.25,0.03761
5888.46,0.03616
5882.67,0.03278
5876.89,0.03572
5871.1,0.03669
5865.31,0.03720
5859.53,0.03729
5853.74,0.03791
5847.96,0.03661
5842.17,0.03715
5836.38,0.03587
5830.6,0.03658
5824.81,0.03639
5819.02,0.03767
5813.24,0.03514
5807.45,0.03622
5801.67,0.03761
5795.88,0.03648
5790.09,0.03656
5784.31,0.03599
5778.52,0.03798
5772.73,0.03797
5766.95,0.03877
5761.16,0.03835
5755.38,0.03672
5749.59,0.03757
5743.8,0.03744
5738.02,0.03582
5732.23,0.03568
5726.44,0.03670
5720.66,0.03726
5714.87,0.03868
5709.09,0.03780
5703.3,0.03783
5697.51,0.03528
5691.73,0.03581
5685.94,0.03712
5680.15,0.03664
5674.37,0.03896
5668.58,0.03825
5662.8,0.03737
5657.01,0.03633
5651.22,0.03674
5645.44,0.03818
5639.65,0.03788
5633.87,0.03902
5628.08,0.03772
5622.29,0.03964
5616.51,0.03703
5610.72,0.03697
5604.93,0.03841
5599.15,0.03733
5593.36,0.03821
5587.58,0.03755
5581.79,0.03760
5576,0.03767
5570.22,0.03685
5564.43,0.03700
5558.64,0.03794
5552.86,0.03754
5547.07,0.03790
5541.29,0.03733
5535.5,0.03824
5529.71,0.03806
5523.93,0.03835
5518.14,0.03897
5512.35,0.03664
5506.57,0.03900
5500.78,0.03728
5495,0.03794
5489.21,0.03675
5483.42,0.03797
5477.64,0.03722
5471.85,0.03916
5466.06,0.03898
5460.28,0.03799
5454.49,0.03778
5448.71,0.03618
5442.92,0.03819
5437.13,0.03875
5431.35,0.03905
5425.56,0.03912
5419.77,0.03916
5413.99,0.03824
5408.2,0.03871
5402.42,0.03749
5396.63,0.03731
5390.84,0.03727
5385.06,0.03773
5379.27,0.03867
5373.48,0.03732
5367.7,0.03934
5361.91,0.03774
5356.13,0.03679
5350.34,0.03820
5344.55,0.03710
5338.77,0.03855
5332.98,0.03862
5327.19,0.03717
5321.41,0.03683
5315.62,0.03912
5309.84,0.03789
5304.05,0.03651
5298.26,0.03882
5292.48,0.03870
5286.69,0.03769
5280.9,0.03880
5275.12,0.03837
5269.33,0.03900
5263.55,0.03820
5257.76,0.03882
5251.97,0.03938
5246.19,0.03930
5240.4,0.03934
5234.61,0.03953
5228.83,0.03910
5223.04,0.03807
5217.26,0.03954
5211.47,0.03975
5205.68,0.03876
5199.9,0.03862
5194.11,0.03845
5188.32,0.03851
5182.54,0.03827
5176.75,0.03730
5170.97,0.03745
5165.18,0.03861
5159.39,0.03986
5153.61,0.03960
5147.82,0.03835
5142.03,0.03866
5136.25,0.03853
5130.46,0.03919
5124.68,0.03838
5118.89,0.03880
5113.1,0.03927
5107.32,0.03936
5101.53,0.03922
5095.75,0.03803
5089.96,0.04065
5084.17,0.04015
5078.39,0.03952
5072.6,0.03867
5066.81,0.03874
5061.03,0.03926
5055.24,0.03779
5049.46,0.03952
5043.67,0.03968
5037.88,0.03865
5032.1,0.03817
5026.31,0.03962
5020.52,0.03796
5014.74,0.03883
5008.95,0.03895
5003.17,0.04045
4997.38,0.04005
4991.59,0.03958
4985.81,0.03815
4980.02,0.03821
4974.23,0.04020
4968.45,0.03892
4962.66,0.03914
4956.88,0.03953
4951.09,0.03947
4945.3,0.03958
4939.52,0.03976
4933.73,0.03949
4927.94,0.03967
4922.16,0.03990
4916.37,0.03926
4910.59,0.03860
4904.8,0.03965
4899.01,0.03945
4893.23,0.03990
4887.44,0.03926
4881.65,0.03992
4875.87,0.03924
4870.08,0.03988
4864.3,0.03961
4858.51,0.03996
4852.72,0.04058
4846.94,0.03966
4841.15,0.03943
4835.36,0.03999
4829.58,0.03944
4823.79,0.03993
4818.01,0.03966
4812.22,0.04018
4806.43,0.03918
4800.65,0.03971
4794.86,0.03884
4789.07,0.03987
4783.29,0.03996
4777.5,0.04017
4771.72,0.04015
4765.93,0.04012
4760.14,0.04003
4754.36,0.03984
4748.57,0.03971
4742.78,0.03962
4737,0.03941
4731.21,0.04027
4725.43,0.03953
4719.64,0.03949
4713.85,0.04056
4708.07,0.03961
4702.28,0.03959
4696.49,0.04028
4690.71,0.04065
4684.92,0.04065
4679.14,0.04042
4673.35,0.03970
4667.56,0.04014
4661.78,0.03994
4655.99,0.04100
4650.2,0.04042
4644.42,0.04071
4638.63,0.03918
4632.85,0.03902
4627.06,0.03991
4621.27,0.03943
4615.49,0.03897
4609.7,0.04058
4603.92,0.04018
4598.13,0.04020
4592.34,0.03983
4586.56,0.04017
4580.77,0.03987
4574.98,0.04050
4569.2,0.03959
4563.41,0.03973
4557.63,0.04021
4551.84,0.04024
4546.05,0.04065
4540.27,0.04002
4534.48,0.04071
4528.69,0.04127
4522.91,0.04074
4517.12,0.04051
4511.34,0.04058
4505.55,0.04010
4499.76,0.04041
4493.98,0.04072
4488.19,0.04087
4482.4,0.04020
4476.62,0.04045
4470.83,0.04087
4465.05,0.04017
4459.26,0.03997
4453.47,0.03940
4447.69,0.04062
4441.9,0.04048
4436.11,0.03976
4430.33,0.03969
4424.54,0.03959
4418.76,0.03937
4412.97,0.03913
4407.18,0.03959
4401.4,0.03956
4395.61,0.03932
4389.82,0.03983
4384.04,0.03958
4378.25,0.03961
4372.47,0.03858
4366.68,0.03834
4360.89,0.03854
4355.11,0.03945
4349.32,0.03841
4343.53,0.03835
4337.75,0.03853
4331.96,0.03858
4326.18,0.03837
4320.39,0.03821
4314.6,0.03878
4308.82,0.03926
4303.03,0.03824
4297.24,0.03913
4291.46,0.03887
4285.67,0.03837
4279.89,0.03876
4274.1,0.03950
4268.31,0.03947
4262.53,0.03833
4256.74,0.03846
4250.95,0.03911
4245.17,0.03904
4239.38,0.03976
4233.6,0.03953
4227.81,0.03895
4222.02,0.03862
4216.24,0.03877
4210.45,0.03931
4204.66,0.03918
4198.88,0.03862
4193.09,0.03967
4187.31,0.03896
4181.52,0.03956
4175.73,0.03935
4169.95,0.03907
4164.16,0.03910
4158.37,0.03960
4152.59,0.03895
4146.8,0.03929
4141.02,0.03965
4135.23,0.03986
4129.44,0.03997
4123.66,0.03964
4117.87,0.04034
4112.09,0.03985
4106.3,0.03995
4100.51,0.03998
4094.73,0.03993
4088.94,0.03979
4083.15,0.03954
4077.37,0.03977
4071.58,0.03982
4065.8,0.03982
4060.01,0.03953
4054.22,0.04005
4048.44,0.04058
4042.65,0.03979
4036.86,0.04040
4031.08,0.04026
4025.29,0.04016
4019.51,0.04035
4013.72,0.04069
4007.93,0.04027
4002.15,0.04053
3996.36,0.04075
3990.57,0.04103
3984.79,0.04076
3979,0.04080
3973.22,0.04087
3967.43,0.04100
3961.64,0.04107
3955.86,0.04123
3950.07,0.04122
3944.28,0.04112
3938.5,0.04105
3932.71,0.04148
3926.93,0.04149
3921.14,0.04079
3915.35,0.04095
3909.57,0.04108
3903.78,0.04114
3897.99,0.04099
3892.21,0.04132
3886.42,0.04115
3880.64,0.04109
3874.85,0.04179
3869.06,0.04165
3863.28,0.04153
3857.49,0.04103
3851.7,0.04177
3845.92,0.04195
3840.13,0.04201
3834.35,0.04184
3828.56,0.04237
3822.77,0.04224
3816.99,0.04164
3811.2,0.04181
3805.41,0.04160
3799.63,0.04226
3793.84,0.04204
3788.06,0.04197
3782.27,0.04124
3776.48,0.04176
3770.7,0.04176
3764.91,0.04221
3759.12,0.04265
3753.34,0.04150
3747.55,0.04156
3741.77,0.04178
3735.98,0.04212
3730.19,0.04205
3724.41,0.04239
3718.62,0.04226
3712.83,0.04247
3707.05,0.04199
3701.26,0.04185
3695.48,0.04227
3689.69,0.04217
3683.9,0.04194
3678.12,0.04180
3672.33,0.04183
3666.54,0.04200
3660.76,0.04170
3654.97,0.04159
3649.19,0.04211
3643.4,0.04260
3637.61,0.04198
3631.83,0.04129
3626.04,0.04090
3620.25,0.04122
3614.47,0.04095
3608.68,0.04140
3602.9,0.04062
3597.11,0.04031
3591.32,0.04140
3585.54,0.04106
3579.75,0.04129
3573.97,0.04177
3568.18,0.04079
3562.39,0.04017
3556.61,0.04062
3550.82,0.04080
3545.03,0.04034
3539.25,0.04007
3533.46,0.04034
3527.68,0.04014
3521.89,0.03952
3516.1,0.04002
3510.32,0.04068
3504.53,0.04008
3498.74,0.04009
3492.96,0.03993
3487.17,0.03927
3481.39,0.03908
3475.6,0.03884
3469.81,0.03946
3464.03,0.03952
3458.24,0.03889
3452.45,0.03868
3446.67,0.03814
3440.88,0.03811
3435.1,0.03871
3429.31,0.03788
3423.52,0.03735
3417.74,0.03768
3411.95,0.03842
3406.16,0.03749
3400.38,0.03802
3394.59,0.03840
3388.81,0.03842
3383.02,0.03847
3377.23,0.03828
3371.45,0.03831
3365.66,0.03844
3359.87,0.03870
3354.09,0.03809
3348.3,0.03843
3342.52,0.03769
3336.73,0.03758
3330.94,0.03870
3325.16,0.03853
3319.37,0.03715
3313.58,0.03792
3307.8,0.03854
3302.01,0.03815
3296.23,0.03847
3290.44,0.03830
3284.65,0.03882
3278.87,0.03848
3273.08,0.03878
3267.29,0.03826
3261.51,0.03816
3255.72,0.03852
3249.94,0.03915
3244.15,0.03831
3238.36,0.03805
3232.58,0.03849
3226.79,0.03933
3221,0.03860
3215.22,0.03877
3209.43,0.03954
3203.65,0.03871
3197.86,0.03885
3192.07,0.03814
3186.29,0.03837
3180.5,0.03879
3174.71,0.03849
3168.93,0.03945
3163.14,0.03900
3157.36,0.03880
3151.57,0.03892
3145.78,0.03894
3140,0.03892
3134.21,0.03907
3128.42,0.03949
3122.64,0.03925
3116.85,0.03844
3111.07,0.03885
3105.28,0.03892
3099.49,0.03875
3093.71,0.03812
3087.92,0.03824
3082.14,0.03785
3076.35,0.03754
3070.56,0.03712
3064.78,0.03738
3058.99,0.03704
3053.2,0.03650
3047.42,0.03693
3041.63,0.03636
3035.85,0.03700
3030.06,0.03713
3024.27,0.03643
3018.49,0.03596
3012.7,0.03479
3006.91,0.03380
3001.13,0.03284
2995.34,0.03166
2989.56,0.03010
2983.77,0.02887
2977.98,0.02772
2972.2,0.02641
2966.41,0.02683
2960.62,0.02648
2954.84,0.02692
2949.05,0.02779
2943.27,0.02739
2937.48,0.02693
2931.69,0.02686
2925.91,0.02751
2920.12,0.02852
2914.33,0.02853
2908.55,0.02864
2902.76,0.02858
2896.98,0.02927
2891.19,0.02981
2885.4,0.02928
2879.62,0.02889
2873.83,0.02922
2868.04,0.02902
2862.26,0.02940
2856.47,0.02900
2850.69,0.03013
2844.9,0.03109
2839.11,0.03191
2833.33,0.03368
2827.54,0.03455
2821.75,0.03437
2815.97,0.03454
2810.18,0.03587
2804.4,0.03675
2798.61,0.03746
2792.82,0.03780
2787.04,0.03812
2781.25,0.03897
2775.46,0.03927
2769.68,0.03935
2763.89,0.03918
2758.11,0.03893
2752.32,0.03904
2746.53,0.03929
2740.75,0.03874
2734.96,0.03890
2729.17,0.03899
2723.39,0.03906
2717.6,0.04012
2711.82,0.04000
2706.03,0.03984
2700.24,0.03991
2694.46,0.04040
2688.67,0.04008
2682.88,0.04023
2677.1,0.04078
2671.31,0.04053
2665.53,0.04070
2659.74,0.04088
2653.95,0.04070
2648.17,0.04101
2642.38,0.04096
2636.59,0.04074
2630.81,0.04106
2625.02,0.04106
2619.24,0.04096
2613.45,0.04141
2607.66,0.04108
2601.88,0.04141
2596.09,0.04174
2590.3,0.04095
2584.52,0.04147
2578.73,0.04112
2572.95,0.04190
2567.16,0.04147
2561.37,0.04145
2555.59,0.04134
2549.8,0.04168
2544.02,0.04209
2538.23,0.04158
2532.44,0.04203
2526.66,0.04239
2520.87,0.04247
2515.08,0.04225
2509.3,0.04241
2503.51,0.04247
2497.73,0.04267
2491.94,0.04284
2486.15,0.04259
2480.37,0.04281
2474.58,0.04314
2468.79,0.04299
2463.01,0.04309
2457.22,0.04328
2451.44,0.04324
2445.65,0.04295
2439.86,0.04318
2434.08,0.04333
2428.29,0.04284
2422.5,0.04292
2416.72,0.04283
2410.93,0.04263
2405.15,0.04255
2399.36,0.04262
2393.57,0.04225
2387.79,0.04219
2382,0.04202
2376.21,0.04241
2370.43,0.04294
2364.64,0.04315
2358.86,0.04289
2353.07,0.04316
2347.28,0.04314
2341.5,0.04384
2335.71,0.04402
2329.92,0.04389
2324.14,0.04410
2318.35,0.04384
2312.57,0.04405
2306.78,0.04440
2300.99,0.04449
2295.21,0.04410
2289.42,0.04383
2283.63,0.04331
2277.85,0.04350
2272.06,0.04384
2266.28,0.04396
2260.49,0.04365
2254.7,0.04403
2248.92,0.04434
2243.13,0.04409
2237.34,0.04373
2231.56,0.04412
2225.77,0.04379
2219.99,0.04406
2214.2,0.04413
2208.41,0.04433
2202.63,0.04390
2196.84,0.04422
2191.05,0.04439
2185.27,0.04455
2179.48,0.04475
2173.7,0.04453
2167.91,0.04445
2162.12,0.04438
2156.34,0.04501
2150.55,0.04463
2144.76,0.04458
2138.98,0.04455
2133.19,0.04455
2127.41,0.04450
2121.62,0.04399
2115.83,0.04431
2110.05,0.04389
2104.26,0.04412
2098.47,0.04428
2092.69,0.04418
2086.9,0.04414
2081.12,0.04388
2075.33,0.04368
2069.54,0.04400
2063.76,0.04421
2057.97,0.04410
2052.19,0.04420
2046.4,0.04435
2040.61,0.04401
2034.83,0.04391
2029.04,0.04390
2023.25,0.04414
2017.47,0.04396
2011.68,0.04385
2005.9,0.04429
2000.11,0.04411
1994.32,0.04379
1988.54,0.04356
1982.75,0.04369
1976.96,0.04318
1971.18,0.04323
1965.39,0.04299
1959.61,0.04252
1953.82,0.04210
1948.03,0.04130
1942.25,0.04189
1936.46,0.04234
1930.67,0.04260
1924.89,0.04283
1919.1,0.04287
1913.32,0.04283
1907.53,0.04286
1901.74,0.04306
1895.96,0.04300
1890.17,0.04296
1884.38,0.04293
1878.6,0.04271
1872.81,0.04259
1867.03,0.04266
1861.24,0.04226
1855.45,0.04244
1849.67,0.04206
1843.88,0.04156
1838.09,0.04108
1832.31,0.04063
1826.52,0.04009
1820.74,0.03983
1814.95,0.03972
1809.16,0.03997
1803.38,0.03992
1797.59,0.03945
1791.8,0.03902
1786.02,0.03853
1780.23,0.03787
1774.45,0.03683
1768.66,0.03613
1762.87,0.03506
1757.09,0.03345
1751.3,0.03159
1745.51,0.02989
1739.73,0.02802
1733.94,0.02654
1728.16,0.02557
1722.37,0.02642
1716.58,0.02858
1710.8,0.02902
1705.01,0.02953
1699.22,0.03075
1693.44,0.03177
1687.65,0.03259
1681.87,0.03259
1676.08,0.03257
1670.29,0.03288
1664.51,0.03429
1658.72,0.03507
1652.93,0.03534
1647.15,0.03605
1641.36,0.03673
1635.58,0.03658
1629.79,0.03688
1624,0.03626
1618.22,0.03605
1612.43,0.03560
1606.64,0.03555
1600.86,0.03610
1595.07,0.03563
1589.29,0.03537
1583.5,0.03445
1577.71,0.03253
1571.93,0.03354
1566.14,0.03420
1560.35,0.03385
1554.57,0.03402
1548.78,0.03448
1543,0.03521
1537.21,0.03461
1531.42,0.03450
1525.64,0.03475
1519.85,0.03483
1514.07,0.03404
1508.28,0.03241
1502.49,0.03196
1496.71,0.03375
1490.92,0.03363
1485.13,0.03257
1479.35,0.03082
1473.56,0.02834
1467.78,0.02699
1461.99,0.02747
1456.2,0.02778
1450.42,0.02849
1444.63,0.02855
1438.84,0.02768
1433.06,0.02712
1427.27,0.02703
1421.49,0.02783
1415.7,0.02833
1409.91,0.02769
1404.13,0.02863
1398.34,0.02935
1392.55,0.02856
1386.77,0.02790
1380.98,0.02746
1375.2,0.02833
1369.41,0.02849
1363.62,0.02817
1357.84,0.02803
1352.05,0.02774
1346.26,0.02769
1340.48,0.02673
1334.69,0.02614
1328.91,0.02627
1323.12,0.02658
1317.33,0.02587
1311.55,0.02600
1305.76,0.02572
1299.97,0.02540
1294.19,0.02495
1288.4,0.02418
1282.62,0.02423
1276.83,0.02513
1271.04,0.02806
1265.26,0.02958
1259.47,0.02899
1253.68,0.02945
1247.9,0.03028
1242.11,0.03090
1236.33,0.03043
1230.54,0.03046
1224.75,0.03122
1218.97,0.03116
1213.18,0.03073
1207.39,0.03056
1201.61,0.02985
1195.82,0.02996
1190.04,0.03022
1184.25,0.03035
1178.46,0.03045
1172.68,0.02940
1166.89,0.02969
1161.1,0.02959
1155.32,0.02902
1149.53,0.02912
1143.75,0.02873
1137.96,0.02784
1132.17,0.02624
1126.39,0.02545
1120.6,0.02596
1114.81,0.02747
1109.03,0.02769
1103.24,0.02822
1097.46,0.02901
1091.67,0.02902
1085.88,0.02940
1080.1,0.02958
1074.31,0.03029
1068.52,0.03063
1062.74,0.03178
1056.95,0.03153
1051.17,0.03192
1045.38,0.03097
1039.59,0.03195
1033.81,0.03074
1028.02,0.03031
1022.24,0.02787
1016.45,0.03011
1010.66,0.03146
1004.88,0.03175
999.09,0.03135
993.304,0.03072
987.518,0.03056
981.731,0.02975
975.945,0.02977
970.159,0.02944
964.373,0.02919
958.586,0.02945
952.8,0.03002
947.014,0.03012
941.228,0.02984
935.441,0.03067
929.655,0.03075
923.869,0.03023
918.083,0.03136
912.297,0.03164
906.51,0.03140
900.724,0.03199
894.938,0.03213
889.152,0.03279
883.365,0.03190
877.579,0.03006
871.793,0.03068
866.007,0.03078
860.22,0.03144
854.434,0.03237
848.648,0.03192
842.862,0.03234
837.075,0.03148
831.289,0.03144
825.503,0.03223
819.717,0.03417
813.931,0.03404
808.144,0.03441
802.358,0.03383
796.572,0.03422
790.786,0.03378
784.999,0.03295
779.213,0.03303
773.427,0.03139
767.641,0.03168
761.854,0.03231
756.068,0.03227
750.282,0.03152
744.496,0.03017
738.709,0.02802
732.923,0.02605
727.137,0.02982
721.351,0.03099
715.565,0.03155
709.778,0.03052
703.992,0.02926
698.206,0.02862
692.42,0.03017
686.633,0.02918
680.847,0.02891
675.061,0.02974
669.275,0.03076
663.488,0.03025
657.702,0.02938
651.916,0.02805
646.13,0.02601
640.343,0.02517
634.557,0.02707
628.771,0.02605
622.985,0.02656
617.198,0.02653
611.412,0.02693
605.626,0.02734
599.84,0.02954