File: 01_Data/Window_Screen/FTIR/IS/Window_Screen_IS_S_220829_R2.dpt
7497.03,0.04429
7491.25,0.04269
7485.46,0.03003
7479.67,0.03553
7473.89,0.03724
7468.1,0.03263
7462.32,0.03875
7456.53,0.03175
7450.74,0.03930
7444.96,0.03496
7439.17,0.03482
7433.38,0.04723
7427.6,0.03538
7421.81,0.03724
7416.03,0.03621
7410.24,0.04322
7404.45,0.04200
7398.67,0.03885
7392.88,0.03334
7387.09,0.02397
7381.31,0.03763
7375.52,0.03970
7369.74,0.03802
7363.95,0.03641
7358.16,0.04237
7352.38,0.04439
7346.59,0.03067
7340.8,0.04166
7335.02,0.04614
7329.23,0.04017
7323.45,0.03348
7317.66,0.03666
7311.87,0.03851
7306.09,0.04579
7300.3,0.02864
7294.51,0.03793
7288.73,0.03314
7282.94,0.03114
7277.16,0.02675
7271.37,0.03015
7265.58,0.03516
7259.8,0.03772
7254.01,0.04084
7248.22,0.03776
7242.44,0.03999
7236.65,0.04554
7230.87,0.03597
7225.08,0.04145
7219.29,0.04207
7213.51,0.03672
7207.72,0.03531
7201.93,0.03999
7196.15,0.03594
7190.36,0.04532
7184.58,0.03682
7178.79,0.03850
7173,0.03911
7167.22,0.03577
7161.43,0.03252
7155.65,0.03205
7149.86,0.03878
7144.07,0.03864
7138.29,0.03857
7132.5,0.04348
7126.71,0.03869
7120.93,0.03964
7115.14,0.04087
7109.36,0.03450
7103.57,0.04022
7097.78,0.04065
7092,0.03819
7086.21,0.03881
7080.42,0.03667
7074.64,0.03717
7068.85,0.03898
7063.07,0.03412
7057.28,0.04116
7051.49,0.03414
7045.71,0.03479
7039.92,0.03859
7034.13,0.03785
7028.35,0.03775
7022.56,0.03273
7016.78,0.03630
7010.99,0.03607
7005.2,0.04060
6999.42,0.03444
6993.63,0.03922
6987.84,0.03656
6982.06,0.04195
6976.27,0.03749
6970.49,0.03721
6964.7,0.04123
6958.91,0.03875
6953.13,0.03422
6947.34,0.03937
6941.55,0.04114
6935.77,0.03519
6929.98,0.03885
6924.2,0.03891
6918.41,0.03983
6912.62,0.03554
6906.84,0.04128
6901.05,0.03804
6895.26,0.03833
6889.48,0.03811
6883.69,0.04166
6877.91,0.03672
6872.12,0.03901
6866.33,0.03547
6860.55,0.03447
6854.76,0.04435
6848.97,0.03431
6843.19,0.03760
6837.4,0.03744
6831.62,0.04089
6825.83,0.04126
6820.04,0.03523
6814.26,0.04083
6808.47,0.03865
6802.68,0.04232
6796.9,0.03740
6791.11,0.03320
6785.33,0.03551
6779.54,0.03803
6773.75,0.04086
6767.97,0.03948
6762.18,0.03346
6756.39,0.03245
6750.61,0.03635
6744.82,0.03887
6739.04,0.04120
6733.25,0.03974
6727.46,0.03717
6721.68,0.03692
6715.89,0.03634
6710.1,0.03838
6704.32,0.03497
6698.53,0.03931
6692.75,0.03758
6686.96,0.03848
6681.17,0.03801
6675.39,0.03552
6669.6,0.03913
6663.82,0.03477
6658.03,0.03591
6652.24,0.03982
6646.46,0.04060
6640.67,0.03792
6634.88,0.03969
6629.1,0.03738
6623.31,0.03428
6617.53,0.03717
6611.74,0.03877
6605.95,0.03773
6600.17,0.03570
6594.38,0.03473
6588.59,0.03323
6582.81,0.03880
6577.02,0.03592
6571.24,0.04067
6565.45,0.03666
6559.66,0.03130
6553.88,0.03366
6548.09,0.03810
6542.3,0.03393
6536.52,0.03875
6530.73,0.04485
6524.95,0.03943
6519.16,0.03363
6513.37,0.03821
6507.59,0.03484
6501.8,0.03815
6496.01,0.04173
6490.23,0.03887
6484.44,0.03680
6478.66,0.03560
6472.87,0.03429
6467.08,0.03314
6461.3,0.03972
6455.51,0.03789
6449.72,0.03453
6443.94,0.03736
6438.15,0.03593
6432.37,0.03425
6426.58,0.03713
6420.79,0.03566
6415.01,0.03605
6409.22,0.03748
6403.43,0.03378
6397.65,0.03580
6391.86,0.03505
6386.08,0.03572
6380.29,0.03605
6374.5,0.03871
6368.72,0.03786
6362.93,0.03423
6357.14,0.03690
6351.36,0.03479
6345.57,0.03579
6339.79,0.04102
6334,0.03627
6328.21,0.03772
6322.43,0.03686
6316.64,0.03947
6310.85,0.03712
6305.07,0.03420
6299.28,0.03847
6293.5,0.03509
6287.71,0.03618
6281.92,0.03741
6276.14,0.03685
6270.35,0.03874
6264.56,0.03980
6258.78,0.03414
6252.99,0.03476
6247.21,0.03656
6241.42,0.03765
6235.63,0.03738
6229.85,0.03608
6224.06,0.03757
6218.27,0.03692
6212.49,0.03651
6206.7,0.03902
6200.92,0.04041
6195.13,0.03554
6189.34,0.03712
6183.56,0.03708
6177.77,0.04070
6171.98,0.03560
6166.2,0.03606
6160.41,0.03785
6154.63,0.03787
6148.84,0.03496
6143.05,0.03679
6137.27,0.03706
6131.48,0.03591
6125.7,0.03570
6119.91,0.03890
6114.12,0.03740
6108.34,0.03763
6102.55,0.03707
6096.76,0.04050
6090.98,0.03769
6085.19,0.03952
6079.41,0.03894
6073.62,0.03852
6067.83,0.03612
6062.05,0.03905
6056.26,0.03571
6050.47,0.03648
6044.69,0.03725
6038.9,0.03698
6033.12,0.03654
6027.33,0.03784
6021.54,0.03623
6015.76,0.03488
6009.97,0.03806
6004.18,0.03334
5998.4,0.03808
5992.61,0.03592
5986.83,0.03653
5981.04,0.03748
5975.25,0.03721
5969.47,0.03953
5963.68,0.03914
5957.89,0.03918
5952.11,0.03862
5946.32,0.03669
5940.54,0.03642
5934.75,0.03749
5928.96,0.03570
5923.18,0.03669
5917.39,0.03765
5911.6,0.03612
5905.82,0.03677
5900.03,0.03596
5894.25,0.03874
5888.46,0.03948
5882.67,0.03866
5876.89,0.03839
5871.1,0.03805
5865.31,0.03739
5859.53,0.03651
5853.74,0.03644
5847.96,0.03783
5842.17,0.03515
5836.38,0.03605
5830.6,0.03600
5824.81,0.03585
5819.02,0.03645
5813.24,0.03692
5807.45,0.03772
5801.67,0.03633
5795.88,0.03608
5790.09,0.03733
5784.31,0.03829
5778.52,0.03742
5772.73,0.03830
5766.95,0.03737
5761.16,0.03602
5755.38,0.03488
5749.59,0.03474
5743.8,0.03588
5738.02,0.03845
5732.23,0.03931
5726.44,0.03797
5720.66,0.03893
5714.87,0.03944
5709.09,0.03681
5703.3,0.03868
5697.51,0.03521
5691.73,0.03615
5685.94,0.03839
5680.15,0.03620
5674.37,0.03735
5668.58,0.03828
5662.8,0.03825
5657.01,0.03718
5651.22,0.03778
5645.44,0.03606
5639.65,0.03604
5633.87,0.03778
5628.08,0.03840
5622.29,0.03947
5616.51,0.03754
5610.72,0.03668
5604.93,0.03930
5599.15,0.03615
5593.36,0.03895
5587.58,0.03799
5581.79,0.03781
5576,0.03895
5570.22,0.03758
5564.43,0.03645
5558.64,0.03819
5552.86,0.03772
5547.07,0.03850
5541.29,0.03618
5535.5,0.03883
5529.71,0.03856
5523.93,0.03800
5518.14,0.03687
5512.35,0.03623
5506.57,0.03814
5500.78,0.03725
5495,0.03653
5489.21,0.03693
5483.42,0.03964
5477.64,0.03650
5471.85,0.03854
5466.06,0.03751
5460.28,0.03749
5454.49,0.03911
5448.71,0.03724
5442.92,0.03936
5437.13,0.03821
5431.35,0.03764
5425.56,0.03842
5419.77,0.03854
5413.99,0.04075
5408.2,0.03875
5402.42,0.03808
5396.63,0.03844
5390.84,0.03831
5385.06,0.03779
5379.27,0.03794
5373.48,0.03860
5367.7,0.03800
5361.91,0.03861
5356.13,0.03689
5350.34,0.03876
5344.55,0.03920
5338.77,0.03758
5332.98,0.03857
5327.19,0.03915
5321.41,0.03934
5315.62,0.03822
5309.84,0.03854
5304.05,0.03723
5298.26,0.03859
5292.48,0.03862
5286.69,0.03847
5280.9,0.03828
5275.12,0.03835
5269.33,0.03851
5263.55,0.03907
5257.76,0.03959
5251.97,0.03910
5246.19,0.03811
5240.4,0.03659
5234.61,0.03887
5228.83,0.03791
5223.04,0.03758
5217.26,0.03851
5211.47,0.03969
5205.68,0.03761
5199.9,0.03825
5194.11,0.03908
5188.32,0.03898
5182.54,0.03895
5176.75,0.03848
5170.97,0.03843
5165.18,0.03962
5159.39,0.03851
5153.61,0.03924
5147.82,0.03892
5142.03,0.03940
5136.25,0.03922
5130.46,0.03740
5124.68,0.03945
5118.89,0.03868
5113.1,0.03922
5107.32,0.03899
5101.53,0.04039
5095.75,0.03943
5089.96,0.03904
5084.17,0.03978
5078.39,0.04060
5072.6,0.03872
5066.81,0.04108
5061.03,0.03923
5055.24,0.03933
5049.46,0.04020
5043.67,0.03866
5037.88,0.03868
5032.1,0.03888
5026.31,0.03950
5020.52,0.04060
5014.74,0.03990
5008.95,0.03909
5003.17,0.03915
4997.38,0.03927
4991.59,0.03985
4985.81,0.04039
4980.02,0.03950
4974.23,0.03998
4968.45,0.03970
4962.66,0.03890
4956.88,0.03932
4951.09,0.03930
4945.3,0.03987
4939.52,0.03962
4933.73,0.03873
4927.94,0.03937
4922.16,0.04018
4916.37,0.03894
4910.59,0.03855
4904.8,0.04079
4899.01,0.03968
4893.23,0.03953
4887.44,0.03903
4881.65,0.04051
4875.87,0.04056
4870.08,0.04041
4864.3,0.04099
4858.51,0.04014
4852.72,0.03953
4846.94,0.03926
4841.15,0.04017
4835.36,0.04019
4829.58,0.03903
4823.79,0.03946
4818.01,0.04006
4812.22,0.03992
4806.43,0.04020
4800.65,0.04018
4794.86,0.03937
4789.07,0.04022
4783.29,0.04111
4777.5,0.04011
4771.72,0.03923
4765.93,0.04067
4760.14,0.03949
4754.36,0.03964
4748.57,0.04029
4742.78,0.03920
4737,0.03993
4731.21,0.03990
4725.43,0.03944
4719.64,0.04030
4713.85,0.03992
4708.07,0.03924
4702.28,0.04026
4696.49,0.04030
4690.71,0.04039
4684.92,0.04056
4679.14,0.04064
4673.35,0.04059
4667.56,0.04029
4661.78,0.04117
4655.99,0.04085
4650.2,0.03955
4644.42,0.03963
4638.63,0.03951
4632.85,0.03938
4627.06,0.04028
4621.27,0.03967
4615.49,0.04092
4609.7,0.03996
4603.92,0.03992
4598.13,0.04019
4592.34,0.03975
4586.56,0.04091
4580.77,0.03990
4574.98,0.04089
4569.2,0.04057
4563.41,0.04079
4557.63,0.04061
4551.84,0.04045
4546.05,0.04075
4540.27,0.04008
4534.48,0.04052
4528.69,0.04137
4522.91,0.04111
4517.12,0.04052
4511.34,0.04012
4505.55,0.04075
4499.76,0.04096
4493.98,0.04099
4488.19,0.04140
4482.4,0.04092
4476.62,0.04031
4470.83,0.04023
4465.05,0.04061
4459.26,0.04100
4453.47,0.04045
4447.69,0.04031
4441.9,0.04093
4436.11,0.04053
4430.33,0.03971
4424.54,0.04054
4418.76,0.04035
4412.97,0.03961
4407.18,0.04003
4401.4,0.03901
4395.61,0.03962
4389.82,0.03932
4384.04,0.03957
4378.25,0.03989
4372.47,0.03964
4366.68,0.03916
4360.89,0.03919
4355.11,0.03859
4349.32,0.03899
4343.53,0.03781
4337.75,0.03804
4331.96,0.03831
4326.18,0.03811
4320.39,0.03850
4314.6,0.03840
4308.82,0.03810
4303.03,0.03908
4297.24,0.03909
4291.46,0.03870
4285.67,0.03956
4279.89,0.03943
4274.1,0.03914
4268.31,0.03887
4262.53,0.03882
4256.74,0.03970
4250.95,0.03923
4245.17,0.03876
4239.38,0.03950
4233.6,0.03896
4227.81,0.03836
4222.02,0.03898
4216.24,0.03955
4210.45,0.03847
4204.66,0.03918
4198.88,0.03963
4193.09,0.03984
4187.31,0.03899
4181.52,0.03856
4175.73,0.03910
4169.95,0.03871
4164.16,0.03979
4158.37,0.03960
4152.59,0.03962
4146.8,0.03963
4141.02,0.04018
4135.23,0.04030
4129.44,0.04056
4123.66,0.04055
4117.87,0.04009
4112.09,0.04058
4106.3,0.04024
4100.51,0.03992
4094.73,0.04020
4088.94,0.03967
4083.15,0.04022
4077.37,0.03951
4071.58,0.03974
4065.8,0.03978
4060.01,0.04041
4054.22,0.04008
4048.44,0.03998
4042.65,0.04107
4036.86,0.04018
4031.08,0.04078
4025.29,0.04112
4019.51,0.04064
4013.72,0.04028
4007.93,0.04098
4002.15,0.04004
3996.36,0.04085
3990.57,0.04087
3984.79,0.04126
3979,0.04079
3973.22,0.04129
3967.43,0.04139
3961.64,0.04138
3955.86,0.04167
3950.07,0.04131
3944.28,0.04119
3938.5,0.04108
3932.71,0.04128
3926.93,0.04149
3921.14,0.04155
3915.35,0.04189
3909.57,0.04158
3903.78,0.04135
3897.99,0.04140
3892.21,0.04191
3886.42,0.04174
3880.64,0.04223
3874.85,0.04223
3869.06,0.04228
3863.28,0.04169
3857.49,0.04283
3851.7,0.04215
3845.92,0.04170
3840.13,0.04173
3834.35,0.04176
3828.56,0.04159
3822.77,0.04279
3816.99,0.04229
3811.2,0.04185
3805.41,0.04184
3799.63,0.04173
3793.84,0.04219
3788.06,0.04226
3782.27,0.04213
3776.48,0.04277
3770.7,0.04270
3764.91,0.04261
3759.12,0.04170
3753.34,0.04240
3747.55,0.04261
3741.77,0.04178
3735.98,0.04234
3730.19,0.04251
3724.41,0.04195
3718.62,0.04203
3712.83,0.04229
3707.05,0.04238
3701.26,0.04207
3695.48,0.04220
3689.69,0.04220
3683.9,0.04235
3678.12,0.04189
3672.33,0.04213
3666.54,0.04218
3660.76,0.04247
3654.97,0.04212
3649.19,0.04195
3643.4,0.04188
3637.61,0.04159
3631.83,0.04170
3626.04,0.04180
3620.25,0.04083
3614.47,0.04121
3608.68,0.04108
3602.9,0.04123
3597.11,0.04089
3591.32,0.04096
3585.54,0.04056
3579.75,0.04025
3573.97,0.04054
3568.18,0.04155
3562.39,0.04046
3556.61,0.04035
3550.82,0.04090
3545.03,0.04072
3539.25,0.04035
3533.46,0.04023
3527.68,0.04014
3521.89,0.03991
3516.1,0.03972
3510.32,0.04077
3504.53,0.04035
3498.74,0.04017
3492.96,0.03975
3487.17,0.03927
3481.39,0.03900
3475.6,0.03942
3469.81,0.03952
3464.03,0.03843
3458.24,0.03917
3452.45,0.03895
3446.67,0.03850
3440.88,0.03836
3435.1,0.03762
3429.31,0.03748
3423.52,0.03654
3417.74,0.03765
3411.95,0.03799
3406.16,0.03818
3400.38,0.03797
3394.59,0.03828
3388.81,0.03859
3383.02,0.03853
3377.23,0.03830
3371.45,0.03855
3365.66,0.03716
3359.87,0.03838
3354.09,0.03874
3348.3,0.03835
3342.52,0.03828
3336.73,0.03861
3330.94,0.03823
3325.16,0.03788
3319.37,0.03729
3313.58,0.03840
3307.8,0.03808
3302.01,0.03907
3296.23,0.03771
3290.44,0.03779
3284.65,0.03809
3278.87,0.03875
3273.08,0.03925
3267.29,0.03892
3261.51,0.03858
3255.72,0.03847
3249.94,0.03815
3244.15,0.03776
3238.36,0.03962
3232.58,0.03919
3226.79,0.03802
3221,0.03875
3215.22,0.03856
3209.43,0.03865
3203.65,0.03900
3197.86,0.03914
3192.07,0.03857
3186.29,0.03910
3180.5,0.03914
3174.71,0.03929
3168.93,0.03993
3163.14,0.03936
3157.36,0.03950
3151.57,0.03910
3145.78,0.03956
3140,0.03992
3134.21,0.03898
3128.42,0.03913
3122.64,0.03886
3116.85,0.03894
3111.07,0.03912
3105.28,0.03927
3099.49,0.03916
3093.71,0.03859
3087.92,0.03850
3082.14,0.03831
3076.35,0.03814
3070.56,0.03777
3064.78,0.03740
3058.99,0.03725
3053.2,0.03728
3047.42,0.03734
3041.63,0.03722
3035.85,0.03693
3030.06,0.03744
3024.27,0.03677
3018.49,0.03555
3012.7,0.03491
3006.91,0.03472
3001.13,0.03375
2995.34,0.03127
2989.56,0.02997
2983.77,0.02893
2977.98,0.02795
2972.2,0.02759
2966.41,0.02673
2960.62,0.02779
2954.84,0.02755
2949.05,0.02781
2943.27,0.02726
2937.48,0.02734
2931.69,0.02797
2925.91,0.02809
2920.12,0.02827
2914.33,0.02865
2908.55,0.02879
2902.76,0.02934
2896.98,0.02930
2891.19,0.02957
2885.4,0.02948
2879.62,0.02931
2873.83,0.02909
2868.04,0.02902
2862.26,0.02946
2856.47,0.02952
2850.69,0.03017
2844.9,0.03128
2839.11,0.03233
2833.33,0.03363
2827.54,0.03445
2821.75,0.03495
2815.97,0.03525
2810.18,0.03611
2804.4,0.03719
2798.61,0.03702
2792.82,0.03781
2787.04,0.03879
2781.25,0.03857
2775.46,0.03929
2769.68,0.03931
2763.89,0.03936
2758.11,0.03957
2752.32,0.03940
2746.53,0.03941
2740.75,0.03927
2734.96,0.03870
2729.17,0.03910
2723.39,0.03976
2717.6,0.04032
2711.82,0.04018
2706.03,0.04092
2700.24,0.04107
2694.46,0.04036
2688.67,0.04069
2682.88,0.04126
2677.1,0.04068
2671.31,0.04070
2665.53,0.04114
2659.74,0.04075
2653.95,0.04137
2648.17,0.04140
2642.38,0.04173
2636.59,0.04164
2630.81,0.04146
2625.02,0.04147
2619.24,0.04145
2613.45,0.04157
2607.66,0.04149
2601.88,0.04167
2596.09,0.04145
2590.3,0.04183
2584.52,0.04185
2578.73,0.04168
2572.95,0.04186
2567.16,0.04184
2561.37,0.04178
2555.59,0.04187
2549.8,0.04211
2544.02,0.04217
2538.23,0.04216
2532.44,0.04201
2526.66,0.04213
2520.87,0.04263
2515.08,0.04236
2509.3,0.04280
2503.51,0.04259
2497.73,0.04307
2491.94,0.04302
2486.15,0.04311
2480.37,0.04341
2474.58,0.04367
2468.79,0.04375
2463.01,0.04355
2457.22,0.04355
2451.44,0.04323
2445.65,0.04342
2439.86,0.04364
2434.08,0.04329
2428.29,0.04300
2422.5,0.04312
2416.72,0.04295
2410.93,0.04313
2405.15,0.04297
2399.36,0.04285
2393.57,0.04298
2387.79,0.04277
2382,0.04266
2376.21,0.04283
2370.43,0.04281
2364.64,0.04348
2358.86,0.04343
2353.07,0.04357
2347.28,0.04362
2341.5,0.04398
2335.71,0.04414
2329.92,0.04448
2324.14,0.04454
2318.35,0.04476
2312.57,0.04473
2306.78,0.04467
2300.99,0.04412
2295.21,0.04462
2289.42,0.04437
2283.63,0.04427
2277.85,0.04399
2272.06,0.04395
2266.28,0.04422
2260.49,0.04423
2254.7,0.04422
2248.92,0.04419
2243.13,0.04472
2237.34,0.04456
2231.56,0.04428
2225.77,0.04466
2219.99,0.04418
2214.2,0.04426
2208.41,0.04484
2202.63,0.04464
2196.84,0.04459
2191.05,0.04491
2185.27,0.04504
2179.48,0.04498
2173.7,0.04486
2167.91,0.04510
2162.12,0.04479
2156.34,0.04494
2150.55,0.04488
2144.76,0.04487
2138.98,0.04445
2133.19,0.04480
2127.41,0.04465
2121.62,0.04478
2115.83,0.04476
2110.05,0.04483
2104.26,0.04469
2098.47,0.04452
2092.69,0.04483
2086.9,0.04469
2081.12,0.04472
2075.33,0.04446
2069.54,0.04423
2063.76,0.04461
2057.97,0.04435
2052.19,0.04433
2046.4,0.04461
2040.61,0.04456
2034.83,0.04456
2029.04,0.04451
2023.25,0.04476
2017.47,0.04442
2011.68,0.04422
2005.9,0.04444
2000.11,0.04422
1994.32,0.04422
1988.54,0.04424
1982.75,0.04358
1976.96,0.04359
1971.18,0.04377
1965.39,0.04332
1959.61,0.04268
1953.82,0.04208
1948.03,0.04193
1942.25,0.04233
1936.46,0.04262
1930.67,0.04308
1924.89,0.04314
1919.1,0.04347
1913.32,0.04367
1907.53,0.04335
1901.74,0.04326
1895.96,0.04291
1890.17,0.04313
1884.38,0.04333
1878.6,0.04336
1872.81,0.04294
1867.03,0.04306
1861.24,0.04297
1855.45,0.04290
1849.67,0.04230
1843.88,0.04215
1838.09,0.04178
1832.31,0.04124
1826.52,0.04014
1820.74,0.04004
1814.95,0.04076
1809.16,0.04025
1803.38,0.04031
1797.59,0.03972
1791.8,0.03916
1786.02,0.03895
1780.23,0.03817
1774.45,0.03766
1768.66,0.03695
1762.87,0.03573
1757.09,0.03415
1751.3,0.03233
1745.51,0.03045
1739.73,0.02858
1733.94,0.02654
1728.16,0.02583
1722.37,0.02708
1716.58,0.02884
1710.8,0.02932
1705.01,0.02973
1699.22,0.03090
1693.44,0.03222
1687.65,0.03343
1681.87,0.03273
1676.08,0.03312
1670.29,0.03338
1664.51,0.03444
1658.72,0.03499
1652.93,0.03598
1647.15,0.03640
1641.36,0.03682
1635.58,0.03670
1629.79,0.03689
1624,0.03663
1618.22,0.03635
1612.43,0.03551
1606.64,0.03602
1600.86,0.03619
1595.07,0.03606
1589.29,0.03600
1583.5,0.03441
1577.71,0.03305
1571.93,0.03406
1566.14,0.03473
1560.35,0.03503
1554.57,0.03484
1548.78,0.03515
1543,0.03563
1537.21,0.03501
1531.42,0.03484
1525.64,0.03456
1519.85,0.03461
1514.07,0.03400
1508.28,0.03267
1502.49,0.03238
1496.71,0.03429
1490.92,0.03384
1485.13,0.03271
1479.35,0.03088
1473.56,0.02905
1467.78,0.02770
1461.99,0.02753
1456.2,0.02788
1450.42,0.02840
1444.63,0.02843
1438.84,0.02797
1433.06,0.02739
1427.27,0.02764
1421.49,0.02857
1415.7,0.02873
1409.91,0.02796
1404.13,0.02915
1398.34,0.02967
1392.55,0.02854
1386.77,0.02777
1380.98,0.02752
1375.2,0.02804
1369.41,0.02880
1363.62,0.02889
1357.84,0.02853
1352.05,0.02795
1346.26,0.02761
1340.48,0.02722
1334.69,0.02625
1328.91,0.02664
1323.12,0.02615
1317.33,0.02639
1311.55,0.02620
1305.76,0.02570
1299.97,0.02598
1294.19,0.02532
1288.4,0.02452
1282.62,0.02429
1276.83,0.02517
1271.04,0.02787
1265.26,0.02992
1259.47,0.02934
1253.68,0.02927
1247.9,0.03003
1242.11,0.03050
1236.33,0.03059
1230.54,0.03080
1224.75,0.03081
1218.97,0.03127
1213.18,0.03092
1207.39,0.03120
1201.61,0.03066
1195.82,0.03108
1190.04,0.03045
1184.25,0.03127
1178.46,0.03056
1172.68,0.02997
1166.89,0.03019
1161.1,0.03043
1155.32,0.02956
1149.53,0.02926
1143.75,0.02925
1137.96,0.02824
1132.17,0.02720
1126.39,0.02604
1120.6,0.02630
1114.81,0.02771
1109.03,0.02776
1103.24,0.02897
1097.46,0.02910
1091.67,0.02929
1085.88,0.02891
1080.1,0.02985
1074.31,0.03040
1068.52,0.03123
1062.74,0.03150
1056.95,0.03159
1051.17,0.03260
1045.38,0.03167
1039.59,0.03097
1033.81,0.03113
1028.02,0.03060
1022.24,0.02907
1016.45,0.03014
1010.66,0.03172
1004.88,0.03178
999.09,0.03079
993.304,0.03115
987.518,0.03049
981.731,0.03035
975.945,0.02967
970.159,0.02945
964.373,0.02943
958.586,0.02963
952.8,0.02986
947.014,0.03003
941.228,0.03051
935.441,0.03153
929.655,0.03097
923.869,0.03121
918.083,0.03158
912.297,0.03197
906.51,0.03198
900.724,0.03233
894.938,0.03196
889.152,0.03276
883.365,0.03127
877.579,0.03014
871.793,0.03039
866.007,0.03220
860.22,0.03180
854.434,0.03207
848.648,0.03311
842.862,0.03275
837.075,0.03243
831.289,0.03222
825.503,0.03316
819.717,0.03440
813.931,0.03460
808.144,0.03480
802.358,0.03372
796.572,0.03374
790.786,0.03382
784.999,0.03356
779.213,0.03240
773.427,0.03169
767.641,0.03187
761.854,0.03222
756.068,0.03206
750.282,0.03063
744.496,0.02997
738.709,0.02756
732.923,0.02696
727.137,0.02970
721.351,0.03129
715.565,0.03194
709.778,0.03021
703.992,0.02970
698.206,0.02877
692.42,0.03056
686.633,0.02972
680.847,0.02932
675.061,0.02933
669.275,0.02980
663.488,0.02953
657.702,0.02928
651.916,0.02772
646.13,0.02724
640.343,0.02736
634.557,0.02707
628.771,0.02475
622.985,0.02667
617.198,0.02761
611.412,0.02564
605.626,0.02715
599.84,0.02925