File: 01_Data/Window_Screen/FTIR/IS/Window_Screen_IS_S_220829_R4.dpt
7497.03,0.04682
7491.25,0.03270
7485.46,0.03374
7479.67,0.04040
7473.89,0.04227
7468.1,0.04414
7462.32,0.03875
7456.53,0.03785
7450.74,0.03888
7444.96,0.03928
7439.17,0.03632
7433.38,0.04079
7427.6,0.03571
7421.81,0.03705
7416.03,0.03753
7410.24,0.03836
7404.45,0.03842
7398.67,0.04279
7392.88,0.04229
7387.09,0.03653
7381.31,0.03632
7375.52,0.03749
7369.74,0.03353
7363.95,0.03806
7358.16,0.03451
7352.38,0.03476
7346.59,0.03432
7340.8,0.04509
7335.02,0.04829
7329.23,0.04000
7323.45,0.03353
7317.66,0.03692
7311.87,0.03654
7306.09,0.03980
7300.3,0.03432
7294.51,0.03041
7288.73,0.03384
7282.94,0.03965
7277.16,0.03527
7271.37,0.03510
7265.58,0.03560
7259.8,0.03840
7254.01,0.03788
7248.22,0.04593
7242.44,0.04664
7236.65,0.03241
7230.87,0.03772
7225.08,0.03768
7219.29,0.04022
7213.51,0.04218
7207.72,0.04274
7201.93,0.04344
7196.15,0.03668
7190.36,0.04027
7184.58,0.03890
7178.79,0.03388
7173,0.03568
7167.22,0.03753
7161.43,0.03890
7155.65,0.03877
7149.86,0.03175
7144.07,0.04025
7138.29,0.03901
7132.5,0.04687
7126.71,0.03898
7120.93,0.04221
7115.14,0.03456
7109.36,0.03506
7103.57,0.03948
7097.78,0.03755
7092,0.03892
7086.21,0.04433
7080.42,0.04237
7074.64,0.03874
7068.85,0.04459
7063.07,0.03649
7057.28,0.04048
7051.49,0.04086
7045.71,0.03496
7039.92,0.03976
7034.13,0.03700
7028.35,0.03891
7022.56,0.03361
7016.78,0.03824
7010.99,0.03616
7005.2,0.03960
6999.42,0.03740
6993.63,0.03484
6987.84,0.03659
6982.06,0.04040
6976.27,0.04442
6970.49,0.03679
6964.7,0.03713
6958.91,0.04042
6953.13,0.03860
6947.34,0.02971
6941.55,0.03353
6935.77,0.03826
6929.98,0.03684
6924.2,0.03998
6918.41,0.03974
6912.62,0.03883
6906.84,0.03872
6901.05,0.03565
6895.26,0.03674
6889.48,0.03961
6883.69,0.03993
6877.91,0.03624
6872.12,0.03646
6866.33,0.03610
6860.55,0.04248
6854.76,0.03727
6848.97,0.03422
6843.19,0.03992
6837.4,0.04085
6831.62,0.03935
6825.83,0.03755
6820.04,0.03967
6814.26,0.03869
6808.47,0.04179
6802.68,0.03711
6796.9,0.04338
6791.11,0.03631
6785.33,0.03770
6779.54,0.03579
6773.75,0.03681
6767.97,0.03652
6762.18,0.03537
6756.39,0.03777
6750.61,0.04044
6744.82,0.04021
6739.04,0.03724
6733.25,0.03597
6727.46,0.03781
6721.68,0.03789
6715.89,0.03489
6710.1,0.03608
6704.32,0.03842
6698.53,0.04004
6692.75,0.03901
6686.96,0.03800
6681.17,0.03552
6675.39,0.04005
6669.6,0.04057
6663.82,0.03910
6658.03,0.04000
6652.24,0.03790
6646.46,0.03667
6640.67,0.03763
6634.88,0.03932
6629.1,0.03436
6623.31,0.03664
6617.53,0.03289
6611.74,0.03788
6605.95,0.03875
6600.17,0.03676
6594.38,0.03505
6588.59,0.03574
6582.81,0.03607
6577.02,0.03353
6571.24,0.03980
6565.45,0.03812
6559.66,0.03628
6553.88,0.03433
6548.09,0.03861
6542.3,0.04136
6536.52,0.03892
6530.73,0.03234
6524.95,0.03592
6519.16,0.03403
6513.37,0.03416
6507.59,0.03670
6501.8,0.03569
6496.01,0.03585
6490.23,0.03444
6484.44,0.03937
6478.66,0.03596
6472.87,0.03441
6467.08,0.03363
6461.3,0.03824
6455.51,0.03748
6449.72,0.03580
6443.94,0.03285
6438.15,0.03730
6432.37,0.03286
6426.58,0.03420
6420.79,0.04071
6415.01,0.03738
6409.22,0.03567
6403.43,0.03903
6397.65,0.03788
6391.86,0.03813
6386.08,0.03980
6380.29,0.03865
6374.5,0.03637
6368.72,0.03563
6362.93,0.03491
6357.14,0.03228
6351.36,0.03554
6345.57,0.03416
6339.79,0.03454
6334,0.04033
6328.21,0.03931
6322.43,0.03673
6316.64,0.04061
6310.85,0.04123
6305.07,0.03846
6299.28,0.03846
6293.5,0.03599
6287.71,0.03767
6281.92,0.03830
6276.14,0.03841
6270.35,0.03490
6264.56,0.03674
6258.78,0.03662
6252.99,0.03872
6247.21,0.03544
6241.42,0.03773
6235.63,0.03705
6229.85,0.03557
6224.06,0.03457
6218.27,0.03896
6212.49,0.03884
6206.7,0.03589
6200.92,0.03957
6195.13,0.03625
6189.34,0.03893
6183.56,0.03713
6177.77,0.03848
6171.98,0.03672
6166.2,0.03441
6160.41,0.03673
6154.63,0.03616
6148.84,0.03802
6143.05,0.03964
6137.27,0.03891
6131.48,0.03656
6125.7,0.03948
6119.91,0.03747
6114.12,0.03878
6108.34,0.03578
6102.55,0.03623
6096.76,0.03672
6090.98,0.03944
6085.19,0.03669
6079.41,0.03817
6073.62,0.03640
6067.83,0.03668
6062.05,0.03732
6056.26,0.03648
6050.47,0.03652
6044.69,0.03688
6038.9,0.03876
6033.12,0.03922
6027.33,0.03491
6021.54,0.03643
6015.76,0.03832
6009.97,0.03866
6004.18,0.03782
5998.4,0.03729
5992.61,0.03829
5986.83,0.03561
5981.04,0.03692
5975.25,0.03656
5969.47,0.03761
5963.68,0.03768
5957.89,0.03896
5952.11,0.03792
5946.32,0.03712
5940.54,0.03613
5934.75,0.03627
5928.96,0.03818
5923.18,0.03704
5917.39,0.03556
5911.6,0.03407
5905.82,0.03513
5900.03,0.03434
5894.25,0.03647
5888.46,0.03611
5882.67,0.03537
5876.89,0.03564
5871.1,0.03676
5865.31,0.03760
5859.53,0.03782
5853.74,0.03780
5847.96,0.03794
5842.17,0.03727
5836.38,0.03822
5830.6,0.03806
5824.81,0.03809
5819.02,0.03995
5813.24,0.03843
5807.45,0.03806
5801.67,0.03868
5795.88,0.03498
5790.09,0.03794
5784.31,0.03721
5778.52,0.03719
5772.73,0.03565
5766.95,0.03752
5761.16,0.03882
5755.38,0.03602
5749.59,0.03727
5743.8,0.03701
5738.02,0.03457
5732.23,0.03593
5726.44,0.03698
5720.66,0.03838
5714.87,0.03728
5709.09,0.03754
5703.3,0.03665
5697.51,0.03710
5691.73,0.03788
5685.94,0.04008
5680.15,0.03800
5674.37,0.03725
5668.58,0.03541
5662.8,0.03302
5657.01,0.03555
5651.22,0.03778
5645.44,0.03771
5639.65,0.03712
5633.87,0.03775
5628.08,0.03584
5622.29,0.03841
5616.51,0.03884
5610.72,0.03717
5604.93,0.03907
5599.15,0.03696
5593.36,0.03943
5587.58,0.03814
5581.79,0.03771
5576,0.03789
5570.22,0.03800
5564.43,0.03774
5558.64,0.03826
5552.86,0.03718
5547.07,0.03914
5541.29,0.03572
5535.5,0.03714
5529.71,0.03863
5523.93,0.03748
5518.14,0.03640
5512.35,0.03726
5506.57,0.03721
5500.78,0.03748
5495,0.03862
5489.21,0.03795
5483.42,0.03777
5477.64,0.03938
5471.85,0.03950
5466.06,0.03973
5460.28,0.03763
5454.49,0.03752
5448.71,0.03820
5442.92,0.03709
5437.13,0.03793
5431.35,0.03878
5425.56,0.03990
5419.77,0.03718
5413.99,0.03914
5408.2,0.03697
5402.42,0.03986
5396.63,0.03838
5390.84,0.03904
5385.06,0.03896
5379.27,0.03914
5373.48,0.03754
5367.7,0.03793
5361.91,0.03828
5356.13,0.04066
5350.34,0.03931
5344.55,0.03978
5338.77,0.04076
5332.98,0.04055
5327.19,0.03812
5321.41,0.03736
5315.62,0.03807
5309.84,0.03758
5304.05,0.03804
5298.26,0.03780
5292.48,0.03881
5286.69,0.03969
5280.9,0.03886
5275.12,0.04027
5269.33,0.03947
5263.55,0.04044
5257.76,0.03845
5251.97,0.03884
5246.19,0.03937
5240.4,0.03988
5234.61,0.03819
5228.83,0.03834
5223.04,0.04037
5217.26,0.03891
5211.47,0.03819
5205.68,0.04014
5199.9,0.03907
5194.11,0.03872
5188.32,0.03953
5182.54,0.03904
5176.75,0.03939
5170.97,0.03918
5165.18,0.03932
5159.39,0.03801
5153.61,0.03945
5147.82,0.03952
5142.03,0.03789
5136.25,0.04016
5130.46,0.03900
5124.68,0.03850
5118.89,0.03923
5113.1,0.03889
5107.32,0.03732
5101.53,0.03967
5095.75,0.04001
5089.96,0.04044
5084.17,0.03825
5078.39,0.03865
5072.6,0.03873
5066.81,0.03882
5061.03,0.03823
5055.24,0.03890
5049.46,0.03892
5043.67,0.03917
5037.88,0.03881
5032.1,0.03871
5026.31,0.03861
5020.52,0.03936
5014.74,0.03875
5008.95,0.03892
5003.17,0.03963
4997.38,0.03940
4991.59,0.03942
4985.81,0.03782
4980.02,0.03901
4974.23,0.03968
4968.45,0.03923
4962.66,0.03948
4956.88,0.03902
4951.09,0.03969
4945.3,0.04033
4939.52,0.03852
4933.73,0.03959
4927.94,0.04010
4922.16,0.03922
4916.37,0.03878
4910.59,0.03961
4904.8,0.03907
4899.01,0.03906
4893.23,0.03948
4887.44,0.03979
4881.65,0.03984
4875.87,0.03883
4870.08,0.04084
4864.3,0.04015
4858.51,0.03881
4852.72,0.03963
4846.94,0.03879
4841.15,0.03991
4835.36,0.03864
4829.58,0.03877
4823.79,0.03932
4818.01,0.03980
4812.22,0.03955
4806.43,0.03958
4800.65,0.03957
4794.86,0.03992
4789.07,0.03971
4783.29,0.03949
4777.5,0.03977
4771.72,0.03910
4765.93,0.03998
4760.14,0.03998
4754.36,0.03902
4748.57,0.03994
4742.78,0.03947
4737,0.04002
4731.21,0.03991
4725.43,0.04006
4719.64,0.04005
4713.85,0.04074
4708.07,0.03976
4702.28,0.04028
4696.49,0.03943
4690.71,0.03956
4684.92,0.04042
4679.14,0.04018
4673.35,0.04054
4667.56,0.03970
4661.78,0.04018
4655.99,0.04030
4650.2,0.03962
4644.42,0.04016
4638.63,0.03962
4632.85,0.03946
4627.06,0.04030
4621.27,0.03978
4615.49,0.03943
4609.7,0.04018
4603.92,0.03961
4598.13,0.04053
4592.34,0.04114
4586.56,0.03972
4580.77,0.03997
4574.98,0.04082
4569.2,0.04106
4563.41,0.04072
4557.63,0.03956
4551.84,0.03973
4546.05,0.03997
4540.27,0.03994
4534.48,0.04050
4528.69,0.04139
4522.91,0.04093
4517.12,0.04122
4511.34,0.04052
4505.55,0.04101
4499.76,0.04035
4493.98,0.04055
4488.19,0.04055
4482.4,0.04018
4476.62,0.04069
4470.83,0.04032
4465.05,0.04004
4459.26,0.04038
4453.47,0.03967
4447.69,0.04072
4441.9,0.03992
4436.11,0.03990
4430.33,0.04017
4424.54,0.03982
4418.76,0.03970
4412.97,0.03973
4407.18,0.03964
4401.4,0.03897
4395.61,0.03920
4389.82,0.03958
4384.04,0.03880
4378.25,0.03881
4372.47,0.03872
4366.68,0.03812
4360.89,0.03822
4355.11,0.03830
4349.32,0.03857
4343.53,0.03895
4337.75,0.03821
4331.96,0.03829
4326.18,0.03807
4320.39,0.03822
4314.6,0.03847
4308.82,0.03912
4303.03,0.03919
4297.24,0.03903
4291.46,0.03879
4285.67,0.03920
4279.89,0.03832
4274.1,0.03872
4268.31,0.03869
4262.53,0.03876
4256.74,0.03895
4250.95,0.03904
4245.17,0.03939
4239.38,0.03898
4233.6,0.03908
4227.81,0.03969
4222.02,0.03897
4216.24,0.03863
4210.45,0.03886
4204.66,0.03940
4198.88,0.03925
4193.09,0.03887
4187.31,0.03946
4181.52,0.03954
4175.73,0.03970
4169.95,0.03963
4164.16,0.03920
4158.37,0.03917
4152.59,0.03916
4146.8,0.03941
4141.02,0.03971
4135.23,0.04007
4129.44,0.04010
4123.66,0.04005
4117.87,0.03965
4112.09,0.03965
4106.3,0.03980
4100.51,0.04071
4094.73,0.03995
4088.94,0.03979
4083.15,0.03944
4077.37,0.03956
4071.58,0.03978
4065.8,0.04007
4060.01,0.04017
4054.22,0.04036
4048.44,0.04005
4042.65,0.04055
4036.86,0.04069
4031.08,0.04036
4025.29,0.04050
4019.51,0.04091
4013.72,0.04070
4007.93,0.04085
4002.15,0.04130
3996.36,0.04088
3990.57,0.04061
3984.79,0.04036
3979,0.04087
3973.22,0.04121
3967.43,0.04073
3961.64,0.04074
3955.86,0.04158
3950.07,0.04087
3944.28,0.04074
3938.5,0.04068
3932.71,0.04130
3926.93,0.04117
3921.14,0.04171
3915.35,0.04139
3909.57,0.04098
3903.78,0.04064
3897.99,0.04135
3892.21,0.04098
3886.42,0.04122
3880.64,0.04134
3874.85,0.04154
3869.06,0.04226
3863.28,0.04190
3857.49,0.04146
3851.7,0.04111
3845.92,0.04180
3840.13,0.04198
3834.35,0.04139
3828.56,0.04185
3822.77,0.04157
3816.99,0.04238
3811.2,0.04169
3805.41,0.04218
3799.63,0.04189
3793.84,0.04194
3788.06,0.04212
3782.27,0.04208
3776.48,0.04177
3770.7,0.04179
3764.91,0.04164
3759.12,0.04274
3753.34,0.04251
3747.55,0.04190
3741.77,0.04248
3735.98,0.04230
3730.19,0.04202
3724.41,0.04191
3718.62,0.04222
3712.83,0.04220
3707.05,0.04215
3701.26,0.04203
3695.48,0.04204
3689.69,0.04173
3683.9,0.04213
3678.12,0.04116
3672.33,0.04166
3666.54,0.04189
3660.76,0.04149
3654.97,0.04151
3649.19,0.04136
3643.4,0.04117
3637.61,0.04161
3631.83,0.04109
3626.04,0.04186
3620.25,0.04108
3614.47,0.04095
3608.68,0.04062
3602.9,0.04134
3597.11,0.04144
3591.32,0.04118
3585.54,0.04090
3579.75,0.04086
3573.97,0.04034
3568.18,0.04074
3562.39,0.04020
3556.61,0.04048
3550.82,0.04062
3545.03,0.04033
3539.25,0.04067
3533.46,0.04008
3527.68,0.04008
3521.89,0.04054
3516.1,0.04054
3510.32,0.03978
3504.53,0.03920
3498.74,0.03944
3492.96,0.03977
3487.17,0.03978
3481.39,0.03914
3475.6,0.03877
3469.81,0.03932
3464.03,0.03859
3458.24,0.03917
3452.45,0.03914
3446.67,0.03839
3440.88,0.03920
3435.1,0.03840
3429.31,0.03738
3423.52,0.03822
3417.74,0.03726
3411.95,0.03782
3406.16,0.03833
3400.38,0.03834
3394.59,0.03866
3388.81,0.03903
3383.02,0.03825
3377.23,0.03902
3371.45,0.03837
3365.66,0.03820
3359.87,0.03835
3354.09,0.03824
3348.3,0.03820
3342.52,0.03780
3336.73,0.03776
3330.94,0.03819
3325.16,0.03817
3319.37,0.03816
3313.58,0.03812
3307.8,0.03835
3302.01,0.03754
3296.23,0.03803
3290.44,0.03823
3284.65,0.03816
3278.87,0.03797
3273.08,0.03797
3267.29,0.03863
3261.51,0.03932
3255.72,0.03796
3249.94,0.03890
3244.15,0.03903
3238.36,0.03904
3232.58,0.03861
3226.79,0.03853
3221,0.03913
3215.22,0.03949
3209.43,0.03906
3203.65,0.03914
3197.86,0.03936
3192.07,0.03944
3186.29,0.03883
3180.5,0.03922
3174.71,0.03914
3168.93,0.03895
3163.14,0.03912
3157.36,0.03864
3151.57,0.03958
3145.78,0.03878
3140,0.03892
3134.21,0.03926
3128.42,0.03920
3122.64,0.03945
3116.85,0.03905
3111.07,0.03904
3105.28,0.03850
3099.49,0.03769
3093.71,0.03845
3087.92,0.03807
3082.14,0.03777
3076.35,0.03818
3070.56,0.03731
3064.78,0.03768
3058.99,0.03717
3053.2,0.03690
3047.42,0.03655
3041.63,0.03697
3035.85,0.03726
3030.06,0.03678
3024.27,0.03631
3018.49,0.03557
3012.7,0.03550
3006.91,0.03411
3001.13,0.03273
2995.34,0.03181
2989.56,0.03021
2983.77,0.02882
2977.98,0.02773
2972.2,0.02736
2966.41,0.02674
2960.62,0.02706
2954.84,0.02727
2949.05,0.02708
2943.27,0.02699
2937.48,0.02708
2931.69,0.02745
2925.91,0.02782
2920.12,0.02838
2914.33,0.02830
2908.55,0.02802
2902.76,0.02894
2896.98,0.02894
2891.19,0.02954
2885.4,0.02937
2879.62,0.02962
2873.83,0.02884
2868.04,0.02926
2862.26,0.02918
2856.47,0.02933
2850.69,0.03042
2844.9,0.03102
2839.11,0.03219
2833.33,0.03328
2827.54,0.03467
2821.75,0.03441
2815.97,0.03521
2810.18,0.03520
2804.4,0.03649
2798.61,0.03721
2792.82,0.03790
2787.04,0.03881
2781.25,0.03865
2775.46,0.03849
2769.68,0.03896
2763.89,0.03902
2758.11,0.03911
2752.32,0.03921
2746.53,0.03943
2740.75,0.03849
2734.96,0.03871
2729.17,0.03893
2723.39,0.03941
2717.6,0.03999
2711.82,0.04012
2706.03,0.04032
2700.24,0.04040
2694.46,0.04004
2688.67,0.04082
2682.88,0.04059
2677.1,0.04031
2671.31,0.04054
2665.53,0.04090
2659.74,0.04112
2653.95,0.04078
2648.17,0.04142
2642.38,0.04099
2636.59,0.04142
2630.81,0.04115
2625.02,0.04073
2619.24,0.04101
2613.45,0.04106
2607.66,0.04106
2601.88,0.04088
2596.09,0.04140
2590.3,0.04107
2584.52,0.04148
2578.73,0.04077
2572.95,0.04147
2567.16,0.04198
2561.37,0.04153
2555.59,0.04166
2549.8,0.04217
2544.02,0.04212
2538.23,0.04200
2532.44,0.04197
2526.66,0.04232
2520.87,0.04237
2515.08,0.04234
2509.3,0.04224
2503.51,0.04242
2497.73,0.04312
2491.94,0.04270
2486.15,0.04299
2480.37,0.04303
2474.58,0.04262
2468.79,0.04269
2463.01,0.04316
2457.22,0.04317
2451.44,0.04326
2445.65,0.04323
2439.86,0.04354
2434.08,0.04307
2428.29,0.04335
2422.5,0.04307
2416.72,0.04269
2410.93,0.04270
2405.15,0.04262
2399.36,0.04297
2393.57,0.04274
2387.79,0.04227
2382,0.04192
2376.21,0.04247
2370.43,0.04253
2364.64,0.04258
2358.86,0.04287
2353.07,0.04334
2347.28,0.04337
2341.5,0.04372
2335.71,0.04394
2329.92,0.04425
2324.14,0.04390
2318.35,0.04397
2312.57,0.04440
2306.78,0.04406
2300.99,0.04393
2295.21,0.04380
2289.42,0.04392
2283.63,0.04396
2277.85,0.04404
2272.06,0.04387
2266.28,0.04408
2260.49,0.04379
2254.7,0.04397
2248.92,0.04395
2243.13,0.04392
2237.34,0.04417
2231.56,0.04407
2225.77,0.04407
2219.99,0.04421
2214.2,0.04422
2208.41,0.04403
2202.63,0.04409
2196.84,0.04485
2191.05,0.04463
2185.27,0.04446
2179.48,0.04455
2173.7,0.04470
2167.91,0.04456
2162.12,0.04478
2156.34,0.04457
2150.55,0.04426
2144.76,0.04438
2138.98,0.04467
2133.19,0.04448
2127.41,0.04438
2121.62,0.04416
2115.83,0.04438
2110.05,0.04426
2104.26,0.04453
2098.47,0.04423
2092.69,0.04409
2086.9,0.04392
2081.12,0.04450
2075.33,0.04439
2069.54,0.04434
2063.76,0.04400
2057.97,0.04408
2052.19,0.04385
2046.4,0.04388
2040.61,0.04420
2034.83,0.04414
2029.04,0.04402
2023.25,0.04419
2017.47,0.04419
2011.68,0.04429
2005.9,0.04441
2000.11,0.04397
1994.32,0.04341
1988.54,0.04365
1982.75,0.04334
1976.96,0.04357
1971.18,0.04305
1965.39,0.04309
1959.61,0.04236
1953.82,0.04138
1948.03,0.04150
1942.25,0.04162
1936.46,0.04248
1930.67,0.04295
1924.89,0.04253
1919.1,0.04318
1913.32,0.04293
1907.53,0.04298
1901.74,0.04291
1895.96,0.04280
1890.17,0.04298
1884.38,0.04302
1878.6,0.04315
1872.81,0.04283
1867.03,0.04268
1861.24,0.04258
1855.45,0.04216
1849.67,0.04239
1843.88,0.04151
1838.09,0.04155
1832.31,0.04089
1826.52,0.04004
1820.74,0.03961
1814.95,0.03992
1809.16,0.04013
1803.38,0.03984
1797.59,0.03959
1791.8,0.03925
1786.02,0.03849
1780.23,0.03734
1774.45,0.03750
1768.66,0.03634
1762.87,0.03530
1757.09,0.03350
1751.3,0.03170
1745.51,0.02987
1739.73,0.02780
1733.94,0.02641
1728.16,0.02586
1722.37,0.02680
1716.58,0.02859
1710.8,0.02939
1705.01,0.02964
1699.22,0.03083
1693.44,0.03206
1687.65,0.03284
1681.87,0.03290
1676.08,0.03246
1670.29,0.03317
1664.51,0.03432
1658.72,0.03509
1652.93,0.03609
1647.15,0.03640
1641.36,0.03637
1635.58,0.03680
1629.79,0.03618
1624,0.03667
1618.22,0.03654
1612.43,0.03510
1606.64,0.03587
1600.86,0.03591
1595.07,0.03575
1589.29,0.03526
1583.5,0.03432
1577.71,0.03254
1571.93,0.03360
1566.14,0.03446
1560.35,0.03439
1554.57,0.03418
1548.78,0.03443
1543,0.03478
1537.21,0.03514
1531.42,0.03470
1525.64,0.03479
1519.85,0.03491
1514.07,0.03407
1508.28,0.03259
1502.49,0.03197
1496.71,0.03386
1490.92,0.03362
1485.13,0.03235
1479.35,0.03091
1473.56,0.02886
1467.78,0.02736
1461.99,0.02748
1456.2,0.02772
1450.42,0.02812
1444.63,0.02800
1438.84,0.02732
1433.06,0.02757
1427.27,0.02725
1421.49,0.02824
1415.7,0.02842
1409.91,0.02803
1404.13,0.02853
1398.34,0.02874
1392.55,0.02858
1386.77,0.02776
1380.98,0.02754
1375.2,0.02800
1369.41,0.02846
1363.62,0.02887
1357.84,0.02832
1352.05,0.02811
1346.26,0.02818
1340.48,0.02722
1334.69,0.02656
1328.91,0.02641
1323.12,0.02612
1317.33,0.02597
1311.55,0.02614
1305.76,0.02554
1299.97,0.02536
1294.19,0.02513
1288.4,0.02425
1282.62,0.02383
1276.83,0.02540
1271.04,0.02752
1265.26,0.02992
1259.47,0.02924
1253.68,0.02914
1247.9,0.03009
1242.11,0.03049
1236.33,0.03061
1230.54,0.03017
1224.75,0.03062
1218.97,0.03118
1213.18,0.03100
1207.39,0.03056
1201.61,0.03027
1195.82,0.03021
1190.04,0.03117
1184.25,0.03097
1178.46,0.03062
1172.68,0.02947
1166.89,0.02970
1161.1,0.02951
1155.32,0.02950
1149.53,0.02889
1143.75,0.02893
1137.96,0.02829
1132.17,0.02684
1126.39,0.02564
1120.6,0.02648
1114.81,0.02806
1109.03,0.02811
1103.24,0.02792
1097.46,0.02922
1091.67,0.02907
1085.88,0.02928
1080.1,0.02969
1074.31,0.03117
1068.52,0.03136
1062.74,0.03060
1056.95,0.03172
1051.17,0.03142
1045.38,0.03127
1039.59,0.03164
1033.81,0.03123
1028.02,0.03091
1022.24,0.02894
1016.45,0.02989
1010.66,0.03123
1004.88,0.03198
999.09,0.03138
993.304,0.03062
987.518,0.03059
981.731,0.03037
975.945,0.02982
970.159,0.02916
964.373,0.02886
958.586,0.02909
952.8,0.02875
947.014,0.02977
941.228,0.03068
935.441,0.03157
929.655,0.03126
923.869,0.03077
918.083,0.03154
912.297,0.03165
906.51,0.03161
900.724,0.03202
894.938,0.03285
889.152,0.03300
883.365,0.03213
877.579,0.03000
871.793,0.03081
866.007,0.03205
860.22,0.03219
854.434,0.03212
848.648,0.03188
842.862,0.03213
837.075,0.03213
831.289,0.03206
825.503,0.03340
819.717,0.03347
813.931,0.03447
808.144,0.03385
802.358,0.03478
796.572,0.03368
790.786,0.03347
784.999,0.03282
779.213,0.03265
773.427,0.03176
767.641,0.03116
761.854,0.03209
756.068,0.03197
750.282,0.03130
744.496,0.03057
738.709,0.02659
732.923,0.02634
727.137,0.03024
721.351,0.03225
715.565,0.03134
709.778,0.03096
703.992,0.02879
698.206,0.02967
692.42,0.02946
686.633,0.02862
680.847,0.02835
675.061,0.03019
669.275,0.03021
663.488,0.03006
657.702,0.02997
651.916,0.02849
646.13,0.02544
640.343,0.02773
634.557,0.02608
628.771,0.02555
622.985,0.02524
617.198,0.02817
611.412,0.02845
605.626,0.02729
599.84,0.02927