File: 01_Data/Window_Screen/FTIR/IS/Window_Screen_IS_S_220829_R6.dpt
7497.03,0.04064
7491.25,0.03864
7485.46,0.03535
7479.67,0.04326
7473.89,0.04321
7468.1,0.03998
7462.32,0.04644
7456.53,0.04789
7450.74,0.03865
7444.96,0.03754
7439.17,0.03741
7433.38,0.03135
7427.6,0.03757
7421.81,0.03305
7416.03,0.04363
7410.24,0.04218
7404.45,0.03876
7398.67,0.03920
7392.88,0.04214
7387.09,0.03849
7381.31,0.04015
7375.52,0.04252
7369.74,0.03997
7363.95,0.03669
7358.16,0.03967
7352.38,0.03883
7346.59,0.03461
7340.8,0.03876
7335.02,0.04131
7329.23,0.03925
7323.45,0.03416
7317.66,0.04069
7311.87,0.04549
7306.09,0.03863
7300.3,0.03825
7294.51,0.03828
7288.73,0.03604
7282.94,0.03740
7277.16,0.03482
7271.37,0.03606
7265.58,0.04065
7259.8,0.04042
7254.01,0.03927
7248.22,0.03690
7242.44,0.03877
7236.65,0.04135
7230.87,0.03665
7225.08,0.03850
7219.29,0.03829
7213.51,0.03835
7207.72,0.03463
7201.93,0.03365
7196.15,0.03606
7190.36,0.03725
7184.58,0.03901
7178.79,0.03824
7173,0.03664
7167.22,0.03754
7161.43,0.03270
7155.65,0.02979
7149.86,0.04289
7144.07,0.03930
7138.29,0.03419
7132.5,0.04488
7126.71,0.03821
7120.93,0.03576
7115.14,0.03985
7109.36,0.04321
7103.57,0.03609
7097.78,0.04060
7092,0.04019
7086.21,0.03885
7080.42,0.04070
7074.64,0.03731
7068.85,0.03755
7063.07,0.03781
7057.28,0.03513
7051.49,0.04185
7045.71,0.03832
7039.92,0.04438
7034.13,0.03578
7028.35,0.04285
7022.56,0.03834
7016.78,0.04062
7010.99,0.04051
7005.2,0.03456
6999.42,0.04066
6993.63,0.03675
6987.84,0.03930
6982.06,0.03727
6976.27,0.03682
6970.49,0.03325
6964.7,0.04170
6958.91,0.03877
6953.13,0.03447
6947.34,0.04260
6941.55,0.03666
6935.77,0.03675
6929.98,0.04267
6924.2,0.03817
6918.41,0.04181
6912.62,0.03582
6906.84,0.03751
6901.05,0.03641
6895.26,0.03863
6889.48,0.03465
6883.69,0.03985
6877.91,0.03725
6872.12,0.03389
6866.33,0.03210
6860.55,0.03871
6854.76,0.03694
6848.97,0.04143
6843.19,0.04178
6837.4,0.03947
6831.62,0.03486
6825.83,0.03402
6820.04,0.04111
6814.26,0.03649
6808.47,0.03821
6802.68,0.03829
6796.9,0.03611
6791.11,0.03424
6785.33,0.03664
6779.54,0.03412
6773.75,0.03958
6767.97,0.04025
6762.18,0.04097
6756.39,0.03851
6750.61,0.03764
6744.82,0.03796
6739.04,0.03492
6733.25,0.03850
6727.46,0.03804
6721.68,0.03742
6715.89,0.03450
6710.1,0.03952
6704.32,0.03710
6698.53,0.03966
6692.75,0.03668
6686.96,0.03904
6681.17,0.04207
6675.39,0.04139
6669.6,0.03889
6663.82,0.03636
6658.03,0.04166
6652.24,0.03462
6646.46,0.03634
6640.67,0.03554
6634.88,0.03461
6629.1,0.04046
6623.31,0.03551
6617.53,0.03609
6611.74,0.03717
6605.95,0.04006
6600.17,0.03746
6594.38,0.03887
6588.59,0.03525
6582.81,0.03635
6577.02,0.03611
6571.24,0.03433
6565.45,0.03544
6559.66,0.03694
6553.88,0.03859
6548.09,0.03468
6542.3,0.03708
6536.52,0.03841
6530.73,0.03599
6524.95,0.03738
6519.16,0.03778
6513.37,0.03802
6507.59,0.03747
6501.8,0.03671
6496.01,0.03443
6490.23,0.03763
6484.44,0.03711
6478.66,0.03802
6472.87,0.03925
6467.08,0.03302
6461.3,0.03656
6455.51,0.04031
6449.72,0.03881
6443.94,0.03620
6438.15,0.03632
6432.37,0.03635
6426.58,0.03680
6420.79,0.03573
6415.01,0.04008
6409.22,0.03614
6403.43,0.03630
6397.65,0.03926
6391.86,0.03678
6386.08,0.03636
6380.29,0.03653
6374.5,0.04060
6368.72,0.03357
6362.93,0.03524
6357.14,0.03699
6351.36,0.03920
6345.57,0.03255
6339.79,0.03430
6334,0.03894
6328.21,0.03813
6322.43,0.03678
6316.64,0.03486
6310.85,0.03332
6305.07,0.03630
6299.28,0.03798
6293.5,0.03872
6287.71,0.03628
6281.92,0.03959
6276.14,0.03936
6270.35,0.04023
6264.56,0.03586
6258.78,0.03954
6252.99,0.03496
6247.21,0.03665
6241.42,0.03753
6235.63,0.03876
6229.85,0.03977
6224.06,0.03909
6218.27,0.03602
6212.49,0.04034
6206.7,0.03727
6200.92,0.03317
6195.13,0.03810
6189.34,0.03546
6183.56,0.03558
6177.77,0.03499
6171.98,0.03495
6166.2,0.03425
6160.41,0.03520
6154.63,0.03433
6148.84,0.03823
6143.05,0.03658
6137.27,0.03693
6131.48,0.03471
6125.7,0.03844
6119.91,0.03485
6114.12,0.03797
6108.34,0.03892
6102.55,0.03839
6096.76,0.03595
6090.98,0.03657
6085.19,0.03576
6079.41,0.03668
6073.62,0.03943
6067.83,0.03923
6062.05,0.03740
6056.26,0.03867
6050.47,0.03871
6044.69,0.03910
6038.9,0.03784
6033.12,0.03793
6027.33,0.03674
6021.54,0.03708
6015.76,0.03482
6009.97,0.03784
6004.18,0.03800
5998.4,0.03559
5992.61,0.03711
5986.83,0.03357
5981.04,0.03557
5975.25,0.03608
5969.47,0.03535
5963.68,0.03923
5957.89,0.03698
5952.11,0.03716
5946.32,0.03544
5940.54,0.03731
5934.75,0.03755
5928.96,0.03383
5923.18,0.03869
5917.39,0.03749
5911.6,0.03878
5905.82,0.03948
5900.03,0.03679
5894.25,0.03798
5888.46,0.03798
5882.67,0.03870
5876.89,0.03600
5871.1,0.03704
5865.31,0.03858
5859.53,0.03972
5853.74,0.03691
5847.96,0.03563
5842.17,0.03722
5836.38,0.03813
5830.6,0.03801
5824.81,0.03557
5819.02,0.03714
5813.24,0.03655
5807.45,0.03880
5801.67,0.03942
5795.88,0.03764
5790.09,0.03553
5784.31,0.03479
5778.52,0.03881
5772.73,0.03766
5766.95,0.03543
5761.16,0.03765
5755.38,0.03746
5749.59,0.03829
5743.8,0.03792
5738.02,0.03686
5732.23,0.03927
5726.44,0.03716
5720.66,0.03828
5714.87,0.03996
5709.09,0.03703
5703.3,0.03775
5697.51,0.03769
5691.73,0.03707
5685.94,0.03788
5680.15,0.03813
5674.37,0.03791
5668.58,0.03801
5662.8,0.03762
5657.01,0.03729
5651.22,0.03606
5645.44,0.03949
5639.65,0.03536
5633.87,0.03791
5628.08,0.03600
5622.29,0.03596
5616.51,0.03806
5610.72,0.03869
5604.93,0.03842
5599.15,0.03705
5593.36,0.03790
5587.58,0.03924
5581.79,0.03654
5576,0.03876
5570.22,0.03811
5564.43,0.03969
5558.64,0.03952
5552.86,0.03756
5547.07,0.03861
5541.29,0.03881
5535.5,0.04079
5529.71,0.03730
5523.93,0.03815
5518.14,0.04030
5512.35,0.03671
5506.57,0.03824
5500.78,0.03892
5495,0.03874
5489.21,0.03845
5483.42,0.03776
5477.64,0.03956
5471.85,0.03857
5466.06,0.03637
5460.28,0.03832
5454.49,0.04038
5448.71,0.03863
5442.92,0.03766
5437.13,0.03884
5431.35,0.03814
5425.56,0.03896
5419.77,0.03699
5413.99,0.03941
5408.2,0.03820
5402.42,0.03795
5396.63,0.04020
5390.84,0.03773
5385.06,0.03983
5379.27,0.03790
5373.48,0.04000
5367.7,0.03922
5361.91,0.03893
5356.13,0.04007
5350.34,0.03877
5344.55,0.03894
5338.77,0.03915
5332.98,0.03858
5327.19,0.03818
5321.41,0.03998
5315.62,0.03973
5309.84,0.03668
5304.05,0.03788
5298.26,0.03842
5292.48,0.03958
5286.69,0.03987
5280.9,0.03986
5275.12,0.03782
5269.33,0.04175
5263.55,0.04154
5257.76,0.03965
5251.97,0.03723
5246.19,0.03974
5240.4,0.03872
5234.61,0.03816
5228.83,0.03864
5223.04,0.03939
5217.26,0.03965
5211.47,0.04057
5205.68,0.03789
5199.9,0.03849
5194.11,0.04077
5188.32,0.03923
5182.54,0.03972
5176.75,0.03986
5170.97,0.04007
5165.18,0.04035
5159.39,0.03899
5153.61,0.04021
5147.82,0.04043
5142.03,0.03998
5136.25,0.03814
5130.46,0.03844
5124.68,0.04018
5118.89,0.03897
5113.1,0.03819
5107.32,0.03945
5101.53,0.03921
5095.75,0.03962
5089.96,0.04060
5084.17,0.04078
5078.39,0.03917
5072.6,0.04030
5066.81,0.03891
5061.03,0.03984
5055.24,0.03877
5049.46,0.03820
5043.67,0.03910
5037.88,0.04001
5032.1,0.03939
5026.31,0.03930
5020.52,0.03897
5014.74,0.03892
5008.95,0.04011
5003.17,0.04132
4997.38,0.04017
4991.59,0.03961
4985.81,0.03985
4980.02,0.04002
4974.23,0.03977
4968.45,0.03889
4962.66,0.04048
4956.88,0.03987
4951.09,0.03880
4945.3,0.03983
4939.52,0.03931
4933.73,0.03963
4927.94,0.04028
4922.16,0.03953
4916.37,0.03976
4910.59,0.03930
4904.8,0.03973
4899.01,0.04020
4893.23,0.03943
4887.44,0.03939
4881.65,0.03970
4875.87,0.03917
4870.08,0.04018
4864.3,0.03956
4858.51,0.03950
4852.72,0.03901
4846.94,0.03916
4841.15,0.03985
4835.36,0.04052
4829.58,0.04032
4823.79,0.04099
4818.01,0.04040
4812.22,0.03946
4806.43,0.04034
4800.65,0.03980
4794.86,0.04073
4789.07,0.04034
4783.29,0.03969
4777.5,0.03957
4771.72,0.04004
4765.93,0.04072
4760.14,0.04008
4754.36,0.04016
4748.57,0.04013
4742.78,0.04108
4737,0.04013
4731.21,0.04094
4725.43,0.04033
4719.64,0.04094
4713.85,0.04099
4708.07,0.03945
4702.28,0.04003
4696.49,0.04063
4690.71,0.04054
4684.92,0.04073
4679.14,0.04036
4673.35,0.03974
4667.56,0.04106
4661.78,0.04052
4655.99,0.04110
4650.2,0.03985
4644.42,0.04108
4638.63,0.04140
4632.85,0.04020
4627.06,0.03974
4621.27,0.04118
4615.49,0.04190
4609.7,0.04075
4603.92,0.04047
4598.13,0.03983
4592.34,0.03952
4586.56,0.04081
4580.77,0.04014
4574.98,0.04107
4569.2,0.03991
4563.41,0.04025
4557.63,0.04168
4551.84,0.03965
4546.05,0.04096
4540.27,0.04044
4534.48,0.04028
4528.69,0.04135
4522.91,0.04073
4517.12,0.04005
4511.34,0.04088
4505.55,0.04079
4499.76,0.04108
4493.98,0.04105
4488.19,0.04041
4482.4,0.04045
4476.62,0.04035
4470.83,0.04125
4465.05,0.04080
4459.26,0.04035
4453.47,0.04178
4447.69,0.04117
4441.9,0.04101
4436.11,0.04035
4430.33,0.04122
4424.54,0.04087
4418.76,0.04046
4412.97,0.04008
4407.18,0.03956
4401.4,0.03917
4395.61,0.04008
4389.82,0.03970
4384.04,0.04053
4378.25,0.03974
4372.47,0.03871
4366.68,0.03877
4360.89,0.03926
4355.11,0.03930
4349.32,0.03883
4343.53,0.03855
4337.75,0.03890
4331.96,0.03870
4326.18,0.03844
4320.39,0.03909
4314.6,0.03891
4308.82,0.03913
4303.03,0.03921
4297.24,0.03914
4291.46,0.03932
4285.67,0.03952
4279.89,0.03953
4274.1,0.03930
4268.31,0.03980
4262.53,0.03924
4256.74,0.04060
4250.95,0.03917
4245.17,0.03967
4239.38,0.03957
4233.6,0.03927
4227.81,0.03859
4222.02,0.03939
4216.24,0.04016
4210.45,0.03992
4204.66,0.04041
4198.88,0.03988
4193.09,0.04046
4187.31,0.04043
4181.52,0.03958
4175.73,0.04013
4169.95,0.03944
4164.16,0.03919
4158.37,0.04058
4152.59,0.04045
4146.8,0.03996
4141.02,0.04032
4135.23,0.04004
4129.44,0.03977
4123.66,0.04056
4117.87,0.04042
4112.09,0.04061
4106.3,0.04016
4100.51,0.04066
4094.73,0.04059
4088.94,0.03980
4083.15,0.03994
4077.37,0.03967
4071.58,0.04044
4065.8,0.03985
4060.01,0.04069
4054.22,0.04086
4048.44,0.04072
4042.65,0.04050
4036.86,0.04099
4031.08,0.04130
4025.29,0.04150
4019.51,0.04128
4013.72,0.04126
4007.93,0.04153
4002.15,0.04070
3996.36,0.04122
3990.57,0.04152
3984.79,0.04160
3979,0.04219
3973.22,0.04169
3967.43,0.04217
3961.64,0.04157
3955.86,0.04136
3950.07,0.04253
3944.28,0.04162
3938.5,0.04167
3932.71,0.04181
3926.93,0.04192
3921.14,0.04196
3915.35,0.04196
3909.57,0.04207
3903.78,0.04178
3897.99,0.04199
3892.21,0.04235
3886.42,0.04194
3880.64,0.04193
3874.85,0.04212
3869.06,0.04190
3863.28,0.04164
3857.49,0.04158
3851.7,0.04199
3845.92,0.04239
3840.13,0.04261
3834.35,0.04246
3828.56,0.04275
3822.77,0.04324
3816.99,0.04237
3811.2,0.04235
3805.41,0.04185
3799.63,0.04138
3793.84,0.04229
3788.06,0.04262
3782.27,0.04298
3776.48,0.04256
3770.7,0.04267
3764.91,0.04262
3759.12,0.04241
3753.34,0.04315
3747.55,0.04315
3741.77,0.04227
3735.98,0.04246
3730.19,0.04227
3724.41,0.04262
3718.62,0.04245
3712.83,0.04267
3707.05,0.04273
3701.26,0.04229
3695.48,0.04252
3689.69,0.04285
3683.9,0.04238
3678.12,0.04235
3672.33,0.04174
3666.54,0.04160
3660.76,0.04182
3654.97,0.04289
3649.19,0.04283
3643.4,0.04219
3637.61,0.04148
3631.83,0.04228
3626.04,0.04162
3620.25,0.04193
3614.47,0.04095
3608.68,0.04120
3602.9,0.04206
3597.11,0.04193
3591.32,0.04158
3585.54,0.04065
3579.75,0.04117
3573.97,0.04064
3568.18,0.04119
3562.39,0.04133
3556.61,0.04132
3550.82,0.04131
3545.03,0.04060
3539.25,0.04081
3533.46,0.04053
3527.68,0.04065
3521.89,0.04073
3516.1,0.04006
3510.32,0.04057
3504.53,0.04023
3498.74,0.04064
3492.96,0.03986
3487.17,0.03980
3481.39,0.04030
3475.6,0.03986
3469.81,0.03974
3464.03,0.03950
3458.24,0.03933
3452.45,0.03917
3446.67,0.03915
3440.88,0.03892
3435.1,0.03891
3429.31,0.03843
3423.52,0.03881
3417.74,0.03771
3411.95,0.03823
3406.16,0.03801
3400.38,0.03840
3394.59,0.03908
3388.81,0.03871
3383.02,0.03928
3377.23,0.03884
3371.45,0.03862
3365.66,0.03931
3359.87,0.03912
3354.09,0.03883
3348.3,0.03892
3342.52,0.03830
3336.73,0.03811
3330.94,0.03920
3325.16,0.03911
3319.37,0.03844
3313.58,0.03914
3307.8,0.03853
3302.01,0.03784
3296.23,0.03796
3290.44,0.03874
3284.65,0.03869
3278.87,0.03833
3273.08,0.03904
3267.29,0.03933
3261.51,0.03933
3255.72,0.03950
3249.94,0.03906
3244.15,0.03982
3238.36,0.03936
3232.58,0.03873
3226.79,0.03945
3221,0.03870
3215.22,0.03942
3209.43,0.03863
3203.65,0.03943
3197.86,0.03970
3192.07,0.03943
3186.29,0.03927
3180.5,0.03978
3174.71,0.03970
3168.93,0.03967
3163.14,0.03955
3157.36,0.03975
3151.57,0.03941
3145.78,0.03964
3140,0.03954
3134.21,0.03960
3128.42,0.03978
3122.64,0.03980
3116.85,0.03973
3111.07,0.03937
3105.28,0.03863
3099.49,0.03888
3093.71,0.03855
3087.92,0.03851
3082.14,0.03803
3076.35,0.03811
3070.56,0.03817
3064.78,0.03749
3058.99,0.03812
3053.2,0.03787
3047.42,0.03773
3041.63,0.03789
3035.85,0.03744
3030.06,0.03702
3024.27,0.03665
3018.49,0.03625
3012.7,0.03565
3006.91,0.03461
3001.13,0.03333
2995.34,0.03244
2989.56,0.03055
2983.77,0.02941
2977.98,0.02809
2972.2,0.02725
2966.41,0.02724
2960.62,0.02700
2954.84,0.02757
2949.05,0.02804
2943.27,0.02782
2937.48,0.02771
2931.69,0.02791
2925.91,0.02763
2920.12,0.02833
2914.33,0.02918
2908.55,0.02901
2902.76,0.02936
2896.98,0.02974
2891.19,0.03041
2885.4,0.02962
2879.62,0.02942
2873.83,0.02897
2868.04,0.02936
2862.26,0.02924
2856.47,0.02959
2850.69,0.03000
2844.9,0.03123
2839.11,0.03265
2833.33,0.03371
2827.54,0.03438
2821.75,0.03537
2815.97,0.03549
2810.18,0.03656
2804.4,0.03703
2798.61,0.03803
2792.82,0.03861
2787.04,0.03850
2781.25,0.03859
2775.46,0.03977
2769.68,0.03963
2763.89,0.03971
2758.11,0.04006
2752.32,0.03985
2746.53,0.03927
2740.75,0.03937
2734.96,0.03923
2729.17,0.04007
2723.39,0.04073
2717.6,0.04040
2711.82,0.04068
2706.03,0.04052
2700.24,0.04076
2694.46,0.04130
2688.67,0.04060
2682.88,0.04082
2677.1,0.04123
2671.31,0.04135
2665.53,0.04115
2659.74,0.04170
2653.95,0.04146
2648.17,0.04195
2642.38,0.04197
2636.59,0.04188
2630.81,0.04163
2625.02,0.04164
2619.24,0.04129
2613.45,0.04190
2607.66,0.04171
2601.88,0.04171
2596.09,0.04198
2590.3,0.04215
2584.52,0.04204
2578.73,0.04223
2572.95,0.04225
2567.16,0.04221
2561.37,0.04226
2555.59,0.04227
2549.8,0.04218
2544.02,0.04241
2538.23,0.04318
2532.44,0.04249
2526.66,0.04269
2520.87,0.04279
2515.08,0.04325
2509.3,0.04326
2503.51,0.04349
2497.73,0.04351
2491.94,0.04359
2486.15,0.04387
2480.37,0.04388
2474.58,0.04402
2468.79,0.04370
2463.01,0.04446
2457.22,0.04439
2451.44,0.04422
2445.65,0.04406
2439.86,0.04355
2434.08,0.04375
2428.29,0.04348
2422.5,0.04318
2416.72,0.04309
2410.93,0.04359
2405.15,0.04307
2399.36,0.04320
2393.57,0.04299
2387.79,0.04328
2382,0.04309
2376.21,0.04306
2370.43,0.04352
2364.64,0.04354
2358.86,0.04372
2353.07,0.04431
2347.28,0.04413
2341.5,0.04392
2335.71,0.04450
2329.92,0.04466
2324.14,0.04463
2318.35,0.04479
2312.57,0.04454
2306.78,0.04479
2300.99,0.04488
2295.21,0.04443
2289.42,0.04461
2283.63,0.04465
2277.85,0.04431
2272.06,0.04438
2266.28,0.04495
2260.49,0.04511
2254.7,0.04464
2248.92,0.04464
2243.13,0.04491
2237.34,0.04484
2231.56,0.04479
2225.77,0.04496
2219.99,0.04503
2214.2,0.04492
2208.41,0.04482
2202.63,0.04494
2196.84,0.04492
2191.05,0.04529
2185.27,0.04536
2179.48,0.04540
2173.7,0.04526
2167.91,0.04530
2162.12,0.04508
2156.34,0.04515
2150.55,0.04535
2144.76,0.04546
2138.98,0.04495
2133.19,0.04525
2127.41,0.04500
2121.62,0.04540
2115.83,0.04519
2110.05,0.04508
2104.26,0.04450
2098.47,0.04515
2092.69,0.04493
2086.9,0.04506
2081.12,0.04471
2075.33,0.04450
2069.54,0.04463
2063.76,0.04427
2057.97,0.04479
2052.19,0.04459
2046.4,0.04464
2040.61,0.04489
2034.83,0.04487
2029.04,0.04495
2023.25,0.04459
2017.47,0.04454
2011.68,0.04479
2005.9,0.04482
2000.11,0.04497
1994.32,0.04431
1988.54,0.04456
1982.75,0.04449
1976.96,0.04412
1971.18,0.04385
1965.39,0.04370
1959.61,0.04293
1953.82,0.04267
1948.03,0.04226
1942.25,0.04226
1936.46,0.04297
1930.67,0.04303
1924.89,0.04343
1919.1,0.04343
1913.32,0.04373
1907.53,0.04376
1901.74,0.04368
1895.96,0.04371
1890.17,0.04355
1884.38,0.04364
1878.6,0.04338
1872.81,0.04358
1867.03,0.04339
1861.24,0.04301
1855.45,0.04260
1849.67,0.04258
1843.88,0.04254
1838.09,0.04214
1832.31,0.04176
1826.52,0.04046
1820.74,0.04048
1814.95,0.04069
1809.16,0.04058
1803.38,0.04049
1797.59,0.04017
1791.8,0.03941
1786.02,0.03938
1780.23,0.03826
1774.45,0.03732
1768.66,0.03674
1762.87,0.03539
1757.09,0.03414
1751.3,0.03237
1745.51,0.03036
1739.73,0.02831
1733.94,0.02655
1728.16,0.02567
1722.37,0.02722
1716.58,0.02884
1710.8,0.02955
1705.01,0.02999
1699.22,0.03093
1693.44,0.03222
1687.65,0.03333
1681.87,0.03283
1676.08,0.03348
1670.29,0.03369
1664.51,0.03472
1658.72,0.03558
1652.93,0.03643
1647.15,0.03661
1641.36,0.03688
1635.58,0.03738
1629.79,0.03728
1624,0.03704
1618.22,0.03674
1612.43,0.03584
1606.64,0.03623
1600.86,0.03642
1595.07,0.03620
1589.29,0.03618
1583.5,0.03433
1577.71,0.03327
1571.93,0.03394
1566.14,0.03490
1560.35,0.03481
1554.57,0.03496
1548.78,0.03490
1543,0.03559
1537.21,0.03547
1531.42,0.03538
1525.64,0.03473
1519.85,0.03539
1514.07,0.03438
1508.28,0.03315
1502.49,0.03208
1496.71,0.03422
1490.92,0.03392
1485.13,0.03266
1479.35,0.03157
1473.56,0.02940
1467.78,0.02728
1461.99,0.02750
1456.2,0.02838
1450.42,0.02859
1444.63,0.02862
1438.84,0.02808
1433.06,0.02788
1427.27,0.02783
1421.49,0.02868
1415.7,0.02885
1409.91,0.02844
1404.13,0.02911
1398.34,0.03006
1392.55,0.02881
1386.77,0.02785
1380.98,0.02748
1375.2,0.02867
1369.41,0.02930
1363.62,0.02911
1357.84,0.02842
1352.05,0.02827
1346.26,0.02813
1340.48,0.02717
1334.69,0.02683
1328.91,0.02703
1323.12,0.02670
1317.33,0.02626
1311.55,0.02638
1305.76,0.02615
1299.97,0.02578
1294.19,0.02533
1288.4,0.02466
1282.62,0.02434
1276.83,0.02513
1271.04,0.02837
1265.26,0.02976
1259.47,0.02939
1253.68,0.02971
1247.9,0.03075
1242.11,0.03052
1236.33,0.03103
1230.54,0.03101
1224.75,0.03147
1218.97,0.03149
1213.18,0.03071
1207.39,0.03049
1201.61,0.03023
1195.82,0.03034
1190.04,0.03096
1184.25,0.03145
1178.46,0.03081
1172.68,0.03035
1166.89,0.03058
1161.1,0.03004
1155.32,0.02988
1149.53,0.02915
1143.75,0.02884
1137.96,0.02798
1132.17,0.02704
1126.39,0.02627
1120.6,0.02593
1114.81,0.02733
1109.03,0.02752
1103.24,0.02915
1097.46,0.02962
1091.67,0.02949
1085.88,0.02905
1080.1,0.03032
1074.31,0.03100
1068.52,0.03122
1062.74,0.03156
1056.95,0.03181
1051.17,0.03185
1045.38,0.03208
1039.59,0.03132
1033.81,0.03144
1028.02,0.03118
1022.24,0.02898
1016.45,0.03032
1010.66,0.03165
1004.88,0.03197
999.09,0.03185
993.304,0.03120
987.518,0.03023
981.731,0.02990
975.945,0.03001
970.159,0.02976
964.373,0.02937
958.586,0.02932
952.8,0.02984
947.014,0.03054
941.228,0.03136
935.441,0.03108
929.655,0.03077
923.869,0.03096
918.083,0.03131
912.297,0.03165
906.51,0.03191
900.724,0.03295
894.938,0.03327
889.152,0.03258
883.365,0.03281
877.579,0.03031
871.793,0.03098
866.007,0.03248
860.22,0.03250
854.434,0.03235
848.648,0.03192
842.862,0.03203
837.075,0.03210
831.289,0.03281
825.503,0.03342
819.717,0.03372
813.931,0.03445
808.144,0.03488
802.358,0.03434
796.572,0.03300
790.786,0.03269
784.999,0.03292
779.213,0.03283
773.427,0.03256
767.641,0.03186
761.854,0.03194
756.068,0.03181
750.282,0.03129
744.496,0.03070
738.709,0.02741
732.923,0.02643
727.137,0.02987
721.351,0.03272
715.565,0.03186
709.778,0.03144
703.992,0.02855
698.206,0.02967
692.42,0.03002
686.633,0.02956
680.847,0.02991
675.061,0.03040
669.275,0.03078
663.488,0.02997
657.702,0.02914
651.916,0.02552
646.13,0.02644
640.343,0.02592
634.557,0.02473
628.771,0.02580
622.985,0.02647
617.198,0.02430
611.412,0.02447
605.626,0.02839
599.84,0.03082