File: 01_Data/Window_Screen/FTIR/IS/Window_Screen_IS_T_220829_R6.dpt
7497.03,0.02342
7491.25,0.02226
7485.46,0.02977
7479.67,0.02810
7473.89,0.02202
7468.1,0.03189
7462.32,0.03184
7456.53,0.03069
7450.74,0.03454
7444.96,0.01894
7439.17,0.03071
7433.38,0.02221
7427.6,0.02476
7421.81,0.02924
7416.03,0.02383
7410.24,0.02500
7404.45,0.02165
7398.67,0.02137
7392.88,0.02244
7387.09,0.01791
7381.31,0.02736
7375.52,0.01671
7369.74,0.02385
7363.95,0.01720
7358.16,0.02121
7352.38,0.02422
7346.59,0.01892
7340.8,0.01883
7335.02,0.02662
7329.23,0.02588
7323.45,0.02257
7317.66,0.02742
7311.87,0.03248
7306.09,0.02797
7300.3,0.02775
7294.51,0.02648
7288.73,0.02736
7282.94,0.01847
7277.16,0.02019
7271.37,0.03224
7265.58,0.03158
7259.8,0.02858
7254.01,0.02489
7248.22,0.02568
7242.44,0.02850
7236.65,0.02702
7230.87,0.02884
7225.08,0.02724
7219.29,0.02464
7213.51,0.02576
7207.72,0.03225
7201.93,0.03087
7196.15,0.01978
7190.36,0.02300
7184.58,0.02187
7178.79,0.03245
7173,0.02728
7167.22,0.02645
7161.43,0.02583
7155.65,0.02680
7149.86,0.02275
7144.07,0.03001
7138.29,0.02116
7132.5,0.02174
7126.71,0.02330
7120.93,0.02678
7115.14,0.02407
7109.36,0.03112
7103.57,0.02875
7097.78,0.02531
7092,0.02186
7086.21,0.02260
7080.42,0.02843
7074.64,0.02570
7068.85,0.02028
7063.07,0.02881
7057.28,0.02920
7051.49,0.02538
7045.71,0.02466
7039.92,0.02492
7034.13,0.02740
7028.35,0.03095
7022.56,0.02592
7016.78,0.02946
7010.99,0.02842
7005.2,0.02581
6999.42,0.01941
6993.63,0.02710
6987.84,0.02723
6982.06,0.01589
6976.27,0.01850
6970.49,0.01808
6964.7,0.02359
6958.91,0.02859
6953.13,0.02373
6947.34,0.01950
6941.55,0.02451
6935.77,0.01863
6929.98,0.02603
6924.2,0.02344
6918.41,0.02441
6912.62,0.02103
6906.84,0.02415
6901.05,0.02090
6895.26,0.02005
6889.48,0.02257
6883.69,0.01847
6877.91,0.02573
6872.12,0.02119
6866.33,0.02187
6860.55,0.02280
6854.76,0.01962
6848.97,0.02417
6843.19,0.02266
6837.4,0.02460
6831.62,0.02394
6825.83,0.02093
6820.04,0.02326
6814.26,0.02438
6808.47,0.02373
6802.68,0.02293
6796.9,0.02016
6791.11,0.02119
6785.33,0.02224
6779.54,0.02675
6773.75,0.02033
6767.97,0.02357
6762.18,0.02094
6756.39,0.02663
6750.61,0.02459
6744.82,0.02509
6739.04,0.01954
6733.25,0.01786
6727.46,0.02324
6721.68,0.02463
6715.89,0.02416
6710.1,0.01821
6704.32,0.01882
6698.53,0.02473
6692.75,0.02672
6686.96,0.02695
6681.17,0.02091
6675.39,0.02497
6669.6,0.01995
6663.82,0.02447
6658.03,0.01808
6652.24,0.02284
6646.46,0.02317
6640.67,0.02483
6634.88,0.02562
6629.1,0.02547
6623.31,0.02381
6617.53,0.02303
6611.74,0.02378
6605.95,0.02203
6600.17,0.02736
6594.38,0.01791
6588.59,0.02296
6582.81,0.02130
6577.02,0.02345
6571.24,0.02459
6565.45,0.02083
6559.66,0.02200
6553.88,0.02322
6548.09,0.02017
6542.3,0.02103
6536.52,0.02311
6530.73,0.02028
6524.95,0.02518
6519.16,0.02615
6513.37,0.02636
6507.59,0.02329
6501.8,0.01962
6496.01,0.02157
6490.23,0.02014
6484.44,0.02059
6478.66,0.01845
6472.87,0.02726
6467.08,0.02317
6461.3,0.02672
6455.51,0.02206
6449.72,0.02456
6443.94,0.02433
6438.15,0.02119
6432.37,0.02028
6426.58,0.02025
6420.79,0.02032
6415.01,0.02074
6409.22,0.02633
6403.43,0.01926
6397.65,0.02090
6391.86,0.02072
6386.08,0.02240
6380.29,0.02166
6374.5,0.01949
6368.72,0.02368
6362.93,0.02240
6357.14,0.02300
6351.36,0.02260
6345.57,0.02067
6339.79,0.02075
6334,0.02206
6328.21,0.02109
6322.43,0.02437
6316.64,0.02354
6310.85,0.02433
6305.07,0.02363
6299.28,0.02145
6293.5,0.02268
6287.71,0.02067
6281.92,0.02196
6276.14,0.02336
6270.35,0.02121
6264.56,0.02277
6258.78,0.02142
6252.99,0.02053
6247.21,0.01958
6241.42,0.02291
6235.63,0.02140
6229.85,0.02038
6224.06,0.02063
6218.27,0.02082
6212.49,0.02533
6206.7,0.02236
6200.92,0.02369
6195.13,0.02174
6189.34,0.02235
6183.56,0.02422
6177.77,0.02106
6171.98,0.02196
6166.2,0.02389
6160.41,0.02272
6154.63,0.02125
6148.84,0.02044
6143.05,0.01989
6137.27,0.02119
6131.48,0.01881
6125.7,0.02378
6119.91,0.02365
6114.12,0.02306
6108.34,0.02212
6102.55,0.02348
6096.76,0.01981
6090.98,0.02083
6085.19,0.02054
6079.41,0.02115
6073.62,0.02244
6067.83,0.02244
6062.05,0.02250
6056.26,0.02153
6050.47,0.02214
6044.69,0.02461
6038.9,0.02288
6033.12,0.02425
6027.33,0.02205
6021.54,0.02228
6015.76,0.02053
6009.97,0.01976
6004.18,0.02026
5998.4,0.02065
5992.61,0.02206
5986.83,0.02183
5981.04,0.02347
5975.25,0.02170
5969.47,0.02182
5963.68,0.02306
5957.89,0.01976
5952.11,0.01925
5946.32,0.02096
5940.54,0.02001
5934.75,0.02431
5928.96,0.02163
5923.18,0.02170
5917.39,0.02116
5911.6,0.02074
5905.82,0.02230
5900.03,0.02153
5894.25,0.01944
5888.46,0.02326
5882.67,0.02218
5876.89,0.02117
5871.1,0.02321
5865.31,0.02152
5859.53,0.02195
5853.74,0.01991
5847.96,0.02117
5842.17,0.02343
5836.38,0.02302
5830.6,0.02451
5824.81,0.02306
5819.02,0.02026
5813.24,0.02176
5807.45,0.02239
5801.67,0.02266
5795.88,0.02264
5790.09,0.02183
5784.31,0.02039
5778.52,0.02388
5772.73,0.02151
5766.95,0.02191
5761.16,0.02101
5755.38,0.01974
5749.59,0.02200
5743.8,0.02337
5738.02,0.02369
5732.23,0.02171
5726.44,0.02282
5720.66,0.02355
5714.87,0.02139
5709.09,0.02281
5703.3,0.02382
5697.51,0.02254
5691.73,0.02268
5685.94,0.02127
5680.15,0.02314
5674.37,0.02085
5668.58,0.02212
5662.8,0.02244
5657.01,0.02414
5651.22,0.02129
5645.44,0.02336
5639.65,0.02194
5633.87,0.02144
5628.08,0.02084
5622.29,0.02190
5616.51,0.02299
5610.72,0.02143
5604.93,0.02157
5599.15,0.02219
5593.36,0.02305
5587.58,0.02167
5581.79,0.02138
5576,0.02168
5570.22,0.02236
5564.43,0.02055
5558.64,0.02312
5552.86,0.02210
5547.07,0.02161
5541.29,0.02155
5535.5,0.02222
5529.71,0.02171
5523.93,0.02360
5518.14,0.02432
5512.35,0.02254
5506.57,0.02271
5500.78,0.02052
5495,0.02151
5489.21,0.01954
5483.42,0.02276
5477.64,0.02177
5471.85,0.02158
5466.06,0.02286
5460.28,0.02199
5454.49,0.02109
5448.71,0.02211
5442.92,0.02037
5437.13,0.02242
5431.35,0.02176
5425.56,0.02178
5419.77,0.02099
5413.99,0.02191
5408.2,0.02232
5402.42,0.02193
5396.63,0.02133
5390.84,0.02217
5385.06,0.02312
5379.27,0.02411
5373.48,0.02173
5367.7,0.02161
5361.91,0.02140
5356.13,0.02174
5350.34,0.02289
5344.55,0.02232
5338.77,0.02091
5332.98,0.02188
5327.19,0.02082
5321.41,0.02112
5315.62,0.02181
5309.84,0.02157
5304.05,0.02208
5298.26,0.02261
5292.48,0.02376
5286.69,0.02207
5280.9,0.02303
5275.12,0.02123
5269.33,0.02236
5263.55,0.02252
5257.76,0.02339
5251.97,0.02259
5246.19,0.02258
5240.4,0.02202
5234.61,0.02157
5228.83,0.02191
5223.04,0.02213
5217.26,0.02227
5211.47,0.02154
5205.68,0.02223
5199.9,0.02196
5194.11,0.02026
5188.32,0.02324
5182.54,0.02303
5176.75,0.02298
5170.97,0.02313
5165.18,0.02106
5159.39,0.02181
5153.61,0.02244
5147.82,0.02203
5142.03,0.02145
5136.25,0.02268
5130.46,0.02268
5124.68,0.02221
5118.89,0.02280
5113.1,0.02196
5107.32,0.02233
5101.53,0.02301
5095.75,0.02202
5089.96,0.02262
5084.17,0.02202
5078.39,0.02267
5072.6,0.02278
5066.81,0.02225
5061.03,0.02209
5055.24,0.02312
5049.46,0.02206
5043.67,0.02134
5037.88,0.02285
5032.1,0.02138
5026.31,0.02230
5020.52,0.02159
5014.74,0.02171
5008.95,0.02217
5003.17,0.02265
4997.38,0.02244
4991.59,0.02149
4985.81,0.02227
4980.02,0.02253
4974.23,0.02185
4968.45,0.02165
4962.66,0.02233
4956.88,0.02250
4951.09,0.02290
4945.3,0.02274
4939.52,0.02322
4933.73,0.02269
4927.94,0.02227
4922.16,0.02258
4916.37,0.02231
4910.59,0.02248
4904.8,0.02135
4899.01,0.02308
4893.23,0.02199
4887.44,0.02306
4881.65,0.02201
4875.87,0.02278
4870.08,0.02279
4864.3,0.02246
4858.51,0.02286
4852.72,0.02299
4846.94,0.02341
4841.15,0.02255
4835.36,0.02195
4829.58,0.02283
4823.79,0.02235
4818.01,0.02132
4812.22,0.02155
4806.43,0.02229
4800.65,0.02136
4794.86,0.02052
4789.07,0.02230
4783.29,0.02226
4777.5,0.02221
4771.72,0.02167
4765.93,0.02269
4760.14,0.02229
4754.36,0.02194
4748.57,0.02257
4742.78,0.02187
4737,0.02127
4731.21,0.02205
4725.43,0.02303
4719.64,0.02301
4713.85,0.02232
4708.07,0.02178
4702.28,0.02150
4696.49,0.02302
4690.71,0.02217
4684.92,0.02159
4679.14,0.02203
4673.35,0.02138
4667.56,0.02166
4661.78,0.02231
4655.99,0.02204
4650.2,0.02178
4644.42,0.02237
4638.63,0.02194
4632.85,0.02171
4627.06,0.02135
4621.27,0.02246
4615.49,0.02263
4609.7,0.02223
4603.92,0.02169
4598.13,0.02235
4592.34,0.02198
4586.56,0.02169
4580.77,0.02183
4574.98,0.02185
4569.2,0.02287
4563.41,0.02205
4557.63,0.02218
4551.84,0.02156
4546.05,0.02197
4540.27,0.02251
4534.48,0.02218
4528.69,0.02314
4522.91,0.02276
4517.12,0.02239
4511.34,0.02220
4505.55,0.02245
4499.76,0.02196
4493.98,0.02180
4488.19,0.02183
4482.4,0.02166
4476.62,0.02222
4470.83,0.02248
4465.05,0.02210
4459.26,0.02233
4453.47,0.02240
4447.69,0.02230
4441.9,0.02308
4436.11,0.02293
4430.33,0.02251
4424.54,0.02249
4418.76,0.02213
4412.97,0.02194
4407.18,0.02122
4401.4,0.02196
4395.61,0.02299
4389.82,0.02241
4384.04,0.02247
4378.25,0.02285
4372.47,0.02207
4366.68,0.02207
4360.89,0.02194
4355.11,0.02181
4349.32,0.02174
4343.53,0.02298
4337.75,0.02291
4331.96,0.02234
4326.18,0.02216
4320.39,0.02225
4314.6,0.02141
4308.82,0.02299
4303.03,0.02288
4297.24,0.02236
4291.46,0.02174
4285.67,0.02236
4279.89,0.02246
4274.1,0.02229
4268.31,0.02208
4262.53,0.02334
4256.74,0.02306
4250.95,0.02237
4245.17,0.02298
4239.38,0.02301
4233.6,0.02211
4227.81,0.02241
4222.02,0.02225
4216.24,0.02227
4210.45,0.02289
4204.66,0.02229
4198.88,0.02269
4193.09,0.02270
4187.31,0.02214
4181.52,0.02294
4175.73,0.02196
4169.95,0.02172
4164.16,0.02237
4158.37,0.02266
4152.59,0.02266
4146.8,0.02206
4141.02,0.02223
4135.23,0.02222
4129.44,0.02195
4123.66,0.02210
4117.87,0.02200
4112.09,0.02279
4106.3,0.02271
4100.51,0.02229
4094.73,0.02264
4088.94,0.02205
4083.15,0.02294
4077.37,0.02329
4071.58,0.02254
4065.8,0.02260
4060.01,0.02246
4054.22,0.02194
4048.44,0.02167
4042.65,0.02197
4036.86,0.02237
4031.08,0.02243
4025.29,0.02234
4019.51,0.02237
4013.72,0.02244
4007.93,0.02241
4002.15,0.02158
3996.36,0.02202
3990.57,0.02354
3984.79,0.02190
3979,0.02182
3973.22,0.02202
3967.43,0.02230
3961.64,0.02253
3955.86,0.02289
3950.07,0.02268
3944.28,0.02190
3938.5,0.02321
3932.71,0.02273
3926.93,0.02229
3921.14,0.02182
3915.35,0.02192
3909.57,0.02220
3903.78,0.02204
3897.99,0.02233
3892.21,0.02320
3886.42,0.02240
3880.64,0.02244
3874.85,0.02213
3869.06,0.02308
3863.28,0.02280
3857.49,0.02258
3851.7,0.02221
3845.92,0.02222
3840.13,0.02300
3834.35,0.02230
3828.56,0.02277
3822.77,0.02320
3816.99,0.02241
3811.2,0.02332
3805.41,0.02328
3799.63,0.02256
3793.84,0.02225
3788.06,0.02216
3782.27,0.02238
3776.48,0.02254
3770.7,0.02216
3764.91,0.02179
3759.12,0.02237
3753.34,0.02243
3747.55,0.02282
3741.77,0.02206
3735.98,0.02284
3730.19,0.02228
3724.41,0.02254
3718.62,0.02239
3712.83,0.02278
3707.05,0.02254
3701.26,0.02169
3695.48,0.02208
3689.69,0.02224
3683.9,0.02177
3678.12,0.02185
3672.33,0.02235
3666.54,0.02196
3660.76,0.02162
3654.97,0.02160
3649.19,0.02214
3643.4,0.02207
3637.61,0.02182
3631.83,0.02137
3626.04,0.02219
3620.25,0.02176
3614.47,0.02171
3608.68,0.02201
3602.9,0.02229
3597.11,0.02165
3591.32,0.02157
3585.54,0.02154
3579.75,0.02143
3573.97,0.02121
3568.18,0.02150
3562.39,0.02119
3556.61,0.02196
3550.82,0.02161
3545.03,0.02089
3539.25,0.02143
3533.46,0.02106
3527.68,0.02192
3521.89,0.02141
3516.1,0.02096
3510.32,0.02088
3504.53,0.02106
3498.74,0.02085
3492.96,0.02065
3487.17,0.02079
3481.39,0.02062
3475.6,0.02058
3469.81,0.02092
3464.03,0.02086
3458.24,0.02148
3452.45,0.02031
3446.67,0.02073
3440.88,0.02069
3435.1,0.02087
3429.31,0.01998
3423.52,0.02083
3417.74,0.02094
3411.95,0.02089
3406.16,0.02051
3400.38,0.02019
3394.59,0.02057
3388.81,0.02083
3383.02,0.02047
3377.23,0.02026
3371.45,0.02010
3365.66,0.01995
3359.87,0.02067
3354.09,0.01997
3348.3,0.02033
3342.52,0.02085
3336.73,0.01948
3330.94,0.01972
3325.16,0.01959
3319.37,0.02095
3313.58,0.02032
3307.8,0.02025
3302.01,0.02029
3296.23,0.02056
3290.44,0.02052
3284.65,0.02014
3278.87,0.02024
3273.08,0.02048
3267.29,0.02064
3261.51,0.01996
3255.72,0.02078
3249.94,0.02070
3244.15,0.02078
3238.36,0.02144
3232.58,0.02058
3226.79,0.02029
3221,0.02083
3215.22,0.01979
3209.43,0.02041
3203.65,0.02027
3197.86,0.02109
3192.07,0.02067
3186.29,0.02105
3180.5,0.02140
3174.71,0.02092
3168.93,0.02131
3163.14,0.02044
3157.36,0.02038
3151.57,0.02056
3145.78,0.02087
3140,0.02130
3134.21,0.02089
3128.42,0.02052
3122.64,0.02104
3116.85,0.02031
3111.07,0.02067
3105.28,0.02120
3099.49,0.02087
3093.71,0.02087
3087.92,0.02059
3082.14,0.02059
3076.35,0.02085
3070.56,0.02067
3064.78,0.02054
3058.99,0.02048
3053.2,0.02047
3047.42,0.02045
3041.63,0.02059
3035.85,0.02058
3030.06,0.02059
3024.27,0.02079
3018.49,0.02018
3012.7,0.02025
3006.91,0.02035
3001.13,0.02029
2995.34,0.01994
2989.56,0.01954
2983.77,0.01970
2977.98,0.01928
2972.2,0.01966
2966.41,0.01964
2960.62,0.01927
2954.84,0.01941
2949.05,0.01934
2943.27,0.01991
2937.48,0.01949
2931.69,0.01945
2925.91,0.01978
2920.12,0.02026
2914.33,0.02034
2908.55,0.02002
2902.76,0.02047
2896.98,0.02066
2891.19,0.02047
2885.4,0.02019
2879.62,0.02000
2873.83,0.02026
2868.04,0.02030
2862.26,0.02045
2856.47,0.02034
2850.69,0.02027
2844.9,0.02119
2839.11,0.02112
2833.33,0.02155
2827.54,0.02099
2821.75,0.02136
2815.97,0.02099
2810.18,0.02074
2804.4,0.02142
2798.61,0.02098
2792.82,0.02119
2787.04,0.02117
2781.25,0.02140
2775.46,0.02098
2769.68,0.02103
2763.89,0.02091
2758.11,0.02095
2752.32,0.02115
2746.53,0.02095
2740.75,0.02103
2734.96,0.02106
2729.17,0.02065
2723.39,0.02096
2717.6,0.02064
2711.82,0.02086
2706.03,0.02113
2700.24,0.02095
2694.46,0.02131
2688.67,0.02127
2682.88,0.02139
2677.1,0.02085
2671.31,0.02096
2665.53,0.02110
2659.74,0.02131
2653.95,0.02139
2648.17,0.02144
2642.38,0.02141
2636.59,0.02111
2630.81,0.02080
2625.02,0.02140
2619.24,0.02101
2613.45,0.02100
2607.66,0.02116
2601.88,0.02120
2596.09,0.02106
2590.3,0.02117
2584.52,0.02135
2578.73,0.02060
2572.95,0.02076
2567.16,0.02105
2561.37,0.02067
2555.59,0.02101
2549.8,0.02123
2544.02,0.02132
2538.23,0.02119
2532.44,0.02117
2526.66,0.02076
2520.87,0.02060
2515.08,0.02100
2509.3,0.02118
2503.51,0.02070
2497.73,0.02084
2491.94,0.02087
2486.15,0.02074
2480.37,0.02053
2474.58,0.02065
2468.79,0.02093
2463.01,0.02088
2457.22,0.02115
2451.44,0.02104
2445.65,0.02126
2439.86,0.02105
2434.08,0.02091
2428.29,0.02070
2422.5,0.02088
2416.72,0.02112
2410.93,0.02093
2405.15,0.02095
2399.36,0.02119
2393.57,0.02097
2387.79,0.02114
2382,0.02142
2376.21,0.02073
2370.43,0.02117
2364.64,0.02086
2358.86,0.02123
2353.07,0.02104
2347.28,0.02088
2341.5,0.02096
2335.71,0.02111
2329.92,0.02105
2324.14,0.02135
2318.35,0.02117
2312.57,0.02072
2306.78,0.02083
2300.99,0.02098
2295.21,0.02110
2289.42,0.02077
2283.63,0.02080
2277.85,0.02076
2272.06,0.02093
2266.28,0.02065
2260.49,0.02092
2254.7,0.02066
2248.92,0.02103
2243.13,0.02054
2237.34,0.02081
2231.56,0.02077
2225.77,0.02066
2219.99,0.02065
2214.2,0.02053
2208.41,0.02076
2202.63,0.02087
2196.84,0.02088
2191.05,0.02065
2185.27,0.02071
2179.48,0.02052
2173.7,0.02087
2167.91,0.02130
2162.12,0.02077
2156.34,0.02084
2150.55,0.02074
2144.76,0.02068
2138.98,0.02081
2133.19,0.02111
2127.41,0.02096
2121.62,0.02088
2115.83,0.02071
2110.05,0.02085
2104.26,0.02074
2098.47,0.02057
2092.69,0.02052
2086.9,0.02064
2081.12,0.02061
2075.33,0.02088
2069.54,0.02067
2063.76,0.02084
2057.97,0.02042
2052.19,0.02047
2046.4,0.02072
2040.61,0.02081
2034.83,0.02067
2029.04,0.02071
2023.25,0.02082
2017.47,0.02101
2011.68,0.02079
2005.9,0.02063
2000.11,0.02048
1994.32,0.02068
1988.54,0.02041
1982.75,0.02061
1976.96,0.02064
1971.18,0.02070
1965.39,0.02078
1959.61,0.02062
1953.82,0.02066
1948.03,0.02045
1942.25,0.02041
1936.46,0.02058
1930.67,0.02080
1924.89,0.02027
1919.1,0.02011
1913.32,0.02035
1907.53,0.02054
1901.74,0.02068
1895.96,0.02039
1890.17,0.02015
1884.38,0.02045
1878.6,0.02045
1872.81,0.02056
1867.03,0.02012
1861.24,0.02028
1855.45,0.02015
1849.67,0.02001
1843.88,0.01994
1838.09,0.01987
1832.31,0.02000
1826.52,0.01999
1820.74,0.01993
1814.95,0.01972
1809.16,0.01987
1803.38,0.01995
1797.59,0.01952
1791.8,0.01947
1786.02,0.01901
1780.23,0.01865
1774.45,0.01899
1768.66,0.01838
1762.87,0.01789
1757.09,0.01756
1751.3,0.01807
1745.51,0.01758
1739.73,0.01868
1733.94,0.01989
1728.16,0.02010
1722.37,0.02096
1716.58,0.02085
1710.8,0.02033
1705.01,0.02018
1699.22,0.01968
1693.44,0.01934
1687.65,0.01960
1681.87,0.01889
1676.08,0.01904
1670.29,0.01893
1664.51,0.01830
1658.72,0.01843
1652.93,0.01883
1647.15,0.01836
1641.36,0.01814
1635.58,0.01839
1629.79,0.01844
1624,0.01851
1618.22,0.01897
1612.43,0.01897
1606.64,0.01887
1600.86,0.01888
1595.07,0.01875
1589.29,0.01867
1583.5,0.01842
1577.71,0.01873
1571.93,0.01835
1566.14,0.01803
1560.35,0.01812
1554.57,0.01845
1548.78,0.01837
1543,0.01839
1537.21,0.01824
1531.42,0.01845
1525.64,0.01841
1519.85,0.01849
1514.07,0.01859
1508.28,0.01846
1502.49,0.01830
1496.71,0.01855
1490.92,0.01857
1485.13,0.01835
1479.35,0.01829
1473.56,0.01857
1467.78,0.01777
1461.99,0.01874
1456.2,0.01869
1450.42,0.01909
1444.63,0.01872
1438.84,0.01902
1433.06,0.01818
1427.27,0.01824
1421.49,0.01837
1415.7,0.01832
1409.91,0.01805
1404.13,0.01798
1398.34,0.01806
1392.55,0.01762
1386.77,0.01790
1380.98,0.01781
1375.2,0.01837
1369.41,0.01826
1363.62,0.01798
1357.84,0.01776
1352.05,0.01797
1346.26,0.01803
1340.48,0.01771
1334.69,0.01750
1328.91,0.01768
1323.12,0.01682
1317.33,0.01678
1311.55,0.01682
1305.76,0.01667
1299.97,0.01740
1294.19,0.01761
1288.4,0.01843
1282.62,0.01895
1276.83,0.01925
1271.04,0.01928
1265.26,0.02005
1259.47,0.02024
1253.68,0.02043
1247.9,0.02052
1242.11,0.02024
1236.33,0.02025
1230.54,0.02004
1224.75,0.01965
1218.97,0.01925
1213.18,0.01909
1207.39,0.01869
1201.61,0.01886
1195.82,0.01849
1190.04,0.01851
1184.25,0.01823
1178.46,0.01798
1172.68,0.01809
1166.89,0.01776
1161.1,0.01741
1155.32,0.01763
1149.53,0.01707
1143.75,0.01806
1137.96,0.01759
1132.17,0.01816
1126.39,0.01866
1120.6,0.01886
1114.81,0.01914
1109.03,0.01835
1103.24,0.01814
1097.46,0.01830
1091.67,0.01809
1085.88,0.01846
1080.1,0.01972
1074.31,0.01980
1068.52,0.02031
1062.74,0.01955
1056.95,0.01956
1051.17,0.01993
1045.38,0.01952
1039.59,0.01946
1033.81,0.01955
1028.02,0.01890
1022.24,0.01847
1016.45,0.01922
1010.66,0.02041
1004.88,0.02102
999.09,0.02107
993.304,0.02073
987.518,0.02092
981.731,0.02042
975.945,0.02071
970.159,0.02054
964.373,0.02006
958.586,0.02009
952.8,0.01996
947.014,0.02008
941.228,0.01932
935.441,0.01960
929.655,0.01965
923.869,0.01953
918.083,0.01895
912.297,0.01974
906.51,0.01818
900.724,0.01881
894.938,0.01870
889.152,0.01947
883.365,0.01904
877.579,0.01893
871.793,0.01903
866.007,0.01892
860.22,0.01905
854.434,0.01943
848.648,0.01892
842.862,0.01929
837.075,0.01837
831.289,0.01804
825.503,0.01929
819.717,0.01904
813.931,0.01819
808.144,0.01940
802.358,0.01807
796.572,0.01879
790.786,0.01830
784.999,0.01852
779.213,0.01853
773.427,0.01876
767.641,0.01859
761.854,0.01789
756.068,0.01771
750.282,0.01744
744.496,0.01906
738.709,0.01853
732.923,0.01889
727.137,0.01775
721.351,0.01831
715.565,0.01730
709.778,0.01795
703.992,0.01882
698.206,0.01737
692.42,0.01734
686.633,0.01672
680.847,0.01760
675.061,0.01771
669.275,0.01809
663.488,0.01704
657.702,0.01593
651.916,0.01611
646.13,0.01598
640.343,0.01768
634.557,0.01674
628.771,0.01584
622.985,0.01593
617.198,0.01584
611.412,0.01505
605.626,0.01708
599.84,0.01585