File: 01_Data/Window_Screen/FTIR/IS/Window_Screen_IS_S_220829_R1.dpt
7497.03,0.03987
7491.25,0.04007
7485.46,0.03964
7479.67,0.05150
7473.89,0.03287
7468.1,0.04024
7462.32,0.03574
7456.53,0.04514
7450.74,0.03860
7444.96,0.03176
7439.17,0.03607
7433.38,0.02753
7427.6,0.03418
7421.81,0.03596
7416.03,0.03273
7410.24,0.03966
7404.45,0.04014
7398.67,0.03480
7392.88,0.02971
7387.09,0.03636
7381.31,0.03937
7375.52,0.03779
7369.74,0.03721
7363.95,0.04057
7358.16,0.03376
7352.38,0.03942
7346.59,0.03438
7340.8,0.03490
7335.02,0.03793
7329.23,0.04456
7323.45,0.03984
7317.66,0.03828
7311.87,0.03594
7306.09,0.03372
7300.3,0.04304
7294.51,0.04265
7288.73,0.03944
7282.94,0.03902
7277.16,0.03865
7271.37,0.04053
7265.58,0.03177
7259.8,0.04173
7254.01,0.05089
7248.22,0.04325
7242.44,0.04337
7236.65,0.03312
7230.87,0.03685
7225.08,0.03898
7219.29,0.04372
7213.51,0.04074
7207.72,0.04266
7201.93,0.03576
7196.15,0.03345
7190.36,0.04068
7184.58,0.04292
7178.79,0.03550
7173,0.03438
7167.22,0.03974
7161.43,0.04040
7155.65,0.04289
7149.86,0.04344
7144.07,0.03835
7138.29,0.03535
7132.5,0.03236
7126.71,0.04160
7120.93,0.03521
7115.14,0.03474
7109.36,0.03778
7103.57,0.04081
7097.78,0.03300
7092,0.03672
7086.21,0.04083
7080.42,0.04087
7074.64,0.04031
7068.85,0.04093
7063.07,0.04159
7057.28,0.04022
7051.49,0.03944
7045.71,0.04211
7039.92,0.03588
7034.13,0.03535
7028.35,0.04114
7022.56,0.04496
7016.78,0.03706
7010.99,0.03757
7005.2,0.03177
6999.42,0.03963
6993.63,0.04018
6987.84,0.03946
6982.06,0.03620
6976.27,0.03895
6970.49,0.03362
6964.7,0.03494
6958.91,0.03676
6953.13,0.04316
6947.34,0.03663
6941.55,0.03173
6935.77,0.04011
6929.98,0.03417
6924.2,0.03678
6918.41,0.03830
6912.62,0.03959
6906.84,0.03385
6901.05,0.03681
6895.26,0.03905
6889.48,0.03747
6883.69,0.03514
6877.91,0.03305
6872.12,0.03505
6866.33,0.03484
6860.55,0.03537
6854.76,0.03402
6848.97,0.03301
6843.19,0.04247
6837.4,0.03956
6831.62,0.03538
6825.83,0.03165
6820.04,0.03340
6814.26,0.03610
6808.47,0.03522
6802.68,0.03824
6796.9,0.03779
6791.11,0.03926
6785.33,0.03454
6779.54,0.03710
6773.75,0.03664
6767.97,0.03663
6762.18,0.03470
6756.39,0.03464
6750.61,0.03652
6744.82,0.03700
6739.04,0.03706
6733.25,0.03990
6727.46,0.03382
6721.68,0.03689
6715.89,0.03701
6710.1,0.03653
6704.32,0.03775
6698.53,0.03739
6692.75,0.04182
6686.96,0.03538
6681.17,0.03587
6675.39,0.03768
6669.6,0.03594
6663.82,0.03691
6658.03,0.03703
6652.24,0.04059
6646.46,0.03687
6640.67,0.03763
6634.88,0.03704
6629.1,0.03901
6623.31,0.04094
6617.53,0.03898
6611.74,0.03990
6605.95,0.03752
6600.17,0.03714
6594.38,0.03834
6588.59,0.03594
6582.81,0.03943
6577.02,0.03844
6571.24,0.03415
6565.45,0.04132
6559.66,0.03968
6553.88,0.03847
6548.09,0.03912
6542.3,0.03909
6536.52,0.03311
6530.73,0.03776
6524.95,0.03408
6519.16,0.03387
6513.37,0.03745
6507.59,0.03166
6501.8,0.03761
6496.01,0.03641
6490.23,0.03854
6484.44,0.03732
6478.66,0.03800
6472.87,0.03795
6467.08,0.03716
6461.3,0.03711
6455.51,0.03326
6449.72,0.03962
6443.94,0.04198
6438.15,0.03804
6432.37,0.03771
6426.58,0.03518
6420.79,0.03354
6415.01,0.03788
6409.22,0.03820
6403.43,0.03724
6397.65,0.03515
6391.86,0.03655
6386.08,0.03537
6380.29,0.03626
6374.5,0.03682
6368.72,0.03336
6362.93,0.03284
6357.14,0.03331
6351.36,0.03456
6345.57,0.03763
6339.79,0.03812
6334,0.03748
6328.21,0.03817
6322.43,0.03851
6316.64,0.03488
6310.85,0.03602
6305.07,0.03798
6299.28,0.03688
6293.5,0.03476
6287.71,0.03736
6281.92,0.03652
6276.14,0.04034
6270.35,0.03702
6264.56,0.03497
6258.78,0.03568
6252.99,0.03856
6247.21,0.03727
6241.42,0.03629
6235.63,0.03878
6229.85,0.03804
6224.06,0.03702
6218.27,0.03728
6212.49,0.04004
6206.7,0.03614
6200.92,0.03859
6195.13,0.03838
6189.34,0.03618
6183.56,0.03732
6177.77,0.03877
6171.98,0.03625
6166.2,0.03461
6160.41,0.03807
6154.63,0.03956
6148.84,0.03460
6143.05,0.03748
6137.27,0.03869
6131.48,0.03554
6125.7,0.03525
6119.91,0.03885
6114.12,0.03874
6108.34,0.03573
6102.55,0.03689
6096.76,0.03854
6090.98,0.03734
6085.19,0.03715
6079.41,0.03806
6073.62,0.03669
6067.83,0.03673
6062.05,0.03584
6056.26,0.03655
6050.47,0.03673
6044.69,0.03793
6038.9,0.03822
6033.12,0.03839
6027.33,0.03527
6021.54,0.03487
6015.76,0.03563
6009.97,0.03704
6004.18,0.03718
5998.4,0.03700
5992.61,0.03539
5986.83,0.03837
5981.04,0.03805
5975.25,0.03598
5969.47,0.03605
5963.68,0.03485
5957.89,0.03973
5952.11,0.03717
5946.32,0.03714
5940.54,0.03514
5934.75,0.03572
5928.96,0.03737
5923.18,0.03624
5917.39,0.03585
5911.6,0.03556
5905.82,0.03483
5900.03,0.03625
5894.25,0.03691
5888.46,0.03708
5882.67,0.03718
5876.89,0.03764
5871.1,0.03937
5865.31,0.03895
5859.53,0.03728
5853.74,0.03682
5847.96,0.03645
5842.17,0.03819
5836.38,0.03527
5830.6,0.03619
5824.81,0.03598
5819.02,0.03466
5813.24,0.03841
5807.45,0.03537
5801.67,0.03593
5795.88,0.03848
5790.09,0.03724
5784.31,0.03677
5778.52,0.03745
5772.73,0.03845
5766.95,0.03713
5761.16,0.03759
5755.38,0.03679
5749.59,0.03674
5743.8,0.03723
5738.02,0.03733
5732.23,0.03732
5726.44,0.03853
5720.66,0.03785
5714.87,0.03741
5709.09,0.03686
5703.3,0.03677
5697.51,0.03713
5691.73,0.03730
5685.94,0.03789
5680.15,0.03860
5674.37,0.03730
5668.58,0.03720
5662.8,0.03818
5657.01,0.03702
5651.22,0.03963
5645.44,0.03822
5639.65,0.03839
5633.87,0.03811
5628.08,0.03744
5622.29,0.03497
5616.51,0.03809
5610.72,0.03666
5604.93,0.03901
5599.15,0.03742
5593.36,0.03688
5587.58,0.04087
5581.79,0.03780
5576,0.03729
5570.22,0.03811
5564.43,0.03785
5558.64,0.03962
5552.86,0.03743
5547.07,0.03769
5541.29,0.03670
5535.5,0.03732
5529.71,0.03764
5523.93,0.03751
5518.14,0.03796
5512.35,0.03857
5506.57,0.03816
5500.78,0.03785
5495,0.03879
5489.21,0.03824
5483.42,0.03842
5477.64,0.03881
5471.85,0.03809
5466.06,0.03887
5460.28,0.03804
5454.49,0.03852
5448.71,0.03783
5442.92,0.03746
5437.13,0.03635
5431.35,0.03881
5425.56,0.03898
5419.77,0.03984
5413.99,0.04006
5408.2,0.03844
5402.42,0.03972
5396.63,0.03781
5390.84,0.03736
5385.06,0.03855
5379.27,0.03933
5373.48,0.03786
5367.7,0.03888
5361.91,0.03832
5356.13,0.03840
5350.34,0.03838
5344.55,0.03947
5338.77,0.03981
5332.98,0.03871
5327.19,0.03894
5321.41,0.03789
5315.62,0.03926
5309.84,0.03949
5304.05,0.03980
5298.26,0.03898
5292.48,0.03835
5286.69,0.03851
5280.9,0.04145
5275.12,0.03820
5269.33,0.03930
5263.55,0.03947
5257.76,0.03909
5251.97,0.03947
5246.19,0.03929
5240.4,0.03861
5234.61,0.03788
5228.83,0.03920
5223.04,0.03879
5217.26,0.03808
5211.47,0.03911
5205.68,0.03751
5199.9,0.03882
5194.11,0.03806
5188.32,0.03863
5182.54,0.03818
5176.75,0.03916
5170.97,0.03987
5165.18,0.03929
5159.39,0.03892
5153.61,0.03881
5147.82,0.03926
5142.03,0.03894
5136.25,0.03842
5130.46,0.03964
5124.68,0.03984
5118.89,0.03848
5113.1,0.04016
5107.32,0.03966
5101.53,0.03829
5095.75,0.03939
5089.96,0.03911
5084.17,0.03929
5078.39,0.03996
5072.6,0.03880
5066.81,0.03998
5061.03,0.03998
5055.24,0.03891
5049.46,0.03921
5043.67,0.03947
5037.88,0.03883
5032.1,0.03872
5026.31,0.03889
5020.52,0.03960
5014.74,0.03904
5008.95,0.03971
5003.17,0.03877
4997.38,0.03919
4991.59,0.03946
4985.81,0.03861
4980.02,0.03888
4974.23,0.04069
4968.45,0.03906
4962.66,0.04001
4956.88,0.04007
4951.09,0.03891
4945.3,0.03958
4939.52,0.03900
4933.73,0.03902
4927.94,0.04048
4922.16,0.04031
4916.37,0.03866
4910.59,0.03926
4904.8,0.03916
4899.01,0.04064
4893.23,0.04046
4887.44,0.03824
4881.65,0.04063
4875.87,0.03978
4870.08,0.03962
4864.3,0.03992
4858.51,0.03966
4852.72,0.03970
4846.94,0.03818
4841.15,0.04038
4835.36,0.04092
4829.58,0.04086
4823.79,0.03945
4818.01,0.03948
4812.22,0.03950
4806.43,0.03989
4800.65,0.03956
4794.86,0.03935
4789.07,0.03955
4783.29,0.03929
4777.5,0.03971
4771.72,0.04085
4765.93,0.04060
4760.14,0.04024
4754.36,0.04065
4748.57,0.04036
4742.78,0.03978
4737,0.04055
4731.21,0.04006
4725.43,0.04033
4719.64,0.04048
4713.85,0.03917
4708.07,0.03924
4702.28,0.04061
4696.49,0.04023
4690.71,0.03995
4684.92,0.04012
4679.14,0.03955
4673.35,0.03985
4667.56,0.03950
4661.78,0.04071
4655.99,0.04009
4650.2,0.04008
4644.42,0.04032
4638.63,0.03986
4632.85,0.04111
4627.06,0.04006
4621.27,0.04061
4615.49,0.04025
4609.7,0.04030
4603.92,0.03946
4598.13,0.04011
4592.34,0.04055
4586.56,0.04066
4580.77,0.04083
4574.98,0.04045
4569.2,0.04074
4563.41,0.04071
4557.63,0.04109
4551.84,0.04119
4546.05,0.04023
4540.27,0.03977
4534.48,0.04095
4528.69,0.04075
4522.91,0.04089
4517.12,0.04069
4511.34,0.04050
4505.55,0.04040
4499.76,0.04099
4493.98,0.04017
4488.19,0.04132
4482.4,0.04073
4476.62,0.04084
4470.83,0.04020
4465.05,0.04025
4459.26,0.04107
4453.47,0.04101
4447.69,0.04065
4441.9,0.03967
4436.11,0.04080
4430.33,0.04060
4424.54,0.04015
4418.76,0.03920
4412.97,0.04029
4407.18,0.04002
4401.4,0.03971
4395.61,0.03969
4389.82,0.03960
4384.04,0.04000
4378.25,0.03912
4372.47,0.03818
4366.68,0.03916
4360.89,0.03924
4355.11,0.03843
4349.32,0.03849
4343.53,0.03827
4337.75,0.03843
4331.96,0.03872
4326.18,0.03876
4320.39,0.03858
4314.6,0.03862
4308.82,0.03907
4303.03,0.03937
4297.24,0.03970
4291.46,0.03897
4285.67,0.03908
4279.89,0.03848
4274.1,0.03907
4268.31,0.03949
4262.53,0.03952
4256.74,0.03947
4250.95,0.03945
4245.17,0.03945
4239.38,0.03929
4233.6,0.03960
4227.81,0.03915
4222.02,0.03908
4216.24,0.03887
4210.45,0.03890
4204.66,0.03936
4198.88,0.03950
4193.09,0.03973
4187.31,0.04002
4181.52,0.03946
4175.73,0.03979
4169.95,0.03952
4164.16,0.03937
4158.37,0.04042
4152.59,0.03938
4146.8,0.04039
4141.02,0.03971
4135.23,0.04026
4129.44,0.04026
4123.66,0.04065
4117.87,0.04007
4112.09,0.04065
4106.3,0.04055
4100.51,0.04005
4094.73,0.03973
4088.94,0.03965
4083.15,0.04003
4077.37,0.03931
4071.58,0.04051
4065.8,0.04010
4060.01,0.04031
4054.22,0.03999
4048.44,0.04046
4042.65,0.04136
4036.86,0.04070
4031.08,0.04063
4025.29,0.04083
4019.51,0.04115
4013.72,0.04079
4007.93,0.04066
4002.15,0.04083
3996.36,0.04006
3990.57,0.04131
3984.79,0.04174
3979,0.04077
3973.22,0.04082
3967.43,0.04124
3961.64,0.04132
3955.86,0.04134
3950.07,0.04127
3944.28,0.04136
3938.5,0.04150
3932.71,0.04183
3926.93,0.04148
3921.14,0.04165
3915.35,0.04095
3909.57,0.04221
3903.78,0.04159
3897.99,0.04116
3892.21,0.04221
3886.42,0.04114
3880.64,0.04146
3874.85,0.04192
3869.06,0.04226
3863.28,0.04191
3857.49,0.04183
3851.7,0.04158
3845.92,0.04213
3840.13,0.04219
3834.35,0.04187
3828.56,0.04252
3822.77,0.04254
3816.99,0.04265
3811.2,0.04241
3805.41,0.04185
3799.63,0.04194
3793.84,0.04280
3788.06,0.04183
3782.27,0.04193
3776.48,0.04216
3770.7,0.04158
3764.91,0.04245
3759.12,0.04238
3753.34,0.04214
3747.55,0.04257
3741.77,0.04230
3735.98,0.04262
3730.19,0.04255
3724.41,0.04289
3718.62,0.04280
3712.83,0.04224
3707.05,0.04308
3701.26,0.04243
3695.48,0.04205
3689.69,0.04202
3683.9,0.04207
3678.12,0.04217
3672.33,0.04234
3666.54,0.04221
3660.76,0.04213
3654.97,0.04166
3649.19,0.04173
3643.4,0.04120
3637.61,0.04185
3631.83,0.04149
3626.04,0.04135
3620.25,0.04169
3614.47,0.04097
3608.68,0.04088
3602.9,0.04082
3597.11,0.04092
3591.32,0.04177
3585.54,0.04081
3579.75,0.04073
3573.97,0.04085
3568.18,0.04071
3562.39,0.04072
3556.61,0.04050
3550.82,0.04006
3545.03,0.03988
3539.25,0.04036
3533.46,0.03973
3527.68,0.03956
3521.89,0.03965
3516.1,0.03982
3510.32,0.04032
3504.53,0.03996
3498.74,0.03966
3492.96,0.03881
3487.17,0.03950
3481.39,0.03938
3475.6,0.03866
3469.81,0.03911
3464.03,0.03905
3458.24,0.03879
3452.45,0.03848
3446.67,0.03829
3440.88,0.03775
3435.1,0.03711
3429.31,0.03707
3423.52,0.03706
3417.74,0.03793
3411.95,0.03774
3406.16,0.03786
3400.38,0.03795
3394.59,0.03756
3388.81,0.03835
3383.02,0.03832
3377.23,0.03784
3371.45,0.03867
3365.66,0.03832
3359.87,0.03826
3354.09,0.03811
3348.3,0.03764
3342.52,0.03754
3336.73,0.03806
3330.94,0.03765
3325.16,0.03776
3319.37,0.03816
3313.58,0.03789
3307.8,0.03843
3302.01,0.03760
3296.23,0.03810
3290.44,0.03821
3284.65,0.03793
3278.87,0.03898
3273.08,0.03798
3267.29,0.03822
3261.51,0.03809
3255.72,0.03926
3249.94,0.03927
3244.15,0.03879
3238.36,0.03871
3232.58,0.03861
3226.79,0.03948
3221,0.03823
3215.22,0.03920
3209.43,0.03877
3203.65,0.03820
3197.86,0.03934
3192.07,0.03925
3186.29,0.03906
3180.5,0.03852
3174.71,0.03915
3168.93,0.03974
3163.14,0.03970
3157.36,0.03898
3151.57,0.03900
3145.78,0.03977
3140,0.03913
3134.21,0.03952
3128.42,0.03906
3122.64,0.03864
3116.85,0.03922
3111.07,0.03896
3105.28,0.03897
3099.49,0.03850
3093.71,0.03817
3087.92,0.03824
3082.14,0.03838
3076.35,0.03769
3070.56,0.03778
3064.78,0.03756
3058.99,0.03707
3053.2,0.03722
3047.42,0.03717
3041.63,0.03781
3035.85,0.03763
3030.06,0.03704
3024.27,0.03610
3018.49,0.03593
3012.7,0.03493
3006.91,0.03437
3001.13,0.03328
2995.34,0.03149
2989.56,0.03056
2983.77,0.02925
2977.98,0.02765
2972.2,0.02741
2966.41,0.02694
2960.62,0.02755
2954.84,0.02737
2949.05,0.02815
2943.27,0.02782
2937.48,0.02783
2931.69,0.02749
2925.91,0.02772
2920.12,0.02819
2914.33,0.02828
2908.55,0.02915
2902.76,0.02862
2896.98,0.02954
2891.19,0.02956
2885.4,0.03015
2879.62,0.02986
2873.83,0.02951
2868.04,0.02905
2862.26,0.02953
2856.47,0.02972
2850.69,0.03080
2844.9,0.03183
2839.11,0.03267
2833.33,0.03373
2827.54,0.03508
2821.75,0.03497
2815.97,0.03540
2810.18,0.03593
2804.4,0.03687
2798.61,0.03772
2792.82,0.03810
2787.04,0.03893
2781.25,0.03877
2775.46,0.03914
2769.68,0.03933
2763.89,0.03935
2758.11,0.03954
2752.32,0.03973
2746.53,0.03919
2740.75,0.03918
2734.96,0.03877
2729.17,0.03924
2723.39,0.03976
2717.6,0.04036
2711.82,0.04049
2706.03,0.04058
2700.24,0.04059
2694.46,0.04074
2688.67,0.04045
2682.88,0.04097
2677.1,0.04081
2671.31,0.04085
2665.53,0.04078
2659.74,0.04112
2653.95,0.04154
2648.17,0.04200
2642.38,0.04183
2636.59,0.04166
2630.81,0.04152
2625.02,0.04118
2619.24,0.04125
2613.45,0.04165
2607.66,0.04168
2601.88,0.04159
2596.09,0.04176
2590.3,0.04186
2584.52,0.04174
2578.73,0.04163
2572.95,0.04183
2567.16,0.04179
2561.37,0.04202
2555.59,0.04255
2549.8,0.04244
2544.02,0.04230
2538.23,0.04208
2532.44,0.04252
2526.66,0.04227
2520.87,0.04278
2515.08,0.04277
2509.3,0.04325
2503.51,0.04298
2497.73,0.04335
2491.94,0.04314
2486.15,0.04326
2480.37,0.04329
2474.58,0.04353
2468.79,0.04380
2463.01,0.04349
2457.22,0.04394
2451.44,0.04351
2445.65,0.04356
2439.86,0.04352
2434.08,0.04356
2428.29,0.04327
2422.5,0.04357
2416.72,0.04344
2410.93,0.04335
2405.15,0.04268
2399.36,0.04258
2393.57,0.04357
2387.79,0.04303
2382,0.04288
2376.21,0.04273
2370.43,0.04311
2364.64,0.04356
2358.86,0.04360
2353.07,0.04387
2347.28,0.04432
2341.5,0.04472
2335.71,0.04414
2329.92,0.04463
2324.14,0.04440
2318.35,0.04456
2312.57,0.04455
2306.78,0.04491
2300.99,0.04479
2295.21,0.04426
2289.42,0.04446
2283.63,0.04418
2277.85,0.04382
2272.06,0.04425
2266.28,0.04468
2260.49,0.04452
2254.7,0.04432
2248.92,0.04448
2243.13,0.04452
2237.34,0.04458
2231.56,0.04453
2225.77,0.04428
2219.99,0.04476
2214.2,0.04476
2208.41,0.04426
2202.63,0.04427
2196.84,0.04484
2191.05,0.04515
2185.27,0.04476
2179.48,0.04482
2173.7,0.04484
2167.91,0.04486
2162.12,0.04525
2156.34,0.04505
2150.55,0.04504
2144.76,0.04506
2138.98,0.04492
2133.19,0.04494
2127.41,0.04500
2121.62,0.04499
2115.83,0.04462
2110.05,0.04515
2104.26,0.04501
2098.47,0.04495
2092.69,0.04469
2086.9,0.04453
2081.12,0.04414
2075.33,0.04457
2069.54,0.04465
2063.76,0.04468
2057.97,0.04457
2052.19,0.04453
2046.4,0.04454
2040.61,0.04457
2034.83,0.04430
2029.04,0.04447
2023.25,0.04482
2017.47,0.04489
2011.68,0.04456
2005.9,0.04436
2000.11,0.04413
1994.32,0.04430
1988.54,0.04453
1982.75,0.04418
1976.96,0.04413
1971.18,0.04362
1965.39,0.04319
1959.61,0.04254
1953.82,0.04196
1948.03,0.04173
1942.25,0.04206
1936.46,0.04298
1930.67,0.04286
1924.89,0.04350
1919.1,0.04317
1913.32,0.04357
1907.53,0.04347
1901.74,0.04353
1895.96,0.04348
1890.17,0.04369
1884.38,0.04380
1878.6,0.04350
1872.81,0.04333
1867.03,0.04324
1861.24,0.04296
1855.45,0.04316
1849.67,0.04245
1843.88,0.04221
1838.09,0.04199
1832.31,0.04142
1826.52,0.04053
1820.74,0.04041
1814.95,0.04023
1809.16,0.04019
1803.38,0.04042
1797.59,0.03985
1791.8,0.03959
1786.02,0.03875
1780.23,0.03815
1774.45,0.03750
1768.66,0.03643
1762.87,0.03561
1757.09,0.03413
1751.3,0.03199
1745.51,0.03042
1739.73,0.02812
1733.94,0.02657
1728.16,0.02625
1722.37,0.02757
1716.58,0.02845
1710.8,0.02895
1705.01,0.02980
1699.22,0.03121
1693.44,0.03242
1687.65,0.03274
1681.87,0.03277
1676.08,0.03291
1670.29,0.03320
1664.51,0.03393
1658.72,0.03549
1652.93,0.03635
1647.15,0.03618
1641.36,0.03632
1635.58,0.03681
1629.79,0.03689
1624,0.03657
1618.22,0.03673
1612.43,0.03574
1606.64,0.03569
1600.86,0.03582
1595.07,0.03560
1589.29,0.03562
1583.5,0.03446
1577.71,0.03330
1571.93,0.03413
1566.14,0.03465
1560.35,0.03447
1554.57,0.03456
1548.78,0.03438
1543,0.03505
1537.21,0.03505
1531.42,0.03493
1525.64,0.03485
1519.85,0.03478
1514.07,0.03459
1508.28,0.03314
1502.49,0.03224
1496.71,0.03404
1490.92,0.03405
1485.13,0.03255
1479.35,0.03120
1473.56,0.02915
1467.78,0.02731
1461.99,0.02733
1456.2,0.02822
1450.42,0.02867
1444.63,0.02847
1438.84,0.02766
1433.06,0.02769
1427.27,0.02733
1421.49,0.02877
1415.7,0.02854
1409.91,0.02777
1404.13,0.02894
1398.34,0.02941
1392.55,0.02864
1386.77,0.02787
1380.98,0.02782
1375.2,0.02799
1369.41,0.02883
1363.62,0.02883
1357.84,0.02851
1352.05,0.02820
1346.26,0.02788
1340.48,0.02681
1334.69,0.02662
1328.91,0.02667
1323.12,0.02669
1317.33,0.02649
1311.55,0.02617
1305.76,0.02587
1299.97,0.02589
1294.19,0.02519
1288.4,0.02472
1282.62,0.02420
1276.83,0.02529
1271.04,0.02808
1265.26,0.02986
1259.47,0.02996
1253.68,0.02993
1247.9,0.03063
1242.11,0.03069
1236.33,0.03069
1230.54,0.03068
1224.75,0.03110
1218.97,0.03170
1213.18,0.03130
1207.39,0.03043
1201.61,0.03033
1195.82,0.03016
1190.04,0.03033
1184.25,0.03105
1178.46,0.03079
1172.68,0.02945
1166.89,0.03008
1161.1,0.03038
1155.32,0.03011
1149.53,0.02910
1143.75,0.02840
1137.96,0.02778
1132.17,0.02730
1126.39,0.02614
1120.6,0.02671
1114.81,0.02771
1109.03,0.02755
1103.24,0.02831
1097.46,0.02997
1091.67,0.02956
1085.88,0.03004
1080.1,0.02984
1074.31,0.03049
1068.52,0.03160
1062.74,0.03198
1056.95,0.03199
1051.17,0.03177
1045.38,0.03230
1039.59,0.03194
1033.81,0.03177
1028.02,0.03168
1022.24,0.02958
1016.45,0.02967
1010.66,0.03148
1004.88,0.03165
999.09,0.03114
993.304,0.03126
987.518,0.03084
981.731,0.03016
975.945,0.03004
970.159,0.02920
964.373,0.02971
958.586,0.02968
952.8,0.02974
947.014,0.03019
941.228,0.03072
935.441,0.03126
929.655,0.03111
923.869,0.03136
918.083,0.03128
912.297,0.03202
906.51,0.03143
900.724,0.03254
894.938,0.03290
889.152,0.03353
883.365,0.03169
877.579,0.03057
871.793,0.03049
866.007,0.03220
860.22,0.03173
854.434,0.03226
848.648,0.03213
842.862,0.03183
837.075,0.03271
831.289,0.03167
825.503,0.03386
819.717,0.03390
813.931,0.03477
808.144,0.03384
802.358,0.03444
796.572,0.03369
790.786,0.03381
784.999,0.03342
779.213,0.03223
773.427,0.03186
767.641,0.03155
761.854,0.03212
756.068,0.03145
750.282,0.03113
744.496,0.03070
738.709,0.02801
732.923,0.02773
727.137,0.03082
721.351,0.03244
715.565,0.03291
709.778,0.03092
703.992,0.02939
698.206,0.02949
692.42,0.02918
686.633,0.02786
680.847,0.02896
675.061,0.02948
669.275,0.03070
663.488,0.02995
657.702,0.03007
651.916,0.02784
646.13,0.02709
640.343,0.02554
634.557,0.02697
628.771,0.02691
622.985,0.02610
617.198,0.02655
611.412,0.02789
605.626,0.02865
599.84,0.02786