File: 01_Data/Window_Screen/FTIR/IS/Window_Screen_IS_T_220829_R3.dpt
7497.03,0.02641
7491.25,0.01488
7485.46,0.02344
7479.67,0.03595
7473.89,0.02208
7468.1,0.02098
7462.32,0.02259
7456.53,0.02302
7450.74,0.02337
7444.96,0.02653
7439.17,0.02921
7433.38,0.02139
7427.6,0.01540
7421.81,0.01529
7416.03,0.02840
7410.24,0.02003
7404.45,0.02200
7398.67,0.02381
7392.88,0.01938
7387.09,0.02039
7381.31,0.02448
7375.52,0.02293
7369.74,0.02549
7363.95,0.01336
7358.16,0.02522
7352.38,0.01999
7346.59,0.01920
7340.8,0.02492
7335.02,0.02426
7329.23,0.02063
7323.45,0.02281
7317.66,0.02252
7311.87,0.03162
7306.09,0.02507
7300.3,0.02634
7294.51,0.02036
7288.73,0.02558
7282.94,0.02010
7277.16,0.02317
7271.37,0.02810
7265.58,0.02004
7259.8,0.02596
7254.01,0.01710
7248.22,0.02367
7242.44,0.02547
7236.65,0.02134
7230.87,0.02039
7225.08,0.02544
7219.29,0.03247
7213.51,0.02299
7207.72,0.02465
7201.93,0.02686
7196.15,0.02705
7190.36,0.01752
7184.58,0.02187
7178.79,0.02326
7173,0.02063
7167.22,0.02083
7161.43,0.01849
7155.65,0.02266
7149.86,0.02364
7144.07,0.02497
7138.29,0.02649
7132.5,0.02871
7126.71,0.02277
7120.93,0.01887
7115.14,0.02304
7109.36,0.02632
7103.57,0.02334
7097.78,0.02077
7092,0.02525
7086.21,0.02482
7080.42,0.02350
7074.64,0.02535
7068.85,0.01814
7063.07,0.02478
7057.28,0.02418
7051.49,0.01866
7045.71,0.02088
7039.92,0.02158
7034.13,0.02401
7028.35,0.02106
7022.56,0.01994
7016.78,0.02720
7010.99,0.02526
7005.2,0.02898
6999.42,0.02475
6993.63,0.01691
6987.84,0.02385
6982.06,0.03133
6976.27,0.02533
6970.49,0.02079
6964.7,0.01821
6958.91,0.02173
6953.13,0.02405
6947.34,0.02431
6941.55,0.02529
6935.77,0.02595
6929.98,0.02479
6924.2,0.02453
6918.41,0.02131
6912.62,0.01931
6906.84,0.02722
6901.05,0.02236
6895.26,0.02619
6889.48,0.02517
6883.69,0.02274
6877.91,0.02757
6872.12,0.02380
6866.33,0.01823
6860.55,0.02359
6854.76,0.02157
6848.97,0.02129
6843.19,0.02267
6837.4,0.02338
6831.62,0.02271
6825.83,0.02332
6820.04,0.01921
6814.26,0.02151
6808.47,0.03091
6802.68,0.02040
6796.9,0.02242
6791.11,0.02268
6785.33,0.02644
6779.54,0.02301
6773.75,0.02304
6767.97,0.02364
6762.18,0.02699
6756.39,0.02349
6750.61,0.02494
6744.82,0.02385
6739.04,0.02762
6733.25,0.02237
6727.46,0.02781
6721.68,0.02259
6715.89,0.02057
6710.1,0.01973
6704.32,0.02370
6698.53,0.02041
6692.75,0.02651
6686.96,0.02202
6681.17,0.02398
6675.39,0.02417
6669.6,0.02300
6663.82,0.02149
6658.03,0.02429
6652.24,0.02665
6646.46,0.02371
6640.67,0.02531
6634.88,0.02855
6629.1,0.02864
6623.31,0.02292
6617.53,0.02257
6611.74,0.02259
6605.95,0.02579
6600.17,0.02308
6594.38,0.02485
6588.59,0.02015
6582.81,0.02066
6577.02,0.02325
6571.24,0.02171
6565.45,0.02353
6559.66,0.02498
6553.88,0.01985
6548.09,0.02267
6542.3,0.02291
6536.52,0.02291
6530.73,0.02441
6524.95,0.02179
6519.16,0.02143
6513.37,0.02204
6507.59,0.02366
6501.8,0.02634
6496.01,0.02567
6490.23,0.01967
6484.44,0.02033
6478.66,0.02087
6472.87,0.02131
6467.08,0.02056
6461.3,0.02222
6455.51,0.02393
6449.72,0.02332
6443.94,0.02078
6438.15,0.01812
6432.37,0.02203
6426.58,0.02187
6420.79,0.02250
6415.01,0.02116
6409.22,0.02241
6403.43,0.02048
6397.65,0.01985
6391.86,0.02511
6386.08,0.02344
6380.29,0.02007
6374.5,0.02273
6368.72,0.02249
6362.93,0.02244
6357.14,0.02115
6351.36,0.02320
6345.57,0.02161
6339.79,0.02410
6334,0.02423
6328.21,0.01902
6322.43,0.02272
6316.64,0.02653
6310.85,0.02485
6305.07,0.02587
6299.28,0.02026
6293.5,0.02112
6287.71,0.02387
6281.92,0.02405
6276.14,0.02057
6270.35,0.01813
6264.56,0.02275
6258.78,0.02035
6252.99,0.02382
6247.21,0.02193
6241.42,0.02044
6235.63,0.02373
6229.85,0.02201
6224.06,0.01999
6218.27,0.02247
6212.49,0.02170
6206.7,0.02377
6200.92,0.02240
6195.13,0.02123
6189.34,0.02277
6183.56,0.01965
6177.77,0.02057
6171.98,0.01994
6166.2,0.02159
6160.41,0.01973
6154.63,0.02235
6148.84,0.02319
6143.05,0.02142
6137.27,0.02245
6131.48,0.02053
6125.7,0.02338
6119.91,0.02028
6114.12,0.02365
6108.34,0.02319
6102.55,0.02299
6096.76,0.02307
6090.98,0.02256
6085.19,0.02289
6079.41,0.02111
6073.62,0.02388
6067.83,0.01904
6062.05,0.02183
6056.26,0.02273
6050.47,0.02250
6044.69,0.02148
6038.9,0.02132
6033.12,0.02236
6027.33,0.02094
6021.54,0.02062
6015.76,0.02353
6009.97,0.02220
6004.18,0.02051
5998.4,0.01960
5992.61,0.02242
5986.83,0.02118
5981.04,0.02027
5975.25,0.02063
5969.47,0.01923
5963.68,0.01943
5957.89,0.02275
5952.11,0.02411
5946.32,0.02081
5940.54,0.02189
5934.75,0.02172
5928.96,0.01968
5923.18,0.01790
5917.39,0.02216
5911.6,0.02101
5905.82,0.02278
5900.03,0.02564
5894.25,0.02080
5888.46,0.02121
5882.67,0.02030
5876.89,0.02357
5871.1,0.02030
5865.31,0.02253
5859.53,0.01830
5853.74,0.02040
5847.96,0.02040
5842.17,0.02395
5836.38,0.02167
5830.6,0.02158
5824.81,0.02289
5819.02,0.02336
5813.24,0.02228
5807.45,0.02180
5801.67,0.02160
5795.88,0.02175
5790.09,0.02317
5784.31,0.02294
5778.52,0.02235
5772.73,0.02203
5766.95,0.02084
5761.16,0.02212
5755.38,0.02071
5749.59,0.02147
5743.8,0.02057
5738.02,0.02167
5732.23,0.02002
5726.44,0.02304
5720.66,0.02286
5714.87,0.02037
5709.09,0.02098
5703.3,0.02285
5697.51,0.02200
5691.73,0.02294
5685.94,0.02137
5680.15,0.02052
5674.37,0.02336
5668.58,0.02177
5662.8,0.02283
5657.01,0.02135
5651.22,0.02244
5645.44,0.02365
5639.65,0.02258
5633.87,0.02134
5628.08,0.02166
5622.29,0.02226
5616.51,0.02095
5610.72,0.02189
5604.93,0.02265
5599.15,0.02250
5593.36,0.02226
5587.58,0.02122
5581.79,0.02139
5576,0.02040
5570.22,0.02060
5564.43,0.02323
5558.64,0.02160
5552.86,0.02040
5547.07,0.02173
5541.29,0.02236
5535.5,0.02181
5529.71,0.02210
5523.93,0.02136
5518.14,0.02168
5512.35,0.02198
5506.57,0.02304
5500.78,0.02335
5495,0.02196
5489.21,0.02261
5483.42,0.02207
5477.64,0.02344
5471.85,0.02128
5466.06,0.02172
5460.28,0.02037
5454.49,0.02250
5448.71,0.02150
5442.92,0.01966
5437.13,0.02105
5431.35,0.02269
5425.56,0.02161
5419.77,0.02314
5413.99,0.02356
5408.2,0.02240
5402.42,0.02328
5396.63,0.02394
5390.84,0.02153
5385.06,0.02196
5379.27,0.02102
5373.48,0.02337
5367.7,0.02276
5361.91,0.02227
5356.13,0.02232
5350.34,0.02250
5344.55,0.02273
5338.77,0.02221
5332.98,0.02200
5327.19,0.02186
5321.41,0.02289
5315.62,0.02217
5309.84,0.02134
5304.05,0.02210
5298.26,0.02248
5292.48,0.02313
5286.69,0.02118
5280.9,0.02087
5275.12,0.02333
5269.33,0.02190
5263.55,0.02152
5257.76,0.02082
5251.97,0.02187
5246.19,0.02163
5240.4,0.02279
5234.61,0.02217
5228.83,0.02227
5223.04,0.02250
5217.26,0.02206
5211.47,0.02174
5205.68,0.02247
5199.9,0.02330
5194.11,0.02301
5188.32,0.02325
5182.54,0.02263
5176.75,0.02132
5170.97,0.02204
5165.18,0.02081
5159.39,0.02144
5153.61,0.02232
5147.82,0.02279
5142.03,0.02236
5136.25,0.02231
5130.46,0.02156
5124.68,0.02211
5118.89,0.02217
5113.1,0.02251
5107.32,0.02148
5101.53,0.02254
5095.75,0.02301
5089.96,0.02273
5084.17,0.02219
5078.39,0.02095
5072.6,0.02187
5066.81,0.02270
5061.03,0.02370
5055.24,0.02246
5049.46,0.02212
5043.67,0.02184
5037.88,0.02202
5032.1,0.02135
5026.31,0.02240
5020.52,0.02293
5014.74,0.02194
5008.95,0.02191
5003.17,0.02249
4997.38,0.02137
4991.59,0.02185
4985.81,0.02258
4980.02,0.02131
4974.23,0.02179
4968.45,0.02230
4962.66,0.02196
4956.88,0.02234
4951.09,0.02147
4945.3,0.02164
4939.52,0.02165
4933.73,0.02325
4927.94,0.02239
4922.16,0.02219
4916.37,0.02079
4910.59,0.02109
4904.8,0.02148
4899.01,0.02226
4893.23,0.02284
4887.44,0.02195
4881.65,0.02334
4875.87,0.02272
4870.08,0.02217
4864.3,0.02247
4858.51,0.02200
4852.72,0.02190
4846.94,0.02181
4841.15,0.02173
4835.36,0.02265
4829.58,0.02149
4823.79,0.02249
4818.01,0.02191
4812.22,0.02212
4806.43,0.02217
4800.65,0.02209
4794.86,0.02187
4789.07,0.02221
4783.29,0.02243
4777.5,0.02249
4771.72,0.02245
4765.93,0.02238
4760.14,0.02217
4754.36,0.02304
4748.57,0.02307
4742.78,0.02243
4737,0.02304
4731.21,0.02177
4725.43,0.02223
4719.64,0.02246
4713.85,0.02338
4708.07,0.02259
4702.28,0.02244
4696.49,0.02350
4690.71,0.02238
4684.92,0.02221
4679.14,0.02197
4673.35,0.02329
4667.56,0.02322
4661.78,0.02239
4655.99,0.02300
4650.2,0.02189
4644.42,0.02214
4638.63,0.02156
4632.85,0.02237
4627.06,0.02257
4621.27,0.02078
4615.49,0.02213
4609.7,0.02236
4603.92,0.02273
4598.13,0.02120
4592.34,0.02311
4586.56,0.02131
4580.77,0.02247
4574.98,0.02219
4569.2,0.02195
4563.41,0.02235
4557.63,0.02237
4551.84,0.02190
4546.05,0.02290
4540.27,0.02238
4534.48,0.02227
4528.69,0.02267
4522.91,0.02274
4517.12,0.02262
4511.34,0.02218
4505.55,0.02232
4499.76,0.02195
4493.98,0.02188
4488.19,0.02165
4482.4,0.02298
4476.62,0.02278
4470.83,0.02285
4465.05,0.02276
4459.26,0.02242
4453.47,0.02202
4447.69,0.02219
4441.9,0.02181
4436.11,0.02257
4430.33,0.02151
4424.54,0.02155
4418.76,0.02261
4412.97,0.02214
4407.18,0.02206
4401.4,0.02298
4395.61,0.02173
4389.82,0.02223
4384.04,0.02221
4378.25,0.02298
4372.47,0.02239
4366.68,0.02158
4360.89,0.02163
4355.11,0.02132
4349.32,0.02128
4343.53,0.02234
4337.75,0.02287
4331.96,0.02231
4326.18,0.02269
4320.39,0.02253
4314.6,0.02183
4308.82,0.02211
4303.03,0.02285
4297.24,0.02262
4291.46,0.02288
4285.67,0.02286
4279.89,0.02233
4274.1,0.02196
4268.31,0.02296
4262.53,0.02208
4256.74,0.02209
4250.95,0.02220
4245.17,0.02238
4239.38,0.02271
4233.6,0.02315
4227.81,0.02269
4222.02,0.02290
4216.24,0.02259
4210.45,0.02298
4204.66,0.02254
4198.88,0.02215
4193.09,0.02227
4187.31,0.02194
4181.52,0.02227
4175.73,0.02263
4169.95,0.02225
4164.16,0.02311
4158.37,0.02271
4152.59,0.02211
4146.8,0.02179
4141.02,0.02296
4135.23,0.02199
4129.44,0.02252
4123.66,0.02234
4117.87,0.02297
4112.09,0.02295
4106.3,0.02222
4100.51,0.02293
4094.73,0.02223
4088.94,0.02177
4083.15,0.02246
4077.37,0.02212
4071.58,0.02214
4065.8,0.02206
4060.01,0.02216
4054.22,0.02277
4048.44,0.02255
4042.65,0.02204
4036.86,0.02202
4031.08,0.02217
4025.29,0.02211
4019.51,0.02254
4013.72,0.02282
4007.93,0.02241
4002.15,0.02261
3996.36,0.02227
3990.57,0.02237
3984.79,0.02237
3979,0.02310
3973.22,0.02306
3967.43,0.02242
3961.64,0.02290
3955.86,0.02251
3950.07,0.02238
3944.28,0.02286
3938.5,0.02242
3932.71,0.02303
3926.93,0.02193
3921.14,0.02264
3915.35,0.02327
3909.57,0.02236
3903.78,0.02289
3897.99,0.02176
3892.21,0.02314
3886.42,0.02272
3880.64,0.02299
3874.85,0.02294
3869.06,0.02261
3863.28,0.02259
3857.49,0.02276
3851.7,0.02242
3845.92,0.02297
3840.13,0.02287
3834.35,0.02248
3828.56,0.02242
3822.77,0.02264
3816.99,0.02261
3811.2,0.02230
3805.41,0.02245
3799.63,0.02287
3793.84,0.02233
3788.06,0.02304
3782.27,0.02249
3776.48,0.02226
3770.7,0.02263
3764.91,0.02262
3759.12,0.02231
3753.34,0.02237
3747.55,0.02256
3741.77,0.02273
3735.98,0.02198
3730.19,0.02268
3724.41,0.02217
3718.62,0.02249
3712.83,0.02285
3707.05,0.02283
3701.26,0.02236
3695.48,0.02222
3689.69,0.02213
3683.9,0.02226
3678.12,0.02198
3672.33,0.02303
3666.54,0.02218
3660.76,0.02166
3654.97,0.02185
3649.19,0.02218
3643.4,0.02168
3637.61,0.02207
3631.83,0.02277
3626.04,0.02184
3620.25,0.02204
3614.47,0.02129
3608.68,0.02162
3602.9,0.02212
3597.11,0.02187
3591.32,0.02154
3585.54,0.02184
3579.75,0.02216
3573.97,0.02170
3568.18,0.02170
3562.39,0.02139
3556.61,0.02125
3550.82,0.02120
3545.03,0.02137
3539.25,0.02059
3533.46,0.02180
3527.68,0.02140
3521.89,0.02118
3516.1,0.02147
3510.32,0.02087
3504.53,0.02130
3498.74,0.02176
3492.96,0.02099
3487.17,0.02074
3481.39,0.02084
3475.6,0.02079
3469.81,0.02059
3464.03,0.02073
3458.24,0.02073
3452.45,0.02047
3446.67,0.02111
3440.88,0.02110
3435.1,0.02077
3429.31,0.02131
3423.52,0.02088
3417.74,0.02058
3411.95,0.02062
3406.16,0.02067
3400.38,0.02108
3394.59,0.02080
3388.81,0.02076
3383.02,0.02078
3377.23,0.02022
3371.45,0.02007
3365.66,0.02081
3359.87,0.02030
3354.09,0.02047
3348.3,0.02038
3342.52,0.02094
3336.73,0.01972
3330.94,0.01963
3325.16,0.02045
3319.37,0.02004
3313.58,0.02005
3307.8,0.02058
3302.01,0.02074
3296.23,0.02031
3290.44,0.02109
3284.65,0.02146
3278.87,0.02017
3273.08,0.02107
3267.29,0.02127
3261.51,0.02094
3255.72,0.02006
3249.94,0.02075
3244.15,0.02057
3238.36,0.02098
3232.58,0.01940
3226.79,0.02027
3221,0.02047
3215.22,0.02043
3209.43,0.02067
3203.65,0.02074
3197.86,0.02131
3192.07,0.02068
3186.29,0.02117
3180.5,0.02067
3174.71,0.02036
3168.93,0.02044
3163.14,0.02081
3157.36,0.02112
3151.57,0.02074
3145.78,0.02092
3140,0.02018
3134.21,0.02113
3128.42,0.02094
3122.64,0.02149
3116.85,0.02060
3111.07,0.02062
3105.28,0.02103
3099.49,0.02087
3093.71,0.02041
3087.92,0.02011
3082.14,0.02023
3076.35,0.02059
3070.56,0.02067
3064.78,0.02099
3058.99,0.02093
3053.2,0.02069
3047.42,0.02052
3041.63,0.02057
3035.85,0.02070
3030.06,0.02066
3024.27,0.02039
3018.49,0.02069
3012.7,0.02050
3006.91,0.02079
3001.13,0.02070
2995.34,0.02045
2989.56,0.01970
2983.77,0.01975
2977.98,0.01988
2972.2,0.01923
2966.41,0.01922
2960.62,0.01951
2954.84,0.01914
2949.05,0.01916
2943.27,0.01976
2937.48,0.01966
2931.69,0.02011
2925.91,0.01958
2920.12,0.02060
2914.33,0.02035
2908.55,0.02044
2902.76,0.01987
2896.98,0.02048
2891.19,0.02092
2885.4,0.02085
2879.62,0.02073
2873.83,0.02065
2868.04,0.02045
2862.26,0.02011
2856.47,0.02050
2850.69,0.02035
2844.9,0.02081
2839.11,0.02091
2833.33,0.02131
2827.54,0.02155
2821.75,0.02103
2815.97,0.02136
2810.18,0.02110
2804.4,0.02110
2798.61,0.02124
2792.82,0.02120
2787.04,0.02120
2781.25,0.02133
2775.46,0.02125
2769.68,0.02121
2763.89,0.02098
2758.11,0.02109
2752.32,0.02089
2746.53,0.02150
2740.75,0.02123
2734.96,0.02146
2729.17,0.02141
2723.39,0.02152
2717.6,0.02140
2711.82,0.02167
2706.03,0.02153
2700.24,0.02132
2694.46,0.02120
2688.67,0.02115
2682.88,0.02096
2677.1,0.02133
2671.31,0.02138
2665.53,0.02100
2659.74,0.02148
2653.95,0.02116
2648.17,0.02113
2642.38,0.02086
2636.59,0.02110
2630.81,0.02126
2625.02,0.02134
2619.24,0.02082
2613.45,0.02095
2607.66,0.02052
2601.88,0.02105
2596.09,0.02123
2590.3,0.02135
2584.52,0.02119
2578.73,0.02155
2572.95,0.02111
2567.16,0.02113
2561.37,0.02088
2555.59,0.02075
2549.8,0.02078
2544.02,0.02099
2538.23,0.02112
2532.44,0.02129
2526.66,0.02114
2520.87,0.02166
2515.08,0.02133
2509.3,0.02114
2503.51,0.02132
2497.73,0.02106
2491.94,0.02109
2486.15,0.02129
2480.37,0.02108
2474.58,0.02131
2468.79,0.02105
2463.01,0.02117
2457.22,0.02125
2451.44,0.02137
2445.65,0.02162
2439.86,0.02132
2434.08,0.02087
2428.29,0.02093
2422.5,0.02084
2416.72,0.02096
2410.93,0.02081
2405.15,0.02098
2399.36,0.02116
2393.57,0.02110
2387.79,0.02121
2382,0.02089
2376.21,0.02130
2370.43,0.02124
2364.64,0.02039
2358.86,0.02105
2353.07,0.02107
2347.28,0.02085
2341.5,0.02114
2335.71,0.02094
2329.92,0.02124
2324.14,0.02077
2318.35,0.02062
2312.57,0.02126
2306.78,0.02140
2300.99,0.02089
2295.21,0.02130
2289.42,0.02096
2283.63,0.02096
2277.85,0.02083
2272.06,0.02141
2266.28,0.02081
2260.49,0.02070
2254.7,0.02085
2248.92,0.02098
2243.13,0.02077
2237.34,0.02053
2231.56,0.02074
2225.77,0.02090
2219.99,0.02080
2214.2,0.02112
2208.41,0.02115
2202.63,0.02081
2196.84,0.02088
2191.05,0.02079
2185.27,0.02100
2179.48,0.02095
2173.7,0.02077
2167.91,0.02096
2162.12,0.02105
2156.34,0.02101
2150.55,0.02104
2144.76,0.02073
2138.98,0.02091
2133.19,0.02098
2127.41,0.02068
2121.62,0.02102
2115.83,0.02118
2110.05,0.02068
2104.26,0.02079
2098.47,0.02092
2092.69,0.02076
2086.9,0.02079
2081.12,0.02085
2075.33,0.02085
2069.54,0.02109
2063.76,0.02089
2057.97,0.02088
2052.19,0.02085
2046.4,0.02073
2040.61,0.02083
2034.83,0.02065
2029.04,0.02111
2023.25,0.02045
2017.47,0.02094
2011.68,0.02091
2005.9,0.02088
2000.11,0.02074
1994.32,0.02067
1988.54,0.02087
1982.75,0.02078
1976.96,0.02072
1971.18,0.02070
1965.39,0.02053
1959.61,0.02076
1953.82,0.02064
1948.03,0.02071
1942.25,0.02111
1936.46,0.02074
1930.67,0.02072
1924.89,0.02046
1919.1,0.02026
1913.32,0.02063
1907.53,0.02065
1901.74,0.02065
1895.96,0.02067
1890.17,0.02077
1884.38,0.02049
1878.6,0.02088
1872.81,0.02042
1867.03,0.02060
1861.24,0.02037
1855.45,0.02039
1849.67,0.02009
1843.88,0.02020
1838.09,0.02002
1832.31,0.02003
1826.52,0.01985
1820.74,0.01992
1814.95,0.01986
1809.16,0.01990
1803.38,0.01949
1797.59,0.01949
1791.8,0.01974
1786.02,0.01914
1780.23,0.01908
1774.45,0.01877
1768.66,0.01861
1762.87,0.01784
1757.09,0.01778
1751.3,0.01724
1745.51,0.01761
1739.73,0.01831
1733.94,0.01964
1728.16,0.02049
1722.37,0.02091
1716.58,0.02112
1710.8,0.02076
1705.01,0.02001
1699.22,0.01972
1693.44,0.01994
1687.65,0.01938
1681.87,0.01889
1676.08,0.01900
1670.29,0.01894
1664.51,0.01851
1658.72,0.01857
1652.93,0.01870
1647.15,0.01879
1641.36,0.01851
1635.58,0.01820
1629.79,0.01840
1624,0.01900
1618.22,0.01911
1612.43,0.01907
1606.64,0.01865
1600.86,0.01900
1595.07,0.01906
1589.29,0.01902
1583.5,0.01825
1577.71,0.01820
1571.93,0.01856
1566.14,0.01811
1560.35,0.01801
1554.57,0.01775
1548.78,0.01793
1543,0.01832
1537.21,0.01819
1531.42,0.01823
1525.64,0.01873
1519.85,0.01842
1514.07,0.01824
1508.28,0.01869
1502.49,0.01861
1496.71,0.01841
1490.92,0.01887
1485.13,0.01888
1479.35,0.01826
1473.56,0.01831
1467.78,0.01830
1461.99,0.01891
1456.2,0.01911
1450.42,0.01916
1444.63,0.01882
1438.84,0.01880
1433.06,0.01885
1427.27,0.01890
1421.49,0.01878
1415.7,0.01843
1409.91,0.01846
1404.13,0.01811
1398.34,0.01814
1392.55,0.01824
1386.77,0.01823
1380.98,0.01814
1375.2,0.01789
1369.41,0.01813
1363.62,0.01842
1357.84,0.01818
1352.05,0.01798
1346.26,0.01799
1340.48,0.01743
1334.69,0.01754
1328.91,0.01712
1323.12,0.01718
1317.33,0.01713
1311.55,0.01714
1305.76,0.01702
1299.97,0.01756
1294.19,0.01785
1288.4,0.01835
1282.62,0.01891
1276.83,0.01910
1271.04,0.01965
1265.26,0.02010
1259.47,0.02004
1253.68,0.02018
1247.9,0.02023
1242.11,0.02049
1236.33,0.02002
1230.54,0.01972
1224.75,0.01955
1218.97,0.01938
1213.18,0.01888
1207.39,0.01846
1201.61,0.01853
1195.82,0.01837
1190.04,0.01792
1184.25,0.01813
1178.46,0.01813
1172.68,0.01773
1166.89,0.01722
1161.1,0.01779
1155.32,0.01765
1149.53,0.01718
1143.75,0.01747
1137.96,0.01797
1132.17,0.01847
1126.39,0.01866
1120.6,0.01919
1114.81,0.01948
1109.03,0.01899
1103.24,0.01929
1097.46,0.01801
1091.67,0.01869
1085.88,0.01919
1080.1,0.01883
1074.31,0.01922
1068.52,0.01958
1062.74,0.02028
1056.95,0.01936
1051.17,0.01959
1045.38,0.02004
1039.59,0.02007
1033.81,0.01955
1028.02,0.01966
1022.24,0.01906
1016.45,0.01972
1010.66,0.02013
1004.88,0.02055
999.09,0.02117
993.304,0.02087
987.518,0.02088
981.731,0.02060
975.945,0.02056
970.159,0.01988
964.373,0.02070
958.586,0.02022
952.8,0.02035
947.014,0.02059
941.228,0.01963
935.441,0.01991
929.655,0.01946
923.869,0.01894
918.083,0.01953
912.297,0.01945
906.51,0.01952
900.724,0.01924
894.938,0.01907
889.152,0.01968
883.365,0.01965
877.579,0.01892
871.793,0.01881
866.007,0.01921
860.22,0.01906
854.434,0.01901
848.648,0.01895
842.862,0.01875
837.075,0.01898
831.289,0.01917
825.503,0.01847
819.717,0.01867
813.931,0.01880
808.144,0.01939
802.358,0.01850
796.572,0.01869
790.786,0.01876
784.999,0.01800
779.213,0.01864
773.427,0.01795
767.641,0.01840
761.854,0.01829
756.068,0.01805
750.282,0.01727
744.496,0.01753
738.709,0.01880
732.923,0.01917
727.137,0.01873
721.351,0.01825
715.565,0.01776
709.778,0.01750
703.992,0.01816
698.206,0.01779
692.42,0.01754
686.633,0.01888
680.847,0.01828
675.061,0.01723
669.275,0.01583
663.488,0.01685
657.702,0.01797
651.916,0.01700
646.13,0.01675
640.343,0.01708
634.557,0.01731
628.771,0.01676
622.985,0.01500
617.198,0.01502
611.412,0.01489
605.626,0.01784
599.84,0.01470