File: 01_Data/Window_Screen/FTIR/IS/Window_Screen_IS_S_220829_R5.dpt
7497.03,0.04332
7491.25,0.02926
7485.46,0.04016
7479.67,0.04011
7473.89,0.03548
7468.1,0.03947
7462.32,0.04573
7456.53,0.04335
7450.74,0.04270
7444.96,0.03225
7439.17,0.03605
7433.38,0.04375
7427.6,0.03715
7421.81,0.04380
7416.03,0.04096
7410.24,0.02680
7404.45,0.02893
7398.67,0.04083
7392.88,0.03511
7387.09,0.03699
7381.31,0.04281
7375.52,0.04336
7369.74,0.04190
7363.95,0.03976
7358.16,0.04498
7352.38,0.04504
7346.59,0.04762
7340.8,0.03959
7335.02,0.04307
7329.23,0.03204
7323.45,0.04080
7317.66,0.04098
7311.87,0.03965
7306.09,0.03984
7300.3,0.03310
7294.51,0.04408
7288.73,0.03495
7282.94,0.03287
7277.16,0.04267
7271.37,0.04097
7265.58,0.04071
7259.8,0.03959
7254.01,0.03797
7248.22,0.04201
7242.44,0.03355
7236.65,0.03511
7230.87,0.03897
7225.08,0.03591
7219.29,0.04139
7213.51,0.04087
7207.72,0.04040
7201.93,0.03669
7196.15,0.03954
7190.36,0.03924
7184.58,0.04481
7178.79,0.04110
7173,0.03457
7167.22,0.04031
7161.43,0.04085
7155.65,0.04251
7149.86,0.03986
7144.07,0.03829
7138.29,0.04072
7132.5,0.04220
7126.71,0.04273
7120.93,0.03830
7115.14,0.03738
7109.36,0.03665
7103.57,0.03958
7097.78,0.03739
7092,0.03849
7086.21,0.03938
7080.42,0.03000
7074.64,0.02855
7068.85,0.04093
7063.07,0.04195
7057.28,0.03680
7051.49,0.03233
7045.71,0.03873
7039.92,0.04131
7034.13,0.03826
7028.35,0.03704
7022.56,0.03845
7016.78,0.03700
7010.99,0.03476
7005.2,0.03800
6999.42,0.03665
6993.63,0.03753
6987.84,0.04154
6982.06,0.03976
6976.27,0.03653
6970.49,0.03813
6964.7,0.03832
6958.91,0.03424
6953.13,0.03850
6947.34,0.03746
6941.55,0.03652
6935.77,0.04066
6929.98,0.03548
6924.2,0.04055
6918.41,0.03664
6912.62,0.03290
6906.84,0.03961
6901.05,0.04161
6895.26,0.03694
6889.48,0.03629
6883.69,0.04166
6877.91,0.03742
6872.12,0.03714
6866.33,0.03623
6860.55,0.03542
6854.76,0.03669
6848.97,0.03890
6843.19,0.03582
6837.4,0.03389
6831.62,0.03406
6825.83,0.04013
6820.04,0.03632
6814.26,0.04005
6808.47,0.03783
6802.68,0.03389
6796.9,0.03429
6791.11,0.04032
6785.33,0.03789
6779.54,0.03774
6773.75,0.03728
6767.97,0.03764
6762.18,0.03152
6756.39,0.03410
6750.61,0.03665
6744.82,0.03480
6739.04,0.03524
6733.25,0.04069
6727.46,0.03973
6721.68,0.03737
6715.89,0.03995
6710.1,0.04085
6704.32,0.03934
6698.53,0.03734
6692.75,0.03653
6686.96,0.03624
6681.17,0.03766
6675.39,0.03871
6669.6,0.03908
6663.82,0.03293
6658.03,0.03930
6652.24,0.04169
6646.46,0.03691
6640.67,0.03746
6634.88,0.03885
6629.1,0.03987
6623.31,0.03762
6617.53,0.03994
6611.74,0.03703
6605.95,0.04401
6600.17,0.03804
6594.38,0.03896
6588.59,0.03811
6582.81,0.03577
6577.02,0.03898
6571.24,0.04006
6565.45,0.03756
6559.66,0.03562
6553.88,0.03657
6548.09,0.03770
6542.3,0.04051
6536.52,0.03503
6530.73,0.03497
6524.95,0.03412
6519.16,0.03578
6513.37,0.03292
6507.59,0.03448
6501.8,0.04046
6496.01,0.03545
6490.23,0.03573
6484.44,0.03904
6478.66,0.03620
6472.87,0.03492
6467.08,0.03852
6461.3,0.03963
6455.51,0.03703
6449.72,0.03609
6443.94,0.03195
6438.15,0.03621
6432.37,0.03695
6426.58,0.03570
6420.79,0.03574
6415.01,0.03575
6409.22,0.03534
6403.43,0.03622
6397.65,0.03797
6391.86,0.03659
6386.08,0.03060
6380.29,0.03584
6374.5,0.03336
6368.72,0.04185
6362.93,0.03948
6357.14,0.03665
6351.36,0.03689
6345.57,0.03747
6339.79,0.03711
6334,0.03586
6328.21,0.03487
6322.43,0.03647
6316.64,0.03616
6310.85,0.03630
6305.07,0.03689
6299.28,0.03346
6293.5,0.03603
6287.71,0.03783
6281.92,0.03525
6276.14,0.03813
6270.35,0.03616
6264.56,0.03650
6258.78,0.03670
6252.99,0.03825
6247.21,0.03832
6241.42,0.03732
6235.63,0.03533
6229.85,0.03614
6224.06,0.03672
6218.27,0.03495
6212.49,0.03262
6206.7,0.03311
6200.92,0.03403
6195.13,0.03755
6189.34,0.03981
6183.56,0.03796
6177.77,0.03864
6171.98,0.03940
6166.2,0.03480
6160.41,0.03634
6154.63,0.03713
6148.84,0.03902
6143.05,0.03577
6137.27,0.03839
6131.48,0.03657
6125.7,0.03659
6119.91,0.03510
6114.12,0.03803
6108.34,0.03642
6102.55,0.03491
6096.76,0.03856
6090.98,0.03615
6085.19,0.03616
6079.41,0.03964
6073.62,0.03801
6067.83,0.03632
6062.05,0.03924
6056.26,0.03633
6050.47,0.03971
6044.69,0.03863
6038.9,0.03896
6033.12,0.03635
6027.33,0.03644
6021.54,0.04021
6015.76,0.03587
6009.97,0.03728
6004.18,0.04038
5998.4,0.03579
5992.61,0.03638
5986.83,0.03647
5981.04,0.03805
5975.25,0.03917
5969.47,0.03711
5963.68,0.03743
5957.89,0.03842
5952.11,0.03672
5946.32,0.03471
5940.54,0.03621
5934.75,0.03775
5928.96,0.03890
5923.18,0.03859
5917.39,0.03784
5911.6,0.03543
5905.82,0.03632
5900.03,0.03517
5894.25,0.03746
5888.46,0.03682
5882.67,0.03742
5876.89,0.03802
5871.1,0.03705
5865.31,0.03849
5859.53,0.03646
5853.74,0.03624
5847.96,0.03627
5842.17,0.03596
5836.38,0.03815
5830.6,0.03745
5824.81,0.03715
5819.02,0.03882
5813.24,0.03693
5807.45,0.03721
5801.67,0.03562
5795.88,0.03597
5790.09,0.03704
5784.31,0.03790
5778.52,0.03708
5772.73,0.03940
5766.95,0.03750
5761.16,0.03566
5755.38,0.03419
5749.59,0.03614
5743.8,0.03635
5738.02,0.03592
5732.23,0.03599
5726.44,0.03794
5720.66,0.03743
5714.87,0.03545
5709.09,0.03848
5703.3,0.03757
5697.51,0.03737
5691.73,0.03913
5685.94,0.03729
5680.15,0.03848
5674.37,0.03758
5668.58,0.03829
5662.8,0.03717
5657.01,0.03884
5651.22,0.03665
5645.44,0.03728
5639.65,0.03703
5633.87,0.03686
5628.08,0.03712
5622.29,0.03712
5616.51,0.03944
5610.72,0.03839
5604.93,0.03765
5599.15,0.03746
5593.36,0.03880
5587.58,0.03748
5581.79,0.03742
5576,0.03673
5570.22,0.03813
5564.43,0.03849
5558.64,0.03790
5552.86,0.03678
5547.07,0.03946
5541.29,0.03870
5535.5,0.03824
5529.71,0.03554
5523.93,0.03821
5518.14,0.03865
5512.35,0.03934
5506.57,0.03714
5500.78,0.03957
5495,0.03908
5489.21,0.03842
5483.42,0.03770
5477.64,0.03634
5471.85,0.03710
5466.06,0.03684
5460.28,0.03992
5454.49,0.03951
5448.71,0.04033
5442.92,0.03797
5437.13,0.03884
5431.35,0.03813
5425.56,0.03749
5419.77,0.03873
5413.99,0.03842
5408.2,0.03921
5402.42,0.03927
5396.63,0.03868
5390.84,0.03832
5385.06,0.03949
5379.27,0.03725
5373.48,0.03772
5367.7,0.03851
5361.91,0.03780
5356.13,0.03902
5350.34,0.03888
5344.55,0.03816
5338.77,0.03904
5332.98,0.03906
5327.19,0.03933
5321.41,0.03824
5315.62,0.03986
5309.84,0.03902
5304.05,0.03888
5298.26,0.03974
5292.48,0.03866
5286.69,0.03936
5280.9,0.03822
5275.12,0.03742
5269.33,0.03798
5263.55,0.03894
5257.76,0.03783
5251.97,0.03772
5246.19,0.03912
5240.4,0.03954
5234.61,0.03769
5228.83,0.03925
5223.04,0.03808
5217.26,0.03800
5211.47,0.03893
5205.68,0.03982
5199.9,0.03929
5194.11,0.03962
5188.32,0.03948
5182.54,0.03838
5176.75,0.03841
5170.97,0.03878
5165.18,0.03851
5159.39,0.03887
5153.61,0.04066
5147.82,0.04004
5142.03,0.03925
5136.25,0.03973
5130.46,0.03914
5124.68,0.03987
5118.89,0.03952
5113.1,0.03969
5107.32,0.03832
5101.53,0.03916
5095.75,0.03897
5089.96,0.03895
5084.17,0.03900
5078.39,0.03833
5072.6,0.03921
5066.81,0.03913
5061.03,0.03858
5055.24,0.03942
5049.46,0.03860
5043.67,0.03949
5037.88,0.03936
5032.1,0.03903
5026.31,0.03853
5020.52,0.03983
5014.74,0.03973
5008.95,0.03794
5003.17,0.04088
4997.38,0.03952
4991.59,0.04023
4985.81,0.04099
4980.02,0.03914
4974.23,0.04018
4968.45,0.03978
4962.66,0.04055
4956.88,0.03910
4951.09,0.03933
4945.3,0.03961
4939.52,0.03929
4933.73,0.03832
4927.94,0.03829
4922.16,0.03862
4916.37,0.03948
4910.59,0.03908
4904.8,0.04042
4899.01,0.04000
4893.23,0.04040
4887.44,0.03904
4881.65,0.03835
4875.87,0.03958
4870.08,0.03950
4864.3,0.03940
4858.51,0.03892
4852.72,0.03942
4846.94,0.03966
4841.15,0.03982
4835.36,0.04023
4829.58,0.04038
4823.79,0.03984
4818.01,0.03978
4812.22,0.04005
4806.43,0.04046
4800.65,0.03948
4794.86,0.03945
4789.07,0.03950
4783.29,0.03963
4777.5,0.04001
4771.72,0.04046
4765.93,0.04035
4760.14,0.03993
4754.36,0.03963
4748.57,0.03965
4742.78,0.04066
4737,0.03989
4731.21,0.03886
4725.43,0.04001
4719.64,0.03987
4713.85,0.03962
4708.07,0.04021
4702.28,0.04069
4696.49,0.04045
4690.71,0.04021
4684.92,0.04012
4679.14,0.04051
4673.35,0.04009
4667.56,0.03963
4661.78,0.04043
4655.99,0.03999
4650.2,0.04040
4644.42,0.03968
4638.63,0.03979
4632.85,0.03901
4627.06,0.04045
4621.27,0.03977
4615.49,0.04013
4609.7,0.04031
4603.92,0.04113
4598.13,0.04006
4592.34,0.03946
4586.56,0.03926
4580.77,0.04026
4574.98,0.04020
4569.2,0.04114
4563.41,0.03995
4557.63,0.04057
4551.84,0.04022
4546.05,0.04044
4540.27,0.04105
4534.48,0.04002
4528.69,0.04079
4522.91,0.04121
4517.12,0.04033
4511.34,0.04171
4505.55,0.04106
4499.76,0.03985
4493.98,0.04096
4488.19,0.03995
4482.4,0.04013
4476.62,0.04081
4470.83,0.04132
4465.05,0.04038
4459.26,0.03959
4453.47,0.04111
4447.69,0.04055
4441.9,0.04021
4436.11,0.04070
4430.33,0.03996
4424.54,0.03987
4418.76,0.04000
4412.97,0.03925
4407.18,0.04000
4401.4,0.03982
4395.61,0.04009
4389.82,0.03887
4384.04,0.03930
4378.25,0.03840
4372.47,0.03826
4366.68,0.03942
4360.89,0.03923
4355.11,0.03823
4349.32,0.03886
4343.53,0.03831
4337.75,0.03830
4331.96,0.03828
4326.18,0.03754
4320.39,0.03784
4314.6,0.03870
4308.82,0.03844
4303.03,0.03953
4297.24,0.03959
4291.46,0.03909
4285.67,0.03948
4279.89,0.03931
4274.1,0.03879
4268.31,0.03835
4262.53,0.03928
4256.74,0.03855
4250.95,0.03893
4245.17,0.03971
4239.38,0.03914
4233.6,0.03959
4227.81,0.03902
4222.02,0.03874
4216.24,0.03874
4210.45,0.03826
4204.66,0.03934
4198.88,0.03957
4193.09,0.03963
4187.31,0.03942
4181.52,0.03924
4175.73,0.03954
4169.95,0.03966
4164.16,0.03923
4158.37,0.03992
4152.59,0.03963
4146.8,0.03989
4141.02,0.04001
4135.23,0.03992
4129.44,0.04017
4123.66,0.04078
4117.87,0.03978
4112.09,0.03948
4106.3,0.03942
4100.51,0.04029
4094.73,0.03958
4088.94,0.03952
4083.15,0.03951
4077.37,0.03942
4071.58,0.04000
4065.8,0.04011
4060.01,0.04001
4054.22,0.03977
4048.44,0.04056
4042.65,0.04082
4036.86,0.04048
4031.08,0.04046
4025.29,0.04035
4019.51,0.04005
4013.72,0.04075
4007.93,0.04067
4002.15,0.04039
3996.36,0.04115
3990.57,0.04124
3984.79,0.04092
3979,0.04063
3973.22,0.04149
3967.43,0.04109
3961.64,0.04115
3955.86,0.04126
3950.07,0.04121
3944.28,0.04084
3938.5,0.04098
3932.71,0.04136
3926.93,0.04127
3921.14,0.04135
3915.35,0.04094
3909.57,0.04180
3903.78,0.04141
3897.99,0.04189
3892.21,0.04220
3886.42,0.04093
3880.64,0.04184
3874.85,0.04216
3869.06,0.04198
3863.28,0.04160
3857.49,0.04178
3851.7,0.04178
3845.92,0.04190
3840.13,0.04232
3834.35,0.04107
3828.56,0.04177
3822.77,0.04203
3816.99,0.04148
3811.2,0.04206
3805.41,0.04135
3799.63,0.04142
3793.84,0.04241
3788.06,0.04202
3782.27,0.04198
3776.48,0.04195
3770.7,0.04203
3764.91,0.04271
3759.12,0.04238
3753.34,0.04250
3747.55,0.04236
3741.77,0.04166
3735.98,0.04235
3730.19,0.04247
3724.41,0.04222
3718.62,0.04217
3712.83,0.04204
3707.05,0.04243
3701.26,0.04185
3695.48,0.04156
3689.69,0.04233
3683.9,0.04208
3678.12,0.04254
3672.33,0.04216
3666.54,0.04157
3660.76,0.04157
3654.97,0.04175
3649.19,0.04128
3643.4,0.04165
3637.61,0.04134
3631.83,0.04158
3626.04,0.04142
3620.25,0.04067
3614.47,0.04176
3608.68,0.04211
3602.9,0.04160
3597.11,0.04135
3591.32,0.04135
3585.54,0.04119
3579.75,0.04011
3573.97,0.04089
3568.18,0.04059
3562.39,0.04099
3556.61,0.04128
3550.82,0.04033
3545.03,0.04032
3539.25,0.04089
3533.46,0.04042
3527.68,0.04018
3521.89,0.03944
3516.1,0.03953
3510.32,0.04029
3504.53,0.04023
3498.74,0.03977
3492.96,0.03941
3487.17,0.03968
3481.39,0.03963
3475.6,0.03924
3469.81,0.03968
3464.03,0.03890
3458.24,0.03905
3452.45,0.03816
3446.67,0.03965
3440.88,0.03914
3435.1,0.03845
3429.31,0.03782
3423.52,0.03816
3417.74,0.03762
3411.95,0.03749
3406.16,0.03791
3400.38,0.03832
3394.59,0.03841
3388.81,0.03836
3383.02,0.03885
3377.23,0.03829
3371.45,0.03908
3365.66,0.03876
3359.87,0.03790
3354.09,0.03808
3348.3,0.03758
3342.52,0.03858
3336.73,0.03809
3330.94,0.03827
3325.16,0.03838
3319.37,0.03864
3313.58,0.03784
3307.8,0.03792
3302.01,0.03774
3296.23,0.03867
3290.44,0.03853
3284.65,0.03872
3278.87,0.03875
3273.08,0.03874
3267.29,0.03878
3261.51,0.03841
3255.72,0.03950
3249.94,0.03919
3244.15,0.03861
3238.36,0.03928
3232.58,0.03885
3226.79,0.03837
3221,0.03929
3215.22,0.03860
3209.43,0.03872
3203.65,0.03955
3197.86,0.03931
3192.07,0.03860
3186.29,0.03906
3180.5,0.03850
3174.71,0.03989
3168.93,0.03939
3163.14,0.03949
3157.36,0.03923
3151.57,0.03947
3145.78,0.03929
3140,0.03939
3134.21,0.03983
3128.42,0.03872
3122.64,0.03891
3116.85,0.03862
3111.07,0.03906
3105.28,0.03867
3099.49,0.03868
3093.71,0.03887
3087.92,0.03868
3082.14,0.03784
3076.35,0.03859
3070.56,0.03776
3064.78,0.03738
3058.99,0.03724
3053.2,0.03707
3047.42,0.03734
3041.63,0.03779
3035.85,0.03746
3030.06,0.03681
3024.27,0.03654
3018.49,0.03570
3012.7,0.03478
3006.91,0.03418
3001.13,0.03352
2995.34,0.03197
2989.56,0.03070
2983.77,0.02892
2977.98,0.02751
2972.2,0.02700
2966.41,0.02662
2960.62,0.02679
2954.84,0.02722
2949.05,0.02764
2943.27,0.02733
2937.48,0.02726
2931.69,0.02719
2925.91,0.02771
2920.12,0.02874
2914.33,0.02859
2908.55,0.02899
2902.76,0.02878
2896.98,0.02906
2891.19,0.02971
2885.4,0.02949
2879.62,0.02924
2873.83,0.02939
2868.04,0.02912
2862.26,0.02915
2856.47,0.02937
2850.69,0.03020
2844.9,0.03112
2839.11,0.03260
2833.33,0.03344
2827.54,0.03402
2821.75,0.03469
2815.97,0.03515
2810.18,0.03595
2804.4,0.03678
2798.61,0.03740
2792.82,0.03803
2787.04,0.03818
2781.25,0.03856
2775.46,0.03906
2769.68,0.03916
2763.89,0.03906
2758.11,0.03950
2752.32,0.03950
2746.53,0.03885
2740.75,0.03891
2734.96,0.03927
2729.17,0.03901
2723.39,0.03931
2717.6,0.03962
2711.82,0.04048
2706.03,0.04036
2700.24,0.04010
2694.46,0.04094
2688.67,0.04074
2682.88,0.04055
2677.1,0.04081
2671.31,0.04071
2665.53,0.04065
2659.74,0.04105
2653.95,0.04098
2648.17,0.04187
2642.38,0.04120
2636.59,0.04168
2630.81,0.04115
2625.02,0.04070
2619.24,0.04093
2613.45,0.04113
2607.66,0.04095
2601.88,0.04131
2596.09,0.04146
2590.3,0.04154
2584.52,0.04170
2578.73,0.04119
2572.95,0.04162
2567.16,0.04137
2561.37,0.04124
2555.59,0.04199
2549.8,0.04200
2544.02,0.04172
2538.23,0.04194
2532.44,0.04225
2526.66,0.04264
2520.87,0.04261
2515.08,0.04226
2509.3,0.04246
2503.51,0.04280
2497.73,0.04294
2491.94,0.04276
2486.15,0.04345
2480.37,0.04350
2474.58,0.04299
2468.79,0.04335
2463.01,0.04322
2457.22,0.04332
2451.44,0.04348
2445.65,0.04346
2439.86,0.04309
2434.08,0.04313
2428.29,0.04318
2422.5,0.04301
2416.72,0.04297
2410.93,0.04277
2405.15,0.04266
2399.36,0.04265
2393.57,0.04253
2387.79,0.04259
2382,0.04267
2376.21,0.04294
2370.43,0.04284
2364.64,0.04284
2358.86,0.04310
2353.07,0.04317
2347.28,0.04390
2341.5,0.04393
2335.71,0.04424
2329.92,0.04419
2324.14,0.04388
2318.35,0.04412
2312.57,0.04397
2306.78,0.04391
2300.99,0.04421
2295.21,0.04409
2289.42,0.04421
2283.63,0.04376
2277.85,0.04408
2272.06,0.04390
2266.28,0.04432
2260.49,0.04395
2254.7,0.04383
2248.92,0.04413
2243.13,0.04419
2237.34,0.04406
2231.56,0.04382
2225.77,0.04399
2219.99,0.04421
2214.2,0.04419
2208.41,0.04437
2202.63,0.04447
2196.84,0.04430
2191.05,0.04431
2185.27,0.04441
2179.48,0.04475
2173.7,0.04469
2167.91,0.04481
2162.12,0.04479
2156.34,0.04471
2150.55,0.04488
2144.76,0.04441
2138.98,0.04444
2133.19,0.04467
2127.41,0.04461
2121.62,0.04461
2115.83,0.04421
2110.05,0.04444
2104.26,0.04428
2098.47,0.04426
2092.69,0.04450
2086.9,0.04455
2081.12,0.04448
2075.33,0.04428
2069.54,0.04408
2063.76,0.04400
2057.97,0.04404
2052.19,0.04438
2046.4,0.04430
2040.61,0.04424
2034.83,0.04455
2029.04,0.04418
2023.25,0.04457
2017.47,0.04435
2011.68,0.04450
2005.9,0.04450
2000.11,0.04431
1994.32,0.04385
1988.54,0.04370
1982.75,0.04350
1976.96,0.04360
1971.18,0.04326
1965.39,0.04331
1959.61,0.04255
1953.82,0.04233
1948.03,0.04130
1942.25,0.04193
1936.46,0.04247
1930.67,0.04284
1924.89,0.04261
1919.1,0.04320
1913.32,0.04312
1907.53,0.04333
1901.74,0.04294
1895.96,0.04330
1890.17,0.04317
1884.38,0.04305
1878.6,0.04279
1872.81,0.04298
1867.03,0.04312
1861.24,0.04264
1855.45,0.04261
1849.67,0.04220
1843.88,0.04203
1838.09,0.04145
1832.31,0.04108
1826.52,0.04024
1820.74,0.03986
1814.95,0.03987
1809.16,0.03980
1803.38,0.04013
1797.59,0.03967
1791.8,0.03948
1786.02,0.03866
1780.23,0.03782
1774.45,0.03745
1768.66,0.03649
1762.87,0.03528
1757.09,0.03369
1751.3,0.03219
1745.51,0.02989
1739.73,0.02825
1733.94,0.02620
1728.16,0.02555
1722.37,0.02668
1716.58,0.02842
1710.8,0.02891
1705.01,0.02990
1699.22,0.03063
1693.44,0.03208
1687.65,0.03278
1681.87,0.03244
1676.08,0.03279
1670.29,0.03327
1664.51,0.03401
1658.72,0.03470
1652.93,0.03652
1647.15,0.03659
1641.36,0.03674
1635.58,0.03644
1629.79,0.03682
1624,0.03659
1618.22,0.03638
1612.43,0.03591
1606.64,0.03563
1600.86,0.03600
1595.07,0.03596
1589.29,0.03538
1583.5,0.03446
1577.71,0.03264
1571.93,0.03391
1566.14,0.03475
1560.35,0.03428
1554.57,0.03455
1548.78,0.03519
1543,0.03528
1537.21,0.03515
1531.42,0.03466
1525.64,0.03460
1519.85,0.03453
1514.07,0.03399
1508.28,0.03242
1502.49,0.03202
1496.71,0.03357
1490.92,0.03356
1485.13,0.03247
1479.35,0.03091
1473.56,0.02872
1467.78,0.02707
1461.99,0.02764
1456.2,0.02798
1450.42,0.02858
1444.63,0.02844
1438.84,0.02734
1433.06,0.02735
1427.27,0.02729
1421.49,0.02842
1415.7,0.02844
1409.91,0.02816
1404.13,0.02865
1398.34,0.02917
1392.55,0.02848
1386.77,0.02757
1380.98,0.02773
1375.2,0.02808
1369.41,0.02856
1363.62,0.02856
1357.84,0.02812
1352.05,0.02808
1346.26,0.02768
1340.48,0.02641
1334.69,0.02674
1328.91,0.02645
1323.12,0.02634
1317.33,0.02616
1311.55,0.02607
1305.76,0.02577
1299.97,0.02569
1294.19,0.02512
1288.4,0.02393
1282.62,0.02391
1276.83,0.02524
1271.04,0.02755
1265.26,0.02972
1259.47,0.02948
1253.68,0.02915
1247.9,0.03006
1242.11,0.03051
1236.33,0.03046
1230.54,0.02986
1224.75,0.03103
1218.97,0.03120
1213.18,0.03046
1207.39,0.03025
1201.61,0.02990
1195.82,0.03015
1190.04,0.03021
1184.25,0.03093
1178.46,0.03058
1172.68,0.02931
1166.89,0.03014
1161.1,0.02997
1155.32,0.02925
1149.53,0.02869
1143.75,0.02855
1137.96,0.02777
1132.17,0.02717
1126.39,0.02603
1120.6,0.02672
1114.81,0.02741
1109.03,0.02746
1103.24,0.02812
1097.46,0.02896
1091.67,0.02955
1085.88,0.02965
1080.1,0.03007
1074.31,0.03064
1068.52,0.03110
1062.74,0.03153
1056.95,0.03202
1051.17,0.03197
1045.38,0.03162
1039.59,0.03099
1033.81,0.03098
1028.02,0.03025
1022.24,0.02945
1016.45,0.02993
1010.66,0.03206
1004.88,0.03182
999.09,0.03154
993.304,0.03076
987.518,0.03053
981.731,0.03050
975.945,0.03004
970.159,0.02912
964.373,0.02932
958.586,0.02955
952.8,0.02981
947.014,0.02996
941.228,0.03002
935.441,0.03107
929.655,0.03138
923.869,0.03054
918.083,0.03102
912.297,0.03194
906.51,0.03174
900.724,0.03196
894.938,0.03282
889.152,0.03240
883.365,0.03210
877.579,0.03039
871.793,0.03095
866.007,0.03230
860.22,0.03201
854.434,0.03222
848.648,0.03272
842.862,0.03274
837.075,0.03245
831.289,0.03280
825.503,0.03324
819.717,0.03359
813.931,0.03422
808.144,0.03397
802.358,0.03357
796.572,0.03338
790.786,0.03391
784.999,0.03328
779.213,0.03280
773.427,0.03246
767.641,0.03160
761.854,0.03210
756.068,0.03219
750.282,0.03203
744.496,0.02979
738.709,0.02859
732.923,0.02686
727.137,0.03027
721.351,0.03142
715.565,0.03102
709.778,0.02986
703.992,0.02948
698.206,0.02996
692.42,0.02968
686.633,0.02889
680.847,0.02974
675.061,0.02917
669.275,0.03041
663.488,0.03128
657.702,0.02799
651.916,0.02848
646.13,0.02782
640.343,0.02620
634.557,0.02631
628.771,0.02757
622.985,0.02768
617.198,0.02558
611.412,0.02614
605.626,0.02635
599.84,0.02737