File: 01_Data/Rebond_Foam_Carpet_Pad/FTIR/IS/Rebond_Foam_Carpet_Pad_IS_S_220913_R3.dpt
7497.03,0.08352
7491.25,0.09974
7485.46,0.09076
7479.67,0.09169
7473.89,0.09017
7468.1,0.09254
7462.32,0.09702
7456.53,0.09313
7450.74,0.10320
7444.96,0.09279
7439.17,0.09185
7433.38,0.09465
7427.6,0.10331
7421.81,0.09326
7416.03,0.09576
7410.24,0.09062
7404.45,0.08960
7398.67,0.08772
7392.88,0.08738
7387.09,0.09653
7381.31,0.09727
7375.52,0.09843
7369.74,0.08229
7363.95,0.09263
7358.16,0.08427
7352.38,0.08953
7346.59,0.09475
7340.8,0.09080
7335.02,0.09412
7329.23,0.09490
7323.45,0.08631
7317.66,0.09117
7311.87,0.09501
7306.09,0.09308
7300.3,0.08544
7294.51,0.09129
7288.73,0.09194
7282.94,0.08779
7277.16,0.09137
7271.37,0.09374
7265.58,0.09156
7259.8,0.09722
7254.01,0.09617
7248.22,0.09681
7242.44,0.09838
7236.65,0.09229
7230.87,0.09980
7225.08,0.09641
7219.29,0.09810
7213.51,0.09522
7207.72,0.09196
7201.93,0.09049
7196.15,0.08632
7190.36,0.09346
7184.58,0.09267
7178.79,0.09266
7173,0.08637
7167.22,0.10042
7161.43,0.09382
7155.65,0.09794
7149.86,0.08960
7144.07,0.08933
7138.29,0.08969
7132.5,0.09133
7126.71,0.09157
7120.93,0.09554
7115.14,0.09547
7109.36,0.09619
7103.57,0.09612
7097.78,0.09305
7092,0.09540
7086.21,0.08537
7080.42,0.09193
7074.64,0.09181
7068.85,0.09020
7063.07,0.09406
7057.28,0.09333
7051.49,0.09590
7045.71,0.09636
7039.92,0.09046
7034.13,0.08973
7028.35,0.09383
7022.56,0.09274
7016.78,0.09354
7010.99,0.09040
7005.2,0.09620
6999.42,0.09502
6993.63,0.09814
6987.84,0.09053
6982.06,0.10072
6976.27,0.09637
6970.49,0.09426
6964.7,0.09120
6958.91,0.08927
6953.13,0.08867
6947.34,0.09711
6941.55,0.09700
6935.77,0.09175
6929.98,0.09355
6924.2,0.09500
6918.41,0.08734
6912.62,0.08959
6906.84,0.09290
6901.05,0.09097
6895.26,0.09572
6889.48,0.09408
6883.69,0.09249
6877.91,0.09019
6872.12,0.09485
6866.33,0.09418
6860.55,0.09858
6854.76,0.09717
6848.97,0.09347
6843.19,0.09515
6837.4,0.09404
6831.62,0.09455
6825.83,0.09606
6820.04,0.09646
6814.26,0.09195
6808.47,0.09908
6802.68,0.09627
6796.9,0.09728
6791.11,0.09414
6785.33,0.09257
6779.54,0.09826
6773.75,0.09284
6767.97,0.09566
6762.18,0.09351
6756.39,0.09190
6750.61,0.09657
6744.82,0.09381
6739.04,0.09552
6733.25,0.09548
6727.46,0.09067
6721.68,0.09182
6715.89,0.09450
6710.1,0.09060
6704.32,0.09195
6698.53,0.09291
6692.75,0.09335
6686.96,0.09642
6681.17,0.09198
6675.39,0.09268
6669.6,0.09541
6663.82,0.09577
6658.03,0.09745
6652.24,0.08983
6646.46,0.09732
6640.67,0.09317
6634.88,0.09252
6629.1,0.09859
6623.31,0.09282
6617.53,0.09170
6611.74,0.09151
6605.95,0.09084
6600.17,0.08990
6594.38,0.09815
6588.59,0.09339
6582.81,0.09450
6577.02,0.09263
6571.24,0.09156
6565.45,0.09181
6559.66,0.09509
6553.88,0.09960
6548.09,0.09650
6542.3,0.09214
6536.52,0.09767
6530.73,0.09793
6524.95,0.09510
6519.16,0.09538
6513.37,0.09646
6507.59,0.09457
6501.8,0.09567
6496.01,0.09482
6490.23,0.09691
6484.44,0.09222
6478.66,0.09534
6472.87,0.09228
6467.08,0.09464
6461.3,0.09526
6455.51,0.09416
6449.72,0.09244
6443.94,0.09081
6438.15,0.09284
6432.37,0.09720
6426.58,0.09330
6420.79,0.09237
6415.01,0.09278
6409.22,0.09619
6403.43,0.09478
6397.65,0.09775
6391.86,0.09487
6386.08,0.09645
6380.29,0.09751
6374.5,0.09637
6368.72,0.09712
6362.93,0.09741
6357.14,0.09355
6351.36,0.09510
6345.57,0.09565
6339.79,0.09422
6334,0.09260
6328.21,0.09508
6322.43,0.09632
6316.64,0.09639
6310.85,0.09507
6305.07,0.09210
6299.28,0.09408
6293.5,0.09502
6287.71,0.09711
6281.92,0.09465
6276.14,0.09662
6270.35,0.09699
6264.56,0.09766
6258.78,0.09821
6252.99,0.09576
6247.21,0.09335
6241.42,0.09545
6235.63,0.09461
6229.85,0.09931
6224.06,0.09616
6218.27,0.09667
6212.49,0.09770
6206.7,0.09712
6200.92,0.09518
6195.13,0.09654
6189.34,0.09856
6183.56,0.09630
6177.77,0.09604
6171.98,0.09536
6166.2,0.09534
6160.41,0.09504
6154.63,0.09449
6148.84,0.09340
6143.05,0.09452
6137.27,0.09776
6131.48,0.09572
6125.7,0.09784
6119.91,0.09657
6114.12,0.09752
6108.34,0.09313
6102.55,0.09279
6096.76,0.09509
6090.98,0.09834
6085.19,0.09564
6079.41,0.09648
6073.62,0.09490
6067.83,0.09566
6062.05,0.09485
6056.26,0.09498
6050.47,0.09330
6044.69,0.09616
6038.9,0.09554
6033.12,0.09508
6027.33,0.09464
6021.54,0.09461
6015.76,0.09419
6009.97,0.09220
6004.18,0.09404
5998.4,0.09618
5992.61,0.09270
5986.83,0.09232
5981.04,0.09249
5975.25,0.09456
5969.47,0.09538
5963.68,0.09427
5957.89,0.09007
5952.11,0.09017
5946.32,0.08977
5940.54,0.09168
5934.75,0.09098
5928.96,0.08812
5923.18,0.09172
5917.39,0.08913
5911.6,0.09077
5905.82,0.08986
5900.03,0.09156
5894.25,0.08990
5888.46,0.09055
5882.67,0.09158
5876.89,0.09193
5871.1,0.08985
5865.31,0.09373
5859.53,0.09077
5853.74,0.09177
5847.96,0.09081
5842.17,0.09150
5836.38,0.09058
5830.6,0.09180
5824.81,0.09118
5819.02,0.09165
5813.24,0.09117
5807.45,0.09136
5801.67,0.08890
5795.88,0.09082
5790.09,0.09155
5784.31,0.09107
5778.52,0.09087
5772.73,0.09007
5766.95,0.09067
5761.16,0.09051
5755.38,0.09249
5749.59,0.09093
5743.8,0.09215
5738.02,0.09151
5732.23,0.09104
5726.44,0.09174
5720.66,0.09210
5714.87,0.09299
5709.09,0.09080
5703.3,0.09256
5697.51,0.09326
5691.73,0.09222
5685.94,0.09238
5680.15,0.09301
5674.37,0.09347
5668.58,0.09451
5662.8,0.09408
5657.01,0.09345
5651.22,0.09470
5645.44,0.09377
5639.65,0.09407
5633.87,0.09345
5628.08,0.09656
5622.29,0.09251
5616.51,0.09447
5610.72,0.09543
5604.93,0.09823
5599.15,0.09664
5593.36,0.09729
5587.58,0.09775
5581.79,0.09759
5576,0.09667
5570.22,0.09519
5564.43,0.09505
5558.64,0.09728
5552.86,0.09492
5547.07,0.09650
5541.29,0.09643
5535.5,0.09525
5529.71,0.09739
5523.93,0.09728
5518.14,0.09740
5512.35,0.09525
5506.57,0.09661
5500.78,0.09634
5495,0.09788
5489.21,0.09751
5483.42,0.09748
5477.64,0.09931
5471.85,0.09814
5466.06,0.09726
5460.28,0.09699
5454.49,0.09783
5448.71,0.09717
5442.92,0.09735
5437.13,0.09928
5431.35,0.09822
5425.56,0.09733
5419.77,0.09874
5413.99,0.09835
5408.2,0.09878
5402.42,0.10137
5396.63,0.09886
5390.84,0.09967
5385.06,0.10042
5379.27,0.10032
5373.48,0.09859
5367.7,0.09895
5361.91,0.10074
5356.13,0.10112
5350.34,0.10057
5344.55,0.10162
5338.77,0.10041
5332.98,0.09844
5327.19,0.10014
5321.41,0.10043
5315.62,0.09999
5309.84,0.09843
5304.05,0.10012
5298.26,0.10038
5292.48,0.09937
5286.69,0.09922
5280.9,0.10098
5275.12,0.09800
5269.33,0.09921
5263.55,0.09977
5257.76,0.09990
5251.97,0.09903
5246.19,0.09933
5240.4,0.09842
5234.61,0.09847
5228.83,0.09769
5223.04,0.10039
5217.26,0.10012
5211.47,0.09864
5205.68,0.09867
5199.9,0.09974
5194.11,0.10082
5188.32,0.09896
5182.54,0.09980
5176.75,0.09950
5170.97,0.09868
5165.18,0.09905
5159.39,0.09958
5153.61,0.09800
5147.82,0.09945
5142.03,0.09898
5136.25,0.09870
5130.46,0.09799
5124.68,0.09985
5118.89,0.09971
5113.1,0.09861
5107.32,0.09916
5101.53,0.09854
5095.75,0.09960
5089.96,0.09800
5084.17,0.09895
5078.39,0.10028
5072.6,0.09918
5066.81,0.10007
5061.03,0.09873
5055.24,0.09932
5049.46,0.10030
5043.67,0.09880
5037.88,0.09843
5032.1,0.09968
5026.31,0.09761
5020.52,0.09813
5014.74,0.09907
5008.95,0.09906
5003.17,0.09826
4997.38,0.09824
4991.59,0.09826
4985.81,0.09772
4980.02,0.09653
4974.23,0.09764
4968.45,0.09633
4962.66,0.09602
4956.88,0.09542
4951.09,0.09458
4945.3,0.09512
4939.52,0.09488
4933.73,0.09395
4927.94,0.09307
4922.16,0.09364
4916.37,0.09333
4910.59,0.09342
4904.8,0.09366
4899.01,0.09295
4893.23,0.09257
4887.44,0.09106
4881.65,0.09171
4875.87,0.09312
4870.08,0.09225
4864.3,0.09171
4858.51,0.09104
4852.72,0.09293
4846.94,0.09296
4841.15,0.09373
4835.36,0.09296
4829.58,0.09289
4823.79,0.09281
4818.01,0.09525
4812.22,0.09641
4806.43,0.09546
4800.65,0.09509
4794.86,0.09633
4789.07,0.09577
4783.29,0.09673
4777.5,0.09656
4771.72,0.09633
4765.93,0.09664
4760.14,0.09689
4754.36,0.09603
4748.57,0.09656
4742.78,0.09769
4737,0.09666
4731.21,0.09622
4725.43,0.09538
4719.64,0.09378
4713.85,0.09466
4708.07,0.09550
4702.28,0.09424
4696.49,0.09451
4690.71,0.09399
4684.92,0.09370
4679.14,0.09324
4673.35,0.09208
4667.56,0.09202
4661.78,0.09254
4655.99,0.09299
4650.2,0.09218
4644.42,0.09201
4638.63,0.09185
4632.85,0.09307
4627.06,0.09047
4621.27,0.09207
4615.49,0.09253
4609.7,0.09323
4603.92,0.09387
4598.13,0.09325
4592.34,0.09331
4586.56,0.09422
4580.77,0.09356
4574.98,0.09371
4569.2,0.09393
4563.41,0.09449
4557.63,0.09496
4551.84,0.09387
4546.05,0.09489
4540.27,0.09489
4534.48,0.09535
4528.69,0.09418
4522.91,0.09391
4517.12,0.09373
4511.34,0.09458
4505.55,0.09471
4499.76,0.09423
4493.98,0.09402
4488.19,0.09329
4482.4,0.09298
4476.62,0.09255
4470.83,0.09185
4465.05,0.09076
4459.26,0.08920
4453.47,0.08730
4447.69,0.08617
4441.9,0.08438
4436.11,0.08194
4430.33,0.08038
4424.54,0.07918
4418.76,0.07803
4412.97,0.07639
4407.18,0.07546
4401.4,0.07679
4395.61,0.07630
4389.82,0.07578
4384.04,0.07480
4378.25,0.07371
4372.47,0.07355
4366.68,0.07214
4360.89,0.07167
4355.11,0.07143
4349.32,0.07127
4343.53,0.07126
4337.75,0.07172
4331.96,0.07122
4326.18,0.07195
4320.39,0.07208
4314.6,0.07388
4308.82,0.07427
4303.03,0.07410
4297.24,0.07418
4291.46,0.07533
4285.67,0.07699
4279.89,0.07568
4274.1,0.07522
4268.31,0.07540
4262.53,0.07584
4256.74,0.07571
4250.95,0.07613
4245.17,0.07682
4239.38,0.07719
4233.6,0.07713
4227.81,0.07641
4222.02,0.07730
4216.24,0.07771
4210.45,0.07879
4204.66,0.07921
4198.88,0.07983
4193.09,0.08008
4187.31,0.08005
4181.52,0.07989
4175.73,0.07978
4169.95,0.07947
4164.16,0.07965
4158.37,0.07991
4152.59,0.07973
4146.8,0.07938
4141.02,0.08010
4135.23,0.08048
4129.44,0.07988
4123.66,0.07961
4117.87,0.07935
4112.09,0.07990
4106.3,0.07930
4100.51,0.07885
4094.73,0.07858
4088.94,0.07829
4083.15,0.07713
4077.37,0.07606
4071.58,0.07571
4065.8,0.07519
4060.01,0.07390
4054.22,0.07425
4048.44,0.07442
4042.65,0.07414
4036.86,0.07374
4031.08,0.07425
4025.29,0.07435
4019.51,0.07434
4013.72,0.07432
4007.93,0.07492
4002.15,0.07507
3996.36,0.07533
3990.57,0.07663
3984.79,0.07720
3979,0.07743
3973.22,0.07808
3967.43,0.07917
3961.64,0.07972
3955.86,0.08075
3950.07,0.08106
3944.28,0.08128
3938.5,0.08280
3932.71,0.08325
3926.93,0.08375
3921.14,0.08387
3915.35,0.08393
3909.57,0.08572
3903.78,0.08624
3897.99,0.08568
3892.21,0.08620
3886.42,0.08662
3880.64,0.08621
3874.85,0.08705
3869.06,0.08703
3863.28,0.08771
3857.49,0.08851
3851.7,0.08759
3845.92,0.08931
3840.13,0.08894
3834.35,0.08896
3828.56,0.08973
3822.77,0.09055
3816.99,0.08984
3811.2,0.08980
3805.41,0.09072
3799.63,0.09050
3793.84,0.09108
3788.06,0.09200
3782.27,0.09237
3776.48,0.09217
3770.7,0.09331
3764.91,0.09385
3759.12,0.09369
3753.34,0.09346
3747.55,0.09429
3741.77,0.09405
3735.98,0.09470
3730.19,0.09471
3724.41,0.09472
3718.62,0.09520
3712.83,0.09564
3707.05,0.09481
3701.26,0.09358
3695.48,0.09407
3689.69,0.09339
3683.9,0.09230
3678.12,0.09150
3672.33,0.08942
3666.54,0.08640
3660.76,0.08512
3654.97,0.08359
3649.19,0.08241
3643.4,0.08033
3637.61,0.08002
3631.83,0.07881
3626.04,0.07718
3620.25,0.07623
3614.47,0.07575
3608.68,0.07519
3602.9,0.07552
3597.11,0.07387
3591.32,0.07325
3585.54,0.07294
3579.75,0.07194
3573.97,0.07099
3568.18,0.07020
3562.39,0.06933
3556.61,0.06804
3550.82,0.06747
3545.03,0.06636
3539.25,0.06571
3533.46,0.06456
3527.68,0.06403
3521.89,0.06345
3516.1,0.06236
3510.32,0.06231
3504.53,0.06074
3498.74,0.06041
3492.96,0.06006
3487.17,0.05945
3481.39,0.05750
3475.6,0.05632
3469.81,0.05507
3464.03,0.05295
3458.24,0.05172
3452.45,0.05008
3446.67,0.04984
3440.88,0.04902
3435.1,0.04782
3429.31,0.04596
3423.52,0.04413
3417.74,0.04235
3411.95,0.04024
3406.16,0.03814
3400.38,0.03771
3394.59,0.03579
3388.81,0.03422
3383.02,0.03368
3377.23,0.03211
3371.45,0.03160
3365.66,0.03129
3359.87,0.03081
3354.09,0.03038
3348.3,0.03079
3342.52,0.03066
3336.73,0.03011
3330.94,0.02986
3325.16,0.03008
3319.37,0.02915
3313.58,0.02906
3307.8,0.02917
3302.01,0.02931
3296.23,0.02922
3290.44,0.02893
3284.65,0.02969
3278.87,0.02994
3273.08,0.03017
3267.29,0.03026
3261.51,0.03051
3255.72,0.03196
3249.94,0.03219
3244.15,0.03229
3238.36,0.03293
3232.58,0.03425
3226.79,0.03491
3221,0.03551
3215.22,0.03540
3209.43,0.03586
3203.65,0.03613
3197.86,0.03660
3192.07,0.03652
3186.29,0.03724
3180.5,0.03784
3174.71,0.03892
3168.93,0.03977
3163.14,0.03993
3157.36,0.04026
3151.57,0.04100
3145.78,0.04015
3140,0.04027
3134.21,0.04066
3128.42,0.04016
3122.64,0.04043
3116.85,0.04082
3111.07,0.04017
3105.28,0.03937
3099.49,0.04067
3093.71,0.03953
3087.92,0.03834
3082.14,0.03789
3076.35,0.03805
3070.56,0.03727
3064.78,0.03688
3058.99,0.03638
3053.2,0.03698
3047.42,0.03753
3041.63,0.03695
3035.85,0.03568
3030.06,0.03483
3024.27,0.03543
3018.49,0.03620
3012.7,0.03645
3006.91,0.03511
3001.13,0.03285
2995.34,0.03190
2989.56,0.03000
2983.77,0.02883
2977.98,0.02801
2972.2,0.02725
2966.41,0.02712
2960.62,0.02789
2954.84,0.02820
2949.05,0.02806
2943.27,0.02744
2937.48,0.02664
2931.69,0.02705
2925.91,0.02710
2920.12,0.02759
2914.33,0.02736
2908.55,0.02725
2902.76,0.02809
2896.98,0.02838
2891.19,0.02858
2885.4,0.02858
2879.62,0.02812
2873.83,0.02846
2868.04,0.02870
2862.26,0.02939
2856.47,0.02968
2850.69,0.03103
2844.9,0.03202
2839.11,0.03456
2833.33,0.03585
2827.54,0.03764
2821.75,0.03928
2815.97,0.04053
2810.18,0.04160
2804.4,0.04288
2798.61,0.04300
2792.82,0.04349
2787.04,0.04398
2781.25,0.04516
2775.46,0.04656
2769.68,0.04699
2763.89,0.04766
2758.11,0.04818
2752.32,0.04903
2746.53,0.04969
2740.75,0.05016
2734.96,0.05088
2729.17,0.05189
2723.39,0.05329
2717.6,0.05487
2711.82,0.05644
2706.03,0.05764
2700.24,0.05908
2694.46,0.06116
2688.67,0.06220
2682.88,0.06321
2677.1,0.06428
2671.31,0.06520
2665.53,0.06606
2659.74,0.06681
2653.95,0.06720
2648.17,0.06789
2642.38,0.06819
2636.59,0.06891
2630.81,0.06957
2625.02,0.07062
2619.24,0.07142
2613.45,0.07188
2607.66,0.07152
2601.88,0.07116
2596.09,0.07070
2590.3,0.07073
2584.52,0.07087
2578.73,0.07159
2572.95,0.07305
2567.16,0.07407
2561.37,0.07495
2555.59,0.07579
2549.8,0.07647
2544.02,0.07660
2538.23,0.07686
2532.44,0.07746
2526.66,0.07787
2520.87,0.07790
2515.08,0.07845
2509.3,0.07860
2503.51,0.07850
2497.73,0.07832
2491.94,0.07918
2486.15,0.07939
2480.37,0.08020
2474.58,0.08026
2468.79,0.08113
2463.01,0.08176
2457.22,0.08165
2451.44,0.08194
2445.65,0.08260
2439.86,0.08301
2434.08,0.08330
2428.29,0.08358
2422.5,0.08354
2416.72,0.08333
2410.93,0.08339
2405.15,0.08301
2399.36,0.08305
2393.57,0.08250
2387.79,0.08290
2382,0.08223
2376.21,0.08223
2370.43,0.08152
2364.64,0.08151
2358.86,0.08124
2353.07,0.08089
2347.28,0.08059
2341.5,0.08028
2335.71,0.08036
2329.92,0.08069
2324.14,0.08016
2318.35,0.07919
2312.57,0.07873
2306.78,0.07832
2300.99,0.07732
2295.21,0.07601
2289.42,0.07494
2283.63,0.07372
2277.85,0.07278
2272.06,0.07218
2266.28,0.07231
2260.49,0.07272
2254.7,0.07256
2248.92,0.07024
2243.13,0.06439
2237.34,0.06151
2231.56,0.06763
2225.77,0.07523
2219.99,0.07730
2214.2,0.07843
2208.41,0.07885
2202.63,0.07941
2196.84,0.08002
2191.05,0.07957
2185.27,0.07982
2179.48,0.08047
2173.7,0.08098
2167.91,0.08068
2162.12,0.08089
2156.34,0.08069
2150.55,0.08122
2144.76,0.08119
2138.98,0.08155
2133.19,0.08140
2127.41,0.08101
2121.62,0.08125
2115.83,0.08118
2110.05,0.08067
2104.26,0.08105
2098.47,0.08039
2092.69,0.08012
2086.9,0.07983
2081.12,0.07931
2075.33,0.07898
2069.54,0.07887
2063.76,0.07869
2057.97,0.07797
2052.19,0.07807
2046.4,0.07737
2040.61,0.07718
2034.83,0.07642
2029.04,0.07560
2023.25,0.07506
2017.47,0.07470
2011.68,0.07414
2005.9,0.07376
2000.11,0.07348
1994.32,0.07277
1988.54,0.07184
1982.75,0.07200
1976.96,0.07125
1971.18,0.07034
1965.39,0.06994
1959.61,0.06920
1953.82,0.06825
1948.03,0.06876
1942.25,0.06957
1936.46,0.07048
1930.67,0.07130
1924.89,0.07113
1919.1,0.07087
1913.32,0.07051
1907.53,0.07008
1901.74,0.06925
1895.96,0.06863
1890.17,0.06818
1884.38,0.06767
1878.6,0.06806
1872.81,0.06857
1867.03,0.06981
1861.24,0.07045
1855.45,0.07049
1849.67,0.06958
1843.88,0.06859
1838.09,0.06704
1832.31,0.06524
1826.52,0.06300
1820.74,0.06115
1814.95,0.05878
1809.16,0.05726
1803.38,0.05570
1797.59,0.05467
1791.8,0.05350
1786.02,0.05144
1780.23,0.04965
1774.45,0.04722
1768.66,0.04478
1762.87,0.04144
1757.09,0.03752
1751.3,0.03243
1745.51,0.02818
1739.73,0.02585
1733.94,0.02640
1728.16,0.02669
1722.37,0.02724
1716.58,0.02750
1710.8,0.02761
1705.01,0.02782
1699.22,0.02773
1693.44,0.02745
1687.65,0.02763
1681.87,0.02760
1676.08,0.02718
1670.29,0.02701
1664.51,0.02703
1658.72,0.02678
1652.93,0.02623
1647.15,0.02631
1641.36,0.02670
1635.58,0.02785
1629.79,0.02852
1624,0.02851
1618.22,0.02780
1612.43,0.02689
1606.64,0.02590
1600.86,0.02572
1595.07,0.02619
1589.29,0.02703
1583.5,0.02790
1577.71,0.02813
1571.93,0.02639
1566.14,0.02498
1560.35,0.02459
1554.57,0.02387
1548.78,0.02433
1543,0.02573
1537.21,0.02590
1531.42,0.02652
1525.64,0.02716
1519.85,0.02759
1514.07,0.02754
1508.28,0.02767
1502.49,0.02875
1496.71,0.02926
1490.92,0.02946
1485.13,0.02929
1479.35,0.02861
1473.56,0.02834
1467.78,0.02800
1461.99,0.02751
1456.2,0.02669
1450.42,0.02737
1444.63,0.02842
1438.84,0.02927
1433.06,0.03031
1427.27,0.03006
1421.49,0.02952
1415.7,0.02843
1409.91,0.02865
1404.13,0.02935
1398.34,0.02938
1392.55,0.02891
1386.77,0.02828
1380.98,0.02729
1375.2,0.02683
1369.41,0.02818
1363.62,0.02966
1357.84,0.02939
1352.05,0.02881
1346.26,0.02804
1340.48,0.02830
1334.69,0.02835
1328.91,0.02786
1323.12,0.02732
1317.33,0.02627
1311.55,0.02641
1305.76,0.02598
1299.97,0.02601
1294.19,0.02640
1288.4,0.02643
1282.62,0.02666
1276.83,0.02662
1271.04,0.02629
1265.26,0.02602
1259.47,0.02595
1253.68,0.02573
1247.9,0.02571
1242.11,0.02503
1236.33,0.02506
1230.54,0.02588
1224.75,0.02645
1218.97,0.02666
1213.18,0.02745
1207.39,0.02798
1201.61,0.02721
1195.82,0.02776
1190.04,0.02754
1184.25,0.02753
1178.46,0.02682
1172.68,0.02618
1166.89,0.02593
1161.1,0.02582
1155.32,0.02551
1149.53,0.02442
1143.75,0.02496
1137.96,0.02513
1132.17,0.02509
1126.39,0.02588
1120.6,0.02688
1114.81,0.02724
1109.03,0.02876
1103.24,0.02880
1097.46,0.02877
1091.67,0.03032
1085.88,0.03013
1080.1,0.03041
1074.31,0.03087
1068.52,0.03148
1062.74,0.03122
1056.95,0.03286
1051.17,0.03204
1045.38,0.03276
1039.59,0.03300
1033.81,0.03271
1028.02,0.03257
1022.24,0.03271
1016.45,0.03281
1010.66,0.03347
1004.88,0.03379
999.09,0.03384
993.304,0.03565
987.518,0.03704
981.731,0.03780
975.945,0.03753
970.159,0.03741
964.373,0.03723
958.586,0.03761
952.8,0.03882
947.014,0.03881
941.228,0.03679
935.441,0.03602
929.655,0.03530
923.869,0.03597
918.083,0.03643
912.297,0.03650
906.51,0.03766
900.724,0.03887
894.938,0.04034
889.152,0.03936
883.365,0.03761
877.579,0.03604
871.793,0.03628
866.007,0.03606
860.22,0.03667
854.434,0.03719
848.648,0.03762
842.862,0.03787
837.075,0.03746
831.289,0.03682
825.503,0.03505
819.717,0.03454
813.931,0.03406
808.144,0.03531
802.358,0.03690
796.572,0.03764
790.786,0.03727
784.999,0.03668
779.213,0.03490
773.427,0.03311
767.641,0.03223
761.854,0.03078
756.068,0.03197
750.282,0.03510
744.496,0.03663
738.709,0.03719
732.923,0.03819
727.137,0.03840
721.351,0.03762
715.565,0.03454
709.778,0.02978
703.992,0.03033
698.206,0.03227
692.42,0.03582
686.633,0.03591
680.847,0.03504
675.061,0.03479
669.275,0.03460
663.488,0.03627
657.702,0.03570
651.916,0.03507
646.13,0.03748
640.343,0.03649
634.557,0.03697
628.771,0.03705
622.985,0.03649
617.198,0.03886
611.412,0.03843
605.626,0.03681
599.84,0.03638