File: 01_Data/Rebond_Foam_Carpet_Pad/FTIR/IS/Rebond_Foam_Carpet_Pad_IS_S_220913_R4.dpt
7497.03,0.08893
7491.25,0.10000
7485.46,0.09736
7479.67,0.09175
7473.89,0.08973
7468.1,0.08911
7462.32,0.09505
7456.53,0.09090
7450.74,0.09267
7444.96,0.08769
7439.17,0.09081
7433.38,0.09533
7427.6,0.09340
7421.81,0.09002
7416.03,0.08953
7410.24,0.09705
7404.45,0.09124
7398.67,0.08299
7392.88,0.08933
7387.09,0.09268
7381.31,0.09605
7375.52,0.09192
7369.74,0.09327
7363.95,0.09661
7358.16,0.09487
7352.38,0.09473
7346.59,0.09324
7340.8,0.09792
7335.02,0.09806
7329.23,0.09185
7323.45,0.08670
7317.66,0.09692
7311.87,0.09139
7306.09,0.09649
7300.3,0.10004
7294.51,0.09256
7288.73,0.09244
7282.94,0.09598
7277.16,0.10292
7271.37,0.10061
7265.58,0.08943
7259.8,0.09512
7254.01,0.09302
7248.22,0.10395
7242.44,0.09747
7236.65,0.09283
7230.87,0.09106
7225.08,0.09688
7219.29,0.09849
7213.51,0.08912
7207.72,0.09355
7201.93,0.09094
7196.15,0.09531
7190.36,0.09568
7184.58,0.09518
7178.79,0.09486
7173,0.09336
7167.22,0.09777
7161.43,0.09750
7155.65,0.09829
7149.86,0.08893
7144.07,0.09129
7138.29,0.09520
7132.5,0.08986
7126.71,0.09098
7120.93,0.09300
7115.14,0.09590
7109.36,0.09730
7103.57,0.09269
7097.78,0.09061
7092,0.09715
7086.21,0.09253
7080.42,0.09026
7074.64,0.09338
7068.85,0.09466
7063.07,0.09838
7057.28,0.09609
7051.49,0.09573
7045.71,0.09127
7039.92,0.09633
7034.13,0.09672
7028.35,0.09596
7022.56,0.09406
7016.78,0.09834
7010.99,0.09386
7005.2,0.09046
6999.42,0.09637
6993.63,0.09357
6987.84,0.09053
6982.06,0.09403
6976.27,0.09046
6970.49,0.09588
6964.7,0.09421
6958.91,0.09148
6953.13,0.09401
6947.34,0.10332
6941.55,0.09616
6935.77,0.10009
6929.98,0.09570
6924.2,0.09497
6918.41,0.09167
6912.62,0.09223
6906.84,0.09633
6901.05,0.09675
6895.26,0.09263
6889.48,0.09660
6883.69,0.09254
6877.91,0.09528
6872.12,0.09524
6866.33,0.09260
6860.55,0.09830
6854.76,0.09479
6848.97,0.09438
6843.19,0.09050
6837.4,0.09801
6831.62,0.09558
6825.83,0.09319
6820.04,0.09269
6814.26,0.10119
6808.47,0.09141
6802.68,0.09327
6796.9,0.09379
6791.11,0.09216
6785.33,0.09741
6779.54,0.09320
6773.75,0.09353
6767.97,0.09395
6762.18,0.09464
6756.39,0.09587
6750.61,0.09268
6744.82,0.09473
6739.04,0.09292
6733.25,0.09303
6727.46,0.09742
6721.68,0.09468
6715.89,0.09396
6710.1,0.09208
6704.32,0.09218
6698.53,0.09061
6692.75,0.09126
6686.96,0.09704
6681.17,0.09679
6675.39,0.08994
6669.6,0.09285
6663.82,0.09425
6658.03,0.09456
6652.24,0.09144
6646.46,0.09189
6640.67,0.09262
6634.88,0.09368
6629.1,0.09311
6623.31,0.09584
6617.53,0.09466
6611.74,0.09538
6605.95,0.09124
6600.17,0.09197
6594.38,0.09042
6588.59,0.09053
6582.81,0.09412
6577.02,0.09144
6571.24,0.09539
6565.45,0.09556
6559.66,0.09376
6553.88,0.09360
6548.09,0.09857
6542.3,0.09452
6536.52,0.09438
6530.73,0.09633
6524.95,0.09363
6519.16,0.09816
6513.37,0.09280
6507.59,0.09418
6501.8,0.09249
6496.01,0.09273
6490.23,0.09580
6484.44,0.09145
6478.66,0.09398
6472.87,0.09540
6467.08,0.09575
6461.3,0.09481
6455.51,0.09199
6449.72,0.09673
6443.94,0.09960
6438.15,0.09253
6432.37,0.08886
6426.58,0.09489
6420.79,0.09928
6415.01,0.09471
6409.22,0.09584
6403.43,0.09667
6397.65,0.09350
6391.86,0.09573
6386.08,0.09650
6380.29,0.09485
6374.5,0.09623
6368.72,0.09409
6362.93,0.09329
6357.14,0.09432
6351.36,0.09429
6345.57,0.09629
6339.79,0.09581
6334,0.09204
6328.21,0.09482
6322.43,0.09551
6316.64,0.09460
6310.85,0.09556
6305.07,0.09490
6299.28,0.09714
6293.5,0.09394
6287.71,0.09576
6281.92,0.09652
6276.14,0.09362
6270.35,0.09764
6264.56,0.09950
6258.78,0.09913
6252.99,0.09647
6247.21,0.09386
6241.42,0.09588
6235.63,0.09778
6229.85,0.09759
6224.06,0.09647
6218.27,0.09637
6212.49,0.09399
6206.7,0.09452
6200.92,0.09939
6195.13,0.09532
6189.34,0.09462
6183.56,0.09675
6177.77,0.09796
6171.98,0.09782
6166.2,0.09602
6160.41,0.09628
6154.63,0.09716
6148.84,0.09767
6143.05,0.09560
6137.27,0.09523
6131.48,0.09577
6125.7,0.09643
6119.91,0.09416
6114.12,0.09515
6108.34,0.09390
6102.55,0.09560
6096.76,0.09660
6090.98,0.09434
6085.19,0.09581
6079.41,0.09501
6073.62,0.09769
6067.83,0.09544
6062.05,0.09576
6056.26,0.09485
6050.47,0.09712
6044.69,0.09523
6038.9,0.09676
6033.12,0.09593
6027.33,0.09499
6021.54,0.09446
6015.76,0.09830
6009.97,0.09455
6004.18,0.09384
5998.4,0.09581
5992.61,0.09508
5986.83,0.09190
5981.04,0.09132
5975.25,0.09371
5969.47,0.09282
5963.68,0.09391
5957.89,0.09268
5952.11,0.09229
5946.32,0.09140
5940.54,0.09164
5934.75,0.09031
5928.96,0.09105
5923.18,0.09131
5917.39,0.09018
5911.6,0.08995
5905.82,0.09054
5900.03,0.09004
5894.25,0.09007
5888.46,0.09135
5882.67,0.09276
5876.89,0.09176
5871.1,0.09227
5865.31,0.09091
5859.53,0.09144
5853.74,0.09005
5847.96,0.08970
5842.17,0.09164
5836.38,0.08794
5830.6,0.09055
5824.81,0.09170
5819.02,0.09062
5813.24,0.09117
5807.45,0.08766
5801.67,0.09129
5795.88,0.09162
5790.09,0.09129
5784.31,0.09018
5778.52,0.09123
5772.73,0.08884
5766.95,0.09080
5761.16,0.09066
5755.38,0.08995
5749.59,0.08913
5743.8,0.09164
5738.02,0.09162
5732.23,0.09219
5726.44,0.09451
5720.66,0.09257
5714.87,0.09095
5709.09,0.09124
5703.3,0.09096
5697.51,0.09208
5691.73,0.09255
5685.94,0.09389
5680.15,0.09438
5674.37,0.09572
5668.58,0.09395
5662.8,0.09353
5657.01,0.09390
5651.22,0.09442
5645.44,0.09315
5639.65,0.09542
5633.87,0.09662
5628.08,0.09523
5622.29,0.09570
5616.51,0.09666
5610.72,0.09556
5604.93,0.09390
5599.15,0.09787
5593.36,0.09657
5587.58,0.09421
5581.79,0.09597
5576,0.09441
5570.22,0.09641
5564.43,0.09619
5558.64,0.09745
5552.86,0.09479
5547.07,0.09810
5541.29,0.09799
5535.5,0.09616
5529.71,0.09652
5523.93,0.09747
5518.14,0.09734
5512.35,0.09956
5506.57,0.09669
5500.78,0.09786
5495,0.09669
5489.21,0.09616
5483.42,0.09679
5477.64,0.09656
5471.85,0.09568
5466.06,0.09707
5460.28,0.09824
5454.49,0.09939
5448.71,0.09839
5442.92,0.09641
5437.13,0.09859
5431.35,0.10055
5425.56,0.09853
5419.77,0.09998
5413.99,0.09986
5408.2,0.09947
5402.42,0.09642
5396.63,0.09798
5390.84,0.10047
5385.06,0.09925
5379.27,0.09820
5373.48,0.09863
5367.7,0.10006
5361.91,0.09775
5356.13,0.09767
5350.34,0.09990
5344.55,0.09947
5338.77,0.09887
5332.98,0.09983
5327.19,0.09958
5321.41,0.10091
5315.62,0.09888
5309.84,0.09969
5304.05,0.10038
5298.26,0.10093
5292.48,0.09984
5286.69,0.09891
5280.9,0.09999
5275.12,0.09996
5269.33,0.09936
5263.55,0.09951
5257.76,0.10120
5251.97,0.10015
5246.19,0.09970
5240.4,0.09903
5234.61,0.09963
5228.83,0.09932
5223.04,0.10132
5217.26,0.09987
5211.47,0.10043
5205.68,0.10106
5199.9,0.10050
5194.11,0.10020
5188.32,0.09955
5182.54,0.09935
5176.75,0.09804
5170.97,0.09984
5165.18,0.10049
5159.39,0.09956
5153.61,0.09964
5147.82,0.10006
5142.03,0.10019
5136.25,0.10005
5130.46,0.09944
5124.68,0.10171
5118.89,0.10095
5113.1,0.10008
5107.32,0.10110
5101.53,0.09986
5095.75,0.09931
5089.96,0.09922
5084.17,0.10002
5078.39,0.09966
5072.6,0.09909
5066.81,0.09986
5061.03,0.10021
5055.24,0.09934
5049.46,0.09883
5043.67,0.09921
5037.88,0.10003
5032.1,0.09847
5026.31,0.09886
5020.52,0.09791
5014.74,0.09866
5008.95,0.09807
5003.17,0.09857
4997.38,0.09731
4991.59,0.09772
4985.81,0.09790
4980.02,0.09788
4974.23,0.09539
4968.45,0.09559
4962.66,0.09551
4956.88,0.09647
4951.09,0.09703
4945.3,0.09616
4939.52,0.09521
4933.73,0.09547
4927.94,0.09466
4922.16,0.09296
4916.37,0.09336
4910.59,0.09323
4904.8,0.09155
4899.01,0.09255
4893.23,0.09327
4887.44,0.09219
4881.65,0.09276
4875.87,0.09188
4870.08,0.09306
4864.3,0.09262
4858.51,0.09232
4852.72,0.09248
4846.94,0.09325
4841.15,0.09342
4835.36,0.09433
4829.58,0.09392
4823.79,0.09430
4818.01,0.09383
4812.22,0.09506
4806.43,0.09498
4800.65,0.09572
4794.86,0.09618
4789.07,0.09577
4783.29,0.09671
4777.5,0.09606
4771.72,0.09787
4765.93,0.09680
4760.14,0.09655
4754.36,0.09778
4748.57,0.09710
4742.78,0.09673
4737,0.09649
4731.21,0.09651
4725.43,0.09518
4719.64,0.09571
4713.85,0.09490
4708.07,0.09428
4702.28,0.09344
4696.49,0.09403
4690.71,0.09364
4684.92,0.09281
4679.14,0.09352
4673.35,0.09210
4667.56,0.09270
4661.78,0.09205
4655.99,0.09206
4650.2,0.09290
4644.42,0.09231
4638.63,0.09236
4632.85,0.09230
4627.06,0.09177
4621.27,0.09254
4615.49,0.09371
4609.7,0.09334
4603.92,0.09325
4598.13,0.09406
4592.34,0.09373
4586.56,0.09387
4580.77,0.09355
4574.98,0.09365
4569.2,0.09464
4563.41,0.09501
4557.63,0.09432
4551.84,0.09402
4546.05,0.09490
4540.27,0.09390
4534.48,0.09466
4528.69,0.09504
4522.91,0.09549
4517.12,0.09439
4511.34,0.09437
4505.55,0.09412
4499.76,0.09431
4493.98,0.09419
4488.19,0.09368
4482.4,0.09312
4476.62,0.09280
4470.83,0.09173
4465.05,0.09077
4459.26,0.09056
4453.47,0.08822
4447.69,0.08587
4441.9,0.08472
4436.11,0.08241
4430.33,0.08115
4424.54,0.07897
4418.76,0.07790
4412.97,0.07606
4407.18,0.07532
4401.4,0.07573
4395.61,0.07611
4389.82,0.07548
4384.04,0.07429
4378.25,0.07384
4372.47,0.07444
4366.68,0.07306
4360.89,0.07227
4355.11,0.07213
4349.32,0.07182
4343.53,0.07153
4337.75,0.07125
4331.96,0.07211
4326.18,0.07194
4320.39,0.07267
4314.6,0.07377
4308.82,0.07419
4303.03,0.07472
4297.24,0.07548
4291.46,0.07549
4285.67,0.07605
4279.89,0.07591
4274.1,0.07635
4268.31,0.07593
4262.53,0.07613
4256.74,0.07565
4250.95,0.07655
4245.17,0.07664
4239.38,0.07743
4233.6,0.07689
4227.81,0.07681
4222.02,0.07721
4216.24,0.07820
4210.45,0.07933
4204.66,0.07857
4198.88,0.07899
4193.09,0.07995
4187.31,0.08031
4181.52,0.08031
4175.73,0.07957
4169.95,0.07964
4164.16,0.07955
4158.37,0.07990
4152.59,0.07962
4146.8,0.07998
4141.02,0.08001
4135.23,0.08054
4129.44,0.07967
4123.66,0.07949
4117.87,0.07993
4112.09,0.07924
4106.3,0.07936
4100.51,0.07907
4094.73,0.07811
4088.94,0.07814
4083.15,0.07789
4077.37,0.07632
4071.58,0.07639
4065.8,0.07514
4060.01,0.07494
4054.22,0.07460
4048.44,0.07405
4042.65,0.07385
4036.86,0.07382
4031.08,0.07445
4025.29,0.07465
4019.51,0.07483
4013.72,0.07493
4007.93,0.07500
4002.15,0.07483
3996.36,0.07582
3990.57,0.07601
3984.79,0.07712
3979,0.07801
3973.22,0.07806
3967.43,0.07889
3961.64,0.07986
3955.86,0.08063
3950.07,0.08128
3944.28,0.08223
3938.5,0.08232
3932.71,0.08309
3926.93,0.08379
3921.14,0.08484
3915.35,0.08486
3909.57,0.08506
3903.78,0.08567
3897.99,0.08491
3892.21,0.08608
3886.42,0.08659
3880.64,0.08628
3874.85,0.08760
3869.06,0.08763
3863.28,0.08773
3857.49,0.08812
3851.7,0.08859
3845.92,0.08925
3840.13,0.08913
3834.35,0.08954
3828.56,0.08960
3822.77,0.09019
3816.99,0.09023
3811.2,0.09021
3805.41,0.09125
3799.63,0.09094
3793.84,0.09187
3788.06,0.09218
3782.27,0.09264
3776.48,0.09193
3770.7,0.09412
3764.91,0.09311
3759.12,0.09363
3753.34,0.09464
3747.55,0.09465
3741.77,0.09434
3735.98,0.09549
3730.19,0.09581
3724.41,0.09595
3718.62,0.09604
3712.83,0.09589
3707.05,0.09522
3701.26,0.09496
3695.48,0.09557
3689.69,0.09444
3683.9,0.09322
3678.12,0.09327
3672.33,0.09070
3666.54,0.08968
3660.76,0.08783
3654.97,0.08601
3649.19,0.08547
3643.4,0.08310
3637.61,0.08252
3631.83,0.08181
3626.04,0.08060
3620.25,0.08043
3614.47,0.07954
3608.68,0.07843
3602.9,0.07846
3597.11,0.07752
3591.32,0.07654
3585.54,0.07569
3579.75,0.07483
3573.97,0.07388
3568.18,0.07431
3562.39,0.07284
3556.61,0.07265
3550.82,0.07095
3545.03,0.06975
3539.25,0.06882
3533.46,0.06787
3527.68,0.06651
3521.89,0.06693
3516.1,0.06452
3510.32,0.06451
3504.53,0.06389
3498.74,0.06314
3492.96,0.06245
3487.17,0.06085
3481.39,0.05974
3475.6,0.05857
3469.81,0.05738
3464.03,0.05498
3458.24,0.05225
3452.45,0.05110
3446.67,0.05037
3440.88,0.04954
3435.1,0.04838
3429.31,0.04688
3423.52,0.04375
3417.74,0.04251
3411.95,0.04137
3406.16,0.03910
3400.38,0.03684
3394.59,0.03642
3388.81,0.03430
3383.02,0.03371
3377.23,0.03268
3371.45,0.03175
3365.66,0.03173
3359.87,0.03163
3354.09,0.03093
3348.3,0.03036
3342.52,0.03002
3336.73,0.02964
3330.94,0.03001
3325.16,0.02951
3319.37,0.02913
3313.58,0.02899
3307.8,0.02969
3302.01,0.02933
3296.23,0.02988
3290.44,0.02956
3284.65,0.03018
3278.87,0.03043
3273.08,0.03043
3267.29,0.03026
3261.51,0.03059
3255.72,0.03182
3249.94,0.03223
3244.15,0.03248
3238.36,0.03355
3232.58,0.03423
3226.79,0.03453
3221,0.03481
3215.22,0.03546
3209.43,0.03634
3203.65,0.03633
3197.86,0.03655
3192.07,0.03711
3186.29,0.03709
3180.5,0.03770
3174.71,0.03874
3168.93,0.03938
3163.14,0.04046
3157.36,0.04018
3151.57,0.04009
3145.78,0.04034
3140,0.04005
3134.21,0.04023
3128.42,0.04043
3122.64,0.04057
3116.85,0.04032
3111.07,0.04017
3105.28,0.03996
3099.49,0.03976
3093.71,0.03939
3087.92,0.03870
3082.14,0.03811
3076.35,0.03846
3070.56,0.03783
3064.78,0.03697
3058.99,0.03647
3053.2,0.03744
3047.42,0.03788
3041.63,0.03742
3035.85,0.03618
3030.06,0.03481
3024.27,0.03465
3018.49,0.03643
3012.7,0.03640
3006.91,0.03555
3001.13,0.03348
2995.34,0.03176
2989.56,0.03006
2983.77,0.02870
2977.98,0.02745
2972.2,0.02787
2966.41,0.02710
2960.62,0.02800
2954.84,0.02817
2949.05,0.02741
2943.27,0.02711
2937.48,0.02688
2931.69,0.02681
2925.91,0.02697
2920.12,0.02775
2914.33,0.02779
2908.55,0.02757
2902.76,0.02802
2896.98,0.02792
2891.19,0.02851
2885.4,0.02863
2879.62,0.02827
2873.83,0.02802
2868.04,0.02769
2862.26,0.02878
2856.47,0.02938
2850.69,0.03076
2844.9,0.03254
2839.11,0.03422
2833.33,0.03650
2827.54,0.03787
2821.75,0.03933
2815.97,0.04066
2810.18,0.04177
2804.4,0.04283
2798.61,0.04291
2792.82,0.04365
2787.04,0.04428
2781.25,0.04502
2775.46,0.04626
2769.68,0.04684
2763.89,0.04794
2758.11,0.04825
2752.32,0.04949
2746.53,0.04951
2740.75,0.05030
2734.96,0.05102
2729.17,0.05233
2723.39,0.05319
2717.6,0.05506
2711.82,0.05714
2706.03,0.05792
2700.24,0.05912
2694.46,0.06089
2688.67,0.06234
2682.88,0.06334
2677.1,0.06431
2671.31,0.06521
2665.53,0.06581
2659.74,0.06665
2653.95,0.06735
2648.17,0.06789
2642.38,0.06837
2636.59,0.06859
2630.81,0.06976
2625.02,0.07065
2619.24,0.07179
2613.45,0.07220
2607.66,0.07123
2601.88,0.07098
2596.09,0.07115
2590.3,0.07091
2584.52,0.07111
2578.73,0.07198
2572.95,0.07258
2567.16,0.07416
2561.37,0.07494
2555.59,0.07542
2549.8,0.07630
2544.02,0.07702
2538.23,0.07723
2532.44,0.07750
2526.66,0.07794
2520.87,0.07794
2515.08,0.07832
2509.3,0.07846
2503.51,0.07879
2497.73,0.07930
2491.94,0.07908
2486.15,0.07971
2480.37,0.08006
2474.58,0.08064
2468.79,0.08115
2463.01,0.08184
2457.22,0.08210
2451.44,0.08249
2445.65,0.08230
2439.86,0.08325
2434.08,0.08321
2428.29,0.08351
2422.5,0.08346
2416.72,0.08341
2410.93,0.08333
2405.15,0.08281
2399.36,0.08316
2393.57,0.08255
2387.79,0.08261
2382,0.08200
2376.21,0.08192
2370.43,0.08174
2364.64,0.08176
2358.86,0.08152
2353.07,0.08096
2347.28,0.08045
2341.5,0.08012
2335.71,0.08031
2329.92,0.08073
2324.14,0.08054
2318.35,0.08007
2312.57,0.07910
2306.78,0.07806
2300.99,0.07731
2295.21,0.07629
2289.42,0.07538
2283.63,0.07410
2277.85,0.07305
2272.06,0.07235
2266.28,0.07243
2260.49,0.07319
2254.7,0.07317
2248.92,0.07012
2243.13,0.06432
2237.34,0.06136
2231.56,0.06750
2225.77,0.07514
2219.99,0.07762
2214.2,0.07864
2208.41,0.07906
2202.63,0.07970
2196.84,0.07997
2191.05,0.07996
2185.27,0.07982
2179.48,0.08057
2173.7,0.08090
2167.91,0.08101
2162.12,0.08116
2156.34,0.08160
2150.55,0.08126
2144.76,0.08154
2138.98,0.08181
2133.19,0.08155
2127.41,0.08121
2121.62,0.08115
2115.83,0.08106
2110.05,0.08101
2104.26,0.08071
2098.47,0.08038
2092.69,0.08007
2086.9,0.07977
2081.12,0.07976
2075.33,0.07932
2069.54,0.07862
2063.76,0.07857
2057.97,0.07840
2052.19,0.07785
2046.4,0.07774
2040.61,0.07722
2034.83,0.07619
2029.04,0.07568
2023.25,0.07516
2017.47,0.07464
2011.68,0.07454
2005.9,0.07408
2000.11,0.07389
1994.32,0.07272
1988.54,0.07241
1982.75,0.07209
1976.96,0.07194
1971.18,0.07082
1965.39,0.06954
1959.61,0.06904
1953.82,0.06849
1948.03,0.06893
1942.25,0.06988
1936.46,0.07067
1930.67,0.07129
1924.89,0.07144
1919.1,0.07175
1913.32,0.07094
1907.53,0.07028
1901.74,0.06946
1895.96,0.06865
1890.17,0.06828
1884.38,0.06779
1878.6,0.06821
1872.81,0.06864
1867.03,0.06990
1861.24,0.07047
1855.45,0.07059
1849.67,0.06958
1843.88,0.06849
1838.09,0.06742
1832.31,0.06531
1826.52,0.06299
1820.74,0.06098
1814.95,0.05918
1809.16,0.05745
1803.38,0.05594
1797.59,0.05471
1791.8,0.05300
1786.02,0.05169
1780.23,0.04950
1774.45,0.04747
1768.66,0.04520
1762.87,0.04188
1757.09,0.03736
1751.3,0.03232
1745.51,0.02784
1739.73,0.02632
1733.94,0.02629
1728.16,0.02663
1722.37,0.02729
1716.58,0.02742
1710.8,0.02767
1705.01,0.02781
1699.22,0.02730
1693.44,0.02757
1687.65,0.02789
1681.87,0.02749
1676.08,0.02733
1670.29,0.02695
1664.51,0.02634
1658.72,0.02645
1652.93,0.02655
1647.15,0.02625
1641.36,0.02606
1635.58,0.02774
1629.79,0.02881
1624,0.02886
1618.22,0.02802
1612.43,0.02685
1606.64,0.02616
1600.86,0.02588
1595.07,0.02659
1589.29,0.02754
1583.5,0.02783
1577.71,0.02788
1571.93,0.02676
1566.14,0.02530
1560.35,0.02474
1554.57,0.02451
1548.78,0.02423
1543,0.02505
1537.21,0.02589
1531.42,0.02615
1525.64,0.02718
1519.85,0.02752
1514.07,0.02741
1508.28,0.02832
1502.49,0.02816
1496.71,0.02867
1490.92,0.02909
1485.13,0.02928
1479.35,0.02859
1473.56,0.02816
1467.78,0.02776
1461.99,0.02770
1456.2,0.02711
1450.42,0.02763
1444.63,0.02849
1438.84,0.02930
1433.06,0.02985
1427.27,0.03028
1421.49,0.02948
1415.7,0.02850
1409.91,0.02894
1404.13,0.02930
1398.34,0.02943
1392.55,0.02953
1386.77,0.02839
1380.98,0.02723
1375.2,0.02730
1369.41,0.02845
1363.62,0.02959
1357.84,0.02962
1352.05,0.02929
1346.26,0.02857
1340.48,0.02821
1334.69,0.02838
1328.91,0.02814
1323.12,0.02737
1317.33,0.02664
1311.55,0.02625
1305.76,0.02592
1299.97,0.02609
1294.19,0.02621
1288.4,0.02657
1282.62,0.02630
1276.83,0.02661
1271.04,0.02636
1265.26,0.02637
1259.47,0.02597
1253.68,0.02559
1247.9,0.02606
1242.11,0.02532
1236.33,0.02526
1230.54,0.02509
1224.75,0.02652
1218.97,0.02711
1213.18,0.02780
1207.39,0.02749
1201.61,0.02739
1195.82,0.02790
1190.04,0.02726
1184.25,0.02753
1178.46,0.02701
1172.68,0.02641
1166.89,0.02629
1161.1,0.02509
1155.32,0.02552
1149.53,0.02505
1143.75,0.02487
1137.96,0.02513
1132.17,0.02502
1126.39,0.02547
1120.6,0.02682
1114.81,0.02792
1109.03,0.02822
1103.24,0.02934
1097.46,0.02953
1091.67,0.03021
1085.88,0.03047
1080.1,0.03054
1074.31,0.03080
1068.52,0.03143
1062.74,0.03181
1056.95,0.03239
1051.17,0.03231
1045.38,0.03291
1039.59,0.03290
1033.81,0.03231
1028.02,0.03305
1022.24,0.03277
1016.45,0.03296
1010.66,0.03355
1004.88,0.03451
999.09,0.03543
993.304,0.03592
987.518,0.03740
981.731,0.03742
975.945,0.03735
970.159,0.03713
964.373,0.03747
958.586,0.03812
952.8,0.03841
947.014,0.03810
941.228,0.03667
935.441,0.03567
929.655,0.03594
923.869,0.03564
918.083,0.03679
912.297,0.03741
906.51,0.03807
900.724,0.03914
894.938,0.03982
889.152,0.03914
883.365,0.03789
877.579,0.03600
871.793,0.03573
866.007,0.03638
860.22,0.03708
854.434,0.03689
848.648,0.03778
842.862,0.03759
837.075,0.03748
831.289,0.03645
825.503,0.03525
819.717,0.03459
813.931,0.03454
808.144,0.03513
802.358,0.03655
796.572,0.03650
790.786,0.03779
784.999,0.03651
779.213,0.03597
773.427,0.03356
767.641,0.03119
761.854,0.03186
756.068,0.03214
750.282,0.03447
744.496,0.03699
738.709,0.03764
732.923,0.03956
727.137,0.03818
721.351,0.03705
715.565,0.03441
709.778,0.03050
703.992,0.02967
698.206,0.03177
692.42,0.03454
686.633,0.03539
680.847,0.03614
675.061,0.03395
669.275,0.03650
663.488,0.03603
657.702,0.03583
651.916,0.03722
646.13,0.03850
640.343,0.03625
634.557,0.03606
628.771,0.03672
622.985,0.03779
617.198,0.03828
611.412,0.03656
605.626,0.03680
599.84,0.03597