File: 01_Data/Rebond_Foam_Carpet_Pad/FTIR/IS/Rebond_Foam_Carpet_Pad_IS_S_220913_R5.dpt
7497.03,0.08938
7491.25,0.09437
7485.46,0.08683
7479.67,0.09399
7473.89,0.09126
7468.1,0.09046
7462.32,0.09048
7456.53,0.09887
7450.74,0.08891
7444.96,0.09055
7439.17,0.09250
7433.38,0.09450
7427.6,0.08590
7421.81,0.08993
7416.03,0.09737
7410.24,0.09469
7404.45,0.09800
7398.67,0.08500
7392.88,0.09097
7387.09,0.09475
7381.31,0.09229
7375.52,0.09315
7369.74,0.09076
7363.95,0.10034
7358.16,0.08964
7352.38,0.10000
7346.59,0.09118
7340.8,0.09280
7335.02,0.08938
7329.23,0.09335
7323.45,0.09323
7317.66,0.09041
7311.87,0.09264
7306.09,0.09986
7300.3,0.10093
7294.51,0.09338
7288.73,0.09188
7282.94,0.09092
7277.16,0.09654
7271.37,0.08657
7265.58,0.09125
7259.8,0.09483
7254.01,0.09169
7248.22,0.09461
7242.44,0.09194
7236.65,0.09233
7230.87,0.08956
7225.08,0.09574
7219.29,0.09079
7213.51,0.09152
7207.72,0.08799
7201.93,0.09044
7196.15,0.09984
7190.36,0.10133
7184.58,0.09076
7178.79,0.09669
7173,0.09433
7167.22,0.09886
7161.43,0.09509
7155.65,0.09772
7149.86,0.08962
7144.07,0.09043
7138.29,0.09621
7132.5,0.09899
7126.71,0.09227
7120.93,0.09259
7115.14,0.09440
7109.36,0.09682
7103.57,0.09370
7097.78,0.09201
7092,0.09266
7086.21,0.08969
7080.42,0.09624
7074.64,0.09000
7068.85,0.09729
7063.07,0.09806
7057.28,0.09596
7051.49,0.09291
7045.71,0.08929
7039.92,0.09982
7034.13,0.09529
7028.35,0.09215
7022.56,0.09117
7016.78,0.09008
7010.99,0.09347
7005.2,0.08928
6999.42,0.09173
6993.63,0.08678
6987.84,0.09175
6982.06,0.08760
6976.27,0.08700
6970.49,0.09303
6964.7,0.09683
6958.91,0.09869
6953.13,0.09672
6947.34,0.09464
6941.55,0.09756
6935.77,0.09457
6929.98,0.09689
6924.2,0.09650
6918.41,0.09440
6912.62,0.09214
6906.84,0.09273
6901.05,0.09617
6895.26,0.09555
6889.48,0.09420
6883.69,0.09339
6877.91,0.09308
6872.12,0.09850
6866.33,0.09313
6860.55,0.08887
6854.76,0.09455
6848.97,0.09630
6843.19,0.09170
6837.4,0.10014
6831.62,0.09112
6825.83,0.09173
6820.04,0.09187
6814.26,0.09169
6808.47,0.09509
6802.68,0.09459
6796.9,0.09543
6791.11,0.09665
6785.33,0.09600
6779.54,0.09195
6773.75,0.09836
6767.97,0.09177
6762.18,0.09726
6756.39,0.09338
6750.61,0.09448
6744.82,0.09267
6739.04,0.09377
6733.25,0.09522
6727.46,0.09007
6721.68,0.09218
6715.89,0.09296
6710.1,0.09370
6704.32,0.09829
6698.53,0.09845
6692.75,0.09565
6686.96,0.09755
6681.17,0.09288
6675.39,0.09107
6669.6,0.09588
6663.82,0.09071
6658.03,0.09257
6652.24,0.09577
6646.46,0.09189
6640.67,0.09388
6634.88,0.09353
6629.1,0.09790
6623.31,0.09780
6617.53,0.09498
6611.74,0.09246
6605.95,0.09392
6600.17,0.09394
6594.38,0.09356
6588.59,0.09514
6582.81,0.09720
6577.02,0.09208
6571.24,0.09393
6565.45,0.09552
6559.66,0.09452
6553.88,0.09429
6548.09,0.09228
6542.3,0.09271
6536.52,0.09407
6530.73,0.09342
6524.95,0.09301
6519.16,0.09754
6513.37,0.09680
6507.59,0.09234
6501.8,0.09445
6496.01,0.09462
6490.23,0.09242
6484.44,0.09474
6478.66,0.09528
6472.87,0.09746
6467.08,0.09600
6461.3,0.09420
6455.51,0.09429
6449.72,0.09882
6443.94,0.09450
6438.15,0.09633
6432.37,0.09412
6426.58,0.09236
6420.79,0.09194
6415.01,0.09315
6409.22,0.09745
6403.43,0.09731
6397.65,0.09448
6391.86,0.09617
6386.08,0.09968
6380.29,0.09686
6374.5,0.09434
6368.72,0.09604
6362.93,0.09143
6357.14,0.09547
6351.36,0.09453
6345.57,0.09910
6339.79,0.09535
6334,0.09676
6328.21,0.09369
6322.43,0.09352
6316.64,0.09386
6310.85,0.09461
6305.07,0.09715
6299.28,0.09745
6293.5,0.09417
6287.71,0.09720
6281.92,0.09936
6276.14,0.09613
6270.35,0.09451
6264.56,0.09798
6258.78,0.09692
6252.99,0.09748
6247.21,0.09667
6241.42,0.09894
6235.63,0.09695
6229.85,0.10117
6224.06,0.09449
6218.27,0.09540
6212.49,0.09474
6206.7,0.09453
6200.92,0.09880
6195.13,0.09725
6189.34,0.09886
6183.56,0.09807
6177.77,0.09481
6171.98,0.09366
6166.2,0.09526
6160.41,0.09466
6154.63,0.09748
6148.84,0.09758
6143.05,0.09772
6137.27,0.09585
6131.48,0.09729
6125.7,0.09606
6119.91,0.09243
6114.12,0.09701
6108.34,0.09416
6102.55,0.09629
6096.76,0.09280
6090.98,0.09501
6085.19,0.09767
6079.41,0.09327
6073.62,0.09516
6067.83,0.09982
6062.05,0.09621
6056.26,0.09679
6050.47,0.09566
6044.69,0.09682
6038.9,0.09638
6033.12,0.09512
6027.33,0.09581
6021.54,0.09372
6015.76,0.09292
6009.97,0.09299
6004.18,0.09539
5998.4,0.09400
5992.61,0.09345
5986.83,0.09340
5981.04,0.09319
5975.25,0.09255
5969.47,0.09272
5963.68,0.09213
5957.89,0.09211
5952.11,0.09471
5946.32,0.09112
5940.54,0.09446
5934.75,0.09285
5928.96,0.09161
5923.18,0.09232
5917.39,0.09313
5911.6,0.09139
5905.82,0.09223
5900.03,0.09095
5894.25,0.09061
5888.46,0.09359
5882.67,0.09228
5876.89,0.08950
5871.1,0.09039
5865.31,0.09136
5859.53,0.09238
5853.74,0.08863
5847.96,0.08982
5842.17,0.09292
5836.38,0.09039
5830.6,0.09114
5824.81,0.08979
5819.02,0.08882
5813.24,0.08930
5807.45,0.08884
5801.67,0.09127
5795.88,0.09294
5790.09,0.09143
5784.31,0.09265
5778.52,0.09075
5772.73,0.09002
5766.95,0.08998
5761.16,0.08918
5755.38,0.09071
5749.59,0.08990
5743.8,0.09218
5738.02,0.09029
5732.23,0.09073
5726.44,0.09327
5720.66,0.09180
5714.87,0.09197
5709.09,0.09242
5703.3,0.09418
5697.51,0.09287
5691.73,0.09366
5685.94,0.09426
5680.15,0.09348
5674.37,0.09320
5668.58,0.09536
5662.8,0.09378
5657.01,0.09633
5651.22,0.09434
5645.44,0.09561
5639.65,0.09535
5633.87,0.09472
5628.08,0.09380
5622.29,0.09618
5616.51,0.09456
5610.72,0.09549
5604.93,0.09734
5599.15,0.09556
5593.36,0.09693
5587.58,0.09864
5581.79,0.09698
5576,0.09693
5570.22,0.09723
5564.43,0.09682
5558.64,0.09752
5552.86,0.09681
5547.07,0.09606
5541.29,0.09464
5535.5,0.09727
5529.71,0.09739
5523.93,0.09679
5518.14,0.09683
5512.35,0.09834
5506.57,0.09844
5500.78,0.09720
5495,0.09723
5489.21,0.09727
5483.42,0.09602
5477.64,0.09901
5471.85,0.09657
5466.06,0.09714
5460.28,0.09813
5454.49,0.09803
5448.71,0.09851
5442.92,0.09875
5437.13,0.09845
5431.35,0.09799
5425.56,0.09863
5419.77,0.09808
5413.99,0.09803
5408.2,0.09857
5402.42,0.09829
5396.63,0.09960
5390.84,0.09860
5385.06,0.10094
5379.27,0.10032
5373.48,0.10038
5367.7,0.09990
5361.91,0.09934
5356.13,0.09974
5350.34,0.10038
5344.55,0.10039
5338.77,0.09907
5332.98,0.09946
5327.19,0.10050
5321.41,0.10100
5315.62,0.10172
5309.84,0.10048
5304.05,0.10036
5298.26,0.10059
5292.48,0.10269
5286.69,0.10144
5280.9,0.10027
5275.12,0.09978
5269.33,0.09981
5263.55,0.09960
5257.76,0.10034
5251.97,0.09993
5246.19,0.10010
5240.4,0.10129
5234.61,0.10160
5228.83,0.10024
5223.04,0.09927
5217.26,0.10151
5211.47,0.10082
5205.68,0.10105
5199.9,0.09970
5194.11,0.10014
5188.32,0.10036
5182.54,0.09897
5176.75,0.10064
5170.97,0.10056
5165.18,0.10095
5159.39,0.09955
5153.61,0.10034
5147.82,0.09983
5142.03,0.09965
5136.25,0.09955
5130.46,0.09884
5124.68,0.10181
5118.89,0.10015
5113.1,0.10066
5107.32,0.10053
5101.53,0.10228
5095.75,0.10032
5089.96,0.10050
5084.17,0.10117
5078.39,0.09988
5072.6,0.09893
5066.81,0.09962
5061.03,0.09930
5055.24,0.10005
5049.46,0.10056
5043.67,0.10051
5037.88,0.10034
5032.1,0.10038
5026.31,0.09922
5020.52,0.10017
5014.74,0.09892
5008.95,0.09941
5003.17,0.09785
4997.38,0.09933
4991.59,0.09776
4985.81,0.09792
4980.02,0.09766
4974.23,0.09675
4968.45,0.09701
4962.66,0.09604
4956.88,0.09588
4951.09,0.09524
4945.3,0.09601
4939.52,0.09486
4933.73,0.09441
4927.94,0.09318
4922.16,0.09329
4916.37,0.09370
4910.59,0.09411
4904.8,0.09233
4899.01,0.09246
4893.23,0.09306
4887.44,0.09268
4881.65,0.09320
4875.87,0.09319
4870.08,0.09235
4864.3,0.09311
4858.51,0.09220
4852.72,0.09301
4846.94,0.09293
4841.15,0.09380
4835.36,0.09309
4829.58,0.09366
4823.79,0.09415
4818.01,0.09504
4812.22,0.09471
4806.43,0.09588
4800.65,0.09515
4794.86,0.09548
4789.07,0.09680
4783.29,0.09626
4777.5,0.09750
4771.72,0.09715
4765.93,0.09701
4760.14,0.09819
4754.36,0.09601
4748.57,0.09574
4742.78,0.09669
4737,0.09746
4731.21,0.09726
4725.43,0.09539
4719.64,0.09565
4713.85,0.09545
4708.07,0.09391
4702.28,0.09391
4696.49,0.09372
4690.71,0.09413
4684.92,0.09378
4679.14,0.09321
4673.35,0.09280
4667.56,0.09242
4661.78,0.09351
4655.99,0.09339
4650.2,0.09360
4644.42,0.09357
4638.63,0.09319
4632.85,0.09274
4627.06,0.09211
4621.27,0.09252
4615.49,0.09337
4609.7,0.09274
4603.92,0.09262
4598.13,0.09327
4592.34,0.09390
4586.56,0.09488
4580.77,0.09454
4574.98,0.09379
4569.2,0.09487
4563.41,0.09435
4557.63,0.09573
4551.84,0.09506
4546.05,0.09599
4540.27,0.09576
4534.48,0.09565
4528.69,0.09508
4522.91,0.09510
4517.12,0.09509
4511.34,0.09497
4505.55,0.09481
4499.76,0.09496
4493.98,0.09412
4488.19,0.09364
4482.4,0.09225
4476.62,0.09259
4470.83,0.09151
4465.05,0.09113
4459.26,0.08939
4453.47,0.08873
4447.69,0.08690
4441.9,0.08510
4436.11,0.08252
4430.33,0.08039
4424.54,0.07934
4418.76,0.07721
4412.97,0.07690
4407.18,0.07707
4401.4,0.07586
4395.61,0.07600
4389.82,0.07596
4384.04,0.07472
4378.25,0.07493
4372.47,0.07383
4366.68,0.07313
4360.89,0.07333
4355.11,0.07204
4349.32,0.07141
4343.53,0.07217
4337.75,0.07264
4331.96,0.07154
4326.18,0.07253
4320.39,0.07287
4314.6,0.07329
4308.82,0.07488
4303.03,0.07549
4297.24,0.07645
4291.46,0.07633
4285.67,0.07543
4279.89,0.07630
4274.1,0.07592
4268.31,0.07551
4262.53,0.07582
4256.74,0.07618
4250.95,0.07656
4245.17,0.07723
4239.38,0.07683
4233.6,0.07722
4227.81,0.07783
4222.02,0.07788
4216.24,0.07918
4210.45,0.07901
4204.66,0.07965
4198.88,0.07977
4193.09,0.08007
4187.31,0.08047
4181.52,0.08085
4175.73,0.08048
4169.95,0.08064
4164.16,0.08032
4158.37,0.08048
4152.59,0.08079
4146.8,0.08004
4141.02,0.08044
4135.23,0.08018
4129.44,0.08053
4123.66,0.08030
4117.87,0.08034
4112.09,0.07943
4106.3,0.08012
4100.51,0.07926
4094.73,0.07872
4088.94,0.07839
4083.15,0.07725
4077.37,0.07806
4071.58,0.07641
4065.8,0.07531
4060.01,0.07448
4054.22,0.07488
4048.44,0.07479
4042.65,0.07447
4036.86,0.07397
4031.08,0.07452
4025.29,0.07485
4019.51,0.07509
4013.72,0.07531
4007.93,0.07507
4002.15,0.07642
3996.36,0.07594
3990.57,0.07563
3984.79,0.07724
3979,0.07790
3973.22,0.07828
3967.43,0.07935
3961.64,0.08041
3955.86,0.08122
3950.07,0.08185
3944.28,0.08246
3938.5,0.08258
3932.71,0.08306
3926.93,0.08369
3921.14,0.08483
3915.35,0.08561
3909.57,0.08564
3903.78,0.08595
3897.99,0.08575
3892.21,0.08657
3886.42,0.08716
3880.64,0.08741
3874.85,0.08742
3869.06,0.08823
3863.28,0.08821
3857.49,0.08878
3851.7,0.08915
3845.92,0.08987
3840.13,0.08992
3834.35,0.08973
3828.56,0.09030
3822.77,0.09086
3816.99,0.09099
3811.2,0.09144
3805.41,0.09181
3799.63,0.09106
3793.84,0.09223
3788.06,0.09241
3782.27,0.09266
3776.48,0.09297
3770.7,0.09318
3764.91,0.09399
3759.12,0.09426
3753.34,0.09470
3747.55,0.09548
3741.77,0.09499
3735.98,0.09628
3730.19,0.09544
3724.41,0.09641
3718.62,0.09580
3712.83,0.09674
3707.05,0.09589
3701.26,0.09619
3695.48,0.09601
3689.69,0.09547
3683.9,0.09412
3678.12,0.09406
3672.33,0.09227
3666.54,0.09133
3660.76,0.08998
3654.97,0.08885
3649.19,0.08743
3643.4,0.08543
3637.61,0.08556
3631.83,0.08498
3626.04,0.08356
3620.25,0.08264
3614.47,0.08193
3608.68,0.08220
3602.9,0.08100
3597.11,0.08027
3591.32,0.07950
3585.54,0.07906
3579.75,0.07839
3573.97,0.07667
3568.18,0.07605
3562.39,0.07505
3556.61,0.07439
3550.82,0.07342
3545.03,0.07208
3539.25,0.07146
3533.46,0.07033
3527.68,0.06996
3521.89,0.06883
3516.1,0.06767
3510.32,0.06645
3504.53,0.06598
3498.74,0.06555
3492.96,0.06480
3487.17,0.06348
3481.39,0.06152
3475.6,0.05959
3469.81,0.05740
3464.03,0.05546
3458.24,0.05400
3452.45,0.05160
3446.67,0.05117
3440.88,0.05048
3435.1,0.04869
3429.31,0.04683
3423.52,0.04535
3417.74,0.04274
3411.95,0.04081
3406.16,0.03944
3400.38,0.03719
3394.59,0.03593
3388.81,0.03483
3383.02,0.03318
3377.23,0.03242
3371.45,0.03191
3365.66,0.03187
3359.87,0.03185
3354.09,0.03084
3348.3,0.03037
3342.52,0.03004
3336.73,0.02963
3330.94,0.03028
3325.16,0.03038
3319.37,0.02947
3313.58,0.02945
3307.8,0.02992
3302.01,0.02947
3296.23,0.02821
3290.44,0.02936
3284.65,0.02950
3278.87,0.02928
3273.08,0.03045
3267.29,0.03055
3261.51,0.03056
3255.72,0.03147
3249.94,0.03234
3244.15,0.03251
3238.36,0.03401
3232.58,0.03429
3226.79,0.03442
3221,0.03556
3215.22,0.03532
3209.43,0.03595
3203.65,0.03657
3197.86,0.03683
3192.07,0.03672
3186.29,0.03747
3180.5,0.03881
3174.71,0.03981
3168.93,0.03982
3163.14,0.03985
3157.36,0.04050
3151.57,0.04106
3145.78,0.04069
3140,0.04086
3134.21,0.04031
3128.42,0.03973
3122.64,0.04044
3116.85,0.04063
3111.07,0.04098
3105.28,0.04027
3099.49,0.03974
3093.71,0.04019
3087.92,0.03838
3082.14,0.03837
3076.35,0.03842
3070.56,0.03806
3064.78,0.03698
3058.99,0.03685
3053.2,0.03759
3047.42,0.03773
3041.63,0.03702
3035.85,0.03568
3030.06,0.03469
3024.27,0.03523
3018.49,0.03612
3012.7,0.03663
3006.91,0.03557
3001.13,0.03365
2995.34,0.03201
2989.56,0.02979
2983.77,0.02882
2977.98,0.02760
2972.2,0.02698
2966.41,0.02764
2960.62,0.02809
2954.84,0.02835
2949.05,0.02832
2943.27,0.02728
2937.48,0.02684
2931.69,0.02649
2925.91,0.02734
2920.12,0.02769
2914.33,0.02748
2908.55,0.02754
2902.76,0.02783
2896.98,0.02814
2891.19,0.02828
2885.4,0.02856
2879.62,0.02872
2873.83,0.02825
2868.04,0.02816
2862.26,0.02846
2856.47,0.02981
2850.69,0.03097
2844.9,0.03235
2839.11,0.03417
2833.33,0.03595
2827.54,0.03793
2821.75,0.03912
2815.97,0.04122
2810.18,0.04224
2804.4,0.04265
2798.61,0.04306
2792.82,0.04384
2787.04,0.04450
2781.25,0.04534
2775.46,0.04637
2769.68,0.04729
2763.89,0.04793
2758.11,0.04852
2752.32,0.04954
2746.53,0.04986
2740.75,0.05049
2734.96,0.05092
2729.17,0.05212
2723.39,0.05361
2717.6,0.05504
2711.82,0.05664
2706.03,0.05777
2700.24,0.05904
2694.46,0.06088
2688.67,0.06227
2682.88,0.06405
2677.1,0.06428
2671.31,0.06492
2665.53,0.06620
2659.74,0.06675
2653.95,0.06711
2648.17,0.06763
2642.38,0.06833
2636.59,0.06882
2630.81,0.06995
2625.02,0.07080
2619.24,0.07163
2613.45,0.07210
2607.66,0.07188
2601.88,0.07139
2596.09,0.07131
2590.3,0.07136
2584.52,0.07130
2578.73,0.07202
2572.95,0.07335
2567.16,0.07453
2561.37,0.07570
2555.59,0.07590
2549.8,0.07672
2544.02,0.07715
2538.23,0.07753
2532.44,0.07764
2526.66,0.07819
2520.87,0.07836
2515.08,0.07917
2509.3,0.07890
2503.51,0.07885
2497.73,0.07968
2491.94,0.07934
2486.15,0.08020
2480.37,0.08052
2474.58,0.08115
2468.79,0.08137
2463.01,0.08173
2457.22,0.08244
2451.44,0.08247
2445.65,0.08275
2439.86,0.08306
2434.08,0.08366
2428.29,0.08377
2422.5,0.08394
2416.72,0.08400
2410.93,0.08410
2405.15,0.08385
2399.36,0.08313
2393.57,0.08324
2387.79,0.08337
2382,0.08275
2376.21,0.08271
2370.43,0.08233
2364.64,0.08155
2358.86,0.08183
2353.07,0.08170
2347.28,0.08095
2341.5,0.08072
2335.71,0.08046
2329.92,0.08079
2324.14,0.08084
2318.35,0.07993
2312.57,0.07953
2306.78,0.07863
2300.99,0.07765
2295.21,0.07664
2289.42,0.07546
2283.63,0.07439
2277.85,0.07292
2272.06,0.07270
2266.28,0.07292
2260.49,0.07306
2254.7,0.07301
2248.92,0.07077
2243.13,0.06488
2237.34,0.06186
2231.56,0.06795
2225.77,0.07596
2219.99,0.07803
2214.2,0.07895
2208.41,0.07945
2202.63,0.07976
2196.84,0.08027
2191.05,0.08052
2185.27,0.08069
2179.48,0.08050
2173.7,0.08130
2167.91,0.08173
2162.12,0.08152
2156.34,0.08160
2150.55,0.08197
2144.76,0.08229
2138.98,0.08210
2133.19,0.08213
2127.41,0.08173
2121.62,0.08165
2115.83,0.08170
2110.05,0.08138
2104.26,0.08097
2098.47,0.08103
2092.69,0.08071
2086.9,0.08045
2081.12,0.08009
2075.33,0.07961
2069.54,0.07934
2063.76,0.07903
2057.97,0.07898
2052.19,0.07819
2046.4,0.07817
2040.61,0.07766
2034.83,0.07693
2029.04,0.07602
2023.25,0.07523
2017.47,0.07517
2011.68,0.07433
2005.9,0.07414
2000.11,0.07383
1994.32,0.07348
1988.54,0.07278
1982.75,0.07224
1976.96,0.07199
1971.18,0.07076
1965.39,0.07008
1959.61,0.06899
1953.82,0.06871
1948.03,0.06923
1942.25,0.07001
1936.46,0.07080
1930.67,0.07157
1924.89,0.07191
1919.1,0.07167
1913.32,0.07111
1907.53,0.07023
1901.74,0.06948
1895.96,0.06880
1890.17,0.06878
1884.38,0.06815
1878.6,0.06806
1872.81,0.06941
1867.03,0.07021
1861.24,0.07070
1855.45,0.07022
1849.67,0.07048
1843.88,0.06914
1838.09,0.06766
1832.31,0.06559
1826.52,0.06350
1820.74,0.06111
1814.95,0.05933
1809.16,0.05744
1803.38,0.05605
1797.59,0.05510
1791.8,0.05355
1786.02,0.05229
1780.23,0.04966
1774.45,0.04778
1768.66,0.04517
1762.87,0.04196
1757.09,0.03782
1751.3,0.03254
1745.51,0.02780
1739.73,0.02610
1733.94,0.02653
1728.16,0.02676
1722.37,0.02741
1716.58,0.02771
1710.8,0.02734
1705.01,0.02776
1699.22,0.02797
1693.44,0.02739
1687.65,0.02809
1681.87,0.02770
1676.08,0.02729
1670.29,0.02724
1664.51,0.02737
1658.72,0.02651
1652.93,0.02677
1647.15,0.02608
1641.36,0.02668
1635.58,0.02794
1629.79,0.02872
1624,0.02852
1618.22,0.02797
1612.43,0.02679
1606.64,0.02608
1600.86,0.02634
1595.07,0.02698
1589.29,0.02729
1583.5,0.02774
1577.71,0.02774
1571.93,0.02677
1566.14,0.02551
1560.35,0.02494
1554.57,0.02457
1548.78,0.02463
1543,0.02529
1537.21,0.02595
1531.42,0.02621
1525.64,0.02691
1519.85,0.02755
1514.07,0.02749
1508.28,0.02863
1502.49,0.02837
1496.71,0.02878
1490.92,0.02920
1485.13,0.02924
1479.35,0.02876
1473.56,0.02824
1467.78,0.02822
1461.99,0.02768
1456.2,0.02720
1450.42,0.02792
1444.63,0.02830
1438.84,0.02939
1433.06,0.03025
1427.27,0.03049
1421.49,0.02949
1415.7,0.02847
1409.91,0.02857
1404.13,0.02890
1398.34,0.02950
1392.55,0.02899
1386.77,0.02823
1380.98,0.02773
1375.2,0.02742
1369.41,0.02879
1363.62,0.02968
1357.84,0.02949
1352.05,0.02863
1346.26,0.02853
1340.48,0.02844
1334.69,0.02809
1328.91,0.02833
1323.12,0.02765
1317.33,0.02643
1311.55,0.02618
1305.76,0.02637
1299.97,0.02609
1294.19,0.02627
1288.4,0.02647
1282.62,0.02669
1276.83,0.02647
1271.04,0.02596
1265.26,0.02609
1259.47,0.02631
1253.68,0.02633
1247.9,0.02599
1242.11,0.02558
1236.33,0.02560
1230.54,0.02552
1224.75,0.02583
1218.97,0.02682
1213.18,0.02736
1207.39,0.02780
1201.61,0.02789
1195.82,0.02761
1190.04,0.02768
1184.25,0.02679
1178.46,0.02651
1172.68,0.02656
1166.89,0.02604
1161.1,0.02588
1155.32,0.02578
1149.53,0.02463
1143.75,0.02509
1137.96,0.02506
1132.17,0.02531
1126.39,0.02577
1120.6,0.02677
1114.81,0.02743
1109.03,0.02854
1103.24,0.02892
1097.46,0.02946
1091.67,0.02988
1085.88,0.03012
1080.1,0.03041
1074.31,0.03109
1068.52,0.03144
1062.74,0.03175
1056.95,0.03191
1051.17,0.03251
1045.38,0.03208
1039.59,0.03273
1033.81,0.03274
1028.02,0.03298
1022.24,0.03300
1016.45,0.03328
1010.66,0.03385
1004.88,0.03436
999.09,0.03512
993.304,0.03655
987.518,0.03686
981.731,0.03818
975.945,0.03735
970.159,0.03736
964.373,0.03704
958.586,0.03844
952.8,0.03836
947.014,0.03801
941.228,0.03641
935.441,0.03614
929.655,0.03560
923.869,0.03542
918.083,0.03687
912.297,0.03697
906.51,0.03777
900.724,0.03917
894.938,0.04012
889.152,0.03871
883.365,0.03742
877.579,0.03630
871.793,0.03553
866.007,0.03628
860.22,0.03693
854.434,0.03731
848.648,0.03803
842.862,0.03729
837.075,0.03695
831.289,0.03670
825.503,0.03495
819.717,0.03397
813.931,0.03390
808.144,0.03507
802.358,0.03644
796.572,0.03714
790.786,0.03824
784.999,0.03691
779.213,0.03494
773.427,0.03378
767.641,0.03267
761.854,0.03158
756.068,0.03277
750.282,0.03438
744.496,0.03653
738.709,0.03731
732.923,0.03855
727.137,0.03877
721.351,0.03812
715.565,0.03410
709.778,0.02985
703.992,0.03076
698.206,0.03286
692.42,0.03636
686.633,0.03577
680.847,0.03541
675.061,0.03484
669.275,0.03555
663.488,0.03603
657.702,0.03688
651.916,0.03691
646.13,0.03802
640.343,0.03625
634.557,0.03621
628.771,0.03636
622.985,0.03699
617.198,0.03832
611.412,0.03797
605.626,0.03814
599.84,0.03620