File: 01_Data/Rebond_Foam_Carpet_Pad/FTIR/IS/Rebond_Foam_Carpet_Pad_IS_T_220913_R4.dpt
7497.03,0.02826
7491.25,0.02636
7485.46,0.02176
7479.67,0.02013
7473.89,0.01868
7468.1,0.01075
7462.32,0.02528
7456.53,0.02258
7450.74,0.03152
7444.96,0.02594
7439.17,0.02303
7433.38,0.03318
7427.6,0.02385
7421.81,0.01701
7416.03,0.02472
7410.24,0.02149
7404.45,0.02551
7398.67,0.01629
7392.88,0.02256
7387.09,0.02509
7381.31,0.03352
7375.52,0.02149
7369.74,0.02426
7363.95,0.01979
7358.16,0.02918
7352.38,0.02954
7346.59,0.02458
7340.8,0.02677
7335.02,0.02204
7329.23,0.02321
7323.45,0.03173
7317.66,0.02927
7311.87,0.02953
7306.09,0.02188
7300.3,0.01845
7294.51,0.03099
7288.73,0.02158
7282.94,0.02167
7277.16,0.03001
7271.37,0.01968
7265.58,0.01927
7259.8,0.03333
7254.01,0.02235
7248.22,0.02459
7242.44,0.03260
7236.65,0.02760
7230.87,0.02098
7225.08,0.02298
7219.29,0.03009
7213.51,0.02284
7207.72,0.02352
7201.93,0.01691
7196.15,0.01022
7190.36,0.01937
7184.58,0.02239
7178.79,0.02218
7173,0.02471
7167.22,0.02600
7161.43,0.03062
7155.65,0.02680
7149.86,0.02665
7144.07,0.01987
7138.29,0.02014
7132.5,0.01976
7126.71,0.02517
7120.93,0.02652
7115.14,0.02565
7109.36,0.01620
7103.57,0.02732
7097.78,0.02663
7092,0.02731
7086.21,0.02950
7080.42,0.02186
7074.64,0.02642
7068.85,0.02257
7063.07,0.02256
7057.28,0.02008
7051.49,0.01687
7045.71,0.02559
7039.92,0.02133
7034.13,0.02700
7028.35,0.02027
7022.56,0.02408
7016.78,0.02559
7010.99,0.02903
7005.2,0.02389
6999.42,0.03010
6993.63,0.01663
6987.84,0.02203
6982.06,0.02090
6976.27,0.02436
6970.49,0.02777
6964.7,0.02025
6958.91,0.01712
6953.13,0.02751
6947.34,0.02878
6941.55,0.02475
6935.77,0.01921
6929.98,0.02326
6924.2,0.02845
6918.41,0.02666
6912.62,0.02320
6906.84,0.02173
6901.05,0.02443
6895.26,0.01957
6889.48,0.02235
6883.69,0.02628
6877.91,0.02329
6872.12,0.02133
6866.33,0.02390
6860.55,0.02164
6854.76,0.02406
6848.97,0.02364
6843.19,0.02519
6837.4,0.02382
6831.62,0.02735
6825.83,0.02288
6820.04,0.02620
6814.26,0.02107
6808.47,0.02603
6802.68,0.02500
6796.9,0.02195
6791.11,0.02564
6785.33,0.02682
6779.54,0.02780
6773.75,0.02756
6767.97,0.02718
6762.18,0.02498
6756.39,0.02276
6750.61,0.02842
6744.82,0.02672
6739.04,0.02207
6733.25,0.02803
6727.46,0.02415
6721.68,0.02324
6715.89,0.02476
6710.1,0.01941
6704.32,0.02133
6698.53,0.02031
6692.75,0.02331
6686.96,0.02712
6681.17,0.02101
6675.39,0.02200
6669.6,0.02157
6663.82,0.02156
6658.03,0.02613
6652.24,0.02386
6646.46,0.02140
6640.67,0.02394
6634.88,0.02429
6629.1,0.02178
6623.31,0.02002
6617.53,0.02084
6611.74,0.01930
6605.95,0.02063
6600.17,0.02029
6594.38,0.01843
6588.59,0.02410
6582.81,0.02604
6577.02,0.02219
6571.24,0.02329
6565.45,0.02455
6559.66,0.02225
6553.88,0.01937
6548.09,0.02324
6542.3,0.02123
6536.52,0.02197
6530.73,0.02262
6524.95,0.02595
6519.16,0.02822
6513.37,0.02425
6507.59,0.02221
6501.8,0.02329
6496.01,0.02630
6490.23,0.01939
6484.44,0.01939
6478.66,0.02289
6472.87,0.02348
6467.08,0.02237
6461.3,0.02274
6455.51,0.02452
6449.72,0.02328
6443.94,0.01944
6438.15,0.02453
6432.37,0.02645
6426.58,0.01919
6420.79,0.02368
6415.01,0.02621
6409.22,0.02408
6403.43,0.02076
6397.65,0.02355
6391.86,0.02153
6386.08,0.02153
6380.29,0.02176
6374.5,0.02565
6368.72,0.02606
6362.93,0.02430
6357.14,0.02029
6351.36,0.02192
6345.57,0.02329
6339.79,0.02161
6334,0.01863
6328.21,0.02107
6322.43,0.02362
6316.64,0.02098
6310.85,0.02272
6305.07,0.02442
6299.28,0.02167
6293.5,0.02048
6287.71,0.02526
6281.92,0.01991
6276.14,0.02380
6270.35,0.02419
6264.56,0.02205
6258.78,0.01999
6252.99,0.02464
6247.21,0.02356
6241.42,0.02165
6235.63,0.01733
6229.85,0.02446
6224.06,0.02335
6218.27,0.01993
6212.49,0.01787
6206.7,0.01931
6200.92,0.02132
6195.13,0.02168
6189.34,0.02372
6183.56,0.02429
6177.77,0.02234
6171.98,0.02451
6166.2,0.02545
6160.41,0.02324
6154.63,0.02269
6148.84,0.02216
6143.05,0.02425
6137.27,0.02102
6131.48,0.02126
6125.7,0.02183
6119.91,0.02450
6114.12,0.02204
6108.34,0.02389
6102.55,0.02504
6096.76,0.02354
6090.98,0.02350
6085.19,0.01959
6079.41,0.02174
6073.62,0.01988
6067.83,0.02384
6062.05,0.02214
6056.26,0.02226
6050.47,0.02216
6044.69,0.02301
6038.9,0.02104
6033.12,0.01992
6027.33,0.02141
6021.54,0.02222
6015.76,0.02180
6009.97,0.02204
6004.18,0.02318
5998.4,0.02167
5992.61,0.02151
5986.83,0.02049
5981.04,0.01981
5975.25,0.02215
5969.47,0.02150
5963.68,0.01925
5957.89,0.02447
5952.11,0.02141
5946.32,0.02069
5940.54,0.02358
5934.75,0.02272
5928.96,0.02110
5923.18,0.02263
5917.39,0.02254
5911.6,0.02266
5905.82,0.02383
5900.03,0.02265
5894.25,0.02027
5888.46,0.02026
5882.67,0.01939
5876.89,0.02304
5871.1,0.02408
5865.31,0.02453
5859.53,0.02230
5853.74,0.02008
5847.96,0.01984
5842.17,0.02097
5836.38,0.02197
5830.6,0.01983
5824.81,0.02223
5819.02,0.01974
5813.24,0.01957
5807.45,0.02311
5801.67,0.02232
5795.88,0.02232
5790.09,0.02220
5784.31,0.02030
5778.52,0.02216
5772.73,0.02121
5766.95,0.02139
5761.16,0.02365
5755.38,0.02489
5749.59,0.02416
5743.8,0.02038
5738.02,0.02005
5732.23,0.02226
5726.44,0.02196
5720.66,0.02049
5714.87,0.02212
5709.09,0.02143
5703.3,0.02204
5697.51,0.02265
5691.73,0.02216
5685.94,0.02297
5680.15,0.02363
5674.37,0.02140
5668.58,0.02310
5662.8,0.02224
5657.01,0.02359
5651.22,0.02535
5645.44,0.01989
5639.65,0.02211
5633.87,0.02408
5628.08,0.02258
5622.29,0.02178
5616.51,0.02214
5610.72,0.02256
5604.93,0.02288
5599.15,0.02344
5593.36,0.02368
5587.58,0.02427
5581.79,0.01971
5576,0.02216
5570.22,0.02277
5564.43,0.02084
5558.64,0.02076
5552.86,0.02448
5547.07,0.02046
5541.29,0.02284
5535.5,0.02222
5529.71,0.02309
5523.93,0.02113
5518.14,0.02153
5512.35,0.02358
5506.57,0.02303
5500.78,0.02038
5495,0.02207
5489.21,0.02023
5483.42,0.02258
5477.64,0.02136
5471.85,0.02285
5466.06,0.02310
5460.28,0.02164
5454.49,0.02231
5448.71,0.02377
5442.92,0.02279
5437.13,0.02193
5431.35,0.02263
5425.56,0.02341
5419.77,0.02269
5413.99,0.02238
5408.2,0.02362
5402.42,0.02176
5396.63,0.02376
5390.84,0.02260
5385.06,0.02189
5379.27,0.02260
5373.48,0.02181
5367.7,0.02320
5361.91,0.02289
5356.13,0.02360
5350.34,0.02260
5344.55,0.02318
5338.77,0.02309
5332.98,0.02300
5327.19,0.02256
5321.41,0.02232
5315.62,0.02278
5309.84,0.02137
5304.05,0.02203
5298.26,0.02109
5292.48,0.02198
5286.69,0.02307
5280.9,0.02331
5275.12,0.02350
5269.33,0.02204
5263.55,0.02175
5257.76,0.02250
5251.97,0.02274
5246.19,0.02229
5240.4,0.02347
5234.61,0.02282
5228.83,0.02254
5223.04,0.02286
5217.26,0.02198
5211.47,0.02231
5205.68,0.02251
5199.9,0.02166
5194.11,0.02239
5188.32,0.02303
5182.54,0.02115
5176.75,0.02220
5170.97,0.02144
5165.18,0.02192
5159.39,0.02188
5153.61,0.02106
5147.82,0.02150
5142.03,0.02259
5136.25,0.02131
5130.46,0.02241
5124.68,0.02194
5118.89,0.02078
5113.1,0.02197
5107.32,0.02239
5101.53,0.02246
5095.75,0.02328
5089.96,0.02269
5084.17,0.02288
5078.39,0.02447
5072.6,0.02416
5066.81,0.02369
5061.03,0.02304
5055.24,0.02281
5049.46,0.02198
5043.67,0.02161
5037.88,0.02339
5032.1,0.02235
5026.31,0.02337
5020.52,0.02231
5014.74,0.02248
5008.95,0.02375
5003.17,0.02131
4997.38,0.02353
4991.59,0.02346
4985.81,0.02282
4980.02,0.02299
4974.23,0.02392
4968.45,0.02373
4962.66,0.02233
4956.88,0.02223
4951.09,0.02305
4945.3,0.02114
4939.52,0.02231
4933.73,0.02283
4927.94,0.02190
4922.16,0.02269
4916.37,0.02240
4910.59,0.02236
4904.8,0.02261
4899.01,0.02299
4893.23,0.02326
4887.44,0.02427
4881.65,0.02267
4875.87,0.02332
4870.08,0.02315
4864.3,0.02242
4858.51,0.02263
4852.72,0.02358
4846.94,0.02398
4841.15,0.02224
4835.36,0.02266
4829.58,0.02228
4823.79,0.02227
4818.01,0.02285
4812.22,0.02209
4806.43,0.02235
4800.65,0.02338
4794.86,0.02332
4789.07,0.02254
4783.29,0.02259
4777.5,0.02326
4771.72,0.02311
4765.93,0.02232
4760.14,0.02261
4754.36,0.02378
4748.57,0.02288
4742.78,0.02247
4737,0.02322
4731.21,0.02308
4725.43,0.02212
4719.64,0.02258
4713.85,0.02245
4708.07,0.02225
4702.28,0.02292
4696.49,0.02286
4690.71,0.02258
4684.92,0.02309
4679.14,0.02337
4673.35,0.02276
4667.56,0.02312
4661.78,0.02171
4655.99,0.02308
4650.2,0.02302
4644.42,0.02300
4638.63,0.02254
4632.85,0.02157
4627.06,0.02276
4621.27,0.02206
4615.49,0.02245
4609.7,0.02276
4603.92,0.02277
4598.13,0.02314
4592.34,0.02214
4586.56,0.02288
4580.77,0.02297
4574.98,0.02272
4569.2,0.02262
4563.41,0.02309
4557.63,0.02250
4551.84,0.02235
4546.05,0.02263
4540.27,0.02264
4534.48,0.02251
4528.69,0.02246
4522.91,0.02280
4517.12,0.02226
4511.34,0.02358
4505.55,0.02228
4499.76,0.02277
4493.98,0.02168
4488.19,0.02249
4482.4,0.02287
4476.62,0.02292
4470.83,0.02329
4465.05,0.02262
4459.26,0.02216
4453.47,0.02346
4447.69,0.02297
4441.9,0.02308
4436.11,0.02286
4430.33,0.02178
4424.54,0.02217
4418.76,0.02326
4412.97,0.02251
4407.18,0.02252
4401.4,0.02209
4395.61,0.02217
4389.82,0.02243
4384.04,0.02333
4378.25,0.02342
4372.47,0.02263
4366.68,0.02303
4360.89,0.02251
4355.11,0.02175
4349.32,0.02279
4343.53,0.02291
4337.75,0.02252
4331.96,0.02255
4326.18,0.02252
4320.39,0.02286
4314.6,0.02200
4308.82,0.02289
4303.03,0.02269
4297.24,0.02296
4291.46,0.02321
4285.67,0.02305
4279.89,0.02316
4274.1,0.02292
4268.31,0.02304
4262.53,0.02296
4256.74,0.02284
4250.95,0.02265
4245.17,0.02314
4239.38,0.02289
4233.6,0.02278
4227.81,0.02187
4222.02,0.02282
4216.24,0.02248
4210.45,0.02175
4204.66,0.02203
4198.88,0.02230
4193.09,0.02279
4187.31,0.02246
4181.52,0.02286
4175.73,0.02220
4169.95,0.02312
4164.16,0.02274
4158.37,0.02238
4152.59,0.02264
4146.8,0.02279
4141.02,0.02233
4135.23,0.02265
4129.44,0.02272
4123.66,0.02304
4117.87,0.02276
4112.09,0.02257
4106.3,0.02296
4100.51,0.02273
4094.73,0.02288
4088.94,0.02348
4083.15,0.02245
4077.37,0.02315
4071.58,0.02320
4065.8,0.02270
4060.01,0.02284
4054.22,0.02296
4048.44,0.02304
4042.65,0.02259
4036.86,0.02303
4031.08,0.02242
4025.29,0.02307
4019.51,0.02203
4013.72,0.02322
4007.93,0.02263
4002.15,0.02303
3996.36,0.02374
3990.57,0.02285
3984.79,0.02348
3979,0.02319
3973.22,0.02281
3967.43,0.02348
3961.64,0.02358
3955.86,0.02235
3950.07,0.02238
3944.28,0.02319
3938.5,0.02239
3932.71,0.02243
3926.93,0.02324
3921.14,0.02270
3915.35,0.02300
3909.57,0.02262
3903.78,0.02323
3897.99,0.02271
3892.21,0.02332
3886.42,0.02243
3880.64,0.02243
3874.85,0.02334
3869.06,0.02230
3863.28,0.02274
3857.49,0.02326
3851.7,0.02278
3845.92,0.02339
3840.13,0.02296
3834.35,0.02300
3828.56,0.02315
3822.77,0.02323
3816.99,0.02329
3811.2,0.02297
3805.41,0.02302
3799.63,0.02303
3793.84,0.02295
3788.06,0.02342
3782.27,0.02262
3776.48,0.02282
3770.7,0.02241
3764.91,0.02332
3759.12,0.02288
3753.34,0.02251
3747.55,0.02314
3741.77,0.02259
3735.98,0.02335
3730.19,0.02359
3724.41,0.02277
3718.62,0.02323
3712.83,0.02328
3707.05,0.02203
3701.26,0.02253
3695.48,0.02279
3689.69,0.02357
3683.9,0.02260
3678.12,0.02323
3672.33,0.02236
3666.54,0.02203
3660.76,0.02237
3654.97,0.02279
3649.19,0.02367
3643.4,0.02269
3637.61,0.02220
3631.83,0.02226
3626.04,0.02217
3620.25,0.02230
3614.47,0.02218
3608.68,0.02209
3602.9,0.02215
3597.11,0.02186
3591.32,0.02293
3585.54,0.02214
3579.75,0.02156
3573.97,0.02209
3568.18,0.02219
3562.39,0.02170
3556.61,0.02193
3550.82,0.02161
3545.03,0.02221
3539.25,0.02147
3533.46,0.02141
3527.68,0.02202
3521.89,0.02167
3516.1,0.02151
3510.32,0.02149
3504.53,0.02198
3498.74,0.02157
3492.96,0.02074
3487.17,0.02143
3481.39,0.02104
3475.6,0.02106
3469.81,0.02175
3464.03,0.02064
3458.24,0.02087
3452.45,0.02058
3446.67,0.02106
3440.88,0.02108
3435.1,0.02143
3429.31,0.02065
3423.52,0.02090
3417.74,0.02065
3411.95,0.02054
3406.16,0.02059
3400.38,0.02071
3394.59,0.02030
3388.81,0.02090
3383.02,0.02102
3377.23,0.02110
3371.45,0.02042
3365.66,0.02051
3359.87,0.02076
3354.09,0.02028
3348.3,0.02097
3342.52,0.02065
3336.73,0.02041
3330.94,0.02033
3325.16,0.02142
3319.37,0.02068
3313.58,0.02026
3307.8,0.02075
3302.01,0.02069
3296.23,0.02031
3290.44,0.02105
3284.65,0.02106
3278.87,0.02060
3273.08,0.02050
3267.29,0.02079
3261.51,0.02103
3255.72,0.02087
3249.94,0.02135
3244.15,0.02121
3238.36,0.02066
3232.58,0.02145
3226.79,0.02132
3221,0.02129
3215.22,0.02065
3209.43,0.02099
3203.65,0.02104
3197.86,0.02093
3192.07,0.02136
3186.29,0.02103
3180.5,0.02099
3174.71,0.02132
3168.93,0.02127
3163.14,0.02156
3157.36,0.02091
3151.57,0.02109
3145.78,0.02109
3140,0.02094
3134.21,0.02114
3128.42,0.02172
3122.64,0.02150
3116.85,0.02077
3111.07,0.02075
3105.28,0.02120
3099.49,0.02119
3093.71,0.02105
3087.92,0.02034
3082.14,0.02077
3076.35,0.02115
3070.56,0.02087
3064.78,0.02131
3058.99,0.02068
3053.2,0.02115
3047.42,0.02094
3041.63,0.02097
3035.85,0.02079
3030.06,0.02059
3024.27,0.02051
3018.49,0.02068
3012.7,0.02074
3006.91,0.02080
3001.13,0.02089
2995.34,0.02021
2989.56,0.02043
2983.77,0.02001
2977.98,0.02005
2972.2,0.02060
2966.41,0.01989
2960.62,0.01971
2954.84,0.01982
2949.05,0.01992
2943.27,0.01978
2937.48,0.02000
2931.69,0.02022
2925.91,0.02054
2920.12,0.02101
2914.33,0.02055
2908.55,0.02153
2902.76,0.02070
2896.98,0.02058
2891.19,0.02040
2885.4,0.02078
2879.62,0.02065
2873.83,0.02132
2868.04,0.02083
2862.26,0.02105
2856.47,0.02093
2850.69,0.02109
2844.9,0.02120
2839.11,0.02145
2833.33,0.02129
2827.54,0.02192
2821.75,0.02155
2815.97,0.02163
2810.18,0.02143
2804.4,0.02187
2798.61,0.02109
2792.82,0.02173
2787.04,0.02169
2781.25,0.02117
2775.46,0.02143
2769.68,0.02163
2763.89,0.02149
2758.11,0.02171
2752.32,0.02210
2746.53,0.02172
2740.75,0.02177
2734.96,0.02126
2729.17,0.02120
2723.39,0.02158
2717.6,0.02166
2711.82,0.02141
2706.03,0.02164
2700.24,0.02134
2694.46,0.02135
2688.67,0.02143
2682.88,0.02165
2677.1,0.02155
2671.31,0.02181
2665.53,0.02162
2659.74,0.02140
2653.95,0.02153
2648.17,0.02188
2642.38,0.02167
2636.59,0.02114
2630.81,0.02123
2625.02,0.02084
2619.24,0.02155
2613.45,0.02173
2607.66,0.02174
2601.88,0.02191
2596.09,0.02172
2590.3,0.02185
2584.52,0.02151
2578.73,0.02134
2572.95,0.02140
2567.16,0.02161
2561.37,0.02112
2555.59,0.02167
2549.8,0.02167
2544.02,0.02128
2538.23,0.02163
2532.44,0.02140
2526.66,0.02123
2520.87,0.02121
2515.08,0.02169
2509.3,0.02167
2503.51,0.02145
2497.73,0.02151
2491.94,0.02181
2486.15,0.02172
2480.37,0.02175
2474.58,0.02153
2468.79,0.02160
2463.01,0.02172
2457.22,0.02124
2451.44,0.02136
2445.65,0.02121
2439.86,0.02140
2434.08,0.02137
2428.29,0.02118
2422.5,0.02160
2416.72,0.02154
2410.93,0.02143
2405.15,0.02172
2399.36,0.02198
2393.57,0.02152
2387.79,0.02130
2382,0.02135
2376.21,0.02143
2370.43,0.02165
2364.64,0.02112
2358.86,0.02136
2353.07,0.02174
2347.28,0.02174
2341.5,0.02148
2335.71,0.02100
2329.92,0.02128
2324.14,0.02106
2318.35,0.02154
2312.57,0.02167
2306.78,0.02143
2300.99,0.02146
2295.21,0.02140
2289.42,0.02128
2283.63,0.02133
2277.85,0.02138
2272.06,0.02120
2266.28,0.02115
2260.49,0.02114
2254.7,0.02119
2248.92,0.02099
2243.13,0.02148
2237.34,0.02127
2231.56,0.02134
2225.77,0.02135
2219.99,0.02133
2214.2,0.02116
2208.41,0.02102
2202.63,0.02109
2196.84,0.02121
2191.05,0.02117
2185.27,0.02120
2179.48,0.02133
2173.7,0.02105
2167.91,0.02139
2162.12,0.02148
2156.34,0.02119
2150.55,0.02135
2144.76,0.02144
2138.98,0.02129
2133.19,0.02148
2127.41,0.02127
2121.62,0.02095
2115.83,0.02114
2110.05,0.02141
2104.26,0.02121
2098.47,0.02141
2092.69,0.02131
2086.9,0.02120
2081.12,0.02105
2075.33,0.02099
2069.54,0.02132
2063.76,0.02132
2057.97,0.02081
2052.19,0.02098
2046.4,0.02093
2040.61,0.02102
2034.83,0.02124
2029.04,0.02111
2023.25,0.02105
2017.47,0.02115
2011.68,0.02136
2005.9,0.02110
2000.11,0.02077
1994.32,0.02084
1988.54,0.02069
1982.75,0.02094
1976.96,0.02109
1971.18,0.02096
1965.39,0.02071
1959.61,0.02072
1953.82,0.02061
1948.03,0.02085
1942.25,0.02083
1936.46,0.02099
1930.67,0.02112
1924.89,0.02108
1919.1,0.02095
1913.32,0.02111
1907.53,0.02083
1901.74,0.02063
1895.96,0.02079
1890.17,0.02078
1884.38,0.02092
1878.6,0.02059
1872.81,0.02096
1867.03,0.02094
1861.24,0.02042
1855.45,0.02059
1849.67,0.02087
1843.88,0.02064
1838.09,0.02019
1832.31,0.02007
1826.52,0.02020
1820.74,0.02008
1814.95,0.02022
1809.16,0.02016
1803.38,0.02011
1797.59,0.01990
1791.8,0.01932
1786.02,0.01945
1780.23,0.01904
1774.45,0.01888
1768.66,0.01860
1762.87,0.01843
1757.09,0.01762
1751.3,0.01729
1745.51,0.01786
1739.73,0.01904
1733.94,0.01993
1728.16,0.02030
1722.37,0.02114
1716.58,0.02119
1710.8,0.02117
1705.01,0.02049
1699.22,0.01975
1693.44,0.01983
1687.65,0.01931
1681.87,0.01878
1676.08,0.01900
1670.29,0.01890
1664.51,0.01885
1658.72,0.01873
1652.93,0.01894
1647.15,0.01846
1641.36,0.01869
1635.58,0.01853
1629.79,0.01880
1624,0.01898
1618.22,0.01889
1612.43,0.01928
1606.64,0.01893
1600.86,0.01894
1595.07,0.01889
1589.29,0.01897
1583.5,0.01850
1577.71,0.01833
1571.93,0.01814
1566.14,0.01794
1560.35,0.01809
1554.57,0.01816
1548.78,0.01871
1543,0.01876
1537.21,0.01900
1531.42,0.01905
1525.64,0.01863
1519.85,0.01827
1514.07,0.01887
1508.28,0.01912
1502.49,0.01912
1496.71,0.01889
1490.92,0.01905
1485.13,0.01891
1479.35,0.01831
1473.56,0.01864
1467.78,0.01886
1461.99,0.01846
1456.2,0.01905
1450.42,0.01878
1444.63,0.01903
1438.84,0.01905
1433.06,0.01887
1427.27,0.01895
1421.49,0.01884
1415.7,0.01852
1409.91,0.01833
1404.13,0.01838
1398.34,0.01808
1392.55,0.01830
1386.77,0.01821
1380.98,0.01815
1375.2,0.01845
1369.41,0.01788
1363.62,0.01814
1357.84,0.01875
1352.05,0.01854
1346.26,0.01797
1340.48,0.01785
1334.69,0.01811
1328.91,0.01803
1323.12,0.01770
1317.33,0.01745
1311.55,0.01698
1305.76,0.01752
1299.97,0.01773
1294.19,0.01794
1288.4,0.01825
1282.62,0.01885
1276.83,0.01904
1271.04,0.01979
1265.26,0.01989
1259.47,0.02031
1253.68,0.01998
1247.9,0.02056
1242.11,0.02028
1236.33,0.01993
1230.54,0.01975
1224.75,0.01939
1218.97,0.01910
1213.18,0.01951
1207.39,0.01905
1201.61,0.01863
1195.82,0.01831
1190.04,0.01791
1184.25,0.01827
1178.46,0.01876
1172.68,0.01805
1166.89,0.01788
1161.1,0.01749
1155.32,0.01812
1149.53,0.01761
1143.75,0.01773
1137.96,0.01805
1132.17,0.01816
1126.39,0.01890
1120.6,0.01867
1114.81,0.01929
1109.03,0.01891
1103.24,0.01844
1097.46,0.01819
1091.67,0.01754
1085.88,0.01831
1080.1,0.01876
1074.31,0.02010
1068.52,0.02069
1062.74,0.01992
1056.95,0.02010
1051.17,0.01916
1045.38,0.01889
1039.59,0.01925
1033.81,0.01967
1028.02,0.01889
1022.24,0.01924
1016.45,0.01965
1010.66,0.01949
1004.88,0.02090
999.09,0.02081
993.304,0.02093
987.518,0.02083
981.731,0.02096
975.945,0.02115
970.159,0.02043
964.373,0.02068
958.586,0.02001
952.8,0.02030
947.014,0.01904
941.228,0.01971
935.441,0.02011
929.655,0.01931
923.869,0.01963
918.083,0.01905
912.297,0.01877
906.51,0.01927
900.724,0.01954
894.938,0.01882
889.152,0.01858
883.365,0.01922
877.579,0.01916
871.793,0.01889
866.007,0.01921
860.22,0.01944
854.434,0.01950
848.648,0.01942
842.862,0.01970
837.075,0.01888
831.289,0.01868
825.503,0.01885
819.717,0.01962
813.931,0.01949
808.144,0.01851
802.358,0.01799
796.572,0.01940
790.786,0.01934
784.999,0.01879
779.213,0.01849
773.427,0.01804
767.641,0.01833
761.854,0.01898
756.068,0.01775
750.282,0.01843
744.496,0.01940
738.709,0.01918
732.923,0.01783
727.137,0.01822
721.351,0.01875
715.565,0.01788
709.778,0.01675
703.992,0.01795
698.206,0.01782
692.42,0.01872
686.633,0.01800
680.847,0.01733
675.061,0.01689
669.275,0.01752
663.488,0.01857
657.702,0.01806
651.916,0.01584
646.13,0.01748
640.343,0.01636
634.557,0.01671
628.771,0.01591
622.985,0.01562
617.198,0.01543
611.412,0.01608
605.626,0.01557
599.84,0.01304