File: 01_Data/Rebond_Foam_Carpet_Pad/FTIR/IS/Rebond_Foam_Carpet_Pad_IS_S_220913_R6.dpt
7497.03,0.08655
7491.25,0.08852
7485.46,0.09353
7479.67,0.08622
7473.89,0.09242
7468.1,0.09751
7462.32,0.10159
7456.53,0.08798
7450.74,0.09525
7444.96,0.09790
7439.17,0.10342
7433.38,0.09026
7427.6,0.09425
7421.81,0.09242
7416.03,0.08905
7410.24,0.08941
7404.45,0.08829
7398.67,0.09328
7392.88,0.08553
7387.09,0.08992
7381.31,0.09366
7375.52,0.09387
7369.74,0.08361
7363.95,0.08681
7358.16,0.09426
7352.38,0.09189
7346.59,0.10091
7340.8,0.09539
7335.02,0.09844
7329.23,0.09843
7323.45,0.09272
7317.66,0.09179
7311.87,0.08912
7306.09,0.08857
7300.3,0.08575
7294.51,0.09403
7288.73,0.09194
7282.94,0.08821
7277.16,0.08936
7271.37,0.09446
7265.58,0.09570
7259.8,0.08997
7254.01,0.10014
7248.22,0.09475
7242.44,0.08770
7236.65,0.08765
7230.87,0.09240
7225.08,0.09408
7219.29,0.09194
7213.51,0.09215
7207.72,0.09362
7201.93,0.09041
7196.15,0.09290
7190.36,0.09165
7184.58,0.09563
7178.79,0.08880
7173,0.08995
7167.22,0.08916
7161.43,0.09271
7155.65,0.09363
7149.86,0.08791
7144.07,0.09769
7138.29,0.10057
7132.5,0.09615
7126.71,0.09285
7120.93,0.09850
7115.14,0.09803
7109.36,0.09450
7103.57,0.08841
7097.78,0.09254
7092,0.10178
7086.21,0.08641
7080.42,0.08684
7074.64,0.08912
7068.85,0.09080
7063.07,0.09867
7057.28,0.09829
7051.49,0.09385
7045.71,0.09242
7039.92,0.08969
7034.13,0.09447
7028.35,0.10216
7022.56,0.09034
7016.78,0.09304
7010.99,0.09282
7005.2,0.09521
6999.42,0.09262
6993.63,0.09244
6987.84,0.09114
6982.06,0.09204
6976.27,0.10043
6970.49,0.09856
6964.7,0.08838
6958.91,0.08602
6953.13,0.09365
6947.34,0.08907
6941.55,0.09184
6935.77,0.08994
6929.98,0.09136
6924.2,0.09532
6918.41,0.09536
6912.62,0.09722
6906.84,0.09813
6901.05,0.09593
6895.26,0.09461
6889.48,0.08792
6883.69,0.08908
6877.91,0.09427
6872.12,0.09371
6866.33,0.09294
6860.55,0.08710
6854.76,0.09577
6848.97,0.09952
6843.19,0.10094
6837.4,0.10056
6831.62,0.09419
6825.83,0.09347
6820.04,0.09028
6814.26,0.09730
6808.47,0.09442
6802.68,0.09197
6796.9,0.09685
6791.11,0.09896
6785.33,0.09220
6779.54,0.09814
6773.75,0.09912
6767.97,0.09707
6762.18,0.08976
6756.39,0.09452
6750.61,0.09586
6744.82,0.09259
6739.04,0.09082
6733.25,0.09453
6727.46,0.09344
6721.68,0.09731
6715.89,0.09672
6710.1,0.09224
6704.32,0.09086
6698.53,0.09223
6692.75,0.09618
6686.96,0.09487
6681.17,0.09523
6675.39,0.09176
6669.6,0.09406
6663.82,0.09033
6658.03,0.09438
6652.24,0.09520
6646.46,0.09298
6640.67,0.09359
6634.88,0.09459
6629.1,0.09370
6623.31,0.09360
6617.53,0.09276
6611.74,0.09088
6605.95,0.09138
6600.17,0.09203
6594.38,0.09215
6588.59,0.09093
6582.81,0.09359
6577.02,0.09360
6571.24,0.09429
6565.45,0.08947
6559.66,0.09463
6553.88,0.09745
6548.09,0.09470
6542.3,0.09618
6536.52,0.09625
6530.73,0.09515
6524.95,0.09609
6519.16,0.09580
6513.37,0.09629
6507.59,0.09462
6501.8,0.09495
6496.01,0.09653
6490.23,0.09784
6484.44,0.09736
6478.66,0.09713
6472.87,0.09466
6467.08,0.09539
6461.3,0.09532
6455.51,0.09741
6449.72,0.09352
6443.94,0.09551
6438.15,0.09101
6432.37,0.08975
6426.58,0.09556
6420.79,0.09529
6415.01,0.09546
6409.22,0.09459
6403.43,0.09486
6397.65,0.09155
6391.86,0.09532
6386.08,0.09760
6380.29,0.09630
6374.5,0.09471
6368.72,0.09591
6362.93,0.09460
6357.14,0.09386
6351.36,0.09289
6345.57,0.09428
6339.79,0.09558
6334,0.09466
6328.21,0.09564
6322.43,0.09578
6316.64,0.09365
6310.85,0.09471
6305.07,0.09322
6299.28,0.09475
6293.5,0.09200
6287.71,0.09889
6281.92,0.09585
6276.14,0.09476
6270.35,0.09454
6264.56,0.09641
6258.78,0.09917
6252.99,0.09459
6247.21,0.09509
6241.42,0.09619
6235.63,0.09403
6229.85,0.09778
6224.06,0.09420
6218.27,0.09523
6212.49,0.09358
6206.7,0.09320
6200.92,0.09735
6195.13,0.09679
6189.34,0.09318
6183.56,0.09340
6177.77,0.09646
6171.98,0.09598
6166.2,0.09430
6160.41,0.09669
6154.63,0.09675
6148.84,0.09623
6143.05,0.09395
6137.27,0.09636
6131.48,0.09776
6125.7,0.09586
6119.91,0.09588
6114.12,0.09682
6108.34,0.09832
6102.55,0.09288
6096.76,0.09362
6090.98,0.09332
6085.19,0.09588
6079.41,0.09690
6073.62,0.09541
6067.83,0.09596
6062.05,0.09594
6056.26,0.09618
6050.47,0.09543
6044.69,0.09393
6038.9,0.09354
6033.12,0.09706
6027.33,0.09753
6021.54,0.09621
6015.76,0.09488
6009.97,0.09418
6004.18,0.09368
5998.4,0.09456
5992.61,0.09312
5986.83,0.09447
5981.04,0.09458
5975.25,0.09193
5969.47,0.09404
5963.68,0.09274
5957.89,0.09259
5952.11,0.09205
5946.32,0.09310
5940.54,0.09160
5934.75,0.09173
5928.96,0.09240
5923.18,0.08964
5917.39,0.09046
5911.6,0.09223
5905.82,0.09143
5900.03,0.08988
5894.25,0.08881
5888.46,0.09301
5882.67,0.09022
5876.89,0.08924
5871.1,0.08825
5865.31,0.09031
5859.53,0.09142
5853.74,0.09113
5847.96,0.09060
5842.17,0.09027
5836.38,0.09076
5830.6,0.09037
5824.81,0.09035
5819.02,0.09119
5813.24,0.08988
5807.45,0.08866
5801.67,0.08800
5795.88,0.08940
5790.09,0.08922
5784.31,0.08886
5778.52,0.09007
5772.73,0.09309
5766.95,0.09106
5761.16,0.09118
5755.38,0.09277
5749.59,0.09078
5743.8,0.09042
5738.02,0.09106
5732.23,0.09051
5726.44,0.09367
5720.66,0.08921
5714.87,0.09111
5709.09,0.09262
5703.3,0.09004
5697.51,0.09342
5691.73,0.09269
5685.94,0.09394
5680.15,0.09083
5674.37,0.09392
5668.58,0.09347
5662.8,0.09363
5657.01,0.09500
5651.22,0.09540
5645.44,0.09499
5639.65,0.09409
5633.87,0.09684
5628.08,0.09603
5622.29,0.09626
5616.51,0.09443
5610.72,0.09508
5604.93,0.09575
5599.15,0.09593
5593.36,0.09632
5587.58,0.09521
5581.79,0.09515
5576,0.09536
5570.22,0.09599
5564.43,0.09432
5558.64,0.09592
5552.86,0.09791
5547.07,0.09655
5541.29,0.09732
5535.5,0.09650
5529.71,0.09763
5523.93,0.09549
5518.14,0.09689
5512.35,0.09685
5506.57,0.09826
5500.78,0.09685
5495,0.09672
5489.21,0.09769
5483.42,0.09674
5477.64,0.09878
5471.85,0.09810
5466.06,0.09780
5460.28,0.09901
5454.49,0.09845
5448.71,0.09867
5442.92,0.09717
5437.13,0.09878
5431.35,0.09916
5425.56,0.09840
5419.77,0.09745
5413.99,0.09984
5408.2,0.09899
5402.42,0.10004
5396.63,0.09826
5390.84,0.09880
5385.06,0.10023
5379.27,0.09944
5373.48,0.09991
5367.7,0.09914
5361.91,0.09856
5356.13,0.09945
5350.34,0.09873
5344.55,0.09943
5338.77,0.09962
5332.98,0.09854
5327.19,0.09951
5321.41,0.09969
5315.62,0.09962
5309.84,0.09952
5304.05,0.10037
5298.26,0.10021
5292.48,0.10059
5286.69,0.10041
5280.9,0.10079
5275.12,0.09981
5269.33,0.09980
5263.55,0.10087
5257.76,0.10050
5251.97,0.09991
5246.19,0.09973
5240.4,0.09981
5234.61,0.09924
5228.83,0.10008
5223.04,0.10053
5217.26,0.09895
5211.47,0.10094
5205.68,0.10087
5199.9,0.09935
5194.11,0.10094
5188.32,0.10064
5182.54,0.09910
5176.75,0.09904
5170.97,0.09859
5165.18,0.09956
5159.39,0.09852
5153.61,0.10043
5147.82,0.10034
5142.03,0.10024
5136.25,0.09923
5130.46,0.09951
5124.68,0.09943
5118.89,0.10022
5113.1,0.10031
5107.32,0.10004
5101.53,0.09943
5095.75,0.09885
5089.96,0.09927
5084.17,0.09977
5078.39,0.09955
5072.6,0.09978
5066.81,0.09994
5061.03,0.10007
5055.24,0.09818
5049.46,0.10024
5043.67,0.09944
5037.88,0.09928
5032.1,0.09903
5026.31,0.09878
5020.52,0.09958
5014.74,0.09680
5008.95,0.09906
5003.17,0.09889
4997.38,0.09808
4991.59,0.09681
4985.81,0.09637
4980.02,0.09645
4974.23,0.09593
4968.45,0.09633
4962.66,0.09618
4956.88,0.09493
4951.09,0.09508
4945.3,0.09560
4939.52,0.09459
4933.73,0.09371
4927.94,0.09454
4922.16,0.09408
4916.37,0.09331
4910.59,0.09294
4904.8,0.09282
4899.01,0.09254
4893.23,0.09184
4887.44,0.09214
4881.65,0.09193
4875.87,0.09210
4870.08,0.09312
4864.3,0.09206
4858.51,0.09163
4852.72,0.09135
4846.94,0.09349
4841.15,0.09223
4835.36,0.09379
4829.58,0.09405
4823.79,0.09391
4818.01,0.09376
4812.22,0.09381
4806.43,0.09419
4800.65,0.09414
4794.86,0.09476
4789.07,0.09566
4783.29,0.09520
4777.5,0.09631
4771.72,0.09579
4765.93,0.09676
4760.14,0.09572
4754.36,0.09638
4748.57,0.09726
4742.78,0.09545
4737,0.09562
4731.21,0.09495
4725.43,0.09520
4719.64,0.09491
4713.85,0.09471
4708.07,0.09482
4702.28,0.09426
4696.49,0.09280
4690.71,0.09310
4684.92,0.09299
4679.14,0.09306
4673.35,0.09264
4667.56,0.09248
4661.78,0.09247
4655.99,0.09228
4650.2,0.09287
4644.42,0.09269
4638.63,0.09197
4632.85,0.09143
4627.06,0.09112
4621.27,0.09140
4615.49,0.09193
4609.7,0.09295
4603.92,0.09220
4598.13,0.09325
4592.34,0.09326
4586.56,0.09373
4580.77,0.09352
4574.98,0.09437
4569.2,0.09456
4563.41,0.09333
4557.63,0.09466
4551.84,0.09488
4546.05,0.09488
4540.27,0.09472
4534.48,0.09475
4528.69,0.09483
4522.91,0.09478
4517.12,0.09504
4511.34,0.09444
4505.55,0.09370
4499.76,0.09349
4493.98,0.09352
4488.19,0.09330
4482.4,0.09277
4476.62,0.09326
4470.83,0.09241
4465.05,0.09096
4459.26,0.08945
4453.47,0.08812
4447.69,0.08593
4441.9,0.08360
4436.11,0.08159
4430.33,0.08027
4424.54,0.07899
4418.76,0.07803
4412.97,0.07641
4407.18,0.07589
4401.4,0.07631
4395.61,0.07560
4389.82,0.07596
4384.04,0.07586
4378.25,0.07520
4372.47,0.07405
4366.68,0.07265
4360.89,0.07205
4355.11,0.07086
4349.32,0.07122
4343.53,0.07148
4337.75,0.07079
4331.96,0.07098
4326.18,0.07197
4320.39,0.07257
4314.6,0.07304
4308.82,0.07347
4303.03,0.07412
4297.24,0.07566
4291.46,0.07555
4285.67,0.07606
4279.89,0.07607
4274.1,0.07593
4268.31,0.07536
4262.53,0.07564
4256.74,0.07591
4250.95,0.07607
4245.17,0.07635
4239.38,0.07620
4233.6,0.07681
4227.81,0.07773
4222.02,0.07827
4216.24,0.07746
4210.45,0.07885
4204.66,0.07932
4198.88,0.07866
4193.09,0.08007
4187.31,0.08057
4181.52,0.07965
4175.73,0.07987
4169.95,0.07997
4164.16,0.07962
4158.37,0.07987
4152.59,0.07936
4146.8,0.07986
4141.02,0.07993
4135.23,0.07942
4129.44,0.07966
4123.66,0.07951
4117.87,0.07916
4112.09,0.07893
4106.3,0.07866
4100.51,0.07892
4094.73,0.07799
4088.94,0.07788
4083.15,0.07753
4077.37,0.07699
4071.58,0.07597
4065.8,0.07526
4060.01,0.07439
4054.22,0.07452
4048.44,0.07409
4042.65,0.07400
4036.86,0.07393
4031.08,0.07400
4025.29,0.07389
4019.51,0.07443
4013.72,0.07509
4007.93,0.07491
4002.15,0.07541
3996.36,0.07556
3990.57,0.07577
3984.79,0.07694
3979,0.07706
3973.22,0.07828
3967.43,0.07933
3961.64,0.07974
3955.86,0.08017
3950.07,0.08106
3944.28,0.08171
3938.5,0.08206
3932.71,0.08263
3926.93,0.08370
3921.14,0.08523
3915.35,0.08524
3909.57,0.08508
3903.78,0.08556
3897.99,0.08554
3892.21,0.08617
3886.42,0.08587
3880.64,0.08677
3874.85,0.08742
3869.06,0.08745
3863.28,0.08767
3857.49,0.08868
3851.7,0.08765
3845.92,0.08902
3840.13,0.08859
3834.35,0.08909
3828.56,0.09020
3822.77,0.09053
3816.99,0.09035
3811.2,0.09045
3805.41,0.09128
3799.63,0.09128
3793.84,0.09167
3788.06,0.09185
3782.27,0.09185
3776.48,0.09300
3770.7,0.09307
3764.91,0.09332
3759.12,0.09385
3753.34,0.09425
3747.55,0.09493
3741.77,0.09483
3735.98,0.09553
3730.19,0.09484
3724.41,0.09533
3718.62,0.09523
3712.83,0.09547
3707.05,0.09521
3701.26,0.09574
3695.48,0.09555
3689.69,0.09492
3683.9,0.09436
3678.12,0.09319
3672.33,0.09227
3666.54,0.09129
3660.76,0.09059
3654.97,0.08874
3649.19,0.08738
3643.4,0.08643
3637.61,0.08609
3631.83,0.08558
3626.04,0.08373
3620.25,0.08335
3614.47,0.08314
3608.68,0.08257
3602.9,0.08142
3597.11,0.08124
3591.32,0.08009
3585.54,0.08032
3579.75,0.07828
3573.97,0.07796
3568.18,0.07720
3562.39,0.07586
3556.61,0.07517
3550.82,0.07330
3545.03,0.07312
3539.25,0.07218
3533.46,0.07033
3527.68,0.06961
3521.89,0.06864
3516.1,0.06844
3510.32,0.06735
3504.53,0.06688
3498.74,0.06600
3492.96,0.06450
3487.17,0.06317
3481.39,0.06136
3475.6,0.05925
3469.81,0.05768
3464.03,0.05542
3458.24,0.05363
3452.45,0.05161
3446.67,0.05098
3440.88,0.05039
3435.1,0.04804
3429.31,0.04636
3423.52,0.04447
3417.74,0.04256
3411.95,0.04072
3406.16,0.03922
3400.38,0.03752
3394.59,0.03640
3388.81,0.03519
3383.02,0.03402
3377.23,0.03264
3371.45,0.03190
3365.66,0.03170
3359.87,0.03153
3354.09,0.03086
3348.3,0.03013
3342.52,0.03014
3336.73,0.02975
3330.94,0.02949
3325.16,0.02981
3319.37,0.02923
3313.58,0.02872
3307.8,0.02880
3302.01,0.02886
3296.23,0.02905
3290.44,0.02932
3284.65,0.02944
3278.87,0.02958
3273.08,0.03053
3267.29,0.03089
3261.51,0.03109
3255.72,0.03121
3249.94,0.03156
3244.15,0.03266
3238.36,0.03322
3232.58,0.03400
3226.79,0.03437
3221,0.03507
3215.22,0.03535
3209.43,0.03580
3203.65,0.03558
3197.86,0.03610
3192.07,0.03704
3186.29,0.03735
3180.5,0.03854
3174.71,0.03897
3168.93,0.03928
3163.14,0.04025
3157.36,0.04051
3151.57,0.04049
3145.78,0.04013
3140,0.04093
3134.21,0.03973
3128.42,0.03987
3122.64,0.04038
3116.85,0.04044
3111.07,0.04075
3105.28,0.04048
3099.49,0.04010
3093.71,0.03971
3087.92,0.03845
3082.14,0.03742
3076.35,0.03779
3070.56,0.03759
3064.78,0.03589
3058.99,0.03667
3053.2,0.03713
3047.42,0.03780
3041.63,0.03644
3035.85,0.03563
3030.06,0.03456
3024.27,0.03490
3018.49,0.03618
3012.7,0.03664
3006.91,0.03551
3001.13,0.03323
2995.34,0.03180
2989.56,0.02982
2983.77,0.02878
2977.98,0.02729
2972.2,0.02730
2966.41,0.02773
2960.62,0.02795
2954.84,0.02828
2949.05,0.02749
2943.27,0.02753
2937.48,0.02653
2931.69,0.02658
2925.91,0.02672
2920.12,0.02751
2914.33,0.02725
2908.55,0.02770
2902.76,0.02793
2896.98,0.02805
2891.19,0.02876
2885.4,0.02887
2879.62,0.02874
2873.83,0.02867
2868.04,0.02876
2862.26,0.02908
2856.47,0.02929
2850.69,0.03092
2844.9,0.03200
2839.11,0.03418
2833.33,0.03633
2827.54,0.03803
2821.75,0.03871
2815.97,0.04074
2810.18,0.04194
2804.4,0.04214
2798.61,0.04309
2792.82,0.04364
2787.04,0.04397
2781.25,0.04524
2775.46,0.04626
2769.68,0.04741
2763.89,0.04741
2758.11,0.04828
2752.32,0.04887
2746.53,0.04945
2740.75,0.05007
2734.96,0.05090
2729.17,0.05167
2723.39,0.05303
2717.6,0.05480
2711.82,0.05661
2706.03,0.05765
2700.24,0.05853
2694.46,0.06054
2688.67,0.06205
2682.88,0.06331
2677.1,0.06393
2671.31,0.06487
2665.53,0.06559
2659.74,0.06648
2653.95,0.06751
2648.17,0.06786
2642.38,0.06791
2636.59,0.06859
2630.81,0.06986
2625.02,0.07076
2619.24,0.07142
2613.45,0.07169
2607.66,0.07128
2601.88,0.07085
2596.09,0.07073
2590.3,0.07052
2584.52,0.07100
2578.73,0.07176
2572.95,0.07251
2567.16,0.07407
2561.37,0.07479
2555.59,0.07556
2549.8,0.07621
2544.02,0.07641
2538.23,0.07720
2532.44,0.07690
2526.66,0.07738
2520.87,0.07808
2515.08,0.07762
2509.3,0.07845
2503.51,0.07815
2497.73,0.07883
2491.94,0.07922
2486.15,0.07922
2480.37,0.07997
2474.58,0.08030
2468.79,0.08128
2463.01,0.08137
2457.22,0.08132
2451.44,0.08193
2445.65,0.08194
2439.86,0.08201
2434.08,0.08237
2428.29,0.08313
2422.5,0.08340
2416.72,0.08324
2410.93,0.08300
2405.15,0.08281
2399.36,0.08244
2393.57,0.08271
2387.79,0.08183
2382,0.08208
2376.21,0.08173
2370.43,0.08183
2364.64,0.08130
2358.86,0.08071
2353.07,0.08088
2347.28,0.08051
2341.5,0.07989
2335.71,0.08043
2329.92,0.08077
2324.14,0.08032
2318.35,0.07981
2312.57,0.07912
2306.78,0.07815
2300.99,0.07724
2295.21,0.07579
2289.42,0.07477
2283.63,0.07335
2277.85,0.07237
2272.06,0.07182
2266.28,0.07218
2260.49,0.07258
2254.7,0.07257
2248.92,0.06960
2243.13,0.06483
2237.34,0.06130
2231.56,0.06698
2225.77,0.07520
2219.99,0.07733
2214.2,0.07845
2208.41,0.07896
2202.63,0.07925
2196.84,0.07980
2191.05,0.07991
2185.27,0.07976
2179.48,0.08051
2173.7,0.08065
2167.91,0.08058
2162.12,0.08084
2156.34,0.08124
2150.55,0.08141
2144.76,0.08173
2138.98,0.08121
2133.19,0.08106
2127.41,0.08133
2121.62,0.08121
2115.83,0.08128
2110.05,0.08127
2104.26,0.08050
2098.47,0.08049
2092.69,0.07971
2086.9,0.07985
2081.12,0.07967
2075.33,0.07886
2069.54,0.07888
2063.76,0.07844
2057.97,0.07826
2052.19,0.07778
2046.4,0.07742
2040.61,0.07709
2034.83,0.07620
2029.04,0.07567
2023.25,0.07484
2017.47,0.07485
2011.68,0.07405
2005.9,0.07402
2000.11,0.07354
1994.32,0.07300
1988.54,0.07259
1982.75,0.07215
1976.96,0.07124
1971.18,0.07034
1965.39,0.06950
1959.61,0.06871
1953.82,0.06829
1948.03,0.06866
1942.25,0.06953
1936.46,0.07029
1930.67,0.07121
1924.89,0.07138
1919.1,0.07117
1913.32,0.07059
1907.53,0.06991
1901.74,0.06917
1895.96,0.06844
1890.17,0.06817
1884.38,0.06769
1878.6,0.06789
1872.81,0.06844
1867.03,0.06937
1861.24,0.07029
1855.45,0.07003
1849.67,0.06971
1843.88,0.06860
1838.09,0.06716
1832.31,0.06490
1826.52,0.06310
1820.74,0.06060
1814.95,0.05896
1809.16,0.05702
1803.38,0.05578
1797.59,0.05433
1791.8,0.05307
1786.02,0.05100
1780.23,0.04934
1774.45,0.04728
1768.66,0.04486
1762.87,0.04177
1757.09,0.03707
1751.3,0.03207
1745.51,0.02773
1739.73,0.02598
1733.94,0.02644
1728.16,0.02689
1722.37,0.02710
1716.58,0.02734
1710.8,0.02716
1705.01,0.02761
1699.22,0.02816
1693.44,0.02741
1687.65,0.02766
1681.87,0.02796
1676.08,0.02748
1670.29,0.02696
1664.51,0.02652
1658.72,0.02614
1652.93,0.02566
1647.15,0.02586
1641.36,0.02630
1635.58,0.02789
1629.79,0.02867
1624,0.02886
1618.22,0.02782
1612.43,0.02684
1606.64,0.02619
1600.86,0.02602
1595.07,0.02651
1589.29,0.02728
1583.5,0.02781
1577.71,0.02802
1571.93,0.02646
1566.14,0.02521
1560.35,0.02466
1554.57,0.02375
1548.78,0.02438
1543,0.02521
1537.21,0.02548
1531.42,0.02663
1525.64,0.02752
1519.85,0.02760
1514.07,0.02753
1508.28,0.02802
1502.49,0.02827
1496.71,0.02879
1490.92,0.02944
1485.13,0.02958
1479.35,0.02859
1473.56,0.02757
1467.78,0.02803
1461.99,0.02770
1456.2,0.02698
1450.42,0.02762
1444.63,0.02817
1438.84,0.02957
1433.06,0.03023
1427.27,0.02996
1421.49,0.02926
1415.7,0.02824
1409.91,0.02867
1404.13,0.02905
1398.34,0.02895
1392.55,0.02905
1386.77,0.02804
1380.98,0.02721
1375.2,0.02724
1369.41,0.02821
1363.62,0.02962
1357.84,0.02946
1352.05,0.02887
1346.26,0.02841
1340.48,0.02825
1334.69,0.02826
1328.91,0.02779
1323.12,0.02741
1317.33,0.02682
1311.55,0.02638
1305.76,0.02634
1299.97,0.02630
1294.19,0.02629
1288.4,0.02680
1282.62,0.02656
1276.83,0.02654
1271.04,0.02644
1265.26,0.02629
1259.47,0.02620
1253.68,0.02576
1247.9,0.02511
1242.11,0.02505
1236.33,0.02554
1230.54,0.02562
1224.75,0.02574
1218.97,0.02694
1213.18,0.02794
1207.39,0.02738
1201.61,0.02781
1195.82,0.02739
1190.04,0.02745
1184.25,0.02739
1178.46,0.02701
1172.68,0.02667
1166.89,0.02588
1161.1,0.02517
1155.32,0.02585
1149.53,0.02525
1143.75,0.02462
1137.96,0.02446
1132.17,0.02547
1126.39,0.02617
1120.6,0.02714
1114.81,0.02723
1109.03,0.02861
1103.24,0.02825
1097.46,0.02937
1091.67,0.02977
1085.88,0.02920
1080.1,0.03001
1074.31,0.03078
1068.52,0.03152
1062.74,0.03189
1056.95,0.03284
1051.17,0.03243
1045.38,0.03211
1039.59,0.03241
1033.81,0.03277
1028.02,0.03326
1022.24,0.03303
1016.45,0.03319
1010.66,0.03395
1004.88,0.03417
999.09,0.03513
993.304,0.03567
987.518,0.03693
981.731,0.03790
975.945,0.03788
970.159,0.03667
964.373,0.03738
958.586,0.03885
952.8,0.03844
947.014,0.03790
941.228,0.03663
935.441,0.03594
929.655,0.03575
923.869,0.03527
918.083,0.03656
912.297,0.03692
906.51,0.03808
900.724,0.03937
894.938,0.03924
889.152,0.03826
883.365,0.03737
877.579,0.03611
871.793,0.03592
866.007,0.03670
860.22,0.03717
854.434,0.03785
848.648,0.03765
842.862,0.03731
837.075,0.03712
831.289,0.03675
825.503,0.03578
819.717,0.03427
813.931,0.03475
808.144,0.03544
802.358,0.03729
796.572,0.03783
790.786,0.03773
784.999,0.03669
779.213,0.03621
773.427,0.03358
767.641,0.03116
761.854,0.03109
756.068,0.03278
750.282,0.03468
744.496,0.03619
738.709,0.03785
732.923,0.03935
727.137,0.03984
721.351,0.03761
715.565,0.03406
709.778,0.03090
703.992,0.02982
698.206,0.03336
692.42,0.03537
686.633,0.03716
680.847,0.03571
675.061,0.03738
669.275,0.03410
663.488,0.03502
657.702,0.03656
651.916,0.03715
646.13,0.03563
640.343,0.03546
634.557,0.03566
628.771,0.03584
622.985,0.03709
617.198,0.03715
611.412,0.03655
605.626,0.03830
599.84,0.04082