File: 01_Data/Rebond_Foam_Carpet_Pad/FTIR/IS/Rebond_Foam_Carpet_Pad_IS_S_220913_R2.dpt
7497.03,0.10227
7491.25,0.10425
7485.46,0.09491
7479.67,0.09736
7473.89,0.08868
7468.1,0.08721
7462.32,0.09296
7456.53,0.09445
7450.74,0.08982
7444.96,0.09422
7439.17,0.09831
7433.38,0.10079
7427.6,0.09536
7421.81,0.09338
7416.03,0.09450
7410.24,0.09406
7404.45,0.09583
7398.67,0.09986
7392.88,0.09338
7387.09,0.09475
7381.31,0.09210
7375.52,0.08848
7369.74,0.09142
7363.95,0.08812
7358.16,0.08558
7352.38,0.09150
7346.59,0.09493
7340.8,0.10574
7335.02,0.09728
7329.23,0.09239
7323.45,0.09401
7317.66,0.09395
7311.87,0.09250
7306.09,0.09514
7300.3,0.09478
7294.51,0.08941
7288.73,0.09130
7282.94,0.09408
7277.16,0.09519
7271.37,0.09409
7265.58,0.09359
7259.8,0.09500
7254.01,0.09119
7248.22,0.09240
7242.44,0.08887
7236.65,0.09140
7230.87,0.09562
7225.08,0.09543
7219.29,0.09380
7213.51,0.09552
7207.72,0.09575
7201.93,0.09505
7196.15,0.08969
7190.36,0.08962
7184.58,0.09677
7178.79,0.09934
7173,0.09409
7167.22,0.09662
7161.43,0.09202
7155.65,0.09051
7149.86,0.09238
7144.07,0.09348
7138.29,0.10431
7132.5,0.09802
7126.71,0.09818
7120.93,0.09093
7115.14,0.09106
7109.36,0.09100
7103.57,0.09570
7097.78,0.09363
7092,0.09440
7086.21,0.09171
7080.42,0.09392
7074.64,0.09594
7068.85,0.09357
7063.07,0.09899
7057.28,0.09309
7051.49,0.09692
7045.71,0.09055
7039.92,0.09197
7034.13,0.08787
7028.35,0.08971
7022.56,0.08787
7016.78,0.09440
7010.99,0.09543
7005.2,0.09534
6999.42,0.08566
6993.63,0.09076
6987.84,0.09651
6982.06,0.09321
6976.27,0.09132
6970.49,0.09167
6964.7,0.09418
6958.91,0.09261
6953.13,0.09900
6947.34,0.09421
6941.55,0.09409
6935.77,0.09078
6929.98,0.09623
6924.2,0.09471
6918.41,0.08912
6912.62,0.08942
6906.84,0.09499
6901.05,0.09357
6895.26,0.09087
6889.48,0.09480
6883.69,0.08639
6877.91,0.08819
6872.12,0.09572
6866.33,0.09809
6860.55,0.10032
6854.76,0.09374
6848.97,0.09474
6843.19,0.09645
6837.4,0.09506
6831.62,0.09666
6825.83,0.09243
6820.04,0.09544
6814.26,0.09631
6808.47,0.09365
6802.68,0.09549
6796.9,0.09391
6791.11,0.09484
6785.33,0.09305
6779.54,0.09543
6773.75,0.09558
6767.97,0.09437
6762.18,0.09448
6756.39,0.09174
6750.61,0.09588
6744.82,0.09712
6739.04,0.09427
6733.25,0.09430
6727.46,0.09385
6721.68,0.09089
6715.89,0.09434
6710.1,0.09015
6704.32,0.09421
6698.53,0.09061
6692.75,0.09236
6686.96,0.09683
6681.17,0.09093
6675.39,0.09528
6669.6,0.09331
6663.82,0.09613
6658.03,0.09319
6652.24,0.09011
6646.46,0.09548
6640.67,0.09705
6634.88,0.09663
6629.1,0.09218
6623.31,0.09328
6617.53,0.09479
6611.74,0.09176
6605.95,0.09438
6600.17,0.10059
6594.38,0.09807
6588.59,0.09643
6582.81,0.09731
6577.02,0.09302
6571.24,0.09328
6565.45,0.09423
6559.66,0.09794
6553.88,0.09239
6548.09,0.09571
6542.3,0.09230
6536.52,0.09172
6530.73,0.09282
6524.95,0.09277
6519.16,0.09355
6513.37,0.09385
6507.59,0.09527
6501.8,0.09193
6496.01,0.09401
6490.23,0.09545
6484.44,0.09541
6478.66,0.09845
6472.87,0.08817
6467.08,0.09518
6461.3,0.09304
6455.51,0.09747
6449.72,0.09537
6443.94,0.09227
6438.15,0.09566
6432.37,0.09775
6426.58,0.09463
6420.79,0.09487
6415.01,0.09449
6409.22,0.09454
6403.43,0.09624
6397.65,0.09424
6391.86,0.09452
6386.08,0.09515
6380.29,0.09484
6374.5,0.09179
6368.72,0.09448
6362.93,0.09445
6357.14,0.09412
6351.36,0.09569
6345.57,0.09743
6339.79,0.09587
6334,0.09671
6328.21,0.09741
6322.43,0.09942
6316.64,0.09663
6310.85,0.09591
6305.07,0.09606
6299.28,0.09841
6293.5,0.09504
6287.71,0.09404
6281.92,0.09760
6276.14,0.09458
6270.35,0.09679
6264.56,0.09946
6258.78,0.09659
6252.99,0.09532
6247.21,0.09568
6241.42,0.09461
6235.63,0.09499
6229.85,0.09507
6224.06,0.09488
6218.27,0.09577
6212.49,0.09648
6206.7,0.09741
6200.92,0.09549
6195.13,0.09619
6189.34,0.09796
6183.56,0.09644
6177.77,0.09892
6171.98,0.09734
6166.2,0.09831
6160.41,0.09866
6154.63,0.09729
6148.84,0.09783
6143.05,0.09714
6137.27,0.09577
6131.48,0.09825
6125.7,0.09751
6119.91,0.09556
6114.12,0.09862
6108.34,0.09640
6102.55,0.09891
6096.76,0.09679
6090.98,0.09566
6085.19,0.09526
6079.41,0.09339
6073.62,0.09306
6067.83,0.09394
6062.05,0.09479
6056.26,0.09297
6050.47,0.09348
6044.69,0.09393
6038.9,0.09181
6033.12,0.09765
6027.33,0.09654
6021.54,0.09382
6015.76,0.09484
6009.97,0.09367
6004.18,0.09310
5998.4,0.09507
5992.61,0.09614
5986.83,0.09482
5981.04,0.09442
5975.25,0.09317
5969.47,0.09106
5963.68,0.09360
5957.89,0.09218
5952.11,0.09110
5946.32,0.09119
5940.54,0.09093
5934.75,0.09074
5928.96,0.09115
5923.18,0.09250
5917.39,0.09283
5911.6,0.09293
5905.82,0.09122
5900.03,0.08983
5894.25,0.08841
5888.46,0.08975
5882.67,0.09173
5876.89,0.09058
5871.1,0.08919
5865.31,0.09234
5859.53,0.09074
5853.74,0.08897
5847.96,0.09078
5842.17,0.09175
5836.38,0.09273
5830.6,0.09194
5824.81,0.09318
5819.02,0.09223
5813.24,0.09019
5807.45,0.09229
5801.67,0.09377
5795.88,0.09090
5790.09,0.09298
5784.31,0.09272
5778.52,0.09117
5772.73,0.09088
5766.95,0.09029
5761.16,0.08975
5755.38,0.08724
5749.59,0.08978
5743.8,0.09172
5738.02,0.09130
5732.23,0.09292
5726.44,0.09136
5720.66,0.09179
5714.87,0.09106
5709.09,0.09023
5703.3,0.09134
5697.51,0.09200
5691.73,0.09260
5685.94,0.09469
5680.15,0.09475
5674.37,0.09347
5668.58,0.09131
5662.8,0.09587
5657.01,0.09391
5651.22,0.09297
5645.44,0.09307
5639.65,0.09432
5633.87,0.09612
5628.08,0.09293
5622.29,0.09520
5616.51,0.09433
5610.72,0.09516
5604.93,0.09587
5599.15,0.09720
5593.36,0.09532
5587.58,0.09480
5581.79,0.09725
5576,0.09625
5570.22,0.09562
5564.43,0.09621
5558.64,0.09822
5552.86,0.09557
5547.07,0.09604
5541.29,0.09680
5535.5,0.09756
5529.71,0.09773
5523.93,0.09778
5518.14,0.09575
5512.35,0.09880
5506.57,0.09600
5500.78,0.09406
5495,0.09717
5489.21,0.09863
5483.42,0.09559
5477.64,0.09728
5471.85,0.09749
5466.06,0.09791
5460.28,0.09858
5454.49,0.09781
5448.71,0.09911
5442.92,0.09714
5437.13,0.09742
5431.35,0.09904
5425.56,0.09801
5419.77,0.09697
5413.99,0.09971
5408.2,0.09925
5402.42,0.10139
5396.63,0.10044
5390.84,0.09982
5385.06,0.09966
5379.27,0.09873
5373.48,0.09882
5367.7,0.09975
5361.91,0.10077
5356.13,0.09925
5350.34,0.09885
5344.55,0.09990
5338.77,0.10017
5332.98,0.10004
5327.19,0.09858
5321.41,0.09961
5315.62,0.09936
5309.84,0.09987
5304.05,0.09992
5298.26,0.09881
5292.48,0.09854
5286.69,0.09948
5280.9,0.10004
5275.12,0.09717
5269.33,0.09995
5263.55,0.10006
5257.76,0.09816
5251.97,0.09791
5246.19,0.09691
5240.4,0.09912
5234.61,0.09943
5228.83,0.09933
5223.04,0.09822
5217.26,0.09859
5211.47,0.10016
5205.68,0.09945
5199.9,0.09866
5194.11,0.09940
5188.32,0.09877
5182.54,0.09876
5176.75,0.09779
5170.97,0.09834
5165.18,0.09972
5159.39,0.09844
5153.61,0.09956
5147.82,0.09848
5142.03,0.09982
5136.25,0.09888
5130.46,0.09969
5124.68,0.09897
5118.89,0.09790
5113.1,0.09911
5107.32,0.09928
5101.53,0.09968
5095.75,0.09930
5089.96,0.09961
5084.17,0.09952
5078.39,0.09974
5072.6,0.09932
5066.81,0.09995
5061.03,0.10010
5055.24,0.09998
5049.46,0.09843
5043.67,0.09835
5037.88,0.09920
5032.1,0.09973
5026.31,0.09899
5020.52,0.09833
5014.74,0.09859
5008.95,0.09843
5003.17,0.09757
4997.38,0.09887
4991.59,0.09765
4985.81,0.09630
4980.02,0.09678
4974.23,0.09543
4968.45,0.09592
4962.66,0.09504
4956.88,0.09513
4951.09,0.09370
4945.3,0.09415
4939.52,0.09439
4933.73,0.09355
4927.94,0.09371
4922.16,0.09303
4916.37,0.09268
4910.59,0.09330
4904.8,0.09273
4899.01,0.09279
4893.23,0.09227
4887.44,0.09186
4881.65,0.09267
4875.87,0.09223
4870.08,0.09311
4864.3,0.09158
4858.51,0.09248
4852.72,0.09298
4846.94,0.09253
4841.15,0.09193
4835.36,0.09356
4829.58,0.09333
4823.79,0.09459
4818.01,0.09492
4812.22,0.09386
4806.43,0.09401
4800.65,0.09458
4794.86,0.09529
4789.07,0.09526
4783.29,0.09629
4777.5,0.09602
4771.72,0.09633
4765.93,0.09771
4760.14,0.09722
4754.36,0.09688
4748.57,0.09514
4742.78,0.09492
4737,0.09578
4731.21,0.09631
4725.43,0.09555
4719.64,0.09508
4713.85,0.09527
4708.07,0.09492
4702.28,0.09354
4696.49,0.09333
4690.71,0.09359
4684.92,0.09362
4679.14,0.09267
4673.35,0.09192
4667.56,0.09117
4661.78,0.09273
4655.99,0.09231
4650.2,0.09213
4644.42,0.09262
4638.63,0.09220
4632.85,0.09237
4627.06,0.09220
4621.27,0.09274
4615.49,0.09273
4609.7,0.09272
4603.92,0.09355
4598.13,0.09354
4592.34,0.09372
4586.56,0.09324
4580.77,0.09316
4574.98,0.09459
4569.2,0.09465
4563.41,0.09436
4557.63,0.09308
4551.84,0.09465
4546.05,0.09434
4540.27,0.09453
4534.48,0.09461
4528.69,0.09469
4522.91,0.09399
4517.12,0.09446
4511.34,0.09317
4505.55,0.09370
4499.76,0.09365
4493.98,0.09417
4488.19,0.09334
4482.4,0.09296
4476.62,0.09270
4470.83,0.09112
4465.05,0.08992
4459.26,0.08978
4453.47,0.08789
4447.69,0.08616
4441.9,0.08357
4436.11,0.08246
4430.33,0.08024
4424.54,0.07872
4418.76,0.07673
4412.97,0.07579
4407.18,0.07577
4401.4,0.07586
4395.61,0.07653
4389.82,0.07555
4384.04,0.07464
4378.25,0.07396
4372.47,0.07336
4366.68,0.07218
4360.89,0.07159
4355.11,0.07119
4349.32,0.07058
4343.53,0.07092
4337.75,0.07140
4331.96,0.07251
4326.18,0.07140
4320.39,0.07218
4314.6,0.07376
4308.82,0.07316
4303.03,0.07438
4297.24,0.07490
4291.46,0.07518
4285.67,0.07614
4279.89,0.07488
4274.1,0.07512
4268.31,0.07590
4262.53,0.07582
4256.74,0.07594
4250.95,0.07607
4245.17,0.07683
4239.38,0.07691
4233.6,0.07646
4227.81,0.07699
4222.02,0.07781
4216.24,0.07815
4210.45,0.07839
4204.66,0.07837
4198.88,0.07958
4193.09,0.07981
4187.31,0.07913
4181.52,0.07960
4175.73,0.07946
4169.95,0.07930
4164.16,0.08037
4158.37,0.07946
4152.59,0.07905
4146.8,0.07950
4141.02,0.07992
4135.23,0.08027
4129.44,0.07969
4123.66,0.07970
4117.87,0.08037
4112.09,0.07922
4106.3,0.07900
4100.51,0.07912
4094.73,0.07802
4088.94,0.07702
4083.15,0.07715
4077.37,0.07679
4071.58,0.07572
4065.8,0.07517
4060.01,0.07444
4054.22,0.07449
4048.44,0.07374
4042.65,0.07420
4036.86,0.07389
4031.08,0.07358
4025.29,0.07429
4019.51,0.07449
4013.72,0.07440
4007.93,0.07479
4002.15,0.07498
3996.36,0.07573
3990.57,0.07580
3984.79,0.07668
3979,0.07755
3973.22,0.07790
3967.43,0.07952
3961.64,0.07986
3955.86,0.08054
3950.07,0.08122
3944.28,0.08149
3938.5,0.08262
3932.71,0.08299
3926.93,0.08273
3921.14,0.08396
3915.35,0.08448
3909.57,0.08478
3903.78,0.08495
3897.99,0.08525
3892.21,0.08580
3886.42,0.08643
3880.64,0.08636
3874.85,0.08673
3869.06,0.08736
3863.28,0.08777
3857.49,0.08749
3851.7,0.08768
3845.92,0.08870
3840.13,0.08953
3834.35,0.08941
3828.56,0.08906
3822.77,0.09026
3816.99,0.09037
3811.2,0.08952
3805.41,0.09004
3799.63,0.09061
3793.84,0.09079
3788.06,0.09152
3782.27,0.09178
3776.48,0.09192
3770.7,0.09197
3764.91,0.09253
3759.12,0.09232
3753.34,0.09367
3747.55,0.09434
3741.77,0.09428
3735.98,0.09493
3730.19,0.09377
3724.41,0.09444
3718.62,0.09440
3712.83,0.09478
3707.05,0.09429
3701.26,0.09338
3695.48,0.09268
3689.69,0.09194
3683.9,0.09010
3678.12,0.08910
3672.33,0.08688
3666.54,0.08338
3660.76,0.08180
3654.97,0.07987
3649.19,0.07778
3643.4,0.07584
3637.61,0.07549
3631.83,0.07424
3626.04,0.07270
3620.25,0.07262
3614.47,0.07162
3608.68,0.07037
3602.9,0.07033
3597.11,0.06921
3591.32,0.06870
3585.54,0.06780
3579.75,0.06797
3573.97,0.06676
3568.18,0.06606
3562.39,0.06528
3556.61,0.06421
3550.82,0.06324
3545.03,0.06219
3539.25,0.06183
3533.46,0.06055
3527.68,0.06007
3521.89,0.05990
3516.1,0.05953
3510.32,0.05831
3504.53,0.05894
3498.74,0.05783
3492.96,0.05749
3487.17,0.05677
3481.39,0.05617
3475.6,0.05413
3469.81,0.05300
3464.03,0.05124
3458.24,0.05004
3452.45,0.04891
3446.67,0.04796
3440.88,0.04736
3435.1,0.04669
3429.31,0.04544
3423.52,0.04349
3417.74,0.04244
3411.95,0.03972
3406.16,0.03824
3400.38,0.03654
3394.59,0.03538
3388.81,0.03439
3383.02,0.03340
3377.23,0.03211
3371.45,0.03181
3365.66,0.03167
3359.87,0.03134
3354.09,0.03069
3348.3,0.03028
3342.52,0.03050
3336.73,0.02984
3330.94,0.02981
3325.16,0.02974
3319.37,0.02920
3313.58,0.02892
3307.8,0.02949
3302.01,0.02942
3296.23,0.02879
3290.44,0.02982
3284.65,0.02947
3278.87,0.03006
3273.08,0.03009
3267.29,0.03018
3261.51,0.03031
3255.72,0.03168
3249.94,0.03203
3244.15,0.03211
3238.36,0.03269
3232.58,0.03390
3226.79,0.03423
3221,0.03508
3215.22,0.03562
3209.43,0.03565
3203.65,0.03543
3197.86,0.03563
3192.07,0.03660
3186.29,0.03707
3180.5,0.03795
3174.71,0.03840
3168.93,0.03919
3163.14,0.03932
3157.36,0.03970
3151.57,0.03966
3145.78,0.04054
3140,0.04006
3134.21,0.04001
3128.42,0.04039
3122.64,0.04005
3116.85,0.03979
3111.07,0.04030
3105.28,0.03990
3099.49,0.03970
3093.71,0.03927
3087.92,0.03815
3082.14,0.03784
3076.35,0.03798
3070.56,0.03729
3064.78,0.03663
3058.99,0.03627
3053.2,0.03660
3047.42,0.03740
3041.63,0.03681
3035.85,0.03546
3030.06,0.03446
3024.27,0.03443
3018.49,0.03610
3012.7,0.03583
3006.91,0.03518
3001.13,0.03396
2995.34,0.03210
2989.56,0.03023
2983.77,0.02795
2977.98,0.02736
2972.2,0.02700
2966.41,0.02734
2960.62,0.02812
2954.84,0.02775
2949.05,0.02780
2943.27,0.02799
2937.48,0.02682
2931.69,0.02689
2925.91,0.02724
2920.12,0.02755
2914.33,0.02778
2908.55,0.02793
2902.76,0.02776
2896.98,0.02803
2891.19,0.02796
2885.4,0.02888
2879.62,0.02831
2873.83,0.02824
2868.04,0.02811
2862.26,0.02908
2856.47,0.02970
2850.69,0.03087
2844.9,0.03224
2839.11,0.03462
2833.33,0.03621
2827.54,0.03750
2821.75,0.03905
2815.97,0.04023
2810.18,0.04159
2804.4,0.04222
2798.61,0.04270
2792.82,0.04401
2787.04,0.04440
2781.25,0.04507
2775.46,0.04621
2769.68,0.04693
2763.89,0.04791
2758.11,0.04830
2752.32,0.04881
2746.53,0.04931
2740.75,0.04996
2734.96,0.05064
2729.17,0.05194
2723.39,0.05292
2717.6,0.05507
2711.82,0.05604
2706.03,0.05746
2700.24,0.05899
2694.46,0.06054
2688.67,0.06223
2682.88,0.06320
2677.1,0.06367
2671.31,0.06439
2665.53,0.06536
2659.74,0.06609
2653.95,0.06728
2648.17,0.06776
2642.38,0.06812
2636.59,0.06850
2630.81,0.06951
2625.02,0.07051
2619.24,0.07119
2613.45,0.07157
2607.66,0.07107
2601.88,0.07071
2596.09,0.07113
2590.3,0.07039
2584.52,0.07060
2578.73,0.07122
2572.95,0.07298
2567.16,0.07392
2561.37,0.07497
2555.59,0.07581
2549.8,0.07566
2544.02,0.07662
2538.23,0.07695
2532.44,0.07753
2526.66,0.07755
2520.87,0.07774
2515.08,0.07817
2509.3,0.07828
2503.51,0.07810
2497.73,0.07872
2491.94,0.07930
2486.15,0.07925
2480.37,0.07978
2474.58,0.08044
2468.79,0.08092
2463.01,0.08126
2457.22,0.08149
2451.44,0.08183
2445.65,0.08228
2439.86,0.08269
2434.08,0.08310
2428.29,0.08324
2422.5,0.08290
2416.72,0.08322
2410.93,0.08310
2405.15,0.08289
2399.36,0.08271
2393.57,0.08239
2387.79,0.08221
2382,0.08187
2376.21,0.08159
2370.43,0.08115
2364.64,0.08093
2358.86,0.08074
2353.07,0.08065
2347.28,0.08053
2341.5,0.07993
2335.71,0.07976
2329.92,0.08073
2324.14,0.08008
2318.35,0.07967
2312.57,0.07907
2306.78,0.07826
2300.99,0.07684
2295.21,0.07573
2289.42,0.07456
2283.63,0.07351
2277.85,0.07218
2272.06,0.07175
2266.28,0.07207
2260.49,0.07261
2254.7,0.07243
2248.92,0.06984
2243.13,0.06416
2237.34,0.06122
2231.56,0.06745
2225.77,0.07461
2219.99,0.07700
2214.2,0.07804
2208.41,0.07884
2202.63,0.07930
2196.84,0.07959
2191.05,0.07961
2185.27,0.07987
2179.48,0.07994
2173.7,0.08071
2167.91,0.08102
2162.12,0.08070
2156.34,0.08104
2150.55,0.08102
2144.76,0.08097
2138.98,0.08118
2133.19,0.08139
2127.41,0.08093
2121.62,0.08073
2115.83,0.08052
2110.05,0.08036
2104.26,0.08053
2098.47,0.08008
2092.69,0.07954
2086.9,0.07919
2081.12,0.07882
2075.33,0.07865
2069.54,0.07859
2063.76,0.07800
2057.97,0.07791
2052.19,0.07768
2046.4,0.07714
2040.61,0.07658
2034.83,0.07608
2029.04,0.07519
2023.25,0.07452
2017.47,0.07407
2011.68,0.07362
2005.9,0.07340
2000.11,0.07321
1994.32,0.07272
1988.54,0.07202
1982.75,0.07146
1976.96,0.07088
1971.18,0.07005
1965.39,0.06910
1959.61,0.06851
1953.82,0.06805
1948.03,0.06820
1942.25,0.06900
1936.46,0.07025
1930.67,0.07113
1924.89,0.07126
1919.1,0.07083
1913.32,0.07038
1907.53,0.06983
1901.74,0.06890
1895.96,0.06825
1890.17,0.06762
1884.38,0.06790
1878.6,0.06799
1872.81,0.06821
1867.03,0.06931
1861.24,0.06977
1855.45,0.07020
1849.67,0.06952
1843.88,0.06816
1838.09,0.06688
1832.31,0.06490
1826.52,0.06308
1820.74,0.06051
1814.95,0.05861
1809.16,0.05712
1803.38,0.05570
1797.59,0.05420
1791.8,0.05256
1786.02,0.05154
1780.23,0.04898
1774.45,0.04733
1768.66,0.04501
1762.87,0.04156
1757.09,0.03716
1751.3,0.03216
1745.51,0.02783
1739.73,0.02629
1733.94,0.02657
1728.16,0.02664
1722.37,0.02733
1716.58,0.02746
1710.8,0.02739
1705.01,0.02771
1699.22,0.02776
1693.44,0.02788
1687.65,0.02766
1681.87,0.02768
1676.08,0.02698
1670.29,0.02710
1664.51,0.02648
1658.72,0.02627
1652.93,0.02656
1647.15,0.02609
1641.36,0.02632
1635.58,0.02773
1629.79,0.02851
1624,0.02855
1618.22,0.02747
1612.43,0.02649
1606.64,0.02617
1600.86,0.02578
1595.07,0.02675
1589.29,0.02711
1583.5,0.02738
1577.71,0.02782
1571.93,0.02664
1566.14,0.02536
1560.35,0.02499
1554.57,0.02366
1548.78,0.02458
1543,0.02552
1537.21,0.02589
1531.42,0.02646
1525.64,0.02720
1519.85,0.02790
1514.07,0.02731
1508.28,0.02802
1502.49,0.02873
1496.71,0.02860
1490.92,0.02951
1485.13,0.02944
1479.35,0.02874
1473.56,0.02843
1467.78,0.02845
1461.99,0.02744
1456.2,0.02684
1450.42,0.02748
1444.63,0.02847
1438.84,0.02944
1433.06,0.03006
1427.27,0.02978
1421.49,0.02921
1415.7,0.02832
1409.91,0.02845
1404.13,0.02905
1398.34,0.02902
1392.55,0.02886
1386.77,0.02846
1380.98,0.02732
1375.2,0.02710
1369.41,0.02828
1363.62,0.02977
1357.84,0.02965
1352.05,0.02881
1346.26,0.02804
1340.48,0.02808
1334.69,0.02843
1328.91,0.02783
1323.12,0.02698
1317.33,0.02677
1311.55,0.02621
1305.76,0.02623
1299.97,0.02611
1294.19,0.02617
1288.4,0.02613
1282.62,0.02646
1276.83,0.02667
1271.04,0.02616
1265.26,0.02607
1259.47,0.02603
1253.68,0.02572
1247.9,0.02529
1242.11,0.02516
1236.33,0.02532
1230.54,0.02529
1224.75,0.02584
1218.97,0.02667
1213.18,0.02757
1207.39,0.02777
1201.61,0.02766
1195.82,0.02721
1190.04,0.02754
1184.25,0.02720
1178.46,0.02685
1172.68,0.02675
1166.89,0.02582
1161.1,0.02620
1155.32,0.02540
1149.53,0.02544
1143.75,0.02489
1137.96,0.02456
1132.17,0.02522
1126.39,0.02572
1120.6,0.02657
1114.81,0.02734
1109.03,0.02814
1103.24,0.02899
1097.46,0.02973
1091.67,0.03019
1085.88,0.03032
1080.1,0.02976
1074.31,0.03080
1068.52,0.03175
1062.74,0.03196
1056.95,0.03252
1051.17,0.03238
1045.38,0.03231
1039.59,0.03283
1033.81,0.03321
1028.02,0.03317
1022.24,0.03282
1016.45,0.03280
1010.66,0.03359
1004.88,0.03391
999.09,0.03538
993.304,0.03602
987.518,0.03645
981.731,0.03754
975.945,0.03741
970.159,0.03743
964.373,0.03725
958.586,0.03836
952.8,0.03847
947.014,0.03791
941.228,0.03617
935.441,0.03558
929.655,0.03590
923.869,0.03579
918.083,0.03653
912.297,0.03725
906.51,0.03772
900.724,0.03920
894.938,0.04024
889.152,0.03886
883.365,0.03715
877.579,0.03583
871.793,0.03573
866.007,0.03635
860.22,0.03670
854.434,0.03698
848.648,0.03727
842.862,0.03714
837.075,0.03750
831.289,0.03587
825.503,0.03510
819.717,0.03387
813.931,0.03499
808.144,0.03602
802.358,0.03672
796.572,0.03716
790.786,0.03781
784.999,0.03582
779.213,0.03531
773.427,0.03302
767.641,0.03190
761.854,0.03176
756.068,0.03218
750.282,0.03418
744.496,0.03554
738.709,0.03782
732.923,0.03887
727.137,0.03775
721.351,0.03696
715.565,0.03489
709.778,0.02972
703.992,0.02893
698.206,0.03178
692.42,0.03540
686.633,0.03569
680.847,0.03503
675.061,0.03511
669.275,0.03534
663.488,0.03722
657.702,0.03615
651.916,0.03653
646.13,0.03797
640.343,0.03448
634.557,0.03595
628.771,0.03665
622.985,0.03782
617.198,0.04011
611.412,0.03756
605.626,0.03432
599.84,0.03556