File: 01_Data/Rebond_Foam_Carpet_Pad/FTIR/IS/Rebond_Foam_Carpet_Pad_IS_T_220913_R2.dpt
7497.03,0.01382
7491.25,0.02441
7485.46,0.03465
7479.67,0.02298
7473.89,0.03687
7468.1,0.02746
7462.32,0.02853
7456.53,0.02651
7450.74,0.02109
7444.96,0.02926
7439.17,0.02367
7433.38,0.02233
7427.6,0.03159
7421.81,0.02840
7416.03,0.02871
7410.24,0.03576
7404.45,0.03788
7398.67,0.02721
7392.88,0.02027
7387.09,0.02885
7381.31,0.02684
7375.52,0.02461
7369.74,0.02603
7363.95,0.02432
7358.16,0.02269
7352.38,0.01670
7346.59,0.03031
7340.8,0.02553
7335.02,0.02271
7329.23,0.02789
7323.45,0.02311
7317.66,0.03433
7311.87,0.03203
7306.09,0.03313
7300.3,0.03303
7294.51,0.02562
7288.73,0.02659
7282.94,0.02701
7277.16,0.02115
7271.37,0.02245
7265.58,0.02289
7259.8,0.02137
7254.01,0.02148
7248.22,0.02856
7242.44,0.02946
7236.65,0.02722
7230.87,0.02861
7225.08,0.02027
7219.29,0.02403
7213.51,0.02335
7207.72,0.02881
7201.93,0.03377
7196.15,0.02288
7190.36,0.02778
7184.58,0.02050
7178.79,0.02361
7173,0.02966
7167.22,0.02532
7161.43,0.02378
7155.65,0.02638
7149.86,0.02160
7144.07,0.02127
7138.29,0.02630
7132.5,0.02546
7126.71,0.01554
7120.93,0.02313
7115.14,0.02541
7109.36,0.02356
7103.57,0.02608
7097.78,0.03007
7092,0.02436
7086.21,0.02716
7080.42,0.02248
7074.64,0.01540
7068.85,0.02546
7063.07,0.02678
7057.28,0.02459
7051.49,0.03053
7045.71,0.02631
7039.92,0.02357
7034.13,0.02673
7028.35,0.01937
7022.56,0.02445
7016.78,0.02482
7010.99,0.02584
7005.2,0.02759
6999.42,0.01783
6993.63,0.02171
6987.84,0.02591
6982.06,0.02535
6976.27,0.03149
6970.49,0.03316
6964.7,0.02644
6958.91,0.02111
6953.13,0.02235
6947.34,0.02480
6941.55,0.02350
6935.77,0.02744
6929.98,0.02359
6924.2,0.02869
6918.41,0.02925
6912.62,0.02347
6906.84,0.02741
6901.05,0.02234
6895.26,0.02195
6889.48,0.02276
6883.69,0.02665
6877.91,0.02539
6872.12,0.01875
6866.33,0.02862
6860.55,0.01962
6854.76,0.02105
6848.97,0.02001
6843.19,0.02659
6837.4,0.02271
6831.62,0.02742
6825.83,0.02318
6820.04,0.02095
6814.26,0.02187
6808.47,0.01938
6802.68,0.02043
6796.9,0.02072
6791.11,0.02188
6785.33,0.02574
6779.54,0.02153
6773.75,0.01974
6767.97,0.02413
6762.18,0.02452
6756.39,0.02645
6750.61,0.02350
6744.82,0.02051
6739.04,0.02320
6733.25,0.02054
6727.46,0.02469
6721.68,0.02271
6715.89,0.02269
6710.1,0.02179
6704.32,0.02169
6698.53,0.02728
6692.75,0.01991
6686.96,0.01682
6681.17,0.01771
6675.39,0.02404
6669.6,0.01951
6663.82,0.02400
6658.03,0.02410
6652.24,0.02662
6646.46,0.01815
6640.67,0.02111
6634.88,0.02255
6629.1,0.02143
6623.31,0.02205
6617.53,0.02332
6611.74,0.02830
6605.95,0.02638
6600.17,0.02381
6594.38,0.02211
6588.59,0.02910
6582.81,0.02458
6577.02,0.02271
6571.24,0.02214
6565.45,0.02269
6559.66,0.02002
6553.88,0.02358
6548.09,0.02454
6542.3,0.02106
6536.52,0.02395
6530.73,0.02372
6524.95,0.02285
6519.16,0.02102
6513.37,0.02304
6507.59,0.02297
6501.8,0.02259
6496.01,0.02325
6490.23,0.02494
6484.44,0.02415
6478.66,0.02017
6472.87,0.02436
6467.08,0.02554
6461.3,0.02339
6455.51,0.02283
6449.72,0.02156
6443.94,0.02077
6438.15,0.02254
6432.37,0.02022
6426.58,0.02417
6420.79,0.02330
6415.01,0.02225
6409.22,0.02101
6403.43,0.02334
6397.65,0.02282
6391.86,0.01734
6386.08,0.02312
6380.29,0.02547
6374.5,0.02335
6368.72,0.02149
6362.93,0.02601
6357.14,0.01972
6351.36,0.02076
6345.57,0.01802
6339.79,0.02220
6334,0.02197
6328.21,0.01931
6322.43,0.02162
6316.64,0.02236
6310.85,0.02236
6305.07,0.02234
6299.28,0.02199
6293.5,0.02043
6287.71,0.02445
6281.92,0.02210
6276.14,0.02626
6270.35,0.02102
6264.56,0.02058
6258.78,0.01951
6252.99,0.02172
6247.21,0.02091
6241.42,0.02655
6235.63,0.02525
6229.85,0.02327
6224.06,0.02326
6218.27,0.02206
6212.49,0.02353
6206.7,0.02438
6200.92,0.02629
6195.13,0.02577
6189.34,0.02534
6183.56,0.02140
6177.77,0.02197
6171.98,0.02297
6166.2,0.02141
6160.41,0.02407
6154.63,0.02357
6148.84,0.02199
6143.05,0.02237
6137.27,0.02020
6131.48,0.02086
6125.7,0.02566
6119.91,0.02427
6114.12,0.02109
6108.34,0.02226
6102.55,0.02185
6096.76,0.01928
6090.98,0.01981
6085.19,0.02026
6079.41,0.02004
6073.62,0.02364
6067.83,0.02350
6062.05,0.02031
6056.26,0.02261
6050.47,0.02115
6044.69,0.02252
6038.9,0.02131
6033.12,0.02319
6027.33,0.02330
6021.54,0.02330
6015.76,0.01920
6009.97,0.02369
6004.18,0.02150
5998.4,0.02035
5992.61,0.02293
5986.83,0.02331
5981.04,0.02194
5975.25,0.02136
5969.47,0.01962
5963.68,0.02187
5957.89,0.02130
5952.11,0.02177
5946.32,0.02113
5940.54,0.02073
5934.75,0.02539
5928.96,0.02148
5923.18,0.02260
5917.39,0.02057
5911.6,0.02046
5905.82,0.02331
5900.03,0.02168
5894.25,0.02058
5888.46,0.02071
5882.67,0.02130
5876.89,0.02155
5871.1,0.02012
5865.31,0.02071
5859.53,0.02115
5853.74,0.02212
5847.96,0.02054
5842.17,0.02119
5836.38,0.02118
5830.6,0.02031
5824.81,0.02194
5819.02,0.02295
5813.24,0.02342
5807.45,0.02299
5801.67,0.02014
5795.88,0.02213
5790.09,0.02261
5784.31,0.02238
5778.52,0.02228
5772.73,0.02301
5766.95,0.02246
5761.16,0.02466
5755.38,0.02285
5749.59,0.02111
5743.8,0.02129
5738.02,0.01939
5732.23,0.02163
5726.44,0.02227
5720.66,0.02275
5714.87,0.02142
5709.09,0.02131
5703.3,0.02278
5697.51,0.02344
5691.73,0.02200
5685.94,0.02051
5680.15,0.02170
5674.37,0.02282
5668.58,0.02153
5662.8,0.02246
5657.01,0.02248
5651.22,0.02167
5645.44,0.02278
5639.65,0.02320
5633.87,0.02201
5628.08,0.02260
5622.29,0.02263
5616.51,0.02245
5610.72,0.02122
5604.93,0.02035
5599.15,0.02268
5593.36,0.02445
5587.58,0.02429
5581.79,0.02258
5576,0.02063
5570.22,0.02285
5564.43,0.02315
5558.64,0.02154
5552.86,0.02404
5547.07,0.02172
5541.29,0.02140
5535.5,0.02314
5529.71,0.02246
5523.93,0.02408
5518.14,0.01976
5512.35,0.02236
5506.57,0.02252
5500.78,0.02175
5495,0.02278
5489.21,0.02169
5483.42,0.02065
5477.64,0.02110
5471.85,0.02372
5466.06,0.02191
5460.28,0.02052
5454.49,0.02142
5448.71,0.02166
5442.92,0.02267
5437.13,0.02293
5431.35,0.02379
5425.56,0.02364
5419.77,0.02238
5413.99,0.02249
5408.2,0.02199
5402.42,0.02240
5396.63,0.02220
5390.84,0.02356
5385.06,0.02223
5379.27,0.02112
5373.48,0.02212
5367.7,0.02247
5361.91,0.02301
5356.13,0.02333
5350.34,0.02359
5344.55,0.02255
5338.77,0.02442
5332.98,0.02195
5327.19,0.02096
5321.41,0.02281
5315.62,0.02223
5309.84,0.02089
5304.05,0.02283
5298.26,0.02210
5292.48,0.02420
5286.69,0.02183
5280.9,0.02325
5275.12,0.02258
5269.33,0.02406
5263.55,0.02327
5257.76,0.02186
5251.97,0.02210
5246.19,0.02156
5240.4,0.02412
5234.61,0.02227
5228.83,0.02040
5223.04,0.02183
5217.26,0.02129
5211.47,0.02172
5205.68,0.02162
5199.9,0.02190
5194.11,0.02150
5188.32,0.02381
5182.54,0.02254
5176.75,0.02109
5170.97,0.02397
5165.18,0.02200
5159.39,0.02320
5153.61,0.02233
5147.82,0.02229
5142.03,0.02252
5136.25,0.02087
5130.46,0.02297
5124.68,0.02201
5118.89,0.02190
5113.1,0.02325
5107.32,0.02204
5101.53,0.02174
5095.75,0.02074
5089.96,0.02245
5084.17,0.02185
5078.39,0.02226
5072.6,0.02294
5066.81,0.02281
5061.03,0.02349
5055.24,0.02191
5049.46,0.02317
5043.67,0.02231
5037.88,0.02287
5032.1,0.02320
5026.31,0.02318
5020.52,0.02227
5014.74,0.02242
5008.95,0.02184
5003.17,0.02281
4997.38,0.02134
4991.59,0.02198
4985.81,0.02259
4980.02,0.02261
4974.23,0.02220
4968.45,0.02356
4962.66,0.02220
4956.88,0.02246
4951.09,0.02290
4945.3,0.02380
4939.52,0.02224
4933.73,0.02293
4927.94,0.02313
4922.16,0.02268
4916.37,0.02323
4910.59,0.02243
4904.8,0.02165
4899.01,0.02165
4893.23,0.02290
4887.44,0.02343
4881.65,0.02185
4875.87,0.02201
4870.08,0.02390
4864.3,0.02231
4858.51,0.02197
4852.72,0.02236
4846.94,0.02241
4841.15,0.02234
4835.36,0.02179
4829.58,0.02318
4823.79,0.02185
4818.01,0.02300
4812.22,0.02261
4806.43,0.02274
4800.65,0.02254
4794.86,0.02284
4789.07,0.02286
4783.29,0.02260
4777.5,0.02270
4771.72,0.02295
4765.93,0.02350
4760.14,0.02257
4754.36,0.02212
4748.57,0.02349
4742.78,0.02306
4737,0.02264
4731.21,0.02290
4725.43,0.02221
4719.64,0.02317
4713.85,0.02164
4708.07,0.02224
4702.28,0.02313
4696.49,0.02324
4690.71,0.02356
4684.92,0.02246
4679.14,0.02231
4673.35,0.02205
4667.56,0.02266
4661.78,0.02202
4655.99,0.02280
4650.2,0.02310
4644.42,0.02228
4638.63,0.02347
4632.85,0.02295
4627.06,0.02228
4621.27,0.02267
4615.49,0.02257
4609.7,0.02214
4603.92,0.02237
4598.13,0.02278
4592.34,0.02345
4586.56,0.02258
4580.77,0.02200
4574.98,0.02304
4569.2,0.02326
4563.41,0.02209
4557.63,0.02307
4551.84,0.02347
4546.05,0.02267
4540.27,0.02244
4534.48,0.02221
4528.69,0.02235
4522.91,0.02271
4517.12,0.02396
4511.34,0.02279
4505.55,0.02210
4499.76,0.02267
4493.98,0.02310
4488.19,0.02257
4482.4,0.02242
4476.62,0.02258
4470.83,0.02243
4465.05,0.02312
4459.26,0.02376
4453.47,0.02274
4447.69,0.02198
4441.9,0.02230
4436.11,0.02177
4430.33,0.02339
4424.54,0.02294
4418.76,0.02291
4412.97,0.02195
4407.18,0.02354
4401.4,0.02289
4395.61,0.02341
4389.82,0.02285
4384.04,0.02296
4378.25,0.02159
4372.47,0.02211
4366.68,0.02211
4360.89,0.02175
4355.11,0.02247
4349.32,0.02285
4343.53,0.02229
4337.75,0.02224
4331.96,0.02177
4326.18,0.02218
4320.39,0.02338
4314.6,0.02292
4308.82,0.02236
4303.03,0.02282
4297.24,0.02343
4291.46,0.02308
4285.67,0.02201
4279.89,0.02226
4274.1,0.02262
4268.31,0.02239
4262.53,0.02333
4256.74,0.02159
4250.95,0.02284
4245.17,0.02276
4239.38,0.02312
4233.6,0.02334
4227.81,0.02225
4222.02,0.02231
4216.24,0.02185
4210.45,0.02332
4204.66,0.02338
4198.88,0.02292
4193.09,0.02350
4187.31,0.02215
4181.52,0.02283
4175.73,0.02239
4169.95,0.02243
4164.16,0.02329
4158.37,0.02259
4152.59,0.02304
4146.8,0.02214
4141.02,0.02192
4135.23,0.02251
4129.44,0.02238
4123.66,0.02295
4117.87,0.02217
4112.09,0.02257
4106.3,0.02336
4100.51,0.02305
4094.73,0.02289
4088.94,0.02298
4083.15,0.02322
4077.37,0.02296
4071.58,0.02285
4065.8,0.02254
4060.01,0.02294
4054.22,0.02176
4048.44,0.02231
4042.65,0.02252
4036.86,0.02330
4031.08,0.02264
4025.29,0.02194
4019.51,0.02279
4013.72,0.02274
4007.93,0.02308
4002.15,0.02279
3996.36,0.02254
3990.57,0.02238
3984.79,0.02292
3979,0.02297
3973.22,0.02268
3967.43,0.02263
3961.64,0.02277
3955.86,0.02237
3950.07,0.02278
3944.28,0.02242
3938.5,0.02214
3932.71,0.02284
3926.93,0.02268
3921.14,0.02291
3915.35,0.02275
3909.57,0.02319
3903.78,0.02346
3897.99,0.02318
3892.21,0.02261
3886.42,0.02265
3880.64,0.02324
3874.85,0.02251
3869.06,0.02183
3863.28,0.02228
3857.49,0.02370
3851.7,0.02294
3845.92,0.02304
3840.13,0.02281
3834.35,0.02293
3828.56,0.02402
3822.77,0.02305
3816.99,0.02329
3811.2,0.02328
3805.41,0.02248
3799.63,0.02231
3793.84,0.02305
3788.06,0.02323
3782.27,0.02295
3776.48,0.02303
3770.7,0.02275
3764.91,0.02306
3759.12,0.02279
3753.34,0.02300
3747.55,0.02295
3741.77,0.02187
3735.98,0.02257
3730.19,0.02237
3724.41,0.02253
3718.62,0.02266
3712.83,0.02290
3707.05,0.02231
3701.26,0.02297
3695.48,0.02301
3689.69,0.02297
3683.9,0.02180
3678.12,0.02271
3672.33,0.02206
3666.54,0.02216
3660.76,0.02287
3654.97,0.02219
3649.19,0.02226
3643.4,0.02230
3637.61,0.02245
3631.83,0.02250
3626.04,0.02193
3620.25,0.02213
3614.47,0.02160
3608.68,0.02216
3602.9,0.02229
3597.11,0.02192
3591.32,0.02176
3585.54,0.02217
3579.75,0.02126
3573.97,0.02183
3568.18,0.02193
3562.39,0.02131
3556.61,0.02159
3550.82,0.02154
3545.03,0.02158
3539.25,0.02217
3533.46,0.02147
3527.68,0.02132
3521.89,0.02129
3516.1,0.02096
3510.32,0.02140
3504.53,0.02094
3498.74,0.02096
3492.96,0.02139
3487.17,0.02136
3481.39,0.02109
3475.6,0.02053
3469.81,0.02133
3464.03,0.02145
3458.24,0.02102
3452.45,0.02061
3446.67,0.02115
3440.88,0.02118
3435.1,0.02136
3429.31,0.02099
3423.52,0.02095
3417.74,0.02031
3411.95,0.02109
3406.16,0.02057
3400.38,0.02090
3394.59,0.02058
3388.81,0.02050
3383.02,0.02096
3377.23,0.02098
3371.45,0.02063
3365.66,0.02046
3359.87,0.02027
3354.09,0.02083
3348.3,0.02070
3342.52,0.02033
3336.73,0.02065
3330.94,0.02036
3325.16,0.02045
3319.37,0.02072
3313.58,0.02050
3307.8,0.02039
3302.01,0.02113
3296.23,0.02092
3290.44,0.02071
3284.65,0.02040
3278.87,0.02104
3273.08,0.02003
3267.29,0.02022
3261.51,0.02100
3255.72,0.02041
3249.94,0.02126
3244.15,0.02126
3238.36,0.02117
3232.58,0.02157
3226.79,0.02101
3221,0.02046
3215.22,0.02108
3209.43,0.02094
3203.65,0.02066
3197.86,0.02079
3192.07,0.02009
3186.29,0.02087
3180.5,0.02066
3174.71,0.02031
3168.93,0.02109
3163.14,0.02142
3157.36,0.02097
3151.57,0.02106
3145.78,0.02122
3140,0.02136
3134.21,0.02079
3128.42,0.02102
3122.64,0.02138
3116.85,0.02125
3111.07,0.02106
3105.28,0.02104
3099.49,0.02065
3093.71,0.02116
3087.92,0.02116
3082.14,0.02018
3076.35,0.02034
3070.56,0.02088
3064.78,0.02077
3058.99,0.02098
3053.2,0.02150
3047.42,0.02036
3041.63,0.02036
3035.85,0.02059
3030.06,0.02114
3024.27,0.02087
3018.49,0.02098
3012.7,0.02029
3006.91,0.02034
3001.13,0.02054
2995.34,0.02056
2989.56,0.01991
2983.77,0.01990
2977.98,0.01972
2972.2,0.01948
2966.41,0.01982
2960.62,0.01979
2954.84,0.01963
2949.05,0.01966
2943.27,0.01937
2937.48,0.01998
2931.69,0.01999
2925.91,0.02034
2920.12,0.02033
2914.33,0.02060
2908.55,0.02047
2902.76,0.02044
2896.98,0.02058
2891.19,0.02009
2885.4,0.02040
2879.62,0.02028
2873.83,0.02015
2868.04,0.02073
2862.26,0.02054
2856.47,0.02056
2850.69,0.02051
2844.9,0.02121
2839.11,0.02133
2833.33,0.02068
2827.54,0.02161
2821.75,0.02088
2815.97,0.02183
2810.18,0.02184
2804.4,0.02125
2798.61,0.02156
2792.82,0.02188
2787.04,0.02140
2781.25,0.02143
2775.46,0.02103
2769.68,0.02091
2763.89,0.02143
2758.11,0.02117
2752.32,0.02094
2746.53,0.02109
2740.75,0.02153
2734.96,0.02130
2729.17,0.02108
2723.39,0.02145
2717.6,0.02153
2711.82,0.02133
2706.03,0.02162
2700.24,0.02106
2694.46,0.02153
2688.67,0.02128
2682.88,0.02133
2677.1,0.02119
2671.31,0.02114
2665.53,0.02126
2659.74,0.02147
2653.95,0.02134
2648.17,0.02124
2642.38,0.02133
2636.59,0.02170
2630.81,0.02141
2625.02,0.02113
2619.24,0.02089
2613.45,0.02134
2607.66,0.02169
2601.88,0.02197
2596.09,0.02144
2590.3,0.02146
2584.52,0.02141
2578.73,0.02140
2572.95,0.02141
2567.16,0.02149
2561.37,0.02136
2555.59,0.02122
2549.8,0.02128
2544.02,0.02186
2538.23,0.02171
2532.44,0.02134
2526.66,0.02166
2520.87,0.02131
2515.08,0.02094
2509.3,0.02125
2503.51,0.02142
2497.73,0.02140
2491.94,0.02116
2486.15,0.02163
2480.37,0.02082
2474.58,0.02126
2468.79,0.02151
2463.01,0.02166
2457.22,0.02124
2451.44,0.02152
2445.65,0.02153
2439.86,0.02116
2434.08,0.02133
2428.29,0.02170
2422.5,0.02158
2416.72,0.02144
2410.93,0.02126
2405.15,0.02099
2399.36,0.02120
2393.57,0.02080
2387.79,0.02134
2382,0.02137
2376.21,0.02135
2370.43,0.02132
2364.64,0.02139
2358.86,0.02153
2353.07,0.02174
2347.28,0.02105
2341.5,0.02114
2335.71,0.02139
2329.92,0.02153
2324.14,0.02136
2318.35,0.02112
2312.57,0.02127
2306.78,0.02091
2300.99,0.02123
2295.21,0.02099
2289.42,0.02131
2283.63,0.02127
2277.85,0.02111
2272.06,0.02145
2266.28,0.02076
2260.49,0.02149
2254.7,0.02118
2248.92,0.02127
2243.13,0.02123
2237.34,0.02101
2231.56,0.02125
2225.77,0.02091
2219.99,0.02095
2214.2,0.02151
2208.41,0.02100
2202.63,0.02102
2196.84,0.02100
2191.05,0.02106
2185.27,0.02092
2179.48,0.02090
2173.7,0.02106
2167.91,0.02106
2162.12,0.02091
2156.34,0.02128
2150.55,0.02129
2144.76,0.02105
2138.98,0.02133
2133.19,0.02135
2127.41,0.02110
2121.62,0.02075
2115.83,0.02076
2110.05,0.02100
2104.26,0.02092
2098.47,0.02127
2092.69,0.02089
2086.9,0.02106
2081.12,0.02096
2075.33,0.02056
2069.54,0.02079
2063.76,0.02061
2057.97,0.02072
2052.19,0.02116
2046.4,0.02123
2040.61,0.02082
2034.83,0.02112
2029.04,0.02087
2023.25,0.02098
2017.47,0.02078
2011.68,0.02071
2005.9,0.02066
2000.11,0.02091
1994.32,0.02093
1988.54,0.02107
1982.75,0.02067
1976.96,0.02091
1971.18,0.02103
1965.39,0.02112
1959.61,0.02113
1953.82,0.02126
1948.03,0.02070
1942.25,0.02073
1936.46,0.02060
1930.67,0.02084
1924.89,0.02117
1919.1,0.02096
1913.32,0.02075
1907.53,0.02061
1901.74,0.02054
1895.96,0.02060
1890.17,0.02054
1884.38,0.02041
1878.6,0.02053
1872.81,0.02059
1867.03,0.02083
1861.24,0.02028
1855.45,0.02016
1849.67,0.02035
1843.88,0.02029
1838.09,0.01985
1832.31,0.02008
1826.52,0.02009
1820.74,0.01995
1814.95,0.01991
1809.16,0.01981
1803.38,0.01977
1797.59,0.01954
1791.8,0.01924
1786.02,0.01939
1780.23,0.01943
1774.45,0.01906
1768.66,0.01878
1762.87,0.01799
1757.09,0.01748
1751.3,0.01731
1745.51,0.01767
1739.73,0.01865
1733.94,0.01947
1728.16,0.02045
1722.37,0.02107
1716.58,0.02125
1710.8,0.02047
1705.01,0.02013
1699.22,0.01970
1693.44,0.01914
1687.65,0.01900
1681.87,0.01891
1676.08,0.01883
1670.29,0.01854
1664.51,0.01847
1658.72,0.01874
1652.93,0.01908
1647.15,0.01887
1641.36,0.01871
1635.58,0.01872
1629.79,0.01871
1624,0.01889
1618.22,0.01889
1612.43,0.01888
1606.64,0.01889
1600.86,0.01901
1595.07,0.01904
1589.29,0.01890
1583.5,0.01846
1577.71,0.01857
1571.93,0.01849
1566.14,0.01821
1560.35,0.01820
1554.57,0.01786
1548.78,0.01836
1543,0.01885
1537.21,0.01853
1531.42,0.01841
1525.64,0.01852
1519.85,0.01871
1514.07,0.01899
1508.28,0.01848
1502.49,0.01875
1496.71,0.01908
1490.92,0.01857
1485.13,0.01875
1479.35,0.01818
1473.56,0.01854
1467.78,0.01882
1461.99,0.01860
1456.2,0.01856
1450.42,0.01872
1444.63,0.01873
1438.84,0.01918
1433.06,0.01893
1427.27,0.01905
1421.49,0.01876
1415.7,0.01874
1409.91,0.01859
1404.13,0.01858
1398.34,0.01841
1392.55,0.01832
1386.77,0.01821
1380.98,0.01835
1375.2,0.01849
1369.41,0.01829
1363.62,0.01846
1357.84,0.01838
1352.05,0.01806
1346.26,0.01816
1340.48,0.01768
1334.69,0.01775
1328.91,0.01746
1323.12,0.01751
1317.33,0.01742
1311.55,0.01692
1305.76,0.01753
1299.97,0.01722
1294.19,0.01783
1288.4,0.01813
1282.62,0.01862
1276.83,0.01942
1271.04,0.01942
1265.26,0.01947
1259.47,0.01966
1253.68,0.02030
1247.9,0.02050
1242.11,0.02007
1236.33,0.01994
1230.54,0.01972
1224.75,0.01931
1218.97,0.01934
1213.18,0.01912
1207.39,0.01889
1201.61,0.01857
1195.82,0.01839
1190.04,0.01808
1184.25,0.01813
1178.46,0.01864
1172.68,0.01811
1166.89,0.01745
1161.1,0.01774
1155.32,0.01798
1149.53,0.01780
1143.75,0.01791
1137.96,0.01798
1132.17,0.01822
1126.39,0.01804
1120.6,0.01826
1114.81,0.01860
1109.03,0.01865
1103.24,0.01825
1097.46,0.01808
1091.67,0.01826
1085.88,0.01831
1080.1,0.01886
1074.31,0.01876
1068.52,0.01955
1062.74,0.01964
1056.95,0.02008
1051.17,0.01990
1045.38,0.01948
1039.59,0.02001
1033.81,0.01923
1028.02,0.01870
1022.24,0.01914
1016.45,0.02037
1010.66,0.01988
1004.88,0.02077
999.09,0.02107
993.304,0.02090
987.518,0.02071
981.731,0.02060
975.945,0.02011
970.159,0.02042
964.373,0.02030
958.586,0.02033
952.8,0.01951
947.014,0.01970
941.228,0.01923
935.441,0.02011
929.655,0.01947
923.869,0.01935
918.083,0.01964
912.297,0.01933
906.51,0.01938
900.724,0.01882
894.938,0.01884
889.152,0.01906
883.365,0.01939
877.579,0.01882
871.793,0.01898
866.007,0.01917
860.22,0.01918
854.434,0.01893
848.648,0.01870
842.862,0.01907
837.075,0.01949
831.289,0.01923
825.503,0.01918
819.717,0.01890
813.931,0.01926
808.144,0.01881
802.358,0.01871
796.572,0.01906
790.786,0.01880
784.999,0.01892
779.213,0.01891
773.427,0.01877
767.641,0.01951
761.854,0.01869
756.068,0.01798
750.282,0.01736
744.496,0.01835
738.709,0.01836
732.923,0.01907
727.137,0.01775
721.351,0.01729
715.565,0.01845
709.778,0.01792
703.992,0.01778
698.206,0.01848
692.42,0.01740
686.633,0.01888
680.847,0.01714
675.061,0.01703
669.275,0.01672
663.488,0.01863
657.702,0.01638
651.916,0.01599
646.13,0.01647
640.343,0.01637
634.557,0.01501
628.771,0.01652
622.985,0.01455
617.198,0.01390
611.412,0.01639
605.626,0.01566
599.84,0.01583