File: 01_Data/Rebond_Foam_Carpet_Pad/FTIR/IS/Rebond_Foam_Carpet_Pad_IS_S_220913_R1.dpt
7497.03,0.09730
7491.25,0.09429
7485.46,0.09073
7479.67,0.08843
7473.89,0.09488
7468.1,0.09144
7462.32,0.09510
7456.53,0.09764
7450.74,0.08768
7444.96,0.09305
7439.17,0.09080
7433.38,0.09548
7427.6,0.09928
7421.81,0.10338
7416.03,0.08827
7410.24,0.09549
7404.45,0.08868
7398.67,0.09703
7392.88,0.09506
7387.09,0.09734
7381.31,0.09139
7375.52,0.09664
7369.74,0.09586
7363.95,0.09271
7358.16,0.10471
7352.38,0.10390
7346.59,0.09410
7340.8,0.09637
7335.02,0.09875
7329.23,0.08593
7323.45,0.09135
7317.66,0.09458
7311.87,0.09643
7306.09,0.09401
7300.3,0.09174
7294.51,0.09071
7288.73,0.09754
7282.94,0.09195
7277.16,0.09596
7271.37,0.08639
7265.58,0.09116
7259.8,0.09311
7254.01,0.09739
7248.22,0.08864
7242.44,0.09247
7236.65,0.09619
7230.87,0.10105
7225.08,0.09416
7219.29,0.08807
7213.51,0.08568
7207.72,0.08964
7201.93,0.09084
7196.15,0.09355
7190.36,0.09567
7184.58,0.08848
7178.79,0.09530
7173,0.09480
7167.22,0.09160
7161.43,0.09503
7155.65,0.09424
7149.86,0.09161
7144.07,0.09111
7138.29,0.09378
7132.5,0.09833
7126.71,0.09410
7120.93,0.09473
7115.14,0.09465
7109.36,0.09508
7103.57,0.09426
7097.78,0.09534
7092,0.09543
7086.21,0.08840
7080.42,0.08948
7074.64,0.09457
7068.85,0.09863
7063.07,0.09595
7057.28,0.09586
7051.49,0.09052
7045.71,0.09431
7039.92,0.09145
7034.13,0.09132
7028.35,0.08977
7022.56,0.09863
7016.78,0.09119
7010.99,0.09410
7005.2,0.08983
6999.42,0.09526
6993.63,0.09629
6987.84,0.09823
6982.06,0.09561
6976.27,0.09372
6970.49,0.09374
6964.7,0.09474
6958.91,0.09913
6953.13,0.09063
6947.34,0.09571
6941.55,0.09498
6935.77,0.09239
6929.98,0.09240
6924.2,0.09533
6918.41,0.09535
6912.62,0.09460
6906.84,0.09859
6901.05,0.09735
6895.26,0.10293
6889.48,0.09678
6883.69,0.10133
6877.91,0.09458
6872.12,0.09562
6866.33,0.09353
6860.55,0.09239
6854.76,0.09090
6848.97,0.09680
6843.19,0.09614
6837.4,0.09092
6831.62,0.09290
6825.83,0.09640
6820.04,0.09372
6814.26,0.10048
6808.47,0.09608
6802.68,0.09432
6796.9,0.09339
6791.11,0.09773
6785.33,0.09300
6779.54,0.09312
6773.75,0.09358
6767.97,0.09118
6762.18,0.09147
6756.39,0.09171
6750.61,0.09665
6744.82,0.09601
6739.04,0.09575
6733.25,0.09159
6727.46,0.09585
6721.68,0.09190
6715.89,0.09576
6710.1,0.09669
6704.32,0.09229
6698.53,0.09933
6692.75,0.09109
6686.96,0.09311
6681.17,0.09666
6675.39,0.09555
6669.6,0.09554
6663.82,0.08909
6658.03,0.09401
6652.24,0.09474
6646.46,0.09356
6640.67,0.09487
6634.88,0.09452
6629.1,0.09500
6623.31,0.09320
6617.53,0.09243
6611.74,0.09200
6605.95,0.09303
6600.17,0.09511
6594.38,0.09315
6588.59,0.09597
6582.81,0.09590
6577.02,0.09509
6571.24,0.09503
6565.45,0.09447
6559.66,0.09517
6553.88,0.09591
6548.09,0.09520
6542.3,0.09503
6536.52,0.09837
6530.73,0.09629
6524.95,0.09700
6519.16,0.09601
6513.37,0.09684
6507.59,0.09222
6501.8,0.09494
6496.01,0.09329
6490.23,0.09589
6484.44,0.09753
6478.66,0.09461
6472.87,0.09484
6467.08,0.09445
6461.3,0.09240
6455.51,0.09309
6449.72,0.09391
6443.94,0.09705
6438.15,0.09540
6432.37,0.09550
6426.58,0.09642
6420.79,0.09724
6415.01,0.09185
6409.22,0.09375
6403.43,0.09530
6397.65,0.09667
6391.86,0.09838
6386.08,0.09833
6380.29,0.09552
6374.5,0.09563
6368.72,0.09456
6362.93,0.09662
6357.14,0.09649
6351.36,0.09505
6345.57,0.09276
6339.79,0.09854
6334,0.09792
6328.21,0.09373
6322.43,0.09466
6316.64,0.09521
6310.85,0.09587
6305.07,0.09856
6299.28,0.09982
6293.5,0.09603
6287.71,0.09607
6281.92,0.09476
6276.14,0.09436
6270.35,0.09778
6264.56,0.09304
6258.78,0.09368
6252.99,0.09488
6247.21,0.09434
6241.42,0.10062
6235.63,0.09760
6229.85,0.09660
6224.06,0.09750
6218.27,0.09627
6212.49,0.09721
6206.7,0.09583
6200.92,0.09456
6195.13,0.09547
6189.34,0.09557
6183.56,0.09733
6177.77,0.09894
6171.98,0.09510
6166.2,0.09621
6160.41,0.09480
6154.63,0.09792
6148.84,0.09679
6143.05,0.09593
6137.27,0.09475
6131.48,0.09509
6125.7,0.09562
6119.91,0.09639
6114.12,0.09909
6108.34,0.09644
6102.55,0.09546
6096.76,0.09479
6090.98,0.09671
6085.19,0.09527
6079.41,0.09659
6073.62,0.09655
6067.83,0.09796
6062.05,0.09524
6056.26,0.09762
6050.47,0.09871
6044.69,0.09402
6038.9,0.09454
6033.12,0.09602
6027.33,0.09590
6021.54,0.09697
6015.76,0.09122
6009.97,0.09681
6004.18,0.09828
5998.4,0.09313
5992.61,0.09435
5986.83,0.09539
5981.04,0.09563
5975.25,0.09339
5969.47,0.09376
5963.68,0.09457
5957.89,0.09383
5952.11,0.09437
5946.32,0.08988
5940.54,0.09204
5934.75,0.09326
5928.96,0.09287
5923.18,0.09162
5917.39,0.09157
5911.6,0.08967
5905.82,0.09114
5900.03,0.09034
5894.25,0.09304
5888.46,0.09040
5882.67,0.09216
5876.89,0.09237
5871.1,0.09321
5865.31,0.09065
5859.53,0.09132
5853.74,0.09212
5847.96,0.09272
5842.17,0.09009
5836.38,0.09095
5830.6,0.09328
5824.81,0.09081
5819.02,0.09009
5813.24,0.09158
5807.45,0.09054
5801.67,0.09008
5795.88,0.08954
5790.09,0.09105
5784.31,0.09051
5778.52,0.09095
5772.73,0.09154
5766.95,0.09060
5761.16,0.08908
5755.38,0.09018
5749.59,0.09026
5743.8,0.09143
5738.02,0.08974
5732.23,0.09166
5726.44,0.09215
5720.66,0.09152
5714.87,0.09222
5709.09,0.09477
5703.3,0.09103
5697.51,0.09283
5691.73,0.09389
5685.94,0.09144
5680.15,0.09218
5674.37,0.09590
5668.58,0.09383
5662.8,0.09200
5657.01,0.09602
5651.22,0.09605
5645.44,0.09587
5639.65,0.09561
5633.87,0.09494
5628.08,0.09655
5622.29,0.09660
5616.51,0.09465
5610.72,0.09457
5604.93,0.09737
5599.15,0.09626
5593.36,0.09529
5587.58,0.09631
5581.79,0.09441
5576,0.09756
5570.22,0.09795
5564.43,0.09694
5558.64,0.09656
5552.86,0.09862
5547.07,0.09534
5541.29,0.09556
5535.5,0.09649
5529.71,0.09764
5523.93,0.09716
5518.14,0.09576
5512.35,0.09757
5506.57,0.09560
5500.78,0.09710
5495,0.09620
5489.21,0.09677
5483.42,0.09707
5477.64,0.09671
5471.85,0.09849
5466.06,0.09769
5460.28,0.09941
5454.49,0.10008
5448.71,0.09860
5442.92,0.09859
5437.13,0.09950
5431.35,0.09792
5425.56,0.09803
5419.77,0.09997
5413.99,0.10059
5408.2,0.09850
5402.42,0.10018
5396.63,0.09833
5390.84,0.09922
5385.06,0.10069
5379.27,0.10060
5373.48,0.09809
5367.7,0.10048
5361.91,0.09922
5356.13,0.09950
5350.34,0.10009
5344.55,0.10082
5338.77,0.10171
5332.98,0.10049
5327.19,0.09895
5321.41,0.10118
5315.62,0.10099
5309.84,0.10046
5304.05,0.10164
5298.26,0.10029
5292.48,0.10119
5286.69,0.10041
5280.9,0.09856
5275.12,0.09929
5269.33,0.10046
5263.55,0.09881
5257.76,0.09835
5251.97,0.09910
5246.19,0.09961
5240.4,0.09831
5234.61,0.09919
5228.83,0.09766
5223.04,0.09895
5217.26,0.09838
5211.47,0.09899
5205.68,0.09837
5199.9,0.10033
5194.11,0.10024
5188.32,0.09973
5182.54,0.09882
5176.75,0.09909
5170.97,0.09956
5165.18,0.09957
5159.39,0.09987
5153.61,0.10016
5147.82,0.10018
5142.03,0.09850
5136.25,0.09919
5130.46,0.09840
5124.68,0.09849
5118.89,0.09924
5113.1,0.10027
5107.32,0.09987
5101.53,0.10005
5095.75,0.09999
5089.96,0.09917
5084.17,0.10030
5078.39,0.09983
5072.6,0.09998
5066.81,0.10016
5061.03,0.09920
5055.24,0.09957
5049.46,0.09932
5043.67,0.09827
5037.88,0.09841
5032.1,0.09949
5026.31,0.09857
5020.52,0.10004
5014.74,0.09966
5008.95,0.09927
5003.17,0.09870
4997.38,0.09740
4991.59,0.09771
4985.81,0.09857
4980.02,0.09655
4974.23,0.09541
4968.45,0.09648
4962.66,0.09586
4956.88,0.09599
4951.09,0.09502
4945.3,0.09558
4939.52,0.09515
4933.73,0.09543
4927.94,0.09478
4922.16,0.09388
4916.37,0.09494
4910.59,0.09346
4904.8,0.09324
4899.01,0.09304
4893.23,0.09366
4887.44,0.09235
4881.65,0.09233
4875.87,0.09306
4870.08,0.09255
4864.3,0.09249
4858.51,0.09293
4852.72,0.09303
4846.94,0.09313
4841.15,0.09385
4835.36,0.09476
4829.58,0.09334
4823.79,0.09369
4818.01,0.09424
4812.22,0.09326
4806.43,0.09510
4800.65,0.09543
4794.86,0.09602
4789.07,0.09590
4783.29,0.09594
4777.5,0.09762
4771.72,0.09684
4765.93,0.09677
4760.14,0.09693
4754.36,0.09699
4748.57,0.09708
4742.78,0.09745
4737,0.09707
4731.21,0.09633
4725.43,0.09627
4719.64,0.09602
4713.85,0.09566
4708.07,0.09529
4702.28,0.09370
4696.49,0.09416
4690.71,0.09388
4684.92,0.09294
4679.14,0.09329
4673.35,0.09383
4667.56,0.09337
4661.78,0.09346
4655.99,0.09364
4650.2,0.09350
4644.42,0.09267
4638.63,0.09266
4632.85,0.09228
4627.06,0.09322
4621.27,0.09247
4615.49,0.09406
4609.7,0.09251
4603.92,0.09351
4598.13,0.09447
4592.34,0.09417
4586.56,0.09509
4580.77,0.09516
4574.98,0.09419
4569.2,0.09530
4563.41,0.09399
4557.63,0.09392
4551.84,0.09499
4546.05,0.09508
4540.27,0.09507
4534.48,0.09428
4528.69,0.09453
4522.91,0.09452
4517.12,0.09528
4511.34,0.09558
4505.55,0.09389
4499.76,0.09421
4493.98,0.09415
4488.19,0.09391
4482.4,0.09317
4476.62,0.09315
4470.83,0.09244
4465.05,0.09024
4459.26,0.08933
4453.47,0.08850
4447.69,0.08603
4441.9,0.08387
4436.11,0.08200
4430.33,0.08089
4424.54,0.07904
4418.76,0.07754
4412.97,0.07610
4407.18,0.07665
4401.4,0.07640
4395.61,0.07630
4389.82,0.07601
4384.04,0.07528
4378.25,0.07419
4372.47,0.07358
4366.68,0.07306
4360.89,0.07256
4355.11,0.07197
4349.32,0.07191
4343.53,0.07159
4337.75,0.07183
4331.96,0.07148
4326.18,0.07184
4320.39,0.07315
4314.6,0.07358
4308.82,0.07404
4303.03,0.07484
4297.24,0.07559
4291.46,0.07562
4285.67,0.07563
4279.89,0.07665
4274.1,0.07624
4268.31,0.07528
4262.53,0.07577
4256.74,0.07642
4250.95,0.07663
4245.17,0.07683
4239.38,0.07635
4233.6,0.07669
4227.81,0.07726
4222.02,0.07860
4216.24,0.07792
4210.45,0.07925
4204.66,0.07897
4198.88,0.07978
4193.09,0.08016
4187.31,0.07951
4181.52,0.08008
4175.73,0.08055
4169.95,0.08038
4164.16,0.08011
4158.37,0.08002
4152.59,0.08051
4146.8,0.08059
4141.02,0.08075
4135.23,0.08049
4129.44,0.08014
4123.66,0.07994
4117.87,0.07978
4112.09,0.08012
4106.3,0.07987
4100.51,0.07922
4094.73,0.07870
4088.94,0.07784
4083.15,0.07726
4077.37,0.07679
4071.58,0.07571
4065.8,0.07521
4060.01,0.07402
4054.22,0.07464
4048.44,0.07471
4042.65,0.07369
4036.86,0.07407
4031.08,0.07415
4025.29,0.07455
4019.51,0.07466
4013.72,0.07458
4007.93,0.07492
4002.15,0.07530
3996.36,0.07594
3990.57,0.07646
3984.79,0.07680
3979,0.07724
3973.22,0.07801
3967.43,0.07894
3961.64,0.08020
3955.86,0.08038
3950.07,0.08188
3944.28,0.08248
3938.5,0.08253
3932.71,0.08363
3926.93,0.08386
3921.14,0.08433
3915.35,0.08471
3909.57,0.08543
3903.78,0.08583
3897.99,0.08591
3892.21,0.08608
3886.42,0.08628
3880.64,0.08716
3874.85,0.08736
3869.06,0.08784
3863.28,0.08770
3857.49,0.08867
3851.7,0.08858
3845.92,0.08887
3840.13,0.08935
3834.35,0.08926
3828.56,0.08942
3822.77,0.09079
3816.99,0.09088
3811.2,0.09069
3805.41,0.09152
3799.63,0.09094
3793.84,0.09115
3788.06,0.09195
3782.27,0.09215
3776.48,0.09173
3770.7,0.09272
3764.91,0.09322
3759.12,0.09368
3753.34,0.09446
3747.55,0.09411
3741.77,0.09402
3735.98,0.09565
3730.19,0.09416
3724.41,0.09480
3718.62,0.09409
3712.83,0.09416
3707.05,0.09361
3701.26,0.09300
3695.48,0.09143
3689.69,0.08983
3683.9,0.08725
3678.12,0.08556
3672.33,0.08168
3666.54,0.07930
3660.76,0.07638
3654.97,0.07475
3649.19,0.07320
3643.4,0.07092
3637.61,0.06900
3631.83,0.06775
3626.04,0.06640
3620.25,0.06615
3614.47,0.06515
3608.68,0.06479
3602.9,0.06390
3597.11,0.06313
3591.32,0.06310
3585.54,0.06205
3579.75,0.06106
3573.97,0.06068
3568.18,0.06022
3562.39,0.05929
3556.61,0.05921
3550.82,0.05767
3545.03,0.05737
3539.25,0.05617
3533.46,0.05625
3527.68,0.05526
3521.89,0.05472
3516.1,0.05498
3510.32,0.05433
3504.53,0.05364
3498.74,0.05348
3492.96,0.05363
3487.17,0.05368
3481.39,0.05217
3475.6,0.05126
3469.81,0.05086
3464.03,0.04936
3458.24,0.04842
3452.45,0.04689
3446.67,0.04643
3440.88,0.04652
3435.1,0.04538
3429.31,0.04395
3423.52,0.04248
3417.74,0.04079
3411.95,0.03973
3406.16,0.03790
3400.38,0.03718
3394.59,0.03567
3388.81,0.03388
3383.02,0.03313
3377.23,0.03320
3371.45,0.03126
3365.66,0.03118
3359.87,0.03092
3354.09,0.03012
3348.3,0.03028
3342.52,0.03029
3336.73,0.03043
3330.94,0.02984
3325.16,0.02948
3319.37,0.03014
3313.58,0.02972
3307.8,0.02920
3302.01,0.02906
3296.23,0.02943
3290.44,0.02951
3284.65,0.02922
3278.87,0.02964
3273.08,0.03032
3267.29,0.03094
3261.51,0.03137
3255.72,0.03141
3249.94,0.03170
3244.15,0.03186
3238.36,0.03344
3232.58,0.03378
3226.79,0.03401
3221,0.03476
3215.22,0.03502
3209.43,0.03517
3203.65,0.03584
3197.86,0.03611
3192.07,0.03646
3186.29,0.03699
3180.5,0.03771
3174.71,0.03882
3168.93,0.03951
3163.14,0.03964
3157.36,0.03982
3151.57,0.03986
3145.78,0.03992
3140,0.04026
3134.21,0.04026
3128.42,0.03975
3122.64,0.03989
3116.85,0.03982
3111.07,0.04002
3105.28,0.04038
3099.49,0.04022
3093.71,0.03957
3087.92,0.03835
3082.14,0.03797
3076.35,0.03785
3070.56,0.03789
3064.78,0.03662
3058.99,0.03678
3053.2,0.03700
3047.42,0.03722
3041.63,0.03697
3035.85,0.03628
3030.06,0.03461
3024.27,0.03514
3018.49,0.03607
3012.7,0.03619
3006.91,0.03559
3001.13,0.03392
2995.34,0.03178
2989.56,0.03025
2983.77,0.02843
2977.98,0.02767
2972.2,0.02731
2966.41,0.02697
2960.62,0.02760
2954.84,0.02882
2949.05,0.02808
2943.27,0.02741
2937.48,0.02709
2931.69,0.02716
2925.91,0.02724
2920.12,0.02786
2914.33,0.02764
2908.55,0.02753
2902.76,0.02789
2896.98,0.02801
2891.19,0.02841
2885.4,0.02832
2879.62,0.02842
2873.83,0.02859
2868.04,0.02882
2862.26,0.02898
2856.47,0.02989
2850.69,0.03071
2844.9,0.03287
2839.11,0.03429
2833.33,0.03571
2827.54,0.03746
2821.75,0.03939
2815.97,0.04065
2810.18,0.04160
2804.4,0.04236
2798.61,0.04327
2792.82,0.04339
2787.04,0.04476
2781.25,0.04557
2775.46,0.04624
2769.68,0.04733
2763.89,0.04803
2758.11,0.04843
2752.32,0.04935
2746.53,0.04999
2740.75,0.05045
2734.96,0.05121
2729.17,0.05242
2723.39,0.05378
2717.6,0.05523
2711.82,0.05643
2706.03,0.05760
2700.24,0.05924
2694.46,0.06108
2688.67,0.06232
2682.88,0.06396
2677.1,0.06505
2671.31,0.06528
2665.53,0.06590
2659.74,0.06683
2653.95,0.06713
2648.17,0.06787
2642.38,0.06857
2636.59,0.06913
2630.81,0.06976
2625.02,0.07126
2619.24,0.07197
2613.45,0.07228
2607.66,0.07172
2601.88,0.07092
2596.09,0.07081
2590.3,0.07103
2584.52,0.07127
2578.73,0.07207
2572.95,0.07298
2567.16,0.07424
2561.37,0.07527
2555.59,0.07630
2549.8,0.07676
2544.02,0.07686
2538.23,0.07718
2532.44,0.07837
2526.66,0.07822
2520.87,0.07809
2515.08,0.07850
2509.3,0.07870
2503.51,0.07937
2497.73,0.07916
2491.94,0.07976
2486.15,0.07947
2480.37,0.08047
2474.58,0.08088
2468.79,0.08130
2463.01,0.08205
2457.22,0.08240
2451.44,0.08220
2445.65,0.08278
2439.86,0.08311
2434.08,0.08342
2428.29,0.08380
2422.5,0.08405
2416.72,0.08364
2410.93,0.08343
2405.15,0.08315
2399.36,0.08351
2393.57,0.08310
2387.79,0.08264
2382,0.08252
2376.21,0.08322
2370.43,0.08345
2364.64,0.08355
2358.86,0.08345
2353.07,0.08265
2347.28,0.08173
2341.5,0.08194
2335.71,0.08188
2329.92,0.08246
2324.14,0.08200
2318.35,0.08102
2312.57,0.07979
2306.78,0.07851
2300.99,0.07761
2295.21,0.07646
2289.42,0.07518
2283.63,0.07405
2277.85,0.07308
2272.06,0.07305
2266.28,0.07290
2260.49,0.07315
2254.7,0.07294
2248.92,0.06992
2243.13,0.06453
2237.34,0.06115
2231.56,0.06765
2225.77,0.07534
2219.99,0.07757
2214.2,0.07867
2208.41,0.07880
2202.63,0.07970
2196.84,0.07966
2191.05,0.08003
2185.27,0.08004
2179.48,0.08056
2173.7,0.08100
2167.91,0.08087
2162.12,0.08104
2156.34,0.08119
2150.55,0.08104
2144.76,0.08156
2138.98,0.08168
2133.19,0.08103
2127.41,0.08119
2121.62,0.08124
2115.83,0.08153
2110.05,0.08088
2104.26,0.08062
2098.47,0.08026
2092.69,0.07984
2086.9,0.07996
2081.12,0.07887
2075.33,0.07906
2069.54,0.07856
2063.76,0.07867
2057.97,0.07783
2052.19,0.07739
2046.4,0.07743
2040.61,0.07678
2034.83,0.07631
2029.04,0.07556
2023.25,0.07513
2017.47,0.07430
2011.68,0.07397
2005.9,0.07360
2000.11,0.07314
1994.32,0.07290
1988.54,0.07218
1982.75,0.07201
1976.96,0.07146
1971.18,0.07079
1965.39,0.06963
1959.61,0.06872
1953.82,0.06874
1948.03,0.06896
1942.25,0.06980
1936.46,0.07074
1930.67,0.07115
1924.89,0.07147
1919.1,0.07161
1913.32,0.07070
1907.53,0.07007
1901.74,0.06945
1895.96,0.06865
1890.17,0.06831
1884.38,0.06834
1878.6,0.06841
1872.81,0.06880
1867.03,0.06974
1861.24,0.07080
1855.45,0.07069
1849.67,0.06993
1843.88,0.06870
1838.09,0.06727
1832.31,0.06543
1826.52,0.06340
1820.74,0.06098
1814.95,0.05894
1809.16,0.05726
1803.38,0.05572
1797.59,0.05461
1791.8,0.05356
1786.02,0.05209
1780.23,0.04946
1774.45,0.04765
1768.66,0.04512
1762.87,0.04175
1757.09,0.03753
1751.3,0.03274
1745.51,0.02843
1739.73,0.02688
1733.94,0.02651
1728.16,0.02699
1722.37,0.02722
1716.58,0.02763
1710.8,0.02754
1705.01,0.02760
1699.22,0.02813
1693.44,0.02766
1687.65,0.02775
1681.87,0.02724
1676.08,0.02788
1670.29,0.02719
1664.51,0.02680
1658.72,0.02658
1652.93,0.02656
1647.15,0.02638
1641.36,0.02652
1635.58,0.02811
1629.79,0.02870
1624,0.02822
1618.22,0.02786
1612.43,0.02660
1606.64,0.02587
1600.86,0.02620
1595.07,0.02663
1589.29,0.02738
1583.5,0.02809
1577.71,0.02785
1571.93,0.02678
1566.14,0.02529
1560.35,0.02475
1554.57,0.02444
1548.78,0.02439
1543,0.02574
1537.21,0.02578
1531.42,0.02668
1525.64,0.02744
1519.85,0.02810
1514.07,0.02792
1508.28,0.02851
1502.49,0.02854
1496.71,0.02898
1490.92,0.02928
1485.13,0.02926
1479.35,0.02853
1473.56,0.02797
1467.78,0.02780
1461.99,0.02762
1456.2,0.02652
1450.42,0.02733
1444.63,0.02820
1438.84,0.02905
1433.06,0.02984
1427.27,0.03050
1421.49,0.02975
1415.7,0.02862
1409.91,0.02882
1404.13,0.02915
1398.34,0.02942
1392.55,0.02892
1386.77,0.02881
1380.98,0.02741
1375.2,0.02713
1369.41,0.02839
1363.62,0.02975
1357.84,0.02948
1352.05,0.02876
1346.26,0.02813
1340.48,0.02848
1334.69,0.02876
1328.91,0.02824
1323.12,0.02730
1317.33,0.02656
1311.55,0.02644
1305.76,0.02629
1299.97,0.02639
1294.19,0.02666
1288.4,0.02653
1282.62,0.02644
1276.83,0.02651
1271.04,0.02634
1265.26,0.02639
1259.47,0.02590
1253.68,0.02578
1247.9,0.02546
1242.11,0.02496
1236.33,0.02538
1230.54,0.02582
1224.75,0.02582
1218.97,0.02687
1213.18,0.02746
1207.39,0.02727
1201.61,0.02756
1195.82,0.02762
1190.04,0.02742
1184.25,0.02716
1178.46,0.02683
1172.68,0.02610
1166.89,0.02558
1161.1,0.02565
1155.32,0.02559
1149.53,0.02502
1143.75,0.02491
1137.96,0.02522
1132.17,0.02495
1126.39,0.02602
1120.6,0.02735
1114.81,0.02753
1109.03,0.02835
1103.24,0.02856
1097.46,0.02950
1091.67,0.03039
1085.88,0.03048
1080.1,0.03036
1074.31,0.03103
1068.52,0.03158
1062.74,0.03209
1056.95,0.03181
1051.17,0.03167
1045.38,0.03252
1039.59,0.03256
1033.81,0.03274
1028.02,0.03241
1022.24,0.03275
1016.45,0.03335
1010.66,0.03437
1004.88,0.03469
999.09,0.03511
993.304,0.03628
987.518,0.03697
981.731,0.03803
975.945,0.03743
970.159,0.03757
964.373,0.03766
958.586,0.03804
952.8,0.03838
947.014,0.03836
941.228,0.03710
935.441,0.03697
929.655,0.03581
923.869,0.03593
918.083,0.03641
912.297,0.03744
906.51,0.03843
900.724,0.03904
894.938,0.03921
889.152,0.03913
883.365,0.03690
877.579,0.03662
871.793,0.03550
866.007,0.03565
860.22,0.03695
854.434,0.03782
848.648,0.03750
842.862,0.03778
837.075,0.03687
831.289,0.03568
825.503,0.03558
819.717,0.03415
813.931,0.03452
808.144,0.03529
802.358,0.03614
796.572,0.03800
790.786,0.03733
784.999,0.03638
779.213,0.03400
773.427,0.03348
767.641,0.03194
761.854,0.03224
756.068,0.03213
750.282,0.03397
744.496,0.03567
738.709,0.03741
732.923,0.03802
727.137,0.03756
721.351,0.03723
715.565,0.03432
709.778,0.02909
703.992,0.02911
698.206,0.03168
692.42,0.03392
686.633,0.03473
680.847,0.03514
675.061,0.03574
669.275,0.03425
663.488,0.03566
657.702,0.03627
651.916,0.03509
646.13,0.03547
640.343,0.03657
634.557,0.03615
628.771,0.03710
622.985,0.03853
617.198,0.03616
611.412,0.03617
605.626,0.03669
599.84,0.03503