File: 01_Data/Rebond_Foam_Carpet_Pad/FTIR/IS/Rebond_Foam_Carpet_Pad_IS_S_220913_R8.dpt
7497.03,0.09013
7491.25,0.09000
7485.46,0.08991
7479.67,0.09833
7473.89,0.09088
7468.1,0.09313
7462.32,0.09299
7456.53,0.09594
7450.74,0.08962
7444.96,0.09571
7439.17,0.09773
7433.38,0.09679
7427.6,0.09328
7421.81,0.09767
7416.03,0.08705
7410.24,0.08691
7404.45,0.09367
7398.67,0.08920
7392.88,0.09014
7387.09,0.10021
7381.31,0.09198
7375.52,0.09219
7369.74,0.08913
7363.95,0.09005
7358.16,0.09274
7352.38,0.09150
7346.59,0.09555
7340.8,0.08901
7335.02,0.08990
7329.23,0.08495
7323.45,0.08346
7317.66,0.08821
7311.87,0.08861
7306.09,0.09935
7300.3,0.09546
7294.51,0.09413
7288.73,0.10045
7282.94,0.09039
7277.16,0.09507
7271.37,0.09611
7265.58,0.09547
7259.8,0.09421
7254.01,0.08831
7248.22,0.09868
7242.44,0.09911
7236.65,0.08908
7230.87,0.08694
7225.08,0.09532
7219.29,0.09450
7213.51,0.09822
7207.72,0.09650
7201.93,0.09441
7196.15,0.09712
7190.36,0.08927
7184.58,0.08998
7178.79,0.09385
7173,0.09861
7167.22,0.09402
7161.43,0.09794
7155.65,0.09742
7149.86,0.10024
7144.07,0.09412
7138.29,0.08814
7132.5,0.09451
7126.71,0.09292
7120.93,0.08911
7115.14,0.08995
7109.36,0.09372
7103.57,0.09901
7097.78,0.10037
7092,0.09180
7086.21,0.09292
7080.42,0.09197
7074.64,0.09487
7068.85,0.09321
7063.07,0.09595
7057.28,0.09554
7051.49,0.09601
7045.71,0.09524
7039.92,0.09534
7034.13,0.10018
7028.35,0.09596
7022.56,0.09767
7016.78,0.08999
7010.99,0.08863
7005.2,0.09797
6999.42,0.10108
6993.63,0.09437
6987.84,0.09584
6982.06,0.08947
6976.27,0.09333
6970.49,0.09072
6964.7,0.09424
6958.91,0.08982
6953.13,0.09852
6947.34,0.09814
6941.55,0.09184
6935.77,0.09517
6929.98,0.09510
6924.2,0.09347
6918.41,0.09593
6912.62,0.09817
6906.84,0.09229
6901.05,0.09150
6895.26,0.09948
6889.48,0.09615
6883.69,0.09255
6877.91,0.09091
6872.12,0.10186
6866.33,0.08972
6860.55,0.10040
6854.76,0.09290
6848.97,0.09500
6843.19,0.09972
6837.4,0.09528
6831.62,0.09360
6825.83,0.09359
6820.04,0.09763
6814.26,0.09747
6808.47,0.09135
6802.68,0.09082
6796.9,0.09175
6791.11,0.09214
6785.33,0.09315
6779.54,0.09251
6773.75,0.09283
6767.97,0.09346
6762.18,0.08660
6756.39,0.09600
6750.61,0.08811
6744.82,0.09245
6739.04,0.09412
6733.25,0.09451
6727.46,0.08796
6721.68,0.09179
6715.89,0.09577
6710.1,0.09194
6704.32,0.09490
6698.53,0.09894
6692.75,0.09731
6686.96,0.09196
6681.17,0.09403
6675.39,0.09520
6669.6,0.09168
6663.82,0.09111
6658.03,0.09532
6652.24,0.09548
6646.46,0.09444
6640.67,0.09402
6634.88,0.08919
6629.1,0.08984
6623.31,0.09494
6617.53,0.09133
6611.74,0.09251
6605.95,0.09736
6600.17,0.09369
6594.38,0.09219
6588.59,0.09435
6582.81,0.09222
6577.02,0.09287
6571.24,0.09459
6565.45,0.09539
6559.66,0.09493
6553.88,0.09458
6548.09,0.09630
6542.3,0.09347
6536.52,0.09648
6530.73,0.09453
6524.95,0.09295
6519.16,0.09318
6513.37,0.08963
6507.59,0.09453
6501.8,0.09210
6496.01,0.09671
6490.23,0.09250
6484.44,0.09368
6478.66,0.09552
6472.87,0.09423
6467.08,0.09366
6461.3,0.09540
6455.51,0.09303
6449.72,0.09561
6443.94,0.09702
6438.15,0.09527
6432.37,0.09296
6426.58,0.09681
6420.79,0.09504
6415.01,0.09534
6409.22,0.09747
6403.43,0.09718
6397.65,0.09982
6391.86,0.09359
6386.08,0.09320
6380.29,0.09658
6374.5,0.09615
6368.72,0.09790
6362.93,0.09768
6357.14,0.09520
6351.36,0.09318
6345.57,0.09535
6339.79,0.09503
6334,0.09735
6328.21,0.09352
6322.43,0.09866
6316.64,0.09414
6310.85,0.09732
6305.07,0.09415
6299.28,0.09217
6293.5,0.09519
6287.71,0.09719
6281.92,0.09471
6276.14,0.09805
6270.35,0.09965
6264.56,0.09627
6258.78,0.09047
6252.99,0.09587
6247.21,0.09465
6241.42,0.09787
6235.63,0.09416
6229.85,0.09309
6224.06,0.09596
6218.27,0.09489
6212.49,0.09716
6206.7,0.09522
6200.92,0.10031
6195.13,0.09652
6189.34,0.09578
6183.56,0.09524
6177.77,0.09760
6171.98,0.09645
6166.2,0.09830
6160.41,0.09894
6154.63,0.09815
6148.84,0.09599
6143.05,0.09725
6137.27,0.09786
6131.48,0.09599
6125.7,0.09729
6119.91,0.09709
6114.12,0.09786
6108.34,0.09647
6102.55,0.09617
6096.76,0.09656
6090.98,0.09323
6085.19,0.09822
6079.41,0.09549
6073.62,0.09494
6067.83,0.09288
6062.05,0.09242
6056.26,0.09763
6050.47,0.09496
6044.69,0.09531
6038.9,0.09582
6033.12,0.09505
6027.33,0.09674
6021.54,0.09420
6015.76,0.09575
6009.97,0.09620
6004.18,0.09601
5998.4,0.09477
5992.61,0.09254
5986.83,0.09518
5981.04,0.09654
5975.25,0.09530
5969.47,0.09033
5963.68,0.08952
5957.89,0.08990
5952.11,0.09217
5946.32,0.09204
5940.54,0.08829
5934.75,0.09415
5928.96,0.09331
5923.18,0.09274
5917.39,0.09004
5911.6,0.08857
5905.82,0.09328
5900.03,0.09302
5894.25,0.09036
5888.46,0.09269
5882.67,0.09136
5876.89,0.09002
5871.1,0.09124
5865.31,0.09384
5859.53,0.09000
5853.74,0.09024
5847.96,0.08852
5842.17,0.09182
5836.38,0.09087
5830.6,0.09126
5824.81,0.08979
5819.02,0.08845
5813.24,0.09062
5807.45,0.09054
5801.67,0.09353
5795.88,0.09043
5790.09,0.08893
5784.31,0.09106
5778.52,0.09134
5772.73,0.09157
5766.95,0.09054
5761.16,0.09113
5755.38,0.09069
5749.59,0.09186
5743.8,0.09001
5738.02,0.08922
5732.23,0.09077
5726.44,0.09093
5720.66,0.09247
5714.87,0.09261
5709.09,0.09223
5703.3,0.09383
5697.51,0.09388
5691.73,0.09107
5685.94,0.09489
5680.15,0.09266
5674.37,0.09289
5668.58,0.09295
5662.8,0.09324
5657.01,0.09374
5651.22,0.09512
5645.44,0.09419
5639.65,0.09545
5633.87,0.09647
5628.08,0.09521
5622.29,0.09770
5616.51,0.09408
5610.72,0.09521
5604.93,0.09602
5599.15,0.09679
5593.36,0.09576
5587.58,0.09692
5581.79,0.09496
5576,0.09810
5570.22,0.09739
5564.43,0.09678
5558.64,0.09587
5552.86,0.09739
5547.07,0.09682
5541.29,0.09668
5535.5,0.09568
5529.71,0.09723
5523.93,0.09761
5518.14,0.09890
5512.35,0.09825
5506.57,0.09688
5500.78,0.09738
5495,0.09622
5489.21,0.09697
5483.42,0.09790
5477.64,0.09822
5471.85,0.09778
5466.06,0.09632
5460.28,0.09839
5454.49,0.09661
5448.71,0.09764
5442.92,0.09964
5437.13,0.09725
5431.35,0.09950
5425.56,0.10028
5419.77,0.09935
5413.99,0.09850
5408.2,0.10001
5402.42,0.09966
5396.63,0.09972
5390.84,0.09877
5385.06,0.09917
5379.27,0.09842
5373.48,0.09958
5367.7,0.10067
5361.91,0.10051
5356.13,0.09986
5350.34,0.09899
5344.55,0.09978
5338.77,0.09871
5332.98,0.10002
5327.19,0.09999
5321.41,0.10125
5315.62,0.10141
5309.84,0.10121
5304.05,0.10017
5298.26,0.10035
5292.48,0.10040
5286.69,0.09985
5280.9,0.09979
5275.12,0.10142
5269.33,0.10137
5263.55,0.09926
5257.76,0.10235
5251.97,0.10271
5246.19,0.10069
5240.4,0.10051
5234.61,0.10160
5228.83,0.10075
5223.04,0.09981
5217.26,0.09947
5211.47,0.09911
5205.68,0.09897
5199.9,0.09979
5194.11,0.09938
5188.32,0.10017
5182.54,0.10149
5176.75,0.10051
5170.97,0.10024
5165.18,0.10102
5159.39,0.10122
5153.61,0.09951
5147.82,0.09809
5142.03,0.09988
5136.25,0.09986
5130.46,0.10028
5124.68,0.09975
5118.89,0.09987
5113.1,0.09981
5107.32,0.09855
5101.53,0.10044
5095.75,0.09969
5089.96,0.09945
5084.17,0.10029
5078.39,0.09962
5072.6,0.09886
5066.81,0.09910
5061.03,0.09810
5055.24,0.09835
5049.46,0.09945
5043.67,0.09882
5037.88,0.09950
5032.1,0.09858
5026.31,0.09884
5020.52,0.09862
5014.74,0.09881
5008.95,0.09833
5003.17,0.09896
4997.38,0.09911
4991.59,0.09814
4985.81,0.09732
4980.02,0.09697
4974.23,0.09674
4968.45,0.09693
4962.66,0.09666
4956.88,0.09462
4951.09,0.09506
4945.3,0.09390
4939.52,0.09433
4933.73,0.09423
4927.94,0.09390
4922.16,0.09371
4916.37,0.09342
4910.59,0.09361
4904.8,0.09322
4899.01,0.09365
4893.23,0.09210
4887.44,0.09223
4881.65,0.09231
4875.87,0.09227
4870.08,0.09327
4864.3,0.09282
4858.51,0.09306
4852.72,0.09305
4846.94,0.09318
4841.15,0.09287
4835.36,0.09335
4829.58,0.09418
4823.79,0.09448
4818.01,0.09406
4812.22,0.09581
4806.43,0.09597
4800.65,0.09589
4794.86,0.09594
4789.07,0.09653
4783.29,0.09683
4777.5,0.09740
4771.72,0.09728
4765.93,0.09627
4760.14,0.09664
4754.36,0.09682
4748.57,0.09651
4742.78,0.09536
4737,0.09707
4731.21,0.09660
4725.43,0.09523
4719.64,0.09575
4713.85,0.09553
4708.07,0.09453
4702.28,0.09450
4696.49,0.09481
4690.71,0.09389
4684.92,0.09272
4679.14,0.09228
4673.35,0.09214
4667.56,0.09201
4661.78,0.09225
4655.99,0.09237
4650.2,0.09369
4644.42,0.09245
4638.63,0.09150
4632.85,0.09230
4627.06,0.09251
4621.27,0.09214
4615.49,0.09261
4609.7,0.09346
4603.92,0.09343
4598.13,0.09393
4592.34,0.09359
4586.56,0.09422
4580.77,0.09445
4574.98,0.09395
4569.2,0.09284
4563.41,0.09328
4557.63,0.09297
4551.84,0.09537
4546.05,0.09527
4540.27,0.09480
4534.48,0.09492
4528.69,0.09558
4522.91,0.09383
4517.12,0.09514
4511.34,0.09515
4505.55,0.09457
4499.76,0.09432
4493.98,0.09466
4488.19,0.09316
4482.4,0.09379
4476.62,0.09250
4470.83,0.09126
4465.05,0.09036
4459.26,0.09013
4453.47,0.08816
4447.69,0.08622
4441.9,0.08441
4436.11,0.08244
4430.33,0.08059
4424.54,0.07798
4418.76,0.07686
4412.97,0.07609
4407.18,0.07510
4401.4,0.07626
4395.61,0.07594
4389.82,0.07524
4384.04,0.07497
4378.25,0.07361
4372.47,0.07390
4366.68,0.07320
4360.89,0.07223
4355.11,0.07222
4349.32,0.07124
4343.53,0.07124
4337.75,0.07167
4331.96,0.07097
4326.18,0.07151
4320.39,0.07287
4314.6,0.07294
4308.82,0.07365
4303.03,0.07415
4297.24,0.07557
4291.46,0.07657
4285.67,0.07578
4279.89,0.07546
4274.1,0.07523
4268.31,0.07555
4262.53,0.07510
4256.74,0.07603
4250.95,0.07661
4245.17,0.07742
4239.38,0.07737
4233.6,0.07713
4227.81,0.07710
4222.02,0.07779
4216.24,0.07908
4210.45,0.07877
4204.66,0.07862
4198.88,0.08003
4193.09,0.07993
4187.31,0.07978
4181.52,0.08034
4175.73,0.07959
4169.95,0.08001
4164.16,0.08006
4158.37,0.08021
4152.59,0.08012
4146.8,0.08024
4141.02,0.07993
4135.23,0.08037
4129.44,0.08019
4123.66,0.07945
4117.87,0.07952
4112.09,0.07958
4106.3,0.07968
4100.51,0.07929
4094.73,0.07844
4088.94,0.07730
4083.15,0.07771
4077.37,0.07735
4071.58,0.07614
4065.8,0.07507
4060.01,0.07461
4054.22,0.07462
4048.44,0.07391
4042.65,0.07365
4036.86,0.07352
4031.08,0.07412
4025.29,0.07506
4019.51,0.07477
4013.72,0.07583
4007.93,0.07487
4002.15,0.07562
3996.36,0.07564
3990.57,0.07615
3984.79,0.07690
3979,0.07729
3973.22,0.07874
3967.43,0.07936
3961.64,0.07950
3955.86,0.08094
3950.07,0.08205
3944.28,0.08238
3938.5,0.08288
3932.71,0.08303
3926.93,0.08387
3921.14,0.08454
3915.35,0.08488
3909.57,0.08543
3903.78,0.08605
3897.99,0.08584
3892.21,0.08665
3886.42,0.08764
3880.64,0.08716
3874.85,0.08778
3869.06,0.08796
3863.28,0.08827
3857.49,0.08905
3851.7,0.08792
3845.92,0.08861
3840.13,0.08970
3834.35,0.08896
3828.56,0.08966
3822.77,0.09049
3816.99,0.08999
3811.2,0.09140
3805.41,0.09156
3799.63,0.09119
3793.84,0.09150
3788.06,0.09190
3782.27,0.09257
3776.48,0.09231
3770.7,0.09326
3764.91,0.09361
3759.12,0.09401
3753.34,0.09534
3747.55,0.09392
3741.77,0.09501
3735.98,0.09589
3730.19,0.09597
3724.41,0.09619
3718.62,0.09643
3712.83,0.09611
3707.05,0.09606
3701.26,0.09600
3695.48,0.09583
3689.69,0.09634
3683.9,0.09492
3678.12,0.09473
3672.33,0.09339
3666.54,0.09236
3660.76,0.09203
3654.97,0.09049
3649.19,0.08935
3643.4,0.08856
3637.61,0.08850
3631.83,0.08860
3626.04,0.08639
3620.25,0.08549
3614.47,0.08512
3608.68,0.08577
3602.9,0.08397
3597.11,0.08331
3591.32,0.08250
3585.54,0.08161
3579.75,0.08132
3573.97,0.08006
3568.18,0.07980
3562.39,0.07845
3556.61,0.07738
3550.82,0.07558
3545.03,0.07465
3539.25,0.07423
3533.46,0.07241
3527.68,0.07246
3521.89,0.07065
3516.1,0.07001
3510.32,0.06871
3504.53,0.06803
3498.74,0.06701
3492.96,0.06567
3487.17,0.06503
3481.39,0.06287
3475.6,0.06087
3469.81,0.05927
3464.03,0.05605
3458.24,0.05370
3452.45,0.05218
3446.67,0.05138
3440.88,0.05064
3435.1,0.04906
3429.31,0.04682
3423.52,0.04569
3417.74,0.04312
3411.95,0.04071
3406.16,0.03934
3400.38,0.03770
3394.59,0.03671
3388.81,0.03517
3383.02,0.03391
3377.23,0.03276
3371.45,0.03167
3365.66,0.03136
3359.87,0.03077
3354.09,0.03054
3348.3,0.03061
3342.52,0.03055
3336.73,0.03032
3330.94,0.02977
3325.16,0.03007
3319.37,0.03003
3313.58,0.02962
3307.8,0.02925
3302.01,0.02946
3296.23,0.02931
3290.44,0.02979
3284.65,0.03027
3278.87,0.02961
3273.08,0.02951
3267.29,0.03089
3261.51,0.03117
3255.72,0.03105
3249.94,0.03244
3244.15,0.03298
3238.36,0.03357
3232.58,0.03407
3226.79,0.03456
3221,0.03494
3215.22,0.03582
3209.43,0.03586
3203.65,0.03587
3197.86,0.03646
3192.07,0.03663
3186.29,0.03731
3180.5,0.03817
3174.71,0.03888
3168.93,0.03935
3163.14,0.04001
3157.36,0.03996
3151.57,0.04053
3145.78,0.04071
3140,0.04077
3134.21,0.04053
3128.42,0.04082
3122.64,0.04061
3116.85,0.04077
3111.07,0.04115
3105.28,0.04027
3099.49,0.03997
3093.71,0.03939
3087.92,0.03859
3082.14,0.03809
3076.35,0.03832
3070.56,0.03764
3064.78,0.03679
3058.99,0.03647
3053.2,0.03677
3047.42,0.03743
3041.63,0.03704
3035.85,0.03603
3030.06,0.03527
3024.27,0.03470
3018.49,0.03600
3012.7,0.03611
3006.91,0.03481
3001.13,0.03375
2995.34,0.03239
2989.56,0.03053
2983.77,0.02846
2977.98,0.02815
2972.2,0.02764
2966.41,0.02765
2960.62,0.02776
2954.84,0.02792
2949.05,0.02734
2943.27,0.02715
2937.48,0.02692
2931.69,0.02633
2925.91,0.02697
2920.12,0.02762
2914.33,0.02780
2908.55,0.02817
2902.76,0.02768
2896.98,0.02813
2891.19,0.02832
2885.4,0.02846
2879.62,0.02853
2873.83,0.02798
2868.04,0.02867
2862.26,0.02878
2856.47,0.02925
2850.69,0.03001
2844.9,0.03254
2839.11,0.03472
2833.33,0.03589
2827.54,0.03762
2821.75,0.03923
2815.97,0.04083
2810.18,0.04201
2804.4,0.04243
2798.61,0.04348
2792.82,0.04427
2787.04,0.04453
2781.25,0.04525
2775.46,0.04651
2769.68,0.04745
2763.89,0.04810
2758.11,0.04868
2752.32,0.04873
2746.53,0.05012
2740.75,0.04982
2734.96,0.05055
2729.17,0.05145
2723.39,0.05314
2717.6,0.05469
2711.82,0.05601
2706.03,0.05726
2700.24,0.05911
2694.46,0.06027
2688.67,0.06226
2682.88,0.06373
2677.1,0.06441
2671.31,0.06482
2665.53,0.06579
2659.74,0.06618
2653.95,0.06749
2648.17,0.06790
2642.38,0.06837
2636.59,0.06888
2630.81,0.06966
2625.02,0.07058
2619.24,0.07152
2613.45,0.07189
2607.66,0.07141
2601.88,0.07119
2596.09,0.07073
2590.3,0.07063
2584.52,0.07074
2578.73,0.07176
2572.95,0.07285
2567.16,0.07443
2561.37,0.07519
2555.59,0.07577
2549.8,0.07650
2544.02,0.07669
2538.23,0.07762
2532.44,0.07760
2526.66,0.07791
2520.87,0.07780
2515.08,0.07830
2509.3,0.07841
2503.51,0.07872
2497.73,0.07878
2491.94,0.07905
2486.15,0.07920
2480.37,0.08018
2474.58,0.08043
2468.79,0.08146
2463.01,0.08159
2457.22,0.08185
2451.44,0.08243
2445.65,0.08258
2439.86,0.08282
2434.08,0.08324
2428.29,0.08350
2422.5,0.08366
2416.72,0.08381
2410.93,0.08359
2405.15,0.08286
2399.36,0.08268
2393.57,0.08304
2387.79,0.08272
2382,0.08245
2376.21,0.08210
2370.43,0.08144
2364.64,0.08171
2358.86,0.08139
2353.07,0.08123
2347.28,0.08091
2341.5,0.08014
2335.71,0.07992
2329.92,0.08052
2324.14,0.08082
2318.35,0.07966
2312.57,0.07932
2306.78,0.07840
2300.99,0.07714
2295.21,0.07623
2289.42,0.07507
2283.63,0.07386
2277.85,0.07284
2272.06,0.07259
2266.28,0.07233
2260.49,0.07299
2254.7,0.07250
2248.92,0.07032
2243.13,0.06502
2237.34,0.06180
2231.56,0.06776
2225.77,0.07520
2219.99,0.07796
2214.2,0.07856
2208.41,0.07887
2202.63,0.08001
2196.84,0.08032
2191.05,0.08036
2185.27,0.08021
2179.48,0.08089
2173.7,0.08108
2167.91,0.08159
2162.12,0.08139
2156.34,0.08137
2150.55,0.08157
2144.76,0.08171
2138.98,0.08162
2133.19,0.08130
2127.41,0.08156
2121.62,0.08170
2115.83,0.08134
2110.05,0.08109
2104.26,0.08086
2098.47,0.08060
2092.69,0.08029
2086.9,0.07972
2081.12,0.07973
2075.33,0.07955
2069.54,0.07896
2063.76,0.07895
2057.97,0.07875
2052.19,0.07834
2046.4,0.07786
2040.61,0.07687
2034.83,0.07651
2029.04,0.07604
2023.25,0.07515
2017.47,0.07498
2011.68,0.07432
2005.9,0.07387
2000.11,0.07339
1994.32,0.07341
1988.54,0.07252
1982.75,0.07202
1976.96,0.07172
1971.18,0.07102
1965.39,0.06976
1959.61,0.06935
1953.82,0.06865
1948.03,0.06890
1942.25,0.06937
1936.46,0.07057
1930.67,0.07123
1924.89,0.07166
1919.1,0.07141
1913.32,0.07098
1907.53,0.07047
1901.74,0.06922
1895.96,0.06862
1890.17,0.06829
1884.38,0.06787
1878.6,0.06830
1872.81,0.06883
1867.03,0.06987
1861.24,0.07026
1855.45,0.07046
1849.67,0.06998
1843.88,0.06890
1838.09,0.06740
1832.31,0.06543
1826.52,0.06323
1820.74,0.06131
1814.95,0.05921
1809.16,0.05751
1803.38,0.05570
1797.59,0.05446
1791.8,0.05320
1786.02,0.05183
1780.23,0.04972
1774.45,0.04770
1768.66,0.04525
1762.87,0.04209
1757.09,0.03746
1751.3,0.03231
1745.51,0.02794
1739.73,0.02603
1733.94,0.02645
1728.16,0.02689
1722.37,0.02750
1716.58,0.02742
1710.8,0.02732
1705.01,0.02772
1699.22,0.02759
1693.44,0.02741
1687.65,0.02791
1681.87,0.02722
1676.08,0.02790
1670.29,0.02709
1664.51,0.02662
1658.72,0.02651
1652.93,0.02603
1647.15,0.02628
1641.36,0.02668
1635.58,0.02786
1629.79,0.02886
1624,0.02856
1618.22,0.02781
1612.43,0.02670
1606.64,0.02604
1600.86,0.02613
1595.07,0.02685
1589.29,0.02726
1583.5,0.02788
1577.71,0.02806
1571.93,0.02701
1566.14,0.02551
1560.35,0.02500
1554.57,0.02409
1548.78,0.02448
1543,0.02529
1537.21,0.02548
1531.42,0.02639
1525.64,0.02711
1519.85,0.02740
1514.07,0.02737
1508.28,0.02850
1502.49,0.02851
1496.71,0.02880
1490.92,0.02922
1485.13,0.02950
1479.35,0.02835
1473.56,0.02828
1467.78,0.02807
1461.99,0.02778
1456.2,0.02681
1450.42,0.02713
1444.63,0.02840
1438.84,0.02907
1433.06,0.03036
1427.27,0.03010
1421.49,0.02900
1415.7,0.02803
1409.91,0.02845
1404.13,0.02936
1398.34,0.02954
1392.55,0.02914
1386.77,0.02847
1380.98,0.02735
1375.2,0.02728
1369.41,0.02840
1363.62,0.02954
1357.84,0.02970
1352.05,0.02890
1346.26,0.02829
1340.48,0.02833
1334.69,0.02838
1328.91,0.02824
1323.12,0.02738
1317.33,0.02701
1311.55,0.02643
1305.76,0.02612
1299.97,0.02617
1294.19,0.02661
1288.4,0.02665
1282.62,0.02691
1276.83,0.02648
1271.04,0.02639
1265.26,0.02644
1259.47,0.02636
1253.68,0.02567
1247.9,0.02572
1242.11,0.02555
1236.33,0.02592
1230.54,0.02548
1224.75,0.02648
1218.97,0.02690
1213.18,0.02738
1207.39,0.02751
1201.61,0.02788
1195.82,0.02737
1190.04,0.02755
1184.25,0.02713
1178.46,0.02717
1172.68,0.02636
1166.89,0.02612
1161.1,0.02594
1155.32,0.02542
1149.53,0.02522
1143.75,0.02476
1137.96,0.02563
1132.17,0.02567
1126.39,0.02570
1120.6,0.02712
1114.81,0.02743
1109.03,0.02821
1103.24,0.02848
1097.46,0.02970
1091.67,0.03013
1085.88,0.02937
1080.1,0.03012
1074.31,0.03130
1068.52,0.03133
1062.74,0.03207
1056.95,0.03225
1051.17,0.03271
1045.38,0.03283
1039.59,0.03224
1033.81,0.03283
1028.02,0.03300
1022.24,0.03259
1016.45,0.03309
1010.66,0.03342
1004.88,0.03413
999.09,0.03495
993.304,0.03604
987.518,0.03684
981.731,0.03776
975.945,0.03753
970.159,0.03706
964.373,0.03742
958.586,0.03769
952.8,0.03883
947.014,0.03820
941.228,0.03637
935.441,0.03572
929.655,0.03522
923.869,0.03621
918.083,0.03611
912.297,0.03693
906.51,0.03801
900.724,0.03968
894.938,0.03980
889.152,0.03871
883.365,0.03776
877.579,0.03678
871.793,0.03608
866.007,0.03676
860.22,0.03714
854.434,0.03771
848.648,0.03795
842.862,0.03707
837.075,0.03734
831.289,0.03575
825.503,0.03518
819.717,0.03450
813.931,0.03438
808.144,0.03564
802.358,0.03742
796.572,0.03747
790.786,0.03775
784.999,0.03752
779.213,0.03611
773.427,0.03302
767.641,0.03105
761.854,0.03181
756.068,0.03293
750.282,0.03426
744.496,0.03713
738.709,0.03818
732.923,0.03958
727.137,0.03906
721.351,0.03777
715.565,0.03403
709.778,0.02993
703.992,0.02855
698.206,0.03237
692.42,0.03624
686.633,0.03440
680.847,0.03610
675.061,0.03513
669.275,0.03532
663.488,0.03564
657.702,0.03578
651.916,0.03649
646.13,0.03654
640.343,0.03667
634.557,0.03523
628.771,0.03843
622.985,0.03658
617.198,0.03500
611.412,0.03813
605.626,0.03539
599.84,0.03651