File: 01_Data/Rebond_Foam_Carpet_Pad/FTIR/IS/Rebond_Foam_Carpet_Pad_IS_S_220913_R7.dpt
7497.03,0.09502
7491.25,0.10305
7485.46,0.09531
7479.67,0.09619
7473.89,0.08547
7468.1,0.09428
7462.32,0.09543
7456.53,0.09992
7450.74,0.10280
7444.96,0.08893
7439.17,0.09683
7433.38,0.08989
7427.6,0.09172
7421.81,0.08538
7416.03,0.09090
7410.24,0.09575
7404.45,0.09964
7398.67,0.09988
7392.88,0.09407
7387.09,0.09092
7381.31,0.09441
7375.52,0.09405
7369.74,0.09730
7363.95,0.08898
7358.16,0.10044
7352.38,0.09530
7346.59,0.09216
7340.8,0.09208
7335.02,0.09331
7329.23,0.09022
7323.45,0.10004
7317.66,0.09912
7311.87,0.08920
7306.09,0.09162
7300.3,0.09384
7294.51,0.09133
7288.73,0.09012
7282.94,0.09406
7277.16,0.09474
7271.37,0.09405
7265.58,0.08973
7259.8,0.09816
7254.01,0.09707
7248.22,0.08859
7242.44,0.09661
7236.65,0.09353
7230.87,0.09492
7225.08,0.09726
7219.29,0.09110
7213.51,0.09176
7207.72,0.09419
7201.93,0.09627
7196.15,0.09950
7190.36,0.09659
7184.58,0.09001
7178.79,0.08724
7173,0.09122
7167.22,0.08747
7161.43,0.08877
7155.65,0.09152
7149.86,0.09363
7144.07,0.09536
7138.29,0.08310
7132.5,0.08463
7126.71,0.08701
7120.93,0.09197
7115.14,0.09224
7109.36,0.09324
7103.57,0.09487
7097.78,0.09524
7092,0.09329
7086.21,0.09399
7080.42,0.09354
7074.64,0.09527
7068.85,0.09454
7063.07,0.09309
7057.28,0.09348
7051.49,0.09257
7045.71,0.08369
7039.92,0.09405
7034.13,0.09262
7028.35,0.09708
7022.56,0.09394
7016.78,0.09521
7010.99,0.09599
7005.2,0.09374
6999.42,0.09546
6993.63,0.08957
6987.84,0.09408
6982.06,0.09746
6976.27,0.09238
6970.49,0.09368
6964.7,0.09658
6958.91,0.09627
6953.13,0.09326
6947.34,0.09365
6941.55,0.08947
6935.77,0.09103
6929.98,0.09929
6924.2,0.09014
6918.41,0.09431
6912.62,0.09491
6906.84,0.09803
6901.05,0.09562
6895.26,0.09958
6889.48,0.09206
6883.69,0.09141
6877.91,0.08917
6872.12,0.09257
6866.33,0.09188
6860.55,0.09183
6854.76,0.09584
6848.97,0.09185
6843.19,0.09467
6837.4,0.09608
6831.62,0.09282
6825.83,0.09338
6820.04,0.09661
6814.26,0.09345
6808.47,0.09583
6802.68,0.09147
6796.9,0.09328
6791.11,0.09740
6785.33,0.09723
6779.54,0.08926
6773.75,0.09601
6767.97,0.08582
6762.18,0.09462
6756.39,0.09305
6750.61,0.09553
6744.82,0.09663
6739.04,0.09575
6733.25,0.09630
6727.46,0.09531
6721.68,0.09629
6715.89,0.09314
6710.1,0.09553
6704.32,0.09643
6698.53,0.09313
6692.75,0.09071
6686.96,0.09248
6681.17,0.09401
6675.39,0.09777
6669.6,0.09166
6663.82,0.08711
6658.03,0.09096
6652.24,0.08602
6646.46,0.09415
6640.67,0.09424
6634.88,0.09120
6629.1,0.09580
6623.31,0.09660
6617.53,0.09387
6611.74,0.09241
6605.95,0.09909
6600.17,0.09538
6594.38,0.09565
6588.59,0.09208
6582.81,0.09216
6577.02,0.09620
6571.24,0.09159
6565.45,0.09602
6559.66,0.09310
6553.88,0.09453
6548.09,0.09766
6542.3,0.09443
6536.52,0.09263
6530.73,0.09514
6524.95,0.09202
6519.16,0.09214
6513.37,0.09223
6507.59,0.09330
6501.8,0.09547
6496.01,0.09199
6490.23,0.09214
6484.44,0.10069
6478.66,0.09746
6472.87,0.09347
6467.08,0.09575
6461.3,0.09381
6455.51,0.09711
6449.72,0.09686
6443.94,0.09571
6438.15,0.09673
6432.37,0.09579
6426.58,0.09292
6420.79,0.09492
6415.01,0.09493
6409.22,0.09501
6403.43,0.09525
6397.65,0.09353
6391.86,0.09487
6386.08,0.09409
6380.29,0.09423
6374.5,0.09296
6368.72,0.09346
6362.93,0.09633
6357.14,0.09659
6351.36,0.09601
6345.57,0.09836
6339.79,0.09718
6334,0.09574
6328.21,0.09717
6322.43,0.09744
6316.64,0.09543
6310.85,0.09622
6305.07,0.09265
6299.28,0.09680
6293.5,0.09599
6287.71,0.09406
6281.92,0.09802
6276.14,0.09560
6270.35,0.09849
6264.56,0.09773
6258.78,0.09565
6252.99,0.09252
6247.21,0.09180
6241.42,0.09398
6235.63,0.09405
6229.85,0.09555
6224.06,0.09463
6218.27,0.09508
6212.49,0.09286
6206.7,0.09353
6200.92,0.09851
6195.13,0.09723
6189.34,0.09376
6183.56,0.09506
6177.77,0.09791
6171.98,0.09738
6166.2,0.09681
6160.41,0.09611
6154.63,0.09648
6148.84,0.09365
6143.05,0.09666
6137.27,0.09844
6131.48,0.09821
6125.7,0.09528
6119.91,0.09676
6114.12,0.09447
6108.34,0.09533
6102.55,0.09640
6096.76,0.09655
6090.98,0.09630
6085.19,0.09791
6079.41,0.09459
6073.62,0.09413
6067.83,0.09483
6062.05,0.09474
6056.26,0.09440
6050.47,0.09619
6044.69,0.09349
6038.9,0.09299
6033.12,0.09710
6027.33,0.09491
6021.54,0.09285
6015.76,0.09627
6009.97,0.09231
6004.18,0.09274
5998.4,0.09551
5992.61,0.09668
5986.83,0.09615
5981.04,0.09378
5975.25,0.09156
5969.47,0.09388
5963.68,0.09329
5957.89,0.09335
5952.11,0.09568
5946.32,0.09290
5940.54,0.09209
5934.75,0.09235
5928.96,0.09262
5923.18,0.08985
5917.39,0.09313
5911.6,0.09372
5905.82,0.09218
5900.03,0.09148
5894.25,0.09002
5888.46,0.09149
5882.67,0.09114
5876.89,0.09300
5871.1,0.09130
5865.31,0.08900
5859.53,0.09000
5853.74,0.08797
5847.96,0.09078
5842.17,0.09143
5836.38,0.09019
5830.6,0.08937
5824.81,0.09271
5819.02,0.09170
5813.24,0.09083
5807.45,0.09063
5801.67,0.09045
5795.88,0.09278
5790.09,0.09200
5784.31,0.09204
5778.52,0.09116
5772.73,0.09202
5766.95,0.09005
5761.16,0.09093
5755.38,0.08969
5749.59,0.09017
5743.8,0.09151
5738.02,0.08782
5732.23,0.09110
5726.44,0.09212
5720.66,0.09068
5714.87,0.09245
5709.09,0.09290
5703.3,0.09306
5697.51,0.09303
5691.73,0.09513
5685.94,0.09286
5680.15,0.09409
5674.37,0.09573
5668.58,0.09562
5662.8,0.09385
5657.01,0.09470
5651.22,0.09467
5645.44,0.09680
5639.65,0.09607
5633.87,0.09505
5628.08,0.09588
5622.29,0.09456
5616.51,0.09557
5610.72,0.09589
5604.93,0.09485
5599.15,0.09772
5593.36,0.09559
5587.58,0.09741
5581.79,0.09630
5576,0.09686
5570.22,0.09822
5564.43,0.09737
5558.64,0.09592
5552.86,0.09620
5547.07,0.09606
5541.29,0.09696
5535.5,0.09823
5529.71,0.09711
5523.93,0.09487
5518.14,0.09678
5512.35,0.09734
5506.57,0.09679
5500.78,0.09837
5495,0.09733
5489.21,0.09726
5483.42,0.09698
5477.64,0.09696
5471.85,0.09841
5466.06,0.09704
5460.28,0.09880
5454.49,0.09808
5448.71,0.09848
5442.92,0.09802
5437.13,0.09901
5431.35,0.09837
5425.56,0.09872
5419.77,0.10033
5413.99,0.09737
5408.2,0.09852
5402.42,0.09876
5396.63,0.09973
5390.84,0.09757
5385.06,0.09789
5379.27,0.09879
5373.48,0.09987
5367.7,0.09911
5361.91,0.10034
5356.13,0.09991
5350.34,0.09786
5344.55,0.09893
5338.77,0.09942
5332.98,0.09931
5327.19,0.09871
5321.41,0.09941
5315.62,0.10000
5309.84,0.10077
5304.05,0.09897
5298.26,0.09903
5292.48,0.09995
5286.69,0.09949
5280.9,0.10015
5275.12,0.10053
5269.33,0.09754
5263.55,0.10066
5257.76,0.10065
5251.97,0.10228
5246.19,0.10061
5240.4,0.10047
5234.61,0.09987
5228.83,0.09922
5223.04,0.09975
5217.26,0.09843
5211.47,0.10057
5205.68,0.09921
5199.9,0.10086
5194.11,0.10108
5188.32,0.10075
5182.54,0.10006
5176.75,0.09906
5170.97,0.10105
5165.18,0.10173
5159.39,0.10034
5153.61,0.09900
5147.82,0.09998
5142.03,0.09899
5136.25,0.09907
5130.46,0.10079
5124.68,0.09970
5118.89,0.09916
5113.1,0.09916
5107.32,0.10029
5101.53,0.10038
5095.75,0.09880
5089.96,0.09918
5084.17,0.10001
5078.39,0.10093
5072.6,0.09935
5066.81,0.10059
5061.03,0.10116
5055.24,0.09867
5049.46,0.09897
5043.67,0.09944
5037.88,0.09927
5032.1,0.09952
5026.31,0.09886
5020.52,0.10022
5014.74,0.09852
5008.95,0.09929
5003.17,0.09789
4997.38,0.09794
4991.59,0.09809
4985.81,0.09798
4980.02,0.09734
4974.23,0.09720
4968.45,0.09607
4962.66,0.09629
4956.88,0.09597
4951.09,0.09552
4945.3,0.09477
4939.52,0.09403
4933.73,0.09392
4927.94,0.09229
4922.16,0.09325
4916.37,0.09328
4910.59,0.09328
4904.8,0.09294
4899.01,0.09145
4893.23,0.09284
4887.44,0.09259
4881.65,0.09241
4875.87,0.09197
4870.08,0.09280
4864.3,0.09288
4858.51,0.09266
4852.72,0.09333
4846.94,0.09241
4841.15,0.09281
4835.36,0.09404
4829.58,0.09304
4823.79,0.09377
4818.01,0.09473
4812.22,0.09578
4806.43,0.09579
4800.65,0.09519
4794.86,0.09532
4789.07,0.09631
4783.29,0.09699
4777.5,0.09697
4771.72,0.09609
4765.93,0.09720
4760.14,0.09657
4754.36,0.09596
4748.57,0.09635
4742.78,0.09593
4737,0.09541
4731.21,0.09680
4725.43,0.09574
4719.64,0.09593
4713.85,0.09436
4708.07,0.09333
4702.28,0.09302
4696.49,0.09340
4690.71,0.09400
4684.92,0.09336
4679.14,0.09209
4673.35,0.09295
4667.56,0.09246
4661.78,0.09221
4655.99,0.09229
4650.2,0.09346
4644.42,0.09271
4638.63,0.09214
4632.85,0.09199
4627.06,0.09184
4621.27,0.09302
4615.49,0.09246
4609.7,0.09257
4603.92,0.09295
4598.13,0.09335
4592.34,0.09454
4586.56,0.09397
4580.77,0.09359
4574.98,0.09377
4569.2,0.09463
4563.41,0.09409
4557.63,0.09438
4551.84,0.09544
4546.05,0.09493
4540.27,0.09555
4534.48,0.09528
4528.69,0.09538
4522.91,0.09576
4517.12,0.09534
4511.34,0.09493
4505.55,0.09486
4499.76,0.09461
4493.98,0.09273
4488.19,0.09243
4482.4,0.09276
4476.62,0.09218
4470.83,0.09187
4465.05,0.09062
4459.26,0.08928
4453.47,0.08860
4447.69,0.08613
4441.9,0.08449
4436.11,0.08322
4430.33,0.08038
4424.54,0.07907
4418.76,0.07701
4412.97,0.07667
4407.18,0.07562
4401.4,0.07540
4395.61,0.07538
4389.82,0.07470
4384.04,0.07539
4378.25,0.07434
4372.47,0.07355
4366.68,0.07256
4360.89,0.07196
4355.11,0.07263
4349.32,0.07086
4343.53,0.07123
4337.75,0.07106
4331.96,0.07164
4326.18,0.07243
4320.39,0.07312
4314.6,0.07306
4308.82,0.07438
4303.03,0.07576
4297.24,0.07637
4291.46,0.07539
4285.67,0.07585
4279.89,0.07549
4274.1,0.07619
4268.31,0.07560
4262.53,0.07563
4256.74,0.07567
4250.95,0.07581
4245.17,0.07649
4239.38,0.07713
4233.6,0.07710
4227.81,0.07711
4222.02,0.07733
4216.24,0.07796
4210.45,0.07913
4204.66,0.07917
4198.88,0.07897
4193.09,0.08025
4187.31,0.08048
4181.52,0.07951
4175.73,0.07941
4169.95,0.07956
4164.16,0.07993
4158.37,0.08008
4152.59,0.08011
4146.8,0.08014
4141.02,0.08012
4135.23,0.07966
4129.44,0.07963
4123.66,0.08051
4117.87,0.07960
4112.09,0.07911
4106.3,0.07969
4100.51,0.07918
4094.73,0.07815
4088.94,0.07753
4083.15,0.07683
4077.37,0.07620
4071.58,0.07598
4065.8,0.07487
4060.01,0.07501
4054.22,0.07454
4048.44,0.07399
4042.65,0.07397
4036.86,0.07423
4031.08,0.07464
4025.29,0.07445
4019.51,0.07472
4013.72,0.07519
4007.93,0.07560
4002.15,0.07523
3996.36,0.07615
3990.57,0.07619
3984.79,0.07679
3979,0.07729
3973.22,0.07856
3967.43,0.07932
3961.64,0.08007
3955.86,0.08070
3950.07,0.08120
3944.28,0.08208
3938.5,0.08306
3932.71,0.08341
3926.93,0.08405
3921.14,0.08458
3915.35,0.08476
3909.57,0.08547
3903.78,0.08568
3897.99,0.08599
3892.21,0.08596
3886.42,0.08686
3880.64,0.08685
3874.85,0.08747
3869.06,0.08838
3863.28,0.08760
3857.49,0.08878
3851.7,0.08791
3845.92,0.08907
3840.13,0.08952
3834.35,0.08848
3828.56,0.08947
3822.77,0.09047
3816.99,0.09076
3811.2,0.09038
3805.41,0.09135
3799.63,0.09095
3793.84,0.09138
3788.06,0.09163
3782.27,0.09226
3776.48,0.09296
3770.7,0.09307
3764.91,0.09332
3759.12,0.09426
3753.34,0.09467
3747.55,0.09446
3741.77,0.09459
3735.98,0.09585
3730.19,0.09557
3724.41,0.09570
3718.62,0.09575
3712.83,0.09639
3707.05,0.09616
3701.26,0.09605
3695.48,0.09591
3689.69,0.09533
3683.9,0.09446
3678.12,0.09441
3672.33,0.09308
3666.54,0.09212
3660.76,0.09134
3654.97,0.08983
3649.19,0.08931
3643.4,0.08764
3637.61,0.08683
3631.83,0.08730
3626.04,0.08515
3620.25,0.08499
3614.47,0.08429
3608.68,0.08364
3602.9,0.08299
3597.11,0.08279
3591.32,0.08186
3585.54,0.08068
3579.75,0.08005
3573.97,0.07906
3568.18,0.07844
3562.39,0.07785
3556.61,0.07661
3550.82,0.07572
3545.03,0.07483
3539.25,0.07310
3533.46,0.07229
3527.68,0.07050
3521.89,0.07042
3516.1,0.06974
3510.32,0.06811
3504.53,0.06727
3498.74,0.06649
3492.96,0.06526
3487.17,0.06412
3481.39,0.06243
3475.6,0.06004
3469.81,0.05812
3464.03,0.05549
3458.24,0.05295
3452.45,0.05222
3446.67,0.05167
3440.88,0.05083
3435.1,0.04966
3429.31,0.04723
3423.52,0.04483
3417.74,0.04289
3411.95,0.04049
3406.16,0.03873
3400.38,0.03695
3394.59,0.03550
3388.81,0.03440
3383.02,0.03330
3377.23,0.03288
3371.45,0.03175
3365.66,0.03164
3359.87,0.03075
3354.09,0.03085
3348.3,0.03086
3342.52,0.03050
3336.73,0.03021
3330.94,0.02934
3325.16,0.02937
3319.37,0.02893
3313.58,0.02953
3307.8,0.02968
3302.01,0.02925
3296.23,0.02960
3290.44,0.02919
3284.65,0.02976
3278.87,0.02977
3273.08,0.02978
3267.29,0.03028
3261.51,0.03021
3255.72,0.03091
3249.94,0.03217
3244.15,0.03306
3238.36,0.03262
3232.58,0.03377
3226.79,0.03479
3221,0.03554
3215.22,0.03579
3209.43,0.03596
3203.65,0.03555
3197.86,0.03629
3192.07,0.03718
3186.29,0.03743
3180.5,0.03795
3174.71,0.03842
3168.93,0.03983
3163.14,0.03959
3157.36,0.04038
3151.57,0.04042
3145.78,0.04046
3140,0.04104
3134.21,0.04034
3128.42,0.04044
3122.64,0.04070
3116.85,0.04056
3111.07,0.04081
3105.28,0.04042
3099.49,0.03977
3093.71,0.04020
3087.92,0.03862
3082.14,0.03786
3076.35,0.03825
3070.56,0.03783
3064.78,0.03683
3058.99,0.03665
3053.2,0.03744
3047.42,0.03770
3041.63,0.03741
3035.85,0.03606
3030.06,0.03474
3024.27,0.03475
3018.49,0.03610
3012.7,0.03610
3006.91,0.03504
3001.13,0.03335
2995.34,0.03160
2989.56,0.03009
2983.77,0.02846
2977.98,0.02756
2972.2,0.02769
2966.41,0.02751
2960.62,0.02800
2954.84,0.02850
2949.05,0.02747
2943.27,0.02761
2937.48,0.02666
2931.69,0.02672
2925.91,0.02703
2920.12,0.02727
2914.33,0.02774
2908.55,0.02790
2902.76,0.02738
2896.98,0.02813
2891.19,0.02837
2885.4,0.02836
2879.62,0.02859
2873.83,0.02843
2868.04,0.02874
2862.26,0.02949
2856.47,0.02949
2850.69,0.03046
2844.9,0.03248
2839.11,0.03409
2833.33,0.03659
2827.54,0.03803
2821.75,0.03976
2815.97,0.04046
2810.18,0.04176
2804.4,0.04242
2798.61,0.04315
2792.82,0.04346
2787.04,0.04435
2781.25,0.04561
2775.46,0.04612
2769.68,0.04715
2763.89,0.04801
2758.11,0.04821
2752.32,0.04882
2746.53,0.04927
2740.75,0.04984
2734.96,0.05092
2729.17,0.05207
2723.39,0.05369
2717.6,0.05518
2711.82,0.05634
2706.03,0.05781
2700.24,0.05906
2694.46,0.06068
2688.67,0.06209
2682.88,0.06377
2677.1,0.06409
2671.31,0.06473
2665.53,0.06577
2659.74,0.06673
2653.95,0.06712
2648.17,0.06802
2642.38,0.06838
2636.59,0.06846
2630.81,0.06939
2625.02,0.07039
2619.24,0.07157
2613.45,0.07142
2607.66,0.07167
2601.88,0.07098
2596.09,0.07079
2590.3,0.07077
2584.52,0.07074
2578.73,0.07160
2572.95,0.07293
2567.16,0.07365
2561.37,0.07463
2555.59,0.07575
2549.8,0.07610
2544.02,0.07656
2538.23,0.07722
2532.44,0.07775
2526.66,0.07752
2520.87,0.07815
2515.08,0.07807
2509.3,0.07837
2503.51,0.07830
2497.73,0.07883
2491.94,0.07894
2486.15,0.07944
2480.37,0.08050
2474.58,0.08092
2468.79,0.08157
2463.01,0.08151
2457.22,0.08202
2451.44,0.08194
2445.65,0.08231
2439.86,0.08274
2434.08,0.08339
2428.29,0.08390
2422.5,0.08382
2416.72,0.08379
2410.93,0.08317
2405.15,0.08312
2399.36,0.08299
2393.57,0.08269
2387.79,0.08277
2382,0.08207
2376.21,0.08153
2370.43,0.08180
2364.64,0.08155
2358.86,0.08125
2353.07,0.08118
2347.28,0.08055
2341.5,0.07994
2335.71,0.08055
2329.92,0.08055
2324.14,0.08023
2318.35,0.07972
2312.57,0.07944
2306.78,0.07841
2300.99,0.07750
2295.21,0.07627
2289.42,0.07506
2283.63,0.07374
2277.85,0.07276
2272.06,0.07239
2266.28,0.07248
2260.49,0.07286
2254.7,0.07242
2248.92,0.07017
2243.13,0.06439
2237.34,0.06153
2231.56,0.06735
2225.77,0.07502
2219.99,0.07787
2214.2,0.07890
2208.41,0.07914
2202.63,0.07927
2196.84,0.07986
2191.05,0.07993
2185.27,0.08014
2179.48,0.08047
2173.7,0.08103
2167.91,0.08097
2162.12,0.08106
2156.34,0.08126
2150.55,0.08165
2144.76,0.08163
2138.98,0.08115
2133.19,0.08176
2127.41,0.08186
2121.62,0.08107
2115.83,0.08119
2110.05,0.08141
2104.26,0.08073
2098.47,0.08056
2092.69,0.08028
2086.9,0.07994
2081.12,0.07980
2075.33,0.07921
2069.54,0.07947
2063.76,0.07901
2057.97,0.07865
2052.19,0.07836
2046.4,0.07784
2040.61,0.07724
2034.83,0.07656
2029.04,0.07584
2023.25,0.07510
2017.47,0.07469
2011.68,0.07409
2005.9,0.07399
2000.11,0.07350
1994.32,0.07298
1988.54,0.07237
1982.75,0.07213
1976.96,0.07166
1971.18,0.07054
1965.39,0.06962
1959.61,0.06902
1953.82,0.06835
1948.03,0.06889
1942.25,0.06959
1936.46,0.07062
1930.67,0.07142
1924.89,0.07162
1919.1,0.07136
1913.32,0.07105
1907.53,0.07014
1901.74,0.06919
1895.96,0.06864
1890.17,0.06804
1884.38,0.06811
1878.6,0.06796
1872.81,0.06870
1867.03,0.06981
1861.24,0.07040
1855.45,0.07052
1849.67,0.06972
1843.88,0.06867
1838.09,0.06753
1832.31,0.06497
1826.52,0.06355
1820.74,0.06107
1814.95,0.05937
1809.16,0.05742
1803.38,0.05586
1797.59,0.05432
1791.8,0.05308
1786.02,0.05114
1780.23,0.04930
1774.45,0.04773
1768.66,0.04483
1762.87,0.04187
1757.09,0.03752
1751.3,0.03201
1745.51,0.02800
1739.73,0.02655
1733.94,0.02624
1728.16,0.02675
1722.37,0.02708
1716.58,0.02742
1710.8,0.02716
1705.01,0.02746
1699.22,0.02781
1693.44,0.02758
1687.65,0.02805
1681.87,0.02726
1676.08,0.02734
1670.29,0.02742
1664.51,0.02635
1658.72,0.02660
1652.93,0.02593
1647.15,0.02598
1641.36,0.02685
1635.58,0.02834
1629.79,0.02872
1624,0.02851
1618.22,0.02792
1612.43,0.02667
1606.64,0.02610
1600.86,0.02627
1595.07,0.02691
1589.29,0.02742
1583.5,0.02766
1577.71,0.02806
1571.93,0.02650
1566.14,0.02547
1560.35,0.02452
1554.57,0.02464
1548.78,0.02452
1543,0.02490
1537.21,0.02572
1531.42,0.02652
1525.64,0.02737
1519.85,0.02773
1514.07,0.02764
1508.28,0.02840
1502.49,0.02856
1496.71,0.02893
1490.92,0.02969
1485.13,0.02957
1479.35,0.02851
1473.56,0.02851
1467.78,0.02785
1461.99,0.02796
1456.2,0.02714
1450.42,0.02759
1444.63,0.02817
1438.84,0.02927
1433.06,0.02998
1427.27,0.02995
1421.49,0.02920
1415.7,0.02856
1409.91,0.02867
1404.13,0.02938
1398.34,0.02931
1392.55,0.02894
1386.77,0.02854
1380.98,0.02749
1375.2,0.02713
1369.41,0.02831
1363.62,0.02985
1357.84,0.02955
1352.05,0.02903
1346.26,0.02841
1340.48,0.02830
1334.69,0.02855
1328.91,0.02803
1323.12,0.02768
1317.33,0.02644
1311.55,0.02608
1305.76,0.02632
1299.97,0.02617
1294.19,0.02667
1288.4,0.02697
1282.62,0.02676
1276.83,0.02663
1271.04,0.02689
1265.26,0.02628
1259.47,0.02613
1253.68,0.02598
1247.9,0.02575
1242.11,0.02520
1236.33,0.02563
1230.54,0.02568
1224.75,0.02618
1218.97,0.02670
1213.18,0.02771
1207.39,0.02742
1201.61,0.02819
1195.82,0.02768
1190.04,0.02756
1184.25,0.02737
1178.46,0.02696
1172.68,0.02656
1166.89,0.02632
1161.1,0.02593
1155.32,0.02550
1149.53,0.02505
1143.75,0.02503
1137.96,0.02574
1132.17,0.02569
1126.39,0.02670
1120.6,0.02653
1114.81,0.02751
1109.03,0.02833
1103.24,0.02892
1097.46,0.02927
1091.67,0.02968
1085.88,0.02998
1080.1,0.03083
1074.31,0.03128
1068.52,0.03216
1062.74,0.03210
1056.95,0.03194
1051.17,0.03188
1045.38,0.03295
1039.59,0.03210
1033.81,0.03290
1028.02,0.03286
1022.24,0.03281
1016.45,0.03379
1010.66,0.03407
1004.88,0.03435
999.09,0.03483
993.304,0.03596
987.518,0.03697
981.731,0.03762
975.945,0.03718
970.159,0.03711
964.373,0.03735
958.586,0.03799
952.8,0.03876
947.014,0.03810
941.228,0.03656
935.441,0.03616
929.655,0.03577
923.869,0.03605
918.083,0.03652
912.297,0.03682
906.51,0.03762
900.724,0.03976
894.938,0.04032
889.152,0.03914
883.365,0.03737
877.579,0.03623
871.793,0.03569
866.007,0.03661
860.22,0.03733
854.434,0.03761
848.648,0.03805
842.862,0.03827
837.075,0.03718
831.289,0.03670
825.503,0.03557
819.717,0.03398
813.931,0.03450
808.144,0.03511
802.358,0.03672
796.572,0.03681
790.786,0.03775
784.999,0.03627
779.213,0.03515
773.427,0.03299
767.641,0.03190
761.854,0.03141
756.068,0.03269
750.282,0.03486
744.496,0.03609
738.709,0.03696
732.923,0.03816
727.137,0.03898
721.351,0.03698
715.565,0.03367
709.778,0.03008
703.992,0.02982
698.206,0.03287
692.42,0.03602
686.633,0.03606
680.847,0.03594
675.061,0.03496
669.275,0.03526
663.488,0.03496
657.702,0.03641
651.916,0.03701
646.13,0.03653
640.343,0.03678
634.557,0.03705
628.771,0.03838
622.985,0.03605
617.198,0.03808
611.412,0.03676
605.626,0.03561
599.84,0.03741