File: 01_Data/Corian_Countertop/FTIR/IS/Corian_Countertop_IS_S_221003_R8.dpt
7497.03,0.38190
7491.25,0.38041
7485.46,0.37903
7479.67,0.36969
7473.89,0.37421
7468.1,0.36587
7462.32,0.34679
7456.53,0.34478
7450.74,0.34474
7444.96,0.33791
7439.17,0.34226
7433.38,0.33203
7427.6,0.33761
7421.81,0.34258
7416.03,0.32344
7410.24,0.33142
7404.45,0.32975
7398.67,0.33097
7392.88,0.33537
7387.09,0.33790
7381.31,0.33192
7375.52,0.33502
7369.74,0.33397
7363.95,0.33127
7358.16,0.32693
7352.38,0.32587
7346.59,0.32554
7340.8,0.32196
7335.02,0.31129
7329.23,0.31917
7323.45,0.31140
7317.66,0.30535
7311.87,0.30815
7306.09,0.30309
7300.3,0.30050
7294.51,0.29247
7288.73,0.29162
7282.94,0.29329
7277.16,0.29294
7271.37,0.28419
7265.58,0.28335
7259.8,0.28211
7254.01,0.28110
7248.22,0.27393
7242.44,0.26654
7236.65,0.26667
7230.87,0.26577
7225.08,0.27181
7219.29,0.26450
7213.51,0.26126
7207.72,0.24965
7201.93,0.25102
7196.15,0.23832
7190.36,0.24187
7184.58,0.22925
7178.79,0.22498
7173,0.20863
7167.22,0.18294
7161.43,0.16726
7155.65,0.13594
7149.86,0.12416
7144.07,0.13486
7138.29,0.15865
7132.5,0.17624
7126.71,0.18813
7120.93,0.19016
7115.14,0.18797
7109.36,0.18647
7103.57,0.18223
7097.78,0.17655
7092,0.16295
7086.21,0.16790
7080.42,0.14847
7074.64,0.13176
7068.85,0.12629
7063.07,0.10854
7057.28,0.10925
7051.49,0.10018
7045.71,0.10690
7039.92,0.10708
7034.13,0.11939
7028.35,0.13178
7022.56,0.14155
7016.78,0.15890
7010.99,0.15529
7005.2,0.14509
6999.42,0.13964
6993.63,0.13373
6987.84,0.12481
6982.06,0.11648
6976.27,0.11391
6970.49,0.10819
6964.7,0.10484
6958.91,0.10245
6953.13,0.10509
6947.34,0.10826
6941.55,0.11373
6935.77,0.11698
6929.98,0.11986
6924.2,0.11198
6918.41,0.11170
6912.62,0.10175
6906.84,0.09554
6901.05,0.09602
6895.26,0.09078
6889.48,0.09519
6883.69,0.09899
6877.91,0.11240
6872.12,0.12011
6866.33,0.13076
6860.55,0.12243
6854.76,0.10726
6848.97,0.09479
6843.19,0.08924
6837.4,0.09020
6831.62,0.10496
6825.83,0.12077
6820.04,0.12908
6814.26,0.14052
6808.47,0.15336
6802.68,0.16060
6796.9,0.15894
6791.11,0.16516
6785.33,0.16703
6779.54,0.17511
6773.75,0.18226
6767.97,0.19127
6762.18,0.18479
6756.39,0.18747
6750.61,0.18719
6744.82,0.18754
6739.04,0.19958
6733.25,0.20552
6727.46,0.20383
6721.68,0.20271
6715.89,0.20890
6710.1,0.20353
6704.32,0.20502
6698.53,0.20311
6692.75,0.20256
6686.96,0.20556
6681.17,0.20245
6675.39,0.19971
6669.6,0.19856
6663.82,0.19686
6658.03,0.19657
6652.24,0.19162
6646.46,0.19119
6640.67,0.18456
6634.88,0.18164
6629.1,0.17053
6623.31,0.17126
6617.53,0.16538
6611.74,0.15954
6605.95,0.15314
6600.17,0.14601
6594.38,0.13894
6588.59,0.13723
6582.81,0.14028
6577.02,0.14322
6571.24,0.14701
6565.45,0.14935
6559.66,0.15257
6553.88,0.15441
6548.09,0.16241
6542.3,0.16282
6536.52,0.16285
6530.73,0.16051
6524.95,0.16268
6519.16,0.15815
6513.37,0.15635
6507.59,0.15258
6501.8,0.15067
6496.01,0.14872
6490.23,0.14650
6484.44,0.14518
6478.66,0.14058
6472.87,0.13940
6467.08,0.13829
6461.3,0.13405
6455.51,0.13404
6449.72,0.12801
6443.94,0.13141
6438.15,0.13587
6432.37,0.13776
6426.58,0.14300
6420.79,0.14621
6415.01,0.15623
6409.22,0.15957
6403.43,0.16270
6397.65,0.16739
6391.86,0.16881
6386.08,0.17669
6380.29,0.17694
6374.5,0.18122
6368.72,0.18057
6362.93,0.18204
6357.14,0.18622
6351.36,0.19134
6345.57,0.19264
6339.79,0.19332
6334,0.19839
6328.21,0.19914
6322.43,0.20028
6316.64,0.20072
6310.85,0.20288
6305.07,0.20455
6299.28,0.20595
6293.5,0.20637
6287.71,0.21189
6281.92,0.21119
6276.14,0.21586
6270.35,0.21862
6264.56,0.22037
6258.78,0.22296
6252.99,0.22579
6247.21,0.23033
6241.42,0.23152
6235.63,0.23168
6229.85,0.23700
6224.06,0.23567
6218.27,0.23911
6212.49,0.23869
6206.7,0.24096
6200.92,0.24097
6195.13,0.24285
6189.34,0.24677
6183.56,0.24415
6177.77,0.24264
6171.98,0.24311
6166.2,0.24451
6160.41,0.24666
6154.63,0.24564
6148.84,0.24673
6143.05,0.25058
6137.27,0.25206
6131.48,0.25035
6125.7,0.24904
6119.91,0.25053
6114.12,0.25301
6108.34,0.24850
6102.55,0.24565
6096.76,0.24878
6090.98,0.24647
6085.19,0.24526
6079.41,0.24534
6073.62,0.23806
6067.83,0.23709
6062.05,0.23300
6056.26,0.22504
6050.47,0.21958
6044.69,0.20966
6038.9,0.20250
6033.12,0.19213
6027.33,0.18086
6021.54,0.17563
6015.76,0.16977
6009.97,0.16352
6004.18,0.16151
5998.4,0.15606
5992.61,0.15675
5986.83,0.15460
5981.04,0.15007
5975.25,0.14471
5969.47,0.14064
5963.68,0.13595
5957.89,0.13190
5952.11,0.13199
5946.32,0.13372
5940.54,0.13313
5934.75,0.13822
5928.96,0.14412
5923.18,0.14714
5917.39,0.15085
5911.6,0.15121
5905.82,0.15219
5900.03,0.15219
5894.25,0.15119
5888.46,0.14985
5882.67,0.14795
5876.89,0.14728
5871.1,0.14696
5865.31,0.14924
5859.53,0.14896
5853.74,0.14963
5847.96,0.15149
5842.17,0.15512
5836.38,0.15454
5830.6,0.15229
5824.81,0.15062
5819.02,0.14935
5813.24,0.14888
5807.45,0.15058
5801.67,0.15167
5795.88,0.15052
5790.09,0.15276
5784.31,0.15442
5778.52,0.15440
5772.73,0.15700
5766.95,0.15999
5761.16,0.16122
5755.38,0.16236
5749.59,0.16578
5743.8,0.16778
5738.02,0.17207
5732.23,0.17411
5726.44,0.17373
5720.66,0.17483
5714.87,0.17910
5709.09,0.18041
5703.3,0.18398
5697.51,0.18671
5691.73,0.18601
5685.94,0.18814
5680.15,0.19040
5674.37,0.19046
5668.58,0.19308
5662.8,0.19250
5657.01,0.19254
5651.22,0.19095
5645.44,0.19165
5639.65,0.18934
5633.87,0.18601
5628.08,0.18300
5622.29,0.18099
5616.51,0.17732
5610.72,0.17611
5604.93,0.17707
5599.15,0.17642
5593.36,0.17544
5587.58,0.17645
5581.79,0.17641
5576,0.17727
5570.22,0.17870
5564.43,0.17998
5558.64,0.18233
5552.86,0.18187
5547.07,0.18293
5541.29,0.18371
5535.5,0.18235
5529.71,0.18086
5523.93,0.18052
5518.14,0.18021
5512.35,0.17778
5506.57,0.17492
5500.78,0.17493
5495,0.17244
5489.21,0.17101
5483.42,0.17076
5477.64,0.16856
5471.85,0.16850
5466.06,0.16692
5460.28,0.16775
5454.49,0.16899
5448.71,0.16724
5442.92,0.16751
5437.13,0.16716
5431.35,0.16790
5425.56,0.16681
5419.77,0.16483
5413.99,0.16148
5408.2,0.16117
5402.42,0.15886
5396.63,0.15711
5390.84,0.15603
5385.06,0.15546
5379.27,0.15770
5373.48,0.15768
5367.7,0.15878
5361.91,0.15796
5356.13,0.15947
5350.34,0.15983
5344.55,0.15902
5338.77,0.15655
5332.98,0.15579
5327.19,0.15457
5321.41,0.15233
5315.62,0.15032
5309.84,0.14965
5304.05,0.14743
5298.26,0.14322
5292.48,0.13911
5286.69,0.13317
5280.9,0.13062
5275.12,0.12665
5269.33,0.12339
5263.55,0.11986
5257.76,0.11847
5251.97,0.11619
5246.19,0.11524
5240.4,0.11472
5234.61,0.11594
5228.83,0.11658
5223.04,0.11935
5217.26,0.12084
5211.47,0.12283
5205.68,0.12457
5199.9,0.12638
5194.11,0.12957
5188.32,0.12913
5182.54,0.12979
5176.75,0.13046
5170.97,0.12960
5165.18,0.12869
5159.39,0.12781
5153.61,0.12488
5147.82,0.12353
5142.03,0.12295
5136.25,0.12197
5130.46,0.12148
5124.68,0.12095
5118.89,0.12096
5113.1,0.12013
5107.32,0.12281
5101.53,0.12315
5095.75,0.12421
5089.96,0.12447
5084.17,0.12596
5078.39,0.12570
5072.6,0.12581
5066.81,0.12510
5061.03,0.12487
5055.24,0.12488
5049.46,0.12377
5043.67,0.12339
5037.88,0.12280
5032.1,0.12240
5026.31,0.12161
5020.52,0.12141
5014.74,0.11992
5008.95,0.11879
5003.17,0.11803
4997.38,0.11765
4991.59,0.11606
4985.81,0.11578
4980.02,0.11725
4974.23,0.11490
4968.45,0.11519
4962.66,0.11491
4956.88,0.11270
4951.09,0.11199
4945.3,0.11175
4939.52,0.11003
4933.73,0.10909
4927.94,0.10924
4922.16,0.10911
4916.37,0.10779
4910.59,0.10827
4904.8,0.10712
4899.01,0.10592
4893.23,0.10481
4887.44,0.10535
4881.65,0.10402
4875.87,0.10427
4870.08,0.10478
4864.3,0.10388
4858.51,0.10266
4852.72,0.10188
4846.94,0.10079
4841.15,0.10154
4835.36,0.10020
4829.58,0.10015
4823.79,0.09843
4818.01,0.09795
4812.22,0.09651
4806.43,0.09659
4800.65,0.09615
4794.86,0.09474
4789.07,0.09510
4783.29,0.09430
4777.5,0.09215
4771.72,0.09111
4765.93,0.08990
4760.14,0.08882
4754.36,0.08730
4748.57,0.08542
4742.78,0.08445
4737,0.08269
4731.21,0.08279
4725.43,0.08264
4719.64,0.08171
4713.85,0.08068
4708.07,0.08000
4702.28,0.07800
4696.49,0.07685
4690.71,0.07412
4684.92,0.07369
4679.14,0.07408
4673.35,0.07331
4667.56,0.07449
4661.78,0.07413
4655.99,0.07407
4650.2,0.07264
4644.42,0.07267
4638.63,0.07137
4632.85,0.07002
4627.06,0.06906
4621.27,0.06830
4615.49,0.06715
4609.7,0.06615
4603.92,0.06562
4598.13,0.06439
4592.34,0.06397
4586.56,0.06292
4580.77,0.06199
4574.98,0.06260
4569.2,0.06290
4563.41,0.06180
4557.63,0.06068
4551.84,0.06111
4546.05,0.06039
4540.27,0.05981
4534.48,0.05897
4528.69,0.05892
4522.91,0.05759
4517.12,0.05635
4511.34,0.05720
4505.55,0.05692
4499.76,0.05571
4493.98,0.05633
4488.19,0.05599
4482.4,0.05556
4476.62,0.05397
4470.83,0.05492
4465.05,0.05380
4459.26,0.05333
4453.47,0.05344
4447.69,0.05322
4441.9,0.05340
4436.11,0.05260
4430.33,0.05307
4424.54,0.05370
4418.76,0.05360
4412.97,0.05346
4407.18,0.05367
4401.4,0.05285
4395.61,0.05322
4389.82,0.05329
4384.04,0.05427
4378.25,0.05288
4372.47,0.05377
4366.68,0.05408
4360.89,0.05371
4355.11,0.05437
4349.32,0.05464
4343.53,0.05449
4337.75,0.05424
4331.96,0.05425
4326.18,0.05457
4320.39,0.05369
4314.6,0.05471
4308.82,0.05382
4303.03,0.05427
4297.24,0.05497
4291.46,0.05473
4285.67,0.05484
4279.89,0.05497
4274.1,0.05500
4268.31,0.05428
4262.53,0.05432
4256.74,0.05457
4250.95,0.05455
4245.17,0.05365
4239.38,0.05421
4233.6,0.05431
4227.81,0.05410
4222.02,0.05423
4216.24,0.05443
4210.45,0.05404
4204.66,0.05424
4198.88,0.05476
4193.09,0.05418
4187.31,0.05483
4181.52,0.05385
4175.73,0.05430
4169.95,0.05312
4164.16,0.05435
4158.37,0.05448
4152.59,0.05423
4146.8,0.05364
4141.02,0.05380
4135.23,0.05469
4129.44,0.05417
4123.66,0.05440
4117.87,0.05425
4112.09,0.05436
4106.3,0.05436
4100.51,0.05459
4094.73,0.05420
4088.94,0.05465
4083.15,0.05491
4077.37,0.05419
4071.58,0.05498
4065.8,0.05498
4060.01,0.05539
4054.22,0.05485
4048.44,0.05502
4042.65,0.05503
4036.86,0.05483
4031.08,0.05544
4025.29,0.05496
4019.51,0.05415
4013.72,0.05445
4007.93,0.05443
4002.15,0.05478
3996.36,0.05459
3990.57,0.05451
3984.79,0.05459
3979,0.05474
3973.22,0.05443
3967.43,0.05472
3961.64,0.05494
3955.86,0.05537
3950.07,0.05455
3944.28,0.05486
3938.5,0.05448
3932.71,0.05450
3926.93,0.05445
3921.14,0.05387
3915.35,0.05369
3909.57,0.05364
3903.78,0.05366
3897.99,0.05358
3892.21,0.05389
3886.42,0.05435
3880.64,0.05421
3874.85,0.05450
3869.06,0.05387
3863.28,0.05318
3857.49,0.05389
3851.7,0.05362
3845.92,0.05409
3840.13,0.05433
3834.35,0.05371
3828.56,0.05350
3822.77,0.05371
3816.99,0.05391
3811.2,0.05464
3805.41,0.05422
3799.63,0.05415
3793.84,0.05419
3788.06,0.05412
3782.27,0.05411
3776.48,0.05372
3770.7,0.05383
3764.91,0.05417
3759.12,0.05352
3753.34,0.05316
3747.55,0.05314
3741.77,0.05289
3735.98,0.05322
3730.19,0.05275
3724.41,0.05394
3718.62,0.05395
3712.83,0.05300
3707.05,0.05310
3701.26,0.05302
3695.48,0.05345
3689.69,0.05301
3683.9,0.05260
3678.12,0.05320
3672.33,0.05316
3666.54,0.05221
3660.76,0.05293
3654.97,0.05243
3649.19,0.05242
3643.4,0.05273
3637.61,0.05284
3631.83,0.05461
3626.04,0.05651
3620.25,0.05594
3614.47,0.05357
3608.68,0.05361
3602.9,0.05328
3597.11,0.05322
3591.32,0.05294
3585.54,0.05262
3579.75,0.05244
3573.97,0.05262
3568.18,0.05324
3562.39,0.05306
3556.61,0.05300
3550.82,0.05293
3545.03,0.05471
3539.25,0.05763
3533.46,0.06351
3527.68,0.06377
3521.89,0.05966
3516.1,0.05849
3510.32,0.05834
3504.53,0.05935
3498.74,0.06050
3492.96,0.06397
3487.17,0.06722
3481.39,0.06946
3475.6,0.07151
3469.81,0.07311
3464.03,0.07375
3458.24,0.07223
3452.45,0.06979
3446.67,0.06678
3440.88,0.06333
3435.1,0.06049
3429.31,0.05770
3423.52,0.05476
3417.74,0.05367
3411.95,0.05318
3406.16,0.05251
3400.38,0.05375
3394.59,0.05459
3388.81,0.05428
3383.02,0.05366
3377.23,0.05643
3371.45,0.05625
3365.66,0.05537
3359.87,0.05457
3354.09,0.05400
3348.3,0.05414
3342.52,0.05416
3336.73,0.05378
3330.94,0.05348
3325.16,0.05324
3319.37,0.05323
3313.58,0.05340
3307.8,0.05331
3302.01,0.05344
3296.23,0.05299
3290.44,0.05268
3284.65,0.05311
3278.87,0.05242
3273.08,0.05282
3267.29,0.05248
3261.51,0.05217
3255.72,0.05290
3249.94,0.05288
3244.15,0.05251
3238.36,0.05311
3232.58,0.05256
3226.79,0.05234
3221,0.05257
3215.22,0.05268
3209.43,0.05294
3203.65,0.05287
3197.86,0.05335
3192.07,0.05375
3186.29,0.05387
3180.5,0.05333
3174.71,0.05370
3168.93,0.05305
3163.14,0.05324
3157.36,0.05314
3151.57,0.05385
3145.78,0.05352
3140,0.05311
3134.21,0.05269
3128.42,0.05265
3122.64,0.05236
3116.85,0.05286
3111.07,0.05306
3105.28,0.05306
3099.49,0.05265
3093.71,0.05293
3087.92,0.05260
3082.14,0.05256
3076.35,0.05249
3070.56,0.05249
3064.78,0.05216
3058.99,0.05162
3053.2,0.05147
3047.42,0.05084
3041.63,0.05002
3035.85,0.04930
3030.06,0.04901
3024.27,0.04796
3018.49,0.04798
3012.7,0.04836
3006.91,0.04815
3001.13,0.04782
2995.34,0.04869
2989.56,0.04953
2983.77,0.04980
2977.98,0.04994
2972.2,0.04927
2966.41,0.04865
2960.62,0.04835
2954.84,0.04922
2949.05,0.05010
2943.27,0.05179
2937.48,0.05205
2931.69,0.05262
2925.91,0.05369
2920.12,0.05445
2914.33,0.05414
2908.55,0.05361
2902.76,0.05352
2896.98,0.05316
2891.19,0.05279
2885.4,0.05336
2879.62,0.05319
2873.83,0.05290
2868.04,0.05324
2862.26,0.05325
2856.47,0.05331
2850.69,0.05416
2844.9,0.05392
2839.11,0.05349
2833.33,0.05341
2827.54,0.05339
2821.75,0.05359
2815.97,0.05411
2810.18,0.05451
2804.4,0.05433
2798.61,0.05442
2792.82,0.05455
2787.04,0.05452
2781.25,0.05472
2775.46,0.05454
2769.68,0.05406
2763.89,0.05458
2758.11,0.05437
2752.32,0.05512
2746.53,0.05484
2740.75,0.05483
2734.96,0.05548
2729.17,0.05540
2723.39,0.05528
2717.6,0.05537
2711.82,0.05570
2706.03,0.05563
2700.24,0.05500
2694.46,0.05537
2688.67,0.05552
2682.88,0.05541
2677.1,0.05513
2671.31,0.05514
2665.53,0.05486
2659.74,0.05479
2653.95,0.05436
2648.17,0.05458
2642.38,0.05409
2636.59,0.05370
2630.81,0.05405
2625.02,0.05422
2619.24,0.05383
2613.45,0.05395
2607.66,0.05392
2601.88,0.05361
2596.09,0.05363
2590.3,0.05371
2584.52,0.05358
2578.73,0.05373
2572.95,0.05339
2567.16,0.05342
2561.37,0.05357
2555.59,0.05357
2549.8,0.05293
2544.02,0.05360
2538.23,0.05391
2532.44,0.05358
2526.66,0.05372
2520.87,0.05325
2515.08,0.05380
2509.3,0.05337
2503.51,0.05366
2497.73,0.05362
2491.94,0.05373
2486.15,0.05360
2480.37,0.05381
2474.58,0.05376
2468.79,0.05332
2463.01,0.05323
2457.22,0.05324
2451.44,0.05301
2445.65,0.05308
2439.86,0.05331
2434.08,0.05324
2428.29,0.05277
2422.5,0.05239
2416.72,0.05245
2410.93,0.05231
2405.15,0.05256
2399.36,0.05221
2393.57,0.05211
2387.79,0.05221
2382,0.05236
2376.21,0.05213
2370.43,0.05223
2364.64,0.05251
2358.86,0.05187
2353.07,0.05192
2347.28,0.05189
2341.5,0.05219
2335.71,0.05193
2329.92,0.05177
2324.14,0.05188
2318.35,0.05184
2312.57,0.05186
2306.78,0.05165
2300.99,0.05202
2295.21,0.05167
2289.42,0.05152
2283.63,0.05135
2277.85,0.05122
2272.06,0.05132
2266.28,0.05166
2260.49,0.05154
2254.7,0.05125
2248.92,0.05157
2243.13,0.05129
2237.34,0.05122
2231.56,0.05141
2225.77,0.05101
2219.99,0.05076
2214.2,0.05081
2208.41,0.05057
2202.63,0.05056
2196.84,0.05043
2191.05,0.05075
2185.27,0.05025
2179.48,0.05048
2173.7,0.05035
2167.91,0.04984
2162.12,0.04986
2156.34,0.04962
2150.55,0.04978
2144.76,0.04955
2138.98,0.05014
2133.19,0.05020
2127.41,0.04987
2121.62,0.04976
2115.83,0.04984
2110.05,0.04944
2104.26,0.04946
2098.47,0.04957
2092.69,0.04983
2086.9,0.04971
2081.12,0.04968
2075.33,0.04936
2069.54,0.04930
2063.76,0.04911
2057.97,0.04905
2052.19,0.04909
2046.4,0.04912
2040.61,0.04922
2034.83,0.04894
2029.04,0.04872
2023.25,0.04871
2017.47,0.04910
2011.68,0.04876
2005.9,0.04922
2000.11,0.04887
1994.32,0.04864
1988.54,0.04822
1982.75,0.04874
1976.96,0.04860
1971.18,0.04867
1965.39,0.04839
1959.61,0.04877
1953.82,0.04842
1948.03,0.04851
1942.25,0.04826
1936.46,0.04824
1930.67,0.04816
1924.89,0.04846
1919.1,0.04825
1913.32,0.04828
1907.53,0.04783
1901.74,0.04789
1895.96,0.04754
1890.17,0.04764
1884.38,0.04743
1878.6,0.04776
1872.81,0.04699
1867.03,0.04673
1861.24,0.04663
1855.45,0.04652
1849.67,0.04613
1843.88,0.04608
1838.09,0.04550
1832.31,0.04559
1826.52,0.04501
1820.74,0.04497
1814.95,0.04454
1809.16,0.04389
1803.38,0.04363
1797.59,0.04295
1791.8,0.04222
1786.02,0.04169
1780.23,0.04059
1774.45,0.03940
1768.66,0.03764
1762.87,0.03532
1757.09,0.03211
1751.3,0.02709
1745.51,0.02539
1739.73,0.03713
1733.94,0.05678
1728.16,0.07489
1722.37,0.08271
1716.58,0.07840
1710.8,0.07043
1705.01,0.06477
1699.22,0.06099
1693.44,0.05821
1687.65,0.05748
1681.87,0.05627
1676.08,0.05522
1670.29,0.05439
1664.51,0.05407
1658.72,0.05383
1652.93,0.05321
1647.15,0.05264
1641.36,0.05226
1635.58,0.05253
1629.79,0.05245
1624,0.05186
1618.22,0.05173
1612.43,0.05169
1606.64,0.05108
1600.86,0.05078
1595.07,0.05082
1589.29,0.05069
1583.5,0.05029
1577.71,0.04983
1571.93,0.04946
1566.14,0.04897
1560.35,0.04884
1554.57,0.04874
1548.78,0.04794
1543,0.04773
1537.21,0.04739
1531.42,0.04719
1525.64,0.04654
1519.85,0.04607
1514.07,0.04538
1508.28,0.04488
1502.49,0.04378
1496.71,0.04198
1490.92,0.04147
1485.13,0.04323
1479.35,0.04521
1473.56,0.04560
1467.78,0.04568
1461.99,0.04512
1456.2,0.04541
1450.42,0.04754
1444.63,0.04996
1438.84,0.05062
1433.06,0.05458
1427.27,0.05576
1421.49,0.05439
1415.7,0.05216
1409.91,0.05053
1404.13,0.04926
1398.34,0.04848
1392.55,0.04775
1386.77,0.04916
1380.98,0.05054
1375.2,0.04968
1369.41,0.04936
1363.62,0.04901
1357.84,0.04864
1352.05,0.04827
1346.26,0.04757
1340.48,0.04680
1334.69,0.04642
1328.91,0.04578
1323.12,0.04493
1317.33,0.04399
1311.55,0.04298
1305.76,0.04249
1299.97,0.04076
1294.19,0.03910
1288.4,0.03780
1282.62,0.03637
1276.83,0.03697
1271.04,0.04128
1265.26,0.04399
1259.47,0.04358
1253.68,0.04288
1247.9,0.04361
1242.11,0.04763
1236.33,0.05166
1230.54,0.05208
1224.75,0.05001
1218.97,0.04658
1213.18,0.04196
1207.39,0.03766
1201.61,0.03812
1195.82,0.04443
1190.04,0.05218
1184.25,0.05350
1178.46,0.05173
1172.68,0.05202
1166.89,0.05158
1161.1,0.05246
1155.32,0.05918
1149.53,0.07592
1143.75,0.08647
1137.96,0.08711
1132.17,0.08409
1126.39,0.08007
1120.6,0.07809
1114.81,0.07655
1109.03,0.07469
1103.24,0.07403
1097.46,0.07325
1091.67,0.07327
1085.88,0.07365
1080.1,0.07258
1074.31,0.07303
1068.52,0.07218
1062.74,0.07368
1056.95,0.07810
1051.17,0.08410
1045.38,0.08697
1039.59,0.08594
1033.81,0.08387
1028.02,0.08074
1022.24,0.07697
1016.45,0.07199
1010.66,0.06629
1004.88,0.06014
999.09,0.05675
993.304,0.05786
987.518,0.05975
981.731,0.06164
975.945,0.06170
970.159,0.06183
964.373,0.06324
958.586,0.06419
952.8,0.06352
947.014,0.06315
941.228,0.06310
935.441,0.06241
929.655,0.06164
923.869,0.06110
918.083,0.06171
912.297,0.06140
906.51,0.06175
900.724,0.06216
894.938,0.06347
889.152,0.06403
883.365,0.06518
877.579,0.06522
871.793,0.06621
866.007,0.06495
860.22,0.06431
854.434,0.06331
848.648,0.06216
842.862,0.06227
837.075,0.06668
831.289,0.06802
825.503,0.06733
819.717,0.07106
813.931,0.07184
808.144,0.07148
802.358,0.07286
796.572,0.07283
790.786,0.07132
784.999,0.06958
779.213,0.06831
773.427,0.06653
767.641,0.06541
761.854,0.06353
756.068,0.06171
750.282,0.06434
744.496,0.06950
738.709,0.07005
732.923,0.06956
727.137,0.06884
721.351,0.06698
715.565,0.06649
709.778,0.06454
703.992,0.06395
698.206,0.06343
692.42,0.06468
686.633,0.06445
680.847,0.06529
675.061,0.06793
669.275,0.06830
663.488,0.06521
657.702,0.06389
651.916,0.06314
646.13,0.06527
640.343,0.06595
634.557,0.06642
628.771,0.06674
622.985,0.06521
617.198,0.06705
611.412,0.06818
605.626,0.07194
599.84,0.06980