File: 01_Data/Corian_Countertop/FTIR/IS/Corian_Countertop_IS_S_221003_R7.dpt
7497.03,0.38237
7491.25,0.38156
7485.46,0.37475
7479.67,0.37078
7473.89,0.36382
7468.1,0.36205
7462.32,0.36009
7456.53,0.35166
7450.74,0.34742
7444.96,0.34453
7439.17,0.34028
7433.38,0.33656
7427.6,0.33366
7421.81,0.33277
7416.03,0.32910
7410.24,0.33902
7404.45,0.33924
7398.67,0.33140
7392.88,0.32493
7387.09,0.33161
7381.31,0.33132
7375.52,0.33513
7369.74,0.32608
7363.95,0.32960
7358.16,0.32636
7352.38,0.32711
7346.59,0.31851
7340.8,0.31694
7335.02,0.31125
7329.23,0.30209
7323.45,0.30987
7317.66,0.30601
7311.87,0.30286
7306.09,0.30120
7300.3,0.29880
7294.51,0.29736
7288.73,0.29997
7282.94,0.30314
7277.16,0.30328
7271.37,0.29303
7265.58,0.28916
7259.8,0.27701
7254.01,0.27473
7248.22,0.28266
7242.44,0.27480
7236.65,0.27562
7230.87,0.27364
7225.08,0.27054
7219.29,0.26751
7213.51,0.26734
7207.72,0.25886
7201.93,0.25187
7196.15,0.24923
7190.36,0.23322
7184.58,0.23051
7178.79,0.22172
7173,0.20989
7167.22,0.19566
7161.43,0.16999
7155.65,0.13349
7149.86,0.12519
7144.07,0.14232
7138.29,0.16206
7132.5,0.18281
7126.71,0.18680
7120.93,0.19413
7115.14,0.19079
7109.36,0.18973
7103.57,0.18536
7097.78,0.17506
7092,0.17832
7086.21,0.16015
7080.42,0.15549
7074.64,0.13750
7068.85,0.12575
7063.07,0.11316
7057.28,0.10694
7051.49,0.11011
7045.71,0.11217
7039.92,0.11484
7034.13,0.11763
7028.35,0.12968
7022.56,0.14990
7016.78,0.15071
7010.99,0.15330
7005.2,0.15047
6999.42,0.13798
6993.63,0.13251
6987.84,0.12751
6982.06,0.11748
6976.27,0.11178
6970.49,0.11346
6964.7,0.10831
6958.91,0.10465
6953.13,0.10121
6947.34,0.10559
6941.55,0.11745
6935.77,0.11837
6929.98,0.12302
6924.2,0.11456
6918.41,0.10616
6912.62,0.10479
6906.84,0.09365
6901.05,0.09526
6895.26,0.09400
6889.48,0.08997
6883.69,0.09484
6877.91,0.11082
6872.12,0.12122
6866.33,0.12242
6860.55,0.12013
6854.76,0.11009
6848.97,0.09779
6843.19,0.08609
6837.4,0.09511
6831.62,0.10756
6825.83,0.11971
6820.04,0.13597
6814.26,0.14345
6808.47,0.14770
6802.68,0.15772
6796.9,0.16566
6791.11,0.16627
6785.33,0.17021
6779.54,0.18225
6773.75,0.18272
6767.97,0.18347
6762.18,0.18293
6756.39,0.19106
6750.61,0.18904
6744.82,0.19685
6739.04,0.20072
6733.25,0.19909
6727.46,0.20300
6721.68,0.20809
6715.89,0.20639
6710.1,0.20461
6704.32,0.19929
6698.53,0.20343
6692.75,0.20676
6686.96,0.20377
6681.17,0.20005
6675.39,0.20016
6669.6,0.19950
6663.82,0.19727
6658.03,0.19754
6652.24,0.19296
6646.46,0.18618
6640.67,0.18424
6634.88,0.17969
6629.1,0.16981
6623.31,0.17330
6617.53,0.16817
6611.74,0.15849
6605.95,0.15590
6600.17,0.14858
6594.38,0.13853
6588.59,0.13734
6582.81,0.14070
6577.02,0.14262
6571.24,0.14476
6565.45,0.14886
6559.66,0.15478
6553.88,0.15876
6548.09,0.15624
6542.3,0.16186
6536.52,0.16447
6530.73,0.16654
6524.95,0.16417
6519.16,0.15684
6513.37,0.15951
6507.59,0.15603
6501.8,0.15395
6496.01,0.15094
6490.23,0.14269
6484.44,0.14436
6478.66,0.14296
6472.87,0.14050
6467.08,0.13710
6461.3,0.12858
6455.51,0.12935
6449.72,0.12916
6443.94,0.13177
6438.15,0.13449
6432.37,0.13889
6426.58,0.14282
6420.79,0.14808
6415.01,0.15440
6409.22,0.15958
6403.43,0.16502
6397.65,0.16823
6391.86,0.17146
6386.08,0.17845
6380.29,0.17884
6374.5,0.17970
6368.72,0.18504
6362.93,0.18964
6357.14,0.19109
6351.36,0.19009
6345.57,0.19659
6339.79,0.19415
6334,0.19931
6328.21,0.19984
6322.43,0.20512
6316.64,0.20229
6310.85,0.20194
6305.07,0.20716
6299.28,0.20656
6293.5,0.20927
6287.71,0.21251
6281.92,0.21605
6276.14,0.21597
6270.35,0.22032
6264.56,0.22359
6258.78,0.22505
6252.99,0.22423
6247.21,0.23400
6241.42,0.23027
6235.63,0.23275
6229.85,0.23408
6224.06,0.23950
6218.27,0.23882
6212.49,0.24367
6206.7,0.24229
6200.92,0.24128
6195.13,0.24488
6189.34,0.24238
6183.56,0.24288
6177.77,0.24312
6171.98,0.24546
6166.2,0.24516
6160.41,0.24354
6154.63,0.24621
6148.84,0.24663
6143.05,0.24986
6137.27,0.25033
6131.48,0.25128
6125.7,0.25168
6119.91,0.25066
6114.12,0.24993
6108.34,0.24706
6102.55,0.24997
6096.76,0.25033
6090.98,0.24725
6085.19,0.24911
6079.41,0.24421
6073.62,0.23972
6067.83,0.23621
6062.05,0.23206
6056.26,0.22548
6050.47,0.21687
6044.69,0.20800
6038.9,0.20180
6033.12,0.19229
6027.33,0.18569
6021.54,0.17638
6015.76,0.16986
6009.97,0.16782
6004.18,0.16233
5998.4,0.16352
5992.61,0.15789
5986.83,0.15197
5981.04,0.14889
5975.25,0.14567
5969.47,0.13955
5963.68,0.13566
5957.89,0.13315
5952.11,0.13334
5946.32,0.13273
5940.54,0.13585
5934.75,0.14029
5928.96,0.14553
5923.18,0.14806
5917.39,0.15275
5911.6,0.15477
5905.82,0.15288
5900.03,0.15308
5894.25,0.15111
5888.46,0.14955
5882.67,0.14957
5876.89,0.14931
5871.1,0.14914
5865.31,0.14735
5859.53,0.15117
5853.74,0.15109
5847.96,0.15138
5842.17,0.15357
5836.38,0.15355
5830.6,0.15570
5824.81,0.14828
5819.02,0.15179
5813.24,0.14942
5807.45,0.14974
5801.67,0.15120
5795.88,0.15253
5790.09,0.15512
5784.31,0.15546
5778.52,0.15629
5772.73,0.15604
5766.95,0.15935
5761.16,0.16215
5755.38,0.16511
5749.59,0.16653
5743.8,0.16853
5738.02,0.17295
5732.23,0.17335
5726.44,0.17595
5720.66,0.17705
5714.87,0.17827
5709.09,0.18172
5703.3,0.18472
5697.51,0.18606
5691.73,0.18710
5685.94,0.18808
5680.15,0.19160
5674.37,0.19314
5668.58,0.19391
5662.8,0.19412
5657.01,0.19469
5651.22,0.19329
5645.44,0.19190
5639.65,0.18942
5633.87,0.18829
5628.08,0.18500
5622.29,0.18062
5616.51,0.18013
5610.72,0.17751
5604.93,0.17735
5599.15,0.17581
5593.36,0.17654
5587.58,0.17613
5581.79,0.17736
5576,0.17715
5570.22,0.17809
5564.43,0.17901
5558.64,0.18036
5552.86,0.18149
5547.07,0.18041
5541.29,0.18345
5535.5,0.18340
5529.71,0.18417
5523.93,0.18413
5518.14,0.18267
5512.35,0.17951
5506.57,0.17588
5500.78,0.17488
5495,0.17281
5489.21,0.17120
5483.42,0.17195
5477.64,0.17139
5471.85,0.17093
5466.06,0.17015
5460.28,0.16972
5454.49,0.16843
5448.71,0.16839
5442.92,0.16987
5437.13,0.16907
5431.35,0.16759
5425.56,0.16558
5419.77,0.16597
5413.99,0.16435
5408.2,0.16186
5402.42,0.15971
5396.63,0.15929
5390.84,0.15826
5385.06,0.15690
5379.27,0.15733
5373.48,0.15657
5367.7,0.15925
5361.91,0.15840
5356.13,0.16034
5350.34,0.15893
5344.55,0.16054
5338.77,0.15831
5332.98,0.15720
5327.19,0.15494
5321.41,0.15302
5315.62,0.15241
5309.84,0.15032
5304.05,0.14748
5298.26,0.14334
5292.48,0.13867
5286.69,0.13526
5280.9,0.12987
5275.12,0.12795
5269.33,0.12395
5263.55,0.11893
5257.76,0.11930
5251.97,0.11797
5246.19,0.11359
5240.4,0.11414
5234.61,0.11553
5228.83,0.11698
5223.04,0.12012
5217.26,0.12112
5211.47,0.12427
5205.68,0.12475
5199.9,0.12623
5194.11,0.12803
5188.32,0.12850
5182.54,0.12930
5176.75,0.12935
5170.97,0.12932
5165.18,0.12856
5159.39,0.12659
5153.61,0.12625
5147.82,0.12615
5142.03,0.12294
5136.25,0.12534
5130.46,0.12240
5124.68,0.12310
5118.89,0.12317
5113.1,0.12229
5107.32,0.12365
5101.53,0.12466
5095.75,0.12702
5089.96,0.12593
5084.17,0.12648
5078.39,0.12578
5072.6,0.12606
5066.81,0.12497
5061.03,0.12492
5055.24,0.12566
5049.46,0.12544
5043.67,0.12361
5037.88,0.12279
5032.1,0.12267
5026.31,0.12221
5020.52,0.12158
5014.74,0.12216
5008.95,0.11977
5003.17,0.11969
4997.38,0.11948
4991.59,0.11729
4985.81,0.11692
4980.02,0.11744
4974.23,0.11593
4968.45,0.11512
4962.66,0.11417
4956.88,0.11237
4951.09,0.11229
4945.3,0.11082
4939.52,0.11130
4933.73,0.10891
4927.94,0.10945
4922.16,0.10942
4916.37,0.10890
4910.59,0.10899
4904.8,0.10656
4899.01,0.10735
4893.23,0.10725
4887.44,0.10607
4881.65,0.10519
4875.87,0.10448
4870.08,0.10473
4864.3,0.10268
4858.51,0.10372
4852.72,0.10225
4846.94,0.10207
4841.15,0.10256
4835.36,0.09972
4829.58,0.10004
4823.79,0.09855
4818.01,0.09880
4812.22,0.09791
4806.43,0.09732
4800.65,0.09629
4794.86,0.09569
4789.07,0.09462
4783.29,0.09402
4777.5,0.09296
4771.72,0.09124
4765.93,0.08985
4760.14,0.08959
4754.36,0.08834
4748.57,0.08683
4742.78,0.08451
4737,0.08332
4731.21,0.08276
4725.43,0.08279
4719.64,0.08159
4713.85,0.08087
4708.07,0.08064
4702.28,0.07753
4696.49,0.07710
4690.71,0.07493
4684.92,0.07400
4679.14,0.07410
4673.35,0.07383
4667.56,0.07486
4661.78,0.07468
4655.99,0.07462
4650.2,0.07385
4644.42,0.07221
4638.63,0.07183
4632.85,0.07023
4627.06,0.06947
4621.27,0.06790
4615.49,0.06711
4609.7,0.06575
4603.92,0.06608
4598.13,0.06449
4592.34,0.06403
4586.56,0.06366
4580.77,0.06336
4574.98,0.06263
4569.2,0.06350
4563.41,0.06196
4557.63,0.06186
4551.84,0.06065
4546.05,0.06055
4540.27,0.06030
4534.48,0.05871
4528.69,0.05827
4522.91,0.05762
4517.12,0.05731
4511.34,0.05747
4505.55,0.05602
4499.76,0.05579
4493.98,0.05587
4488.19,0.05565
4482.4,0.05515
4476.62,0.05489
4470.83,0.05482
4465.05,0.05377
4459.26,0.05412
4453.47,0.05331
4447.69,0.05352
4441.9,0.05340
4436.11,0.05315
4430.33,0.05351
4424.54,0.05344
4418.76,0.05384
4412.97,0.05451
4407.18,0.05261
4401.4,0.05408
4395.61,0.05389
4389.82,0.05322
4384.04,0.05334
4378.25,0.05389
4372.47,0.05375
4366.68,0.05402
4360.89,0.05402
4355.11,0.05395
4349.32,0.05482
4343.53,0.05517
4337.75,0.05481
4331.96,0.05371
4326.18,0.05449
4320.39,0.05512
4314.6,0.05454
4308.82,0.05446
4303.03,0.05546
4297.24,0.05487
4291.46,0.05443
4285.67,0.05451
4279.89,0.05441
4274.1,0.05430
4268.31,0.05442
4262.53,0.05402
4256.74,0.05457
4250.95,0.05491
4245.17,0.05398
4239.38,0.05427
4233.6,0.05421
4227.81,0.05436
4222.02,0.05357
4216.24,0.05338
4210.45,0.05442
4204.66,0.05384
4198.88,0.05386
4193.09,0.05457
4187.31,0.05388
4181.52,0.05439
4175.73,0.05420
4169.95,0.05498
4164.16,0.05448
4158.37,0.05486
4152.59,0.05411
4146.8,0.05430
4141.02,0.05414
4135.23,0.05425
4129.44,0.05487
4123.66,0.05533
4117.87,0.05443
4112.09,0.05480
4106.3,0.05466
4100.51,0.05459
4094.73,0.05502
4088.94,0.05435
4083.15,0.05543
4077.37,0.05444
4071.58,0.05536
4065.8,0.05500
4060.01,0.05490
4054.22,0.05495
4048.44,0.05502
4042.65,0.05558
4036.86,0.05499
4031.08,0.05508
4025.29,0.05523
4019.51,0.05505
4013.72,0.05426
4007.93,0.05473
4002.15,0.05500
3996.36,0.05439
3990.57,0.05464
3984.79,0.05484
3979,0.05486
3973.22,0.05546
3967.43,0.05515
3961.64,0.05489
3955.86,0.05531
3950.07,0.05544
3944.28,0.05473
3938.5,0.05477
3932.71,0.05475
3926.93,0.05513
3921.14,0.05430
3915.35,0.05443
3909.57,0.05441
3903.78,0.05465
3897.99,0.05480
3892.21,0.05372
3886.42,0.05439
3880.64,0.05425
3874.85,0.05435
3869.06,0.05449
3863.28,0.05406
3857.49,0.05440
3851.7,0.05364
3845.92,0.05424
3840.13,0.05401
3834.35,0.05414
3828.56,0.05418
3822.77,0.05429
3816.99,0.05404
3811.2,0.05428
3805.41,0.05431
3799.63,0.05374
3793.84,0.05445
3788.06,0.05428
3782.27,0.05450
3776.48,0.05425
3770.7,0.05430
3764.91,0.05366
3759.12,0.05399
3753.34,0.05439
3747.55,0.05402
3741.77,0.05331
3735.98,0.05327
3730.19,0.05380
3724.41,0.05391
3718.62,0.05408
3712.83,0.05353
3707.05,0.05324
3701.26,0.05276
3695.48,0.05355
3689.69,0.05367
3683.9,0.05329
3678.12,0.05335
3672.33,0.05258
3666.54,0.05305
3660.76,0.05275
3654.97,0.05292
3649.19,0.05225
3643.4,0.05213
3637.61,0.05298
3631.83,0.05399
3626.04,0.05737
3620.25,0.05673
3614.47,0.05339
3608.68,0.05370
3602.9,0.05313
3597.11,0.05280
3591.32,0.05286
3585.54,0.05323
3579.75,0.05295
3573.97,0.05309
3568.18,0.05331
3562.39,0.05336
3556.61,0.05365
3550.82,0.05381
3545.03,0.05455
3539.25,0.05774
3533.46,0.06373
3527.68,0.06467
3521.89,0.06037
3516.1,0.05877
3510.32,0.05816
3504.53,0.05887
3498.74,0.06156
3492.96,0.06433
3487.17,0.06777
3481.39,0.06988
3475.6,0.07263
3469.81,0.07344
3464.03,0.07303
3458.24,0.07273
3452.45,0.06943
3446.67,0.06727
3440.88,0.06391
3435.1,0.06137
3429.31,0.05829
3423.52,0.05551
3417.74,0.05426
3411.95,0.05299
3406.16,0.05301
3400.38,0.05277
3394.59,0.05456
3388.81,0.05400
3383.02,0.05430
3377.23,0.05633
3371.45,0.05623
3365.66,0.05497
3359.87,0.05418
3354.09,0.05391
3348.3,0.05391
3342.52,0.05397
3336.73,0.05389
3330.94,0.05374
3325.16,0.05290
3319.37,0.05335
3313.58,0.05391
3307.8,0.05314
3302.01,0.05332
3296.23,0.05321
3290.44,0.05290
3284.65,0.05289
3278.87,0.05282
3273.08,0.05290
3267.29,0.05300
3261.51,0.05363
3255.72,0.05301
3249.94,0.05278
3244.15,0.05336
3238.36,0.05331
3232.58,0.05267
3226.79,0.05224
3221,0.05298
3215.22,0.05302
3209.43,0.05284
3203.65,0.05303
3197.86,0.05312
3192.07,0.05367
3186.29,0.05391
3180.5,0.05439
3174.71,0.05366
3168.93,0.05352
3163.14,0.05336
3157.36,0.05303
3151.57,0.05357
3145.78,0.05378
3140,0.05322
3134.21,0.05345
3128.42,0.05308
3122.64,0.05395
3116.85,0.05372
3111.07,0.05316
3105.28,0.05260
3099.49,0.05305
3093.71,0.05311
3087.92,0.05312
3082.14,0.05294
3076.35,0.05246
3070.56,0.05265
3064.78,0.05240
3058.99,0.05164
3053.2,0.05166
3047.42,0.05089
3041.63,0.05010
3035.85,0.04987
3030.06,0.04963
3024.27,0.04886
3018.49,0.04896
3012.7,0.04873
3006.91,0.04860
3001.13,0.04897
2995.34,0.04862
2989.56,0.04951
2983.77,0.04983
2977.98,0.04949
2972.2,0.04991
2966.41,0.04883
2960.62,0.04858
2954.84,0.04916
2949.05,0.05078
2943.27,0.05216
2937.48,0.05257
2931.69,0.05311
2925.91,0.05390
2920.12,0.05498
2914.33,0.05473
2908.55,0.05447
2902.76,0.05429
2896.98,0.05370
2891.19,0.05329
2885.4,0.05313
2879.62,0.05325
2873.83,0.05303
2868.04,0.05322
2862.26,0.05330
2856.47,0.05356
2850.69,0.05463
2844.9,0.05439
2839.11,0.05436
2833.33,0.05376
2827.54,0.05374
2821.75,0.05401
2815.97,0.05456
2810.18,0.05455
2804.4,0.05493
2798.61,0.05458
2792.82,0.05528
2787.04,0.05546
2781.25,0.05501
2775.46,0.05459
2769.68,0.05481
2763.89,0.05497
2758.11,0.05506
2752.32,0.05490
2746.53,0.05516
2740.75,0.05531
2734.96,0.05527
2729.17,0.05522
2723.39,0.05543
2717.6,0.05551
2711.82,0.05569
2706.03,0.05546
2700.24,0.05557
2694.46,0.05534
2688.67,0.05544
2682.88,0.05528
2677.1,0.05495
2671.31,0.05514
2665.53,0.05476
2659.74,0.05459
2653.95,0.05488
2648.17,0.05486
2642.38,0.05477
2636.59,0.05483
2630.81,0.05459
2625.02,0.05473
2619.24,0.05440
2613.45,0.05439
2607.66,0.05416
2601.88,0.05367
2596.09,0.05394
2590.3,0.05377
2584.52,0.05397
2578.73,0.05379
2572.95,0.05401
2567.16,0.05396
2561.37,0.05422
2555.59,0.05369
2549.8,0.05400
2544.02,0.05350
2538.23,0.05374
2532.44,0.05392
2526.66,0.05395
2520.87,0.05399
2515.08,0.05384
2509.3,0.05385
2503.51,0.05359
2497.73,0.05368
2491.94,0.05416
2486.15,0.05373
2480.37,0.05398
2474.58,0.05343
2468.79,0.05371
2463.01,0.05346
2457.22,0.05349
2451.44,0.05364
2445.65,0.05345
2439.86,0.05325
2434.08,0.05310
2428.29,0.05267
2422.5,0.05264
2416.72,0.05262
2410.93,0.05256
2405.15,0.05268
2399.36,0.05268
2393.57,0.05297
2387.79,0.05245
2382,0.05238
2376.21,0.05266
2370.43,0.05255
2364.64,0.05252
2358.86,0.05265
2353.07,0.05216
2347.28,0.05225
2341.5,0.05270
2335.71,0.05253
2329.92,0.05194
2324.14,0.05224
2318.35,0.05223
2312.57,0.05225
2306.78,0.05202
2300.99,0.05208
2295.21,0.05199
2289.42,0.05211
2283.63,0.05203
2277.85,0.05165
2272.06,0.05170
2266.28,0.05128
2260.49,0.05150
2254.7,0.05167
2248.92,0.05146
2243.13,0.05162
2237.34,0.05136
2231.56,0.05141
2225.77,0.05140
2219.99,0.05129
2214.2,0.05121
2208.41,0.05084
2202.63,0.05092
2196.84,0.05080
2191.05,0.05101
2185.27,0.05091
2179.48,0.05051
2173.7,0.05105
2167.91,0.05065
2162.12,0.05024
2156.34,0.05006
2150.55,0.05013
2144.76,0.05007
2138.98,0.05020
2133.19,0.05005
2127.41,0.05005
2121.62,0.05001
2115.83,0.05009
2110.05,0.04970
2104.26,0.05000
2098.47,0.04996
2092.69,0.04980
2086.9,0.05001
2081.12,0.04984
2075.33,0.04971
2069.54,0.04948
2063.76,0.04944
2057.97,0.04956
2052.19,0.04948
2046.4,0.04919
2040.61,0.04933
2034.83,0.04921
2029.04,0.04937
2023.25,0.04946
2017.47,0.04936
2011.68,0.04917
2005.9,0.04941
2000.11,0.04930
1994.32,0.04921
1988.54,0.04914
1982.75,0.04898
1976.96,0.04925
1971.18,0.04895
1965.39,0.04875
1959.61,0.04909
1953.82,0.04890
1948.03,0.04897
1942.25,0.04880
1936.46,0.04889
1930.67,0.04848
1924.89,0.04866
1919.1,0.04881
1913.32,0.04860
1907.53,0.04855
1901.74,0.04834
1895.96,0.04790
1890.17,0.04772
1884.38,0.04780
1878.6,0.04740
1872.81,0.04724
1867.03,0.04709
1861.24,0.04711
1855.45,0.04695
1849.67,0.04666
1843.88,0.04620
1838.09,0.04639
1832.31,0.04579
1826.52,0.04536
1820.74,0.04530
1814.95,0.04483
1809.16,0.04435
1803.38,0.04355
1797.59,0.04316
1791.8,0.04269
1786.02,0.04211
1780.23,0.04131
1774.45,0.04007
1768.66,0.03804
1762.87,0.03565
1757.09,0.03214
1751.3,0.02707
1745.51,0.02556
1739.73,0.03722
1733.94,0.05709
1728.16,0.07526
1722.37,0.08303
1716.58,0.07883
1710.8,0.07083
1705.01,0.06437
1699.22,0.06121
1693.44,0.05861
1687.65,0.05754
1681.87,0.05669
1676.08,0.05568
1670.29,0.05512
1664.51,0.05468
1658.72,0.05423
1652.93,0.05391
1647.15,0.05332
1641.36,0.05261
1635.58,0.05244
1629.79,0.05225
1624,0.05251
1618.22,0.05199
1612.43,0.05174
1606.64,0.05156
1600.86,0.05142
1595.07,0.05132
1589.29,0.05101
1583.5,0.05069
1577.71,0.05040
1571.93,0.04986
1566.14,0.04949
1560.35,0.04926
1554.57,0.04858
1548.78,0.04835
1543,0.04794
1537.21,0.04763
1531.42,0.04761
1525.64,0.04705
1519.85,0.04658
1514.07,0.04565
1508.28,0.04501
1502.49,0.04369
1496.71,0.04254
1490.92,0.04187
1485.13,0.04340
1479.35,0.04517
1473.56,0.04574
1467.78,0.04601
1461.99,0.04519
1456.2,0.04595
1450.42,0.04759
1444.63,0.05055
1438.84,0.05118
1433.06,0.05470
1427.27,0.05620
1421.49,0.05432
1415.7,0.05245
1409.91,0.05105
1404.13,0.04971
1398.34,0.04883
1392.55,0.04850
1386.77,0.04945
1380.98,0.05072
1375.2,0.05025
1369.41,0.04947
1363.62,0.04934
1357.84,0.04879
1352.05,0.04822
1346.26,0.04811
1340.48,0.04741
1334.69,0.04672
1328.91,0.04584
1323.12,0.04521
1317.33,0.04444
1311.55,0.04345
1305.76,0.04204
1299.97,0.04129
1294.19,0.03971
1288.4,0.03812
1282.62,0.03698
1276.83,0.03750
1271.04,0.04162
1265.26,0.04451
1259.47,0.04452
1253.68,0.04283
1247.9,0.04385
1242.11,0.04795
1236.33,0.05205
1230.54,0.05240
1224.75,0.04985
1218.97,0.04638
1213.18,0.04243
1207.39,0.03754
1201.61,0.03850
1195.82,0.04513
1190.04,0.05219
1184.25,0.05332
1178.46,0.05251
1172.68,0.05242
1166.89,0.05205
1161.1,0.05294
1155.32,0.05923
1149.53,0.07608
1143.75,0.08751
1137.96,0.08704
1132.17,0.08427
1126.39,0.08026
1120.6,0.07753
1114.81,0.07643
1109.03,0.07538
1103.24,0.07400
1097.46,0.07377
1091.67,0.07389
1085.88,0.07372
1080.1,0.07352
1074.31,0.07385
1068.52,0.07279
1062.74,0.07408
1056.95,0.07805
1051.17,0.08345
1045.38,0.08745
1039.59,0.08642
1033.81,0.08428
1028.02,0.08118
1022.24,0.07697
1016.45,0.07218
1010.66,0.06664
1004.88,0.06022
999.09,0.05709
993.304,0.05845
987.518,0.06017
981.731,0.06253
975.945,0.06257
970.159,0.06235
964.373,0.06368
958.586,0.06392
952.8,0.06380
947.014,0.06306
941.228,0.06292
935.441,0.06304
929.655,0.06236
923.869,0.06198
918.083,0.06175
912.297,0.06168
906.51,0.06176
900.724,0.06290
894.938,0.06353
889.152,0.06442
883.365,0.06470
877.579,0.06610
871.793,0.06659
866.007,0.06571
860.22,0.06502
854.434,0.06418
848.648,0.06298
842.862,0.06279
837.075,0.06652
831.289,0.06911
825.503,0.06754
819.717,0.07112
813.931,0.07068
808.144,0.07149
802.358,0.07365
796.572,0.07361
790.786,0.07193
784.999,0.07009
779.213,0.06794
773.427,0.06714
767.641,0.06567
761.854,0.06265
756.068,0.06172
750.282,0.06485
744.496,0.07013
738.709,0.07026
732.923,0.07003
727.137,0.06938
721.351,0.06697
715.565,0.06484
709.778,0.06460
703.992,0.06362
698.206,0.06476
692.42,0.06287
686.633,0.06448
680.847,0.06614
675.061,0.06795
669.275,0.06804
663.488,0.06665
657.702,0.06551
651.916,0.06395
646.13,0.06446
640.343,0.06428
634.557,0.06542
628.771,0.06573
622.985,0.06646
617.198,0.06932
611.412,0.06807
605.626,0.07193
599.84,0.06936