File: 01_Data/Corian_Countertop/FTIR/IS/Corian_Countertop_IS_S_221003_R2.dpt
7497.03,0.38292
7491.25,0.38355
7485.46,0.37592
7479.67,0.36633
7473.89,0.35862
7468.1,0.35691
7462.32,0.34451
7456.53,0.34763
7450.74,0.35229
7444.96,0.35120
7439.17,0.34078
7433.38,0.32944
7427.6,0.33726
7421.81,0.33825
7416.03,0.33085
7410.24,0.33422
7404.45,0.33919
7398.67,0.33911
7392.88,0.33240
7387.09,0.33048
7381.31,0.33850
7375.52,0.33804
7369.74,0.32894
7363.95,0.33842
7358.16,0.32909
7352.38,0.33278
7346.59,0.32566
7340.8,0.31773
7335.02,0.31446
7329.23,0.30846
7323.45,0.31360
7317.66,0.30948
7311.87,0.30259
7306.09,0.29954
7300.3,0.29845
7294.51,0.29655
7288.73,0.28778
7282.94,0.29345
7277.16,0.29350
7271.37,0.28316
7265.58,0.28836
7259.8,0.28631
7254.01,0.28181
7248.22,0.27637
7242.44,0.27672
7236.65,0.27392
7230.87,0.27343
7225.08,0.27160
7219.29,0.27922
7213.51,0.26586
7207.72,0.26109
7201.93,0.25144
7196.15,0.24518
7190.36,0.23656
7184.58,0.22887
7178.79,0.22819
7173,0.21849
7167.22,0.18843
7161.43,0.16397
7155.65,0.13471
7149.86,0.12758
7144.07,0.13710
7138.29,0.16474
7132.5,0.17960
7126.71,0.18998
7120.93,0.18948
7115.14,0.19031
7109.36,0.17802
7103.57,0.17595
7097.78,0.17986
7092,0.16937
7086.21,0.16145
7080.42,0.14837
7074.64,0.13330
7068.85,0.12268
7063.07,0.11686
7057.28,0.10791
7051.49,0.10886
7045.71,0.11083
7039.92,0.11440
7034.13,0.11862
7028.35,0.13644
7022.56,0.14624
7016.78,0.15270
7010.99,0.15696
7005.2,0.14686
6999.42,0.14404
6993.63,0.13803
6987.84,0.12591
6982.06,0.11638
6976.27,0.11533
6970.49,0.10803
6964.7,0.10404
6958.91,0.09942
6953.13,0.09955
6947.34,0.10526
6941.55,0.11571
6935.77,0.12054
6929.98,0.12446
6924.2,0.11693
6918.41,0.10619
6912.62,0.09937
6906.84,0.09863
6901.05,0.09182
6895.26,0.09448
6889.48,0.08925
6883.69,0.10187
6877.91,0.10827
6872.12,0.11718
6866.33,0.12381
6860.55,0.11765
6854.76,0.10834
6848.97,0.09877
6843.19,0.09266
6837.4,0.09355
6831.62,0.10854
6825.83,0.12141
6820.04,0.13750
6814.26,0.14752
6808.47,0.14661
6802.68,0.15335
6796.9,0.16183
6791.11,0.16831
6785.33,0.17117
6779.54,0.17752
6773.75,0.18265
6767.97,0.18383
6762.18,0.18330
6756.39,0.18830
6750.61,0.19096
6744.82,0.18962
6739.04,0.19381
6733.25,0.20007
6727.46,0.20577
6721.68,0.21246
6715.89,0.20840
6710.1,0.20966
6704.32,0.20386
6698.53,0.20789
6692.75,0.20240
6686.96,0.20321
6681.17,0.20872
6675.39,0.20092
6669.6,0.19734
6663.82,0.19811
6658.03,0.19335
6652.24,0.18881
6646.46,0.18662
6640.67,0.18226
6634.88,0.17420
6629.1,0.17341
6623.31,0.16931
6617.53,0.16270
6611.74,0.15697
6605.95,0.15061
6600.17,0.14366
6594.38,0.13862
6588.59,0.13564
6582.81,0.14076
6577.02,0.14250
6571.24,0.14294
6565.45,0.15235
6559.66,0.15823
6553.88,0.15721
6548.09,0.15820
6542.3,0.15769
6536.52,0.15781
6530.73,0.16004
6524.95,0.15814
6519.16,0.15818
6513.37,0.16095
6507.59,0.15372
6501.8,0.15021
6496.01,0.15188
6490.23,0.14982
6484.44,0.14713
6478.66,0.14240
6472.87,0.14195
6467.08,0.13563
6461.3,0.13150
6455.51,0.12914
6449.72,0.13457
6443.94,0.13343
6438.15,0.13928
6432.37,0.13553
6426.58,0.13897
6420.79,0.14552
6415.01,0.15212
6409.22,0.15687
6403.43,0.16134
6397.65,0.16683
6391.86,0.17108
6386.08,0.17743
6380.29,0.17545
6374.5,0.18039
6368.72,0.18595
6362.93,0.18899
6357.14,0.19110
6351.36,0.19374
6345.57,0.19609
6339.79,0.19796
6334,0.19604
6328.21,0.20274
6322.43,0.19983
6316.64,0.20171
6310.85,0.20174
6305.07,0.20462
6299.28,0.20519
6293.5,0.21042
6287.71,0.21562
6281.92,0.21220
6276.14,0.21374
6270.35,0.22063
6264.56,0.22281
6258.78,0.22534
6252.99,0.22664
6247.21,0.22772
6241.42,0.23351
6235.63,0.23325
6229.85,0.23553
6224.06,0.23584
6218.27,0.23669
6212.49,0.23915
6206.7,0.23996
6200.92,0.24215
6195.13,0.24583
6189.34,0.24300
6183.56,0.24329
6177.77,0.24528
6171.98,0.24300
6166.2,0.24341
6160.41,0.24583
6154.63,0.24551
6148.84,0.24772
6143.05,0.24846
6137.27,0.24711
6131.48,0.25055
6125.7,0.24953
6119.91,0.24622
6114.12,0.24785
6108.34,0.24885
6102.55,0.24841
6096.76,0.24730
6090.98,0.24576
6085.19,0.24690
6079.41,0.24303
6073.62,0.24087
6067.83,0.23460
6062.05,0.23121
6056.26,0.22156
6050.47,0.21873
6044.69,0.21052
6038.9,0.20052
6033.12,0.19247
6027.33,0.18522
6021.54,0.17487
6015.76,0.16933
6009.97,0.16437
6004.18,0.15878
5998.4,0.15962
5992.61,0.15803
5986.83,0.15379
5981.04,0.14865
5975.25,0.14346
5969.47,0.14159
5963.68,0.13516
5957.89,0.13154
5952.11,0.13279
5946.32,0.13030
5940.54,0.13506
5934.75,0.14023
5928.96,0.14477
5923.18,0.14880
5917.39,0.15211
5911.6,0.15174
5905.82,0.14921
5900.03,0.15095
5894.25,0.15084
5888.46,0.15112
5882.67,0.14617
5876.89,0.14696
5871.1,0.14865
5865.31,0.14961
5859.53,0.14982
5853.74,0.15006
5847.96,0.15256
5842.17,0.15373
5836.38,0.15161
5830.6,0.15215
5824.81,0.15172
5819.02,0.15054
5813.24,0.14716
5807.45,0.14996
5801.67,0.15169
5795.88,0.15281
5790.09,0.15438
5784.31,0.15386
5778.52,0.15533
5772.73,0.15553
5766.95,0.15793
5761.16,0.15874
5755.38,0.16273
5749.59,0.16264
5743.8,0.16846
5738.02,0.17017
5732.23,0.17295
5726.44,0.17559
5720.66,0.17545
5714.87,0.17902
5709.09,0.17997
5703.3,0.18341
5697.51,0.18681
5691.73,0.18824
5685.94,0.18924
5680.15,0.19019
5674.37,0.19287
5668.58,0.19123
5662.8,0.19196
5657.01,0.19206
5651.22,0.19071
5645.44,0.19158
5639.65,0.18884
5633.87,0.18650
5628.08,0.18291
5622.29,0.18022
5616.51,0.17989
5610.72,0.17548
5604.93,0.17661
5599.15,0.17464
5593.36,0.17450
5587.58,0.17619
5581.79,0.17656
5576,0.17685
5570.22,0.17693
5564.43,0.18104
5558.64,0.18066
5552.86,0.18290
5547.07,0.18248
5541.29,0.18266
5535.5,0.18240
5529.71,0.18129
5523.93,0.17957
5518.14,0.17842
5512.35,0.17990
5506.57,0.17651
5500.78,0.17413
5495,0.17200
5489.21,0.17074
5483.42,0.17185
5477.64,0.17155
5471.85,0.16908
5466.06,0.16821
5460.28,0.16699
5454.49,0.16956
5448.71,0.16827
5442.92,0.16787
5437.13,0.16676
5431.35,0.16715
5425.56,0.16626
5419.77,0.16411
5413.99,0.16311
5408.2,0.16073
5402.42,0.15903
5396.63,0.15717
5390.84,0.15730
5385.06,0.15572
5379.27,0.15671
5373.48,0.15677
5367.7,0.15777
5361.91,0.15858
5356.13,0.15956
5350.34,0.15684
5344.55,0.15832
5338.77,0.15797
5332.98,0.15590
5327.19,0.15469
5321.41,0.15373
5315.62,0.15103
5309.84,0.14840
5304.05,0.14624
5298.26,0.14327
5292.48,0.13776
5286.69,0.13349
5280.9,0.12948
5275.12,0.12639
5269.33,0.12284
5263.55,0.11892
5257.76,0.11711
5251.97,0.11587
5246.19,0.11365
5240.4,0.11357
5234.61,0.11352
5228.83,0.11657
5223.04,0.11877
5217.26,0.12129
5211.47,0.12128
5205.68,0.12432
5199.9,0.12615
5194.11,0.12788
5188.32,0.12823
5182.54,0.12878
5176.75,0.12809
5170.97,0.12872
5165.18,0.12857
5159.39,0.12749
5153.61,0.12513
5147.82,0.12385
5142.03,0.12244
5136.25,0.12260
5130.46,0.12096
5124.68,0.12082
5118.89,0.12090
5113.1,0.12082
5107.32,0.12179
5101.53,0.12446
5095.75,0.12557
5089.96,0.12509
5084.17,0.12568
5078.39,0.12554
5072.6,0.12560
5066.81,0.12589
5061.03,0.12528
5055.24,0.12537
5049.46,0.12444
5043.67,0.12378
5037.88,0.12255
5032.1,0.12144
5026.31,0.12017
5020.52,0.12117
5014.74,0.12030
5008.95,0.11997
5003.17,0.11766
4997.38,0.11770
4991.59,0.11672
4985.81,0.11730
4980.02,0.11463
4974.23,0.11546
4968.45,0.11525
4962.66,0.11535
4956.88,0.11303
4951.09,0.11097
4945.3,0.10963
4939.52,0.11038
4933.73,0.10956
4927.94,0.11010
4922.16,0.10863
4916.37,0.10834
4910.59,0.10759
4904.8,0.10727
4899.01,0.10671
4893.23,0.10694
4887.44,0.10519
4881.65,0.10440
4875.87,0.10460
4870.08,0.10380
4864.3,0.10368
4858.51,0.10392
4852.72,0.10166
4846.94,0.10220
4841.15,0.10088
4835.36,0.10049
4829.58,0.09930
4823.79,0.09821
4818.01,0.09805
4812.22,0.09770
4806.43,0.09702
4800.65,0.09617
4794.86,0.09633
4789.07,0.09486
4783.29,0.09322
4777.5,0.09266
4771.72,0.09090
4765.93,0.08986
4760.14,0.08797
4754.36,0.08593
4748.57,0.08645
4742.78,0.08480
4737,0.08340
4731.21,0.08243
4725.43,0.08167
4719.64,0.08000
4713.85,0.08039
4708.07,0.07976
4702.28,0.07803
4696.49,0.07556
4690.71,0.07514
4684.92,0.07370
4679.14,0.07279
4673.35,0.07391
4667.56,0.07514
4661.78,0.07482
4655.99,0.07357
4650.2,0.07379
4644.42,0.07133
4638.63,0.07111
4632.85,0.07000
4627.06,0.06888
4621.27,0.06858
4615.49,0.06680
4609.7,0.06599
4603.92,0.06537
4598.13,0.06501
4592.34,0.06414
4586.56,0.06287
4580.77,0.06314
4574.98,0.06331
4569.2,0.06316
4563.41,0.06267
4557.63,0.06176
4551.84,0.06113
4546.05,0.06044
4540.27,0.05964
4534.48,0.05827
4528.69,0.05783
4522.91,0.05758
4517.12,0.05747
4511.34,0.05708
4505.55,0.05775
4499.76,0.05729
4493.98,0.05701
4488.19,0.05544
4482.4,0.05419
4476.62,0.05508
4470.83,0.05478
4465.05,0.05420
4459.26,0.05419
4453.47,0.05366
4447.69,0.05403
4441.9,0.05393
4436.11,0.05324
4430.33,0.05327
4424.54,0.05341
4418.76,0.05332
4412.97,0.05334
4407.18,0.05315
4401.4,0.05278
4395.61,0.05386
4389.82,0.05346
4384.04,0.05289
4378.25,0.05333
4372.47,0.05313
4366.68,0.05487
4360.89,0.05417
4355.11,0.05462
4349.32,0.05414
4343.53,0.05392
4337.75,0.05431
4331.96,0.05523
4326.18,0.05474
4320.39,0.05444
4314.6,0.05436
4308.82,0.05356
4303.03,0.05519
4297.24,0.05457
4291.46,0.05434
4285.67,0.05510
4279.89,0.05423
4274.1,0.05452
4268.31,0.05440
4262.53,0.05442
4256.74,0.05428
4250.95,0.05467
4245.17,0.05495
4239.38,0.05403
4233.6,0.05397
4227.81,0.05403
4222.02,0.05404
4216.24,0.05417
4210.45,0.05379
4204.66,0.05447
4198.88,0.05345
4193.09,0.05408
4187.31,0.05404
4181.52,0.05372
4175.73,0.05406
4169.95,0.05398
4164.16,0.05397
4158.37,0.05436
4152.59,0.05404
4146.8,0.05445
4141.02,0.05415
4135.23,0.05368
4129.44,0.05422
4123.66,0.05408
4117.87,0.05482
4112.09,0.05396
4106.3,0.05454
4100.51,0.05425
4094.73,0.05411
4088.94,0.05454
4083.15,0.05414
4077.37,0.05502
4071.58,0.05463
4065.8,0.05561
4060.01,0.05497
4054.22,0.05478
4048.44,0.05479
4042.65,0.05439
4036.86,0.05500
4031.08,0.05431
4025.29,0.05523
4019.51,0.05516
4013.72,0.05461
4007.93,0.05432
4002.15,0.05474
3996.36,0.05470
3990.57,0.05508
3984.79,0.05473
3979,0.05419
3973.22,0.05414
3967.43,0.05457
3961.64,0.05429
3955.86,0.05535
3950.07,0.05439
3944.28,0.05455
3938.5,0.05473
3932.71,0.05416
3926.93,0.05432
3921.14,0.05447
3915.35,0.05431
3909.57,0.05393
3903.78,0.05472
3897.99,0.05376
3892.21,0.05374
3886.42,0.05432
3880.64,0.05369
3874.85,0.05389
3869.06,0.05383
3863.28,0.05414
3857.49,0.05417
3851.7,0.05377
3845.92,0.05409
3840.13,0.05419
3834.35,0.05392
3828.56,0.05425
3822.77,0.05373
3816.99,0.05478
3811.2,0.05408
3805.41,0.05443
3799.63,0.05308
3793.84,0.05395
3788.06,0.05425
3782.27,0.05368
3776.48,0.05373
3770.7,0.05350
3764.91,0.05397
3759.12,0.05384
3753.34,0.05374
3747.55,0.05358
3741.77,0.05374
3735.98,0.05342
3730.19,0.05405
3724.41,0.05331
3718.62,0.05330
3712.83,0.05367
3707.05,0.05290
3701.26,0.05310
3695.48,0.05265
3689.69,0.05267
3683.9,0.05259
3678.12,0.05285
3672.33,0.05231
3666.54,0.05243
3660.76,0.05226
3654.97,0.05229
3649.19,0.05246
3643.4,0.05250
3637.61,0.05242
3631.83,0.05360
3626.04,0.05570
3620.25,0.05614
3614.47,0.05386
3608.68,0.05290
3602.9,0.05248
3597.11,0.05227
3591.32,0.05218
3585.54,0.05265
3579.75,0.05210
3573.97,0.05260
3568.18,0.05303
3562.39,0.05296
3556.61,0.05326
3550.82,0.05323
3545.03,0.05525
3539.25,0.05756
3533.46,0.06292
3527.68,0.06429
3521.89,0.06000
3516.1,0.05803
3510.32,0.05782
3504.53,0.05912
3498.74,0.06095
3492.96,0.06405
3487.17,0.06657
3481.39,0.06883
3475.6,0.07104
3469.81,0.07238
3464.03,0.07290
3458.24,0.07216
3452.45,0.06954
3446.67,0.06660
3440.88,0.06346
3435.1,0.06139
3429.31,0.05732
3423.52,0.05567
3417.74,0.05308
3411.95,0.05231
3406.16,0.05282
3400.38,0.05302
3394.59,0.05464
3388.81,0.05348
3383.02,0.05441
3377.23,0.05573
3371.45,0.05524
3365.66,0.05475
3359.87,0.05399
3354.09,0.05458
3348.3,0.05356
3342.52,0.05374
3336.73,0.05395
3330.94,0.05417
3325.16,0.05355
3319.37,0.05360
3313.58,0.05302
3307.8,0.05322
3302.01,0.05240
3296.23,0.05275
3290.44,0.05243
3284.65,0.05281
3278.87,0.05325
3273.08,0.05264
3267.29,0.05280
3261.51,0.05278
3255.72,0.05301
3249.94,0.05245
3244.15,0.05254
3238.36,0.05254
3232.58,0.05289
3226.79,0.05293
3221,0.05295
3215.22,0.05287
3209.43,0.05320
3203.65,0.05264
3197.86,0.05268
3192.07,0.05347
3186.29,0.05377
3180.5,0.05357
3174.71,0.05299
3168.93,0.05321
3163.14,0.05411
3157.36,0.05369
3151.57,0.05262
3145.78,0.05387
3140,0.05325
3134.21,0.05317
3128.42,0.05292
3122.64,0.05314
3116.85,0.05346
3111.07,0.05282
3105.28,0.05367
3099.49,0.05324
3093.71,0.05271
3087.92,0.05309
3082.14,0.05268
3076.35,0.05280
3070.56,0.05218
3064.78,0.05195
3058.99,0.05170
3053.2,0.05142
3047.42,0.05087
3041.63,0.05011
3035.85,0.04947
3030.06,0.04888
3024.27,0.04815
3018.49,0.04860
3012.7,0.04795
3006.91,0.04796
3001.13,0.04823
2995.34,0.04848
2989.56,0.04954
2983.77,0.04984
2977.98,0.04931
2972.2,0.04913
2966.41,0.04913
2960.62,0.04869
2954.84,0.04883
2949.05,0.05031
2943.27,0.05208
2937.48,0.05236
2931.69,0.05291
2925.91,0.05370
2920.12,0.05447
2914.33,0.05419
2908.55,0.05357
2902.76,0.05328
2896.98,0.05329
2891.19,0.05334
2885.4,0.05302
2879.62,0.05268
2873.83,0.05320
2868.04,0.05324
2862.26,0.05303
2856.47,0.05341
2850.69,0.05408
2844.9,0.05329
2839.11,0.05309
2833.33,0.05367
2827.54,0.05351
2821.75,0.05406
2815.97,0.05424
2810.18,0.05384
2804.4,0.05441
2798.61,0.05431
2792.82,0.05467
2787.04,0.05495
2781.25,0.05474
2775.46,0.05454
2769.68,0.05491
2763.89,0.05473
2758.11,0.05438
2752.32,0.05477
2746.53,0.05529
2740.75,0.05527
2734.96,0.05489
2729.17,0.05514
2723.39,0.05529
2717.6,0.05544
2711.82,0.05560
2706.03,0.05534
2700.24,0.05560
2694.46,0.05529
2688.67,0.05512
2682.88,0.05541
2677.1,0.05517
2671.31,0.05489
2665.53,0.05468
2659.74,0.05461
2653.95,0.05448
2648.17,0.05441
2642.38,0.05444
2636.59,0.05454
2630.81,0.05466
2625.02,0.05442
2619.24,0.05409
2613.45,0.05380
2607.66,0.05396
2601.88,0.05347
2596.09,0.05327
2590.3,0.05388
2584.52,0.05378
2578.73,0.05379
2572.95,0.05383
2567.16,0.05372
2561.37,0.05375
2555.59,0.05388
2549.8,0.05341
2544.02,0.05382
2538.23,0.05364
2532.44,0.05365
2526.66,0.05364
2520.87,0.05361
2515.08,0.05339
2509.3,0.05365
2503.51,0.05331
2497.73,0.05398
2491.94,0.05346
2486.15,0.05398
2480.37,0.05357
2474.58,0.05339
2468.79,0.05344
2463.01,0.05340
2457.22,0.05316
2451.44,0.05344
2445.65,0.05317
2439.86,0.05327
2434.08,0.05279
2428.29,0.05265
2422.5,0.05288
2416.72,0.05274
2410.93,0.05215
2405.15,0.05263
2399.36,0.05233
2393.57,0.05190
2387.79,0.05226
2382,0.05209
2376.21,0.05242
2370.43,0.05236
2364.64,0.05238
2358.86,0.05222
2353.07,0.05215
2347.28,0.05189
2341.5,0.05164
2335.71,0.05187
2329.92,0.05190
2324.14,0.05172
2318.35,0.05183
2312.57,0.05191
2306.78,0.05210
2300.99,0.05213
2295.21,0.05184
2289.42,0.05197
2283.63,0.05179
2277.85,0.05133
2272.06,0.05167
2266.28,0.05160
2260.49,0.05126
2254.7,0.05132
2248.92,0.05112
2243.13,0.05101
2237.34,0.05117
2231.56,0.05121
2225.77,0.05103
2219.99,0.05131
2214.2,0.05104
2208.41,0.05066
2202.63,0.05075
2196.84,0.05063
2191.05,0.05070
2185.27,0.05049
2179.48,0.05019
2173.7,0.05010
2167.91,0.05054
2162.12,0.05015
2156.34,0.04996
2150.55,0.04997
2144.76,0.04976
2138.98,0.04976
2133.19,0.04975
2127.41,0.04968
2121.62,0.04944
2115.83,0.04971
2110.05,0.04982
2104.26,0.04956
2098.47,0.04968
2092.69,0.04960
2086.9,0.04951
2081.12,0.04969
2075.33,0.04944
2069.54,0.04940
2063.76,0.04972
2057.97,0.04940
2052.19,0.04930
2046.4,0.04933
2040.61,0.04937
2034.83,0.04938
2029.04,0.04921
2023.25,0.04922
2017.47,0.04894
2011.68,0.04904
2005.9,0.04888
2000.11,0.04914
1994.32,0.04888
1988.54,0.04884
1982.75,0.04884
1976.96,0.04855
1971.18,0.04866
1965.39,0.04823
1959.61,0.04859
1953.82,0.04829
1948.03,0.04812
1942.25,0.04861
1936.46,0.04862
1930.67,0.04853
1924.89,0.04835
1919.1,0.04834
1913.32,0.04809
1907.53,0.04804
1901.74,0.04778
1895.96,0.04771
1890.17,0.04756
1884.38,0.04733
1878.6,0.04699
1872.81,0.04718
1867.03,0.04700
1861.24,0.04688
1855.45,0.04653
1849.67,0.04611
1843.88,0.04604
1838.09,0.04577
1832.31,0.04589
1826.52,0.04535
1820.74,0.04481
1814.95,0.04443
1809.16,0.04437
1803.38,0.04368
1797.59,0.04312
1791.8,0.04257
1786.02,0.04190
1780.23,0.04096
1774.45,0.03960
1768.66,0.03773
1762.87,0.03540
1757.09,0.03166
1751.3,0.02672
1745.51,0.02515
1739.73,0.03737
1733.94,0.05697
1728.16,0.07521
1722.37,0.08261
1716.58,0.07861
1710.8,0.07076
1705.01,0.06493
1699.22,0.06071
1693.44,0.05792
1687.65,0.05706
1681.87,0.05630
1676.08,0.05528
1670.29,0.05473
1664.51,0.05387
1658.72,0.05345
1652.93,0.05337
1647.15,0.05276
1641.36,0.05232
1635.58,0.05244
1629.79,0.05208
1624,0.05200
1618.22,0.05201
1612.43,0.05161
1606.64,0.05126
1600.86,0.05097
1595.07,0.05102
1589.29,0.05072
1583.5,0.05075
1577.71,0.05028
1571.93,0.04953
1566.14,0.04902
1560.35,0.04871
1554.57,0.04805
1548.78,0.04826
1543,0.04818
1537.21,0.04759
1531.42,0.04723
1525.64,0.04653
1519.85,0.04602
1514.07,0.04524
1508.28,0.04435
1502.49,0.04318
1496.71,0.04215
1490.92,0.04168
1485.13,0.04336
1479.35,0.04536
1473.56,0.04582
1467.78,0.04606
1461.99,0.04556
1456.2,0.04521
1450.42,0.04773
1444.63,0.05004
1438.84,0.05118
1433.06,0.05485
1427.27,0.05623
1421.49,0.05458
1415.7,0.05248
1409.91,0.05025
1404.13,0.04937
1398.34,0.04847
1392.55,0.04801
1386.77,0.04920
1380.98,0.05058
1375.2,0.05032
1369.41,0.04915
1363.62,0.04881
1357.84,0.04857
1352.05,0.04787
1346.26,0.04759
1340.48,0.04674
1334.69,0.04602
1328.91,0.04569
1323.12,0.04500
1317.33,0.04396
1311.55,0.04314
1305.76,0.04172
1299.97,0.04076
1294.19,0.03947
1288.4,0.03838
1282.62,0.03645
1276.83,0.03708
1271.04,0.04143
1265.26,0.04430
1259.47,0.04385
1253.68,0.04256
1247.9,0.04365
1242.11,0.04791
1236.33,0.05143
1230.54,0.05192
1224.75,0.05008
1218.97,0.04616
1213.18,0.04207
1207.39,0.03793
1201.61,0.03843
1195.82,0.04486
1190.04,0.05186
1184.25,0.05246
1178.46,0.05200
1172.68,0.05179
1166.89,0.05191
1161.1,0.05311
1155.32,0.05871
1149.53,0.07566
1143.75,0.08715
1137.96,0.08717
1132.17,0.08456
1126.39,0.07960
1120.6,0.07752
1114.81,0.07563
1109.03,0.07446
1103.24,0.07450
1097.46,0.07349
1091.67,0.07346
1085.88,0.07352
1080.1,0.07329
1074.31,0.07287
1068.52,0.07259
1062.74,0.07305
1056.95,0.07824
1051.17,0.08390
1045.38,0.08696
1039.59,0.08592
1033.81,0.08409
1028.02,0.08041
1022.24,0.07644
1016.45,0.07200
1010.66,0.06606
1004.88,0.06027
999.09,0.05671
993.304,0.05726
987.518,0.06035
981.731,0.06184
975.945,0.06179
970.159,0.06211
964.373,0.06330
958.586,0.06454
952.8,0.06402
947.014,0.06373
941.228,0.06292
935.441,0.06237
929.655,0.06179
923.869,0.06101
918.083,0.06129
912.297,0.06043
906.51,0.06204
900.724,0.06265
894.938,0.06368
889.152,0.06427
883.365,0.06499
877.579,0.06582
871.793,0.06611
866.007,0.06560
860.22,0.06451
854.434,0.06354
848.648,0.06217
842.862,0.06222
837.075,0.06712
831.289,0.06816
825.503,0.06762
819.717,0.07100
813.931,0.07138
808.144,0.07206
802.358,0.07317
796.572,0.07306
790.786,0.07162
784.999,0.06930
779.213,0.06790
773.427,0.06605
767.641,0.06533
761.854,0.06323
756.068,0.06186
750.282,0.06404
744.496,0.06938
738.709,0.07018
732.923,0.06885
727.137,0.06811
721.351,0.06583
715.565,0.06482
709.778,0.06529
703.992,0.06346
698.206,0.06403
692.42,0.06304
686.633,0.06389
680.847,0.06518
675.061,0.06781
669.275,0.06752
663.488,0.06593
657.702,0.06352
651.916,0.06342
646.13,0.06423
640.343,0.06410
634.557,0.06344
628.771,0.06522
622.985,0.06466
617.198,0.06596
611.412,0.06836
605.626,0.07059
599.84,0.06981