File: 01_Data/Corian_Countertop/FTIR/IS/Corian_Countertop_IS_S_221003_R3.dpt
7497.03,0.38051
7491.25,0.38460
7485.46,0.37437
7479.67,0.37496
7473.89,0.37467
7468.1,0.35635
7462.32,0.35897
7456.53,0.35827
7450.74,0.34686
7444.96,0.33673
7439.17,0.33813
7433.38,0.33778
7427.6,0.33597
7421.81,0.33655
7416.03,0.32612
7410.24,0.33344
7404.45,0.33444
7398.67,0.32929
7392.88,0.33560
7387.09,0.33850
7381.31,0.33310
7375.52,0.32985
7369.74,0.33309
7363.95,0.32650
7358.16,0.32829
7352.38,0.32846
7346.59,0.31665
7340.8,0.32103
7335.02,0.32253
7329.23,0.31990
7323.45,0.30692
7317.66,0.30990
7311.87,0.30081
7306.09,0.30049
7300.3,0.30248
7294.51,0.29691
7288.73,0.29630
7282.94,0.29645
7277.16,0.29141
7271.37,0.29395
7265.58,0.28517
7259.8,0.28599
7254.01,0.28350
7248.22,0.27936
7242.44,0.27842
7236.65,0.26807
7230.87,0.26771
7225.08,0.27341
7219.29,0.26726
7213.51,0.25975
7207.72,0.25181
7201.93,0.25361
7196.15,0.24981
7190.36,0.24186
7184.58,0.23226
7178.79,0.22290
7173,0.20704
7167.22,0.19197
7161.43,0.16498
7155.65,0.13689
7149.86,0.12711
7144.07,0.13507
7138.29,0.16508
7132.5,0.17639
7126.71,0.18554
7120.93,0.19446
7115.14,0.18918
7109.36,0.19332
7103.57,0.18241
7097.78,0.17784
7092,0.16867
7086.21,0.16405
7080.42,0.14602
7074.64,0.13645
7068.85,0.11752
7063.07,0.11245
7057.28,0.10687
7051.49,0.11475
7045.71,0.11041
7039.92,0.11048
7034.13,0.11896
7028.35,0.13023
7022.56,0.14553
7016.78,0.16091
7010.99,0.15524
7005.2,0.15030
6999.42,0.14057
6993.63,0.13687
6987.84,0.12600
6982.06,0.11523
6976.27,0.11237
6970.49,0.10492
6964.7,0.11121
6958.91,0.10823
6953.13,0.10313
6947.34,0.10680
6941.55,0.11297
6935.77,0.11746
6929.98,0.11867
6924.2,0.11535
6918.41,0.10596
6912.62,0.09673
6906.84,0.09714
6901.05,0.08458
6895.26,0.09007
6889.48,0.09422
6883.69,0.09885
6877.91,0.10552
6872.12,0.12441
6866.33,0.12641
6860.55,0.12152
6854.76,0.11103
6848.97,0.09944
6843.19,0.08632
6837.4,0.09429
6831.62,0.10539
6825.83,0.12275
6820.04,0.13590
6814.26,0.14178
6808.47,0.15359
6802.68,0.14943
6796.9,0.16397
6791.11,0.16908
6785.33,0.17373
6779.54,0.17409
6773.75,0.18749
6767.97,0.18559
6762.18,0.18514
6756.39,0.18716
6750.61,0.19352
6744.82,0.19492
6739.04,0.19711
6733.25,0.20162
6727.46,0.20453
6721.68,0.20234
6715.89,0.20492
6710.1,0.20830
6704.32,0.21206
6698.53,0.20428
6692.75,0.20539
6686.96,0.20412
6681.17,0.20415
6675.39,0.19844
6669.6,0.20250
6663.82,0.19229
6658.03,0.19267
6652.24,0.19376
6646.46,0.18635
6640.67,0.17677
6634.88,0.17790
6629.1,0.17905
6623.31,0.16833
6617.53,0.16399
6611.74,0.15931
6605.95,0.15196
6600.17,0.14842
6594.38,0.13895
6588.59,0.14103
6582.81,0.13935
6577.02,0.14025
6571.24,0.14397
6565.45,0.14987
6559.66,0.15923
6553.88,0.15564
6548.09,0.16035
6542.3,0.15500
6536.52,0.16037
6530.73,0.15860
6524.95,0.15812
6519.16,0.15563
6513.37,0.15932
6507.59,0.15603
6501.8,0.15661
6496.01,0.15345
6490.23,0.15068
6484.44,0.14597
6478.66,0.13867
6472.87,0.14090
6467.08,0.13498
6461.3,0.13193
6455.51,0.13214
6449.72,0.12946
6443.94,0.12763
6438.15,0.13904
6432.37,0.13784
6426.58,0.14641
6420.79,0.15194
6415.01,0.15300
6409.22,0.15852
6403.43,0.16610
6397.65,0.16987
6391.86,0.17097
6386.08,0.17647
6380.29,0.17935
6374.5,0.18210
6368.72,0.18346
6362.93,0.18320
6357.14,0.18885
6351.36,0.19316
6345.57,0.19349
6339.79,0.19511
6334,0.19971
6328.21,0.19932
6322.43,0.20383
6316.64,0.20100
6310.85,0.20232
6305.07,0.20739
6299.28,0.20794
6293.5,0.20970
6287.71,0.20895
6281.92,0.21124
6276.14,0.21596
6270.35,0.21675
6264.56,0.22091
6258.78,0.22268
6252.99,0.22627
6247.21,0.22466
6241.42,0.23211
6235.63,0.23458
6229.85,0.23463
6224.06,0.24000
6218.27,0.23920
6212.49,0.24183
6206.7,0.24443
6200.92,0.24227
6195.13,0.24757
6189.34,0.24511
6183.56,0.24085
6177.77,0.24557
6171.98,0.24477
6166.2,0.24136
6160.41,0.24572
6154.63,0.24778
6148.84,0.24735
6143.05,0.25179
6137.27,0.25420
6131.48,0.25119
6125.7,0.25009
6119.91,0.25058
6114.12,0.25002
6108.34,0.25006
6102.55,0.25079
6096.76,0.24924
6090.98,0.24595
6085.19,0.24626
6079.41,0.24220
6073.62,0.24016
6067.83,0.23547
6062.05,0.23085
6056.26,0.22378
6050.47,0.21699
6044.69,0.21035
6038.9,0.20259
6033.12,0.19561
6027.33,0.18422
6021.54,0.17880
6015.76,0.17016
6009.97,0.16504
6004.18,0.16271
5998.4,0.15784
5992.61,0.15757
5986.83,0.15317
5981.04,0.15018
5975.25,0.14747
5969.47,0.14044
5963.68,0.13459
5957.89,0.13248
5952.11,0.13028
5946.32,0.13254
5940.54,0.13480
5934.75,0.14179
5928.96,0.14351
5923.18,0.14592
5917.39,0.15224
5911.6,0.15221
5905.82,0.15361
5900.03,0.15280
5894.25,0.14869
5888.46,0.14832
5882.67,0.14790
5876.89,0.14945
5871.1,0.15053
5865.31,0.14825
5859.53,0.15150
5853.74,0.14927
5847.96,0.15181
5842.17,0.15368
5836.38,0.15302
5830.6,0.15167
5824.81,0.15111
5819.02,0.14866
5813.24,0.14923
5807.45,0.15058
5801.67,0.15235
5795.88,0.15332
5790.09,0.15319
5784.31,0.15611
5778.52,0.15751
5772.73,0.15848
5766.95,0.15867
5761.16,0.16169
5755.38,0.16333
5749.59,0.16696
5743.8,0.17092
5738.02,0.17296
5732.23,0.17333
5726.44,0.17612
5720.66,0.17702
5714.87,0.17774
5709.09,0.18322
5703.3,0.18384
5697.51,0.18611
5691.73,0.18939
5685.94,0.19222
5680.15,0.19327
5674.37,0.19206
5668.58,0.19295
5662.8,0.19508
5657.01,0.19271
5651.22,0.19262
5645.44,0.19227
5639.65,0.18958
5633.87,0.18697
5628.08,0.18459
5622.29,0.18126
5616.51,0.18038
5610.72,0.17731
5604.93,0.17696
5599.15,0.17572
5593.36,0.17672
5587.58,0.17731
5581.79,0.17724
5576,0.17677
5570.22,0.17839
5564.43,0.17998
5558.64,0.17982
5552.86,0.18219
5547.07,0.18398
5541.29,0.18250
5535.5,0.18458
5529.71,0.18505
5523.93,0.18298
5518.14,0.18075
5512.35,0.17952
5506.57,0.17558
5500.78,0.17486
5495,0.17440
5489.21,0.17340
5483.42,0.17121
5477.64,0.17091
5471.85,0.16926
5466.06,0.17046
5460.28,0.16878
5454.49,0.16809
5448.71,0.16777
5442.92,0.16879
5437.13,0.16827
5431.35,0.16773
5425.56,0.16536
5419.77,0.16444
5413.99,0.16419
5408.2,0.15953
5402.42,0.15883
5396.63,0.15730
5390.84,0.15828
5385.06,0.15659
5379.27,0.15776
5373.48,0.15824
5367.7,0.15759
5361.91,0.15958
5356.13,0.15884
5350.34,0.16007
5344.55,0.15862
5338.77,0.15747
5332.98,0.15710
5327.19,0.15583
5321.41,0.15398
5315.62,0.15102
5309.84,0.14806
5304.05,0.14598
5298.26,0.14204
5292.48,0.13792
5286.69,0.13433
5280.9,0.12997
5275.12,0.12742
5269.33,0.12287
5263.55,0.12092
5257.76,0.11857
5251.97,0.11596
5246.19,0.11563
5240.4,0.11548
5234.61,0.11677
5228.83,0.11675
5223.04,0.11798
5217.26,0.11983
5211.47,0.12320
5205.68,0.12558
5199.9,0.12805
5194.11,0.12819
5188.32,0.12910
5182.54,0.12908
5176.75,0.12937
5170.97,0.13000
5165.18,0.12720
5159.39,0.12609
5153.61,0.12575
5147.82,0.12417
5142.03,0.12370
5136.25,0.12203
5130.46,0.12129
5124.68,0.12200
5118.89,0.12327
5113.1,0.12316
5107.32,0.12314
5101.53,0.12528
5095.75,0.12559
5089.96,0.12501
5084.17,0.12579
5078.39,0.12604
5072.6,0.12738
5066.81,0.12563
5061.03,0.12512
5055.24,0.12487
5049.46,0.12489
5043.67,0.12452
5037.88,0.12266
5032.1,0.12252
5026.31,0.12135
5020.52,0.12103
5014.74,0.12127
5008.95,0.11899
5003.17,0.11835
4997.38,0.11956
4991.59,0.11719
4985.81,0.11606
4980.02,0.11659
4974.23,0.11526
4968.45,0.11392
4962.66,0.11400
4956.88,0.11303
4951.09,0.11144
4945.3,0.11043
4939.52,0.11013
4933.73,0.11095
4927.94,0.10974
4922.16,0.10916
4916.37,0.10834
4910.59,0.10762
4904.8,0.10841
4899.01,0.10693
4893.23,0.10610
4887.44,0.10601
4881.65,0.10546
4875.87,0.10341
4870.08,0.10311
4864.3,0.10399
4858.51,0.10373
4852.72,0.10264
4846.94,0.10191
4841.15,0.10154
4835.36,0.10097
4829.58,0.09942
4823.79,0.09818
4818.01,0.09821
4812.22,0.09754
4806.43,0.09700
4800.65,0.09611
4794.86,0.09472
4789.07,0.09518
4783.29,0.09427
4777.5,0.09298
4771.72,0.09162
4765.93,0.08996
4760.14,0.08858
4754.36,0.08709
4748.57,0.08565
4742.78,0.08514
4737,0.08381
4731.21,0.08204
4725.43,0.08194
4719.64,0.08225
4713.85,0.08139
4708.07,0.07924
4702.28,0.07815
4696.49,0.07680
4690.71,0.07462
4684.92,0.07333
4679.14,0.07378
4673.35,0.07416
4667.56,0.07473
4661.78,0.07491
4655.99,0.07480
4650.2,0.07334
4644.42,0.07262
4638.63,0.07020
4632.85,0.07010
4627.06,0.06951
4621.27,0.06854
4615.49,0.06762
4609.7,0.06721
4603.92,0.06636
4598.13,0.06395
4592.34,0.06370
4586.56,0.06294
4580.77,0.06260
4574.98,0.06287
4569.2,0.06314
4563.41,0.06222
4557.63,0.06195
4551.84,0.06135
4546.05,0.06101
4540.27,0.05974
4534.48,0.05835
4528.69,0.05848
4522.91,0.05801
4517.12,0.05787
4511.34,0.05787
4505.55,0.05731
4499.76,0.05608
4493.98,0.05659
4488.19,0.05602
4482.4,0.05496
4476.62,0.05511
4470.83,0.05482
4465.05,0.05358
4459.26,0.05337
4453.47,0.05394
4447.69,0.05358
4441.9,0.05276
4436.11,0.05335
4430.33,0.05325
4424.54,0.05349
4418.76,0.05339
4412.97,0.05266
4407.18,0.05286
4401.4,0.05342
4395.61,0.05332
4389.82,0.05303
4384.04,0.05363
4378.25,0.05395
4372.47,0.05361
4366.68,0.05372
4360.89,0.05423
4355.11,0.05381
4349.32,0.05375
4343.53,0.05396
4337.75,0.05472
4331.96,0.05342
4326.18,0.05363
4320.39,0.05487
4314.6,0.05578
4308.82,0.05440
4303.03,0.05479
4297.24,0.05461
4291.46,0.05486
4285.67,0.05564
4279.89,0.05471
4274.1,0.05521
4268.31,0.05440
4262.53,0.05485
4256.74,0.05533
4250.95,0.05433
4245.17,0.05462
4239.38,0.05429
4233.6,0.05425
4227.81,0.05442
4222.02,0.05449
4216.24,0.05402
4210.45,0.05346
4204.66,0.05411
4198.88,0.05433
4193.09,0.05415
4187.31,0.05372
4181.52,0.05451
4175.73,0.05383
4169.95,0.05396
4164.16,0.05436
4158.37,0.05397
4152.59,0.05398
4146.8,0.05419
4141.02,0.05473
4135.23,0.05460
4129.44,0.05488
4123.66,0.05472
4117.87,0.05544
4112.09,0.05481
4106.3,0.05460
4100.51,0.05433
4094.73,0.05396
4088.94,0.05486
4083.15,0.05546
4077.37,0.05489
4071.58,0.05489
4065.8,0.05507
4060.01,0.05525
4054.22,0.05509
4048.44,0.05565
4042.65,0.05543
4036.86,0.05536
4031.08,0.05512
4025.29,0.05464
4019.51,0.05446
4013.72,0.05493
4007.93,0.05548
4002.15,0.05463
3996.36,0.05436
3990.57,0.05501
3984.79,0.05500
3979,0.05462
3973.22,0.05531
3967.43,0.05558
3961.64,0.05503
3955.86,0.05523
3950.07,0.05475
3944.28,0.05467
3938.5,0.05478
3932.71,0.05434
3926.93,0.05453
3921.14,0.05451
3915.35,0.05404
3909.57,0.05448
3903.78,0.05424
3897.99,0.05385
3892.21,0.05414
3886.42,0.05477
3880.64,0.05455
3874.85,0.05405
3869.06,0.05392
3863.28,0.05378
3857.49,0.05347
3851.7,0.05332
3845.92,0.05428
3840.13,0.05402
3834.35,0.05469
3828.56,0.05462
3822.77,0.05481
3816.99,0.05471
3811.2,0.05403
3805.41,0.05392
3799.63,0.05361
3793.84,0.05445
3788.06,0.05407
3782.27,0.05475
3776.48,0.05392
3770.7,0.05394
3764.91,0.05427
3759.12,0.05420
3753.34,0.05400
3747.55,0.05422
3741.77,0.05390
3735.98,0.05428
3730.19,0.05454
3724.41,0.05375
3718.62,0.05314
3712.83,0.05333
3707.05,0.05313
3701.26,0.05370
3695.48,0.05266
3689.69,0.05302
3683.9,0.05325
3678.12,0.05343
3672.33,0.05235
3666.54,0.05291
3660.76,0.05280
3654.97,0.05240
3649.19,0.05343
3643.4,0.05290
3637.61,0.05301
3631.83,0.05414
3626.04,0.05692
3620.25,0.05629
3614.47,0.05407
3608.68,0.05357
3602.9,0.05294
3597.11,0.05278
3591.32,0.05221
3585.54,0.05227
3579.75,0.05280
3573.97,0.05268
3568.18,0.05303
3562.39,0.05284
3556.61,0.05319
3550.82,0.05348
3545.03,0.05527
3539.25,0.05796
3533.46,0.06311
3527.68,0.06454
3521.89,0.05977
3516.1,0.05917
3510.32,0.05783
3504.53,0.05918
3498.74,0.06073
3492.96,0.06419
3487.17,0.06731
3481.39,0.06883
3475.6,0.07173
3469.81,0.07295
3464.03,0.07316
3458.24,0.07233
3452.45,0.06978
3446.67,0.06720
3440.88,0.06512
3435.1,0.06066
3429.31,0.05781
3423.52,0.05564
3417.74,0.05437
3411.95,0.05378
3406.16,0.05298
3400.38,0.05361
3394.59,0.05433
3388.81,0.05431
3383.02,0.05460
3377.23,0.05606
3371.45,0.05615
3365.66,0.05500
3359.87,0.05505
3354.09,0.05420
3348.3,0.05378
3342.52,0.05401
3336.73,0.05335
3330.94,0.05382
3325.16,0.05342
3319.37,0.05363
3313.58,0.05294
3307.8,0.05282
3302.01,0.05322
3296.23,0.05314
3290.44,0.05312
3284.65,0.05290
3278.87,0.05308
3273.08,0.05320
3267.29,0.05330
3261.51,0.05319
3255.72,0.05291
3249.94,0.05246
3244.15,0.05311
3238.36,0.05290
3232.58,0.05267
3226.79,0.05276
3221,0.05291
3215.22,0.05305
3209.43,0.05259
3203.65,0.05370
3197.86,0.05317
3192.07,0.05295
3186.29,0.05273
3180.5,0.05335
3174.71,0.05391
3168.93,0.05352
3163.14,0.05427
3157.36,0.05388
3151.57,0.05348
3145.78,0.05397
3140,0.05305
3134.21,0.05330
3128.42,0.05366
3122.64,0.05317
3116.85,0.05358
3111.07,0.05364
3105.28,0.05387
3099.49,0.05318
3093.71,0.05280
3087.92,0.05261
3082.14,0.05278
3076.35,0.05263
3070.56,0.05232
3064.78,0.05235
3058.99,0.05171
3053.2,0.05150
3047.42,0.05044
3041.63,0.05025
3035.85,0.04958
3030.06,0.04930
3024.27,0.04879
3018.49,0.04859
3012.7,0.04850
3006.91,0.04806
3001.13,0.04893
2995.34,0.04877
2989.56,0.04989
2983.77,0.04964
2977.98,0.04978
2972.2,0.04912
2966.41,0.04900
2960.62,0.04838
2954.84,0.04910
2949.05,0.05131
2943.27,0.05232
2937.48,0.05236
2931.69,0.05316
2925.91,0.05431
2920.12,0.05520
2914.33,0.05444
2908.55,0.05375
2902.76,0.05355
2896.98,0.05324
2891.19,0.05336
2885.4,0.05344
2879.62,0.05366
2873.83,0.05323
2868.04,0.05297
2862.26,0.05350
2856.47,0.05380
2850.69,0.05514
2844.9,0.05401
2839.11,0.05362
2833.33,0.05330
2827.54,0.05406
2821.75,0.05401
2815.97,0.05435
2810.18,0.05468
2804.4,0.05496
2798.61,0.05449
2792.82,0.05465
2787.04,0.05508
2781.25,0.05448
2775.46,0.05516
2769.68,0.05518
2763.89,0.05482
2758.11,0.05416
2752.32,0.05510
2746.53,0.05534
2740.75,0.05530
2734.96,0.05537
2729.17,0.05579
2723.39,0.05569
2717.6,0.05543
2711.82,0.05576
2706.03,0.05548
2700.24,0.05543
2694.46,0.05521
2688.67,0.05579
2682.88,0.05538
2677.1,0.05498
2671.31,0.05514
2665.53,0.05516
2659.74,0.05487
2653.95,0.05471
2648.17,0.05437
2642.38,0.05425
2636.59,0.05499
2630.81,0.05482
2625.02,0.05466
2619.24,0.05435
2613.45,0.05440
2607.66,0.05427
2601.88,0.05376
2596.09,0.05377
2590.3,0.05417
2584.52,0.05388
2578.73,0.05423
2572.95,0.05440
2567.16,0.05393
2561.37,0.05372
2555.59,0.05369
2549.8,0.05362
2544.02,0.05354
2538.23,0.05382
2532.44,0.05420
2526.66,0.05399
2520.87,0.05404
2515.08,0.05385
2509.3,0.05364
2503.51,0.05402
2497.73,0.05415
2491.94,0.05404
2486.15,0.05409
2480.37,0.05384
2474.58,0.05365
2468.79,0.05374
2463.01,0.05385
2457.22,0.05343
2451.44,0.05369
2445.65,0.05314
2439.86,0.05307
2434.08,0.05266
2428.29,0.05277
2422.5,0.05271
2416.72,0.05259
2410.93,0.05279
2405.15,0.05247
2399.36,0.05253
2393.57,0.05250
2387.79,0.05269
2382,0.05217
2376.21,0.05248
2370.43,0.05266
2364.64,0.05220
2358.86,0.05274
2353.07,0.05208
2347.28,0.05173
2341.5,0.05163
2335.71,0.05209
2329.92,0.05230
2324.14,0.05215
2318.35,0.05171
2312.57,0.05151
2306.78,0.05211
2300.99,0.05210
2295.21,0.05215
2289.42,0.05195
2283.63,0.05180
2277.85,0.05179
2272.06,0.05162
2266.28,0.05131
2260.49,0.05158
2254.7,0.05134
2248.92,0.05139
2243.13,0.05153
2237.34,0.05132
2231.56,0.05115
2225.77,0.05104
2219.99,0.05106
2214.2,0.05111
2208.41,0.05107
2202.63,0.05074
2196.84,0.05071
2191.05,0.05071
2185.27,0.05046
2179.48,0.05060
2173.7,0.05062
2167.91,0.05050
2162.12,0.05007
2156.34,0.05039
2150.55,0.05020
2144.76,0.05026
2138.98,0.05028
2133.19,0.05002
2127.41,0.04986
2121.62,0.04995
2115.83,0.05002
2110.05,0.04990
2104.26,0.05000
2098.47,0.04990
2092.69,0.04984
2086.9,0.04953
2081.12,0.04970
2075.33,0.04972
2069.54,0.04960
2063.76,0.04947
2057.97,0.04943
2052.19,0.04971
2046.4,0.04916
2040.61,0.04949
2034.83,0.04947
2029.04,0.04931
2023.25,0.04895
2017.47,0.04900
2011.68,0.04902
2005.9,0.04899
2000.11,0.04917
1994.32,0.04895
1988.54,0.04896
1982.75,0.04925
1976.96,0.04882
1971.18,0.04893
1965.39,0.04912
1959.61,0.04870
1953.82,0.04900
1948.03,0.04884
1942.25,0.04845
1936.46,0.04875
1930.67,0.04860
1924.89,0.04836
1919.1,0.04823
1913.32,0.04842
1907.53,0.04833
1901.74,0.04788
1895.96,0.04772
1890.17,0.04759
1884.38,0.04760
1878.6,0.04744
1872.81,0.04730
1867.03,0.04724
1861.24,0.04694
1855.45,0.04680
1849.67,0.04652
1843.88,0.04639
1838.09,0.04588
1832.31,0.04599
1826.52,0.04532
1820.74,0.04512
1814.95,0.04483
1809.16,0.04399
1803.38,0.04358
1797.59,0.04354
1791.8,0.04281
1786.02,0.04191
1780.23,0.04110
1774.45,0.03965
1768.66,0.03808
1762.87,0.03570
1757.09,0.03238
1751.3,0.02695
1745.51,0.02555
1739.73,0.03717
1733.94,0.05746
1728.16,0.07523
1722.37,0.08286
1716.58,0.07894
1710.8,0.07096
1705.01,0.06518
1699.22,0.06062
1693.44,0.05848
1687.65,0.05763
1681.87,0.05640
1676.08,0.05590
1670.29,0.05525
1664.51,0.05449
1658.72,0.05394
1652.93,0.05327
1647.15,0.05316
1641.36,0.05264
1635.58,0.05244
1629.79,0.05205
1624,0.05195
1618.22,0.05193
1612.43,0.05167
1606.64,0.05161
1600.86,0.05099
1595.07,0.05108
1589.29,0.05087
1583.5,0.05030
1577.71,0.04997
1571.93,0.04989
1566.14,0.04925
1560.35,0.04933
1554.57,0.04881
1548.78,0.04861
1543,0.04778
1537.21,0.04765
1531.42,0.04737
1525.64,0.04681
1519.85,0.04638
1514.07,0.04556
1508.28,0.04474
1502.49,0.04361
1496.71,0.04232
1490.92,0.04210
1485.13,0.04372
1479.35,0.04557
1473.56,0.04624
1467.78,0.04602
1461.99,0.04559
1456.2,0.04589
1450.42,0.04756
1444.63,0.05005
1438.84,0.05128
1433.06,0.05511
1427.27,0.05643
1421.49,0.05450
1415.7,0.05278
1409.91,0.05096
1404.13,0.04931
1398.34,0.04882
1392.55,0.04832
1386.77,0.04965
1380.98,0.05057
1375.2,0.05008
1369.41,0.04933
1363.62,0.04932
1357.84,0.04858
1352.05,0.04849
1346.26,0.04759
1340.48,0.04728
1334.69,0.04653
1328.91,0.04577
1323.12,0.04504
1317.33,0.04430
1311.55,0.04336
1305.76,0.04210
1299.97,0.04117
1294.19,0.03996
1288.4,0.03861
1282.62,0.03720
1276.83,0.03753
1271.04,0.04167
1265.26,0.04473
1259.47,0.04424
1253.68,0.04317
1247.9,0.04377
1242.11,0.04806
1236.33,0.05192
1230.54,0.05222
1224.75,0.05042
1218.97,0.04656
1213.18,0.04150
1207.39,0.03775
1201.61,0.03836
1195.82,0.04464
1190.04,0.05275
1184.25,0.05337
1178.46,0.05230
1172.68,0.05225
1166.89,0.05208
1161.1,0.05326
1155.32,0.05951
1149.53,0.07625
1143.75,0.08730
1137.96,0.08735
1132.17,0.08365
1126.39,0.08018
1120.6,0.07807
1114.81,0.07622
1109.03,0.07526
1103.24,0.07475
1097.46,0.07350
1091.67,0.07309
1085.88,0.07335
1080.1,0.07324
1074.31,0.07326
1068.52,0.07293
1062.74,0.07382
1056.95,0.07888
1051.17,0.08455
1045.38,0.08733
1039.59,0.08614
1033.81,0.08472
1028.02,0.08013
1022.24,0.07729
1016.45,0.07233
1010.66,0.06637
1004.88,0.06001
999.09,0.05643
993.304,0.05790
987.518,0.06026
981.731,0.06171
975.945,0.06230
970.159,0.06247
964.373,0.06310
958.586,0.06373
952.8,0.06364
947.014,0.06331
941.228,0.06386
935.441,0.06268
929.655,0.06229
923.869,0.06139
918.083,0.06113
912.297,0.06093
906.51,0.06184
900.724,0.06250
894.938,0.06347
889.152,0.06474
883.365,0.06543
877.579,0.06567
871.793,0.06587
866.007,0.06491
860.22,0.06482
854.434,0.06388
848.648,0.06331
842.862,0.06358
837.075,0.06676
831.289,0.06929
825.503,0.06794
819.717,0.07070
813.931,0.07156
808.144,0.07234
802.358,0.07313
796.572,0.07230
790.786,0.07114
784.999,0.06892
779.213,0.06800
773.427,0.06679
767.641,0.06440
761.854,0.06344
756.068,0.06227
750.282,0.06428
744.496,0.07005
738.709,0.07030
732.923,0.06903
727.137,0.06883
721.351,0.06689
715.565,0.06479
709.778,0.06430
703.992,0.06409
698.206,0.06315
692.42,0.06335
686.633,0.06370
680.847,0.06582
675.061,0.06884
669.275,0.06872
663.488,0.06676
657.702,0.06494
651.916,0.06512
646.13,0.06545
640.343,0.06632
634.557,0.06597
628.771,0.06711
622.985,0.06782
617.198,0.06774
611.412,0.06762
605.626,0.07031
599.84,0.07149