File: 01_Data/Corian_Countertop/FTIR/IS/Corian_Countertop_IS_S_221003_R5.dpt
7497.03,0.38673
7491.25,0.38874
7485.46,0.38111
7479.67,0.36858
7473.89,0.35462
7468.1,0.35682
7462.32,0.34976
7456.53,0.35216
7450.74,0.34930
7444.96,0.33994
7439.17,0.33852
7433.38,0.33005
7427.6,0.33650
7421.81,0.33119
7416.03,0.32567
7410.24,0.33184
7404.45,0.32956
7398.67,0.33566
7392.88,0.33893
7387.09,0.32786
7381.31,0.33196
7375.52,0.33054
7369.74,0.32008
7363.95,0.32842
7358.16,0.32915
7352.38,0.33022
7346.59,0.32340
7340.8,0.32272
7335.02,0.32387
7329.23,0.32059
7323.45,0.31794
7317.66,0.30659
7311.87,0.31076
7306.09,0.29900
7300.3,0.30735
7294.51,0.29597
7288.73,0.29427
7282.94,0.29759
7277.16,0.29847
7271.37,0.29168
7265.58,0.28852
7259.8,0.28544
7254.01,0.28588
7248.22,0.27439
7242.44,0.27242
7236.65,0.28015
7230.87,0.26922
7225.08,0.27419
7219.29,0.27261
7213.51,0.25924
7207.72,0.25370
7201.93,0.24409
7196.15,0.24441
7190.36,0.24178
7184.58,0.22794
7178.79,0.22355
7173,0.20336
7167.22,0.19182
7161.43,0.16982
7155.65,0.13283
7149.86,0.12474
7144.07,0.13522
7138.29,0.16324
7132.5,0.18502
7126.71,0.19020
7120.93,0.19553
7115.14,0.18737
7109.36,0.18863
7103.57,0.18120
7097.78,0.17259
7092,0.16826
7086.21,0.15430
7080.42,0.14381
7074.64,0.13660
7068.85,0.12983
7063.07,0.11426
7057.28,0.10921
7051.49,0.10910
7045.71,0.10866
7039.92,0.10738
7034.13,0.11678
7028.35,0.12874
7022.56,0.15301
7016.78,0.15326
7010.99,0.15208
7005.2,0.14568
6999.42,0.14774
6993.63,0.13493
6987.84,0.12568
6982.06,0.11970
6976.27,0.11553
6970.49,0.10709
6964.7,0.11157
6958.91,0.09980
6953.13,0.10067
6947.34,0.10438
6941.55,0.11923
6935.77,0.11448
6929.98,0.12384
6924.2,0.11247
6918.41,0.10742
6912.62,0.10539
6906.84,0.09046
6901.05,0.08864
6895.26,0.08588
6889.48,0.08993
6883.69,0.10252
6877.91,0.10658
6872.12,0.11758
6866.33,0.12376
6860.55,0.11579
6854.76,0.10783
6848.97,0.09762
6843.19,0.08955
6837.4,0.09813
6831.62,0.11389
6825.83,0.12303
6820.04,0.13666
6814.26,0.14272
6808.47,0.14994
6802.68,0.14756
6796.9,0.16210
6791.11,0.17304
6785.33,0.17696
6779.54,0.17715
6773.75,0.17942
6767.97,0.18740
6762.18,0.19136
6756.39,0.19138
6750.61,0.19039
6744.82,0.18813
6739.04,0.19629
6733.25,0.20111
6727.46,0.20163
6721.68,0.20605
6715.89,0.21155
6710.1,0.21326
6704.32,0.20692
6698.53,0.20830
6692.75,0.20398
6686.96,0.20451
6681.17,0.19925
6675.39,0.20184
6669.6,0.19902
6663.82,0.19778
6658.03,0.19461
6652.24,0.19049
6646.46,0.19027
6640.67,0.18513
6634.88,0.18646
6629.1,0.17684
6623.31,0.16808
6617.53,0.16422
6611.74,0.15747
6605.95,0.15503
6600.17,0.14672
6594.38,0.14262
6588.59,0.13987
6582.81,0.13936
6577.02,0.14382
6571.24,0.14557
6565.45,0.14831
6559.66,0.15710
6553.88,0.15871
6548.09,0.16086
6542.3,0.16201
6536.52,0.16296
6530.73,0.16261
6524.95,0.15888
6519.16,0.15834
6513.37,0.15583
6507.59,0.15881
6501.8,0.15431
6496.01,0.15131
6490.23,0.14945
6484.44,0.14479
6478.66,0.14446
6472.87,0.13905
6467.08,0.13482
6461.3,0.13355
6455.51,0.12915
6449.72,0.12907
6443.94,0.13495
6438.15,0.13608
6432.37,0.13773
6426.58,0.14398
6420.79,0.14811
6415.01,0.15238
6409.22,0.15622
6403.43,0.16203
6397.65,0.16971
6391.86,0.16854
6386.08,0.17596
6380.29,0.17918
6374.5,0.18424
6368.72,0.18411
6362.93,0.18804
6357.14,0.19184
6351.36,0.19170
6345.57,0.19649
6339.79,0.19741
6334,0.19827
6328.21,0.19842
6322.43,0.20001
6316.64,0.19866
6310.85,0.20678
6305.07,0.20550
6299.28,0.20680
6293.5,0.20852
6287.71,0.21191
6281.92,0.21345
6276.14,0.21501
6270.35,0.21863
6264.56,0.22275
6258.78,0.22455
6252.99,0.22953
6247.21,0.22700
6241.42,0.23200
6235.63,0.23610
6229.85,0.23557
6224.06,0.24006
6218.27,0.24147
6212.49,0.24024
6206.7,0.24046
6200.92,0.24325
6195.13,0.24293
6189.34,0.24669
6183.56,0.24640
6177.77,0.24481
6171.98,0.24251
6166.2,0.24573
6160.41,0.24817
6154.63,0.24938
6148.84,0.25214
6143.05,0.25252
6137.27,0.25173
6131.48,0.25309
6125.7,0.25202
6119.91,0.25189
6114.12,0.25396
6108.34,0.25132
6102.55,0.24835
6096.76,0.24914
6090.98,0.24699
6085.19,0.24706
6079.41,0.24698
6073.62,0.24185
6067.83,0.23640
6062.05,0.23280
6056.26,0.22752
6050.47,0.21879
6044.69,0.20974
6038.9,0.20257
6033.12,0.19408
6027.33,0.18352
6021.54,0.17764
6015.76,0.17219
6009.97,0.16770
6004.18,0.16113
5998.4,0.15668
5992.61,0.15382
5986.83,0.15385
5981.04,0.15078
5975.25,0.14289
5969.47,0.13988
5963.68,0.13516
5957.89,0.13278
5952.11,0.13235
5946.32,0.13326
5940.54,0.13461
5934.75,0.13982
5928.96,0.13993
5923.18,0.14686
5917.39,0.15167
5911.6,0.15611
5905.82,0.15524
5900.03,0.15235
5894.25,0.15081
5888.46,0.15030
5882.67,0.14757
5876.89,0.14868
5871.1,0.14529
5865.31,0.14906
5859.53,0.14963
5853.74,0.15104
5847.96,0.15244
5842.17,0.15260
5836.38,0.15363
5830.6,0.14983
5824.81,0.15171
5819.02,0.14992
5813.24,0.15013
5807.45,0.15394
5801.67,0.15419
5795.88,0.15498
5790.09,0.15724
5784.31,0.15320
5778.52,0.15480
5772.73,0.15989
5766.95,0.16246
5761.16,0.16238
5755.38,0.16313
5749.59,0.16580
5743.8,0.16720
5738.02,0.17110
5732.23,0.17424
5726.44,0.17430
5720.66,0.17680
5714.87,0.18159
5709.09,0.18235
5703.3,0.18295
5697.51,0.18723
5691.73,0.18627
5685.94,0.19061
5680.15,0.19209
5674.37,0.19159
5668.58,0.19117
5662.8,0.19296
5657.01,0.19345
5651.22,0.19160
5645.44,0.19300
5639.65,0.19127
5633.87,0.18729
5628.08,0.18647
5622.29,0.18275
5616.51,0.18047
5610.72,0.17700
5604.93,0.17664
5599.15,0.17840
5593.36,0.17629
5587.58,0.17676
5581.79,0.17707
5576,0.17897
5570.22,0.18015
5564.43,0.18092
5558.64,0.18212
5552.86,0.18242
5547.07,0.18410
5541.29,0.18526
5535.5,0.18365
5529.71,0.18317
5523.93,0.18128
5518.14,0.18170
5512.35,0.17908
5506.57,0.17654
5500.78,0.17525
5495,0.17409
5489.21,0.17368
5483.42,0.17298
5477.64,0.17215
5471.85,0.17253
5466.06,0.17150
5460.28,0.16922
5454.49,0.16946
5448.71,0.16871
5442.92,0.16934
5437.13,0.16761
5431.35,0.16767
5425.56,0.16679
5419.77,0.16612
5413.99,0.16432
5408.2,0.16188
5402.42,0.15960
5396.63,0.16027
5390.84,0.15850
5385.06,0.15885
5379.27,0.15771
5373.48,0.15919
5367.7,0.15779
5361.91,0.15925
5356.13,0.15953
5350.34,0.15938
5344.55,0.15860
5338.77,0.16030
5332.98,0.15723
5327.19,0.15495
5321.41,0.15268
5315.62,0.15069
5309.84,0.14961
5304.05,0.14706
5298.26,0.14390
5292.48,0.13956
5286.69,0.13353
5280.9,0.13080
5275.12,0.12833
5269.33,0.12478
5263.55,0.12052
5257.76,0.11769
5251.97,0.11527
5246.19,0.11524
5240.4,0.11463
5234.61,0.11673
5228.83,0.11767
5223.04,0.11801
5217.26,0.12243
5211.47,0.12400
5205.68,0.12561
5199.9,0.12767
5194.11,0.12674
5188.32,0.13061
5182.54,0.12873
5176.75,0.13075
5170.97,0.12926
5165.18,0.12907
5159.39,0.12749
5153.61,0.12653
5147.82,0.12544
5142.03,0.12337
5136.25,0.12291
5130.46,0.12215
5124.68,0.12180
5118.89,0.12162
5113.1,0.12254
5107.32,0.12344
5101.53,0.12505
5095.75,0.12501
5089.96,0.12583
5084.17,0.12544
5078.39,0.12520
5072.6,0.12695
5066.81,0.12669
5061.03,0.12553
5055.24,0.12618
5049.46,0.12391
5043.67,0.12542
5037.88,0.12413
5032.1,0.12341
5026.31,0.12196
5020.52,0.12130
5014.74,0.12183
5008.95,0.12064
5003.17,0.11974
4997.38,0.11783
4991.59,0.11806
4985.81,0.11763
4980.02,0.11628
4974.23,0.11588
4968.45,0.11461
4962.66,0.11496
4956.88,0.11382
4951.09,0.11258
4945.3,0.11191
4939.52,0.11151
4933.73,0.11067
4927.94,0.11064
4922.16,0.11083
4916.37,0.10839
4910.59,0.10698
4904.8,0.10746
4899.01,0.10780
4893.23,0.10640
4887.44,0.10620
4881.65,0.10627
4875.87,0.10660
4870.08,0.10429
4864.3,0.10340
4858.51,0.10412
4852.72,0.10293
4846.94,0.10255
4841.15,0.10165
4835.36,0.10167
4829.58,0.10052
4823.79,0.10011
4818.01,0.09957
4812.22,0.09813
4806.43,0.09803
4800.65,0.09758
4794.86,0.09661
4789.07,0.09495
4783.29,0.09355
4777.5,0.09294
4771.72,0.09200
4765.93,0.08936
4760.14,0.08905
4754.36,0.08695
4748.57,0.08623
4742.78,0.08331
4737,0.08277
4731.21,0.08284
4725.43,0.08295
4719.64,0.08197
4713.85,0.08094
4708.07,0.08027
4702.28,0.07792
4696.49,0.07649
4690.71,0.07545
4684.92,0.07322
4679.14,0.07357
4673.35,0.07519
4667.56,0.07357
4661.78,0.07485
4655.99,0.07423
4650.2,0.07387
4644.42,0.07376
4638.63,0.07117
4632.85,0.06995
4627.06,0.06851
4621.27,0.06863
4615.49,0.06777
4609.7,0.06704
4603.92,0.06586
4598.13,0.06430
4592.34,0.06418
4586.56,0.06402
4580.77,0.06208
4574.98,0.06183
4569.2,0.06331
4563.41,0.06143
4557.63,0.06116
4551.84,0.06090
4546.05,0.06078
4540.27,0.05968
4534.48,0.05857
4528.69,0.05811
4522.91,0.05847
4517.12,0.05719
4511.34,0.05749
4505.55,0.05716
4499.76,0.05679
4493.98,0.05617
4488.19,0.05535
4482.4,0.05546
4476.62,0.05473
4470.83,0.05434
4465.05,0.05457
4459.26,0.05413
4453.47,0.05300
4447.69,0.05307
4441.9,0.05244
4436.11,0.05326
4430.33,0.05356
4424.54,0.05369
4418.76,0.05380
4412.97,0.05294
4407.18,0.05392
4401.4,0.05318
4395.61,0.05360
4389.82,0.05341
4384.04,0.05332
4378.25,0.05350
4372.47,0.05430
4366.68,0.05382
4360.89,0.05406
4355.11,0.05509
4349.32,0.05426
4343.53,0.05438
4337.75,0.05458
4331.96,0.05472
4326.18,0.05468
4320.39,0.05475
4314.6,0.05469
4308.82,0.05537
4303.03,0.05410
4297.24,0.05508
4291.46,0.05440
4285.67,0.05453
4279.89,0.05395
4274.1,0.05410
4268.31,0.05457
4262.53,0.05466
4256.74,0.05505
4250.95,0.05455
4245.17,0.05434
4239.38,0.05462
4233.6,0.05451
4227.81,0.05474
4222.02,0.05479
4216.24,0.05439
4210.45,0.05472
4204.66,0.05398
4198.88,0.05420
4193.09,0.05445
4187.31,0.05409
4181.52,0.05407
4175.73,0.05378
4169.95,0.05465
4164.16,0.05445
4158.37,0.05462
4152.59,0.05527
4146.8,0.05450
4141.02,0.05457
4135.23,0.05444
4129.44,0.05474
4123.66,0.05396
4117.87,0.05456
4112.09,0.05456
4106.3,0.05473
4100.51,0.05535
4094.73,0.05525
4088.94,0.05462
4083.15,0.05487
4077.37,0.05546
4071.58,0.05478
4065.8,0.05514
4060.01,0.05487
4054.22,0.05519
4048.44,0.05479
4042.65,0.05594
4036.86,0.05487
4031.08,0.05538
4025.29,0.05509
4019.51,0.05485
4013.72,0.05475
4007.93,0.05477
4002.15,0.05550
3996.36,0.05531
3990.57,0.05522
3984.79,0.05451
3979,0.05536
3973.22,0.05429
3967.43,0.05536
3961.64,0.05568
3955.86,0.05525
3950.07,0.05493
3944.28,0.05461
3938.5,0.05527
3932.71,0.05368
3926.93,0.05440
3921.14,0.05494
3915.35,0.05464
3909.57,0.05444
3903.78,0.05417
3897.99,0.05363
3892.21,0.05451
3886.42,0.05383
3880.64,0.05429
3874.85,0.05470
3869.06,0.05472
3863.28,0.05414
3857.49,0.05449
3851.7,0.05454
3845.92,0.05425
3840.13,0.05474
3834.35,0.05355
3828.56,0.05419
3822.77,0.05436
3816.99,0.05549
3811.2,0.05440
3805.41,0.05462
3799.63,0.05421
3793.84,0.05396
3788.06,0.05395
3782.27,0.05365
3776.48,0.05446
3770.7,0.05373
3764.91,0.05404
3759.12,0.05400
3753.34,0.05392
3747.55,0.05338
3741.77,0.05362
3735.98,0.05351
3730.19,0.05334
3724.41,0.05416
3718.62,0.05347
3712.83,0.05371
3707.05,0.05342
3701.26,0.05362
3695.48,0.05265
3689.69,0.05376
3683.9,0.05297
3678.12,0.05265
3672.33,0.05284
3666.54,0.05321
3660.76,0.05304
3654.97,0.05258
3649.19,0.05304
3643.4,0.05282
3637.61,0.05277
3631.83,0.05448
3626.04,0.05636
3620.25,0.05564
3614.47,0.05358
3608.68,0.05419
3602.9,0.05359
3597.11,0.05271
3591.32,0.05242
3585.54,0.05210
3579.75,0.05311
3573.97,0.05265
3568.18,0.05350
3562.39,0.05322
3556.61,0.05357
3550.82,0.05299
3545.03,0.05460
3539.25,0.05756
3533.46,0.06368
3527.68,0.06497
3521.89,0.05997
3516.1,0.05870
3510.32,0.05785
3504.53,0.05934
3498.74,0.06176
3492.96,0.06462
3487.17,0.06799
3481.39,0.07005
3475.6,0.07256
3469.81,0.07292
3464.03,0.07386
3458.24,0.07205
3452.45,0.07019
3446.67,0.06752
3440.88,0.06481
3435.1,0.06168
3429.31,0.05806
3423.52,0.05588
3417.74,0.05437
3411.95,0.05276
3406.16,0.05202
3400.38,0.05364
3394.59,0.05464
3388.81,0.05381
3383.02,0.05431
3377.23,0.05695
3371.45,0.05548
3365.66,0.05470
3359.87,0.05479
3354.09,0.05435
3348.3,0.05427
3342.52,0.05452
3336.73,0.05415
3330.94,0.05348
3325.16,0.05342
3319.37,0.05323
3313.58,0.05364
3307.8,0.05361
3302.01,0.05354
3296.23,0.05258
3290.44,0.05288
3284.65,0.05284
3278.87,0.05313
3273.08,0.05321
3267.29,0.05303
3261.51,0.05333
3255.72,0.05314
3249.94,0.05331
3244.15,0.05289
3238.36,0.05262
3232.58,0.05297
3226.79,0.05236
3221,0.05307
3215.22,0.05275
3209.43,0.05295
3203.65,0.05334
3197.86,0.05360
3192.07,0.05363
3186.29,0.05399
3180.5,0.05347
3174.71,0.05349
3168.93,0.05377
3163.14,0.05436
3157.36,0.05356
3151.57,0.05397
3145.78,0.05398
3140,0.05347
3134.21,0.05333
3128.42,0.05314
3122.64,0.05301
3116.85,0.05383
3111.07,0.05348
3105.28,0.05320
3099.49,0.05319
3093.71,0.05262
3087.92,0.05364
3082.14,0.05336
3076.35,0.05233
3070.56,0.05287
3064.78,0.05225
3058.99,0.05184
3053.2,0.05137
3047.42,0.05094
3041.63,0.04997
3035.85,0.04972
3030.06,0.04921
3024.27,0.04868
3018.49,0.04864
3012.7,0.04885
3006.91,0.04851
3001.13,0.04847
2995.34,0.04897
2989.56,0.04934
2983.77,0.05006
2977.98,0.04974
2972.2,0.04965
2966.41,0.04890
2960.62,0.04858
2954.84,0.04916
2949.05,0.05126
2943.27,0.05225
2937.48,0.05284
2931.69,0.05327
2925.91,0.05388
2920.12,0.05473
2914.33,0.05516
2908.55,0.05448
2902.76,0.05389
2896.98,0.05380
2891.19,0.05341
2885.4,0.05301
2879.62,0.05311
2873.83,0.05338
2868.04,0.05343
2862.26,0.05365
2856.47,0.05391
2850.69,0.05407
2844.9,0.05425
2839.11,0.05377
2833.33,0.05340
2827.54,0.05380
2821.75,0.05399
2815.97,0.05439
2810.18,0.05426
2804.4,0.05420
2798.61,0.05458
2792.82,0.05452
2787.04,0.05464
2781.25,0.05510
2775.46,0.05516
2769.68,0.05505
2763.89,0.05467
2758.11,0.05492
2752.32,0.05562
2746.53,0.05560
2740.75,0.05504
2734.96,0.05533
2729.17,0.05605
2723.39,0.05562
2717.6,0.05552
2711.82,0.05563
2706.03,0.05536
2700.24,0.05609
2694.46,0.05572
2688.67,0.05565
2682.88,0.05564
2677.1,0.05519
2671.31,0.05465
2665.53,0.05539
2659.74,0.05461
2653.95,0.05490
2648.17,0.05485
2642.38,0.05453
2636.59,0.05444
2630.81,0.05469
2625.02,0.05427
2619.24,0.05403
2613.45,0.05430
2607.66,0.05420
2601.88,0.05403
2596.09,0.05386
2590.3,0.05417
2584.52,0.05401
2578.73,0.05428
2572.95,0.05382
2567.16,0.05374
2561.37,0.05404
2555.59,0.05402
2549.8,0.05351
2544.02,0.05350
2538.23,0.05364
2532.44,0.05376
2526.66,0.05376
2520.87,0.05377
2515.08,0.05386
2509.3,0.05389
2503.51,0.05354
2497.73,0.05399
2491.94,0.05401
2486.15,0.05370
2480.37,0.05376
2474.58,0.05380
2468.79,0.05387
2463.01,0.05374
2457.22,0.05314
2451.44,0.05334
2445.65,0.05354
2439.86,0.05335
2434.08,0.05317
2428.29,0.05251
2422.5,0.05290
2416.72,0.05303
2410.93,0.05288
2405.15,0.05283
2399.36,0.05264
2393.57,0.05249
2387.79,0.05279
2382,0.05244
2376.21,0.05262
2370.43,0.05264
2364.64,0.05211
2358.86,0.05266
2353.07,0.05249
2347.28,0.05220
2341.5,0.05285
2335.71,0.05229
2329.92,0.05247
2324.14,0.05194
2318.35,0.05203
2312.57,0.05214
2306.78,0.05182
2300.99,0.05193
2295.21,0.05213
2289.42,0.05193
2283.63,0.05172
2277.85,0.05170
2272.06,0.05191
2266.28,0.05170
2260.49,0.05192
2254.7,0.05168
2248.92,0.05127
2243.13,0.05147
2237.34,0.05142
2231.56,0.05111
2225.77,0.05126
2219.99,0.05137
2214.2,0.05118
2208.41,0.05105
2202.63,0.05133
2196.84,0.05112
2191.05,0.05080
2185.27,0.05048
2179.48,0.05073
2173.7,0.05059
2167.91,0.05040
2162.12,0.05013
2156.34,0.05019
2150.55,0.05048
2144.76,0.05021
2138.98,0.05019
2133.19,0.05024
2127.41,0.05020
2121.62,0.05014
2115.83,0.05006
2110.05,0.04984
2104.26,0.04973
2098.47,0.05016
2092.69,0.05024
2086.9,0.04965
2081.12,0.04960
2075.33,0.04969
2069.54,0.04970
2063.76,0.04969
2057.97,0.04967
2052.19,0.04939
2046.4,0.04958
2040.61,0.04966
2034.83,0.04923
2029.04,0.04937
2023.25,0.04962
2017.47,0.04901
2011.68,0.04910
2005.9,0.04935
2000.11,0.04905
1994.32,0.04911
1988.54,0.04897
1982.75,0.04887
1976.96,0.04891
1971.18,0.04890
1965.39,0.04908
1959.61,0.04900
1953.82,0.04902
1948.03,0.04871
1942.25,0.04888
1936.46,0.04860
1930.67,0.04884
1924.89,0.04868
1919.1,0.04862
1913.32,0.04826
1907.53,0.04832
1901.74,0.04823
1895.96,0.04823
1890.17,0.04750
1884.38,0.04768
1878.6,0.04730
1872.81,0.04761
1867.03,0.04751
1861.24,0.04713
1855.45,0.04667
1849.67,0.04619
1843.88,0.04616
1838.09,0.04631
1832.31,0.04608
1826.52,0.04568
1820.74,0.04524
1814.95,0.04522
1809.16,0.04418
1803.38,0.04395
1797.59,0.04339
1791.8,0.04269
1786.02,0.04193
1780.23,0.04066
1774.45,0.03979
1768.66,0.03802
1762.87,0.03577
1757.09,0.03233
1751.3,0.02743
1745.51,0.02514
1739.73,0.03765
1733.94,0.05736
1728.16,0.07560
1722.37,0.08303
1716.58,0.07917
1710.8,0.07085
1705.01,0.06516
1699.22,0.06106
1693.44,0.05873
1687.65,0.05776
1681.87,0.05685
1676.08,0.05576
1670.29,0.05491
1664.51,0.05427
1658.72,0.05423
1652.93,0.05360
1647.15,0.05345
1641.36,0.05271
1635.58,0.05221
1629.79,0.05236
1624,0.05201
1618.22,0.05171
1612.43,0.05156
1606.64,0.05154
1600.86,0.05126
1595.07,0.05144
1589.29,0.05067
1583.5,0.05054
1577.71,0.05026
1571.93,0.04962
1566.14,0.04920
1560.35,0.04875
1554.57,0.04846
1548.78,0.04886
1543,0.04801
1537.21,0.04749
1531.42,0.04774
1525.64,0.04705
1519.85,0.04649
1514.07,0.04572
1508.28,0.04545
1502.49,0.04351
1496.71,0.04239
1490.92,0.04162
1485.13,0.04354
1479.35,0.04556
1473.56,0.04624
1467.78,0.04589
1461.99,0.04539
1456.2,0.04598
1450.42,0.04753
1444.63,0.05027
1438.84,0.05110
1433.06,0.05510
1427.27,0.05654
1421.49,0.05444
1415.7,0.05273
1409.91,0.05109
1404.13,0.04945
1398.34,0.04848
1392.55,0.04801
1386.77,0.04951
1380.98,0.05039
1375.2,0.05028
1369.41,0.04932
1363.62,0.04926
1357.84,0.04894
1352.05,0.04868
1346.26,0.04782
1340.48,0.04701
1334.69,0.04648
1328.91,0.04577
1323.12,0.04511
1317.33,0.04394
1311.55,0.04306
1305.76,0.04203
1299.97,0.04089
1294.19,0.03977
1288.4,0.03784
1282.62,0.03665
1276.83,0.03728
1271.04,0.04152
1265.26,0.04426
1259.47,0.04391
1253.68,0.04272
1247.9,0.04370
1242.11,0.04828
1236.33,0.05179
1230.54,0.05257
1224.75,0.04987
1218.97,0.04669
1213.18,0.04175
1207.39,0.03769
1201.61,0.03833
1195.82,0.04534
1190.04,0.05230
1184.25,0.05322
1178.46,0.05219
1172.68,0.05201
1166.89,0.05285
1161.1,0.05367
1155.32,0.05931
1149.53,0.07639
1143.75,0.08724
1137.96,0.08745
1132.17,0.08405
1126.39,0.08032
1120.6,0.07853
1114.81,0.07676
1109.03,0.07560
1103.24,0.07503
1097.46,0.07455
1091.67,0.07327
1085.88,0.07396
1080.1,0.07380
1074.31,0.07329
1068.52,0.07301
1062.74,0.07388
1056.95,0.07866
1051.17,0.08486
1045.38,0.08698
1039.59,0.08613
1033.81,0.08475
1028.02,0.08084
1022.24,0.07679
1016.45,0.07238
1010.66,0.06646
1004.88,0.06029
999.09,0.05759
993.304,0.05861
987.518,0.06032
981.731,0.06223
975.945,0.06253
970.159,0.06247
964.373,0.06350
958.586,0.06414
952.8,0.06391
947.014,0.06372
941.228,0.06345
935.441,0.06276
929.655,0.06214
923.869,0.06185
918.083,0.06092
912.297,0.06162
906.51,0.06250
900.724,0.06272
894.938,0.06362
889.152,0.06431
883.365,0.06521
877.579,0.06570
871.793,0.06639
866.007,0.06576
860.22,0.06467
854.434,0.06343
848.648,0.06326
842.862,0.06397
837.075,0.06731
831.289,0.06850
825.503,0.06813
819.717,0.07069
813.931,0.07158
808.144,0.07211
802.358,0.07331
796.572,0.07373
790.786,0.07259
784.999,0.06983
779.213,0.06785
773.427,0.06659
767.641,0.06537
761.854,0.06283
756.068,0.06096
750.282,0.06457
744.496,0.06955
738.709,0.07043
732.923,0.06893
727.137,0.06853
721.351,0.06729
715.565,0.06618
709.778,0.06467
703.992,0.06505
698.206,0.06541
692.42,0.06338
686.633,0.06500
680.847,0.06615
675.061,0.06773
669.275,0.06789
663.488,0.06725
657.702,0.06608
651.916,0.06479
646.13,0.06442
640.343,0.06448
634.557,0.06367
628.771,0.06502
622.985,0.06608
617.198,0.06771
611.412,0.06682
605.626,0.07032
599.84,0.07224