File: 01_Data/Corian_Countertop/FTIR/IS/Corian_Countertop_IS_S_221003_R4.dpt
7497.03,0.38424
7491.25,0.37722
7485.46,0.37671
7479.67,0.36739
7473.89,0.35853
7468.1,0.36366
7462.32,0.34907
7456.53,0.35377
7450.74,0.35078
7444.96,0.34153
7439.17,0.33642
7433.38,0.34203
7427.6,0.34097
7421.81,0.33793
7416.03,0.33610
7410.24,0.33713
7404.45,0.32923
7398.67,0.33154
7392.88,0.33465
7387.09,0.33262
7381.31,0.33606
7375.52,0.32048
7369.74,0.32363
7363.95,0.33311
7358.16,0.33886
7352.38,0.32362
7346.59,0.31623
7340.8,0.32294
7335.02,0.31680
7329.23,0.31485
7323.45,0.31317
7317.66,0.31476
7311.87,0.31410
7306.09,0.30296
7300.3,0.29949
7294.51,0.30119
7288.73,0.29644
7282.94,0.29851
7277.16,0.29313
7271.37,0.29021
7265.58,0.28893
7259.8,0.29446
7254.01,0.28896
7248.22,0.28034
7242.44,0.27300
7236.65,0.26758
7230.87,0.27723
7225.08,0.27686
7219.29,0.26586
7213.51,0.26363
7207.72,0.25607
7201.93,0.25598
7196.15,0.24655
7190.36,0.23837
7184.58,0.23151
7178.79,0.21764
7173,0.20571
7167.22,0.18779
7161.43,0.16293
7155.65,0.13651
7149.86,0.12925
7144.07,0.13541
7138.29,0.16504
7132.5,0.18262
7126.71,0.18830
7120.93,0.19273
7115.14,0.18945
7109.36,0.18801
7103.57,0.18379
7097.78,0.18146
7092,0.16484
7086.21,0.15989
7080.42,0.14795
7074.64,0.14147
7068.85,0.12655
7063.07,0.11047
7057.28,0.11000
7051.49,0.11072
7045.71,0.10491
7039.92,0.10830
7034.13,0.11306
7028.35,0.13374
7022.56,0.15128
7016.78,0.15652
7010.99,0.15604
7005.2,0.14982
6999.42,0.14557
6993.63,0.13312
6987.84,0.12770
6982.06,0.11626
6976.27,0.11803
6970.49,0.11481
6964.7,0.10526
6958.91,0.10118
6953.13,0.10124
6947.34,0.10340
6941.55,0.11191
6935.77,0.11934
6929.98,0.11806
6924.2,0.11475
6918.41,0.10598
6912.62,0.10294
6906.84,0.09655
6901.05,0.09194
6895.26,0.09063
6889.48,0.08660
6883.69,0.09544
6877.91,0.10757
6872.12,0.12266
6866.33,0.13066
6860.55,0.12142
6854.76,0.10669
6848.97,0.09842
6843.19,0.09128
6837.4,0.09662
6831.62,0.11042
6825.83,0.11563
6820.04,0.12863
6814.26,0.14075
6808.47,0.14928
6802.68,0.16395
6796.9,0.16153
6791.11,0.16770
6785.33,0.17484
6779.54,0.17255
6773.75,0.18326
6767.97,0.18320
6762.18,0.19305
6756.39,0.18915
6750.61,0.19269
6744.82,0.19011
6739.04,0.19597
6733.25,0.20534
6727.46,0.20500
6721.68,0.20759
6715.89,0.20955
6710.1,0.21304
6704.32,0.20984
6698.53,0.20376
6692.75,0.20512
6686.96,0.20705
6681.17,0.20478
6675.39,0.20096
6669.6,0.20068
6663.82,0.19476
6658.03,0.19590
6652.24,0.19143
6646.46,0.18994
6640.67,0.18357
6634.88,0.18232
6629.1,0.17570
6623.31,0.17203
6617.53,0.16378
6611.74,0.15772
6605.95,0.15059
6600.17,0.14632
6594.38,0.14205
6588.59,0.13937
6582.81,0.14015
6577.02,0.14301
6571.24,0.14482
6565.45,0.15263
6559.66,0.15718
6553.88,0.15579
6548.09,0.15987
6542.3,0.16122
6536.52,0.16363
6530.73,0.16101
6524.95,0.15733
6519.16,0.16213
6513.37,0.15646
6507.59,0.15615
6501.8,0.15245
6496.01,0.15204
6490.23,0.15016
6484.44,0.14494
6478.66,0.14683
6472.87,0.13255
6467.08,0.13609
6461.3,0.13229
6455.51,0.13275
6449.72,0.13207
6443.94,0.13431
6438.15,0.13476
6432.37,0.14240
6426.58,0.14269
6420.79,0.15023
6415.01,0.15123
6409.22,0.15338
6403.43,0.16214
6397.65,0.16700
6391.86,0.17120
6386.08,0.17491
6380.29,0.18320
6374.5,0.18516
6368.72,0.18499
6362.93,0.18899
6357.14,0.19337
6351.36,0.19214
6345.57,0.19400
6339.79,0.19495
6334,0.19365
6328.21,0.19672
6322.43,0.20382
6316.64,0.20410
6310.85,0.20257
6305.07,0.20658
6299.28,0.20962
6293.5,0.21025
6287.71,0.21036
6281.92,0.21060
6276.14,0.21765
6270.35,0.21921
6264.56,0.22189
6258.78,0.22487
6252.99,0.22839
6247.21,0.22857
6241.42,0.22974
6235.63,0.23437
6229.85,0.23635
6224.06,0.23658
6218.27,0.24004
6212.49,0.24225
6206.7,0.24136
6200.92,0.24550
6195.13,0.24272
6189.34,0.24785
6183.56,0.24311
6177.77,0.24262
6171.98,0.24306
6166.2,0.24477
6160.41,0.24602
6154.63,0.24800
6148.84,0.25117
6143.05,0.25068
6137.27,0.25360
6131.48,0.25285
6125.7,0.25143
6119.91,0.25426
6114.12,0.25072
6108.34,0.25005
6102.55,0.25301
6096.76,0.25142
6090.98,0.24877
6085.19,0.24768
6079.41,0.24496
6073.62,0.23938
6067.83,0.23719
6062.05,0.23308
6056.26,0.22415
6050.47,0.21807
6044.69,0.20964
6038.9,0.20088
6033.12,0.19452
6027.33,0.18345
6021.54,0.17584
6015.76,0.16972
6009.97,0.16337
6004.18,0.16187
5998.4,0.15833
5992.61,0.15565
5986.83,0.15366
5981.04,0.14986
5975.25,0.14430
5969.47,0.14010
5963.68,0.13392
5957.89,0.13039
5952.11,0.13355
5946.32,0.13082
5940.54,0.13471
5934.75,0.13983
5928.96,0.14400
5923.18,0.14754
5917.39,0.15215
5911.6,0.15419
5905.82,0.15568
5900.03,0.15398
5894.25,0.15065
5888.46,0.14990
5882.67,0.14866
5876.89,0.14552
5871.1,0.14824
5865.31,0.14590
5859.53,0.14935
5853.74,0.15244
5847.96,0.15314
5842.17,0.15335
5836.38,0.15160
5830.6,0.15152
5824.81,0.15131
5819.02,0.15143
5813.24,0.15160
5807.45,0.15066
5801.67,0.15183
5795.88,0.15473
5790.09,0.15396
5784.31,0.15596
5778.52,0.15683
5772.73,0.15820
5766.95,0.15869
5761.16,0.16243
5755.38,0.16414
5749.59,0.16389
5743.8,0.17077
5738.02,0.17299
5732.23,0.17628
5726.44,0.17316
5720.66,0.17741
5714.87,0.18108
5709.09,0.17966
5703.3,0.18525
5697.51,0.18720
5691.73,0.18947
5685.94,0.19110
5680.15,0.19119
5674.37,0.19258
5668.58,0.19251
5662.8,0.19359
5657.01,0.19731
5651.22,0.19414
5645.44,0.19091
5639.65,0.18963
5633.87,0.18758
5628.08,0.18560
5622.29,0.18340
5616.51,0.17858
5610.72,0.17799
5604.93,0.17644
5599.15,0.17685
5593.36,0.17545
5587.58,0.17583
5581.79,0.17638
5576,0.17854
5570.22,0.17955
5564.43,0.17887
5558.64,0.18069
5552.86,0.18245
5547.07,0.18401
5541.29,0.18381
5535.5,0.18363
5529.71,0.18375
5523.93,0.18563
5518.14,0.18354
5512.35,0.17912
5506.57,0.17988
5500.78,0.17544
5495,0.17445
5489.21,0.17339
5483.42,0.17106
5477.64,0.17106
5471.85,0.17141
5466.06,0.17002
5460.28,0.16981
5454.49,0.16865
5448.71,0.17053
5442.92,0.16970
5437.13,0.17016
5431.35,0.16724
5425.56,0.16592
5419.77,0.16413
5413.99,0.16434
5408.2,0.16278
5402.42,0.16015
5396.63,0.15792
5390.84,0.15773
5385.06,0.15638
5379.27,0.15836
5373.48,0.15828
5367.7,0.15971
5361.91,0.16177
5356.13,0.15956
5350.34,0.15894
5344.55,0.15956
5338.77,0.15906
5332.98,0.15791
5327.19,0.15496
5321.41,0.15220
5315.62,0.15125
5309.84,0.14954
5304.05,0.14520
5298.26,0.14347
5292.48,0.13905
5286.69,0.13457
5280.9,0.13047
5275.12,0.12726
5269.33,0.12449
5263.55,0.12155
5257.76,0.11735
5251.97,0.11559
5246.19,0.11497
5240.4,0.11495
5234.61,0.11481
5228.83,0.11738
5223.04,0.11898
5217.26,0.12169
5211.47,0.12380
5205.68,0.12561
5199.9,0.12631
5194.11,0.12705
5188.32,0.12918
5182.54,0.12994
5176.75,0.12966
5170.97,0.12886
5165.18,0.12864
5159.39,0.12797
5153.61,0.12601
5147.82,0.12418
5142.03,0.12300
5136.25,0.12290
5130.46,0.12213
5124.68,0.12173
5118.89,0.12208
5113.1,0.12257
5107.32,0.12278
5101.53,0.12511
5095.75,0.12553
5089.96,0.12457
5084.17,0.12607
5078.39,0.12688
5072.6,0.12561
5066.81,0.12625
5061.03,0.12570
5055.24,0.12621
5049.46,0.12640
5043.67,0.12411
5037.88,0.12407
5032.1,0.12245
5026.31,0.12196
5020.52,0.12005
5014.74,0.12121
5008.95,0.11992
5003.17,0.11877
4997.38,0.11884
4991.59,0.11799
4985.81,0.11721
4980.02,0.11699
4974.23,0.11623
4968.45,0.11338
4962.66,0.11279
4956.88,0.11344
4951.09,0.11223
4945.3,0.11261
4939.52,0.11144
4933.73,0.11099
4927.94,0.10911
4922.16,0.10912
4916.37,0.10843
4910.59,0.10811
4904.8,0.10748
4899.01,0.10721
4893.23,0.10609
4887.44,0.10537
4881.65,0.10495
4875.87,0.10532
4870.08,0.10392
4864.3,0.10341
4858.51,0.10368
4852.72,0.10310
4846.94,0.10117
4841.15,0.10050
4835.36,0.10122
4829.58,0.10092
4823.79,0.09982
4818.01,0.09800
4812.22,0.09835
4806.43,0.09741
4800.65,0.09753
4794.86,0.09614
4789.07,0.09512
4783.29,0.09317
4777.5,0.09328
4771.72,0.09220
4765.93,0.09018
4760.14,0.08957
4754.36,0.08769
4748.57,0.08536
4742.78,0.08502
4737,0.08360
4731.21,0.08384
4725.43,0.08246
4719.64,0.08202
4713.85,0.07985
4708.07,0.07990
4702.28,0.07846
4696.49,0.07642
4690.71,0.07420
4684.92,0.07398
4679.14,0.07461
4673.35,0.07387
4667.56,0.07463
4661.78,0.07488
4655.99,0.07461
4650.2,0.07406
4644.42,0.07289
4638.63,0.07112
4632.85,0.06996
4627.06,0.06976
4621.27,0.06965
4615.49,0.06838
4609.7,0.06804
4603.92,0.06640
4598.13,0.06473
4592.34,0.06435
4586.56,0.06377
4580.77,0.06267
4574.98,0.06243
4569.2,0.06240
4563.41,0.06304
4557.63,0.06243
4551.84,0.06167
4546.05,0.06006
4540.27,0.05842
4534.48,0.05885
4528.69,0.05833
4522.91,0.05816
4517.12,0.05806
4511.34,0.05725
4505.55,0.05680
4499.76,0.05625
4493.98,0.05644
4488.19,0.05598
4482.4,0.05578
4476.62,0.05501
4470.83,0.05424
4465.05,0.05481
4459.26,0.05464
4453.47,0.05385
4447.69,0.05378
4441.9,0.05370
4436.11,0.05287
4430.33,0.05365
4424.54,0.05343
4418.76,0.05420
4412.97,0.05330
4407.18,0.05330
4401.4,0.05409
4395.61,0.05359
4389.82,0.05359
4384.04,0.05318
4378.25,0.05356
4372.47,0.05413
4366.68,0.05418
4360.89,0.05434
4355.11,0.05420
4349.32,0.05417
4343.53,0.05434
4337.75,0.05504
4331.96,0.05418
4326.18,0.05502
4320.39,0.05457
4314.6,0.05448
4308.82,0.05469
4303.03,0.05491
4297.24,0.05523
4291.46,0.05455
4285.67,0.05542
4279.89,0.05566
4274.1,0.05494
4268.31,0.05498
4262.53,0.05507
4256.74,0.05405
4250.95,0.05483
4245.17,0.05475
4239.38,0.05484
4233.6,0.05393
4227.81,0.05395
4222.02,0.05450
4216.24,0.05387
4210.45,0.05340
4204.66,0.05372
4198.88,0.05425
4193.09,0.05399
4187.31,0.05444
4181.52,0.05450
4175.73,0.05384
4169.95,0.05499
4164.16,0.05443
4158.37,0.05439
4152.59,0.05421
4146.8,0.05424
4141.02,0.05447
4135.23,0.05452
4129.44,0.05484
4123.66,0.05451
4117.87,0.05476
4112.09,0.05474
4106.3,0.05468
4100.51,0.05455
4094.73,0.05451
4088.94,0.05484
4083.15,0.05577
4077.37,0.05538
4071.58,0.05511
4065.8,0.05510
4060.01,0.05515
4054.22,0.05495
4048.44,0.05551
4042.65,0.05589
4036.86,0.05539
4031.08,0.05469
4025.29,0.05517
4019.51,0.05477
4013.72,0.05512
4007.93,0.05512
4002.15,0.05460
3996.36,0.05508
3990.57,0.05475
3984.79,0.05489
3979,0.05496
3973.22,0.05453
3967.43,0.05488
3961.64,0.05484
3955.86,0.05521
3950.07,0.05482
3944.28,0.05484
3938.5,0.05465
3932.71,0.05450
3926.93,0.05447
3921.14,0.05486
3915.35,0.05445
3909.57,0.05409
3903.78,0.05343
3897.99,0.05425
3892.21,0.05496
3886.42,0.05364
3880.64,0.05490
3874.85,0.05432
3869.06,0.05341
3863.28,0.05436
3857.49,0.05430
3851.7,0.05403
3845.92,0.05419
3840.13,0.05424
3834.35,0.05412
3828.56,0.05401
3822.77,0.05453
3816.99,0.05386
3811.2,0.05449
3805.41,0.05535
3799.63,0.05403
3793.84,0.05490
3788.06,0.05410
3782.27,0.05411
3776.48,0.05383
3770.7,0.05358
3764.91,0.05392
3759.12,0.05436
3753.34,0.05370
3747.55,0.05336
3741.77,0.05293
3735.98,0.05374
3730.19,0.05379
3724.41,0.05366
3718.62,0.05383
3712.83,0.05345
3707.05,0.05328
3701.26,0.05283
3695.48,0.05315
3689.69,0.05334
3683.9,0.05309
3678.12,0.05329
3672.33,0.05265
3666.54,0.05316
3660.76,0.05251
3654.97,0.05264
3649.19,0.05242
3643.4,0.05273
3637.61,0.05295
3631.83,0.05372
3626.04,0.05628
3620.25,0.05620
3614.47,0.05415
3608.68,0.05400
3602.9,0.05340
3597.11,0.05282
3591.32,0.05308
3585.54,0.05287
3579.75,0.05290
3573.97,0.05294
3568.18,0.05306
3562.39,0.05339
3556.61,0.05377
3550.82,0.05377
3545.03,0.05502
3539.25,0.05812
3533.46,0.06346
3527.68,0.06481
3521.89,0.05951
3516.1,0.05812
3510.32,0.05794
3504.53,0.05876
3498.74,0.06141
3492.96,0.06390
3487.17,0.06734
3481.39,0.07005
3475.6,0.07231
3469.81,0.07325
3464.03,0.07312
3458.24,0.07219
3452.45,0.07076
3446.67,0.06748
3440.88,0.06506
3435.1,0.06160
3429.31,0.05818
3423.52,0.05593
3417.74,0.05432
3411.95,0.05375
3406.16,0.05220
3400.38,0.05391
3394.59,0.05525
3388.81,0.05459
3383.02,0.05523
3377.23,0.05632
3371.45,0.05595
3365.66,0.05517
3359.87,0.05465
3354.09,0.05390
3348.3,0.05467
3342.52,0.05473
3336.73,0.05382
3330.94,0.05394
3325.16,0.05400
3319.37,0.05350
3313.58,0.05351
3307.8,0.05357
3302.01,0.05315
3296.23,0.05343
3290.44,0.05357
3284.65,0.05346
3278.87,0.05286
3273.08,0.05279
3267.29,0.05249
3261.51,0.05338
3255.72,0.05309
3249.94,0.05334
3244.15,0.05339
3238.36,0.05289
3232.58,0.05329
3226.79,0.05356
3221,0.05237
3215.22,0.05324
3209.43,0.05291
3203.65,0.05301
3197.86,0.05405
3192.07,0.05342
3186.29,0.05372
3180.5,0.05329
3174.71,0.05363
3168.93,0.05345
3163.14,0.05360
3157.36,0.05386
3151.57,0.05388
3145.78,0.05429
3140,0.05357
3134.21,0.05327
3128.42,0.05287
3122.64,0.05362
3116.85,0.05321
3111.07,0.05344
3105.28,0.05340
3099.49,0.05344
3093.71,0.05283
3087.92,0.05270
3082.14,0.05336
3076.35,0.05314
3070.56,0.05229
3064.78,0.05226
3058.99,0.05211
3053.2,0.05158
3047.42,0.05084
3041.63,0.05028
3035.85,0.04974
3030.06,0.04938
3024.27,0.04927
3018.49,0.04859
3012.7,0.04845
3006.91,0.04823
3001.13,0.04842
2995.34,0.04900
2989.56,0.04974
2983.77,0.05011
2977.98,0.04994
2972.2,0.04915
2966.41,0.04916
2960.62,0.04836
2954.84,0.04893
2949.05,0.05117
2943.27,0.05223
2937.48,0.05304
2931.69,0.05291
2925.91,0.05416
2920.12,0.05465
2914.33,0.05445
2908.55,0.05370
2902.76,0.05369
2896.98,0.05360
2891.19,0.05341
2885.4,0.05364
2879.62,0.05359
2873.83,0.05333
2868.04,0.05331
2862.26,0.05319
2856.47,0.05367
2850.69,0.05395
2844.9,0.05383
2839.11,0.05357
2833.33,0.05400
2827.54,0.05356
2821.75,0.05417
2815.97,0.05447
2810.18,0.05443
2804.4,0.05457
2798.61,0.05462
2792.82,0.05515
2787.04,0.05495
2781.25,0.05517
2775.46,0.05474
2769.68,0.05497
2763.89,0.05477
2758.11,0.05544
2752.32,0.05478
2746.53,0.05521
2740.75,0.05522
2734.96,0.05552
2729.17,0.05582
2723.39,0.05586
2717.6,0.05560
2711.82,0.05599
2706.03,0.05585
2700.24,0.05573
2694.46,0.05599
2688.67,0.05569
2682.88,0.05565
2677.1,0.05597
2671.31,0.05519
2665.53,0.05507
2659.74,0.05481
2653.95,0.05493
2648.17,0.05480
2642.38,0.05472
2636.59,0.05447
2630.81,0.05462
2625.02,0.05412
2619.24,0.05424
2613.45,0.05484
2607.66,0.05408
2601.88,0.05426
2596.09,0.05405
2590.3,0.05392
2584.52,0.05432
2578.73,0.05436
2572.95,0.05401
2567.16,0.05431
2561.37,0.05429
2555.59,0.05404
2549.8,0.05374
2544.02,0.05372
2538.23,0.05409
2532.44,0.05379
2526.66,0.05414
2520.87,0.05447
2515.08,0.05397
2509.3,0.05394
2503.51,0.05414
2497.73,0.05443
2491.94,0.05373
2486.15,0.05397
2480.37,0.05398
2474.58,0.05417
2468.79,0.05362
2463.01,0.05366
2457.22,0.05389
2451.44,0.05386
2445.65,0.05314
2439.86,0.05325
2434.08,0.05314
2428.29,0.05339
2422.5,0.05309
2416.72,0.05319
2410.93,0.05322
2405.15,0.05307
2399.36,0.05277
2393.57,0.05294
2387.79,0.05271
2382,0.05256
2376.21,0.05279
2370.43,0.05284
2364.64,0.05271
2358.86,0.05260
2353.07,0.05264
2347.28,0.05209
2341.5,0.05237
2335.71,0.05249
2329.92,0.05224
2324.14,0.05253
2318.35,0.05217
2312.57,0.05210
2306.78,0.05220
2300.99,0.05206
2295.21,0.05187
2289.42,0.05208
2283.63,0.05188
2277.85,0.05206
2272.06,0.05195
2266.28,0.05169
2260.49,0.05200
2254.7,0.05179
2248.92,0.05149
2243.13,0.05160
2237.34,0.05136
2231.56,0.05148
2225.77,0.05135
2219.99,0.05111
2214.2,0.05126
2208.41,0.05138
2202.63,0.05090
2196.84,0.05070
2191.05,0.05087
2185.27,0.05103
2179.48,0.05060
2173.7,0.05050
2167.91,0.05015
2162.12,0.05047
2156.34,0.05014
2150.55,0.05017
2144.76,0.05035
2138.98,0.05032
2133.19,0.05027
2127.41,0.05024
2121.62,0.05006
2115.83,0.05008
2110.05,0.04999
2104.26,0.05021
2098.47,0.04966
2092.69,0.04997
2086.9,0.04971
2081.12,0.04990
2075.33,0.04960
2069.54,0.05003
2063.76,0.04979
2057.97,0.04993
2052.19,0.04950
2046.4,0.04901
2040.61,0.04979
2034.83,0.04934
2029.04,0.04960
2023.25,0.04933
2017.47,0.04945
2011.68,0.04927
2005.9,0.04914
2000.11,0.04904
1994.32,0.04911
1988.54,0.04890
1982.75,0.04924
1976.96,0.04903
1971.18,0.04921
1965.39,0.04891
1959.61,0.04922
1953.82,0.04895
1948.03,0.04896
1942.25,0.04880
1936.46,0.04867
1930.67,0.04868
1924.89,0.04860
1919.1,0.04852
1913.32,0.04845
1907.53,0.04807
1901.74,0.04794
1895.96,0.04801
1890.17,0.04795
1884.38,0.04781
1878.6,0.04769
1872.81,0.04739
1867.03,0.04756
1861.24,0.04740
1855.45,0.04680
1849.67,0.04664
1843.88,0.04672
1838.09,0.04622
1832.31,0.04576
1826.52,0.04561
1820.74,0.04541
1814.95,0.04487
1809.16,0.04452
1803.38,0.04404
1797.59,0.04316
1791.8,0.04264
1786.02,0.04211
1780.23,0.04105
1774.45,0.03938
1768.66,0.03814
1762.87,0.03604
1757.09,0.03229
1751.3,0.02721
1745.51,0.02554
1739.73,0.03759
1733.94,0.05712
1728.16,0.07577
1722.37,0.08283
1716.58,0.07820
1710.8,0.07114
1705.01,0.06502
1699.22,0.06095
1693.44,0.05851
1687.65,0.05797
1681.87,0.05685
1676.08,0.05623
1670.29,0.05551
1664.51,0.05445
1658.72,0.05428
1652.93,0.05333
1647.15,0.05319
1641.36,0.05282
1635.58,0.05240
1629.79,0.05230
1624,0.05225
1618.22,0.05233
1612.43,0.05161
1606.64,0.05164
1600.86,0.05153
1595.07,0.05143
1589.29,0.05066
1583.5,0.05069
1577.71,0.05011
1571.93,0.04996
1566.14,0.04953
1560.35,0.04932
1554.57,0.04860
1548.78,0.04858
1543,0.04859
1537.21,0.04785
1531.42,0.04743
1525.64,0.04703
1519.85,0.04631
1514.07,0.04585
1508.28,0.04553
1502.49,0.04382
1496.71,0.04228
1490.92,0.04164
1485.13,0.04359
1479.35,0.04529
1473.56,0.04599
1467.78,0.04597
1461.99,0.04571
1456.2,0.04577
1450.42,0.04760
1444.63,0.05045
1438.84,0.05138
1433.06,0.05522
1427.27,0.05692
1421.49,0.05494
1415.7,0.05210
1409.91,0.05061
1404.13,0.04967
1398.34,0.04857
1392.55,0.04840
1386.77,0.04937
1380.98,0.05060
1375.2,0.05014
1369.41,0.04975
1363.62,0.04939
1357.84,0.04948
1352.05,0.04865
1346.26,0.04797
1340.48,0.04725
1334.69,0.04657
1328.91,0.04629
1323.12,0.04514
1317.33,0.04431
1311.55,0.04353
1305.76,0.04252
1299.97,0.04134
1294.19,0.04001
1288.4,0.03822
1282.62,0.03707
1276.83,0.03759
1271.04,0.04126
1265.26,0.04475
1259.47,0.04417
1253.68,0.04304
1247.9,0.04385
1242.11,0.04802
1236.33,0.05162
1230.54,0.05238
1224.75,0.05040
1218.97,0.04657
1213.18,0.04191
1207.39,0.03769
1201.61,0.03872
1195.82,0.04538
1190.04,0.05235
1184.25,0.05354
1178.46,0.05218
1172.68,0.05215
1166.89,0.05260
1161.1,0.05362
1155.32,0.05958
1149.53,0.07576
1143.75,0.08709
1137.96,0.08720
1132.17,0.08343
1126.39,0.08008
1120.6,0.07757
1114.81,0.07636
1109.03,0.07571
1103.24,0.07500
1097.46,0.07388
1091.67,0.07341
1085.88,0.07385
1080.1,0.07373
1074.31,0.07313
1068.52,0.07323
1062.74,0.07420
1056.95,0.07778
1051.17,0.08472
1045.38,0.08753
1039.59,0.08673
1033.81,0.08434
1028.02,0.08150
1022.24,0.07712
1016.45,0.07261
1010.66,0.06746
1004.88,0.06044
999.09,0.05717
993.304,0.05791
987.518,0.05977
981.731,0.06168
975.945,0.06260
970.159,0.06217
964.373,0.06352
958.586,0.06416
952.8,0.06415
947.014,0.06355
941.228,0.06368
935.441,0.06292
929.655,0.06266
923.869,0.06182
918.083,0.06158
912.297,0.06253
906.51,0.06202
900.724,0.06305
894.938,0.06358
889.152,0.06507
883.365,0.06527
877.579,0.06591
871.793,0.06602
866.007,0.06587
860.22,0.06504
854.434,0.06377
848.648,0.06256
842.862,0.06363
837.075,0.06713
831.289,0.06811
825.503,0.06780
819.717,0.07067
813.931,0.07129
808.144,0.07114
802.358,0.07304
796.572,0.07359
790.786,0.07305
784.999,0.06964
779.213,0.06835
773.427,0.06797
767.641,0.06503
761.854,0.06312
756.068,0.06127
750.282,0.06490
744.496,0.07010
738.709,0.07110
732.923,0.06895
727.137,0.06833
721.351,0.06646
715.565,0.06603
709.778,0.06476
703.992,0.06457
698.206,0.06404
692.42,0.06294
686.633,0.06462
680.847,0.06725
675.061,0.06836
669.275,0.06831
663.488,0.06743
657.702,0.06585
651.916,0.06469
646.13,0.06486
640.343,0.06412
634.557,0.06555
628.771,0.06791
622.985,0.06605
617.198,0.06859
611.412,0.06941
605.626,0.06951
599.84,0.07192