File: 01_Data/Corian_Countertop/FTIR/IS/Corian_Countertop_IS_S_221003_R6.dpt
7497.03,0.37666
7491.25,0.37812
7485.46,0.37091
7479.67,0.37326
7473.89,0.36493
7468.1,0.36592
7462.32,0.35655
7456.53,0.35673
7450.74,0.34398
7444.96,0.33881
7439.17,0.34384
7433.38,0.33559
7427.6,0.32904
7421.81,0.33785
7416.03,0.32673
7410.24,0.33176
7404.45,0.33706
7398.67,0.33725
7392.88,0.32863
7387.09,0.32544
7381.31,0.33296
7375.52,0.32448
7369.74,0.32228
7363.95,0.32675
7358.16,0.32771
7352.38,0.32810
7346.59,0.31708
7340.8,0.31922
7335.02,0.31799
7329.23,0.31294
7323.45,0.30407
7317.66,0.30726
7311.87,0.30875
7306.09,0.30433
7300.3,0.29947
7294.51,0.29950
7288.73,0.28447
7282.94,0.29567
7277.16,0.28981
7271.37,0.29591
7265.58,0.28510
7259.8,0.28449
7254.01,0.27643
7248.22,0.28044
7242.44,0.27244
7236.65,0.26430
7230.87,0.27219
7225.08,0.26800
7219.29,0.25839
7213.51,0.26784
7207.72,0.26114
7201.93,0.24785
7196.15,0.24496
7190.36,0.23530
7184.58,0.23021
7178.79,0.22014
7173,0.20399
7167.22,0.19173
7161.43,0.16169
7155.65,0.13882
7149.86,0.12250
7144.07,0.13292
7138.29,0.16187
7132.5,0.18008
7126.71,0.19107
7120.93,0.18609
7115.14,0.18312
7109.36,0.18491
7103.57,0.18174
7097.78,0.17915
7092,0.17451
7086.21,0.15584
7080.42,0.14900
7074.64,0.13905
7068.85,0.11702
7063.07,0.11228
7057.28,0.10564
7051.49,0.10759
7045.71,0.11415
7039.92,0.11159
7034.13,0.12005
7028.35,0.13078
7022.56,0.14729
7016.78,0.15074
7010.99,0.15131
7005.2,0.16141
6999.42,0.14057
6993.63,0.13601
6987.84,0.12648
6982.06,0.11547
6976.27,0.10865
6970.49,0.10650
6964.7,0.10976
6958.91,0.10435
6953.13,0.10252
6947.34,0.11131
6941.55,0.11353
6935.77,0.11499
6929.98,0.11579
6924.2,0.11570
6918.41,0.10501
6912.62,0.09874
6906.84,0.09127
6901.05,0.08973
6895.26,0.08902
6889.48,0.09660
6883.69,0.10263
6877.91,0.11095
6872.12,0.11792
6866.33,0.12131
6860.55,0.11908
6854.76,0.10848
6848.97,0.09430
6843.19,0.09399
6837.4,0.09297
6831.62,0.10411
6825.83,0.12622
6820.04,0.13453
6814.26,0.14084
6808.47,0.15077
6802.68,0.15209
6796.9,0.15869
6791.11,0.16689
6785.33,0.17597
6779.54,0.17639
6773.75,0.17899
6767.97,0.18752
6762.18,0.18656
6756.39,0.19217
6750.61,0.19354
6744.82,0.19380
6739.04,0.19575
6733.25,0.19848
6727.46,0.20008
6721.68,0.20159
6715.89,0.20911
6710.1,0.20397
6704.32,0.20948
6698.53,0.20552
6692.75,0.20467
6686.96,0.20891
6681.17,0.20301
6675.39,0.19526
6669.6,0.19944
6663.82,0.19472
6658.03,0.19439
6652.24,0.18818
6646.46,0.18585
6640.67,0.18554
6634.88,0.17944
6629.1,0.17194
6623.31,0.17384
6617.53,0.16163
6611.74,0.15776
6605.95,0.15989
6600.17,0.14738
6594.38,0.14159
6588.59,0.14288
6582.81,0.13501
6577.02,0.13963
6571.24,0.14572
6565.45,0.15206
6559.66,0.15387
6553.88,0.15987
6548.09,0.16083
6542.3,0.15993
6536.52,0.15756
6530.73,0.15780
6524.95,0.15801
6519.16,0.15778
6513.37,0.15607
6507.59,0.15500
6501.8,0.15463
6496.01,0.15023
6490.23,0.14760
6484.44,0.14392
6478.66,0.14115
6472.87,0.14028
6467.08,0.13244
6461.3,0.13014
6455.51,0.13259
6449.72,0.13042
6443.94,0.12761
6438.15,0.13691
6432.37,0.13517
6426.58,0.14100
6420.79,0.14524
6415.01,0.15418
6409.22,0.15951
6403.43,0.16157
6397.65,0.16970
6391.86,0.17447
6386.08,0.17785
6380.29,0.18115
6374.5,0.17903
6368.72,0.18294
6362.93,0.18792
6357.14,0.19074
6351.36,0.19121
6345.57,0.19316
6339.79,0.19143
6334,0.19560
6328.21,0.19688
6322.43,0.19850
6316.64,0.20261
6310.85,0.20226
6305.07,0.20408
6299.28,0.20623
6293.5,0.20888
6287.71,0.20822
6281.92,0.20990
6276.14,0.21554
6270.35,0.21782
6264.56,0.22096
6258.78,0.22537
6252.99,0.22477
6247.21,0.23156
6241.42,0.23262
6235.63,0.23694
6229.85,0.23451
6224.06,0.23734
6218.27,0.23761
6212.49,0.24031
6206.7,0.24329
6200.92,0.23917
6195.13,0.24338
6189.34,0.24341
6183.56,0.24346
6177.77,0.23982
6171.98,0.24339
6166.2,0.24500
6160.41,0.24484
6154.63,0.24577
6148.84,0.24882
6143.05,0.24746
6137.27,0.25095
6131.48,0.25008
6125.7,0.25007
6119.91,0.24956
6114.12,0.25415
6108.34,0.24903
6102.55,0.24911
6096.76,0.24922
6090.98,0.24876
6085.19,0.24453
6079.41,0.24429
6073.62,0.24072
6067.83,0.23582
6062.05,0.23129
6056.26,0.22486
6050.47,0.21594
6044.69,0.20911
6038.9,0.19892
6033.12,0.19108
6027.33,0.18262
6021.54,0.17901
6015.76,0.16926
6009.97,0.16707
6004.18,0.16039
5998.4,0.15507
5992.61,0.15510
5986.83,0.15099
5981.04,0.14949
5975.25,0.14496
5969.47,0.13971
5963.68,0.13572
5957.89,0.13134
5952.11,0.13030
5946.32,0.13018
5940.54,0.13626
5934.75,0.13767
5928.96,0.14304
5923.18,0.14597
5917.39,0.15079
5911.6,0.15231
5905.82,0.15389
5900.03,0.15106
5894.25,0.15078
5888.46,0.14814
5882.67,0.14858
5876.89,0.14723
5871.1,0.14996
5865.31,0.14938
5859.53,0.14996
5853.74,0.14959
5847.96,0.15040
5842.17,0.15044
5836.38,0.14953
5830.6,0.15163
5824.81,0.14966
5819.02,0.15009
5813.24,0.15098
5807.45,0.15245
5801.67,0.15042
5795.88,0.15013
5790.09,0.15104
5784.31,0.15715
5778.52,0.15473
5772.73,0.15665
5766.95,0.15775
5761.16,0.16048
5755.38,0.16139
5749.59,0.16520
5743.8,0.16610
5738.02,0.17011
5732.23,0.17173
5726.44,0.17201
5720.66,0.17803
5714.87,0.17713
5709.09,0.17997
5703.3,0.18257
5697.51,0.18539
5691.73,0.18635
5685.94,0.19062
5680.15,0.19030
5674.37,0.19186
5668.58,0.19299
5662.8,0.19311
5657.01,0.19310
5651.22,0.19302
5645.44,0.19163
5639.65,0.18959
5633.87,0.18548
5628.08,0.18418
5622.29,0.17882
5616.51,0.17841
5610.72,0.17640
5604.93,0.17222
5599.15,0.17522
5593.36,0.17577
5587.58,0.17570
5581.79,0.17646
5576,0.17948
5570.22,0.17802
5564.43,0.17802
5558.64,0.18119
5552.86,0.18085
5547.07,0.18355
5541.29,0.18175
5535.5,0.18462
5529.71,0.18153
5523.93,0.18282
5518.14,0.17778
5512.35,0.17723
5506.57,0.17599
5500.78,0.17427
5495,0.17381
5489.21,0.17210
5483.42,0.17069
5477.64,0.16964
5471.85,0.16779
5466.06,0.16868
5460.28,0.16686
5454.49,0.16579
5448.71,0.16790
5442.92,0.16933
5437.13,0.16769
5431.35,0.16581
5425.56,0.16514
5419.77,0.16377
5413.99,0.16389
5408.2,0.16113
5402.42,0.15797
5396.63,0.15715
5390.84,0.15658
5385.06,0.15644
5379.27,0.15640
5373.48,0.15789
5367.7,0.15860
5361.91,0.15735
5356.13,0.15788
5350.34,0.15855
5344.55,0.15764
5338.77,0.15515
5332.98,0.15514
5327.19,0.15439
5321.41,0.15270
5315.62,0.15136
5309.84,0.14873
5304.05,0.14658
5298.26,0.14173
5292.48,0.13808
5286.69,0.13405
5280.9,0.12939
5275.12,0.12587
5269.33,0.12420
5263.55,0.12162
5257.76,0.12020
5251.97,0.11632
5246.19,0.11500
5240.4,0.11363
5234.61,0.11389
5228.83,0.11596
5223.04,0.11902
5217.26,0.12057
5211.47,0.12123
5205.68,0.12518
5199.9,0.12563
5194.11,0.12770
5188.32,0.12872
5182.54,0.12883
5176.75,0.12915
5170.97,0.12858
5165.18,0.12779
5159.39,0.12497
5153.61,0.12529
5147.82,0.12378
5142.03,0.12191
5136.25,0.12282
5130.46,0.12195
5124.68,0.11956
5118.89,0.12108
5113.1,0.12243
5107.32,0.12253
5101.53,0.12308
5095.75,0.12472
5089.96,0.12435
5084.17,0.12535
5078.39,0.12504
5072.6,0.12519
5066.81,0.12639
5061.03,0.12550
5055.24,0.12461
5049.46,0.12383
5043.67,0.12210
5037.88,0.12204
5032.1,0.12084
5026.31,0.12180
5020.52,0.12079
5014.74,0.12054
5008.95,0.11849
5003.17,0.11795
4997.38,0.11798
4991.59,0.11644
4985.81,0.11565
4980.02,0.11474
4974.23,0.11551
4968.45,0.11383
4962.66,0.11318
4956.88,0.11294
4951.09,0.11252
4945.3,0.11189
4939.52,0.11003
4933.73,0.10993
4927.94,0.10850
4922.16,0.10889
4916.37,0.10801
4910.59,0.10696
4904.8,0.10695
4899.01,0.10617
4893.23,0.10485
4887.44,0.10490
4881.65,0.10464
4875.87,0.10434
4870.08,0.10328
4864.3,0.10298
4858.51,0.10243
4852.72,0.10122
4846.94,0.10093
4841.15,0.10061
4835.36,0.10055
4829.58,0.09974
4823.79,0.09883
4818.01,0.09785
4812.22,0.09751
4806.43,0.09714
4800.65,0.09547
4794.86,0.09540
4789.07,0.09547
4783.29,0.09366
4777.5,0.09228
4771.72,0.09240
4765.93,0.08954
4760.14,0.08867
4754.36,0.08724
4748.57,0.08537
4742.78,0.08521
4737,0.08356
4731.21,0.08208
4725.43,0.08222
4719.64,0.08096
4713.85,0.08088
4708.07,0.07960
4702.28,0.07768
4696.49,0.07606
4690.71,0.07450
4684.92,0.07334
4679.14,0.07246
4673.35,0.07367
4667.56,0.07326
4661.78,0.07376
4655.99,0.07455
4650.2,0.07316
4644.42,0.07172
4638.63,0.07122
4632.85,0.06973
4627.06,0.06846
4621.27,0.06798
4615.49,0.06796
4609.7,0.06716
4603.92,0.06612
4598.13,0.06467
4592.34,0.06481
4586.56,0.06266
4580.77,0.06263
4574.98,0.06274
4569.2,0.06247
4563.41,0.06223
4557.63,0.06112
4551.84,0.06107
4546.05,0.06044
4540.27,0.06005
4534.48,0.05890
4528.69,0.05767
4522.91,0.05861
4517.12,0.05722
4511.34,0.05689
4505.55,0.05683
4499.76,0.05654
4493.98,0.05619
4488.19,0.05485
4482.4,0.05428
4476.62,0.05512
4470.83,0.05466
4465.05,0.05386
4459.26,0.05391
4453.47,0.05254
4447.69,0.05249
4441.9,0.05282
4436.11,0.05313
4430.33,0.05255
4424.54,0.05343
4418.76,0.05380
4412.97,0.05326
4407.18,0.05273
4401.4,0.05282
4395.61,0.05288
4389.82,0.05289
4384.04,0.05292
4378.25,0.05293
4372.47,0.05311
4366.68,0.05453
4360.89,0.05445
4355.11,0.05406
4349.32,0.05338
4343.53,0.05410
4337.75,0.05403
4331.96,0.05424
4326.18,0.05421
4320.39,0.05421
4314.6,0.05435
4308.82,0.05476
4303.03,0.05366
4297.24,0.05545
4291.46,0.05481
4285.67,0.05457
4279.89,0.05540
4274.1,0.05503
4268.31,0.05447
4262.53,0.05408
4256.74,0.05423
4250.95,0.05377
4245.17,0.05450
4239.38,0.05373
4233.6,0.05337
4227.81,0.05340
4222.02,0.05391
4216.24,0.05420
4210.45,0.05407
4204.66,0.05427
4198.88,0.05406
4193.09,0.05410
4187.31,0.05413
4181.52,0.05363
4175.73,0.05407
4169.95,0.05414
4164.16,0.05410
4158.37,0.05407
4152.59,0.05460
4146.8,0.05435
4141.02,0.05484
4135.23,0.05472
4129.44,0.05479
4123.66,0.05394
4117.87,0.05422
4112.09,0.05498
4106.3,0.05424
4100.51,0.05464
4094.73,0.05373
4088.94,0.05435
4083.15,0.05497
4077.37,0.05498
4071.58,0.05455
4065.8,0.05456
4060.01,0.05447
4054.22,0.05439
4048.44,0.05468
4042.65,0.05463
4036.86,0.05571
4031.08,0.05472
4025.29,0.05463
4019.51,0.05511
4013.72,0.05503
4007.93,0.05475
4002.15,0.05521
3996.36,0.05445
3990.57,0.05481
3984.79,0.05490
3979,0.05475
3973.22,0.05408
3967.43,0.05461
3961.64,0.05441
3955.86,0.05392
3950.07,0.05433
3944.28,0.05452
3938.5,0.05438
3932.71,0.05413
3926.93,0.05379
3921.14,0.05361
3915.35,0.05498
3909.57,0.05428
3903.78,0.05492
3897.99,0.05413
3892.21,0.05349
3886.42,0.05372
3880.64,0.05448
3874.85,0.05402
3869.06,0.05409
3863.28,0.05420
3857.49,0.05456
3851.7,0.05400
3845.92,0.05416
3840.13,0.05405
3834.35,0.05388
3828.56,0.05358
3822.77,0.05413
3816.99,0.05332
3811.2,0.05393
3805.41,0.05438
3799.63,0.05436
3793.84,0.05443
3788.06,0.05397
3782.27,0.05438
3776.48,0.05404
3770.7,0.05421
3764.91,0.05348
3759.12,0.05336
3753.34,0.05358
3747.55,0.05384
3741.77,0.05308
3735.98,0.05280
3730.19,0.05312
3724.41,0.05282
3718.62,0.05290
3712.83,0.05262
3707.05,0.05325
3701.26,0.05273
3695.48,0.05281
3689.69,0.05326
3683.9,0.05314
3678.12,0.05273
3672.33,0.05210
3666.54,0.05227
3660.76,0.05196
3654.97,0.05213
3649.19,0.05241
3643.4,0.05309
3637.61,0.05283
3631.83,0.05364
3626.04,0.05643
3620.25,0.05572
3614.47,0.05454
3608.68,0.05246
3602.9,0.05286
3597.11,0.05312
3591.32,0.05310
3585.54,0.05227
3579.75,0.05240
3573.97,0.05225
3568.18,0.05340
3562.39,0.05319
3556.61,0.05323
3550.82,0.05335
3545.03,0.05381
3539.25,0.05824
3533.46,0.06322
3527.68,0.06446
3521.89,0.05986
3516.1,0.05828
3510.32,0.05773
3504.53,0.05885
3498.74,0.06175
3492.96,0.06378
3487.17,0.06691
3481.39,0.06964
3475.6,0.07203
3469.81,0.07280
3464.03,0.07297
3458.24,0.07201
3452.45,0.06916
3446.67,0.06675
3440.88,0.06370
3435.1,0.06067
3429.31,0.05768
3423.52,0.05510
3417.74,0.05380
3411.95,0.05234
3406.16,0.05260
3400.38,0.05292
3394.59,0.05476
3388.81,0.05380
3383.02,0.05424
3377.23,0.05598
3371.45,0.05560
3365.66,0.05440
3359.87,0.05477
3354.09,0.05440
3348.3,0.05371
3342.52,0.05405
3336.73,0.05410
3330.94,0.05382
3325.16,0.05370
3319.37,0.05281
3313.58,0.05294
3307.8,0.05285
3302.01,0.05303
3296.23,0.05286
3290.44,0.05358
3284.65,0.05266
3278.87,0.05260
3273.08,0.05239
3267.29,0.05192
3261.51,0.05248
3255.72,0.05275
3249.94,0.05193
3244.15,0.05235
3238.36,0.05327
3232.58,0.05292
3226.79,0.05157
3221,0.05247
3215.22,0.05333
3209.43,0.05254
3203.65,0.05291
3197.86,0.05323
3192.07,0.05343
3186.29,0.05260
3180.5,0.05318
3174.71,0.05270
3168.93,0.05333
3163.14,0.05358
3157.36,0.05374
3151.57,0.05336
3145.78,0.05265
3140,0.05328
3134.21,0.05336
3128.42,0.05334
3122.64,0.05289
3116.85,0.05323
3111.07,0.05298
3105.28,0.05310
3099.49,0.05281
3093.71,0.05253
3087.92,0.05269
3082.14,0.05269
3076.35,0.05274
3070.56,0.05222
3064.78,0.05219
3058.99,0.05182
3053.2,0.05106
3047.42,0.05066
3041.63,0.04997
3035.85,0.04890
3030.06,0.04839
3024.27,0.04901
3018.49,0.04841
3012.7,0.04791
3006.91,0.04848
3001.13,0.04825
2995.34,0.04873
2989.56,0.04899
2983.77,0.04960
2977.98,0.04966
2972.2,0.04922
2966.41,0.04831
2960.62,0.04816
2954.84,0.04878
2949.05,0.05018
2943.27,0.05183
2937.48,0.05253
2931.69,0.05269
2925.91,0.05328
2920.12,0.05380
2914.33,0.05446
2908.55,0.05358
2902.76,0.05323
2896.98,0.05308
2891.19,0.05306
2885.4,0.05364
2879.62,0.05281
2873.83,0.05259
2868.04,0.05287
2862.26,0.05337
2856.47,0.05350
2850.69,0.05373
2844.9,0.05345
2839.11,0.05354
2833.33,0.05343
2827.54,0.05349
2821.75,0.05364
2815.97,0.05390
2810.18,0.05375
2804.4,0.05442
2798.61,0.05455
2792.82,0.05498
2787.04,0.05470
2781.25,0.05459
2775.46,0.05466
2769.68,0.05464
2763.89,0.05435
2758.11,0.05448
2752.32,0.05471
2746.53,0.05491
2740.75,0.05508
2734.96,0.05513
2729.17,0.05473
2723.39,0.05548
2717.6,0.05551
2711.82,0.05491
2706.03,0.05514
2700.24,0.05495
2694.46,0.05495
2688.67,0.05486
2682.88,0.05504
2677.1,0.05518
2671.31,0.05500
2665.53,0.05448
2659.74,0.05505
2653.95,0.05461
2648.17,0.05396
2642.38,0.05433
2636.59,0.05414
2630.81,0.05421
2625.02,0.05436
2619.24,0.05422
2613.45,0.05381
2607.66,0.05401
2601.88,0.05320
2596.09,0.05349
2590.3,0.05349
2584.52,0.05369
2578.73,0.05356
2572.95,0.05358
2567.16,0.05375
2561.37,0.05343
2555.59,0.05369
2549.8,0.05325
2544.02,0.05354
2538.23,0.05304
2532.44,0.05380
2526.66,0.05358
2520.87,0.05328
2515.08,0.05370
2509.3,0.05381
2503.51,0.05350
2497.73,0.05355
2491.94,0.05364
2486.15,0.05358
2480.37,0.05341
2474.58,0.05377
2468.79,0.05334
2463.01,0.05322
2457.22,0.05286
2451.44,0.05345
2445.65,0.05327
2439.86,0.05264
2434.08,0.05252
2428.29,0.05256
2422.5,0.05241
2416.72,0.05251
2410.93,0.05247
2405.15,0.05254
2399.36,0.05226
2393.57,0.05213
2387.79,0.05211
2382,0.05230
2376.21,0.05229
2370.43,0.05265
2364.64,0.05216
2358.86,0.05193
2353.07,0.05224
2347.28,0.05226
2341.5,0.05202
2335.71,0.05181
2329.92,0.05187
2324.14,0.05209
2318.35,0.05176
2312.57,0.05187
2306.78,0.05142
2300.99,0.05148
2295.21,0.05161
2289.42,0.05169
2283.63,0.05149
2277.85,0.05141
2272.06,0.05150
2266.28,0.05134
2260.49,0.05106
2254.7,0.05169
2248.92,0.05139
2243.13,0.05146
2237.34,0.05115
2231.56,0.05121
2225.77,0.05094
2219.99,0.05074
2214.2,0.05080
2208.41,0.05086
2202.63,0.05069
2196.84,0.05025
2191.05,0.05038
2185.27,0.05025
2179.48,0.05033
2173.7,0.04982
2167.91,0.05037
2162.12,0.04965
2156.34,0.04989
2150.55,0.04994
2144.76,0.04981
2138.98,0.04987
2133.19,0.04956
2127.41,0.04937
2121.62,0.04951
2115.83,0.04984
2110.05,0.04948
2104.26,0.04969
2098.47,0.04932
2092.69,0.04931
2086.9,0.04931
2081.12,0.04943
2075.33,0.04941
2069.54,0.04917
2063.76,0.04918
2057.97,0.04885
2052.19,0.04911
2046.4,0.04928
2040.61,0.04935
2034.83,0.04920
2029.04,0.04927
2023.25,0.04902
2017.47,0.04930
2011.68,0.04903
2005.9,0.04882
2000.11,0.04877
1994.32,0.04896
1988.54,0.04891
1982.75,0.04872
1976.96,0.04869
1971.18,0.04846
1965.39,0.04869
1959.61,0.04874
1953.82,0.04844
1948.03,0.04848
1942.25,0.04800
1936.46,0.04827
1930.67,0.04827
1924.89,0.04856
1919.1,0.04787
1913.32,0.04785
1907.53,0.04785
1901.74,0.04790
1895.96,0.04779
1890.17,0.04745
1884.38,0.04748
1878.6,0.04737
1872.81,0.04711
1867.03,0.04698
1861.24,0.04649
1855.45,0.04645
1849.67,0.04600
1843.88,0.04603
1838.09,0.04592
1832.31,0.04563
1826.52,0.04523
1820.74,0.04458
1814.95,0.04421
1809.16,0.04400
1803.38,0.04387
1797.59,0.04294
1791.8,0.04211
1786.02,0.04208
1780.23,0.04065
1774.45,0.03936
1768.66,0.03740
1762.87,0.03563
1757.09,0.03149
1751.3,0.02674
1745.51,0.02520
1739.73,0.03749
1733.94,0.05700
1728.16,0.07470
1722.37,0.08230
1716.58,0.07823
1710.8,0.07047
1705.01,0.06468
1699.22,0.06095
1693.44,0.05829
1687.65,0.05698
1681.87,0.05608
1676.08,0.05549
1670.29,0.05482
1664.51,0.05413
1658.72,0.05384
1652.93,0.05327
1647.15,0.05294
1641.36,0.05225
1635.58,0.05262
1629.79,0.05211
1624,0.05196
1618.22,0.05158
1612.43,0.05110
1606.64,0.05106
1600.86,0.05097
1595.07,0.05084
1589.29,0.05063
1583.5,0.04996
1577.71,0.04962
1571.93,0.04986
1566.14,0.04930
1560.35,0.04907
1554.57,0.04817
1548.78,0.04817
1543,0.04792
1537.21,0.04755
1531.42,0.04722
1525.64,0.04675
1519.85,0.04602
1514.07,0.04525
1508.28,0.04514
1502.49,0.04353
1496.71,0.04196
1490.92,0.04101
1485.13,0.04289
1479.35,0.04504
1473.56,0.04601
1467.78,0.04543
1461.99,0.04521
1456.2,0.04558
1450.42,0.04757
1444.63,0.04963
1438.84,0.05102
1433.06,0.05492
1427.27,0.05610
1421.49,0.05441
1415.7,0.05238
1409.91,0.05019
1404.13,0.04891
1398.34,0.04815
1392.55,0.04806
1386.77,0.04925
1380.98,0.05009
1375.2,0.04989
1369.41,0.04927
1363.62,0.04876
1357.84,0.04867
1352.05,0.04802
1346.26,0.04770
1340.48,0.04695
1334.69,0.04593
1328.91,0.04570
1323.12,0.04449
1317.33,0.04411
1311.55,0.04320
1305.76,0.04218
1299.97,0.04097
1294.19,0.03935
1288.4,0.03793
1282.62,0.03657
1276.83,0.03733
1271.04,0.04118
1265.26,0.04445
1259.47,0.04380
1253.68,0.04268
1247.9,0.04365
1242.11,0.04794
1236.33,0.05177
1230.54,0.05221
1224.75,0.05006
1218.97,0.04644
1213.18,0.04182
1207.39,0.03760
1201.61,0.03831
1195.82,0.04478
1190.04,0.05227
1184.25,0.05311
1178.46,0.05169
1172.68,0.05170
1166.89,0.05205
1161.1,0.05305
1155.32,0.05868
1149.53,0.07499
1143.75,0.08635
1137.96,0.08713
1132.17,0.08366
1126.39,0.07970
1120.6,0.07743
1114.81,0.07633
1109.03,0.07438
1103.24,0.07384
1097.46,0.07318
1091.67,0.07344
1085.88,0.07268
1080.1,0.07313
1074.31,0.07290
1068.52,0.07226
1062.74,0.07308
1056.95,0.07749
1051.17,0.08403
1045.38,0.08672
1039.59,0.08632
1033.81,0.08373
1028.02,0.08112
1022.24,0.07695
1016.45,0.07216
1010.66,0.06550
1004.88,0.05991
999.09,0.05702
993.304,0.05755
987.518,0.05993
981.731,0.06164
975.945,0.06171
970.159,0.06155
964.373,0.06262
958.586,0.06441
952.8,0.06386
947.014,0.06313
941.228,0.06316
935.441,0.06212
929.655,0.06168
923.869,0.06157
918.083,0.06164
912.297,0.06125
906.51,0.06164
900.724,0.06197
894.938,0.06285
889.152,0.06416
883.365,0.06542
877.579,0.06537
871.793,0.06579
866.007,0.06573
860.22,0.06393
854.434,0.06333
848.648,0.06224
842.862,0.06215
837.075,0.06582
831.289,0.06740
825.503,0.06803
819.717,0.07108
813.931,0.07114
808.144,0.07092
802.358,0.07279
796.572,0.07291
790.786,0.07169
784.999,0.06923
779.213,0.06741
773.427,0.06668
767.641,0.06488
761.854,0.06324
756.068,0.06154
750.282,0.06422
744.496,0.06967
738.709,0.07061
732.923,0.06947
727.137,0.06880
721.351,0.06713
715.565,0.06486
709.778,0.06440
703.992,0.06416
698.206,0.06401
692.42,0.06394
686.633,0.06438
680.847,0.06607
675.061,0.06719
669.275,0.06658
663.488,0.06745
657.702,0.06464
651.916,0.06385
646.13,0.06523
640.343,0.06356
634.557,0.06459
628.771,0.06652
622.985,0.06637
617.198,0.06780
611.412,0.06682
605.626,0.06705
599.84,0.07096