File: 01_Data/Corian_Countertop/FTIR/IS/Corian_Countertop_IS_T_221003_R5.dpt
7497.03,0.02864
7491.25,0.02930
7485.46,0.02598
7479.67,0.03565
7473.89,0.03042
7468.1,0.02172
7462.32,0.02062
7456.53,0.01826
7450.74,0.02792
7444.96,0.03623
7439.17,0.02780
7433.38,0.02698
7427.6,0.02485
7421.81,0.01927
7416.03,0.02067
7410.24,0.02418
7404.45,0.02428
7398.67,0.02496
7392.88,0.02003
7387.09,0.02464
7381.31,0.02018
7375.52,0.03108
7369.74,0.02897
7363.95,0.02476
7358.16,0.02279
7352.38,0.02771
7346.59,0.02702
7340.8,0.03068
7335.02,0.02642
7329.23,0.02428
7323.45,0.02488
7317.66,0.02259
7311.87,0.02737
7306.09,0.02373
7300.3,0.02591
7294.51,0.02142
7288.73,0.02918
7282.94,0.02611
7277.16,0.02781
7271.37,0.02312
7265.58,0.02040
7259.8,0.02328
7254.01,0.02784
7248.22,0.02500
7242.44,0.01671
7236.65,0.02667
7230.87,0.02284
7225.08,0.02152
7219.29,0.02201
7213.51,0.02961
7207.72,0.02355
7201.93,0.01890
7196.15,0.01874
7190.36,0.02555
7184.58,0.02532
7178.79,0.02891
7173,0.03105
7167.22,0.02871
7161.43,0.02350
7155.65,0.02170
7149.86,0.02016
7144.07,0.01840
7138.29,0.02726
7132.5,0.03284
7126.71,0.02624
7120.93,0.02568
7115.14,0.02408
7109.36,0.02500
7103.57,0.02518
7097.78,0.02757
7092,0.02437
7086.21,0.02008
7080.42,0.01719
7074.64,0.02095
7068.85,0.02392
7063.07,0.02177
7057.28,0.01967
7051.49,0.02207
7045.71,0.02047
7039.92,0.02680
7034.13,0.02807
7028.35,0.02356
7022.56,0.02971
7016.78,0.02382
7010.99,0.01875
7005.2,0.02708
6999.42,0.02240
6993.63,0.02255
6987.84,0.01852
6982.06,0.02331
6976.27,0.01961
6970.49,0.02366
6964.7,0.03244
6958.91,0.02780
6953.13,0.02665
6947.34,0.02296
6941.55,0.02133
6935.77,0.02129
6929.98,0.01579
6924.2,0.02365
6918.41,0.02518
6912.62,0.02486
6906.84,0.02181
6901.05,0.02267
6895.26,0.01782
6889.48,0.01995
6883.69,0.02537
6877.91,0.02479
6872.12,0.02431
6866.33,0.02296
6860.55,0.01632
6854.76,0.01941
6848.97,0.01837
6843.19,0.02450
6837.4,0.02167
6831.62,0.02532
6825.83,0.02284
6820.04,0.02121
6814.26,0.03070
6808.47,0.02153
6802.68,0.02246
6796.9,0.01970
6791.11,0.02804
6785.33,0.02750
6779.54,0.02359
6773.75,0.02627
6767.97,0.02325
6762.18,0.02258
6756.39,0.02264
6750.61,0.02166
6744.82,0.02403
6739.04,0.02676
6733.25,0.02134
6727.46,0.02212
6721.68,0.02479
6715.89,0.02824
6710.1,0.02323
6704.32,0.01769
6698.53,0.02608
6692.75,0.02093
6686.96,0.02535
6681.17,0.02599
6675.39,0.02502
6669.6,0.02631
6663.82,0.02472
6658.03,0.01915
6652.24,0.01869
6646.46,0.02485
6640.67,0.02042
6634.88,0.02035
6629.1,0.02135
6623.31,0.02477
6617.53,0.02344
6611.74,0.02434
6605.95,0.02143
6600.17,0.02659
6594.38,0.02708
6588.59,0.02545
6582.81,0.02275
6577.02,0.02612
6571.24,0.02259
6565.45,0.02098
6559.66,0.02434
6553.88,0.02350
6548.09,0.02378
6542.3,0.01816
6536.52,0.02528
6530.73,0.02473
6524.95,0.02068
6519.16,0.02281
6513.37,0.02461
6507.59,0.01972
6501.8,0.02182
6496.01,0.02309
6490.23,0.02176
6484.44,0.02272
6478.66,0.02516
6472.87,0.02459
6467.08,0.02379
6461.3,0.02378
6455.51,0.02290
6449.72,0.02100
6443.94,0.02266
6438.15,0.02207
6432.37,0.02222
6426.58,0.02205
6420.79,0.02384
6415.01,0.02489
6409.22,0.02339
6403.43,0.01951
6397.65,0.02132
6391.86,0.02327
6386.08,0.02493
6380.29,0.02215
6374.5,0.02298
6368.72,0.02286
6362.93,0.02251
6357.14,0.02284
6351.36,0.02709
6345.57,0.02362
6339.79,0.02255
6334,0.02514
6328.21,0.02280
6322.43,0.02225
6316.64,0.02185
6310.85,0.02251
6305.07,0.02270
6299.28,0.02240
6293.5,0.02284
6287.71,0.02282
6281.92,0.01999
6276.14,0.02409
6270.35,0.02640
6264.56,0.02575
6258.78,0.02365
6252.99,0.02240
6247.21,0.02513
6241.42,0.02150
6235.63,0.02344
6229.85,0.02467
6224.06,0.02175
6218.27,0.02291
6212.49,0.02290
6206.7,0.02287
6200.92,0.02235
6195.13,0.02135
6189.34,0.01933
6183.56,0.02258
6177.77,0.02387
6171.98,0.02077
6166.2,0.02014
6160.41,0.02395
6154.63,0.02043
6148.84,0.02057
6143.05,0.02380
6137.27,0.02261
6131.48,0.01882
6125.7,0.02051
6119.91,0.02496
6114.12,0.02195
6108.34,0.02250
6102.55,0.02258
6096.76,0.01918
6090.98,0.01937
6085.19,0.02308
6079.41,0.02267
6073.62,0.02362
6067.83,0.02318
6062.05,0.02374
6056.26,0.02151
6050.47,0.02104
6044.69,0.02340
6038.9,0.02320
6033.12,0.01897
6027.33,0.01962
6021.54,0.02336
6015.76,0.02314
6009.97,0.01995
6004.18,0.02187
5998.4,0.02187
5992.61,0.01942
5986.83,0.02232
5981.04,0.01913
5975.25,0.02113
5969.47,0.02279
5963.68,0.02329
5957.89,0.02245
5952.11,0.02000
5946.32,0.02258
5940.54,0.02084
5934.75,0.02179
5928.96,0.02026
5923.18,0.02108
5917.39,0.02243
5911.6,0.02208
5905.82,0.01993
5900.03,0.02153
5894.25,0.02072
5888.46,0.02266
5882.67,0.02157
5876.89,0.02143
5871.1,0.02156
5865.31,0.02081
5859.53,0.02229
5853.74,0.01972
5847.96,0.02038
5842.17,0.02195
5836.38,0.02215
5830.6,0.02282
5824.81,0.02252
5819.02,0.02441
5813.24,0.02186
5807.45,0.02185
5801.67,0.02444
5795.88,0.02100
5790.09,0.02004
5784.31,0.02084
5778.52,0.02207
5772.73,0.02669
5766.95,0.02222
5761.16,0.02103
5755.38,0.02137
5749.59,0.02358
5743.8,0.02329
5738.02,0.02218
5732.23,0.02235
5726.44,0.02263
5720.66,0.02191
5714.87,0.02115
5709.09,0.02192
5703.3,0.02037
5697.51,0.02076
5691.73,0.02182
5685.94,0.02132
5680.15,0.02246
5674.37,0.02351
5668.58,0.02197
5662.8,0.02252
5657.01,0.02172
5651.22,0.02041
5645.44,0.02178
5639.65,0.02192
5633.87,0.02345
5628.08,0.02197
5622.29,0.02106
5616.51,0.02319
5610.72,0.02188
5604.93,0.02244
5599.15,0.02129
5593.36,0.02230
5587.58,0.02183
5581.79,0.02250
5576,0.02284
5570.22,0.02168
5564.43,0.02219
5558.64,0.02353
5552.86,0.02280
5547.07,0.02278
5541.29,0.02158
5535.5,0.01900
5529.71,0.02217
5523.93,0.02161
5518.14,0.02189
5512.35,0.02235
5506.57,0.02123
5500.78,0.02150
5495,0.02324
5489.21,0.02278
5483.42,0.02087
5477.64,0.02105
5471.85,0.02190
5466.06,0.02343
5460.28,0.02240
5454.49,0.02382
5448.71,0.02266
5442.92,0.02280
5437.13,0.02232
5431.35,0.02249
5425.56,0.02292
5419.77,0.02114
5413.99,0.02262
5408.2,0.02110
5402.42,0.02131
5396.63,0.02300
5390.84,0.02345
5385.06,0.02266
5379.27,0.02298
5373.48,0.02151
5367.7,0.02466
5361.91,0.02361
5356.13,0.02357
5350.34,0.02109
5344.55,0.02277
5338.77,0.02324
5332.98,0.02167
5327.19,0.02125
5321.41,0.02267
5315.62,0.02293
5309.84,0.02107
5304.05,0.02128
5298.26,0.02251
5292.48,0.02220
5286.69,0.02271
5280.9,0.02334
5275.12,0.02179
5269.33,0.02245
5263.55,0.02177
5257.76,0.02140
5251.97,0.02154
5246.19,0.02176
5240.4,0.02112
5234.61,0.02267
5228.83,0.02118
5223.04,0.02222
5217.26,0.02166
5211.47,0.02278
5205.68,0.02129
5199.9,0.02316
5194.11,0.02212
5188.32,0.02193
5182.54,0.02119
5176.75,0.02052
5170.97,0.02101
5165.18,0.02243
5159.39,0.02309
5153.61,0.02356
5147.82,0.02192
5142.03,0.02140
5136.25,0.02237
5130.46,0.02290
5124.68,0.02128
5118.89,0.02176
5113.1,0.02238
5107.32,0.02196
5101.53,0.02396
5095.75,0.02332
5089.96,0.02152
5084.17,0.02236
5078.39,0.02253
5072.6,0.02217
5066.81,0.02092
5061.03,0.02221
5055.24,0.02365
5049.46,0.02249
5043.67,0.02152
5037.88,0.02184
5032.1,0.02175
5026.31,0.02260
5020.52,0.02283
5014.74,0.02228
5008.95,0.02223
5003.17,0.02249
4997.38,0.02321
4991.59,0.02277
4985.81,0.02174
4980.02,0.02274
4974.23,0.02245
4968.45,0.02191
4962.66,0.02166
4956.88,0.02264
4951.09,0.02322
4945.3,0.02271
4939.52,0.02112
4933.73,0.02205
4927.94,0.02240
4922.16,0.02149
4916.37,0.02203
4910.59,0.02270
4904.8,0.02195
4899.01,0.02207
4893.23,0.02176
4887.44,0.02241
4881.65,0.02253
4875.87,0.02310
4870.08,0.02178
4864.3,0.02250
4858.51,0.02234
4852.72,0.02232
4846.94,0.02242
4841.15,0.02090
4835.36,0.02195
4829.58,0.02201
4823.79,0.02197
4818.01,0.02254
4812.22,0.02242
4806.43,0.02157
4800.65,0.02140
4794.86,0.02185
4789.07,0.02386
4783.29,0.02241
4777.5,0.02283
4771.72,0.02335
4765.93,0.02235
4760.14,0.02285
4754.36,0.02140
4748.57,0.02142
4742.78,0.02252
4737,0.02198
4731.21,0.02205
4725.43,0.02185
4719.64,0.02242
4713.85,0.02227
4708.07,0.02317
4702.28,0.02189
4696.49,0.02237
4690.71,0.02163
4684.92,0.02270
4679.14,0.02282
4673.35,0.02327
4667.56,0.02226
4661.78,0.02373
4655.99,0.02275
4650.2,0.02130
4644.42,0.02259
4638.63,0.02198
4632.85,0.02132
4627.06,0.02284
4621.27,0.02205
4615.49,0.02268
4609.7,0.02207
4603.92,0.02247
4598.13,0.02258
4592.34,0.02239
4586.56,0.02232
4580.77,0.02245
4574.98,0.02204
4569.2,0.02154
4563.41,0.02239
4557.63,0.02208
4551.84,0.02118
4546.05,0.02198
4540.27,0.02162
4534.48,0.02168
4528.69,0.02216
4522.91,0.02274
4517.12,0.02289
4511.34,0.02283
4505.55,0.02236
4499.76,0.02325
4493.98,0.02214
4488.19,0.02212
4482.4,0.02261
4476.62,0.02204
4470.83,0.02292
4465.05,0.02274
4459.26,0.02247
4453.47,0.02228
4447.69,0.02253
4441.9,0.02227
4436.11,0.02243
4430.33,0.02268
4424.54,0.02241
4418.76,0.02208
4412.97,0.02252
4407.18,0.02277
4401.4,0.02222
4395.61,0.02257
4389.82,0.02258
4384.04,0.02219
4378.25,0.02254
4372.47,0.02203
4366.68,0.02220
4360.89,0.02173
4355.11,0.02284
4349.32,0.02236
4343.53,0.02195
4337.75,0.02241
4331.96,0.02213
4326.18,0.02225
4320.39,0.02296
4314.6,0.02281
4308.82,0.02255
4303.03,0.02303
4297.24,0.02244
4291.46,0.02269
4285.67,0.02294
4279.89,0.02318
4274.1,0.02228
4268.31,0.02271
4262.53,0.02257
4256.74,0.02251
4250.95,0.02311
4245.17,0.02226
4239.38,0.02228
4233.6,0.02272
4227.81,0.02268
4222.02,0.02203
4216.24,0.02223
4210.45,0.02249
4204.66,0.02169
4198.88,0.02223
4193.09,0.02191
4187.31,0.02196
4181.52,0.02289
4175.73,0.02294
4169.95,0.02236
4164.16,0.02247
4158.37,0.02279
4152.59,0.02326
4146.8,0.02256
4141.02,0.02241
4135.23,0.02235
4129.44,0.02262
4123.66,0.02276
4117.87,0.02258
4112.09,0.02269
4106.3,0.02217
4100.51,0.02271
4094.73,0.02293
4088.94,0.02273
4083.15,0.02222
4077.37,0.02234
4071.58,0.02242
4065.8,0.02197
4060.01,0.02178
4054.22,0.02234
4048.44,0.02235
4042.65,0.02297
4036.86,0.02249
4031.08,0.02265
4025.29,0.02268
4019.51,0.02232
4013.72,0.02180
4007.93,0.02256
4002.15,0.02271
3996.36,0.02233
3990.57,0.02363
3984.79,0.02250
3979,0.02275
3973.22,0.02248
3967.43,0.02289
3961.64,0.02270
3955.86,0.02259
3950.07,0.02289
3944.28,0.02282
3938.5,0.02299
3932.71,0.02278
3926.93,0.02256
3921.14,0.02249
3915.35,0.02220
3909.57,0.02256
3903.78,0.02257
3897.99,0.02245
3892.21,0.02341
3886.42,0.02292
3880.64,0.02223
3874.85,0.02346
3869.06,0.02308
3863.28,0.02251
3857.49,0.02305
3851.7,0.02334
3845.92,0.02261
3840.13,0.02222
3834.35,0.02249
3828.56,0.02266
3822.77,0.02214
3816.99,0.02231
3811.2,0.02238
3805.41,0.02377
3799.63,0.02251
3793.84,0.02243
3788.06,0.02293
3782.27,0.02210
3776.48,0.02300
3770.7,0.02243
3764.91,0.02297
3759.12,0.02258
3753.34,0.02263
3747.55,0.02327
3741.77,0.02253
3735.98,0.02207
3730.19,0.02272
3724.41,0.02265
3718.62,0.02267
3712.83,0.02258
3707.05,0.02246
3701.26,0.02283
3695.48,0.02287
3689.69,0.02226
3683.9,0.02241
3678.12,0.02232
3672.33,0.02200
3666.54,0.02199
3660.76,0.02243
3654.97,0.02204
3649.19,0.02176
3643.4,0.02173
3637.61,0.02209
3631.83,0.02170
3626.04,0.02188
3620.25,0.02227
3614.47,0.02200
3608.68,0.02169
3602.9,0.02182
3597.11,0.02210
3591.32,0.02172
3585.54,0.02156
3579.75,0.02101
3573.97,0.02151
3568.18,0.02174
3562.39,0.02148
3556.61,0.02145
3550.82,0.02125
3545.03,0.02142
3539.25,0.02140
3533.46,0.02101
3527.68,0.02140
3521.89,0.02005
3516.1,0.02125
3510.32,0.02088
3504.53,0.02099
3498.74,0.02118
3492.96,0.02074
3487.17,0.02127
3481.39,0.02088
3475.6,0.02051
3469.81,0.02108
3464.03,0.02055
3458.24,0.02080
3452.45,0.02069
3446.67,0.02084
3440.88,0.02014
3435.1,0.02104
3429.31,0.02016
3423.52,0.02096
3417.74,0.02024
3411.95,0.02042
3406.16,0.02045
3400.38,0.01968
3394.59,0.01991
3388.81,0.01999
3383.02,0.01980
3377.23,0.02071
3371.45,0.02090
3365.66,0.02019
3359.87,0.02049
3354.09,0.02000
3348.3,0.01999
3342.52,0.01988
3336.73,0.01978
3330.94,0.02010
3325.16,0.02013
3319.37,0.02075
3313.58,0.01965
3307.8,0.02019
3302.01,0.02022
3296.23,0.02024
3290.44,0.01947
3284.65,0.02038
3278.87,0.01984
3273.08,0.02016
3267.29,0.02004
3261.51,0.02017
3255.72,0.02058
3249.94,0.02043
3244.15,0.02111
3238.36,0.02013
3232.58,0.02023
3226.79,0.02014
3221,0.01994
3215.22,0.02122
3209.43,0.02003
3203.65,0.02093
3197.86,0.02067
3192.07,0.02051
3186.29,0.02028
3180.5,0.02124
3174.71,0.02043
3168.93,0.02097
3163.14,0.02061
3157.36,0.02046
3151.57,0.02089
3145.78,0.02087
3140,0.02138
3134.21,0.02080
3128.42,0.02057
3122.64,0.02074
3116.85,0.02119
3111.07,0.02087
3105.28,0.02103
3099.49,0.02059
3093.71,0.02077
3087.92,0.02049
3082.14,0.02052
3076.35,0.02050
3070.56,0.02009
3064.78,0.02062
3058.99,0.02112
3053.2,0.02034
3047.42,0.02017
3041.63,0.02038
3035.85,0.02057
3030.06,0.02027
3024.27,0.02065
3018.49,0.02065
3012.7,0.02053
3006.91,0.02004
3001.13,0.02033
2995.34,0.01998
2989.56,0.01995
2983.77,0.01946
2977.98,0.01945
2972.2,0.01956
2966.41,0.01944
2960.62,0.01948
2954.84,0.01961
2949.05,0.01952
2943.27,0.01959
2937.48,0.01939
2931.69,0.01928
2925.91,0.02007
2920.12,0.01991
2914.33,0.02038
2908.55,0.01983
2902.76,0.02027
2896.98,0.02005
2891.19,0.02001
2885.4,0.02094
2879.62,0.02055
2873.83,0.02030
2868.04,0.02061
2862.26,0.02034
2856.47,0.02037
2850.69,0.02072
2844.9,0.02033
2839.11,0.02084
2833.33,0.02107
2827.54,0.02066
2821.75,0.02075
2815.97,0.02128
2810.18,0.02087
2804.4,0.02094
2798.61,0.02148
2792.82,0.02153
2787.04,0.02120
2781.25,0.02120
2775.46,0.02134
2769.68,0.02125
2763.89,0.02103
2758.11,0.02100
2752.32,0.02144
2746.53,0.02140
2740.75,0.02125
2734.96,0.02098
2729.17,0.02166
2723.39,0.02071
2717.6,0.02107
2711.82,0.02125
2706.03,0.02143
2700.24,0.02085
2694.46,0.02104
2688.67,0.02165
2682.88,0.02142
2677.1,0.02137
2671.31,0.02099
2665.53,0.02148
2659.74,0.02126
2653.95,0.02177
2648.17,0.02141
2642.38,0.02096
2636.59,0.02113
2630.81,0.02062
2625.02,0.02097
2619.24,0.02104
2613.45,0.02158
2607.66,0.02143
2601.88,0.02131
2596.09,0.02072
2590.3,0.02100
2584.52,0.02116
2578.73,0.02137
2572.95,0.02147
2567.16,0.02091
2561.37,0.02142
2555.59,0.02123
2549.8,0.02103
2544.02,0.02088
2538.23,0.02140
2532.44,0.02121
2526.66,0.02136
2520.87,0.02103
2515.08,0.02155
2509.3,0.02141
2503.51,0.02093
2497.73,0.02138
2491.94,0.02128
2486.15,0.02118
2480.37,0.02079
2474.58,0.02107
2468.79,0.02107
2463.01,0.02104
2457.22,0.02118
2451.44,0.02088
2445.65,0.02127
2439.86,0.02150
2434.08,0.02106
2428.29,0.02083
2422.5,0.02111
2416.72,0.02145
2410.93,0.02127
2405.15,0.02104
2399.36,0.02104
2393.57,0.02113
2387.79,0.02055
2382,0.02096
2376.21,0.02123
2370.43,0.02103
2364.64,0.02098
2358.86,0.02133
2353.07,0.02119
2347.28,0.02135
2341.5,0.02111
2335.71,0.02107
2329.92,0.02110
2324.14,0.02074
2318.35,0.02093
2312.57,0.02078
2306.78,0.02141
2300.99,0.02119
2295.21,0.02123
2289.42,0.02094
2283.63,0.02101
2277.85,0.02093
2272.06,0.02069
2266.28,0.02093
2260.49,0.02115
2254.7,0.02105
2248.92,0.02068
2243.13,0.02085
2237.34,0.02127
2231.56,0.02079
2225.77,0.02087
2219.99,0.02096
2214.2,0.02074
2208.41,0.02104
2202.63,0.02089
2196.84,0.02083
2191.05,0.02084
2185.27,0.02096
2179.48,0.02065
2173.7,0.02101
2167.91,0.02090
2162.12,0.02097
2156.34,0.02056
2150.55,0.02071
2144.76,0.02089
2138.98,0.02100
2133.19,0.02107
2127.41,0.02135
2121.62,0.02120
2115.83,0.02105
2110.05,0.02061
2104.26,0.02100
2098.47,0.02095
2092.69,0.02086
2086.9,0.02088
2081.12,0.02128
2075.33,0.02092
2069.54,0.02101
2063.76,0.02068
2057.97,0.02074
2052.19,0.02120
2046.4,0.02068
2040.61,0.02088
2034.83,0.02095
2029.04,0.02050
2023.25,0.02064
2017.47,0.02063
2011.68,0.02084
2005.9,0.02082
2000.11,0.02063
1994.32,0.02045
1988.54,0.02097
1982.75,0.02106
1976.96,0.02095
1971.18,0.02069
1965.39,0.02061
1959.61,0.02046
1953.82,0.02080
1948.03,0.02067
1942.25,0.02053
1936.46,0.02064
1930.67,0.02058
1924.89,0.02053
1919.1,0.02083
1913.32,0.02103
1907.53,0.02080
1901.74,0.02053
1895.96,0.02039
1890.17,0.02038
1884.38,0.02024
1878.6,0.02048
1872.81,0.02068
1867.03,0.02018
1861.24,0.02052
1855.45,0.02023
1849.67,0.02036
1843.88,0.02001
1838.09,0.02028
1832.31,0.02035
1826.52,0.01985
1820.74,0.01998
1814.95,0.02001
1809.16,0.01971
1803.38,0.01962
1797.59,0.01946
1791.8,0.01934
1786.02,0.01939
1780.23,0.01909
1774.45,0.01882
1768.66,0.01855
1762.87,0.01833
1757.09,0.01749
1751.3,0.01731
1745.51,0.01766
1739.73,0.01857
1733.94,0.01963
1728.16,0.02014
1722.37,0.02061
1716.58,0.02070
1710.8,0.02066
1705.01,0.02041
1699.22,0.01992
1693.44,0.01965
1687.65,0.01932
1681.87,0.01850
1676.08,0.01895
1670.29,0.01878
1664.51,0.01830
1658.72,0.01823
1652.93,0.01790
1647.15,0.01824
1641.36,0.01851
1635.58,0.01874
1629.79,0.01886
1624,0.01903
1618.22,0.01895
1612.43,0.01881
1606.64,0.01909
1600.86,0.01877
1595.07,0.01867
1589.29,0.01876
1583.5,0.01824
1577.71,0.01827
1571.93,0.01837
1566.14,0.01816
1560.35,0.01798
1554.57,0.01825
1548.78,0.01796
1543,0.01846
1537.21,0.01815
1531.42,0.01848
1525.64,0.01882
1519.85,0.01890
1514.07,0.01840
1508.28,0.01899
1502.49,0.01836
1496.71,0.01879
1490.92,0.01888
1485.13,0.01890
1479.35,0.01860
1473.56,0.01798
1467.78,0.01838
1461.99,0.01823
1456.2,0.01843
1450.42,0.01905
1444.63,0.01893
1438.84,0.01850
1433.06,0.01905
1427.27,0.01882
1421.49,0.01904
1415.7,0.01832
1409.91,0.01811
1404.13,0.01827
1398.34,0.01854
1392.55,0.01821
1386.77,0.01789
1380.98,0.01819
1375.2,0.01806
1369.41,0.01824
1363.62,0.01828
1357.84,0.01827
1352.05,0.01804
1346.26,0.01762
1340.48,0.01772
1334.69,0.01771
1328.91,0.01811
1323.12,0.01750
1317.33,0.01702
1311.55,0.01700
1305.76,0.01702
1299.97,0.01741
1294.19,0.01773
1288.4,0.01819
1282.62,0.01905
1276.83,0.01902
1271.04,0.01871
1265.26,0.01953
1259.47,0.01994
1253.68,0.01998
1247.9,0.02006
1242.11,0.01980
1236.33,0.01992
1230.54,0.01977
1224.75,0.01974
1218.97,0.01941
1213.18,0.01901
1207.39,0.01902
1201.61,0.01875
1195.82,0.01849
1190.04,0.01821
1184.25,0.01835
1178.46,0.01778
1172.68,0.01805
1166.89,0.01833
1161.1,0.01770
1155.32,0.01742
1149.53,0.01738
1143.75,0.01747
1137.96,0.01840
1132.17,0.01832
1126.39,0.01780
1120.6,0.01872
1114.81,0.01916
1109.03,0.01927
1103.24,0.01850
1097.46,0.01813
1091.67,0.01803
1085.88,0.01861
1080.1,0.01820
1074.31,0.01991
1068.52,0.01973
1062.74,0.01978
1056.95,0.01961
1051.17,0.01935
1045.38,0.01905
1039.59,0.01882
1033.81,0.01894
1028.02,0.01932
1022.24,0.01944
1016.45,0.01984
1010.66,0.02011
1004.88,0.02135
999.09,0.02173
993.304,0.02118
987.518,0.02087
981.731,0.02028
975.945,0.02081
970.159,0.02058
964.373,0.02037
958.586,0.02009
952.8,0.01998
947.014,0.01984
941.228,0.01979
935.441,0.02031
929.655,0.01960
923.869,0.01955
918.083,0.01910
912.297,0.01919
906.51,0.01902
900.724,0.01911
894.938,0.01940
889.152,0.01888
883.365,0.01863
877.579,0.01873
871.793,0.01953
866.007,0.01928
860.22,0.01870
854.434,0.01898
848.648,0.01892
842.862,0.01946
837.075,0.01901
831.289,0.01957
825.503,0.01898
819.717,0.01942
813.931,0.01975
808.144,0.01919
802.358,0.01840
796.572,0.01819
790.786,0.01892
784.999,0.01828
779.213,0.01916
773.427,0.01847
767.641,0.01836
761.854,0.01787
756.068,0.01777
750.282,0.01828
744.496,0.01743
738.709,0.01821
732.923,0.01756
727.137,0.01772
721.351,0.01764
715.565,0.01716
709.778,0.01782
703.992,0.01774
698.206,0.01676
692.42,0.01673
686.633,0.01714
680.847,0.01761
675.061,0.01758
669.275,0.01711
663.488,0.01654
657.702,0.01762
651.916,0.01597
646.13,0.01459
640.343,0.01628
634.557,0.01612
628.771,0.01546
622.985,0.01514
617.198,0.01574
611.412,0.01720
605.626,0.01391
599.84,0.01265