File: 01_Data/Vinyl_Tile/Cone/Vinyl_Tile_HRRPUA_75.csv
Time after Ignition,Vinyl_Tile_R1,Vinyl_Tile_R2,Vinyl_Tile_R3,Vinyl_Tile_R4,Mean,Std. Dev.
0.0,10.8,8.6,5.1,26.8,12.8,9.6
0.25,12.6,9.5,6.2,32.0,15.1,11.6
0.5,14.1,12.9,7.3,36.5,17.7,12.9
0.75,15.4,15.7,9.9,41.0,20.5,13.9
1.0,16.4,18.3,12.3,45.0,23.0,14.9
1.25,19.5,20.6,14.5,45.0,24.9,13.7
1.5,22.0,22.3,16.5,50.4,27.8,15.3
1.75,24.5,26.8,18.1,54.6,31.0,16.1
2.0,26.3,30.5,19.5,59.3,33.9,17.6
2.25,28.5,34.0,23.1,62.3,37.0,17.4
2.5,30.3,36.6,26.3,67.2,40.1,18.6
2.75,31.8,41.3,29.0,70.3,43.1,18.9
3.0,33.1,45.2,31.4,74.8,46.1,20.1
3.25,36.6,49.4,34.9,79.2,50.0,20.5
3.5,39.3,50.9,38.2,79.9,52.1,19.4
3.75,43.8,56.5,41.4,83.6,56.3,19.4
4.0,44.0,58.6,44.2,86.5,58.3,20.0
4.25,46.5,64.2,46.7,90.4,62.0,20.7
4.5,48.9,65.0,50.3,91.8,64.0,19.9
4.75,50.9,67.7,53.2,93.5,66.3,19.6
5.0,52.4,71.3,56.2,98.2,69.5,20.8
5.25,54.4,75.5,58.2,98.2,71.6,20.0
5.5,58.3,77.8,62.9,101.0,75.0,19.2
5.75,60.9,80.9,66.7,103.7,78.1,19.1
6.0,64.3,83.1,68.5,105.5,80.3,18.6
6.25,66.5,84.7,72.7,109.2,83.3,18.8
6.5,71.3,88.5,75.2,111.3,86.6,18.1
6.75,74.7,91.4,78.2,113.6,89.5,17.6
7.0,79.7,93.9,81.9,116.4,93.0,16.8
7.25,83.0,97.0,82.9,118.8,95.4,16.9
7.5,88.8,101.2,87.1,121.7,99.7,16.0
7.75,92.6,102.9,91.2,124.0,102.7,15.1
8.0,98.4,105.3,93.6,126.9,106.1,14.7
8.25,102.6,109.1,96.9,130.1,109.7,14.5
8.5,107.7,112.5,103.6,132.7,114.1,12.9
8.75,108.9,117.7,104.8,136.5,117.0,14.1
9.0,113.3,119.5,106.1,138.1,119.2,13.7
9.25,116.6,121.5,111.1,140.0,122.3,12.6
9.5,121.8,128.3,113.4,142.5,126.5,12.3
9.75,125.0,127.7,116.1,146.1,128.7,12.6
10.0,128.8,129.7,119.0,147.9,131.3,12.0
10.25,131.2,133.6,122.3,148.1,133.8,10.7
10.5,133.6,135.1,125.8,148.3,135.7,9.3
10.75,137.7,139.7,126.4,149.6,138.3,9.5
11.0,142.2,139.4,130.0,155.3,141.7,10.4
11.25,143.7,140.9,127.8,154.4,141.7,11.0
11.5,142.5,144.8,130.8,157.4,143.9,10.9
11.75,148.2,143.7,135.4,157.9,146.3,9.4
12.0,154.0,146.9,136.4,161.3,149.7,10.6
12.25,152.2,146.8,139.2,160.9,149.8,9.1
12.5,155.6,146.3,140.6,164.3,151.7,10.4
12.75,159.3,147.0,144.3,166.6,154.3,10.5
13.0,161.1,148.3,145.0,170.6,156.2,11.8
13.25,160.1,149.3,147.8,174.3,157.9,12.3
13.5,166.6,151.6,147.4,175.2,160.2,13.0
13.75,163.7,150.2,150.0,177.9,160.4,13.3
14.0,166.0,152.3,152.5,181.5,163.1,13.9
14.25,167.4,153.9,153.6,188.9,165.9,16.6
14.5,169.3,156.3,153.0,186.5,166.3,15.2
14.75,171.6,157.8,153.9,190.4,168.4,16.5
15.0,171.9,161.3,157.1,190.1,170.1,14.7
15.25,172.9,161.7,157.7,190.5,170.7,14.7
15.5,172.7,165.7,158.0,195.8,173.0,16.3
15.75,175.5,167.4,160.5,197.8,175.3,16.2
16.0,178.8,163.4,164.2,197.6,176.0,16.0
16.25,179.8,170.5,162.7,201.8,178.7,16.9
16.5,178.3,169.9,162.4,199.4,177.5,16.0
16.75,180.1,171.1,165.7,203.0,180.0,16.5
17.0,180.4,172.0,166.5,205.9,181.2,17.4
17.25,181.4,173.0,169.0,201.3,181.2,14.4
17.5,184.3,175.6,168.7,203.9,183.1,15.3
17.75,182.7,178.6,166.9,205.5,183.4,16.2
18.0,181.6,178.4,169.2,207.2,184.1,16.3
18.25,185.0,179.9,171.3,205.3,185.4,14.5
18.5,186.8,179.8,170.7,202.9,185.0,13.6
18.75,182.7,184.5,170.2,206.1,185.9,14.9
19.0,183.7,183.2,173.9,207.5,187.1,14.3
19.25,186.9,185.7,171.1,203.0,186.7,13.0
19.5,188.6,186.0,167.0,204.7,186.6,15.4
19.75,185.8,185.5,174.8,209.9,189.0,14.8
20.0,186.0,182.9,175.9,206.9,187.9,13.3
20.25,187.6,188.2,174.5,208.7,189.8,14.1
20.5,184.7,188.0,175.4,207.5,188.9,13.5
20.75,187.2,188.2,177.2,208.3,190.2,13.0
21.0,187.4,193.2,178.7,213.3,193.1,14.7
21.25,190.5,193.7,178.5,208.0,192.6,12.1
21.5,190.8,190.3,179.7,207.6,192.1,11.5
21.75,188.5,192.5,177.3,210.9,192.3,14.0
22.0,190.6,194.1,180.6,209.6,193.7,12.0
22.25,190.3,193.6,179.5,208.9,193.1,12.2
22.5,187.8,197.6,177.4,211.0,193.4,14.3
22.75,190.2,195.9,178.5,209.0,193.4,12.7
23.0,188.8,194.0,180.5,209.1,193.1,12.0
23.25,194.8,196.0,182.9,207.0,195.2,9.8
23.5,190.2,193.8,178.8,208.3,192.8,12.2
23.75,189.6,196.4,177.4,209.3,193.2,13.3
24.0,192.4,194.6,177.5,207.7,193.1,12.4
24.25,190.3,197.5,181.8,207.0,194.1,10.7
24.5,187.9,197.1,179.5,205.0,192.4,11.1
24.75,190.9,194.3,180.1,209.8,193.8,12.3
25.0,190.2,198.9,179.1,209.1,194.3,12.7
25.25,189.7,197.4,180.8,207.1,193.7,11.2
25.5,191.3,198.4,180.6,206.8,194.3,11.1
25.75,190.5,198.9,179.2,207.3,194.0,12.0
26.0,190.7,197.3,179.0,204.0,192.7,10.7
26.25,189.4,195.2,179.6,203.3,191.9,10.0
26.5,191.7,198.2,180.2,208.8,194.7,12.0
26.75,188.8,200.8,179.0,206.9,193.9,12.4
27.0,193.9,199.1,176.5,203.5,193.3,11.8
27.25,188.7,195.2,179.1,207.0,192.5,11.7
27.5,192.8,198.4,178.8,201.8,192.9,10.1
27.75,192.0,199.7,178.2,203.9,193.4,11.3
28.0,193.7,196.7,177.1,204.9,193.1,11.7
28.25,194.1,191.6,176.1,198.3,190.0,9.7
28.5,195.2,194.2,177.9,201.2,192.1,10.0
28.75,195.0,197.9,175.0,206.0,193.5,13.1
29.0,193.3,197.8,177.5,205.1,193.4,11.7
29.25,197.4,193.5,176.2,201.2,192.1,11.0
29.5,196.7,197.7,177.2,200.8,193.1,10.8
29.75,199.0,200.7,175.4,197.7,193.2,11.9
30.0,203.9,197.3,177.4,199.6,194.6,11.8
30.25,199.9,194.8,176.1,202.2,193.3,11.8
30.5,203.0,196.0,179.3,199.9,194.6,10.6
30.75,201.0,199.8,175.7,200.8,194.3,12.4
31.0,204.3,201.3,175.3,197.6,194.6,13.2
31.25,204.1,203.1,177.0,195.7,195.0,12.6
31.5,207.1,202.7,178.2,198.1,196.5,12.7
31.75,204.6,199.6,175.1,199.7,194.7,13.3
32.0,207.7,198.6,177.4,198.5,195.5,12.9
32.25,209.3,203.5,180.5,200.6,198.5,12.5
32.5,208.3,201.8,178.0,197.3,196.4,13.0
32.75,209.8,203.3,180.8,201.1,198.7,12.5
33.0,211.3,202.0,181.0,197.2,197.9,12.7
33.25,210.4,201.6,184.2,199.0,198.8,10.9
33.5,213.6,205.9,179.0,194.7,198.3,15.0
33.75,216.3,204.8,182.1,198.2,200.4,14.3
34.0,215.8,206.4,183.7,197.1,200.8,13.7
34.25,215.2,206.4,183.9,197.5,200.7,13.4
34.5,216.0,205.7,185.2,197.5,201.1,13.0
34.75,217.0,206.3,182.4,194.6,200.1,14.9
35.0,217.7,206.5,185.4,193.8,200.9,14.2
35.25,221.9,209.1,184.9,195.5,202.8,16.1
35.5,213.1,207.4,185.8,195.9,200.5,12.2
35.75,217.6,207.7,188.5,196.7,202.6,12.7
36.0,213.6,209.4,187.4,195.4,201.4,12.1
36.25,221.1,207.2,187.0,196.5,202.9,14.6
36.5,225.5,205.6,188.0,196.8,204.0,16.0
36.75,221.0,210.8,191.8,195.9,204.9,13.5
37.0,222.0,214.3,193.4,196.6,206.6,13.8
37.25,218.9,211.7,192.3,196.4,204.8,12.6
37.5,222.7,208.5,192.5,195.2,204.7,13.8
37.75,222.4,213.0,196.3,193.6,206.3,13.7
38.0,222.0,220.2,195.4,196.8,208.6,14.5
38.25,217.1,220.2,195.6,195.9,207.2,13.3
38.5,220.6,221.7,197.6,194.4,208.6,14.6
38.75,222.2,222.9,194.3,195.5,208.7,16.0
39.0,225.1,222.6,201.0,196.0,211.2,14.8
39.25,230.7,223.7,197.8,194.2,211.6,18.3
39.5,228.1,228.5,199.1,194.1,212.4,18.4
39.75,230.7,233.3,198.8,192.5,213.8,21.1
40.0,233.0,235.6,201.5,191.9,215.5,22.1
40.25,229.2,231.4,199.9,194.8,213.8,19.1
40.5,229.9,238.7,197.5,192.9,214.7,23.0
40.75,230.8,238.4,204.1,196.9,217.6,20.1
41.0,235.0,239.0,202.3,194.9,217.8,22.4
41.25,234.9,242.7,200.9,195.2,218.4,23.9
41.5,237.9,248.7,201.7,195.0,220.9,26.5
41.75,237.8,250.4,203.2,197.1,222.1,26.0
42.0,240.7,252.8,203.0,201.1,224.4,26.3
42.25,242.0,252.7,204.1,194.5,223.3,28.3
42.5,239.2,254.6,206.2,197.8,224.4,26.9
42.75,241.5,257.8,209.9,194.2,225.9,29.0
43.0,241.9,258.1,207.0,196.0,225.7,29.1
43.25,244.4,262.8,207.4,195.9,227.6,31.3
43.5,247.0,257.0,210.6,196.5,227.8,28.9
43.75,247.2,261.1,210.2,197.1,228.9,30.2
44.0,247.9,267.3,213.8,201.9,232.7,30.2
44.25,248.5,267.4,212.5,199.9,232.1,31.3
44.5,247.6,271.3,212.8,200.5,233.0,32.4
44.75,251.0,271.2,210.8,204.0,234.2,32.2
45.0,247.2,271.2,216.4,205.4,235.1,29.9
45.25,243.5,272.1,216.2,204.1,234.0,30.3
45.5,247.2,273.3,217.9,205.6,236.0,30.4
45.75,247.9,271.8,221.0,205.3,236.5,29.4
46.0,254.5,276.9,220.1,206.1,239.4,32.2
46.25,253.8,273.6,221.4,207.8,239.2,30.0
46.5,252.4,281.0,219.3,211.1,241.0,32.1
46.75,249.4,272.9,223.3,209.7,238.8,28.1
47.0,248.6,272.9,226.5,210.6,239.6,27.1
47.25,247.4,275.6,223.9,,249.0,25.9
47.5,247.0,276.8,227.0,,250.3,25.0
47.75,254.5,275.0,228.6,,252.7,23.3
48.0,246.6,276.2,233.1,,252.0,22.0
48.25,245.6,275.8,228.2,,249.9,24.1
48.5,246.6,278.8,227.4,,250.9,26.0
48.75,243.6,273.3,228.0,,248.3,23.0
49.0,249.4,271.3,232.7,,251.1,19.4
49.25,246.4,277.7,235.0,,253.0,22.1
49.5,243.8,273.4,230.4,,249.2,22.0
49.75,244.4,266.1,230.7,,247.0,17.9
50.0,243.7,271.5,229.6,,248.3,21.3
50.25,244.0,266.0,233.5,,247.8,16.6
50.5,241.6,269.2,231.3,,247.4,19.6
50.75,241.6,267.6,229.2,,246.1,19.6
51.0,244.6,262.7,237.3,,248.2,13.1
51.25,244.3,259.1,231.9,,245.1,13.6
51.5,243.8,260.8,233.5,,246.1,13.8
51.75,244.3,257.0,234.2,,245.2,11.4
52.0,238.5,257.8,233.4,,243.2,12.8
52.25,240.5,252.9,232.5,,242.0,10.3
52.5,241.1,251.7,233.8,,242.2,9.0
52.75,236.8,254.3,232.7,,241.3,11.5
53.0,236.8,251.8,232.4,,240.3,10.2
53.25,240.2,250.3,226.6,,239.0,11.9
53.5,235.8,251.3,228.2,,238.4,11.8
53.75,239.2,246.6,225.1,,237.0,11.0
54.0,237.4,243.8,226.2,,235.8,8.9
54.25,235.3,243.4,224.0,,234.2,9.7
54.5,233.7,248.3,224.1,,235.4,12.2
54.75,234.1,242.1,224.3,,233.5,8.9
55.0,231.1,239.2,217.5,,229.2,11.0
55.25,233.4,234.6,216.7,,228.3,10.0
55.5,237.5,240.4,216.3,,231.4,13.2
55.75,235.6,233.9,213.1,,227.5,12.5
56.0,232.4,238.9,213.7,,228.3,13.1
56.25,235.6,237.8,215.5,,229.6,12.3
56.5,231.2,230.4,208.4,,223.3,12.9
56.75,227.5,228.5,211.2,,222.4,9.7
57.0,232.2,228.7,206.7,,222.5,13.8
57.25,231.2,226.3,199.9,,219.1,16.8
57.5,227.5,228.2,200.4,,218.7,15.9
57.75,229.2,226.5,202.9,,219.5,14.5
58.0,230.0,223.1,198.3,,217.1,16.7
58.25,230.7,222.4,197.5,,216.9,17.2
58.5,229.3,222.1,195.9,,215.8,17.6
58.75,227.2,222.2,193.8,,214.4,18.0
59.0,226.7,219.1,193.1,,213.0,17.6
59.25,220.8,220.2,192.5,,211.1,16.2
59.5,225.9,217.3,191.3,,211.5,18.0
59.75,225.3,213.4,184.5,,207.7,21.0
60.0,223.0,216.0,184.9,,208.0,20.3
60.25,224.1,216.0,183.3,,207.8,21.6
60.5,221.2,214.7,182.6,,206.1,20.7
60.75,220.7,214.7,182.1,,205.8,20.8
61.0,218.9,213.1,180.0,,204.0,21.0
61.25,219.3,210.8,176.6,,202.2,22.6
61.5,217.9,206.4,175.4,,199.9,22.0
61.75,218.0,210.8,173.6,,200.8,23.9
62.0,215.2,213.0,174.0,,200.8,23.2
62.25,216.3,208.4,170.2,,198.3,24.7
62.5,215.2,205.7,172.4,,197.8,22.5
62.75,211.5,206.0,168.6,,195.4,23.3
63.0,215.2,208.3,167.2,,196.9,26.0
63.25,211.3,207.7,166.1,,195.0,25.1
63.5,208.8,203.0,165.8,,192.5,23.3
63.75,204.1,206.7,164.8,,191.9,23.5
64.0,205.3,205.6,163.1,,191.4,24.4
64.25,207.8,204.7,162.4,,191.7,25.4
64.5,204.3,207.2,158.7,,190.1,27.2
64.75,200.1,207.4,160.6,,189.4,25.2
65.0,201.9,204.0,160.9,,188.9,24.3
65.25,200.7,207.8,159.8,,189.4,25.9
65.5,201.8,207.3,160.1,,189.7,25.8
65.75,197.2,204.8,156.0,,186.0,26.2
66.0,199.6,204.6,159.4,,187.9,24.8
66.25,196.4,206.4,157.6,,186.8,25.8
66.5,197.7,205.3,155.7,,186.2,26.7
66.75,196.4,208.0,157.3,,187.2,26.6
67.0,196.3,203.9,155.9,,185.4,25.8
67.25,195.2,202.2,157.3,,184.9,24.2
67.5,194.0,204.9,157.7,,185.5,24.7
67.75,193.3,204.4,156.8,,184.8,24.9
68.0,193.1,206.4,153.7,,184.4,27.4
68.25,192.8,201.7,154.6,,183.0,25.0
68.5,191.1,206.7,155.9,,184.6,26.0
68.75,190.5,206.3,156.5,,184.4,25.5
69.0,191.1,203.9,154.9,,183.3,25.4
69.25,192.1,207.2,159.3,,186.2,24.5
69.5,192.8,205.8,155.7,,184.8,26.0
69.75,192.1,203.2,153.0,,182.8,26.4
70.0,189.8,208.5,156.0,,184.8,26.6
70.25,189.2,206.4,154.3,,183.3,26.6
70.5,189.8,204.0,154.5,,182.8,25.5
70.75,190.1,204.5,156.4,,183.7,24.7
71.0,189.0,202.2,153.4,,181.5,25.2
71.25,186.7,208.6,156.5,,183.9,26.2
71.5,188.5,208.7,156.5,,184.6,26.3
71.75,187.8,208.8,157.2,,184.6,26.0
72.0,189.9,208.9,157.5,,185.4,26.0
72.25,189.0,211.3,157.8,,186.0,26.9
72.5,188.1,213.1,159.4,,186.9,26.8
72.75,188.8,209.3,159.2,,185.8,25.2
73.0,189.4,210.5,155.2,,185.0,27.9
73.25,189.1,207.4,157.5,,184.7,25.2
73.5,189.0,210.1,159.4,,186.2,25.5
73.75,190.4,209.4,161.2,,187.0,24.3
74.0,190.1,209.0,160.0,,186.4,24.7
74.25,189.7,207.5,163.1,,186.8,22.3
74.5,188.0,210.4,163.6,,187.3,23.4
74.75,189.9,209.3,163.3,,187.5,23.1
75.0,190.4,212.6,163.6,,188.8,24.5
75.25,193.7,208.1,169.0,,190.3,19.8
75.5,191.1,208.9,167.7,,189.2,20.6
75.75,190.3,210.1,166.8,,189.1,21.7
76.0,191.9,210.0,165.6,,189.2,22.3
76.25,193.7,210.4,167.8,,190.6,21.5
76.5,193.7,210.5,168.0,,190.7,21.4
76.75,195.1,210.2,168.0,,191.1,21.4
77.0,194.3,209.3,173.1,,192.2,18.2
77.25,195.0,209.6,171.3,,191.9,19.3
77.5,196.0,212.0,168.7,,192.2,21.9
77.75,199.1,210.5,169.2,,192.9,21.3
78.0,195.7,206.9,171.5,,191.3,18.0
78.25,196.5,207.1,171.0,,191.5,18.5
78.5,195.1,206.5,174.0,,191.9,16.5
78.75,198.6,207.0,172.1,,192.6,18.2
79.0,200.4,204.6,174.0,,193.0,16.6
79.25,198.0,203.4,172.1,,191.1,16.7
79.5,197.6,205.3,169.7,,190.9,18.7
79.75,201.8,204.8,174.3,,193.6,16.8
80.0,198.3,206.5,172.7,,192.5,17.6
80.25,202.6,203.0,174.2,,193.3,16.5
80.5,204.1,202.3,172.7,,193.0,17.6
80.75,204.2,204.6,170.5,,193.1,19.5
81.0,200.9,200.8,173.3,,191.7,15.9
81.25,202.5,198.2,170.6,,190.5,17.3
81.5,202.8,201.5,173.0,,192.4,16.9
81.75,202.2,196.8,174.4,,191.1,14.8
82.0,205.3,199.0,173.0,,192.4,17.1
82.25,204.1,198.3,173.9,,192.1,16.0
82.5,200.1,195.1,172.6,,189.3,14.7
82.75,201.4,192.2,172.7,,188.8,14.7
83.0,200.1,195.2,171.0,,188.8,15.6
83.25,200.1,195.1,170.8,,188.7,15.7
83.5,202.9,197.0,170.4,,190.1,17.3
83.75,201.8,192.7,172.1,,188.9,15.2
84.0,206.6,191.4,171.0,,189.7,17.9
84.25,205.4,192.2,170.3,,189.3,17.7
84.5,197.6,189.2,168.1,,185.0,15.2
84.75,199.1,188.8,170.8,,186.2,14.3
85.0,200.8,185.0,166.6,,184.1,17.1
85.25,201.5,185.4,166.9,,184.6,17.3
85.5,202.0,183.5,170.3,,185.3,15.9
85.75,197.9,179.0,167.7,,181.5,15.3
86.0,199.4,179.8,165.0,,181.4,17.3
86.25,198.3,179.0,165.9,,181.1,16.3
86.5,203.4,175.6,164.9,,181.3,19.9
86.75,199.7,179.0,162.0,,180.2,18.9
87.0,197.9,175.3,160.6,,177.9,18.8
87.25,196.9,174.1,163.3,,178.1,17.1
87.5,197.8,174.3,162.8,,178.3,17.8
87.75,195.4,171.3,157.3,,174.6,19.3
88.0,193.7,172.6,159.1,,175.1,17.4
88.25,196.7,170.4,158.7,,175.3,19.5
88.5,192.2,169.7,159.6,,173.8,16.7
88.75,193.8,167.8,157.1,,172.9,18.9
89.0,194.6,169.3,157.0,,173.6,19.2
89.25,192.9,166.0,155.1,,171.3,19.4
89.5,192.6,165.0,158.1,,171.9,18.3
89.75,192.9,164.9,152.6,,170.1,20.6
90.0,189.1,163.2,154.0,,168.8,18.2
90.25,187.5,163.3,153.4,,168.1,17.5
90.5,189.7,163.6,151.8,,168.4,19.4
90.75,186.6,158.7,152.0,,165.8,18.4
91.0,184.0,160.3,150.6,,165.0,17.2
91.25,184.9,157.8,147.5,,163.4,19.3
91.5,182.4,159.7,148.2,,163.4,17.4
91.75,182.9,156.5,149.3,,162.9,17.7
92.0,179.4,157.2,148.5,,161.7,16.0
92.25,178.7,155.0,146.2,,160.0,16.8
92.5,179.9,156.1,145.4,,160.5,17.7
92.75,179.1,152.4,144.1,,158.5,18.3
93.0,179.3,149.3,144.3,,157.6,18.9
93.25,180.0,150.1,144.2,,158.1,19.2
93.5,177.0,148.5,143.1,,156.2,18.2
93.75,174.8,149.5,139.5,,154.6,18.2
94.0,173.4,146.5,141.7,,153.9,17.1
94.25,171.5,144.9,139.4,,151.9,17.2
94.5,169.3,145.2,136.8,,150.4,16.9
94.75,169.9,141.7,139.9,,150.5,16.9
95.0,168.1,140.9,136.2,,148.4,17.2
95.25,169.3,139.6,134.7,,147.9,18.7
95.5,166.7,140.4,134.4,,147.2,17.2
95.75,164.8,140.7,134.1,,146.6,16.1
96.0,163.1,138.4,132.4,,144.7,16.3
96.25,165.1,137.8,130.5,,144.4,18.2
96.5,162.5,135.7,132.6,,143.6,16.4
96.75,160.0,136.1,131.5,,142.5,15.3
97.0,161.6,134.3,128.9,,141.6,17.5
97.25,159.4,133.2,128.6,,140.4,16.6
97.5,161.2,134.5,130.3,,142.0,16.8
97.75,158.4,131.9,127.4,,139.2,16.7
98.0,157.1,133.4,128.7,,139.7,15.3
98.25,154.4,129.6,124.5,,136.1,16.0
98.5,154.3,129.9,123.8,,136.0,16.1
98.75,153.2,129.7,122.7,,135.2,16.0
99.0,153.3,127.9,121.7,,134.3,16.7
99.25,154.0,128.0,120.9,,134.3,17.4
99.5,150.9,126.3,117.8,,131.7,17.2
99.75,150.9,125.5,116.8,,131.1,17.7
100.0,149.8,125.3,119.5,,131.5,16.1
100.25,149.4,124.3,115.8,,129.8,17.4
100.5,147.4,121.2,115.0,,127.9,17.2
100.75,147.2,121.6,114.0,,127.6,17.4
101.0,145.3,122.1,115.0,,127.5,15.8
101.25,144.0,120.4,112.9,,125.8,16.2
101.5,142.9,118.4,113.1,,124.8,15.9
101.75,143.3,118.0,109.9,,123.7,17.5
102.0,142.0,117.8,109.7,,123.2,16.8
102.25,139.2,117.1,108.5,,121.6,15.8
102.5,139.8,116.5,108.2,,121.5,16.4
102.75,140.8,116.0,107.0,,121.3,17.5
103.0,136.6,116.3,105.9,,119.6,15.6
103.25,137.6,114.9,104.5,,119.0,16.9
103.5,135.2,114.9,104.3,,118.1,15.7
103.75,134.0,114.3,104.8,,117.7,14.9
104.0,131.6,114.0,103.3,,116.3,14.2
104.25,131.4,112.1,102.4,,115.3,14.8
104.5,131.1,111.8,104.2,,115.7,13.9
104.75,128.2,110.3,101.2,,113.2,13.8
105.0,128.0,110.8,100.6,,113.1,13.8
105.25,126.1,109.7,101.1,,112.3,12.7
105.5,126.4,107.6,99.1,,111.0,14.0
105.75,126.5,108.1,97.7,,110.8,14.6
106.0,124.5,106.7,97.2,,109.5,13.9
106.25,123.4,107.4,96.1,,109.0,13.7
106.5,123.1,106.5,94.4,,108.0,14.4
106.75,122.1,106.5,94.1,,107.6,14.1
107.0,120.7,105.3,94.2,,106.7,13.3
107.25,120.5,104.1,93.6,,106.1,13.5
107.5,120.0,104.8,92.0,,105.6,14.0
107.75,118.7,101.5,90.6,,103.6,14.2
108.0,116.8,100.7,90.9,,102.8,13.1
108.25,115.9,99.0,90.5,,101.8,12.9
108.5,117.1,101.1,90.6,,102.9,13.3
108.75,115.2,98.7,88.6,,100.9,13.4
109.0,114.7,97.6,87.0,,99.8,14.0
109.25,113.9,97.5,87.3,,99.6,13.4
109.5,113.5,97.0,86.4,,99.0,13.7
109.75,113.9,97.8,85.9,,99.2,14.1
110.0,113.1,95.9,86.1,,98.4,13.6
110.25,112.1,95.4,86.4,,98.0,13.0
110.5,112.6,95.5,85.5,,97.9,13.7
110.75,111.5,94.0,84.4,,96.6,13.8
111.0,111.2,95.4,84.2,,96.9,13.6
111.25,109.9,93.4,83.2,,95.5,13.5
111.5,109.7,93.4,84.1,,95.7,13.0
111.75,108.4,94.2,83.1,,95.3,12.7
112.0,106.3,92.1,82.4,,93.6,12.0
112.25,107.1,92.0,82.0,,93.7,12.6
112.5,105.5,92.4,81.3,,93.1,12.1
112.75,105.1,90.9,81.4,,92.5,11.9
113.0,105.2,91.7,80.5,,92.5,12.3
113.25,104.9,89.7,79.5,,91.4,12.8
113.5,103.0,90.3,81.3,,91.5,10.9
113.75,101.9,88.7,79.5,,90.0,11.3
114.0,101.7,88.3,77.9,,89.3,12.0
114.25,100.9,86.7,78.3,,88.6,11.5
114.5,100.3,87.9,77.4,,88.5,11.5
114.75,100.5,87.8,76.1,,88.1,12.2
115.0,100.9,86.0,75.8,,87.6,12.6
115.25,98.3,86.9,75.9,,87.0,11.2
115.5,100.1,86.9,74.7,,87.3,12.7
115.75,98.6,85.5,73.9,,86.0,12.3
116.0,96.8,85.1,73.3,,85.1,11.8
116.25,96.0,84.3,74.1,,84.8,11.0
116.5,97.6,86.8,73.9,,86.1,11.9
116.75,95.7,85.3,73.6,,84.9,11.1
117.0,96.8,84.3,73.8,,85.0,11.5
117.25,96.2,84.7,72.4,,84.4,11.9
117.5,95.8,84.4,72.7,,84.3,11.5
117.75,94.5,83.8,73.3,,83.9,10.6
118.0,93.8,84.7,72.6,,83.7,10.6
118.25,91.8,84.0,70.6,,82.1,10.7
118.5,91.9,82.9,70.8,,81.9,10.6
118.75,92.5,82.9,70.9,,82.1,10.8
119.0,91.4,83.6,71.2,,82.1,10.2
119.25,91.5,82.6,70.5,,81.5,10.6
119.5,91.1,83.5,69.8,,81.5,10.8
119.75,91.3,81.9,70.3,,81.2,10.5
120.0,90.0,81.7,69.0,,80.2,10.6
120.25,89.6,80.7,68.9,,79.7,10.4
120.5,89.0,80.5,68.5,,79.3,10.3
120.75,89.8,79.9,66.8,,78.8,11.5
121.0,88.6,78.7,68.7,,78.7,10.0
121.25,90.0,80.6,68.0,,79.6,11.1
121.5,88.8,78.6,67.5,,78.3,10.6
121.75,88.4,77.7,67.9,,78.0,10.3
122.0,86.4,80.4,66.9,,77.9,10.0
122.25,87.5,77.8,66.6,,77.3,10.5
122.5,86.9,77.1,66.6,,76.8,10.2
122.75,87.0,77.6,65.9,,76.8,10.6
123.0,85.4,75.9,64.9,,75.4,10.3
123.25,86.1,77.7,65.4,,76.4,10.4
123.5,84.3,75.0,65.2,,74.8,9.5
123.75,85.0,76.2,65.5,,75.6,9.8
124.0,83.6,75.4,64.2,,74.4,9.8
124.25,83.5,74.9,64.1,,74.2,9.7
124.5,82.2,74.8,65.2,,74.1,8.5
124.75,83.1,75.2,64.7,,74.3,9.2
125.0,82.3,73.7,64.3,,73.4,9.0
125.25,81.9,73.1,63.3,,72.8,9.3
125.5,82.5,73.0,63.3,,72.9,9.6
125.75,82.0,73.6,62.7,,72.7,9.7
126.0,82.5,73.7,62.2,,72.8,10.2
126.25,82.0,71.9,63.1,,72.4,9.5
126.5,81.6,73.2,62.7,,72.5,9.5
126.75,81.2,72.3,62.0,,71.8,9.6
127.0,80.1,72.4,62.6,,71.7,8.7
127.25,80.1,71.5,62.6,,71.4,8.7
127.5,81.2,72.2,61.5,,71.6,9.8
127.75,80.3,71.1,61.5,,71.0,9.4
128.0,80.5,71.5,62.4,,71.5,9.0
128.25,79.6,71.4,61.5,,70.8,9.1
128.5,79.0,71.1,62.3,,70.8,8.3
128.75,80.0,71.0,61.4,,70.8,9.3
129.0,79.3,71.5,60.8,,70.5,9.3
129.25,78.8,71.1,60.8,,70.2,9.0
129.5,78.1,72.5,60.5,,70.4,9.0
129.75,78.2,69.4,59.8,,69.2,9.2
130.0,78.4,71.5,60.2,,70.0,9.2
130.25,78.5,71.5,59.0,,69.6,9.9
130.5,77.4,70.3,59.3,,69.0,9.1
130.75,76.4,70.9,59.1,,68.8,8.8
131.0,77.0,70.8,59.6,,69.1,8.8
131.25,76.2,70.7,58.8,,68.6,8.9
131.5,76.2,69.4,59.1,,68.2,8.6
131.75,76.9,69.4,58.2,,68.1,9.4
132.0,76.7,69.9,58.1,,68.2,9.4
132.25,75.4,69.8,58.4,,67.8,8.7
132.5,75.8,69.4,57.4,,67.6,9.3
132.75,76.6,68.6,57.5,,67.5,9.6
133.0,75.6,69.3,57.3,,67.4,9.3
133.25,74.6,68.5,57.6,,66.9,8.6
133.5,75.3,68.8,58.2,,67.4,8.7
133.75,74.6,68.4,57.4,,66.8,8.7
134.0,74.4,68.5,57.1,,66.7,8.8
134.25,74.3,67.7,56.7,,66.2,8.9
134.5,74.1,67.7,57.3,,66.4,8.5
134.75,74.9,67.9,57.3,,66.7,8.9
135.0,73.3,67.7,56.4,,65.8,8.6
135.25,72.8,67.4,56.5,,65.6,8.3
135.5,72.7,67.3,56.5,,65.5,8.2
135.75,72.3,67.6,57.6,,65.8,7.5
136.0,72.4,66.9,56.9,,65.4,7.9
136.25,72.7,67.2,56.6,,65.5,8.2
136.5,71.5,66.9,56.3,,64.9,7.8
136.75,72.2,64.9,56.5,,64.5,7.9
137.0,72.1,66.1,56.2,,64.8,8.0
137.25,72.1,65.7,55.8,,64.5,8.2
137.5,71.5,65.9,55.6,,64.4,8.1
137.75,71.2,65.3,55.4,,64.0,8.0
138.0,71.6,65.7,55.5,,64.2,8.1
138.25,70.7,65.3,55.8,,63.9,7.5
138.5,70.9,65.1,55.6,,63.9,7.8
138.75,69.4,65.5,54.8,,63.2,7.5
139.0,70.4,65.7,54.2,,63.4,8.3
139.25,69.0,65.4,54.7,,63.0,7.5
139.5,69.7,65.2,54.4,,63.1,7.9
139.75,68.7,65.5,54.0,,62.7,7.7
140.0,68.5,64.9,54.8,,62.7,7.1
140.25,69.5,64.0,55.3,,62.9,7.1
140.5,68.9,64.1,53.9,,62.3,7.7
140.75,68.1,65.5,54.4,,62.7,7.3
141.0,68.6,64.8,52.9,,62.1,8.2
141.25,68.5,64.3,52.7,,61.8,8.2
141.5,66.7,64.5,54.1,,61.8,6.7
141.75,67.8,63.9,52.8,,61.5,7.8
142.0,67.1,63.8,53.0,,61.3,7.4
142.25,66.7,63.1,52.7,,60.8,7.3
142.5,67.9,64.0,53.2,,61.7,7.6
142.75,66.2,64.6,52.4,,61.1,7.5
143.0,66.8,64.0,53.1,,61.3,7.2
143.25,66.1,63.9,53.1,,61.0,6.9
143.5,67.1,63.6,53.1,,61.3,7.2
143.75,66.0,63.7,52.2,,60.6,7.4
144.0,65.8,63.3,52.5,,60.5,7.1
144.25,65.4,63.3,53.0,,60.6,6.6
144.5,65.8,63.9,52.5,,60.7,7.2
144.75,66.1,64.1,52.2,,60.8,7.5
145.0,65.7,63.7,52.0,,60.5,7.4
145.25,64.3,62.7,51.8,,59.6,6.8
145.5,64.8,63.5,52.0,,60.1,7.0
145.75,64.5,63.2,52.9,,60.2,6.4
146.0,64.4,63.0,52.5,,60.0,6.5
146.25,63.1,62.1,51.5,,58.9,6.4
146.5,64.1,63.3,51.9,,59.8,6.8
146.75,63.7,63.0,51.7,,59.5,6.7
147.0,63.6,63.5,51.9,,59.7,6.7
147.25,63.0,62.9,51.0,,59.0,6.9
147.5,62.9,64.1,51.4,,59.5,7.0
147.75,63.0,63.7,51.9,,59.6,6.6
148.0,63.4,62.9,52.5,,59.6,6.1
148.25,62.1,62.7,51.9,,58.9,6.1
148.5,62.1,61.6,51.7,,58.5,5.9
148.75,62.0,61.9,51.7,,58.6,5.9
149.0,61.7,63.1,51.6,,58.8,6.3
149.25,61.4,63.0,51.2,,58.5,6.4
149.5,60.9,61.6,51.4,,58.0,5.7
149.75,60.5,62.0,50.9,,57.8,6.0
150.0,60.7,62.8,50.9,,58.1,6.4
150.25,59.8,61.6,50.9,,57.4,5.8
150.5,59.7,62.5,51.2,,57.8,5.9
150.75,60.3,61.5,50.6,,57.5,5.9
151.0,60.0,61.9,50.3,,57.4,6.2
151.25,58.9,62.5,49.7,,57.0,6.6
151.5,59.9,62.0,50.8,,57.6,6.0
151.75,59.1,61.2,49.9,,56.7,6.0
152.0,58.1,62.0,49.8,,56.6,6.3
152.25,58.7,61.0,49.6,,56.4,6.0
152.5,57.7,60.6,50.4,,56.2,5.2
152.75,57.5,60.3,49.9,,55.9,5.4
153.0,57.2,61.6,49.7,,56.2,6.0
153.25,57.8,61.1,49.4,,56.1,6.0
153.5,57.8,60.2,49.3,,55.7,5.7
153.75,57.2,60.5,49.1,,55.6,5.9
154.0,56.7,60.9,48.0,,55.2,6.6
154.25,57.8,60.8,48.4,,55.7,6.5
154.5,56.6,60.4,48.2,,55.1,6.2
154.75,56.2,59.7,48.6,,54.8,5.7
155.0,56.4,59.4,48.7,,54.9,5.5
155.25,56.4,60.4,48.5,,55.1,6.0
155.5,55.6,60.5,48.1,,54.8,6.2
155.75,55.1,60.2,48.0,,54.4,6.2
156.0,55.7,60.4,48.2,,54.8,6.1
156.25,54.7,59.2,48.0,,54.0,5.7
156.5,54.7,59.1,48.3,,54.0,5.4
156.75,54.5,59.4,48.0,,54.0,5.7
157.0,54.4,58.9,47.3,,53.5,5.8
157.25,54.1,58.9,47.5,,53.5,5.7
157.5,53.6,58.3,48.2,,53.4,5.1
157.75,54.2,58.5,47.5,,53.4,5.6
158.0,53.2,58.0,47.4,,52.9,5.3
158.25,53.3,57.4,47.7,,52.8,4.9
158.5,52.4,58.3,47.6,,52.8,5.4
158.75,52.4,58.0,46.4,,52.3,5.8
159.0,52.8,57.9,46.6,,52.4,5.7
159.25,52.5,57.9,46.8,,52.4,5.5
159.5,51.8,57.9,46.3,,52.0,5.8
159.75,52.8,57.8,47.1,,52.6,5.3
160.0,52.7,57.9,46.9,,52.5,5.5
160.25,51.5,57.3,46.6,,51.8,5.3
160.5,51.2,58.2,46.4,,52.0,5.9
160.75,51.9,58.3,46.5,,52.3,5.9
161.0,50.0,56.6,45.7,,50.8,5.4
161.25,50.8,57.1,45.9,,51.3,5.6
161.5,51.1,57.6,46.4,,51.7,5.6
161.75,50.5,56.6,45.6,,50.9,5.5
162.0,50.4,56.9,45.3,,50.9,5.8
162.25,50.2,57.0,45.5,,50.9,5.7
162.5,50.3,56.9,45.4,,50.9,5.8
162.75,49.3,56.5,45.2,,50.3,5.7
163.0,50.1,56.6,45.3,,50.7,5.7
163.25,49.5,56.7,45.7,,50.6,5.6
163.5,49.5,56.8,44.9,,50.4,6.0
163.75,48.9,56.0,45.3,,50.1,5.4
164.0,49.1,56.2,45.1,,50.1,5.6
164.25,49.3,55.8,45.5,,50.2,5.2
164.5,49.0,56.9,44.9,,50.3,6.1
164.75,48.5,56.3,44.8,,49.9,5.9
165.0,48.2,55.8,44.5,,49.5,5.8
165.25,48.3,55.5,45.3,,49.7,5.3
165.5,49.2,56.0,44.8,,50.0,5.7
165.75,48.6,56.4,44.8,,49.9,5.9
166.0,48.0,55.3,44.5,,49.3,5.5
166.25,48.1,55.5,44.3,,49.3,5.7
166.5,47.9,55.5,45.0,,49.5,5.4
166.75,47.5,55.5,44.5,,49.1,5.7
167.0,47.2,56.2,44.0,,49.1,6.3
167.25,47.1,55.0,44.2,,48.7,5.6
167.5,45.9,55.3,44.1,,48.4,6.0
167.75,46.3,55.0,43.4,,48.2,6.0
168.0,46.4,54.7,43.6,,48.2,5.8
168.25,45.6,55.1,43.7,,48.1,6.1
168.5,45.4,54.3,43.3,,47.7,5.8
168.75,45.4,54.8,43.8,,48.0,5.9
169.0,45.6,54.4,43.9,,47.9,5.6
169.25,45.3,54.8,43.6,,47.9,6.1
169.5,45.0,54.3,43.3,,47.5,5.9
169.75,44.7,54.3,43.4,,47.5,6.0
170.0,44.6,53.9,43.4,,47.3,5.8
170.25,44.4,53.9,43.7,,47.3,5.7
170.5,44.2,52.1,43.3,,46.5,4.9
170.75,44.3,52.9,43.3,,46.8,5.3
171.0,43.2,53.2,43.9,,46.8,5.5
171.25,43.6,52.7,42.2,,46.2,5.7
171.5,43.4,53.2,43.1,,46.5,5.7
171.75,42.6,53.4,43.0,,46.3,6.2
172.0,43.0,52.3,41.7,,45.7,5.8
172.25,42.5,52.5,42.1,,45.7,5.9
172.5,42.8,52.7,41.4,,45.6,6.2
172.75,41.9,52.9,41.8,,45.5,6.4
173.0,43.2,52.3,41.0,,45.5,5.9
173.25,41.8,52.9,42.1,,45.6,6.3
173.5,42.9,52.7,41.1,,45.6,6.2
173.75,41.6,52.4,41.3,,45.1,6.3
174.0,40.8,52.0,40.5,,44.4,6.6
174.25,41.2,51.2,40.5,,44.3,6.0
174.5,41.1,51.1,41.5,,44.6,5.7
174.75,41.2,51.5,40.8,,44.5,6.1
175.0,40.7,51.4,41.6,,44.6,5.9
175.25,40.7,51.2,40.7,,44.2,6.1
175.5,40.3,50.7,40.5,,43.8,6.0
175.75,40.7,51.1,40.8,,44.2,6.0
176.0,40.3,50.4,40.3,,43.7,5.8
176.25,39.9,50.2,40.9,,43.7,5.7
176.5,40.3,50.5,39.9,,43.5,6.0
176.75,39.6,50.5,40.2,,43.5,6.1
177.0,39.4,50.6,39.2,,43.1,6.5
177.25,39.3,49.7,39.4,,42.8,6.0
177.5,39.2,50.2,40.1,,43.2,6.1
177.75,38.6,49.0,39.6,,42.4,5.7
178.0,38.4,49.7,39.2,,42.4,6.3
178.25,38.6,48.8,39.4,,42.3,5.7
178.5,38.7,49.7,38.9,,42.4,6.3
178.75,38.6,49.7,39.0,,42.4,6.3
179.0,38.7,49.4,39.1,,42.4,6.0
179.25,38.4,49.0,39.0,,42.2,6.0
179.5,37.6,48.9,39.6,,42.0,6.1
179.75,37.5,48.5,39.0,,41.7,6.0
180.0,37.6,48.1,39.1,,41.6,5.7
180.25,37.5,48.5,39.4,,41.8,5.9
180.5,37.2,47.9,39.0,,41.4,5.7
180.75,37.0,47.9,39.2,,41.4,5.8
181.0,36.9,47.6,38.8,,41.1,5.7
181.25,36.4,47.5,39.4,,41.1,5.7
181.5,36.1,47.5,38.8,,40.8,5.9
181.75,36.2,47.2,38.9,,40.8,5.7
182.0,36.6,47.6,38.5,,40.9,5.9
182.25,36.2,46.8,38.7,,40.6,5.6
182.5,36.2,47.8,38.5,,40.9,6.1
182.75,36.7,47.9,38.6,,41.1,6.0
183.0,35.5,47.3,38.7,,40.5,6.1
183.25,36.0,47.3,37.8,,40.3,6.1
183.5,35.3,46.9,37.9,,40.0,6.1
183.75,35.9,46.9,37.9,,40.2,5.9
184.0,35.3,47.4,38.7,,40.5,6.3
184.25,35.3,47.0,37.8,,40.0,6.1
184.5,35.1,46.9,37.6,,39.9,6.2
184.75,35.2,46.5,37.8,,39.8,5.9
185.0,35.3,46.2,37.7,,39.7,5.7
185.25,34.9,46.7,37.6,,39.7,6.2
185.5,35.0,47.1,37.5,,39.9,6.4
185.75,34.6,46.4,37.3,,39.4,6.2
186.0,34.7,46.4,37.3,,39.5,6.1
186.25,34.7,46.1,36.9,,39.2,6.0
186.5,34.4,45.5,37.3,,39.1,5.8
186.75,34.8,45.8,36.8,,39.1,5.9
187.0,34.3,45.5,36.8,,38.9,5.9
187.25,34.3,45.1,37.2,,38.8,5.6
187.5,33.9,45.6,36.6,,38.7,6.1
187.75,33.4,45.1,36.5,,38.3,6.0
188.0,33.1,45.4,36.5,,38.3,6.4
188.25,33.1,45.0,36.3,,38.1,6.2
188.5,32.7,45.0,37.1,,38.3,6.3
188.75,32.5,45.1,36.8,,38.2,6.4
189.0,32.6,44.8,36.9,,38.1,6.2
189.25,32.5,44.5,36.5,,37.8,6.1
189.5,32.1,44.9,36.7,,37.9,6.5
189.75,32.3,45.5,36.7,,38.2,6.7
190.0,31.9,44.0,36.8,,37.6,6.1
190.25,32.1,44.8,36.2,,37.7,6.5
190.5,31.6,44.5,36.5,,37.5,6.5
190.75,31.7,44.5,35.8,,37.4,6.5
191.0,31.4,44.5,36.6,,37.5,6.6
191.25,31.3,43.8,36.1,,37.1,6.3
191.5,31.3,43.3,36.4,,37.0,6.0
191.75,31.2,43.7,36.3,,37.1,6.3
192.0,30.9,42.8,35.7,,36.5,6.0
192.25,30.8,43.1,35.8,,36.6,6.2
192.5,30.8,42.8,35.6,,36.4,6.1
192.75,30.2,43.1,35.5,,36.3,6.5
193.0,30.1,42.5,35.7,,36.1,6.2
193.25,30.5,42.5,35.3,,36.1,6.1
193.5,30.5,42.5,35.4,,36.2,6.0
193.75,30.3,43.4,34.9,,36.2,6.7
194.0,30.2,42.7,34.5,,35.8,6.4
194.25,29.9,42.2,34.8,,35.7,6.2
194.5,29.5,42.0,34.5,,35.3,6.3
194.75,29.8,42.6,33.9,,35.4,6.5
195.0,29.7,42.2,34.3,,35.4,6.3
195.25,28.9,41.8,34.2,,35.0,6.5
195.5,29.2,42.0,34.0,,35.1,6.4
195.75,29.3,41.4,33.5,,34.7,6.1
196.0,29.1,41.2,34.0,,34.8,6.1
196.25,29.2,41.1,34.0,,34.8,6.0
196.5,28.9,41.2,33.5,,34.5,6.2
196.75,28.5,40.9,33.2,,34.2,6.3
197.0,28.4,41.6,34.0,,34.7,6.6
197.25,28.6,41.2,33.1,,34.3,6.4
197.5,28.0,40.9,33.4,,34.1,6.4
197.75,28.4,40.9,33.4,,34.3,6.3
198.0,28.1,40.8,32.9,,34.0,6.4
198.25,28.2,40.3,33.4,,34.0,6.0
198.5,28.0,41.0,32.6,,33.9,6.6
198.75,27.7,40.6,33.0,,33.8,6.5
199.0,27.5,40.6,32.9,,33.7,6.5
199.25,27.9,40.1,33.1,,33.7,6.1
199.5,27.5,40.6,32.9,,33.7,6.6
199.75,27.8,40.1,32.6,,33.5,6.2
200.0,27.5,39.7,33.0,,33.4,6.1
200.25,27.4,39.3,32.8,,33.2,5.9
200.5,27.6,39.5,32.3,,33.1,6.0
200.75,27.5,39.8,33.0,,33.4,6.1
201.0,27.3,39.3,33.1,,33.2,6.0
201.25,27.6,39.5,33.2,,33.4,5.9
201.5,27.6,39.2,33.0,,33.2,5.8
201.75,27.7,38.7,32.2,,32.9,5.5
202.0,27.4,39.0,32.8,,33.1,5.8
202.25,27.6,38.5,32.8,,33.0,5.5
202.5,27.3,37.9,32.3,,32.5,5.3
202.75,27.3,39.2,32.9,,33.1,6.0
203.0,27.4,37.7,32.3,,32.5,5.1
203.25,27.3,38.2,32.7,,32.8,5.4
203.5,27.5,38.2,32.4,,32.7,5.4
203.75,27.3,37.7,32.6,,32.6,5.2
204.0,27.0,38.0,31.8,,32.3,5.5
204.25,27.2,37.5,32.3,,32.4,5.1
204.5,27.2,37.4,31.6,,32.1,5.2
204.75,26.9,37.5,32.0,,32.2,5.3
205.0,27.0,37.3,31.4,,31.9,5.2
205.25,26.6,37.5,31.2,,31.8,5.4
205.5,26.4,36.8,31.4,,31.6,5.2
205.75,26.6,37.3,31.1,,31.6,5.3
206.0,26.5,37.7,31.4,,31.9,5.6
206.25,26.7,37.1,31.7,,31.8,5.2
206.5,26.4,37.1,30.7,,31.4,5.4
206.75,26.6,37.0,30.9,,31.5,5.2
207.0,26.6,37.2,31.5,,31.8,5.3
207.25,26.7,36.7,30.7,,31.4,5.0
207.5,26.8,37.0,31.2,,31.7,5.1
207.75,26.3,36.9,30.9,,31.4,5.3
208.0,26.7,36.9,31.1,,31.6,5.1
208.25,26.2,37.3,30.9,,31.5,5.6
208.5,26.0,37.0,31.4,,31.5,5.5
208.75,26.0,37.4,31.0,,31.5,5.7
209.0,26.1,36.5,30.9,,31.2,5.2
209.25,26.5,36.3,30.3,,31.0,5.0
209.5,26.4,36.5,30.9,,31.3,5.0
209.75,26.2,36.7,30.7,,31.2,5.3
210.0,25.9,36.7,30.6,,31.1,5.4
210.25,26.1,36.9,30.5,,31.2,5.5
210.5,25.9,36.6,30.6,,31.1,5.3
210.75,26.2,36.0,31.0,,31.1,4.9
211.0,26.1,37.3,30.7,,31.4,5.6
211.25,25.9,36.8,30.5,,31.1,5.4
211.5,25.7,36.5,30.1,,30.8,5.4
211.75,25.7,36.9,30.1,,30.9,5.6
212.0,25.5,37.2,30.1,,30.9,5.9
212.25,25.4,36.4,29.8,,30.6,5.5
212.5,25.5,36.4,29.9,,30.6,5.5
212.75,25.6,36.2,29.5,,30.5,5.4
213.0,25.6,36.2,29.5,,30.4,5.4
213.25,25.3,36.6,29.6,,30.5,5.7
213.5,25.2,36.2,29.1,,30.2,5.6
213.75,24.9,36.2,29.2,,30.1,5.7
214.0,25.0,35.5,28.6,,29.7,5.4
214.25,25.1,36.1,29.0,,30.1,5.6
214.5,24.5,36.0,28.8,,29.8,5.8