File: 01_Data/Vinyl_Tile/Cone/Vinyl_Tile_HRRPUA_50.csv
Time after Ignition,Vinyl_Tile_R1,Vinyl_Tile_R2,Vinyl_Tile_R3,Vinyl_Tile_R4,Mean,Std. Dev.
0.0,13.0,9.2,10.6,11.0,11.0,1.6
0.25,15.8,10.8,12.7,11.6,12.7,2.2
0.5,18.3,12.1,14.4,14.1,14.7,2.6
0.75,20.4,14.9,16.1,16.6,17.0,2.4
1.0,22.4,17.5,19.0,16.5,18.8,2.6
1.25,24.8,19.7,22.0,18.9,21.4,2.7
1.5,28.2,21.9,24.7,20.5,23.8,3.4
1.75,31.5,25.5,27.1,24.1,27.0,3.2
2.0,34.8,29.0,29.1,27.5,30.1,3.2
2.25,37.3,32.0,31.2,30.7,32.8,3.0
2.5,41.4,33.7,35.1,33.4,35.9,3.7
2.75,45.0,36.9,38.2,38.6,39.7,3.6
3.0,48.7,38.5,41.8,42.1,42.8,4.3
3.25,51.3,41.9,44.9,46.7,46.2,3.9
3.5,56.2,45.1,47.2,49.7,49.6,4.8
3.75,59.3,47.9,49.3,54.1,52.7,5.2
4.0,62.4,50.3,51.5,58.0,55.5,5.7
4.25,67.0,53.3,53.6,62.0,59.0,6.7
4.5,67.8,56.2,55.7,65.0,61.2,6.2
4.75,72.2,58.6,57.5,68.3,64.2,7.2
5.0,75.1,61.2,60.4,71.9,67.1,7.4
5.25,78.0,66.0,62.2,74.2,70.1,7.2
5.5,79.7,67.7,64.4,76.1,72.0,7.1
5.75,83.6,72.0,66.2,79.5,75.3,7.7
6.0,86.1,74.0,67.3,82.8,77.5,8.5
6.25,87.8,76.7,70.1,86.6,80.3,8.4
6.5,89.9,78.4,71.6,88.5,82.1,8.7
6.75,92.3,82.2,73.3,90.8,84.7,8.8
7.0,94.2,85.9,75.0,93.5,87.1,8.9
7.25,97.9,87.4,76.7,97.5,89.8,10.1
7.5,97.0,90.9,79.1,97.0,91.0,8.4
7.75,99.1,93.3,81.0,96.0,92.3,7.9
8.0,101.4,94.8,83.3,101.4,95.2,8.5
8.25,103.7,97.4,83.9,102.4,96.8,9.1
8.5,102.8,100.8,86.1,103.5,98.3,8.2
8.75,105.9,101.4,88.2,104.5,100.0,8.1
9.0,106.7,103.0,90.0,106.9,101.7,8.0
9.25,108.9,104.5,90.8,109.0,103.3,8.6
9.5,111.6,107.5,92.3,112.6,106.0,9.4
9.75,112.4,106.2,95.3,112.6,106.6,8.1
10.0,114.5,109.9,96.5,112.4,108.3,8.1
10.25,115.8,114.1,99.7,115.6,111.3,7.8
10.5,118.7,114.0,99.5,114.8,111.8,8.4
10.75,119.6,113.8,102.7,115.3,112.8,7.2
11.0,120.7,114.3,104.3,115.4,113.7,6.8
11.25,123.8,114.7,105.4,117.0,115.2,7.6
11.5,126.0,119.4,108.6,115.6,117.4,7.3
11.75,126.9,116.3,110.8,116.7,117.7,6.7
12.0,125.7,119.2,110.6,116.4,118.0,6.3
12.25,128.0,119.9,111.9,116.5,119.1,6.8
12.5,128.4,122.6,113.0,116.7,120.2,6.8
12.75,129.3,124.3,114.2,114.6,120.6,7.4
13.0,127.2,122.8,115.9,117.0,120.7,5.3
13.25,129.2,126.5,118.2,115.5,122.3,6.5
13.5,131.8,127.5,118.7,115.5,123.4,7.6
13.75,132.3,127.4,117.6,118.7,124.0,7.1
14.0,134.5,129.8,120.6,115.7,125.1,8.5
14.25,134.6,131.2,121.8,117.9,126.4,7.8
14.5,134.6,132.6,121.8,117.6,126.6,8.2
14.75,136.7,131.3,124.5,119.6,128.0,7.5
15.0,132.8,134.1,124.7,120.7,128.1,6.4
15.25,134.1,135.6,126.3,123.4,129.9,5.9
15.5,135.5,138.7,126.9,124.9,131.5,6.7
15.75,135.3,136.2,128.8,129.7,132.5,3.8
16.0,136.6,138.7,128.2,129.3,133.2,5.2
16.25,135.9,142.6,128.4,131.1,134.5,6.2
16.5,138.2,141.4,129.8,133.4,135.7,5.1
16.75,139.6,143.2,131.7,138.0,138.1,4.8
17.0,138.8,145.0,131.6,137.7,138.3,5.5
17.25,138.5,145.7,133.9,144.4,140.6,5.5
17.5,141.6,147.6,135.4,145.3,142.5,5.3
17.75,141.7,145.0,136.0,144.8,141.9,4.2
18.0,142.3,147.0,134.5,147.2,142.8,5.9
18.25,144.1,147.7,138.4,149.9,145.0,5.0
18.5,143.6,150.7,138.2,151.7,146.0,6.3
18.75,144.7,148.5,139.5,155.9,147.1,6.9
19.0,145.3,149.9,140.0,156.1,147.8,6.9
19.25,147.8,151.7,138.9,158.1,149.1,8.1
19.5,150.1,151.5,138.4,158.5,149.6,8.3
19.75,146.4,155.1,142.7,161.8,151.5,8.6
20.0,148.3,153.7,140.8,163.3,151.5,9.5
20.25,148.8,154.4,141.6,163.3,152.0,9.1
20.5,151.6,157.8,144.4,165.9,154.9,9.1
20.75,149.9,157.9,141.2,165.3,153.6,10.4
21.0,150.7,157.2,142.2,166.3,154.1,10.2
21.25,150.5,156.4,142.1,165.6,153.6,9.9
21.5,154.6,156.7,142.8,168.3,155.6,10.4
21.75,150.9,160.6,141.0,168.6,155.3,11.9
22.0,153.2,158.4,142.4,169.1,155.8,11.1
22.25,155.0,158.6,142.8,169.9,156.6,11.2
22.5,155.6,158.7,142.5,171.6,157.1,12.0
22.75,156.8,158.5,142.5,169.6,156.8,11.1
23.0,156.5,159.3,144.1,170.4,157.6,10.8
23.25,155.4,158.6,142.1,173.7,157.5,13.0
23.5,156.5,159.9,145.1,172.4,158.5,11.2
23.75,156.4,161.4,143.1,170.3,157.8,11.3
24.0,158.9,161.0,144.5,169.9,158.6,10.5
24.25,161.1,159.8,141.5,172.8,158.8,12.9
24.5,157.5,161.0,141.7,173.0,158.3,12.9
24.75,162.5,161.9,143.6,171.7,159.9,11.8
25.0,162.9,160.7,144.4,174.5,160.6,12.4
25.25,162.1,160.7,140.2,173.2,159.0,13.8
25.5,163.8,161.7,141.5,175.8,160.7,14.2
25.75,165.0,160.4,141.3,173.5,160.1,13.6
26.0,164.7,162.5,141.1,173.7,160.5,13.8
26.25,164.5,161.4,141.0,174.1,160.2,13.9
26.5,167.0,159.2,140.7,174.8,160.4,14.6
26.75,166.2,160.1,139.4,173.2,159.7,14.6
27.0,168.1,160.5,141.2,172.4,160.6,13.8
27.25,166.5,160.3,139.8,173.5,160.0,14.5
27.5,164.7,159.2,140.7,172.7,159.3,13.6
27.75,166.8,159.9,139.4,172.7,159.7,14.5
28.0,164.5,163.3,138.7,171.6,159.5,14.3
28.25,168.7,161.2,139.8,176.6,161.6,15.9
28.5,171.1,160.4,141.6,177.5,162.6,15.7
28.75,169.4,161.7,138.7,175.0,161.2,16.0
29.0,171.2,163.0,137.9,171.8,160.9,15.9
29.25,169.9,159.4,139.2,173.0,160.4,15.3
29.5,169.1,161.8,139.0,175.2,161.3,15.8
29.75,170.3,162.1,141.0,169.6,160.8,13.7
30.0,171.2,159.8,138.3,176.6,161.5,17.0
30.25,169.9,162.7,137.9,174.1,161.1,16.2
30.5,171.0,163.5,140.4,172.4,161.8,14.8
30.75,168.5,160.5,140.0,172.7,160.4,14.5
31.0,171.0,160.2,138.2,173.1,160.6,16.0
31.25,171.5,162.5,139.7,175.0,162.2,15.9
31.5,172.3,162.8,141.5,171.5,162.0,14.4
31.75,172.2,164.3,140.3,174.5,162.8,15.7
32.0,169.1,161.6,140.1,173.3,161.0,14.8
32.25,172.1,161.2,140.6,170.9,161.2,14.5
32.5,173.2,161.0,141.2,173.8,162.3,15.3
32.75,171.5,165.0,141.0,170.8,162.1,14.3
33.0,172.4,163.8,142.3,168.7,161.8,13.5
33.25,174.7,164.4,141.6,172.7,163.3,15.2
33.5,171.6,163.8,140.2,166.6,160.5,13.9
33.75,170.3,165.1,140.9,169.6,161.5,13.9
34.0,173.6,164.7,141.8,165.8,161.5,13.7
34.25,172.7,163.7,144.8,168.4,162.4,12.3
34.5,175.4,169.3,144.9,166.2,163.9,13.3
34.75,171.1,164.4,143.5,166.5,161.4,12.3
35.0,174.2,165.3,141.2,162.7,160.9,14.0
35.25,171.3,166.1,143.2,164.5,161.3,12.4
35.5,173.6,168.4,144.5,163.7,162.6,12.7
35.75,173.6,169.7,141.8,164.6,162.4,14.3
36.0,172.5,167.3,144.8,164.4,162.2,12.1
36.25,172.6,166.6,146.5,164.9,162.7,11.2
36.5,174.7,171.0,146.3,163.4,163.8,12.6
36.75,173.4,172.9,145.3,162.9,163.6,13.1
37.0,173.2,171.4,143.9,164.5,163.3,13.4
37.25,175.4,172.8,144.6,166.1,164.7,14.0
37.5,174.3,170.0,145.7,164.1,163.5,12.6
37.75,174.6,173.5,145.9,165.0,164.8,13.3
38.0,171.9,171.5,146.1,164.5,163.5,12.1
38.25,174.4,175.7,147.7,165.0,165.7,12.9
38.5,168.9,176.2,147.7,167.3,165.0,12.2
38.75,176.9,172.8,148.8,165.4,166.0,12.4
39.0,178.2,175.9,147.3,163.7,166.3,14.1
39.25,176.8,178.5,148.6,165.3,167.3,13.8
39.5,176.0,178.1,150.3,163.7,167.0,12.8
39.75,179.8,178.2,150.8,165.0,168.5,13.5
40.0,175.4,181.8,149.9,164.7,167.9,13.9
40.25,177.5,181.5,154.9,164.9,169.7,12.1
40.5,177.5,177.0,153.3,165.1,168.2,11.5
40.75,180.0,179.1,153.9,164.5,169.4,12.5
41.0,180.8,185.7,155.7,168.1,172.6,13.4
41.25,182.2,183.5,153.5,167.1,171.5,14.2
41.5,180.0,186.8,153.9,168.2,172.2,14.4
41.75,180.6,184.1,154.4,170.9,172.5,13.3
42.0,180.3,190.6,153.5,167.8,173.0,16.0
42.25,182.4,188.5,158.5,169.6,174.7,13.4
42.5,184.4,190.7,158.7,167.9,175.4,14.7
42.75,186.2,193.0,159.7,173.6,178.1,14.7
43.0,187.4,193.5,162.2,171.5,178.7,14.4
43.25,184.7,192.7,159.8,172.1,177.3,14.4
43.5,185.3,193.4,163.3,172.6,178.6,13.4
43.75,186.8,196.8,161.9,172.3,179.4,15.4
44.0,188.0,197.4,166.3,177.0,182.2,13.5
44.25,186.4,196.9,165.3,176.6,181.3,13.5
44.5,189.0,196.8,167.2,171.6,181.1,14.0
44.75,186.6,197.8,168.7,176.0,182.3,12.7
45.0,186.1,197.4,168.4,175.3,181.8,12.7
45.25,190.9,197.0,171.0,182.2,185.3,11.3
45.5,192.7,200.6,171.6,177.3,185.5,13.4
45.75,191.3,202.9,172.1,180.6,186.7,13.4
46.0,193.0,204.0,170.8,180.9,187.2,14.4
46.25,195.6,201.6,170.0,181.3,187.1,14.2
46.5,194.9,202.2,175.0,181.9,188.5,12.3
46.75,196.4,201.9,174.1,181.4,188.4,12.9
47.0,194.3,203.4,172.7,183.9,188.6,13.2
47.25,194.7,205.4,174.4,183.6,189.5,13.4
47.5,195.3,207.1,176.7,186.2,191.3,13.0
47.75,198.4,206.3,178.9,185.4,192.3,12.4
48.0,195.5,206.5,176.1,186.6,191.2,12.9
48.25,197.1,205.6,176.7,186.9,191.6,12.5
48.5,197.1,211.0,181.4,187.1,194.2,13.0
48.75,200.6,206.7,180.3,190.9,194.6,11.6
49.0,196.8,210.1,178.1,190.1,193.8,13.4
49.25,199.1,211.1,179.5,190.8,195.1,13.3
49.5,199.9,210.6,179.1,190.3,195.0,13.4
49.75,202.4,212.0,179.0,193.2,196.6,14.0
50.0,201.8,209.6,180.1,195.2,196.7,12.5
50.25,202.6,210.1,178.1,194.0,196.2,13.7
50.5,201.1,211.2,180.3,194.7,196.8,12.9
50.75,200.2,208.8,180.7,197.4,196.8,11.8
51.0,203.4,212.2,179.0,197.4,198.0,14.1
51.25,204.3,209.9,179.8,199.1,198.3,13.1
51.5,200.4,213.1,181.2,198.8,198.4,13.1
51.75,204.1,212.7,177.0,198.9,198.1,15.2
52.0,202.9,214.9,178.7,203.5,200.0,15.2
52.25,204.7,211.1,180.0,204.6,200.1,13.8
52.5,208.3,211.4,177.6,202.5,200.0,15.3
52.75,205.2,211.1,178.3,203.9,199.6,14.5
53.0,205.7,212.3,178.7,204.1,200.2,14.8
53.25,202.8,209.1,175.7,201.4,197.2,14.8
53.5,205.9,209.2,175.2,200.9,197.8,15.5
53.75,208.7,210.3,176.9,206.1,200.5,15.8
54.0,201.9,211.3,178.0,208.8,200.0,15.2
54.25,205.5,210.5,176.7,206.7,199.8,15.6
54.5,205.7,213.1,173.6,203.5,199.0,17.4
54.75,206.0,210.8,175.5,212.3,201.1,17.3
55.0,206.2,208.3,173.0,203.8,197.9,16.6
55.25,206.0,211.0,172.3,205.2,198.6,17.7
55.5,206.6,211.0,175.7,204.6,199.5,16.0
55.75,208.0,205.8,170.1,204.6,197.1,18.1
56.0,207.0,209.6,168.2,206.4,197.8,19.8
56.25,204.2,203.6,169.4,207.4,196.2,17.9
56.5,209.0,204.8,167.1,206.8,196.9,19.9
56.75,206.9,202.9,165.3,206.5,195.4,20.2
57.0,202.6,202.2,166.1,205.9,194.2,18.8
57.25,206.6,200.3,163.2,204.7,193.7,20.5
57.5,204.6,199.8,164.6,205.4,193.6,19.5
57.75,205.8,200.3,163.0,205.6,193.7,20.6
58.0,204.9,198.4,161.2,204.0,192.1,20.8
58.25,202.3,198.7,161.9,206.3,192.3,20.5
58.5,204.4,197.5,160.4,203.5,191.4,20.9
58.75,202.1,193.3,154.6,204.8,188.7,23.3
59.0,204.3,195.3,160.2,202.7,190.6,20.7
59.25,205.6,194.1,158.1,201.3,189.8,21.6
59.5,201.5,190.3,156.5,204.4,188.2,22.0
59.75,203.2,193.3,155.0,199.6,187.8,22.2
60.0,204.1,189.3,156.6,199.3,187.3,21.4
60.25,200.6,191.5,154.4,198.1,186.2,21.5
60.5,201.6,187.4,150.8,199.5,184.8,23.5
60.75,200.1,188.7,148.9,194.6,183.1,23.2
61.0,200.1,181.6,151.2,199.7,183.1,23.0
61.25,197.7,185.4,151.8,198.4,183.3,21.8
61.5,199.0,182.1,151.2,196.2,182.2,21.9
61.75,196.3,183.2,151.8,196.8,182.0,21.1
62.0,194.1,182.4,146.0,196.3,179.7,23.3
62.25,195.8,178.2,148.4,195.8,179.5,22.3
62.5,193.2,180.2,145.8,195.4,178.6,22.9
62.75,193.4,179.1,146.4,195.8,178.7,22.8
63.0,192.6,175.0,141.9,,169.8,25.7
63.25,188.0,178.4,141.4,,169.3,24.6
63.5,189.3,175.5,144.3,,169.7,23.1
63.75,190.1,177.2,143.1,,170.2,24.3
64.0,189.3,172.6,143.1,,168.3,23.4
64.25,189.1,173.0,140.2,,167.4,24.9
64.5,187.7,173.8,139.7,,167.1,24.7
64.75,184.3,172.5,139.8,,165.5,23.0
65.0,185.8,171.5,140.1,,165.8,23.4
65.25,182.6,170.4,140.3,,164.4,21.8
65.5,181.5,171.2,137.3,,163.3,23.1
65.75,181.6,168.0,136.2,,161.9,23.3
66.0,181.3,169.3,137.1,,162.6,22.8
66.25,179.5,168.3,136.2,,161.3,22.5
66.5,176.7,166.4,135.8,,159.6,21.3
66.75,178.8,166.4,135.3,,160.2,22.4
67.0,174.5,167.1,135.8,,159.1,20.5
67.25,170.9,166.8,136.1,,157.9,19.0
67.5,172.8,166.4,135.8,,158.4,19.8
67.75,173.6,166.4,135.0,,158.3,20.5
68.0,172.9,163.8,135.6,,157.4,19.4
68.25,172.9,165.8,135.7,,158.1,19.8
68.5,167.8,164.5,134.5,,155.6,18.4
68.75,167.5,162.1,134.2,,154.6,17.9
69.0,167.5,162.9,133.9,,154.8,18.2
69.25,167.2,159.8,136.0,,154.3,16.3
69.5,166.8,159.6,133.5,,153.3,17.5
69.75,169.2,162.2,133.6,,155.0,18.9
70.0,165.5,164.1,133.5,,154.4,18.1
70.25,164.7,162.0,135.6,,154.1,16.1
70.5,164.6,162.1,134.4,,153.7,16.8
70.75,166.5,162.7,134.6,,154.6,17.4
71.0,164.3,158.2,134.1,,152.2,16.0
71.25,165.2,160.9,133.6,,153.2,17.1
71.5,164.0,159.2,134.9,,152.7,15.6
71.75,162.8,159.0,134.5,,152.1,15.3
72.0,163.6,159.9,133.2,,152.3,16.6
72.25,159.0,162.9,135.1,,152.3,15.0
72.5,163.2,161.5,134.9,,153.2,15.8
72.75,159.8,161.2,133.9,,151.6,15.4
73.0,161.9,158.5,133.4,,151.3,15.6
73.25,160.8,158.9,132.9,,150.8,15.6
73.5,161.8,160.9,134.2,,152.3,15.6
73.75,159.0,158.7,132.9,,150.2,15.0
74.0,158.1,160.8,134.2,,151.0,14.7
74.25,159.3,161.3,137.4,,152.7,13.3
74.5,157.3,156.3,132.4,,148.7,14.1
74.75,159.0,158.7,130.8,,149.5,16.2
75.0,156.9,158.8,135.4,,150.3,13.0
75.25,157.6,158.7,132.5,,149.6,14.8
75.5,156.5,159.2,132.6,,149.4,14.6
75.75,156.1,159.0,132.4,,149.2,14.6
76.0,154.7,157.0,134.9,,148.9,12.2
76.25,152.0,159.1,133.9,,148.3,13.0
76.5,153.5,160.0,132.0,,148.5,14.7
76.75,153.7,157.0,132.2,,147.6,13.4
77.0,155.1,161.8,129.9,,149.0,16.8
77.25,155.2,157.3,134.7,,149.1,12.5
77.5,152.4,159.4,130.9,,147.6,14.8
77.75,152.3,159.1,133.1,,148.2,13.5
78.0,155.1,156.9,133.2,,148.4,13.2
78.25,152.4,156.6,130.1,,146.4,14.3
78.5,155.1,158.0,132.4,,148.5,14.0
78.75,152.7,157.8,132.5,,147.6,13.4
79.0,152.8,158.3,132.4,,147.8,13.6
79.25,150.9,157.0,133.1,,147.0,12.4
79.5,151.5,157.6,133.9,,147.7,12.3
79.75,153.0,159.1,132.1,,148.1,14.2
80.0,153.4,157.0,133.4,,148.0,12.7
80.25,152.1,157.4,133.8,,147.8,12.4
80.5,152.1,156.0,133.5,,147.2,12.0
80.75,152.2,159.2,134.1,,148.5,12.9
81.0,152.8,160.3,133.3,,148.8,13.9
81.25,152.0,156.5,135.0,,147.8,11.4
81.5,154.6,158.9,134.2,,149.2,13.2
81.75,151.9,155.7,135.5,,147.7,10.8
82.0,153.9,156.9,136.8,,149.2,10.9
82.25,152.0,158.2,135.3,,148.5,11.9
82.5,156.2,160.1,138.6,,151.6,11.5
82.75,154.2,156.4,136.9,,149.2,10.7
83.0,156.1,159.4,136.4,,150.6,12.4
83.25,150.2,160.1,139.7,,150.0,10.2
83.5,153.5,161.7,137.8,,151.0,12.1
83.75,152.7,160.2,140.0,,151.0,10.2
84.0,155.5,160.9,140.0,,152.2,10.8
84.25,153.6,160.8,140.0,,151.5,10.6
84.5,156.2,162.7,140.5,,153.1,11.4
84.75,156.0,161.6,141.0,,152.9,10.7
85.0,156.2,160.3,139.2,,151.9,11.2
85.25,153.5,162.4,142.1,,152.7,10.2
85.5,153.8,163.6,143.0,,153.5,10.3
85.75,159.1,162.0,144.2,,155.1,9.6
86.0,156.8,162.5,140.9,,153.4,11.2
86.25,156.2,164.1,141.7,,154.0,11.4
86.5,156.1,161.4,139.9,,152.5,11.2
86.75,157.8,164.3,144.1,,155.4,10.3
87.0,156.3,163.4,141.9,,153.9,11.0
87.25,156.2,162.6,145.9,,154.9,8.5
87.5,156.6,164.2,142.4,,154.4,11.1
87.75,156.7,163.6,144.6,,155.0,9.6
88.0,158.0,165.9,145.6,,156.5,10.3
88.25,156.3,165.1,142.7,,154.7,11.3
88.5,157.4,163.9,142.2,,154.5,11.1
88.75,158.1,165.7,146.1,,156.6,9.9
89.0,159.7,164.8,144.6,,156.3,10.5
89.25,159.1,166.6,143.5,,156.4,11.8
89.5,157.9,166.1,143.8,,155.9,11.3
89.75,160.2,169.7,144.2,,158.1,12.9
90.0,159.5,168.3,145.6,,157.8,11.5
90.25,158.1,168.5,145.2,,157.3,11.7
90.5,156.2,165.3,141.8,,154.4,11.9
90.75,159.8,168.8,143.5,,157.4,12.8
91.0,159.6,169.4,143.2,,157.4,13.2
91.25,160.3,168.7,144.5,,157.8,12.3
91.5,158.3,166.0,143.6,,156.0,11.4
91.75,158.6,167.4,143.1,,156.4,12.3
92.0,159.3,169.0,144.5,,157.6,12.4
92.25,161.7,167.6,142.0,,157.1,13.4
92.5,158.0,168.2,143.6,,156.6,12.4
92.75,158.4,168.8,145.0,,157.4,11.9
93.0,157.1,171.1,142.5,,156.9,14.3
93.25,156.6,169.9,143.1,,156.5,13.4
93.5,159.2,171.4,142.0,,157.5,14.8
93.75,157.6,167.4,143.3,,156.1,12.1
94.0,157.9,169.7,143.2,,156.9,13.3
94.25,158.6,171.5,142.3,,157.5,14.7
94.5,157.8,170.8,141.5,,156.7,14.7
94.75,159.0,168.5,142.7,,156.7,13.1
95.0,156.6,169.6,140.0,,155.4,14.8
95.25,155.9,171.2,142.1,,156.4,14.5
95.5,157.5,169.3,144.1,,157.0,12.6
95.75,158.4,173.4,141.5,,157.8,16.0
96.0,158.3,166.3,143.2,,155.9,11.7
96.25,157.5,170.1,141.6,,156.4,14.2
96.5,156.4,169.9,141.1,,155.8,14.4
96.75,156.0,169.9,142.2,,156.1,13.9
97.0,155.9,168.2,140.1,,154.7,14.1
97.25,156.3,170.7,142.1,,156.4,14.3
97.5,157.9,171.7,139.2,,156.3,16.3
97.75,158.2,171.6,139.2,,156.3,16.3
98.0,155.0,170.0,141.5,,155.5,14.3
98.25,157.4,170.7,140.0,,156.0,15.4
98.5,154.9,169.7,138.4,,154.3,15.6
98.75,155.5,169.9,138.0,,154.5,16.0
99.0,156.7,168.6,141.2,,155.5,13.8
99.25,158.6,169.6,137.2,,155.1,16.5
99.5,157.7,169.2,136.9,,154.6,16.4
99.75,154.3,167.2,137.2,,152.9,15.1
100.0,155.2,166.9,134.8,,152.3,16.3
100.25,156.3,168.4,137.0,,153.9,15.8
100.5,157.3,168.3,135.1,,153.6,16.9
100.75,155.4,166.4,135.5,,152.4,15.6
101.0,153.7,166.0,134.6,,151.5,15.9
101.25,151.8,164.8,135.4,,150.7,14.8
101.5,154.1,165.5,131.2,,150.3,17.5
101.75,157.7,163.6,134.0,,151.8,15.6
102.0,152.8,162.6,132.7,,149.4,15.3
102.25,150.7,163.1,132.4,,148.7,15.5
102.5,152.7,165.0,132.2,,150.0,16.5
102.75,153.4,164.7,132.9,,150.3,16.1
103.0,154.3,163.9,131.4,,149.9,16.7
103.25,154.3,164.0,131.3,,149.9,16.8
103.5,154.3,161.7,131.3,,149.1,15.8
103.75,152.4,161.7,129.7,,147.9,16.5
104.0,153.9,158.3,129.8,,147.3,15.3
104.25,151.4,160.0,131.6,,147.6,14.6
104.5,149.2,160.4,130.1,,146.6,15.4
104.75,150.4,158.9,129.3,,146.2,15.2
105.0,150.2,157.5,128.9,,145.5,14.8
105.25,150.7,157.3,128.4,,145.5,15.2
105.5,148.8,157.9,126.7,,144.5,16.1
105.75,151.6,157.3,127.3,,145.4,16.0
106.0,150.2,156.1,126.0,,144.1,16.0
106.25,149.4,154.2,125.5,,143.0,15.3
106.5,149.3,155.5,124.5,,143.1,16.4
106.75,146.7,154.6,122.4,,141.3,16.8
107.0,149.6,154.0,123.4,,142.3,16.6
107.25,151.2,153.0,121.5,,141.9,17.7
107.5,147.9,151.4,122.4,,140.6,15.9
107.75,147.9,154.2,121.7,,141.3,17.2
108.0,148.6,153.1,121.3,,141.0,17.2
108.25,148.6,151.8,118.9,,139.8,18.1
108.5,146.6,150.6,118.9,,138.7,17.3
108.75,147.7,150.1,119.3,,139.0,17.1
109.0,146.4,151.2,119.0,,138.9,17.4
109.25,147.3,148.9,119.8,,138.7,16.4
109.5,145.4,148.8,119.4,,137.9,16.1
109.75,142.5,149.0,115.9,,135.8,17.5
110.0,146.2,147.8,118.1,,137.4,16.7
110.25,143.3,145.2,116.0,,134.9,16.4
110.5,143.7,147.7,116.3,,135.9,17.1
110.75,144.7,144.5,116.3,,135.2,16.3
111.0,143.0,143.1,114.3,,133.5,16.6
111.25,141.2,142.9,116.3,,133.5,14.9
111.5,142.2,142.8,113.7,,132.9,16.6
111.75,142.6,138.1,114.7,,131.8,15.0
112.0,138.5,139.0,114.9,,130.8,13.8
112.25,140.9,138.7,113.6,,131.1,15.1
112.5,140.2,138.4,113.7,,130.8,14.8
112.75,137.8,137.6,112.4,,129.3,14.6
113.0,139.4,137.0,112.5,,129.7,14.9
113.25,140.0,134.7,113.1,,129.3,14.3
113.5,139.9,134.6,111.3,,128.6,15.2
113.75,136.5,135.0,112.1,,127.9,13.7
114.0,137.5,131.8,111.9,,127.1,13.5
114.25,136.9,131.6,110.7,,126.4,13.9
114.5,137.1,130.3,111.0,,126.1,13.5
114.75,135.7,129.0,109.6,,124.8,13.6
115.0,135.2,132.3,108.1,,125.2,14.9
115.25,134.7,130.3,107.9,,124.3,14.4
115.5,133.1,131.3,108.1,,124.2,13.9
115.75,133.3,128.3,106.7,,122.8,14.2
116.0,132.5,129.0,107.0,,122.8,13.8
116.25,131.6,127.8,105.4,,121.6,14.2
116.5,133.5,125.3,105.6,,121.5,14.3
116.75,131.5,127.4,104.2,,121.0,14.7
117.0,130.9,126.2,105.4,,120.8,13.6
117.25,129.2,125.4,104.9,,119.8,13.1
117.5,129.4,125.3,102.6,,119.1,14.4
117.75,128.8,124.7,102.8,,118.8,14.0
118.0,127.7,123.8,102.2,,117.9,13.8
118.25,126.4,123.5,102.8,,117.5,12.9
118.5,127.0,122.0,101.7,,116.9,13.4
118.75,126.5,120.9,101.8,,116.4,13.0
119.0,126.4,121.5,102.2,,116.7,12.8
119.25,125.7,119.4,99.5,,114.8,13.7
119.5,124.8,119.2,100.1,,114.7,13.0
119.75,124.9,120.5,101.6,,115.7,12.4
120.0,125.1,118.2,99.8,,114.4,13.1
120.25,124.8,118.4,99.3,,114.2,13.3
120.5,123.2,116.6,98.3,,112.7,12.9
120.75,122.2,117.3,98.1,,112.6,12.7
121.0,121.7,114.7,97.2,,111.2,12.6
121.25,120.8,116.1,99.9,,112.3,11.0
121.5,118.4,113.3,97.2,,109.6,11.1
121.75,118.2,112.9,97.7,,109.6,10.6
122.0,117.9,114.8,96.9,,109.9,11.3
122.25,116.7,112.9,96.3,,108.6,10.8
122.5,115.7,112.4,95.7,,107.9,10.7
122.75,116.6,111.6,95.3,,107.9,11.1
123.0,115.4,109.6,94.4,,106.5,10.9
123.25,115.8,110.5,94.3,,106.9,11.2
123.5,116.0,109.6,94.3,,106.6,11.1
123.75,113.9,107.8,92.8,,104.8,10.9
124.0,113.7,108.6,93.1,,105.1,10.7
124.25,113.6,108.1,93.7,,105.2,10.3
124.5,112.9,106.7,91.9,,103.8,10.8
124.75,112.0,105.4,90.7,,102.7,10.9
125.0,111.9,105.4,91.8,,103.0,10.3
125.25,110.1,104.3,90.6,,101.7,10.0
125.5,109.7,105.2,91.0,,101.9,9.8
125.75,108.7,104.3,89.4,,100.8,10.1
126.0,109.8,102.6,90.1,,100.9,10.0
126.25,108.6,102.8,89.5,,100.3,9.8
126.5,109.0,101.9,87.7,,99.6,10.8
126.75,106.0,102.4,88.3,,98.9,9.4
127.0,107.6,101.2,88.2,,99.0,9.9
127.25,106.7,102.1,87.7,,98.8,9.9
127.5,104.8,101.4,85.7,,97.3,10.2
127.75,104.4,100.6,85.6,,96.9,10.0
128.0,104.5,101.0,86.6,,97.4,9.5
128.25,103.0,98.7,85.6,,95.8,9.1
128.5,103.3,98.4,85.1,,95.6,9.4
128.75,102.6,97.1,84.4,,94.7,9.4
129.0,100.9,98.7,83.6,,94.4,9.4
129.25,99.7,95.0,83.9,,92.9,8.2
129.5,98.6,96.2,83.0,,92.6,8.4
129.75,99.6,95.7,83.0,,92.8,8.7
130.0,96.9,95.8,82.7,,91.8,7.9
130.25,97.0,95.6,81.4,,91.3,8.6
130.5,94.7,94.9,81.3,,90.3,7.8
130.75,94.3,93.1,81.5,,89.6,7.1
131.0,94.8,93.0,81.6,,89.8,7.1
131.25,93.6,93.6,80.2,,89.1,7.7
131.5,92.8,92.2,80.3,,88.4,7.1
131.75,91.8,91.9,79.8,,87.8,6.9
132.0,91.0,90.7,78.8,,86.8,7.0
132.25,91.8,91.3,80.0,,87.7,6.6
132.5,90.6,89.8,79.7,,86.7,6.1
132.75,91.0,90.0,79.8,,87.0,6.2
133.0,89.4,87.6,76.9,,84.7,6.8
133.25,90.9,87.7,76.9,,85.2,7.3
133.5,90.2,87.0,75.9,,84.4,7.5
133.75,88.5,87.9,75.9,,84.1,7.1
134.0,87.9,85.9,75.8,,83.2,6.5
134.25,88.6,86.1,76.9,,83.9,6.2
134.5,89.4,87.1,74.5,,83.7,8.0
134.75,88.3,84.2,75.2,,82.6,6.7
135.0,87.4,84.2,73.6,,81.7,7.2
135.25,87.5,83.4,74.1,,81.7,6.8
135.5,86.8,84.0,72.4,,81.0,7.6
135.75,86.4,83.5,72.4,,80.8,7.4
136.0,86.8,84.6,71.5,,81.0,8.2
136.25,85.8,82.5,71.7,,80.0,7.4
136.5,85.1,83.5,71.2,,79.9,7.6
136.75,84.7,82.5,70.8,,79.3,7.4
137.0,84.0,82.0,71.0,,79.0,7.0
137.25,82.5,81.5,70.2,,78.0,6.9
137.5,84.2,81.4,68.7,,78.1,8.3
137.75,83.9,80.7,69.5,,78.0,7.5
138.0,84.5,79.7,69.6,,77.9,7.6
138.25,83.9,79.8,67.8,,77.2,8.4
138.5,83.9,79.4,69.1,,77.5,7.6
138.75,82.5,79.3,68.4,,76.7,7.4
139.0,85.4,78.9,67.1,,77.1,9.3
139.25,81.7,78.3,67.9,,76.0,7.2
139.5,80.7,77.6,68.0,,75.4,6.6
139.75,82.7,77.8,67.3,,75.9,7.9
140.0,81.5,77.9,66.7,,75.4,7.7
140.25,81.6,77.9,66.6,,75.4,7.8
140.5,79.8,77.7,66.5,,74.6,7.2
140.75,81.5,77.0,66.9,,75.1,7.5
141.0,80.3,75.5,66.0,,74.0,7.3
141.25,79.3,77.3,65.1,,73.9,7.7
141.5,79.5,75.6,66.2,,73.8,6.9
141.75,79.1,75.0,65.5,,73.2,7.0
142.0,78.0,74.4,64.4,,72.3,7.0
142.25,77.9,73.5,64.9,,72.1,6.6
142.5,76.9,73.1,65.0,,71.7,6.1
142.75,77.3,73.5,64.1,,71.6,6.8
143.0,76.3,72.0,64.0,,70.8,6.2
143.25,76.2,71.3,63.9,,70.4,6.2
143.5,76.2,70.9,64.1,,70.4,6.1
143.75,75.1,71.9,63.3,,70.1,6.1
144.0,76.2,71.5,63.2,,70.3,6.6
144.25,75.1,71.8,63.0,,70.0,6.2
144.5,74.5,70.5,61.7,,68.9,6.6
144.75,74.0,70.6,62.8,,69.1,5.7
145.0,74.4,70.9,61.5,,68.9,6.7
145.25,73.5,69.8,61.0,,68.1,6.5
145.5,74.3,69.3,61.8,,68.5,6.3
145.75,73.2,69.5,59.9,,67.5,6.9
146.0,73.6,69.9,61.2,,68.2,6.4
146.25,73.3,69.5,60.2,,67.7,6.7
146.5,72.3,68.8,58.7,,66.6,7.0
146.75,72.1,69.0,59.6,,66.9,6.5
147.0,72.6,67.1,58.5,,66.1,7.1
147.25,72.6,67.6,59.5,,66.6,6.6
147.5,71.3,68.6,58.4,,66.1,6.8
147.75,72.3,66.9,57.7,,65.6,7.4
148.0,71.9,66.5,57.2,,65.2,7.4
148.25,71.6,66.9,57.9,,65.4,7.0
148.5,69.5,66.9,56.7,,64.4,6.8
148.75,70.4,66.5,57.2,,64.7,6.8
149.0,69.2,65.4,56.1,,63.5,6.7
149.25,70.0,65.7,56.2,,64.0,7.0
149.5,69.4,65.7,55.7,,63.6,7.1
149.75,69.3,65.2,55.8,,63.5,6.9
150.0,69.2,66.4,55.3,,63.6,7.3
150.25,68.6,64.8,54.6,,62.7,7.3
150.5,68.3,64.4,54.2,,62.3,7.3
150.75,67.7,65.1,53.7,,62.2,7.4
151.0,67.9,65.3,53.2,,62.1,7.8
151.25,67.8,62.9,53.1,,61.3,7.5
151.5,67.8,63.3,52.5,,61.2,7.9
151.75,67.0,64.4,52.8,,61.4,7.6
152.0,66.8,64.0,52.6,,61.1,7.6
152.25,66.4,63.8,53.0,,61.1,7.1
152.5,67.1,62.6,52.5,,60.7,7.5
152.75,66.8,62.0,52.4,,60.4,7.3
153.0,66.3,62.5,53.0,,60.6,6.8
153.25,65.2,62.0,51.5,,59.6,7.1
153.5,66.4,61.7,53.0,,60.4,6.8
153.75,65.1,61.3,52.0,,59.5,6.7
154.0,65.2,61.1,52.0,,59.4,6.8
154.25,65.3,60.9,50.8,,59.0,7.4
154.5,64.4,61.0,50.8,,58.7,7.0
154.75,64.9,61.0,52.3,,59.4,6.4
155.0,63.6,59.9,50.8,,58.1,6.5
155.25,62.9,60.1,50.5,,57.8,6.5
155.5,62.8,60.4,50.2,,57.8,6.7
155.75,63.2,59.9,50.9,,58.0,6.4
156.0,62.0,59.8,50.0,,57.2,6.4
156.25,62.2,59.4,49.7,,57.1,6.5
156.5,61.6,59.0,50.2,,56.9,6.0
156.75,61.4,58.6,49.7,,56.6,6.1
157.0,61.2,59.2,49.5,,56.6,6.2
157.25,61.6,57.9,49.2,,56.2,6.4
157.5,59.8,58.3,49.0,,55.7,5.8
157.75,59.9,58.7,48.7,,55.8,6.2
158.0,59.3,57.5,48.9,,55.2,5.5
158.25,58.8,58.7,49.0,,55.5,5.6
158.5,58.7,58.1,48.4,,55.1,5.8
158.75,57.9,58.2,47.8,,54.6,5.9
159.0,57.1,57.4,48.1,,54.2,5.3
159.25,57.4,57.4,48.7,,54.5,5.1
159.5,57.3,57.5,47.9,,54.2,5.5
159.75,56.8,57.5,47.7,,54.0,5.5
160.0,57.5,57.4,47.5,,54.1,5.7
160.25,57.2,57.2,47.8,,54.0,5.4
160.5,56.7,56.3,48.4,,53.8,4.7
160.75,56.0,57.0,48.2,,53.8,4.8
161.0,56.0,56.7,47.4,,53.4,5.2
161.25,56.8,56.3,47.6,,53.6,5.2
161.5,55.5,56.2,47.6,,53.1,4.8
161.75,55.2,55.0,46.8,,52.4,4.8
162.0,55.0,56.0,47.2,,52.7,4.8
162.25,55.6,55.7,46.8,,52.7,5.1
162.5,54.9,55.4,46.3,,52.2,5.1
162.75,54.9,55.2,46.7,,52.2,4.8
163.0,55.1,55.6,46.3,,52.3,5.2
163.25,54.4,54.4,47.1,,52.0,4.2
163.5,53.8,54.9,45.6,,51.5,5.1
163.75,54.0,54.8,46.0,,51.6,4.9
164.0,54.1,55.0,45.6,,51.6,5.2
164.25,53.6,54.5,45.6,,51.3,4.9
164.5,53.7,54.2,45.6,,51.2,4.8
164.75,54.3,54.8,45.4,,51.5,5.3
165.0,53.0,54.0,45.3,,50.8,4.7
165.25,53.2,53.4,45.0,,50.5,4.8
165.5,53.2,53.8,45.5,,50.8,4.6
165.75,52.1,53.1,45.1,,50.1,4.3
166.0,52.3,53.0,44.7,,50.0,4.6
166.25,51.3,53.2,44.8,,49.8,4.4
166.5,51.9,53.4,44.4,,49.9,4.8
166.75,51.7,52.9,44.9,,49.9,4.3
167.0,52.0,52.8,44.3,,49.7,4.7
167.25,51.3,52.9,43.7,,49.3,5.0
167.5,50.9,54.1,43.7,,49.5,5.3
167.75,51.8,52.5,43.2,,49.2,5.2
168.0,51.5,53.2,43.4,,49.3,5.3
168.25,50.4,52.9,43.4,,48.9,4.9
168.5,50.8,52.9,42.7,,48.8,5.4
168.75,50.5,52.9,43.1,,48.9,5.1
169.0,51.4,53.2,42.8,,49.1,5.5
169.25,50.3,53.0,43.2,,48.8,5.1
169.5,50.5,52.9,42.8,,48.8,5.3
169.75,50.2,52.7,42.8,,48.5,5.1
170.0,50.6,52.7,42.4,,48.6,5.5
170.25,50.0,53.6,42.2,,48.6,5.8
170.5,50.0,52.1,42.1,,48.1,5.3
170.75,49.5,52.2,42.0,,47.9,5.3
171.0,49.2,51.9,41.9,,47.7,5.2
171.25,49.9,52.7,41.9,,48.2,5.6
171.5,49.2,51.9,41.1,,47.4,5.6
171.75,49.3,52.4,41.2,,47.6,5.8
172.0,49.0,52.5,41.6,,47.7,5.6
172.25,49.5,51.6,42.0,,47.7,5.0
172.5,48.6,52.5,41.7,,47.6,5.5
172.75,49.3,51.6,42.4,,47.8,4.8
173.0,49.4,51.3,41.7,,47.5,5.1
173.25,48.5,51.6,41.4,,47.2,5.2
173.5,48.9,52.5,41.0,,47.5,5.8
173.75,48.8,51.7,41.6,,47.4,5.2
174.0,48.0,51.7,41.3,,47.0,5.3
174.25,48.5,52.3,41.4,,47.4,5.5
174.5,48.0,52.0,41.8,,47.3,5.1
174.75,48.4,51.7,41.1,,47.1,5.4
175.0,47.8,52.4,42.0,,47.4,5.2
175.25,48.0,51.9,41.3,,47.1,5.4
175.5,47.8,52.5,41.3,,47.2,5.6
175.75,47.5,52.2,41.1,,46.9,5.6
176.0,47.5,52.4,41.0,,47.0,5.7
176.25,47.9,51.7,41.0,,46.8,5.4
176.5,47.6,51.4,41.2,,46.8,5.2
176.75,48.3,52.0,41.3,,47.2,5.4
177.0,47.4,51.9,40.8,,46.7,5.6
177.25,47.2,52.4,40.4,,46.7,6.0
177.5,47.4,52.3,40.3,,46.7,6.0
177.75,47.6,51.5,40.4,,46.5,5.6
178.0,47.3,50.6,40.5,,46.1,5.1
178.25,47.3,50.3,40.4,,46.0,5.1
178.5,47.6,50.5,40.3,,46.1,5.2
178.75,46.7,50.8,40.3,,45.9,5.3
179.0,47.4,51.1,40.1,,46.2,5.6
179.25,47.3,50.8,40.0,,46.1,5.5
179.5,46.9,51.9,39.9,,46.2,6.0
179.75,47.4,50.9,39.3,,45.8,6.0
180.0,47.2,51.3,39.1,,45.8,6.2
180.25,47.0,51.9,39.0,,46.0,6.5
180.5,47.2,50.8,38.9,,45.6,6.1
180.75,47.1,50.7,38.9,,45.6,6.1
181.0,46.7,51.1,39.3,,45.7,6.0
181.25,47.1,50.8,38.7,,45.5,6.2
181.5,46.8,51.1,38.5,,45.5,6.4
181.75,47.1,51.0,38.6,,45.6,6.3
182.0,47.9,50.8,38.8,,45.8,6.3
182.25,47.1,51.3,38.4,,45.6,6.6
182.5,47.2,51.4,38.1,,45.5,6.8
182.75,46.8,51.8,38.3,,45.7,6.8
183.0,47.2,51.6,38.7,,45.8,6.5
183.25,47.1,50.9,38.4,,45.5,6.4
183.5,46.7,50.2,38.1,,45.0,6.2
183.75,47.1,50.9,38.1,,45.4,6.6
184.0,46.8,50.6,39.0,,45.5,5.9
184.25,47.0,50.4,38.5,,45.3,6.1
184.5,47.8,50.5,38.6,,45.6,6.2
184.75,46.8,50.6,38.4,,45.3,6.2
185.0,47.4,50.3,38.6,,45.4,6.1
185.25,47.0,50.8,38.7,,45.5,6.2
185.5,46.0,51.4,38.3,,45.2,6.6
185.75,46.2,50.8,38.4,,45.1,6.3
186.0,46.1,50.0,38.2,,44.8,6.0
186.25,46.6,49.9,37.8,,44.8,6.2
186.5,46.5,51.2,37.8,,45.2,6.8
186.75,46.1,50.8,37.8,,44.9,6.6
187.0,46.0,50.5,37.8,,44.8,6.4
187.25,45.7,50.0,37.9,,44.5,6.1
187.5,45.5,49.8,37.5,,44.3,6.2
187.75,45.6,50.3,37.1,,44.3,6.7
188.0,45.8,50.4,37.7,,44.7,6.4
188.25,45.2,50.3,37.6,,44.4,6.4
188.5,44.9,50.4,37.8,,44.4,6.3
188.75,45.3,49.9,38.2,,44.5,5.9
189.0,45.8,49.9,37.7,,44.4,6.2
189.25,45.1,50.7,38.1,,44.6,6.3
189.5,45.1,49.8,37.6,,44.2,6.1
189.75,44.9,49.3,37.7,,44.0,5.9
190.0,45.4,50.4,37.7,,44.5,6.4
190.25,45.2,50.4,38.1,,44.6,6.2
190.5,44.5,49.6,37.8,,44.0,5.9
190.75,45.6,48.8,37.5,,44.0,5.8
191.0,44.2,49.5,37.7,,43.8,5.9
191.25,43.9,50.5,36.9,,43.7,6.8
191.5,44.8,50.0,36.9,,43.9,6.6
191.75,43.7,49.9,37.8,,43.8,6.0
192.0,43.9,49.5,37.3,,43.6,6.1
192.25,43.6,49.8,37.1,,43.5,6.3
192.5,44.0,49.9,36.6,,43.5,6.7
192.75,43.5,49.8,37.0,,43.4,6.4
193.0,43.0,49.0,37.1,,43.0,5.9
193.25,42.8,49.0,37.0,,42.9,6.0
193.5,42.8,49.2,36.9,,42.9,6.2
193.75,42.9,48.6,37.0,,42.8,5.8
194.0,42.5,48.3,37.0,,42.6,5.7
194.25,42.8,48.9,36.6,,42.7,6.1
194.5,42.8,48.4,36.5,,42.6,5.9
194.75,42.7,48.8,36.7,,42.7,6.0
195.0,42.4,49.5,36.9,,43.0,6.3
195.25,42.0,48.7,36.7,,42.4,6.0
195.5,42.2,48.7,36.5,,42.5,6.1
195.75,42.8,49.8,36.5,,43.0,6.7
196.0,42.5,48.5,36.8,,42.6,5.9
196.25,42.4,49.3,36.7,,42.8,6.3
196.5,42.5,49.4,36.9,,42.9,6.3
196.75,43.0,49.1,36.6,,42.9,6.3
197.0,42.4,49.3,37.0,,42.9,6.2
197.25,42.5,48.9,36.7,,42.7,6.1
197.5,42.3,49.0,37.2,,42.8,5.9
197.75,42.8,48.7,37.0,,42.8,5.8
198.0,42.8,48.6,36.8,,42.7,5.9
198.25,42.9,48.2,37.0,,42.7,5.6
198.5,43.0,48.1,36.9,,42.7,5.6
198.75,43.1,48.3,36.4,,42.6,6.0
199.0,42.7,48.9,36.7,,42.8,6.1
199.25,42.7,48.8,36.3,,42.6,6.2
199.5,42.3,48.6,36.7,,42.5,6.0
199.75,42.9,48.8,36.1,,42.6,6.4
200.0,41.8,48.5,36.5,,42.2,6.0
200.25,42.1,47.3,36.5,,42.0,5.4
200.5,41.8,48.3,36.2,,42.1,6.1
200.75,41.8,48.1,36.1,,42.0,6.0
201.0,42.0,49.2,36.4,,42.6,6.4
201.25,42.1,48.5,36.0,,42.2,6.3
201.5,42.4,48.1,35.7,,42.1,6.2
201.75,41.6,48.0,36.0,,41.9,6.0
202.0,42.2,48.2,36.5,,42.3,5.9
202.25,41.6,48.5,35.5,,41.9,6.5
202.5,41.5,48.1,36.3,,42.0,5.9
202.75,41.4,47.8,36.2,,41.8,5.8
203.0,41.5,47.9,36.0,,41.8,6.0
203.25,41.7,47.4,36.4,,41.8,5.5
203.5,41.6,48.0,36.2,,41.9,5.9
203.75,42.1,46.6,36.6,,41.8,5.0
204.0,41.4,47.3,36.7,,41.8,5.3
204.25,41.5,47.3,36.6,,41.8,5.4
204.5,41.5,47.5,36.6,,41.8,5.4
204.75,41.5,47.2,37.5,,42.1,4.9
205.0,40.9,46.4,37.1,,41.5,4.7
205.25,41.5,46.9,37.2,,41.9,4.9
205.5,41.4,46.7,37.7,,41.9,4.5
205.75,41.1,47.6,37.6,,42.1,5.1
206.0,41.3,46.5,38.2,,42.0,4.2
206.25,41.4,47.9,38.7,,42.7,4.7
206.5,41.5,47.7,38.1,,42.4,4.9
206.75,40.9,47.7,38.6,,42.4,4.7
207.0,41.1,48.0,38.6,,42.6,4.8
207.25,41.7,48.1,38.9,,42.9,4.7
207.5,41.2,47.7,39.0,,42.6,4.5
207.75,42.8,48.4,39.5,,43.6,4.5
208.0,41.1,47.9,39.3,,42.8,4.5
208.25,40.7,48.7,39.8,,43.0,4.9
208.5,40.8,48.5,39.1,,42.8,5.0
208.75,40.8,47.7,39.5,,42.7,4.4
209.0,40.6,48.5,39.4,,42.8,5.0
209.25,40.1,49.2,40.0,,43.1,5.3
209.5,40.6,48.8,40.1,,43.2,4.8
209.75,40.7,49.0,39.6,,43.1,5.1
210.0,40.1,48.6,39.6,,42.8,5.1
210.25,40.0,48.3,39.9,,42.7,4.8
210.5,40.0,47.9,39.3,,42.4,4.7
210.75,40.1,48.8,40.0,,43.0,5.1
211.0,40.6,49.0,39.5,,43.0,5.2
211.25,39.9,49.5,39.4,,43.0,5.7
211.5,40.0,49.1,39.5,,42.9,5.5
211.75,40.3,48.4,39.1,,42.6,5.1
212.0,39.7,48.8,39.2,,42.6,5.4
212.25,40.1,48.6,39.2,,42.6,5.2
212.5,39.8,48.7,39.9,,42.8,5.1
212.75,39.6,49.3,38.9,,42.6,5.8
213.0,39.2,49.4,38.9,,42.5,6.0
213.25,39.3,48.5,38.9,,42.2,5.5
213.5,39.1,49.5,38.8,,42.4,6.1
213.75,39.0,48.5,38.8,,42.1,5.6
214.0,38.6,49.3,38.3,,42.1,6.2
214.25,39.1,49.4,38.6,,42.4,6.1
214.5,38.6,48.5,37.9,,41.7,5.9
214.75,38.8,48.7,37.9,,41.8,6.0
215.0,38.6,48.3,37.7,,41.5,5.9
215.25,38.7,48.6,38.0,,41.8,5.9
215.5,38.6,49.1,38.1,,41.9,6.2
215.75,38.7,49.6,37.4,,41.9,6.7
216.0,38.9,49.8,37.5,,42.1,6.7
216.25,39.0,49.4,37.0,,41.8,6.7
216.5,38.4,49.1,36.6,,41.4,6.8
216.75,38.5,48.9,37.0,,41.4,6.5
217.0,38.2,48.9,36.9,,41.4,6.6
217.25,38.6,49.2,36.9,,41.6,6.7
217.5,38.2,49.2,36.6,,41.3,6.8
217.75,38.1,48.6,36.8,,41.1,6.5
218.0,37.5,48.8,36.3,,40.9,6.9
218.25,37.7,48.8,36.7,,41.1,6.8
218.5,38.2,48.4,36.4,,41.0,6.5
218.75,38.3,48.1,36.1,,40.8,6.4
219.0,37.7,47.4,36.4,,40.5,6.0
219.25,37.6,48.0,35.5,,40.4,6.7
219.5,38.1,47.8,36.5,,40.8,6.1
219.75,37.4,48.0,36.0,,40.5,6.6
220.0,38.6,48.0,36.2,,40.9,6.2
220.25,37.4,47.3,35.4,,40.1,6.4
220.5,37.9,47.8,35.4,,40.4,6.5
220.75,37.2,47.7,35.8,,40.2,6.5
221.0,37.2,47.4,35.5,,40.1,6.4
221.25,37.4,47.1,35.6,,40.1,6.2
221.5,36.9,47.0,35.1,,39.7,6.4
221.75,37.1,46.8,35.7,,39.9,6.0
222.0,37.7,46.9,35.2,,39.9,6.2
222.25,37.4,46.3,35.3,,39.7,5.8
222.5,37.5,47.1,34.3,,39.6,6.6
222.75,37.4,46.9,35.0,,39.8,6.3
223.0,37.4,47.5,34.7,,39.9,6.7
223.25,37.3,47.2,33.8,,39.4,6.9
223.5,37.3,47.6,34.3,,39.7,7.0
223.75,37.6,47.3,34.5,,39.8,6.7
224.0,37.0,47.2,34.9,,39.7,6.6
224.25,37.1,47.2,34.3,,39.5,6.8
224.5,37.0,47.4,34.4,,39.6,6.9
224.75,36.6,47.3,34.0,,39.3,7.0
225.0,37.0,46.7,34.2,,39.3,6.6
225.25,36.7,46.6,34.0,,39.1,6.7
225.5,36.8,46.8,34.0,,39.2,6.7
225.75,36.3,46.6,34.0,,39.0,6.7
226.0,36.3,46.7,33.9,,39.0,6.8
226.25,36.4,46.5,33.7,,38.9,6.7
226.5,36.6,46.5,34.6,,39.3,6.4
226.75,36.2,46.4,33.8,,38.8,6.7
227.0,35.8,46.8,34.4,,39.0,6.8
227.25,36.1,46.6,33.6,,38.7,6.9
227.5,36.6,47.2,34.2,,39.3,6.9
227.75,37.0,46.3,33.4,,38.9,6.7
228.0,36.1,46.0,33.5,,38.5,6.6
228.25,36.6,47.1,33.5,,39.1,7.1
228.5,36.7,46.8,33.7,,39.1,6.9
228.75,36.9,46.6,33.1,,38.9,7.0
229.0,36.1,46.1,32.9,,38.4,6.9
229.25,36.9,46.6,33.0,,38.8,7.0
229.5,36.6,46.7,33.6,,39.0,6.9
229.75,36.3,45.8,33.4,,38.5,6.5
230.0,36.2,45.7,33.5,,38.5,6.4
230.25,36.0,45.1,33.1,,38.1,6.2
230.5,36.4,45.2,32.8,,38.1,6.4
230.75,35.6,45.5,32.6,,37.9,6.7
231.0,35.6,45.0,32.7,,37.8,6.4
231.25,36.4,44.3,33.3,,38.0,5.7
231.5,36.0,45.2,33.0,,38.1,6.3
231.75,36.2,45.1,32.7,,38.0,6.4
232.0,35.6,44.7,32.6,,37.6,6.3
232.25,35.1,45.1,32.9,,37.7,6.5
232.5,35.2,45.0,32.7,,37.6,6.5
232.75,35.1,45.0,32.4,,37.5,6.6
233.0,35.4,44.3,32.7,,37.5,6.1
233.25,34.9,44.9,33.0,,37.6,6.4
233.5,34.7,44.6,32.9,,37.4,6.3
233.75,35.2,44.1,32.3,,37.2,6.2
234.0,34.7,43.9,32.8,,37.2,6.0
234.25,34.4,44.1,33.1,,37.2,6.0
234.5,34.7,44.0,32.8,,37.2,6.0
234.75,34.4,44.2,32.6,,37.1,6.2
235.0,34.6,43.9,33.1,,37.2,5.8
235.25,34.5,43.7,33.2,,37.2,5.7
235.5,34.5,43.4,32.9,,37.0,5.7
235.75,35.1,44.1,32.7,,37.3,6.0
236.0,34.3,43.4,32.6,,36.8,5.8
236.25,34.7,43.4,32.9,,37.0,5.6
236.5,34.3,44.2,32.5,,37.0,6.3
236.75,34.3,43.7,32.0,,36.6,6.2
237.0,34.0,43.2,32.6,,36.6,5.7
237.25,34.3,43.8,32.4,,36.8,6.1
237.5,34.4,43.5,32.9,,36.9,5.7
237.75,34.4,42.7,32.3,,36.4,5.5
238.0,34.0,43.2,32.6,,36.6,5.8
238.25,34.0,42.9,32.8,,36.5,5.6
238.5,33.6,43.3,32.1,,36.3,6.1
238.75,33.5,43.0,32.3,,36.3,5.9
239.0,33.8,43.4,32.6,,36.6,5.9
239.25,33.4,42.9,32.4,,36.2,5.8
239.5,33.3,42.8,32.1,,36.1,5.9
239.75,33.1,43.2,32.3,,36.2,6.1
240.0,33.5,43.5,32.0,,36.3,6.3
240.25,33.8,43.1,33.1,,36.7,5.6
240.5,33.2,43.0,32.5,,36.3,5.9
240.75,33.3,43.2,32.1,,36.2,6.1
241.0,33.5,44.0,32.9,,36.8,6.2
241.25,33.0,43.0,32.1,,36.1,6.0
241.5,33.2,43.1,32.0,,36.1,6.1
241.75,33.5,42.2,31.9,,35.9,5.6
242.0,33.2,42.9,32.1,,36.1,5.9
242.25,32.9,42.5,32.2,,35.9,5.8
242.5,33.6,42.3,32.4,,36.1,5.4
242.75,33.2,42.5,32.1,,35.9,5.7
243.0,33.6,42.0,32.1,,35.9,5.3
243.25,34.0,42.0,32.3,,36.1,5.2
243.5,33.4,42.4,32.7,,36.1,5.4
243.75,33.4,42.4,31.9,,35.9,5.7
244.0,33.4,41.8,32.3,,35.8,5.2
244.25,33.5,42.0,32.6,,36.0,5.2
244.5,33.2,42.0,32.0,,35.8,5.5
244.75,33.4,42.0,31.9,,35.8,5.5
245.0,33.3,41.9,32.2,,35.8,5.3
245.25,33.5,42.3,32.3,,36.0,5.5
245.5,34.2,42.0,32.2,,36.1,5.2
245.75,34.5,41.6,32.3,,36.1,4.9
246.0,34.9,41.9,31.8,,36.2,5.2
246.25,34.3,41.8,32.5,,36.2,5.0
246.5,34.4,42.1,32.0,,36.2,5.3
246.75,34.2,41.8,33.0,,36.3,4.8
247.0,33.9,42.4,32.1,,36.2,5.5
247.25,34.5,42.3,32.0,,36.3,5.4
247.5,34.0,42.4,32.3,,36.2,5.4
247.75,34.3,42.5,32.5,,36.4,5.3
248.0,34.1,42.0,32.0,,36.1,5.3
248.25,34.6,41.8,32.4,,36.3,4.9
248.5,34.5,41.7,32.0,,36.1,5.0
248.75,33.8,41.8,32.1,,35.9,5.2
249.0,34.8,41.8,31.7,,36.1,5.2
249.25,34.4,41.5,32.3,,36.1,4.8
249.5,34.3,41.0,31.7,,35.6,4.8
249.75,34.2,41.4,31.7,,35.8,5.0
250.0,34.3,41.3,31.8,,35.8,4.9
250.25,34.1,41.4,32.3,,35.9,4.8
250.5,33.8,40.8,32.6,,35.8,4.4
250.75,33.8,41.1,32.1,,35.7,4.8
251.0,34.2,40.9,32.1,,35.8,4.6
251.25,34.2,41.1,31.9,,35.8,4.8
251.5,33.7,40.9,32.0,,35.6,4.7
251.75,34.2,42.2,32.1,,36.2,5.3
252.0,34.1,41.0,32.3,,35.8,4.6
252.25,33.7,41.2,31.9,,35.6,5.0
252.5,33.6,40.8,32.1,,35.5,4.7
252.75,33.8,41.1,32.2,,35.7,4.8
253.0,33.2,41.4,32.0,,35.5,5.1
253.25,33.4,40.5,32.3,,35.4,4.5
253.5,33.6,41.0,32.0,,35.5,4.8
253.75,33.2,41.7,31.8,,35.6,5.3
254.0,33.3,41.8,31.9,,35.7,5.4
254.25,33.0,40.8,31.6,,35.1,4.9
254.5,33.1,40.8,31.5,,35.1,5.0
254.75,32.7,40.7,31.3,,34.9,5.1
255.0,32.3,41.5,31.8,,35.2,5.4
255.25,32.0,40.7,32.1,,34.9,5.0
255.5,32.1,40.5,31.6,,34.7,5.0
255.75,31.9,41.0,31.6,,34.8,5.3
256.0,31.6,39.5,31.5,,34.2,4.6
256.25,31.6,40.2,31.1,,34.3,5.1
256.5,31.4,39.8,31.0,,34.1,5.0
256.75,30.5,39.4,31.4,,33.8,4.9
257.0,30.8,39.6,31.4,,33.9,4.9
257.25,30.6,39.3,31.6,,33.8,4.8
257.5,30.7,39.5,30.9,,33.7,5.0
257.75,30.8,39.2,31.5,,33.8,4.7
258.0,30.8,39.0,31.0,,33.6,4.7
258.25,30.3,38.9,31.3,,33.5,4.7
258.5,30.7,39.0,30.8,,33.5,4.8
258.75,30.6,38.8,31.1,,33.5,4.6
259.0,30.2,38.8,30.8,,33.3,4.9
259.25,30.2,39.0,30.6,,33.3,5.0
259.5,30.4,38.5,30.4,,33.1,4.7
259.75,30.2,38.1,30.1,,32.8,4.6
260.0,30.3,38.9,30.4,,33.2,4.9
260.25,29.7,38.4,30.3,,32.8,4.9
260.5,30.2,38.6,29.8,,32.9,5.0
260.75,30.2,39.0,30.3,,33.2,5.1
261.0,30.2,38.9,30.0,,33.0,5.0
261.25,30.0,38.4,29.8,,32.7,4.9
261.5,29.9,38.7,30.5,,33.0,4.9
261.75,30.0,38.6,29.7,,32.8,5.0
262.0,30.2,38.3,29.7,,32.7,4.8
262.25,30.0,38.6,30.0,,32.9,4.9
262.5,30.1,38.6,29.9,,32.9,5.0
262.75,29.6,38.0,29.4,,32.3,4.9
263.0,30.0,38.3,29.5,,32.6,4.9
263.25,29.9,37.7,29.4,,32.3,4.7
263.5,30.0,37.8,29.0,,32.3,4.8
263.75,29.6,37.8,29.3,,32.2,4.8
264.0,29.7,37.9,29.3,,32.3,4.8
264.25,29.7,37.7,29.1,,32.1,4.8
264.5,29.8,37.0,29.2,,32.0,4.4
264.75,29.8,37.8,29.0,,32.2,4.9
265.0,29.9,37.2,28.5,,31.9,4.6
265.25,29.7,37.4,28.7,,31.9,4.8
265.5,30.1,36.8,29.1,,32.0,4.2
265.75,30.3,36.9,28.2,,31.8,4.5
266.0,30.0,36.5,28.6,,31.7,4.2
266.25,30.2,36.3,28.3,,31.6,4.2
266.5,30.3,35.8,28.3,,31.5,3.9
266.75,30.7,36.6,27.9,,31.7,4.5
267.0,30.7,36.1,28.0,,31.6,4.2
267.25,31.2,36.7,27.9,,32.0,4.5
267.5,31.4,35.6,27.7,,31.6,4.0
267.75,31.1,36.3,28.0,,31.8,4.2
268.0,31.6,36.0,27.5,,31.7,4.2
268.25,31.7,36.2,27.5,,31.8,4.3
268.5,31.7,36.0,27.3,,31.7,4.3
268.75,31.8,35.8,27.6,,31.8,4.1
269.0,31.2,36.0,27.7,,31.6,4.2
269.25,31.7,35.6,27.3,,31.5,4.2
269.5,31.6,35.5,27.3,,31.5,4.1
269.75,32.2,34.9,27.5,,31.5,3.8
270.0,31.8,34.9,27.4,,31.3,3.8
270.25,32.1,35.3,27.2,,31.5,4.1
270.5,32.0,35.1,27.6,,31.6,3.8
270.75,31.7,34.6,27.4,,31.2,3.6
271.0,31.8,34.9,27.5,,31.4,3.7
271.25,31.8,35.3,27.6,,31.6,3.9
271.5,31.8,34.9,27.3,,31.4,3.8
271.75,31.2,34.7,27.4,,31.1,3.6
272.0,31.0,34.7,27.2,,31.0,3.8
272.25,31.4,35.0,27.1,,31.2,4.0
272.5,31.7,34.3,26.9,,31.0,3.7
272.75,31.1,34.3,26.8,,30.7,3.8
273.0,31.0,34.8,26.7,,30.8,4.1
273.25,30.7,34.6,26.1,,30.5,4.2
273.5,30.4,34.7,26.4,,30.5,4.1
273.75,30.9,34.5,26.8,,30.8,3.8
274.0,30.0,34.2,26.5,,30.2,3.8
274.25,29.9,34.2,26.5,,30.2,3.8
274.5,29.6,34.8,26.1,,30.2,4.4
274.75,29.2,34.9,26.6,,30.2,4.2
275.0,29.4,34.1,26.2,,29.9,4.0
275.25,28.4,34.5,26.2,,29.7,4.3
275.5,28.4,34.5,26.1,,29.7,4.3
275.75,27.8,34.3,26.6,,29.5,4.1
276.0,27.7,34.7,26.4,,29.6,4.5
276.25,27.6,34.2,26.1,,29.3,4.3
276.5,27.4,33.9,26.4,,29.2,4.1
276.75,26.6,34.1,26.0,,28.9,4.5
277.0,27.0,33.9,25.8,,28.9,4.4
277.25,26.0,33.7,26.0,,28.6,4.4
277.5,25.9,33.8,25.9,,28.5,4.6
277.75,25.9,34.0,25.7,,28.5,4.7
278.0,26.0,33.5,25.5,,28.4,4.5
278.25,25.4,33.6,25.8,,28.3,4.6
278.5,24.9,34.0,25.5,,28.2,5.1
278.75,24.9,33.6,25.9,,28.1,4.7
279.0,24.4,33.4,25.3,,27.7,5.0
279.25,24.5,33.2,25.6,,27.8,4.8
279.5,24.4,33.3,25.2,,27.6,5.0
279.75,24.3,32.9,25.3,,27.5,4.7
280.0,24.0,32.8,24.7,,27.2,4.9
280.25,23.6,32.8,25.3,,27.2,4.9
280.5,23.6,32.8,25.2,,27.2,4.9
280.75,23.7,32.6,24.9,,27.0,4.8
281.0,23.3,33.0,25.2,,27.2,5.1
281.25,23.2,32.8,24.8,,27.0,5.2
281.5,23.0,32.5,25.1,,26.9,5.0
281.75,23.1,33.0,25.1,,27.1,5.2
282.0,23.0,32.5,25.0,,26.8,5.0
282.25,22.8,32.2,25.2,,26.8,4.9
282.5,22.7,32.3,25.1,,26.7,5.0
282.75,22.8,32.4,25.0,,26.8,5.0
283.0,22.5,32.2,25.0,,26.6,5.1
283.25,22.5,31.7,25.1,,26.4,4.7
283.5,22.6,31.9,25.1,,26.5,4.8
283.75,22.5,31.8,25.1,,26.5,4.8
284.0,22.7,31.3,24.6,,26.2,4.5
284.25,22.7,31.6,24.7,,26.3,4.7
284.5,22.4,31.6,24.8,,26.3,4.7
284.75,22.2,31.5,24.5,,26.0,4.9
285.0,22.5,31.2,24.6,,26.1,4.6
285.25,22.2,30.9,24.4,,25.9,4.5
285.5,22.5,31.2,24.4,,26.0,4.6
285.75,22.5,31.5,24.3,,26.1,4.7
286.0,22.4,30.6,24.1,,25.7,4.3
286.25,22.2,30.5,24.4,,25.7,4.3
286.5,22.2,30.9,24.2,,25.8,4.6
286.75,22.5,30.4,24.4,,25.8,4.1
287.0,22.5,30.3,24.5,,25.8,4.1
287.25,22.3,30.5,24.2,,25.7,4.2
287.5,22.2,29.9,24.4,,25.5,4.0
287.75,22.9,30.2,24.0,,25.7,3.9
288.0,22.4,29.8,24.3,,25.5,3.8
288.25,22.9,29.9,24.4,,25.7,3.7
288.5,22.8,30.0,24.4,,25.7,3.7
288.75,22.7,29.9,23.9,,25.5,3.9
289.0,22.8,30.3,24.2,,25.8,4.0
289.25,22.9,29.6,23.8,,25.4,3.6
289.5,22.6,29.4,24.3,,25.4,3.5
289.75,22.8,29.4,24.3,,25.5,3.5
290.0,22.7,29.3,24.3,,25.5,3.4
290.25,22.8,29.2,24.2,,25.4,3.3
290.5,22.9,29.2,23.8,,25.3,3.4
290.75,23.0,29.3,24.3,,25.5,3.3
291.0,22.8,29.4,24.0,,25.4,3.5
291.25,22.8,29.1,23.6,,25.2,3.4
291.5,22.5,28.9,23.8,,25.1,3.3
291.75,22.8,28.7,23.8,,25.1,3.2
292.0,22.5,29.1,23.7,,25.1,3.5
292.25,22.6,28.8,23.6,,25.0,3.4
292.5,22.5,28.3,23.1,,24.6,3.2
292.75,22.5,28.4,23.4,,24.8,3.2
293.0,22.3,28.6,23.3,,24.7,3.4
293.25,22.3,28.5,23.2,,24.7,3.4
293.5,22.4,28.4,23.3,,24.7,3.2
293.75,22.2,28.3,23.0,,24.5,3.3
294.0,21.8,28.2,23.1,,24.4,3.4
294.25,22.1,28.3,23.4,,24.6,3.3
294.5,22.1,28.4,23.4,,24.6,3.3
294.75,22.1,28.4,23.1,,24.5,3.4
295.0,21.9,28.7,22.9,,24.5,3.7
295.25,22.0,28.0,22.9,,24.3,3.3
295.5,22.0,28.2,22.8,,24.3,3.4
295.75,21.8,28.5,22.7,,24.3,3.6
296.0,22.1,28.0,22.8,,24.3,3.2
296.25,21.9,28.4,22.5,,24.3,3.6
296.5,22.0,28.4,22.6,,24.3,3.6
296.75,22.1,27.6,22.3,,24.0,3.1
297.0,21.7,28.2,22.4,,24.1,3.6
297.25,21.8,28.0,22.2,,24.0,3.5
297.5,22.0,28.4,22.4,,24.3,3.6
297.75,22.0,28.8,22.1,,24.3,3.9
298.0,21.9,27.9,22.0,,23.9,3.4
298.25,22.0,27.9,22.2,,24.0,3.4
298.5,22.3,28.2,22.4,,24.3,3.4
298.75,22.1,27.6,21.8,,23.8,3.3
299.0,22.1,27.6,22.0,,23.9,3.2
299.25,22.3,27.6,21.5,,23.8,3.3
299.5,22.0,27.4,22.0,,23.8,3.1
299.75,22.0,27.5,21.9,,23.8,3.2
300.0,22.2,27.3,21.9,,23.8,3.1
300.25,21.9,26.8,22.1,,23.6,2.8
300.5,22.3,27.0,21.7,,23.7,2.9
300.75,22.2,27.0,21.5,,23.6,3.0
301.0,22.5,26.7,21.8,,23.6,2.7
301.25,22.5,26.4,21.6,,23.5,2.6
301.5,22.4,26.4,21.8,,23.6,2.5
301.75,22.4,26.2,21.8,,23.5,2.4
302.0,22.6,26.1,21.8,,23.5,2.3
302.25,22.6,26.0,21.8,,23.5,2.2
302.5,22.8,26.1,21.6,,23.5,2.3
302.75,22.7,26.1,21.8,,23.5,2.3
303.0,22.4,25.4,22.0,,23.3,1.9
303.25,22.6,26.0,21.9,,23.5,2.2
303.5,22.2,25.4,22.1,,23.2,1.9
303.75,22.1,25.4,22.2,,23.2,1.9
304.0,21.8,25.1,21.8,,22.9,1.9
304.25,21.8,25.0,21.8,,22.9,1.8
304.5,21.6,25.1,21.5,,22.7,2.0
304.75,21.5,24.6,21.7,,22.6,1.8
305.0,21.3,24.9,21.9,,22.7,1.9
305.25,21.2,24.9,21.7,,22.6,2.0
305.5,21.4,24.9,21.7,,22.7,1.9
305.75,21.3,24.9,21.7,,22.6,2.0
306.0,20.8,24.2,21.8,,22.3,1.8
306.25,20.9,24.4,21.6,,22.3,1.8
306.5,20.6,24.3,21.5,,22.1,1.9
306.75,20.4,24.0,22.0,,22.1,1.8
307.0,20.8,23.9,21.6,,22.1,1.6
307.25,20.3,23.6,21.9,,21.9,1.7
307.5,20.3,23.4,22.1,,21.9,1.6
307.75,20.2,23.4,21.7,,21.8,1.6
308.0,19.9,23.2,22.1,,21.7,1.7
308.25,20.2,23.2,22.1,,21.8,1.5
308.5,19.8,23.0,21.6,,21.5,1.6
308.75,19.7,23.2,21.7,,21.5,1.8
309.0,19.8,,22.0,,20.9,1.5
309.25,19.7,,22.2,,20.9,1.8
309.5,19.7,,21.9,,20.8,1.5
309.75,19.7,,21.9,,20.8,1.6
310.0,19.6,,22.1,,20.9,1.7
310.25,19.6,,21.9,,20.7,1.7
310.5,19.5,,22.1,,20.8,1.9
310.75,19.6,,21.7,,20.6,1.5
311.0,19.2,,21.7,,20.5,1.8
311.25,19.0,,22.0,,20.5,2.1
311.5,18.8,,22.0,,20.4,2.3
311.75,19.1,,21.8,,20.5,1.9
312.0,19.1,,22.0,,20.5,2.0
312.25,18.9,,21.9,,20.4,2.1
312.5,18.7,,22.0,,20.3,2.4
312.75,18.5,,21.9,,20.2,2.5
313.0,18.4,,21.7,,20.1,2.3
313.25,18.5,,21.8,,20.2,2.3
313.5,18.5,,22.0,,20.2,2.5
313.75,18.3,,21.9,,20.1,2.5
314.0,18.5,,21.9,,20.2,2.5
314.25,18.2,,21.8,,20.0,2.6
314.5,18.2,,21.8,,20.0,2.5
314.75,17.8,,21.6,,19.7,2.7
315.0,17.9,,21.3,,19.6,2.4
315.25,17.8,,21.3,,19.6,2.5
315.5,17.7,,21.4,,19.5,2.7
315.75,17.7,,21.4,,19.6,2.6
316.0,17.5,,21.3,,19.4,2.7
316.25,17.4,,21.3,,19.3,2.8
316.5,17.3,,21.2,,19.3,2.7
316.75,17.3,,21.2,,19.3,2.7
317.0,17.1,,21.0,,19.1,2.8
317.25,17.1,,21.1,,19.1,2.8
317.5,17.1,,20.9,,19.0,2.7
317.75,17.0,,20.6,,18.8,2.5
318.0,16.9,,20.5,,18.7,2.5
318.25,17.0,,20.6,,18.8,2.6
318.5,16.9,,20.4,,18.6,2.5
318.75,17.0,,20.2,,18.6,2.3
319.0,17.1,,20.3,,18.7,2.2
319.25,16.9,,20.5,,18.7,2.5
319.5,17.0,,20.0,,18.5,2.1
319.75,16.9,,20.2,,18.5,2.3
320.0,16.7,,19.9,,18.3,2.3
320.25,16.7,,20.1,,18.4,2.4
320.5,16.6,,19.9,,18.3,2.3
320.75,16.8,,20.0,,18.4,2.3
321.0,16.8,,20.0,,18.4,2.2
321.25,16.5,,20.0,,18.3,2.5
321.5,16.7,,19.8,,18.3,2.2
321.75,16.3,,19.8,,18.0,2.4
322.0,16.5,,20.3,,18.4,2.7
322.25,16.7,,20.1,,18.4,2.4
322.5,16.5,,20.2,,18.4,2.6
322.75,16.5,,20.2,,18.4,2.6
323.0,16.7,,20.1,,18.4,2.4
323.25,16.8,,20.3,,18.6,2.5
323.5,16.8,,20.2,,18.5,2.4
323.75,16.7,,20.4,,18.6,2.6
324.0,16.9,,20.3,,18.6,2.4
324.25,16.6,,20.3,,18.4,2.6
324.5,16.9,,20.5,,18.7,2.5
324.75,16.9,,20.4,,18.7,2.5
325.0,16.8,,20.6,,18.7,2.7
325.25,16.7,,20.2,,18.5,2.5
325.5,16.8,,20.2,,18.5,2.4
325.75,16.8,,20.8,,18.8,2.9
326.0,16.7,,20.7,,18.7,2.8
326.25,16.6,,21.0,,18.8,3.1
326.5,16.7,,20.9,,18.8,3.0
326.75,16.7,,20.8,,18.8,2.9
327.0,16.9,,20.8,,18.9,2.8
327.25,17.1,,21.1,,19.1,2.8
327.5,17.1,,21.0,,19.0,2.8
327.75,17.2,,21.2,,19.2,2.8
328.0,17.2,,21.2,,19.2,2.8
328.25,17.1,,21.0,,19.1,2.8
328.5,17.0,,21.2,,19.1,3.0
328.75,17.2,,21.3,,19.3,2.9
329.0,17.0,,21.0,,19.0,2.8
329.25,17.0,,21.2,,19.1,3.0
329.5,17.0,,21.2,,19.1,3.0
329.75,17.0,,21.1,,19.0,2.9
330.0,17.0,,21.1,,19.0,3.0
330.25,17.2,,20.9,,19.1,2.6
330.5,16.8,,21.5,,19.1,3.3
330.75,16.7,,21.2,,19.0,3.1
331.0,16.2,,21.0,,18.6,3.4
331.25,16.6,,21.2,,18.9,3.2
331.5,16.7,,21.3,,19.0,3.2
331.75,16.9,,21.3,,19.1,3.1
332.0,16.7,,21.3,,19.0,3.3
332.25,16.9,,21.2,,19.1,3.1
332.5,16.8,,21.2,,19.0,3.1
332.75,16.7,,20.6,,18.6,2.8
333.0,16.7,,20.5,,18.6,2.7
333.25,16.8,,20.5,,18.7,2.7
333.5,16.8,,20.7,,18.7,2.8
333.75,16.7,,20.8,,18.7,2.9
334.0,16.6,,20.6,,18.6,2.8
334.25,16.9,,20.4,,18.7,2.5
334.5,16.6,,20.2,,18.4,2.5
334.75,16.7,,20.1,,18.4,2.4
335.0,16.7,,20.4,,18.5,2.6
335.25,16.6,,20.1,,18.3,2.5
335.5,16.7,,20.4,,18.6,2.6
335.75,16.8,,20.1,,18.5,2.3
336.0,16.6,,19.8,,18.2,2.2
336.25,16.5,,19.6,,18.0,2.2
336.5,16.5,,19.7,,18.1,2.3
336.75,16.5,,19.5,,18.0,2.1
337.0,16.1,,19.3,,17.7,2.2
337.25,16.7,,19.3,,18.0,1.9
337.5,16.3,,19.1,,17.7,2.0
337.75,16.5,,19.3,,17.9,1.9
338.0,16.6,,19.0,,17.8,1.8
338.25,16.2,,19.0,,17.6,2.0
338.5,16.3,,19.0,,17.7,1.9
338.75,16.4,,19.1,,17.8,1.9
339.0,16.3,,19.0,,17.6,1.9
339.25,16.2,,19.1,,17.7,2.0
339.5,16.3,,19.0,,17.7,1.9
339.75,16.7,,19.0,,17.8,1.6
340.0,16.5,,18.8,,17.6,1.6
340.25,16.5,,18.7,,17.6,1.5
340.5,16.5,,18.7,,17.6,1.6
340.75,16.3,,18.6,,17.5,1.7
341.0,16.4,,18.7,,17.5,1.7
341.25,16.4,,18.4,,17.4,1.5
341.5,16.4,,18.9,,17.6,1.8