File: 01_Data/Overstuffed_Chair/Furniture_Calorimeter/Overstuffed_Chair_R3.csv
Time (s),Convective HRR,TCPlume1,TCPlume2,TCPlume3,DPPlume1,DPPlume2,DPPlume3,HF1,HF2,HF3,HF4,HF5,HF6,RAD2,RAD1,Load Cell,Heat Release Rate,Total Heat Released
-120,0.0,-5.38529,-3.77914,16.3039,0.0381701,0.0569958,0.0374671,-0.0943957,-4.46941e-15,-0.451631,-0.28983,0.349746,-0.0332757,0.281084,1.92317,28.5837,0.0,0.0
-115,1.4476,-4.92332,-4.09573,15.9175,0.0305744,-0.0113609,0.00708492,-1.69912,-4.46941e-15,1.17698,-0.28983,-0.0252069,0.108146,0.115037,1.92317,28.5421,0.0,0.0
-110,0.92563,-5.24073,-3.90705,15.7977,-0.0301914,-0.094908,0.0678493,0.707968,0.898695,-0.451631,0.572413,0.349746,-0.0332757,0.613177,1.92317,28.5214,0.0,0.0
-105,1.14363,-5.20744,-4.30153,15.4111,0.0609573,0.0266151,-0.000510625,0.707968,-4.46941e-15,-0.451631,-0.28983,0.349746,-0.174697,0.447131,1.92317,28.5421,0.0,0.0
-100,0.0,-5.29677,-4.46851,15.2094,-0.0605743,-0.056932,-0.0764661,-0.0943957,-4.46941e-15,0.362673,0.572413,-0.0252069,-0.0332757,0.281084,2.88169,28.729,0.0,0.0
-95,0.09058,-5.26348,-4.59094,15.2039,0.0609573,0.0266151,0.0374671,-1.69912,-0.898695,-0.451631,1.43466,0.724698,-0.0332757,0.447131,1.92317,28.5421,0.0,0.0
-90,0.58654,-5.1969,-4.83591,15.2309,-0.0529786,-0.094908,-0.0764661,-0.0943957,0.898695,0.362673,0.572413,0.724698,-0.174697,0.613177,0.964651,28.5629,0.0,0.0
-85,2.29119,-5.15224,-4.83023,14.8172,-0.00740423,-0.0113609,0.0146805,-0.0943957,-1.79739,0.362673,-0.28983,-0.0252069,0.108146,0.447131,2.88169,28.7706,0.0,0.0
-80,0.0,-4.74079,-4.73045,14.8767,0.0305744,0.0342103,0.0298716,0.707968,0.898695,1.17698,0.572413,-0.400159,-0.0332757,0.447131,2.88169,28.729,0.0,0.0
-75,0.0,-4.79109,-4.50825,14.98,-0.12134,-0.0265513,-0.000510625,-0.0943957,0.898695,0.362673,-0.28983,0.349746,0.108146,0.447131,0.964651,28.6875,0.0,0.0
-70,0.0,-6.31222,-4.54717,15.0943,0.00778721,0.0569958,0.0146805,0.707968,0.898695,-0.451631,-1.15207,0.349746,0.249568,0.447131,2.88169,28.5214,0.0,0.0
-65,0.0,-6.71441,-4.79211,15.007,0.0457658,0.102567,0.0374671,0.707968,-0.898695,0.362673,0.572413,0.349746,-0.174697,0.779224,1.92317,28.5421,0.0,0.0
-60,0.0,-6.56946,-4.64773,14.9196,-0.12134,0.0114247,-0.0308928,-0.896759,-0.898695,-0.451631,-0.28983,-0.0252069,-0.0332757,0.281084,2.88169,28.6875,0.0,0.0
-55,0.0,-6.45223,-4.53095,15.1864,-0.0225957,0.00382951,-0.0536794,-0.0943957,-1.79739,0.362673,-0.28983,0.349746,-0.0332757,0.447131,1.92317,28.5629,0.0,0.0
-50,0.0,-6.27968,-4.78725,14.7449,0.0229787,-0.00376568,0.00708492,0.707968,0.898695,0.362673,0.572413,-0.0252069,-0.0332757,0.115037,0.964651,28.9159,0.0,0.0
-45,0.0,-6.12346,-4.94304,14.783,0.0609573,0.0494006,0.0906359,0.707968,-0.898695,-0.451631,0.572413,-0.400159,-0.0332757,0.281084,2.88169,28.8952,0.0,0.0
-40,0.0,-6.35781,-5.05992,14.8211,-0.0225957,0.0418055,-0.0232973,0.707968,-0.898695,1.17698,0.572413,-0.400159,0.108146,0.447131,0.964651,28.6875,0.0,0.0
-35,0.0,-6.49212,-5.27184,14.8807,-0.015,0.0721862,0.022276,-0.896759,-0.898695,0.362673,-0.28983,-0.400159,-0.0332757,0.281084,1.92317,28.5629,0.0,0.0
-30,0.0,-7.31909,-5.74555,14.7227,0.000191489,-0.0113609,0.0602537,-0.0943957,-4.46941e-15,0.362673,-0.28983,-0.0252069,-0.174697,0.613177,1.92317,28.7498,0.0,0.0
-25,0.0,-6.84964,-5.97973,14.837,-0.00740423,-0.0417416,-0.0157017,-0.0943957,-0.898695,-1.26594,0.572413,-0.0252069,0.108146,0.447131,0.964651,28.8952,0.0,0.0
-20,0.0,-8.27633,-5.33356,15.1634,0.000191489,0.0494006,0.105827,-0.0943957,-4.46941e-15,0.362673,-0.28983,-0.0252069,0.108146,0.447131,0.964651,28.5214,0.0,0.0
-15,0.0,-6.95066,-5.80733,14.7385,-0.0225957,-0.00376568,-0.0688705,-0.0943957,0.898695,0.362673,0.572413,-0.0252069,0.108146,0.447131,1.92317,28.7083,0.0,0.0
-10,0.0,-7.07371,-5.89108,14.6186,-0.015,0.00382951,-0.0308928,-0.0943957,-0.898695,-0.451631,1.43466,-0.400159,-0.0332757,0.447131,1.92317,28.729,0.0,0.0
-5,0.0,-7.16337,-5.90246,14.5312,-0.0225957,-0.0645272,0.022276,-0.896759,-4.46941e-15,-0.451631,-1.15207,-0.400159,-0.174697,0.447131,1.92317,28.729,0.0,0.0
0,0.0,-7.2082,-5.90815,14.335,-0.0225957,-0.0721224,-0.0157017,-0.896759,0.898695,0.362673,0.572413,0.349746,0.108146,0.613177,1.92317,28.7706,0.0,0.0
5,0.0,-7.33702,-5.68539,14.2858,0.0305744,-0.0113609,0.0982315,0.707968,-4.46941e-15,0.362673,-0.28983,-0.400159,0.108146,0.281084,1.92317,28.7083,0.0,0.0
10,0.0,-7.46586,-5.85285,14.2747,0.0533616,-0.0797176,-0.000510625,-0.896759,1.79739,-0.451631,0.572413,-0.0252069,-0.174697,0.281084,0.964651,28.6875,0.0,0.0
15,0.0,-7.35414,-5.89758,14.2691,-0.0301914,0.0266151,0.121018,1.51033,-0.898695,0.362673,-0.28983,-0.0252069,-0.0332757,0.115037,0.964651,28.7083,0.0,0.0
20,0.0,-7.72364,-6.03176,14.138,-0.0377871,0.0494006,0.0678493,-0.896759,-0.898695,0.362673,-1.15207,0.349746,0.108146,0.447131,2.88169,28.6875,0.0,0.0
25,0.0,-7.73506,-6.31653,14.2032,-0.015,-0.00376568,0.00708492,-0.896759,-0.898695,-0.451631,0.572413,-0.0252069,0.108146,0.281084,1.92317,28.9159,0.0,0.0
30,0.0,-7.76852,-6.38897,14.285,-0.0377871,0.0342103,0.0678493,-0.0943957,-0.898695,-0.451631,2.2969,-0.0252069,-0.174697,0.613177,0.964651,28.729,0.0,0.0
35,0.0,-7.8697,-6.64624,14.1484,0.000191489,-0.0189561,-0.0232973,0.707968,-4.46941e-15,0.362673,-0.28983,0.349746,0.108146,0.281084,1.92317,28.7083,0.0,0.0
40,0.0,-9.25392,-6.26687,14.3661,-0.00740423,-0.0417416,0.0374671,0.707968,0.898695,1.17698,-0.28983,-0.0252069,0.108146,0.447131,1.92317,28.7498,0.0,0.0
45,0.0,-8.00438,-6.97615,14.2461,0.0381701,0.0873766,0.0374671,-1.69912,1.79739,0.362673,-0.28983,-0.0252069,0.108146,0.281084,2.88169,28.9159,0.0,0.0
50,0.0,-7.62407,-6.83112,14.2731,-0.0377871,0.0114247,-0.0157017,-0.0943957,0.898695,0.362673,0.572413,0.349746,0.108146,0.447131,0.964651,28.8744,0.0,0.0
55,0.0,-7.43402,-6.68042,14.2676,-0.0225957,0.0190199,-0.0688705,0.707968,0.898695,0.362673,-0.28983,0.349746,0.108146,0.447131,2.88169,28.8536,0.0,0.0
60,0.0,-7.88191,-6.54116,14.2509,0.00778721,-0.0189561,0.00708492,-0.0943957,-0.898695,0.362673,-0.28983,-0.400159,-0.0332757,0.447131,2.88169,28.729,0.0,0.0
65,0.0,-7.96027,-6.30672,14.2509,0.00778721,0.0114247,0.0450626,-0.0943957,0.898695,1.17698,-1.15207,0.349746,0.108146,0.447131,2.88169,28.8744,0.0,0.0
70,0.0,-8.52052,-5.84954,14.3923,0.136915,0.467136,-0.000510625,-0.896759,-0.898695,1.17698,1.43466,-0.0252069,-0.174697,0.613177,0.964651,28.8536,0.0,0.0
75,0.0,-8.49844,-5.55446,15.1,-0.00740423,0.375994,0.364076,-0.0943957,1.79739,-0.451631,-0.28983,0.349746,-0.174697,0.281084,2.88169,28.8952,8.96981,0.00663231
80,0.0,-6.5075,-4.93646,15.9708,0.228063,-0.0189561,0.417244,1.51033,-4.46941e-15,0.362673,0.572413,-0.0252069,-0.0332757,0.281084,4.79872,28.7083,19.6526,0.0863856
85,0.0,-6.74203,-3.9248,16.2374,0.493914,0.170924,-0.00810617,1.51033,1.79739,0.362673,0.572413,-0.0252069,0.108146,0.613177,2.88169,28.8744,30.6959,0.224874
90,0.0,-5.2366,-2.5838,17.477,0.311616,0.360803,1.1692,2.31269,0.898695,1.99128,0.572413,0.724698,-0.0332757,0.945271,1.92317,28.729,39.6982,0.408428
95,0.0,-3.07617,-0.977828,20.0829,0.691402,0.61904,3.18202,1.51033,0.898695,1.99128,0.572413,-0.0252069,0.249568,0.613177,2.88169,28.8952,74.6205,0.696171
100,0.0,-1.02674,4.61679,23.8734,0.759764,0.330423,1.8604,3.11506,0.898695,1.17698,-0.28983,0.724698,0.108146,0.779224,3.8402,28.6875,103.892,1.15477
105,0.0,1.33526,6.8966,24.9537,0.486318,0.915252,0.28812,3.11506,0.898695,1.17698,0.572413,0.724698,0.249568,0.613177,5.75724,28.7083,162.179,1.84281
110,7.56179,4.73157,7.91845,25.0183,1.32185,3.64193,0.546369,3.91742,0.898695,2.80559,1.43466,1.4746,0.815255,0.945271,5.75724,28.8744,199.196,2.78319
115,20.3132,13.2128,16.6532,32.4714,2.98531,1.9482,2.87061,6.32451,2.69609,1.99128,2.2969,1.09965,0.815255,1.44341,8.63279,28.5629,286.186,4.07299
120,33.1893,20.9303,28.9908,44.5612,3.62335,7.13571,4.12387,7.12688,2.69609,3.61989,2.2969,1.4746,1.0981,1.44341,9.5913,28.5214,293.043,5.49207
125,54.3404,27.6824,42.9644,64.4715,3.04608,0.535493,2.94656,7.92924,3.59478,3.61989,3.15914,1.84956,1.23952,1.44341,11.5083,28.3968,387.94,7.16187
130,80.0563,30.6397,43.9887,76.4156,0.455935,3.94573,4.54922,9.53397,3.59478,5.2485,3.15914,2.59946,1.52236,1.60946,11.5083,28.5837,467.884,9.3125
135,117.808,45.9444,60.0941,91.2097,2.53716,1.9482,3.3871,11.9411,4.49348,5.2485,4.02138,2.59946,1.94663,2.27365,11.5083,28.2306,580.253,11.9956
140,135.366,57.4224,77.9159,112.185,5.02096,11.5637,4.69354,13.5458,5.39217,6.0628,4.88363,4.09927,1.94663,2.1076,12.4669,28.0437,689.359,15.1657
145,168.798,75.7613,105.162,145.773,6.33502,10.3409,1.88318,14.3481,5.39217,6.0628,4.02138,3.34936,2.08805,2.60574,14.3839,28.2306,688.319,18.6705
150,202.301,82.6181,112.316,156.049,6.10715,5.76858,4.33655,16.7552,6.29087,6.87711,4.02138,4.47422,2.37089,2.93783,17.2594,27.9192,783.262,22.2467
155,268.414,97.1942,128.194,175.08,8.73527,3.63433,9.98763,19.9647,8.08826,7.69141,6.60811,4.84917,3.21943,2.93783,18.218,27.7323,978.723,26.5931
160,331.04,122.07,158.02,197.637,6.72241,9.6801,8.56726,21.5694,8.08826,8.50572,5.74587,4.84917,3.36085,3.26993,20.135,27.3585,850.598,31.0526
165,337.435,124.911,152.628,206.333,5.60584,2.38112,5.24042,22.3718,8.98695,7.69141,5.74587,5.59908,3.36085,3.43597,21.0935,27.2131,912.482,35.4521
170,395.205,129.015,164.243,215.377,4.2462,8.61677,10.9978,26.3836,8.08826,7.69141,6.60811,5.22413,3.64369,3.76807,22.052,26.9016,1013.68,40.1355
175,497.405,138.441,188.574,244.235,8.13521,9.72567,9.38758,27.186,9.88565,9.32002,6.60811,5.97403,3.92653,3.93411,26.8446,26.7147,1071.8,45.5107
180,455.799,142.127,186.462,246.518,3.8968,6.75595,6.09112,30.3954,11.683,11.7629,7.47036,7.09889,4.49222,4.43225,29.7202,26.2371,1176.79,51.3631
185,475.472,155.67,201.827,271.254,5.03616,11.1991,6.03795,36.8143,14.3791,14.2058,8.3326,8.22375,5.34075,5.09644,35.4713,26.071,1348.14,57.8552
190,504.313,187.755,247.691,322.881,4.70954,11.4878,3.10607,41.6285,15.2778,15.0202,10.9193,9.3486,5.76502,5.59458,39.3053,25.5726,1386.13,64.4973
195,543.926,192.222,276.582,376.974,6.83634,8.46487,11.4004,43.2332,16.1765,16.6488,10.0571,10.4735,6.61355,6.59086,42.1809,25.3857,1495.22,71.9544
200,599.242,216.516,318.193,435.025,5.44633,13.6752,10.8459,48.8498,17.9739,18.2774,10.9193,10.8484,7.17923,6.92295,44.0979,24.8665,1485.34,79.3999
205,711.43,208.668,316.021,473.47,1.95989,11.2295,13.7094,48.8498,18.8726,19.906,13.5061,11.9733,7.17923,7.089,46.9735,24.3889,1740.21,87.0384
210,733.607,217.444,342.465,516.087,10.3228,10.6219,12.4942,52.0592,18.8726,19.906,14.3683,12.3482,8.16919,7.58714,47.932,24.0567,1804.03,95.518
215,806.648,232.558,362.806,551.045,16.7715,3.00393,5.72653,56.8734,20.67,20.7203,13.5061,13.4731,8.31061,7.75319,48.8905,23.6206,1767.23,104.249
220,818.352,257.737,383.625,588.322,7.60351,14.3739,9.63824,59.2805,21.5687,22.3489,16.0928,13.4731,8.59345,8.74947,51.766,23.1222,1786.2,113.192
225,964.54,272,424.884,637.112,4.68675,6.17872,13.4816,63.2923,24.2648,22.3489,17.8173,14.223,9.30056,8.74947,56.5586,22.5823,1752.67,121.733
230,995.849,263.217,417.976,632.793,7.17815,7.74333,12.0764,66.5018,23.3661,25.6061,19.5418,15.3478,9.72483,9.5797,62.3097,22.25,1585.79,130.084
235,981.565,259.878,408.657,632.02,5.46152,14.017,16.1096,66.5018,23.3661,24.7918,18.6795,14.223,9.5834,9.24761,61.3512,21.6063,1591.93,138.214
240,1006.53,253.25,398.179,623.339,11.6216,8.16106,7.67099,67.3041,23.3661,24.7918,17.8173,14.223,9.30056,9.08156,62.3097,21.274,1387.79,145.522
245,1008.87,235.217,359.003,587.774,12.2369,7.81168,8.70398,66.5018,22.4674,23.1632,19.5418,13.848,8.8763,8.74947,58.4757,20.7548,1252.48,152.074
250,937.239,231.056,341.667,564.23,4.99058,8.85982,10.6408,65.6994,20.67,21.5346,19.5418,12.3482,8.16919,7.42109,57.5171,20.4018,1203.81,158.219
255,985.038,213.869,314.617,537.514,4.74752,15.2246,7.80771,65.6994,18.8726,21.5346,18.6795,12.3482,7.32066,7.089,58.4757,20.0696,1163.88,164.057
260,859.696,203.501,299.991,515.179,3.12963,10.4928,9.97244,60.8852,17.0752,20.7203,17.8173,10.4735,7.03781,6.75691,53.6831,19.5712,1035.84,169.528
265,782.417,187.419,281.113,491.361,6.13754,12.5739,6.15188,56.0711,15.2778,17.4631,15.2305,10.0985,6.47213,6.25877,49.849,19.2389,964.854,174.698
270,776.279,181.959,265.397,471.925,4.97539,10.6903,9.75217,48.0474,15.2778,15.8345,12.6438,8.22375,5.48217,5.26249,41.2224,18.9067,932.58,179.528
275,771.512,175.072,257.278,452.887,5.56786,6.28505,8.32421,47.2451,13.4804,16.6488,12.6438,7.84879,5.19933,4.93039,40.2638,18.5744,871.858,184.374
280,695.128,172.282,244.971,433.05,5.69698,11.2827,6.12909,44.0356,12.5817,15.8345,12.6438,7.09889,4.91649,4.76435,36.4298,18.2629,910.086,188.783
285,653.972,167.206,237.132,421.384,4.92982,9.64212,8.00519,39.2214,10.7843,13.3915,10.0571,7.09889,4.20938,4.26621,32.5957,17.9514,849.729,193.034
290,642.337,160.499,230.667,409.59,6.63126,10.4548,5.76451,36.8143,9.88565,12.5772,10.0571,5.97403,4.3508,4.26621,28.7616,17.5984,790.698,197.132
295,610.577,152.044,218.934,394.863,4.84626,9.80922,10.8611,35.2096,11.683,11.7629,11.7816,5.97403,3.78511,3.93411,29.7202,17.2661,814.28,201.025
300,642.728,142.959,206.076,380.701,5.40075,13.4701,6.73674,36.8143,8.98695,10.9486,11.7816,6.34898,4.06796,3.76807,28.7616,16.9131,802.442,205.028
305,612.577,139.783,203.783,371.625,12.3205,6.50531,10.5725,33.6049,10.7843,11.7629,9.19484,5.59908,3.92653,3.93411,28.7616,16.7678,809.165,209.016
310,572.059,133.784,197.479,357.185,2.09661,6.2091,4.45807,35.2096,8.98695,12.5772,10.9193,5.59908,3.92653,3.76807,29.7202,16.4563,838.356,212.995
315,594.671,136.224,196.291,348.988,4.70954,14.4195,7.19247,32.0001,9.88565,11.7629,10.0571,5.59908,3.92653,3.76807,26.8446,16.3109,814.74,217.07
320,570.947,139.265,193.761,342.016,5.63622,9.21679,5.14927,33.6049,10.7843,11.7629,10.9193,5.59908,3.92653,3.93411,26.8446,15.9163,761.153,221.01
325,574.309,132.189,184.445,332.017,1.13195,11.2827,8.4989,33.6049,8.98695,10.1343,8.3326,5.59908,3.50227,3.60202,24.9276,15.6048,733.504,224.833
330,586.554,127.901,177.791,326.67,4.65637,5.40401,13.3752,28.7907,8.98695,9.32002,9.19484,4.84917,3.21943,3.26993,23.0105,15.418,702.663,228.325
335,574.855,128.19,179.688,319.451,4.52724,8.61677,6.24303,27.9883,8.98695,10.1343,7.47036,4.47422,3.078,3.10388,24.9276,15.1272,642.981,231.624
340,536.151,120.853,169.267,304.992,2.34727,7.32559,9.41797,28.7907,8.08826,10.1343,9.19484,4.47422,3.21943,3.26993,24.9276,14.9611,605.119,234.882
345,534.599,113.734,161.529,295.196,7.14777,8.79906,4.50365,27.9883,7.18956,8.50572,6.60811,4.47422,3.078,2.93783,23.0105,14.7742,600.073,238.071
350,529.687,109.682,156.011,288.992,6.79836,8.62437,6.05314,27.186,7.18956,8.50572,5.74587,4.47422,2.93658,3.10388,23.0105,14.6081,572.597,241.052
355,474.572,113.197,161.551,286.763,5.91726,8.04714,11.6055,27.186,7.18956,8.50572,6.60811,4.47422,2.79516,2.93783,22.052,14.2966,546.848,244.117
360,429.865,112.364,158.492,282.455,8.83402,7.50028,9.07617,25.5812,7.18956,7.69141,6.60811,4.47422,2.65374,3.10388,21.0935,14.1097,451.88,246.553
365,435.243,111.393,153.51,275.962,5.21086,10.5839,9.88889,23.1741,7.18956,7.69141,7.47036,3.34936,2.65374,2.27365,19.1765,13.9436,501.814,248.923
370,423.208,105.765,145.521,267.749,4.58801,4.17359,6.62281,23.1741,7.18956,7.69141,6.60811,3.72432,2.08805,2.43969,21.0935,13.7774,474.995,251.367
375,408.668,100.549,139.548,261.291,7.59592,7.17369,8.87109,19.9647,6.29087,6.87711,6.60811,2.97441,2.51232,2.27365,17.2594,13.6113,492.79,253.801
380,342.245,94.919,131.993,253.595,3.39548,4.37106,3.83524,19.9647,4.49348,6.0628,6.60811,3.34936,2.22947,2.43969,16.3009,13.4867,438.943,256.241
385,367.822,87.5654,128.878,248.042,4.32975,4.7812,7.44312,18.36,5.39217,6.0628,4.88363,2.59946,1.94663,2.1076,17.2594,13.3206,482.383,258.555
390,345.038,87.2924,128.449,244.153,6.57049,8.95856,7.78492,18.36,5.39217,6.87711,5.74587,2.59946,1.94663,2.27365,13.4254,13.1337,451.724,260.84
395,357.261,91.9907,129.381,240.947,7.28449,5.32046,7.17728,17.5576,5.39217,6.0628,5.74587,3.34936,2.08805,1.94155,13.4254,12.9676,486.659,263.236
400,320.601,87.4286,123.758,234.83,4.92222,6.03441,5.4379,17.5576,3.59478,6.0628,4.88363,2.22451,1.94663,1.94155,13.4254,12.7807,426.375,265.525
405,345.6,86.2429,121.431,232.325,6.38819,8.38132,6.9722,16.7552,5.39217,3.61989,4.88363,2.59946,1.94663,1.7755,13.4254,12.7807,402.005,267.621
410,340.331,88.4149,123.042,230.97,4.17024,4.7888,6.30379,15.9529,4.49348,5.2485,4.02138,1.84956,1.66379,1.94155,13.4254,12.4484,397.152,269.676
415,364.247,86.2583,124.399,228.028,3.01569,11.9435,4.5796,15.1505,3.59478,5.2485,4.88363,1.84956,1.80521,1.44341,13.4254,12.4692,344.978,271.518
420,332.964,84.6853,121.601,224.396,6.06917,4.56854,5.57462,15.1505,3.59478,5.2485,4.02138,2.22451,1.52236,1.94155,12.4669,12.2615,356.963,273.26
425,315.458,86.9926,121.185,220.71,5.19567,4.76601,4.31376,15.1505,4.49348,4.4342,2.2969,2.59946,1.52236,1.7755,12.4669,12.1161,360.777,275.066
430,317.251,83.3117,114.802,214.391,3.0005,1.21146,3.25038,15.1505,4.49348,5.2485,4.02138,2.22451,1.80521,1.60946,11.5083,11.9915,375.002,276.929
435,280.634,73.4377,105.813,206.003,0.600254,8.63956,3.15924,13.5458,2.69609,3.61989,4.02138,2.22451,1.52236,1.7755,13.4254,11.8047,389.628,278.947
440,275.821,65.7668,100.191,202.49,1.69404,7.02178,7.07094,13.5458,4.49348,3.61989,3.15914,2.59946,1.66379,1.44341,11.5083,11.6385,353.128,280.752
445,282.092,70.2318,104.65,200.991,5.10452,4.99387,5.46828,14.3481,4.49348,4.4342,4.02138,2.22451,1.80521,1.60946,12.4669,11.4724,414.881,282.66
450,286.764,72.4685,103.985,197.9,5.39316,2.30517,5.82527,12.7434,2.69609,3.61989,4.88363,2.22451,1.52236,1.60946,10.5498,11.4724,390.04,284.695
455,301.03,72.1958,102.675,196.624,3.47903,5.23691,3.87322,11.9411,3.59478,3.61989,4.02138,2.22451,1.52236,1.44341,9.5913,11.3063,370.982,286.558
460,269.704,69.257,100.712,192.152,3.24357,6.08758,8.46852,11.9411,3.59478,4.4342,3.15914,2.22451,1.52236,1.60946,9.5913,11.1194,374.138,288.383
465,300.573,73.4264,106.542,195.386,3.99554,7.1509,4.03272,11.9411,3.59478,3.61989,2.2969,2.22451,1.23952,1.60946,9.5913,10.9532,352.821,290.246
470,290.169,69.1676,102.099,191.257,7.10219,2.98114,6.77472,11.1387,2.69609,3.61989,3.15914,1.84956,1.38094,1.60946,11.5083,10.7871,343.051,291.953
475,292.994,64.6436,94.3456,184.485,3.38788,6.01922,5.32397,11.9411,3.59478,3.61989,2.2969,1.4746,1.52236,1.60946,9.5913,10.7871,355.049,293.714
480,280.601,65.3304,93.9301,181.953,7.95291,1.87984,5.18725,12.7434,2.69609,4.4342,2.2969,2.22451,1.52236,1.60946,11.5083,10.6002,345.461,295.366
485,268.323,59.9244,88.1892,176.64,3.57018,7.7813,6.33417,11.1387,2.69609,2.80559,3.15914,1.84956,1.52236,1.27736,10.5498,10.4549,332.316,297.064
490,271.255,58.9734,86.3217,173.096,0.615445,4.16599,1.71608,10.3363,2.69609,5.2485,2.2969,2.22451,1.52236,1.44341,9.5913,10.4549,351.526,298.809
495,280.643,56.8486,82.882,168.224,2.2941,3.80142,5.57462,10.3363,1.79739,3.61989,2.2969,1.84956,1.23952,1.27736,9.5913,10.3303,336.453,300.508
500,268.387,59.2831,83.6211,166.21,2.44601,5.49515,5.46828,11.1387,2.69609,3.61989,1.43466,1.84956,1.23952,1.60946,8.63279,10.1434,348.373,302.179
505,251.665,62.1347,86.9085,166.498,4.54243,5.04704,6.50887,10.3363,4.49348,3.61989,2.2969,1.4746,1.38094,1.44341,10.5498,10.1226,339.419,303.832
510,267.01,60.1652,84.0608,162.629,1.4054,3.6875,7.37476,11.1387,2.69609,3.61989,3.15914,1.84956,1.23952,1.44341,9.5913,9.97723,278.414,305.378
515,259.641,57.7791,83.7726,163.243,3.76767,3.42926,4.70873,9.53397,3.59478,1.99128,2.2969,1.4746,1.0981,1.44341,9.5913,9.81111,264.58,306.818
520,274.858,58.2837,84.8995,161.786,3.03848,3.28495,5.32397,10.3363,2.69609,4.4342,3.15914,1.84956,1.52236,1.27736,9.5913,9.62421,276.682,308.206
525,260.096,54.8106,81.5502,157.476,5.1349,8.62437,4.45048,8.7316,1.79739,3.61989,2.2969,1.84956,1.38094,1.27736,9.5913,9.49961,292.686,309.612
530,220.854,49.7783,72.9967,150.783,2.33967,4.75082,4.50365,11.1387,2.69609,2.80559,2.2969,2.22451,1.23952,1.27736,9.5913,9.45808,310.186,311.087
535,208.421,44.8138,70.32,145.631,2.17257,5.02425,6.18986,9.53397,3.59478,3.61989,2.2969,1.84956,1.52236,1.27736,7.67427,9.35425,320.568,312.623
540,212.411,46.0327,69.3245,142.639,2.41563,2.77607,1.46543,11.1387,3.59478,3.61989,2.2969,1.84956,1.0981,1.44341,8.63279,9.27119,297.258,314.177
545,218.805,44.4581,68.098,139.489,2.8334,7.90283,4.59479,9.53397,2.69609,1.99128,1.43466,1.84956,1.52236,1.11132,8.63279,9.12582,291.973,315.694
550,224.864,43.3383,63.5046,135.338,1.87634,1.81148,2.93137,8.7316,3.59478,3.61989,1.43466,1.84956,1.0981,1.27736,9.5913,9.18812,327.794,317.164
555,229.638,42.4671,63.7457,133.704,3.49422,2.22162,2.68831,9.53397,3.59478,2.80559,2.2969,1.84956,1.38094,1.44341,8.63279,8.98046,323.843,318.814
560,216.206,41.1647,62.6437,131.524,1.95989,1.41653,1.99712,10.3363,2.69609,3.61989,3.15914,2.22451,1.23952,1.27736,8.63279,8.79357,320.492,320.423
565,212.449,41.7495,62.2656,130.236,5.65901,1.61401,3.85803,10.3363,1.79739,2.80559,3.15914,1.84956,1.23952,1.44341,7.67427,8.79357,308.193,322.004
570,230.466,41.5154,63.4305,130.638,1.60289,4.19637,6.43292,8.7316,2.69609,2.80559,3.15914,1.84956,1.52236,1.27736,9.5913,8.62744,268.395,323.435
575,228.823,44.4042,65.0355,131.228,3.3651,7.32559,5.42271,9.53397,1.79739,2.80559,2.2969,1.4746,1.23952,1.27736,7.67427,8.6482,279.69,324.771
580,234.958,49.3965,68.9878,132.532,3.98795,3.78623,5.05812,11.1387,2.69609,3.61989,4.88363,1.4746,1.38094,1.44341,9.5913,8.48207,275.205,326.178
585,240.07,45.8778,64.4741,129.64,2.25612,0.550683,0.956528,10.3363,4.49348,3.61989,1.43466,1.09965,1.0981,1.11132,9.5913,8.29518,257.89,327.547
590,218.805,44.0801,62.1441,127.224,1.98268,5.98884,6.66838,8.7316,2.69609,2.80559,3.15914,1.84956,0.956677,1.44341,8.63279,8.27441,274.267,328.901
595,231.042,45.5649,65.3393,127.599,4.57282,3.82421,3.28836,10.3363,3.59478,2.80559,3.15914,2.22451,1.23952,1.44341,8.63279,8.12905,309.147,330.421
600,218.741,45.3632,63.8546,124.063,1.37502,2.67734,3.7289,9.53397,2.69609,2.80559,3.15914,1.09965,1.23952,1.44341,9.5913,8.12905,252.098,331.825
605,207.021,41.9715,60.4634,121.697,0.585062,3.14064,4.35933,10.3363,2.69609,4.4342,3.15914,1.4746,1.38094,1.60946,7.67427,7.98369,264.684,333.103
610,208.909,41.5513,58.8711,119.297,4.64118,1.21146,3.09847,9.53397,1.79739,3.61989,3.15914,1.4746,1.23952,1.44341,9.5913,7.81756,252.597,334.4
615,233.429,39.8807,58.3245,118.818,3.51701,3.55078,7.07854,9.53397,3.59478,3.61989,4.88363,2.22451,1.52236,1.44341,8.63279,6.11474,270.669,335.72
620,194.305,39.2253,57.2355,117.007,2.10421,1.30261,3.5542,10.3363,3.59478,4.4342,7.47036,2.22451,1.52236,1.60946,9.5913,7.65143,313.055,337.159
625,201.279,35.2543,52.0257,112.42,0.691402,5.14577,0.789426,9.53397,3.59478,4.4342,4.88363,1.84956,1.38094,1.60946,10.5498,6.63389,319.484,338.7
630,186.845,34.7996,53.054,110.67,1.89153,2.54062,5.92401,9.53397,5.39217,5.2485,4.02138,2.59946,1.66379,1.7755,7.67427,7.4853,282.053,340.193
635,197.102,40.1729,59.8637,113.376,3.30433,3.26976,5.68855,9.53397,3.59478,5.2485,6.60811,2.59946,1.66379,1.60946,7.67427,7.31917,320.732,341.726
640,217.499,39.1609,56.1038,110.807,0.326808,2.28239,3.31115,10.3363,1.79739,2.80559,4.88363,1.84956,1.52236,1.27736,7.67427,7.31917,303.298,343.242
645,209.6,38.6278,54.8032,111.131,1.4054,4.58373,1.65532,8.7316,4.49348,4.4342,4.02138,1.4746,1.52236,1.60946,8.63279,7.17381,259.057,344.694
650,198.205,37.6838,53.354,110.192,0.835721,0.725372,2.61995,8.7316,2.69609,5.2485,4.02138,2.22451,1.52236,1.60946,8.63279,7.00768,259.183,345.997
655,220.01,39.1657,52.0513,106.956,0.630637,0.763348,3.30355,7.92924,4.49348,4.4342,4.02138,1.84956,1.52236,1.44341,8.63279,6.96615,239.001,347.249
660,209.54,37.2404,50.4041,104.787,4.23861,2.35834,3.36432,6.32451,3.59478,3.61989,4.02138,2.22451,1.52236,1.7755,7.67427,6.84155,235.468,348.441
665,196.906,36.6316,47.3217,101.56,3.11444,2.08491,2.15662,7.92924,2.69609,3.61989,4.88363,2.22451,1.38094,1.60946,7.67427,6.82079,239.31,349.666
670,197.928,33.712,44.0202,99.6772,1.35983,1.44692,5.72653,7.92924,3.59478,5.2485,4.02138,2.22451,1.38094,1.44341,9.5913,6.80002,259.316,350.905
675,175.006,32.5331,43.6326,97.8166,0.638232,6.50531,3.37951,7.92924,2.69609,3.61989,2.2969,1.84956,1.52236,1.60946,7.67427,6.65466,232.857,352.165
680,163.206,30.4297,43.0379,95.7158,2.1194,1.89503,1.86799,8.7316,3.59478,3.61989,3.15914,1.4746,1.52236,1.44341,6.71575,6.48853,201.032,353.215
685,175.474,30.118,40.5712,93.6797,2.31689,6.43695,2.58957,8.7316,2.69609,4.4342,4.02138,1.4746,1.23952,1.60946,7.67427,6.55083,197.97,354.224
690,182.647,33.7435,45.9071,96.4628,1.90672,5.52553,1.21478,7.12688,3.59478,3.61989,4.02138,1.84956,1.23952,1.44341,7.67427,6.3224,195.962,355.197
695,166.273,30.8535,41.0019,93.7741,1.96748,4.52297,2.99973,6.32451,3.59478,3.61989,3.15914,1.4746,1.23952,1.60946,5.75724,6.50929,202.666,356.189
700,149.526,28.6551,38.2268,90.9618,0.653424,0.391184,0.705875,6.32451,1.79739,2.80559,4.02138,1.4746,1.38094,1.27736,7.67427,6.1355,183.638,357.151
705,144.777,25.368,36.0917,89.0816,1.87634,3.64193,0.834999,7.12688,2.69609,2.80559,3.15914,1.84956,1.23952,1.44341,8.63279,6.1355,168.637,358.074
710,140.635,24.7524,35.9686,87.491,0.379978,0.482326,5.45309,7.92924,2.69609,2.80559,3.15914,2.22451,1.38094,1.11132,5.75724,6.11474,193.531,358.936
715,146.705,22.9689,34.5783,85.8696,0.653424,2.76848,0.903359,6.32451,1.79739,2.80559,4.02138,1.4746,1.38094,1.60946,5.75724,5.99014,200.643,359.917
720,141.147,22.7363,33.8611,84.5793,1.27627,0.543088,2.05788,7.92924,1.79739,1.99128,3.15914,1.84956,0.956677,1.27736,6.71575,5.96938,181.571,360.855
725,130.526,20.4454,30.2407,81.224,0.258446,1.36337,2.43766,7.12688,3.59478,2.80559,3.15914,1.4746,1.0981,0.945271,5.75724,5.96938,170.929,361.735
730,141.636,20.7434,29.2947,78.1376,1.64846,1.37096,0.303311,6.32451,3.59478,2.80559,3.15914,1.4746,1.0981,1.11132,5.75724,5.96938,153.024,362.573
735,144.752,18.6442,25.8907,75.4132,1.06359,0.436755,0.751448,6.32451,2.69609,4.4342,4.02138,1.4746,1.0981,0.945271,5.75724,5.80325,161.498,363.337
740,136.04,16.8839,24.0658,73.2023,0.448339,0.565874,0.371671,6.32451,0.898695,2.80559,3.15914,1.84956,0.956677,1.27736,5.75724,5.86554,152.004,364.115
745,129.715,15.4642,23.4116,71.9081,0.661019,0.611445,1.58696,4.71979,1.79739,1.99128,3.15914,1.4746,0.956677,1.27736,5.75724,5.67865,168.381,364.946
750,132.866,14.9959,23.4763,70.4303,2.51438,0.383589,2.16422,6.32451,1.79739,2.80559,3.15914,1.84956,1.0981,1.11132,6.71575,5.65788,142.002,365.72
755,137.555,15.8285,23.9248,70.5717,0.531892,3.3685,3.49344,5.52215,1.79739,3.61989,3.15914,1.4746,0.956677,1.11132,5.75724,5.65788,124.446,366.384
760,129.85,17.5681,25.5015,70.4877,0.881295,2.06972,1.58696,6.32451,1.79739,1.99128,3.15914,1.4746,0.956677,1.11132,5.75724,5.34639,131.303,367.013
765,133.685,16.2197,23.6704,68.7842,2.69667,0.8393,0.675493,4.71979,1.79739,3.61989,4.02138,1.09965,0.956677,1.11132,4.79872,4.99337,136.381,367.691
770,114.458,15.2295,22.5347,67.9402,1.80797,1.42413,3.58459,4.71979,2.69609,1.99128,3.15914,1.84956,1.0981,0.945271,5.75724,5.82401,149.332,368.41
775,111.782,15.4034,22.9348,67.7775,1.67885,0.953228,0.28812,4.71979,2.69609,2.80559,4.02138,1.4746,1.0981,1.11132,5.75724,5.32563,155.046,369.17
780,100.808,15.4685,22.1284,67.253,0.516701,0.0873766,4.67835,6.32451,1.79739,2.80559,2.2969,1.84956,1.0981,1.11132,6.71575,5.34639,152.779,369.93
785,103.323,16.0668,24.2372,68.9671,3.92718,6.86229,2.87061,4.71979,2.69609,1.99128,4.02138,0.724698,0.956677,1.11132,5.75724,5.1595,142.343,370.673
790,105.839,17.4694,27.5169,71.1995,0.881295,2.60898,1.48062,3.91742,2.69609,1.99128,1.43466,0.724698,0.815255,1.11132,5.75724,5.34639,125.968,371.317
795,107.885,17.3878,25.2469,70.4239,1.07878,1.75072,2.24777,4.71979,2.69609,2.80559,4.02138,1.4746,0.956677,1.11132,5.75724,5.32563,131.967,371.981
800,109.094,18.4414,25.6137,69.5328,0.714189,0.945633,1.21478,4.71979,2.69609,3.61989,3.15914,1.4746,0.956677,1.11132,5.75724,5.1595,160.763,372.715
805,108.834,16.2185,24.3123,69.4435,0.577466,1.1583,0.933741,6.32451,0.898695,2.80559,2.2969,1.09965,0.956677,1.11132,3.8402,5.13873,140.059,373.459
810,101.196,15.7561,23.3232,67.787,1.89912,0.755753,2.23258,6.32451,1.79739,2.80559,2.2969,1.84956,0.815255,0.945271,5.75724,5.1595,133.972,374.116
815,102.15,13.9484,22.4358,66.8535,0.478722,1.21906,1.02489,5.52215,3.59478,1.99128,3.15914,1.84956,0.673833,1.44341,5.75724,5.18026,120.966,374.743
820,113.403,12.2315,20.8438,64.9444,0.182489,-0.0721224,1.83761,4.71979,1.79739,2.80559,1.43466,1.4746,0.815255,0.945271,3.8402,4.99337,120.78,375.333
825,101.788,11.3804,18.8207,63.3176,0.676211,0.262066,0.409649,3.91742,1.79739,3.61989,3.15914,1.09965,0.815255,1.11132,5.75724,4.99337,130.005,375.923
830,100.333,11.211,19.0321,62.7137,1.61048,1.4697,2.84022,3.91742,3.59478,1.99128,1.43466,1.09965,0.815255,0.945271,4.79872,4.9726,122.429,376.548
835,92.7041,9.51869,16.6635,60.8282,0.630637,0.246876,1.64772,5.52215,2.69609,3.61989,3.15914,1.09965,0.956677,0.945271,4.79872,4.82724,131.11,377.222
840,93.0359,9.12531,16.8047,60.6337,2.05104,3.73307,1.55658,4.71979,2.69609,1.99128,3.15914,0.724698,0.815255,0.779224,3.8402,4.9726,107.79,377.794
845,85.3456,10.1136,17.8643,59.8559,1.83076,1.27982,3.15924,3.91742,1.79739,1.99128,2.2969,1.4746,0.532411,0.945271,5.75724,4.80647,132.941,378.414
850,83.6381,9.83499,17.511,59.0726,2.39284,1.43932,3.93398,4.71979,2.69609,1.99128,1.43466,1.4746,0.815255,1.11132,4.79872,4.84801,115.575,379.034
855,94.0859,11.1455,18.4165,59.1963,0.525632,3.15985,0.411809,5.85291,1.56398,2.60433,2.89145,1.00009,0.625987,0.980441,3.84774,4.80195,105.93,379.573
860,68.9314,13.4078,19.3189,60.1236,2.81061,1.87984,3.28836,4.71979,1.79739,1.17698,1.43466,1.09965,0.956677,0.945271,5.75724,4.82724,115.983,380.149
865,81.5507,13.0097,19.3024,59.0774,0.736977,0.186114,0.0450626,4.71979,2.69609,2.80559,2.2969,1.09965,0.815255,0.945271,4.79872,4.84801,123.365,380.754
870,77.0272,10.0255,18.0809,58.1887,1.2307,0.588659,2.77186,3.91742,0.898695,1.99128,3.15914,1.4746,0.815255,1.11132,6.71575,4.68188,118.006,381.367
875,74.5932,9.67045,17.8797,57.1837,0.425552,0.611445,0.470413,3.91742,2.69609,1.99128,4.02138,1.4746,0.815255,1.11132,3.8402,4.66111,142.698,382.008
880,71.3001,9.31533,16.7655,55.7729,0.76736,2.55581,2.16422,4.71979,2.69609,3.61989,1.43466,1.4746,0.815255,0.945271,6.71575,4.68188,118.94,382.669
885,73.0734,9.91584,16.45,55.283,1.65606,0.626635,3.76688,4.71979,2.69609,2.80559,3.15914,1.09965,0.956677,1.11132,4.79872,4.66111,110.398,383.244
890,68.7419,9.40785,15.9059,55.0879,0.129319,0.0797814,2.544,4.71979,2.69609,1.99128,2.2969,1.4746,0.673833,1.27736,4.79872,4.49498,85.0866,383.739
895,80.0513,9.44608,15.8678,54.6823,0.888891,3.11786,0.462818,3.91742,0.898695,3.61989,4.02138,0.724698,0.956677,0.945271,4.79872,4.51575,84.1716,384.176
900,73.3793,9.84438,16.3407,54.6978,0.82053,0.489922,0.721066,4.71979,2.69609,2.80559,3.15914,1.4746,0.815255,0.945271,2.88169,4.53651,100.075,384.621
905,69.6816,7.54448,13.5152,53.2535,0.266042,0.0342103,0.0146805,5.52215,0.898695,2.80559,3.15914,0.724698,0.673833,1.27736,2.88169,4.47422,103.123,385.133
910,62.9642,7.45133,13.3461,52.4621,1.51174,1.18108,0.933741,4.71979,1.79739,2.80559,1.43466,0.724698,0.815255,0.945271,5.75724,4.51575,114.067,385.652
915,58.3697,7.86659,13.3024,52.7521,1.39021,0.163328,1.66291,4.71979,1.79739,1.17698,3.15914,1.4746,0.673833,1.11132,5.75724,4.34962,98.7972,386.201
920,65.2018,6.74599,13.7872,52.6676,1.81557,1.72034,1.54139,4.71979,0.898695,1.99128,3.15914,1.4746,0.815255,1.11132,4.79872,4.41192,94.9104,386.668
925,62.8937,6.69663,14.6912,53.3214,0.425552,4.09764,2.76427,5.52215,2.69609,2.80559,2.2969,1.09965,0.815255,1.27736,5.75724,4.32885,95.5915,387.136
930,68.6146,8.93687,15.9699,53.4899,0.668615,1.70515,2.27056,4.71979,1.79739,2.80559,1.43466,1.4746,0.673833,1.11132,5.75724,4.32885,86.9529,387.575
935,63.7488,9.43388,16.9977,53.7482,2.07382,1.4697,0.751448,3.91742,3.59478,3.61989,3.15914,1.09965,0.956677,1.11132,3.8402,4.30809,74.7272,387.973
940,63.5545,10.0288,16.1437,52.514,1.61048,2.42669,0.432435,3.91742,0.898695,1.99128,0.572413,1.09965,0.815255,0.945271,5.75724,4.18349,78.8431,388.343
945,67.8203,9.67376,15.6757,51.8015,0.509105,2.05453,1.12363,3.91742,2.69609,1.17698,2.2969,1.09965,0.815255,0.945271,5.75724,4.16272,91.0371,388.729
950,64.9985,9.35687,15.4742,51.6061,0.539488,0.0266151,0.865382,3.91742,2.69609,2.80559,2.2969,1.4746,0.815255,1.27736,4.79872,4.16272,94.5677,389.18
955,63.9858,7.96915,14.0912,50.4125,0.524296,1.08994,0.546369,4.71979,1.79739,2.80559,3.15914,1.4746,0.815255,1.27736,5.75724,4.16272,88.2372,389.657
960,63.6335,8.29676,13.8839,50.6922,0.661019,2.49505,1.57177,4.71979,1.79739,1.99128,3.15914,1.09965,0.532411,0.945271,4.79872,4.16272,93.8287,390.097
965,69.1322,8.7939,13.7695,50.4704,0.243255,0.140543,1.04767,5.52215,-4.46941e-15,1.17698,2.2969,1.09965,0.673833,1.11132,4.79872,4.10043,73.1861,390.504
970,64.3376,7.94144,12.2704,50.2008,0.911678,2.55581,1.30592,3.91742,1.79739,2.80559,2.2969,0.724698,0.673833,0.945271,5.75724,4.18349,59.9533,390.836
975,60.7429,8.15985,13.2515,49.8572,1.13195,0.102567,2.00471,3.91742,1.79739,1.99128,3.15914,1.09965,0.673833,0.945271,5.75724,3.97583,60.9652,391.114
980,62.273,6.85359,12.1011,48.9637,0.683807,0.102567,0.272929,3.11506,1.79739,3.61989,4.02138,1.4746,0.39099,0.945271,5.75724,4.01736,68.4155,391.428
985,59.3813,5.49747,10.2511,47.8367,0.858508,0.254471,2.20979,3.91742,1.79739,1.99128,1.43466,1.09965,0.673833,0.779224,5.75724,4.01736,74.5348,391.788
990,57.5154,4.56765,10.1636,47.1961,0.258446,0.170924,-0.0157017,3.91742,2.69609,3.61989,2.2969,1.4746,0.815255,0.779224,4.79872,3.97583,83.0529,392.169
995,53.4415,4.6825,10.3547,46.64,0.706594,1.23425,0.189378,4.71979,2.69609,1.99128,2.2969,1.09965,0.815255,1.11132,4.79872,3.9966,78.6146,392.603
1000,49.3544,4.97211,10.5291,46.3644,0.607849,0.0949718,1.19959,4.71979,1.79739,1.99128,3.15914,1.09965,0.815255,0.779224,2.88169,3.85123,68.1422,392.976
1005,51.209,4.28302,10.5291,46.216,1.57251,1.57603,0.257738,3.91742,1.79739,1.99128,2.2969,1.09965,0.956677,0.613177,5.75724,3.8097,64.0687,393.302
1010,51.8479,3.60443,9.50774,45.9666,0.258446,3.11026,2.39209,3.91742,1.79739,2.80559,2.2969,1.09965,0.815255,1.27736,5.75724,3.83047,74.9364,393.665
1015,50.955,5.28336,10.5723,45.887,0.159702,0.383589,0.812213,3.11506,0.898695,2.80559,2.2969,1.4746,0.532411,0.945271,4.79872,3.8097,73.4827,394.044
1020,51.4879,4.09106,9.19082,45.1766,-0.0377871,1.30261,0.964124,3.91742,1.79739,1.17698,1.43466,0.724698,0.815255,0.779224,4.79872,3.83047,74.3644,394.416
1025,48.2853,4.52829,9.93321,44.3382,0.843317,0.262066,1.61734,4.71979,1.79739,2.80559,1.43466,1.09965,0.815255,1.11132,5.75724,3.8097,79.3543,394.821
1030,47.0883,3.45075,8.55132,43.9613,0.266042,0.44435,0.0146805,4.71979,1.79739,2.80559,1.43466,1.09965,0.673833,0.945271,5.75724,3.83047,63.3378,395.167
1035,45.3961,3.17165,7.27792,43.4674,0.129319,0.0949718,0.174187,3.91742,1.79739,3.61989,2.2969,1.4746,0.532411,0.779224,5.75724,3.85123,84.1539,395.545
1040,45.6131,1.55805,6.23918,42.6812,-0.015,1.98617,0.234951,4.71979,1.79739,2.80559,1.43466,1.4746,0.815255,0.945271,3.8402,3.6851,103.936,396.026
1045,42.5427,-0.0226148,6.95519,42.6332,2.10421,1.90263,1.75406,2.31269,2.69609,2.80559,3.15914,1.4746,0.815255,1.11132,4.79872,3.64357,77.6449,396.462
1050,39.1597,1.34445,6.3701,42.3248,0.577466,0.998799,1.29833,4.71979,0.898695,1.99128,1.43466,1.4746,0.673833,1.11132,4.79872,3.64357,58.2988,396.816
1055,45.3783,3.09454,7.85124,43.058,1.12436,2.58619,2.55159,3.91742,1.79739,2.80559,2.2969,0.724698,0.673833,0.779224,5.75724,3.66434,67.5924,397.128
1060,52.0165,3.089,8.11346,43.2757,0.243255,0.915252,1.45783,4.71979,1.79739,1.99128,3.15914,1.09965,0.673833,1.11132,3.8402,3.49821,64.9163,397.447
1065,47.2208,1.96758,6.99293,42.6699,0.35719,0.535493,0.272929,3.91742,1.79739,1.17698,3.15914,1.09965,0.532411,0.945271,4.79872,3.47744,70.6134,397.773
1070,41.4074,1.9454,6.85597,42.0531,0.266042,0.231685,0.0146805,3.91742,2.69609,1.99128,1.43466,1.4746,0.815255,0.945271,3.8402,3.49821,69.696,398.133
1075,41.2826,0.900633,5.88813,41.5212,0.0609573,0.991204,0.455222,3.91742,2.69609,2.80559,0.572413,1.09965,0.39099,0.945271,5.75724,3.47744,63.445,398.472
1080,38.7229,0.676492,5.16639,40.2601,0.159702,2.17605,0.348884,3.91742,1.79739,3.61989,3.15914,0.724698,0.532411,0.945271,4.79872,3.47744,45.4451,398.724
1085,37.7065,0.692599,4.83796,40.0521,0.881295,2.38112,0.364076,4.71979,1.79739,1.99128,2.2969,1.4746,0.815255,0.945271,4.79872,3.49821,52.8766,398.953
1090,35.1651,-0.128335,3.74933,39.1409,0.258446,0.0190199,0.0602537,3.91742,2.69609,3.61989,2.2969,0.724698,0.673833,1.27736,3.8402,3.49821,71.5798,399.269
1095,36.2888,-0.865018,3.7055,38.725,0.425552,0.368399,1.66291,3.91742,0.898695,1.17698,1.43466,1.4746,0.815255,0.945271,6.71575,3.51897,76.3118,399.618
1100,30.6105,-0.496702,3.84202,38.7088,1.10917,1.49249,2.2022,3.91742,1.79739,1.99128,1.43466,1.84956,0.39099,0.779224,4.79872,3.47744,62.4584,399.977
1105,27.1429,-0.463795,3.60675,38.4048,0.205276,0.2089,1.79204,3.11506,2.69609,1.17698,2.2969,1.4746,0.673833,0.779224,4.79872,3.29055,61.013,400.288
1110,31.1715,-0.0135905,4.51454,39.0285,0.341999,1.67477,2.89339,2.31269,2.69609,1.99128,3.15914,0.724698,0.673833,1.11132,4.79872,3.33208,65.249,400.62
1115,32.9021,-0.211291,5.27465,39.1723,0.425552,0.170924,0.136209,3.11506,1.79739,1.99128,2.2969,0.724698,0.815255,0.945271,5.75724,3.35285,77.7984,400.985
1120,30.5338,0.23222,4.60722,38.5964,0.228063,0.664611,1.6857,3.91742,2.69609,1.99128,3.15914,1.09965,0.673833,0.945271,4.79872,3.33208,65.6843,401.357
1125,30.5121,0.948445,5.05553,39.2572,0.569871,1.40134,0.69828,3.11506,1.79739,1.99128,1.43466,1.09965,0.532411,1.11132,3.8402,3.35285,49.6727,401.628
1130,29.1931,0.133502,4.4702,38.6867,0.0533616,1.01399,0.341289,2.31269,-4.46941e-15,2.80559,3.15914,0.349746,0.815255,1.11132,4.79872,3.35285,58.8559,401.894
1135,31.1318,-0.261384,3.50195,38.34,0.0305744,0.0494006,0.0146805,3.91742,1.79739,1.17698,3.15914,1.4746,0.815255,1.11132,4.79872,3.18672,64.17,402.204
1140,29.4436,-0.971021,3.44703,38.2864,0.364786,1.08235,1.48062,4.71979,-4.46941e-15,2.80559,2.2969,0.349746,0.532411,0.945271,3.8402,3.14518,64.2539,402.53
1145,28.1172,-0.73986,3.40874,37.8383,0.235659,0.603849,1.0021,3.91742,2.69609,3.61989,0.572413,1.09965,0.532411,0.779224,5.75724,3.14518,73.8056,402.887
1150,26.7501,0.0947151,4.20169,37.9769,0.433148,0.148138,1.22997,4.71979,0.898695,1.17698,1.43466,2.22451,0.673833,0.779224,5.75724,3.16595,69.8075,403.252
1155,28.1694,-0.185011,3.96089,37.7793,0.706594,0.543088,1.02489,3.91742,0.898695,1.99128,4.02138,0.724698,0.815255,1.11132,3.8402,3.18672,67.2289,403.609
1160,30.8477,-0.267463,3.34274,37.4377,0.501509,0.679801,1.64772,4.71979,1.79739,2.80559,4.02138,0.724698,0.39099,1.11132,3.8402,3.16595,61.2646,403.905
1165,29.5107,-0.784462,4.74271,37.8324,0.691402,0.436755,0.0982315,3.11506,2.69609,0.362673,1.43466,0.349746,0.532411,0.945271,4.79872,3.16595,66.7511,404.212
1170,27.9225,-0.381934,3.5002,36.7844,0.642088,-0.0347247,0.0503999,2.34232,3.01499,2.81651,0.714845,1.24324,0.971184,1.06697,3.47592,3.11286,69.0948,404.549
1175,26.9585,-1.07653,3.15079,35.7545,0.00778721,0.170924,0.675493,5.52215,1.79739,2.80559,1.43466,1.09965,0.815255,0.945271,2.88169,2.99982,64.4933,404.889
1180,25.059,-1.47908,2.75128,35.2142,0.326808,1.00639,0.683088,4.71979,1.79739,2.80559,2.2969,1.09965,0.815255,0.945271,4.79872,2.99982,53.9818,405.193
1185,25.8259,-1.10443,2.7402,35.3157,1.20791,1.6216,0.667897,3.11506,1.79739,1.99128,2.2969,1.09965,0.673833,0.945271,5.75724,2.97906,53.6866,405.467
1190,26.3306,0.268463,3.18858,35.2675,0.205276,0.125353,-0.00810617,3.91742,1.79739,2.80559,2.2969,1.4746,0.673833,1.27736,5.75724,2.99982,51.7302,405.719
1195,25.9099,-1.13234,2.48276,34.7269,0.243255,0.064591,0.402053,2.31269,2.69609,2.80559,1.43466,1.4746,0.673833,0.779224,4.79872,3.02059,70.4179,406.053
1200,22.4763,-1.90451,1.717,34.2773,0.174893,-0.0493368,-0.0232973,3.11506,1.79739,2.80559,0.572413,0.724698,0.532411,0.945271,4.79872,2.99982,68.3376,406.392
1205,22.9593,-3.93699,1.6238,34.2611,0.0229787,0.231685,0.432435,3.11506,0.898695,1.99128,2.2969,1.4746,0.673833,0.945271,3.8402,2.99982,67.7475,406.719
1210,21.1487,-3.2217,1.02736,34.1269,0.0837444,-0.00376568,0.105827,3.11506,1.79739,1.99128,3.15914,1.4746,0.673833,0.613177,4.79872,3.02059,58.2636,407.041
1215,23.8612,-4.3427,1.53061,34.2073,0.235659,0.854491,0.69828,3.91742,2.69609,2.80559,1.43466,1.09965,0.673833,0.945271,4.79872,2.83369,63.6411,407.347
1220,21.7741,-3.80968,1.17496,33.5967,0.136915,0.0949718,0.212165,4.71979,0.898695,2.80559,1.43466,1.4746,0.673833,0.945271,4.79872,2.81293,61.0469,407.653
1225,21.2668,-3.43819,0.81379,33.2054,1.48136,1.02918,0.242547,3.11506,1.79739,1.99128,2.2969,0.724698,0.532411,0.613177,2.88169,2.83369,51.595,407.948
1230,19.2713,-3.21659,0.802711,32.7818,0.417956,0.0949718,0.128614,3.91742,1.79739,2.80559,2.2969,1.4746,0.815255,0.779224,3.8402,2.87523,40.8103,408.175
1235,20.8089,-3.15023,0.791633,33.0711,0.364786,0.307637,0.181782,2.31269,1.79739,2.80559,1.43466,0.724698,0.532411,0.945271,4.79872,2.81293,46.9025,408.391
1240,17.4887,-3.66604,0.168079,32.8351,0.243255,0.0797814,0.888168,3.91742,2.69609,1.99128,3.15914,1.09965,0.815255,0.945271,4.79872,2.83369,57.2566,408.649
1245,15.7107,-4.52136,0.474307,33.5104,0.486318,0.467136,0.212165,2.31269,1.79739,1.17698,2.2969,1.09965,0.532411,1.27736,4.79872,2.85446,65.2873,408.964
1250,12.3964,-5.95276,0.408334,33.4832,0.493914,3.3609,0.690684,2.31269,1.79739,2.80559,1.43466,1.09965,0.815255,0.945271,5.75724,2.85446,54.094,409.255
1255,12.8474,-3.04,0.823885,33.2153,0.288829,0.117757,1.35909,3.11506,3.59478,1.99128,3.15914,1.09965,0.673833,1.11132,3.8402,2.81293,54.6572,409.534
1260,14.3435,-3.05122,0.123773,32.5665,0.273638,0.474731,0.158996,3.11506,1.79739,2.80559,1.43466,1.4746,0.673833,0.945271,4.79872,2.83369,52.5928,409.794
1265,13.5846,-2.7192,-0.046113,32.0622,1.01042,0.330423,0.265333,2.31269,1.79739,1.17698,1.43466,1.09965,0.39099,0.945271,4.79872,2.85446,50.7771,410.037
1270,14.4509,-3.58375,-0.480181,31.7133,0.668615,0.710182,1.29833,3.11506,0.898695,1.17698,0.572413,1.09965,0.815255,0.945271,2.88169,2.81293,39.2957,410.269
1275,14.6353,-3.32887,-0.612349,31.4716,0.326808,1.67477,0.781831,3.11506,1.79739,1.17698,2.2969,1.09965,0.532411,0.945271,4.79872,2.83369,41.236,410.472
1280,12.7516,-3.06293,-0.117891,31.8043,0.425552,0.102567,0.941337,3.91742,1.79739,1.99128,1.43466,0.724698,0.532411,0.945271,4.79872,2.68833,39.605,410.692
1285,14.1124,-3.00221,-0.596129,31.7504,0.288829,0.459541,0.690684,3.11506,1.79739,1.17698,3.15914,1.09965,0.673833,0.945271,4.79872,2.66756,34.0962,410.875
1290,14.0202,-3.00782,-0.717206,31.745,0.395169,1.29501,-0.0308928,3.11506,1.79739,2.80559,2.2969,1.09965,0.532411,0.945271,1.92317,2.6468,33.2387,411.048
1295,14.7627,-3.25737,-1.04218,31.3906,0.121723,0.0342103,0.447627,4.71979,-4.46941e-15,2.80559,2.2969,1.09965,0.673833,0.945271,4.79872,2.66756,28.7977,411.193
1300,14.6598,-2.94711,-0.57991,31.5033,0.957253,0.960823,0.500795,3.91742,0.898695,1.99128,1.43466,0.724698,0.532411,0.945271,2.88169,2.50144,29.0485,411.316
1305,15.4703,-3.19662,-0.481154,31.487,0.585062,0.550683,0.804617,3.11506,2.69609,1.99128,1.43466,0.724698,0.532411,0.779224,3.8402,2.66756,19.4313,411.437
1310,13.3216,-3.82685,-0.585377,31.445,0.527114,0.416463,0.0887911,4.22703,0.900485,1.06791,2.82236,1.25546,0.726233,1.09664,3.25016,2.56971,3.96515,411.492
1315,12.2222,-3.30788,-0.437595,31.0786,0.623041,0.398779,0.42484,3.11506,0.898695,2.80559,1.43466,1.4746,0.673833,0.779224,4.79872,2.50144,0.0,411.511
1320,9.41639,-3.61282,-0.316636,31.0464,1.33704,0.626635,0.743853,3.11506,1.79739,1.99128,1.43466,1.09965,0.673833,1.27736,3.8402,2.6468,2.2377,411.512
1325,9.32324,-3.52441,-0.767828,30.5305,-0.0301914,0.0873766,0.0526582,2.31269,1.79739,1.17698,0.572413,1.4746,0.532411,0.779224,3.8402,2.48067,7.43383,411.534
1330,9.09123,-3.94609,-0.954899,30.1222,0.258446,0.550683,0.204569,2.31269,1.79739,2.80559,1.43466,1.4746,0.532411,1.27736,3.8402,2.68833,9.52404,411.59
1335,6.21514,-4.36305,-1.48425,29.9445,0.114127,0.140543,0.417244,2.31269,1.79739,2.80559,1.43466,0.724698,0.673833,1.11132,3.8402,2.48067,10.2097,411.633
1340,6.26499,-4.1742,-1.41263,29.9767,0.334403,0.338018,1.15401,3.91742,0.898695,2.80559,1.43466,0.724698,0.815255,0.945271,3.8402,2.5222,24.567,411.726
1345,8.14631,-4.42446,-1.39078,29.6969,0.129319,0.110162,0.417244,3.91742,0.898695,1.17698,1.43466,1.09965,0.532411,0.779224,5.75724,2.4599,34.6874,411.873
1350,8.08942,-4.67487,-1.52334,29.4548,0.0229787,0.0266151,0.242547,3.11506,1.79739,0.362673,0.572413,1.4746,0.532411,0.779224,4.79872,2.50144,45.2425,412.07
1355,5.94973,-4.99205,-1.52892,29.487,0.152106,-0.056932,0.189378,3.91742,0.898695,1.99128,1.43466,1.4746,0.673833,0.945271,4.79872,2.43914,51.1091,412.301
1360,6.28184,-5.08125,-1.81049,29.2125,0.372382,0.148138,0.143805,3.11506,2.69609,2.80559,1.43466,0.724698,0.532411,0.945271,5.75724,2.48067,44.5412,412.546
1365,9.43082,-5.52698,-1.90456,29.2339,0.858508,0.307637,0.318502,3.11506,1.79739,1.17698,2.2969,1.09965,0.39099,0.945271,2.88169,2.48067,26.2719,412.716
1370,12.3696,-4.90336,-1.51823,29.4597,0.554679,0.300042,0.0450626,2.31269,1.79739,1.17698,3.15914,0.724698,0.532411,0.613177,4.79872,2.5222,31.4134,412.85
1375,10.6118,-4.69224,-1.69506,29.2121,0.205276,0.231685,0.204569,4.71979,0.898695,1.99128,1.43466,1.09965,0.673833,0.945271,3.8402,2.33531,37.1179,413.016
1380,10.0271,-4.98175,-2.52408,28.9698,0.068553,0.664611,0.212165,3.91742,1.79739,1.17698,2.2969,0.724698,0.532411,0.945271,4.79872,2.33531,51.1177,413.221
1385,6.22506,-6.00136,-2.41352,29.0397,0.0229787,-0.0113609,-0.106848,3.91742,2.69609,2.80559,2.2969,0.724698,0.673833,0.779224,4.79872,2.29377,56.1309,413.492
1390,3.57322,-5.3494,-2.65707,28.7651,0.235659,0.186114,0.386862,3.11506,2.69609,2.80559,2.2969,1.09965,0.532411,0.945271,3.8402,2.31454,53.5129,413.754
1395,3.40795,-5.35504,-2.31419,28.948,1.13195,0.375994,0.318502,3.91742,1.79739,1.17698,2.2969,0.724698,0.532411,0.945271,4.79872,2.33531,37.6612,413.997
1400,3.43099,-4.05385,-1.79515,29.3781,0.911678,0.360803,1.89078,4.71979,1.79739,1.99128,2.2969,0.724698,0.532411,1.11132,4.79872,2.37684,36.6438,414.189
1405,5.57814,-3.70974,-1.06734,29.448,0.729381,0.155733,0.174187,3.11506,2.69609,1.17698,1.43466,1.09965,0.673833,0.613177,5.75724,2.35607,42.3347,414.39
1410,4.78885,-4.05948,-0.797575,29.5985,0.326808,0.732968,1.39707,3.11506,1.79739,1.99128,1.43466,0.724698,0.532411,0.613177,3.8402,2.35607,36.4862,414.589
1415,2.67579,-4.58767,-0.742818,29.5391,0.417956,0.42916,0.0526582,3.91742,0.898695,1.99128,-0.28983,0.724698,0.532411,0.945271,3.8402,2.14841,30.3463,414.747
1420,4.44781,-3.12239,-0.792473,29.3024,0.220467,-0.0341464,0.00708492,3.11506,3.59478,1.99128,2.2969,1.4746,0.532411,0.945271,2.88169,2.12765,21.8571,414.874
1425,6.06514,-3.24437,-1.29922,28.8074,0.311616,0.922847,0.964124,3.11506,2.69609,2.80559,2.2969,1.09965,0.532411,0.945271,3.8402,2.21071,19.7305,414.981
1430,7.03883,-3.66061,-1.82914,28.5541,0.136915,-0.00376568,1.09325,3.11506,0.898695,2.80559,1.43466,1.09965,0.673833,0.779224,4.79872,2.16918,15.9056,415.08
1435,6.09726,-4.0548,-2.10537,28.5863,0.372382,0.0342103,0.265333,3.91742,2.69609,2.80559,1.43466,0.724698,0.532411,0.945271,3.8402,2.16918,13.6276,415.162
1440,2.28072,-4.37716,-2.00053,28.4624,0.159702,0.064591,0.766639,3.11506,0.898695,1.99128,2.2969,1.09965,0.532411,1.11132,4.79872,2.18994,14.9387,415.227
1445,3.37864,-4.66646,-2.36549,28.6345,0.190085,1.59122,1.29833,4.71979,2.69609,1.99128,1.43466,0.724698,0.39099,0.945271,3.8402,2.14841,14.8166,415.287
1450,3.87329,-4.43709,-1.93035,28.6447,0.223419,0.387512,-0.55477,3.36625,1.93622,1.73067,1.61614,0.673037,0.637959,0.743069,3.71976,2.14094,15.6522,415.354
1455,0.20277,-5.07282,-2.22748,28.1282,0.334403,0.269661,0.174187,4.71979,1.79739,1.17698,2.2969,1.09965,0.673833,0.945271,4.79872,2.14841,17.7697,415.438
1460,0.0,-5.0118,-2.39907,28.225,0.554679,0.801324,0.622324,3.11506,1.79739,1.99128,2.2969,0.724698,0.39099,0.779224,3.8402,2.18994,13.831,415.501
1465,0.0,-5.32358,-2.74763,28.0742,0.281233,0.0721862,0.0982315,3.11506,0.898695,1.99128,0.572413,0.349746,0.39099,0.945271,5.75724,2.14841,7.28249,415.548
1470,0.0,-5.3015,-2.84194,27.9825,0.136915,0.0190199,0.0450626,1.51033,-0.898695,1.17698,0.572413,0.724698,0.673833,0.779224,2.88169,2.14841,8.41258,415.584
1475,0.0,-5.4631,-3.11895,28.2409,-0.0453829,0.0266151,0.0526582,4.71979,1.79739,1.99128,3.15914,1.4746,0.39099,0.779224,4.79872,2.00305,17.3205,415.645
1480,0.0,-6.50066,-3.06381,28.0306,0.182489,0.231685,0.447627,1.51033,2.69609,1.99128,2.2969,1.09965,0.532411,0.779224,4.79872,2.00305,26.6604,415.765
1485,0.0,-6.22718,-3.41299,27.4273,0.0837444,-0.0189561,0.022276,3.91742,1.79739,1.99128,2.2969,0.349746,0.815255,0.945271,3.8402,2.02381,37.4257,415.935
1490,0.0,-6.55669,-3.27459,27.411,0.228063,0.649421,0.0830404,3.11506,1.79739,1.99128,1.43466,1.09965,0.673833,0.945271,2.88169,1.96152,44.1686,416.145
1495,0.0,-6.69655,-3.41345,27.1628,0.706594,0.512707,0.280525,3.91742,1.79739,1.99128,1.43466,0.724698,0.673833,0.779224,5.75724,2.00305,41.0763,416.357
1500,0.0,-6.59058,-4.00733,26.6991,0.106532,0.877276,0.895764,4.71979,1.79739,1.17698,1.43466,0.724698,0.39099,0.945271,4.79872,2.02381,0.0,416.384
1505,0.0,-6.43992,-3.77979,26.3162,0.463531,-0.00376568,0.166591,2.31269,0.898695,1.99128,0.572413,1.09965,0.39099,0.779224,3.8402,2.02381,0.0,416.384
1510,0.0,-6.3453,-4.11318,26.2188,0.0305744,-0.0645272,-0.122039,2.31269,2.69609,1.99128,2.2969,0.349746,0.39099,0.945271,3.8402,2.00305,0.0,416.384