File: 01_Data/Overstuffed_Chair/Furniture_Calorimeter/Overstuffed_Chair_R2.csv
Time (s),Convective HRR,TCPlume1,TCPlume2,TCPlume3,DPPlume1,DPPlume2,DPPlume3,HF1,HF2,HF3,HF4,HF5,HF6,RAD2,RAD1,Load Cell,Heat Release Rate,Total Heat Released
-119,0.0,-14.4309,-13.9851,7.40361,-0.0119085,-0.0512997,0.0113289,0.0543975,-0.731142,-0.503765,-0.350743,-0.546541,0.154605,0.945271,3.8402,29.0821,0.0,0.0
-114,0.0,-14.5892,-13.9851,7.40361,-0.0802701,-0.0664901,-0.0798176,-0.747966,0.167553,0.31054,-0.350743,-0.171588,-0.128238,0.779224,3.8402,28.9159,0.0,0.0
-109,0.0,-15.6251,-13.9118,7.66581,-0.0802701,-0.0588949,-0.0494354,0.0543975,0.167553,0.31054,-0.350743,0.203364,0.0131834,0.779224,4.79872,29.0821,0.0,0.0
-104,0.9067,-15.8748,-13.9236,7.6162,-0.0119085,0.0322474,0.0341156,0.0543975,-0.731142,-0.503765,0.5115,0.203364,0.0131834,0.613177,3.8402,29.1236,0.0,0.0
-99,0.0,-14.5335,-14.0877,7.15128,0.0032829,-0.0588949,-0.0722221,0.0543975,-0.731142,-0.503765,0.5115,-0.171588,0.154605,0.613177,3.8402,29.1028,0.0,0.0
-94,2.49984,-14.5731,-14.0085,7.15128,-0.0346957,-0.0285141,-0.0418399,0.856761,-0.731142,1.93915,0.5115,0.578316,0.0131834,0.945271,3.8402,29.0821,0.0,0.0
-89,3.7805,-15.0542,-14.0935,7.10733,0.0336658,0.0094618,0.0113289,0.0543975,-0.731142,-0.503765,-0.350743,-0.546541,0.154605,0.613177,4.79872,29.0821,0.0,0.0
-84,2.0017,-14.9691,-14.1272,7.22783,0.0640487,-0.0437045,0.125262,-1.55033,-1.62984,1.12484,0.5115,0.203364,0.154605,0.613177,3.8402,29.0821,0.0,0.0
-79,0.0,-14.7432,-14.1785,7.21648,0.0184743,-0.00572858,-0.0418399,-1.55033,0.167553,-0.503765,-1.21299,0.203364,-0.128238,0.779224,4.79872,28.9367,0.0,0.0
-74,0.0,-15.1114,-14.2298,7.05203,0.0260701,0.0474378,-0.0418399,0.0543975,0.167553,0.31054,1.37374,0.203364,0.0131834,0.779224,4.79872,29.0821,0.0,0.0
-69,0.0,-14.7154,-14.1111,7.31994,0.0488572,0.0474378,0.02652,1.65912,0.167553,0.31054,0.5115,-0.171588,0.0131834,0.779224,3.8402,29.0821,0.0,0.0
-64,0.0,-14.9647,-14.2416,7.11723,0.0640487,0.0778185,-0.0266488,0.0543975,0.167553,-0.503765,0.5115,0.203364,-0.128238,0.613177,2.88169,28.9367,0.0,0.0
-59,1.32576,-14.4955,-14.1683,7.26464,0.0488572,0.0246522,0.0189245,-0.747966,0.167553,-0.503765,-0.350743,0.203364,0.154605,0.613177,3.8402,28.9159,0.0,0.0
-54,2.67878,-14.3313,-14.0437,7.30859,0.0336658,-0.020919,-0.00386214,0.856761,1.06625,-0.503765,0.5115,-0.546541,0.0131834,0.779224,3.8402,28.9367,0.0,0.0
-49,4.49979,-14.2976,-13.8914,7.41773,-0.0195043,0.0474378,-0.0190532,0.0543975,-0.731142,0.31054,-1.21299,-0.171588,0.0131834,0.945271,3.8402,28.9159,0.0,0.0
-44,3.59954,-14.9427,-14.0218,7.17675,0.0412615,0.12339,0.148049,-0.747966,0.167553,-0.503765,0.5115,-0.171588,0.0131834,0.613177,3.8402,29.1028,0.0,0.0
-39,2.01925,-14.6714,-13.9486,7.36243,0.0108786,0.00186661,0.0037334,-0.747966,0.167553,-0.503765,-0.350743,0.578316,0.0131834,0.613177,2.88169,28.9367,0.0,0.0
-34,2.37404,-14.4339,-14.0277,7.36243,0.0184743,0.0398426,0.0493067,0.0543975,0.167553,0.31054,0.5115,-0.171588,-0.128238,0.945271,2.88169,28.9367,0.0,0.0
-29,3.77634,-14.6881,-14.1104,7.11555,0.00779114,-0.0142623,0.0405822,0.340881,-0.227875,-1.83358,0.0817068,0.425773,-0.0864843,0.916279,3.68188,29.1782,0.0,0.0
-24,3.48562,-14.6832,-14.1185,7.08317,-0.0271,0.0246522,-0.0114577,0.856761,0.167553,0.31054,-0.350743,-0.171588,-0.26966,0.945271,1.92317,29.0405,0.0,0.0
-19,1.62535,-14.5307,-13.9662,7.3454,-0.00431283,-0.00572858,-0.0114577,0.0543975,-0.731142,-0.503765,-1.21299,-0.171588,0.0131834,0.281084,3.8402,29.0405,0.0,0.0
-14,1.94334,-15.2098,-13.6162,7.56933,0.0260701,-0.0437045,-0.0190532,0.0543975,0.167553,-1.31807,0.5115,-0.171588,0.0131834,0.779224,3.8402,28.9367,0.0,0.0
-9,2.39505,-14.5703,-13.7684,7.30713,-0.0954615,-0.127252,-0.0494354,0.0543975,0.167553,-0.503765,-0.350743,0.203364,0.154605,0.779224,3.8402,29.1444,0.0,0.0
-4,0.32157,-14.3446,-13.7011,7.33404,0.0184743,-0.0588949,0.0493067,0.0543975,0.167553,-0.503765,-0.350743,-0.171588,-0.128238,0.945271,2.88169,29.1028,0.0,0.0
1,0.0,-14.2713,-13.6674,7.29009,-0.0574829,-0.0512997,0.0189245,0.0543975,-1.62984,-0.503765,-0.350743,0.203364,0.154605,0.945271,3.8402,29.0821,0.0,0.00143012
6,1.44599,-14.5997,-13.3234,7.62316,0.056453,-0.0892757,-0.00386214,0.856761,1.06625,1.12484,-0.350743,0.203364,0.296027,0.779224,5.75724,29.1028,0.19626,0.00101883
11,2.5026,-14.1585,-13.6733,7.24614,-0.0195043,-0.0740853,-0.0798176,0.856761,-1.62984,0.31054,-1.21299,-0.171588,0.0131834,0.779224,2.88169,29.0821,0.0,0.00108425
16,0.0,-15.3463,-13.3571,7.70537,-0.0119085,-0.0437045,-0.0190532,-0.747966,0.167553,-0.503765,1.37374,-0.171588,0.296027,0.945271,3.8402,29.0821,0.0,0.00108425
21,0.0,-15.5167,-13.3293,7.80881,-0.0498872,0.108199,0.0189245,0.0543975,0.167553,-0.503765,-0.350743,0.578316,-0.128238,0.779224,2.88169,29.0821,0.0,0.00108425
26,0.0,-15.16,-13.0923,8.19143,-0.0650786,0.0094618,-0.0190532,0.856761,0.167553,0.31054,-0.350743,0.578316,0.0131834,0.779224,3.8402,29.1444,0.0,0.00108425
31,0.0,-15.4491,-13.183,8.02703,0.117219,0.115794,0.186026,0.0543975,0.167553,0.31054,-1.21299,-0.921493,0.154605,0.945271,1.92317,29.0821,0.0,0.00108425
36,0.0,-14.182,-13.6177,7.45305,0.0336658,0.0398426,0.0189245,0.856761,1.06625,-0.503765,0.5115,-0.171588,0.0131834,0.779224,3.8402,29.0821,0.0,0.00108425
41,0.0,-14.6173,-13.7363,7.33824,0.056453,0.0550329,0.0796889,-0.747966,-0.731142,-0.503765,0.5115,0.203364,-0.128238,0.779224,3.8402,29.1236,0.82698,0.00312961
46,0.9151,-14.6628,-13.584,7.4091,-0.00431283,-0.0133238,0.0644978,0.856761,1.06625,-0.503765,1.37374,0.203364,0.0131834,0.779224,3.8402,29.1028,3.058,0.0223711
51,0.0,-13.7469,-13.341,7.52959,-0.00431283,0.161366,-0.0418399,0.856761,0.167553,1.12484,0.5115,0.203364,-0.128238,0.779224,4.79872,29.1028,1.64088,0.0283746
56,0.0,-13.1776,-13.325,7.5834,-0.0346957,0.0094618,0.0417111,0.0543975,0.167553,-1.31807,0.5115,-0.171588,-0.128238,0.447131,2.88169,29.0821,3.50417,0.05131589
61,0.64292,-13.2902,-13.3982,7.62735,-0.0650786,-0.00572858,0.0948799,0.856761,1.06625,-0.503765,0.5115,-0.171588,0.0131834,0.779224,4.79872,29.1028,5.80775,0.0738448
66,1.6247,-12.4274,-11.7069,9.38137,0.109623,0.313269,2.01655,0.856761,0.167553,1.12484,-1.21299,0.578316,0.0131834,0.779224,3.8402,29.0821,16.023,0.108798
71,0.0,-11.3745,-9.90776,10.5934,0.177985,0.275293,0.186026,0.856761,-0.731142,0.31054,0.5115,-0.171588,0.154605,0.779224,5.75724,29.1028,28.9829,0.223047
76,2.7355,-10.5477,-9.71124,10.02,0.162793,0.168961,0.02652,0.856761,-1.62984,-0.503765,0.5115,-0.171588,0.296027,1.11132,4.79872,29.0613,38.4442,0.376403
81,4.53186,-9.9301,-9.01594,12.7211,0.0792401,0.290484,1.54563,0.856761,1.96494,1.12484,-1.21299,0.578316,0.57887,1.11132,4.79872,29.0613,50.4179,0.5888
86,9.75106,-8.08528,-6.54822,14.5142,0.276729,0.282889,0.505039,1.65912,0.167553,1.12484,0.5115,0.578316,0.296027,0.945271,4.79872,28.9367,79.1211,0.890465
91,14.096,-4.38094,-1.65619,16.0329,0.846408,1.44495,0.0948799,2.46149,1.96494,1.12484,0.5115,0.578316,0.154605,1.11132,4.79872,29.0821,117.713,1.35826
96,21.6818,-1.87159,-1.86086,15.6407,0.261537,0.776576,0.193622,3.26385,1.96494,1.12484,1.37374,0.953269,0.720292,1.27736,7.67427,28.8952,145.919,1.96632
101,32.0377,2.92037,5.7642,20.161,1.18822,1.12595,1.46967,4.06622,1.96494,2.75345,-0.350743,0.953269,0.57887,1.27736,7.67427,28.8744,198.901,2.84283
106,47.3479,7.70486,14.5524,29.7627,2.43391,1.65762,3.14069,6.47331,1.96494,1.93915,1.37374,1.70317,1.00314,1.94155,8.63279,28.729,282.715,4.01912
111,69.106,15.8367,21.6614,38.2714,1.94019,3.02475,1.89502,6.47331,2.86364,2.75345,2.23599,1.70317,1.14456,1.60946,9.5913,28.6252,328.002,5.52455
116,85.3307,18.4942,27.1007,44.2614,1.24898,3.34375,0.634164,7.27567,2.86364,3.56776,2.23599,0.953269,1.4274,2.1076,11.5083,28.7498,366.266,7.23511
121,109.292,24.5159,29.6568,45.1842,4.42399,3.32856,-0.132986,10.4851,4.66103,3.56776,2.23599,2.82803,1.4274,2.27365,12.4669,28.5837,339.128,8.953
126,146.71,30.7624,34.8255,49.1021,3.86191,4.61215,5.93585,9.68276,5.55973,3.56776,3.09823,2.45308,1.71024,2.1076,11.5083,28.3968,397.415,10.7552
131,167.236,30.5425,37.5984,50.2175,4.54553,1.5209,0.0493067,10.4851,4.66103,4.38206,2.23599,2.45308,1.4274,2.1076,11.5083,28.2722,583.017,13.022
136,193.317,32.9027,38.3022,54.7175,5.43423,4.59696,2.00136,11.2875,3.76233,5.19637,3.09823,3.57794,1.56882,2.43969,13.4254,28.0853,606.799,15.9607
141,195.543,40.1125,45.1071,62.4424,4.4164,6.28309,0.884817,12.8922,5.55973,5.19637,3.09823,3.20298,1.99309,2.43969,14.3839,28.0853,656.094,19.2113
146,232.41,50.2013,58.9897,72.2373,3.42895,5.15141,3.96101,16.1017,4.66103,6.82498,3.09823,3.57794,2.27593,3.10388,16.3009,27.9192,632.104,22.5226
151,322.895,61.7353,65.7139,79.7919,2.71496,1.42976,3.61921,18.5088,7.35712,8.45358,3.09823,4.70279,2.98304,3.10388,18.218,27.5869,666.933,25.6612
156,328.338,65.03,67.9414,83.1563,2.24402,5.37926,2.40393,13.6946,5.55973,5.19637,2.23599,3.95289,2.55878,3.26993,16.3009,27.2546,744.148,29.1466
161,361.411,73.613,83.526,99.5261,2.68457,11.0529,2.60901,15.2993,5.55973,6.01067,2.23599,3.57794,1.99309,2.77179,15.3424,27.0677,891.241,33.1339
166,357.42,79.3687,93.0037,115.311,4.90252,5.18938,6.49033,22.5206,10.0532,8.45358,4.82271,5.07775,3.12446,3.60202,22.052,26.7355,911.045,37.5711
171,388.631,99.5055,119.881,142.307,3.73278,4.48303,3.74834,23.3229,9.15451,7.63928,4.82271,5.07775,3.26588,3.76807,23.0105,26.4448,1127.35,42.5773
176,425.196,107.33,133.465,160.195,2.54025,8.88064,8.4196,24.9277,10.0532,9.26789,5.68496,6.2026,3.69015,4.26621,26.8446,26.1125,1021.89,47.9119
181,507.938,109.962,140.961,173.228,7.11288,2.91082,10.7742,33.7537,13.648,11.7108,7.40944,6.95251,4.11441,4.43225,29.7202,25.7595,1176.17,53.4548
186,518.692,132.199,163.399,204.636,5.23674,5.06026,5.07756,33.7537,11.8506,12.5251,8.27169,7.32746,3.83157,4.43225,30.6787,25.6349,1262.37,59.3319
191,647.861,148.621,184.924,235.434,5.31269,9.64776,3.35337,36.9631,13.648,13.3394,8.27169,6.95251,4.53868,4.5983,33.5542,25.2611,1235.39,65.6162
196,576.283,172.987,220.505,279.383,9.63466,7.91605,7.53851,39.3702,14.5467,15.7823,9.99617,8.82727,5.38721,5.59458,36.4298,24.9081,1403.18,72.1991
201,680.019,197.417,269.342,341.518,13.0831,11.5997,10.0982,40.1726,15.4454,15.7823,10.8584,8.82727,5.67005,6.09272,37.3883,24.4304,1590.93,79.7093
206,714.662,195.002,264.749,354.696,4.51514,13.0504,5.89028,43.382,18.1415,15.7823,11.7207,9.20222,5.67005,5.92667,39.3053,24.1397,1681.45,87.7148
211,716.283,202.74,280.612,385.74,7.62179,6.79197,9.6121,47.3938,19.0402,19.0395,14.3074,9.20222,6.23574,6.59086,42.1809,23.8075,1932.49,96.244
216,824.408,233.114,314.749,438.73,10.6601,13.6276,10.6375,57.0222,21.7362,22.2968,16.8941,12.2018,7.9328,7.75319,51.766,23.2675,1715.34,105.224
221,895.922,280.63,394.093,523.788,12.8628,14.934,17.5267,54.6151,20.8375,21.4825,16.0319,11.8269,7.22569,7.75319,48.8905,22.7899,1758.82,114.118
226,968.34,274.993,375.945,538.296,3.56568,18.8683,12.4984,58.6269,20.8375,22.2968,16.8941,11.4519,7.64996,7.91923,52.7246,22.3331,1797.36,123.046
231,1126.19,280.693,383.33,560.091,9.51313,16.491,13.5694,62.6388,22.6349,23.9254,19.4808,12.5768,8.07422,8.58342,58.4757,21.8139,1750.4,131.78
236,1011.09,281.793,411.554,582.753,9.3916,15.8302,14.0859,67.4529,22.6349,23.9254,19.4808,14.0766,8.92275,9.08156,62.3097,21.2948,1460.64,139.897
241,1046.39,260.262,400.074,606.177,7.31796,12.139,11.9135,70.6624,25.331,26.3683,21.2053,14.0766,8.78133,8.74947,63.2682,20.7756,1382.9,147.412
246,1061.1,271.224,405.894,614.05,8.19147,9.65535,9.80199,64.2435,20.8375,21.4825,20.3431,11.4519,7.64996,7.91923,59.4342,20.298,1319.78,154.594
251,1041.46,232.574,350.016,576.56,8.70798,17.5088,9.49817,65.0458,22.6349,23.1111,19.4808,12.2018,7.9328,8.08528,58.4757,19.9865,1454.17,161.411
256,914.081,229.348,333.928,556.96,11.921,6.87551,16.8203,61.8364,19.9389,21.4825,18.6186,11.4519,7.08427,7.42109,58.4757,19.5919,1135.53,167.723
261,874.603,229.348,316.999,528.742,12.1792,14.4023,8.04742,57.0222,16.3441,19.0395,16.8941,9.57717,6.37716,6.59086,51.766,19.0936,1039.9,172.948
266,861.106,205.119,287.176,500.877,3.28464,13.6049,11.0401,51.4057,15.4454,17.4109,15.1696,8.45232,6.09432,5.76063,46.0149,18.8236,1035.73,177.914
271,966.061,190.087,271.572,480.068,10.2727,3.75389,8.19933,48.1962,13.648,14.1537,14.3074,7.32746,5.10437,5.26249,43.1394,18.4498,887.277,182.668
276,767.536,173.165,257.653,453.213,8.97383,9.79966,6.89289,40.9749,10.9519,13.3394,11.7207,6.2026,4.6801,4.5983,34.5127,18.1383,855.868,187.2
281,716.969,162.533,238.803,430.038,5.60133,7.0502,10.6147,35.3584,9.15451,10.8965,10.8584,5.4527,3.83157,4.10016,33.5542,17.7853,847.743,191.475
286,724.715,148.489,221.56,412.826,1.98577,17.3493,10.8426,35.3584,10.9519,11.7108,9.13393,5.07775,3.54873,3.76807,29.7202,17.6192,863.545,195.701
291,648.683,135.269,208.667,395.627,4.55312,7.5211,5.50291,33.7537,8.25581,10.0822,11.7207,5.4527,3.54873,3.76807,31.6372,17.3077,966.373,199.915
296,628.652,139.682,210.462,382.777,10.4094,10.3237,8.76899,32.9513,10.0532,10.8965,9.99617,5.4527,3.26588,3.76807,28.7616,16.9546,809.976,204.393
301,623.666,138.659,202.456,369.855,4.92531,11.5238,7.81195,32.1489,8.25581,10.8965,9.99617,4.70279,3.26588,3.60202,26.8446,16.7678,799.057,208.428
306,634.14,128.92,192.498,357.714,4.63667,11.2427,12.4073,32.9513,9.15451,10.8965,9.13393,4.32784,3.26588,3.60202,26.8446,16.4355,769.942,212.309
311,699.582,127.11,196.342,349.44,8.55607,11.1212,8.74621,31.3466,8.25581,10.0822,9.13393,4.70279,3.12446,3.76807,26.8446,16.1448,751.879,216.061
316,602.716,124.939,188.63,335.73,10.9867,10.8706,7.88031,30.5442,7.35712,10.8965,8.27169,4.70279,3.12446,3.43597,26.8446,16.1863,712.062,219.63
321,607.381,127.11,183.323,324.585,4.12776,11.2655,6.92328,32.9513,9.15451,10.0822,9.13393,4.32784,3.26588,3.76807,27.8031,15.7917,665.43,222.967
326,583.914,125.319,183.214,319.54,7.69016,7.77934,9.52855,32.1489,8.25581,10.0822,8.27169,4.70279,3.26588,3.60202,26.8446,15.4387,680.362,226.298
331,570.776,117.51,175.841,311.764,6.53561,4.3767,5.10794,28.1371,8.25581,9.26789,9.13393,4.32784,3.12446,3.26993,24.9276,15.148,735.11,229.754
336,543.064,114.899,168.55,301.877,5.26712,2.34118,6.99923,28.9395,8.25581,9.26789,8.27169,3.57794,2.84162,3.26993,24.9276,14.9611,623.473,233
341,517.67,109.371,159.342,291.898,6.22418,11.3339,7.44737,27.3348,7.35712,10.0822,7.40944,4.32784,2.84162,3.26993,25.8861,14.795,640.341,236.246
346,521.446,112.669,159.792,288.643,9.49794,3.45768,6.11815,27.3348,8.25581,8.45358,9.13393,4.32784,2.7002,2.93783,23.0105,14.4627,693.33,239.503
351,565.706,112.383,158.321,279.587,8.37377,9.85283,7.26507,26.5324,9.15451,9.26789,8.27169,3.95289,2.55878,2.77179,23.9691,14.3174,586.306,242.708
356,486.497,113.938,157.365,277.579,7.01414,4.98431,6.98404,24.9277,6.45842,7.63928,9.13393,2.82803,2.55878,2.77179,22.052,14.1305,537.944,245.644
361,493.441,112.414,154.175,269.553,7.45469,9.74649,7.47015,23.3229,8.25581,7.63928,6.5472,3.20298,2.55878,2.60574,20.135,13.7982,544.036,248.31
366,532.06,109.922,150.111,261.046,5.6545,6.72361,4.58385,22.5206,4.66103,6.82498,6.5472,2.45308,2.13451,2.43969,20.135,13.6321,534.462,250.973
371,464.775,105.588,144.471,253.676,8.03956,5.98688,6.5359,20.9158,5.55973,7.63928,3.96047,3.20298,1.99309,2.43969,19.1765,13.4659,605.644,253.664
376,449.971,101.158,136.176,244.821,3.41376,13.1112,3.77872,20.1135,4.66103,6.82498,5.68496,2.45308,1.85167,2.43969,19.1765,13.3206,507.846,256.315
381,451.119,97.8799,131.894,237.329,3.14791,4.74126,4.30281,19.3111,4.66103,6.82498,4.82271,2.45308,2.13451,2.27365,18.218,13.1337,521.888,258.831
386,429.077,95.1427,127.232,230.706,5.24433,7.61225,8.11578,17.7064,4.66103,6.01067,5.68496,2.82803,1.85167,2.27365,16.3009,13.0091,468.775,261.306
391,499.8,89.1164,125.552,226.699,3.61885,8.72114,3.6496,18.5088,5.55973,6.01067,3.09823,2.82803,1.85167,2.1076,16.3009,12.8222,446.327,263.552
396,418.217,87.9409,122,221.959,2.78332,8.42493,6.08777,16.1017,3.76233,3.56776,4.82271,2.45308,1.85167,1.94155,15.3424,12.6768,422.028,265.734
401,424.897,85.6957,120.688,216.294,6.49003,5.74383,4.37117,15.2993,3.76233,6.01067,3.96047,1.70317,1.56882,2.1076,14.3839,12.6561,424.073,267.812
406,383.52,85.7855,116.343,211.328,4.39361,8.82748,5.36619,16.1017,3.76233,5.19637,3.96047,2.45308,1.56882,1.94155,15.3424,12.303,448.326,269.979
411,376.803,86.6924,116.965,208.879,1.97817,6.5793,5.32821,15.2993,2.86364,4.38206,3.96047,1.70317,1.4274,2.1076,14.3839,12.3238,500.361,272.299
416,357.803,81.1096,109.676,204.034,5.01646,6.00966,5.73837,15.2993,5.55973,5.19637,3.96047,1.32822,1.71024,1.94155,12.4669,12.0123,420.861,274.435
421,346.877,77.3438,107.723,199.43,7.18884,4.92355,7.07519,14.4969,4.66103,4.38206,3.96047,1.70317,1.4274,1.94155,13.4254,11.95,361.515,276.342
426,359.039,73.9648,104.593,196.16,7.28674,7.57779,4.3146,12.9697,4.86132,4.24598,2.4741,1.74235,1.54441,2.03498,13.0865,11.7816,401.005,278.254
431,402.242,72.1272,99.468,191.784,0.732472,3.32096,4.67499,11.2875,3.76233,4.38206,3.09823,1.70317,1.4274,1.94155,12.4669,11.6385,369.308,280.159
436,356.033,63.2372,86.7623,180.009,4.04421,5.12862,4.96362,12.8922,3.76233,4.38206,3.96047,1.70317,1.4274,1.44341,12.4669,11.4932,376.668,282.028
441,322.046,59.2784,82.2594,173.416,5.44182,2.43992,5.86749,12.0899,3.76233,5.19637,3.96047,2.07813,1.4274,1.7755,13.4254,11.4932,392.29,283.911
446,340.07,56.4809,78.1155,169.067,1.4009,1.22469,2.55584,12.0899,3.76233,6.01067,3.09823,1.70317,1.28598,1.7755,11.5083,11.3063,415.453,286.002
451,307.582,53.6479,76.6178,164.576,2.19845,7.00463,1.02913,11.2875,3.76233,3.56776,2.23599,1.32822,1.14456,1.94155,11.5083,11.1194,459.557,288.155
456,318.304,53.268,76.7169,162.546,5.79882,10.8858,8.10058,12.0899,3.76233,2.75345,3.09823,1.32822,1.14456,1.7755,11.5083,10.9948,427.287,290.355
461,305.074,55.5284,80.9077,163.661,3.22387,5.69826,4.79652,11.2875,3.76233,3.56776,3.09823,1.32822,1.14456,1.60946,11.5083,10.9948,394.101,292.414
466,315.707,59.5468,87.0412,164.924,6.14822,8.13631,9.00445,10.4851,2.86364,4.38206,2.23599,1.32822,1.14456,1.44341,10.5498,10.6625,373.369,294.328
471,353.724,60.7181,87.5131,167.09,2.79091,4.75646,3.86227,12.0899,1.96494,2.75345,3.09823,1.70317,1.28598,1.60946,10.5498,10.6417,377.104,296.15
476,352.127,64.2084,89.0559,167.205,4.42399,3.35135,2.34316,11.2875,2.86364,2.75345,3.96047,0.953269,1.00314,1.44341,11.5083,10.4549,341.884,297.929
481,341.072,64.0615,88.3947,164.69,5.35827,4.39189,3.96101,11.2875,3.76233,4.38206,3.96047,0.953269,1.28598,1.60946,12.4669,10.3303,339.573,299.627
486,330.523,62.0303,85.8133,162.203,4.46957,6.45778,9.33106,10.4851,3.76233,3.56776,4.82271,1.70317,1.4274,1.7755,10.5498,10.351,338.626,301.307
491,330.347,62.3665,84.2405,159.697,5.07723,5.78181,9.65008,10.4851,2.86364,2.75345,2.23599,1.32822,1.28598,1.44341,10.5498,10.1434,406.417,303.184
496,300.126,58.2904,79.6609,154.876,5.10001,3.65515,2.26721,11.2875,2.86364,3.56776,1.37374,1.70317,1.14456,1.60946,10.5498,9.998,324.425,304.992
501,298.217,55.1598,74.1982,151.042,2.38074,6.62487,8.06261,12.8922,4.66103,3.56776,1.37374,1.70317,1.28598,1.7755,12.4669,9.76957,347.93,306.634
506,293.299,58.8424,78.6342,152.863,0.504601,7.8477,6.75617,12.8922,3.76233,4.38206,2.23599,1.70317,1.28598,1.7755,11.5083,9.64498,387.576,308.525
511,340.346,56.2653,78.2309,151.08,6.97616,7.10337,7.24988,12.0899,1.96494,3.56776,3.09823,1.70317,1.4274,1.60946,11.5083,9.66574,380.212,310.43
516,283.239,56.9228,77.3455,150.809,5.25193,7.46794,5.19149,14.4969,1.96494,4.38206,3.96047,1.32822,1.4274,1.7755,12.4669,9.49961,372.417,312.334
521,294.348,60.65,83.9212,151.693,4.26448,4.5286,4.09014,13.6946,4.66103,3.56776,2.23599,2.07813,1.4274,1.7755,13.4254,9.35425,357.134,314.138
526,306.896,60.0508,83.8369,150.658,5.10001,7.87808,5.95105,12.0899,3.76233,3.56776,5.68496,1.70317,1.28598,1.94155,12.4669,9.14659,333.084,315.941
531,302.746,58.6584,78.5242,146.345,7.17365,3.86022,5.67001,12.8922,2.86364,6.01067,2.23599,1.70317,1.4274,1.94155,12.4669,9.00123,381.532,317.683
536,294.292,59.7988,77.681,143.13,3.51251,3.83744,5.86749,13.6946,3.76233,4.38206,3.96047,1.32822,1.56882,1.7755,12.4669,8.98046,359.031,319.494
541,287.761,58.1378,74.3027,140.103,4.01382,2.58423,5.04718,12.8922,2.86364,2.75345,3.96047,1.32822,1.4274,1.94155,12.4669,8.85586,350.383,321.198
546,270.443,54.1275,71.7418,137.092,3.68721,5.23495,5.11554,11.2875,3.76233,4.38206,4.82271,1.32822,1.28598,1.60946,11.5083,8.66897,358.765,322.946
551,320.992,50.3722,66.7277,132.362,4.4088,4.15644,7.9031,13.6946,3.76233,4.38206,3.09823,1.70317,1.4274,1.94155,12.4669,8.52361,342.082,324.707
556,311.383,48.8447,66.5333,131.449,2.71496,4.82481,5.61684,10.4851,2.86364,4.38206,2.23599,2.07813,1.14456,1.60946,9.5913,8.50284,372.069,326.482
561,298.614,48.9242,65.8781,130.178,2.54025,2.46271,6.23208,10.4851,2.86364,3.56776,2.23599,1.70317,1.28598,1.60946,11.5083,8.33671,351.052,328.265
566,298.37,50.7733,69.1435,130.478,4.85695,3.39692,5.56367,10.4851,2.86364,3.56776,2.23599,1.32822,1.4274,1.60946,11.5083,8.14982,334.877,330.045
571,283.62,53.1997,71.773,130.58,6.30773,5.88814,4.91046,12.0899,3.76233,5.19637,2.23599,1.70317,1.56882,1.7755,11.5083,8.14982,383.503,331.831
576,301.186,54.6806,74.0149,132.05,5.05444,6.70842,4.28003,12.8922,4.66103,2.75345,2.23599,2.07813,1.4274,1.94155,11.5083,8.00445,315.153,333.524
581,286.787,53.1259,72.1763,131.706,4.84935,3.68553,2.58622,12.0899,3.76233,4.38206,3.09823,1.32822,1.28598,1.7755,11.5083,7.85909,341.975,335.19
586,268.589,53.2421,74.6381,131.9,3.73278,4.01213,4.14331,12.0899,3.76233,4.38206,3.96047,1.32822,1.4274,1.60946,12.4669,7.83832,346.67,336.887
591,314.428,50.6569,73.6483,131.524,5.28991,6.16916,0.960772,11.2875,3.76233,3.56776,3.09823,0.953269,1.14456,1.60946,11.5083,7.69296,357.56,338.633
596,266.564,49.1352,67.8854,127.579,2.53266,1.49812,4.94843,10.4851,2.86364,4.38206,3.96047,1.32822,1.14456,1.7755,9.5913,7.4853,363.153,340.386
601,289.046,50.2448,69.3894,127.804,3.00359,7.27046,5.58646,10.4851,4.66103,3.56776,4.82271,1.32822,1.4274,1.7755,10.5498,7.33994,351.675,342.187
606,284.037,46.2518,66.3865,124.102,1.00592,5.11343,1.49246,10.4851,2.86364,3.56776,3.09823,1.70317,1.4274,1.7755,10.5498,7.33994,319.877,343.881
611,289.051,46.591,67.7496,122.537,5.4722,4.3691,5.71558,10.4851,1.06625,3.56776,3.09823,1.32822,1.28598,1.7755,11.5083,7.33994,393.937,345.65
616,277.875,46.1516,67.9751,123.814,5.32789,3.90579,5.74597,10.4851,3.76233,4.38206,3.96047,1.32822,1.28598,1.60946,11.5083,7.17381,351.478,347.49
621,266.558,45.4359,65.7993,121.411,6.30014,3.7387,6.50552,10.4851,4.66103,4.38206,3.96047,0.953269,1.28598,1.60946,11.5083,7.04921,301.853,349.085
626,242.589,50.9895,67.2672,121.075,4.46957,7.28565,5.32062,10.4851,2.86364,2.75345,3.96047,0.953269,1.14456,1.60946,11.5083,6.84155,313.045,350.64
631,300.608,49.8695,67.5131,120.541,4.21891,6.01726,4.6674,12.0899,2.86364,4.38206,3.96047,1.70317,1.14456,1.60946,11.5083,6.84155,299.485,352.267
636,276.274,47.8507,61.2871,115.861,2.47189,3.87541,3.57364,10.4851,1.96494,3.56776,3.09823,1.70317,1.00314,1.60946,10.5498,6.69619,290.788,353.774
641,243.818,45.139,59.7006,113.883,3.58087,4.65012,2.81409,11.2875,2.86364,3.56776,3.09823,1.70317,1.00314,1.60946,9.5913,6.53006,326.472,355.326
646,247.115,43.6909,59.0384,111.542,1.4009,3.83744,2.22923,9.68276,2.86364,4.38206,4.82271,1.70317,1.14456,1.27736,11.5083,6.15627,322.735,356.962
651,241.831,40.2308,54.6926,108.722,2.60102,5.43243,3.4673,8.8804,2.86364,2.75345,3.96047,2.07813,1.00314,1.60946,9.5913,6.15627,347.987,358.602
656,240.134,37.3263,54.698,108.06,1.72751,3.19185,6.39159,8.07803,2.86364,4.38206,4.82271,1.32822,1.14456,1.27736,8.63279,5.67865,285.877,360.123
661,255.811,35.2698,52.5582,107.208,0.75526,4.2096,1.84186,8.07803,1.96494,2.75345,3.09823,0.953269,1.14456,1.60946,7.67427,6.1978,267.309,361.55
666,242.186,33.3912,48.4494,103.982,2.04653,2.10573,1.35574,7.27567,2.86364,2.75345,4.82271,1.32822,1.00314,1.44341,8.63279,6.17704,276.994,362.93
671,271.642,31.2088,45.1081,99.9865,4.43919,3.84503,0.953177,7.27567,2.86364,4.38206,3.96047,1.70317,0.861714,1.60946,7.67427,6.05244,278.009,364.314
676,229.631,31.4398,46.004,97.2623,0.610941,3.68553,2.6166,8.07803,2.86364,2.75345,3.09823,0.203364,1.14456,1.27736,8.63279,6.01091,270.639,365.692
681,204.73,28.5868,43.5224,94.4309,1.50724,2.69056,2.63939,7.27567,2.86364,1.93915,3.09823,1.32822,0.861714,1.27736,8.63279,5.84478,252.222,366.978
686,210.427,28.6621,43.1508,92.4065,3.33021,1.2095,0.641759,8.07803,1.96494,2.75345,3.96047,1.32822,1.00314,1.27736,8.63279,5.67865,258.937,368.267
691,211.471,25.5261,38.4898,89.4223,2.8137,2.28802,2.41912,5.67094,3.76233,2.75345,3.09823,1.70317,1.00314,1.11132,6.71575,5.69942,297.287,369.621
696,205.809,23.263,35.5807,86.6355,0.80843,3.33615,1.63678,5.67094,3.76233,1.12484,2.23599,0.578316,0.861714,1.27736,7.67427,5.67865,296.713,371.06
701,192.912,22.7217,37.8497,87.102,1.0439,3.1007,3.04955,6.47331,1.96494,3.56776,2.23599,1.32822,0.861714,1.27736,7.67427,5.65788,264.254,372.48
706,194.821,23.0681,36.398,85.8956,2.64659,5.17419,5.02439,6.47331,2.86364,1.93915,3.09823,0.953269,1.00314,1.44341,6.71575,5.51252,236.241,373.704
711,221.616,23.7171,37.3006,85.0933,2.76813,1.39179,3.58124,5.67094,1.06625,2.75345,3.09823,0.953269,0.861714,1.44341,7.67427,5.36716,247.289,374.959
716,223.425,22.6194,33.2208,82.0471,0.413452,0.434792,2.1001,8.07803,2.86364,2.75345,4.82271,0.578316,1.00314,1.27736,8.63279,5.36716,244.444,376.221
721,202.198,20.3012,31.7517,79.9506,0.922365,2.19688,1.24181,5.67094,2.86364,2.75345,2.23599,0.953269,1.00314,1.27736,7.67427,5.18026,239.583,377.473
726,190.037,19.6995,31.3441,78.4889,2.44151,2.75892,4.24964,6.47331,1.96494,2.75345,3.09823,0.953269,1.00314,1.27736,6.71575,5.2218,251.737,378.669
731,190.666,19.6179,30.9628,77.5299,1.35532,3.77668,4.69778,6.47331,1.06625,1.93915,3.09823,0.578316,0.861714,1.44341,9.5913,5.20103,262.144,379.876
736,181.548,20.4586,30.3294,77.352,2.85168,1.8475,1.98617,4.06622,1.96494,2.75345,1.37374,0.953269,1.00314,1.27736,7.67427,5.0349,188.303,380.978
741,184.141,20.1873,30.6621,76.8698,4.21891,3.67794,4.05975,5.67094,2.86364,1.93915,2.23599,1.70317,0.720292,1.27736,5.75724,5.0349,202.895,381.935
746,191.599,21.0543,30.8445,76.2776,0.565366,1.61205,2.15327,6.47331,1.06625,1.93915,3.09823,0.953269,0.861714,1.27736,5.75724,4.82724,209.123,382.961
751,206.376,18.598,29.163,73.8683,1.48445,3.80706,2.1153,4.86858,1.96494,1.93915,2.23599,0.203364,0.720292,1.27736,6.71575,4.84801,220.354,384.023
756,153.776,19.6995,29.9156,73.0615,1.3933,0.776576,1.68235,4.06622,1.96494,0.31054,3.09823,0.578316,0.720292,1.27736,4.79872,4.80647,210.15,385.1
761,157.11,16.0112,27.3546,70.8609,1.30215,0.222127,0.482253,4.06622,-0.731142,1.93915,1.37374,0.953269,0.861714,1.44341,5.75724,4.82724,214.401,386.173
766,157.018,15.0209,25.6563,69.6137,2.79851,2.34118,1.90262,4.86858,0.167553,2.75345,1.37374,0.578316,0.57887,1.27736,8.63279,4.68188,216.776,387.213
771,159.919,17.6912,28.7168,69.3991,1.18822,0.784171,4.03697,6.47331,1.06625,3.56776,2.23599,0.953269,0.720292,1.11132,5.75724,4.68188,230.038,388.31
776,157.792,17.1587,26.9453,68.6653,1.01351,1.23229,3.74074,6.47331,1.06625,2.75345,2.23599,0.953269,0.720292,1.11132,6.71575,4.49498,227.905,389.436
781,151.284,15.1408,25.7752,68.0782,2.73774,2.06016,2.65458,5.67094,1.96494,1.12484,2.23599,0.578316,0.861714,1.27736,6.71575,4.55728,204.28,390.508
786,155.919,15.1733,24.5605,67.2653,2.33517,3.19185,1.257,4.06622,1.96494,2.75345,3.09823,0.953269,0.861714,1.11132,7.67427,4.51575,195.303,391.463
791,167.749,13.6046,22.2462,65.2408,0.474218,0.252508,1.67475,4.86858,1.06625,1.12484,3.09823,0.953269,0.861714,1.27736,6.71575,4.53651,203.17,392.454
796,163.588,12.1603,20.963,63.8506,1.47685,2.86525,1.86464,4.86858,1.96494,2.75345,3.09823,0.578316,0.720292,1.27736,8.63279,4.39115,194.702,393.443
801,144.172,12.7328,21.7592,63.7772,1.49204,1.45255,1.26459,4.86858,0.167553,2.75345,3.09823,0.578316,0.720292,1.44341,6.71575,4.37039,188.677,394.383
806,141.204,13.8716,22.2083,63.6982,2.14528,1.42217,2.9584,5.67094,1.06625,2.75345,3.96047,0.953269,0.720292,1.44341,7.67427,4.18349,205.907,395.353
811,145.976,12.2748,20.8492,62.5647,0.747664,2.73613,1.48486,4.86858,2.86364,1.93915,3.09823,0.953269,1.00314,1.44341,6.71575,4.18349,198.743,396.351
816,143.097,12.8092,21.1147,61.756,2.1073,0.920885,2.35076,5.67094,1.06625,1.93915,2.23599,0.953269,0.861714,1.27736,4.79872,4.20426,183.493,397.27
821,139.141,14.3178,22.3865,61.7764,0.694494,0.882909,1.46967,4.86858,1.96494,2.75345,3.09823,0.578316,0.720292,1.11132,4.79872,4.20426,179.333,398.183
826,145.462,13.2289,21.4939,60.984,1.3857,0.913289,0.672141,4.86858,1.96494,1.12484,2.23599,0.578316,0.720292,1.11132,7.67427,4.20426,197.321,399.109
831,140.444,12.6127,21.2608,60.3533,0.960344,1.55129,0.710119,7.27567,0.167553,1.93915,1.37374,0.953269,0.720292,1.11132,5.75724,4.01736,199.48,400.075
836,134.09,12.6508,21.2987,59.7647,0.80843,0.472768,0.117667,4.86858,1.06625,1.12484,1.37374,0.578316,0.861714,1.60946,7.67427,3.85123,193.512,401.085
841,130.855,10.9709,19.1734,57.409,2.66938,2.43233,3.17867,5.67094,1.96494,2.75345,2.23599,0.578316,0.861714,1.27736,6.71575,3.85123,189.737,402.044
846,141.778,12.7653,20.3883,57.1511,1.54521,1.96902,2.00136,4.06622,0.167553,1.12484,3.09823,0.953269,0.720292,1.44341,9.5913,3.85123,188.167,402.961
851,137.489,11.4674,18.5655,55.751,0.489409,0.814552,1.80388,5.67094,1.06625,1.12484,1.37374,1.32822,0.861714,1.27736,6.71575,3.85123,229.611,403.964
856,135.169,10.6539,17.5277,55.482,2.13009,1.35381,0.451871,4.86858,1.06625,1.93915,3.09823,1.32822,0.861714,1.27736,6.71575,4.84801,187.72,405.016
861,134.296,10.5067,16.6963,54.5287,1.35532,2.35638,3.93823,3.26385,1.06625,1.93915,2.23599,1.70317,0.861714,1.60946,7.67427,3.70587,189.78,405.944
866,127.791,10.1303,16.6639,53.5749,0.8616,0.601887,2.74573,3.26385,1.96494,1.93915,3.09823,0.953269,0.720292,1.27736,5.75724,3.6851,185.239,406.862
871,154.256,8.58977,16.2338,53.6377,1.66675,1.09557,2.25201,4.06622,-0.731142,1.93915,2.23599,0.953269,0.720292,1.27736,5.75724,3.53974,174.64,407.758
876,130.654,10.01,16.1253,52.7573,2.34277,3.86782,2.2824,4.86858,1.06625,2.75345,3.96047,0.953269,0.861714,1.27736,5.75724,3.49821,186.085,408.648
881,131.34,9.97174,16.6202,52.6096,2.82889,2.54626,1.52284,4.86858,0.167553,0.31054,2.23599,0.953269,0.861714,1.11132,6.71575,2.99982,181.782,409.572
886,131.982,11.8111,17.0064,52.5412,1.53762,2.44752,2.07732,4.86858,1.96494,1.93915,1.37374,0.953269,0.861714,1.44341,5.75724,3.49821,160.794,410.411
891,122.023,10.6709,17.6587,52.3251,1.16543,2.09814,2.25961,5.67094,0.167553,1.12484,1.37374,0.578316,0.861714,1.27736,5.75724,3.53974,178.578,411.207
896,128.12,10.5506,17.6531,52.0611,1.05149,0.822147,1.88743,4.86858,1.06625,1.12484,1.37374,1.32822,0.437449,1.11132,5.75724,3.49821,161.834,412.026
901,125.526,7.40402,15.015,51.0894,0.360282,1.56648,1.74311,4.06622,1.96494,1.12484,2.23599,1.32822,0.720292,1.27736,6.71575,3.37361,153.693,412.769
906,114.627,9.01607,15.4397,50.7992,1.0439,4.08808,0.763288,4.06622,1.96494,2.75345,3.09823,0.953269,0.861714,1.44341,5.75724,3.37361,159.019,413.562
911,124.645,7.6775,13.877,49.8377,0.8616,0.449983,1.52284,3.26385,1.06625,1.12484,2.23599,0.953269,0.57887,1.11132,6.71575,3.37361,151.62,414.365
916,109.957,7.13621,13.1848,49.5362,1.90981,1.49052,0.710119,5.67094,1.96494,1.12484,3.09823,0.578316,0.57887,1.11132,4.79872,3.39438,142.843,415.104
921,104.441,6.15266,12.7764,49.4362,2.0997,3.04754,2.1077,4.06622,2.86364,1.12484,3.09823,0.578316,0.57887,1.27736,7.67427,3.18672,149.117,415.829
926,105.992,6.83011,13.1085,48.6849,0.261537,1.6804,1.67475,3.26385,1.06625,1.12484,1.37374,0.578316,0.57887,1.11132,5.75724,3.20748,164.592,416.601
931,101.684,5.30491,11.9691,47.7646,0.29192,0.799361,1.02154,4.06622,1.06625,1.93915,3.09823,0.953269,0.861714,0.945271,4.79872,3.20748,167.846,417.402
936,102.986,5.64941,10.9762,47.2087,0.603345,0.586696,1.83426,3.26385,1.06625,1.12484,3.09823,0.578316,0.57887,1.11132,7.67427,3.20748,156.322,418.203
941,102.729,4.99298,10.7031,46.7213,0.276729,-0.0968708,0.915199,3.26385,1.06625,1.93915,2.23599,1.32822,0.57887,1.27736,6.71575,3.02059,148.691,418.968
946,104.051,3.7679,10.4356,46.4989,1.68194,2.19688,2.00136,2.46149,1.96494,2.75345,1.37374,0.578316,0.57887,0.945271,6.71575,3.02059,139.833,419.693
951,114.474,4.99868,11.9309,46.7639,1.25658,1.46014,3.44452,4.86858,1.06625,1.93915,1.37374,0.578316,0.720292,0.945271,5.75724,3.04135,145.945,420.398
956,105.656,5.72027,11.467,46.2022,1.23379,0.412007,2.76092,4.06622,1.06625,1.93915,2.23599,0.203364,0.720292,0.945271,6.71575,3.06212,138.627,421.089
961,103.095,5.05816,11.4557,46.2653,2.36555,2.81968,3.01157,4.06622,0.167553,1.93915,3.09823,-0.171588,0.437449,1.11132,5.75724,3.08289,137.882,421.801
966,99.4153,5.19008,11.0144,45.577,0.550175,2.17409,2.60901,4.06622,1.96494,2.75345,2.23599,-0.171588,0.57887,1.11132,5.75724,3.02059,126.49,422.465
971,100.241,3.96502,11.2054,45.8738,0.375473,1.33862,0.968368,3.26385,0.167553,1.12484,1.37374,0.953269,0.861714,1.27736,6.71575,2.85446,165.592,423.133
976,93.8208,4.06849,10.0478,45.0835,0.572962,1.56648,1.48486,3.26385,1.06625,1.93915,1.37374,0.578316,0.720292,0.945271,6.71575,2.85446,125.762,423.858
981,90.678,4.41875,9.51836,44.2349,1.08947,0.867718,1.12028,4.06622,1.96494,1.12484,2.23599,0.578316,0.57887,0.945271,6.71575,2.89599,133.88,424.511
986,88.0266,3.61475,9.4419,43.7147,0.800834,1.17912,1.0823,4.06622,1.06625,1.12484,3.09823,0.203364,0.861714,1.27736,5.75724,2.83369,137.854,425.171
991,105.222,2.8816,8.63327,43.0773,0.702089,1.57407,2.1001,3.26385,1.96494,1.93915,2.23599,0.953269,0.861714,1.11132,5.75724,2.87523,135.89,425.832
996,77.1555,2.42785,7.98877,42.1901,0.534984,0.639863,1.01394,2.46149,1.96494,1.12484,1.37374,0.953269,0.57887,0.945271,6.71575,2.68833,135.721,426.475
1001,79.1918,2.49873,7.71531,41.4029,0.102027,0.146175,1.18104,3.26385,1.96494,1.12484,2.23599,1.32822,0.296027,1.44341,5.75724,2.7091,130.433,427.12
1006,85.0803,2.26331,7.70962,41.3229,2.13768,1.88547,1.78109,4.06622,1.06625,1.93915,3.09823,0.953269,0.57887,1.11132,6.71575,2.7091,123.944,427.761
1011,85.6007,1.73299,6.79705,40.8815,1.41609,0.579101,2.52545,4.06622,1.96494,0.31054,2.23599,0.203364,0.57887,0.945271,6.71575,2.72986,138.755,428.402
1016,85.2259,0.169139,6.38179,40.8125,0.162793,2.93361,1.63678,4.06622,1.96494,1.93915,1.37374,0.203364,0.57887,1.27736,6.71575,2.7091,130.318,429.118
1021,82.7667,0.207415,6.99406,40.8125,0.337495,1.28545,0.960772,3.26385,1.06625,0.31054,3.09823,0.953269,0.720292,1.11132,5.75724,2.6468,134.431,429.751
1026,79.4173,0.73193,5.87286,39.385,0.421048,0.017057,0.337937,4.06622,2.86364,0.31054,0.5115,0.953269,0.437449,1.27736,4.79872,2.5222,127.662,430.401
1031,87.3467,1.11475,5.37525,39.1611,0.504601,1.88547,1.81147,4.06622,0.167553,1.93915,2.23599,0.953269,0.57887,1.11132,5.75724,2.5222,117.843,431.022
1036,81.6274,0.775903,5.68717,38.6443,0.800834,2.7893,0.945581,2.46149,1.96494,1.93915,2.23599,0.203364,0.720292,1.27736,7.67427,2.5845,103.558,431.597
1041,79.8692,1.57985,6.75878,38.6069,0.96794,0.381626,1.12028,4.86858,1.96494,1.93915,0.5115,0.578316,0.57887,1.11132,6.71575,2.50144,105.923,432.15
1046,76.2744,1.57985,6.29955,37.9722,0.724877,0.890504,0.0720933,3.26385,1.06625,1.93915,1.37374,0.578316,0.296027,0.779224,5.75724,2.54297,98.0447,432.654
1051,74.8608,-0.522159,4.65929,36.8568,0.124814,0.191746,2.2748,4.06622,1.06625,1.12484,3.09823,0.953269,0.437449,0.945271,6.71575,2.37684,129.533,433.219
1056,67.8785,-0.0835899,4.40681,35.7125,0.200772,0.586696,0.155644,4.06622,0.167553,1.12484,2.23599,0.578316,0.720292,0.945271,5.75724,2.37684,138.052,433.874
1061,74.9357,-1.10571,4.07931,35.6917,0.329899,0.457578,0.474657,2.46149,1.96494,1.93915,2.23599,0.203364,0.861714,0.945271,5.75724,2.35607,143.442,434.577
1066,69.4805,-0.918706,3.46102,34.9749,1.07428,1.59686,1.74311,4.06622,1.96494,1.93915,1.37374,0.578316,0.57887,1.27736,4.79872,2.37684,127.116,435.248
1071,77.3533,-0.00104113,3.83821,35.2314,0.747664,1.58167,0.565804,3.26385,0.167553,1.12484,2.23599,0.578316,0.720292,1.11132,6.71575,2.33531,117.505,435.871
1076,73.277,-0.166164,4.51597,35.1454,0.671707,0.267698,0.406297,3.26385,-0.731142,1.12484,2.23599,0.578316,0.720292,1.27736,7.67427,2.37684,122.868,436.489
1081,81.1489,-1.53014,3.84959,34.456,0.375473,0.829742,1.40131,3.26385,0.167553,1.12484,3.09823,0.578316,0.437449,1.11132,6.71575,2.35607,126.91,437.138
1086,77.4453,-0.00104113,3.72334,33.3203,1.19581,0.518339,1.15066,4.06622,0.167553,2.75345,2.23599,0.203364,0.437449,0.945271,4.79872,2.16918,138.734,437.785
1091,75.5046,-1.11718,2.61298,32.4197,0.253942,0.222127,0.580995,5.67094,0.167553,1.93915,1.37374,0.578316,0.57887,0.945271,4.79872,2.21071,151.166,438.433
1096,75.2453,-1.23861,2.33926,32.5267,0.550175,0.525935,1.26459,2.46149,1.06625,2.75345,0.5115,0.953269,0.720292,1.27736,5.75724,2.25224,121.347,439.112
1101,71.2411,-1.42007,3.26958,33.5134,0.398261,1.23229,1.46208,4.06622,0.167553,1.93915,-0.350743,0.953269,0.720292,1.27736,3.8402,2.21071,111.942,439.702
1106,77.9807,-1.22141,3.23698,32.8062,0.102027,0.662648,1.06711,4.06622,1.96494,1.93915,1.37374,0.578316,0.57887,0.945271,5.75724,2.21071,123.081,440.3
1111,87.8622,-1.20004,2.68386,32.3766,0.542579,0.199342,1.10509,2.46149,1.96494,1.12484,2.23599,0.953269,0.57887,0.945271,6.71575,2.18994,124.458,440.922
1116,72.3268,-0.808852,3.26389,32.6824,1.02871,0.457578,1.17345,3.26385,1.06625,2.75345,1.37374,0.953269,0.57887,1.11132,6.71575,2.21071,115.276,441.516
1121,68.4248,-0.770333,2.91929,31.9316,2.25162,0.662648,0.565804,3.26385,1.06625,1.12484,2.23599,0.578316,0.720292,1.44341,5.75724,2.04458,114.834,442.086
1126,66.6208,-1.52024,2.13643,31.5016,0.664111,-0.0285141,0.0569022,3.26385,1.96494,1.12484,3.09823,0.578316,0.437449,0.945271,6.71575,2.21071,117.678,442.671
1131,66.708,-1.49727,1.54661,31.0354,0.299516,0.00186661,0.0948799,2.46149,1.96494,1.12484,2.23599,0.578316,0.437449,1.11132,5.75724,2.04458,130.479,443.264
1136,68.2119,-1.89506,1.22894,30.5355,0.155197,0.320865,0.467062,3.26385,1.06625,0.31054,3.09823,0.578316,0.437449,0.945271,6.71575,2.04458,120.941,443.882
1141,63.1115,-2.17149,1.6061,30.1914,0.109623,0.0626281,0.467062,3.26385,1.06625,2.75345,1.37374,0.203364,0.437449,1.11132,4.79872,2.02381,122.4,444.489
1146,64.9336,-2.82397,0.348455,29.4067,0.056453,0.15377,-0.0418399,4.06622,1.96494,1.93915,0.5115,0.953269,0.437449,1.11132,5.75724,2.02381,120.007,445.143
1151,72.1001,-3.52219,-0.649802,28.9172,0.565366,1.22469,1.07471,2.46149,1.06625,1.12484,1.37374,0.578316,0.154605,1.11132,4.79872,2.02381,115.752,445.749
1156,66.6669,-2.79098,0.4576,29.514,1.01351,2.35638,0.953177,3.26385,1.06625,1.12484,2.23599,0.578316,0.437449,0.779224,5.75724,2.04458,113.529,446.328
1161,65.0866,-1.81776,1.68837,30.2722,1.44647,1.90066,0.937985,3.26385,1.06625,1.93915,1.37374,0.578316,0.720292,1.11132,5.75724,2.02381,117.025,446.928
1166,63.6074,-1.59172,2.37186,30.7179,0.626132,0.799361,1.91022,2.46149,1.06625,2.75345,2.23599,0.953269,0.57887,1.27736,5.75724,2.04458,117.952,447.543
1171,62.624,-1.32151,2.60159,31.1314,1.58319,0.75379,0.580995,3.26385,-0.731142,0.31054,0.5115,0.578316,0.57887,1.11132,4.79872,1.85769,119.779,448.132
1176,64.61,-1.55311,2.06555,30.5675,0.550175,0.0094618,0.596186,1.65912,0.167553,2.75345,1.37374,0.203364,0.437449,1.27736,5.75724,1.85769,123.793,448.742
1181,64.3182,-1.74623,1.83582,30.4547,0.580558,0.419602,1.09749,3.26385,0.167553,1.93915,2.23599,0.203364,0.296027,0.945271,5.75724,1.83692,118.817,449.363
1186,64.8667,-2.32626,1.49124,29.7775,1.08947,0.351245,0.763288,2.46149,1.06625,1.93915,1.37374,0.578316,0.437449,1.11132,4.79872,1.87845,110.593,449.949
1191,69.1259,-3.02933,1.48555,29.8848,0.80843,0.890504,1.19623,2.46149,1.96494,1.12484,1.37374,0.203364,0.296027,0.779224,5.75724,1.87845,107.104,450.48
1196,69.6282,-2.17725,0.605027,29.3202,0.466622,0.199342,0.0644978,2.46149,1.96494,1.93915,3.09823,0.203364,0.437449,1.11132,7.67427,1.69156,115.232,451.048
1201,66.657,-2.59728,0.0365433,28.5726,0.854004,0.898099,0.307555,3.26385,1.06625,1.93915,1.37374,0.578316,0.437449,1.27736,4.79872,1.69156,114.504,451.626
1206,63.6711,-3.44455,-0.303496,28.2013,0.162793,0.412007,1.56082,1.65912,1.06625,1.93915,1.37374,0.203364,0.57887,1.11132,4.79872,1.87845,102.232,452.172
1211,62.9217,-3.92218,-0.584258,28.3032,0.124814,0.130985,0.0417111,3.26385,0.167553,1.12484,1.37374,-0.171588,0.437449,1.11132,6.71575,1.69156,132.657,452.736
1216,64.0245,-4.4277,-1.08509,27.3229,-0.0954615,0.0854137,-0.17856,2.46149,0.167553,1.93915,0.5115,0.578316,0.437449,0.779224,5.75724,1.71232,91.6093,453.284
1221,59.2531,-5.74091,-1.42081,26.9191,0.109623,0.601887,0.0189245,1.65912,0.167553,0.31054,1.37374,0.578316,0.437449,0.945271,4.79872,1.69156,92.1011,453.752
1226,60.2172,-4.15542,-1.00798,27.1343,0.899578,0.237317,0.937985,2.46149,1.06625,0.31054,0.5115,-0.171588,0.437449,0.779224,5.75724,1.69156,97.9772,454.212
1231,76.3684,-4.35567,-1.05227,26.94,0.299516,0.298079,0.467062,3.26385,0.167553,1.93915,1.37374,-0.171588,0.437449,1.11132,5.75724,1.67079,95.2876,454.679
1236,55.6963,-4.18852,-0.886631,26.989,0.436239,0.336055,1.21143,1.65912,1.06625,1.12484,1.37374,0.578316,0.437449,0.779224,5.75724,1.69156,97.2108,455.173
1241,54.9412,-2.8355,-0.161151,27.3606,0.337495,1.23229,0.398702,2.46149,1.06625,1.93915,3.09823,0.578316,0.437449,0.945271,5.75724,1.71232,93.7617,455.668
1246,59.5549,-3.65023,-0.584258,27.172,0.162793,0.449983,0.413893,3.26385,1.06625,2.75345,2.23599,-0.171588,0.296027,0.945271,4.79872,1.50466,91.2561,456.153
1251,57.6013,-3.81717,-0.672708,26.9344,0.352686,0.214532,1.05192,3.26385,1.06625,1.12484,0.5115,0.953269,0.437449,1.27736,3.8402,1.54619,107.646,456.638
1256,58.067,-4.01148,-0.980903,26.6325,0.0260701,0.776576,0.360724,3.26385,1.06625,1.12484,-0.350743,0.578316,0.296027,0.779224,5.75724,1.69156,107.334,457.185
1261,53.0686,-4.99014,-1.33374,26.2494,0.155197,-0.020919,0.0341156,2.46149,1.96494,0.31054,1.37374,0.578316,0.437449,0.945271,4.79872,1.54619,103.216,457.709
1266,51.8565,-5.17337,-1.82427,25.6563,0.0032829,-0.0588949,-0.0190532,1.65912,1.06625,1.12484,1.37374,0.953269,0.720292,0.945271,4.79872,1.50466,95.1694,458.207
1271,61.2931,-4.63386,-2.2941,24.9327,0.337495,0.290484,0.93039,3.26385,0.167553,1.12484,1.37374,0.578316,0.57887,1.11132,4.79872,1.50466,102.971,458.692
1276,57.3439,-4.31677,-2.44317,24.4467,0.124814,-0.0664901,0.0644978,3.26385,0.167553,1.93915,1.37374,0.578316,0.437449,0.945271,6.71575,1.54619,101.566,459.197
1281,58.2184,-5.17337,-2.55933,24.1063,0.215963,0.617077,1.35574,3.26385,0.167553,1.12484,1.37374,0.578316,0.437449,0.945271,4.79872,1.54619,91.5292,459.682
1286,55.5684,-4.20009,-1.59248,24.787,0.352686,1.23229,1.46208,2.46149,1.06625,1.12484,2.23599,0.203364,0.437449,0.945271,5.75724,1.40083,93.9709,460.136
1291,56.6559,-4.44506,-1.48812,24.6624,0.497005,0.351245,0.0037334,1.65912,1.06625,1.93915,2.23599,0.203364,0.437449,0.779224,4.79872,1.3593,100.148,460.614
1296,54.9107,-4.76224,-1.64833,24.7324,-0.00431283,0.731005,0.99875,2.46149,0.167553,1.93915,2.23599,0.953269,0.296027,0.779224,3.8402,1.33853,96.9748,461.099
1301,55.9587,-4.47818,-1.01945,24.9705,0.740068,-0.0740853,0.277173,2.46149,1.06625,1.12484,2.23599,0.953269,0.437449,0.945271,5.75724,1.3593,104.83,461.615
1306,54.853,-4.60073,-1.68121,24.5867,0.276729,0.0930089,0.2316,0.856761,1.96494,1.12484,1.37374,0.203364,0.437449,1.11132,4.79872,1.40083,118.532,462.178
1311,59.1036,-4.60073,-1.17942,25.1538,0.117219,0.882909,0.436679,2.46149,0.167553,0.31054,3.09823,0.953269,0.296027,1.27736,4.79872,1.38007,111.932,462.744
1316,51.934,-4.95698,-1.64833,25.2994,0.0032829,1.38419,1.02154,2.46149,1.96494,1.12484,0.5115,0.203364,0.154605,1.11132,5.75724,1.33853,110.549,463.283
1321,53.8563,-4.68437,-1.45526,24.997,0.443835,0.100604,1.05192,2.46149,1.06625,1.93915,1.37374,0.578316,0.154605,1.11132,5.75724,1.3593,103.012,463.818
1326,57.2695,-4.99593,-2.11216,24.7702,0.443835,0.290484,0.277173,1.65912,0.167553,0.31054,2.23599,0.578316,0.296027,1.11132,4.79872,1.3593,103.987,464.347
1331,58.7771,-5.50846,-3.04743,24.1594,0.0260701,0.571506,0.16324,3.26385,0.167553,0.31054,3.09823,0.578316,0.437449,1.11132,4.79872,1.19317,128.054,464.863
1336,54.0377,-5.07385,-2.73157,23.6731,0.140006,0.0702233,2.63939,3.26385,0.167553,0.31054,1.37374,0.203364,0.437449,0.779224,4.79872,1.3593,102.872,465.4
1341,53.3245,-5.3077,-2.34431,23.8245,0.337495,0.267698,1.40891,2.46149,0.167553,1.12484,0.5115,0.203364,0.57887,0.779224,5.75724,1.40083,99.1568,465.9
1346,53.9507,-5.46366,-2.69282,23.5974,0.102027,0.13858,0.193622,2.46149,1.06625,1.93915,2.23599,0.203364,0.437449,0.945271,5.75724,1.38007,98.2408,466.403
1351,70.0349,-5.97089,-2.73157,23.4839,0.246346,0.579101,0.353128,2.46149,1.06625,-0.503765,1.37374,0.578316,0.296027,0.945271,3.8402,1.15164,97.7316,466.902
1356,57.7822,-5.78735,-3.01442,23.2833,0.18558,0.0474378,0.406297,2.46149,0.167553,1.12484,1.37374,0.953269,0.437449,0.945271,4.79872,1.21394,98.6507,467.391
1361,52.6242,-5.78735,-3.55766,22.9425,0.314708,0.0474378,0.269577,1.65912,1.06625,1.12484,0.5115,-0.171588,0.57887,1.11132,5.75724,1.19317,97.0938,467.906
1366,48.2074,-5.58647,-3.20258,23.0996,0.474218,1.01203,0.86203,3.26385,1.96494,1.93915,0.5115,0.578316,0.57887,1.11132,5.75724,1.21394,96.0781,468.399
1371,49.2777,-5.3193,-2.66561,23.4726,0.200772,-0.142442,0.0948799,2.46149,1.06625,1.93915,0.5115,0.203364,0.296027,1.11132,4.79872,1.19317,110.32,468.924
1376,49.6769,-5.70931,-3.01442,23.2455,0.177985,0.184151,0.117667,2.46149,1.06625,1.12484,2.23599,0.203364,0.437449,0.945271,3.8402,1.1724,87.9939,469.414
1381,48.0643,-6.22841,-3.91884,22.9313,0.0792401,-0.00572858,1.31776,2.46149,1.96494,1.93915,0.5115,-0.546541,0.296027,0.945271,3.8402,1.1724,83.5048,469.844
1386,48.9758,-6.49607,-3.60227,22.899,-0.0119085,-0.0361093,0.474657,2.46149,0.167553,1.12484,2.23599,-0.171588,0.57887,0.945271,5.75724,1.19317,84.7786,470.289
1391,54.2206,-6.33397,-3.51883,22.6774,0.0108786,0.487959,1.35574,2.46149,0.167553,0.31054,0.5115,-0.171588,0.154605,0.945271,4.79872,1.06857,87.7647,470.723
1396,45.6816,-5.6761,-3.25292,22.7854,-0.0650786,0.199342,0.307555,1.65912,0.167553,1.93915,1.37374,0.203364,0.296027,1.11132,5.75724,1.00628,92.9492,471.187
1401,44.3853,-5.8654,-3.75185,22.3364,-0.0346957,-0.157632,0.831648,2.46149,1.06625,1.12484,0.5115,0.203364,0.154605,0.779224,4.79872,1.00628,100.528,471.668
1406,43.7772,-5.40308,-3.33053,22.4065,0.34509,0.12339,0.65695,3.26385,2.86364,1.12484,0.5115,0.203364,0.296027,1.27736,6.71575,1.02704,98.2248,472.178
1411,46.0273,-5.64289,-3.72456,21.984,0.0108786,0.0778185,0.02652,2.46149,1.96494,1.12484,1.37374,0.203364,0.57887,0.779224,5.75724,1.04781,114.433,472.718
1416,46.3898,-5.87702,-3.91884,21.6049,0.314708,0.0550329,-0.057031,2.46149,1.06625,1.12484,2.23599,0.578316,0.296027,0.945271,5.75724,1.04781,103.619,473.269
1421,47.6003,-6.1503,-4.46328,21.6428,0.474218,0.0398426,1.04432,3.26385,0.167553,1.12484,-0.350743,0.953269,0.720292,1.11132,4.79872,1.04781,89.8066,473.784
1426,45.2979,-5.76575,-3.10929,21.9784,0.618537,0.852528,0.322746,2.46149,1.06625,0.31054,3.09823,0.578316,0.296027,0.779224,4.79872,1.00628,90.737,474.234
1431,51.5164,-5.72673,-3.26446,22.0163,0.0108786,0.0550329,0.148049,2.46149,1.06625,0.31054,0.5115,0.578316,0.437449,1.11132,5.75724,1.02704,91.2569,474.692
1436,49.6454,-6.03897,-3.80804,22.0542,-0.0574829,-0.142442,0.307555,1.65912,1.96494,1.93915,1.37374,0.578316,0.296027,1.11132,4.79872,0.881679,85.9985,475.132
1441,50.2107,-6.82624,-3.73612,22.1244,0.124814,0.0246522,0.0417111,1.65912,0.167553,1.12484,1.37374,-0.171588,0.437449,1.27736,3.8402,0.902445,80.097,475.553
1446,48.4916,-7.10584,-4.0528,21.4742,0.0640487,-0.180418,-0.1102,1.65912,1.96494,1.12484,0.5115,0.578316,0.296027,0.779224,4.79872,0.881679,83.8505,475.954
1451,49.5008,-6.70313,-3.96348,21.8647,0.626132,0.746195,0.467062,3.26385,1.06625,0.31054,1.37374,0.203364,0.437449,0.945271,5.75724,0.860913,92.8403,476.36
1456,47.5844,-7.13332,-4.15787,21.2959,0.0260701,-0.142442,0.52023,1.65912,1.96494,0.31054,0.5115,0.203364,0.296027,0.779224,4.79872,0.840147,78.0533,476.777
1461,45.0735,-7.69299,-4.20833,21.4742,-0.0498872,0.0550329,0.117667,1.65912,1.06625,0.31054,1.37374,0.578316,0.154605,0.613177,4.79872,0.881679,83.2655,477.165
1466,44.0769,-7.57551,-4.28612,20.8673,0.383069,0.495554,0.254386,1.65912,1.06625,1.12484,0.5115,-0.171588,0.154605,0.779224,3.8402,0.860913,92.293,477.616
1471,50.3764,-6.74222,-5.17006,20.613,0.0944316,0.0778185,0.292364,2.46149,1.06625,1.93915,1.37374,0.578316,0.437449,0.779224,4.79872,0.860913,92.7857,478.07
1476,41.4763,-7.0609,-5.09792,20.4555,0.0944316,0.146175,0.110071,2.46149,0.167553,0.31054,1.37374,0.578316,0.437449,0.779224,4.79872,0.860913,94.4467,478.548
1481,40.375,-6.51933,-5.06475,19.9943,0.367878,-0.0437045,0.550613,2.46149,1.06625,1.93915,1.37374,0.953269,0.437449,0.779224,3.8402,0.840147,0.0,478.58
1486,37.7707,-6.21841,-5.34919,19.9071,-0.0119085,0.0094618,0.345533,2.46149,1.96494,1.12484,1.37374,0.203364,0.154605,0.945271,5.75724,0.881679,0.0,478.58
1491,41.2761,-6.29072,-5.22643,19.9507,0.23875,0.206937,0.618973,3.26385,1.06625,0.31054,0.5115,0.203364,0.0131834,1.11132,4.79872,0.881679,0.0,478.58