File: 01_Data/Overstuffed_Chair/Furniture_Calorimeter/Overstuffed_Chair_R1.csv
Time (s),Convective HRR,TCPlume1,TCPlume2,TCPlume3,DPPlume1,DPPlume2,DPPlume3,HF1,HF2,HF3,HF4,HF5,HF6,RAD2,RAD1,Load Cell,Heat Release Rate,Total Heat Released
-120,0.0,-8.93431,-8.61001,10.2871,-0.0640849,-0.103588,-0.0847637,-1.45639,0.188802,-0.465317,1.4419,0.258371,0.0178263,0.779224,2.88169,28.6875,0.0,0.0
-115,0.0,-9.77041,-8.58211,10.5818,-0.0792764,-0.0352315,0.00638281,0.9507,0.188802,0.348988,-0.282584,-0.116582,0.30067,0.447131,1.92317,28.729,0.0,0.0
-110,0.0,-9.54601,-8.47578,10.7237,-0.0412978,0.0407204,-0.00121273,0.148336,0.188802,-1.27962,-0.282584,0.633323,0.159248,0.613177,4.79872,28.7083,0.0,0.0
-105,0.0,-10.6247,-8.25751,10.9364,-0.033702,0.0711012,-0.0164038,0.9507,-0.709894,-0.465317,1.4419,0.258371,0.0178263,0.447131,1.92317,28.7083,0.0,0.0
-100,0.26185,-9.36663,-8.57122,10.5925,-0.00331914,-0.0883978,-0.00880828,0.148336,0.188802,0.348988,0.579659,-0.116582,-0.123595,0.281084,2.88169,28.7083,0.0,0.0
-95,0.0,-9.27718,-8.59956,10.6413,0.0118723,0.0103397,-0.122741,-0.654027,-0.709894,0.348988,0.579659,-0.491534,-0.123595,0.613177,1.92317,28.729,0.0,0.0
-90,0.0,-9.23224,-8.47622,10.4557,0.019468,-0.0276363,0.0215739,0.148336,0.188802,-0.465317,-0.282584,-0.116582,0.0178263,0.447131,3.8402,28.7498,0.0,0.0
-85,0.17715,-9.1258,-8.40912,10.1771,-0.0185106,0.0103397,-0.00121273,-0.654027,-0.709894,0.348988,-0.282584,-0.116582,-0.123595,0.447131,1.92317,28.7083,0.0,0.0
-80,0.0,-8.77823,-8.61089,10.0951,-0.033702,-0.0808026,-0.0695726,0.148336,0.188802,0.348988,0.579659,0.258371,0.159248,0.447131,2.88169,28.7498,0.0,0.0
-75,0.0,-8.99146,-8.51022,10.0021,-0.0564892,-0.0656122,-0.0847637,-0.654027,0.188802,0.348988,0.579659,-0.116582,-0.265017,0.613177,1.92317,28.9159,0.0,0.0
-70,0.0,-9.32257,-8.99806,9.9091,-0.0716807,-0.00485071,-0.10755,-0.654027,-0.709894,-0.465317,-0.282584,0.633323,0.159248,0.613177,1.92317,28.7083,0.0,0.0
-65,0.0,-9.39544,-8.91389,10.2204,0.0574466,-0.058017,0.0975294,-0.654027,0.188802,1.16329,-0.282584,-0.491534,-0.123595,0.447131,2.88169,28.8744,0.0,0.0
-60,0.0,-9.53598,-8.93657,10.5806,0.0422552,-0.0200411,-0.046786,0.148336,-1.60859,1.16329,0.579659,0.258371,0.0178263,0.447131,2.88169,28.9159,0.0,0.0
-55,0.0,-10.2999,-9.14986,10.564,0.0954253,-0.0124459,-0.0391905,0.148336,0.188802,1.16329,-0.282584,-0.491534,0.0178263,0.613177,2.88169,28.8952,0.0,0.0
-50,0.0,-9.67088,-9.50332,10.22,0.0574466,0.0559108,0.0519561,-0.654027,0.188802,0.348988,0.579659,0.258371,0.0178263,0.613177,1.92317,28.729,0.0,0.0
-45,0.0,-10.1876,-9.54828,10.2145,0.0270638,0.0407204,0.0291694,-0.654027,-0.709894,-0.465317,-2.00707,-0.491534,-0.123595,0.779224,1.92317,28.7083,0.0,0.0
-40,0.0,-9.57004,-9.28467,10.471,-0.0185106,0.0103397,0.0595516,0.148336,-0.709894,0.348988,0.579659,-0.116582,-0.123595,0.613177,2.88169,28.729,0.0,0.0
-35,0.0,-9.615,-9.29035,10.5037,-0.0412978,-0.0124459,0.0443605,-0.654027,-1.60859,0.348988,-1.14483,0.258371,0.30067,0.281084,1.92317,28.729,0.0,0.0
-30,0.0,-9.50849,-9.10537,10.3398,0.0802338,0.063506,0.120316,-0.654027,0.188802,-0.465317,-0.282584,-0.116582,0.159248,0.447131,2.88169,28.9367,0.0,0.0
-25,0.0,-9.76127,-9.2009,10.1321,0.0498509,-0.0200411,-0.0391905,0.148336,0.188802,-0.465317,1.4419,0.633323,-0.123595,0.281084,2.88169,28.8744,0.0,0.0
-20,0.0,-10.0028,-9.28511,10.0119,-0.0261063,-0.0124459,-0.046786,-0.654027,0.188802,-0.465317,-1.14483,-0.116582,0.0178263,0.447131,2.88169,28.9159,0.0,0.0
-15,0.0,-9.86258,-9.38068,10.11,-0.0261063,-0.0200411,0.0595516,0.148336,-0.709894,0.348988,-1.14483,-0.116582,-0.123595,0.613177,1.92317,28.8952,0.0,0.0
-10,0.0,-10.1885,-9.11714,10.2137,-0.0261063,0.063506,0.105125,-0.654027,0.188802,-0.465317,-0.282584,-0.116582,-0.123595,0.447131,2.88169,28.9159,0.0,0.0
-5,0.0,-10.3908,-9.12282,9.94056,0.0346595,0.02553,0.00638281,-0.654027,-0.709894,1.16329,-2.00707,0.258371,-0.123595,0.613177,1.92317,28.8744,0.0,0.0
0,0.0,-10.3685,-9.02206,10.1534,0.00427658,-0.0124459,-0.0391905,0.9507,0.188802,1.16329,0.579659,0.258371,0.0178263,0.613177,3.8402,28.8952,0.0,0.0
5,0.0,-9.38585,-9.454,9.84754,0.0574466,-0.0656122,-0.00880828,0.9507,1.0875,-0.465317,0.579659,-0.491534,-0.123595,0.115037,2.88169,28.8952,0.0,0.0
10,0.0,-8.814,-9.27464,9.71627,-0.0564892,-0.0883978,-0.0391905,-0.654027,1.0875,0.348988,-0.282584,-0.116582,0.0178263,0.447131,3.8402,28.9367,0.0,0.0
15,0.0,-9.54341,-9.45444,9.65595,0.0346595,-0.111183,0.0519561,0.9507,-0.709894,0.348988,-1.14483,-0.116582,0.30067,0.447131,1.92317,28.8952,0.0,0.0
20,0.0,-9.77917,-9.49372,9.77066,-0.0868721,-0.0883978,0.0139784,0.9507,1.0875,-0.465317,-1.14483,0.258371,0.159248,0.447131,1.92317,28.9159,0.0,0.0
25,0.0,-10.0321,-9.3929,9.98349,0.0954253,0.0559108,-0.00121273,0.148336,-0.709894,0.348988,-0.282584,-0.116582,0.0178263,0.447131,2.88169,28.8744,0.0,0.0
30,0.0,-9.89185,-9.48848,9.92869,0.0422552,-0.058017,0.00638281,-0.654027,1.0875,1.16329,2.30414,-0.116582,0.159248,0.447131,3.8402,28.8952,0.0,0.0
35,0.0,-9.89185,-9.4492,10.0434,-0.00331914,-0.00485071,0.0671472,0.9507,0.188802,0.348988,-0.282584,-0.491534,0.0178263,0.779224,2.88169,28.8952,0.0,0.0
40,0.0,-9.79664,-9.55046,10.0978,-0.0261063,-0.0124459,0.0671472,0.148336,0.188802,1.16329,-0.282584,-0.116582,0.0178263,0.613177,1.92317,28.8744,0.0,0.0
45,0.0,-9.72372,-9.59543,10.0922,0.0346595,0.063506,-0.00880828,0.148336,-0.709894,-0.465317,-0.282584,-0.491534,0.159248,0.447131,3.8402,28.8536,0.0,0.0
50,0.0,-9.79664,-9.74693,10.0595,0.0346595,-0.0352315,-0.0164038,-0.654027,-0.709894,-0.465317,1.4419,-0.116582,0.159248,0.613177,3.8402,28.8744,0.0,0.0
55,0.0,-10.1059,-9.46665,10.0646,-0.0412978,0.0407204,-0.0239994,0.9507,-0.709894,-1.27962,1.4419,-0.116582,0.30067,0.779224,1.92317,28.8952,0.0,0.0
60,0.0,-9.92067,-9.12455,10.2065,0.0118723,0.101482,-0.0771682,-0.654027,-0.709894,-0.465317,-2.00707,0.258371,-0.123595,0.779224,4.79872,28.8744,0.0,0.0
65,0.0,-9.46048,-8.78265,10.463,0.0802338,0.0786964,0.234249,1.75306,1.98619,-1.27962,0.579659,0.633323,0.0178263,0.779224,1.92317,28.9367,0.0,0.0
70,0.0,-8.24965,-8.23922,11.0308,0.0118723,0.61036,-0.0543816,0.9507,0.188802,0.348988,-0.282584,-0.116582,0.0178263,0.613177,1.92317,28.8536,0.0,0.0
75,0.0,-8.57468,-7.74113,11.7838,0.505594,-0.0504218,-0.046786,0.148336,1.0875,0.348988,-1.14483,0.258371,0.0178263,0.613177,2.88169,28.9159,0.0,0.0
80,0.0,-8.9278,-7.81947,11.8602,0.0802338,0.101482,0.0671472,0.9507,0.188802,-1.27962,0.579659,0.258371,0.30067,0.945271,2.88169,28.8952,3.0026,0.0022038
85,0.0,-9.06823,-8.15559,11.4561,-0.0185106,-0.0276363,0.00638281,2.55543,-0.709894,1.16329,0.579659,-0.116582,0.30067,0.779224,2.88169,28.9367,13.6727,0.0431553
90,0.0,-8.41258,-8.59825,11.3687,0.0802338,0.0862916,-0.0543816,0.9507,0.188802,0.348988,-0.282584,0.258371,0.0178263,0.779224,3.8402,28.9159,37.5357,0.1703322
95,0.0,-7.836,-7.23825,12.7706,1.05249,0.838215,0.241845,0.9507,1.0875,0.348988,-0.282584,-0.116582,0.0178263,0.945271,4.79872,28.8952,31.8329,0.34598
100,0.0,-6.78496,-7.12652,13.2994,0.40685,0.0483156,0.462116,0.9507,0.188802,1.16329,-0.282584,0.258371,0.159248,0.447131,3.8402,28.8952,72.9754,0.593338
105,0.0,-6.17667,-5.7368,13.9315,0.0726381,0.306552,0.0443605,0.9507,0.188802,0.348988,0.579659,-0.116582,0.30067,0.447131,4.79872,28.8536,108.437,1.05522
110,3.24517,-5.29051,-4.50104,14.9881,0.0878295,0.238195,0.0595516,3.35779,1.0875,-0.465317,2.30414,0.633323,0.30067,0.945271,4.79872,28.8952,144.189,1.68143
115,7.57764,-3.24604,-4.09002,14.2854,0.482807,0.116672,0.279822,2.55543,1.98619,1.9776,0.579659,0.258371,0.583513,0.945271,6.71575,28.9159,187.821,2.4988
120,19.1729,-0.705727,-1.85264,15.1893,0.56636,0.147053,-0.0923593,3.35779,1.98619,0.348988,0.579659,0.633323,0.724935,1.27736,5.75724,28.9159,242.507,3.58875
125,38.3861,4.83766,0.828148,16.5116,0.384063,0.0559108,0.211463,6.56724,1.98619,1.9776,1.4419,1.00828,0.724935,1.44341,9.5913,28.729,316.447,5.00579
130,57.9272,9.04091,10.9243,25.6478,1.31834,4.21807,0.986208,7.36961,3.78358,3.60621,0.579659,1.38323,1.00778,1.44341,9.5913,28.5629,452.181,6.9559
135,82.3363,18.2963,27.2813,40.9409,0.77904,4.1801,4.32825,7.36961,3.78358,3.60621,2.30414,1.75818,1.1492,1.60946,8.63279,28.5421,574.226,9.61828
140,104.439,29.6215,42.6481,60.7788,1.64495,3.35222,2.43696,11.3814,2.88489,3.60621,4.02863,2.50808,1.71489,1.94155,10.5498,28.3968,603.936,12.5461
145,131.779,39.9563,50.0635,67.9047,2.89065,3.42817,1.685,12.9862,5.58097,5.23481,2.30414,3.25799,2.13915,2.60574,15.3424,28.3968,686.417,15.8027
150,203.014,42.5833,56.6897,70.7138,3.77176,5.54723,-0.191101,13.7885,4.68228,4.42051,3.16639,2.88304,1.85631,2.27365,14.3839,28.2514,741.345,19.2914
155,272.69,68.4256,86.0777,99.6542,2.99699,1.52178,0.72796,16.1956,6.47967,6.04912,3.16639,3.63294,2.84626,2.93783,16.3009,27.8984,853.149,23.2358
160,289.428,74.6851,94.0428,104.299,3.3388,7.46122,2.14833,15.3932,4.68228,5.23481,4.02863,4.38285,2.422,2.60574,15.3424,27.9399,932.97,27.7401
165,361.678,85.1576,98.7794,116.716,3.45274,3.27627,4.98147,18.6027,6.47967,7.67773,3.16639,4.00789,2.70484,3.10388,18.218,27.7738,1037.36,32.5772
170,379.651,89.4435,111.978,130.88,5.33647,5.36495,9.85781,21.8122,9.17576,8.49203,4.02863,5.5077,3.55337,3.60202,22.052,27.4208,1099.71,37.8761
175,433.429,102.594,120.69,141.953,8.12411,1.39266,1.29003,25.0216,10.0745,8.49203,5.75312,5.88266,3.97764,3.93411,23.9691,27.2546,1207.83,43.5491
180,479.413,115.878,124.511,149.379,3.01218,13.7121,5.93091,24.2192,9.17576,9.30634,5.75312,5.88266,3.69479,4.43225,23.9691,26.9016,1209.3,49.5146
185,527.514,133.647,162.43,187.707,5.56435,4.0206,3.75099,28.2311,10.9731,10.1206,6.61536,6.63256,4.11906,4.5983,25.8861,26.5901,1368.16,56.5257
190,553.221,136.636,178.573,227.666,9.80276,9.71699,10.2604,37.0571,11.8718,13.3779,8.33984,8.13237,5.25043,5.59458,33.5542,26.1125,1327.47,63.2534
195,614.506,165.199,223.413,292.055,15.5983,6.36751,5.83217,36.2547,14.5679,12.5636,8.33984,8.13237,5.39185,5.09644,37.3883,25.7595,1499.24,70.3154
200,631.016,173.841,223.099,294.774,3.12612,2.85094,8.6653,37.8594,12.7705,13.3779,9.20209,8.13237,5.39185,5.59458,34.5127,25.6141,1653.53,78.3435
205,744.323,189.596,251.902,319.047,8.23804,16.2944,3.28766,49.0925,16.3653,15.8208,10.9266,10.0071,6.24038,6.09272,44.0979,24.9288,1713.24,86.8491
210,727.625,220.209,308.303,389.834,8.45072,11.1753,7.11581,50.6972,19.0614,19.8923,10.0643,10.757,7.08891,7.089,45.0564,24.5966,1643.31,95.5108
215,817.241,238.898,331.513,437.623,8.38996,5.81306,8.55897,56.3138,20.8588,21.5209,15.2378,11.8819,7.79602,7.91923,50.8075,24.0567,1726.47,104.036
220,911.912,258.639,354.217,485.681,14.8539,7.60553,6.32588,55.5114,19.9601,21.5209,15.2378,12.6318,7.93745,8.25133,50.8075,23.579,1707.04,112.668
225,941.003,277.277,405.315,547.122,10.2965,11.5474,7.53357,60.3256,21.7575,22.3352,15.2378,13.3817,8.78598,8.74947,52.7246,23.2468,1866.03,121.681
230,913.202,307.654,441.118,608.924,9.40778,12.9374,10.6098,63.5351,22.6562,23.1495,16.9623,13.7567,8.9274,8.74947,57.5171,22.7069,1569.01,129.821
235,976.344,286.279,428.851,636.473,14.8843,18.6565,11.7491,66.7445,21.7575,23.9638,17.8245,14.1316,9.35166,9.24761,62.3097,22.2708,1454.67,137.282
240,975.445,275.124,434.311,641.299,10.9877,23.3276,10.0781,67.5469,22.6562,23.9638,19.549,14.5066,9.35166,9.24761,64.2268,21.7724,1334.13,144.114
245,1115.59,269.804,416.888,633.039,12.522,11.9348,11.6579,65.9421,21.7575,23.1495,19.549,13.3817,8.9274,8.74947,59.4342,21.3155,1282.46,150.55
250,958.076,262.122,384.98,610.802,8.17728,7.30172,10.7465,66.7445,21.7575,24.7781,20.4112,12.6318,8.64455,8.25133,61.3512,20.7341,1235.7,156.859
255,905.272,238.439,347.117,571.879,8.57985,8.09922,12.9568,57.9185,18.1627,19.8923,16.9623,11.5069,7.37176,7.089,54.6416,20.4226,1156.15,163.034
260,842.015,225.241,333.619,556.977,12.6663,21.1857,14.2328,56.3138,16.3653,19.8923,16.9623,10.3821,6.66465,6.75691,51.766,20.0488,1148.84,168.867
265,806.683,201.61,298.902,526.307,12.3321,4.06617,4.72322,57.1161,16.3653,18.2637,16.9623,10.0071,6.94749,6.92295,51.766,19.4258,1046.26,174.577
270,785.792,199.807,289.638,503.628,9.28625,20.8819,8.69569,51.4996,14.5679,16.6351,15.2378,8.88228,6.24038,5.92667,47.932,19.1351,1064.53,179.71
275,737.939,193.467,271.814,476.139,6.172,7.05108,8.79443,46.6854,12.7705,16.6351,14.3755,8.50732,5.81612,5.76063,42.1809,18.7613,969.111,184.897
280,743.747,177.186,256.582,450.892,2.82989,19.1806,8.14881,44.2783,12.7705,15.8208,13.5133,7.75742,5.25043,5.09644,39.3053,18.429,974.504,189.774
285,692.397,171.344,243.068,432.85,7.73672,15.4666,10.6326,39.4641,10.9731,13.3779,12.6511,7.00751,4.68474,4.93039,36.4298,18.076,889.943,194.418
290,713.703,170.989,237.406,416.747,4.49335,7.83338,7.40444,40.2665,12.7705,13.3779,11.7888,6.63256,4.54332,4.26621,34.5127,17.7645,837.14,198.985
295,662.545,169.682,233.922,398.578,6.34671,7.46882,6.94112,37.8594,10.9731,11.7492,10.9266,6.25761,4.4019,4.26621,31.6372,17.453,900.639,203.322
300,676.956,155.671,213.825,382.1,5.86058,6.79284,9.24257,37.0571,10.9731,11.7492,10.9266,7.00751,4.4019,4.43225,31.6372,17.1,804.368,207.666
305,626.284,145.319,206.587,369.721,12.4309,7.92453,5.99167,36.2547,10.9731,12.5636,10.0643,6.25761,4.26048,4.43225,31.6372,16.7678,905.729,212.304
310,587.404,137.941,196.885,352.688,5.54915,8.19036,10.5566,34.65,10.9731,11.7492,10.9266,5.88266,4.11906,3.93411,31.6372,16.6224,770.629,216.546
315,624.104,139.513,197.752,345.246,5.79222,6.17004,6.05244,34.65,10.0745,10.9349,10.0643,5.5077,3.97764,3.93411,29.7202,16.2694,784.908,220.522
320,554.434,137.671,195.238,337.265,6.19479,14.1526,7.42723,34.65,8.27706,11.7492,10.9266,5.88266,4.11906,3.76807,30.6787,16.1655,763.341,224.369
325,637.49,142.592,194.568,331.73,4.15154,13.2791,8.01209,34.65,9.17576,11.7492,10.9266,5.5077,4.11906,4.10016,30.6787,15.8333,755.195,228.075
330,542.481,142.969,200.138,327.564,9.61287,4.78771,9.79704,33.0452,9.17576,11.7492,10.0643,6.25761,3.97764,3.76807,29.7202,15.4387,713.722,231.894
335,551.644,128.35,188.328,320.378,8.60264,7.13463,7.94373,33.8476,10.9731,10.9349,10.0643,5.88266,3.83621,3.93411,29.7202,15.1688,656.231,235.321
340,525.465,130.821,181.564,311.797,5.70866,12.8006,6.40943,32.2429,9.17576,10.1206,10.0643,5.88266,3.69479,3.76807,28.7616,14.9819,617.674,238.415
345,522.052,131.749,185.982,308.777,11.4738,6.45106,9.81983,33.0452,10.0745,10.1206,8.33984,5.5077,3.69479,4.10016,28.7616,14.5873,620.818,241.631
350,492.699,125.926,173.832,301.195,6.02769,6.57258,6.1208,28.2311,7.37836,8.49203,8.33984,4.38285,3.12911,3.43597,25.8861,14.4627,584.59,244.732
355,483.808,131.845,176.383,296.845,4.97188,5.11431,3.27247,26.6263,7.37836,9.30634,6.61536,4.38285,3.12911,3.26993,23.9691,14.1097,586.443,247.752
360,466.91,116.39,159.567,284.466,5.13899,6.8688,7.32089,26.6263,5.58097,7.67773,8.33984,4.00789,2.70484,2.93783,23.9691,13.9436,536.866,250.566
365,463.409,108.177,150.411,273.114,8.42034,5.4409,8.6729,25.0216,7.37836,6.04912,7.4776,3.63294,2.84626,2.93783,22.052,13.7774,569.683,253.266
370,439.267,111.701,157.737,272.11,6.58217,5.87383,6.94112,25.0216,7.37836,7.67773,8.33984,4.00789,2.84626,2.93783,22.052,13.6113,497.804,255.886
375,445.471,105.643,148.008,261.399,6.29354,6.16244,1.27484,23.4169,6.47967,7.67773,7.4776,4.00789,2.56342,2.60574,21.0935,13.3206,502.182,258.44
380,416.198,101.904,141.311,252.938,2.84508,7.47641,7.03986,21.0098,4.68228,6.86342,6.61536,3.25799,2.70484,2.77179,18.218,13.279,500.227,261.018
385,441.959,96.9503,133.276,245.681,2.70835,10.1575,10.0553,19.4051,6.47967,6.04912,5.75312,2.88304,2.422,1.94155,18.218,13.2167,514.491,263.62
390,385.019,90.531,125.084,235.943,4.47816,2.43321,8.74126,18.6027,3.78358,6.04912,5.75312,2.50808,1.99773,2.27365,15.3424,12.9676,469.908,266.11
395,381.876,89.4705,119.71,230.128,7.21262,5.95737,6.24233,17.8003,4.68228,4.42051,4.89087,2.50808,2.13915,2.27365,15.3424,12.7807,505.21,268.563
400,370.722,90.9247,123.016,227.007,7.62279,8.41062,8.76405,17.8003,4.68228,5.23481,4.02863,2.13313,1.99773,2.1076,14.3839,12.6353,455.285,270.921
405,400.281,92.2799,125.217,224.083,7.0759,6.74727,7.67788,15.3932,4.68228,6.04912,5.75312,2.13313,1.85631,1.94155,13.4254,12.4692,429.54,273.107
410,357.572,86.9042,117.255,216.935,2.4425,6.48904,7.44242,16.1956,4.68228,4.42051,4.02863,2.50808,1.85631,2.1076,14.3839,12.2823,474.841,275.332
415,382.394,81.6095,111.629,211.447,7.76711,2.4408,5.87014,16.1956,5.58097,5.23481,4.02863,2.50808,1.85631,2.1076,14.3839,12.1992,436.058,277.573
420,349.413,78.8959,109.922,205.847,5.81501,6.84601,6.22713,16.998,4.68228,5.23481,4.02863,2.13313,2.13915,2.27365,15.3424,11.95,405.148,279.657
425,322.127,74.7113,101.516,196.725,3.54388,10.4689,3.99404,13.7885,3.78358,4.42051,4.02863,2.50808,1.71489,1.94155,13.4254,11.7839,432.095,281.938
430,343.695,75.3605,100.324,191.101,5.18456,10.9474,4.29027,12.9862,3.78358,5.23481,4.89087,2.50808,1.71489,2.1076,13.4254,11.7839,386.337,283.922
435,320.766,79.6761,108.301,193.267,2.16906,5.50166,7.45761,14.5909,3.78358,4.42051,4.02863,2.13313,1.99773,1.7755,12.4669,11.6178,437.904,285.917
440,303.663,74.7162,102.296,188.024,1.81965,3.8611,4.18393,14.5909,3.78358,4.42051,3.16639,2.13313,1.71489,1.94155,11.5083,11.4516,448.588,288.22
445,322.157,69.6931,94.479,181.34,3.41476,2.31928,7.26013,13.7885,2.88489,4.42051,4.02863,2.50808,1.85631,2.27365,12.4669,11.3063,450.796,290.453
450,282.946,62.0479,85.0598,174.8,5.93654,7.37767,5.20174,13.7885,3.78358,4.42051,4.89087,1.75818,1.85631,1.7755,12.4669,11.327,433.672,292.62
455,317.86,60.8665,84.0637,170.064,5.23013,6.26118,1.44194,12.9862,3.78358,4.42051,4.02863,2.50808,1.85631,1.60946,11.5083,10.974,405.768,294.701
460,315.907,61.2549,83.4974,166.883,5.04784,7.60553,8.6653,13.7885,2.88489,5.23481,3.16639,2.50808,1.57347,1.94155,11.5083,10.974,419.013,296.705
465,323.592,60.1467,79.6775,163.144,6.60496,4.39276,5.96129,12.1838,3.78358,2.7919,4.02863,1.75818,1.85631,2.1076,11.5083,10.7871,460.027,298.956
470,314.17,66.8628,88.4428,165.69,5.40484,9.03342,5.36884,13.7885,4.68228,4.42051,4.02863,2.13313,1.71489,2.1076,13.4254,10.6417,428.75,301.091
475,292.56,64.8336,86.5592,163.356,3.81733,4.08136,4.4118,12.9862,2.88489,4.42051,3.16639,1.75818,1.71489,2.27365,12.4669,10.4964,419.787,303.18
480,295.528,61.0025,80.8245,156.687,2.19944,2.4484,3.09777,13.7885,4.68228,5.23481,2.30414,2.50808,1.71489,1.94155,13.4254,10.3095,381.913,305.226
485,328.004,59.8783,79.8499,154.69,3.3312,10.0664,7.29811,12.1838,3.78358,3.60621,3.16639,2.50808,1.71489,1.94155,11.5083,10.3095,403.946,307.186
490,313.46,59.2321,79.8658,152.732,2.58682,8.19036,7.50319,13.7885,1.98619,5.23481,2.30414,2.50808,1.71489,1.94155,11.5083,10.2264,399.315,309.18
495,307.705,60.0201,79.9913,150.017,1.69812,5.39533,3.15853,12.1838,4.68228,3.60621,2.30414,2.13313,1.57347,1.94155,11.5083,9.95647,393.779,311.163
500,280.373,61.4485,83.177,149.784,7.26579,4.89405,5.81698,12.1838,3.78358,3.60621,4.02863,1.75818,1.43204,1.7755,10.5498,9.83187,376.795,313.095
505,294.089,59.962,80.8869,146.737,5.86058,5.47888,3.85732,12.1838,2.88489,5.23481,4.89087,1.75818,1.71489,1.7755,11.5083,9.64498,351.589,314.949
510,278.175,57.907,77.2255,142.47,0.938551,4.8105,6.20435,11.3814,1.98619,2.7919,4.02863,1.75818,1.71489,1.60946,9.5913,9.62421,344.265,316.666
515,281.866,56.1603,77.6129,141.698,2.48048,7.06627,7.63991,10.5791,4.68228,4.42051,3.16639,2.13313,1.43204,1.60946,9.5913,9.49961,372.998,318.457
520,269.805,58.5482,78.0842,140.446,2.16146,4.1725,2.71799,10.5791,2.88489,3.60621,4.02863,2.13313,1.71489,1.7755,12.4669,9.27119,347.911,320.303
525,248.412,55.4811,72.7211,135.385,1.97157,4.74214,2.81673,10.5791,4.68228,3.60621,2.30414,1.38323,1.1492,1.60946,9.5913,9.33348,367.934,322.082
530,246.853,50.5672,67.3613,130.792,2.03993,6.41308,5.58911,11.3814,3.78358,3.60621,4.89087,1.75818,1.1492,1.44341,11.5083,9.16736,335.086,323.834
535,258.173,49.2782,69.2375,131.812,5.70107,2.22054,4.17634,11.3814,2.88489,4.42051,3.16639,1.38323,1.57347,1.60946,9.5913,9.12582,334.166,325.516
540,247.319,51.1108,69.6617,131.307,3.5135,3.36741,7.32089,8.97434,4.68228,3.60621,4.02863,1.38323,1.1492,1.7755,10.5498,8.98046,335.533,327.203
545,256.94,49.7694,69.3577,129.644,3.55148,3.76236,5.47518,8.97434,1.0875,1.9776,4.02863,1.75818,1.29062,1.44341,9.5913,8.7728,355.808,329.089
550,230.702,48.6434,66.8839,126.479,6.69611,3.10158,4.9207,9.7767,3.78358,2.7919,2.30414,1.75818,1.43204,1.7755,9.5913,8.79357,321.504,330.854
555,224.173,46.7174,64.6816,123.41,5.60992,4.56745,0.416542,8.97434,2.88489,3.60621,3.16639,1.75818,1.1492,1.60946,9.5913,8.6482,329.795,332.488
560,238.186,45.0802,61.9582,120.267,4.67565,4.14212,3.32564,8.97434,3.78358,3.60621,4.02863,1.75818,1.43204,1.7755,9.5913,8.46131,341.521,334.124
565,244.938,46.3731,61.7324,117.315,4.25788,3.32944,4.19153,9.7767,2.88489,2.7919,3.16639,1.75818,1.29062,1.60946,9.5913,8.33671,322.512,335.767
570,227.298,45.133,61.937,116.517,5.86058,4.11174,1.98122,8.97434,2.88489,3.60621,3.16639,1.75818,1.1492,1.60946,8.63279,8.29518,314.062,337.35
575,241.058,45.3396,60.2669,115.57,3.8705,5.11431,3.16613,10.5791,2.88489,3.60621,3.16639,2.13313,1.29062,1.44341,8.63279,8.17058,301.882,338.855
580,247.956,48.4049,62.9392,115.448,3.67301,2.50916,4.47256,8.17197,2.88489,4.42051,3.16639,1.38323,1.43204,1.60946,8.63279,8.10828,325.99,340.44
585,238.482,45.4031,59.5575,113.476,1.62976,2.82815,2.61925,9.7767,3.78358,3.60621,4.02863,1.75818,1.43204,1.44341,9.5913,8.00445,286.663,342.124
590,232.257,45.8321,61.4168,112.94,2.73874,5.15228,3.80416,10.5791,4.68228,3.60621,3.16639,1.38323,1.29062,1.60946,9.5913,7.85909,288.204,343.548
595,217.821,46.563,61.2959,111.963,4.60729,2.02306,4.51814,8.97434,1.98619,3.60621,4.02863,1.38323,1.1492,1.44341,10.5498,7.81756,280.166,345.005
600,230.542,47.3783,62.7658,112.26,7.32655,5.49407,3.78137,8.97434,4.68228,2.7919,3.16639,1.38323,1.1492,1.44341,9.5913,7.6722,276.473,346.455
605,205.4,48.7429,65.1108,112.626,3.42995,6.94475,5.23212,10.5791,1.98619,3.60621,4.02863,1.38323,1.29062,1.27736,9.5913,6.3224,316.159,347.9
610,215.8,47.9178,62.8601,112.096,4.46297,5.56242,6.70565,9.7767,2.88489,4.42051,6.61536,2.13313,1.43204,1.7755,9.5913,7.4853,326.842,349.501
615,202.268,45.535,61.7472,110.377,1.18161,5.18266,2.26226,9.7767,3.78358,3.60621,5.75312,2.50808,1.85631,1.60946,10.5498,7.29841,338.81,351.172
620,199.446,44.1191,56.6649,107.146,3.78695,2.79777,5.57392,8.17197,4.68228,2.7919,4.02863,2.13313,1.71489,2.1076,10.5498,7.29841,330.337,352.89
625,216.737,39.4462,50.6298,103.202,2.4425,6.67892,1.83691,9.7767,3.78358,5.23481,4.02863,1.75818,1.57347,1.7755,8.63279,7.15304,375.935,354.818
630,217.988,38.4818,54.1427,105.649,4.12116,8.64607,4.42699,8.97434,2.88489,3.60621,4.02863,1.38323,1.43204,1.60946,8.63279,6.82079,360.208,356.666
635,228.375,45.2007,63.4,111.676,4.65286,6.67132,1.55587,10.5791,3.78358,5.23481,4.02863,2.50808,1.57347,1.7755,9.5913,7.15304,362.17,358.491
640,219.296,49.7094,65.776,112.817,4.15914,4.02819,6.21194,10.5791,2.88489,3.60621,5.75312,1.75818,0.30067,0.613177,8.63279,6.82079,352.292,360.246
645,249.257,47.9647,68.0458,117.649,4.64526,10.1499,6.20435,12.1838,2.88489,3.60621,6.61536,2.13313,1.43204,1.7755,11.5083,7.00768,346.053,362.04
650,248.295,53.4772,70.5818,118.81,3.82493,3.49653,4.78398,12.1838,4.68228,5.23481,4.89087,2.50808,1.57347,1.94155,10.5498,6.80002,348.836,363.774
655,255.98,49.4661,67.5162,114.58,6.21758,5.54723,4.07,11.3814,3.78358,4.42051,5.75312,2.50808,1.99773,2.1076,10.5498,6.67542,321.259,365.459
660,245.851,51.6732,68.056,114.904,3.55908,4.73455,6.81959,10.5791,3.78358,5.23481,6.61536,2.88304,1.71489,1.7755,10.5498,6.65466,306.025,367.01
665,231.116,51.4779,66.6878,111.585,5.51118,3.48894,1.98122,9.7767,2.88489,4.42051,6.61536,2.13313,1.99773,2.1076,10.5498,6.48853,330.652,368.751
670,237.295,50.913,62.1608,107.791,2.95901,4.03579,0.933039,11.3814,4.68228,5.23481,4.89087,3.25799,1.99773,2.27365,10.5498,6.34317,264.909,370.218
675,222.364,50.7228,64.4695,111.235,3.74137,3.34463,3.79656,11.3814,4.68228,5.23481,5.75312,1.75818,1.85631,1.94155,12.4669,6.15627,293.58,371.604
680,215.958,49.011,62.5858,110.073,0.695487,1.36228,1.32041,10.5791,2.88489,3.60621,5.75312,2.13313,1.99773,1.7755,10.5498,6.1355,315.378,373.173
685,239.934,45.5284,60.6011,107.515,3.39197,1.51419,3.49274,10.5791,4.68228,4.42051,4.89087,1.38323,1.71489,1.7755,10.5498,6.1355,307.598,374.768
690,192.432,43.4649,58.0416,105.975,0.444829,0.549598,2.5357,11.3814,3.78358,3.60621,5.75312,2.13313,1.71489,1.94155,10.5498,5.82401,293.091,376.257
695,205.95,38.4751,53.0293,104.754,2.33616,1.56735,0.158294,10.5791,4.68228,4.42051,4.89087,2.13313,1.57347,2.27365,10.5498,5.65788,285.854,377.669
700,209.962,37.7978,55.1632,106.118,1.71331,6.61815,6.14358,8.97434,4.68228,4.42051,4.02863,1.75818,1.43204,1.7755,9.5913,5.80325,277.622,379.082
705,206.074,39.0559,56.0739,106.922,1.94119,5.69154,2.73318,10.5791,2.88489,3.60621,4.89087,1.75818,1.57347,1.94155,9.5913,5.65788,337.2,380.706
710,198.282,39.7163,57.7942,105.985,5.73905,1.84838,2.37619,10.5791,4.68228,4.42051,5.75312,1.75818,1.57347,1.94155,9.5913,5.65788,278.907,382.234
715,197.206,37.9949,49.7831,100.324,0.817019,4.21048,0.79632,10.5791,3.78358,2.7919,5.75312,1.75818,1.43204,1.7755,10.5498,5.47099,256.564,383.55
720,189.26,33.6072,43.5078,96.8091,3.84771,3.73958,4.49535,8.97434,3.78358,4.42051,4.02863,1.75818,1.29062,1.44341,8.63279,5.30486,239.043,384.813
725,226.13,35.6187,46.2438,96.9828,1.53861,1.97749,2.1863,10.5791,3.78358,4.42051,4.02863,1.75818,1.29062,1.7755,7.67427,5.36716,216.545,385.977
730,200.734,35.8004,46.5351,95.0983,4.23509,4.64341,1.38877,8.97434,4.68228,3.60621,4.89087,1.75818,1.29062,1.44341,8.63279,5.13873,203.955,387.025
735,186.664,35.6719,47.0749,93.0207,1.13604,6.13966,2.5281,8.97434,2.88489,5.23481,4.02863,1.75818,1.29062,1.44341,8.63279,4.9726,218.643,388.092
740,177.548,35.0677,47.366,93.7883,2.39693,7.52198,5.90053,7.36961,2.88489,5.23481,3.16639,1.38323,1.43204,1.60946,8.63279,5.1595,209.108,389.19
745,161.378,33.114,44.6163,90.0675,0.589147,2.1294,0.492498,8.17197,1.98619,3.60621,4.02863,1.75818,1.1492,1.7755,8.63279,5.01413,215.17,390.333
750,151.866,32.015,41.4086,86.7498,1.11325,0.693907,3.91049,6.56724,1.98619,2.7919,3.16639,1.38323,1.00778,1.44341,7.67427,4.80647,243.302,391.456
755,157.064,30.6893,40.4668,86.0782,2.69316,3.36741,2.78635,6.56724,1.98619,2.7919,4.02863,1.75818,1.1492,1.27736,8.63279,4.82724,246.69,392.66
760,147.326,27.9631,36.4948,83.2356,1.11325,0.466051,2.37619,7.36961,2.88489,2.7919,4.89087,1.38323,1.1492,1.27736,7.67427,4.64034,229.732,393.882
765,151.185,26.1959,34.8914,79.9756,1.12844,1.43064,2.50532,7.36961,2.88489,2.7919,4.02863,1.75818,1.29062,1.44341,7.67427,4.66111,217.65,395.022
770,167.702,25.9853,35.1693,79.1842,2.20704,1.62812,2.5281,8.17197,2.88489,3.60621,3.16639,2.13313,1.1492,1.27736,8.63279,4.49498,231.632,396.097
775,167.916,25.7587,36.3665,78.9275,3.21727,2.63068,0.241845,6.56724,1.98619,3.60621,3.16639,0.633323,1.29062,1.60946,7.67427,4.49498,218.942,397.184
780,156.919,27.5213,34.2597,75.7997,1.18161,3.04842,0.6596,7.36961,2.88489,4.42051,3.16639,2.13313,0.866357,1.44341,8.63279,4.47422,196.448,398.198
785,158.771,26.411,34.6555,75.9305,1.53861,1.20278,1.6774,6.56724,1.98619,3.60621,3.16639,1.75818,1.1492,1.44341,7.67427,4.47422,199.003,399.244
790,164.908,23.7226,32.7009,73.3216,0.801828,3.48894,0.241845,6.56724,1.98619,2.7919,3.16639,1.38323,1.1492,1.44341,7.67427,4.47422,183.636,400.199
795,158.578,23.7117,30.211,70.5236,2.22982,1.68888,0.568453,6.56724,3.78358,2.7919,2.30414,1.38323,1.29062,1.44341,5.75724,4.30809,190.222,401.129
800,149.245,22.8357,28.2858,68.5372,3.13371,2.37244,4.00924,7.36961,1.98619,2.7919,2.30414,1.38323,1.00778,1.44341,6.71575,4.34962,196.657,402.101
805,149.923,20.7078,27.3758,67.1741,0.19417,1.23317,1.73057,5.76488,2.88489,2.7919,3.16639,1.75818,1.00778,1.27736,7.67427,4.16272,196.241,403.087
810,140.424,19.3684,26.4595,66.1357,0.61953,2.85094,1.96603,6.56724,1.98619,2.7919,3.16639,0.633323,1.00778,1.44341,5.75724,4.01736,189.036,404.039
815,137.731,17.0385,24.0305,64.5094,0.156191,3.09399,2.33822,7.36961,1.98619,1.9776,2.30414,1.38323,1.1492,1.11132,6.71575,3.97583,181.583,404.946
820,136.874,16.1631,21.8345,62.1213,1.27276,0.139458,1.10014,5.76488,2.88489,2.7919,3.16639,1.00828,1.1492,1.27736,8.63279,3.9966,184.804,405.904
825,134.97,17.6307,23.333,63.4283,3.79454,2.49397,5.14097,6.56724,1.98619,2.7919,2.30414,1.00828,1.00778,1.27736,6.71575,3.9966,195.817,406.937
830,128.642,18.3531,23.8249,62.5096,0.809423,0.177434,2.61925,7.36961,3.78358,4.42051,2.30414,1.38323,0.866357,1.11132,6.71575,3.83047,172.245,407.847
835,125.433,16.3586,21.0433,60.8762,0.535977,2.19775,2.0192,5.76488,1.98619,2.7919,4.02863,1.38323,0.866357,1.60946,6.71575,3.83047,172.706,408.734
840,124.72,15.4065,20.0569,59.0369,0.604339,0.686312,1.45713,6.56724,1.98619,3.60621,3.16639,1.38323,0.866357,1.27736,8.63279,3.83047,186.734,409.669
845,133.879,15.2812,19.7802,58.5478,1.42468,1.71926,0.446924,5.76488,2.88489,2.7919,3.16639,1.38323,1.1492,1.27736,7.67427,3.6851,178.554,410.525
850,126.951,14.3175,21.7797,59.0892,2.56404,1.20278,6.39424,4.96252,2.88489,1.16329,2.30414,0.633323,1.00778,1.44341,6.71575,3.66434,135.77,411.306
855,126.462,16.5214,21.6226,59.2679,1.62217,3.2231,1.23686,6.56724,2.88489,2.7919,2.30414,1.38323,1.1492,1.27736,6.71575,3.66434,126.199,411.974
860,125.031,18.4122,23.2026,57.8953,2.65518,3.16994,0.803915,5.76488,2.88489,1.9776,2.30414,1.38323,1.00778,1.11132,7.67427,3.53974,129.897,412.613
865,127.252,17.8039,23.2783,57.4534,2.64759,1.30912,0.424138,4.96252,-0.709894,1.9776,3.16639,1.75818,1.00778,1.11132,5.75724,3.70587,154.763,413.344
870,104.66,17.5593,21.4057,55.8901,0.801828,1.24836,0.477307,5.76488,1.0875,3.60621,3.16639,1.00828,1.00778,0.945271,7.67427,3.66434,156.175,414.11
875,99.0066,14.622,19.8827,55.1106,0.376467,0.359718,0.682386,4.96252,1.98619,1.9776,2.30414,1.00828,0.583513,1.11132,4.79872,3.51897,136.556,414.837
880,100.919,12.8567,17.6298,53.6613,0.77904,0.785049,1.95844,6.56724,1.98619,2.7919,2.30414,0.633323,0.866357,1.27736,6.71575,3.49821,135.213,415.505
885,106.817,11.5367,16.4663,52.6433,0.756253,0.344528,0.538071,5.76488,1.0875,1.16329,3.16639,0.633323,0.866357,1.11132,7.67427,3.51897,118.466,416.161
890,107.145,10.2761,14.333,50.9068,0.467616,1.03569,1.18369,6.56724,2.88489,3.60621,1.4419,1.38323,0.583513,1.11132,4.79872,3.35285,111.696,416.758
895,96.8548,11.1875,15.2422,50.125,0.839806,0.169839,0.629218,5.76488,2.88489,2.7919,2.30414,1.00828,0.866357,1.11132,4.79872,3.35285,122.674,417.33
900,94.0673,10.2761,13.1889,48.9463,0.657509,1.32431,0.370969,4.16015,2.88489,0.348988,1.4419,1.00828,0.724935,1.11132,6.71575,3.31131,128.371,417.951
905,86.2141,9.7245,13.2105,48.523,0.118212,1.83319,0.849488,4.16015,1.0875,2.7919,1.4419,1.00828,0.866357,1.11132,6.71575,3.33208,140.285,418.688
910,80.0303,8.9871,12.3599,47.7716,0.429637,0.314147,1.14571,4.96252,3.78358,2.7919,4.02863,1.38323,0.866357,1.11132,5.75724,3.16595,128.127,419.349
915,84.0923,6.26552,10.2156,47.0992,0.323297,0.374909,1.14571,5.76488,1.0875,1.16329,3.16639,1.00828,0.866357,1.11132,4.79872,3.14518,135.885,419.993
920,77.9946,6.29273,9.09599,45.7906,0.0346595,0.223005,1.94325,4.16015,1.0875,2.7919,3.16639,1.38323,0.866357,1.27736,5.75724,3.12442,131.868,420.665
925,81.8556,5.62549,9.23235,45.7745,0.482807,0.131863,2.11035,4.16015,1.0875,1.9776,1.4419,1.00828,0.866357,1.27736,5.75724,2.99982,117.802,421.28
930,74.6448,6.76256,11.2467,46.4315,0.923359,2.02306,1.25965,4.96252,2.88489,2.7919,2.30414,1.00828,0.724935,0.945271,5.75724,2.97906,119.878,421.852
935,77.3998,6.5657,11.012,45.981,1.09047,3.91427,0.652004,4.16015,1.98619,2.7919,2.30414,1.38323,0.866357,0.945271,4.79872,3.02059,104.452,422.41
940,79.337,6.56017,10.7772,45.6046,1.15123,0.883786,0.45452,4.96252,1.98619,2.7919,2.30414,0.633323,1.00778,1.11132,6.71575,2.99982,118.009,422.958
945,75.0068,3.02731,8.70212,44.3688,0.00427658,0.344528,0.424138,4.96252,1.98619,1.16329,2.30414,1.00828,1.00778,1.27736,6.71575,2.85446,118.099,423.552
950,76.6043,4.4273,7.53806,43.3494,0.642317,0.549598,1.43435,4.96252,2.88489,1.9776,2.30414,1.38323,0.866357,1.27736,6.71575,2.85446,114.431,424.104
955,68.4863,4.00064,7.41776,42.7863,0.239744,0.0938868,1.82172,4.16015,1.0875,2.7919,1.4419,1.00828,1.00778,1.27736,6.71575,2.83369,120.392,424.708
960,75.4548,4.56937,8.63625,42.3345,0.794232,0.291362,2.60406,4.96252,1.98619,3.60621,2.30414,1.00828,0.724935,1.11132,5.75724,2.66756,123.203,425.305
965,76.9204,3.8309,9.19876,42.361,0.178978,0.397694,0.378565,3.35779,1.0875,3.60621,1.4419,1.38323,0.866357,0.945271,6.71575,2.68833,125.493,425.918
970,69.2793,3.28382,8.84359,42.313,0.991721,1.0129,0.834297,4.16015,1.98619,1.16329,1.4419,1.38323,0.724935,1.44341,6.71575,2.66756,125.104,426.543
975,66.6934,4.51449,7.24261,40.7175,0.771445,0.162243,0.234249,6.56724,1.0875,1.9776,3.16639,1.00828,0.866357,1.27736,5.75724,2.62603,112.266,427.115
980,67.5639,3.37655,6.22002,39.3485,0.270127,0.731883,0.902657,5.76488,1.98619,1.9776,1.4419,1.00828,0.724935,1.27736,6.71575,2.5222,119.663,427.697
985,66.9539,4.02189,6.90333,38.8208,0.817019,0.701502,0.295014,4.16015,1.98619,1.9776,3.16639,1.75818,0.724935,0.945271,7.67427,2.48067,113.92,428.295
990,65.9378,3.14129,5.98485,38.4476,0.46002,0.101482,0.408947,4.16015,0.188802,1.9776,3.16639,1.00828,0.724935,1.27736,5.75724,2.50144,108.403,428.863
995,62.8902,2.81839,6.12136,39.0285,1.2044,3.35982,2.49772,4.96252,-0.709894,1.9776,3.16639,0.633323,0.866357,1.27736,5.75724,2.50144,118.135,429.418
1000,67.3673,3.54032,7.76119,39.6946,0.467616,1.82559,2.03439,4.96252,1.98619,1.9776,2.30414,1.38323,0.866357,1.27736,3.8402,2.5222,120.116,430.005
1005,63.3646,3.40886,8.66256,39.6784,1.36391,1.28633,0.72796,4.96252,1.98619,2.7919,2.30414,1.00828,0.442092,0.945271,5.75724,2.31454,113.023,430.587
1010,60.7579,4.51361,8.69528,39.7476,0.163787,1.4914,0.24944,4.16015,1.0875,2.7919,2.30414,1.00828,0.724935,1.27736,5.75724,2.37684,121.484,431.175
1015,61.9186,3.10256,6.71156,38.9697,0.24734,0.185029,0.257036,4.96252,1.0875,1.16329,2.30414,1.38323,0.724935,0.945271,6.71575,2.33531,116.71,431.778
1020,67.3755,3.157,7.14861,39.2839,2.13867,0.777454,0.3178,4.96252,2.88489,1.9776,2.30414,1.38323,1.00778,1.44341,5.75724,2.33531,120.685,432.38
1025,66.9588,3.34291,6.4543,38.7188,0.589147,0.185029,0.127912,4.16015,2.88489,3.60621,2.30414,1.00828,0.583513,1.27736,5.75724,2.18994,128.526,433.032
1030,62.3056,3.2608,5.72157,37.9667,0.452424,0.473646,-0.0315949,6.56724,1.98619,2.7919,1.4419,1.38323,1.00778,1.27736,5.75724,2.18994,117.143,433.608
1035,56.4929,1.78375,5.0487,36.8242,0.634722,0.587574,1.31282,4.16015,1.0875,1.9776,3.16639,0.633323,0.866357,1.11132,6.71575,2.02381,112.301,434.15
1040,61.7279,2.62053,6.34457,37.342,1.78927,1.27874,0.0139784,3.35779,1.98619,1.9776,4.02863,1.00828,0.583513,1.27736,8.63279,2.02381,113.638,434.72
1045,67.6415,2.99234,5.68285,36.5836,0.490403,0.64074,0.135507,4.96252,1.0875,1.9776,0.579659,1.00828,0.724935,1.27736,6.71575,1.98228,126.13,435.312
1050,57.777,2.33592,5.10313,35.6804,0.528382,1.46862,0.135507,4.16015,2.88489,1.9776,3.16639,0.633323,0.866357,0.945271,5.75724,1.98228,107.563,435.913
1055,50.227,2.21552,5.0976,35.7498,0.551169,0.663526,1.95844,4.16015,1.98619,1.16329,2.30414,1.38323,0.724935,1.11132,4.79872,2.02381,104.546,436.442
1060,48.3674,1.97474,4.74199,35.9261,0.535977,0.800239,0.652004,4.96252,1.0875,1.16329,2.30414,0.258371,0.583513,0.945271,6.71575,2.00305,123.934,437.031
1065,49.6235,1.28007,4.27704,35.4342,0.216957,0.101482,0.378565,4.96252,1.0875,1.16329,3.16639,1.00828,1.00778,1.11132,5.75724,2.00305,148.777,437.775
1070,46.3734,0.886174,3.46195,34.4871,0.0574466,0.0938868,0.241845,4.96252,1.98619,1.16329,2.30414,0.633323,0.866357,1.11132,5.75724,1.83692,138.734,438.443
1075,44.4516,0.268172,3.64785,34.4068,0.330893,0.617955,0.674791,4.96252,1.98619,1.16329,2.30414,0.633323,0.583513,1.44341,4.79872,1.79539,120.822,439.054
1080,46.2751,0.377471,3.25944,34.4763,0.771445,1.93192,1.76855,4.16015,0.188802,1.9776,2.30414,0.633323,0.866357,1.11132,5.75724,1.83692,109.458,439.655
1085,58.6158,2.43373,5.39233,35.252,2.31338,1.91673,0.226654,4.96252,1.98619,2.7919,2.30414,1.00828,0.724935,1.11132,4.79872,1.65003,112.38,440.224
1090,60.1514,2.57581,5.18986,34.4546,0.930955,0.883786,0.462116,6.56724,1.98619,2.7919,0.579659,0.633323,0.724935,1.11132,6.71575,1.65003,119.506,440.792
1095,53.4394,1.48165,5.0146,34.6578,1.31074,0.344528,1.56347,4.96252,1.0875,1.16329,0.579659,0.258371,0.866357,0.945271,5.75724,1.69156,129.745,441.42
1100,49.3006,1.82622,4.28721,34.1707,0.733466,0.131863,0.196271,4.96252,1.98619,1.9776,2.30414,0.633323,0.442092,1.27736,5.75724,1.69156,123.799,442.047
1105,48.8662,0.95122,3.18241,33.7263,0.596743,0.253386,0.910253,4.16015,1.0875,2.7919,1.4419,0.633323,0.583513,0.779224,5.75724,1.50466,132.105,442.695
1110,47.463,0.852522,2.93054,32.8794,0.870189,0.0786964,1.32041,3.35779,1.0875,1.16329,2.30414,1.75818,0.583513,1.27736,5.75724,1.67079,126.184,443.372
1115,49.2747,0.338289,1.91844,31.9622,0.118212,0.382504,0.287418,3.35779,1.98619,1.9776,1.4419,1.00828,0.724935,1.11132,5.75724,1.52543,126.875,444
1120,46.2411,0.261735,2.10988,32.5629,0.414446,2.26611,1.47232,4.96252,1.0875,3.60621,1.4419,0.633323,0.583513,1.11132,6.71575,1.4839,139.795,444.642
1125,47.6576,0.44759,3.02327,32.5575,0.399254,0.83062,0.226654,4.96252,3.78358,1.9776,1.4419,0.633323,0.724935,0.945271,5.75724,1.4839,131.826,445.307
1130,46.9606,0.742759,2.89733,32.434,0.649913,2.1218,0.310205,4.16015,0.188802,1.16329,1.4419,1.00828,0.866357,0.945271,3.8402,1.33853,126.354,445.967
1135,43.5316,0.449643,3.14588,32.326,-0.1865,0.408922,0.553816,4.463,3.39277,2.47241,2.9809,0.0194282,0.734812,1.0335,5.33961,1.32818,131.339,446.635
1140,46.7983,-0.4898,3.31297,32.6538,0.61953,1.05848,0.332991,4.96252,1.98619,1.9776,2.30414,0.633323,0.866357,0.945271,4.79872,1.40083,118.404,447.26
1145,48.3411,0.179193,2.14217,31.7685,0.19417,1.1724,1.53309,4.96252,1.0875,1.16329,3.16639,1.00828,0.866357,0.945271,4.79872,1.31777,126.965,447.948
1150,44.214,-1.13955,2.20768,31.2693,0.141,0.390099,0.257036,4.16015,3.78358,0.348988,3.16639,1.38323,0.724935,1.11132,5.75724,1.33853,120.501,448.561
1155,45.2814,-0.221033,1.85756,30.6624,1.28036,0.40529,1.1685,4.16015,1.98619,2.7919,2.30414,1.38323,0.724935,1.11132,5.75724,1.15164,119.799,449.132
1160,42.171,-0.73236,1.73162,30.8395,0.710679,0.131863,1.0014,5.76488,2.88489,2.7919,1.4419,0.633323,0.724935,0.945271,5.75724,1.19317,118.571,449.738
1165,43.443,-1.16743,2.02685,31.693,0.870189,0.412885,0.38616,4.16015,1.98619,2.7919,1.4419,0.633323,0.866357,1.11132,5.75724,1.1724,114.631,450.343
1170,39.3743,0.167668,2.39867,31.607,0.535977,0.701502,0.310205,4.96252,1.0875,2.7919,3.16639,0.633323,0.866357,1.27736,4.79872,1.15164,131.646,450.967
1175,37.9013,-0.600616,3.16444,31.2688,0.77904,0.671121,0.910253,4.16015,1.0875,1.9776,2.30414,1.00828,0.866357,1.11132,5.75724,1.02704,132.597,451.619
1180,38.5892,0.00349964,3.11508,31.3707,0.148595,1.32431,0.165889,4.96252,1.98619,3.60621,2.30414,0.633323,0.866357,1.27736,4.79872,1.00628,112.906,452.223
1185,37.4306,-0.749527,3.16952,31.5744,1.18921,0.716692,0.135507,4.16015,1.98619,1.9776,2.30414,1.00828,0.583513,1.11132,4.79872,0.98551,129.691,452.842
1190,40.9376,-0.101097,2.89596,31.306,0.232148,0.519217,0.439329,4.96252,1.98619,3.60621,2.30414,1.00828,0.724935,1.27736,5.75724,1.02704,127.475,453.474
1195,43.0815,0.161673,2.6224,30.8495,0.414446,0.701502,0.401351,2.55543,1.0875,1.9776,1.4419,1.38323,0.583513,1.11132,4.79872,1.00628,126.306,454.122
1200,40.5463,0.41301,2.22291,30.1563,0.437233,0.61036,0.515284,4.16015,1.98619,2.7919,1.4419,1.00828,0.866357,1.27736,5.75724,1.04781,108.835,454.707
1205,45.8449,-1.97369,1.76346,30.3819,0.24734,0.663526,0.257036,3.35779,1.0875,1.9776,2.30414,0.633323,0.583513,1.27736,5.75724,0.840147,117.026,455.266
1210,42.1985,-1.55984,1.48438,29.8444,2.04753,0.876191,1.05457,3.35779,1.98619,1.9776,1.4419,1.00828,0.583513,0.945271,5.75724,0.819381,124.467,455.87
1215,40.3139,-1.18509,1.43502,29.6077,0.0726381,0.0331252,0.105125,4.16015,1.98619,2.7919,1.4419,1.00828,1.00778,1.11132,5.75724,0.860913,124.727,456.478
1220,37.7687,-1.34498,0.740378,28.8115,0.528382,0.21541,0.0519561,4.16015,1.98619,1.16329,1.4419,0.633323,0.583513,0.779224,6.71575,0.674018,130.722,457.097
1225,36.2427,-3.05836,0.959002,29.629,0.756253,2.32687,0.507689,2.55543,1.98619,1.9776,2.30414,1.00828,0.724935,1.11132,7.67427,0.840147,107.679,457.722
1230,40.2912,-0.98163,0.603394,29.0534,0.201765,0.359718,1.44194,4.16015,1.98619,2.7919,2.30414,0.633323,0.866357,1.11132,5.75724,0.674018,111.717,458.291
1235,36.9106,-1.72598,0.247809,28.3644,0.0954253,1.0205,0.18108,4.16015,2.88489,1.9776,1.4419,1.00828,0.583513,0.945271,5.75724,0.71555,122.104,458.89
1240,37.1036,-1.73715,0.810941,28.6173,0.938551,0.891382,1.00899,4.96252,2.88489,1.16329,2.30414,1.38323,0.866357,0.779224,4.79872,0.694784,120.205,459.501
1245,31.1891,-2.86499,0.69056,28.7625,0.718275,1.64331,0.18108,3.35779,2.88489,2.7919,2.30414,1.00828,0.583513,1.11132,6.71575,0.674018,111.781,460.099
1250,32.7308,-2.10741,0.520831,28.4448,0.900572,0.458456,1.98882,4.96252,1.98619,2.7919,3.16639,1.00828,0.866357,1.27736,5.75724,0.507889,120.297,460.672
1255,37.4331,-2.5,0.400456,28.2132,0.0498509,0.595169,0.811511,4.16015,1.98619,2.7919,2.30414,1.00828,0.583513,1.11132,5.75724,0.507889,112.732,461.244
1260,38.7362,-1.73204,0.394921,28.3208,0.497999,0.42048,0.295014,4.16015,1.98619,1.9776,2.30414,1.00828,0.866357,0.945271,3.8402,0.507889,117.515,461.818
1265,36.7107,-2.46128,1.05124,29.4562,0.946146,1.29393,0.720364,3.35779,1.98619,2.7919,2.30414,1.00828,0.724935,0.779224,5.75724,0.507889,131.965,462.462
1270,38.5108,-1.51706,0.722838,28.8696,0.277723,0.747073,0.765937,4.96252,1.98619,1.9776,1.4419,1.38323,0.866357,1.27736,4.79872,0.487123,117.91,463.09
1275,37.3021,-1.25807,1.78374,28.9717,0.862593,1.27114,0.583644,4.16015,1.0875,1.16329,1.4419,1.00828,0.583513,0.779224,5.75724,0.487123,112.598,463.651
1280,38.8511,-0.114087,1.31323,27.9058,0.0574466,0.101482,0.0747427,4.16015,2.88489,1.9776,2.30414,1.00828,0.724935,1.27736,5.75724,0.507889,106.494,464.187
1285,45.6871,-1.78233,0.115434,27.7441,0.141,0.504027,0.143103,4.96252,2.88489,1.9776,2.30414,0.633323,0.866357,0.945271,5.75724,0.570187,94.627,464.695
1290,38.629,-2.18014,-0.31799,27.3183,1.09806,0.549598,0.621622,4.16015,1.98619,1.9776,1.4419,0.633323,0.583513,1.11132,5.75724,0.300228,95.7762,465.192
1295,37.2004,-0.795967,0.55817,28.1801,0.414446,1.48381,0.72796,3.35779,1.98619,1.16329,3.16639,0.258371,0.583513,1.11132,4.79872,0.34176,94.0819,465.67
1300,36.2268,-1.65573,0.0877554,27.3397,0.148595,0.450861,0.940635,3.35779,1.98619,1.16329,1.4419,1.00828,0.724935,1.11132,5.75724,0.34176,83.1471,466.111
1305,31.347,-2.71142,-0.884754,26.9138,0.0802338,0.0862916,0.674791,4.16015,1.98619,0.348988,0.579659,0.633323,0.724935,1.11132,5.75724,0.175631,86.7675,466.573
1310,29.3963,-4.15318,-0.659221,27.5496,0.156191,0.101482,0.439329,4.16015,1.0875,1.16329,1.4419,0.633323,0.724935,1.11132,5.75724,0.23793,91.7296,467.032
1315,30.9397,-2.91639,-0.780322,27.0915,0.384063,0.162243,0.0975294,4.96252,1.98619,1.16329,1.4419,0.633323,0.724935,0.779224,6.71575,0.175631,102.913,467.512
1320,26.5944,-3.19345,-1.05565,26.8974,0.0498509,0.0179349,-0.00121273,4.16015,2.88489,1.9776,1.4419,0.633323,0.724935,0.945271,4.79872,0.154865,98.5008,468.026
1325,26.1629,-2.74504,-0.841132,27.0697,0.0270638,-0.0276363,-0.0239994,4.16015,1.98619,0.348988,1.4419,0.633323,0.583513,1.27736,5.75724,0.175631,92.511,468.509
1330,28.0125,-3.80386,-0.967882,26.9078,0.452424,0.526813,0.188676,4.16015,1.0875,1.9776,2.30414,0.633323,0.724935,0.779224,4.79872,0.154865,101.261,468.983
1335,30.4713,-4.23707,-0.472816,27.2797,0.0954253,0.542003,0.674791,2.55543,1.0875,1.9776,1.4419,1.00828,0.583513,1.11132,6.71575,0.217164,94.3472,469.48
1340,33.7445,-2.65684,-0.637906,27.2688,0.634722,1.61292,1.19888,3.35779,1.0875,2.7919,4.02863,1.38323,0.724935,1.11132,6.71575,0.0302687,89.717,469.935
1345,31.045,-2.31397,0.239911,27.2256,0.163787,0.185029,0.568453,3.35779,3.78358,0.348988,1.4419,0.633323,0.583513,1.27736,5.75724,0.0302687,96.2193,470.427
1350,31.0128,-2.35827,-0.110531,26.5409,0.19417,-0.00485071,0.272227,2.55543,1.0875,1.9776,2.30414,1.00828,0.866357,0.945271,4.79872,0.0302687,98.3382,470.923
1355,30.3561,-3.10563,-0.621682,26.379,0.558764,0.443265,0.0519561,4.96252,1.0875,1.16329,1.4419,1.00828,0.442092,1.11132,5.75724,0.0302687,88.6753,471.409
1360,29.4344,-3.66021,0.135672,27.0851,0.847402,0.62555,0.0519561,4.16015,1.0875,1.9776,1.4419,1.00828,0.724935,0.779224,4.79872,0.0510348,89.9982,471.851
1365,32.3016,-2.50801,0.23943,27.7908,0.368871,1.51419,1.20648,3.35779,1.0875,1.16329,2.30414,0.258371,0.442092,0.779224,4.79872,-0.156626,83.2822,472.265
1370,33.2612,-1.35391,1.68864,28.7652,1.51583,0.709097,0.6596,4.16015,1.0875,1.16329,1.4419,1.00828,0.442092,1.11132,5.75724,-0.177392,93.9939,472.71
1375,28.228,-1.79544,2.43778,29.502,0.497999,1.20278,0.758342,4.16015,1.98619,1.9776,3.16639,1.00828,0.724935,1.11132,5.75724,-0.156626,85.7082,473.146
1380,29.119,-1.06766,1.24534,28.5927,0.141,0.557193,0.560858,4.16015,0.188802,2.7919,2.30414,1.00828,0.866357,0.779224,5.75724,-0.13586,83.648,473.56
1385,26.2189,-1.69071,0.895252,28.1728,0.877785,0.617955,0.59124,2.55543,1.0875,1.16329,1.4419,1.00828,0.583513,1.11132,4.79872,-0.156626,81.2936,474.037
1390,28.332,-2.46978,1.11941,28.4688,0.6727,0.785049,2.48253,3.35779,1.0875,1.16329,1.4419,0.633323,0.724935,0.779224,4.79872,-0.13586,59.8738,474.379
1395,27.9085,-1.90628,0.260611,27.3215,0.520786,0.0407204,0.295014,4.16015,1.98619,2.7919,3.16639,0.258371,0.442092,0.945271,3.8402,-0.13586,67.7685,474.688
1400,25.4493,-2.18257,-0.243495,26.9765,0.665105,0.0862916,0.0139784,2.55543,0.188802,1.9776,2.30414,0.258371,0.583513,0.779224,3.8402,-0.301989,71.0469,475.037
1405,25.4897,-3.2342,-0.941949,26.5181,0.239744,0.101482,0.553262,3.35779,1.0875,2.7919,2.30414,1.00828,0.583513,0.945271,5.75724,-0.301989,69.9975,475.389
1410,22.6665,-3.43946,-1.26158,26.3939,0.285318,0.154648,0.188676,4.16015,1.0875,1.9776,3.16639,0.258371,0.442092,0.945271,4.79872,-0.322755,80.3992,475.768
1415,24.178,-4.14439,-1.65319,26.5772,0.156191,0.162243,-0.0315949,4.96252,2.88489,1.9776,2.30414,0.633323,0.30067,1.11132,5.75724,-0.322755,86.7694,476.196
1420,25.615,-4.27793,-2.32728,26.1078,0.110617,-0.0276363,0.553262,4.16015,1.98619,1.9776,2.30414,0.633323,0.442092,0.945271,6.71575,-0.281223,85.1841,476.632
1425,23.2236,-4.08913,-2.02339,25.8757,0.0574466,0.223005,0.241845,1.75306,1.0875,1.9776,0.579659,1.38323,0.442092,1.11132,4.79872,-0.50965,83.2218,477.079
1430,24.5862,-4.4059,-1.75841,25.4547,0.414446,0.81543,0.781128,3.35779,1.98619,2.7919,2.30414,1.00828,0.583513,0.945271,4.79872,-0.488884,68.2001,477.446
1435,25.5809,-3.95051,-0.574004,26.5013,0.475211,1.00531,2.13314,3.35779,1.98619,1.9776,0.579659,1.38323,0.724935,1.27736,4.79872,-0.530416,63.7832,477.807
1440,28.0141,-1.74151,0.615225,27.1428,0.0574466,0.131863,0.173485,4.96252,1.98619,2.7919,2.30414,0.258371,0.583513,1.11132,4.79872,-0.50965,70.4137,478.142
1445,31.2326,-3.3516,-0.288493,26.8569,0.399254,0.0407204,0.196271,4.96252,1.0875,0.348988,2.30414,0.258371,0.583513,0.945271,5.75724,-0.447352,72.4368,478.488
1450,25.186,-3.98245,-0.732615,26.4575,0.383019,0.379042,-0.288863,3.82225,2.94621,2.36236,1.15072,0.630008,0.716205,1.2618,4.864,-0.420226,59.3595,478.826
1455,23.7721,-4.64553,-1.45552,26.8459,0.148595,0.0938868,0.598835,1.75306,1.0875,1.9776,2.30414,0.633323,0.724935,1.11132,4.79872,-0.488884,70.8692,479.155
1460,22.1557,-4.35111,-1.85856,26.0745,0.24734,0.116672,-0.00121273,2.55543,1.0875,-0.465317,0.579659,1.38323,0.442092,0.945271,4.79872,-0.613481,68.7262,479.511
1465,21.758,-4.2513,-2.30077,25.9071,0.224553,0.0938868,0.196271,4.16015,1.98619,1.9776,2.30414,0.633323,0.724935,0.779224,6.71575,-0.634247,73.5084,479.885
1470,20.9954,-4.49035,-2.73233,24.9947,0.0802338,0.0862916,0.0899338,3.35779,1.98619,1.16329,1.4419,0.258371,0.583513,1.11132,5.75724,-0.613481,72.6943,480.262
1475,21.6663,-4.76284,-2.96488,24.8057,0.497999,0.769859,0.3178,4.16015,1.0875,1.16329,0.579659,0.633323,0.583513,0.945271,5.75724,-0.675779,68.8141,480.624
1480,19.28,-4.62964,-2.63853,24.33,0.330893,0.02553,0.363373,4.16015,2.88489,1.9776,0.579659,1.38323,0.583513,0.945271,5.75724,-0.655013,63.4768,480.953
1485,19.7545,-4.00164,-3.02049,23.7301,0.30051,0.997714,0.576049,2.55543,0.188802,0.348988,2.30414,0.258371,0.583513,0.945271,6.71575,-0.634247,72.7513,481.296
1490,20.6293,-2.93157,-2.26258,24.0164,0.634722,0.428075,1.48751,4.16015,1.0875,1.9776,1.4419,0.633323,0.583513,1.11132,5.75724,-0.841908,82.5228,481.682
1495,22.3959,-3.7189,-2.46732,24.346,0.118212,0.260981,0.750746,2.55543,0.188802,1.9776,0.579659,0.258371,0.442092,1.11132,6.71575,-0.758843,85.8812,482.098
1500,23.9186,-4.15203,-2.35678,24.8321,0.201765,0.21541,0.0823383,3.35779,1.98619,1.9776,0.579659,1.00828,0.724935,1.11132,4.79872,-0.841908,0.0,482.153
1505,25.1408,-4.59123,-2.75527,24.859,0.163787,0.116672,0.241845,2.55543,1.98619,1.16329,3.16639,1.00828,0.583513,1.11132,3.8402,-0.800376,0.0,482.153
1510,25.3328,-5.18674,-2.45662,24.8102,0.323297,0.0938868,0.0291694,4.16015,2.88489,1.16329,2.30414,0.633323,0.583513,0.945271,5.75724,-0.841908,0.0,482.153
1511,25.2942,-4.99191,-2.65025,24.6968,0.133404,0.0103397,0.158294,2.55543,1.98619,1.16329,1.4419,1.00828,0.724935,1.11132,4.79872,-0.800376,0.0,482.153