File: 01_Data/Laminate_Flooring/FTIR/IS/Laminate_Flooring_IS_S_221003_R3.dpt
7497.03,0.60278
7491.25,0.60889
7485.46,0.60254
7479.67,0.60739
7473.89,0.59894
7468.1,0.60891
7462.32,0.59966
7456.53,0.59876
7450.74,0.60136
7444.96,0.60106
7439.17,0.60411
7433.38,0.59949
7427.6,0.60562
7421.81,0.60289
7416.03,0.59722
7410.24,0.59610
7404.45,0.60253
7398.67,0.59533
7392.88,0.59285
7387.09,0.60133
7381.31,0.60928
7375.52,0.60527
7369.74,0.60540
7363.95,0.60681
7358.16,0.60449
7352.38,0.60811
7346.59,0.59858
7340.8,0.59980
7335.02,0.60138
7329.23,0.60452
7323.45,0.60440
7317.66,0.60673
7311.87,0.59675
7306.09,0.60392
7300.3,0.60322
7294.51,0.60250
7288.73,0.60483
7282.94,0.59771
7277.16,0.59561
7271.37,0.60596
7265.58,0.60177
7259.8,0.59854
7254.01,0.60016
7248.22,0.60358
7242.44,0.60585
7236.65,0.60389
7230.87,0.59962
7225.08,0.59481
7219.29,0.59374
7213.51,0.59942
7207.72,0.60081
7201.93,0.60610
7196.15,0.60253
7190.36,0.59825
7184.58,0.60709
7178.79,0.60073
7173,0.60515
7167.22,0.59910
7161.43,0.60631
7155.65,0.60050
7149.86,0.59921
7144.07,0.60046
7138.29,0.60748
7132.5,0.60430
7126.71,0.60363
7120.93,0.60361
7115.14,0.60638
7109.36,0.59969
7103.57,0.60854
7097.78,0.61021
7092,0.60361
7086.21,0.60689
7080.42,0.60935
7074.64,0.60434
7068.85,0.60443
7063.07,0.60401
7057.28,0.60755
7051.49,0.60806
7045.71,0.60096
7039.92,0.60674
7034.13,0.60522
7028.35,0.60647
7022.56,0.60471
7016.78,0.60511
7010.99,0.60696
7005.2,0.60378
6999.42,0.60260
6993.63,0.60123
6987.84,0.60947
6982.06,0.60534
6976.27,0.60849
6970.49,0.61063
6964.7,0.61136
6958.91,0.61122
6953.13,0.60910
6947.34,0.61112
6941.55,0.61253
6935.77,0.60700
6929.98,0.60946
6924.2,0.61025
6918.41,0.61157
6912.62,0.60788
6906.84,0.60919
6901.05,0.60847
6895.26,0.60725
6889.48,0.60780
6883.69,0.61041
6877.91,0.61183
6872.12,0.61610
6866.33,0.61182
6860.55,0.61572
6854.76,0.61193
6848.97,0.61029
6843.19,0.61290
6837.4,0.61392
6831.62,0.61168
6825.83,0.61314
6820.04,0.61924
6814.26,0.61478
6808.47,0.61789
6802.68,0.61442
6796.9,0.61974
6791.11,0.61455
6785.33,0.61858
6779.54,0.61816
6773.75,0.61783
6767.97,0.61294
6762.18,0.61992
6756.39,0.61992
6750.61,0.61308
6744.82,0.61076
6739.04,0.61405
6733.25,0.61566
6727.46,0.61893
6721.68,0.61506
6715.89,0.61787
6710.1,0.61246
6704.32,0.62081
6698.53,0.62181
6692.75,0.61940
6686.96,0.61648
6681.17,0.62083
6675.39,0.62483
6669.6,0.62259
6663.82,0.62533
6658.03,0.62270
6652.24,0.62336
6646.46,0.61959
6640.67,0.62028
6634.88,0.62158
6629.1,0.62219
6623.31,0.61894
6617.53,0.61869
6611.74,0.61355
6605.95,0.61999
6600.17,0.62658
6594.38,0.62551
6588.59,0.62020
6582.81,0.62462
6577.02,0.62301
6571.24,0.62441
6565.45,0.62670
6559.66,0.62178
6553.88,0.62456
6548.09,0.62727
6542.3,0.62634
6536.52,0.62318
6530.73,0.61923
6524.95,0.62264
6519.16,0.62838
6513.37,0.62683
6507.59,0.62506
6501.8,0.62338
6496.01,0.62338
6490.23,0.62693
6484.44,0.62818
6478.66,0.62556
6472.87,0.63020
6467.08,0.62472
6461.3,0.62900
6455.51,0.62606
6449.72,0.63051
6443.94,0.62801
6438.15,0.63000
6432.37,0.62784
6426.58,0.63073
6420.79,0.62802
6415.01,0.62696
6409.22,0.63022
6403.43,0.62677
6397.65,0.63024
6391.86,0.63279
6386.08,0.63169
6380.29,0.62801
6374.5,0.62932
6368.72,0.63041
6362.93,0.62921
6357.14,0.62641
6351.36,0.62994
6345.57,0.62788
6339.79,0.63067
6334,0.62991
6328.21,0.63264
6322.43,0.63139
6316.64,0.63147
6310.85,0.62907
6305.07,0.62896
6299.28,0.62928
6293.5,0.62952
6287.71,0.63264
6281.92,0.63131
6276.14,0.63203
6270.35,0.63441
6264.56,0.63553
6258.78,0.63212
6252.99,0.63174
6247.21,0.63520
6241.42,0.63422
6235.63,0.63664
6229.85,0.63557
6224.06,0.62944
6218.27,0.63384
6212.49,0.63116
6206.7,0.63418
6200.92,0.63354
6195.13,0.63574
6189.34,0.63768
6183.56,0.63626
6177.77,0.63393
6171.98,0.63529
6166.2,0.63480
6160.41,0.63274
6154.63,0.63287
6148.84,0.63646
6143.05,0.63796
6137.27,0.63653
6131.48,0.63541
6125.7,0.63733
6119.91,0.63918
6114.12,0.63468
6108.34,0.63612
6102.55,0.63941
6096.76,0.63752
6090.98,0.63833
6085.19,0.64078
6079.41,0.64054
6073.62,0.63947
6067.83,0.64130
6062.05,0.63868
6056.26,0.63619
6050.47,0.63811
6044.69,0.63890
6038.9,0.63948
6033.12,0.63804
6027.33,0.64002
6021.54,0.64069
6015.76,0.64018
6009.97,0.64273
6004.18,0.64135
5998.4,0.63670
5992.61,0.63978
5986.83,0.64044
5981.04,0.64252
5975.25,0.64262
5969.47,0.64264
5963.68,0.63776
5957.89,0.64428
5952.11,0.64461
5946.32,0.64197
5940.54,0.64225
5934.75,0.64114
5928.96,0.64215
5923.18,0.64178
5917.39,0.64546
5911.6,0.64594
5905.82,0.64549
5900.03,0.64398
5894.25,0.64587
5888.46,0.64541
5882.67,0.64178
5876.89,0.64495
5871.1,0.64324
5865.31,0.64464
5859.53,0.64411
5853.74,0.64555
5847.96,0.64427
5842.17,0.64224
5836.38,0.64243
5830.6,0.64235
5824.81,0.64564
5819.02,0.64227
5813.24,0.64333
5807.45,0.64453
5801.67,0.64575
5795.88,0.64380
5790.09,0.64670
5784.31,0.64574
5778.52,0.64401
5772.73,0.64432
5766.95,0.64502
5761.16,0.64284
5755.38,0.64536
5749.59,0.64860
5743.8,0.64508
5738.02,0.64576
5732.23,0.64766
5726.44,0.64924
5720.66,0.64874
5714.87,0.65017
5709.09,0.64725
5703.3,0.64759
5697.51,0.64900
5691.73,0.64663
5685.94,0.64655
5680.15,0.64800
5674.37,0.64581
5668.58,0.65024
5662.8,0.64864
5657.01,0.65158
5651.22,0.65165
5645.44,0.64949
5639.65,0.64980
5633.87,0.64974
5628.08,0.64974
5622.29,0.64995
5616.51,0.64957
5610.72,0.64823
5604.93,0.65153
5599.15,0.65265
5593.36,0.64947
5587.58,0.64995
5581.79,0.65414
5576,0.65370
5570.22,0.65098
5564.43,0.65194
5558.64,0.65373
5552.86,0.65332
5547.07,0.65315
5541.29,0.65250
5535.5,0.65207
5529.71,0.65253
5523.93,0.65151
5518.14,0.65179
5512.35,0.65364
5506.57,0.65239
5500.78,0.65410
5495,0.65453
5489.21,0.65472
5483.42,0.65512
5477.64,0.65426
5471.85,0.65359
5466.06,0.65469
5460.28,0.65404
5454.49,0.65474
5448.71,0.65489
5442.92,0.65611
5437.13,0.65572
5431.35,0.65753
5425.56,0.65472
5419.77,0.65460
5413.99,0.65600
5408.2,0.65591
5402.42,0.65849
5396.63,0.65825
5390.84,0.65794
5385.06,0.65670
5379.27,0.65620
5373.48,0.65715
5367.7,0.65840
5361.91,0.65979
5356.13,0.65982
5350.34,0.65863
5344.55,0.65674
5338.77,0.65725
5332.98,0.65630
5327.19,0.65819
5321.41,0.65850
5315.62,0.65872
5309.84,0.65783
5304.05,0.65880
5298.26,0.65844
5292.48,0.65608
5286.69,0.65762
5280.9,0.65610
5275.12,0.65681
5269.33,0.65581
5263.55,0.65445
5257.76,0.65623
5251.97,0.65351
5246.19,0.65375
5240.4,0.65265
5234.61,0.65094
5228.83,0.65137
5223.04,0.65175
5217.26,0.65133
5211.47,0.65122
5205.68,0.65173
5199.9,0.65155
5194.11,0.64977
5188.32,0.65162
5182.54,0.65044
5176.75,0.64910
5170.97,0.65191
5165.18,0.65152
5159.39,0.65061
5153.61,0.65101
5147.82,0.64916
5142.03,0.65116
5136.25,0.65101
5130.46,0.65175
5124.68,0.65431
5118.89,0.65277
5113.1,0.65185
5107.32,0.65193
5101.53,0.65165
5095.75,0.65302
5089.96,0.65402
5084.17,0.65435
5078.39,0.65418
5072.6,0.65439
5066.81,0.65502
5061.03,0.65506
5055.24,0.65446
5049.46,0.65610
5043.67,0.65611
5037.88,0.65533
5032.1,0.65664
5026.31,0.65712
5020.52,0.65737
5014.74,0.65871
5008.95,0.65877
5003.17,0.65785
4997.38,0.65998
4991.59,0.65884
4985.81,0.65953
4980.02,0.66046
4974.23,0.66078
4968.45,0.66076
4962.66,0.66061
4956.88,0.66067
4951.09,0.66234
4945.3,0.66057
4939.52,0.66174
4933.73,0.66219
4927.94,0.66311
4922.16,0.66323
4916.37,0.66419
4910.59,0.66382
4904.8,0.66301
4899.01,0.66395
4893.23,0.66395
4887.44,0.66512
4881.65,0.66448
4875.87,0.66395
4870.08,0.66428
4864.3,0.66481
4858.51,0.66418
4852.72,0.66580
4846.94,0.66568
4841.15,0.66547
4835.36,0.66624
4829.58,0.66696
4823.79,0.66835
4818.01,0.66698
4812.22,0.66712
4806.43,0.66681
4800.65,0.66709
4794.86,0.66760
4789.07,0.66742
4783.29,0.66776
4777.5,0.66759
4771.72,0.66742
4765.93,0.66695
4760.14,0.66819
4754.36,0.66760
4748.57,0.66740
4742.78,0.66935
4737,0.66809
4731.21,0.66781
4725.43,0.66891
4719.64,0.66782
4713.85,0.66866
4708.07,0.66775
4702.28,0.66741
4696.49,0.66774
4690.71,0.66716
4684.92,0.66605
4679.14,0.66611
4673.35,0.66510
4667.56,0.66594
4661.78,0.66514
4655.99,0.66547
4650.2,0.66371
4644.42,0.66340
4638.63,0.66404
4632.85,0.66263
4627.06,0.66220
4621.27,0.66316
4615.49,0.66191
4609.7,0.66243
4603.92,0.66271
4598.13,0.66187
4592.34,0.66096
4586.56,0.66132
4580.77,0.66118
4574.98,0.66071
4569.2,0.66131
4563.41,0.66081
4557.63,0.66147
4551.84,0.66029
4546.05,0.66082
4540.27,0.66091
4534.48,0.66123
4528.69,0.66134
4522.91,0.66080
4517.12,0.66046
4511.34,0.66109
4505.55,0.66051
4499.76,0.66188
4493.98,0.66143
4488.19,0.66224
4482.4,0.66165
4476.62,0.66176
4470.83,0.66256
4465.05,0.66267
4459.26,0.66236
4453.47,0.66285
4447.69,0.66314
4441.9,0.66216
4436.11,0.66270
4430.33,0.66352
4424.54,0.66340
4418.76,0.66265
4412.97,0.66272
4407.18,0.66255
4401.4,0.66272
4395.61,0.66216
4389.82,0.66175
4384.04,0.66121
4378.25,0.66116
4372.47,0.66043
4366.68,0.65958
4360.89,0.65984
4355.11,0.65952
4349.32,0.65928
4343.53,0.65898
4337.75,0.65811
4331.96,0.65830
4326.18,0.65802
4320.39,0.65732
4314.6,0.65799
4308.82,0.65782
4303.03,0.65875
4297.24,0.65839
4291.46,0.65824
4285.67,0.65777
4279.89,0.65692
4274.1,0.65747
4268.31,0.65782
4262.53,0.65708
4256.74,0.65782
4250.95,0.65733
4245.17,0.65778
4239.38,0.65669
4233.6,0.65546
4227.81,0.65625
4222.02,0.65533
4216.24,0.65518
4210.45,0.65503
4204.66,0.65456
4198.88,0.65550
4193.09,0.65552
4187.31,0.65471
4181.52,0.65425
4175.73,0.65365
4169.95,0.65455
4164.16,0.65363
4158.37,0.65300
4152.59,0.65263
4146.8,0.65267
4141.02,0.65219
4135.23,0.65256
4129.44,0.65318
4123.66,0.65252
4117.87,0.65100
4112.09,0.65158
4106.3,0.65048
4100.51,0.64934
4094.73,0.64906
4088.94,0.64864
4083.15,0.64830
4077.37,0.64742
4071.58,0.64674
4065.8,0.64577
4060.01,0.64577
4054.22,0.64642
4048.44,0.64620
4042.65,0.64451
4036.86,0.64493
4031.08,0.64380
4025.29,0.64308
4019.51,0.64268
4013.72,0.64220
4007.93,0.64221
4002.15,0.64221
3996.36,0.64127
3990.57,0.64117
3984.79,0.64143
3979,0.64101
3973.22,0.64085
3967.43,0.63977
3961.64,0.64086
3955.86,0.63948
3950.07,0.63908
3944.28,0.63860
3938.5,0.63823
3932.71,0.63813
3926.93,0.63785
3921.14,0.63781
3915.35,0.63787
3909.57,0.63776
3903.78,0.63694
3897.99,0.63666
3892.21,0.63814
3886.42,0.63664
3880.64,0.63606
3874.85,0.63676
3869.06,0.63631
3863.28,0.63629
3857.49,0.63640
3851.7,0.63302
3845.92,0.63417
3840.13,0.63370
3834.35,0.63305
3828.56,0.63215
3822.77,0.63067
3816.99,0.62855
3811.2,0.62846
3805.41,0.62627
3799.63,0.62495
3793.84,0.62373
3788.06,0.62196
3782.27,0.61921
3776.48,0.61578
3770.7,0.61307
3764.91,0.60833
3759.12,0.60339
3753.34,0.59719
3747.55,0.58889
3741.77,0.57984
3735.98,0.56985
3730.19,0.55397
3724.41,0.53627
3718.62,0.51292
3712.83,0.48502
3707.05,0.44989
3701.26,0.41561
3695.48,0.37905
3689.69,0.34255
3683.9,0.30671
3678.12,0.27207
3672.33,0.23546
3666.54,0.20207
3660.76,0.17439
3654.97,0.14875
3649.19,0.12783
3643.4,0.11012
3637.61,0.09724
3631.83,0.08743
3626.04,0.07934
3620.25,0.07328
3614.47,0.06911
3608.68,0.06548
3602.9,0.06252
3597.11,0.06005
3591.32,0.05812
3585.54,0.05670
3579.75,0.05614
3573.97,0.05470
3568.18,0.05456
3562.39,0.05292
3556.61,0.05266
3550.82,0.05249
3545.03,0.05197
3539.25,0.05155
3533.46,0.05153
3527.68,0.05110
3521.89,0.05038
3516.1,0.05126
3510.32,0.05082
3504.53,0.05006
3498.74,0.04984
3492.96,0.05001
3487.17,0.04971
3481.39,0.05028
3475.6,0.04969
3469.81,0.04932
3464.03,0.04976
3458.24,0.04989
3452.45,0.04927
3446.67,0.04976
3440.88,0.05003
3435.1,0.05034
3429.31,0.04999
3423.52,0.05001
3417.74,0.04968
3411.95,0.05047
3406.16,0.05107
3400.38,0.05051
3394.59,0.05110
3388.81,0.05081
3383.02,0.05097
3377.23,0.05159
3371.45,0.05098
3365.66,0.05111
3359.87,0.05085
3354.09,0.05171
3348.3,0.05174
3342.52,0.05172
3336.73,0.05216
3330.94,0.05229
3325.16,0.05233
3319.37,0.05210
3313.58,0.05234
3307.8,0.05281
3302.01,0.05309
3296.23,0.05342
3290.44,0.05359
3284.65,0.05461
3278.87,0.05422
3273.08,0.05424
3267.29,0.05481
3261.51,0.05525
3255.72,0.05525
3249.94,0.05600
3244.15,0.05660
3238.36,0.05791
3232.58,0.05769
3226.79,0.05816
3221,0.05989
3215.22,0.06021
3209.43,0.06019
3203.65,0.06054
3197.86,0.06185
3192.07,0.06223
3186.29,0.06304
3180.5,0.06420
3174.71,0.06451
3168.93,0.06527
3163.14,0.06642
3157.36,0.06730
3151.57,0.06773
3145.78,0.06843
3140,0.07042
3134.21,0.07157
3128.42,0.07243
3122.64,0.07329
3116.85,0.07517
3111.07,0.07657
3105.28,0.07855
3099.49,0.08040
3093.71,0.08182
3087.92,0.08405
3082.14,0.08669
3076.35,0.08825
3070.56,0.09012
3064.78,0.09302
3058.99,0.09562
3053.2,0.09726
3047.42,0.09968
3041.63,0.10181
3035.85,0.10393
3030.06,0.10597
3024.27,0.10797
3018.49,0.10983
3012.7,0.11175
3006.91,0.11415
3001.13,0.11612
2995.34,0.11868
2989.56,0.12090
2983.77,0.12367
2977.98,0.12633
2972.2,0.12897
2966.41,0.13213
2960.62,0.13550
2954.84,0.13918
2949.05,0.14336
2943.27,0.14733
2937.48,0.15026
2931.69,0.15436
2925.91,0.15792
2920.12,0.16189
2914.33,0.16731
2908.55,0.17123
2902.76,0.17594
2896.98,0.17978
2891.19,0.18343
2885.4,0.18681
2879.62,0.18979
2873.83,0.19194
2868.04,0.19436
2862.26,0.19744
2856.47,0.20047
2850.69,0.20389
2844.9,0.21138
2839.11,0.21822
2833.33,0.22392
2827.54,0.22953
2821.75,0.23467
2815.97,0.23941
2810.18,0.24632
2804.4,0.25242
2798.61,0.25928
2792.82,0.26556
2787.04,0.27199
2781.25,0.27768
2775.46,0.28271
2769.68,0.28798
2763.89,0.29241
2758.11,0.29609
2752.32,0.30004
2746.53,0.30386
2740.75,0.30708
2734.96,0.31003
2729.17,0.31297
2723.39,0.31662
2717.6,0.32021
2711.82,0.32358
2706.03,0.32784
2700.24,0.33200
2694.46,0.33620
2688.67,0.34105
2682.88,0.34599
2677.1,0.35053
2671.31,0.35522
2665.53,0.36052
2659.74,0.36489
2653.95,0.36936
2648.17,0.37324
2642.38,0.37660
2636.59,0.37967
2630.81,0.38173
2625.02,0.38338
2619.24,0.38378
2613.45,0.38480
2607.66,0.38475
2601.88,0.38456
2596.09,0.38476
2590.3,0.38443
2584.52,0.38399
2578.73,0.38353
2572.95,0.38394
2567.16,0.38424
2561.37,0.38506
2555.59,0.38550
2549.8,0.38720
2544.02,0.38853
2538.23,0.38988
2532.44,0.39101
2526.66,0.39209
2520.87,0.39366
2515.08,0.39505
2509.3,0.39621
2503.51,0.39753
2497.73,0.39865
2491.94,0.39958
2486.15,0.39982
2480.37,0.39917
2474.58,0.39824
2468.79,0.39705
2463.01,0.39547
2457.22,0.39411
2451.44,0.39242
2445.65,0.39055
2439.86,0.38978
2434.08,0.38893
2428.29,0.38848
2422.5,0.38918
2416.72,0.39023
2410.93,0.39169
2405.15,0.39403
2399.36,0.39641
2393.57,0.39912
2387.79,0.40188
2382,0.40525
2376.21,0.40749
2370.43,0.40999
2364.64,0.41197
2358.86,0.41347
2353.07,0.41417
2347.28,0.41422
2341.5,0.41321
2335.71,0.41357
2329.92,0.41184
2324.14,0.41005
2318.35,0.40824
2312.57,0.40599
2306.78,0.40428
2300.99,0.40315
2295.21,0.40151
2289.42,0.40128
2283.63,0.40157
2277.85,0.40175
2272.06,0.40324
2266.28,0.40529
2260.49,0.40661
2254.7,0.40961
2248.92,0.41248
2243.13,0.41468
2237.34,0.41729
2231.56,0.41924
2225.77,0.42088
2219.99,0.42127
2214.2,0.42167
2208.41,0.42065
2202.63,0.41874
2196.84,0.41700
2191.05,0.41410
2185.27,0.41057
2179.48,0.40723
2173.7,0.40384
2167.91,0.40059
2162.12,0.39723
2156.34,0.39480
2150.55,0.39333
2144.76,0.39195
2138.98,0.39208
2133.19,0.39351
2127.41,0.39612
2121.62,0.40007
2115.83,0.40424
2110.05,0.40805
2104.26,0.41233
2098.47,0.41632
2092.69,0.41985
2086.9,0.42293
2081.12,0.42500
2075.33,0.42625
2069.54,0.42760
2063.76,0.42683
2057.97,0.42514
2052.19,0.42387
2046.4,0.42191
2040.61,0.41951
2034.83,0.41688
2029.04,0.41468
2023.25,0.41315
2017.47,0.41243
2011.68,0.41274
2005.9,0.41383
2000.11,0.41577
1994.32,0.41936
1988.54,0.42338
1982.75,0.42799
1976.96,0.43311
1971.18,0.43866
1965.39,0.44388
1959.61,0.44843
1953.82,0.45298
1948.03,0.45628
1942.25,0.45829
1936.46,0.45889
1930.67,0.45816
1924.89,0.45708
1919.1,0.45363
1913.32,0.45028
1907.53,0.44585
1901.74,0.44207
1895.96,0.43739
1890.17,0.43399
1884.38,0.43120
1878.6,0.42897
1872.81,0.42764
1867.03,0.42832
1861.24,0.43058
1855.45,0.43328
1849.67,0.43714
1843.88,0.44132
1838.09,0.44606
1832.31,0.44998
1826.52,0.45349
1820.74,0.45630
1814.95,0.45754
1809.16,0.45661
1803.38,0.45316
1797.59,0.44753
1791.8,0.44250
1786.02,0.43784
1780.23,0.43070
1774.45,0.42182
1768.66,0.41073
1762.87,0.40038
1757.09,0.38808
1751.3,0.37510
1745.51,0.36127
1739.73,0.34909
1733.94,0.33521
1728.16,0.31568
1722.37,0.29173
1716.58,0.28354
1710.8,0.27611
1705.01,0.24859
1699.22,0.22357
1693.44,0.21396
1687.65,0.21494
1681.87,0.21774
1676.08,0.21747
1670.29,0.21190
1664.51,0.20193
1658.72,0.18989
1652.93,0.17595
1647.15,0.16130
1641.36,0.14785
1635.58,0.13558
1629.79,0.12467
1624,0.11648
1618.22,0.11040
1612.43,0.10757
1606.64,0.10938
1600.86,0.11576
1595.07,0.12444
1589.29,0.13223
1583.5,0.14047
1577.71,0.15141
1571.93,0.16687
1566.14,0.18572
1560.35,0.20534
1554.57,0.22751
1548.78,0.24187
1543,0.24949
1537.21,0.25514
1531.42,0.25618
1525.64,0.25197
1519.85,0.24298
1514.07,0.23200
1508.28,0.22154
1502.49,0.21272
1496.71,0.20523
1490.92,0.19837
1485.13,0.19205
1479.35,0.18855
1473.56,0.18599
1467.78,0.18657
1461.99,0.19155
1456.2,0.20022
1450.42,0.21164
1444.63,0.22168
1438.84,0.22350
1433.06,0.21848
1427.27,0.21546
1421.49,0.21289
1415.7,0.20426
1409.91,0.19296
1404.13,0.17637
1398.34,0.15435
1392.55,0.12876
1386.77,0.10632
1380.98,0.08872
1375.2,0.07635
1369.41,0.06851
1363.62,0.06342
1357.84,0.05901
1352.05,0.05595
1346.26,0.05317
1340.48,0.05070
1334.69,0.04734
1328.91,0.04460
1323.12,0.04194
1317.33,0.03828
1311.55,0.03514
1305.76,0.03121
1299.97,0.02847
1294.19,0.02589
1288.4,0.02403
1282.62,0.02236
1276.83,0.02220
1271.04,0.02263
1265.26,0.02340
1259.47,0.02415
1253.68,0.02408
1247.9,0.02425
1242.11,0.02426
1236.33,0.02407
1230.54,0.02444
1224.75,0.02407
1218.97,0.02408
1213.18,0.02399
1207.39,0.02358
1201.61,0.02401
1195.82,0.02427
1190.04,0.02487
1184.25,0.02520
1178.46,0.02555
1172.68,0.02627
1166.89,0.02706
1161.1,0.02764
1155.32,0.02819
1149.53,0.02891
1143.75,0.03004
1137.96,0.03062
1132.17,0.03052
1126.39,0.03117
1120.6,0.03174
1114.81,0.03104
1109.03,0.03212
1103.24,0.03160
1097.46,0.03221
1091.67,0.03165
1085.88,0.03115
1080.1,0.03114
1074.31,0.03077
1068.52,0.03010
1062.74,0.02991
1056.95,0.02953
1051.17,0.02906
1045.38,0.02867
1039.59,0.02786
1033.81,0.02704
1028.02,0.02661
1022.24,0.02638
1016.45,0.02526
1010.66,0.02426
1004.88,0.02327
999.09,0.02233
993.304,0.02189
987.518,0.02121
981.731,0.02205
975.945,0.02252
970.159,0.02348
964.373,0.02480
958.586,0.02806
952.8,0.03068
947.014,0.03463
941.228,0.03863
935.441,0.04270
929.655,0.04777
923.869,0.05231
918.083,0.05741
912.297,0.06273
906.51,0.06745
900.724,0.07244
894.938,0.07734
889.152,0.08198
883.365,0.08565
877.579,0.09008
871.793,0.09419
866.007,0.09897
860.22,0.10323
854.434,0.10710
848.648,0.11039
842.862,0.11518
837.075,0.11812
831.289,0.12092
825.503,0.12488
819.717,0.12761
813.931,0.13093
808.144,0.13305
802.358,0.13520
796.572,0.13719
790.786,0.13911
784.999,0.14020
779.213,0.14180
773.427,0.14281
767.641,0.14398
761.854,0.14581
756.068,0.14711
750.282,0.14887
744.496,0.14932
738.709,0.15110
732.923,0.15243
727.137,0.15421
721.351,0.15427
715.565,0.15541
709.778,0.15762
703.992,0.15906
698.206,0.16173
692.42,0.16166
686.633,0.16293
680.847,0.16374
675.061,0.16662
669.275,0.16594
663.488,0.16694
657.702,0.16816
651.916,0.16771
646.13,0.16927
640.343,0.17044
634.557,0.17041
628.771,0.17170
622.985,0.17228
617.198,0.17439
611.412,0.17590
605.626,0.17735
599.84,0.17631