File: 01_Data/Laminate_Flooring/FTIR/IS/Laminate_Flooring_IS_S_221003_R1.dpt
7497.03,0.60081
7491.25,0.60496
7485.46,0.60289
7479.67,0.59870
7473.89,0.59692
7468.1,0.59884
7462.32,0.59295
7456.53,0.61105
7450.74,0.60262
7444.96,0.60143
7439.17,0.59612
7433.38,0.60464
7427.6,0.60505
7421.81,0.61353
7416.03,0.60001
7410.24,0.60922
7404.45,0.60701
7398.67,0.61242
7392.88,0.59095
7387.09,0.59814
7381.31,0.60119
7375.52,0.59570
7369.74,0.60282
7363.95,0.60815
7358.16,0.60317
7352.38,0.60900
7346.59,0.60487
7340.8,0.60839
7335.02,0.60080
7329.23,0.59639
7323.45,0.59814
7317.66,0.60498
7311.87,0.59659
7306.09,0.59752
7300.3,0.59803
7294.51,0.60499
7288.73,0.60154
7282.94,0.59776
7277.16,0.59261
7271.37,0.59515
7265.58,0.60494
7259.8,0.60632
7254.01,0.59998
7248.22,0.60332
7242.44,0.60354
7236.65,0.60693
7230.87,0.61296
7225.08,0.61116
7219.29,0.59745
7213.51,0.59454
7207.72,0.60374
7201.93,0.60732
7196.15,0.60327
7190.36,0.60794
7184.58,0.60940
7178.79,0.60004
7173,0.61075
7167.22,0.60901
7161.43,0.60182
7155.65,0.60416
7149.86,0.60369
7144.07,0.59788
7138.29,0.59823
7132.5,0.60907
7126.71,0.60078
7120.93,0.60497
7115.14,0.60632
7109.36,0.60751
7103.57,0.60400
7097.78,0.60374
7092,0.60812
7086.21,0.60651
7080.42,0.60883
7074.64,0.60733
7068.85,0.59883
7063.07,0.60351
7057.28,0.60940
7051.49,0.60352
7045.71,0.59937
7039.92,0.60586
7034.13,0.59863
7028.35,0.60146
7022.56,0.60241
7016.78,0.60822
7010.99,0.60437
7005.2,0.60658
6999.42,0.60428
6993.63,0.60729
6987.84,0.61488
6982.06,0.60443
6976.27,0.61062
6970.49,0.60655
6964.7,0.60817
6958.91,0.60473
6953.13,0.60999
6947.34,0.61159
6941.55,0.61047
6935.77,0.61365
6929.98,0.61053
6924.2,0.60928
6918.41,0.61400
6912.62,0.61067
6906.84,0.60528
6901.05,0.60707
6895.26,0.61432
6889.48,0.61470
6883.69,0.61418
6877.91,0.61356
6872.12,0.60661
6866.33,0.61250
6860.55,0.61199
6854.76,0.61323
6848.97,0.61617
6843.19,0.61576
6837.4,0.61486
6831.62,0.61625
6825.83,0.61042
6820.04,0.61862
6814.26,0.61547
6808.47,0.62064
6802.68,0.61973
6796.9,0.61143
6791.11,0.61685
6785.33,0.61595
6779.54,0.61273
6773.75,0.61239
6767.97,0.61469
6762.18,0.61743
6756.39,0.61710
6750.61,0.61590
6744.82,0.62093
6739.04,0.61062
6733.25,0.61425
6727.46,0.61733
6721.68,0.61278
6715.89,0.61810
6710.1,0.62111
6704.32,0.62020
6698.53,0.62131
6692.75,0.61756
6686.96,0.62173
6681.17,0.61599
6675.39,0.62189
6669.6,0.61847
6663.82,0.62242
6658.03,0.61831
6652.24,0.61858
6646.46,0.62218
6640.67,0.62266
6634.88,0.62432
6629.1,0.62709
6623.31,0.62374
6617.53,0.62184
6611.74,0.62039
6605.95,0.61895
6600.17,0.62103
6594.38,0.61799
6588.59,0.62107
6582.81,0.61979
6577.02,0.62235
6571.24,0.61741
6565.45,0.62470
6559.66,0.62435
6553.88,0.62630
6548.09,0.62275
6542.3,0.62323
6536.52,0.62993
6530.73,0.62739
6524.95,0.62680
6519.16,0.62432
6513.37,0.62382
6507.59,0.62402
6501.8,0.62338
6496.01,0.62742
6490.23,0.62878
6484.44,0.62571
6478.66,0.62443
6472.87,0.63020
6467.08,0.63050
6461.3,0.62766
6455.51,0.62810
6449.72,0.62650
6443.94,0.62964
6438.15,0.63110
6432.37,0.62840
6426.58,0.62647
6420.79,0.62827
6415.01,0.62998
6409.22,0.62543
6403.43,0.63037
6397.65,0.62902
6391.86,0.63019
6386.08,0.62861
6380.29,0.63126
6374.5,0.63416
6368.72,0.62981
6362.93,0.62793
6357.14,0.63150
6351.36,0.63087
6345.57,0.63348
6339.79,0.62953
6334,0.63399
6328.21,0.62898
6322.43,0.62969
6316.64,0.62940
6310.85,0.62852
6305.07,0.63242
6299.28,0.63142
6293.5,0.63056
6287.71,0.63261
6281.92,0.63537
6276.14,0.63375
6270.35,0.62945
6264.56,0.63162
6258.78,0.63349
6252.99,0.63646
6247.21,0.63241
6241.42,0.63206
6235.63,0.63348
6229.85,0.63049
6224.06,0.63061
6218.27,0.63260
6212.49,0.63405
6206.7,0.63354
6200.92,0.63492
6195.13,0.63650
6189.34,0.63368
6183.56,0.63309
6177.77,0.63199
6171.98,0.63288
6166.2,0.63248
6160.41,0.63340
6154.63,0.63196
6148.84,0.63777
6143.05,0.63673
6137.27,0.63386
6131.48,0.63203
6125.7,0.63404
6119.91,0.63289
6114.12,0.63546
6108.34,0.63859
6102.55,0.63883
6096.76,0.63660
6090.98,0.63773
6085.19,0.63598
6079.41,0.63501
6073.62,0.63652
6067.83,0.63820
6062.05,0.63768
6056.26,0.63468
6050.47,0.63563
6044.69,0.63905
6038.9,0.63818
6033.12,0.64271
6027.33,0.63909
6021.54,0.63993
6015.76,0.63884
6009.97,0.63869
6004.18,0.64145
5998.4,0.63959
5992.61,0.63943
5986.83,0.64208
5981.04,0.63910
5975.25,0.63914
5969.47,0.64173
5963.68,0.64107
5957.89,0.64151
5952.11,0.64364
5946.32,0.64132
5940.54,0.64303
5934.75,0.63820
5928.96,0.64080
5923.18,0.64383
5917.39,0.63905
5911.6,0.64209
5905.82,0.63946
5900.03,0.64120
5894.25,0.64100
5888.46,0.64440
5882.67,0.64296
5876.89,0.64067
5871.1,0.64130
5865.31,0.64327
5859.53,0.63918
5853.74,0.64453
5847.96,0.64517
5842.17,0.64369
5836.38,0.64295
5830.6,0.64403
5824.81,0.64426
5819.02,0.64527
5813.24,0.64247
5807.45,0.64464
5801.67,0.64395
5795.88,0.64719
5790.09,0.64699
5784.31,0.64471
5778.52,0.64825
5772.73,0.64786
5766.95,0.64706
5761.16,0.64603
5755.38,0.64616
5749.59,0.64563
5743.8,0.64598
5738.02,0.64519
5732.23,0.64795
5726.44,0.64643
5720.66,0.64617
5714.87,0.64649
5709.09,0.64906
5703.3,0.64894
5697.51,0.64644
5691.73,0.64694
5685.94,0.64800
5680.15,0.65014
5674.37,0.64876
5668.58,0.64811
5662.8,0.64972
5657.01,0.64588
5651.22,0.64784
5645.44,0.65165
5639.65,0.64952
5633.87,0.65057
5628.08,0.64871
5622.29,0.64929
5616.51,0.65008
5610.72,0.65161
5604.93,0.65136
5599.15,0.65117
5593.36,0.64898
5587.58,0.65102
5581.79,0.65120
5576,0.65297
5570.22,0.65144
5564.43,0.65369
5558.64,0.65249
5552.86,0.65112
5547.07,0.65224
5541.29,0.65107
5535.5,0.65136
5529.71,0.65191
5523.93,0.65267
5518.14,0.65265
5512.35,0.65440
5506.57,0.65269
5500.78,0.65339
5495,0.65413
5489.21,0.65351
5483.42,0.65546
5477.64,0.65691
5471.85,0.65414
5466.06,0.65632
5460.28,0.65548
5454.49,0.65266
5448.71,0.65320
5442.92,0.65520
5437.13,0.65327
5431.35,0.65507
5425.56,0.65369
5419.77,0.65720
5413.99,0.65580
5408.2,0.65595
5402.42,0.65615
5396.63,0.65802
5390.84,0.65611
5385.06,0.65676
5379.27,0.65696
5373.48,0.65575
5367.7,0.65811
5361.91,0.65785
5356.13,0.65734
5350.34,0.65637
5344.55,0.65674
5338.77,0.65686
5332.98,0.65640
5327.19,0.65737
5321.41,0.65719
5315.62,0.65698
5309.84,0.65711
5304.05,0.65680
5298.26,0.65731
5292.48,0.65794
5286.69,0.65524
5280.9,0.65664
5275.12,0.65667
5269.33,0.65386
5263.55,0.65294
5257.76,0.65527
5251.97,0.65292
5246.19,0.65200
5240.4,0.65174
5234.61,0.65031
5228.83,0.65183
5223.04,0.65225
5217.26,0.65139
5211.47,0.65161
5205.68,0.64729
5199.9,0.64977
5194.11,0.64902
5188.32,0.65025
5182.54,0.64903
5176.75,0.64974
5170.97,0.65082
5165.18,0.64906
5159.39,0.64806
5153.61,0.64906
5147.82,0.65048
5142.03,0.64921
5136.25,0.65025
5130.46,0.64967
5124.68,0.65046
5118.89,0.65036
5113.1,0.65072
5107.32,0.65235
5101.53,0.65291
5095.75,0.65108
5089.96,0.65304
5084.17,0.65295
5078.39,0.65209
5072.6,0.65328
5066.81,0.65344
5061.03,0.65403
5055.24,0.65552
5049.46,0.65477
5043.67,0.65491
5037.88,0.65688
5032.1,0.65611
5026.31,0.65690
5020.52,0.65571
5014.74,0.65520
5008.95,0.65632
5003.17,0.65655
4997.38,0.65809
4991.59,0.65963
4985.81,0.65986
4980.02,0.65924
4974.23,0.65933
4968.45,0.65959
4962.66,0.66085
4956.88,0.66108
4951.09,0.66013
4945.3,0.65991
4939.52,0.66074
4933.73,0.66235
4927.94,0.66244
4922.16,0.66208
4916.37,0.66223
4910.59,0.66239
4904.8,0.66310
4899.01,0.66316
4893.23,0.66275
4887.44,0.66337
4881.65,0.66415
4875.87,0.66534
4870.08,0.66327
4864.3,0.66478
4858.51,0.66544
4852.72,0.66535
4846.94,0.66612
4841.15,0.66527
4835.36,0.66505
4829.58,0.66586
4823.79,0.66552
4818.01,0.66594
4812.22,0.66637
4806.43,0.66720
4800.65,0.66652
4794.86,0.66540
4789.07,0.66705
4783.29,0.66662
4777.5,0.66680
4771.72,0.66710
4765.93,0.66694
4760.14,0.66836
4754.36,0.66724
4748.57,0.66773
4742.78,0.66760
4737,0.66735
4731.21,0.66805
4725.43,0.66785
4719.64,0.66869
4713.85,0.66718
4708.07,0.66696
4702.28,0.66561
4696.49,0.66710
4690.71,0.66647
4684.92,0.66604
4679.14,0.66633
4673.35,0.66519
4667.56,0.66575
4661.78,0.66430
4655.99,0.66484
4650.2,0.66482
4644.42,0.66405
4638.63,0.66357
4632.85,0.66309
4627.06,0.66374
4621.27,0.66221
4615.49,0.66138
4609.7,0.66100
4603.92,0.66107
4598.13,0.66066
4592.34,0.66125
4586.56,0.66173
4580.77,0.66138
4574.98,0.66116
4569.2,0.66060
4563.41,0.66084
4557.63,0.66041
4551.84,0.66087
4546.05,0.66020
4540.27,0.66088
4534.48,0.66076
4528.69,0.66013
4522.91,0.66072
4517.12,0.66060
4511.34,0.66139
4505.55,0.66014
4499.76,0.66078
4493.98,0.66075
4488.19,0.66146
4482.4,0.66120
4476.62,0.66166
4470.83,0.66066
4465.05,0.66179
4459.26,0.66226
4453.47,0.66237
4447.69,0.66205
4441.9,0.66206
4436.11,0.66190
4430.33,0.66266
4424.54,0.66283
4418.76,0.66250
4412.97,0.66245
4407.18,0.66151
4401.4,0.66213
4395.61,0.66175
4389.82,0.66158
4384.04,0.66099
4378.25,0.65999
4372.47,0.66089
4366.68,0.65956
4360.89,0.65934
4355.11,0.65930
4349.32,0.65846
4343.53,0.65819
4337.75,0.65794
4331.96,0.65792
4326.18,0.65639
4320.39,0.65772
4314.6,0.65788
4308.82,0.65701
4303.03,0.65757
4297.24,0.65793
4291.46,0.65715
4285.67,0.65646
4279.89,0.65705
4274.1,0.65730
4268.31,0.65707
4262.53,0.65655
4256.74,0.65763
4250.95,0.65618
4245.17,0.65617
4239.38,0.65562
4233.6,0.65526
4227.81,0.65555
4222.02,0.65433
4216.24,0.65431
4210.45,0.65463
4204.66,0.65436
4198.88,0.65378
4193.09,0.65436
4187.31,0.65411
4181.52,0.65379
4175.73,0.65397
4169.95,0.65298
4164.16,0.65181
4158.37,0.65259
4152.59,0.65303
4146.8,0.65228
4141.02,0.65192
4135.23,0.65171
4129.44,0.65162
4123.66,0.65053
4117.87,0.65146
4112.09,0.64966
4106.3,0.65001
4100.51,0.64890
4094.73,0.64783
4088.94,0.64771
4083.15,0.64726
4077.37,0.64612
4071.58,0.64606
4065.8,0.64523
4060.01,0.64573
4054.22,0.64505
4048.44,0.64348
4042.65,0.64381
4036.86,0.64382
4031.08,0.64248
4025.29,0.64256
4019.51,0.64117
4013.72,0.64112
4007.93,0.64139
4002.15,0.64121
3996.36,0.64050
3990.57,0.64056
3984.79,0.64070
3979,0.63896
3973.22,0.63854
3967.43,0.63890
3961.64,0.63836
3955.86,0.63773
3950.07,0.63783
3944.28,0.63797
3938.5,0.63694
3932.71,0.63646
3926.93,0.63686
3921.14,0.63569
3915.35,0.63621
3909.57,0.63641
3903.78,0.63653
3897.99,0.63576
3892.21,0.63565
3886.42,0.63597
3880.64,0.63556
3874.85,0.63536
3869.06,0.63477
3863.28,0.63463
3857.49,0.63420
3851.7,0.63085
3845.92,0.63261
3840.13,0.63200
3834.35,0.63061
3828.56,0.62995
3822.77,0.62863
3816.99,0.62663
3811.2,0.62735
3805.41,0.62521
3799.63,0.62299
3793.84,0.62199
3788.06,0.62027
3782.27,0.61729
3776.48,0.61422
3770.7,0.61095
3764.91,0.60735
3759.12,0.60192
3753.34,0.59619
3747.55,0.58852
3741.77,0.57922
3735.98,0.56919
3730.19,0.55439
3724.41,0.53669
3718.62,0.51354
3712.83,0.48697
3707.05,0.45240
3701.26,0.41684
3695.48,0.38088
3689.69,0.34548
3683.9,0.30814
3678.12,0.27372
3672.33,0.23778
3666.54,0.20373
3660.76,0.17531
3654.97,0.14950
3649.19,0.12761
3643.4,0.11035
3637.61,0.09645
3631.83,0.08715
3626.04,0.07802
3620.25,0.07282
3614.47,0.06832
3608.68,0.06444
3602.9,0.06217
3597.11,0.06034
3591.32,0.05827
3585.54,0.05694
3579.75,0.05613
3573.97,0.05402
3568.18,0.05406
3562.39,0.05350
3556.61,0.05232
3550.82,0.05251
3545.03,0.05144
3539.25,0.05190
3533.46,0.05150
3527.68,0.05128
3521.89,0.05034
3516.1,0.05075
3510.32,0.05012
3504.53,0.04973
3498.74,0.05016
3492.96,0.04973
3487.17,0.04930
3481.39,0.04988
3475.6,0.04944
3469.81,0.04936
3464.03,0.04985
3458.24,0.04969
3452.45,0.04979
3446.67,0.04966
3440.88,0.04992
3435.1,0.04942
3429.31,0.04983
3423.52,0.04993
3417.74,0.04982
3411.95,0.04979
3406.16,0.05015
3400.38,0.04952
3394.59,0.05094
3388.81,0.05085
3383.02,0.05048
3377.23,0.05064
3371.45,0.05088
3365.66,0.05085
3359.87,0.05080
3354.09,0.05195
3348.3,0.05106
3342.52,0.05112
3336.73,0.05137
3330.94,0.05157
3325.16,0.05179
3319.37,0.05195
3313.58,0.05150
3307.8,0.05243
3302.01,0.05225
3296.23,0.05271
3290.44,0.05318
3284.65,0.05336
3278.87,0.05347
3273.08,0.05414
3267.29,0.05452
3261.51,0.05463
3255.72,0.05489
3249.94,0.05554
3244.15,0.05610
3238.36,0.05690
3232.58,0.05695
3226.79,0.05749
3221,0.05793
3215.22,0.05864
3209.43,0.05941
3203.65,0.06058
3197.86,0.06077
3192.07,0.06164
3186.29,0.06259
3180.5,0.06286
3174.71,0.06386
3168.93,0.06423
3163.14,0.06529
3157.36,0.06642
3151.57,0.06696
3145.78,0.06821
3140,0.06844
3134.21,0.06994
3128.42,0.07084
3122.64,0.07243
3116.85,0.07404
3111.07,0.07555
3105.28,0.07686
3099.49,0.07875
3093.71,0.08069
3087.92,0.08257
3082.14,0.08409
3076.35,0.08645
3070.56,0.08874
3064.78,0.09103
3058.99,0.09278
3053.2,0.09559
3047.42,0.09750
3041.63,0.09995
3035.85,0.10200
3030.06,0.10393
3024.27,0.10591
3018.49,0.10781
3012.7,0.11036
3006.91,0.11233
3001.13,0.11433
2995.34,0.11730
2989.56,0.11851
2983.77,0.12111
2977.98,0.12357
2972.2,0.12661
2966.41,0.12976
2960.62,0.13338
2954.84,0.13683
2949.05,0.14073
2943.27,0.14487
2937.48,0.14844
2931.69,0.15144
2925.91,0.15547
2920.12,0.15961
2914.33,0.16382
2908.55,0.16811
2902.76,0.17279
2896.98,0.17714
2891.19,0.18090
2885.4,0.18438
2879.62,0.18716
2873.83,0.19029
2868.04,0.19322
2862.26,0.19565
2856.47,0.19834
2850.69,0.20173
2844.9,0.20931
2839.11,0.21539
2833.33,0.22132
2827.54,0.22648
2821.75,0.23134
2815.97,0.23671
2810.18,0.24293
2804.4,0.24982
2798.61,0.25696
2792.82,0.26331
2787.04,0.26914
2781.25,0.27490
2775.46,0.28020
2769.68,0.28556
2763.89,0.28994
2758.11,0.29387
2752.32,0.29806
2746.53,0.30140
2740.75,0.30445
2734.96,0.30786
2729.17,0.31088
2723.39,0.31494
2717.6,0.31821
2711.82,0.32161
2706.03,0.32535
2700.24,0.32976
2694.46,0.33356
2688.67,0.33870
2682.88,0.34348
2677.1,0.34811
2671.31,0.35278
2665.53,0.35782
2659.74,0.36276
2653.95,0.36709
2648.17,0.37099
2642.38,0.37432
2636.59,0.37713
2630.81,0.37931
2625.02,0.38075
2619.24,0.38202
2613.45,0.38284
2607.66,0.38293
2601.88,0.38299
2596.09,0.38277
2590.3,0.38258
2584.52,0.38220
2578.73,0.38221
2572.95,0.38234
2567.16,0.38217
2561.37,0.38286
2555.59,0.38355
2549.8,0.38459
2544.02,0.38621
2538.23,0.38758
2532.44,0.38912
2526.66,0.38992
2520.87,0.39089
2515.08,0.39328
2509.3,0.39409
2503.51,0.39552
2497.73,0.39639
2491.94,0.39724
2486.15,0.39771
2480.37,0.39750
2474.58,0.39660
2468.79,0.39564
2463.01,0.39446
2457.22,0.39252
2451.44,0.39072
2445.65,0.38921
2439.86,0.38811
2434.08,0.38699
2428.29,0.38703
2422.5,0.38710
2416.72,0.38766
2410.93,0.38943
2405.15,0.39120
2399.36,0.39366
2393.57,0.39677
2387.79,0.39953
2382,0.40258
2376.21,0.40512
2370.43,0.40744
2364.64,0.40924
2358.86,0.41109
2353.07,0.41203
2347.28,0.41240
2341.5,0.41190
2335.71,0.41131
2329.92,0.41012
2324.14,0.40849
2318.35,0.40686
2312.57,0.40480
2306.78,0.40276
2300.99,0.40132
2295.21,0.40011
2289.42,0.39902
2283.63,0.39899
2277.85,0.39914
2272.06,0.40062
2266.28,0.40182
2260.49,0.40419
2254.7,0.40685
2248.92,0.40951
2243.13,0.41183
2237.34,0.41471
2231.56,0.41662
2225.77,0.41820
2219.99,0.41910
2214.2,0.41929
2208.41,0.41832
2202.63,0.41671
2196.84,0.41458
2191.05,0.41201
2185.27,0.40884
2179.48,0.40530
2173.7,0.40145
2167.91,0.39797
2162.12,0.39513
2156.34,0.39273
2150.55,0.38996
2144.76,0.38933
2138.98,0.38968
2133.19,0.39085
2127.41,0.39297
2121.62,0.39666
2115.83,0.40091
2110.05,0.40507
2104.26,0.40912
2098.47,0.41338
2092.69,0.41705
2086.9,0.42028
2081.12,0.42264
2075.33,0.42417
2069.54,0.42472
2063.76,0.42441
2057.97,0.42370
2052.19,0.42207
2046.4,0.41985
2040.61,0.41727
2034.83,0.41483
2029.04,0.41259
2023.25,0.41109
2017.47,0.41038
2011.68,0.41034
2005.9,0.41070
2000.11,0.41322
1994.32,0.41612
1988.54,0.42012
1982.75,0.42497
1976.96,0.43012
1971.18,0.43548
1965.39,0.44069
1959.61,0.44519
1953.82,0.44955
1948.03,0.45348
1942.25,0.45577
1936.46,0.45685
1930.67,0.45673
1924.89,0.45500
1919.1,0.45235
1913.32,0.44883
1907.53,0.44470
1901.74,0.44049
1895.96,0.43604
1890.17,0.43198
1884.38,0.42903
1878.6,0.42717
1872.81,0.42598
1867.03,0.42642
1861.24,0.42780
1855.45,0.43055
1849.67,0.43434
1843.88,0.43815
1838.09,0.44311
1832.31,0.44717
1826.52,0.45070
1820.74,0.45367
1814.95,0.45520
1809.16,0.45463
1803.38,0.45141
1797.59,0.44616
1791.8,0.44088
1786.02,0.43634
1780.23,0.42955
1774.45,0.42008
1768.66,0.40957
1762.87,0.39888
1757.09,0.38632
1751.3,0.37282
1745.51,0.35892
1739.73,0.34656
1733.94,0.33274
1728.16,0.31246
1722.37,0.28906
1716.58,0.28024
1710.8,0.27272
1705.01,0.24529
1699.22,0.22043
1693.44,0.21145
1687.65,0.21176
1681.87,0.21447
1676.08,0.21429
1670.29,0.20888
1664.51,0.19899
1658.72,0.18726
1652.93,0.17311
1647.15,0.15931
1641.36,0.14605
1635.58,0.13398
1629.79,0.12318
1624,0.11477
1618.22,0.10895
1612.43,0.10587
1606.64,0.10792
1600.86,0.11386
1595.07,0.12233
1589.29,0.12996
1583.5,0.13816
1577.71,0.14864
1571.93,0.16333
1566.14,0.18269
1560.35,0.20230
1554.57,0.22373
1548.78,0.23836
1543,0.24747
1537.21,0.25297
1531.42,0.25436
1525.64,0.25012
1519.85,0.24200
1514.07,0.23073
1508.28,0.22091
1502.49,0.21164
1496.71,0.20448
1490.92,0.19666
1485.13,0.19031
1479.35,0.18608
1473.56,0.18376
1467.78,0.18392
1461.99,0.18876
1456.2,0.19785
1450.42,0.20936
1444.63,0.21937
1438.84,0.22094
1433.06,0.21667
1427.27,0.21454
1421.49,0.21208
1415.7,0.20472
1409.91,0.19302
1404.13,0.17678
1398.34,0.15446
1392.55,0.12931
1386.77,0.10640
1380.98,0.08808
1375.2,0.07576
1369.41,0.06775
1363.62,0.06255
1357.84,0.05842
1352.05,0.05541
1346.26,0.05276
1340.48,0.05020
1334.69,0.04742
1328.91,0.04431
1323.12,0.04117
1317.33,0.03825
1311.55,0.03494
1305.76,0.03161
1299.97,0.02850
1294.19,0.02559
1288.4,0.02382
1282.62,0.02275
1276.83,0.02273
1271.04,0.02263
1265.26,0.02373
1259.47,0.02416
1253.68,0.02403
1247.9,0.02429
1242.11,0.02426
1236.33,0.02445
1230.54,0.02406
1224.75,0.02371
1218.97,0.02398
1213.18,0.02359
1207.39,0.02366
1201.61,0.02357
1195.82,0.02411
1190.04,0.02450
1184.25,0.02537
1178.46,0.02582
1172.68,0.02637
1166.89,0.02704
1161.1,0.02739
1155.32,0.02856
1149.53,0.02910
1143.75,0.03039
1137.96,0.03027
1132.17,0.03078
1126.39,0.03145
1120.6,0.03149
1114.81,0.03168
1109.03,0.03192
1103.24,0.03197
1097.46,0.03201
1091.67,0.03190
1085.88,0.03114
1080.1,0.03078
1074.31,0.03105
1068.52,0.03005
1062.74,0.02943
1056.95,0.02982
1051.17,0.02960
1045.38,0.02872
1039.59,0.02830
1033.81,0.02797
1028.02,0.02718
1022.24,0.02617
1016.45,0.02483
1010.66,0.02422
1004.88,0.02261
999.09,0.02239
993.304,0.02209
987.518,0.02175
981.731,0.02199
975.945,0.02348
970.159,0.02368
964.373,0.02525
958.586,0.02777
952.8,0.03084
947.014,0.03432
941.228,0.03901
935.441,0.04302
929.655,0.04824
923.869,0.05269
918.083,0.05737
912.297,0.06227
906.51,0.06735
900.724,0.07287
894.938,0.07742
889.152,0.08178
883.365,0.08490
877.579,0.08992
871.793,0.09374
866.007,0.09844
860.22,0.10276
854.434,0.10701
848.648,0.11106
842.862,0.11513
837.075,0.11861
831.289,0.12240
825.503,0.12503
819.717,0.12753
813.931,0.13093
808.144,0.13351
802.358,0.13674
796.572,0.13710
790.786,0.13855
784.999,0.14088
779.213,0.14217
773.427,0.14339
767.641,0.14483
761.854,0.14639
756.068,0.14716
750.282,0.14837
744.496,0.15092
738.709,0.15220
732.923,0.15268
727.137,0.15428
721.351,0.15601
715.565,0.15641
709.778,0.15750
703.992,0.15932
698.206,0.16137
692.42,0.16224
686.633,0.16299
680.847,0.16545
675.061,0.16609
669.275,0.16654
663.488,0.16707
657.702,0.16842
651.916,0.16876
646.13,0.17065
640.343,0.17088
634.557,0.17099
628.771,0.17359
622.985,0.17349
617.198,0.17500
611.412,0.17239
605.626,0.17627
599.84,0.17603