File: 01_Data/Laminate_Flooring/FTIR/IS/Laminate_Flooring_IS_S_221003_R6.dpt
7497.03,0.60299
7491.25,0.60170
7485.46,0.60979
7479.67,0.59227
7473.89,0.60388
7468.1,0.61245
7462.32,0.60834
7456.53,0.59548
7450.74,0.59982
7444.96,0.59877
7439.17,0.60600
7433.38,0.59925
7427.6,0.59824
7421.81,0.59864
7416.03,0.61126
7410.24,0.60417
7404.45,0.60515
7398.67,0.60167
7392.88,0.60614
7387.09,0.59887
7381.31,0.61404
7375.52,0.60670
7369.74,0.59342
7363.95,0.60229
7358.16,0.59774
7352.38,0.60680
7346.59,0.59867
7340.8,0.59927
7335.02,0.60664
7329.23,0.60003
7323.45,0.61102
7317.66,0.59976
7311.87,0.60435
7306.09,0.59478
7300.3,0.59786
7294.51,0.60577
7288.73,0.60282
7282.94,0.60310
7277.16,0.60258
7271.37,0.59703
7265.58,0.59992
7259.8,0.60167
7254.01,0.60437
7248.22,0.59522
7242.44,0.59581
7236.65,0.59611
7230.87,0.60088
7225.08,0.60549
7219.29,0.61165
7213.51,0.60841
7207.72,0.60017
7201.93,0.60255
7196.15,0.60241
7190.36,0.59669
7184.58,0.60305
7178.79,0.60158
7173,0.60264
7167.22,0.60333
7161.43,0.60559
7155.65,0.60127
7149.86,0.60362
7144.07,0.59953
7138.29,0.60715
7132.5,0.61827
7126.71,0.60191
7120.93,0.60125
7115.14,0.60648
7109.36,0.60674
7103.57,0.61017
7097.78,0.59944
7092,0.60032
7086.21,0.61279
7080.42,0.60602
7074.64,0.60721
7068.85,0.60627
7063.07,0.60561
7057.28,0.60610
7051.49,0.61077
7045.71,0.60668
7039.92,0.60284
7034.13,0.60871
7028.35,0.60601
7022.56,0.61215
7016.78,0.60794
7010.99,0.60619
7005.2,0.60767
6999.42,0.60215
6993.63,0.61095
6987.84,0.60623
6982.06,0.60973
6976.27,0.60856
6970.49,0.61132
6964.7,0.61451
6958.91,0.60967
6953.13,0.61150
6947.34,0.61320
6941.55,0.61003
6935.77,0.60761
6929.98,0.61644
6924.2,0.61191
6918.41,0.61467
6912.62,0.60998
6906.84,0.60622
6901.05,0.61106
6895.26,0.61084
6889.48,0.61135
6883.69,0.61678
6877.91,0.61038
6872.12,0.61333
6866.33,0.61830
6860.55,0.61628
6854.76,0.61629
6848.97,0.62299
6843.19,0.61523
6837.4,0.60962
6831.62,0.61658
6825.83,0.61680
6820.04,0.61790
6814.26,0.61563
6808.47,0.61562
6802.68,0.61298
6796.9,0.61507
6791.11,0.61888
6785.33,0.61630
6779.54,0.62042
6773.75,0.62347
6767.97,0.61631
6762.18,0.61384
6756.39,0.61760
6750.61,0.62354
6744.82,0.61856
6739.04,0.62277
6733.25,0.61975
6727.46,0.62211
6721.68,0.62307
6715.89,0.62158
6710.1,0.62469
6704.32,0.62015
6698.53,0.61584
6692.75,0.62333
6686.96,0.62036
6681.17,0.62046
6675.39,0.62014
6669.6,0.62926
6663.82,0.61990
6658.03,0.62246
6652.24,0.61948
6646.46,0.61923
6640.67,0.62231
6634.88,0.62397
6629.1,0.62734
6623.31,0.62358
6617.53,0.62839
6611.74,0.62305
6605.95,0.62612
6600.17,0.62601
6594.38,0.62502
6588.59,0.62529
6582.81,0.62994
6577.02,0.62912
6571.24,0.62744
6565.45,0.62484
6559.66,0.62952
6553.88,0.62945
6548.09,0.62619
6542.3,0.62925
6536.52,0.62401
6530.73,0.62560
6524.95,0.62611
6519.16,0.63163
6513.37,0.62428
6507.59,0.63128
6501.8,0.63244
6496.01,0.62968
6490.23,0.62784
6484.44,0.62595
6478.66,0.62446
6472.87,0.63133
6467.08,0.62837
6461.3,0.62649
6455.51,0.63344
6449.72,0.62997
6443.94,0.63461
6438.15,0.63253
6432.37,0.63194
6426.58,0.62913
6420.79,0.62601
6415.01,0.62876
6409.22,0.63126
6403.43,0.63077
6397.65,0.63487
6391.86,0.62885
6386.08,0.63015
6380.29,0.63185
6374.5,0.63160
6368.72,0.63093
6362.93,0.63022
6357.14,0.63039
6351.36,0.63238
6345.57,0.63320
6339.79,0.63110
6334,0.63448
6328.21,0.63268
6322.43,0.63111
6316.64,0.63148
6310.85,0.63300
6305.07,0.62793
6299.28,0.63450
6293.5,0.63517
6287.71,0.63712
6281.92,0.63469
6276.14,0.63649
6270.35,0.63000
6264.56,0.63618
6258.78,0.63091
6252.99,0.63532
6247.21,0.63305
6241.42,0.63211
6235.63,0.63399
6229.85,0.63635
6224.06,0.63688
6218.27,0.63586
6212.49,0.63550
6206.7,0.63469
6200.92,0.63772
6195.13,0.63424
6189.34,0.63653
6183.56,0.63641
6177.77,0.63721
6171.98,0.63598
6166.2,0.63878
6160.41,0.63689
6154.63,0.63944
6148.84,0.63476
6143.05,0.63784
6137.27,0.63740
6131.48,0.63958
6125.7,0.63819
6119.91,0.63887
6114.12,0.63634
6108.34,0.63634
6102.55,0.63749
6096.76,0.63717
6090.98,0.63705
6085.19,0.63807
6079.41,0.63752
6073.62,0.63691
6067.83,0.63997
6062.05,0.63664
6056.26,0.63863
6050.47,0.64143
6044.69,0.63876
6038.9,0.63972
6033.12,0.63919
6027.33,0.63992
6021.54,0.64092
6015.76,0.63806
6009.97,0.64200
6004.18,0.64289
5998.4,0.64198
5992.61,0.63907
5986.83,0.64402
5981.04,0.64298
5975.25,0.64427
5969.47,0.64189
5963.68,0.64221
5957.89,0.64497
5952.11,0.64114
5946.32,0.63823
5940.54,0.64130
5934.75,0.64342
5928.96,0.64451
5923.18,0.64212
5917.39,0.64501
5911.6,0.64292
5905.82,0.64413
5900.03,0.64695
5894.25,0.64599
5888.46,0.64498
5882.67,0.64454
5876.89,0.64433
5871.1,0.64320
5865.31,0.64468
5859.53,0.64451
5853.74,0.64582
5847.96,0.64453
5842.17,0.64394
5836.38,0.64195
5830.6,0.64507
5824.81,0.64584
5819.02,0.64615
5813.24,0.64320
5807.45,0.64439
5801.67,0.64603
5795.88,0.64565
5790.09,0.64816
5784.31,0.64529
5778.52,0.64291
5772.73,0.64788
5766.95,0.64718
5761.16,0.64783
5755.38,0.65024
5749.59,0.64934
5743.8,0.64969
5738.02,0.64893
5732.23,0.64939
5726.44,0.64819
5720.66,0.64797
5714.87,0.64927
5709.09,0.64995
5703.3,0.64795
5697.51,0.65025
5691.73,0.65284
5685.94,0.65032
5680.15,0.64858
5674.37,0.64724
5668.58,0.64779
5662.8,0.65198
5657.01,0.65200
5651.22,0.64984
5645.44,0.65221
5639.65,0.65126
5633.87,0.65122
5628.08,0.65255
5622.29,0.65167
5616.51,0.65189
5610.72,0.65171
5604.93,0.65191
5599.15,0.65035
5593.36,0.65122
5587.58,0.65269
5581.79,0.65382
5576,0.65273
5570.22,0.65442
5564.43,0.65420
5558.64,0.65613
5552.86,0.65617
5547.07,0.65439
5541.29,0.65277
5535.5,0.65351
5529.71,0.65524
5523.93,0.65455
5518.14,0.65497
5512.35,0.65556
5506.57,0.65671
5500.78,0.65460
5495,0.65610
5489.21,0.65705
5483.42,0.65781
5477.64,0.65612
5471.85,0.65598
5466.06,0.65674
5460.28,0.65766
5454.49,0.65674
5448.71,0.65682
5442.92,0.65680
5437.13,0.65769
5431.35,0.65762
5425.56,0.65836
5419.77,0.65773
5413.99,0.65899
5408.2,0.65662
5402.42,0.65875
5396.63,0.65971
5390.84,0.65915
5385.06,0.65873
5379.27,0.65805
5373.48,0.65797
5367.7,0.65897
5361.91,0.65891
5356.13,0.65961
5350.34,0.66033
5344.55,0.65701
5338.77,0.65969
5332.98,0.65879
5327.19,0.66184
5321.41,0.66169
5315.62,0.65946
5309.84,0.65793
5304.05,0.65842
5298.26,0.65833
5292.48,0.65825
5286.69,0.65758
5280.9,0.65708
5275.12,0.65691
5269.33,0.65718
5263.55,0.65771
5257.76,0.65507
5251.97,0.65516
5246.19,0.65515
5240.4,0.65463
5234.61,0.65487
5228.83,0.65365
5223.04,0.65470
5217.26,0.65304
5211.47,0.65174
5205.68,0.65254
5199.9,0.65321
5194.11,0.65138
5188.32,0.65083
5182.54,0.65078
5176.75,0.65253
5170.97,0.65240
5165.18,0.65179
5159.39,0.65175
5153.61,0.65184
5147.82,0.65155
5142.03,0.65244
5136.25,0.65310
5130.46,0.65295
5124.68,0.65331
5118.89,0.65320
5113.1,0.65269
5107.32,0.65376
5101.53,0.65298
5095.75,0.65356
5089.96,0.65618
5084.17,0.65512
5078.39,0.65609
5072.6,0.65574
5066.81,0.65748
5061.03,0.65638
5055.24,0.65718
5049.46,0.65706
5043.67,0.65813
5037.88,0.65697
5032.1,0.65811
5026.31,0.65797
5020.52,0.65839
5014.74,0.65926
5008.95,0.65947
5003.17,0.65969
4997.38,0.65962
4991.59,0.66051
4985.81,0.66045
4980.02,0.66088
4974.23,0.66238
4968.45,0.66275
4962.66,0.66307
4956.88,0.66354
4951.09,0.66468
4945.3,0.66367
4939.52,0.66375
4933.73,0.66373
4927.94,0.66438
4922.16,0.66321
4916.37,0.66501
4910.59,0.66598
4904.8,0.66504
4899.01,0.66627
4893.23,0.66492
4887.44,0.66531
4881.65,0.66607
4875.87,0.66638
4870.08,0.66604
4864.3,0.66622
4858.51,0.66629
4852.72,0.66670
4846.94,0.66766
4841.15,0.66668
4835.36,0.66869
4829.58,0.66790
4823.79,0.66677
4818.01,0.66902
4812.22,0.66855
4806.43,0.66932
4800.65,0.66851
4794.86,0.66908
4789.07,0.66938
4783.29,0.66933
4777.5,0.66831
4771.72,0.66894
4765.93,0.66884
4760.14,0.66857
4754.36,0.66900
4748.57,0.67060
4742.78,0.66872
4737,0.66912
4731.21,0.66896
4725.43,0.66996
4719.64,0.66910
4713.85,0.66983
4708.07,0.66886
4702.28,0.66788
4696.49,0.66855
4690.71,0.66848
4684.92,0.66740
4679.14,0.66714
4673.35,0.66811
4667.56,0.66700
4661.78,0.66673
4655.99,0.66510
4650.2,0.66578
4644.42,0.66529
4638.63,0.66417
4632.85,0.66435
4627.06,0.66448
4621.27,0.66388
4615.49,0.66346
4609.7,0.66448
4603.92,0.66282
4598.13,0.66312
4592.34,0.66321
4586.56,0.66293
4580.77,0.66337
4574.98,0.66236
4569.2,0.66328
4563.41,0.66298
4557.63,0.66265
4551.84,0.66287
4546.05,0.66286
4540.27,0.66284
4534.48,0.66202
4528.69,0.66233
4522.91,0.66183
4517.12,0.66165
4511.34,0.66308
4505.55,0.66239
4499.76,0.66261
4493.98,0.66287
4488.19,0.66176
4482.4,0.66218
4476.62,0.66225
4470.83,0.66319
4465.05,0.66367
4459.26,0.66461
4453.47,0.66417
4447.69,0.66447
4441.9,0.66406
4436.11,0.66393
4430.33,0.66371
4424.54,0.66388
4418.76,0.66444
4412.97,0.66356
4407.18,0.66408
4401.4,0.66531
4395.61,0.66317
4389.82,0.66322
4384.04,0.66383
4378.25,0.66355
4372.47,0.66300
4366.68,0.66122
4360.89,0.66116
4355.11,0.66159
4349.32,0.66082
4343.53,0.66093
4337.75,0.65938
4331.96,0.65931
4326.18,0.65921
4320.39,0.65950
4314.6,0.66051
4308.82,0.65984
4303.03,0.66018
4297.24,0.65998
4291.46,0.65937
4285.67,0.65936
4279.89,0.65852
4274.1,0.65839
4268.31,0.65872
4262.53,0.65879
4256.74,0.65790
4250.95,0.65846
4245.17,0.65852
4239.38,0.65844
4233.6,0.65733
4227.81,0.65703
4222.02,0.65715
4216.24,0.65632
4210.45,0.65632
4204.66,0.65657
4198.88,0.65631
4193.09,0.65713
4187.31,0.65678
4181.52,0.65632
4175.73,0.65559
4169.95,0.65551
4164.16,0.65527
4158.37,0.65529
4152.59,0.65475
4146.8,0.65433
4141.02,0.65404
4135.23,0.65437
4129.44,0.65373
4123.66,0.65317
4117.87,0.65244
4112.09,0.65237
4106.3,0.65265
4100.51,0.65161
4094.73,0.65090
4088.94,0.65068
4083.15,0.65013
4077.37,0.64891
4071.58,0.64786
4065.8,0.64822
4060.01,0.64775
4054.22,0.64683
4048.44,0.64669
4042.65,0.64639
4036.86,0.64566
4031.08,0.64576
4025.29,0.64508
4019.51,0.64447
4013.72,0.64416
4007.93,0.64381
4002.15,0.64373
3996.36,0.64262
3990.57,0.64285
3984.79,0.64266
3979,0.64241
3973.22,0.64192
3967.43,0.64148
3961.64,0.64162
3955.86,0.64117
3950.07,0.64087
3944.28,0.63999
3938.5,0.64022
3932.71,0.63919
3926.93,0.63990
3921.14,0.63955
3915.35,0.63868
3909.57,0.64002
3903.78,0.63873
3897.99,0.63797
3892.21,0.63884
3886.42,0.63918
3880.64,0.63824
3874.85,0.63740
3869.06,0.63716
3863.28,0.63734
3857.49,0.63733
3851.7,0.63463
3845.92,0.63657
3840.13,0.63477
3834.35,0.63484
3828.56,0.63321
3822.77,0.63267
3816.99,0.63055
3811.2,0.62996
3805.41,0.62859
3799.63,0.62635
3793.84,0.62505
3788.06,0.62334
3782.27,0.62082
3776.48,0.61801
3770.7,0.61462
3764.91,0.60982
3759.12,0.60505
3753.34,0.59904
3747.55,0.58983
3741.77,0.58020
3735.98,0.57024
3730.19,0.55540
3724.41,0.53732
3718.62,0.51362
3712.83,0.48508
3707.05,0.45013
3701.26,0.41563
3695.48,0.37896
3689.69,0.34283
3683.9,0.30617
3678.12,0.27167
3672.33,0.23473
3666.54,0.20262
3660.76,0.17369
3654.97,0.14895
3649.19,0.12807
3643.4,0.11087
3637.61,0.09749
3631.83,0.08822
3626.04,0.07921
3620.25,0.07360
3614.47,0.06918
3608.68,0.06537
3602.9,0.06225
3597.11,0.06014
3591.32,0.05869
3585.54,0.05729
3579.75,0.05630
3573.97,0.05488
3568.18,0.05428
3562.39,0.05340
3556.61,0.05277
3550.82,0.05275
3545.03,0.05251
3539.25,0.05194
3533.46,0.05107
3527.68,0.05130
3521.89,0.05051
3516.1,0.05091
3510.32,0.05025
3504.53,0.05017
3498.74,0.05004
3492.96,0.05014
3487.17,0.05010
3481.39,0.04979
3475.6,0.05029
3469.81,0.04973
3464.03,0.04914
3458.24,0.04970
3452.45,0.04961
3446.67,0.04980
3440.88,0.05025
3435.1,0.04977
3429.31,0.04961
3423.52,0.04972
3417.74,0.04992
3411.95,0.05057
3406.16,0.05072
3400.38,0.05046
3394.59,0.05077
3388.81,0.05105
3383.02,0.05036
3377.23,0.05071
3371.45,0.05006
3365.66,0.05138
3359.87,0.05151
3354.09,0.05183
3348.3,0.05239
3342.52,0.05193
3336.73,0.05264
3330.94,0.05243
3325.16,0.05191
3319.37,0.05202
3313.58,0.05262
3307.8,0.05294
3302.01,0.05302
3296.23,0.05318
3290.44,0.05299
3284.65,0.05426
3278.87,0.05472
3273.08,0.05469
3267.29,0.05509
3261.51,0.05573
3255.72,0.05668
3249.94,0.05640
3244.15,0.05671
3238.36,0.05719
3232.58,0.05833
3226.79,0.05858
3221,0.05968
3215.22,0.06023
3209.43,0.06051
3203.65,0.06157
3197.86,0.06176
3192.07,0.06318
3186.29,0.06351
3180.5,0.06399
3174.71,0.06520
3168.93,0.06628
3163.14,0.06664
3157.36,0.06739
3151.57,0.06829
3145.78,0.06877
3140,0.06989
3134.21,0.07161
3128.42,0.07252
3122.64,0.07436
3116.85,0.07573
3111.07,0.07737
3105.28,0.07896
3099.49,0.08053
3093.71,0.08294
3087.92,0.08480
3082.14,0.08691
3076.35,0.08918
3070.56,0.09160
3064.78,0.09404
3058.99,0.09615
3053.2,0.09836
3047.42,0.10043
3041.63,0.10222
3035.85,0.10468
3030.06,0.10664
3024.27,0.10914
3018.49,0.11110
3012.7,0.11300
3006.91,0.11508
3001.13,0.11713
2995.34,0.11919
2989.56,0.12139
2983.77,0.12432
2977.98,0.12698
2972.2,0.13062
2966.41,0.13320
2960.62,0.13689
2954.84,0.14057
2949.05,0.14444
2943.27,0.14826
2937.48,0.15150
2931.69,0.15461
2925.91,0.15847
2920.12,0.16315
2914.33,0.16771
2908.55,0.17230
2902.76,0.17652
2896.98,0.18082
2891.19,0.18460
2885.4,0.18765
2879.62,0.19069
2873.83,0.19328
2868.04,0.19607
2862.26,0.19835
2856.47,0.20140
2850.69,0.20516
2844.9,0.21266
2839.11,0.21950
2833.33,0.22565
2827.54,0.23093
2821.75,0.23604
2815.97,0.24103
2810.18,0.24729
2804.4,0.25400
2798.61,0.26029
2792.82,0.26692
2787.04,0.27362
2781.25,0.27908
2775.46,0.28421
2769.68,0.28881
2763.89,0.29313
2758.11,0.29742
2752.32,0.30073
2746.53,0.30471
2740.75,0.30822
2734.96,0.31142
2729.17,0.31473
2723.39,0.31787
2717.6,0.32145
2711.82,0.32494
2706.03,0.32892
2700.24,0.33352
2694.46,0.33784
2688.67,0.34289
2682.88,0.34750
2677.1,0.35231
2671.31,0.35733
2665.53,0.36190
2659.74,0.36640
2653.95,0.37111
2648.17,0.37544
2642.38,0.37833
2636.59,0.38090
2630.81,0.38281
2625.02,0.38482
2619.24,0.38578
2613.45,0.38622
2607.66,0.38611
2601.88,0.38606
2596.09,0.38594
2590.3,0.38593
2584.52,0.38572
2578.73,0.38555
2572.95,0.38541
2567.16,0.38590
2561.37,0.38670
2555.59,0.38741
2549.8,0.38909
2544.02,0.39057
2538.23,0.39190
2532.44,0.39238
2526.66,0.39349
2520.87,0.39515
2515.08,0.39648
2509.3,0.39792
2503.51,0.39883
2497.73,0.40004
2491.94,0.40065
2486.15,0.40071
2480.37,0.40044
2474.58,0.39949
2468.79,0.39902
2463.01,0.39704
2457.22,0.39517
2451.44,0.39369
2445.65,0.39249
2439.86,0.39106
2434.08,0.39046
2428.29,0.39023
2422.5,0.39055
2416.72,0.39123
2410.93,0.39299
2405.15,0.39506
2399.36,0.39750
2393.57,0.40086
2387.79,0.40351
2382,0.40661
2376.21,0.40914
2370.43,0.41168
2364.64,0.41339
2358.86,0.41454
2353.07,0.41558
2347.28,0.41609
2341.5,0.41486
2335.71,0.41424
2329.92,0.41308
2324.14,0.41157
2318.35,0.40944
2312.57,0.40741
2306.78,0.40567
2300.99,0.40406
2295.21,0.40325
2289.42,0.40287
2283.63,0.40305
2277.85,0.40323
2272.06,0.40480
2266.28,0.40662
2260.49,0.40896
2254.7,0.41169
2248.92,0.41395
2243.13,0.41657
2237.34,0.41883
2231.56,0.42120
2225.77,0.42269
2219.99,0.42335
2214.2,0.42313
2208.41,0.42212
2202.63,0.42050
2196.84,0.41853
2191.05,0.41503
2185.27,0.41171
2179.48,0.40837
2173.7,0.40491
2167.91,0.40112
2162.12,0.39861
2156.34,0.39631
2150.55,0.39465
2144.76,0.39380
2138.98,0.39418
2133.19,0.39539
2127.41,0.39803
2121.62,0.40153
2115.83,0.40572
2110.05,0.40971
2104.26,0.41429
2098.47,0.41804
2092.69,0.42164
2086.9,0.42481
2081.12,0.42677
2075.33,0.42797
2069.54,0.42900
2063.76,0.42814
2057.97,0.42688
2052.19,0.42543
2046.4,0.42284
2040.61,0.42066
2034.83,0.41839
2029.04,0.41646
2023.25,0.41476
2017.47,0.41376
2011.68,0.41383
2005.9,0.41523
2000.11,0.41748
1994.32,0.42057
1988.54,0.42454
1982.75,0.42954
1976.96,0.43487
1971.18,0.44020
1965.39,0.44584
1959.61,0.45026
1953.82,0.45444
1948.03,0.45744
1942.25,0.45973
1936.46,0.46052
1930.67,0.46008
1924.89,0.45806
1919.1,0.45515
1913.32,0.45186
1907.53,0.44746
1901.74,0.44338
1895.96,0.43898
1890.17,0.43524
1884.38,0.43252
1878.6,0.43041
1872.81,0.42993
1867.03,0.42990
1861.24,0.43211
1855.45,0.43509
1849.67,0.43876
1843.88,0.44254
1838.09,0.44720
1832.31,0.45185
1826.52,0.45524
1820.74,0.45819
1814.95,0.45929
1809.16,0.45851
1803.38,0.45457
1797.59,0.44949
1791.8,0.44413
1786.02,0.43968
1780.23,0.43263
1774.45,0.42336
1768.66,0.41282
1762.87,0.40206
1757.09,0.38965
1751.3,0.37669
1745.51,0.36300
1739.73,0.35067
1733.94,0.33709
1728.16,0.31690
1722.37,0.29350
1716.58,0.28507
1710.8,0.27794
1705.01,0.25012
1699.22,0.22470
1693.44,0.21521
1687.65,0.21600
1681.87,0.21923
1676.08,0.21870
1670.29,0.21292
1664.51,0.20345
1658.72,0.19116
1652.93,0.17710
1647.15,0.16227
1641.36,0.14841
1635.58,0.13614
1629.79,0.12535
1624,0.11703
1618.22,0.11129
1612.43,0.10800
1606.64,0.11002
1600.86,0.11667
1595.07,0.12478
1589.29,0.13308
1583.5,0.14120
1577.71,0.15253
1571.93,0.16811
1566.14,0.18730
1560.35,0.20729
1554.57,0.22869
1548.78,0.24279
1543,0.25115
1537.21,0.25584
1531.42,0.25686
1525.64,0.25273
1519.85,0.24378
1514.07,0.23268
1508.28,0.22261
1502.49,0.21333
1496.71,0.20637
1490.92,0.19942
1485.13,0.19333
1479.35,0.18933
1473.56,0.18715
1467.78,0.18747
1461.99,0.19254
1456.2,0.20088
1450.42,0.21302
1444.63,0.22320
1438.84,0.22448
1433.06,0.21931
1427.27,0.21659
1421.49,0.21320
1415.7,0.20492
1409.91,0.19291
1404.13,0.17633
1398.34,0.15452
1392.55,0.12915
1386.77,0.10665
1380.98,0.08893
1375.2,0.07672
1369.41,0.06872
1363.62,0.06370
1357.84,0.05931
1352.05,0.05520
1346.26,0.05314
1340.48,0.05047
1334.69,0.04767
1328.91,0.04444
1323.12,0.04170
1317.33,0.03857
1311.55,0.03486
1305.76,0.03178
1299.97,0.02867
1294.19,0.02585
1288.4,0.02374
1282.62,0.02279
1276.83,0.02252
1271.04,0.02280
1265.26,0.02348
1259.47,0.02388
1253.68,0.02439
1247.9,0.02462
1242.11,0.02449
1236.33,0.02391
1230.54,0.02412
1224.75,0.02402
1218.97,0.02343
1213.18,0.02351
1207.39,0.02349
1201.61,0.02395
1195.82,0.02448
1190.04,0.02468
1184.25,0.02528
1178.46,0.02586
1172.68,0.02691
1166.89,0.02732
1161.1,0.02748
1155.32,0.02825
1149.53,0.02926
1143.75,0.02941
1137.96,0.03026
1132.17,0.03065
1126.39,0.03121
1120.6,0.03116
1114.81,0.03193
1109.03,0.03149
1103.24,0.03175
1097.46,0.03187
1091.67,0.03205
1085.88,0.03080
1080.1,0.03090
1074.31,0.03038
1068.52,0.03024
1062.74,0.03035
1056.95,0.02887
1051.17,0.02912
1045.38,0.02846
1039.59,0.02781
1033.81,0.02779
1028.02,0.02669
1022.24,0.02579
1016.45,0.02458
1010.66,0.02321
1004.88,0.02297
999.09,0.02237
993.304,0.02252
987.518,0.02179
981.731,0.02240
975.945,0.02229
970.159,0.02357
964.373,0.02493
958.586,0.02686
952.8,0.03035
947.014,0.03423
941.228,0.03872
935.441,0.04334
929.655,0.04748
923.869,0.05247
918.083,0.05711
912.297,0.06266
906.51,0.06701
900.724,0.07222
894.938,0.07720
889.152,0.08133
883.365,0.08579
877.579,0.09026
871.793,0.09474
866.007,0.09900
860.22,0.10380
854.434,0.10741
848.648,0.11158
842.862,0.11501
837.075,0.11845
831.289,0.12148
825.503,0.12548
819.717,0.12769
813.931,0.13107
808.144,0.13368
802.358,0.13635
796.572,0.13822
790.786,0.13948
784.999,0.14086
779.213,0.14224
773.427,0.14325
767.641,0.14424
761.854,0.14635
756.068,0.14754
750.282,0.14948
744.496,0.15045
738.709,0.15204
732.923,0.15247
727.137,0.15454
721.351,0.15586
715.565,0.15618
709.778,0.15764
703.992,0.15949
698.206,0.16030
692.42,0.16219
686.633,0.16380
680.847,0.16376
675.061,0.16583
669.275,0.16664
663.488,0.16781
657.702,0.16741
651.916,0.16807
646.13,0.16992
640.343,0.17117
634.557,0.17075
628.771,0.17308
622.985,0.17296
617.198,0.17348
611.412,0.17245
605.626,0.17791
599.84,0.17567