File: 01_Data/Laminate_Flooring/FTIR/IS/Laminate_Flooring_IS_S_221003_R8.dpt
7497.03,0.59612
7491.25,0.60457
7485.46,0.60278
7479.67,0.59858
7473.89,0.59708
7468.1,0.60203
7462.32,0.59134
7456.53,0.59595
7450.74,0.60409
7444.96,0.60441
7439.17,0.60286
7433.38,0.60378
7427.6,0.59855
7421.81,0.59986
7416.03,0.60740
7410.24,0.61059
7404.45,0.60571
7398.67,0.60351
7392.88,0.60707
7387.09,0.60372
7381.31,0.60912
7375.52,0.59628
7369.74,0.59784
7363.95,0.59485
7358.16,0.60663
7352.38,0.60750
7346.59,0.59085
7340.8,0.60146
7335.02,0.60461
7329.23,0.60078
7323.45,0.60201
7317.66,0.59988
7311.87,0.60530
7306.09,0.59880
7300.3,0.60767
7294.51,0.60345
7288.73,0.60011
7282.94,0.60610
7277.16,0.60515
7271.37,0.60086
7265.58,0.60774
7259.8,0.60189
7254.01,0.60449
7248.22,0.60068
7242.44,0.60365
7236.65,0.60868
7230.87,0.59845
7225.08,0.60672
7219.29,0.60521
7213.51,0.60014
7207.72,0.60507
7201.93,0.60193
7196.15,0.60411
7190.36,0.60834
7184.58,0.60347
7178.79,0.60406
7173,0.60047
7167.22,0.60476
7161.43,0.60780
7155.65,0.60695
7149.86,0.60331
7144.07,0.60532
7138.29,0.60510
7132.5,0.60418
7126.71,0.60250
7120.93,0.60781
7115.14,0.60461
7109.36,0.59832
7103.57,0.60343
7097.78,0.59854
7092,0.59931
7086.21,0.60300
7080.42,0.60444
7074.64,0.60457
7068.85,0.59942
7063.07,0.60355
7057.28,0.60412
7051.49,0.60585
7045.71,0.60659
7039.92,0.61231
7034.13,0.60650
7028.35,0.60780
7022.56,0.60387
7016.78,0.61040
7010.99,0.60789
7005.2,0.60783
6999.42,0.60632
6993.63,0.60851
6987.84,0.61283
6982.06,0.61007
6976.27,0.61108
6970.49,0.60807
6964.7,0.60855
6958.91,0.60720
6953.13,0.60815
6947.34,0.60701
6941.55,0.61752
6935.77,0.60486
6929.98,0.60807
6924.2,0.61176
6918.41,0.61226
6912.62,0.60699
6906.84,0.61143
6901.05,0.61140
6895.26,0.61071
6889.48,0.61081
6883.69,0.61098
6877.91,0.61322
6872.12,0.60690
6866.33,0.61233
6860.55,0.62180
6854.76,0.61369
6848.97,0.62011
6843.19,0.61640
6837.4,0.61132
6831.62,0.60737
6825.83,0.61434
6820.04,0.61675
6814.26,0.61204
6808.47,0.62068
6802.68,0.61252
6796.9,0.61983
6791.11,0.61249
6785.33,0.61874
6779.54,0.61406
6773.75,0.61744
6767.97,0.61982
6762.18,0.61661
6756.39,0.61767
6750.61,0.62297
6744.82,0.62115
6739.04,0.61229
6733.25,0.61971
6727.46,0.61653
6721.68,0.61850
6715.89,0.61656
6710.1,0.61777
6704.32,0.61863
6698.53,0.61546
6692.75,0.62116
6686.96,0.61924
6681.17,0.61558
6675.39,0.62177
6669.6,0.62057
6663.82,0.62324
6658.03,0.62393
6652.24,0.62030
6646.46,0.61872
6640.67,0.62299
6634.88,0.62426
6629.1,0.62304
6623.31,0.62090
6617.53,0.62586
6611.74,0.61659
6605.95,0.62736
6600.17,0.62312
6594.38,0.62103
6588.59,0.62533
6582.81,0.62810
6577.02,0.62181
6571.24,0.62639
6565.45,0.62385
6559.66,0.62115
6553.88,0.62549
6548.09,0.62647
6542.3,0.62583
6536.52,0.62772
6530.73,0.62428
6524.95,0.62552
6519.16,0.62687
6513.37,0.62716
6507.59,0.62780
6501.8,0.62713
6496.01,0.62885
6490.23,0.62623
6484.44,0.62549
6478.66,0.62648
6472.87,0.62561
6467.08,0.62632
6461.3,0.63050
6455.51,0.63089
6449.72,0.62959
6443.94,0.62908
6438.15,0.63206
6432.37,0.62961
6426.58,0.63019
6420.79,0.62883
6415.01,0.63248
6409.22,0.63015
6403.43,0.62821
6397.65,0.63438
6391.86,0.62710
6386.08,0.62754
6380.29,0.62887
6374.5,0.63179
6368.72,0.63320
6362.93,0.63104
6357.14,0.63246
6351.36,0.63520
6345.57,0.63064
6339.79,0.63112
6334,0.63003
6328.21,0.63121
6322.43,0.63335
6316.64,0.63112
6310.85,0.63005
6305.07,0.63201
6299.28,0.63570
6293.5,0.63228
6287.71,0.63502
6281.92,0.63135
6276.14,0.63328
6270.35,0.63504
6264.56,0.63635
6258.78,0.63234
6252.99,0.63688
6247.21,0.63779
6241.42,0.63727
6235.63,0.63381
6229.85,0.63665
6224.06,0.63427
6218.27,0.63225
6212.49,0.63592
6206.7,0.63504
6200.92,0.63536
6195.13,0.63409
6189.34,0.63596
6183.56,0.63455
6177.77,0.63647
6171.98,0.63696
6166.2,0.63601
6160.41,0.63289
6154.63,0.63502
6148.84,0.64158
6143.05,0.63862
6137.27,0.63864
6131.48,0.63920
6125.7,0.63696
6119.91,0.63384
6114.12,0.63661
6108.34,0.63732
6102.55,0.64011
6096.76,0.63795
6090.98,0.64025
6085.19,0.63839
6079.41,0.64035
6073.62,0.63806
6067.83,0.63922
6062.05,0.63681
6056.26,0.63732
6050.47,0.63871
6044.69,0.64047
6038.9,0.64199
6033.12,0.64002
6027.33,0.63950
6021.54,0.63908
6015.76,0.63921
6009.97,0.63945
6004.18,0.64064
5998.4,0.63902
5992.61,0.64110
5986.83,0.64198
5981.04,0.63889
5975.25,0.64239
5969.47,0.64356
5963.68,0.64280
5957.89,0.64183
5952.11,0.64299
5946.32,0.64255
5940.54,0.64128
5934.75,0.64169
5928.96,0.64440
5923.18,0.64148
5917.39,0.64627
5911.6,0.64308
5905.82,0.64239
5900.03,0.64491
5894.25,0.64471
5888.46,0.64539
5882.67,0.64270
5876.89,0.64232
5871.1,0.64685
5865.31,0.64278
5859.53,0.64374
5853.74,0.64284
5847.96,0.64384
5842.17,0.64525
5836.38,0.64316
5830.6,0.64285
5824.81,0.64321
5819.02,0.64457
5813.24,0.64431
5807.45,0.64240
5801.67,0.64503
5795.88,0.64410
5790.09,0.64683
5784.31,0.64449
5778.52,0.64417
5772.73,0.64210
5766.95,0.64738
5761.16,0.64892
5755.38,0.64693
5749.59,0.64434
5743.8,0.64634
5738.02,0.64947
5732.23,0.64797
5726.44,0.64790
5720.66,0.64740
5714.87,0.64561
5709.09,0.64699
5703.3,0.65004
5697.51,0.64883
5691.73,0.65047
5685.94,0.64918
5680.15,0.64757
5674.37,0.64979
5668.58,0.65145
5662.8,0.64703
5657.01,0.64791
5651.22,0.64952
5645.44,0.65074
5639.65,0.65053
5633.87,0.64917
5628.08,0.65224
5622.29,0.65257
5616.51,0.65088
5610.72,0.65159
5604.93,0.65114
5599.15,0.65138
5593.36,0.65305
5587.58,0.65172
5581.79,0.65205
5576,0.65154
5570.22,0.65442
5564.43,0.65404
5558.64,0.65440
5552.86,0.65326
5547.07,0.65296
5541.29,0.65399
5535.5,0.65593
5529.71,0.65440
5523.93,0.65501
5518.14,0.65450
5512.35,0.65410
5506.57,0.65512
5500.78,0.65556
5495,0.65212
5489.21,0.65257
5483.42,0.65575
5477.64,0.65599
5471.85,0.65643
5466.06,0.65757
5460.28,0.65620
5454.49,0.65738
5448.71,0.65677
5442.92,0.65542
5437.13,0.65696
5431.35,0.65931
5425.56,0.65760
5419.77,0.65908
5413.99,0.65647
5408.2,0.65692
5402.42,0.65837
5396.63,0.65819
5390.84,0.66027
5385.06,0.65937
5379.27,0.65892
5373.48,0.66056
5367.7,0.65981
5361.91,0.65974
5356.13,0.65746
5350.34,0.66016
5344.55,0.65850
5338.77,0.65826
5332.98,0.65833
5327.19,0.65706
5321.41,0.65846
5315.62,0.65938
5309.84,0.65955
5304.05,0.65881
5298.26,0.65769
5292.48,0.65957
5286.69,0.65819
5280.9,0.65762
5275.12,0.65790
5269.33,0.65714
5263.55,0.65592
5257.76,0.65586
5251.97,0.65495
5246.19,0.65448
5240.4,0.65464
5234.61,0.65512
5228.83,0.65340
5223.04,0.65223
5217.26,0.65362
5211.47,0.65249
5205.68,0.65112
5199.9,0.65198
5194.11,0.65018
5188.32,0.65284
5182.54,0.65206
5176.75,0.65185
5170.97,0.65185
5165.18,0.65137
5159.39,0.65238
5153.61,0.65226
5147.82,0.65134
5142.03,0.65247
5136.25,0.65332
5130.46,0.65467
5124.68,0.65316
5118.89,0.65239
5113.1,0.65332
5107.32,0.65437
5101.53,0.65444
5095.75,0.65469
5089.96,0.65759
5084.17,0.65503
5078.39,0.65539
5072.6,0.65614
5066.81,0.65536
5061.03,0.65514
5055.24,0.65578
5049.46,0.65697
5043.67,0.65737
5037.88,0.65741
5032.1,0.65791
5026.31,0.66001
5020.52,0.65836
5014.74,0.65955
5008.95,0.65913
5003.17,0.65969
4997.38,0.66019
4991.59,0.66004
4985.81,0.66119
4980.02,0.66083
4974.23,0.66061
4968.45,0.66174
4962.66,0.66219
4956.88,0.66212
4951.09,0.66207
4945.3,0.66458
4939.52,0.66379
4933.73,0.66440
4927.94,0.66443
4922.16,0.66420
4916.37,0.66435
4910.59,0.66394
4904.8,0.66449
4899.01,0.66570
4893.23,0.66571
4887.44,0.66623
4881.65,0.66680
4875.87,0.66587
4870.08,0.66635
4864.3,0.66599
4858.51,0.66714
4852.72,0.66601
4846.94,0.66768
4841.15,0.66633
4835.36,0.66735
4829.58,0.66797
4823.79,0.66827
4818.01,0.66721
4812.22,0.66776
4806.43,0.66828
4800.65,0.66931
4794.86,0.66860
4789.07,0.66807
4783.29,0.66838
4777.5,0.66888
4771.72,0.66954
4765.93,0.66944
4760.14,0.66901
4754.36,0.66966
4748.57,0.67001
4742.78,0.67040
4737,0.67078
4731.21,0.67055
4725.43,0.67040
4719.64,0.66847
4713.85,0.66952
4708.07,0.66906
4702.28,0.66897
4696.49,0.66748
4690.71,0.66786
4684.92,0.66815
4679.14,0.66757
4673.35,0.66651
4667.56,0.66710
4661.78,0.66595
4655.99,0.66631
4650.2,0.66607
4644.42,0.66467
4638.63,0.66486
4632.85,0.66451
4627.06,0.66399
4621.27,0.66414
4615.49,0.66365
4609.7,0.66290
4603.92,0.66303
4598.13,0.66345
4592.34,0.66243
4586.56,0.66260
4580.77,0.66236
4574.98,0.66292
4569.2,0.66254
4563.41,0.66127
4557.63,0.66225
4551.84,0.66139
4546.05,0.66157
4540.27,0.66249
4534.48,0.66300
4528.69,0.66231
4522.91,0.66217
4517.12,0.66252
4511.34,0.66319
4505.55,0.66257
4499.76,0.66231
4493.98,0.66357
4488.19,0.66378
4482.4,0.66447
4476.62,0.66310
4470.83,0.66396
4465.05,0.66284
4459.26,0.66347
4453.47,0.66402
4447.69,0.66456
4441.9,0.66454
4436.11,0.66346
4430.33,0.66448
4424.54,0.66414
4418.76,0.66335
4412.97,0.66263
4407.18,0.66370
4401.4,0.66372
4395.61,0.66340
4389.82,0.66384
4384.04,0.66351
4378.25,0.66273
4372.47,0.66277
4366.68,0.66247
4360.89,0.66208
4355.11,0.66108
4349.32,0.65990
4343.53,0.66004
4337.75,0.66034
4331.96,0.66015
4326.18,0.65893
4320.39,0.65903
4314.6,0.66011
4308.82,0.66008
4303.03,0.66017
4297.24,0.66050
4291.46,0.66007
4285.67,0.65961
4279.89,0.65846
4274.1,0.65942
4268.31,0.65989
4262.53,0.65928
4256.74,0.65930
4250.95,0.65817
4245.17,0.65819
4239.38,0.65716
4233.6,0.65715
4227.81,0.65801
4222.02,0.65704
4216.24,0.65676
4210.45,0.65663
4204.66,0.65666
4198.88,0.65623
4193.09,0.65671
4187.31,0.65663
4181.52,0.65580
4175.73,0.65549
4169.95,0.65476
4164.16,0.65529
4158.37,0.65501
4152.59,0.65370
4146.8,0.65427
4141.02,0.65432
4135.23,0.65437
4129.44,0.65374
4123.66,0.65379
4117.87,0.65249
4112.09,0.65202
4106.3,0.65158
4100.51,0.65125
4094.73,0.65148
4088.94,0.65041
4083.15,0.64934
4077.37,0.64905
4071.58,0.64804
4065.8,0.64849
4060.01,0.64771
4054.22,0.64666
4048.44,0.64685
4042.65,0.64599
4036.86,0.64506
4031.08,0.64499
4025.29,0.64404
4019.51,0.64371
4013.72,0.64362
4007.93,0.64346
4002.15,0.64299
3996.36,0.64335
3990.57,0.64282
3984.79,0.64272
3979,0.64239
3973.22,0.64267
3967.43,0.64238
3961.64,0.64161
3955.86,0.64076
3950.07,0.64009
3944.28,0.64050
3938.5,0.64041
3932.71,0.63991
3926.93,0.63994
3921.14,0.63899
3915.35,0.63962
3909.57,0.63983
3903.78,0.63896
3897.99,0.63872
3892.21,0.63850
3886.42,0.63817
3880.64,0.63866
3874.85,0.63781
3869.06,0.63687
3863.28,0.63714
3857.49,0.63719
3851.7,0.63480
3845.92,0.63663
3840.13,0.63517
3834.35,0.63358
3828.56,0.63349
3822.77,0.63225
3816.99,0.63029
3811.2,0.63058
3805.41,0.62805
3799.63,0.62610
3793.84,0.62528
3788.06,0.62362
3782.27,0.62109
3776.48,0.61763
3770.7,0.61455
3764.91,0.61036
3759.12,0.60524
3753.34,0.59868
3747.55,0.59035
3741.77,0.58045
3735.98,0.57017
3730.19,0.55450
3724.41,0.53665
3718.62,0.51409
3712.83,0.48557
3707.05,0.45023
3701.26,0.41460
3695.48,0.37950
3689.69,0.34261
3683.9,0.30605
3678.12,0.27209
3672.33,0.23496
3666.54,0.20259
3660.76,0.17424
3654.97,0.14920
3649.19,0.12822
3643.4,0.11049
3637.61,0.09772
3631.83,0.08776
3626.04,0.07889
3620.25,0.07347
3614.47,0.06894
3608.68,0.06566
3602.9,0.06208
3597.11,0.06063
3591.32,0.05901
3585.54,0.05643
3579.75,0.05614
3573.97,0.05470
3568.18,0.05434
3562.39,0.05350
3556.61,0.05261
3550.82,0.05250
3545.03,0.05206
3539.25,0.05151
3533.46,0.05096
3527.68,0.05073
3521.89,0.05094
3516.1,0.05107
3510.32,0.05040
3504.53,0.05044
3498.74,0.05022
3492.96,0.05037
3487.17,0.04982
3481.39,0.04990
3475.6,0.05002
3469.81,0.04975
3464.03,0.04997
3458.24,0.04943
3452.45,0.04943
3446.67,0.04915
3440.88,0.04961
3435.1,0.04905
3429.31,0.04989
3423.52,0.04974
3417.74,0.05029
3411.95,0.05001
3406.16,0.05014
3400.38,0.05113
3394.59,0.05063
3388.81,0.05073
3383.02,0.05033
3377.23,0.05100
3371.45,0.05142
3365.66,0.05100
3359.87,0.05104
3354.09,0.05104
3348.3,0.05155
3342.52,0.05141
3336.73,0.05206
3330.94,0.05208
3325.16,0.05217
3319.37,0.05259
3313.58,0.05225
3307.8,0.05239
3302.01,0.05283
3296.23,0.05393
3290.44,0.05389
3284.65,0.05403
3278.87,0.05401
3273.08,0.05425
3267.29,0.05490
3261.51,0.05586
3255.72,0.05603
3249.94,0.05607
3244.15,0.05679
3238.36,0.05733
3232.58,0.05807
3226.79,0.05857
3221,0.05886
3215.22,0.05992
3209.43,0.06042
3203.65,0.06116
3197.86,0.06269
3192.07,0.06269
3186.29,0.06346
3180.5,0.06418
3174.71,0.06500
3168.93,0.06576
3163.14,0.06629
3157.36,0.06701
3151.57,0.06822
3145.78,0.06939
3140,0.07100
3134.21,0.07145
3128.42,0.07271
3122.64,0.07437
3116.85,0.07585
3111.07,0.07737
3105.28,0.07878
3099.49,0.08126
3093.71,0.08334
3087.92,0.08499
3082.14,0.08678
3076.35,0.08885
3070.56,0.09104
3064.78,0.09344
3058.99,0.09638
3053.2,0.09836
3047.42,0.10037
3041.63,0.10238
3035.85,0.10477
3030.06,0.10688
3024.27,0.10877
3018.49,0.11077
3012.7,0.11266
3006.91,0.11502
3001.13,0.11782
2995.34,0.12012
2989.56,0.12221
2983.77,0.12453
2977.98,0.12716
2972.2,0.13026
2966.41,0.13341
2960.62,0.13691
2954.84,0.14116
2949.05,0.14465
2943.27,0.14881
2937.48,0.15271
2931.69,0.15515
2925.91,0.15938
2920.12,0.16260
2914.33,0.16783
2908.55,0.17247
2902.76,0.17671
2896.98,0.18059
2891.19,0.18474
2885.4,0.18787
2879.62,0.19049
2873.83,0.19320
2868.04,0.19599
2862.26,0.19881
2856.47,0.20171
2850.69,0.20518
2844.9,0.21264
2839.11,0.21975
2833.33,0.22570
2827.54,0.23089
2821.75,0.23583
2815.97,0.24129
2810.18,0.24771
2804.4,0.25452
2798.61,0.26096
2792.82,0.26697
2787.04,0.27381
2781.25,0.27923
2775.46,0.28512
2769.68,0.28900
2763.89,0.29353
2758.11,0.29764
2752.32,0.30165
2746.53,0.30531
2740.75,0.30798
2734.96,0.31163
2729.17,0.31483
2723.39,0.31830
2717.6,0.32139
2711.82,0.32495
2706.03,0.32904
2700.24,0.33335
2694.46,0.33793
2688.67,0.34246
2682.88,0.34739
2677.1,0.35278
2671.31,0.35741
2665.53,0.36213
2659.74,0.36670
2653.95,0.37093
2648.17,0.37515
2642.38,0.37868
2636.59,0.38104
2630.81,0.38306
2625.02,0.38449
2619.24,0.38530
2613.45,0.38646
2607.66,0.38588
2601.88,0.38622
2596.09,0.38609
2590.3,0.38586
2584.52,0.38559
2578.73,0.38567
2572.95,0.38548
2567.16,0.38630
2561.37,0.38711
2555.59,0.38768
2549.8,0.38915
2544.02,0.39025
2538.23,0.39219
2532.44,0.39294
2526.66,0.39394
2520.87,0.39555
2515.08,0.39692
2509.3,0.39797
2503.51,0.39929
2497.73,0.40024
2491.94,0.40079
2486.15,0.40105
2480.37,0.40044
2474.58,0.39959
2468.79,0.39834
2463.01,0.39707
2457.22,0.39553
2451.44,0.39352
2445.65,0.39213
2439.86,0.39109
2434.08,0.39045
2428.29,0.39004
2422.5,0.39103
2416.72,0.39164
2410.93,0.39307
2405.15,0.39559
2399.36,0.39790
2393.57,0.40077
2387.79,0.40373
2382,0.40661
2376.21,0.40957
2370.43,0.41150
2364.64,0.41331
2358.86,0.41479
2353.07,0.41581
2347.28,0.41559
2341.5,0.41490
2335.71,0.41467
2329.92,0.41355
2324.14,0.41213
2318.35,0.40979
2312.57,0.40777
2306.78,0.40618
2300.99,0.40476
2295.21,0.40378
2289.42,0.40289
2283.63,0.40298
2277.85,0.40356
2272.06,0.40483
2266.28,0.40682
2260.49,0.40892
2254.7,0.41157
2248.92,0.41444
2243.13,0.41676
2237.34,0.41944
2231.56,0.42137
2225.77,0.42249
2219.99,0.42310
2214.2,0.42317
2208.41,0.42237
2202.63,0.42072
2196.84,0.41829
2191.05,0.41527
2185.27,0.41204
2179.48,0.40871
2173.7,0.40495
2167.91,0.40161
2162.12,0.39874
2156.34,0.39659
2150.55,0.39488
2144.76,0.39406
2138.98,0.39400
2133.19,0.39609
2127.41,0.39845
2121.62,0.40201
2115.83,0.40598
2110.05,0.41024
2104.26,0.41413
2098.47,0.41852
2092.69,0.42143
2086.9,0.42451
2081.12,0.42694
2075.33,0.42879
2069.54,0.42895
2063.76,0.42850
2057.97,0.42716
2052.19,0.42556
2046.4,0.42326
2040.61,0.42064
2034.83,0.41770
2029.04,0.41626
2023.25,0.41486
2017.47,0.41403
2011.68,0.41424
2005.9,0.41555
2000.11,0.41790
1994.32,0.42078
1988.54,0.42507
1982.75,0.43023
1976.96,0.43510
1971.18,0.44068
1965.39,0.44574
1959.61,0.45049
1953.82,0.45465
1948.03,0.45786
1942.25,0.45971
1936.46,0.46088
1930.67,0.45990
1924.89,0.45807
1919.1,0.45544
1913.32,0.45175
1907.53,0.44732
1901.74,0.44339
1895.96,0.43899
1890.17,0.43545
1884.38,0.43239
1878.6,0.43062
1872.81,0.42997
1867.03,0.43033
1861.24,0.43218
1855.45,0.43549
1849.67,0.43915
1843.88,0.44314
1838.09,0.44813
1832.31,0.45198
1826.52,0.45489
1820.74,0.45825
1814.95,0.45923
1809.16,0.45830
1803.38,0.45484
1797.59,0.44946
1791.8,0.44413
1786.02,0.43939
1780.23,0.43223
1774.45,0.42390
1768.66,0.41258
1762.87,0.40224
1757.09,0.38939
1751.3,0.37666
1745.51,0.36322
1739.73,0.35077
1733.94,0.33719
1728.16,0.31726
1722.37,0.29352
1716.58,0.28475
1710.8,0.27816
1705.01,0.25040
1699.22,0.22518
1693.44,0.21539
1687.65,0.21599
1681.87,0.21899
1676.08,0.21885
1670.29,0.21311
1664.51,0.20358
1658.72,0.19157
1652.93,0.17711
1647.15,0.16236
1641.36,0.14873
1635.58,0.13617
1629.79,0.12572
1624,0.11696
1618.22,0.11102
1612.43,0.10852
1606.64,0.11052
1600.86,0.11682
1595.07,0.12541
1589.29,0.13404
1583.5,0.14173
1577.71,0.15246
1571.93,0.16815
1566.14,0.18784
1560.35,0.20798
1554.57,0.22891
1548.78,0.24331
1543,0.25119
1537.21,0.25639
1531.42,0.25713
1525.64,0.25278
1519.85,0.24334
1514.07,0.23237
1508.28,0.22187
1502.49,0.21373
1496.71,0.20613
1490.92,0.19896
1485.13,0.19329
1479.35,0.18919
1473.56,0.18757
1467.78,0.18770
1461.99,0.19237
1456.2,0.20121
1450.42,0.21344
1444.63,0.22332
1438.84,0.22468
1433.06,0.21954
1427.27,0.21640
1421.49,0.21292
1415.7,0.20449
1409.91,0.19287
1404.13,0.17643
1398.34,0.15424
1392.55,0.12888
1386.77,0.10692
1380.98,0.08902
1375.2,0.07688
1369.41,0.06846
1363.62,0.06338
1357.84,0.05937
1352.05,0.05582
1346.26,0.05315
1340.48,0.05045
1334.69,0.04716
1328.91,0.04443
1323.12,0.04189
1317.33,0.03829
1311.55,0.03483
1305.76,0.03158
1299.97,0.02835
1294.19,0.02593
1288.4,0.02356
1282.62,0.02277
1276.83,0.02244
1271.04,0.02293
1265.26,0.02331
1259.47,0.02391
1253.68,0.02374
1247.9,0.02461
1242.11,0.02404
1236.33,0.02390
1230.54,0.02377
1224.75,0.02392
1218.97,0.02322
1213.18,0.02355
1207.39,0.02357
1201.61,0.02350
1195.82,0.02392
1190.04,0.02454
1184.25,0.02519
1178.46,0.02580
1172.68,0.02610
1166.89,0.02748
1161.1,0.02809
1155.32,0.02786
1149.53,0.02904
1143.75,0.02946
1137.96,0.02999
1132.17,0.03048
1126.39,0.03098
1120.6,0.03160
1114.81,0.03170
1109.03,0.03115
1103.24,0.03123
1097.46,0.03153
1091.67,0.03109
1085.88,0.03063
1080.1,0.03079
1074.31,0.03065
1068.52,0.03012
1062.74,0.02997
1056.95,0.02937
1051.17,0.02830
1045.38,0.02890
1039.59,0.02831
1033.81,0.02730
1028.02,0.02666
1022.24,0.02583
1016.45,0.02473
1010.66,0.02383
1004.88,0.02278
999.09,0.02201
993.304,0.02125
987.518,0.02172
981.731,0.02212
975.945,0.02220
970.159,0.02345
964.373,0.02469
958.586,0.02705
952.8,0.03046
947.014,0.03399
941.228,0.03831
935.441,0.04280
929.655,0.04778
923.869,0.05230
918.083,0.05753
912.297,0.06245
906.51,0.06726
900.724,0.07168
894.938,0.07681
889.152,0.08174
883.365,0.08527
877.579,0.08989
871.793,0.09433
866.007,0.09863
860.22,0.10304
854.434,0.10729
848.648,0.11042
842.862,0.11457
837.075,0.11762
831.289,0.12179
825.503,0.12502
819.717,0.12804
813.931,0.13032
808.144,0.13304
802.358,0.13509
796.572,0.13791
790.786,0.14001
784.999,0.14051
779.213,0.14146
773.427,0.14361
767.641,0.14452
761.854,0.14498
756.068,0.14722
750.282,0.14899
744.496,0.14979
738.709,0.15157
732.923,0.15209
727.137,0.15332
721.351,0.15546
715.565,0.15583
709.778,0.15806
703.992,0.15962
698.206,0.16222
692.42,0.16382
686.633,0.16254
680.847,0.16466
675.061,0.16645
669.275,0.16697
663.488,0.16612
657.702,0.16778
651.916,0.16976
646.13,0.16983
640.343,0.16870
634.557,0.17045
628.771,0.17225
622.985,0.17373
617.198,0.17634
611.412,0.17493
605.626,0.17550
599.84,0.17363