File: 01_Data/Laminate_Flooring/FTIR/IS/Laminate_Flooring_IS_S_221003_R5.dpt
7497.03,0.60555
7491.25,0.61313
7485.46,0.61006
7479.67,0.60345
7473.89,0.60248
7468.1,0.59804
7462.32,0.60740
7456.53,0.59970
7450.74,0.60041
7444.96,0.60157
7439.17,0.60113
7433.38,0.60644
7427.6,0.60515
7421.81,0.60108
7416.03,0.59889
7410.24,0.59740
7404.45,0.60758
7398.67,0.60006
7392.88,0.59767
7387.09,0.60048
7381.31,0.60054
7375.52,0.60833
7369.74,0.60391
7363.95,0.59803
7358.16,0.60038
7352.38,0.60219
7346.59,0.58917
7340.8,0.60091
7335.02,0.59915
7329.23,0.58807
7323.45,0.59881
7317.66,0.60194
7311.87,0.60648
7306.09,0.60056
7300.3,0.60311
7294.51,0.61357
7288.73,0.60748
7282.94,0.60427
7277.16,0.59764
7271.37,0.60279
7265.58,0.59934
7259.8,0.60685
7254.01,0.60326
7248.22,0.60631
7242.44,0.60458
7236.65,0.60664
7230.87,0.59877
7225.08,0.60271
7219.29,0.60215
7213.51,0.60029
7207.72,0.60481
7201.93,0.59744
7196.15,0.60452
7190.36,0.61092
7184.58,0.61084
7178.79,0.60481
7173,0.60236
7167.22,0.60849
7161.43,0.60340
7155.65,0.60362
7149.86,0.60186
7144.07,0.60708
7138.29,0.60182
7132.5,0.61278
7126.71,0.60121
7120.93,0.60570
7115.14,0.60446
7109.36,0.60425
7103.57,0.60210
7097.78,0.60382
7092,0.61108
7086.21,0.60330
7080.42,0.60756
7074.64,0.60491
7068.85,0.60798
7063.07,0.60547
7057.28,0.60844
7051.49,0.60194
7045.71,0.60216
7039.92,0.60720
7034.13,0.61260
7028.35,0.60862
7022.56,0.60835
7016.78,0.61083
7010.99,0.60323
7005.2,0.60624
6999.42,0.60857
6993.63,0.60908
6987.84,0.60638
6982.06,0.61261
6976.27,0.61570
6970.49,0.60977
6964.7,0.61165
6958.91,0.60420
6953.13,0.60458
6947.34,0.61141
6941.55,0.61287
6935.77,0.61035
6929.98,0.61164
6924.2,0.60940
6918.41,0.61111
6912.62,0.61527
6906.84,0.61235
6901.05,0.61078
6895.26,0.60753
6889.48,0.61375
6883.69,0.61599
6877.91,0.61066
6872.12,0.61248
6866.33,0.61437
6860.55,0.61357
6854.76,0.60990
6848.97,0.60981
6843.19,0.61540
6837.4,0.61438
6831.62,0.61261
6825.83,0.61357
6820.04,0.62025
6814.26,0.61939
6808.47,0.61279
6802.68,0.61695
6796.9,0.61574
6791.11,0.61151
6785.33,0.61600
6779.54,0.61388
6773.75,0.61489
6767.97,0.61663
6762.18,0.61460
6756.39,0.61689
6750.61,0.61601
6744.82,0.61398
6739.04,0.61469
6733.25,0.62060
6727.46,0.61947
6721.68,0.62230
6715.89,0.61676
6710.1,0.61458
6704.32,0.62150
6698.53,0.62187
6692.75,0.62003
6686.96,0.61882
6681.17,0.61835
6675.39,0.62188
6669.6,0.62575
6663.82,0.62165
6658.03,0.62864
6652.24,0.62071
6646.46,0.62427
6640.67,0.62132
6634.88,0.62145
6629.1,0.62253
6623.31,0.62569
6617.53,0.62463
6611.74,0.62681
6605.95,0.62166
6600.17,0.62430
6594.38,0.63307
6588.59,0.62709
6582.81,0.62071
6577.02,0.62852
6571.24,0.62678
6565.45,0.62327
6559.66,0.62618
6553.88,0.62487
6548.09,0.62455
6542.3,0.62337
6536.52,0.62613
6530.73,0.62859
6524.95,0.62941
6519.16,0.62712
6513.37,0.62328
6507.59,0.62768
6501.8,0.62445
6496.01,0.62929
6490.23,0.62345
6484.44,0.62874
6478.66,0.62656
6472.87,0.62974
6467.08,0.63017
6461.3,0.62810
6455.51,0.63028
6449.72,0.62719
6443.94,0.62852
6438.15,0.62764
6432.37,0.63011
6426.58,0.63188
6420.79,0.63690
6415.01,0.62855
6409.22,0.63057
6403.43,0.63177
6397.65,0.63260
6391.86,0.63001
6386.08,0.63044
6380.29,0.63138
6374.5,0.63274
6368.72,0.62594
6362.93,0.63003
6357.14,0.63480
6351.36,0.63357
6345.57,0.63222
6339.79,0.63253
6334,0.63208
6328.21,0.63347
6322.43,0.63099
6316.64,0.62903
6310.85,0.63407
6305.07,0.63383
6299.28,0.63539
6293.5,0.63590
6287.71,0.63343
6281.92,0.63179
6276.14,0.63358
6270.35,0.63253
6264.56,0.63172
6258.78,0.63211
6252.99,0.63427
6247.21,0.63425
6241.42,0.63368
6235.63,0.63105
6229.85,0.63825
6224.06,0.63556
6218.27,0.63413
6212.49,0.63741
6206.7,0.63517
6200.92,0.63597
6195.13,0.63568
6189.34,0.63730
6183.56,0.63537
6177.77,0.63834
6171.98,0.63985
6166.2,0.63582
6160.41,0.63725
6154.63,0.63551
6148.84,0.63298
6143.05,0.63668
6137.27,0.63589
6131.48,0.63784
6125.7,0.63894
6119.91,0.63831
6114.12,0.63718
6108.34,0.63762
6102.55,0.64088
6096.76,0.63882
6090.98,0.63990
6085.19,0.64096
6079.41,0.64260
6073.62,0.63951
6067.83,0.63848
6062.05,0.64052
6056.26,0.63976
6050.47,0.64055
6044.69,0.63797
6038.9,0.64001
6033.12,0.64332
6027.33,0.64130
6021.54,0.64199
6015.76,0.63831
6009.97,0.63897
6004.18,0.64158
5998.4,0.63789
5992.61,0.63921
5986.83,0.64097
5981.04,0.64248
5975.25,0.64308
5969.47,0.64414
5963.68,0.64497
5957.89,0.64541
5952.11,0.64201
5946.32,0.64278
5940.54,0.64287
5934.75,0.64349
5928.96,0.64662
5923.18,0.64229
5917.39,0.64393
5911.6,0.64572
5905.82,0.64407
5900.03,0.64572
5894.25,0.64562
5888.46,0.64545
5882.67,0.64294
5876.89,0.64335
5871.1,0.64504
5865.31,0.64208
5859.53,0.64221
5853.74,0.64395
5847.96,0.64508
5842.17,0.64700
5836.38,0.64696
5830.6,0.64321
5824.81,0.64337
5819.02,0.64225
5813.24,0.64418
5807.45,0.64509
5801.67,0.64814
5795.88,0.64525
5790.09,0.64718
5784.31,0.64724
5778.52,0.64746
5772.73,0.64610
5766.95,0.64884
5761.16,0.64792
5755.38,0.64680
5749.59,0.64793
5743.8,0.64748
5738.02,0.64700
5732.23,0.64626
5726.44,0.64835
5720.66,0.64848
5714.87,0.65228
5709.09,0.64912
5703.3,0.65342
5697.51,0.65010
5691.73,0.65092
5685.94,0.64851
5680.15,0.64962
5674.37,0.64993
5668.58,0.64989
5662.8,0.64911
5657.01,0.64940
5651.22,0.64878
5645.44,0.64852
5639.65,0.65201
5633.87,0.65180
5628.08,0.65123
5622.29,0.65272
5616.51,0.65340
5610.72,0.65312
5604.93,0.65130
5599.15,0.65247
5593.36,0.65124
5587.58,0.65284
5581.79,0.65298
5576,0.65295
5570.22,0.65316
5564.43,0.65293
5558.64,0.65360
5552.86,0.65280
5547.07,0.65498
5541.29,0.65652
5535.5,0.65550
5529.71,0.65464
5523.93,0.65421
5518.14,0.65447
5512.35,0.65612
5506.57,0.65583
5500.78,0.65701
5495,0.65660
5489.21,0.65579
5483.42,0.65609
5477.64,0.65561
5471.85,0.65610
5466.06,0.65583
5460.28,0.65803
5454.49,0.65761
5448.71,0.65741
5442.92,0.65794
5437.13,0.65857
5431.35,0.65607
5425.56,0.65614
5419.77,0.65786
5413.99,0.65707
5408.2,0.65842
5402.42,0.66074
5396.63,0.66053
5390.84,0.65768
5385.06,0.65821
5379.27,0.65921
5373.48,0.66041
5367.7,0.65975
5361.91,0.65958
5356.13,0.65985
5350.34,0.65789
5344.55,0.66065
5338.77,0.65933
5332.98,0.66015
5327.19,0.65946
5321.41,0.65973
5315.62,0.65820
5309.84,0.65942
5304.05,0.65952
5298.26,0.66017
5292.48,0.65958
5286.69,0.65878
5280.9,0.65713
5275.12,0.65716
5269.33,0.65859
5263.55,0.65730
5257.76,0.65577
5251.97,0.65623
5246.19,0.65475
5240.4,0.65344
5234.61,0.65340
5228.83,0.65322
5223.04,0.65040
5217.26,0.65172
5211.47,0.65252
5205.68,0.65048
5199.9,0.65126
5194.11,0.65163
5188.32,0.65079
5182.54,0.65126
5176.75,0.65199
5170.97,0.65196
5165.18,0.65139
5159.39,0.65194
5153.61,0.65401
5147.82,0.65216
5142.03,0.65308
5136.25,0.65225
5130.46,0.65143
5124.68,0.65317
5118.89,0.65266
5113.1,0.65354
5107.32,0.65431
5101.53,0.65401
5095.75,0.65468
5089.96,0.65415
5084.17,0.65515
5078.39,0.65496
5072.6,0.65669
5066.81,0.65560
5061.03,0.65793
5055.24,0.65644
5049.46,0.65708
5043.67,0.65806
5037.88,0.65883
5032.1,0.66012
5026.31,0.65823
5020.52,0.65876
5014.74,0.65960
5008.95,0.65991
5003.17,0.66109
4997.38,0.66091
4991.59,0.66183
4985.81,0.66151
4980.02,0.66112
4974.23,0.66120
4968.45,0.66071
4962.66,0.66238
4956.88,0.66304
4951.09,0.66335
4945.3,0.66321
4939.52,0.66358
4933.73,0.66442
4927.94,0.66562
4922.16,0.66486
4916.37,0.66485
4910.59,0.66507
4904.8,0.66413
4899.01,0.66402
4893.23,0.66730
4887.44,0.66624
4881.65,0.66600
4875.87,0.66702
4870.08,0.66578
4864.3,0.66620
4858.51,0.66740
4852.72,0.66672
4846.94,0.66700
4841.15,0.66691
4835.36,0.66733
4829.58,0.66854
4823.79,0.66849
4818.01,0.66956
4812.22,0.66735
4806.43,0.66761
4800.65,0.66858
4794.86,0.66867
4789.07,0.66923
4783.29,0.66861
4777.5,0.66855
4771.72,0.66885
4765.93,0.66823
4760.14,0.66854
4754.36,0.66993
4748.57,0.66939
4742.78,0.66981
4737,0.66981
4731.21,0.66971
4725.43,0.66996
4719.64,0.66938
4713.85,0.66996
4708.07,0.66914
4702.28,0.66851
4696.49,0.66818
4690.71,0.66837
4684.92,0.66779
4679.14,0.66730
4673.35,0.66767
4667.56,0.66766
4661.78,0.66667
4655.99,0.66570
4650.2,0.66614
4644.42,0.66580
4638.63,0.66466
4632.85,0.66463
4627.06,0.66447
4621.27,0.66327
4615.49,0.66375
4609.7,0.66472
4603.92,0.66237
4598.13,0.66320
4592.34,0.66348
4586.56,0.66361
4580.77,0.66231
4574.98,0.66206
4569.2,0.66215
4563.41,0.66237
4557.63,0.66226
4551.84,0.66234
4546.05,0.66186
4540.27,0.66337
4534.48,0.66206
4528.69,0.66337
4522.91,0.66258
4517.12,0.66300
4511.34,0.66252
4505.55,0.66253
4499.76,0.66309
4493.98,0.66206
4488.19,0.66221
4482.4,0.66408
4476.62,0.66389
4470.83,0.66387
4465.05,0.66349
4459.26,0.66477
4453.47,0.66440
4447.69,0.66386
4441.9,0.66368
4436.11,0.66442
4430.33,0.66416
4424.54,0.66413
4418.76,0.66377
4412.97,0.66400
4407.18,0.66462
4401.4,0.66378
4395.61,0.66488
4389.82,0.66345
4384.04,0.66348
4378.25,0.66229
4372.47,0.66234
4366.68,0.66280
4360.89,0.66193
4355.11,0.66163
4349.32,0.66073
4343.53,0.66002
4337.75,0.66053
4331.96,0.66015
4326.18,0.65904
4320.39,0.65843
4314.6,0.66027
4308.82,0.66096
4303.03,0.65993
4297.24,0.65958
4291.46,0.65982
4285.67,0.65901
4279.89,0.65896
4274.1,0.65882
4268.31,0.65901
4262.53,0.65873
4256.74,0.65830
4250.95,0.65831
4245.17,0.65785
4239.38,0.65847
4233.6,0.65796
4227.81,0.65741
4222.02,0.65692
4216.24,0.65735
4210.45,0.65629
4204.66,0.65609
4198.88,0.65666
4193.09,0.65659
4187.31,0.65583
4181.52,0.65584
4175.73,0.65576
4169.95,0.65533
4164.16,0.65547
4158.37,0.65482
4152.59,0.65489
4146.8,0.65449
4141.02,0.65406
4135.23,0.65351
4129.44,0.65319
4123.66,0.65340
4117.87,0.65285
4112.09,0.65274
4106.3,0.65165
4100.51,0.65062
4094.73,0.65054
4088.94,0.65049
4083.15,0.64974
4077.37,0.64863
4071.58,0.64807
4065.8,0.64710
4060.01,0.64769
4054.22,0.64675
4048.44,0.64603
4042.65,0.64554
4036.86,0.64578
4031.08,0.64503
4025.29,0.64519
4019.51,0.64434
4013.72,0.64373
4007.93,0.64386
4002.15,0.64259
3996.36,0.64304
3990.57,0.64251
3984.79,0.64266
3979,0.64249
3973.22,0.64257
3967.43,0.64211
3961.64,0.64126
3955.86,0.64044
3950.07,0.64084
3944.28,0.64034
3938.5,0.63991
3932.71,0.63994
3926.93,0.63952
3921.14,0.63854
3915.35,0.63905
3909.57,0.63930
3903.78,0.63914
3897.99,0.63835
3892.21,0.63880
3886.42,0.63820
3880.64,0.63736
3874.85,0.63818
3869.06,0.63754
3863.28,0.63715
3857.49,0.63705
3851.7,0.63471
3845.92,0.63620
3840.13,0.63450
3834.35,0.63411
3828.56,0.63323
3822.77,0.63286
3816.99,0.63109
3811.2,0.63024
3805.41,0.62844
3799.63,0.62632
3793.84,0.62491
3788.06,0.62292
3782.27,0.62087
3776.48,0.61744
3770.7,0.61335
3764.91,0.60989
3759.12,0.60515
3753.34,0.59884
3747.55,0.59067
3741.77,0.58067
3735.98,0.57068
3730.19,0.55506
3724.41,0.53732
3718.62,0.51290
3712.83,0.48564
3707.05,0.45093
3701.26,0.41535
3695.48,0.37941
3689.69,0.34352
3683.9,0.30610
3678.12,0.27308
3672.33,0.23523
3666.54,0.20268
3660.76,0.17433
3654.97,0.14929
3649.19,0.12703
3643.4,0.11088
3637.61,0.09745
3631.83,0.08750
3626.04,0.07869
3620.25,0.07371
3614.47,0.06912
3608.68,0.06509
3602.9,0.06322
3597.11,0.06043
3591.32,0.05840
3585.54,0.05667
3579.75,0.05619
3573.97,0.05535
3568.18,0.05495
3562.39,0.05362
3556.61,0.05289
3550.82,0.05256
3545.03,0.05163
3539.25,0.05145
3533.46,0.05136
3527.68,0.05179
3521.89,0.05076
3516.1,0.05039
3510.32,0.05052
3504.53,0.05011
3498.74,0.05026
3492.96,0.05034
3487.17,0.04962
3481.39,0.05004
3475.6,0.05011
3469.81,0.04999
3464.03,0.04993
3458.24,0.04985
3452.45,0.05001
3446.67,0.04980
3440.88,0.04984
3435.1,0.04973
3429.31,0.05027
3423.52,0.05016
3417.74,0.05029
3411.95,0.04963
3406.16,0.05043
3400.38,0.05000
3394.59,0.05065
3388.81,0.05035
3383.02,0.05035
3377.23,0.05106
3371.45,0.05122
3365.66,0.05084
3359.87,0.05127
3354.09,0.05176
3348.3,0.05199
3342.52,0.05197
3336.73,0.05214
3330.94,0.05205
3325.16,0.05228
3319.37,0.05268
3313.58,0.05188
3307.8,0.05256
3302.01,0.05267
3296.23,0.05317
3290.44,0.05277
3284.65,0.05417
3278.87,0.05447
3273.08,0.05470
3267.29,0.05480
3261.51,0.05471
3255.72,0.05569
3249.94,0.05612
3244.15,0.05675
3238.36,0.05781
3232.58,0.05771
3226.79,0.05861
3221,0.05924
3215.22,0.05993
3209.43,0.06012
3203.65,0.06097
3197.86,0.06220
3192.07,0.06282
3186.29,0.06408
3180.5,0.06443
3174.71,0.06521
3168.93,0.06597
3163.14,0.06666
3157.36,0.06744
3151.57,0.06781
3145.78,0.06921
3140,0.07054
3134.21,0.07104
3128.42,0.07259
3122.64,0.07380
3116.85,0.07590
3111.07,0.07713
3105.28,0.07885
3099.49,0.08025
3093.71,0.08225
3087.92,0.08477
3082.14,0.08731
3076.35,0.08862
3070.56,0.09068
3064.78,0.09314
3058.99,0.09620
3053.2,0.09751
3047.42,0.10035
3041.63,0.10236
3035.85,0.10415
3030.06,0.10609
3024.27,0.10820
3018.49,0.11001
3012.7,0.11223
3006.91,0.11448
3001.13,0.11717
2995.34,0.11931
2989.56,0.12159
2983.77,0.12373
2977.98,0.12654
2972.2,0.12988
2966.41,0.13305
2960.62,0.13639
2954.84,0.14033
2949.05,0.14409
2943.27,0.14812
2937.48,0.15171
2931.69,0.15502
2925.91,0.15879
2920.12,0.16245
2914.33,0.16744
2908.55,0.17198
2902.76,0.17613
2896.98,0.17999
2891.19,0.18433
2885.4,0.18762
2879.62,0.19069
2873.83,0.19349
2868.04,0.19595
2862.26,0.19819
2856.47,0.20118
2850.69,0.20479
2844.9,0.21201
2839.11,0.21924
2833.33,0.22529
2827.54,0.23009
2821.75,0.23590
2815.97,0.24114
2810.18,0.24704
2804.4,0.25355
2798.61,0.26060
2792.82,0.26655
2787.04,0.27289
2781.25,0.27860
2775.46,0.28414
2769.68,0.28869
2763.89,0.29354
2758.11,0.29770
2752.32,0.30122
2746.53,0.30468
2740.75,0.30784
2734.96,0.31157
2729.17,0.31409
2723.39,0.31756
2717.6,0.32085
2711.82,0.32488
2706.03,0.32878
2700.24,0.33268
2694.46,0.33725
2688.67,0.34244
2682.88,0.34723
2677.1,0.35216
2671.31,0.35672
2665.53,0.36179
2659.74,0.36593
2653.95,0.37104
2648.17,0.37441
2642.38,0.37809
2636.59,0.38046
2630.81,0.38254
2625.02,0.38422
2619.24,0.38514
2613.45,0.38558
2607.66,0.38584
2601.88,0.38563
2596.09,0.38581
2590.3,0.38566
2584.52,0.38543
2578.73,0.38521
2572.95,0.38544
2567.16,0.38559
2561.37,0.38617
2555.59,0.38762
2549.8,0.38859
2544.02,0.38994
2538.23,0.39139
2532.44,0.39234
2526.66,0.39405
2520.87,0.39498
2515.08,0.39654
2509.3,0.39757
2503.51,0.39897
2497.73,0.40025
2491.94,0.40098
2486.15,0.40046
2480.37,0.39982
2474.58,0.39900
2468.79,0.39806
2463.01,0.39669
2457.22,0.39511
2451.44,0.39356
2445.65,0.39230
2439.86,0.39116
2434.08,0.39019
2428.29,0.38985
2422.5,0.39014
2416.72,0.39141
2410.93,0.39308
2405.15,0.39461
2399.36,0.39712
2393.57,0.40025
2387.79,0.40322
2382,0.40604
2376.21,0.40887
2370.43,0.41130
2364.64,0.41339
2358.86,0.41463
2353.07,0.41541
2347.28,0.41526
2341.5,0.41483
2335.71,0.41392
2329.92,0.41282
2324.14,0.41101
2318.35,0.40942
2312.57,0.40748
2306.78,0.40621
2300.99,0.40419
2295.21,0.40317
2289.42,0.40281
2283.63,0.40258
2277.85,0.40324
2272.06,0.40435
2266.28,0.40630
2260.49,0.40875
2254.7,0.41112
2248.92,0.41399
2243.13,0.41659
2237.34,0.41898
2231.56,0.42106
2225.77,0.42192
2219.99,0.42299
2214.2,0.42262
2208.41,0.42179
2202.63,0.42008
2196.84,0.41804
2191.05,0.41522
2185.27,0.41200
2179.48,0.40809
2173.7,0.40465
2167.91,0.40175
2162.12,0.39851
2156.34,0.39630
2150.55,0.39411
2144.76,0.39352
2138.98,0.39366
2133.19,0.39514
2127.41,0.39738
2121.62,0.40070
2115.83,0.40538
2110.05,0.41006
2104.26,0.41396
2098.47,0.41775
2092.69,0.42150
2086.9,0.42434
2081.12,0.42656
2075.33,0.42788
2069.54,0.42826
2063.76,0.42800
2057.97,0.42703
2052.19,0.42518
2046.4,0.42264
2040.61,0.42051
2034.83,0.41808
2029.04,0.41580
2023.25,0.41449
2017.47,0.41378
2011.68,0.41374
2005.9,0.41477
2000.11,0.41742
1994.32,0.42063
1988.54,0.42456
1982.75,0.42908
1976.96,0.43472
1971.18,0.44027
1965.39,0.44497
1959.61,0.45007
1953.82,0.45381
1948.03,0.45748
1942.25,0.45937
1936.46,0.46010
1930.67,0.45964
1924.89,0.45807
1919.1,0.45489
1913.32,0.45141
1907.53,0.44726
1901.74,0.44349
1895.96,0.43857
1890.17,0.43510
1884.38,0.43193
1878.6,0.43043
1872.81,0.42959
1867.03,0.42961
1861.24,0.43187
1855.45,0.43462
1849.67,0.43869
1843.88,0.44265
1838.09,0.44720
1832.31,0.45167
1826.52,0.45505
1820.74,0.45840
1814.95,0.45961
1809.16,0.45815
1803.38,0.45472
1797.59,0.44905
1791.8,0.44392
1786.02,0.43911
1780.23,0.43208
1774.45,0.42306
1768.66,0.41232
1762.87,0.40146
1757.09,0.38923
1751.3,0.37619
1745.51,0.36281
1739.73,0.35031
1733.94,0.33707
1728.16,0.31667
1722.37,0.29295
1716.58,0.28415
1710.8,0.27743
1705.01,0.24954
1699.22,0.22464
1693.44,0.21499
1687.65,0.21618
1681.87,0.21882
1676.08,0.21868
1670.29,0.21249
1664.51,0.20291
1658.72,0.19104
1652.93,0.17652
1647.15,0.16181
1641.36,0.14846
1635.58,0.13572
1629.79,0.12538
1624,0.11691
1618.22,0.11106
1612.43,0.10802
1606.64,0.10965
1600.86,0.11635
1595.07,0.12481
1589.29,0.13327
1583.5,0.14113
1577.71,0.15209
1571.93,0.16768
1566.14,0.18704
1560.35,0.20711
1554.57,0.22871
1548.78,0.24277
1543,0.25154
1537.21,0.25620
1531.42,0.25710
1525.64,0.25271
1519.85,0.24368
1514.07,0.23281
1508.28,0.22225
1502.49,0.21366
1496.71,0.20618
1490.92,0.19914
1485.13,0.19299
1479.35,0.18904
1473.56,0.18680
1467.78,0.18712
1461.99,0.19232
1456.2,0.20067
1450.42,0.21297
1444.63,0.22248
1438.84,0.22443
1433.06,0.21925
1427.27,0.21598
1421.49,0.21322
1415.7,0.20485
1409.91,0.19316
1404.13,0.17668
1398.34,0.15464
1392.55,0.12904
1386.77,0.10696
1380.98,0.08897
1375.2,0.07672
1369.41,0.06882
1363.62,0.06308
1357.84,0.05906
1352.05,0.05552
1346.26,0.05282
1340.48,0.05035
1334.69,0.04722
1328.91,0.04468
1323.12,0.04131
1317.33,0.03812
1311.55,0.03490
1305.76,0.03157
1299.97,0.02838
1294.19,0.02566
1288.4,0.02371
1282.62,0.02271
1276.83,0.02266
1271.04,0.02288
1265.26,0.02327
1259.47,0.02399
1253.68,0.02449
1247.9,0.02456
1242.11,0.02443
1236.33,0.02391
1230.54,0.02390
1224.75,0.02373
1218.97,0.02370
1213.18,0.02361
1207.39,0.02412
1201.61,0.02341
1195.82,0.02383
1190.04,0.02432
1184.25,0.02525
1178.46,0.02551
1172.68,0.02604
1166.89,0.02703
1161.1,0.02770
1155.32,0.02809
1149.53,0.02914
1143.75,0.02960
1137.96,0.03033
1132.17,0.03057
1126.39,0.03054
1120.6,0.03142
1114.81,0.03231
1109.03,0.03199
1103.24,0.03119
1097.46,0.03162
1091.67,0.03118
1085.88,0.03114
1080.1,0.03090
1074.31,0.03002
1068.52,0.03061
1062.74,0.02895
1056.95,0.02945
1051.17,0.02862
1045.38,0.02862
1039.59,0.02782
1033.81,0.02734
1028.02,0.02688
1022.24,0.02610
1016.45,0.02534
1010.66,0.02356
1004.88,0.02273
999.09,0.02147
993.304,0.02128
987.518,0.02153
981.731,0.02171
975.945,0.02260
970.159,0.02365
964.373,0.02494
958.586,0.02721
952.8,0.03045
947.014,0.03387
941.228,0.03824
935.441,0.04326
929.655,0.04733
923.869,0.05275
918.083,0.05775
912.297,0.06204
906.51,0.06725
900.724,0.07222
894.938,0.07711
889.152,0.08144
883.365,0.08619
877.579,0.09035
871.793,0.09477
866.007,0.09922
860.22,0.10332
854.434,0.10771
848.648,0.11116
842.862,0.11497
837.075,0.11860
831.289,0.12127
825.503,0.12393
819.717,0.12823
813.931,0.13056
808.144,0.13418
802.358,0.13600
796.572,0.13688
790.786,0.13909
784.999,0.14059
779.213,0.14144
773.427,0.14311
767.641,0.14459
761.854,0.14694
756.068,0.14630
750.282,0.14857
744.496,0.14958
738.709,0.15087
732.923,0.15224
727.137,0.15477
721.351,0.15458
715.565,0.15620
709.778,0.15785
703.992,0.16073
698.206,0.16092
692.42,0.16155
686.633,0.16428
680.847,0.16418
675.061,0.16589
669.275,0.16702
663.488,0.16821
657.702,0.16697
651.916,0.16804
646.13,0.16913
640.343,0.17112
634.557,0.17103
628.771,0.17119
622.985,0.17333
617.198,0.17496
611.412,0.17497
605.626,0.17676
599.84,0.18014