File: 01_Data/Laminate_Flooring/FTIR/IS/Laminate_Flooring_IS_S_221003_R4.dpt
7497.03,0.60433
7491.25,0.60035
7485.46,0.59762
7479.67,0.59587
7473.89,0.59978
7468.1,0.59823
7462.32,0.59491
7456.53,0.60123
7450.74,0.59474
7444.96,0.59895
7439.17,0.59030
7433.38,0.59336
7427.6,0.60419
7421.81,0.60672
7416.03,0.59976
7410.24,0.59477
7404.45,0.59733
7398.67,0.60648
7392.88,0.59979
7387.09,0.60039
7381.31,0.60448
7375.52,0.59968
7369.74,0.60100
7363.95,0.58931
7358.16,0.59445
7352.38,0.60187
7346.59,0.59912
7340.8,0.60493
7335.02,0.59789
7329.23,0.60177
7323.45,0.59862
7317.66,0.60145
7311.87,0.60388
7306.09,0.59893
7300.3,0.59808
7294.51,0.60066
7288.73,0.60098
7282.94,0.60449
7277.16,0.59875
7271.37,0.60291
7265.58,0.60551
7259.8,0.60979
7254.01,0.59855
7248.22,0.59386
7242.44,0.59908
7236.65,0.60095
7230.87,0.60574
7225.08,0.60291
7219.29,0.59751
7213.51,0.59815
7207.72,0.59930
7201.93,0.59835
7196.15,0.61162
7190.36,0.59951
7184.58,0.60637
7178.79,0.60281
7173,0.60525
7167.22,0.60427
7161.43,0.60513
7155.65,0.60780
7149.86,0.60826
7144.07,0.60164
7138.29,0.60718
7132.5,0.60743
7126.71,0.60961
7120.93,0.60141
7115.14,0.61213
7109.36,0.60630
7103.57,0.60642
7097.78,0.60098
7092,0.60504
7086.21,0.60188
7080.42,0.60535
7074.64,0.60751
7068.85,0.60365
7063.07,0.60319
7057.28,0.60427
7051.49,0.61279
7045.71,0.60824
7039.92,0.60305
7034.13,0.60633
7028.35,0.60203
7022.56,0.60433
7016.78,0.60489
7010.99,0.60645
7005.2,0.60428
6999.42,0.61078
6993.63,0.60565
6987.84,0.60222
6982.06,0.60384
6976.27,0.60793
6970.49,0.60412
6964.7,0.60595
6958.91,0.61277
6953.13,0.60915
6947.34,0.60590
6941.55,0.60327
6935.77,0.60724
6929.98,0.60731
6924.2,0.60930
6918.41,0.61044
6912.62,0.61253
6906.84,0.61079
6901.05,0.61436
6895.26,0.62010
6889.48,0.61486
6883.69,0.60877
6877.91,0.61676
6872.12,0.61467
6866.33,0.61430
6860.55,0.61322
6854.76,0.60978
6848.97,0.60886
6843.19,0.61157
6837.4,0.61551
6831.62,0.61265
6825.83,0.61110
6820.04,0.61273
6814.26,0.61175
6808.47,0.61378
6802.68,0.61555
6796.9,0.61307
6791.11,0.60671
6785.33,0.61488
6779.54,0.61728
6773.75,0.61392
6767.97,0.61358
6762.18,0.61725
6756.39,0.61514
6750.61,0.61975
6744.82,0.61778
6739.04,0.62331
6733.25,0.61858
6727.46,0.62080
6721.68,0.61986
6715.89,0.61662
6710.1,0.61730
6704.32,0.61590
6698.53,0.61823
6692.75,0.61821
6686.96,0.62192
6681.17,0.62058
6675.39,0.61516
6669.6,0.62241
6663.82,0.62258
6658.03,0.62477
6652.24,0.61890
6646.46,0.62479
6640.67,0.62585
6634.88,0.62009
6629.1,0.62134
6623.31,0.61879
6617.53,0.61814
6611.74,0.62720
6605.95,0.62422
6600.17,0.62395
6594.38,0.62269
6588.59,0.62400
6582.81,0.62574
6577.02,0.62701
6571.24,0.62476
6565.45,0.62315
6559.66,0.61996
6553.88,0.62756
6548.09,0.62731
6542.3,0.62191
6536.52,0.62625
6530.73,0.62560
6524.95,0.62333
6519.16,0.62521
6513.37,0.62608
6507.59,0.62786
6501.8,0.62821
6496.01,0.62668
6490.23,0.62967
6484.44,0.62489
6478.66,0.62659
6472.87,0.62523
6467.08,0.62770
6461.3,0.62394
6455.51,0.62698
6449.72,0.63422
6443.94,0.62962
6438.15,0.62769
6432.37,0.63081
6426.58,0.62965
6420.79,0.63269
6415.01,0.62715
6409.22,0.63089
6403.43,0.62829
6397.65,0.63015
6391.86,0.63069
6386.08,0.63100
6380.29,0.62853
6374.5,0.62820
6368.72,0.63063
6362.93,0.63082
6357.14,0.63201
6351.36,0.63249
6345.57,0.63020
6339.79,0.62865
6334,0.62928
6328.21,0.62788
6322.43,0.63066
6316.64,0.62875
6310.85,0.62947
6305.07,0.63320
6299.28,0.63106
6293.5,0.63281
6287.71,0.63274
6281.92,0.63114
6276.14,0.63221
6270.35,0.63413
6264.56,0.63158
6258.78,0.63216
6252.99,0.63304
6247.21,0.63389
6241.42,0.63128
6235.63,0.63341
6229.85,0.63477
6224.06,0.63418
6218.27,0.63543
6212.49,0.63281
6206.7,0.63394
6200.92,0.63185
6195.13,0.63563
6189.34,0.63647
6183.56,0.63432
6177.77,0.63673
6171.98,0.63650
6166.2,0.63561
6160.41,0.63525
6154.63,0.63589
6148.84,0.63848
6143.05,0.63558
6137.27,0.63785
6131.48,0.63572
6125.7,0.63576
6119.91,0.63943
6114.12,0.63894
6108.34,0.63935
6102.55,0.63781
6096.76,0.63688
6090.98,0.64040
6085.19,0.63956
6079.41,0.63649
6073.62,0.63710
6067.83,0.63471
6062.05,0.64036
6056.26,0.63655
6050.47,0.64077
6044.69,0.63881
6038.9,0.63976
6033.12,0.63986
6027.33,0.63874
6021.54,0.63603
6015.76,0.63858
6009.97,0.63983
6004.18,0.63785
5998.4,0.63944
5992.61,0.63816
5986.83,0.63853
5981.04,0.64328
5975.25,0.64060
5969.47,0.63954
5963.68,0.64038
5957.89,0.64159
5952.11,0.64033
5946.32,0.64172
5940.54,0.64303
5934.75,0.64217
5928.96,0.64135
5923.18,0.64371
5917.39,0.64338
5911.6,0.64280
5905.82,0.64270
5900.03,0.64423
5894.25,0.64389
5888.46,0.64418
5882.67,0.64215
5876.89,0.64455
5871.1,0.64169
5865.31,0.64493
5859.53,0.64299
5853.74,0.64388
5847.96,0.64410
5842.17,0.64279
5836.38,0.64591
5830.6,0.64354
5824.81,0.64046
5819.02,0.64414
5813.24,0.64354
5807.45,0.64286
5801.67,0.64430
5795.88,0.64308
5790.09,0.64630
5784.31,0.64594
5778.52,0.64602
5772.73,0.64523
5766.95,0.64392
5761.16,0.64669
5755.38,0.64819
5749.59,0.64341
5743.8,0.64251
5738.02,0.64510
5732.23,0.64592
5726.44,0.64618
5720.66,0.64674
5714.87,0.64765
5709.09,0.65022
5703.3,0.64912
5697.51,0.64891
5691.73,0.64780
5685.94,0.64653
5680.15,0.64865
5674.37,0.64768
5668.58,0.64910
5662.8,0.64852
5657.01,0.64850
5651.22,0.64726
5645.44,0.65002
5639.65,0.64807
5633.87,0.64978
5628.08,0.65110
5622.29,0.65299
5616.51,0.65197
5610.72,0.64986
5604.93,0.64851
5599.15,0.65131
5593.36,0.65068
5587.58,0.64937
5581.79,0.65017
5576,0.65037
5570.22,0.65265
5564.43,0.65458
5558.64,0.65352
5552.86,0.65221
5547.07,0.65316
5541.29,0.65150
5535.5,0.65305
5529.71,0.65223
5523.93,0.65386
5518.14,0.65386
5512.35,0.65304
5506.57,0.65213
5500.78,0.65413
5495,0.65288
5489.21,0.65308
5483.42,0.65444
5477.64,0.65486
5471.85,0.65464
5466.06,0.65431
5460.28,0.65462
5454.49,0.65433
5448.71,0.65569
5442.92,0.65480
5437.13,0.65581
5431.35,0.65693
5425.56,0.65763
5419.77,0.65869
5413.99,0.65671
5408.2,0.65607
5402.42,0.65771
5396.63,0.65806
5390.84,0.65588
5385.06,0.65673
5379.27,0.65666
5373.48,0.65876
5367.7,0.65807
5361.91,0.65841
5356.13,0.65705
5350.34,0.65759
5344.55,0.65939
5338.77,0.65753
5332.98,0.65586
5327.19,0.65816
5321.41,0.65765
5315.62,0.65870
5309.84,0.65747
5304.05,0.65879
5298.26,0.65928
5292.48,0.65711
5286.69,0.65661
5280.9,0.65412
5275.12,0.65673
5269.33,0.65569
5263.55,0.65519
5257.76,0.65535
5251.97,0.65448
5246.19,0.65345
5240.4,0.65279
5234.61,0.65324
5228.83,0.65230
5223.04,0.65084
5217.26,0.65106
5211.47,0.65056
5205.68,0.65053
5199.9,0.65133
5194.11,0.65112
5188.32,0.65111
5182.54,0.65123
5176.75,0.65157
5170.97,0.65152
5165.18,0.64950
5159.39,0.65224
5153.61,0.65142
5147.82,0.65032
5142.03,0.65104
5136.25,0.65119
5130.46,0.65328
5124.68,0.65119
5118.89,0.65021
5113.1,0.65193
5107.32,0.65279
5101.53,0.65355
5095.75,0.65190
5089.96,0.65371
5084.17,0.65381
5078.39,0.65371
5072.6,0.65590
5066.81,0.65453
5061.03,0.65562
5055.24,0.65662
5049.46,0.65677
5043.67,0.65683
5037.88,0.65639
5032.1,0.65751
5026.31,0.65605
5020.52,0.65780
5014.74,0.65979
5008.95,0.65938
5003.17,0.65935
4997.38,0.65923
4991.59,0.66054
4985.81,0.65907
4980.02,0.66083
4974.23,0.66085
4968.45,0.66049
4962.66,0.66088
4956.88,0.66294
4951.09,0.66125
4945.3,0.66172
4939.52,0.66077
4933.73,0.66274
4927.94,0.66323
4922.16,0.66304
4916.37,0.66332
4910.59,0.66263
4904.8,0.66374
4899.01,0.66364
4893.23,0.66423
4887.44,0.66520
4881.65,0.66572
4875.87,0.66546
4870.08,0.66539
4864.3,0.66530
4858.51,0.66411
4852.72,0.66421
4846.94,0.66609
4841.15,0.66565
4835.36,0.66577
4829.58,0.66742
4823.79,0.66672
4818.01,0.66796
4812.22,0.66653
4806.43,0.66691
4800.65,0.66760
4794.86,0.66843
4789.07,0.66726
4783.29,0.66795
4777.5,0.66845
4771.72,0.66865
4765.93,0.66769
4760.14,0.66783
4754.36,0.66899
4748.57,0.66875
4742.78,0.66955
4737,0.66955
4731.21,0.67033
4725.43,0.66836
4719.64,0.66757
4713.85,0.66804
4708.07,0.66701
4702.28,0.66738
4696.49,0.66708
4690.71,0.66750
4684.92,0.66691
4679.14,0.66602
4673.35,0.66598
4667.56,0.66618
4661.78,0.66531
4655.99,0.66480
4650.2,0.66455
4644.42,0.66422
4638.63,0.66393
4632.85,0.66335
4627.06,0.66258
4621.27,0.66328
4615.49,0.66193
4609.7,0.66131
4603.92,0.66199
4598.13,0.66249
4592.34,0.66223
4586.56,0.66251
4580.77,0.66050
4574.98,0.66081
4569.2,0.66154
4563.41,0.66058
4557.63,0.66069
4551.84,0.66012
4546.05,0.66105
4540.27,0.66054
4534.48,0.66131
4528.69,0.66160
4522.91,0.66025
4517.12,0.66137
4511.34,0.66079
4505.55,0.66165
4499.76,0.66234
4493.98,0.66182
4488.19,0.66185
4482.4,0.66187
4476.62,0.66178
4470.83,0.66142
4465.05,0.66201
4459.26,0.66211
4453.47,0.66337
4447.69,0.66235
4441.9,0.66236
4436.11,0.66337
4430.33,0.66336
4424.54,0.66296
4418.76,0.66330
4412.97,0.66251
4407.18,0.66295
4401.4,0.66268
4395.61,0.66261
4389.82,0.66230
4384.04,0.66232
4378.25,0.66197
4372.47,0.66144
4366.68,0.66096
4360.89,0.66002
4355.11,0.65973
4349.32,0.65980
4343.53,0.65907
4337.75,0.65929
4331.96,0.65848
4326.18,0.65809
4320.39,0.65748
4314.6,0.65871
4308.82,0.65903
4303.03,0.65915
4297.24,0.65855
4291.46,0.65862
4285.67,0.65792
4279.89,0.65655
4274.1,0.65813
4268.31,0.65746
4262.53,0.65777
4256.74,0.65766
4250.95,0.65692
4245.17,0.65638
4239.38,0.65689
4233.6,0.65625
4227.81,0.65654
4222.02,0.65552
4216.24,0.65523
4210.45,0.65469
4204.66,0.65557
4198.88,0.65533
4193.09,0.65520
4187.31,0.65535
4181.52,0.65485
4175.73,0.65464
4169.95,0.65316
4164.16,0.65431
4158.37,0.65354
4152.59,0.65328
4146.8,0.65418
4141.02,0.65321
4135.23,0.65305
4129.44,0.65302
4123.66,0.65165
4117.87,0.65197
4112.09,0.65115
4106.3,0.65009
4100.51,0.64915
4094.73,0.64927
4088.94,0.64846
4083.15,0.64859
4077.37,0.64730
4071.58,0.64661
4065.8,0.64650
4060.01,0.64572
4054.22,0.64627
4048.44,0.64590
4042.65,0.64498
4036.86,0.64494
4031.08,0.64409
4025.29,0.64279
4019.51,0.64318
4013.72,0.64219
4007.93,0.64200
4002.15,0.64107
3996.36,0.64131
3990.57,0.64177
3984.79,0.64134
3979,0.64147
3973.22,0.64087
3967.43,0.64020
3961.64,0.63967
3955.86,0.63902
3950.07,0.63889
3944.28,0.63859
3938.5,0.63865
3932.71,0.63908
3926.93,0.63824
3921.14,0.63817
3915.35,0.63860
3909.57,0.63840
3903.78,0.63693
3897.99,0.63712
3892.21,0.63754
3886.42,0.63695
3880.64,0.63707
3874.85,0.63659
3869.06,0.63580
3863.28,0.63575
3857.49,0.63568
3851.7,0.63287
3845.92,0.63503
3840.13,0.63355
3834.35,0.63211
3828.56,0.63214
3822.77,0.63124
3816.99,0.62956
3811.2,0.62857
3805.41,0.62667
3799.63,0.62531
3793.84,0.62366
3788.06,0.62207
3782.27,0.61966
3776.48,0.61676
3770.7,0.61368
3764.91,0.60888
3759.12,0.60332
3753.34,0.59731
3747.55,0.58864
3741.77,0.57959
3735.98,0.56888
3730.19,0.55386
3724.41,0.53650
3718.62,0.51222
3712.83,0.48509
3707.05,0.45073
3701.26,0.41520
3695.48,0.37870
3689.69,0.34253
3683.9,0.30597
3678.12,0.27246
3672.33,0.23511
3666.54,0.20159
3660.76,0.17442
3654.97,0.14949
3649.19,0.12815
3643.4,0.11049
3637.61,0.09713
3631.83,0.08697
3626.04,0.07895
3620.25,0.07362
3614.47,0.06894
3608.68,0.06579
3602.9,0.06228
3597.11,0.05974
3591.32,0.05847
3585.54,0.05682
3579.75,0.05604
3573.97,0.05501
3568.18,0.05451
3562.39,0.05361
3556.61,0.05231
3550.82,0.05226
3545.03,0.05263
3539.25,0.05193
3533.46,0.05181
3527.68,0.05113
3521.89,0.05069
3516.1,0.04959
3510.32,0.05062
3504.53,0.05011
3498.74,0.05055
3492.96,0.04983
3487.17,0.05035
3481.39,0.04998
3475.6,0.04924
3469.81,0.04986
3464.03,0.04927
3458.24,0.04912
3452.45,0.04947
3446.67,0.05013
3440.88,0.04938
3435.1,0.05035
3429.31,0.05036
3423.52,0.05019
3417.74,0.04988
3411.95,0.05071
3406.16,0.05069
3400.38,0.05001
3394.59,0.05099
3388.81,0.05109
3383.02,0.05044
3377.23,0.05071
3371.45,0.05115
3365.66,0.05081
3359.87,0.05086
3354.09,0.05138
3348.3,0.05163
3342.52,0.05114
3336.73,0.05205
3330.94,0.05176
3325.16,0.05250
3319.37,0.05289
3313.58,0.05253
3307.8,0.05297
3302.01,0.05323
3296.23,0.05369
3290.44,0.05327
3284.65,0.05361
3278.87,0.05440
3273.08,0.05418
3267.29,0.05452
3261.51,0.05536
3255.72,0.05595
3249.94,0.05586
3244.15,0.05562
3238.36,0.05703
3232.58,0.05750
3226.79,0.05853
3221,0.05882
3215.22,0.05982
3209.43,0.05993
3203.65,0.06110
3197.86,0.06211
3192.07,0.06272
3186.29,0.06324
3180.5,0.06436
3174.71,0.06501
3168.93,0.06546
3163.14,0.06630
3157.36,0.06708
3151.57,0.06831
3145.78,0.06909
3140,0.07013
3134.21,0.07185
3128.42,0.07266
3122.64,0.07346
3116.85,0.07539
3111.07,0.07698
3105.28,0.07834
3099.49,0.08029
3093.71,0.08238
3087.92,0.08515
3082.14,0.08693
3076.35,0.08878
3070.56,0.09089
3064.78,0.09308
3058.99,0.09536
3053.2,0.09779
3047.42,0.09973
3041.63,0.10190
3035.85,0.10435
3030.06,0.10637
3024.27,0.10863
3018.49,0.11083
3012.7,0.11260
3006.91,0.11453
3001.13,0.11644
2995.34,0.11869
2989.56,0.12120
2983.77,0.12408
2977.98,0.12691
2972.2,0.12934
2966.41,0.13322
2960.62,0.13634
2954.84,0.13948
2949.05,0.14355
2943.27,0.14742
2937.48,0.15100
2931.69,0.15431
2925.91,0.15808
2920.12,0.16215
2914.33,0.16677
2908.55,0.17214
2902.76,0.17573
2896.98,0.17954
2891.19,0.18358
2885.4,0.18688
2879.62,0.18956
2873.83,0.19237
2868.04,0.19507
2862.26,0.19809
2856.47,0.20073
2850.69,0.20425
2844.9,0.21128
2839.11,0.21866
2833.33,0.22504
2827.54,0.22971
2821.75,0.23469
2815.97,0.24055
2810.18,0.24660
2804.4,0.25357
2798.61,0.25964
2792.82,0.26599
2787.04,0.27266
2781.25,0.27798
2775.46,0.28350
2769.68,0.28798
2763.89,0.29248
2758.11,0.29652
2752.32,0.30019
2746.53,0.30378
2740.75,0.30674
2734.96,0.31027
2729.17,0.31365
2723.39,0.31695
2717.6,0.32016
2711.82,0.32383
2706.03,0.32813
2700.24,0.33208
2694.46,0.33694
2688.67,0.34153
2682.88,0.34583
2677.1,0.35111
2671.31,0.35600
2665.53,0.36100
2659.74,0.36511
2653.95,0.36966
2648.17,0.37382
2642.38,0.37711
2636.59,0.38008
2630.81,0.38142
2625.02,0.38358
2619.24,0.38470
2613.45,0.38523
2607.66,0.38540
2601.88,0.38499
2596.09,0.38458
2590.3,0.38451
2584.52,0.38483
2578.73,0.38449
2572.95,0.38427
2567.16,0.38482
2561.37,0.38555
2555.59,0.38617
2549.8,0.38766
2544.02,0.38888
2538.23,0.39027
2532.44,0.39134
2526.66,0.39264
2520.87,0.39385
2515.08,0.39523
2509.3,0.39664
2503.51,0.39782
2497.73,0.39909
2491.94,0.39938
2486.15,0.39949
2480.37,0.39913
2474.58,0.39896
2468.79,0.39740
2463.01,0.39593
2457.22,0.39429
2451.44,0.39243
2445.65,0.39116
2439.86,0.39040
2434.08,0.38915
2428.29,0.38924
2422.5,0.38954
2416.72,0.39056
2410.93,0.39200
2405.15,0.39418
2399.36,0.39663
2393.57,0.39931
2387.79,0.40229
2382,0.40549
2376.21,0.40775
2370.43,0.40981
2364.64,0.41189
2358.86,0.41337
2353.07,0.41400
2347.28,0.41469
2341.5,0.41405
2335.71,0.41304
2329.92,0.41201
2324.14,0.41041
2318.35,0.40871
2312.57,0.40648
2306.78,0.40471
2300.99,0.40335
2295.21,0.40259
2289.42,0.40187
2283.63,0.40165
2277.85,0.40229
2272.06,0.40317
2266.28,0.40529
2260.49,0.40748
2254.7,0.41047
2248.92,0.41310
2243.13,0.41548
2237.34,0.41774
2231.56,0.41991
2225.77,0.42117
2219.99,0.42159
2214.2,0.42163
2208.41,0.42114
2202.63,0.41927
2196.84,0.41711
2191.05,0.41454
2185.27,0.41111
2179.48,0.40754
2173.7,0.40404
2167.91,0.40086
2162.12,0.39768
2156.34,0.39524
2150.55,0.39357
2144.76,0.39234
2138.98,0.39260
2133.19,0.39418
2127.41,0.39687
2121.62,0.40014
2115.83,0.40428
2110.05,0.40831
2104.26,0.41297
2098.47,0.41679
2092.69,0.41997
2086.9,0.42336
2081.12,0.42538
2075.33,0.42695
2069.54,0.42778
2063.76,0.42707
2057.97,0.42560
2052.19,0.42409
2046.4,0.42173
2040.61,0.41966
2034.83,0.41726
2029.04,0.41506
2023.25,0.41346
2017.47,0.41276
2011.68,0.41262
2005.9,0.41411
2000.11,0.41619
1994.32,0.41945
1988.54,0.42340
1982.75,0.42868
1976.96,0.43371
1971.18,0.43898
1965.39,0.44463
1959.61,0.44870
1953.82,0.45274
1948.03,0.45603
1942.25,0.45828
1936.46,0.45920
1930.67,0.45906
1924.89,0.45704
1919.1,0.45430
1913.32,0.45094
1907.53,0.44663
1901.74,0.44189
1895.96,0.43787
1890.17,0.43407
1884.38,0.43118
1878.6,0.42918
1872.81,0.42857
1867.03,0.42880
1861.24,0.43075
1855.45,0.43353
1849.67,0.43736
1843.88,0.44151
1838.09,0.44641
1832.31,0.45074
1826.52,0.45361
1820.74,0.45663
1814.95,0.45788
1809.16,0.45685
1803.38,0.45328
1797.59,0.44821
1791.8,0.44260
1786.02,0.43840
1780.23,0.43123
1774.45,0.42234
1768.66,0.41114
1762.87,0.40026
1757.09,0.38836
1751.3,0.37564
1745.51,0.36162
1739.73,0.34957
1733.94,0.33588
1728.16,0.31585
1722.37,0.29251
1716.58,0.28344
1710.8,0.27655
1705.01,0.24876
1699.22,0.22361
1693.44,0.21406
1687.65,0.21530
1681.87,0.21798
1676.08,0.21820
1670.29,0.21174
1664.51,0.20246
1658.72,0.19046
1652.93,0.17549
1647.15,0.16111
1641.36,0.14832
1635.58,0.13531
1629.79,0.12476
1624,0.11662
1618.22,0.11089
1612.43,0.10767
1606.64,0.10956
1600.86,0.11600
1595.07,0.12486
1589.29,0.13275
1583.5,0.14070
1577.71,0.15152
1571.93,0.16708
1566.14,0.18651
1560.35,0.20588
1554.57,0.22755
1548.78,0.24200
1543,0.25033
1537.21,0.25525
1531.42,0.25652
1525.64,0.25201
1519.85,0.24288
1514.07,0.23168
1508.28,0.22158
1502.49,0.21268
1496.71,0.20537
1490.92,0.19834
1485.13,0.19226
1479.35,0.18856
1473.56,0.18628
1467.78,0.18685
1461.99,0.19155
1456.2,0.19964
1450.42,0.21226
1444.63,0.22227
1438.84,0.22386
1433.06,0.21868
1427.27,0.21602
1421.49,0.21236
1415.7,0.20445
1409.91,0.19314
1404.13,0.17623
1398.34,0.15376
1392.55,0.12890
1386.77,0.10686
1380.98,0.08871
1375.2,0.07622
1369.41,0.06885
1363.62,0.06322
1357.84,0.05914
1352.05,0.05574
1346.26,0.05302
1340.48,0.05066
1334.69,0.04776
1328.91,0.04445
1323.12,0.04113
1317.33,0.03818
1311.55,0.03503
1305.76,0.03150
1299.97,0.02832
1294.19,0.02569
1288.4,0.02387
1282.62,0.02277
1276.83,0.02255
1271.04,0.02270
1265.26,0.02367
1259.47,0.02381
1253.68,0.02429
1247.9,0.02408
1242.11,0.02456
1236.33,0.02399
1230.54,0.02420
1224.75,0.02357
1218.97,0.02384
1213.18,0.02362
1207.39,0.02380
1201.61,0.02375
1195.82,0.02442
1190.04,0.02432
1184.25,0.02520
1178.46,0.02561
1172.68,0.02617
1166.89,0.02727
1161.1,0.02759
1155.32,0.02840
1149.53,0.02875
1143.75,0.03015
1137.96,0.03034
1132.17,0.03071
1126.39,0.03052
1120.6,0.03064
1114.81,0.03234
1109.03,0.03182
1103.24,0.03121
1097.46,0.03139
1091.67,0.03101
1085.88,0.03177
1080.1,0.03092
1074.31,0.03045
1068.52,0.03024
1062.74,0.02913
1056.95,0.02902
1051.17,0.02924
1045.38,0.02874
1039.59,0.02836
1033.81,0.02773
1028.02,0.02750
1022.24,0.02645
1016.45,0.02438
1010.66,0.02338
1004.88,0.02243
999.09,0.02172
993.304,0.02154
987.518,0.02174
981.731,0.02169
975.945,0.02251
970.159,0.02350
964.373,0.02445
958.586,0.02778
952.8,0.03065
947.014,0.03460
941.228,0.03853
935.441,0.04311
929.655,0.04776
923.869,0.05227
918.083,0.05738
912.297,0.06200
906.51,0.06739
900.724,0.07231
894.938,0.07740
889.152,0.08129
883.365,0.08500
877.579,0.09022
871.793,0.09444
866.007,0.09906
860.22,0.10310
854.434,0.10766
848.648,0.11072
842.862,0.11505
837.075,0.11813
831.289,0.12151
825.503,0.12469
819.717,0.12782
813.931,0.13138
808.144,0.13330
802.358,0.13536
796.572,0.13780
790.786,0.13921
784.999,0.14083
779.213,0.14157
773.427,0.14300
767.641,0.14523
761.854,0.14619
756.068,0.14681
750.282,0.14782
744.496,0.14913
738.709,0.15056
732.923,0.15279
727.137,0.15458
721.351,0.15526
715.565,0.15699
709.778,0.15846
703.992,0.15852
698.206,0.16168
692.42,0.16240
686.633,0.16276
680.847,0.16435
675.061,0.16542
669.275,0.16629
663.488,0.16880
657.702,0.16842
651.916,0.16838
646.13,0.16952
640.343,0.16987
634.557,0.17029
628.771,0.17072
622.985,0.17120
617.198,0.17263
611.412,0.17607
605.626,0.17746
599.84,0.17738