File: 01_Data/Laminate_Flooring/FTIR/IS/Laminate_Flooring_IS_S_221003_R7.dpt
7497.03,0.60437
7491.25,0.61205
7485.46,0.60199
7479.67,0.59550
7473.89,0.60634
7468.1,0.60740
7462.32,0.60056
7456.53,0.60654
7450.74,0.60509
7444.96,0.59729
7439.17,0.59534
7433.38,0.59751
7427.6,0.60617
7421.81,0.59744
7416.03,0.59908
7410.24,0.60540
7404.45,0.60016
7398.67,0.59965
7392.88,0.60599
7387.09,0.59934
7381.31,0.59832
7375.52,0.60382
7369.74,0.60511
7363.95,0.60917
7358.16,0.60335
7352.38,0.61011
7346.59,0.61270
7340.8,0.60438
7335.02,0.60282
7329.23,0.60367
7323.45,0.59490
7317.66,0.60277
7311.87,0.60461
7306.09,0.60095
7300.3,0.60731
7294.51,0.60215
7288.73,0.60516
7282.94,0.60077
7277.16,0.60026
7271.37,0.59933
7265.58,0.60910
7259.8,0.61161
7254.01,0.60515
7248.22,0.59998
7242.44,0.60415
7236.65,0.60233
7230.87,0.60428
7225.08,0.60757
7219.29,0.60744
7213.51,0.60654
7207.72,0.60143
7201.93,0.60520
7196.15,0.59533
7190.36,0.60046
7184.58,0.60049
7178.79,0.60851
7173,0.60815
7167.22,0.60821
7161.43,0.60021
7155.65,0.59810
7149.86,0.59894
7144.07,0.60527
7138.29,0.59971
7132.5,0.59814
7126.71,0.61085
7120.93,0.60099
7115.14,0.60219
7109.36,0.59903
7103.57,0.60055
7097.78,0.60123
7092,0.60275
7086.21,0.59730
7080.42,0.60919
7074.64,0.60409
7068.85,0.60801
7063.07,0.60969
7057.28,0.60725
7051.49,0.59929
7045.71,0.60472
7039.92,0.60560
7034.13,0.60437
7028.35,0.60491
7022.56,0.60601
7016.78,0.60824
7010.99,0.60381
7005.2,0.61643
6999.42,0.60763
6993.63,0.61251
6987.84,0.60990
6982.06,0.60664
6976.27,0.60596
6970.49,0.60619
6964.7,0.61229
6958.91,0.60811
6953.13,0.61483
6947.34,0.61405
6941.55,0.61468
6935.77,0.61293
6929.98,0.61332
6924.2,0.61197
6918.41,0.61006
6912.62,0.61048
6906.84,0.61294
6901.05,0.61621
6895.26,0.61144
6889.48,0.60667
6883.69,0.60936
6877.91,0.61156
6872.12,0.61178
6866.33,0.61426
6860.55,0.61370
6854.76,0.61485
6848.97,0.61502
6843.19,0.61280
6837.4,0.61099
6831.62,0.61569
6825.83,0.61683
6820.04,0.60891
6814.26,0.61785
6808.47,0.61721
6802.68,0.62399
6796.9,0.61373
6791.11,0.62221
6785.33,0.62282
6779.54,0.61941
6773.75,0.61541
6767.97,0.61549
6762.18,0.61824
6756.39,0.61499
6750.61,0.61911
6744.82,0.62198
6739.04,0.61817
6733.25,0.61896
6727.46,0.61552
6721.68,0.61888
6715.89,0.62457
6710.1,0.62134
6704.32,0.62464
6698.53,0.62081
6692.75,0.62204
6686.96,0.62135
6681.17,0.61812
6675.39,0.62250
6669.6,0.61944
6663.82,0.62344
6658.03,0.62188
6652.24,0.62323
6646.46,0.62243
6640.67,0.62281
6634.88,0.62765
6629.1,0.62213
6623.31,0.62158
6617.53,0.62659
6611.74,0.62402
6605.95,0.62306
6600.17,0.62445
6594.38,0.62759
6588.59,0.62766
6582.81,0.62496
6577.02,0.62542
6571.24,0.62691
6565.45,0.62537
6559.66,0.62548
6553.88,0.62342
6548.09,0.62829
6542.3,0.63168
6536.52,0.62616
6530.73,0.62446
6524.95,0.62811
6519.16,0.62937
6513.37,0.62851
6507.59,0.62770
6501.8,0.62707
6496.01,0.62944
6490.23,0.62210
6484.44,0.62229
6478.66,0.62789
6472.87,0.63274
6467.08,0.62494
6461.3,0.62680
6455.51,0.63175
6449.72,0.63030
6443.94,0.62901
6438.15,0.63369
6432.37,0.62583
6426.58,0.62709
6420.79,0.62980
6415.01,0.62845
6409.22,0.62639
6403.43,0.63040
6397.65,0.63200
6391.86,0.63028
6386.08,0.63231
6380.29,0.63341
6374.5,0.63076
6368.72,0.63225
6362.93,0.63098
6357.14,0.63251
6351.36,0.63109
6345.57,0.62842
6339.79,0.62933
6334,0.63164
6328.21,0.63315
6322.43,0.63132
6316.64,0.62905
6310.85,0.63631
6305.07,0.63389
6299.28,0.63151
6293.5,0.63486
6287.71,0.63173
6281.92,0.63349
6276.14,0.63453
6270.35,0.63564
6264.56,0.63409
6258.78,0.63397
6252.99,0.63238
6247.21,0.63450
6241.42,0.63524
6235.63,0.63762
6229.85,0.63532
6224.06,0.63692
6218.27,0.63432
6212.49,0.63703
6206.7,0.63584
6200.92,0.63715
6195.13,0.63985
6189.34,0.63665
6183.56,0.63428
6177.77,0.63717
6171.98,0.63816
6166.2,0.63712
6160.41,0.63562
6154.63,0.63546
6148.84,0.63916
6143.05,0.63716
6137.27,0.63538
6131.48,0.63904
6125.7,0.63939
6119.91,0.63877
6114.12,0.63715
6108.34,0.63868
6102.55,0.64200
6096.76,0.63852
6090.98,0.63875
6085.19,0.63818
6079.41,0.63771
6073.62,0.63812
6067.83,0.63979
6062.05,0.64140
6056.26,0.64014
6050.47,0.63867
6044.69,0.63741
6038.9,0.63828
6033.12,0.63996
6027.33,0.64057
6021.54,0.63969
6015.76,0.64209
6009.97,0.63992
6004.18,0.64234
5998.4,0.64210
5992.61,0.64008
5986.83,0.64267
5981.04,0.64294
5975.25,0.64384
5969.47,0.64075
5963.68,0.64084
5957.89,0.64283
5952.11,0.64225
5946.32,0.64170
5940.54,0.64255
5934.75,0.64384
5928.96,0.64325
5923.18,0.64057
5917.39,0.64332
5911.6,0.64212
5905.82,0.64197
5900.03,0.64367
5894.25,0.64269
5888.46,0.64659
5882.67,0.64155
5876.89,0.64490
5871.1,0.64227
5865.31,0.64218
5859.53,0.64398
5853.74,0.64393
5847.96,0.64593
5842.17,0.64498
5836.38,0.64293
5830.6,0.64494
5824.81,0.64462
5819.02,0.64414
5813.24,0.64621
5807.45,0.64508
5801.67,0.64518
5795.88,0.64563
5790.09,0.64675
5784.31,0.64649
5778.52,0.64799
5772.73,0.64672
5766.95,0.64492
5761.16,0.64588
5755.38,0.64620
5749.59,0.64883
5743.8,0.64772
5738.02,0.64817
5732.23,0.64798
5726.44,0.64650
5720.66,0.64834
5714.87,0.64701
5709.09,0.64804
5703.3,0.64757
5697.51,0.64853
5691.73,0.64849
5685.94,0.65015
5680.15,0.65090
5674.37,0.64985
5668.58,0.65193
5662.8,0.65067
5657.01,0.65234
5651.22,0.65017
5645.44,0.65225
5639.65,0.65027
5633.87,0.65135
5628.08,0.64988
5622.29,0.65239
5616.51,0.65058
5610.72,0.65104
5604.93,0.65084
5599.15,0.65198
5593.36,0.65345
5587.58,0.65185
5581.79,0.65134
5576,0.65347
5570.22,0.65220
5564.43,0.65317
5558.64,0.65236
5552.86,0.65520
5547.07,0.65323
5541.29,0.65341
5535.5,0.65514
5529.71,0.65532
5523.93,0.65609
5518.14,0.65333
5512.35,0.65547
5506.57,0.65463
5500.78,0.65495
5495,0.65648
5489.21,0.65688
5483.42,0.65604
5477.64,0.65662
5471.85,0.65490
5466.06,0.65542
5460.28,0.65594
5454.49,0.65637
5448.71,0.65574
5442.92,0.65755
5437.13,0.65799
5431.35,0.65601
5425.56,0.65760
5419.77,0.65964
5413.99,0.65699
5408.2,0.65752
5402.42,0.65764
5396.63,0.65754
5390.84,0.65845
5385.06,0.65907
5379.27,0.65904
5373.48,0.66011
5367.7,0.65796
5361.91,0.65858
5356.13,0.65853
5350.34,0.65940
5344.55,0.65905
5338.77,0.66070
5332.98,0.65894
5327.19,0.65905
5321.41,0.66098
5315.62,0.65969
5309.84,0.65882
5304.05,0.65863
5298.26,0.65837
5292.48,0.65917
5286.69,0.65751
5280.9,0.65699
5275.12,0.65738
5269.33,0.65611
5263.55,0.65516
5257.76,0.65586
5251.97,0.65359
5246.19,0.65263
5240.4,0.65579
5234.61,0.65244
5228.83,0.65301
5223.04,0.65271
5217.26,0.65293
5211.47,0.65149
5205.68,0.65048
5199.9,0.65318
5194.11,0.65331
5188.32,0.65080
5182.54,0.65185
5176.75,0.65287
5170.97,0.65328
5165.18,0.65129
5159.39,0.65170
5153.61,0.65201
5147.82,0.65211
5142.03,0.65268
5136.25,0.65292
5130.46,0.65346
5124.68,0.65195
5118.89,0.65340
5113.1,0.65368
5107.32,0.65304
5101.53,0.65454
5095.75,0.65453
5089.96,0.65594
5084.17,0.65556
5078.39,0.65534
5072.6,0.65447
5066.81,0.65639
5061.03,0.65671
5055.24,0.65609
5049.46,0.65628
5043.67,0.65671
5037.88,0.65913
5032.1,0.65786
5026.31,0.65942
5020.52,0.65730
5014.74,0.65958
5008.95,0.66008
5003.17,0.66005
4997.38,0.65933
4991.59,0.66029
4985.81,0.66083
4980.02,0.66137
4974.23,0.66195
4968.45,0.66202
4962.66,0.66222
4956.88,0.66246
4951.09,0.66189
4945.3,0.66267
4939.52,0.66378
4933.73,0.66475
4927.94,0.66360
4922.16,0.66401
4916.37,0.66407
4910.59,0.66438
4904.8,0.66537
4899.01,0.66651
4893.23,0.66620
4887.44,0.66583
4881.65,0.66698
4875.87,0.66630
4870.08,0.66570
4864.3,0.66699
4858.51,0.66677
4852.72,0.66690
4846.94,0.66625
4841.15,0.66760
4835.36,0.66862
4829.58,0.66771
4823.79,0.66880
4818.01,0.66842
4812.22,0.66887
4806.43,0.67002
4800.65,0.66943
4794.86,0.66948
4789.07,0.66758
4783.29,0.66818
4777.5,0.66847
4771.72,0.66822
4765.93,0.66981
4760.14,0.66961
4754.36,0.66905
4748.57,0.66922
4742.78,0.66846
4737,0.66912
4731.21,0.66973
4725.43,0.67010
4719.64,0.66913
4713.85,0.66918
4708.07,0.66882
4702.28,0.66945
4696.49,0.66738
4690.71,0.66726
4684.92,0.66790
4679.14,0.66828
4673.35,0.66744
4667.56,0.66677
4661.78,0.66596
4655.99,0.66478
4650.2,0.66531
4644.42,0.66586
4638.63,0.66552
4632.85,0.66361
4627.06,0.66377
4621.27,0.66334
4615.49,0.66403
4609.7,0.66329
4603.92,0.66177
4598.13,0.66330
4592.34,0.66334
4586.56,0.66362
4580.77,0.66310
4574.98,0.66199
4569.2,0.66207
4563.41,0.66262
4557.63,0.66161
4551.84,0.66137
4546.05,0.66221
4540.27,0.66249
4534.48,0.66216
4528.69,0.66268
4522.91,0.66222
4517.12,0.66233
4511.34,0.66208
4505.55,0.66281
4499.76,0.66199
4493.98,0.66304
4488.19,0.66299
4482.4,0.66250
4476.62,0.66293
4470.83,0.66339
4465.05,0.66406
4459.26,0.66318
4453.47,0.66470
4447.69,0.66383
4441.9,0.66485
4436.11,0.66443
4430.33,0.66387
4424.54,0.66329
4418.76,0.66409
4412.97,0.66411
4407.18,0.66442
4401.4,0.66423
4395.61,0.66442
4389.82,0.66433
4384.04,0.66362
4378.25,0.66197
4372.47,0.66168
4366.68,0.66120
4360.89,0.66193
4355.11,0.66128
4349.32,0.66077
4343.53,0.66107
4337.75,0.65928
4331.96,0.66027
4326.18,0.65920
4320.39,0.65955
4314.6,0.65996
4308.82,0.65968
4303.03,0.65994
4297.24,0.66005
4291.46,0.65947
4285.67,0.65898
4279.89,0.65943
4274.1,0.65905
4268.31,0.65806
4262.53,0.65859
4256.74,0.65791
4250.95,0.65841
4245.17,0.65714
4239.38,0.65830
4233.6,0.65848
4227.81,0.65745
4222.02,0.65781
4216.24,0.65712
4210.45,0.65688
4204.66,0.65639
4198.88,0.65589
4193.09,0.65626
4187.31,0.65588
4181.52,0.65619
4175.73,0.65612
4169.95,0.65529
4164.16,0.65495
4158.37,0.65531
4152.59,0.65473
4146.8,0.65466
4141.02,0.65459
4135.23,0.65405
4129.44,0.65374
4123.66,0.65325
4117.87,0.65321
4112.09,0.65195
4106.3,0.65156
4100.51,0.65187
4094.73,0.65091
4088.94,0.65042
4083.15,0.64986
4077.37,0.64860
4071.58,0.64859
4065.8,0.64818
4060.01,0.64782
4054.22,0.64737
4048.44,0.64709
4042.65,0.64601
4036.86,0.64573
4031.08,0.64569
4025.29,0.64452
4019.51,0.64343
4013.72,0.64419
4007.93,0.64342
4002.15,0.64303
3996.36,0.64319
3990.57,0.64194
3984.79,0.64247
3979,0.64219
3973.22,0.64178
3967.43,0.64222
3961.64,0.64149
3955.86,0.64092
3950.07,0.64078
3944.28,0.64078
3938.5,0.64046
3932.71,0.63886
3926.93,0.63902
3921.14,0.63965
3915.35,0.63939
3909.57,0.63916
3903.78,0.63906
3897.99,0.63917
3892.21,0.63904
3886.42,0.63849
3880.64,0.63881
3874.85,0.63894
3869.06,0.63722
3863.28,0.63651
3857.49,0.63690
3851.7,0.63444
3845.92,0.63659
3840.13,0.63527
3834.35,0.63418
3828.56,0.63376
3822.77,0.63235
3816.99,0.63047
3811.2,0.62947
3805.41,0.62815
3799.63,0.62637
3793.84,0.62477
3788.06,0.62286
3782.27,0.62109
3776.48,0.61826
3770.7,0.61398
3764.91,0.60958
3759.12,0.60511
3753.34,0.59946
3747.55,0.58977
3741.77,0.58107
3735.98,0.57029
3730.19,0.55540
3724.41,0.53614
3718.62,0.51271
3712.83,0.48540
3707.05,0.45020
3701.26,0.41498
3695.48,0.37914
3689.69,0.34309
3683.9,0.30596
3678.12,0.27170
3672.33,0.23528
3666.54,0.20266
3660.76,0.17408
3654.97,0.14854
3649.19,0.12792
3643.4,0.11044
3637.61,0.09691
3631.83,0.08779
3626.04,0.07929
3620.25,0.07334
3614.47,0.06887
3608.68,0.06541
3602.9,0.06294
3597.11,0.06001
3591.32,0.05927
3585.54,0.05745
3579.75,0.05608
3573.97,0.05536
3568.18,0.05498
3562.39,0.05335
3556.61,0.05290
3550.82,0.05252
3545.03,0.05170
3539.25,0.05170
3533.46,0.05111
3527.68,0.05096
3521.89,0.05031
3516.1,0.05109
3510.32,0.05007
3504.53,0.04978
3498.74,0.04993
3492.96,0.05049
3487.17,0.04952
3481.39,0.05012
3475.6,0.04939
3469.81,0.04959
3464.03,0.04975
3458.24,0.04989
3452.45,0.04984
3446.67,0.05007
3440.88,0.04964
3435.1,0.04950
3429.31,0.04992
3423.52,0.05023
3417.74,0.05058
3411.95,0.05027
3406.16,0.04994
3400.38,0.05005
3394.59,0.05025
3388.81,0.05080
3383.02,0.05043
3377.23,0.05096
3371.45,0.05128
3365.66,0.05136
3359.87,0.05138
3354.09,0.05187
3348.3,0.05139
3342.52,0.05152
3336.73,0.05196
3330.94,0.05260
3325.16,0.05227
3319.37,0.05204
3313.58,0.05233
3307.8,0.05260
3302.01,0.05290
3296.23,0.05241
3290.44,0.05394
3284.65,0.05417
3278.87,0.05400
3273.08,0.05418
3267.29,0.05488
3261.51,0.05533
3255.72,0.05593
3249.94,0.05556
3244.15,0.05738
3238.36,0.05791
3232.58,0.05750
3226.79,0.05802
3221,0.05984
3215.22,0.05985
3209.43,0.06058
3203.65,0.06135
3197.86,0.06231
3192.07,0.06241
3186.29,0.06306
3180.5,0.06458
3174.71,0.06553
3168.93,0.06541
3163.14,0.06634
3157.36,0.06708
3151.57,0.06859
3145.78,0.06960
3140,0.07058
3134.21,0.07172
3128.42,0.07273
3122.64,0.07436
3116.85,0.07572
3111.07,0.07760
3105.28,0.07895
3099.49,0.08051
3093.71,0.08295
3087.92,0.08458
3082.14,0.08690
3076.35,0.08914
3070.56,0.09149
3064.78,0.09346
3058.99,0.09638
3053.2,0.09808
3047.42,0.10044
3041.63,0.10215
3035.85,0.10472
3030.06,0.10660
3024.27,0.10871
3018.49,0.11150
3012.7,0.11300
3006.91,0.11536
3001.13,0.11725
2995.34,0.11951
2989.56,0.12174
2983.77,0.12407
2977.98,0.12700
2972.2,0.13072
2966.41,0.13351
2960.62,0.13676
2954.84,0.14024
2949.05,0.14435
2943.27,0.14846
2937.48,0.15179
2931.69,0.15517
2925.91,0.15892
2920.12,0.16275
2914.33,0.16762
2908.55,0.17190
2902.76,0.17677
2896.98,0.18049
2891.19,0.18448
2885.4,0.18785
2879.62,0.19044
2873.83,0.19339
2868.04,0.19602
2862.26,0.19837
2856.47,0.20089
2850.69,0.20524
2844.9,0.21267
2839.11,0.21938
2833.33,0.22534
2827.54,0.23077
2821.75,0.23596
2815.97,0.24145
2810.18,0.24737
2804.4,0.25419
2798.61,0.26107
2792.82,0.26754
2787.04,0.27353
2781.25,0.27903
2775.46,0.28416
2769.68,0.28891
2763.89,0.29356
2758.11,0.29723
2752.32,0.30139
2746.53,0.30478
2740.75,0.30860
2734.96,0.31134
2729.17,0.31479
2723.39,0.31806
2717.6,0.32192
2711.82,0.32539
2706.03,0.32939
2700.24,0.33325
2694.46,0.33791
2688.67,0.34295
2682.88,0.34776
2677.1,0.35260
2671.31,0.35701
2665.53,0.36181
2659.74,0.36676
2653.95,0.37080
2648.17,0.37534
2642.38,0.37819
2636.59,0.38115
2630.81,0.38325
2625.02,0.38415
2619.24,0.38503
2613.45,0.38584
2607.66,0.38596
2601.88,0.38581
2596.09,0.38597
2590.3,0.38624
2584.52,0.38608
2578.73,0.38572
2572.95,0.38576
2567.16,0.38585
2561.37,0.38671
2555.59,0.38719
2549.8,0.38896
2544.02,0.39010
2538.23,0.39176
2532.44,0.39271
2526.66,0.39385
2520.87,0.39519
2515.08,0.39651
2509.3,0.39775
2503.51,0.39922
2497.73,0.40035
2491.94,0.40056
2486.15,0.40086
2480.37,0.40021
2474.58,0.39935
2468.79,0.39833
2463.01,0.39711
2457.22,0.39524
2451.44,0.39357
2445.65,0.39198
2439.86,0.39089
2434.08,0.39014
2428.29,0.39014
2422.5,0.39044
2416.72,0.39146
2410.93,0.39319
2405.15,0.39528
2399.36,0.39781
2393.57,0.40047
2387.79,0.40322
2382,0.40652
2376.21,0.40907
2370.43,0.41147
2364.64,0.41331
2358.86,0.41480
2353.07,0.41539
2347.28,0.41549
2341.5,0.41496
2335.71,0.41426
2329.92,0.41321
2324.14,0.41170
2318.35,0.40975
2312.57,0.40776
2306.78,0.40603
2300.99,0.40401
2295.21,0.40333
2289.42,0.40285
2283.63,0.40274
2277.85,0.40357
2272.06,0.40482
2266.28,0.40647
2260.49,0.40894
2254.7,0.41131
2248.92,0.41439
2243.13,0.41681
2237.34,0.41916
2231.56,0.42082
2225.77,0.42260
2219.99,0.42341
2214.2,0.42318
2208.41,0.42204
2202.63,0.42036
2196.84,0.41806
2191.05,0.41531
2185.27,0.41216
2179.48,0.40834
2173.7,0.40526
2167.91,0.40159
2162.12,0.39877
2156.34,0.39629
2150.55,0.39444
2144.76,0.39386
2138.98,0.39422
2133.19,0.39548
2127.41,0.39829
2121.62,0.40188
2115.83,0.40614
2110.05,0.40968
2104.26,0.41406
2098.47,0.41773
2092.69,0.42156
2086.9,0.42463
2081.12,0.42698
2075.33,0.42836
2069.54,0.42880
2063.76,0.42820
2057.97,0.42708
2052.19,0.42560
2046.4,0.42311
2040.61,0.42047
2034.83,0.41850
2029.04,0.41618
2023.25,0.41457
2017.47,0.41385
2011.68,0.41401
2005.9,0.41515
2000.11,0.41749
1994.32,0.42056
1988.54,0.42501
1982.75,0.42931
1976.96,0.43503
1971.18,0.44058
1965.39,0.44541
1959.61,0.45014
1953.82,0.45461
1948.03,0.45740
1942.25,0.45966
1936.46,0.46029
1930.67,0.45999
1924.89,0.45862
1919.1,0.45538
1913.32,0.45184
1907.53,0.44747
1901.74,0.44306
1895.96,0.43883
1890.17,0.43530
1884.38,0.43238
1878.6,0.43048
1872.81,0.42973
1867.03,0.43005
1861.24,0.43191
1855.45,0.43534
1849.67,0.43905
1843.88,0.44315
1838.09,0.44758
1832.31,0.45211
1826.52,0.45526
1820.74,0.45816
1814.95,0.45938
1809.16,0.45839
1803.38,0.45433
1797.59,0.44917
1791.8,0.44392
1786.02,0.43936
1780.23,0.43225
1774.45,0.42363
1768.66,0.41240
1762.87,0.40186
1757.09,0.38970
1751.3,0.37689
1745.51,0.36262
1739.73,0.35086
1733.94,0.33720
1728.16,0.31718
1722.37,0.29339
1716.58,0.28532
1710.8,0.27795
1705.01,0.25047
1699.22,0.22444
1693.44,0.21506
1687.65,0.21593
1681.87,0.21870
1676.08,0.21887
1670.29,0.21328
1664.51,0.20343
1658.72,0.19104
1652.93,0.17708
1647.15,0.16209
1641.36,0.14879
1635.58,0.13604
1629.79,0.12527
1624,0.11690
1618.22,0.11085
1612.43,0.10806
1606.64,0.11019
1600.86,0.11681
1595.07,0.12595
1589.29,0.13379
1583.5,0.14144
1577.71,0.15242
1571.93,0.16793
1566.14,0.18793
1560.35,0.20727
1554.57,0.22852
1548.78,0.24301
1543,0.25162
1537.21,0.25631
1531.42,0.25718
1525.64,0.25307
1519.85,0.24337
1514.07,0.23243
1508.28,0.22186
1502.49,0.21319
1496.71,0.20636
1490.92,0.19949
1485.13,0.19295
1479.35,0.18934
1473.56,0.18739
1467.78,0.18777
1461.99,0.19250
1456.2,0.20139
1450.42,0.21313
1444.63,0.22340
1438.84,0.22465
1433.06,0.21970
1427.27,0.21625
1421.49,0.21336
1415.7,0.20494
1409.91,0.19275
1404.13,0.17642
1398.34,0.15425
1392.55,0.12908
1386.77,0.10681
1380.98,0.08908
1375.2,0.07680
1369.41,0.06908
1363.62,0.06392
1357.84,0.05950
1352.05,0.05543
1346.26,0.05346
1340.48,0.05079
1334.69,0.04751
1328.91,0.04430
1323.12,0.04131
1317.33,0.03795
1311.55,0.03475
1305.76,0.03163
1299.97,0.02842
1294.19,0.02568
1288.4,0.02362
1282.62,0.02265
1276.83,0.02202
1271.04,0.02294
1265.26,0.02320
1259.47,0.02355
1253.68,0.02382
1247.9,0.02427
1242.11,0.02436
1236.33,0.02436
1230.54,0.02396
1224.75,0.02396
1218.97,0.02400
1213.18,0.02391
1207.39,0.02384
1201.61,0.02364
1195.82,0.02406
1190.04,0.02405
1184.25,0.02497
1178.46,0.02586
1172.68,0.02604
1166.89,0.02715
1161.1,0.02680
1155.32,0.02800
1149.53,0.02845
1143.75,0.02949
1137.96,0.03002
1132.17,0.03052
1126.39,0.03107
1120.6,0.03172
1114.81,0.03196
1109.03,0.03192
1103.24,0.03173
1097.46,0.03104
1091.67,0.03128
1085.88,0.03195
1080.1,0.03049
1074.31,0.03040
1068.52,0.03048
1062.74,0.02973
1056.95,0.02950
1051.17,0.02908
1045.38,0.02856
1039.59,0.02735
1033.81,0.02742
1028.02,0.02701
1022.24,0.02524
1016.45,0.02488
1010.66,0.02303
1004.88,0.02231
999.09,0.02201
993.304,0.02180
987.518,0.02207
981.731,0.02157
975.945,0.02206
970.159,0.02372
964.373,0.02486
958.586,0.02704
952.8,0.03028
947.014,0.03420
941.228,0.03814
935.441,0.04262
929.655,0.04770
923.869,0.05229
918.083,0.05750
912.297,0.06202
906.51,0.06713
900.724,0.07233
894.938,0.07715
889.152,0.08127
883.365,0.08542
877.579,0.08972
871.793,0.09355
866.007,0.09838
860.22,0.10301
854.434,0.10716
848.648,0.11051
842.862,0.11455
837.075,0.11847
831.289,0.12106
825.503,0.12400
819.717,0.12729
813.931,0.13070
808.144,0.13338
802.358,0.13496
796.572,0.13712
790.786,0.13948
784.999,0.14164
779.213,0.14251
773.427,0.14337
767.641,0.14436
761.854,0.14598
756.068,0.14730
750.282,0.14909
744.496,0.14914
738.709,0.15137
732.923,0.15262
727.137,0.15467
721.351,0.15627
715.565,0.15703
709.778,0.15754
703.992,0.15997
698.206,0.16192
692.42,0.16243
686.633,0.16313
680.847,0.16430
675.061,0.16538
669.275,0.16681
663.488,0.16767
657.702,0.16711
651.916,0.16773
646.13,0.16922
640.343,0.16962
634.557,0.17110
628.771,0.17283
622.985,0.17360
617.198,0.17225
611.412,0.17552
605.626,0.17830
599.84,0.17563