File: 01_Data/Laminate_Flooring/FTIR/IS/Laminate_Flooring_IS_T_221003_R5.dpt
7497.03,0.02240
7491.25,0.01824
7485.46,0.01369
7479.67,0.02548
7473.89,0.02553
7468.1,0.02741
7462.32,0.02676
7456.53,0.02835
7450.74,0.02456
7444.96,0.02390
7439.17,0.02249
7433.38,0.02400
7427.6,0.02015
7421.81,0.03102
7416.03,0.02376
7410.24,0.03218
7404.45,0.03311
7398.67,0.02450
7392.88,0.02519
7387.09,0.02676
7381.31,0.03270
7375.52,0.02910
7369.74,0.01473
7363.95,0.02770
7358.16,0.02324
7352.38,0.03016
7346.59,0.02536
7340.8,0.01997
7335.02,0.02071
7329.23,0.02333
7323.45,0.02933
7317.66,0.02764
7311.87,0.02697
7306.09,0.02602
7300.3,0.03208
7294.51,0.02983
7288.73,0.02642
7282.94,0.02503
7277.16,0.02997
7271.37,0.02915
7265.58,0.02726
7259.8,0.02944
7254.01,0.02207
7248.22,0.02646
7242.44,0.02559
7236.65,0.02735
7230.87,0.02321
7225.08,0.02728
7219.29,0.02143
7213.51,0.01965
7207.72,0.02563
7201.93,0.02313
7196.15,0.03180
7190.36,0.02605
7184.58,0.02167
7178.79,0.02663
7173,0.01960
7167.22,0.01471
7161.43,0.02085
7155.65,0.01882
7149.86,0.02316
7144.07,0.02655
7138.29,0.02200
7132.5,0.02114
7126.71,0.02443
7120.93,0.02484
7115.14,0.01800
7109.36,0.01894
7103.57,0.02104
7097.78,0.02732
7092,0.02739
7086.21,0.02644
7080.42,0.02630
7074.64,0.01691
7068.85,0.02317
7063.07,0.01642
7057.28,0.02283
7051.49,0.02677
7045.71,0.02496
7039.92,0.02330
7034.13,0.02476
7028.35,0.02576
7022.56,0.02561
7016.78,0.03225
7010.99,0.03107
7005.2,0.02694
6999.42,0.02313
6993.63,0.02511
6987.84,0.02506
6982.06,0.02109
6976.27,0.02419
6970.49,0.02404
6964.7,0.02417
6958.91,0.02806
6953.13,0.02623
6947.34,0.02370
6941.55,0.02667
6935.77,0.02463
6929.98,0.02621
6924.2,0.01746
6918.41,0.02927
6912.62,0.02010
6906.84,0.02438
6901.05,0.02379
6895.26,0.02438
6889.48,0.02656
6883.69,0.02334
6877.91,0.02252
6872.12,0.02123
6866.33,0.02155
6860.55,0.02356
6854.76,0.02460
6848.97,0.02669
6843.19,0.02420
6837.4,0.02052
6831.62,0.02238
6825.83,0.03174
6820.04,0.02174
6814.26,0.02512
6808.47,0.02382
6802.68,0.02128
6796.9,0.02481
6791.11,0.02566
6785.33,0.02922
6779.54,0.03016
6773.75,0.02277
6767.97,0.02543
6762.18,0.02649
6756.39,0.02588
6750.61,0.02631
6744.82,0.02117
6739.04,0.02264
6733.25,0.02237
6727.46,0.01812
6721.68,0.02419
6715.89,0.02153
6710.1,0.02805
6704.32,0.02200
6698.53,0.02101
6692.75,0.02175
6686.96,0.02050
6681.17,0.02204
6675.39,0.01827
6669.6,0.02415
6663.82,0.02625
6658.03,0.02573
6652.24,0.02350
6646.46,0.02110
6640.67,0.02402
6634.88,0.02658
6629.1,0.02282
6623.31,0.02400
6617.53,0.02614
6611.74,0.02467
6605.95,0.02300
6600.17,0.02277
6594.38,0.02187
6588.59,0.02408
6582.81,0.02374
6577.02,0.02602
6571.24,0.02021
6565.45,0.01819
6559.66,0.02032
6553.88,0.02594
6548.09,0.02222
6542.3,0.02103
6536.52,0.02117
6530.73,0.02377
6524.95,0.02417
6519.16,0.02190
6513.37,0.02328
6507.59,0.02296
6501.8,0.02087
6496.01,0.01981
6490.23,0.01977
6484.44,0.02348
6478.66,0.02085
6472.87,0.02135
6467.08,0.02211
6461.3,0.02287
6455.51,0.02247
6449.72,0.02031
6443.94,0.02243
6438.15,0.02265
6432.37,0.02036
6426.58,0.02103
6420.79,0.02430
6415.01,0.01964
6409.22,0.02340
6403.43,0.02261
6397.65,0.02079
6391.86,0.01962
6386.08,0.02180
6380.29,0.02424
6374.5,0.02122
6368.72,0.02205
6362.93,0.01972
6357.14,0.02477
6351.36,0.02220
6345.57,0.01865
6339.79,0.02264
6334,0.02192
6328.21,0.02202
6322.43,0.02128
6316.64,0.02052
6310.85,0.01956
6305.07,0.02401
6299.28,0.02190
6293.5,0.02129
6287.71,0.02213
6281.92,0.02528
6276.14,0.02030
6270.35,0.02369
6264.56,0.02495
6258.78,0.02286
6252.99,0.02495
6247.21,0.02232
6241.42,0.02214
6235.63,0.02292
6229.85,0.02423
6224.06,0.02640
6218.27,0.02179
6212.49,0.02158
6206.7,0.01951
6200.92,0.02331
6195.13,0.02187
6189.34,0.02263
6183.56,0.02042
6177.77,0.02269
6171.98,0.02014
6166.2,0.02380
6160.41,0.02023
6154.63,0.02212
6148.84,0.02439
6143.05,0.01858
6137.27,0.02156
6131.48,0.02483
6125.7,0.02266
6119.91,0.02338
6114.12,0.02356
6108.34,0.02075
6102.55,0.02035
6096.76,0.02169
6090.98,0.02089
6085.19,0.01953
6079.41,0.02040
6073.62,0.02347
6067.83,0.02295
6062.05,0.02501
6056.26,0.02126
6050.47,0.02021
6044.69,0.02191
6038.9,0.02142
6033.12,0.02031
6027.33,0.01994
6021.54,0.02373
6015.76,0.02009
6009.97,0.02269
6004.18,0.02175
5998.4,0.01973
5992.61,0.02118
5986.83,0.02065
5981.04,0.02071
5975.25,0.02286
5969.47,0.02197
5963.68,0.02005
5957.89,0.02326
5952.11,0.02159
5946.32,0.02076
5940.54,0.02009
5934.75,0.01960
5928.96,0.02138
5923.18,0.02418
5917.39,0.02266
5911.6,0.02131
5905.82,0.02196
5900.03,0.02328
5894.25,0.02035
5888.46,0.02160
5882.67,0.02120
5876.89,0.02069
5871.1,0.02111
5865.31,0.02203
5859.53,0.02287
5853.74,0.02237
5847.96,0.02380
5842.17,0.01869
5836.38,0.02193
5830.6,0.01970
5824.81,0.02162
5819.02,0.02005
5813.24,0.02141
5807.45,0.01886
5801.67,0.01879
5795.88,0.02286
5790.09,0.02238
5784.31,0.02111
5778.52,0.01830
5772.73,0.02047
5766.95,0.02080
5761.16,0.02082
5755.38,0.02108
5749.59,0.02330
5743.8,0.02274
5738.02,0.02239
5732.23,0.02336
5726.44,0.02219
5720.66,0.01925
5714.87,0.02041
5709.09,0.02169
5703.3,0.02096
5697.51,0.02164
5691.73,0.01901
5685.94,0.02056
5680.15,0.02199
5674.37,0.02449
5668.58,0.01896
5662.8,0.02125
5657.01,0.02198
5651.22,0.02132
5645.44,0.02288
5639.65,0.02167
5633.87,0.02152
5628.08,0.02394
5622.29,0.02355
5616.51,0.02160
5610.72,0.02248
5604.93,0.02304
5599.15,0.02025
5593.36,0.02072
5587.58,0.02155
5581.79,0.02204
5576,0.02312
5570.22,0.02214
5564.43,0.02196
5558.64,0.02220
5552.86,0.02412
5547.07,0.02271
5541.29,0.02426
5535.5,0.02357
5529.71,0.02386
5523.93,0.02325
5518.14,0.02112
5512.35,0.02116
5506.57,0.02317
5500.78,0.02171
5495,0.02068
5489.21,0.02111
5483.42,0.02309
5477.64,0.02117
5471.85,0.02268
5466.06,0.02368
5460.28,0.02298
5454.49,0.02367
5448.71,0.02276
5442.92,0.02238
5437.13,0.02171
5431.35,0.02207
5425.56,0.02340
5419.77,0.02183
5413.99,0.02146
5408.2,0.02145
5402.42,0.02212
5396.63,0.02267
5390.84,0.02246
5385.06,0.02352
5379.27,0.02275
5373.48,0.02148
5367.7,0.02348
5361.91,0.02420
5356.13,0.02178
5350.34,0.02233
5344.55,0.02217
5338.77,0.02179
5332.98,0.02334
5327.19,0.02252
5321.41,0.02175
5315.62,0.02313
5309.84,0.02168
5304.05,0.02258
5298.26,0.02228
5292.48,0.02344
5286.69,0.02207
5280.9,0.02071
5275.12,0.02282
5269.33,0.02439
5263.55,0.02084
5257.76,0.02233
5251.97,0.02198
5246.19,0.02121
5240.4,0.02201
5234.61,0.02217
5228.83,0.02175
5223.04,0.02123
5217.26,0.02301
5211.47,0.02238
5205.68,0.02187
5199.9,0.02187
5194.11,0.02318
5188.32,0.02267
5182.54,0.02146
5176.75,0.02398
5170.97,0.02183
5165.18,0.02326
5159.39,0.02200
5153.61,0.02243
5147.82,0.02239
5142.03,0.02091
5136.25,0.02050
5130.46,0.02129
5124.68,0.02243
5118.89,0.02217
5113.1,0.02255
5107.32,0.02042
5101.53,0.02205
5095.75,0.02259
5089.96,0.02228
5084.17,0.02307
5078.39,0.02337
5072.6,0.02216
5066.81,0.02170
5061.03,0.02258
5055.24,0.02181
5049.46,0.02259
5043.67,0.02254
5037.88,0.02174
5032.1,0.02277
5026.31,0.02249
5020.52,0.02231
5014.74,0.02140
5008.95,0.02300
5003.17,0.02228
4997.38,0.02280
4991.59,0.02149
4985.81,0.02231
4980.02,0.02134
4974.23,0.02132
4968.45,0.02244
4962.66,0.02215
4956.88,0.02365
4951.09,0.02284
4945.3,0.02246
4939.52,0.02255
4933.73,0.02159
4927.94,0.02168
4922.16,0.02285
4916.37,0.02256
4910.59,0.02375
4904.8,0.02272
4899.01,0.02231
4893.23,0.02204
4887.44,0.02304
4881.65,0.02280
4875.87,0.02315
4870.08,0.02170
4864.3,0.02281
4858.51,0.02314
4852.72,0.02173
4846.94,0.02155
4841.15,0.02202
4835.36,0.02318
4829.58,0.02076
4823.79,0.02140
4818.01,0.02349
4812.22,0.02256
4806.43,0.02206
4800.65,0.02242
4794.86,0.02378
4789.07,0.02313
4783.29,0.02225
4777.5,0.02268
4771.72,0.02321
4765.93,0.02192
4760.14,0.02296
4754.36,0.02230
4748.57,0.02162
4742.78,0.02175
4737,0.02195
4731.21,0.02289
4725.43,0.02147
4719.64,0.02212
4713.85,0.02285
4708.07,0.02283
4702.28,0.02277
4696.49,0.02261
4690.71,0.02303
4684.92,0.02204
4679.14,0.02300
4673.35,0.02255
4667.56,0.02322
4661.78,0.02347
4655.99,0.02259
4650.2,0.02300
4644.42,0.02223
4638.63,0.02318
4632.85,0.02342
4627.06,0.02384
4621.27,0.02262
4615.49,0.02237
4609.7,0.02335
4603.92,0.02258
4598.13,0.02237
4592.34,0.02221
4586.56,0.02234
4580.77,0.02244
4574.98,0.02284
4569.2,0.02260
4563.41,0.02329
4557.63,0.02278
4551.84,0.02241
4546.05,0.02256
4540.27,0.02236
4534.48,0.02248
4528.69,0.02276
4522.91,0.02277
4517.12,0.02289
4511.34,0.02221
4505.55,0.02205
4499.76,0.02206
4493.98,0.02341
4488.19,0.02225
4482.4,0.02212
4476.62,0.02304
4470.83,0.02159
4465.05,0.02257
4459.26,0.02208
4453.47,0.02290
4447.69,0.02299
4441.9,0.02241
4436.11,0.02245
4430.33,0.02290
4424.54,0.02337
4418.76,0.02288
4412.97,0.02268
4407.18,0.02332
4401.4,0.02193
4395.61,0.02119
4389.82,0.02311
4384.04,0.02342
4378.25,0.02272
4372.47,0.02270
4366.68,0.02297
4360.89,0.02237
4355.11,0.02270
4349.32,0.02216
4343.53,0.02186
4337.75,0.02217
4331.96,0.02286
4326.18,0.02294
4320.39,0.02270
4314.6,0.02248
4308.82,0.02294
4303.03,0.02289
4297.24,0.02268
4291.46,0.02241
4285.67,0.02282
4279.89,0.02238
4274.1,0.02250
4268.31,0.02232
4262.53,0.02205
4256.74,0.02295
4250.95,0.02357
4245.17,0.02267
4239.38,0.02245
4233.6,0.02259
4227.81,0.02273
4222.02,0.02232
4216.24,0.02300
4210.45,0.02283
4204.66,0.02200
4198.88,0.02237
4193.09,0.02349
4187.31,0.02303
4181.52,0.02265
4175.73,0.02295
4169.95,0.02274
4164.16,0.02245
4158.37,0.02250
4152.59,0.02218
4146.8,0.02367
4141.02,0.02232
4135.23,0.02249
4129.44,0.02278
4123.66,0.02220
4117.87,0.02305
4112.09,0.02315
4106.3,0.02289
4100.51,0.02346
4094.73,0.02253
4088.94,0.02283
4083.15,0.02300
4077.37,0.02278
4071.58,0.02235
4065.8,0.02295
4060.01,0.02271
4054.22,0.02250
4048.44,0.02343
4042.65,0.02275
4036.86,0.02223
4031.08,0.02267
4025.29,0.02269
4019.51,0.02231
4013.72,0.02316
4007.93,0.02301
4002.15,0.02259
3996.36,0.02280
3990.57,0.02245
3984.79,0.02260
3979,0.02321
3973.22,0.02329
3967.43,0.02293
3961.64,0.02316
3955.86,0.02287
3950.07,0.02267
3944.28,0.02316
3938.5,0.02255
3932.71,0.02303
3926.93,0.02300
3921.14,0.02335
3915.35,0.02232
3909.57,0.02277
3903.78,0.02298
3897.99,0.02280
3892.21,0.02292
3886.42,0.02318
3880.64,0.02277
3874.85,0.02360
3869.06,0.02299
3863.28,0.02327
3857.49,0.02257
3851.7,0.02283
3845.92,0.02333
3840.13,0.02259
3834.35,0.02266
3828.56,0.02250
3822.77,0.02315
3816.99,0.02343
3811.2,0.02321
3805.41,0.02299
3799.63,0.02261
3793.84,0.02301
3788.06,0.02266
3782.27,0.02256
3776.48,0.02311
3770.7,0.02269
3764.91,0.02285
3759.12,0.02314
3753.34,0.02310
3747.55,0.02309
3741.77,0.02328
3735.98,0.02335
3730.19,0.02325
3724.41,0.02282
3718.62,0.02273
3712.83,0.02277
3707.05,0.02266
3701.26,0.02199
3695.48,0.02231
3689.69,0.02269
3683.9,0.02211
3678.12,0.02286
3672.33,0.02230
3666.54,0.02184
3660.76,0.02242
3654.97,0.02250
3649.19,0.02248
3643.4,0.02210
3637.61,0.02192
3631.83,0.02212
3626.04,0.02217
3620.25,0.02180
3614.47,0.02170
3608.68,0.02098
3602.9,0.02142
3597.11,0.02215
3591.32,0.02274
3585.54,0.02125
3579.75,0.02081
3573.97,0.02176
3568.18,0.02092
3562.39,0.02148
3556.61,0.02166
3550.82,0.02070
3545.03,0.02111
3539.25,0.02108
3533.46,0.02100
3527.68,0.02128
3521.89,0.02181
3516.1,0.02211
3510.32,0.02115
3504.53,0.02145
3498.74,0.02071
3492.96,0.02083
3487.17,0.02104
3481.39,0.02107
3475.6,0.02112
3469.81,0.02070
3464.03,0.02042
3458.24,0.02099
3452.45,0.02090
3446.67,0.02093
3440.88,0.02100
3435.1,0.02060
3429.31,0.02043
3423.52,0.02084
3417.74,0.02077
3411.95,0.02096
3406.16,0.02067
3400.38,0.02088
3394.59,0.02071
3388.81,0.02101
3383.02,0.02054
3377.23,0.01985
3371.45,0.02048
3365.66,0.02072
3359.87,0.02072
3354.09,0.02138
3348.3,0.02128
3342.52,0.02023
3336.73,0.02083
3330.94,0.02052
3325.16,0.02057
3319.37,0.02075
3313.58,0.02011
3307.8,0.02060
3302.01,0.01996
3296.23,0.02025
3290.44,0.02083
3284.65,0.02065
3278.87,0.02047
3273.08,0.02075
3267.29,0.02113
3261.51,0.02077
3255.72,0.02113
3249.94,0.02127
3244.15,0.02146
3238.36,0.02118
3232.58,0.02038
3226.79,0.02111
3221,0.02115
3215.22,0.02122
3209.43,0.02136
3203.65,0.02128
3197.86,0.02094
3192.07,0.02131
3186.29,0.02156
3180.5,0.02182
3174.71,0.02165
3168.93,0.02124
3163.14,0.02087
3157.36,0.02043
3151.57,0.02075
3145.78,0.02104
3140,0.02059
3134.21,0.02146
3128.42,0.02070
3122.64,0.02076
3116.85,0.02080
3111.07,0.02070
3105.28,0.02040
3099.49,0.02140
3093.71,0.02105
3087.92,0.02088
3082.14,0.02106
3076.35,0.02083
3070.56,0.02023
3064.78,0.02059
3058.99,0.02054
3053.2,0.02086
3047.42,0.02047
3041.63,0.02136
3035.85,0.02081
3030.06,0.02012
3024.27,0.02059
3018.49,0.02060
3012.7,0.02074
3006.91,0.02075
3001.13,0.02044
2995.34,0.02044
2989.56,0.02022
2983.77,0.02028
2977.98,0.02009
2972.2,0.01963
2966.41,0.01953
2960.62,0.01952
2954.84,0.01949
2949.05,0.02011
2943.27,0.01977
2937.48,0.01953
2931.69,0.01970
2925.91,0.01953
2920.12,0.01989
2914.33,0.02050
2908.55,0.02043
2902.76,0.02058
2896.98,0.02043
2891.19,0.02042
2885.4,0.02080
2879.62,0.02079
2873.83,0.02063
2868.04,0.02037
2862.26,0.02037
2856.47,0.02082
2850.69,0.02074
2844.9,0.02172
2839.11,0.02150
2833.33,0.02150
2827.54,0.02155
2821.75,0.02138
2815.97,0.02127
2810.18,0.02116
2804.4,0.02165
2798.61,0.02128
2792.82,0.02138
2787.04,0.02137
2781.25,0.02100
2775.46,0.02153
2769.68,0.02126
2763.89,0.02117
2758.11,0.02145
2752.32,0.02096
2746.53,0.02178
2740.75,0.02137
2734.96,0.02177
2729.17,0.02090
2723.39,0.02173
2717.6,0.02141
2711.82,0.02148
2706.03,0.02132
2700.24,0.02140
2694.46,0.02155
2688.67,0.02139
2682.88,0.02135
2677.1,0.02108
2671.31,0.02133
2665.53,0.02132
2659.74,0.02140
2653.95,0.02169
2648.17,0.02174
2642.38,0.02139
2636.59,0.02166
2630.81,0.02120
2625.02,0.02118
2619.24,0.02149
2613.45,0.02141
2607.66,0.02129
2601.88,0.02134
2596.09,0.02157
2590.3,0.02150
2584.52,0.02129
2578.73,0.02147
2572.95,0.02137
2567.16,0.02112
2561.37,0.02144
2555.59,0.02138
2549.8,0.02143
2544.02,0.02128
2538.23,0.02129
2532.44,0.02089
2526.66,0.02105
2520.87,0.02126
2515.08,0.02146
2509.3,0.02141
2503.51,0.02159
2497.73,0.02119
2491.94,0.02152
2486.15,0.02149
2480.37,0.02101
2474.58,0.02126
2468.79,0.02137
2463.01,0.02097
2457.22,0.02082
2451.44,0.02119
2445.65,0.02127
2439.86,0.02135
2434.08,0.02079
2428.29,0.02144
2422.5,0.02133
2416.72,0.02145
2410.93,0.02175
2405.15,0.02105
2399.36,0.02135
2393.57,0.02156
2387.79,0.02157
2382,0.02148
2376.21,0.02150
2370.43,0.02127
2364.64,0.02164
2358.86,0.02123
2353.07,0.02127
2347.28,0.02148
2341.5,0.02127
2335.71,0.02178
2329.92,0.02174
2324.14,0.02131
2318.35,0.02090
2312.57,0.02137
2306.78,0.02165
2300.99,0.02110
2295.21,0.02119
2289.42,0.02101
2283.63,0.02143
2277.85,0.02136
2272.06,0.02144
2266.28,0.02199
2260.49,0.02139
2254.7,0.02163
2248.92,0.02134
2243.13,0.02132
2237.34,0.02106
2231.56,0.02117
2225.77,0.02138
2219.99,0.02118
2214.2,0.02148
2208.41,0.02133
2202.63,0.02076
2196.84,0.02130
2191.05,0.02113
2185.27,0.02107
2179.48,0.02110
2173.7,0.02138
2167.91,0.02118
2162.12,0.02083
2156.34,0.02140
2150.55,0.02121
2144.76,0.02117
2138.98,0.02109
2133.19,0.02103
2127.41,0.02111
2121.62,0.02127
2115.83,0.02099
2110.05,0.02136
2104.26,0.02118
2098.47,0.02120
2092.69,0.02084
2086.9,0.02124
2081.12,0.02094
2075.33,0.02079
2069.54,0.02096
2063.76,0.02062
2057.97,0.02076
2052.19,0.02086
2046.4,0.02088
2040.61,0.02103
2034.83,0.02095
2029.04,0.02089
2023.25,0.02096
2017.47,0.02103
2011.68,0.02088
2005.9,0.02078
2000.11,0.02110
1994.32,0.02133
1988.54,0.02081
1982.75,0.02072
1976.96,0.02074
1971.18,0.02080
1965.39,0.02107
1959.61,0.02093
1953.82,0.02115
1948.03,0.02098
1942.25,0.02053
1936.46,0.02069
1930.67,0.02099
1924.89,0.02086
1919.1,0.02106
1913.32,0.02053
1907.53,0.02101
1901.74,0.02077
1895.96,0.02063
1890.17,0.02024
1884.38,0.02035
1878.6,0.02051
1872.81,0.02063
1867.03,0.02033
1861.24,0.02044
1855.45,0.02031
1849.67,0.02030
1843.88,0.02015
1838.09,0.02040
1832.31,0.02033
1826.52,0.02031
1820.74,0.02005
1814.95,0.02006
1809.16,0.01968
1803.38,0.01982
1797.59,0.01954
1791.8,0.01951
1786.02,0.01913
1780.23,0.01946
1774.45,0.01906
1768.66,0.01882
1762.87,0.01834
1757.09,0.01792
1751.3,0.01761
1745.51,0.01779
1739.73,0.01848
1733.94,0.01996
1728.16,0.02088
1722.37,0.02120
1716.58,0.02114
1710.8,0.02043
1705.01,0.02014
1699.22,0.01969
1693.44,0.01915
1687.65,0.01949
1681.87,0.01918
1676.08,0.01901
1670.29,0.01887
1664.51,0.01843
1658.72,0.01861
1652.93,0.01881
1647.15,0.01886
1641.36,0.01839
1635.58,0.01899
1629.79,0.01879
1624,0.01889
1618.22,0.01914
1612.43,0.01924
1606.64,0.01926
1600.86,0.01908
1595.07,0.01908
1589.29,0.01881
1583.5,0.01853
1577.71,0.01858
1571.93,0.01811
1566.14,0.01834
1560.35,0.01819
1554.57,0.01831
1548.78,0.01879
1543,0.01857
1537.21,0.01882
1531.42,0.01876
1525.64,0.01870
1519.85,0.01859
1514.07,0.01874
1508.28,0.01868
1502.49,0.01897
1496.71,0.01864
1490.92,0.01902
1485.13,0.01917
1479.35,0.01834
1473.56,0.01872
1467.78,0.01846
1461.99,0.01876
1456.2,0.01866
1450.42,0.01861
1444.63,0.01906
1438.84,0.01888
1433.06,0.01884
1427.27,0.01850
1421.49,0.01892
1415.7,0.01843
1409.91,0.01845
1404.13,0.01824
1398.34,0.01791
1392.55,0.01769
1386.77,0.01782
1380.98,0.01789
1375.2,0.01825
1369.41,0.01848
1363.62,0.01864
1357.84,0.01787
1352.05,0.01771
1346.26,0.01787
1340.48,0.01779
1334.69,0.01765
1328.91,0.01772
1323.12,0.01752
1317.33,0.01698
1311.55,0.01740
1305.76,0.01730
1299.97,0.01759
1294.19,0.01744
1288.4,0.01860
1282.62,0.01867
1276.83,0.01878
1271.04,0.01937
1265.26,0.02002
1259.47,0.02000
1253.68,0.02041
1247.9,0.02020
1242.11,0.01985
1236.33,0.01978
1230.54,0.01978
1224.75,0.01976
1218.97,0.01926
1213.18,0.01926
1207.39,0.01901
1201.61,0.01933
1195.82,0.01852
1190.04,0.01826
1184.25,0.01794
1178.46,0.01851
1172.68,0.01839
1166.89,0.01835
1161.1,0.01721
1155.32,0.01733
1149.53,0.01764
1143.75,0.01764
1137.96,0.01738
1132.17,0.01802
1126.39,0.01885
1120.6,0.01824
1114.81,0.01893
1109.03,0.01888
1103.24,0.01837
1097.46,0.01852
1091.67,0.01820
1085.88,0.01832
1080.1,0.01851
1074.31,0.01915
1068.52,0.01987
1062.74,0.01914
1056.95,0.01994
1051.17,0.01981
1045.38,0.01948
1039.59,0.01934
1033.81,0.01942
1028.02,0.01964
1022.24,0.01841
1016.45,0.01956
1010.66,0.02070
1004.88,0.02105
999.09,0.02131
993.304,0.02086
987.518,0.02065
981.731,0.02011
975.945,0.02057
970.159,0.02035
964.373,0.02089
958.586,0.02043
952.8,0.02008
947.014,0.02022
941.228,0.01908
935.441,0.01884
929.655,0.01891
923.869,0.01911
918.083,0.01957
912.297,0.01931
906.51,0.01888
900.724,0.01941
894.938,0.01924
889.152,0.01915
883.365,0.01918
877.579,0.01883
871.793,0.01831
866.007,0.01871
860.22,0.01928
854.434,0.01919
848.648,0.01873
842.862,0.01867
837.075,0.01866
831.289,0.01971
825.503,0.01831
819.717,0.01891
813.931,0.01995
808.144,0.01927
802.358,0.01872
796.572,0.01828
790.786,0.01849
784.999,0.01854
779.213,0.01843
773.427,0.01800
767.641,0.01822
761.854,0.01803
756.068,0.01779
750.282,0.01828
744.496,0.01840
738.709,0.01920
732.923,0.01872
727.137,0.01858
721.351,0.01827
715.565,0.01797
709.778,0.01725
703.992,0.01781
698.206,0.01916
692.42,0.01826
686.633,0.01771
680.847,0.01818
675.061,0.01697
669.275,0.01809
663.488,0.01672
657.702,0.01654
651.916,0.01662
646.13,0.01564
640.343,0.01553
634.557,0.01427
628.771,0.01296
622.985,0.01682
617.198,0.01708
611.412,0.01742
605.626,0.01573
599.84,0.01514