File: 01_Data/Laminate_Flooring/FTIR/IS/Laminate_Flooring_IS_S_221003_R2.dpt
7497.03,0.59408
7491.25,0.59759
7485.46,0.60790
7479.67,0.60502
7473.89,0.61082
7468.1,0.60017
7462.32,0.60276
7456.53,0.59911
7450.74,0.59394
7444.96,0.60364
7439.17,0.60719
7433.38,0.59988
7427.6,0.60521
7421.81,0.60675
7416.03,0.59791
7410.24,0.59784
7404.45,0.60902
7398.67,0.59753
7392.88,0.59149
7387.09,0.59333
7381.31,0.61063
7375.52,0.59492
7369.74,0.60021
7363.95,0.60535
7358.16,0.60586
7352.38,0.60596
7346.59,0.59673
7340.8,0.60330
7335.02,0.60226
7329.23,0.59686
7323.45,0.59099
7317.66,0.60095
7311.87,0.60541
7306.09,0.59880
7300.3,0.60596
7294.51,0.59583
7288.73,0.60100
7282.94,0.59809
7277.16,0.59865
7271.37,0.60590
7265.58,0.59560
7259.8,0.60392
7254.01,0.61057
7248.22,0.59767
7242.44,0.60222
7236.65,0.60529
7230.87,0.60295
7225.08,0.60392
7219.29,0.59678
7213.51,0.60503
7207.72,0.59720
7201.93,0.60039
7196.15,0.60837
7190.36,0.60161
7184.58,0.59418
7178.79,0.60285
7173,0.60475
7167.22,0.60462
7161.43,0.60284
7155.65,0.60280
7149.86,0.59799
7144.07,0.59734
7138.29,0.60053
7132.5,0.60234
7126.71,0.60365
7120.93,0.60622
7115.14,0.59826
7109.36,0.60258
7103.57,0.60207
7097.78,0.60771
7092,0.61233
7086.21,0.60278
7080.42,0.60561
7074.64,0.60667
7068.85,0.60227
7063.07,0.60804
7057.28,0.60101
7051.49,0.60747
7045.71,0.60615
7039.92,0.60643
7034.13,0.60370
7028.35,0.61173
7022.56,0.61197
7016.78,0.60316
7010.99,0.60170
7005.2,0.60146
6999.42,0.61188
6993.63,0.60860
6987.84,0.60930
6982.06,0.61153
6976.27,0.60832
6970.49,0.60989
6964.7,0.60998
6958.91,0.61198
6953.13,0.60782
6947.34,0.61090
6941.55,0.60993
6935.77,0.60504
6929.98,0.60582
6924.2,0.61373
6918.41,0.61142
6912.62,0.60563
6906.84,0.61024
6901.05,0.60962
6895.26,0.61597
6889.48,0.60633
6883.69,0.61015
6877.91,0.60581
6872.12,0.61238
6866.33,0.60980
6860.55,0.61228
6854.76,0.61229
6848.97,0.61538
6843.19,0.61133
6837.4,0.61451
6831.62,0.61399
6825.83,0.61167
6820.04,0.61298
6814.26,0.62107
6808.47,0.61289
6802.68,0.61430
6796.9,0.61663
6791.11,0.61684
6785.33,0.61689
6779.54,0.61620
6773.75,0.61400
6767.97,0.61700
6762.18,0.61450
6756.39,0.61282
6750.61,0.62109
6744.82,0.61499
6739.04,0.61715
6733.25,0.61384
6727.46,0.61598
6721.68,0.61783
6715.89,0.61380
6710.1,0.61787
6704.32,0.62245
6698.53,0.62195
6692.75,0.61978
6686.96,0.61747
6681.17,0.61138
6675.39,0.62326
6669.6,0.62212
6663.82,0.61729
6658.03,0.61816
6652.24,0.61515
6646.46,0.61931
6640.67,0.62316
6634.88,0.61533
6629.1,0.62089
6623.31,0.61917
6617.53,0.62208
6611.74,0.62168
6605.95,0.62005
6600.17,0.61759
6594.38,0.61957
6588.59,0.62266
6582.81,0.61812
6577.02,0.61835
6571.24,0.62409
6565.45,0.62513
6559.66,0.62333
6553.88,0.62104
6548.09,0.61965
6542.3,0.62591
6536.52,0.62914
6530.73,0.62862
6524.95,0.62834
6519.16,0.63025
6513.37,0.62434
6507.59,0.63045
6501.8,0.62616
6496.01,0.62678
6490.23,0.62374
6484.44,0.62773
6478.66,0.62735
6472.87,0.62792
6467.08,0.62663
6461.3,0.62623
6455.51,0.62739
6449.72,0.62913
6443.94,0.62512
6438.15,0.62865
6432.37,0.62702
6426.58,0.62467
6420.79,0.63101
6415.01,0.62695
6409.22,0.62728
6403.43,0.62707
6397.65,0.62919
6391.86,0.63266
6386.08,0.62821
6380.29,0.62789
6374.5,0.62790
6368.72,0.63160
6362.93,0.62707
6357.14,0.62950
6351.36,0.62898
6345.57,0.62801
6339.79,0.63257
6334,0.62786
6328.21,0.63247
6322.43,0.63397
6316.64,0.63223
6310.85,0.63399
6305.07,0.63203
6299.28,0.62681
6293.5,0.63264
6287.71,0.63289
6281.92,0.63275
6276.14,0.63398
6270.35,0.63347
6264.56,0.63149
6258.78,0.63387
6252.99,0.63214
6247.21,0.63282
6241.42,0.63309
6235.63,0.63696
6229.85,0.63332
6224.06,0.62995
6218.27,0.63163
6212.49,0.63054
6206.7,0.63283
6200.92,0.63384
6195.13,0.63612
6189.34,0.63155
6183.56,0.63505
6177.77,0.63859
6171.98,0.63569
6166.2,0.63464
6160.41,0.63644
6154.63,0.63710
6148.84,0.63600
6143.05,0.63505
6137.27,0.63559
6131.48,0.64043
6125.7,0.63952
6119.91,0.63487
6114.12,0.63726
6108.34,0.63768
6102.55,0.63795
6096.76,0.63889
6090.98,0.63843
6085.19,0.63731
6079.41,0.63762
6073.62,0.63949
6067.83,0.63853
6062.05,0.63746
6056.26,0.63928
6050.47,0.63891
6044.69,0.63485
6038.9,0.64004
6033.12,0.64004
6027.33,0.63771
6021.54,0.63690
6015.76,0.64021
6009.97,0.64085
6004.18,0.64082
5998.4,0.64058
5992.61,0.63976
5986.83,0.63928
5981.04,0.63951
5975.25,0.63930
5969.47,0.64240
5963.68,0.64043
5957.89,0.64108
5952.11,0.64183
5946.32,0.63943
5940.54,0.63962
5934.75,0.64291
5928.96,0.64179
5923.18,0.64088
5917.39,0.64367
5911.6,0.64201
5905.82,0.64334
5900.03,0.64362
5894.25,0.64426
5888.46,0.64085
5882.67,0.64304
5876.89,0.64252
5871.1,0.64229
5865.31,0.64266
5859.53,0.64147
5853.74,0.64125
5847.96,0.64360
5842.17,0.64410
5836.38,0.64253
5830.6,0.64417
5824.81,0.64253
5819.02,0.64279
5813.24,0.64583
5807.45,0.64329
5801.67,0.64444
5795.88,0.64452
5790.09,0.64563
5784.31,0.64548
5778.52,0.64379
5772.73,0.64460
5766.95,0.64617
5761.16,0.64504
5755.38,0.64509
5749.59,0.64371
5743.8,0.64550
5738.02,0.64809
5732.23,0.64785
5726.44,0.64546
5720.66,0.64613
5714.87,0.64669
5709.09,0.64653
5703.3,0.64818
5697.51,0.64743
5691.73,0.65126
5685.94,0.64912
5680.15,0.64817
5674.37,0.64741
5668.58,0.64902
5662.8,0.65070
5657.01,0.64906
5651.22,0.65036
5645.44,0.65053
5639.65,0.65009
5633.87,0.65035
5628.08,0.65129
5622.29,0.64940
5616.51,0.65084
5610.72,0.64983
5604.93,0.64641
5599.15,0.65023
5593.36,0.65060
5587.58,0.65229
5581.79,0.65208
5576,0.65221
5570.22,0.65296
5564.43,0.65208
5558.64,0.65041
5552.86,0.65037
5547.07,0.65083
5541.29,0.65240
5535.5,0.65310
5529.71,0.65370
5523.93,0.65383
5518.14,0.65330
5512.35,0.65444
5506.57,0.65488
5500.78,0.65359
5495,0.65460
5489.21,0.65266
5483.42,0.65523
5477.64,0.65509
5471.85,0.65675
5466.06,0.65506
5460.28,0.65457
5454.49,0.65418
5448.71,0.65640
5442.92,0.65574
5437.13,0.65514
5431.35,0.65623
5425.56,0.65577
5419.77,0.65588
5413.99,0.65618
5408.2,0.65688
5402.42,0.65601
5396.63,0.65668
5390.84,0.65763
5385.06,0.65553
5379.27,0.65758
5373.48,0.65743
5367.7,0.65618
5361.91,0.65831
5356.13,0.65716
5350.34,0.65677
5344.55,0.65778
5338.77,0.65706
5332.98,0.65853
5327.19,0.65850
5321.41,0.65862
5315.62,0.65896
5309.84,0.65754
5304.05,0.65965
5298.26,0.65742
5292.48,0.65716
5286.69,0.65673
5280.9,0.65604
5275.12,0.65714
5269.33,0.65507
5263.55,0.65403
5257.76,0.65329
5251.97,0.65241
5246.19,0.65444
5240.4,0.65404
5234.61,0.65298
5228.83,0.65111
5223.04,0.65046
5217.26,0.65144
5211.47,0.65119
5205.68,0.65174
5199.9,0.65046
5194.11,0.64946
5188.32,0.64922
5182.54,0.65022
5176.75,0.64959
5170.97,0.65115
5165.18,0.65045
5159.39,0.65015
5153.61,0.65071
5147.82,0.65185
5142.03,0.64969
5136.25,0.65084
5130.46,0.65159
5124.68,0.65127
5118.89,0.65272
5113.1,0.65212
5107.32,0.65266
5101.53,0.65205
5095.75,0.65273
5089.96,0.65358
5084.17,0.65261
5078.39,0.65473
5072.6,0.65450
5066.81,0.65397
5061.03,0.65414
5055.24,0.65658
5049.46,0.65600
5043.67,0.65547
5037.88,0.65706
5032.1,0.65800
5026.31,0.65813
5020.52,0.65738
5014.74,0.65871
5008.95,0.65840
5003.17,0.65917
4997.38,0.65835
4991.59,0.65894
4985.81,0.66118
4980.02,0.65946
4974.23,0.66082
4968.45,0.66073
4962.66,0.66152
4956.88,0.66129
4951.09,0.66229
4945.3,0.66186
4939.52,0.66220
4933.73,0.66290
4927.94,0.66232
4922.16,0.66232
4916.37,0.66330
4910.59,0.66305
4904.8,0.66368
4899.01,0.66343
4893.23,0.66360
4887.44,0.66278
4881.65,0.66404
4875.87,0.66478
4870.08,0.66567
4864.3,0.66490
4858.51,0.66467
4852.72,0.66652
4846.94,0.66636
4841.15,0.66482
4835.36,0.66608
4829.58,0.66590
4823.79,0.66467
4818.01,0.66596
4812.22,0.66686
4806.43,0.66775
4800.65,0.66647
4794.86,0.66608
4789.07,0.66801
4783.29,0.66792
4777.5,0.66831
4771.72,0.66695
4765.93,0.66741
4760.14,0.66699
4754.36,0.66749
4748.57,0.66796
4742.78,0.66836
4737,0.66878
4731.21,0.66893
4725.43,0.66859
4719.64,0.66803
4713.85,0.66757
4708.07,0.66765
4702.28,0.66745
4696.49,0.66717
4690.71,0.66701
4684.92,0.66729
4679.14,0.66610
4673.35,0.66486
4667.56,0.66550
4661.78,0.66494
4655.99,0.66369
4650.2,0.66367
4644.42,0.66444
4638.63,0.66380
4632.85,0.66300
4627.06,0.66141
4621.27,0.66265
4615.49,0.66266
4609.7,0.66225
4603.92,0.66226
4598.13,0.66125
4592.34,0.66136
4586.56,0.66167
4580.77,0.66129
4574.98,0.66075
4569.2,0.66013
4563.41,0.66075
4557.63,0.66031
4551.84,0.66101
4546.05,0.66140
4540.27,0.66129
4534.48,0.66139
4528.69,0.66151
4522.91,0.66114
4517.12,0.66041
4511.34,0.66110
4505.55,0.66080
4499.76,0.66153
4493.98,0.66122
4488.19,0.66190
4482.4,0.66119
4476.62,0.66181
4470.83,0.66175
4465.05,0.66243
4459.26,0.66197
4453.47,0.66291
4447.69,0.66301
4441.9,0.66322
4436.11,0.66291
4430.33,0.66297
4424.54,0.66279
4418.76,0.66196
4412.97,0.66272
4407.18,0.66244
4401.4,0.66274
4395.61,0.66344
4389.82,0.66283
4384.04,0.66206
4378.25,0.66185
4372.47,0.66033
4366.68,0.66096
4360.89,0.65974
4355.11,0.65982
4349.32,0.65862
4343.53,0.65918
4337.75,0.65777
4331.96,0.65777
4326.18,0.65800
4320.39,0.65747
4314.6,0.65783
4308.82,0.65896
4303.03,0.65871
4297.24,0.65873
4291.46,0.65788
4285.67,0.65757
4279.89,0.65743
4274.1,0.65769
4268.31,0.65759
4262.53,0.65714
4256.74,0.65735
4250.95,0.65663
4245.17,0.65677
4239.38,0.65650
4233.6,0.65592
4227.81,0.65574
4222.02,0.65559
4216.24,0.65518
4210.45,0.65586
4204.66,0.65560
4198.88,0.65442
4193.09,0.65487
4187.31,0.65489
4181.52,0.65417
4175.73,0.65386
4169.95,0.65430
4164.16,0.65338
4158.37,0.65252
4152.59,0.65368
4146.8,0.65250
4141.02,0.65243
4135.23,0.65237
4129.44,0.65170
4123.66,0.65344
4117.87,0.65214
4112.09,0.65139
4106.3,0.65034
4100.51,0.64981
4094.73,0.64887
4088.94,0.64824
4083.15,0.64738
4077.37,0.64685
4071.58,0.64768
4065.8,0.64640
4060.01,0.64663
4054.22,0.64639
4048.44,0.64507
4042.65,0.64450
4036.86,0.64310
4031.08,0.64349
4025.29,0.64339
4019.51,0.64230
4013.72,0.64206
4007.93,0.64215
4002.15,0.64179
3996.36,0.64175
3990.57,0.64088
3984.79,0.64150
3979,0.64031
3973.22,0.64025
3967.43,0.63937
3961.64,0.63935
3955.86,0.63848
3950.07,0.63815
3944.28,0.63938
3938.5,0.63807
3932.71,0.63808
3926.93,0.63781
3921.14,0.63796
3915.35,0.63721
3909.57,0.63843
3903.78,0.63714
3897.99,0.63600
3892.21,0.63690
3886.42,0.63690
3880.64,0.63636
3874.85,0.63678
3869.06,0.63553
3863.28,0.63450
3857.49,0.63582
3851.7,0.63303
3845.92,0.63447
3840.13,0.63305
3834.35,0.63180
3828.56,0.63168
3822.77,0.63066
3816.99,0.62841
3811.2,0.62811
3805.41,0.62653
3799.63,0.62505
3793.84,0.62347
3788.06,0.62138
3782.27,0.61879
3776.48,0.61634
3770.7,0.61264
3764.91,0.60858
3759.12,0.60360
3753.34,0.59805
3747.55,0.58943
3741.77,0.57993
3735.98,0.56958
3730.19,0.55503
3724.41,0.53614
3718.62,0.51212
3712.83,0.48479
3707.05,0.45061
3701.26,0.41564
3695.48,0.37985
3689.69,0.34414
3683.9,0.30590
3678.12,0.27193
3672.33,0.23561
3666.54,0.20282
3660.76,0.17458
3654.97,0.14856
3649.19,0.12810
3643.4,0.11038
3637.61,0.09689
3631.83,0.08706
3626.04,0.07856
3620.25,0.07251
3614.47,0.06874
3608.68,0.06468
3602.9,0.06249
3597.11,0.05986
3591.32,0.05813
3585.54,0.05689
3579.75,0.05605
3573.97,0.05486
3568.18,0.05380
3562.39,0.05337
3556.61,0.05322
3550.82,0.05230
3545.03,0.05181
3539.25,0.05212
3533.46,0.05106
3527.68,0.05135
3521.89,0.05073
3516.1,0.05063
3510.32,0.05000
3504.53,0.04929
3498.74,0.04965
3492.96,0.04982
3487.17,0.05005
3481.39,0.04955
3475.6,0.04983
3469.81,0.04965
3464.03,0.04953
3458.24,0.04922
3452.45,0.04934
3446.67,0.04955
3440.88,0.04929
3435.1,0.04898
3429.31,0.04983
3423.52,0.05004
3417.74,0.04984
3411.95,0.04987
3406.16,0.05054
3400.38,0.05058
3394.59,0.04997
3388.81,0.05082
3383.02,0.05106
3377.23,0.05114
3371.45,0.05079
3365.66,0.05131
3359.87,0.05115
3354.09,0.05114
3348.3,0.05144
3342.52,0.05140
3336.73,0.05129
3330.94,0.05175
3325.16,0.05234
3319.37,0.05226
3313.58,0.05214
3307.8,0.05312
3302.01,0.05338
3296.23,0.05303
3290.44,0.05330
3284.65,0.05360
3278.87,0.05320
3273.08,0.05372
3267.29,0.05469
3261.51,0.05471
3255.72,0.05677
3249.94,0.05632
3244.15,0.05729
3238.36,0.05706
3232.58,0.05699
3226.79,0.05754
3221,0.05890
3215.22,0.05976
3209.43,0.06026
3203.65,0.06073
3197.86,0.06165
3192.07,0.06250
3186.29,0.06303
3180.5,0.06387
3174.71,0.06428
3168.93,0.06534
3163.14,0.06586
3157.36,0.06665
3151.57,0.06756
3145.78,0.06866
3140,0.07002
3134.21,0.07124
3128.42,0.07158
3122.64,0.07304
3116.85,0.07554
3111.07,0.07662
3105.28,0.07745
3099.49,0.07941
3093.71,0.08151
3087.92,0.08422
3082.14,0.08593
3076.35,0.08787
3070.56,0.09075
3064.78,0.09285
3058.99,0.09472
3053.2,0.09692
3047.42,0.09926
3041.63,0.10149
3035.85,0.10338
3030.06,0.10533
3024.27,0.10712
3018.49,0.10933
3012.7,0.11160
3006.91,0.11371
3001.13,0.11568
2995.34,0.11816
2989.56,0.12031
2983.77,0.12285
2977.98,0.12531
2972.2,0.12876
2966.41,0.13157
2960.62,0.13551
2954.84,0.13879
2949.05,0.14273
2943.27,0.14659
2937.48,0.14977
2931.69,0.15377
2925.91,0.15730
2920.12,0.16138
2914.33,0.16619
2908.55,0.17113
2902.76,0.17522
2896.98,0.17861
2891.19,0.18253
2885.4,0.18611
2879.62,0.18877
2873.83,0.19140
2868.04,0.19404
2862.26,0.19734
2856.47,0.19991
2850.69,0.20375
2844.9,0.21069
2839.11,0.21802
2833.33,0.22351
2827.54,0.22839
2821.75,0.23416
2815.97,0.23913
2810.18,0.24545
2804.4,0.25204
2798.61,0.25854
2792.82,0.26538
2787.04,0.27174
2781.25,0.27723
2775.46,0.28277
2769.68,0.28768
2763.89,0.29167
2758.11,0.29584
2752.32,0.29998
2746.53,0.30255
2740.75,0.30637
2734.96,0.30961
2729.17,0.31256
2723.39,0.31617
2717.6,0.31964
2711.82,0.32320
2706.03,0.32666
2700.24,0.33132
2694.46,0.33597
2688.67,0.34076
2682.88,0.34511
2677.1,0.34992
2671.31,0.35505
2665.53,0.35973
2659.74,0.36514
2653.95,0.36909
2648.17,0.37271
2642.38,0.37669
2636.59,0.37913
2630.81,0.38068
2625.02,0.38312
2619.24,0.38412
2613.45,0.38440
2607.66,0.38455
2601.88,0.38462
2596.09,0.38418
2590.3,0.38365
2584.52,0.38341
2578.73,0.38349
2572.95,0.38401
2567.16,0.38412
2561.37,0.38444
2555.59,0.38541
2549.8,0.38720
2544.02,0.38781
2538.23,0.38941
2532.44,0.39088
2526.66,0.39182
2520.87,0.39336
2515.08,0.39483
2509.3,0.39558
2503.51,0.39705
2497.73,0.39838
2491.94,0.39878
2486.15,0.39886
2480.37,0.39886
2474.58,0.39808
2468.79,0.39710
2463.01,0.39533
2457.22,0.39380
2451.44,0.39236
2445.65,0.39049
2439.86,0.38910
2434.08,0.38826
2428.29,0.38831
2422.5,0.38888
2416.72,0.38961
2410.93,0.39145
2405.15,0.39306
2399.36,0.39578
2393.57,0.39861
2387.79,0.40132
2382,0.40430
2376.21,0.40666
2370.43,0.40920
2364.64,0.41129
2358.86,0.41230
2353.07,0.41342
2347.28,0.41393
2341.5,0.41318
2335.71,0.41227
2329.92,0.41151
2324.14,0.40977
2318.35,0.40774
2312.57,0.40594
2306.78,0.40431
2300.99,0.40320
2295.21,0.40182
2289.42,0.40130
2283.63,0.40127
2277.85,0.40171
2272.06,0.40299
2266.28,0.40440
2260.49,0.40656
2254.7,0.40915
2248.92,0.41162
2243.13,0.41449
2237.34,0.41706
2231.56,0.41925
2225.77,0.42025
2219.99,0.42101
2214.2,0.42077
2208.41,0.42017
2202.63,0.41887
2196.84,0.41661
2191.05,0.41360
2185.27,0.40999
2179.48,0.40639
2173.7,0.40333
2167.91,0.40021
2162.12,0.39694
2156.34,0.39446
2150.55,0.39260
2144.76,0.39153
2138.98,0.39172
2133.19,0.39369
2127.41,0.39587
2121.62,0.39959
2115.83,0.40314
2110.05,0.40753
2104.26,0.41186
2098.47,0.41603
2092.69,0.41923
2086.9,0.42216
2081.12,0.42461
2075.33,0.42618
2069.54,0.42675
2063.76,0.42647
2057.97,0.42523
2052.19,0.42351
2046.4,0.42162
2040.61,0.41881
2034.83,0.41645
2029.04,0.41412
2023.25,0.41274
2017.47,0.41183
2011.68,0.41205
2005.9,0.41321
2000.11,0.41509
1994.32,0.41852
1988.54,0.42237
1982.75,0.42744
1976.96,0.43296
1971.18,0.43823
1965.39,0.44310
1959.61,0.44778
1953.82,0.45218
1948.03,0.45553
1942.25,0.45746
1936.46,0.45843
1930.67,0.45798
1924.89,0.45650
1919.1,0.45354
1913.32,0.45007
1907.53,0.44603
1901.74,0.44181
1895.96,0.43728
1890.17,0.43340
1884.38,0.43074
1878.6,0.42854
1872.81,0.42767
1867.03,0.42818
1861.24,0.43014
1855.45,0.43271
1849.67,0.43666
1843.88,0.44070
1838.09,0.44558
1832.31,0.44944
1826.52,0.45305
1820.74,0.45604
1814.95,0.45736
1809.16,0.45654
1803.38,0.45277
1797.59,0.44772
1791.8,0.44181
1786.02,0.43781
1780.23,0.43078
1774.45,0.42182
1768.66,0.41087
1762.87,0.40029
1757.09,0.38770
1751.3,0.37484
1745.51,0.36130
1739.73,0.34848
1733.94,0.33490
1728.16,0.31489
1722.37,0.29166
1716.58,0.28272
1710.8,0.27562
1705.01,0.24815
1699.22,0.22250
1693.44,0.21318
1687.65,0.21414
1681.87,0.21690
1676.08,0.21685
1670.29,0.21110
1664.51,0.20153
1658.72,0.18998
1652.93,0.17511
1647.15,0.16089
1641.36,0.14707
1635.58,0.13480
1629.79,0.12429
1624,0.11616
1618.22,0.11023
1612.43,0.10711
1606.64,0.10919
1600.86,0.11566
1595.07,0.12409
1589.29,0.13219
1583.5,0.14014
1577.71,0.15056
1571.93,0.16577
1566.14,0.18560
1560.35,0.20572
1554.57,0.22649
1548.78,0.24114
1543,0.24938
1537.21,0.25490
1531.42,0.25561
1525.64,0.25127
1519.85,0.24244
1514.07,0.23141
1508.28,0.22144
1502.49,0.21252
1496.71,0.20520
1490.92,0.19801
1485.13,0.19165
1479.35,0.18821
1473.56,0.18537
1467.78,0.18558
1461.99,0.19050
1456.2,0.19953
1450.42,0.21155
1444.63,0.22129
1438.84,0.22275
1433.06,0.21801
1427.27,0.21546
1421.49,0.21241
1415.7,0.20417
1409.91,0.19260
1404.13,0.17625
1398.34,0.15403
1392.55,0.12890
1386.77,0.10621
1380.98,0.08853
1375.2,0.07654
1369.41,0.06838
1363.62,0.06331
1357.84,0.05881
1352.05,0.05538
1346.26,0.05286
1340.48,0.05017
1334.69,0.04737
1328.91,0.04429
1323.12,0.04159
1317.33,0.03831
1311.55,0.03493
1305.76,0.03161
1299.97,0.02849
1294.19,0.02601
1288.4,0.02364
1282.62,0.02246
1276.83,0.02240
1271.04,0.02260
1265.26,0.02341
1259.47,0.02374
1253.68,0.02429
1247.9,0.02382
1242.11,0.02441
1236.33,0.02439
1230.54,0.02406
1224.75,0.02374
1218.97,0.02410
1213.18,0.02372
1207.39,0.02360
1201.61,0.02370
1195.82,0.02400
1190.04,0.02448
1184.25,0.02513
1178.46,0.02562
1172.68,0.02613
1166.89,0.02664
1161.1,0.02760
1155.32,0.02842
1149.53,0.02949
1143.75,0.02941
1137.96,0.02973
1132.17,0.03022
1126.39,0.03073
1120.6,0.03144
1114.81,0.03201
1109.03,0.03199
1103.24,0.03152
1097.46,0.03158
1091.67,0.03076
1085.88,0.03061
1080.1,0.03108
1074.31,0.03003
1068.52,0.02976
1062.74,0.02929
1056.95,0.02898
1051.17,0.02919
1045.38,0.02884
1039.59,0.02877
1033.81,0.02781
1028.02,0.02716
1022.24,0.02580
1016.45,0.02479
1010.66,0.02297
1004.88,0.02207
999.09,0.02181
993.304,0.02233
987.518,0.02207
981.731,0.02158
975.945,0.02245
970.159,0.02369
964.373,0.02504
958.586,0.02746
952.8,0.03046
947.014,0.03417
941.228,0.03776
935.441,0.04294
929.655,0.04742
923.869,0.05299
918.083,0.05739
912.297,0.06245
906.51,0.06714
900.724,0.07256
894.938,0.07650
889.152,0.08051
883.365,0.08541
877.579,0.08992
871.793,0.09383
866.007,0.09936
860.22,0.10369
854.434,0.10735
848.648,0.11055
842.862,0.11450
837.075,0.11759
831.289,0.12185
825.503,0.12525
819.717,0.12824
813.931,0.13087
808.144,0.13312
802.358,0.13552
796.572,0.13748
790.786,0.13873
784.999,0.13988
779.213,0.14189
773.427,0.14322
767.641,0.14477
761.854,0.14589
756.068,0.14754
750.282,0.14775
744.496,0.14946
738.709,0.15144
732.923,0.15293
727.137,0.15449
721.351,0.15528
715.565,0.15468
709.778,0.15752
703.992,0.16091
698.206,0.16100
692.42,0.16310
686.633,0.16359
680.847,0.16547
675.061,0.16546
669.275,0.16613
663.488,0.16622
657.702,0.16723
651.916,0.16850
646.13,0.16941
640.343,0.16992
634.557,0.17070
628.771,0.17155
622.985,0.17038
617.198,0.17587
611.412,0.17540
605.626,0.17572
599.84,0.17706