File: 01_Data/Wood_Stud/Cone/Wood_Stud_HRRPUA_75.csv
Time after Ignition,Wood_Stud_R1,Wood_Stud_R2,Wood_Stud_R3,Mean,Std. Dev.
0.0,56.0,45.3,25.2,42.2,15.6
1.5,102.8,99.0,72.6,91.5,16.5
3.0,177.4,178.0,132.5,162.6,26.1
4.5,262.8,238.2,176.3,225.8,44.5
6.0,322.8,296.0,222.7,280.5,51.8
7.5,349.5,316.0,253.3,306.2,48.8
9.0,369.7,333.3,271.2,324.7,49.8
10.5,357.4,330.6,295.0,327.7,31.3
12.0,356.7,319.3,297.1,324.4,30.1
13.5,350.4,308.7,298.7,319.3,27.5
15.0,329.4,289.2,296.7,305.1,21.4
16.5,317.8,277.7,288.5,294.7,20.8
18.0,308.9,263.4,273.9,282.1,23.8
19.5,302.0,256.4,270.4,276.3,23.4
21.0,283.5,252.3,259.0,265.0,16.4
22.5,275.8,240.7,245.8,254.1,19.0
24.0,270.6,239.1,235.8,248.5,19.2
25.5,263.0,235.0,230.3,242.8,17.7
27.0,256.9,230.4,221.6,236.3,18.4
28.5,249.9,227.2,216.9,231.3,16.9
30.0,251.2,225.5,214.6,230.5,18.8
31.5,243.5,227.6,202.0,224.4,20.9
33.0,246.2,221.0,197.3,221.5,24.5
34.5,243.2,225.5,194.6,221.1,24.6
36.0,238.0,221.3,191.8,217.0,23.4
37.5,232.2,225.2,190.1,215.8,22.6
39.0,232.4,220.5,184.4,212.5,25.0
40.5,221.2,216.9,183.8,207.3,20.5
42.0,223.1,220.0,182.7,208.6,22.5
43.5,216.8,212.1,177.2,202.0,21.6
45.0,210.9,209.7,177.1,199.2,19.2
46.5,207.9,209.4,173.2,196.8,20.4
48.0,199.4,203.1,172.1,191.5,16.9
49.5,200.3,199.5,165.5,188.4,19.9
51.0,196.2,198.8,166.4,187.1,18.0
52.5,188.1,196.8,168.6,184.5,14.5
54.0,188.7,197.5,164.0,183.4,17.3
55.5,186.4,191.6,161.6,179.9,16.1
57.0,184.2,190.2,162.5,179.0,14.6
58.5,180.5,183.5,160.2,174.7,12.7
60.0,183.1,177.5,161.3,174.0,11.4
61.5,179.3,179.6,158.5,172.4,12.1
63.0,177.3,175.5,156.9,169.9,11.3
64.5,175.3,172.3,157.3,168.3,9.7
66.0,175.4,168.3,153.1,165.6,11.4
67.5,172.9,169.0,150.2,164.0,12.2
69.0,171.6,168.6,148.4,162.9,12.6
70.5,173.8,162.8,146.7,161.1,13.6
72.0,174.2,163.9,145.9,161.3,14.3
73.5,169.0,160.2,145.1,158.1,12.1
75.0,169.8,159.8,144.8,158.1,12.6
76.5,171.0,156.2,143.1,156.8,13.9
78.0,165.0,157.3,139.0,153.7,13.4
79.5,167.1,157.4,141.1,155.2,13.2
81.0,163.7,156.5,138.0,152.7,13.2
82.5,163.0,154.4,139.1,152.2,12.1
84.0,161.1,151.6,137.9,150.2,11.7
85.5,160.3,153.7,136.0,150.0,12.6
87.0,164.1,150.7,135.3,150.0,14.4
88.5,158.2,152.9,135.9,149.0,11.6
90.0,160.8,148.9,135.9,148.5,12.5
91.5,157.6,152.1,133.9,147.9,12.4
93.0,158.5,149.2,134.2,147.3,12.3
94.5,155.0,148.7,131.1,144.9,12.4
96.0,156.9,147.9,132.5,145.8,12.4
97.5,155.7,148.8,133.7,146.1,11.3
99.0,153.0,147.7,130.9,143.9,11.5
100.5,152.4,146.0,130.6,143.0,11.2
102.0,151.8,146.4,131.0,143.1,10.8
103.5,152.2,145.6,131.9,143.2,10.3
105.0,152.3,143.7,130.2,142.0,11.1
106.5,149.9,144.7,129.4,141.4,10.6
108.0,152.5,144.9,129.5,142.3,11.7
109.5,150.3,145.1,128.0,141.1,11.7
111.0,151.8,146.3,130.5,142.9,11.1
112.5,151.4,147.0,126.9,141.8,13.0
114.0,151.4,143.5,128.4,141.1,11.7
115.5,153.8,144.9,125.9,141.6,14.2
117.0,154.6,141.4,125.8,140.6,14.4
118.5,152.3,142.7,124.2,139.8,14.3
120.0,153.1,142.6,124.0,139.9,14.7
121.5,151.0,142.4,123.4,139.0,14.1
123.0,152.4,139.1,122.1,137.9,15.2
124.5,152.2,141.6,121.1,138.3,15.8
126.0,149.8,141.6,120.8,137.4,15.0
127.5,149.7,138.5,119.7,136.0,15.2
129.0,148.8,139.6,119.3,135.9,15.1
130.5,146.6,138.3,116.8,133.9,15.4
132.0,147.8,139.7,117.3,134.9,15.8
133.5,146.2,136.5,116.7,133.2,15.0
135.0,148.9,134.6,115.5,133.0,16.8
136.5,146.0,135.2,116.0,132.4,15.2
138.0,144.3,132.0,113.1,129.8,15.7
139.5,144.8,132.4,115.0,130.7,15.0
141.0,144.4,132.9,113.6,130.3,15.6
142.5,144.4,132.8,112.7,130.0,16.0
144.0,143.8,133.4,112.1,129.8,16.1
145.5,144.3,130.0,113.3,129.2,15.5
147.0,142.9,129.7,112.3,128.3,15.3
148.5,144.9,129.9,112.2,129.0,16.4
150.0,143.1,129.9,112.2,128.4,15.5
151.5,145.6,129.2,111.5,128.8,17.0
153.0,143.0,129.1,111.0,127.7,16.0
154.5,141.9,129.2,111.4,127.5,15.3
156.0,141.3,127.6,109.4,126.1,16.0
157.5,139.7,128.5,107.8,125.3,16.2
159.0,141.6,128.4,110.8,126.9,15.4
160.5,139.9,127.8,108.8,125.5,15.7
162.0,137.6,127.7,108.0,124.4,15.1
163.5,138.4,127.6,108.8,124.9,15.0
165.0,137.6,128.2,106.8,124.2,15.8
166.5,137.2,127.0,107.8,124.0,14.9
168.0,136.3,127.3,107.4,123.7,14.8
169.5,134.8,128.3,106.8,123.3,14.7
171.0,134.5,127.0,106.5,122.7,14.5
172.5,133.5,128.7,107.2,123.1,14.0
174.0,133.5,130.7,106.7,123.6,14.7
175.5,132.7,128.8,105.8,122.4,14.5
177.0,133.8,128.2,102.6,121.5,16.6
178.5,129.9,126.5,104.2,120.2,14.0
180.0,131.2,127.8,105.0,121.4,14.2
181.5,130.9,127.0,106.7,121.6,13.0
183.0,129.7,127.3,107.2,121.4,12.4
184.5,127.9,127.8,106.1,120.6,12.6
186.0,125.7,126.0,105.2,119.0,11.9
187.5,128.1,126.0,106.4,120.2,12.0
189.0,125.8,126.8,105.4,119.3,12.1
190.5,124.6,123.8,105.3,117.9,10.9
192.0,126.0,127.8,104.4,119.4,13.0
193.5,126.3,125.7,105.3,119.1,11.9
195.0,124.3,124.9,103.3,117.5,12.3
196.5,124.7,125.3,104.0,118.0,12.2
198.0,122.3,123.9,104.4,116.9,10.9
199.5,121.3,124.4,102.9,116.2,11.7
201.0,121.8,124.6,104.5,117.0,10.9
202.5,122.5,123.2,104.0,116.6,10.9
204.0,120.5,124.4,103.5,116.2,11.1
205.5,122.8,124.5,103.9,117.1,11.4
207.0,121.2,122.8,104.7,116.2,10.0
208.5,121.1,123.5,103.5,116.0,10.9
210.0,120.6,122.6,102.0,115.1,11.4
211.5,119.6,122.2,102.0,114.6,11.0
213.0,119.0,119.4,100.7,113.0,10.7
214.5,120.5,121.9,101.7,114.7,11.3
216.0,120.0,121.6,102.3,114.7,10.7
217.5,120.7,119.3,101.9,113.9,10.5
219.0,118.3,120.6,101.7,113.6,10.3
220.5,119.5,118.8,101.4,113.2,10.3
222.0,119.9,120.9,102.3,114.4,10.4
223.5,117.5,118.8,101.1,112.5,9.8
225.0,119.0,119.2,102.0,113.4,9.8
226.5,121.3,118.7,103.3,114.4,9.7
228.0,120.6,116.8,103.5,113.6,9.0
229.5,119.6,117.2,102.9,113.2,9.1
231.0,119.9,117.8,102.9,113.5,9.2
232.5,119.1,116.4,101.0,112.2,9.8
234.0,117.9,115.9,100.5,111.4,9.6
235.5,117.6,117.6,102.2,112.5,8.9
237.0,118.2,115.1,101.6,111.6,8.8
238.5,118.4,115.0,101.7,111.7,8.8
240.0,119.1,114.3,101.1,111.5,9.3
241.5,118.8,115.1,100.3,111.4,9.8
243.0,115.4,116.2,101.1,110.9,8.5
244.5,116.1,115.0,101.4,110.8,8.2
246.0,116.3,117.0,102.5,111.9,8.2
247.5,117.4,114.4,101.6,111.2,8.4
249.0,114.8,113.8,101.0,109.9,7.7
250.5,115.4,116.0,101.7,111.1,8.1
252.0,115.0,114.1,102.1,110.4,7.2
253.5,115.5,112.0,102.2,109.9,6.9
255.0,114.1,116.4,102.3,110.9,7.5
256.5,116.5,117.6,102.3,112.1,8.6
258.0,115.8,115.1,102.9,111.3,7.2
259.5,112.8,116.0,104.0,110.9,6.2
261.0,113.3,116.9,103.6,111.3,6.8
262.5,111.4,117.8,104.4,111.2,6.7
264.0,110.9,115.8,102.7,109.8,6.6
265.5,111.4,118.5,100.8,110.2,8.9
267.0,112.2,118.5,102.0,110.9,8.3
268.5,110.4,118.1,103.1,110.5,7.5
270.0,111.3,118.3,103.0,110.8,7.7
271.5,111.1,119.9,102.2,111.1,8.9
273.0,108.8,120.8,101.3,110.3,9.8
274.5,110.0,117.1,102.7,109.9,7.2
276.0,109.6,119.0,102.1,110.3,8.4
277.5,109.9,119.4,101.2,110.2,9.1
279.0,108.9,120.3,100.8,110.0,9.8
280.5,110.9,118.7,100.0,109.8,9.4
282.0,109.6,117.8,100.5,109.3,8.7
283.5,109.3,117.5,99.9,108.9,8.8
285.0,109.3,117.7,100.1,109.0,8.8
286.5,109.3,119.1,100.2,109.6,9.5
288.0,108.2,118.0,100.1,108.8,9.0
289.5,108.0,118.2,98.9,108.4,9.6
291.0,107.6,115.0,100.7,107.8,7.2
292.5,107.5,117.8,100.7,108.7,8.6
294.0,108.3,116.5,99.7,108.2,8.4
295.5,110.2,115.7,101.6,109.2,7.1
297.0,110.8,117.6,100.7,109.7,8.5
298.5,109.8,116.5,99.4,108.6,8.6
300.0,108.7,115.3,101.1,108.4,7.1
301.5,109.1,114.3,101.8,108.4,6.3
303.0,108.8,113.3,101.3,107.8,6.1
304.5,110.1,115.0,100.9,108.6,7.2
306.0,110.4,115.0,101.2,108.8,7.0
307.5,110.4,114.4,99.5,108.1,7.7
309.0,110.2,116.2,99.7,108.7,8.4
310.5,109.1,114.5,101.1,108.2,6.8
312.0,109.2,116.2,97.5,107.6,9.4
313.5,109.4,113.9,100.4,107.9,6.9
315.0,108.6,114.0,98.8,107.1,7.7
316.5,107.6,114.6,98.4,106.9,8.1
318.0,106.5,112.9,98.9,106.1,7.0
319.5,107.0,114.5,99.5,107.0,7.5
321.0,104.0,113.6,98.8,105.5,7.5
322.5,107.6,114.9,97.9,106.8,8.5
324.0,107.4,113.4,98.9,106.6,7.3
325.5,107.6,113.9,97.7,106.4,8.2
327.0,106.8,114.8,98.8,106.8,8.0
328.5,107.4,113.3,97.9,106.2,7.8
330.0,106.0,112.7,97.3,105.4,7.7
331.5,105.9,114.1,97.8,106.0,8.1
333.0,106.4,114.9,98.7,106.7,8.1
334.5,105.2,113.7,97.7,105.5,8.0
336.0,105.5,115.3,97.3,106.0,9.0
337.5,105.3,112.2,96.7,104.8,7.8
339.0,107.1,114.5,96.6,106.0,9.0
340.5,107.9,114.0,96.1,106.0,9.1
342.0,105.7,113.5,97.1,105.4,8.2
343.5,105.0,113.5,97.5,105.4,8.0
345.0,105.0,114.8,97.1,105.6,8.9
346.5,104.6,112.5,96.5,104.6,8.0
348.0,104.8,114.6,96.1,105.2,9.2
349.5,104.5,114.3,95.2,104.6,9.5
351.0,105.7,115.1,95.2,105.3,9.9
352.5,104.1,112.8,95.2,104.0,8.8
354.0,105.7,115.3,96.0,105.7,9.7
355.5,103.4,113.6,95.6,104.2,9.0
357.0,103.3,113.0,96.6,104.3,8.3
358.5,103.9,113.7,94.8,104.1,9.4
360.0,102.9,114.4,95.1,104.1,9.7
361.5,100.3,114.4,96.6,103.8,9.4
363.0,102.8,114.1,97.6,104.8,8.5
364.5,100.2,114.7,96.7,103.9,9.5
366.0,101.2,113.4,96.1,103.6,8.9
367.5,99.8,112.2,96.1,102.7,8.4
369.0,98.6,111.9,96.4,102.3,8.4
370.5,98.2,113.4,94.9,102.2,9.9
372.0,98.5,111.3,95.5,101.8,8.4
373.5,98.2,110.8,96.0,101.7,8.0
375.0,97.4,110.5,94.4,100.7,8.6
376.5,98.6,110.3,95.1,101.3,8.0
378.0,98.1,109.5,95.3,101.0,7.5
379.5,97.8,110.1,94.1,100.6,8.4
381.0,96.8,108.9,94.8,100.2,7.6
382.5,96.4,109.5,94.4,100.1,8.2
384.0,98.3,107.4,92.6,99.5,7.4
385.5,97.2,108.7,93.9,100.0,7.8
387.0,98.3,107.2,94.7,100.1,6.5
388.5,99.1,107.7,92.1,99.6,7.8
390.0,96.1,107.8,93.7,99.2,7.5
391.5,97.9,106.9,93.1,99.3,7.0
393.0,97.6,107.6,93.2,99.5,7.4
394.5,96.7,107.7,92.6,99.0,7.8
396.0,97.2,108.1,93.1,99.5,7.7
397.5,98.6,107.2,93.0,99.6,7.1
399.0,97.6,107.3,92.9,99.3,7.4
400.5,97.1,106.5,92.8,98.8,7.0
402.0,97.8,105.0,94.4,99.1,5.4
403.5,95.7,105.8,94.8,98.8,6.1
405.0,97.9,103.3,94.0,98.4,4.7
406.5,98.3,103.9,95.3,99.2,4.4
408.0,98.1,105.6,94.8,99.5,5.6
409.5,99.0,106.2,94.0,99.7,6.2
411.0,97.5,103.8,94.3,98.5,4.9
412.5,96.9,105.6,93.8,98.8,6.2
414.0,97.6,103.5,94.3,98.5,4.7
415.5,98.9,104.6,92.9,98.8,5.8
417.0,98.5,105.4,92.3,98.7,6.6
418.5,98.5,105.2,93.1,98.9,6.1
420.0,98.4,106.3,91.8,98.8,7.2
421.5,99.1,104.9,94.2,99.4,5.4
423.0,99.0,105.9,93.5,99.5,6.2
424.5,100.2,106.0,92.7,99.6,6.6
426.0,100.6,109.0,93.5,101.0,7.8
427.5,101.8,107.7,94.1,101.2,6.8
429.0,100.5,107.8,94.0,100.8,6.9
430.5,99.4,105.9,93.4,99.6,6.3
432.0,100.5,109.0,93.1,100.9,8.0
433.5,98.7,107.3,95.0,100.4,6.3
435.0,101.0,107.3,92.9,100.4,7.2
436.5,101.7,107.5,93.6,100.9,6.9
438.0,102.3,109.0,91.8,101.0,8.7
439.5,102.2,108.0,91.2,100.5,8.5
441.0,102.2,108.1,91.3,100.6,8.5
442.5,102.3,108.2,91.0,100.5,8.8
444.0,101.1,109.2,92.1,100.8,8.6
445.5,102.3,107.4,92.0,100.6,7.8
447.0,102.9,108.3,92.8,101.3,7.9
448.5,103.4,106.6,90.6,100.2,8.5
450.0,102.7,107.6,92.1,100.8,7.9
451.5,101.8,107.3,91.3,100.1,8.1
453.0,101.9,107.6,91.3,100.3,8.3
454.5,102.1,106.7,92.0,100.3,7.5
456.0,100.7,105.7,90.7,99.0,7.6
457.5,100.6,106.9,89.6,99.0,8.8
459.0,100.3,106.0,89.9,98.7,8.1
460.5,100.6,107.4,89.6,99.2,9.0
462.0,100.5,107.8,90.8,99.7,8.5
463.5,99.8,106.6,90.1,98.9,8.3
465.0,99.7,107.4,89.8,99.0,8.8
466.5,98.9,107.2,89.9,98.7,8.6
468.0,98.1,106.7,90.3,98.4,8.2
469.5,98.5,108.0,91.0,99.1,8.5
471.0,96.8,107.7,89.3,97.9,9.2
472.5,98.4,105.7,91.3,98.5,7.2
474.0,98.0,105.6,89.2,97.6,8.2
475.5,98.3,105.4,89.4,97.7,8.0
477.0,95.4,105.4,90.0,96.9,7.8
478.5,96.3,103.7,89.3,96.4,7.2
480.0,96.8,106.0,90.9,97.9,7.6
481.5,95.6,105.2,88.8,96.5,8.2
483.0,94.7,104.9,89.2,96.3,8.0
484.5,95.9,102.7,89.8,96.1,6.5
486.0,97.5,104.9,90.5,97.6,7.2
487.5,95.1,104.7,89.0,96.3,7.9
489.0,94.3,104.2,89.4,96.0,7.5
490.5,95.0,104.0,90.4,96.5,6.9
492.0,93.6,103.3,89.7,95.5,7.0
493.5,94.6,103.0,89.3,95.6,6.9
495.0,94.3,102.9,90.0,95.7,6.6
496.5,94.4,102.2,90.1,95.6,6.1
498.0,94.5,101.4,90.5,95.5,5.5
499.5,94.9,100.7,89.0,94.8,5.9
501.0,94.6,100.2,88.9,94.5,5.6
502.5,93.6,100.9,88.9,94.5,6.1
504.0,93.1,100.5,89.5,94.4,5.6
505.5,92.9,102.2,88.5,94.5,7.0
507.0,92.0,100.3,88.5,93.6,6.1
508.5,92.8,101.1,88.3,94.1,6.5
510.0,93.3,102.3,87.6,94.4,7.4
511.5,91.9,100.6,88.9,93.8,6.1
513.0,91.9,101.9,87.7,93.8,7.3
514.5,92.4,101.9,87.8,94.0,7.2
516.0,94.3,101.1,86.9,94.1,7.1
517.5,92.3,100.8,87.3,93.5,6.9
519.0,94.3,100.1,87.2,93.9,6.5
520.5,92.9,100.8,87.2,93.6,6.8
522.0,93.0,101.1,86.7,93.6,7.2
523.5,92.8,99.8,87.1,93.2,6.3
525.0,93.9,103.1,86.5,94.5,8.3
526.5,94.5,101.8,89.0,95.1,6.4
528.0,93.4,101.0,87.9,94.1,6.6
529.5,94.6,100.8,88.6,94.6,6.1
531.0,94.0,99.7,87.1,93.6,6.3
532.5,94.1,99.5,87.4,93.7,6.1
534.0,94.0,99.0,86.4,93.1,6.3
535.5,93.7,98.3,87.6,93.2,5.4
537.0,95.3,99.8,88.5,94.5,5.7
538.5,93.6,98.6,86.4,92.9,6.1
540.0,96.6,98.7,85.8,93.7,6.9
541.5,93.8,98.8,87.0,93.2,5.9
543.0,95.2,99.6,87.0,93.9,6.4
544.5,95.2,99.4,85.9,93.5,6.9
546.0,95.1,99.6,86.5,93.7,6.7
547.5,94.7,98.2,86.2,93.0,6.2
549.0,96.1,100.4,84.7,93.7,8.1
550.5,97.5,100.3,84.3,94.0,8.5
552.0,96.2,98.3,85.0,93.2,7.1
553.5,96.0,100.5,85.0,93.8,8.0
555.0,100.3,100.4,84.2,95.0,9.4
556.5,97.5,100.5,84.7,94.2,8.4
558.0,99.2,99.6,83.7,94.2,9.1
559.5,99.4,100.1,82.7,94.1,9.9
561.0,98.4,100.2,84.0,94.2,8.9
562.5,97.2,102.1,84.3,94.5,9.2
564.0,98.7,102.8,83.8,95.1,10.0
565.5,98.8,101.4,84.4,94.9,9.2
567.0,95.9,101.9,83.3,93.7,9.5
568.5,98.7,100.9,84.5,94.7,8.9
570.0,99.1,103.4,83.6,95.4,10.4
571.5,96.9,100.7,83.5,93.7,9.1
573.0,98.6,100.3,84.0,94.3,8.9
574.5,99.2,102.6,84.9,95.5,9.4
576.0,99.9,100.1,84.2,94.7,9.1
577.5,99.1,100.3,83.1,94.2,9.6
579.0,98.9,100.8,83.5,94.4,9.5
580.5,99.7,100.1,82.3,94.0,10.2
582.0,99.5,100.3,84.5,94.8,8.9
583.5,99.1,99.0,83.8,94.0,8.8
585.0,99.1,101.5,82.7,94.4,10.3
586.5,99.6,99.5,84.9,94.7,8.5
588.0,99.0,98.9,83.0,93.6,9.2
589.5,98.9,98.8,83.5,93.7,8.9
591.0,99.2,99.6,82.2,93.7,9.9
592.5,99.4,101.5,82.7,94.5,10.3
594.0,100.0,100.9,82.3,94.4,10.5
595.5,97.9,99.6,83.7,93.7,8.7
597.0,97.8,97.8,83.6,93.1,8.2
598.5,97.7,99.4,82.8,93.3,9.1
600.0,98.5,98.7,83.1,93.4,8.9
601.5,98.2,97.9,84.4,93.5,7.9
603.0,98.1,97.2,83.3,92.8,8.3
604.5,97.9,98.0,84.8,93.6,7.6
606.0,96.6,97.0,82.3,92.0,8.4
607.5,96.3,98.0,83.4,92.6,8.0
609.0,97.8,97.7,81.8,92.4,9.2
610.5,95.8,97.0,81.3,91.4,8.8
612.0,97.5,99.6,82.4,93.2,9.4
613.5,96.2,98.5,81.6,92.1,9.1
615.0,96.5,97.9,81.0,91.8,9.4
616.5,95.4,97.3,80.7,91.1,9.1
618.0,96.4,98.2,81.0,91.9,9.5
619.5,96.3,96.4,81.2,91.3,8.7
621.0,94.9,96.4,82.3,91.2,7.7
622.5,94.2,97.6,81.8,91.2,8.3
624.0,93.5,96.5,82.2,90.8,7.5
625.5,94.0,97.1,81.8,91.0,8.1
627.0,96.8,95.5,82.1,91.5,8.1
628.5,94.9,95.7,82.1,90.9,7.7
630.0,93.4,94.8,80.5,89.6,7.9
631.5,95.3,94.9,80.2,90.1,8.6
633.0,95.3,95.3,80.5,90.4,8.5
634.5,93.6,96.6,80.5,90.2,8.6
636.0,94.2,96.5,81.0,90.6,8.4
637.5,94.3,96.2,80.7,90.4,8.4
639.0,94.3,95.6,80.6,90.1,8.3
640.5,93.9,96.2,80.7,90.3,8.3
642.0,94.5,97.1,81.0,90.9,8.7
643.5,95.2,95.7,80.4,90.4,8.7
645.0,94.7,94.9,81.3,90.3,7.8
646.5,95.6,94.4,82.0,90.7,7.5
648.0,95.7,96.5,82.0,91.4,8.2
649.5,95.0,97.4,82.2,91.5,8.1
651.0,94.0,95.6,81.3,90.3,7.8
652.5,93.4,96.0,81.1,90.2,8.0
654.0,94.7,95.5,80.9,90.4,8.2
655.5,94.1,95.4,80.4,90.0,8.3
657.0,94.1,96.4,80.5,90.3,8.6
658.5,93.8,94.5,80.6,89.6,7.8
660.0,93.6,95.0,81.0,89.9,7.7
661.5,94.3,96.5,81.9,90.9,7.9
663.0,93.0,94.8,79.8,89.2,8.2
664.5,94.1,94.7,79.3,89.4,8.7
666.0,92.2,94.3,80.4,88.9,7.5
667.5,94.6,93.4,80.6,89.5,7.8
669.0,93.8,94.1,79.5,89.1,8.3
670.5,94.1,93.8,80.9,89.6,7.5
672.0,93.8,93.3,80.9,89.3,7.3
673.5,92.7,92.0,79.6,88.1,7.4
675.0,93.1,93.3,79.5,88.6,7.9
676.5,93.4,93.7,80.0,89.0,7.8
678.0,92.8,92.6,79.2,88.2,7.8
679.5,92.4,94.3,78.8,88.5,8.4
681.0,92.5,91.0,80.0,87.8,6.8
682.5,93.2,93.5,79.9,88.9,7.7
684.0,93.5,92.3,80.2,88.7,7.3
685.5,95.1,93.1,80.0,89.4,8.2
687.0,92.5,92.4,81.4,88.8,6.4
688.5,94.8,92.1,81.3,89.4,7.1
690.0,93.8,92.2,80.4,88.8,7.3
691.5,95.1,94.3,80.5,90.0,8.2
693.0,93.2,93.3,80.6,89.0,7.4
694.5,92.8,93.0,81.2,89.0,6.7
696.0,92.5,95.0,81.4,89.6,7.2
697.5,94.0,93.4,81.2,89.5,7.2
699.0,94.1,94.6,82.1,90.3,7.1
700.5,93.6,93.7,82.2,89.8,6.6
702.0,92.7,94.3,80.8,89.3,7.4
703.5,92.7,92.9,80.9,88.8,6.9
705.0,94.4,95.3,80.7,90.1,8.2
706.5,93.4,95.2,81.8,90.2,7.3
708.0,94.0,93.4,80.5,89.3,7.6
709.5,91.9,94.7,80.4,89.0,7.6
711.0,93.0,93.3,81.6,89.3,6.7
712.5,94.1,94.5,79.7,89.4,8.5
714.0,93.2,94.0,78.8,88.7,8.5
715.5,94.1,95.3,80.2,89.9,8.4
717.0,93.5,95.6,79.6,89.6,8.7
718.5,91.8,93.5,79.9,88.4,7.4
720.0,92.1,93.5,81.1,88.9,6.8
721.5,91.0,93.2,81.1,88.5,6.4
723.0,92.0,92.1,80.3,88.1,6.8
724.5,91.6,92.7,79.7,88.0,7.2
726.0,91.7,92.7,80.2,88.2,6.9
727.5,91.1,92.6,80.6,88.1,6.5
729.0,91.8,92.2,79.8,87.9,7.0
730.5,91.8,92.7,81.3,88.6,6.3
732.0,92.7,94.6,80.6,89.3,7.6
733.5,92.8,91.5,79.9,88.1,7.1
735.0,92.0,91.1,80.6,87.9,6.3
736.5,91.9,92.9,80.5,88.5,6.9
738.0,92.0,91.2,82.3,88.5,5.4
739.5,91.8,91.1,79.6,87.5,6.8
741.0,91.1,91.7,80.9,87.9,6.1
742.5,92.0,90.2,79.4,87.2,6.8
744.0,90.5,90.7,79.8,87.0,6.2
745.5,91.7,89.6,81.1,87.5,5.6
747.0,91.6,90.5,80.4,87.5,6.2
748.5,90.1,90.0,80.1,86.7,5.7
750.0,91.0,90.9,80.0,87.3,6.3
751.5,90.6,89.1,80.8,86.8,5.3
753.0,89.2,89.6,80.0,86.3,5.4
754.5,90.0,87.7,81.1,86.2,4.6
756.0,91.4,89.9,79.8,87.0,6.3
757.5,91.2,90.9,79.8,87.3,6.5
759.0,90.9,88.9,79.5,86.4,6.1
760.5,90.4,89.1,80.8,86.8,5.2
762.0,90.9,89.0,79.8,86.6,6.0
763.5,89.9,89.1,80.1,86.4,5.4
765.0,90.1,88.7,81.2,86.7,4.8
766.5,89.3,87.1,80.3,85.6,4.7
768.0,90.9,87.8,80.4,86.4,5.4
769.5,89.0,88.2,78.9,85.4,5.6
771.0,90.2,87.0,80.6,85.9,4.9
772.5,89.3,87.7,80.8,85.9,4.5
774.0,88.4,87.9,81.5,85.9,3.8
775.5,89.4,88.4,80.4,86.1,4.9
777.0,90.6,88.6,80.3,86.5,5.4
778.5,88.7,90.1,81.1,86.7,4.9
780.0,88.3,89.2,79.9,85.8,5.1
781.5,89.1,87.5,79.1,85.2,5.4
783.0,87.6,87.4,78.9,84.6,5.0
784.5,87.9,87.5,79.5,85.0,4.7
786.0,88.1,89.1,80.2,85.8,4.9
787.5,89.1,88.5,80.1,85.9,5.1
789.0,89.6,88.7,79.8,86.0,5.5
790.5,87.9,89.5,79.5,85.6,5.3
792.0,88.4,88.2,79.2,85.3,5.2
793.5,88.0,88.5,78.9,85.1,5.4
795.0,89.7,89.3,80.5,86.5,5.2
796.5,87.7,88.5,79.3,85.2,5.1
798.0,88.3,88.0,79.0,85.1,5.3
799.5,88.2,87.7,79.7,85.2,4.7
801.0,88.5,87.9,80.3,85.6,4.6
802.5,89.1,87.4,79.5,85.3,5.1
804.0,87.8,86.9,80.5,85.0,3.9
805.5,88.3,87.6,80.3,85.4,4.4
807.0,88.3,89.1,79.1,85.5,5.5
808.5,88.6,86.4,81.0,85.3,3.9
810.0,88.8,87.9,80.2,85.6,4.7
811.5,88.2,87.8,79.4,85.1,5.0
813.0,88.7,87.9,79.7,85.4,5.0
814.5,88.9,87.3,79.6,85.3,5.0
816.0,89.1,86.9,79.2,85.1,5.2
817.5,88.5,86.1,79.0,84.5,4.9
819.0,89.6,84.9,80.0,84.8,4.8
820.5,88.9,86.2,80.1,85.0,4.5
822.0,88.5,86.8,79.7,85.0,4.7
823.5,88.3,86.7,79.0,84.7,5.0
825.0,87.9,85.8,79.5,84.4,4.4
826.5,87.6,86.1,78.4,84.0,4.9
828.0,88.2,86.3,78.3,84.3,5.3
829.5,87.1,85.8,78.5,83.8,4.6
831.0,87.1,86.0,79.3,84.1,4.2
832.5,88.1,85.5,76.8,83.5,5.9
834.0,88.0,87.2,78.8,84.7,5.1
835.5,89.5,86.7,77.5,84.6,6.3
837.0,88.4,87.4,77.2,84.3,6.2
838.5,89.0,86.0,78.0,84.3,5.6
840.0,88.8,87.7,79.2,85.2,5.3
841.5,88.6,86.6,78.1,84.4,5.5
843.0,88.0,87.4,78.0,84.5,5.6
844.5,87.4,87.3,77.6,84.1,5.6
846.0,87.2,86.0,77.4,83.5,5.3
847.5,87.0,87.3,78.5,84.3,5.0
849.0,87.4,86.4,77.6,83.8,5.4
850.5,88.1,87.6,78.5,84.7,5.4
852.0,86.9,86.5,77.7,83.7,5.2
853.5,88.0,85.8,79.9,84.6,4.2
855.0,89.2,86.6,79.2,85.0,5.2
856.5,88.6,85.4,79.2,84.4,4.8
858.0,86.7,85.1,79.5,83.8,3.8
859.5,88.5,85.3,79.0,84.3,4.8
861.0,89.6,86.4,80.2,85.4,4.8
862.5,87.9,84.7,79.5,84.0,4.2
864.0,88.9,85.4,80.5,84.9,4.2
865.5,88.7,85.7,80.0,84.8,4.4
867.0,88.9,84.4,80.9,84.7,4.0
868.5,89.0,86.6,80.1,85.3,4.6
870.0,88.3,84.0,80.7,84.3,3.8
871.5,89.0,83.6,81.9,84.8,3.7
873.0,88.3,84.9,81.2,84.8,3.5
874.5,88.0,84.4,81.4,84.6,3.3
876.0,88.4,86.2,82.8,85.8,2.8
877.5,88.6,85.1,81.6,85.1,3.5
879.0,88.3,85.5,82.4,85.4,2.9
880.5,89.3,85.8,82.0,85.7,3.7
882.0,88.6,85.7,82.6,85.6,3.0
883.5,88.8,85.8,83.3,86.0,2.8
885.0,88.7,86.8,81.7,85.8,3.6
886.5,89.6,86.7,81.6,86.0,4.0
888.0,88.2,88.0,81.6,85.9,3.8
889.5,88.6,86.0,82.1,85.6,3.3
891.0,88.1,86.3,81.2,85.2,3.6
892.5,87.7,86.6,81.6,85.3,3.3
894.0,89.5,86.5,80.2,85.4,4.7
895.5,88.2,86.2,80.7,85.0,3.9
897.0,88.4,85.4,82.6,85.5,2.9
898.5,88.4,85.3,80.4,84.7,4.0
900.0,88.7,85.7,80.4,84.9,4.2
901.5,88.8,85.0,81.2,85.0,3.8
903.0,88.6,85.8,78.9,84.4,5.0
904.5,88.1,85.6,80.0,84.6,4.2
906.0,88.3,87.0,79.0,84.8,5.0
907.5,88.3,85.8,79.9,84.7,4.3
909.0,88.2,86.4,79.5,84.7,4.6
910.5,88.8,87.5,79.6,85.3,5.0
912.0,88.4,87.7,78.3,84.8,5.7
913.5,88.4,87.6,80.1,85.3,4.6
915.0,89.0,86.1,79.7,85.0,4.7
916.5,89.0,87.2,79.8,85.3,4.9
918.0,89.7,86.2,79.9,85.3,5.0
919.5,87.5,86.9,79.9,84.7,4.2
921.0,87.0,86.6,80.8,84.8,3.5
922.5,87.6,86.4,81.8,85.3,3.1
924.0,87.0,86.6,81.0,84.9,3.4
925.5,87.1,87.8,80.5,85.1,4.0
927.0,86.7,87.0,79.8,84.5,4.1
928.5,87.6,87.3,79.8,84.9,4.4
930.0,87.5,86.9,79.3,84.6,4.6
931.5,88.7,87.7,80.0,85.4,4.7
933.0,87.2,87.5,80.1,84.9,4.2
934.5,89.3,89.1,78.7,85.7,6.1
936.0,86.0,88.1,79.0,84.4,4.8
937.5,86.4,87.9,78.2,84.2,5.2
939.0,85.4,86.2,79.1,83.6,3.9
940.5,85.9,85.8,80.3,84.0,3.2
942.0,86.2,86.4,79.7,84.1,3.8
943.5,85.5,87.0,80.0,84.1,3.7
945.0,86.0,87.5,80.9,84.8,3.5
946.5,85.4,86.7,79.4,83.8,3.9
948.0,84.3,89.1,80.9,84.8,4.1
949.5,86.0,88.0,80.6,84.9,3.8
951.0,85.7,87.9,80.4,84.6,3.8
952.5,84.7,88.8,81.5,85.0,3.6
954.0,84.7,87.6,82.0,84.8,2.8
955.5,85.2,87.4,80.7,84.4,3.5
957.0,85.3,86.7,81.1,84.3,2.9
958.5,84.5,87.4,81.4,84.5,3.0
960.0,86.8,88.6,80.9,85.4,4.0
961.5,86.3,89.6,79.9,85.3,5.0
963.0,84.6,86.9,80.0,83.8,3.5
964.5,84.0,88.0,80.9,84.3,3.6
966.0,83.5,86.9,79.5,83.3,3.7
967.5,83.6,87.6,80.4,83.9,3.6
969.0,83.4,87.6,80.5,83.8,3.6
970.5,83.6,87.9,80.9,84.1,3.5
972.0,82.3,87.2,81.3,83.6,3.2
973.5,82.6,88.7,81.2,84.2,4.0
975.0,83.2,88.2,80.4,83.9,3.9
976.5,83.9,87.9,81.5,84.4,3.2
978.0,82.3,89.1,82.9,84.7,3.8
979.5,83.7,89.5,82.0,85.1,4.0
981.0,83.7,90.9,80.2,84.9,5.4
982.5,84.1,88.2,82.3,84.9,3.0
984.0,83.8,89.4,80.6,84.6,4.5
985.5,84.6,89.5,79.8,84.7,4.8
987.0,84.4,88.1,80.7,84.4,3.7
988.5,84.9,89.4,81.2,85.2,4.1
990.0,85.9,88.7,80.1,84.9,4.4
991.5,84.7,89.6,80.8,85.1,4.4
993.0,84.9,88.8,81.9,85.2,3.5
994.5,85.9,88.9,82.3,85.7,3.3
996.0,85.1,89.3,80.7,85.0,4.3
997.5,84.8,88.9,81.7,85.1,3.6
999.0,85.4,89.1,80.9,85.2,4.1
1000.5,84.1,90.0,80.2,84.8,5.0
1002.0,86.0,88.6,79.9,84.8,4.5
1003.5,83.8,89.6,79.3,84.2,5.1
1005.0,83.2,89.1,78.6,83.6,5.2
1006.5,84.8,88.5,79.2,84.1,4.7
1008.0,83.7,88.7,79.3,83.9,4.7
1009.5,84.1,87.7,78.7,83.5,4.5
1011.0,83.6,88.7,78.3,83.6,5.2
1012.5,84.0,87.7,79.3,83.7,4.2
1014.0,84.3,87.8,78.4,83.5,4.7
1015.5,84.6,87.6,78.4,83.5,4.7
1017.0,84.5,87.9,78.1,83.5,5.0
1018.5,83.8,89.0,78.4,83.7,5.3
1020.0,85.3,87.9,78.7,84.0,4.7
1021.5,84.5,89.6,78.2,84.1,5.7
1023.0,84.5,90.1,77.4,84.0,6.3
1024.5,86.2,89.5,78.5,84.7,5.6
1026.0,86.5,89.1,78.8,84.8,5.3
1027.5,86.8,89.8,78.4,85.0,5.9
1029.0,87.5,89.1,78.0,84.9,6.0
1030.5,85.3,89.6,78.8,84.6,5.4
1032.0,87.2,88.9,79.3,85.1,5.1
1033.5,88.3,87.7,79.1,85.1,5.2
1035.0,88.9,89.5,78.6,85.6,6.1
1036.5,88.8,88.6,79.3,85.6,5.4
1038.0,87.1,88.8,80.3,85.4,4.5
1039.5,87.6,89.9,79.8,85.8,5.3
1041.0,87.1,89.1,79.6,85.3,5.0
1042.5,87.5,89.3,79.9,85.6,5.0
1044.0,88.1,90.0,80.2,86.1,5.2
1045.5,86.6,89.3,80.1,85.3,4.7
1047.0,88.0,90.3,78.8,85.7,6.1
1048.5,86.6,90.7,78.8,85.4,6.0
1050.0,87.6,89.9,78.9,85.5,5.8
1051.5,87.4,90.3,79.5,85.7,5.6
1053.0,88.7,88.9,79.8,85.8,5.2
1054.5,89.2,90.6,77.7,85.8,7.1
1056.0,89.7,89.5,79.1,86.1,6.0
1057.5,90.1,91.1,78.7,86.6,6.9
1059.0,91.0,87.9,77.7,85.5,7.0
1060.5,89.6,90.0,79.0,86.2,6.3
1062.0,89.3,89.4,77.8,85.5,6.6
1063.5,88.5,89.2,78.4,85.4,6.1
1065.0,89.1,89.9,77.3,85.5,7.1
1066.5,91.5,89.5,77.5,86.2,7.6
1068.0,90.9,90.0,78.2,86.4,7.1
1069.5,89.8,89.8,76.8,85.5,7.5
1071.0,89.8,92.5,77.5,86.6,8.0
1072.5,88.3,92.3,78.5,86.4,7.1
1074.0,89.2,91.5,77.2,86.0,7.7
1075.5,89.3,92.2,78.7,86.8,7.1
1077.0,90.5,90.2,77.4,86.0,7.5
1078.5,90.1,91.1,76.9,86.0,7.9
1080.0,90.3,91.4,76.9,86.2,8.0
1081.5,90.6,90.1,76.9,85.9,7.8
1083.0,89.9,92.2,77.3,86.5,8.0
1084.5,89.9,92.2,76.8,86.3,8.3
1086.0,89.3,90.4,77.1,85.6,7.4
1087.5,88.6,89.8,75.6,84.7,7.8
1089.0,90.6,89.6,76.3,85.5,8.0
1090.5,90.9,91.0,76.3,86.1,8.4
1092.0,89.4,92.3,75.6,85.8,8.9
1093.5,88.7,90.9,75.8,85.1,8.2
1095.0,90.1,91.9,76.1,86.0,8.6
1096.5,90.5,91.4,77.3,86.4,7.9
1098.0,90.0,91.6,75.8,85.8,8.7
1099.5,90.1,91.9,76.3,86.1,8.5
1101.0,90.8,91.9,76.4,86.4,8.6
1102.5,92.8,91.3,76.4,86.8,9.1
1104.0,93.1,90.1,76.0,86.4,9.2
1105.5,90.6,89.4,76.5,85.5,7.8
1107.0,92.5,89.9,76.6,86.3,8.5
1108.5,91.7,90.0,75.6,85.8,8.9
1110.0,92.3,90.5,76.1,86.3,8.9
1111.5,92.1,89.8,77.0,86.3,8.2
1113.0,93.5,91.7,74.0,86.4,10.8
1114.5,93.5,92.0,75.3,86.9,10.1
1116.0,92.8,91.5,75.2,86.5,9.8
1117.5,92.5,90.5,74.6,85.9,9.8
1119.0,93.4,90.5,74.8,86.2,10.0
1120.5,92.4,90.5,74.5,85.8,9.8
1122.0,92.7,91.0,75.1,86.3,9.7
1123.5,93.2,91.1,73.1,85.8,11.1
1125.0,91.4,91.3,74.0,85.6,10.0
1126.5,92.8,91.7,74.1,86.2,10.5
1128.0,92.5,92.4,74.9,86.6,10.1
1129.5,92.4,92.2,74.8,86.5,10.1
1131.0,92.1,91.7,75.1,86.3,9.7
1132.5,92.6,91.3,75.0,86.3,9.8
1134.0,92.1,91.8,74.9,86.3,9.8
1135.5,91.2,92.1,75.1,86.1,9.5
1137.0,91.3,91.2,74.0,85.5,10.0
1138.5,90.7,92.3,75.1,86.0,9.5
1140.0,91.6,92.0,76.0,86.5,9.2
1141.5,90.1,92.0,75.5,85.9,9.0
1143.0,91.8,91.7,76.3,86.6,9.0
1144.5,91.5,91.7,76.0,86.4,9.0
1146.0,89.9,93.0,75.2,86.0,9.5
1147.5,90.9,91.4,75.2,85.8,9.2
1149.0,92.3,94.2,74.5,87.0,10.9
1150.5,90.5,93.5,75.1,86.4,9.8
1152.0,91.2,92.0,75.2,86.1,9.5
1153.5,92.2,93.4,74.1,86.6,10.8
1155.0,90.8,93.0,73.6,85.8,10.6
1156.5,91.1,94.4,74.3,86.6,10.8
1158.0,90.3,93.2,73.6,85.7,10.6
1159.5,90.3,94.3,74.6,86.4,10.4
1161.0,92.0,94.3,74.4,86.9,10.9
1162.5,90.7,93.7,74.5,86.3,10.3
1164.0,91.7,95.3,74.5,87.2,11.1
1165.5,92.3,95.4,74.4,87.4,11.3
1167.0,91.5,96.1,73.9,87.1,11.7
1168.5,93.0,97.0,74.7,88.2,11.9
1170.0,92.7,96.6,75.2,88.2,11.4
1171.5,93.6,96.8,75.1,88.5,11.7
1173.0,92.6,95.9,74.9,87.8,11.3
1174.5,93.0,96.3,73.8,87.7,12.1
1176.0,92.1,95.6,74.2,87.3,11.5
1177.5,93.5,95.7,72.4,87.2,12.8
1179.0,91.7,95.0,73.9,86.9,11.3
1180.5,93.1,95.8,72.2,87.0,12.9
1182.0,92.1,95.9,73.3,87.1,12.1
1183.5,92.6,95.1,74.9,87.5,11.0
1185.0,91.1,95.6,75.9,87.5,10.3
1186.5,92.4,97.7,75.5,88.5,11.6
1188.0,92.7,97.6,76.2,88.8,11.2
1189.5,93.9,97.4,75.0,88.8,12.0
1191.0,92.4,96.8,77.1,88.8,10.3
1192.5,91.1,96.9,76.5,88.2,10.5
1194.0,93.5,97.5,75.7,88.9,11.6
1195.5,92.8,97.3,77.9,89.3,10.1
1197.0,92.8,97.1,77.3,89.1,10.4
1198.5,92.8,98.3,78.4,89.8,10.3
1200.0,93.5,96.9,78.1,89.5,10.0
1201.5,91.8,97.9,77.0,88.9,10.7
1203.0,92.9,98.7,76.5,89.4,11.5
1204.5,93.0,97.0,77.0,89.0,10.6
1206.0,94.8,97.3,77.6,89.9,10.7
1207.5,94.6,98.6,77.7,90.3,11.1
1209.0,94.0,96.1,76.5,88.9,10.8
1210.5,94.0,96.9,76.0,88.9,11.3
1212.0,95.6,98.0,76.0,89.9,12.1
1213.5,94.3,98.3,76.3,89.6,11.7
1215.0,94.6,99.5,77.5,90.5,11.6
1216.5,95.1,98.0,76.7,89.9,11.6
1218.0,93.2,99.1,75.9,89.4,12.1
1219.5,95.1,99.3,76.7,90.4,12.0
1221.0,96.2,97.4,76.6,90.1,11.7
1222.5,95.5,96.6,76.7,89.6,11.2
1224.0,95.9,98.4,76.8,90.3,11.8
1225.5,95.5,97.4,76.5,89.8,11.6
1227.0,97.7,100.4,76.3,91.5,13.2
1228.5,96.3,99.7,75.7,90.6,13.0
1230.0,96.4,98.8,75.4,90.2,12.8
1231.5,95.9,98.6,76.1,90.2,12.3
1233.0,96.9,100.7,74.4,90.7,14.2
1234.5,98.3,99.9,76.0,91.4,13.4
1236.0,97.7,99.9,76.4,91.4,13.0
1237.5,97.2,100.5,75.3,91.0,13.7
1239.0,99.6,100.6,75.7,92.0,14.1
1240.5,98.7,100.0,77.0,91.9,12.9
1242.0,99.5,102.2,76.2,92.7,14.3
1243.5,97.5,101.3,76.7,91.8,13.2
1245.0,99.9,99.2,76.9,92.0,13.0
1246.5,99.5,100.2,77.4,92.4,12.9
1248.0,100.7,100.2,78.6,93.2,12.7
1249.5,100.7,101.2,79.5,93.8,12.4
1251.0,100.1,100.9,80.4,93.8,11.6
1252.5,100.1,100.7,79.4,93.4,12.1
1254.0,101.1,100.3,79.5,93.6,12.2
1255.5,100.6,100.2,79.1,93.3,12.3
1257.0,101.1,101.5,79.5,94.0,12.6
1258.5,100.7,100.1,79.7,93.5,12.0
1260.0,102.7,100.6,79.7,94.4,12.7
1261.5,100.5,101.6,79.6,93.9,12.4
1263.0,102.7,102.7,79.8,95.1,13.2
1264.5,103.0,101.2,79.0,94.4,13.3
1266.0,101.9,100.0,79.0,93.7,12.7
1267.5,101.2,100.4,79.1,93.6,12.5
1269.0,102.5,100.1,79.2,93.9,12.8
1270.5,101.9,100.0,78.9,93.6,12.8
1272.0,105.0,101.4,77.7,94.7,14.8
1273.5,103.0,101.4,78.8,94.4,13.5
1275.0,102.6,100.8,77.8,93.7,13.8
1276.5,102.1,100.4,78.3,93.6,13.3
1278.0,104.8,100.8,78.4,94.7,14.2
1279.5,103.4,100.4,78.6,94.1,13.5
1281.0,104.4,100.0,79.4,94.6,13.3
1282.5,104.6,100.2,79.2,94.7,13.6
1284.0,104.9,101.6,79.3,95.3,13.9
1285.5,104.0,100.1,78.6,94.2,13.7
1287.0,104.1,101.4,79.1,94.9,13.7
1288.5,105.0,101.5,78.6,95.0,14.3
1290.0,104.4,103.5,79.8,95.9,14.0
1291.5,105.3,103.2,80.4,96.3,13.8
1293.0,102.6,104.0,80.0,95.5,13.5
1294.5,105.4,102.6,80.9,96.3,13.4
1296.0,106.2,104.1,79.5,96.6,14.8
1297.5,106.8,103.9,82.0,97.6,13.6
1299.0,106.8,103.5,81.4,97.3,13.8
1300.5,109.4,102.9,80.2,97.5,15.3
1302.0,107.2,104.0,80.6,97.3,14.5
1303.5,109.2,101.2,78.9,96.4,15.7
1305.0,108.0,100.8,79.7,96.2,14.7
1306.5,109.2,103.0,79.4,97.2,15.7
1308.0,108.1,102.0,79.6,96.6,15.0
1309.5,107.8,103.1,79.3,96.7,15.3
1311.0,107.5,102.8,78.9,96.4,15.3
1312.5,107.8,103.7,78.3,96.6,16.0
1314.0,106.5,103.4,78.8,96.2,15.2
1315.5,106.0,104.9,77.5,96.1,16.2
1317.0,106.1,104.4,78.5,96.3,15.5
1318.5,106.2,105.3,78.5,96.6,15.7
1320.0,105.9,104.5,78.6,96.3,15.4
1321.5,105.5,107.0,78.2,96.9,16.2
1323.0,106.7,104.0,78.6,96.4,15.5
1324.5,106.3,104.9,78.9,96.7,15.4
1326.0,107.1,107.4,78.7,97.7,16.4
1327.5,107.7,105.8,77.9,97.1,16.7
1329.0,106.6,104.9,79.3,96.9,15.3
1330.5,108.6,106.1,79.6,98.1,16.1
1332.0,107.4,106.0,79.9,97.8,15.5
1333.5,107.3,108.9,79.8,98.7,16.4
1335.0,106.5,108.7,79.8,98.3,16.1
1336.5,107.3,107.3,79.6,98.1,16.0
1338.0,107.4,109.2,79.8,98.8,16.5
1339.5,107.9,107.8,81.7,99.1,15.1
1341.0,107.5,106.7,81.0,98.4,15.1
1342.5,107.6,105.2,80.3,97.7,15.1
1344.0,106.8,107.0,80.2,98.0,15.4
1345.5,108.4,107.6,79.2,98.4,16.6
1347.0,107.6,108.7,79.2,98.5,16.7
1348.5,108.1,109.3,78.9,98.8,17.2
1350.0,109.1,108.4,79.3,98.9,17.0
1351.5,109.3,107.7,78.8,98.6,17.2
1353.0,110.8,107.1,80.1,99.3,16.7
1354.5,109.3,107.5,80.6,99.2,16.1
1356.0,108.7,107.5,80.1,98.7,16.2
1357.5,110.1,108.8,80.5,99.8,16.8
1359.0,111.5,109.9,81.5,101.0,16.9
1360.5,110.1,108.8,79.9,99.6,17.1
1362.0,110.6,110.5,82.0,101.0,16.5
1363.5,111.6,107.7,81.9,100.4,16.1
1365.0,111.3,110.6,82.2,101.3,16.6
1366.5,111.4,109.5,81.4,100.8,16.8
1368.0,111.1,110.4,81.0,100.8,17.2
1369.5,111.4,109.9,81.6,101.0,16.8
1371.0,110.9,110.5,81.9,101.1,16.7
1372.5,110.3,110.7,81.1,100.7,17.0
1374.0,111.2,110.8,79.9,100.6,17.9
1375.5,111.5,108.6,81.9,100.7,16.3
1377.0,113.4,110.1,81.8,101.8,17.3
1378.5,112.7,107.9,82.0,100.9,16.5
1380.0,113.7,110.0,81.7,101.8,17.5
1381.5,111.7,112.2,80.8,101.6,18.0
1383.0,113.9,111.9,79.9,101.9,19.1
1384.5,112.7,111.3,80.2,101.4,18.4
1386.0,114.6,111.9,80.9,102.5,18.8
1387.5,113.3,111.5,81.0,101.9,18.2
1389.0,115.5,112.3,80.1,102.6,19.6
1390.5,113.9,112.5,81.9,102.8,18.1
1392.0,115.5,112.7,82.3,103.5,18.4
1393.5,116.5,110.8,84.8,104.0,16.9
1395.0,113.4,111.6,82.8,102.6,17.2
1396.5,116.1,111.7,82.6,103.5,18.2
1398.0,115.9,112.3,82.1,103.4,18.6
1399.5,116.1,112.5,82.9,103.8,18.2
1401.0,118.1,113.5,83.8,105.1,18.6
1402.5,116.7,112.2,83.0,104.0,18.3
1404.0,116.7,114.0,82.5,104.4,19.0
1405.5,117.4,112.7,81.3,103.8,19.6
1407.0,119.1,113.5,82.2,104.9,19.9
1408.5,119.3,114.0,83.2,105.5,19.5
1410.0,120.1,114.4,82.8,105.8,20.1
1411.5,116.2,114.3,83.3,104.6,18.5
1413.0,119.1,113.7,83.1,105.3,19.4
1414.5,120.8,116.8,84.2,107.3,20.1
1416.0,120.8,113.8,85.3,106.7,18.8
1417.5,121.5,114.0,83.6,106.3,20.1
1419.0,121.1,114.4,85.3,106.9,19.1
1420.5,120.2,114.5,85.4,106.7,18.7
1422.0,121.5,114.4,84.3,106.7,19.8
1423.5,123.4,116.3,85.5,108.4,20.1
1425.0,124.8,115.7,83.8,108.1,21.5
1426.5,128.0,115.1,84.6,109.3,22.3
1428.0,126.3,115.4,86.1,109.3,20.8
1429.5,129.1,115.4,83.9,109.5,23.2
1431.0,128.7,114.3,84.7,109.2,22.4
1432.5,128.2,116.5,84.2,109.6,22.8
1434.0,127.0,119.2,83.2,109.8,23.4
1435.5,128.6,117.0,84.1,109.9,23.1
1437.0,129.4,118.0,83.6,110.3,23.9
1438.5,129.1,117.6,84.6,110.4,23.1
1440.0,130.0,116.0,83.7,109.9,23.8
1441.5,130.4,115.4,84.1,110.0,23.7
1443.0,129.0,116.3,83.5,109.6,23.5
1444.5,129.7,114.8,83.0,109.2,23.9
1446.0,129.5,115.5,83.1,109.4,23.8
1447.5,129.6,116.8,84.0,110.1,23.5
1449.0,133.1,118.1,82.7,111.3,25.9
1450.5,132.7,119.5,83.0,111.7,25.8
1452.0,130.8,120.3,83.6,111.5,24.8
1453.5,132.0,122.4,83.9,112.8,25.5
1455.0,132.0,121.3,82.8,112.0,25.9
1456.5,133.0,121.5,84.6,113.0,25.3
1458.0,132.2,121.7,84.7,112.9,25.0
1459.5,132.6,121.8,84.9,113.1,25.0
1461.0,132.4,121.2,86.2,113.3,24.1
1462.5,133.1,125.5,85.5,114.7,25.6
1464.0,136.0,123.1,85.7,114.9,26.1
1465.5,133.4,122.8,84.9,113.7,25.5
1467.0,134.0,124.3,84.5,114.3,26.3
1468.5,133.4,125.1,85.0,114.5,25.9
1470.0,134.5,124.9,86.4,115.3,25.4
1471.5,133.8,126.4,84.0,114.7,26.8
1473.0,135.0,125.2,83.5,114.6,27.4
1474.5,136.5,126.8,82.3,115.2,28.9
1476.0,135.4,125.9,82.8,114.7,28.0
1477.5,136.2,128.5,83.4,116.0,28.5
1479.0,135.7,126.8,83.1,115.2,28.2
1480.5,139.0,128.6,82.8,116.8,29.9
1482.0,136.9,127.1,83.1,115.7,28.6
1483.5,137.9,126.4,82.1,115.5,29.5
1485.0,139.5,128.2,81.9,116.5,30.5
1486.5,139.8,127.0,81.9,116.2,30.4
1488.0,141.9,128.4,82.9,117.7,30.9
1489.5,139.8,127.3,82.7,116.6,30.0
1491.0,140.5,128.5,81.5,116.8,31.2
1492.5,144.1,126.1,83.7,118.0,31.0
1494.0,143.5,127.5,83.4,118.1,31.2
1495.5,143.1,126.4,84.0,117.8,30.4
1497.0,143.1,128.7,85.4,119.1,30.0
1498.5,145.6,128.5,83.4,119.2,32.1
1500.0,144.1,128.3,83.9,118.8,31.2
1501.5,141.8,130.9,84.5,119.1,30.4
1503.0,146.9,130.7,83.8,120.5,32.8
1504.5,149.1,130.4,85.1,121.5,32.9
1506.0,146.0,131.3,83.3,120.2,32.8
1507.5,148.3,132.9,82.3,121.2,34.5
1509.0,145.2,130.6,82.4,119.4,32.8
1510.5,149.6,132.3,83.9,121.9,34.1
1512.0,147.6,133.4,85.1,122.0,32.7
1513.5,147.7,131.6,85.0,121.4,32.6
1515.0,147.2,131.9,86.0,121.7,31.9
1516.5,148.2,132.6,85.8,122.2,32.5
1518.0,148.7,132.0,86.1,122.3,32.4
1519.5,150.9,132.5,85.9,123.1,33.5
1521.0,151.2,135.2,85.8,124.1,34.1
1522.5,152.6,135.3,85.3,124.4,34.9
1524.0,152.8,132.4,87.2,124.1,33.6
1525.5,153.7,133.6,86.2,124.5,34.7
1527.0,152.8,135.0,87.2,125.0,33.9
1528.5,152.8,134.9,85.9,124.5,34.6
1530.0,152.8,135.0,86.5,124.8,34.3
1531.5,157.4,136.3,87.0,126.9,36.1
1533.0,152.1,135.4,85.9,124.5,34.5
1534.5,155.0,134.9,86.4,125.4,35.3
1536.0,154.0,134.7,86.7,125.1,34.7
1537.5,154.8,138.2,86.6,126.5,35.6
1539.0,155.3,135.5,85.4,125.4,36.0
1540.5,156.0,137.4,85.1,126.1,36.7
1542.0,158.9,135.9,86.0,126.9,37.2
1543.5,156.4,136.3,86.5,126.4,36.0
1545.0,160.2,137.4,86.7,128.1,37.6
1546.5,157.0,138.9,85.3,127.1,37.3
1548.0,158.4,137.7,87.6,127.9,36.4
1549.5,156.1,138.5,86.9,127.2,36.0
1551.0,157.2,139.5,88.2,128.3,35.9
1552.5,156.0,139.3,86.2,127.2,36.4
1554.0,158.6,138.7,87.5,128.3,36.7
1555.5,156.5,137.0,87.3,126.9,35.7
1557.0,158.6,138.5,85.5,127.5,37.8
1558.5,155.7,140.8,87.6,128.0,35.8
1560.0,161.3,138.3,87.3,129.0,37.9
1561.5,155.9,137.8,86.9,126.9,35.8
1563.0,156.8,138.4,88.7,128.0,35.2
1564.5,157.4,139.9,88.4,128.6,35.9
1566.0,155.5,138.5,88.7,127.5,34.7
1567.5,158.4,138.6,89.4,128.8,35.5
1569.0,158.5,138.7,90.2,129.1,35.2
1570.5,158.1,143.7,89.8,130.6,36.0
1572.0,160.1,143.0,90.1,131.1,36.5
1573.5,159.0,141.8,89.7,130.1,36.1
1575.0,159.8,144.2,89.1,131.0,37.1
1576.5,158.1,144.6,89.6,130.8,36.3
1578.0,159.1,144.0,88.7,130.6,37.1
1579.5,162.4,143.9,88.6,131.6,38.4
1581.0,156.3,144.2,88.2,129.5,36.3
1582.5,158.4,145.3,91.3,131.7,35.6
1584.0,157.8,148.3,91.7,132.6,35.8
1585.5,160.1,144.3,89.7,131.4,36.9
1587.0,156.7,146.2,90.0,131.0,35.9
1588.5,156.6,149.6,90.1,132.1,36.5
1590.0,155.8,148.5,91.1,131.8,35.4
1591.5,154.0,149.6,91.5,131.7,34.9
1593.0,156.3,147.7,91.0,131.7,35.5
1594.5,154.5,147.9,90.3,130.9,35.3
1596.0,153.6,151.9,89.4,131.7,36.6
1597.5,152.8,149.6,89.7,130.7,35.5
1599.0,150.1,149.3,90.3,129.9,34.3
1600.5,150.2,153.3,89.8,131.1,35.8
1602.0,146.1,153.5,89.8,129.8,34.8
1603.5,146.7,154.2,91.0,130.7,34.5
1605.0,143.9,155.0,91.4,130.1,33.9
1606.5,146.7,158.0,90.7,131.8,36.1
1608.0,142.2,155.5,91.1,129.6,34.0
1609.5,144.0,155.5,90.9,130.1,34.4
1611.0,141.2,155.0,90.9,129.0,33.7
1612.5,141.2,158.9,92.3,130.8,34.5
1614.0,138.4,160.7,91.7,130.3,35.2
1615.5,136.6,159.8,92.2,129.5,34.4
1617.0,135.1,157.1,90.3,127.5,34.0
1618.5,133.3,160.0,91.9,128.4,34.3
1620.0,131.5,157.8,91.6,126.9,33.3
1621.5,130.6,158.5,91.5,126.9,33.6
1623.0,129.6,159.1,93.3,127.3,32.9
1624.5,128.5,159.4,91.0,126.3,34.3
1626.0,126.0,158.9,93.1,126.0,32.9
1627.5,123.8,158.9,91.8,124.8,33.5
1629.0,123.1,157.3,92.5,124.3,32.4
1630.5,123.5,159.5,91.6,124.9,34.0
1632.0,122.0,157.9,92.1,124.0,32.9
1633.5,123.0,157.2,95.1,125.1,31.1
1635.0,121.4,157.5,94.1,124.3,31.8
1636.5,120.4,158.9,95.4,124.9,32.0
1638.0,120.9,159.6,93.7,124.7,33.1
1639.5,118.1,157.4,93.7,123.1,32.2
1641.0,116.7,157.3,95.1,123.0,31.6
1642.5,116.7,156.0,93.1,121.9,31.8
1644.0,116.0,156.5,94.1,122.2,31.7
1645.5,113.6,154.7,92.4,120.2,31.7
1647.0,112.2,159.0,95.0,122.1,33.1
1648.5,109.9,156.5,95.5,120.6,31.9
1650.0,110.5,154.9,94.7,120.0,31.3
1651.5,108.6,154.1,93.1,118.6,31.7
1653.0,107.3,153.7,93.7,118.2,31.5
1654.5,106.2,151.2,94.0,117.1,30.1
1656.0,106.5,155.7,93.7,118.6,32.7
1657.5,104.4,156.3,94.2,118.3,33.3
1659.0,104.1,152.7,95.1,117.3,31.0
1660.5,100.6,152.9,93.8,115.7,32.3
1662.0,101.9,151.2,94.1,115.8,30.9
1663.5,100.1,151.1,94.0,115.1,31.4
1665.0,97.9,153.5,94.8,115.4,33.0
1666.5,98.6,149.2,93.1,113.7,30.9
1668.0,95.1,149.2,94.3,112.9,31.5
1669.5,95.1,151.2,94.0,113.4,32.7
1671.0,92.9,149.6,95.0,112.5,32.1
1672.5,93.3,147.2,95.0,111.9,30.6
1674.0,93.2,149.3,95.3,112.6,31.8
1675.5,92.1,145.2,95.3,110.9,29.7
1677.0,90.8,147.2,96.2,111.4,31.1
1678.5,90.0,147.2,97.4,111.6,31.1
1680.0,88.9,145.1,95.5,109.8,30.7
1681.5,88.6,147.9,96.5,111.0,32.2
1683.0,88.8,143.3,96.5,109.6,29.5
1684.5,87.6,145.6,96.0,109.7,31.3
1686.0,87.2,141.8,96.7,108.6,29.2
1687.5,87.1,142.1,98.8,109.3,29.0
1689.0,88.4,143.6,97.2,109.8,29.7
1690.5,87.3,140.9,99.3,109.2,28.2
1692.0,86.5,140.8,99.6,109.0,28.4
1693.5,86.6,140.3,98.5,108.5,28.2
1695.0,87.2,139.5,100.3,109.0,27.2
1696.5,86.2,143.2,99.0,109.5,29.9
1698.0,84.7,140.4,100.6,108.6,28.7
1699.5,84.3,142.6,99.4,108.8,30.3
1701.0,84.9,140.7,98.6,108.1,29.1
1702.5,84.0,141.1,98.7,107.9,29.6
1704.0,83.8,140.6,99.7,108.0,29.3
1705.5,85.2,137.5,99.4,107.4,27.1
1707.0,83.6,140.1,99.3,107.7,29.2
1708.5,82.8,139.9,100.5,107.7,29.2
1710.0,83.6,135.1,98.5,105.7,26.5
1711.5,83.8,137.2,100.8,107.3,27.3
1713.0,81.0,137.0,99.0,105.7,28.6
1714.5,80.4,136.7,100.8,106.0,28.5
1716.0,79.9,136.3,98.9,105.1,28.7
1717.5,80.2,134.2,100.1,104.9,27.3
1719.0,77.8,133.2,101.6,104.2,27.8
1720.5,77.7,133.7,102.1,104.5,28.0
1722.0,78.9,132.7,101.2,104.3,27.0
1723.5,78.4,131.0,100.8,103.4,26.4
1725.0,77.3,132.0,101.9,103.8,27.4
1726.5,76.3,129.8,101.1,102.4,26.8
1728.0,75.4,130.1,103.9,103.1,27.4
1729.5,74.5,128.9,102.4,101.9,27.2
1731.0,75.0,129.2,102.9,102.4,27.1
1732.5,73.2,129.3,102.9,101.8,28.1
1734.0,72.0,125.4,103.6,100.3,26.9
1735.5,72.2,127.1,102.7,100.7,27.5
1737.0,71.5,125.6,102.3,99.8,27.1
1738.5,70.5,122.2,103.1,98.6,26.1
1740.0,70.3,125.2,102.2,99.2,27.6
1741.5,69.6,122.8,102.8,98.4,26.9
1743.0,69.7,122.4,104.2,98.8,26.8
1744.5,68.5,118.2,102.9,96.6,25.4
1746.0,68.5,119.1,103.4,97.0,25.9
1747.5,68.8,118.2,103.3,96.8,25.4
1749.0,69.4,119.1,103.9,97.5,25.4
1750.5,69.3,115.8,103.4,96.2,24.1
1752.0,68.7,115.9,105.0,96.5,24.7
1753.5,68.9,115.9,106.3,97.1,24.8
1755.0,67.9,114.2,105.5,95.8,24.6
1756.5,69.5,113.2,108.5,97.1,24.0
1758.0,67.2,110.6,109.1,95.6,24.6
1759.5,68.7,108.8,108.2,95.2,23.0
1761.0,66.9,107.8,108.0,94.2,23.6
1762.5,69.2,107.1,106.6,94.3,21.7
1764.0,67.9,107.1,108.2,94.4,22.9
1765.5,67.5,103.5,105.6,92.2,21.4
1767.0,67.7,103.1,108.1,93.0,22.1
1768.5,67.6,102.4,106.9,92.3,21.5
1770.0,66.7,100.9,108.1,91.9,22.1
1771.5,66.4,98.4,107.4,90.7,21.5
1773.0,67.2,97.8,109.9,91.6,22.0
1774.5,67.3,97.8,110.8,91.9,22.3
1776.0,67.4,96.4,110.0,91.3,21.7
1777.5,66.8,95.5,108.8,90.4,21.5
1779.0,67.2,94.7,109.7,90.5,21.5
1780.5,67.1,95.6,108.8,90.5,21.3
1782.0,66.8,93.9,108.5,89.7,21.2
1783.5,67.3,93.0,108.7,89.7,20.9
1785.0,66.8,91.8,110.0,89.5,21.7
1786.5,66.1,91.4,108.6,88.7,21.4
1788.0,66.8,92.5,108.8,89.4,21.2
1789.5,65.4,90.6,109.7,88.6,22.2
1791.0,65.5,89.6,110.3,88.5,22.4
1792.5,64.0,88.7,110.5,87.7,23.3
1794.0,63.5,89.7,111.0,88.1,23.8
1795.5,63.8,88.3,109.7,87.2,23.0
1797.0,62.7,90.6,110.5,88.0,24.0
1798.5,62.6,87.8,109.3,86.6,23.4
1800.0,62.6,88.6,109.8,87.0,23.6
1801.5,62.6,86.9,111.7,87.1,24.5
1803.0,62.5,87.1,110.6,86.7,24.0
1804.5,63.7,86.0,111.5,87.1,23.9
1806.0,63.1,86.2,109.8,86.4,23.3
1807.5,62.9,85.7,110.1,86.2,23.6
1809.0,63.0,85.0,111.1,86.3,24.1
1810.5,63.5,85.4,110.3,86.4,23.4
1812.0,63.2,84.9,111.5,86.5,24.2
1813.5,62.7,83.9,112.4,86.3,24.9
1815.0,61.6,82.7,112.6,85.6,25.6
1816.5,62.2,84.2,112.1,86.2,25.0
1818.0,62.4,82.9,113.2,86.2,25.6
1819.5,60.7,82.2,112.4,85.1,26.0
1821.0,61.0,81.7,117.3,86.7,28.4
1822.5,61.1,82.4,116.7,86.7,28.1
1824.0,61.9,82.8,114.6,86.4,26.6
1825.5,61.3,81.9,117.0,86.7,28.2
1827.0,60.6,84.1,116.2,87.0,27.9
1828.5,60.3,83.7,114.5,86.2,27.2
1830.0,61.0,82.5,115.4,86.3,27.4
1831.5,60.6,82.2,115.1,86.0,27.5
1833.0,60.7,80.6,115.8,85.7,27.9
1834.5,60.2,79.8,116.3,85.4,28.5
1836.0,61.6,79.9,116.4,86.0,27.9
1837.5,60.1,79.7,116.5,85.4,28.6
1839.0,60.2,78.5,117.3,85.3,29.2
1840.5,60.8,79.6,116.9,85.8,28.5
1842.0,61.3,77.2,116.3,84.9,28.3
1843.5,61.0,77.7,116.4,85.0,28.4
1845.0,60.7,77.2,116.7,84.9,28.8
1846.5,60.3,78.2,116.1,84.9,28.5
1848.0,60.0,77.1,116.3,84.5,28.9
1849.5,59.4,78.8,117.7,85.3,29.7
1851.0,59.3,78.3,117.3,85.0,29.6
1852.5,59.7,77.1,117.4,84.7,29.6
1854.0,59.5,77.1,116.2,84.3,29.0
1855.5,59.4,77.6,118.0,85.0,30.0
1857.0,58.2,78.0,116.5,84.3,29.6
1858.5,58.5,77.2,118.4,84.7,30.7
1860.0,58.0,77.4,117.6,84.3,30.4
1861.5,58.8,78.1,118.5,85.1,30.5
1863.0,59.5,76.8,120.4,85.6,31.4
1864.5,59.1,76.8,119.8,85.2,31.3
1866.0,60.0,75.6,120.3,85.3,31.4
1867.5,59.8,73.7,119.9,84.4,31.5
1869.0,59.9,74.9,122.4,85.7,32.6
1870.5,60.4,74.7,124.0,86.4,33.4
1872.0,59.5,74.2,120.1,84.6,31.7
1873.5,60.0,73.6,120.8,84.8,31.9
1875.0,60.7,74.4,122.1,85.7,32.2
1876.5,59.3,74.5,121.7,85.2,32.5
1878.0,59.2,73.1,121.8,84.7,32.9
1879.5,58.4,73.5,124.8,85.5,34.8
1881.0,58.3,72.4,123.6,84.7,34.4
1882.5,58.8,74.0,124.6,85.8,34.5
1884.0,58.1,73.0,124.2,85.1,34.7
1885.5,57.3,72.4,122.9,84.2,34.4
1887.0,57.5,72.2,123.0,84.2,34.4
1888.5,57.8,71.5,123.6,84.3,34.7
1890.0,58.6,71.6,122.6,84.3,33.8
1891.5,58.2,70.8,121.9,83.6,33.7
1893.0,58.4,72.5,123.4,84.8,34.2
1894.5,58.6,70.9,124.3,84.6,34.9
1896.0,58.7,70.0,123.6,84.1,34.7
1897.5,58.9,70.6,123.3,84.3,34.3
1899.0,58.2,69.9,124.6,84.2,35.4
1900.5,58.7,68.3,125.0,84.0,35.8
1902.0,58.1,68.7,125.3,84.0,36.1
1903.5,58.0,70.1,124.5,84.2,35.4
1905.0,57.1,69.7,127.0,84.6,37.2
1906.5,57.2,71.8,124.6,84.5,35.5
1908.0,58.2,71.2,125.5,85.0,35.7
1909.5,58.1,72.8,124.9,85.3,35.1
1909.75,57.8,72.0,126.8,85.6,36.4