File: 01_Data/Wood_Stud/Cone/Wood_Stud_HRRPUA_50.csv
Time after Ignition,Wood_Stud_R1,Wood_Stud_R2,Wood_Stud_R3,Mean,Std. Dev.
0.0,25.6,25.7,25.4,25.6,0.2
1.75,84.6,71.6,63.6,73.2,10.6
3.5,132.3,131.7,115.9,126.6,9.3
5.25,183.5,199.4,175.6,186.2,12.1
7.0,237.2,250.2,215.2,234.2,17.7
8.75,273.3,280.3,239.5,264.4,21.8
10.5,276.8,294.3,249.3,273.5,22.7
12.25,272.3,293.5,242.2,269.3,25.8
14.0,266.1,286.4,234.3,262.3,26.3
15.75,249.0,256.7,228.7,244.8,14.5
17.5,234.6,242.3,212.9,229.9,15.3
19.25,225.2,228.6,204.5,219.4,13.0
21.0,217.3,219.9,196.1,211.1,13.1
22.75,209.4,210.6,184.7,201.6,14.6
24.5,200.6,200.0,183.2,194.6,9.9
26.25,193.6,196.8,178.2,189.5,9.9
28.0,190.2,193.1,171.2,184.8,11.9
29.75,185.4,190.5,165.4,180.4,13.3
31.5,179.2,189.2,162.7,177.0,13.4
33.25,179.3,184.5,162.6,175.5,11.4
35.0,176.3,180.5,160.5,172.4,10.6
36.75,176.0,179.8,157.3,171.0,12.0
38.5,170.0,175.9,158.1,168.0,9.1
40.25,164.6,174.8,156.0,165.2,9.4
42.0,163.4,170.8,153.2,162.5,8.8
43.75,163.0,170.8,153.3,162.4,8.7
45.5,158.1,168.9,150.4,159.1,9.3
47.25,153.3,167.0,148.4,156.2,9.7
49.0,156.7,166.6,144.5,155.9,11.1
50.75,155.2,158.9,146.7,153.6,6.3
52.5,154.0,156.1,144.7,151.6,6.1
54.25,153.0,156.2,143.2,150.8,6.7
56.0,151.1,153.7,142.0,148.9,6.2
57.75,149.1,154.6,140.3,148.0,7.2
59.5,143.9,154.1,139.1,145.7,7.7
61.25,141.8,152.1,136.8,143.6,7.8
63.0,140.8,149.9,136.6,142.4,6.8
64.75,137.9,149.5,135.5,140.9,7.5
66.5,136.7,146.6,134.2,139.2,6.6
68.25,137.4,146.1,132.2,138.6,7.0
70.0,135.2,144.0,129.0,136.1,7.6
71.75,133.9,141.4,130.2,135.1,5.7
73.5,133.6,142.3,129.8,135.2,6.4
75.25,128.4,141.5,128.0,132.6,7.7
77.0,125.9,138.2,126.7,130.3,6.9
78.75,126.2,139.0,126.2,130.5,7.4
80.5,126.6,138.2,124.4,129.7,7.4
82.25,125.1,135.4,122.8,127.8,6.8
84.0,126.0,135.1,121.3,127.5,7.0
85.75,123.0,135.3,121.6,126.6,7.5
87.5,122.7,133.6,118.8,125.1,7.6
89.25,121.8,132.7,119.0,124.5,7.2
91.0,122.8,132.7,116.3,123.9,8.2
92.75,121.6,130.2,115.9,122.6,7.2
94.5,118.5,131.4,117.2,122.4,7.9
96.25,120.9,127.0,114.0,120.6,6.5
98.0,118.7,128.5,114.4,120.5,7.2
99.75,118.5,127.4,111.1,119.0,8.2
101.5,119.2,124.3,111.6,118.4,6.4
103.25,116.4,123.6,111.1,117.0,6.3
105.0,116.8,123.8,109.4,116.7,7.2
106.75,116.5,123.1,111.1,116.9,6.0
108.5,116.5,121.7,108.6,115.6,6.6
110.25,116.5,118.9,109.5,114.9,4.9
112.0,114.5,120.5,107.4,114.1,6.5
113.75,115.7,118.9,104.9,113.1,7.3
115.5,114.8,119.4,104.6,112.9,7.6
117.25,113.5,118.2,104.0,111.9,7.3
119.0,113.8,120.4,104.3,112.8,8.1
120.75,111.3,119.5,103.5,111.4,8.0
122.5,110.8,121.1,104.4,112.1,8.4
124.25,110.7,119.5,104.3,111.5,7.6
126.0,108.9,120.9,101.6,110.5,9.7
127.75,110.4,119.7,101.3,110.5,9.2
129.5,113.1,118.7,101.5,111.1,8.7
131.25,111.7,118.2,102.0,110.7,8.2
133.0,114.7,117.2,101.5,111.1,8.4
134.75,111.3,115.7,100.2,109.0,8.0
136.5,115.0,116.1,98.8,109.9,9.7
138.25,113.1,114.4,98.3,108.6,9.0
140.0,112.1,116.4,98.4,109.0,9.4
141.75,109.1,115.3,97.8,107.4,8.9
143.5,111.7,114.9,95.8,107.5,10.2
145.25,111.2,114.4,95.5,107.0,10.1
147.0,111.9,112.2,96.5,106.8,9.0
148.75,109.8,114.9,94.2,106.3,10.8
150.5,109.3,113.1,95.7,106.1,9.2
152.25,108.8,114.4,93.4,105.5,10.9
154.0,107.2,112.5,92.8,104.2,10.2
155.75,107.7,113.2,94.1,105.0,9.8
157.5,108.1,113.3,93.1,104.8,10.5
159.25,106.9,112.0,92.0,103.6,10.4
161.0,107.7,110.9,92.5,103.7,9.8
162.75,107.3,111.2,93.1,103.9,9.5
164.5,107.4,112.3,92.5,104.1,10.3
166.25,106.6,111.4,90.5,102.8,10.9
168.0,105.6,111.5,91.8,103.0,10.1
169.75,105.3,113.2,90.8,103.1,11.4
171.5,104.3,113.8,90.5,102.9,11.7
173.25,104.2,112.2,90.0,102.1,11.3
175.0,103.3,111.6,88.8,101.2,11.5
176.75,102.2,111.9,90.3,101.5,10.8
178.5,101.7,111.7,90.8,101.4,10.5
180.25,101.8,111.7,88.4,100.6,11.7
182.0,101.8,111.8,88.4,100.7,11.7
183.75,100.5,112.1,89.4,100.6,11.3
185.5,99.9,110.5,88.7,99.7,10.9
187.25,100.1,111.0,87.0,99.3,12.0
189.0,100.6,108.0,87.2,98.6,10.5
190.75,101.6,106.4,88.9,99.0,9.0
192.5,104.0,107.4,89.7,100.4,9.4
194.25,99.6,107.5,88.8,98.6,9.4
196.0,100.8,108.7,87.7,99.1,10.6
197.75,101.1,105.7,89.0,98.6,8.7
199.5,100.3,104.9,89.5,98.2,7.9
201.25,101.7,104.0,89.1,98.3,8.0
203.0,101.9,104.4,88.6,98.3,8.5
204.75,101.7,104.8,88.6,98.4,8.6
206.5,101.6,103.6,87.6,97.6,8.7
208.25,101.5,103.0,88.0,97.5,8.2
210.0,101.3,105.4,87.1,98.0,9.6
211.75,103.6,105.2,86.6,98.4,10.3
213.5,104.3,104.2,87.3,98.6,9.8
215.25,104.9,104.9,88.9,99.5,9.2
217.0,103.3,103.8,87.1,98.1,9.5
218.75,104.0,105.9,87.6,99.2,10.1
220.5,103.4,103.5,86.7,97.9,9.7
222.25,104.7,103.5,87.9,98.7,9.4
224.0,104.6,103.2,86.9,98.2,9.9
225.75,105.1,106.0,87.8,99.7,10.3
227.5,104.0,102.5,88.4,98.3,8.6
229.25,104.4,103.6,89.9,99.3,8.2
231.0,104.1,103.2,88.4,98.6,8.8
232.75,106.3,104.4,87.9,99.5,10.1
234.5,103.9,101.0,88.3,97.7,8.3
236.25,104.6,101.2,87.0,97.6,9.4
238.0,104.0,102.5,87.6,98.0,9.0
239.75,103.5,101.7,87.8,97.7,8.6
241.5,102.1,102.7,87.8,97.5,8.4
243.25,101.8,102.0,89.3,97.7,7.3
245.0,102.2,101.7,90.3,98.1,6.7
246.75,99.8,100.6,87.9,96.1,7.1
248.5,101.5,101.7,87.5,96.9,8.1
250.25,99.8,100.5,87.1,95.8,7.5
252.0,101.3,100.6,86.4,96.1,8.4
253.75,100.5,99.7,88.0,96.0,7.0
255.5,100.5,98.5,86.2,95.0,7.7
257.25,99.4,99.5,87.3,95.4,7.0
259.0,97.8,98.1,86.1,94.0,6.8
260.75,97.7,100.3,86.4,94.8,7.4
262.5,98.1,99.3,87.6,95.0,6.4
264.25,99.3,99.2,86.8,95.1,7.2
266.0,97.4,96.6,86.4,93.4,6.2
267.75,96.0,97.6,87.2,93.6,5.6
269.5,96.4,97.4,87.0,93.6,5.7
271.25,94.5,98.0,87.5,93.3,5.3
273.0,95.2,97.8,89.0,94.0,4.5
274.75,95.3,97.9,86.2,93.2,6.2
276.5,96.8,97.8,86.3,93.6,6.3
278.25,94.9,100.6,85.3,93.6,7.8
280.0,97.8,96.9,84.8,93.2,7.3
281.75,96.3,98.4,86.4,93.7,6.4
283.5,95.5,98.0,86.9,93.5,5.9
285.25,95.7,96.5,84.5,92.2,6.7
287.0,96.6,97.2,85.8,93.2,6.4
288.75,98.2,95.9,85.2,93.1,6.9
290.5,97.0,97.1,86.1,93.4,6.3
292.25,96.1,96.6,83.9,92.2,7.2
294.0,96.7,95.9,86.4,93.0,5.8
295.75,97.5,96.4,86.5,93.5,6.1
297.5,96.8,97.1,86.2,93.4,6.2
299.25,96.1,96.0,86.9,93.0,5.3
301.0,97.2,95.0,85.1,92.4,6.5
302.75,100.0,96.2,84.0,93.4,8.4
304.5,98.0,95.7,85.2,92.9,6.8
306.25,96.3,95.1,85.6,92.3,5.8
308.0,97.2,95.1,85.5,92.6,6.3
309.75,97.7,94.1,84.5,92.1,6.8
311.5,98.2,93.3,83.5,91.7,7.5
313.25,97.0,94.1,85.6,92.2,5.9
315.0,96.5,93.8,85.4,91.9,5.8
316.75,96.8,94.4,83.3,91.5,7.2
318.5,95.5,93.9,83.2,90.9,6.7
320.25,97.3,93.6,83.3,91.4,7.2
322.0,97.8,94.4,84.0,92.1,7.2
323.75,97.3,94.5,81.4,91.1,8.5
325.5,98.4,94.4,83.1,92.0,7.9
327.25,97.9,93.8,83.2,91.6,7.6
329.0,96.5,92.1,82.5,90.4,7.1
330.75,98.3,91.8,84.0,91.3,7.2
332.5,97.3,91.3,86.6,91.7,5.3
334.25,96.8,90.0,83.7,90.2,6.6
336.0,95.7,91.0,83.1,89.9,6.4
337.75,98.4,91.1,83.7,91.0,7.4
339.5,97.1,90.5,84.0,90.5,6.6
341.25,96.6,90.4,83.6,90.2,6.5
343.0,96.5,88.9,83.9,89.8,6.4
344.75,95.8,90.6,84.4,90.3,5.7
346.5,95.9,90.3,83.5,89.9,6.2
348.25,95.5,90.9,84.0,90.1,5.8
350.0,95.4,92.2,83.5,90.3,6.2
351.75,94.8,91.8,82.9,89.8,6.2
353.5,97.3,91.0,82.9,90.4,7.2
355.25,96.0,90.2,82.4,89.5,6.8
357.0,94.9,92.8,84.6,90.8,5.4
358.75,94.0,92.6,82.9,89.8,6.1
360.5,94.4,91.9,82.2,89.5,6.4
362.25,95.6,91.9,81.9,89.8,7.1
364.0,94.2,92.3,82.6,89.7,6.2
365.75,92.8,92.4,82.2,89.1,6.0
367.5,94.4,92.1,82.4,89.7,6.4
369.25,93.9,93.0,83.0,89.9,6.0
371.0,93.6,92.1,83.0,89.6,5.8
372.75,94.0,93.4,83.7,90.4,5.8
374.5,94.8,93.0,84.6,90.8,5.5
376.25,95.3,92.8,84.1,90.7,5.9
378.0,94.5,92.3,84.3,90.4,5.3
379.75,94.6,93.0,84.4,90.7,5.5
381.5,93.3,93.6,84.1,90.3,5.4
383.25,94.2,92.2,84.4,90.3,5.2
385.0,95.0,93.6,83.8,90.8,6.1
386.75,95.5,94.3,83.8,91.2,6.4
388.5,95.4,94.4,83.9,91.2,6.4
390.25,96.5,93.7,83.5,91.2,6.8
392.0,95.7,94.3,83.2,91.1,6.9
393.75,95.0,95.2,82.3,90.8,7.4
395.5,94.5,94.9,84.2,91.2,6.1
397.25,94.3,93.1,84.4,90.6,5.4
399.0,94.8,94.2,84.2,91.1,5.9
400.75,95.0,93.0,84.7,90.9,5.4
402.5,94.8,94.7,84.6,91.4,5.8
404.25,95.5,94.1,84.0,91.2,6.2
406.0,95.1,94.6,84.8,91.5,5.8
407.75,95.4,93.0,85.1,91.2,5.4
409.5,95.5,94.5,85.5,91.8,5.5
411.25,95.1,93.4,85.5,91.3,5.1
413.0,94.0,94.6,83.8,90.8,6.0
414.75,96.0,95.0,82.5,91.2,7.5
416.5,95.7,94.6,84.2,91.5,6.4
418.25,94.8,94.7,84.4,91.3,6.0
420.0,95.5,94.3,83.9,91.2,6.4
421.75,93.2,93.2,85.4,90.6,4.5
423.5,95.6,92.6,83.8,90.7,6.2
425.25,94.2,93.9,83.9,90.7,5.9
427.0,94.3,93.0,84.7,90.7,5.2
428.75,94.4,94.2,83.6,90.7,6.2
430.5,95.6,92.7,85.3,91.2,5.3
432.25,93.9,97.1,85.1,92.1,6.2
434.0,96.4,93.4,86.8,92.2,4.9
435.75,95.2,94.2,86.6,92.0,4.7
437.5,95.7,91.8,85.2,90.9,5.3
439.25,95.9,92.8,84.4,91.0,5.9
441.0,95.4,92.9,85.1,91.2,5.4
442.75,94.7,92.4,85.7,90.9,4.7
444.5,93.6,94.2,84.6,90.8,5.4
446.25,94.3,92.4,85.5,90.7,4.7
448.0,93.3,91.9,84.9,90.1,4.5
449.75,92.7,93.0,84.4,90.0,4.9
451.5,93.7,92.1,84.3,90.0,5.0
453.25,92.5,91.3,86.4,90.1,3.2
455.0,92.6,91.5,84.6,89.6,4.4
456.75,91.6,91.7,83.9,89.0,4.5
458.5,92.5,92.8,84.4,89.9,4.8
460.25,92.0,91.6,84.7,89.4,4.1
462.0,92.6,90.8,84.8,89.4,4.1
463.75,92.6,91.7,84.4,89.6,4.5
465.5,93.8,91.0,84.6,89.8,4.7
467.25,93.2,91.5,85.4,90.0,4.1
469.0,93.7,90.4,85.8,90.0,4.0
470.75,93.3,91.6,85.5,90.1,4.1
472.5,93.3,90.6,84.9,89.6,4.3
474.25,93.2,90.9,83.8,89.3,4.9
476.0,95.0,91.3,84.5,90.3,5.3
477.75,94.6,90.3,84.8,89.9,4.9
479.5,93.6,90.1,85.5,89.7,4.1
481.25,91.9,92.7,84.0,89.5,4.8
483.0,91.8,91.0,83.9,88.9,4.4
484.75,91.7,91.5,84.4,89.2,4.2
486.5,90.4,91.3,83.7,88.5,4.2
488.25,92.4,90.2,82.9,88.5,5.0
490.0,92.7,90.6,83.3,88.8,5.0
491.75,92.3,90.8,83.8,89.0,4.5
493.5,92.9,91.0,82.3,88.8,5.7
495.25,92.1,90.9,83.5,88.8,4.7
497.0,91.6,91.4,81.8,88.3,5.6
498.75,91.7,90.6,81.3,87.9,5.7
500.5,93.3,91.1,80.4,88.3,6.9
502.25,91.1,91.1,80.8,87.7,5.9
504.0,92.0,91.5,81.9,88.5,5.7
505.75,91.2,90.4,81.4,87.7,5.5
507.5,91.2,90.9,82.1,88.1,5.2
509.25,91.7,90.5,82.1,88.1,5.3
511.0,91.2,90.3,82.8,88.1,4.6
512.75,92.3,90.5,82.5,88.4,5.2
514.5,90.8,90.7,83.6,88.3,4.1
516.25,91.3,89.8,83.2,88.1,4.3
518.0,91.3,91.3,82.6,88.4,5.0
519.75,91.8,91.8,83.1,88.9,5.1
521.5,92.3,89.6,82.8,88.2,4.9
523.25,91.7,89.1,83.3,88.0,4.3
525.0,91.8,89.2,81.6,87.6,5.3
526.75,91.5,89.8,81.6,87.6,5.3
528.5,92.5,88.7,81.3,87.5,5.7
530.25,91.2,88.0,81.4,86.9,5.0
532.0,90.4,89.6,82.1,87.4,4.6
533.75,91.2,89.5,81.7,87.4,5.1
535.5,90.9,88.7,83.0,87.5,4.1
537.25,90.7,89.8,81.3,87.2,5.2
539.0,91.3,88.8,81.4,87.2,5.1
540.75,93.4,89.4,81.9,88.2,5.9
542.5,91.9,89.2,81.9,87.7,5.2
544.25,91.5,89.8,81.8,87.7,5.2
546.0,91.9,88.5,82.4,87.6,4.8
547.75,91.1,88.3,83.1,87.5,4.0
549.5,90.3,88.9,82.6,87.3,4.1
551.25,90.9,88.2,83.0,87.4,4.0
553.0,90.4,87.1,83.1,86.9,3.7
554.75,89.5,89.0,82.6,87.0,3.9
556.5,90.7,88.0,82.7,87.1,4.1
558.25,90.9,88.7,82.8,87.5,4.2
560.0,91.0,88.0,83.7,87.6,3.7
561.75,91.1,88.4,82.8,87.5,4.2
563.5,92.0,88.5,82.8,87.7,4.7
565.25,90.8,85.9,83.0,86.6,4.0
567.0,89.4,86.9,82.8,86.4,3.3
568.75,90.6,86.9,81.3,86.3,4.7
570.5,90.2,87.2,82.7,86.7,3.8
572.25,89.8,87.8,82.6,86.7,3.7
574.0,89.1,86.9,83.1,86.4,3.0
575.75,90.6,87.9,82.2,86.9,4.3
577.5,88.2,87.6,81.0,85.6,4.0
579.25,89.6,87.7,83.0,86.7,3.4
581.0,88.7,87.0,81.3,85.7,3.9
582.75,89.2,86.7,81.8,85.9,3.7
584.5,88.9,86.8,81.7,85.8,3.7
586.25,87.7,87.6,81.1,85.5,3.8
588.0,87.8,86.4,81.4,85.2,3.4
589.75,88.0,88.8,81.8,86.2,3.8
591.5,88.6,88.3,80.5,85.8,4.6
593.25,88.0,88.3,80.1,85.5,4.7
595.0,88.3,88.1,83.7,86.7,2.6
596.75,86.5,87.9,81.3,85.2,3.5
598.5,86.9,87.5,82.2,85.5,2.9
600.25,87.4,87.8,81.9,85.7,3.3
602.0,88.1,86.4,81.5,85.3,3.4
603.75,87.2,86.4,82.5,85.4,2.5
605.5,88.7,85.8,83.5,86.0,2.6
607.25,89.3,86.2,82.3,85.9,3.5
609.0,89.4,86.1,81.9,85.8,3.8
610.75,89.2,86.9,81.2,85.8,4.1
612.5,89.9,88.1,81.1,86.4,4.7
614.25,90.1,88.4,80.3,86.3,5.3
616.0,89.0,86.7,80.9,85.5,4.1
617.75,89.3,87.7,81.0,86.0,4.4
619.5,89.1,85.9,81.0,85.3,4.1
621.25,88.6,85.9,80.4,85.0,4.2
623.0,88.0,85.3,79.9,84.4,4.2
624.75,88.2,86.5,79.1,84.6,4.8
626.5,89.5,88.2,79.8,85.8,5.3
628.25,89.5,87.0,80.0,85.5,4.9
630.0,91.3,87.4,79.8,86.2,5.8
631.75,89.9,86.0,80.6,85.5,4.7
633.5,89.6,86.2,79.9,85.2,4.9
635.25,90.0,87.2,80.7,86.0,4.8
637.0,89.9,86.4,80.8,85.7,4.6
638.75,89.9,89.1,79.1,86.0,6.0
640.5,90.3,87.9,80.0,86.1,5.4
642.25,91.6,85.5,78.0,85.1,6.8
644.0,91.5,86.7,79.2,85.8,6.2
645.75,90.3,87.4,78.3,85.3,6.2
647.5,89.3,87.3,77.4,84.7,6.4
649.25,90.1,87.2,77.3,84.9,6.7
651.0,88.7,89.1,76.7,84.8,7.0
652.75,89.4,88.9,77.7,85.3,6.6
654.5,91.0,88.4,76.6,85.3,7.7
656.25,89.4,89.3,76.5,85.1,7.5
658.0,91.3,89.0,77.8,86.0,7.3
659.75,91.9,88.5,78.1,86.2,7.2
661.5,91.1,89.6,78.6,86.4,6.8
663.25,92.3,88.7,78.6,86.5,7.1
665.0,91.7,89.6,78.0,86.4,7.4
666.75,92.0,89.0,77.7,86.2,7.5
668.5,90.6,88.4,76.9,85.3,7.4
670.25,91.0,89.6,77.9,86.2,7.2
672.0,89.6,90.3,77.5,85.8,7.2
673.75,90.9,90.6,78.4,86.6,7.2
675.5,90.6,91.2,78.9,86.9,6.9
677.25,91.3,90.7,78.4,86.8,7.3
679.0,89.8,89.7,78.3,85.9,6.6
680.75,91.4,91.5,77.7,86.9,7.9
682.5,91.5,92.2,76.5,86.7,8.9
684.25,90.4,89.7,77.5,85.9,7.3
686.0,89.7,91.3,76.9,86.0,7.9
687.75,90.3,90.2,79.1,86.5,6.5
689.5,90.9,91.2,76.4,86.2,8.5
691.25,91.1,92.7,77.2,87.0,8.5
693.0,91.0,91.5,77.3,86.6,8.1
694.75,90.6,91.1,75.6,85.8,8.8
696.5,89.6,91.7,75.7,85.7,8.7
698.25,89.9,92.0,76.2,86.0,8.6
700.0,88.7,91.6,76.5,85.6,8.0
701.75,88.7,92.7,77.5,86.3,7.9
703.5,88.7,92.3,76.2,85.7,8.5
705.25,87.3,91.0,76.6,85.0,7.5
707.0,88.3,91.6,76.3,85.4,8.0
708.75,86.6,91.2,77.2,85.0,7.1
710.5,89.0,91.7,76.5,85.7,8.1
712.25,88.0,88.8,76.7,84.5,6.8
714.0,87.8,89.7,76.0,84.5,7.4
715.75,87.3,90.2,75.7,84.4,7.6
717.5,88.1,90.3,75.5,84.6,8.0
719.25,88.8,91.4,75.8,85.3,8.4
721.0,86.9,90.7,74.6,84.1,8.4
722.75,87.5,91.4,74.4,84.5,8.9
724.5,87.4,91.7,74.2,84.4,9.2
726.25,86.5,90.0,73.8,83.4,8.5
728.0,86.5,91.0,74.1,83.9,8.7
729.75,84.5,89.7,72.8,82.3,8.7
731.5,85.6,90.8,73.4,83.3,8.9
733.25,87.6,88.8,73.6,83.4,8.5
735.0,85.5,87.8,73.3,82.2,7.8
736.75,86.7,90.0,74.2,83.6,8.3
738.5,86.2,89.3,72.8,82.8,8.7
740.25,85.8,89.0,73.6,82.8,8.1
742.0,84.5,87.5,74.9,82.3,6.6
743.75,87.1,87.6,73.2,82.6,8.1
745.5,87.2,88.1,73.5,82.9,8.2
747.25,87.6,88.8,72.8,83.1,8.9
749.0,87.1,88.0,72.3,82.5,8.8
750.75,87.5,89.3,72.9,83.3,9.0
752.5,85.8,85.6,73.0,81.4,7.4
754.25,86.1,86.2,73.1,81.8,7.5
756.0,85.4,86.6,72.9,81.6,7.6
757.75,85.6,86.9,73.8,82.1,7.2
759.5,86.1,86.6,74.4,82.4,6.9
761.25,85.4,85.6,74.0,81.7,6.6
763.0,85.0,86.2,73.0,81.4,7.3
764.75,85.9,84.8,74.8,81.8,6.1
766.5,85.2,85.6,73.4,81.4,7.0
768.25,84.8,84.0,73.8,80.9,6.1
770.0,83.7,86.2,74.3,81.4,6.3
771.75,84.5,86.3,75.2,82.0,5.9
773.5,84.7,85.6,74.4,81.6,6.2
775.25,86.3,86.0,74.8,82.4,6.6
777.0,85.2,86.4,74.2,81.9,6.8
778.75,83.6,87.8,74.4,81.9,6.9
780.5,86.0,85.7,73.8,81.8,7.0
782.25,85.3,85.6,73.3,81.4,7.0
784.0,84.7,85.4,74.8,81.6,5.9
785.75,86.4,84.8,75.4,82.2,5.9
787.5,85.7,84.7,74.9,81.7,6.0
789.25,85.0,84.9,74.5,81.5,6.0
791.0,86.7,84.5,74.0,81.7,6.8
792.75,84.5,84.2,74.9,81.2,5.5
794.5,84.6,85.1,75.4,81.7,5.4
796.25,86.0,84.8,74.3,81.7,6.5
798.0,86.3,84.3,75.8,82.1,5.6
799.75,86.7,86.4,75.3,82.8,6.5
801.5,86.6,85.8,74.6,82.3,6.7
803.25,85.9,85.7,74.2,81.9,6.7
805.0,84.8,85.5,74.4,81.6,6.2
806.75,85.7,84.6,73.9,81.4,6.5
808.5,86.2,84.7,73.4,81.4,7.0
810.25,87.3,83.4,73.4,81.4,7.2
812.0,86.3,84.5,72.6,81.1,7.4
813.75,87.2,84.8,73.2,81.7,7.5
815.5,87.0,83.3,72.9,81.1,7.3
817.25,85.8,85.1,71.6,80.8,8.0
819.0,88.5,85.2,73.0,82.2,8.2
820.75,86.2,84.6,73.9,81.6,6.7
822.5,86.0,86.0,74.2,82.1,6.8
824.25,85.7,84.3,74.6,81.5,6.0
826.0,86.3,85.0,74.8,82.0,6.3
827.75,85.9,85.8,75.0,82.2,6.3
829.5,85.8,86.3,75.5,82.5,6.1
831.25,86.6,86.7,75.4,82.9,6.5
833.0,86.2,86.3,74.4,82.3,6.9
834.75,87.2,86.3,74.8,82.8,6.9
836.5,85.7,87.4,76.5,83.2,5.9
838.25,84.2,88.0,75.6,82.6,6.4
840.0,85.3,87.3,74.3,82.3,7.0
841.75,83.5,87.4,74.2,81.7,6.8
843.5,84.6,87.2,74.4,82.1,6.7
845.25,84.8,87.4,74.5,82.2,6.8
847.0,84.2,85.8,75.0,81.7,5.8
848.75,84.5,87.9,76.9,83.1,5.7
850.5,84.3,88.2,75.3,82.6,6.6
852.25,83.5,87.9,74.9,82.1,6.6
854.0,85.6,86.2,73.8,81.9,7.0
855.75,85.0,86.0,74.6,81.9,6.4
857.5,85.1,86.9,74.7,82.2,6.6
859.25,84.9,86.0,73.4,81.5,7.0
861.0,84.7,85.6,74.8,81.7,6.0
862.75,83.2,86.4,74.7,81.5,6.1
864.5,82.7,86.0,73.7,80.8,6.4
866.25,82.4,87.3,73.1,80.9,7.3
868.0,82.8,87.1,73.4,81.1,7.0
869.75,83.2,86.1,74.4,81.2,6.1
871.5,82.0,86.0,75.2,81.1,5.5
873.25,81.7,85.7,74.7,80.7,5.6
875.0,81.1,86.8,75.5,81.1,5.6
876.75,81.4,85.7,76.9,81.3,4.4
878.5,81.3,85.0,75.9,80.7,4.6
880.25,79.9,84.2,75.6,79.9,4.3
882.0,80.4,84.8,75.7,80.3,4.5
883.75,81.2,85.0,76.5,80.9,4.3
885.5,80.6,84.6,76.9,80.7,3.8
887.25,82.2,84.9,75.3,80.8,4.9
889.0,81.3,84.7,76.3,80.8,4.2
890.75,81.2,84.9,75.4,80.5,4.8
892.5,83.1,84.2,76.1,81.1,4.4
894.25,82.5,83.2,76.0,80.6,4.0
896.0,82.1,83.2,75.9,80.4,3.9
897.75,83.9,82.8,76.0,80.9,4.3
899.5,81.6,82.7,75.8,80.0,3.7
901.25,83.5,83.4,75.9,80.9,4.4
903.0,82.0,83.2,75.5,80.2,4.2
904.75,83.0,83.9,75.3,80.7,4.8
906.5,81.5,83.2,75.6,80.1,4.0
908.25,80.7,82.1,76.2,79.7,3.1
910.0,80.1,83.1,75.9,79.7,3.6
911.75,79.6,81.9,76.0,79.2,3.0
913.5,80.6,81.2,77.0,79.6,2.3
915.25,78.9,81.1,77.2,79.1,2.0
917.0,79.3,79.1,75.7,78.0,2.0
918.75,79.6,80.4,76.3,78.8,2.2
920.5,80.6,80.8,76.6,79.3,2.4
922.25,79.5,81.0,76.3,78.9,2.4
924.0,78.6,81.1,76.1,78.6,2.5
925.75,78.3,79.9,76.4,78.2,1.7
927.5,77.9,80.3,76.1,78.1,2.1
929.25,78.5,81.5,76.9,79.0,2.3
931.0,78.2,80.6,77.1,78.6,1.8
932.75,78.4,80.5,76.9,78.6,1.9
934.5,77.3,80.7,77.3,78.4,2.0
936.25,77.9,80.1,77.4,78.5,1.4
938.0,77.5,80.1,76.9,78.2,1.7
939.75,77.4,78.8,78.1,78.1,0.7
941.5,78.6,78.6,76.8,78.0,1.0
943.25,79.4,78.0,76.9,78.1,1.3
945.0,77.1,79.4,77.2,77.9,1.3
946.75,77.8,79.1,77.4,78.1,0.9
948.5,77.0,79.5,76.6,77.7,1.6
950.25,77.3,79.8,78.4,78.5,1.3
952.0,77.5,79.2,78.3,78.4,0.9
953.75,77.4,79.2,77.4,78.0,1.1
955.5,78.4,80.7,77.1,78.7,1.8
957.25,76.8,80.8,76.9,78.1,2.3
959.0,78.2,79.6,77.3,78.4,1.1
960.75,78.9,78.7,76.7,78.1,1.3
962.5,78.2,78.4,76.4,77.6,1.1
964.25,79.5,78.5,76.7,78.2,1.5
966.0,79.6,78.9,77.1,78.5,1.3
967.75,79.9,78.5,77.8,78.7,1.1
969.5,78.4,79.9,78.8,79.0,0.8
971.25,79.2,79.9,78.1,79.1,0.9
973.0,78.1,78.1,78.3,78.1,0.1
974.75,77.9,80.0,77.8,78.6,1.2
976.5,77.2,79.5,77.7,78.1,1.2
978.25,76.9,79.8,76.5,77.7,1.8
980.0,78.3,79.6,77.2,78.4,1.2
981.75,77.1,81.1,75.7,78.0,2.8
983.5,77.4,80.2,77.0,78.2,1.8
985.25,77.5,79.7,75.9,77.7,1.9
987.0,75.9,80.7,75.3,77.3,2.9
988.75,76.9,80.3,75.9,77.7,2.3
990.5,78.3,81.1,77.6,79.0,1.9
992.25,77.6,80.4,76.1,78.0,2.2
994.0,78.8,80.5,76.0,78.4,2.3
995.75,78.9,80.7,75.7,78.4,2.5
997.5,78.0,81.1,76.0,78.4,2.6
999.25,78.6,81.2,75.5,78.4,2.9
1001.0,77.2,83.3,76.6,79.0,3.7
1002.75,76.9,80.3,74.7,77.3,2.8
1004.5,76.0,82.1,75.3,77.8,3.7
1006.25,76.8,80.5,75.1,77.5,2.8
1008.0,75.8,80.3,74.5,76.9,3.1
1009.75,76.1,80.1,75.8,77.3,2.4
1011.5,76.0,80.1,76.6,77.6,2.2
1013.25,75.7,79.2,75.6,76.9,2.1
1015.0,76.4,80.3,76.5,77.7,2.2
1016.75,76.2,80.0,77.0,77.8,2.0
1018.5,75.5,80.6,75.4,77.2,3.0
1020.25,75.7,82.1,76.3,78.0,3.5
1022.0,75.3,81.6,76.5,77.8,3.3
1023.75,76.3,80.6,76.3,77.7,2.5
1025.5,76.3,80.9,76.0,77.8,2.8
1027.25,76.9,81.6,77.3,78.6,2.6
1029.0,77.9,81.7,77.5,79.1,2.3
1030.75,77.3,80.2,77.4,78.3,1.7
1032.5,76.3,81.8,76.8,78.3,3.0
1034.25,76.9,82.0,75.2,78.0,3.6
1036.0,78.1,81.3,75.5,78.3,2.9
1037.75,76.6,80.6,75.0,77.4,2.9
1039.5,77.2,81.3,75.6,78.0,3.0
1041.25,76.6,81.9,76.1,78.2,3.2
1043.0,77.5,80.4,75.7,77.9,2.4
1044.75,77.2,81.7,76.2,78.4,2.9
1046.5,77.3,82.0,77.1,78.8,2.8
1048.25,78.6,80.1,77.5,78.7,1.3
1050.0,78.2,82.0,76.4,78.9,2.8
1051.75,77.0,81.3,76.5,78.3,2.6
1053.5,77.5,81.5,75.3,78.1,3.1
1055.25,77.3,81.3,76.9,78.5,2.5
1057.0,77.4,82.3,75.9,78.5,3.4
1058.75,75.9,82.3,76.8,78.4,3.5
1060.5,77.3,82.6,76.9,78.9,3.2
1062.25,76.5,80.8,76.8,78.0,2.4
1064.0,76.7,80.9,76.5,78.0,2.5
1065.75,76.4,80.8,77.5,78.2,2.3
1067.5,75.1,81.6,77.2,77.9,3.3
1069.25,75.2,82.4,77.6,78.4,3.7
1071.0,75.3,82.2,77.1,78.2,3.5
1072.75,75.6,82.7,77.0,78.4,3.8
1074.5,74.5,82.2,76.1,77.6,4.1
1076.25,74.2,82.5,76.8,77.9,4.3
1078.0,73.6,81.7,77.0,77.5,4.1
1079.75,73.2,81.2,76.8,77.1,4.0
1081.5,73.9,81.8,75.1,76.9,4.2
1083.25,74.5,80.4,75.5,76.8,3.2
1085.0,75.1,80.8,75.6,77.2,3.2
1086.75,74.5,80.8,75.1,76.8,3.5
1088.5,74.7,80.1,74.8,76.5,3.1
1090.25,75.3,81.4,74.7,77.1,3.7
1092.0,76.8,80.5,75.7,77.7,2.5
1093.75,75.7,82.1,75.8,77.9,3.6
1095.5,76.4,81.2,76.1,77.9,2.9
1097.25,77.2,80.0,76.2,77.8,2.0
1099.0,77.0,81.2,75.9,78.0,2.8
1100.75,77.5,81.9,77.1,78.8,2.6
1102.5,78.0,80.9,77.7,78.9,1.7
1104.25,77.2,81.0,77.0,78.4,2.2
1106.0,76.3,80.3,77.2,77.9,2.1
1107.75,77.7,79.7,77.0,78.1,1.4
1109.5,77.3,80.8,77.2,78.4,2.1
1111.25,77.6,80.4,76.9,78.3,1.9
1113.0,77.7,79.5,76.6,77.9,1.5
1114.75,77.6,79.9,76.6,78.0,1.7
1116.5,78.6,81.1,76.5,78.7,2.3
1118.25,76.2,79.0,76.7,77.3,1.5
1120.0,76.5,78.9,77.6,77.7,1.2
1121.75,76.9,79.2,77.2,77.7,1.2
1123.5,76.9,79.7,75.9,77.5,1.9
1125.25,76.7,79.1,76.9,77.6,1.3
1127.0,76.2,79.1,76.7,77.3,1.5
1128.75,77.2,79.3,77.0,77.8,1.3
1130.5,77.0,78.2,78.1,77.8,0.7
1132.25,76.3,79.4,77.8,77.9,1.5
1134.0,74.8,78.6,77.1,76.8,2.0
1135.75,75.4,78.5,76.7,76.9,1.5
1137.5,75.7,79.0,77.2,77.3,1.6
1139.25,74.5,79.3,78.1,77.3,2.5
1141.0,73.8,79.6,77.6,77.0,2.9
1142.75,75.2,79.2,76.2,76.9,2.1
1144.5,75.5,78.3,76.4,76.7,1.5
1146.25,75.1,79.8,77.5,77.5,2.4
1148.0,75.2,77.9,78.1,77.1,1.6
1149.75,75.0,78.7,76.6,76.8,1.9
1151.5,75.4,76.9,77.8,76.7,1.2
1153.25,73.8,77.9,77.0,76.2,2.1
1155.0,73.8,78.4,76.0,76.1,2.3
1156.75,73.8,78.3,77.5,76.6,2.4
1158.5,74.3,78.0,76.8,76.3,1.9
1160.25,74.3,78.5,76.0,76.3,2.1
1162.0,74.6,77.5,78.0,76.7,1.8
1163.75,74.4,77.4,77.5,76.4,1.7
1165.5,74.7,78.4,78.1,77.1,2.1
1167.25,73.6,76.7,77.7,76.0,2.1
1169.0,73.5,78.0,76.7,76.1,2.3
1170.75,74.5,76.5,76.0,75.7,1.1
1172.5,74.2,78.5,75.9,76.2,2.2
1174.25,75.4,77.6,76.4,76.5,1.1
1176.0,76.0,77.8,75.7,76.5,1.2
1177.75,75.1,77.4,77.8,76.8,1.4
1179.5,74.3,77.7,75.6,75.9,1.7
1181.25,74.2,77.2,77.0,76.1,1.7
1183.0,75.6,78.8,76.9,77.1,1.6
1184.75,74.1,77.4,77.4,76.3,1.9
1186.5,73.9,77.8,77.4,76.3,2.2
1188.25,74.4,78.9,77.2,76.8,2.3
1190.0,73.8,77.2,78.1,76.4,2.2
1191.75,73.7,78.3,78.1,76.7,2.6
1193.5,73.7,78.8,77.1,76.5,2.6
1195.25,73.7,76.2,77.3,75.7,1.9
1197.0,74.6,77.8,77.6,76.6,1.8
1198.75,74.5,77.7,77.3,76.5,1.7
1200.5,73.6,76.2,76.7,75.5,1.7
1202.25,73.7,77.2,77.7,76.2,2.2
1204.0,73.6,79.4,77.8,76.9,3.0
1205.75,73.0,78.5,77.9,76.5,3.0
1207.5,74.6,78.9,76.8,76.8,2.2
1209.25,75.0,80.5,77.1,77.5,2.8
1211.0,74.4,79.7,78.4,77.5,2.7
1212.75,74.6,80.5,77.7,77.6,2.9
1214.5,74.3,80.3,77.3,77.3,3.0
1216.25,74.2,78.6,77.3,76.7,2.2
1218.0,74.8,78.5,78.8,77.4,2.2
1219.75,73.7,78.6,78.9,77.1,2.9
1221.5,74.4,80.2,79.6,78.1,3.2
1223.25,75.9,79.4,77.6,77.6,1.8
1225.0,75.5,79.1,77.5,77.4,1.8
1226.75,75.8,79.7,78.7,78.1,2.0
1228.5,76.1,80.3,77.2,77.9,2.2
1230.25,75.1,78.9,76.7,76.9,1.9
1232.0,75.1,78.9,76.1,76.7,2.0
1233.75,74.8,78.6,77.2,76.9,1.9
1235.5,74.3,78.7,77.7,76.9,2.3
1237.25,74.1,78.5,78.7,77.1,2.6
1239.0,74.7,78.8,79.0,77.5,2.4
1240.75,74.7,79.0,77.7,77.1,2.2
1242.5,74.4,78.5,79.1,77.3,2.6
1244.25,72.6,78.8,78.6,76.7,3.5
1246.0,73.9,80.1,78.3,77.4,3.2
1247.75,74.9,77.6,77.6,76.7,1.5
1249.5,74.1,78.8,78.3,77.1,2.6
1251.25,73.3,79.0,78.5,76.9,3.2
1253.0,74.7,78.3,79.0,77.3,2.3
1254.75,73.9,79.2,77.4,76.8,2.7
1256.5,75.8,79.2,78.6,77.9,1.8
1258.25,74.8,79.5,76.7,77.0,2.4
1260.0,75.2,79.4,78.1,77.6,2.1
1261.75,75.5,78.3,77.8,77.2,1.5
1263.5,74.8,78.8,76.4,76.7,2.0
1265.25,73.4,78.5,76.9,76.2,2.6
1267.0,74.1,79.5,78.4,77.3,2.8
1268.75,74.0,79.9,77.6,77.2,3.0
1270.5,74.0,78.3,76.7,76.4,2.2
1272.25,74.1,79.2,77.3,76.9,2.6
1274.0,74.2,79.2,77.8,77.0,2.6
1275.75,74.2,78.7,78.8,77.2,2.7
1277.5,75.1,79.2,78.3,77.5,2.1
1279.25,75.0,79.4,77.2,77.2,2.2
1281.0,74.5,79.0,77.9,77.1,2.4
1282.75,75.2,79.6,78.6,77.8,2.3
1284.5,74.5,78.9,77.2,76.9,2.2
1286.25,74.9,79.0,78.1,77.3,2.1
1288.0,75.3,78.0,78.1,77.1,1.6
1289.75,75.3,78.1,76.8,76.7,1.4
1291.5,76.0,78.3,76.6,76.9,1.2
1293.25,74.9,78.6,77.1,76.8,1.8
1295.0,75.0,78.3,75.8,76.3,1.7
1296.75,75.4,77.1,75.2,75.9,1.0
1298.5,75.3,77.9,75.0,76.0,1.6
1300.25,76.8,78.6,77.1,77.5,1.0
1302.0,75.9,78.9,77.1,77.3,1.5
1303.75,75.8,80.2,78.4,78.1,2.2
1305.5,75.0,79.1,78.6,77.6,2.3
1307.25,75.4,79.7,77.3,77.5,2.2
1309.0,75.3,81.1,77.7,78.0,3.0
1310.75,75.6,79.5,77.2,77.4,2.0
1312.5,76.8,79.9,77.2,78.0,1.7
1314.25,75.2,78.5,77.3,77.0,1.6
1316.0,76.1,79.1,76.7,77.3,1.6
1317.75,76.4,79.9,77.7,78.0,1.8
1319.5,75.5,80.2,76.8,77.5,2.4
1321.25,75.7,80.5,76.5,77.6,2.5
1323.0,76.2,81.0,77.9,78.4,2.4
1324.75,75.7,81.2,76.5,77.8,2.9
1326.5,75.4,80.7,76.8,77.6,2.7
1328.25,75.1,80.4,78.1,77.9,2.7
1330.0,75.6,79.8,77.5,77.6,2.1
1331.75,75.2,79.7,77.1,77.3,2.3
1333.5,74.7,79.4,76.9,77.0,2.4
1335.25,74.5,79.0,77.0,76.8,2.2
1337.0,74.5,79.4,76.0,76.6,2.5
1338.75,74.0,79.6,76.9,76.9,2.8
1340.5,75.4,78.4,76.4,76.7,1.5
1342.25,74.6,78.9,75.9,76.5,2.2
1344.0,74.4,78.3,76.5,76.4,2.0
1345.75,74.3,78.9,77.3,76.8,2.3
1347.5,74.6,81.0,76.8,77.5,3.2
1349.25,75.0,78.6,76.4,76.7,1.8
1351.0,75.3,78.0,76.9,76.8,1.3
1352.75,76.1,78.1,75.6,76.6,1.3
1354.5,75.8,79.2,76.9,77.3,1.7
1356.25,75.3,78.8,77.1,77.1,1.8
1358.0,75.2,79.5,76.8,77.2,2.2
1359.75,76.6,78.3,76.7,77.2,1.0
1361.5,76.4,80.8,78.2,78.5,2.2
1363.25,76.5,80.8,76.7,78.0,2.5
1365.0,78.4,81.3,77.0,78.9,2.2
1366.75,77.6,79.8,77.6,78.3,1.3
1368.5,77.3,80.3,76.1,77.9,2.2
1370.25,75.0,79.3,75.9,76.8,2.3
1372.0,75.6,79.5,76.6,77.3,2.0
1373.75,75.0,78.5,77.0,76.8,1.8
1375.5,76.5,79.6,76.2,77.4,1.9
1377.25,76.6,80.7,78.0,78.4,2.0
1379.0,76.2,79.9,76.9,77.7,1.9
1380.75,76.4,81.7,76.2,78.1,3.1
1382.5,75.7,80.2,75.5,77.1,2.7
1384.25,76.2,80.2,75.6,77.3,2.5
1386.0,75.8,80.5,74.9,77.1,3.0
1387.75,77.2,80.9,76.7,78.2,2.3
1389.5,76.6,81.5,75.9,78.0,3.0
1391.25,78.1,82.5,76.1,78.9,3.3
1393.0,78.1,82.5,78.2,79.6,2.5
1394.75,77.9,83.1,77.4,79.5,3.1
1396.5,78.6,83.1,77.5,79.7,3.0
1398.25,79.4,83.8,77.7,80.3,3.2
1400.0,78.7,82.9,75.7,79.1,3.7
1401.75,77.4,83.4,76.0,78.9,3.9
1403.5,78.3,83.4,77.1,79.6,3.4
1405.25,78.7,83.3,75.7,79.2,3.8
1407.0,78.5,83.1,77.1,79.6,3.1
1408.75,79.9,83.6,76.7,80.1,3.5
1410.5,79.7,83.9,75.2,79.6,4.3
1412.25,78.8,82.7,75.3,78.9,3.7
1414.0,79.8,84.9,75.1,79.9,4.9
1415.75,81.1,84.3,74.0,79.8,5.3
1417.5,79.3,83.3,74.6,79.1,4.4
1419.25,80.1,83.6,74.8,79.5,4.4
1421.0,79.8,83.4,76.1,79.8,3.7
1422.75,79.6,85.1,74.5,79.8,5.3
1424.5,78.8,84.4,76.5,79.9,4.1
1426.25,80.0,83.8,75.6,79.8,4.1
1428.0,79.6,83.1,75.1,79.3,4.0
1429.75,79.5,83.8,75.6,79.6,4.1
1431.5,78.2,84.7,74.0,79.0,5.4
1433.25,78.4,83.1,74.4,78.6,4.4
1435.0,78.0,84.4,74.7,79.1,4.9
1436.75,79.0,82.1,75.0,78.7,3.6
1438.5,78.7,83.6,75.5,79.3,4.1
1440.25,79.6,84.6,74.1,79.4,5.3
1442.0,79.5,83.0,74.3,78.9,4.3
1443.75,79.8,84.6,73.5,79.3,5.6
1445.5,78.8,83.7,73.9,78.8,4.9
1447.25,79.6,85.9,74.8,80.1,5.6
1449.0,79.7,84.8,74.6,79.7,5.1
1450.75,79.0,84.0,73.2,78.7,5.4
1452.5,78.7,84.7,75.1,79.5,4.9
1454.25,79.6,86.4,76.2,80.8,5.2
1456.0,79.4,85.8,75.0,80.1,5.4
1457.75,80.9,85.8,74.5,80.4,5.7
1459.5,83.2,85.3,74.8,81.1,5.5
1461.25,82.1,84.6,74.9,80.5,5.1
1463.0,80.2,85.0,76.4,80.5,4.3
1464.75,82.5,84.3,75.2,80.7,4.8
1466.5,80.8,84.5,75.2,80.2,4.7
1468.25,83.1,84.4,74.4,80.6,5.5
1470.0,81.0,84.6,74.7,80.1,5.0
1471.75,82.4,84.9,74.5,80.6,5.4
1473.5,82.4,84.8,74.2,80.5,5.6
1475.25,82.8,86.7,74.5,81.3,6.2
1477.0,82.4,86.3,74.7,81.1,5.9
1478.75,82.1,86.3,74.5,80.9,6.0
1480.5,81.3,87.0,74.2,80.8,6.4
1482.25,81.5,88.1,73.9,81.2,7.1
1484.0,81.4,88.1,74.3,81.3,6.9
1485.75,81.1,89.5,74.5,81.7,7.5
1487.5,81.8,88.3,73.9,81.4,7.2
1489.25,80.3,88.4,73.5,80.8,7.4
1491.0,79.7,88.2,73.3,80.4,7.4
1492.75,82.2,88.1,72.9,81.1,7.6
1494.5,81.5,87.9,73.6,81.0,7.2
1496.25,81.3,87.7,73.2,80.8,7.3
1498.0,80.9,88.8,73.6,81.1,7.6
1499.75,81.2,88.1,74.2,81.2,6.9
1501.5,81.8,87.5,74.4,81.2,6.6
1503.25,82.0,87.5,75.8,81.8,5.9
1505.0,82.1,86.3,74.7,81.0,5.9
1506.75,83.1,88.5,74.9,82.2,6.9
1508.5,82.2,87.4,74.1,81.2,6.7
1510.25,83.7,88.3,74.1,82.0,7.3
1512.0,84.5,87.8,74.2,82.2,7.1
1513.75,83.6,86.3,74.4,81.4,6.2
1515.5,83.7,87.9,74.9,82.1,6.6
1517.25,84.9,89.4,75.6,83.3,7.0
1519.0,83.7,90.9,75.8,83.5,7.5
1520.75,84.8,90.5,74.7,83.3,8.0
1522.5,85.4,88.9,75.7,83.3,6.9
1524.25,84.5,87.7,74.8,82.3,6.7
1526.0,84.0,87.7,74.3,82.0,6.9
1527.75,82.6,90.5,74.9,82.6,7.8
1529.5,83.1,88.6,74.3,82.0,7.2
1531.25,83.4,89.9,73.9,82.4,8.1
1533.0,82.9,92.7,73.7,83.1,9.5
1534.75,81.9,90.7,73.7,82.1,8.5
1536.5,84.3,90.8,74.1,83.1,8.5
1538.25,84.0,90.5,75.8,83.4,7.3
1540.0,83.4,89.9,74.1,82.5,7.9
1541.75,84.0,90.4,73.4,82.6,8.6
1543.5,82.2,88.7,75.1,82.0,6.8
1545.25,83.5,90.3,74.2,82.7,8.1
1547.0,84.6,91.3,72.7,82.9,9.4
1548.75,85.1,91.2,73.4,83.3,9.1
1550.5,84.5,91.4,73.7,83.2,8.9
1552.25,84.3,90.6,73.2,82.7,8.8
1554.0,84.5,91.3,73.9,83.2,8.7
1555.75,83.0,90.2,73.4,82.2,8.4
1557.5,83.6,92.3,73.3,83.1,9.5
1559.25,85.3,89.6,75.2,83.4,7.4
1561.0,84.2,91.6,74.0,83.3,8.9
1562.75,85.6,91.9,74.2,83.9,9.0
1564.5,86.6,91.1,73.8,83.9,9.0
1566.25,86.0,90.4,75.1,83.8,7.9
1568.0,84.7,90.4,73.8,83.0,8.4
1569.75,83.9,89.7,73.3,82.3,8.3
1571.5,84.4,89.6,74.3,82.8,7.8
1573.25,85.0,90.5,74.9,83.4,7.9
1575.0,83.1,91.8,75.4,83.4,8.2
1576.75,84.7,90.7,73.7,83.1,8.6
1578.5,84.0,91.0,75.6,83.6,7.7
1580.25,84.6,91.4,75.1,83.7,8.2
1582.0,84.5,91.3,74.8,83.5,8.3
1583.75,85.2,92.5,75.4,84.4,8.6
1585.5,86.4,92.1,75.5,84.7,8.5
1587.25,84.3,91.8,74.6,83.6,8.6
1589.0,83.9,91.9,75.8,83.9,8.1
1590.75,83.6,92.6,76.1,84.1,8.3
1592.5,83.5,92.6,75.7,83.9,8.5
1594.25,85.3,93.5,76.8,85.2,8.3
1596.0,84.2,92.2,77.2,84.5,7.5
1597.75,84.9,92.7,77.5,85.0,7.6
1599.5,84.2,92.7,77.3,84.8,7.7
1601.25,83.5,92.5,76.9,84.3,7.8
1603.0,82.8,92.1,77.0,84.0,7.7
1604.75,84.4,93.1,75.6,84.4,8.7
1606.5,84.7,93.9,76.1,84.9,8.9
1608.25,83.9,92.3,77.3,84.5,7.5
1610.0,84.3,93.9,77.3,85.2,8.3
1611.75,85.1,93.2,74.3,84.2,9.5
1613.5,83.4,92.1,75.8,83.8,8.1
1615.25,83.3,92.6,75.5,83.8,8.5
1617.0,84.5,92.5,75.8,84.2,8.4
1618.75,82.8,92.3,75.3,83.5,8.5
1620.5,84.9,92.0,73.8,83.6,9.2
1622.25,86.1,91.5,75.8,84.5,8.0
1624.0,85.8,92.2,75.4,84.5,8.5
1625.75,87.0,94.2,75.5,85.6,9.5
1627.5,86.9,94.2,75.7,85.6,9.3
1629.25,87.0,94.1,75.7,85.6,9.3
1631.0,86.8,95.3,75.3,85.8,10.0
1632.75,88.5,96.0,76.0,86.8,10.1
1634.5,88.1,94.9,74.2,85.7,10.6
1636.25,87.9,96.5,75.0,86.5,10.8
1638.0,86.8,94.9,76.3,86.0,9.3
1639.75,87.4,97.2,75.5,86.7,10.9
1641.5,86.9,96.9,77.0,86.9,10.0
1643.25,85.6,97.7,78.3,87.2,9.8
1645.0,85.6,98.5,78.2,87.4,10.3
1646.75,84.2,98.0,78.6,87.0,10.0
1648.5,85.5,99.0,79.3,87.9,10.0
1650.25,85.3,98.9,79.6,88.0,9.9
1652.0,85.1,98.3,79.8,87.7,9.5
1653.75,85.6,98.8,81.0,88.5,9.2
1655.5,87.4,99.6,79.8,88.9,10.0
1657.25,87.2,99.0,80.9,89.0,9.2
1659.0,86.2,98.9,80.5,88.5,9.4
1660.75,87.4,101.1,80.0,89.5,10.7
1662.5,86.5,100.1,80.4,89.0,10.1
1664.25,86.6,101.1,82.4,90.0,9.8
1666.0,86.2,100.7,82.3,89.7,9.7
1667.75,86.6,101.3,80.3,89.4,10.8
1669.5,86.8,101.3,81.5,89.9,10.3
1671.25,86.8,102.9,81.5,90.4,11.2
1673.0,87.1,104.8,81.1,91.0,12.3
1674.75,89.3,104.4,80.2,91.3,12.2
1676.5,90.6,104.6,81.0,92.1,11.9
1678.25,88.9,103.0,81.2,91.1,11.0
1680.0,89.0,105.4,81.3,91.9,12.3
1681.75,90.3,103.9,79.0,91.1,12.5
1683.5,89.1,104.7,79.6,91.1,12.7
1685.25,89.7,104.8,79.3,91.3,12.8
1687.0,90.6,104.2,80.2,91.7,12.0
1688.75,90.0,105.6,79.8,91.8,13.0
1690.5,91.5,106.7,81.6,93.2,12.6
1692.25,91.8,106.1,80.9,93.0,12.6
1694.0,92.4,104.0,80.2,92.2,11.9
1695.75,93.5,106.6,80.9,93.7,12.8
1697.5,93.6,107.3,80.9,93.9,13.2
1699.25,93.5,108.3,80.4,94.1,13.9
1701.0,94.0,108.3,81.1,94.4,13.6
1702.75,91.6,109.3,80.7,93.9,14.4
1704.5,92.9,108.4,82.0,94.4,13.3
1706.25,90.9,109.6,81.8,94.1,14.2
1708.0,91.1,109.2,82.1,94.1,13.8
1709.75,92.7,110.2,81.8,94.9,14.4
1711.5,93.2,109.8,81.5,94.8,14.2
1713.25,94.3,109.8,81.0,95.0,14.4
1715.0,95.3,109.4,80.9,95.2,14.3
1716.75,93.3,111.2,81.7,95.4,14.9
1718.5,96.1,113.7,82.8,97.5,15.5
1720.25,95.5,114.1,81.7,97.1,16.3
1722.0,95.5,114.1,82.7,97.4,15.8
1723.75,95.8,115.8,81.3,97.6,17.3
1725.5,95.7,116.2,81.8,97.9,17.3
1727.25,96.1,116.4,82.2,98.2,17.2
1729.0,95.9,115.5,82.8,98.0,16.4
1730.75,95.4,117.7,83.2,98.8,17.5
1732.5,94.2,118.4,84.0,98.8,17.7
1734.25,97.2,120.4,85.7,101.1,17.7
1736.0,97.6,117.4,85.4,100.2,16.1
1737.75,95.9,118.4,86.1,100.1,16.5
1739.5,98.9,116.1,87.2,100.7,14.5
1741.25,98.7,116.2,85.6,100.2,15.3
1743.0,97.7,117.2,87.5,100.8,15.1
1744.75,98.9,117.6,86.5,101.0,15.7
1746.5,100.5,120.3,86.5,102.4,17.0
1748.25,98.8,119.0,86.0,101.3,16.6
1750.0,98.2,120.5,86.5,101.7,17.2
1751.75,97.5,120.9,87.6,102.0,17.1
1753.5,97.7,123.0,87.1,102.6,18.5
1755.25,98.5,118.6,86.9,101.3,16.1
1757.0,97.3,122.3,86.5,102.0,18.3
1758.75,97.2,122.4,87.7,102.4,17.9
1760.5,96.0,117.5,88.7,100.7,15.0
1762.25,96.8,117.9,89.3,101.3,14.9
1764.0,96.9,118.6,89.3,101.6,15.2
1765.75,97.8,119.4,90.0,102.4,15.2
1767.5,98.7,122.1,91.8,104.2,15.9
1769.25,97.5,118.6,91.2,102.4,14.4
1771.0,98.9,121.2,90.6,103.6,15.8
1772.75,99.8,122.1,90.5,104.1,16.3
1774.5,97.9,122.4,90.7,103.7,16.6
1776.25,99.5,121.9,90.5,104.0,16.2
1778.0,100.7,120.5,93.1,104.8,14.2
1779.75,100.4,122.1,90.9,104.5,16.0
1781.5,98.2,121.4,91.1,103.6,15.8
1783.25,98.7,120.0,91.1,103.3,15.0
1785.0,100.0,120.9,92.5,104.4,14.7
1786.75,99.2,121.6,92.2,104.3,15.4
1788.5,99.6,121.4,92.9,104.6,14.9
1790.25,100.6,120.5,94.4,105.1,13.6
1792.0,100.7,122.0,93.9,105.5,14.7
1793.75,101.0,119.6,94.0,104.8,13.2
1795.5,101.2,120.3,94.9,105.5,13.3
1797.25,102.1,119.3,94.4,105.2,12.7
1799.0,100.8,121.4,94.5,105.5,14.1
1800.75,100.9,119.7,94.7,105.1,13.0
1802.5,102.2,121.7,94.4,106.1,14.1
1804.25,101.4,121.6,94.4,105.8,14.1
1806.0,102.4,120.6,94.5,105.8,13.4
1807.75,101.7,122.0,94.9,106.2,14.1
1809.5,103.1,119.2,94.1,105.5,12.7
1811.25,103.8,117.8,95.2,105.6,11.4
1813.0,103.3,121.4,95.4,106.7,13.3
1814.75,103.1,117.0,95.7,105.3,10.8
1816.5,104.4,118.5,95.3,106.0,11.7
1818.25,106.6,120.9,95.9,107.8,12.5
1820.0,104.7,120.6,95.5,106.9,12.7
1821.75,106.4,122.7,96.4,108.5,13.3
1823.5,106.8,119.5,96.6,107.6,11.5
1825.25,106.1,119.4,97.5,107.7,11.1
1827.0,105.1,120.3,98.1,107.8,11.4
1828.75,106.0,118.6,97.9,107.5,10.4
1830.5,107.5,119.2,99.7,108.8,9.8
1832.25,107.2,121.0,99.9,109.4,10.7
1834.0,106.3,118.5,98.8,107.9,9.9
1835.75,106.6,118.5,100.4,108.5,9.2
1837.5,109.2,119.2,100.5,109.6,9.3
1839.25,108.1,119.6,101.6,109.8,9.1
1841.0,109.0,120.3,101.8,110.4,9.4
1842.75,108.0,121.9,102.9,110.9,9.8
1844.5,111.0,120.3,103.0,111.4,8.7
1846.25,111.9,119.7,102.1,111.2,8.8
1848.0,111.5,120.9,104.2,112.2,8.3
1849.75,114.3,121.9,103.6,113.3,9.2
1851.5,115.3,121.2,103.9,113.5,8.8
1853.25,113.6,120.9,103.6,112.7,8.7
1855.0,115.7,122.9,102.8,113.8,10.2
1856.75,115.7,123.2,104.8,114.5,9.3
1858.5,117.0,123.9,106.1,115.7,9.0
1860.25,117.8,123.6,106.1,115.8,8.9
1862.0,118.4,122.4,105.1,115.3,9.1
1863.75,115.4,125.9,106.0,115.8,10.0
1865.5,116.1,123.8,105.0,115.0,9.5
1867.25,114.7,125.5,106.2,115.5,9.7
1869.0,115.4,125.0,106.1,115.5,9.5
1870.75,115.3,123.6,107.8,115.5,7.9
1872.5,117.4,124.4,108.4,116.7,8.0
1874.25,118.7,124.5,106.5,116.6,9.2
1876.0,115.9,125.0,107.4,116.1,8.8
1877.75,118.3,124.6,107.6,116.8,8.6
1879.5,120.2,124.4,109.5,118.0,7.7
1881.25,118.9,128.7,110.9,119.5,8.9
1883.0,120.1,126.4,110.5,119.0,8.0
1884.75,118.2,124.7,110.0,117.6,7.4
1886.5,119.1,122.8,111.2,117.7,5.9
1888.25,120.2,122.3,110.1,117.5,6.5
1890.0,119.8,123.7,112.0,118.5,6.0
1891.75,119.9,122.7,109.4,117.3,7.0
1893.5,120.0,123.1,111.5,118.2,6.0
1895.25,121.5,123.5,111.7,118.9,6.3
1897.0,122.6,127.1,110.9,120.2,8.4
1898.75,122.9,124.5,110.2,119.2,7.8
1900.5,122.4,124.3,111.6,119.5,6.8
1902.25,123.7,124.4,109.8,119.3,8.3
1904.0,123.1,125.6,111.7,120.1,7.4
1905.75,121.6,124.8,111.8,119.4,6.8
1907.5,121.9,124.8,110.1,118.9,7.8
1909.25,122.8,124.8,112.8,120.2,6.4
1911.0,124.0,125.7,111.4,120.4,7.8
1912.75,123.8,125.9,113.7,121.1,6.5
1914.5,125.6,128.4,114.3,122.8,7.4
1916.25,127.1,127.5,114.0,122.9,7.7
1918.0,128.9,128.5,114.0,123.8,8.5
1919.75,129.9,129.4,115.5,124.9,8.2
1921.5,130.9,128.0,114.4,124.5,8.8
1923.25,132.4,130.7,115.2,126.1,9.5
1925.0,133.5,128.7,117.1,126.4,8.4
1926.75,134.7,129.3,116.0,126.7,9.6
1928.5,138.0,128.9,117.0,128.0,10.5
1930.25,139.8,129.2,117.9,129.0,10.9
1932.0,136.9,130.2,119.5,128.8,8.8
1933.75,137.5,128.6,119.5,128.5,9.0
1935.5,139.7,128.1,118.4,128.8,10.7
1937.25,141.3,128.5,121.2,130.4,10.2
1939.0,142.1,128.2,120.5,130.3,11.0
1940.75,145.5,130.5,119.9,131.9,12.9
1942.5,142.7,129.5,119.8,130.7,11.5
1944.25,143.1,129.0,119.0,130.4,12.1
1946.0,146.3,128.8,122.7,132.6,12.2
1947.75,143.4,129.2,123.4,132.0,10.2
1949.5,145.4,128.8,123.9,132.7,11.3
1951.25,146.2,128.0,124.3,132.8,11.7
1953.0,144.3,129.9,122.3,132.2,11.2
1954.75,145.5,126.3,125.3,132.3,11.4
1956.5,147.6,130.0,124.8,134.1,11.9
1958.25,148.4,128.6,127.6,134.9,11.7
1960.0,147.0,130.2,125.9,134.4,11.1
1961.75,146.2,131.8,128.3,135.4,9.5
1963.5,146.8,131.8,126.4,135.0,10.6
1965.25,144.3,134.2,126.0,134.9,9.2
1967.0,143.0,132.6,127.1,134.2,8.1
1968.75,144.2,133.8,130.8,136.3,7.1
1970.5,141.1,130.1,130.4,133.9,6.3
1972.25,140.7,131.5,130.9,134.4,5.5
1974.0,139.8,129.0,130.2,133.0,5.9
1975.75,139.8,129.0,129.2,132.7,6.2
1977.5,138.1,128.3,132.6,133.0,4.9
1979.25,135.2,126.9,132.5,131.6,4.2
1981.0,136.9,124.1,132.8,131.2,6.6
1982.75,136.3,123.8,133.6,131.3,6.6
1984.5,134.2,119.3,134.9,129.5,8.8
1986.25,135.4,120.3,133.3,129.7,8.1
1988.0,134.6,119.9,134.4,129.6,8.4
1989.75,131.6,119.0,132.7,127.8,7.6
1991.5,129.2,116.5,132.7,126.2,8.5
1993.25,130.7,116.2,133.5,126.8,9.3
1995.0,129.3,110.9,135.3,125.2,12.7
1996.75,128.1,112.4,138.6,126.4,13.2
1998.5,126.6,110.7,137.7,125.0,13.6
2000.25,126.8,107.8,138.4,124.3,15.5
2002.0,127.2,106.0,138.0,123.7,16.3
2003.75,125.9,107.5,137.4,123.6,15.0
2005.5,125.5,103.2,138.0,122.2,17.6
2007.25,125.2,103.2,136.7,121.7,17.0
2009.0,126.6,100.2,141.4,122.7,20.8
2010.75,124.5,99.1,140.8,121.4,21.0
2012.5,123.6,98.9,141.8,121.5,21.5
2014.25,123.7,98.7,142.6,121.6,22.0
2016.0,123.2,96.2,142.2,120.6,23.1
2017.75,119.4,96.3,142.4,119.4,23.0
2019.5,117.4,94.4,143.0,118.3,24.3
2021.25,118.8,94.1,142.9,118.6,24.4
2023.0,119.0,92.5,140.8,117.4,24.2
2024.75,117.6,93.0,144.1,118.2,25.5
2026.5,116.9,93.2,142.7,117.6,24.8
2028.25,116.2,90.8,143.9,117.0,26.6
2030.0,115.9,91.1,144.9,117.3,26.9
2031.75,115.0,88.3,147.1,116.8,29.4
2033.5,116.4,86.5,144.3,115.7,28.9
2035.25,112.9,84.9,146.8,114.8,31.0
2037.0,114.0,86.3,148.5,116.3,31.1
2038.75,113.0,86.2,148.5,115.9,31.3
2040.5,111.9,84.8,144.8,113.8,30.1
2042.25,112.7,82.3,144.9,113.3,31.3
2044.0,112.6,82.3,146.2,113.7,31.9
2045.75,111.2,81.6,146.4,113.1,32.4
2047.5,110.6,79.0,144.4,111.3,32.7
2049.25,113.8,78.1,145.5,112.5,33.8
2051.0,109.4,77.3,144.5,110.4,33.6
2052.75,111.1,75.7,144.6,110.5,34.5
2054.5,109.5,75.5,146.5,110.5,35.5
2056.25,109.8,75.9,146.3,110.7,35.2
2058.0,109.8,73.5,146.6,110.0,36.5
2059.75,110.2,73.6,150.1,111.3,38.2
2061.5,111.6,72.7,147.7,110.7,37.5
2063.25,110.5,72.4,148.2,110.4,37.9
2065.0,109.6,71.2,144.9,108.6,36.9
2066.75,109.8,70.9,143.8,108.2,36.5
2068.5,109.7,69.5,147.5,108.9,39.0
2070.25,109.3,69.9,145.3,108.2,37.7
2072.0,108.6,69.3,143.8,107.2,37.3
2073.75,108.9,67.9,141.7,106.2,37.0
2075.5,108.7,67.8,143.1,106.5,37.7
2077.25,109.1,66.9,142.4,106.1,37.8
2079.0,107.6,66.6,140.1,104.8,36.8
2080.75,108.1,66.3,141.7,105.4,37.8
2082.5,108.6,66.0,141.1,105.2,37.7
2084.25,109.6,64.8,137.9,104.1,36.9
2086.0,109.5,63.7,138.5,103.9,37.7
2087.75,108.4,62.6,134.4,101.8,36.3
2089.5,108.5,62.4,139.0,103.3,38.6
2091.25,107.7,62.6,135.7,102.0,36.8
2093.0,107.5,61.2,134.0,100.9,36.9
2094.75,108.6,61.5,132.4,100.8,36.1
2096.5,105.5,62.0,132.0,99.8,35.3
2098.25,107.6,60.3,133.1,100.3,37.0
2100.0,107.2,60.2,130.8,99.4,35.9
2101.75,107.2,60.7,132.2,100.0,36.3
2103.5,109.0,58.7,129.1,98.9,36.3
2105.25,107.3,58.5,129.8,98.6,36.4
2107.0,106.5,58.9,129.5,98.3,36.0
2108.75,107.6,57.8,125.1,96.8,34.9
2110.5,105.8,58.5,125.7,96.7,34.5
2112.25,105.7,58.1,128.1,97.3,35.8
2114.0,107.0,57.8,122.6,95.8,33.8
2115.75,106.3,57.7,121.3,95.1,33.3
2117.5,105.1,57.8,123.6,95.5,33.9
2119.25,106.9,58.2,121.8,95.6,33.3
2121.0,106.2,57.7,118.6,94.2,32.2
2122.75,105.2,56.8,120.0,94.0,33.1
2124.5,105.5,57.6,118.5,93.9,32.1
2126.25,103.7,57.7,116.3,92.6,30.8
2128.0,105.4,58.0,114.6,92.7,30.4
2129.75,104.1,57.8,114.0,92.0,30.0
2131.5,107.3,57.4,112.2,92.3,30.3
2133.25,105.1,57.0,111.4,91.2,29.8
2135.0,105.9,58.4,108.9,91.1,28.3
2136.75,107.6,57.9,107.4,91.0,28.6
2138.5,105.1,57.3,105.5,89.3,27.7
2140.25,107.6,57.1,107.5,90.7,29.1
2142.0,106.5,56.7,104.3,89.2,28.2
2143.75,104.3,56.2,104.5,88.4,27.8
2145.5,106.1,56.7,103.1,88.6,27.7
2147.25,105.3,56.8,102.0,88.0,27.1
2149.0,104.0,56.3,99.9,86.7,26.4
2150.75,103.4,57.0,98.7,86.4,25.5
2152.5,102.6,56.4,97.3,85.4,25.3
2154.25,104.9,56.2,94.6,85.2,25.6
2156.0,101.6,54.4,94.7,83.6,25.5
2157.75,101.1,54.8,92.7,82.9,24.7
2159.5,101.1,55.0,90.7,82.3,24.2
2161.25,98.4,53.8,89.8,80.7,23.6
2163.0,97.2,54.4,88.9,80.2,22.7
2164.75,97.9,54.8,87.1,79.9,22.4
2166.5,96.5,53.9,86.0,78.8,22.2
2168.25,96.8,53.7,86.7,79.1,22.5
2170.0,96.2,52.7,84.2,77.7,22.5
2171.75,93.5,53.7,84.1,77.1,20.8
2173.5,93.8,51.9,82.1,76.0,21.6
2175.25,93.6,53.8,81.2,76.2,20.3
2177.0,93.2,53.1,79.7,75.3,20.4
2178.75,92.9,52.5,79.1,74.8,20.5
2180.5,94.7,52.7,77.7,75.0,21.1
2182.25,91.5,52.9,76.7,73.7,19.5
2184.0,90.9,54.1,77.3,74.1,18.6
2185.75,90.7,54.1,74.2,73.0,18.3
2187.5,89.4,53.0,73.8,72.1,18.3
2189.25,88.3,53.3,72.9,71.5,17.5
2191.0,87.2,52.3,73.1,70.9,17.6
2192.75,88.2,53.2,72.1,71.2,17.5
2194.5,86.0,52.5,71.4,70.0,16.8
2196.25,84.3,52.1,69.8,68.7,16.1
2198.0,86.2,52.3,69.8,69.4,16.9
2199.75,86.8,52.3,69.5,69.6,17.3
2201.5,86.9,52.2,66.5,68.5,17.4
2203.25,86.4,52.5,66.0,68.3,17.1
2205.0,85.6,52.0,65.8,67.8,16.9
2206.75,85.1,52.2,66.0,67.8,16.5
2208.5,83.9,51.6,65.7,67.1,16.2
2210.25,83.7,50.4,64.2,66.1,16.7
2212.0,83.1,50.2,63.8,65.7,16.6
2213.75,83.4,49.0,63.1,65.2,17.3
2215.5,82.1,49.1,61.9,64.4,16.6
2217.25,80.9,50.1,61.6,64.2,15.6
2219.0,81.3,50.2,60.8,64.1,15.8
2220.75,82.7,50.6,59.4,64.2,16.6
2222.5,79.7,50.4,56.8,62.3,15.4
2224.25,80.1,49.7,57.1,62.3,15.8
2226.0,79.9,49.5,55.9,61.8,16.0
2227.75,78.3,48.8,56.4,61.2,15.3
2229.5,77.8,50.1,55.9,61.3,14.6
2231.25,78.7,50.1,55.5,61.4,15.2
2233.0,77.7,50.0,54.9,60.9,14.8
2234.75,77.6,49.5,55.1,60.7,14.9
2236.5,76.1,,55.5,65.8,14.5
2238.25,76.8,,54.6,65.7,15.7
2240.0,76.9,,55.4,66.2,15.2
2241.75,75.8,,54.5,65.2,15.1
2243.5,76.8,,53.8,65.3,16.3
2245.25,76.4,,53.7,65.0,16.1
2247.0,75.2,,53.3,64.2,15.5
2248.75,75.6,,53.0,64.3,16.0
2250.5,75.2,,54.2,64.7,14.9
2252.25,72.8,,53.6,63.2,13.6
2254.0,72.9,,52.9,62.9,14.2
2255.75,73.4,,51.4,62.4,15.5
2257.5,73.1,,51.0,62.1,15.6
2259.25,73.5,,51.0,62.3,15.9
2261.0,71.4,,50.9,61.1,14.4
2262.75,70.5,,50.0,60.2,14.5
2264.5,69.7,,49.6,59.7,14.2
2266.25,69.8,,49.7,59.8,14.2
2268.0,67.2,,49.1,58.1,12.8
2269.75,67.5,,50.0,58.7,12.4
2271.5,66.3,,50.5,58.4,11.2
2273.25,67.2,,51.2,59.2,11.3
2275.0,64.9,,51.7,58.3,9.3
2276.75,64.7,,52.8,58.7,8.4
2278.5,65.0,,53.2,59.1,8.3
2280.25,64.2,,54.0,59.1,7.2
2282.0,64.4,,54.8,59.6,6.8
2283.75,62.9,,55.5,59.2,5.2
2285.5,61.9,,55.2,58.5,4.8
2287.25,62.2,,55.7,59.0,4.6
2289.0,59.9,,55.2,57.5,3.3
2290.75,59.3,,55.5,57.4,2.7
2292.5,60.5,,54.2,57.3,4.5
2294.25,60.8,,52.7,56.7,5.7
2296.0,60.9,,52.0,56.5,6.3
2297.75,60.0,,51.0,55.5,6.3
2299.5,58.6,,51.2,54.9,5.3
2301.25,57.0,,49.7,53.4,5.2
2303.0,56.7,,50.1,53.4,4.7
2304.75,56.1,,50.0,53.0,4.4
2306.5,56.1,,49.3,52.7,4.8
2308.25,56.5,,49.0,52.8,5.2
2310.0,56.4,,49.0,52.7,5.3
2311.75,57.2,,49.4,53.3,5.5
2313.5,56.8,,50.2,53.5,4.7
2315.25,56.7,,50.7,53.7,4.2
2317.0,56.4,,50.1,53.3,4.5
2318.75,55.8,,50.4,53.1,3.8
2320.5,55.1,,50.4,52.8,3.3
2322.25,54.6,,50.7,52.7,2.8
2324.0,54.8,,50.3,52.6,3.2
2325.75,54.5,,50.1,52.3,3.1
2327.5,54.6,,50.1,52.4,3.2
2329.25,53.7,,49.9,51.8,2.6
2331.0,54.3,,49.6,51.9,3.3
2332.75,53.9,,50.0,51.9,2.7
2334.5,54.0,,50.6,52.3,2.4
2336.25,53.8,,50.2,52.0,2.5
2338.0,54.5,,51.2,52.8,2.3
2339.75,53.7,,50.6,52.1,2.2
2341.5,53.0,,50.5,51.7,1.8
2343.25,52.4,,50.5,51.5,1.4
2345.0,51.9,,49.9,50.9,1.4
2346.75,51.4,,49.4,50.4,1.5
2348.5,51.0,,49.7,50.3,0.9
2350.25,51.1,,50.0,50.5,0.7
2352.0,51.2,,50.1,50.7,0.7
2353.75,50.8,,50.5,50.6,0.2
2355.5,51.0,,50.1,50.5,0.6
2357.25,51.3,,50.3,50.8,0.7
2359.0,51.3,,50.1,50.7,0.8
2360.75,51.6,,50.9,51.2,0.5
2362.5,52.1,,49.7,50.9,1.7
2364.25,52.4,,50.8,51.6,1.1
2366.0,52.0,,49.5,50.7,1.8
2367.75,51.9,,49.3,50.6,1.9
2369.5,51.5,,49.5,50.5,1.4
2371.25,50.3,,49.4,49.9,0.7
2373.0,51.5,,50.4,51.0,0.7
2374.75,51.9,,49.7,50.8,1.6
2376.5,52.2,,49.2,50.7,2.2
2378.25,51.3,,49.6,50.4,1.2
2380.0,51.2,,49.5,50.3,1.2
2381.75,51.6,,49.3,50.5,1.6
2383.5,49.8,,49.8,49.8,0.0
2385.25,50.3,,49.2,49.7,0.8
2387.0,49.2,,49.2,49.2,0.0
2388.75,50.4,,49.2,49.8,0.8
2390.5,49.4,,49.0,49.2,0.3
2392.25,49.2,,49.0,49.1,0.1
2394.0,49.2,,48.5,48.9,0.5
2395.75,49.8,,48.7,49.3,0.8
2397.5,49.4,,48.8,49.1,0.4
2399.25,49.8,,49.1,49.4,0.5
2401.0,50.7,,48.3,49.5,1.7
2402.75,49.6,,48.2,48.9,1.0
2404.5,49.8,,48.9,49.3,0.6
2406.25,49.3,,48.4,48.8,0.7
2408.0,49.1,,47.5,48.3,1.1
2409.75,48.3,,47.6,47.9,0.4
2411.5,48.1,,48.6,48.4,0.3
2413.25,47.4,,47.8,47.6,0.3
2415.0,47.7,,48.3,48.0,0.4
2416.75,47.8,,47.5,47.7,0.2
2418.5,47.7,,46.4,47.0,0.9
2420.25,48.0,,46.8,47.4,0.8
2422.0,47.4,,46.9,47.2,0.4
2423.75,47.1,,46.6,46.9,0.3
2425.5,47.3,,46.4,46.9,0.6
2427.25,46.0,,46.1,46.1,0.1
2429.0,46.0,,46.4,46.2,0.2
2430.75,45.9,,47.0,46.4,0.8
2432.5,46.3,,46.3,46.3,0.0
2434.25,47.0,,,47.0,
2436.0,47.0,,,47.0,
2437.75,47.4,,,47.4,
2439.5,47.6,,,47.6,
2441.25,47.5,,,47.5,
2443.0,48.3,,,48.3,
2444.75,48.4,,,48.4,
2446.5,47.7,,,47.7,
2448.25,48.5,,,48.5,
2450.0,48.5,,,48.5,
2451.75,48.5,,,48.5,
2453.5,48.7,,,48.7,
2455.25,49.3,,,49.3,
2457.0,50.1,,,50.1,
2458.75,49.9,,,49.9,
2459.25,50.3,,,50.3,