File: 01_Data/Wood_Stud/Cone/Wood_Stud_HRRPUA_25.csv
Time after Ignition,Wood_Stud_R1,Wood_Stud_R2,Wood_Stud_R3,Mean,Std. Dev.
0.0,12.7,37.1,283.6,111.1,149.8
1.5,30.5,102.6,270.1,134.4,122.9
3.0,81.5,172.5,250.5,168.2,84.6
4.5,156.8,232.0,234.9,207.9,44.3
6.0,225.3,274.2,220.1,239.9,29.8
7.5,262.3,288.1,204.8,251.7,42.6
9.0,280.0,293.2,190.2,254.5,56.0
10.5,277.7,285.8,185.1,249.6,56.0
12.0,268.2,270.1,170.2,236.2,57.1
13.5,257.5,257.4,164.5,226.5,53.7
15.0,241.7,247.7,157.4,215.6,50.5
16.5,233.2,230.3,148.5,204.0,48.1
18.0,216.2,216.5,142.7,191.8,42.5
19.5,206.2,211.1,139.5,185.6,40.0
21.0,196.9,206.6,137.7,180.4,37.3
22.5,184.0,197.1,133.1,171.4,33.8
24.0,177.4,188.9,130.2,165.5,31.1
25.5,172.3,182.6,126.1,160.3,30.1
27.0,164.6,179.3,124.4,156.1,28.4
28.5,158.9,175.2,121.4,151.8,27.6
30.0,152.8,164.2,118.8,145.2,23.6
31.5,148.4,163.2,116.7,142.8,23.8
33.0,146.5,160.7,113.9,140.4,24.0
34.5,139.3,157.4,113.4,136.7,22.1
36.0,140.0,153.4,108.2,133.9,23.2
37.5,135.7,150.9,108.7,131.8,21.4
39.0,133.6,149.9,104.7,129.4,22.9
40.5,129.1,146.1,103.5,126.2,21.4
42.0,127.3,144.7,102.8,124.9,21.1
43.5,123.6,142.4,100.8,122.3,20.9
45.0,122.2,137.7,99.8,119.9,19.1
46.5,120.0,133.7,98.9,117.6,17.6
48.0,116.7,131.0,96.6,114.8,17.2
49.5,114.7,129.6,95.5,113.3,17.1
51.0,114.2,128.5,94.6,112.4,17.0
52.5,110.6,122.1,93.2,108.6,14.6
54.0,110.6,122.5,93.1,108.8,14.8
55.5,109.6,123.5,93.3,108.8,15.1
57.0,109.1,117.5,92.6,106.4,12.7
58.5,107.4,116.7,90.7,104.9,13.2
60.0,105.9,113.6,89.7,103.0,12.2
61.5,103.6,114.4,90.6,102.9,11.9
63.0,103.1,112.6,90.8,102.1,10.9
64.5,102.1,111.7,89.2,101.0,11.3
66.0,101.7,112.6,88.9,101.0,11.9
67.5,98.4,112.0,90.8,100.4,10.7
69.0,96.4,110.2,87.9,98.2,11.2
70.5,97.8,109.3,89.3,98.8,10.0
72.0,97.4,108.8,87.4,97.9,10.7
73.5,95.6,108.6,87.1,97.1,10.9
75.0,94.4,107.0,88.3,96.6,9.6
76.5,93.1,109.2,89.2,97.2,10.6
78.0,92.5,105.9,89.1,95.8,8.9
79.5,90.8,106.2,89.2,95.4,9.4
81.0,89.8,104.4,87.1,93.8,9.3
82.5,88.0,104.7,89.1,93.9,9.3
84.0,86.8,104.1,88.4,93.1,9.5
85.5,84.8,103.4,88.0,92.1,9.9
87.0,85.0,103.4,87.7,92.0,10.0
88.5,83.9,101.5,89.4,91.6,9.0
90.0,83.3,103.2,88.5,91.7,10.3
91.5,82.7,100.9,86.5,90.0,9.6
93.0,81.3,100.6,86.5,89.5,10.0
94.5,81.9,98.8,86.3,89.0,8.8
96.0,81.6,98.5,85.5,88.5,8.8
97.5,81.5,99.0,86.5,89.0,9.0
99.0,80.1,99.2,85.8,88.4,9.8
100.5,81.4,98.1,83.6,87.7,9.1
102.0,79.4,97.6,82.2,86.4,9.8
103.5,78.7,97.3,82.9,86.3,9.8
105.0,79.5,96.6,81.9,86.0,9.3
106.5,79.0,97.2,82.1,86.1,9.8
108.0,78.3,96.5,80.3,85.1,10.0
109.5,77.6,97.4,79.6,84.9,10.9
111.0,76.8,98.1,79.7,84.9,11.5
112.5,76.6,98.7,80.3,85.2,11.8
114.0,75.7,95.9,78.7,83.4,10.9
115.5,75.6,97.3,79.3,84.1,11.6
117.0,74.4,98.1,78.9,83.8,12.6
118.5,73.4,96.7,78.1,82.7,12.3
120.0,74.2,96.3,78.8,83.1,11.6
121.5,73.5,95.0,78.5,82.3,11.3
123.0,72.6,95.6,77.0,81.7,12.2
124.5,71.9,93.7,77.2,80.9,11.4
126.0,71.6,95.5,76.8,81.3,12.6
127.5,72.1,93.5,77.9,81.2,11.0
129.0,71.8,94.4,76.3,80.8,12.0
130.5,71.1,93.9,76.9,80.7,11.9
132.0,70.6,93.0,77.8,80.4,11.4
133.5,70.9,93.0,78.4,80.7,11.3
135.0,70.0,92.3,77.1,79.8,11.4
136.5,70.1,92.9,76.6,79.9,11.8
138.0,68.8,92.2,76.7,79.3,11.9
139.5,69.6,92.7,76.7,79.7,11.8
141.0,68.4,91.5,75.9,78.6,11.8
142.5,68.3,92.4,76.4,79.1,12.3
144.0,67.4,91.3,77.5,78.8,12.0
145.5,66.5,91.0,77.7,78.4,12.3
147.0,66.1,92.0,76.8,78.3,13.0
148.5,65.9,91.4,78.2,78.5,12.8
150.0,66.4,92.1,76.8,78.4,12.9
151.5,65.4,91.4,77.3,78.0,13.0
153.0,65.0,92.7,76.0,77.9,13.9
154.5,64.2,90.6,76.3,77.0,13.2
156.0,65.1,89.4,75.0,76.5,12.2
157.5,64.2,90.8,76.0,77.0,13.4
159.0,63.5,90.0,75.2,76.2,13.3
160.5,63.4,89.5,76.6,76.5,13.1
162.0,63.1,88.9,76.1,76.0,12.9
163.5,63.8,89.7,76.7,76.7,12.9
165.0,63.6,88.4,76.7,76.2,12.4
166.5,63.2,89.2,75.4,76.0,13.0
168.0,63.0,88.3,76.6,75.9,12.7
169.5,63.0,89.5,75.8,76.1,13.2
171.0,62.2,91.2,76.7,76.7,14.5
172.5,62.2,88.5,75.8,75.5,13.2
174.0,62.1,91.4,76.7,76.7,14.7
175.5,61.6,89.4,76.7,75.9,13.9
177.0,62.0,88.5,76.5,75.7,13.3
178.5,61.9,90.5,76.4,76.3,14.3
180.0,61.3,89.0,76.8,75.7,13.9
181.5,61.8,88.6,77.4,75.9,13.5
183.0,60.8,87.5,78.9,75.7,13.6
184.5,61.3,87.7,77.8,75.6,13.3
186.0,60.4,89.5,78.1,76.0,14.7
187.5,60.7,89.1,77.4,75.8,14.3
189.0,61.0,91.5,78.7,77.1,15.3
190.5,61.6,91.6,78.5,77.2,15.1
192.0,59.9,93.2,77.4,76.8,16.7
193.5,60.6,92.8,75.8,76.4,16.1
195.0,59.1,90.0,76.9,75.4,15.5
196.5,59.4,90.5,77.5,75.8,15.6
198.0,58.4,88.8,76.7,74.6,15.3
199.5,57.1,88.5,77.0,74.2,15.9
201.0,57.4,87.2,76.4,73.7,15.1
202.5,57.6,88.6,75.9,74.0,15.6
204.0,57.3,86.5,76.1,73.3,14.8
205.5,57.5,87.8,76.9,74.1,15.3
207.0,58.0,86.4,77.7,74.0,14.6
208.5,57.7,87.1,76.4,73.7,14.9
210.0,57.8,88.1,76.8,74.2,15.3
211.5,57.7,85.9,76.1,73.2,14.3
213.0,57.4,85.6,76.3,73.1,14.4
214.5,57.5,85.1,75.1,72.5,14.0
216.0,57.2,86.0,75.6,72.9,14.6
217.5,58.3,83.5,73.9,71.9,12.7
219.0,58.2,86.2,74.1,72.8,14.1
220.5,58.2,85.2,72.4,71.9,13.5
222.0,58.4,85.4,74.3,72.7,13.6
223.5,57.0,86.4,73.2,72.2,14.7
225.0,57.2,85.2,73.0,71.8,14.1
226.5,56.9,85.1,72.4,71.5,14.1
228.0,57.5,85.5,72.1,71.7,14.0
229.5,55.3,85.8,72.7,71.3,15.3
231.0,56.3,86.4,71.8,71.5,15.1
232.5,56.1,86.9,71.5,71.5,15.4
234.0,55.6,86.4,70.9,70.9,15.4
235.5,55.6,86.8,71.4,71.3,15.6
237.0,55.0,87.0,70.3,70.8,16.0
238.5,54.8,87.3,70.1,70.7,16.2
240.0,54.8,87.1,70.1,70.7,16.1
241.5,54.3,86.1,71.3,70.6,15.9
243.0,54.1,85.9,70.9,70.3,15.9
244.5,54.4,88.2,72.0,71.5,16.9
246.0,53.9,87.4,70.8,70.7,16.7
247.5,53.4,89.1,71.1,71.2,17.8
249.0,54.1,88.0,70.2,70.8,17.0
250.5,53.5,89.3,70.0,70.9,17.9
252.0,53.7,87.3,71.9,71.0,16.8
253.5,54.7,87.5,70.9,71.1,16.4
255.0,53.8,86.0,70.6,70.1,16.1
256.5,54.5,85.9,70.9,70.4,15.7
258.0,54.2,85.4,71.2,70.3,15.7
259.5,54.0,84.9,71.7,70.2,15.5
261.0,53.3,85.3,69.8,69.5,16.0
262.5,53.8,85.7,70.7,70.1,15.9
264.0,53.8,85.3,70.1,69.7,15.7
265.5,54.7,84.9,69.4,69.7,15.1
267.0,54.0,85.3,70.6,70.0,15.6
268.5,54.3,84.8,70.9,70.0,15.2
270.0,54.7,85.8,70.5,70.3,15.5
271.5,54.4,85.5,70.7,70.2,15.5
273.0,55.3,86.5,70.7,70.8,15.6
274.5,56.4,87.6,70.5,71.5,15.6
276.0,55.2,86.0,70.8,70.7,15.4
277.5,55.7,87.7,70.4,71.3,16.0
279.0,54.2,86.4,69.9,70.2,16.1
280.5,55.0,86.3,69.1,70.1,15.7
282.0,55.5,86.3,68.5,70.1,15.5
283.5,54.9,85.7,68.7,69.8,15.5
285.0,55.2,84.4,69.6,69.7,14.6
286.5,55.0,82.7,68.1,68.6,13.8
288.0,54.2,83.1,67.9,68.4,14.5
289.5,53.6,83.3,69.5,68.8,14.8
291.0,54.6,81.9,68.0,68.2,13.7
292.5,54.3,82.2,68.0,68.2,14.0
294.0,53.6,82.6,68.4,68.2,14.5
295.5,54.0,82.5,68.5,68.3,14.2
297.0,54.8,81.9,68.9,68.5,13.6
298.5,54.5,83.2,68.6,68.8,14.4
300.0,54.3,83.7,67.8,68.6,14.8
301.5,54.0,82.9,68.5,68.4,14.5
303.0,54.5,83.6,67.3,68.5,14.6
304.5,54.4,83.5,68.9,68.9,14.5
306.0,54.1,83.4,69.7,69.1,14.7
307.5,53.5,82.5,69.3,68.5,14.5
309.0,54.5,83.0,70.3,69.2,14.3
310.5,54.5,83.7,69.5,69.2,14.6
312.0,54.6,83.3,70.0,69.3,14.3
313.5,55.3,84.2,69.5,69.7,14.4
315.0,55.8,82.9,68.9,69.2,13.6
316.5,56.3,83.3,69.4,69.6,13.5
318.0,56.7,81.9,69.2,69.3,12.6
319.5,56.4,83.2,70.1,69.9,13.4
321.0,55.9,82.2,69.6,69.2,13.1
322.5,57.0,80.4,69.2,68.9,11.7
324.0,56.5,80.8,70.3,69.2,12.2
325.5,57.1,82.0,70.1,69.7,12.5
327.0,56.3,79.6,71.0,69.0,11.8
328.5,56.5,79.4,70.9,68.9,11.6
330.0,55.9,80.2,70.3,68.8,12.2
331.5,55.1,79.7,71.5,68.7,12.5
333.0,54.7,79.9,70.7,68.4,12.8
334.5,54.5,79.3,71.6,68.5,12.7
336.0,55.6,80.5,72.2,69.4,12.7
337.5,55.1,81.0,70.8,69.0,13.0
339.0,55.1,77.8,71.8,68.2,11.7
340.5,55.0,78.4,70.9,68.1,12.0
342.0,55.3,77.3,71.9,68.2,11.4
343.5,55.9,77.0,71.4,68.1,10.9
345.0,56.4,77.9,70.5,68.3,10.9
346.5,56.5,78.2,71.4,68.7,11.1
348.0,57.3,77.4,70.5,68.4,10.2
349.5,56.0,77.2,69.7,67.7,10.8
351.0,55.8,75.5,70.2,67.2,10.2
352.5,55.2,75.8,70.2,67.1,10.7
354.0,56.1,75.4,68.5,66.7,9.8
355.5,55.5,75.2,70.2,67.0,10.3
357.0,56.3,75.6,69.6,67.1,9.9
358.5,55.1,76.4,68.2,66.6,10.7
360.0,55.7,77.2,68.3,67.1,10.8
361.5,55.0,76.6,69.1,66.9,11.0
363.0,54.2,75.4,68.8,66.1,10.8
364.5,53.9,75.5,69.3,66.2,11.1
366.0,53.3,77.4,68.6,66.4,12.2
367.5,53.4,75.7,68.9,66.0,11.4
369.0,53.0,75.4,67.8,65.4,11.4
370.5,53.0,76.0,69.2,66.1,11.8
372.0,53.3,76.5,69.6,66.5,11.9
373.5,53.9,77.3,69.0,66.7,11.9
375.0,53.2,77.3,68.2,66.2,12.2
376.5,52.2,77.0,68.9,66.0,12.6
378.0,51.5,75.9,69.1,65.5,12.6
379.5,52.5,75.7,68.3,65.5,11.8
381.0,51.4,75.5,69.3,65.4,12.5
382.5,51.7,75.7,68.9,65.4,12.4
384.0,51.9,76.4,69.1,65.8,12.6
385.5,51.5,75.5,67.9,65.0,12.3
387.0,51.7,76.3,67.9,65.3,12.5
388.5,51.6,75.6,67.7,64.9,12.2
390.0,52.1,75.5,67.4,65.0,11.8
391.5,52.5,77.2,67.5,65.7,12.5
393.0,53.2,75.4,67.6,65.4,11.3
394.5,54.0,75.2,66.5,65.2,10.7
396.0,54.0,75.2,66.3,65.1,10.6
397.5,55.4,75.0,66.8,65.7,9.9
399.0,55.6,74.0,66.1,65.2,9.2
400.5,56.2,75.2,65.6,65.7,9.5
402.0,55.9,74.8,66.4,65.7,9.5
403.5,56.7,74.2,65.1,65.3,8.8
405.0,55.9,74.8,66.7,65.8,9.5
406.5,56.2,73.7,65.6,65.2,8.8
408.0,55.5,74.4,66.1,65.3,9.5
409.5,54.7,73.4,66.3,64.8,9.4
411.0,54.4,73.2,65.1,64.2,9.4
412.5,54.4,74.4,67.5,65.5,10.1
414.0,54.5,73.8,65.4,64.6,9.7
415.5,53.5,73.8,66.1,64.5,10.3
417.0,53.9,73.4,66.2,64.5,9.8
418.5,53.2,75.1,65.3,64.5,11.0
420.0,52.6,74.7,65.4,64.2,11.1
421.5,53.0,75.3,64.7,64.3,11.2
423.0,53.2,75.3,64.4,64.3,11.0
424.5,53.0,76.1,65.1,64.7,11.5
426.0,52.9,74.4,65.0,64.1,10.8
427.5,53.7,73.7,64.5,64.0,10.0
429.0,54.7,73.7,65.0,64.5,9.5
430.5,55.8,73.2,63.6,64.2,8.7
432.0,56.7,73.7,63.2,64.5,8.6
433.5,57.0,73.9,63.3,64.7,8.5
435.0,57.2,74.4,63.0,64.8,8.7
436.5,56.7,73.8,63.6,64.7,8.6
438.0,56.6,74.4,64.0,65.0,8.9
439.5,55.6,75.1,63.2,64.6,9.8
441.0,55.5,75.5,64.0,65.0,10.0
442.5,54.1,75.5,63.4,64.3,10.7
444.0,54.3,75.4,63.8,64.5,10.6
445.5,54.0,75.2,64.5,64.6,10.6
447.0,53.3,74.6,63.8,63.9,10.6
448.5,53.5,75.7,64.6,64.6,11.1
450.0,53.2,76.1,63.8,64.3,11.5
451.5,53.4,76.5,65.3,65.1,11.6
453.0,53.3,77.0,65.0,65.1,11.9
454.5,52.1,77.6,65.2,65.0,12.8
456.0,52.7,77.3,64.7,64.9,12.3
457.5,52.4,77.2,65.6,65.1,12.4
459.0,51.9,77.5,64.8,64.7,12.8
460.5,51.1,77.9,65.1,64.7,13.4
462.0,51.4,78.0,65.5,65.0,13.3
463.5,50.9,77.2,66.1,64.7,13.2
465.0,50.3,75.9,65.2,63.8,12.9
466.5,49.8,77.3,64.9,64.0,13.8
468.0,49.2,76.4,64.5,63.4,13.7
469.5,49.1,76.7,65.8,63.8,13.9
471.0,49.2,77.0,66.7,64.3,14.1
472.5,49.8,76.2,66.3,64.1,13.3
474.0,48.9,74.0,66.1,63.0,12.8
475.5,49.3,74.4,65.5,63.1,12.8
477.0,49.4,73.2,65.3,62.6,12.1
478.5,49.7,75.7,66.4,63.9,13.2
480.0,49.7,74.2,66.0,63.3,12.5
481.5,49.6,74.2,65.8,63.2,12.5
483.0,50.4,72.7,65.4,62.8,11.4
484.5,50.3,73.4,66.0,63.3,11.8
486.0,51.2,73.0,65.9,63.4,11.1
487.5,50.3,72.1,66.5,63.0,11.3
489.0,50.5,71.9,67.0,63.1,11.2
490.5,50.1,72.1,67.7,63.3,11.6
492.0,50.8,73.0,67.4,63.7,11.5
493.5,51.0,71.1,66.7,62.9,10.6
495.0,52.1,72.6,67.7,64.1,10.7
496.5,52.2,73.2,67.3,64.2,10.8
498.0,52.5,74.4,67.9,64.9,11.2
499.5,52.9,73.7,66.3,64.3,10.5
501.0,53.8,74.5,67.4,65.2,10.5
502.5,53.4,74.2,66.7,64.8,10.5
504.0,54.4,73.0,66.3,64.6,9.4
505.5,54.2,72.6,67.6,64.8,9.5
507.0,53.5,71.2,65.7,63.5,9.1
508.5,53.5,72.1,66.0,63.9,9.5
510.0,53.3,74.1,65.7,64.4,10.5
511.5,51.7,73.4,66.9,64.0,11.1
513.0,50.9,73.3,66.7,63.6,11.5
514.5,51.5,75.6,66.4,64.5,12.2
516.0,51.5,77.0,67.9,65.5,12.9
517.5,53.3,76.7,66.9,65.6,11.8
519.0,53.7,77.0,67.8,66.1,11.8
520.5,54.7,77.4,66.8,66.3,11.4
522.0,54.7,77.6,66.8,66.4,11.5
523.5,54.8,78.5,67.3,66.9,11.9
525.0,54.2,77.9,66.9,66.3,11.9
526.5,55.1,78.3,67.8,67.1,11.6
528.0,53.3,78.2,67.6,66.4,12.5
529.5,53.8,76.8,68.1,66.2,11.6
531.0,52.8,78.4,68.6,66.6,12.9
532.5,53.1,79.6,67.4,66.7,13.3
534.0,52.3,76.7,66.6,65.2,12.3
535.5,51.9,77.1,67.3,65.4,12.7
537.0,52.8,77.6,67.0,65.8,12.4
538.5,52.8,78.3,67.0,66.0,12.8
540.0,53.0,78.9,67.4,66.4,13.0
541.5,52.9,79.5,67.9,66.8,13.3
543.0,53.6,78.2,68.3,66.7,12.3
544.5,54.1,80.0,68.3,67.5,13.0
546.0,54.5,79.6,68.0,67.3,12.6
547.5,54.1,79.5,68.1,67.2,12.7
549.0,54.4,79.1,66.6,66.7,12.4
550.5,53.2,81.0,66.2,66.8,13.9
552.0,52.6,80.0,65.5,66.0,13.7
553.5,52.3,81.7,66.5,66.8,14.7
555.0,51.8,80.7,65.1,65.9,14.4
556.5,51.7,80.9,66.4,66.3,14.6
558.0,52.0,81.8,66.0,66.6,14.9
559.5,50.8,80.7,67.0,66.2,14.9
561.0,50.7,80.8,65.9,65.8,15.0
562.5,50.2,81.2,65.8,65.7,15.5
564.0,49.4,80.5,67.2,65.7,15.6
565.5,49.1,81.2,65.9,65.4,16.1
567.0,48.2,81.4,65.7,65.1,16.6
568.5,48.0,82.1,65.2,65.1,17.1
570.0,47.6,81.3,65.7,64.9,16.9
571.5,47.8,82.4,65.2,65.1,17.3
573.0,46.8,81.4,66.2,64.8,17.4
574.5,46.8,81.3,66.7,64.9,17.3
576.0,45.8,81.4,66.6,64.6,17.9
577.5,45.3,81.1,66.3,64.2,18.0
579.0,44.2,81.7,66.8,64.2,18.8
580.5,44.8,80.8,66.3,64.0,18.1
582.0,44.3,81.3,66.3,64.0,18.6
583.5,44.1,81.0,66.8,64.0,18.6
585.0,43.7,81.2,65.7,63.5,18.9
586.5,43.8,81.3,65.3,63.5,18.8
588.0,43.4,81.3,65.6,63.4,19.1
589.5,43.0,81.7,66.5,63.8,19.5
591.0,43.1,82.5,66.3,64.0,19.8
592.5,42.2,84.0,65.3,63.8,20.9
594.0,43.1,83.9,65.2,64.1,20.4
595.5,44.0,83.5,66.2,64.6,19.8
597.0,45.5,82.7,65.8,64.6,18.6
598.5,46.1,82.3,65.6,64.7,18.1
600.0,46.0,83.9,65.1,65.0,18.9
601.5,45.2,82.4,64.9,64.2,18.6
603.0,45.6,82.6,63.6,63.9,18.5
604.5,45.0,83.8,63.3,64.0,19.4
606.0,46.0,84.5,62.9,64.5,19.3
607.5,46.3,83.8,63.4,64.5,18.8
609.0,46.7,82.8,63.2,64.3,18.1
610.5,45.0,82.9,64.0,63.9,19.0
612.0,45.6,82.2,63.2,63.7,18.3
613.5,46.1,82.3,63.2,63.8,18.1
615.0,46.2,80.4,64.5,63.7,17.1
616.5,46.1,81.5,63.5,63.7,17.7
618.0,46.3,79.4,63.4,63.0,16.6
619.5,46.7,81.3,63.2,63.8,17.3
621.0,46.6,80.1,63.3,63.3,16.7
622.5,47.1,79.7,63.0,63.2,16.3
624.0,46.3,80.3,63.3,63.3,17.0
625.5,47.1,79.4,62.5,63.0,16.2
627.0,47.1,79.4,62.0,62.8,16.2
628.5,46.7,80.6,61.5,62.9,17.0
630.0,47.1,80.4,60.9,62.8,16.7
631.5,47.3,81.0,60.0,62.8,17.0
633.0,47.7,80.3,59.1,62.4,16.5
634.5,47.6,81.4,58.6,62.5,17.2
636.0,47.3,80.7,58.4,62.1,17.0
637.5,47.9,81.7,57.9,62.5,17.4
639.0,47.7,80.1,58.2,62.0,16.5
640.5,47.9,81.5,59.0,62.8,17.1
642.0,47.8,81.2,58.0,62.3,17.1
643.5,49.0,82.9,58.2,63.4,17.6
645.0,48.6,82.7,58.1,63.1,17.6
646.5,47.7,81.4,58.6,62.5,17.2
648.0,47.6,81.2,57.3,62.0,17.3
649.5,47.1,81.0,57.6,61.9,17.4
651.0,46.3,81.2,58.0,61.8,17.7
652.5,47.0,78.5,58.1,61.2,16.0
654.0,45.6,80.4,59.1,61.7,17.5
655.5,46.4,79.1,59.7,61.7,16.4
657.0,45.6,78.8,60.7,61.7,16.6
658.5,45.7,78.2,59.4,61.1,16.3
660.0,46.1,79.3,57.7,61.0,16.9
661.5,45.3,77.7,57.9,60.3,16.3
663.0,46.3,78.1,57.3,60.5,16.2
664.5,46.4,78.8,58.0,61.1,16.4
666.0,46.5,78.5,59.0,61.3,16.1
667.5,47.2,80.2,59.4,62.3,16.7
669.0,47.1,80.2,59.1,62.1,16.8
670.5,47.7,80.7,58.3,62.2,16.8
672.0,46.9,80.2,58.6,61.9,16.9
673.5,48.4,78.1,58.9,61.8,15.1
675.0,48.7,79.3,58.0,62.0,15.7
676.5,49.0,78.4,57.0,61.5,15.2
678.0,48.8,79.1,57.3,61.7,15.6
679.5,48.0,77.5,57.3,60.9,15.1
681.0,48.8,77.5,56.4,60.9,14.9
682.5,48.4,78.1,57.3,61.3,15.2
684.0,48.0,77.7,57.5,61.1,15.2
685.5,47.8,77.3,56.8,60.6,15.1
687.0,48.9,77.5,57.0,61.2,14.8
688.5,48.8,78.4,56.9,61.4,15.3
690.0,49.2,79.3,56.7,61.7,15.7
691.5,49.3,77.0,55.7,60.7,14.5
693.0,48.8,77.4,56.8,61.0,14.8
694.5,48.8,77.4,57.2,61.2,14.7
696.0,48.2,76.7,57.3,60.8,14.6
697.5,48.6,75.7,56.7,60.3,13.9
699.0,48.2,75.3,59.6,61.0,13.6
700.5,49.0,74.9,58.8,60.9,13.1
702.0,50.0,77.0,60.0,62.3,13.7
703.5,48.7,76.8,59.9,61.8,14.1
705.0,49.2,78.0,58.7,62.0,14.7
706.5,49.1,76.4,59.6,61.7,13.8
708.0,48.1,77.2,58.7,61.4,14.7
709.5,47.4,76.2,58.4,60.7,14.5
711.0,47.5,77.2,59.2,61.3,15.0
712.5,48.4,76.1,59.3,61.3,13.9
714.0,47.5,75.8,59.2,60.8,14.2
715.5,47.8,76.7,59.0,61.2,14.6
717.0,48.9,76.6,58.9,61.4,14.0
718.5,48.4,76.1,58.1,60.8,14.1
720.0,49.2,76.0,59.1,61.4,13.6
721.5,48.6,75.3,58.2,60.7,13.5
723.0,48.2,76.0,59.0,61.1,14.0
724.5,48.8,76.2,59.5,61.5,13.8
726.0,48.5,77.6,59.9,62.0,14.7
727.5,48.2,76.7,59.1,61.3,14.4
729.0,48.4,76.9,59.5,61.6,14.4
730.5,47.8,76.3,58.5,60.9,14.4
732.0,47.5,76.6,58.2,60.8,14.7
733.5,47.7,76.9,58.8,61.1,14.7
735.0,46.3,77.9,58.4,60.9,16.0
736.5,47.0,76.1,57.9,60.4,14.7
738.0,47.1,76.4,58.2,60.6,14.8
739.5,47.2,78.1,56.9,60.8,15.8
741.0,46.2,77.4,58.2,60.6,15.7
742.5,46.5,76.8,58.0,60.4,15.3
744.0,46.8,76.8,58.1,60.5,15.2
745.5,47.0,76.3,58.1,60.5,14.8
747.0,47.1,76.4,58.8,60.8,14.8
748.5,47.3,76.0,58.1,60.4,14.5
750.0,47.0,75.1,58.3,60.1,14.2
751.5,47.4,75.3,58.1,60.2,14.1
753.0,46.9,75.2,58.6,60.2,14.2
754.5,46.7,76.0,57.5,60.1,14.8
756.0,46.1,75.6,59.4,60.4,14.8
757.5,46.5,75.2,59.2,60.3,14.4
759.0,45.9,75.9,59.1,60.3,15.0
760.5,45.5,75.2,58.9,59.9,14.9
762.0,46.0,76.4,58.7,60.3,15.3
763.5,45.1,75.6,58.6,59.8,15.3
765.0,44.9,76.2,59.2,60.1,15.6
766.5,44.2,76.2,59.1,59.8,16.0
768.0,44.3,75.2,59.9,59.8,15.5
769.5,43.9,75.5,59.0,59.5,15.8
771.0,43.9,75.4,57.7,59.0,15.7
772.5,43.2,74.9,56.8,58.3,15.9
774.0,42.6,74.7,56.4,57.9,16.1
775.5,43.0,73.7,54.6,57.1,15.5
777.0,43.2,73.0,53.9,56.7,15.1
778.5,44.2,73.2,53.4,57.0,14.8
780.0,44.0,73.8,53.3,57.1,15.3
781.5,44.4,76.1,54.4,58.3,16.2
783.0,44.3,74.1,54.3,57.6,15.2
784.5,45.0,75.0,54.5,58.2,15.3
786.0,44.4,76.6,55.2,58.7,16.4
787.5,45.3,76.2,53.6,58.4,16.0
789.0,44.9,77.2,54.9,59.0,16.5
790.5,44.8,76.6,54.4,58.6,16.3
792.0,44.5,78.1,54.0,58.8,17.4
793.5,45.5,78.3,53.0,58.9,17.2
795.0,45.1,79.0,52.4,58.8,17.8
796.5,45.8,80.5,53.0,59.8,18.3
798.0,45.8,80.7,53.8,60.1,18.3
799.5,45.5,80.5,53.3,59.7,18.4
801.0,45.0,81.5,53.1,59.9,19.2
802.5,44.9,80.4,52.4,59.2,18.7
804.0,45.7,81.3,52.3,59.8,19.0
805.5,45.7,79.4,51.7,58.9,18.0
807.0,45.8,79.3,52.3,59.2,17.8
808.5,46.5,79.3,52.2,59.3,17.5
810.0,46.2,79.5,52.0,59.2,17.8
811.5,46.8,79.4,51.7,59.3,17.6
813.0,47.1,79.1,50.8,59.0,17.5
814.5,46.9,79.2,51.5,59.2,17.5
816.0,46.7,79.1,52.7,59.5,17.2
817.5,47.1,78.9,51.4,59.1,17.2
819.0,47.2,79.8,52.4,59.8,17.5
820.5,47.7,80.5,52.4,60.2,17.8
822.0,49.0,79.1,52.0,60.0,16.6
823.5,47.9,78.3,51.6,59.3,16.6
825.0,46.7,78.5,51.4,58.9,17.2
826.5,46.3,77.6,51.7,58.5,16.7
828.0,44.4,77.3,51.4,57.7,17.4
829.5,44.0,76.7,51.5,57.4,17.1
831.0,44.5,75.7,52.3,57.5,16.3
832.5,43.5,75.6,51.2,56.8,16.7
834.0,43.9,75.6,51.1,56.9,16.6
835.5,43.3,74.2,50.6,56.0,16.1
837.0,43.7,73.7,50.6,56.0,15.7
838.5,42.9,73.6,51.1,55.9,15.9
840.0,43.1,74.2,51.2,56.2,16.1
841.5,43.7,74.1,51.8,56.5,15.7
843.0,44.6,75.9,52.3,57.6,16.3
844.5,45.6,76.8,52.1,58.2,16.5
846.0,46.5,77.4,52.2,58.7,16.4
847.5,46.2,79.1,52.4,59.2,17.5
849.0,46.6,79.3,52.0,59.3,17.5
850.5,46.3,76.8,52.1,58.4,16.2
852.0,46.5,76.5,51.6,58.2,16.1
853.5,47.1,77.0,51.0,58.4,16.3
855.0,47.2,78.6,51.2,59.0,17.1
856.5,47.8,78.5,50.9,59.1,16.9
858.0,47.4,78.2,49.5,58.4,17.2
859.5,47.1,77.4,49.5,58.0,16.8
861.0,46.7,75.9,49.5,57.3,16.1
862.5,46.0,77.4,49.7,57.7,17.2
864.0,45.7,76.4,49.3,57.1,16.8
865.5,45.2,77.5,49.8,57.5,17.5
867.0,44.3,76.9,50.7,57.3,17.3
868.5,44.7,77.4,51.1,57.7,17.4
870.0,43.9,76.9,52.1,57.6,17.2
871.5,43.2,76.2,52.2,57.2,17.1
873.0,43.1,75.3,51.6,56.7,16.7
874.5,44.2,73.3,51.3,56.3,15.2
876.0,43.0,74.0,50.9,56.0,16.1
877.5,43.9,74.0,50.5,56.1,15.8
879.0,43.6,73.5,52.2,56.5,15.4
880.5,42.8,74.9,51.6,56.4,16.6
882.0,43.0,74.4,52.0,56.5,16.2
883.5,43.4,76.0,51.8,57.1,16.9
885.0,42.8,75.5,51.9,56.7,16.8
886.5,42.9,76.2,51.1,56.7,17.4
888.0,42.9,76.5,51.7,57.0,17.4
889.5,42.3,76.7,50.4,56.5,18.0
891.0,41.8,77.3,50.3,56.5,18.6
892.5,41.5,76.8,51.3,56.5,18.2
894.0,41.0,78.0,51.3,56.8,19.1
895.5,41.2,76.5,51.8,56.5,18.1
897.0,40.4,77.4,51.3,56.4,19.0
898.5,40.1,76.7,51.3,56.0,18.7
900.0,40.3,76.4,50.4,55.7,18.7
901.5,40.8,75.0,49.9,55.2,17.7
903.0,39.8,74.8,50.6,55.1,17.9
904.5,40.7,76.4,50.6,55.9,18.4
906.0,41.5,75.8,51.6,56.3,17.7
907.5,42.5,75.5,51.8,56.6,17.0
909.0,42.7,75.9,52.2,56.9,17.1
910.5,42.6,76.1,51.7,56.8,17.3
912.0,43.0,75.9,52.0,57.0,17.0
913.5,44.4,77.1,51.4,57.6,17.2
915.0,43.1,78.5,51.5,57.7,18.5
916.5,42.6,77.7,51.4,57.3,18.3
918.0,42.1,79.8,51.1,57.7,19.6
919.5,42.0,77.6,51.7,57.1,18.4
921.0,41.3,78.2,51.5,57.0,19.1
922.5,41.4,77.2,50.9,56.5,18.5
924.0,40.3,77.6,50.9,56.2,19.2
925.5,40.7,74.9,51.3,55.6,17.5
927.0,40.5,76.7,50.8,56.0,18.7
928.5,40.4,75.9,51.3,55.9,18.2
930.0,39.6,75.3,50.3,55.1,18.3
931.5,39.8,76.4,51.1,55.8,18.7
933.0,40.3,75.9,50.5,55.6,18.4
934.5,40.6,76.3,50.6,55.8,18.4
936.0,41.2,75.8,51.3,56.1,17.8
937.5,41.8,77.3,51.0,56.7,18.4
939.0,41.0,78.1,50.3,56.5,19.3
940.5,41.1,79.5,50.6,57.1,20.0
942.0,41.4,78.8,50.5,56.9,19.5
943.5,42.3,79.2,50.9,57.5,19.3
945.0,42.0,79.1,49.9,57.0,19.6
946.5,41.6,77.7,50.5,56.6,18.8
948.0,43.0,77.8,51.6,57.5,18.1
949.5,42.0,76.4,51.0,56.5,17.8
951.0,42.1,76.8,51.1,56.7,18.0
952.5,41.4,77.1,50.6,56.4,18.5
954.0,41.4,76.2,50.4,56.0,18.0
955.5,41.0,75.2,50.6,55.6,17.6
957.0,40.4,76.2,49.8,55.5,18.6
958.5,40.4,74.8,50.6,55.2,17.7
960.0,40.2,75.1,50.8,55.4,17.9
961.5,40.2,73.7,50.2,54.7,17.2
963.0,40.2,74.5,50.4,55.0,17.7
964.5,39.8,73.2,50.3,54.4,17.1
966.0,40.0,73.5,50.0,54.5,17.2
967.5,39.8,73.5,49.3,54.2,17.4
969.0,39.6,73.1,49.3,54.0,17.2
970.5,40.2,73.4,50.8,54.8,16.9
972.0,39.7,73.6,50.2,54.5,17.3
973.5,40.4,72.2,50.2,54.3,16.3
975.0,40.8,71.4,50.3,54.2,15.7
976.5,40.8,72.0,50.4,54.4,16.0
978.0,40.7,71.4,49.7,54.0,15.8
979.5,40.1,72.1,49.9,54.0,16.4
981.0,40.6,71.5,49.7,53.9,15.9
982.5,41.1,71.5,49.3,53.9,15.7
984.0,40.9,72.3,49.7,54.3,16.2
985.5,41.6,73.6,49.3,54.8,16.7
987.0,41.3,72.5,49.4,54.4,16.2
988.5,41.2,73.1,49.4,54.6,16.6
990.0,41.1,72.9,49.8,54.6,16.4
991.5,40.9,72.1,49.2,54.0,16.2
993.0,41.4,71.7,49.9,54.3,15.6
994.5,41.5,71.2,49.8,54.2,15.3
996.0,41.4,71.5,49.6,54.2,15.5
997.5,42.4,71.8,48.9,54.4,15.5
999.0,42.0,71.1,48.3,53.8,15.3
1000.5,42.0,69.5,47.9,53.1,14.5
1002.0,42.5,69.4,48.3,53.4,14.1
1003.5,42.8,69.1,48.0,53.3,13.9
1005.0,41.8,69.1,47.0,52.6,14.5
1006.5,42.8,68.0,47.3,52.7,13.5
1008.0,42.5,69.0,46.4,52.6,14.3
1009.5,42.4,68.3,46.1,52.3,14.0
1011.0,41.9,68.8,45.7,52.1,14.6
1012.5,42.2,68.5,45.7,52.1,14.3
1014.0,42.5,67.6,46.3,52.2,13.5
1015.5,41.6,67.0,46.7,51.7,13.4
1017.0,42.1,65.6,47.0,51.6,12.4
1018.5,41.3,65.4,47.8,51.5,12.5
1020.0,41.6,64.6,47.6,51.3,11.9
1021.5,41.1,63.6,47.5,50.7,11.6
1023.0,40.8,62.8,47.2,50.3,11.3
1024.5,41.0,63.4,47.0,50.5,11.6
1026.0,41.0,62.6,47.7,50.4,11.0
1027.5,41.4,62.4,47.2,50.3,10.8
1029.0,41.4,62.4,47.1,50.3,10.9
1030.5,41.2,61.4,47.4,50.0,10.3
1032.0,41.7,61.1,46.9,49.9,10.0
1033.5,41.5,61.4,45.9,49.6,10.4
1035.0,42.1,61.9,44.8,49.6,10.7
1036.5,41.6,61.8,45.3,49.5,10.8
1038.0,41.3,62.0,44.8,49.4,11.1
1039.5,40.6,62.1,45.3,49.3,11.3
1041.0,42.2,62.7,44.8,49.9,11.1
1042.5,41.2,63.8,44.5,49.8,12.2
1044.0,41.3,62.3,44.7,49.4,11.3
1045.5,41.5,62.3,45.2,49.6,11.1
1047.0,42.4,62.3,44.8,49.8,10.8
1048.5,42.1,61.1,43.9,49.0,10.5
1050.0,42.5,60.7,43.1,48.8,10.3
1051.5,42.9,60.6,43.0,48.8,10.2
1053.0,43.0,62.3,42.9,49.4,11.2
1054.5,42.5,62.0,42.7,49.1,11.2
1056.0,42.1,63.4,43.1,49.5,12.0
1057.5,42.3,64.0,43.6,50.0,12.2
1059.0,41.3,62.7,43.3,49.1,11.8
1060.5,41.9,62.6,43.8,49.4,11.4
1062.0,41.8,62.5,43.8,49.4,11.4
1063.5,41.8,60.9,44.4,49.0,10.4
1065.0,42.1,62.2,44.7,49.7,10.9
1066.5,41.3,62.3,44.6,49.4,11.3
1068.0,41.9,62.8,45.1,49.9,11.3
1069.5,41.1,62.7,45.3,49.7,11.5
1071.0,41.4,63.6,45.4,50.1,11.8
1072.5,42.6,61.6,44.7,49.6,10.4
1074.0,43.1,62.3,43.8,49.7,10.8
1075.5,43.0,61.5,44.2,49.5,10.3
1077.0,43.2,61.3,43.1,49.2,10.5
1078.5,43.3,60.9,42.5,48.9,10.4
1080.0,43.7,59.8,43.4,49.0,9.3
1081.5,44.0,59.8,42.4,48.8,9.6
1083.0,44.2,59.8,42.8,49.0,9.4
1084.5,44.2,59.1,43.6,49.0,8.8
1086.0,44.2,60.4,43.9,49.5,9.5
1087.5,44.3,61.1,42.9,49.4,10.1
1089.0,44.7,61.1,42.4,49.4,10.2
1090.5,45.7,61.2,42.8,49.9,9.9
1092.0,45.6,62.2,42.5,50.1,10.6
1093.5,45.3,62.3,42.6,50.1,10.7
1095.0,46.8,61.5,42.0,50.1,10.2
1096.5,45.9,61.3,41.8,49.7,10.3
1098.0,45.2,62.5,41.8,49.8,11.1
1099.5,45.5,61.0,41.9,49.5,10.2
1101.0,44.8,59.9,41.5,48.7,9.8
1102.5,45.4,60.0,41.5,49.0,9.7
1104.0,45.6,60.9,42.1,49.5,10.0
1105.5,46.2,60.6,42.2,49.7,9.7
1107.0,45.6,61.3,42.0,49.6,10.3
1108.5,45.1,60.5,42.7,49.4,9.6
1110.0,46.0,61.0,42.5,49.8,9.8
1111.5,46.7,61.3,42.3,50.1,10.0
1113.0,47.4,61.8,42.8,50.7,9.9
1114.5,47.0,61.4,43.0,50.5,9.7
1116.0,47.1,60.6,41.9,49.9,9.7
1117.5,47.4,61.3,41.9,50.2,10.0
1119.0,46.8,61.2,41.4,49.8,10.2
1120.5,46.3,60.3,41.4,49.3,9.8
1122.0,46.2,59.8,41.5,49.1,9.5
1123.5,46.7,59.8,40.9,49.1,9.7
1125.0,46.3,58.2,41.2,48.6,8.8
1126.5,46.4,57.5,41.7,48.5,8.1
1128.0,45.5,57.1,40.7,47.8,8.4
1129.5,45.0,58.8,40.1,48.0,9.7
1131.0,45.3,58.2,39.9,47.8,9.4
1132.5,44.6,59.3,40.1,48.0,10.0
1134.0,45.4,59.2,41.3,48.6,9.4
1135.5,45.3,59.6,41.6,48.8,9.5
1137.0,44.8,60.1,41.6,48.8,9.9
1138.5,44.4,59.1,41.8,48.4,9.3
1140.0,44.9,59.2,41.3,48.4,9.5
1141.5,45.6,60.4,41.2,49.1,10.1
1143.0,45.6,60.8,40.8,49.1,10.4
1144.5,46.2,60.6,41.0,49.3,10.2
1146.0,46.5,60.3,41.0,49.3,9.9
1147.5,46.8,59.7,40.7,49.1,9.7
1149.0,46.9,60.1,41.4,49.5,9.6
1150.5,47.1,59.5,40.5,49.0,9.6
1152.0,46.9,60.5,39.7,49.0,10.6
1153.5,46.1,60.2,39.1,48.4,10.7
1155.0,45.9,60.8,39.7,48.8,10.9
1156.5,46.0,60.5,39.8,48.8,10.6
1158.0,45.6,59.8,40.3,48.6,10.1
1159.5,46.1,59.8,41.0,49.0,9.7
1161.0,46.6,58.7,39.8,48.4,9.6
1162.5,46.1,58.9,40.4,48.4,9.5
1164.0,45.8,58.1,40.0,48.0,9.3
1165.5,45.0,58.4,38.9,47.5,10.0
1167.0,44.9,58.8,39.3,47.7,10.0
1168.5,44.7,59.0,38.9,47.5,10.4
1170.0,44.8,59.2,38.6,47.5,10.6
1171.5,45.3,60.5,38.8,48.2,11.1
1173.0,45.6,61.0,39.3,48.6,11.1
1174.5,45.5,60.7,38.6,48.3,11.3
1176.0,45.2,61.0,38.9,48.3,11.4
1177.5,44.8,61.3,39.5,48.5,11.4
1179.0,44.8,60.4,39.7,48.3,10.8
1180.5,45.1,60.7,39.9,48.5,10.8
1182.0,44.9,59.8,39.3,48.0,10.6
1183.5,45.8,61.8,39.0,48.8,11.7
1185.0,45.1,60.6,39.0,48.3,11.2
1186.5,45.4,60.0,38.4,47.9,11.0
1188.0,45.2,60.2,39.2,48.2,10.8
1189.5,45.0,58.7,39.7,47.8,9.8
1191.0,46.6,59.7,39.5,48.6,10.2
1192.5,46.1,59.3,39.4,48.3,10.1
1194.0,46.1,58.8,39.0,47.9,10.0
1195.5,46.3,58.9,38.3,47.8,10.4
1197.0,45.4,58.6,38.6,47.5,10.1
1198.5,46.5,58.3,38.7,47.8,9.9
1200.0,46.8,58.8,39.4,48.3,9.8
1201.5,47.1,59.9,39.6,48.9,10.2
1203.0,48.0,59.9,39.8,49.2,10.1
1204.5,48.3,59.2,39.3,48.9,9.9
1206.0,48.2,59.8,39.7,49.2,10.1
1207.5,47.1,58.9,40.3,48.8,9.4
1209.0,47.4,59.4,40.3,49.1,9.7
1210.5,47.0,58.5,41.0,48.8,8.9
1212.0,46.7,59.4,40.4,48.8,9.7
1213.5,47.3,56.4,41.4,48.4,7.6
1215.0,48.4,57.5,42.5,49.5,7.5
1216.5,48.1,56.5,42.8,49.1,6.9
1218.0,48.2,56.8,43.1,49.4,6.9
1219.5,48.3,55.4,43.4,49.1,6.0
1221.0,47.9,57.0,43.7,49.6,6.8
1222.5,48.6,57.9,43.6,50.0,7.2
1224.0,49.2,58.8,43.4,50.5,7.8
1225.5,48.4,58.9,43.4,50.2,7.9
1227.0,49.0,58.0,43.3,50.1,7.4
1228.5,49.1,58.9,43.0,50.3,8.0
1230.0,48.8,59.3,43.6,50.6,8.0
1231.5,49.3,58.3,44.2,50.6,7.2
1233.0,49.1,58.8,44.8,50.9,7.2
1234.5,49.2,58.5,45.5,51.1,6.7
1236.0,48.7,58.7,44.5,50.6,7.3
1237.5,48.3,57.3,44.8,50.1,6.5
1239.0,47.5,57.5,44.6,49.9,6.8
1240.5,46.6,57.6,45.2,49.8,6.8
1242.0,47.2,57.0,44.6,49.6,6.6
1243.5,47.2,56.2,44.7,49.4,6.1
1245.0,46.7,55.2,44.8,48.9,5.5
1246.5,47.6,55.4,44.7,49.2,5.5
1248.0,47.4,55.1,44.7,49.0,5.4
1249.5,48.2,54.8,44.5,49.2,5.2
1251.0,49.3,55.2,44.3,49.6,5.5
1252.5,50.1,55.7,43.9,49.9,5.9
1254.0,49.4,55.5,42.9,49.3,6.3
1255.5,49.3,55.1,42.3,48.9,6.4
1257.0,48.5,56.0,42.2,48.9,6.9
1258.5,48.6,56.5,42.8,49.3,6.9
1260.0,48.2,56.4,42.6,49.1,6.9
1261.5,48.0,57.1,42.9,49.3,7.2
1263.0,47.9,56.4,40.9,48.4,7.8
1264.5,47.9,57.9,41.1,49.0,8.5
1266.0,47.5,56.5,40.4,48.2,8.1
1267.5,46.8,57.5,40.3,48.2,8.7
1269.0,47.1,57.1,40.4,48.2,8.4
1270.5,46.5,55.5,40.3,47.4,7.6
1272.0,47.4,56.8,40.4,48.2,8.2
1273.5,47.0,56.4,40.3,47.9,8.1
1275.0,48.0,57.4,41.8,49.1,7.8
1276.5,48.7,57.1,42.9,49.6,7.2
1278.0,49.1,56.4,42.9,49.5,6.8
1279.5,48.5,56.8,42.7,49.3,7.1
1281.0,48.3,56.7,43.0,49.3,6.9
1282.5,48.0,57.1,43.1,49.4,7.1
1284.0,48.2,57.6,43.3,49.7,7.3
1285.5,48.3,57.1,44.4,49.9,6.5
1287.0,47.9,56.7,44.5,49.7,6.3
1288.5,48.2,56.1,44.6,49.6,5.9
1290.0,48.6,55.9,45.1,49.8,5.5
1291.5,48.0,54.7,45.5,49.4,4.7
1293.0,48.4,55.5,46.2,50.0,4.8
1294.5,49.0,56.4,46.4,50.6,5.2
1296.0,48.3,56.7,46.7,50.6,5.4
1297.5,48.8,57.7,46.2,50.9,6.1
1299.0,48.8,58.1,45.6,50.9,6.5
1300.5,49.7,58.9,46.3,51.6,6.5
1302.0,49.3,59.5,45.8,51.6,7.1
1303.5,48.2,59.0,45.9,51.0,7.0
1305.0,48.2,59.1,45.5,51.0,7.2
1306.5,47.4,58.4,45.6,50.5,6.9
1308.0,49.0,58.3,45.9,51.1,6.5
1309.5,48.8,58.4,45.4,50.9,6.8
1311.0,48.7,59.3,45.1,51.0,7.4
1312.5,49.7,59.7,44.8,51.4,7.6
1314.0,49.8,60.7,45.2,51.9,8.0
1315.5,50.0,59.8,44.5,51.4,7.7
1317.0,49.7,59.4,44.7,51.3,7.5
1318.5,50.0,59.8,44.7,51.5,7.7
1320.0,51.0,59.7,45.5,52.1,7.2
1321.5,51.0,59.8,46.2,52.3,6.9
1323.0,51.3,61.0,47.1,53.2,7.1
1324.5,50.5,61.1,47.6,53.1,7.1
1326.0,50.5,60.9,47.5,53.0,7.1
1327.5,51.2,61.0,48.7,53.6,6.5
1329.0,49.6,61.5,49.4,53.5,6.9
1330.5,49.5,61.5,49.6,53.6,6.9
1332.0,48.7,62.3,49.8,53.6,7.6
1333.5,47.6,62.4,49.3,53.1,8.1
1335.0,47.9,63.9,50.0,53.9,8.7
1336.5,47.3,64.1,49.5,53.6,9.2
1338.0,49.0,64.8,49.0,54.3,9.1
1339.5,48.8,64.1,49.6,54.1,8.6
1341.0,48.7,63.8,48.7,53.7,8.7
1342.5,49.8,64.6,49.0,54.5,8.8
1344.0,49.6,63.9,49.2,54.3,8.4
1345.5,48.7,63.6,48.0,53.5,8.8
1347.0,48.5,62.9,47.3,52.9,8.7
1348.5,47.8,62.4,46.9,52.4,8.7
1350.0,49.0,62.4,46.8,52.7,8.4
1351.5,47.9,63.2,46.4,52.5,9.3
1353.0,48.3,62.8,45.8,52.3,9.2
1354.5,47.9,63.5,45.4,52.3,9.8
1356.0,47.6,62.4,45.8,51.9,9.1
1357.5,46.8,61.7,45.5,51.3,9.0
1359.0,47.0,62.9,45.1,51.7,9.8
1360.5,45.8,61.7,44.7,50.7,9.5
1362.0,45.5,61.3,45.3,50.7,9.2
1363.5,45.8,61.6,45.6,51.0,9.2
1365.0,45.9,60.9,45.7,50.8,8.7
1366.5,45.8,60.1,46.0,50.7,8.2
1368.0,45.8,61.3,46.6,51.2,8.7
1369.5,46.2,61.9,47.0,51.7,8.9
1371.0,46.6,62.3,47.2,52.1,8.9
1372.5,47.3,62.6,46.7,52.2,9.0
1374.0,48.5,62.6,47.3,52.8,8.5
1375.5,48.3,63.0,47.7,53.0,8.7
1377.0,48.2,62.5,48.0,52.9,8.3
1378.5,48.7,60.9,48.7,52.8,7.0
1380.0,48.9,60.8,48.6,52.8,6.9
1381.5,48.8,60.9,48.2,52.6,7.2
1383.0,49.0,62.2,48.3,53.2,7.8
1384.5,48.9,62.3,48.6,53.3,7.8
1386.0,49.2,63.4,47.6,53.4,8.7
1387.5,49.1,62.7,47.7,53.2,8.3
1389.0,49.5,63.1,47.9,53.5,8.3
1390.5,48.3,63.8,47.8,53.3,9.1
1392.0,48.2,63.7,48.1,53.3,9.0
1393.5,47.6,64.4,47.4,53.1,9.8
1395.0,47.6,64.4,47.0,53.0,9.9
1396.5,47.2,65.4,47.0,53.2,10.6
1398.0,46.8,64.2,46.8,52.6,10.1
1399.5,46.2,64.4,46.7,52.4,10.4
1401.0,45.5,66.4,46.8,52.9,11.7
1402.5,46.1,66.7,47.5,53.4,11.5
1404.0,46.1,66.4,46.9,53.1,11.5
1405.5,47.2,66.1,46.7,53.3,11.1
1407.0,47.3,65.5,46.6,53.2,10.7
1408.5,47.6,66.1,46.4,53.3,11.0
1410.0,47.5,66.1,44.8,52.8,11.6
1411.5,47.5,65.6,46.0,53.0,10.9
1413.0,46.8,66.4,45.3,52.8,11.8
1414.5,45.6,66.8,46.3,52.9,12.0
1416.0,46.1,66.3,45.2,52.5,11.9
1417.5,45.3,66.6,45.0,52.3,12.4
1419.0,45.2,66.5,44.8,52.2,12.4
1420.5,45.4,67.6,44.6,52.5,13.1
1422.0,46.2,67.0,45.5,52.9,12.2
1423.5,45.6,65.9,45.7,52.4,11.7
1425.0,45.6,66.3,45.9,52.6,11.9
1426.5,45.7,65.5,45.9,52.4,11.3
1428.0,46.1,64.6,46.4,52.4,10.6
1429.5,46.8,65.4,46.9,53.0,10.7
1431.0,47.2,65.5,46.2,53.0,10.9
1432.5,48.4,64.0,46.4,52.9,9.6
1434.0,47.1,63.5,46.6,52.4,9.6
1435.5,46.8,63.1,46.8,52.2,9.4
1437.0,45.9,62.6,46.2,51.6,9.5
1438.5,45.3,61.7,45.6,50.9,9.4
1440.0,45.0,60.6,45.7,50.4,8.8
1441.5,44.5,61.2,45.4,50.4,9.4
1443.0,44.0,61.9,45.7,50.5,9.9
1444.5,43.5,62.0,45.9,50.4,10.1
1446.0,43.0,61.2,46.1,50.1,9.7
1447.5,43.0,61.4,45.4,49.9,10.0
1449.0,42.6,61.0,44.2,49.3,10.2
1450.5,42.8,61.0,44.4,49.4,10.1
1452.0,42.3,61.7,45.2,49.7,10.5
1453.5,42.9,62.0,44.4,49.7,10.7
1455.0,43.7,61.8,44.4,50.0,10.3
1456.5,44.7,61.5,44.4,50.2,9.8
1458.0,45.1,61.0,45.4,50.5,9.1
1459.5,45.7,62.4,45.9,51.3,9.6
1461.0,46.3,61.8,45.4,51.2,9.3
1462.5,45.9,61.0,44.9,50.6,9.0
1464.0,45.1,60.6,45.2,50.3,8.9
1465.5,44.2,61.1,44.9,50.1,9.5
1467.0,43.9,62.0,45.2,50.3,10.1
1468.5,43.8,60.2,44.3,49.4,9.3
1470.0,43.9,60.3,44.7,49.6,9.2
1471.5,44.0,59.9,43.9,49.3,9.2
1473.0,44.1,59.5,43.3,49.0,9.1
1474.5,44.0,58.8,43.8,48.9,8.6
1476.0,45.5,58.7,44.6,49.6,7.9
1477.5,45.9,59.6,44.5,50.0,8.3
1479.0,46.4,59.2,44.3,50.0,8.0
1480.5,46.4,59.9,44.9,50.4,8.3
1482.0,45.2,59.6,44.6,49.8,8.5
1483.5,45.5,61.2,44.7,50.5,9.3
1485.0,45.8,60.8,44.6,50.4,9.0
1486.5,44.9,60.8,44.8,50.2,9.2
1488.0,45.8,61.7,44.7,50.7,9.5
1489.5,44.1,59.9,45.6,49.9,8.7
1491.0,44.0,59.8,44.8,49.5,8.9
1492.5,44.1,60.7,45.1,49.9,9.3
1494.0,43.1,59.1,44.7,49.0,8.8
1495.5,43.1,60.8,44.8,49.6,9.8
1497.0,41.8,60.2,44.6,48.9,9.9
1498.5,42.0,61.4,44.7,49.4,10.5
1500.0,42.3,61.2,44.2,49.2,10.4
1501.5,42.3,61.1,45.0,49.5,10.2
1503.0,42.2,60.5,44.5,49.1,9.9
1504.5,41.5,60.7,44.5,48.9,10.3
1506.0,43.0,60.3,44.4,49.2,9.6
1507.5,42.7,61.2,43.8,49.3,10.4
1509.0,42.9,60.9,44.6,49.4,9.9
1510.5,42.3,61.7,44.9,49.6,10.5
1512.0,42.7,61.6,44.8,49.7,10.3
1513.5,42.3,61.3,44.6,49.4,10.4
1515.0,41.8,61.2,45.4,49.5,10.3
1516.5,42.2,61.1,45.9,49.7,10.0
1518.0,41.4,60.3,45.2,49.0,10.0
1519.5,41.2,60.5,45.8,49.2,10.1
1521.0,40.9,60.8,44.6,48.7,10.6
1522.5,40.4,59.5,44.9,48.3,10.0
1524.0,40.1,59.6,43.9,47.9,10.3
1525.5,39.6,59.2,44.1,47.6,10.3
1527.0,39.9,60.5,44.2,48.2,10.9
1528.5,39.7,60.8,44.1,48.2,11.1
1530.0,39.6,60.9,44.3,48.3,11.2
1531.5,39.9,60.5,43.6,48.0,11.0
1533.0,40.4,60.8,43.7,48.3,10.9
1534.5,41.4,61.5,42.6,48.5,11.3
1536.0,41.0,60.6,42.6,48.1,10.9
1537.5,39.8,59.9,42.3,47.3,10.9
1539.0,39.0,59.2,42.9,47.0,10.7
1540.5,37.8,59.9,42.4,46.7,11.7
1542.0,37.0,60.0,42.3,46.4,12.1
1543.5,37.1,60.4,41.9,46.5,12.3
1545.0,37.0,60.1,42.8,46.6,12.0
1546.5,36.5,60.4,42.1,46.3,12.5
1548.0,36.9,59.6,42.4,46.3,11.8
1549.5,38.0,60.0,42.7,46.9,11.6
1551.0,37.2,59.7,42.7,46.5,11.7
1552.5,37.7,60.5,42.3,46.9,12.0
1554.0,37.6,60.2,43.8,47.2,11.7
1555.5,37.4,61.4,43.3,47.4,12.5
1557.0,37.0,62.5,43.1,47.5,13.3
1558.5,37.0,62.0,43.2,47.4,13.1
1560.0,36.2,61.2,43.1,46.8,12.9
1561.5,36.8,61.6,43.6,47.4,12.9
1563.0,37.8,61.9,43.0,47.6,12.7
1564.5,38.0,62.0,43.3,47.8,12.6
1566.0,37.5,61.9,42.8,47.4,12.9
1567.5,37.0,61.4,42.0,46.8,12.9
1569.0,37.4,61.6,42.6,47.2,12.8
1570.5,37.8,61.2,43.3,47.4,12.2
1572.0,37.5,61.1,43.6,47.4,12.2
1573.5,37.0,61.1,43.0,47.1,12.5
1575.0,37.5,60.5,43.1,47.0,12.0
1576.5,37.6,60.9,43.1,47.2,12.2
1578.0,37.8,62.1,42.7,47.5,12.8
1579.5,38.4,62.3,42.6,47.8,12.8
1581.0,38.1,61.5,42.6,47.4,12.4
1582.5,38.1,62.7,41.5,47.4,13.3
1584.0,38.9,61.3,41.6,47.3,12.3
1585.5,39.0,61.4,41.6,47.3,12.2
1587.0,38.2,61.0,41.1,46.8,12.4
1588.5,38.1,62.1,40.9,47.0,13.1
1590.0,38.9,61.2,39.8,46.6,12.6
1591.5,38.2,61.0,39.5,46.3,12.8
1593.0,38.0,60.8,39.6,46.1,12.7
1594.5,37.9,60.7,40.0,46.2,12.6
1596.0,38.6,61.5,40.0,46.7,12.9
1597.5,38.8,61.0,40.3,46.7,12.4
1599.0,39.0,61.8,40.2,47.0,12.8
1600.5,38.3,61.3,39.9,46.5,12.8
1602.0,38.6,60.0,40.0,46.2,12.0
1603.5,38.4,60.7,40.5,46.5,12.3
1605.0,39.0,62.0,39.5,46.8,13.1
1606.5,37.3,62.4,40.4,46.7,13.7
1608.0,37.9,62.5,41.0,47.1,13.4
1609.5,36.9,63.1,40.7,46.9,14.1
1611.0,37.4,63.1,40.5,47.0,14.0
1612.5,36.5,63.0,40.8,46.8,14.2
1614.0,36.8,63.0,40.7,46.8,14.2
1615.5,36.3,63.5,40.6,46.8,14.6
1617.0,36.3,63.0,39.8,46.4,14.5
1618.5,36.3,62.2,40.2,46.3,14.0
1620.0,35.9,62.1,39.8,45.9,14.2
1621.5,36.2,62.5,39.3,46.0,14.3
1623.0,37.2,63.7,40.3,47.1,14.5
1624.5,37.0,63.9,40.0,47.0,14.7
1626.0,37.0,63.3,39.6,46.6,14.5
1627.5,36.4,62.2,39.6,46.1,14.1
1629.0,36.8,63.1,40.1,46.7,14.3
1630.5,36.7,61.8,39.7,46.1,13.7
1632.0,36.2,62.5,39.6,46.1,14.3
1633.5,36.3,62.7,39.7,46.2,14.3
1635.0,36.1,63.6,39.1,46.3,15.1
1636.5,35.9,62.9,39.4,46.1,14.7
1638.0,35.7,63.2,39.6,46.2,14.9
1639.5,36.0,63.2,39.0,46.1,14.9
1641.0,35.6,63.9,39.5,46.3,15.3
1642.5,35.7,63.5,40.2,46.5,14.9
1644.0,35.4,64.1,39.5,46.3,15.5
1645.5,35.6,64.4,39.4,46.5,15.6
1647.0,36.0,64.8,39.0,46.6,15.8
1648.5,36.2,65.4,39.2,46.9,16.1
1650.0,36.6,65.6,39.6,47.3,15.9
1651.5,36.5,65.1,40.0,47.2,15.6
1653.0,36.8,65.4,39.4,47.2,15.8
1654.5,36.8,65.9,39.4,47.3,16.1
1656.0,36.6,64.8,39.4,47.0,15.5
1657.5,36.9,65.3,39.4,47.2,15.7
1659.0,36.6,65.5,39.1,47.1,16.0
1660.5,36.4,66.9,39.4,47.6,16.8
1662.0,36.3,66.1,40.5,47.6,16.1
1663.5,36.2,64.7,39.8,46.9,15.5
1665.0,35.1,65.5,39.1,46.6,16.5
1666.5,35.1,66.1,39.6,46.9,16.7
1668.0,34.7,66.9,39.9,47.2,17.3
1669.5,34.4,66.7,39.1,46.8,17.4
1671.0,34.7,66.4,39.2,46.8,17.1
1672.5,34.3,66.1,39.5,46.6,17.1
1674.0,34.4,65.5,40.1,46.7,16.6
1675.5,33.5,66.0,39.6,46.4,17.3
1677.0,33.0,66.4,39.7,46.4,17.7
1678.5,32.9,67.1,39.4,46.5,18.2
1680.0,32.6,66.2,40.0,46.3,17.7
1681.5,33.2,66.6,39.4,46.4,17.7
1683.0,33.6,66.0,39.5,46.4,17.2
1684.5,33.2,65.9,40.9,46.6,17.1
1686.0,33.5,65.9,40.2,46.5,17.1
1687.5,33.7,64.2,40.4,46.1,16.0
1689.0,34.3,64.2,40.6,46.4,15.8
1690.5,34.2,63.5,41.2,46.3,15.3
1692.0,34.4,63.1,40.0,45.8,15.2
1693.5,34.5,63.9,39.3,45.9,15.8
1695.0,35.2,63.5,39.5,46.1,15.2
1696.5,36.4,63.3,39.9,46.5,14.6
1698.0,36.0,63.0,40.1,46.3,14.5
1699.5,36.0,63.1,39.6,46.2,14.7
1701.0,35.7,64.2,39.5,46.5,15.5
1702.5,35.3,64.7,39.8,46.6,15.8
1704.0,35.7,64.1,39.7,46.5,15.4
1705.5,35.7,63.7,39.3,46.2,15.2
1707.0,35.0,64.1,39.9,46.4,15.6
1708.5,36.1,63.2,40.3,46.5,14.6
1710.0,35.6,63.4,40.1,46.4,14.9
1711.5,34.9,63.0,40.1,46.0,14.9
1713.0,34.9,63.1,39.7,45.9,15.1
1714.5,35.5,63.0,39.9,46.2,14.7
1716.0,35.1,63.2,39.9,46.1,15.0
1717.5,35.1,62.8,39.8,45.9,14.8
1719.0,33.6,62.5,41.1,45.7,15.0
1720.5,33.6,64.2,40.7,46.2,16.0
1722.0,33.8,64.5,40.6,46.3,16.1
1723.5,33.8,64.3,41.0,46.3,15.9
1725.0,33.5,64.2,40.6,46.1,16.1
1726.5,33.5,64.1,40.3,46.0,16.1
1728.0,33.9,64.3,39.8,46.0,16.1
1729.5,33.8,64.8,40.9,46.5,16.2
1731.0,33.5,66.1,41.3,47.0,17.0
1732.5,33.4,66.7,40.8,47.0,17.5
1734.0,33.1,67.7,41.6,47.5,18.0
1735.5,32.4,68.1,41.3,47.2,18.6
1737.0,33.0,68.2,40.6,47.3,18.5
1738.5,32.6,68.0,41.1,47.2,18.5
1740.0,33.3,66.7,41.1,47.0,17.5
1741.5,33.1,66.4,40.7,46.7,17.4
1743.0,33.0,64.6,41.0,46.2,16.4
1744.5,32.9,63.4,40.7,45.7,15.8
1746.0,32.4,62.6,40.6,45.2,15.6
1747.5,32.5,63.9,40.3,45.6,16.3
1749.0,32.6,63.1,40.5,45.4,15.8
1750.5,32.7,62.1,40.8,45.2,15.2
1752.0,33.3,63.2,40.8,45.8,15.6
1753.5,33.7,63.2,40.6,45.9,15.4
1755.0,34.5,63.0,41.5,46.3,14.9
1756.5,34.4,62.8,40.1,45.8,15.0
1758.0,34.5,61.9,40.7,45.7,14.4
1759.5,34.3,62.6,39.7,45.5,15.0
1761.0,34.6,63.0,40.2,45.9,15.0
1762.5,34.3,62.4,39.3,45.4,15.0
1764.0,34.2,63.2,39.6,45.7,15.4
1765.5,34.3,63.1,40.0,45.8,15.2
1767.0,33.6,64.0,39.8,45.8,16.1
1768.5,33.7,63.1,40.0,45.6,15.5
1770.0,34.1,63.6,39.3,45.7,15.7
1771.5,33.7,63.9,40.1,45.9,15.9
1773.0,34.6,64.1,39.8,46.2,15.8
1774.5,34.2,63.6,40.5,46.1,15.5
1776.0,34.4,64.2,40.5,46.4,15.7
1777.5,34.6,64.6,41.2,46.8,15.8
1779.0,35.0,65.4,40.9,47.1,16.2
1780.5,34.9,65.8,40.7,47.1,16.4
1782.0,34.7,65.1,41.1,47.0,16.1
1783.5,34.9,64.6,40.3,46.6,15.8
1785.0,34.9,63.9,41.3,46.7,15.3
1786.5,33.8,64.0,41.5,46.4,15.7
1788.0,33.6,63.6,41.2,46.2,15.6
1789.5,33.9,64.7,41.6,46.7,16.0
1791.0,33.5,65.4,41.5,46.8,16.6
1792.5,33.9,65.1,41.2,46.7,16.3
1794.0,33.4,66.1,41.1,46.8,17.1
1795.5,33.6,64.9,41.8,46.7,16.2
1797.0,33.9,66.1,41.2,47.1,16.9
1798.5,33.8,65.6,41.6,47.0,16.6
1800.0,33.9,67.3,41.8,47.6,17.4
1801.5,34.0,66.6,41.7,47.4,17.0
1803.0,33.5,67.4,41.8,47.6,17.7
1804.5,33.4,69.0,42.2,48.2,18.5
1806.0,33.7,67.7,42.2,47.9,17.7
1807.5,34.3,68.8,42.3,48.5,18.1
1809.0,34.4,68.0,42.0,48.1,17.6
1810.5,33.8,66.8,42.1,47.6,17.2
1812.0,34.9,68.9,42.3,48.7,17.9
1813.5,34.3,67.7,42.6,48.2,17.4
1815.0,34.0,68.2,42.6,48.3,17.8
1816.5,33.0,69.3,42.4,48.2,18.8
1818.0,32.9,69.3,42.2,48.2,18.9
1819.5,32.2,69.6,42.1,48.0,19.3
1821.0,32.1,69.2,42.2,47.8,19.2
1822.5,32.5,68.7,42.5,47.9,18.7
1824.0,32.7,68.4,42.3,47.8,18.5
1825.5,33.0,68.2,42.0,47.8,18.3
1827.0,33.3,67.8,42.4,47.8,17.9
1828.5,33.0,67.4,42.1,47.5,17.8
1830.0,33.4,66.4,41.8,47.2,17.2
1831.5,33.1,67.4,41.4,47.3,17.9
1833.0,32.7,66.3,41.2,46.7,17.4
1834.5,32.5,66.6,41.4,46.8,17.7
1836.0,32.5,67.7,41.1,47.1,18.3
1837.5,32.1,67.8,40.9,46.9,18.6
1839.0,32.0,68.0,40.8,47.0,18.8
1840.5,33.0,68.5,40.9,47.5,18.7
1842.0,32.3,68.2,41.0,47.1,18.7
1843.5,32.1,67.7,41.2,47.0,18.5
1845.0,32.5,67.5,40.4,46.8,18.3
1846.5,32.4,68.0,40.8,47.1,18.6
1848.0,32.1,68.6,41.3,47.3,19.0
1849.5,31.6,67.3,40.8,46.6,18.6
1851.0,31.7,68.6,40.7,47.0,19.3
1852.5,31.9,69.8,40.1,47.3,20.0
1854.0,31.9,69.7,39.9,47.2,19.9
1855.5,32.5,69.2,40.3,47.3,19.4
1857.0,32.6,70.3,40.1,47.7,20.0
1858.5,33.0,69.7,39.7,47.5,19.5
1860.0,33.1,68.4,39.2,46.9,18.9
1861.5,33.7,69.4,39.1,47.4,19.2
1863.0,33.6,69.8,39.6,47.7,19.4
1864.5,33.7,69.8,39.5,47.6,19.4
1866.0,33.4,69.6,40.2,47.7,19.2
1867.5,33.9,70.2,41.0,48.4,19.2
1869.0,33.4,69.9,41.5,48.3,19.1
1870.5,33.2,70.4,42.1,48.5,19.4
1872.0,33.6,70.6,43.5,49.2,19.2
1873.5,31.7,69.9,44.1,48.5,19.5
1875.0,31.9,71.7,44.0,49.2,20.4
1876.5,32.3,70.7,45.3,49.4,19.5
1878.0,32.7,70.6,46.4,49.9,19.2
1879.5,32.1,70.4,47.4,50.0,19.3
1881.0,32.5,70.3,48.8,50.5,19.0
1882.5,32.7,70.3,49.1,50.7,18.8
1884.0,33.0,69.8,48.2,50.4,18.5
1885.5,33.0,70.9,46.9,50.3,19.2
1887.0,32.5,71.3,46.3,50.0,19.6
1888.5,32.8,69.8,45.2,49.3,18.8
1890.0,32.5,69.6,45.3,49.1,18.8
1891.5,31.9,70.4,44.7,49.0,19.6
1893.0,31.5,70.5,44.2,48.7,19.9
1894.5,30.2,70.3,43.8,48.1,20.4
1896.0,28.7,70.6,43.9,47.7,21.2
1897.5,26.9,70.5,43.8,47.1,22.0
1899.0,26.5,70.0,44.1,46.9,21.9
1900.5,26.3,69.4,42.6,46.1,21.8
1902.0,25.7,70.1,42.0,45.9,22.5
1903.5,25.8,69.8,42.5,46.0,22.2
1905.0,25.7,69.1,42.5,45.7,21.9
1906.5,25.6,69.6,42.3,45.8,22.2
1908.0,26.1,68.2,42.6,45.7,21.2
1909.5,26.5,68.2,44.2,46.3,20.9
1911.0,26.7,67.6,43.6,46.0,20.5
1912.5,26.6,66.9,43.7,45.7,20.2
1914.0,26.6,67.1,44.4,46.0,20.3
1915.5,26.8,67.8,43.9,46.2,20.6
1917.0,26.8,67.4,44.7,46.3,20.4
1918.5,26.9,68.2,44.2,46.4,20.8
1920.0,27.2,69.9,44.3,47.1,21.5
1921.5,27.3,70.3,44.0,47.2,21.7
1923.0,27.6,70.3,44.0,47.3,21.5
1924.5,27.5,70.5,44.4,47.5,21.7
1926.0,27.9,70.2,44.0,47.4,21.3
1927.5,27.9,71.0,44.0,47.6,21.7
1928.5,27.4,71.3,44.5,47.7,22.1