File: 01_Data/Straw/MCC/Straw_MCC_30K_min_220318_R3.txt
Sample ID:	C:\MCC\MCC Cal\Test\Straw_MCC_30K_220318_R3.txt
Sample Weight (mg):	4.63
Heating Rate (C/s):	0.5
Combustor Temp (C):	900
N2 Flow Rate (cc/min):	80
O2 Flow Rate (cc/min):	20
Calibration File:	C:\MCC\MCC Cal\Coeff1 JN10440_30_210304.txt.txt
T Correction Coefficients:	0	1.024463	0
Time Shift (s):	14
*
Time (s)	Temperature (C)	N2 flow rate (cc/min)	O2 flow rate (cc/min)	Flow Rate (cc/min)	Oxygen (%)	HRR (W/g)	Heating rate (C/s)
0.000	112.550	80.003	19.994	103.741	20.044	0.151	0.021
1.500	112.553	80.005	19.994	103.741	20.046	0.048	0.003
3.000	112.527	80.004	19.993	103.741	20.049	-0.205	-0.024
4.500	112.502	80.005	19.995	103.738	20.048	-0.083	-0.019
6.000	112.547	80.005	19.995	103.738	20.044	0.172	0.015
7.500	112.551	80.004	19.994	103.738	20.043	0.261	0.012
9.001	112.552	80.004	19.994	103.735	20.046	0.025	0.004
10.500	112.544	80.004	19.993	103.672	20.044	0.139	-0.010
12.001	112.542	80.005	19.995	103.698	20.045	0.112	-0.001
13.500	112.565	80.006	19.993	103.833	20.044	0.178	0.010
15.000	112.561	80.005	19.994	103.843	20.038	0.553	0.016
16.500	112.592	80.008	19.994	103.823	20.035	0.808	0.004
18.000	112.643	80.005	19.994	103.842	20.032	0.980	0.027
19.500	112.646	80.007	19.994	103.847	20.028	1.266	0.001
21.000	112.738	80.007	19.993	103.854	20.022	1.671	0.046
22.500	112.848	80.006	19.994	103.876	20.023	1.632	0.059
24.000	112.947	80.004	19.994	103.826	20.020	1.845	0.055
25.501	113.074	80.005	19.994	103.825	20.018	2.012	0.068
27.000	113.196	80.002	19.994	103.958	20.016	2.105	0.079
28.500	113.319	80.003	19.994	103.959	20.015	2.223	0.090
30.001	113.504	80.002	19.993	103.922	20.011	2.476	0.126
31.500	113.686	80.004	19.996	103.933	20.012	2.389	0.119
33.000	113.868	80.003	19.995	103.929	20.007	2.730	0.143
34.500	114.101	80.002	19.993	103.932	20.011	2.441	0.159
36.000	114.319	80.003	19.994	103.943	20.008	2.656	0.127
37.500	114.615	80.003	19.994	103.951	20.009	2.643	0.215
39.000	114.846	80.003	19.995	103.943	20.005	2.925	0.169
40.500	115.098	80.005	19.995	103.935	20.006	2.831	0.183
42.000	115.437	80.003	19.995	103.941	20.008	2.686	0.232
43.500	115.703	80.001	19.995	103.945	20.003	3.028	0.189
45.000	116.014	80.003	19.995	103.935	20.003	3.008	0.209
46.501	116.364	80.004	19.994	103.934	20.003	3.048	0.247
48.000	116.675	80.005	19.995	103.935	20.005	2.888	0.217
49.501	117.069	80.001	19.994	103.935	20.005	2.928	0.244
51.000	117.450	80.002	19.995	103.952	20.004	2.967	0.248
52.500	117.805	80.004	19.994	103.954	20.003	3.027	0.237
54.001	118.201	80.001	19.994	103.953	20.002	3.098	0.261
55.501	118.542	80.003	19.995	103.969	20.000	3.220	0.236
57.000	118.997	80.002	19.994	103.972	20.002	3.116	0.278
58.500	119.362	80.001	19.995	103.976	20.002	3.096	0.247
60.000	119.820	80.000	19.995	103.976	20.002	3.092	0.303
61.500	120.255	80.001	19.994	103.975	20.001	3.157	0.305
63.000	120.719	80.001	19.994	103.971	20.004	2.982	0.308
64.500	121.182	80.002	19.995	103.965	20.004	2.971	0.312
66.001	121.619	80.002	19.994	103.965	20.006	2.820	0.299
67.501	122.128	80.002	19.996	103.965	19.999	3.325	0.346
69.000	122.613	80.004	19.995	103.959	20.003	3.050	0.335
70.500	123.146	80.002	19.995	103.953	20.005	2.905	0.372
72.000	123.628	80.005	19.995	103.970	20.004	2.990	0.342
73.500	124.106	80.003	19.995	103.966	20.004	2.940	0.309
75.000	124.686	80.005	19.995	103.966	20.003	3.009	0.361
76.500	125.193	80.004	19.995	103.969	20.002	3.104	0.332
78.000	125.742	80.006	19.995	103.968	20.001	3.195	0.377
79.500	126.247	80.005	19.995	103.969	20.003	3.027	0.340
81.001	126.775	80.003	19.994	103.968	20.003	3.044	0.349
82.501	127.324	80.004	19.994	103.963	20.001	3.164	0.352
84.001	127.878	80.004	19.993	103.967	19.999	3.288	0.351
85.501	128.516	80.004	19.994	103.971	20.001	3.195	0.410
87.000	129.062	80.005	19.994	103.972	20.001	3.174	0.361
88.501	129.672	80.005	19.994	103.972	20.003	3.025	0.387
90.000	130.198	80.005	19.994	103.969	20.002	3.120	0.366
91.501	130.851	80.005	19.994	103.971	20.001	3.209	0.427
93.000	131.426	80.006	19.994	103.967	20.000	3.246	0.370
94.501	132.048	80.005	19.994	103.964	20.002	3.132	0.379
96.000	132.636	80.005	19.994	103.969	20.004	2.990	0.391
97.500	133.259	80.006	19.994	103.971	20.003	3.052	0.411
99.001	133.886	80.007	19.994	103.972	20.002	3.089	0.399
100.501	134.522	80.005	19.994	103.973	19.999	3.308	0.419
102.000	135.124	80.005	19.994	103.972	20.003	3.023	0.427
103.500	135.799	80.005	19.993	103.973	20.002	3.116	0.447
105.000	136.423	80.004	19.993	103.972	20.001	3.187	0.428
106.500	137.049	80.008	19.994	103.978	20.002	3.104	0.420
108.000	137.734	80.005	19.993	103.976	20.000	3.265	0.462
109.500	138.383	80.002	19.994	103.973	20.002	3.077	0.426
111.000	139.041	80.004	19.994	103.974	19.999	3.289	0.422
112.500	139.707	80.002	19.994	103.975	20.003	3.031	0.438
114.001	140.392	80.003	19.993	103.976	20.004	2.973	0.455
115.500	141.082	80.003	19.994	103.966	20.002	3.093	0.470
117.000	141.762	80.005	19.994	103.968	20.005	2.913	0.446
118.501	142.450	80.005	19.994	103.973	20.002	3.097	0.450
120.001	143.147	80.004	19.994	103.975	20.003	3.027	0.475
121.500	143.809	80.003	19.993	103.975	20.003	3.056	0.454
123.001	144.555	80.002	19.993	103.977	20.001	3.151	0.481
124.501	145.219	80.003	19.995	103.973	20.003	3.019	0.444
126.000	145.925	80.005	19.994	103.971	20.002	3.094	0.467
127.501	146.649	80.003	19.993	103.975	20.001	3.176	0.486
129.000	147.290	80.003	19.994	103.975	20.002	3.127	0.435
130.500	148.052	80.001	19.993	103.975	20.005	2.862	0.513
132.000	148.738	80.002	19.995	103.973	20.004	2.998	0.462
133.500	149.505	80.002	19.994	103.972	20.004	2.965	0.504
135.000	150.189	80.003	19.996	103.964	20.001	3.164	0.442
136.500	150.893	80.002	19.995	103.959	19.999	3.344	0.451
138.000	151.619	80.003	19.995	103.967	20.004	2.951	0.482
139.500	152.351	80.002	19.995	103.967	20.000	3.233	0.509
141.000	153.092	80.003	19.995	103.951	20.002	3.102	0.482
142.500	153.839	80.003	19.995	103.957	20.002	3.096	0.506
144.000	154.535	80.004	19.996	103.964	20.001	3.170	0.478
145.500	155.258	80.002	19.995	103.962	20.005	2.901	0.505
147.000	155.907	80.004	19.995	103.963	20.003	3.053	0.430
148.500	156.704	80.003	19.995	103.969	20.002	3.100	0.500
150.000	157.429	80.003	19.994	103.954	20.003	3.038	0.488
151.500	158.176	80.005	19.995	103.945	20.004	2.974	0.490
153.000	158.894	80.004	19.994	103.958	20.001	3.170	0.475
154.500	159.625	80.005	19.995	103.964	19.999	3.323	0.479
156.000	160.360	80.005	19.995	103.963	19.999	3.327	0.480
157.500	161.141	80.004	19.995	103.951	19.997	3.471	0.507
159.000	161.884	80.004	19.995	103.961	20.002	3.123	0.493
160.500	162.603	80.003	19.994	103.960	20.000	3.212	0.472
162.000	163.297	80.004	19.995	103.963	20.001	3.175	0.472
163.500	164.095	80.003	19.996	103.964	20.001	3.196	0.521
165.000	164.827	80.004	19.995	103.961	20.002	3.140	0.481
166.500	165.593	80.003	19.995	103.964	20.002	3.076	0.543
168.000	166.347	80.004	19.996	103.949	20.005	2.914	0.482
169.500	167.055	80.003	19.997	103.947	20.006	2.824	0.489
171.000	167.822	80.002	19.995	103.962	20.007	2.774	0.484
172.500	168.588	80.003	19.996	103.944	20.006	2.852	0.518
174.000	169.294	80.004	19.995	103.936	20.001	3.144	0.491
175.500	170.072	80.004	19.994	103.935	20.003	3.003	0.501
177.000	170.812	80.005	19.994	103.936	20.003	3.034	0.503
178.500	171.527	80.006	19.994	103.936	20.000	3.248	0.501
180.000	172.307	80.007	19.994	103.934	19.997	3.473	0.501
181.500	173.091	80.006	19.993	103.933	20.002	3.103	0.519
183.000	173.827	80.005	19.993	103.937	19.999	3.314	0.496
184.500	174.598	80.005	19.993	103.936	20.001	3.144	0.534
186.000	175.356	80.004	19.994	103.933	20.000	3.223	0.501
187.500	176.080	80.003	19.995	103.934	20.001	3.173	0.480
189.000	176.849	80.004	19.995	103.935	20.001	3.188	0.519
190.500	177.586	80.003	19.994	103.936	20.001	3.192	0.492
192.000	178.302	80.003	19.995	103.934	20.001	3.173	0.485
193.500	179.059	80.002	19.994	103.934	20.000	3.217	0.521
195.000	179.798	80.003	19.993	103.936	19.999	3.293	0.478
196.500	180.539	80.004	19.995	103.936	19.999	3.287	0.496
198.000	181.314	80.003	19.995	103.936	20.000	3.248	0.506
199.500	182.053	80.004	19.994	103.935	20.000	3.223	0.495
201.000	182.813	80.003	19.994	103.930	19.997	3.461	0.517
202.500	183.542	80.003	19.995	103.927	19.997	3.447	0.475
204.000	184.277	80.003	19.994	103.929	20.000	3.236	0.486
205.500	185.021	80.003	19.995	103.931	19.997	3.454	0.473
207.000	185.836	80.004	19.994	103.933	19.996	3.510	0.550
208.500	186.553	80.002	19.995	103.929	19.998	3.363	0.502
210.000	187.301	80.002	19.995	103.927	19.996	3.529	0.498
211.500	188.102	80.005	19.995	103.931	19.996	3.537	0.527
213.000	188.779	80.005	19.994	103.927	19.993	3.746	0.471
214.500	189.523	80.004	19.994	103.917	19.993	3.755	0.495
216.000	190.225	80.004	19.994	103.925	19.993	3.705	0.451
217.500	190.970	80.003	19.995	103.930	19.989	4.019	0.487
219.000	191.726	80.003	19.994	103.930	19.992	3.804	0.500
220.500	192.478	80.002	19.994	103.930	19.989	4.007	0.496
222.000	193.177	80.004	19.994	103.932	19.988	4.063	0.464
223.500	193.879	80.003	19.995	103.931	19.987	4.181	0.443
225.000	194.642	80.002	19.995	103.929	19.987	4.143	0.519
226.500	195.352	80.003	19.994	103.927	19.985	4.271	0.476
228.000	196.081	80.003	19.995	103.925	19.986	4.220	0.492
229.500	196.852	80.003	19.997	103.926	19.988	4.081	0.518
231.000	197.585	80.004	19.996	103.932	19.986	4.208	0.483
232.500	198.297	80.004	19.995	103.933	19.985	4.300	0.492
234.000	199.047	80.003	19.995	103.931	19.983	4.466	0.489
235.500	199.707	80.004	19.995	103.930	19.980	4.667	0.472
237.000	200.430	80.004	19.994	103.934	19.980	4.664	0.476
238.500	201.182	80.004	19.993	103.929	19.977	4.822	0.513
240.000	201.927	80.004	19.995	103.924	19.972	5.196	0.506
241.500	202.652	80.004	19.995	103.929	19.972	5.212	0.510
243.000	203.378	80.003	19.995	103.935	19.972	5.241	0.491
244.500	204.125	80.004	19.994	103.934	19.969	5.450	0.493
246.000	204.846	80.005	19.994	103.933	19.967	5.583	0.490
247.500	205.545	80.004	19.995	103.934	19.963	5.839	0.467
249.000	206.258	80.003	19.995	103.931	19.963	5.866	0.461
250.500	206.982	80.003	19.995	103.936	19.963	5.804	0.472
252.000	207.741	80.004	19.995	103.941	19.962	5.920	0.482
253.500	208.437	80.004	19.995	103.938	19.961	5.994	0.484
255.000	209.151	80.003	19.994	103.937	19.958	6.195	0.489
256.500	209.901	80.005	19.995	103.938	19.953	6.563	0.494
258.000	210.596	80.004	19.996	103.936	19.951	6.683	0.479
259.500	211.359	80.004	19.994	103.935	19.948	6.855	0.516
261.000	212.070	80.005	19.995	103.937	19.951	6.660	0.472
262.500	212.796	80.006	19.994	103.934	19.946	7.060	0.474
264.000	213.540	80.006	19.996	103.933	19.945	7.107	0.499
265.500	214.272	80.006	19.995	103.936	19.942	7.305	0.479
267.000	215.016	80.005	19.995	103.940	19.938	7.612	0.484
268.501	215.751	80.003	19.995	103.935	19.933	7.940	0.494
270.000	216.467	80.003	19.995	103.939	19.934	7.842	0.455
271.500	217.189	80.003	19.995	103.940	19.929	8.248	0.490
273.000	217.931	80.003	19.995	103.936	19.929	8.205	0.476
274.500	218.654	80.002	19.995	103.939	19.928	8.312	0.474
276.000	219.411	80.003	19.995	103.939	19.926	8.461	0.507
277.500	220.158	80.003	19.993	103.939	19.923	8.665	0.500
279.000	220.891	80.003	19.994	103.941	19.920	8.862	0.484
280.500	221.611	80.004	19.995	103.951	19.919	8.900	0.488
282.000	222.315	80.003	19.995	103.945	19.916	9.149	0.471
283.500	223.068	80.003	19.993	103.944	19.915	9.208	0.509
285.000	223.836	80.004	19.995	103.950	19.912	9.382	0.515
286.500	224.551	80.004	19.994	103.948	19.910	9.530	0.489
288.000	225.317	80.004	19.995	103.936	19.904	9.937	0.507
289.500	226.079	80.002	19.995	103.943	19.903	10.045	0.521
291.000	226.815	80.004	19.995	103.958	19.901	10.175	0.527
292.500	227.530	80.005	19.995	103.957	19.899	10.316	0.488
294.000	228.305	80.004	19.994	103.945	19.895	10.620	0.525
295.500	229.033	80.003	19.995	103.937	19.894	10.658	0.481
297.000	229.802	80.004	19.994	103.950	19.891	10.855	0.516
298.500	230.557	80.004	19.994	103.958	19.893	10.750	0.491
300.000	231.303	80.003	19.995	103.956	19.891	10.909	0.506
301.500	232.050	80.003	19.994	103.949	19.890	10.954	0.475
303.000	232.809	80.004	19.992	103.961	19.887	11.169	0.483
304.500	233.550	80.004	19.994	103.960	19.885	11.311	0.506
306.000	234.290	80.002	19.994	103.945	19.884	11.348	0.485
307.500	235.001	80.002	19.995	103.953	19.883	11.450	0.467
309.000	235.790	80.005	19.995	103.954	19.881	11.586	0.513
310.500	236.523	80.003	19.994	103.953	19.880	11.685	0.504
312.000	237.288	80.002	19.994	103.962	19.879	11.746	0.519
313.500	238.044	80.004	19.993	103.963	19.881	11.583	0.524
315.000	238.748	80.004	19.995	103.944	19.878	11.789	0.481
316.500	239.484	80.003	19.994	103.944	19.874	12.065	0.492
318.000	240.257	80.004	19.994	103.948	19.872	12.196	0.498
319.500	240.971	80.004	19.993	103.942	19.872	12.181	0.487
321.000	241.739	80.003	19.995	103.948	19.871	12.303	0.516
322.500	242.476	80.005	19.994	103.948	19.871	12.271	0.485
324.000	243.265	80.004	19.996	103.938	19.869	12.402	0.529
325.500	244.039	80.004	19.996	103.941	19.865	12.732	0.494
327.000	244.753	80.004	19.995	103.950	19.870	12.348	0.483
328.500	245.461	80.004	19.994	103.948	19.868	12.477	0.491
330.000	246.207	80.002	19.994	103.941	19.864	12.773	0.512
331.500	246.987	80.004	19.994	103.935	19.863	12.855	0.504
333.000	247.692	80.005	19.995	103.941	19.859	13.131	0.452
334.500	248.453	80.005	19.995	103.943	19.855	13.377	0.500
336.000	249.225	80.004	19.995	103.948	19.860	13.077	0.516
337.500	250.043	80.005	19.993	103.949	19.854	13.450	0.545
339.000	250.765	80.005	19.995	103.958	19.856	13.342	0.482
340.500	251.522	80.006	19.994	103.955	19.852	13.650	0.498
342.000	252.271	80.005	19.993	103.944	19.849	13.804	0.510
343.500	252.981	80.007	19.993	103.945	19.848	13.871	0.445
345.000	253.678	80.006	19.996	103.945	19.842	14.295	0.478
346.500	254.456	80.004	19.994	103.957	19.838	14.582	0.525
348.000	255.158	80.005	19.995	103.958	19.839	14.560	0.462
349.500	255.936	80.003	19.995	103.955	19.838	14.566	0.502
351.000	256.674	80.004	19.997	103.964	19.828	15.307	0.486
352.500	257.434	80.002	19.996	103.956	19.831	15.102	0.474
354.000	258.156	80.004	19.994	103.964	19.827	15.402	0.485
355.500	258.918	80.003	19.997	103.967	19.826	15.462	0.521
357.000	259.648	80.003	19.996	103.965	19.819	15.925	0.499
358.500	260.370	80.003	19.995	103.962	19.817	16.100	0.480
360.000	261.083	80.003	19.995	103.966	19.811	16.483	0.458
361.500	261.807	80.001	19.995	103.970	19.809	16.601	0.493
363.000	262.553	80.003	19.996	103.971	19.806	16.875	0.497
364.500	263.273	80.003	19.995	103.973	19.803	17.028	0.469
366.000	264.032	80.003	19.995	103.974	19.797	17.446	0.508
367.500	264.785	80.004	19.994	103.975	19.795	17.617	0.514
369.000	265.507	80.003	19.995	103.981	19.787	18.157	0.483
370.500	266.239	80.004	19.995	103.984	19.783	18.452	0.494
372.000	266.972	80.004	19.994	103.994	19.776	18.980	0.511
373.500	267.725	80.003	19.994	103.994	19.768	19.503	0.527
375.000	268.461	80.005	19.994	103.998	19.761	20.003	0.485
376.500	269.185	80.004	19.994	104.009	19.758	20.247	0.463
378.000	269.955	80.003	19.995	104.014	19.753	20.567	0.495
379.500	270.702	80.002	19.994	104.014	19.746	21.035	0.521
381.000	271.488	80.003	19.995	104.014	19.738	21.647	0.517
382.500	272.218	80.004	19.993	104.014	19.732	22.028	0.491
384.000	272.951	80.002	19.994	104.021	19.727	22.426	0.483
385.500	273.691	80.003	19.994	104.025	19.720	22.905	0.472
387.001	274.447	80.003	19.993	104.032	19.707	23.765	0.489
388.500	275.186	80.002	19.995	104.033	19.701	24.252	0.490
390.000	275.947	80.004	19.994	104.034	19.695	24.615	0.508
391.500	276.684	80.002	19.995	104.041	19.687	25.222	0.490
393.000	277.424	80.003	19.995	104.048	19.676	25.965	0.496
394.500	278.200	80.004	19.993	104.054	19.666	26.672	0.527
396.000	278.923	80.005	19.993	104.054	19.657	27.343	0.478
397.500	279.673	80.005	19.995	104.051	19.646	28.093	0.492
399.000	280.422	80.006	19.994	104.067	19.642	28.337	0.498
400.500	281.168	80.006	19.996	104.071	19.628	29.319	0.500
402.000	281.917	80.006	19.994	104.077	19.620	29.917	0.493
403.500	282.693	80.007	19.994	104.086	19.606	30.888	0.496
405.000	283.488	80.006	19.994	104.088	19.595	31.679	0.536
406.500	284.195	80.007	19.994	104.089	19.584	32.406	0.475
408.000	284.916	80.005	19.994	104.089	19.575	33.073	0.495
409.500	285.694	80.005	19.994	104.095	19.562	33.978	0.523
411.000	286.442	80.005	19.997	104.113	19.554	34.519	0.504
412.500	287.237	80.002	19.994	104.120	19.540	35.535	0.537
414.000	288.008	80.006	19.995	104.122	19.528	36.407	0.503
415.500	288.763	80.005	19.995	104.122	19.516	37.220	0.516
417.000	289.467	80.005	19.994	104.122	19.501	38.305	0.469
418.500	290.237	80.005	19.994	104.125	19.492	38.905	0.509
420.000	291.018	80.006	19.996	104.135	19.476	40.062	0.509
421.500	291.819	80.006	19.996	104.145	19.463	40.921	0.510
423.000	292.556	80.007	19.993	104.138	19.454	41.584	0.492
424.500	293.322	80.006	19.995	104.142	19.438	42.729	0.495
426.000	294.073	80.006	19.995	104.158	19.427	43.490	0.502
427.500	294.817	80.006	19.995	104.161	19.416	44.275	0.505
429.000	295.593	80.005	19.993	104.169	19.402	45.259	0.538
430.500	296.340	80.004	19.995	104.171	19.389	46.165	0.508
432.000	297.102	80.004	19.995	104.169	19.375	47.149	0.504
433.500	297.815	80.003	19.995	104.177	19.364	47.911	0.490
435.000	298.588	80.004	19.994	104.182	19.349	48.995	0.514
436.500	299.363	80.005	19.998	104.175	19.340	49.603	0.533
438.000	300.113	80.003	19.996	104.177	19.328	50.410	0.482
439.500	300.845	80.003	19.992	104.188	19.314	51.392	0.489
441.000	301.620	80.003	19.995	104.200	19.304	52.102	0.508
442.500	302.362	80.003	19.994	104.208	19.291	53.047	0.507
444.000	303.094	80.002	19.995	104.211	19.279	53.888	0.490
445.500	303.854	80.004	19.992	104.208	19.267	54.740	0.515
447.000	304.551	80.004	19.994	104.208	19.256	55.475	0.462
448.501	305.335	80.004	19.993	104.208	19.249	56.015	0.513
450.000	306.088	80.006	19.994	104.208	19.240	56.649	0.521
451.500	306.825	80.002	19.996	104.210	19.230	57.293	0.497
453.000	307.579	80.001	19.994	104.214	19.222	57.880	0.501
454.500	308.321	80.003	19.997	104.220	19.211	58.693	0.495
456.000	309.053	80.003	19.994	104.216	19.202	59.257	0.504
457.500	309.794	80.004	19.995	104.218	19.197	59.647	0.490
459.000	310.567	80.004	19.995	104.227	19.190	60.136	0.517
460.500	311.260	80.002	19.994	104.218	19.181	60.746	0.480
462.000	312.013	80.004	19.995	104.207	19.181	60.783	0.496
463.500	312.798	80.004	19.994	104.214	19.177	61.043	0.507
465.000	313.518	80.005	19.994	104.219	19.173	61.314	0.492
466.500	314.278	80.004	19.994	104.206	19.169	61.598	0.528
468.000	315.022	80.004	19.994	104.202	19.171	61.421	0.480
469.500	315.730	80.003	19.995	104.202	19.168	61.647	0.469
471.000	316.501	80.005	19.995	104.208	19.171	61.429	0.522
472.500	317.241	80.004	19.994	104.204	19.178	60.887	0.489
474.000	317.978	80.003	19.996	104.191	19.182	60.599	0.484
475.500	318.707	80.005	19.994	104.173	19.188	60.219	0.489
477.000	319.482	80.006	19.995	104.166	19.197	59.581	0.511
478.500	320.161	80.005	19.994	104.166	19.203	59.119	0.472
480.000	320.953	80.006	19.995	104.148	19.212	58.509	0.502
481.500	321.673	80.004	19.993	104.127	19.227	57.458	0.466
483.000	322.368	80.004	19.995	104.118	19.241	56.421	0.481
484.500	323.148	80.004	19.996	104.096	19.254	55.511	0.519
486.000	323.897	80.005	19.995	104.086	19.272	54.259	0.509
487.500	324.629	80.004	19.995	104.082	19.292	52.851	0.478
489.000	325.362	80.005	19.996	104.072	19.313	51.399	0.496
490.500	326.116	80.005	19.993	104.049	19.335	49.796	0.516
492.000	326.827	80.004	19.994	104.026	19.361	48.007	0.489
493.500	327.581	80.004	19.995	104.011	19.382	46.494	0.498
495.000	328.321	80.005	19.994	104.000	19.413	44.379	0.492
496.500	329.053	80.005	19.995	103.980	19.442	42.324	0.493
498.000	329.794	80.005	19.994	103.977	19.469	40.437	0.469
499.500	330.524	80.006	19.994	103.968	19.500	38.249	0.487
501.000	331.281	80.006	19.995	103.949	19.527	36.358	0.507
502.500	331.994	80.006	19.993	103.936	19.558	34.209	0.490
504.001	332.763	80.005	19.994	103.934	19.588	32.060	0.526
505.500	333.516	80.006	19.992	103.915	19.618	30.021	0.491
507.000	334.266	80.006	19.994	103.901	19.646	28.022	0.505
508.500	335.043	80.005	19.994	103.898	19.667	26.566	0.510
510.000	335.754	80.003	19.994	103.896	19.694	24.678	0.463
511.500	336.519	80.004	19.993	103.895	19.716	23.117	0.497
513.000	337.304	80.003	19.993	103.888	19.738	21.596	0.509
514.500	338.066	80.001	19.995	103.879	19.758	20.185	0.512
516.000	338.810	80.004	19.993	103.890	19.775	18.962	0.512
517.500	339.570	80.002	19.994	103.882	19.796	17.516	0.503
519.000	340.345	80.003	19.993	103.875	19.809	16.635	0.518
520.500	341.072	80.003	19.995	103.871	19.822	15.694	0.484
522.001	341.777	80.003	19.993	103.869	19.837	14.668	0.474
523.500	342.554	80.003	19.995	103.873	19.843	14.236	0.510
525.000	343.283	80.003	19.996	103.873	19.854	13.480	0.474
526.500	344.046	80.004	19.995	103.859	19.866	12.642	0.506
528.000	344.793	80.005	19.994	103.861	19.874	12.079	0.487
529.500	345.572	80.004	19.994	103.861	19.881	11.568	0.509
531.000	346.307	80.003	19.995	103.856	19.889	11.040	0.502
532.500	347.051	80.004	19.995	103.858	19.896	10.517	0.479
534.000	347.819	80.003	19.993	103.860	19.900	10.251	0.480
535.500	348.549	80.002	19.994	103.864	19.906	9.839	0.483
537.000	349.359	80.003	19.995	103.858	19.905	9.872	0.538
538.500	350.098	80.004	19.995	103.854	19.913	9.345	0.515
540.000	350.860	80.004	19.997	103.859	19.916	9.144	0.514
541.500	351.619	80.004	19.996	103.855	19.920	8.842	0.510
543.000	352.397	80.002	19.996	103.854	19.925	8.498	0.512
544.501	353.133	80.003	19.995	103.854	19.921	8.746	0.480
546.000	353.968	80.002	19.995	103.863	19.931	8.086	0.538
547.500	354.693	80.003	19.996	103.862	19.928	8.274	0.487
549.000	355.447	80.002	19.995	103.852	19.933	7.955	0.506
550.500	356.169	80.003	19.995	103.852	19.936	7.718	0.498
552.000	356.956	80.002	19.995	103.855	19.940	7.434	0.502
553.500	357.707	80.004	19.997	103.855	19.942	7.306	0.481
555.000	358.428	80.005	19.995	103.856	19.944	7.161	0.482
556.500	359.179	80.006	19.994	103.855	19.945	7.092	0.498
558.000	359.915	80.005	19.995	103.857	19.947	6.929	0.493
559.501	360.675	80.005	19.994	103.857	19.951	6.674	0.512
561.000	361.440	80.005	19.994	103.856	19.951	6.651	0.510
562.500	362.181	80.005	19.994	103.856	19.952	6.626	0.487
564.000	362.933	80.005	19.995	103.856	19.953	6.504	0.509
565.500	363.696	80.005	19.993	103.856	19.962	5.931	0.508
567.000	364.437	80.005	19.994	103.857	19.959	6.107	0.500
568.500	365.205	80.005	19.995	103.857	19.957	6.231	0.501
570.000	365.993	80.006	19.994	103.856	19.963	5.817	0.520
571.500	366.706	80.006	19.995	103.856	19.960	6.012	0.476
573.000	367.492	80.005	19.994	103.858	19.964	5.769	0.502
574.500	368.272	80.004	19.994	103.858	19.964	5.743	0.508
576.000	369.007	80.005	19.993	103.858	19.961	5.974	0.480
577.500	369.755	80.005	19.994	103.858	19.961	5.999	0.496
579.000	370.529	80.005	19.991	103.855	19.964	5.759	0.521
580.500	371.266	80.005	19.994	103.856	19.968	5.484	0.479
582.000	372.016	80.005	19.993	103.859	19.970	5.343	0.507
583.500	372.788	80.005	19.993	103.859	19.969	5.436	0.517
585.000	373.589	80.007	19.993	103.858	19.968	5.467	0.544
586.501	374.275	80.007	19.992	103.856	19.969	5.414	0.462
588.000	375.066	80.006	19.991	103.855	19.967	5.548	0.515
589.500	375.812	80.005	19.994	103.854	19.971	5.302	0.503
591.000	376.575	80.005	19.995	103.854	19.978	4.770	0.516
592.500	377.305	80.005	19.995	103.854	19.979	4.695	0.523
594.001	378.065	80.004	19.993	103.852	19.978	4.766	0.503
595.500	378.791	80.004	19.993	103.852	19.977	4.867	0.467
597.000	379.560	80.003	19.994	103.854	19.976	4.930	0.511
598.500	380.346	80.003	19.992	103.854	19.977	4.835	0.517
600.000	381.046	80.004	19.994	103.855	19.975	4.999	0.452
601.500	381.781	80.004	19.994	103.854	19.979	4.726	0.483
603.000	382.522	80.003	19.994	103.853	19.980	4.648	0.484
604.500	383.343	80.004	19.995	103.848	19.979	4.714	0.550
606.000	384.037	80.004	19.995	103.843	19.980	4.617	0.455
607.500	384.829	80.004	19.995	103.844	19.980	4.650	0.481
609.000	385.585	80.004	19.995	103.843	19.980	4.627	0.482
610.500	386.275	80.004	19.995	103.854	19.976	4.888	0.434
612.000	387.042	80.004	19.995	103.854	19.983	4.466	0.479
613.500	387.841	80.004	19.995	103.850	19.978	4.795	0.464
615.000	388.549	80.004	19.995	103.850	19.977	4.884	0.460
616.500	389.255	80.004	19.995	103.853	19.977	4.836	0.463
618.000	389.989	80.004	19.995	103.851	19.990	3.971	0.453
619.500	390.838	80.004	19.995	103.844	19.977	4.820	0.581
621.001	391.495	80.004	19.996	103.851	19.986	4.242	0.434
622.500	392.244	80.003	19.994	103.852	19.993	3.757	0.542
624.000	393.118	80.004	19.994	103.844	19.989	4.043	0.508
625.500	393.782	80.002	19.994	103.849	19.996	3.509	0.495
627.000	394.540	80.003	19.995	103.848	19.991	3.874	0.606
628.500	395.433	80.004	19.995	103.847	19.984	4.385	0.618
630.000	396.098	80.003	19.995	103.846	19.987	4.137	0.600
631.500	397.246	80.003	19.995	103.844	19.985	4.296	0.940
633.000	397.199	80.003	19.995	103.853	19.988	4.114	-0.070
634.500	398.289	80.004	19.994	103.854	19.988	4.070	0.683
636.000	398.887	80.004	19.994	103.851	19.989	3.996	0.691
637.500	400.009	80.004	19.994	103.853	19.989	4.033	0.783
639.000	400.267	80.004	19.995	103.846	19.993	3.712	0.463
640.500	401.283	80.003	19.994	103.852	19.994	3.687	0.638
642.000	402.353	80.004	19.996	103.841	19.993	3.722	0.441
643.500	402.883	80.005	19.993	103.845	19.991	3.849	0.455
645.000	403.589	80.005	19.993	103.850	19.992	3.799	0.497
646.500	404.397	80.004	19.994	103.844	19.990	3.931	0.474
648.000	405.263	80.005	19.995	103.837	19.991	3.882	0.487
649.500	405.938	80.005	19.994	103.843	19.993	3.720	0.472
651.000	406.729	80.005	19.995	103.852	19.992	3.803	0.530
652.500	407.439	80.005	19.994	103.848	19.993	3.760	0.485
654.000	408.267	80.005	19.993	103.844	19.992	3.793	0.548
655.500	409.041	80.006	19.995	103.847	19.995	3.590	0.504
657.000	409.775	80.005	19.994	103.849	19.997	3.482	0.446
658.500	410.540	80.006	19.993	103.845	20.000	3.226	0.525
660.000	411.341	80.006	19.994	103.846	20.001	3.149	0.519
661.500	412.145	80.007	19.991	103.848	19.998	3.387	0.550
663.000	412.884	80.008	19.995	103.844	20.001	3.195	0.530
664.500	413.690	80.008	19.995	103.848	20.000	3.234	0.507
666.000	414.376	80.007	19.994	103.838	20.002	3.133	0.502
667.500	415.192	80.008	19.995	103.839	20.002	3.129	0.568
669.001	415.952	80.007	19.996	103.836	19.995	3.572	0.465
670.500	416.719	80.008	19.993	103.837	19.999	3.328	0.511
672.000	417.555	80.005	19.995	103.845	19.999	3.334	0.560
673.500	418.346	80.005	19.994	103.833	19.997	3.479	0.513
675.000	419.122	80.004	19.993	103.846	19.999	3.303	0.521
676.500	419.933	80.005	19.995	103.840	19.997	3.439	0.534
678.000	420.658	80.005	19.993	103.820	20.000	3.276	0.515
679.500	421.481	80.006	19.995	103.827	19.998	3.394	0.536
681.000	422.246	80.004	19.995	103.828	19.999	3.297	0.503
682.500	423.052	80.007	19.995	103.831	20.000	3.212	0.526
684.000	423.809	80.005	19.995	103.828	20.003	3.068	0.522
685.500	424.560	80.003	19.995	103.823	20.002	3.124	0.476
687.000	425.314	80.004	19.994	103.830	20.003	3.013	0.472
688.500	426.133	80.005	19.995	103.829	20.001	3.143	0.539
690.000	426.900	80.003	19.994	103.829	20.004	2.973	0.516
691.500	427.630	80.004	19.994	103.829	20.002	3.079	0.496
693.000	428.407	80.004	19.994	103.825	20.007	2.737	0.551
694.500	429.185	80.005	19.993	103.839	20.010	2.562	0.502
696.000	429.928	80.004	19.994	103.846	20.006	2.804	0.501
697.500	430.710	80.005	19.994	103.831	20.003	2.997	0.520
699.000	431.475	80.005	19.994	103.826	20.007	2.744	0.519
700.500	432.242	80.005	19.995	103.831	20.003	3.011	0.509
702.000	433.011	80.001	19.994	103.842	20.003	3.052	0.508
703.500	433.834	80.003	19.995	103.830	20.006	2.856	0.525
705.000	434.575	80.003	19.995	103.827	20.012	2.413	0.508
706.500	435.385	80.002	19.993	103.822	20.009	2.584	0.546
708.000	436.194	80.001	19.995	103.823	20.009	2.613	0.529
709.500	436.955	80.003	19.995	103.827	20.006	2.825	0.490
711.000	437.714	80.003	19.994	103.838	20.008	2.678	0.536
712.500	438.485	80.004	19.994	103.829	20.011	2.448	0.517
714.000	439.247	80.005	19.996	103.824	20.012	2.396	0.508
715.500	440.035	80.004	19.994	103.823	20.011	2.506	0.536
717.000	440.776	80.004	19.994	103.831	20.012	2.409	0.510
718.500	441.554	80.006	19.995	103.830	20.015	2.199	0.479
720.000	442.320	80.006	19.996	103.826	20.010	2.529	0.529
721.500	443.131	80.006	19.996	103.826	20.014	2.247	0.519
723.000	443.909	80.006	19.994	103.815	20.012	2.379	0.518
724.500	444.687	80.006	19.994	103.815	20.015	2.209	0.507
726.000	445.414	80.007	19.996	103.820	20.013	2.303	0.495
727.500	446.210	80.004	19.994	103.817	20.013	2.323	0.523
729.000	446.975	80.004	19.995	103.815	20.014	2.265	0.522
730.500	447.776	80.005	19.996	103.822	20.018	1.957	0.534
732.000	448.541	80.004	19.996	103.814	20.018	1.970	0.528
733.500	449.304	80.003	19.995	103.818	20.019	1.940	0.524
735.000	450.104	80.004	19.996	103.828	20.020	1.833	0.522
736.500	450.892	80.005	19.996	103.822	20.018	1.998	0.529
738.000	451.677	80.005	19.997	103.823	20.017	2.036	0.514
739.500	452.438	80.005	19.995	103.823	20.017	2.073	0.500
741.000	453.234	80.005	19.994	103.819	20.018	1.976	0.550
742.500	454.056	80.007	19.995	103.815	20.021	1.802	0.536
744.000	454.799	80.007	19.995	103.821	20.020	1.837	0.502
745.500	455.612	80.007	19.993	103.817	20.018	1.984	0.536
747.000	456.455	80.007	19.994	103.822	20.020	1.820	0.549
748.500	457.235	80.008	19.994	103.825	20.022	1.669	0.534
750.000	458.029	80.006	19.994	103.816	20.022	1.704	0.526
751.500	458.820	80.005	19.993	103.816	20.018	1.982	0.524
753.000	459.669	80.004	19.994	103.821	20.020	1.812	0.565
754.500	460.474	80.004	19.995	103.820	20.019	1.895	0.529
756.000	461.250	80.004	19.994	103.818	20.022	1.711	0.533
757.500	462.043	80.005	19.994	103.818	20.021	1.752	0.530
759.001	462.859	80.004	19.994	103.821	20.020	1.841	0.548
760.500	463.646	80.004	19.994	103.819	20.019	1.914	0.528
762.000	464.407	80.004	19.994	103.817	20.020	1.820	0.541
763.500	465.180	80.003	19.994	103.818	20.025	1.520	0.535
765.000	465.951	80.004	19.993	103.816	20.022	1.688	0.507
766.500	466.740	80.004	19.993	103.816	20.024	1.533	0.529
768.000	467.491	80.003	19.995	103.819	20.025	1.510	0.505
769.500	468.277	80.003	19.995	103.818	20.023	1.642	0.531
771.000	469.030	80.003	19.994	103.821	20.024	1.591	0.510
772.500	469.786	80.004	19.994	103.821	20.024	1.541	0.517
774.000	470.535	80.005	19.994	103.820	20.027	1.355	0.497
775.500	471.278	80.006	19.993	103.811	20.025	1.472	0.497
777.000	472.011	80.004	19.994	103.810	20.024	1.584	0.496
778.500	472.754	80.004	19.994	103.819	20.028	1.288	0.493
780.000	473.551	80.004	19.994	103.819	20.026	1.448	0.521
781.500	474.256	80.004	19.993	103.820	20.027	1.328	0.474
783.000	475.011	80.004	19.994	103.818	20.029	1.247	0.504
784.500	475.780	80.004	19.994	103.809	20.024	1.543	0.509
786.000	476.508	80.005	19.995	103.812	20.028	1.296	0.475
787.500	477.261	80.003	19.993	103.812	20.026	1.454	0.504
789.000	477.979	80.003	19.994	103.812	20.025	1.470	0.474
790.500	478.706	80.004	19.995	103.811	20.030	1.160	0.470
792.000	479.433	80.005	19.994	103.811	20.032	1.019	0.484
793.500	480.193	80.006	19.993	103.814	20.032	1.007	0.492
795.000	480.896	80.005	19.995	103.816	20.030	1.141	0.494
796.500	481.671	80.005	19.994	103.815	20.030	1.125	0.514
798.000	482.348	80.005	19.994	103.816	20.030	1.168	0.479
799.500	483.110	80.006	19.995	103.814	20.028	1.263	0.516
801.000	483.839	80.006	19.994	103.816	20.033	0.919	0.489
802.500	484.521	80.008	19.994	103.815	20.028	1.251	0.461
804.000	485.265	80.006	19.995	103.814	20.029	1.236	0.502
805.500	485.995	80.005	19.995	103.813	20.031	1.073	0.467
807.000	486.761	80.006	19.996	103.815	20.029	1.201	0.495
808.500	487.552	80.006	19.995	103.817	20.033	0.940	0.539
810.000	488.245	80.005	19.995	103.817	20.028	1.280	0.460
811.500	488.975	80.006	19.994	103.817	20.031	1.089	0.477
813.000	489.743	80.006	19.994	103.820	20.029	1.187	0.505
814.500	490.531	80.005	19.994	103.820	20.031	1.075	0.530
816.001	491.334	80.005	19.996	103.820	20.033	0.963	0.526
817.500	492.095	80.005	19.994	103.818	20.033	0.924	0.509
819.001	492.919	80.005	19.995	103.819	20.032	1.035	0.551
820.500	493.709	80.006	19.996	103.820	20.030	1.149	0.535
822.000	494.549	80.006	19.995	103.817	20.029	1.180	0.564
823.500	495.381	80.007	19.994	103.817	20.032	1.025	0.525
825.000	496.181	80.007	19.995	103.818	20.031	1.056	0.543
826.500	497.033	80.007	19.995	103.819	20.031	1.081	0.553
828.000	497.857	80.007	19.997	103.817	20.031	1.069	0.556
829.500	498.668	80.007	19.995	103.815	20.031	1.095	0.562
831.000	499.519	80.006	19.996	103.817	20.029	1.213	0.566
832.500	500.354	80.007	19.995	103.817	20.030	1.160	0.548
834.000	501.227	80.003	19.996	103.818	20.029	1.230	0.594
835.500	502.056	80.004	19.995	103.821	20.032	1.023	0.556
837.000	502.865	80.003	19.995	103.819	20.031	1.042	0.557
838.500	503.703	80.004	19.996	103.817	20.031	1.100	0.577
840.000	504.528	80.003	19.994	103.820	20.031	1.048	0.556
841.500	505.389	80.004	19.993	103.823	20.032	0.971	0.569
843.000	506.199	80.004	19.995	103.817	20.031	1.064	0.547
844.500	507.025	80.004	19.994	103.812	20.030	1.156	0.552
846.000	507.853	80.004	19.994	103.815	20.032	0.988	0.550
847.500	508.688	80.004	19.993	103.820	20.031	1.075	0.563
849.000	509.552	80.006	19.996	103.817	20.030	1.137	0.565
850.500	510.344	80.005	19.994	103.815	20.031	1.071	0.544
852.000	511.188	80.005	19.994	103.814	20.031	1.048	0.557
853.500	511.990	80.005	19.993	103.815	20.030	1.110	0.522
855.001	512.805	80.005	19.992	103.815	20.032	1.017	0.530
856.500	513.662	80.005	19.994	103.816	20.029	1.218	0.569
858.000	514.460	80.006	19.994	103.806	20.032	1.013	0.536
859.500	515.276	80.005	19.993	103.804	20.033	0.938	0.526
861.000	516.131	80.005	19.993	103.815	20.031	1.077	0.568
862.500	516.939	80.005	19.994	103.810	20.036	0.742	0.539
864.000	517.760	80.005	19.994	103.808	20.035	0.783	0.550
865.500	518.551	80.004	19.995	103.806	20.032	1.036	0.522
867.000	519.370	80.004	19.995	103.815	20.035	0.806	0.546
868.500	520.185	80.005	19.993	103.813	20.032	1.006	0.543
870.000	521.010	80.005	19.994	103.812	20.032	1.015	0.533
871.500	521.783	80.004	19.994	103.812	20.035	0.808	0.552
873.000	522.645	80.005	19.994	103.805	20.036	0.721	0.555
874.500	523.455	80.006	19.995	103.812	20.032	1.021	0.543
876.000	524.221	80.005	19.994	103.817	20.036	0.733	0.510
877.500	525.083	80.007	19.994	103.813	20.034	0.837	0.544
879.000	525.871	80.006	19.994	103.812	20.033	0.934	0.498
880.500	526.652	80.006	19.993	103.816	20.034	0.847	0.519
882.000	527.453	80.006	19.994	103.816	20.033	0.944	0.535
883.500	528.265	80.006	19.993	103.817	20.033	0.905	0.516
885.000	529.054	80.006	19.994	103.814	20.035	0.793	0.529
886.500	529.855	80.005	19.994	103.813	20.032	0.982	0.529
888.000	530.662	80.005	19.994	103.799	20.030	1.120	0.549
889.500	531.430	80.004	19.995	103.802	20.032	1.007	0.520
891.000	532.251	80.005	19.995	103.816	20.033	0.955	0.545
892.500	533.019	80.005	19.994	103.815	20.035	0.818	0.519
894.000	533.797	80.004	19.995	103.807	20.035	0.775	0.529
895.500	534.553	80.004	19.994	103.811	20.034	0.891	0.516
897.000	535.362	80.005	19.995	103.815	20.037	0.663	0.523
898.500	536.154	80.005	19.995	103.813	20.034	0.890	0.537
900.000	536.918	80.004	19.994	103.816	20.036	0.700	0.501
901.500	537.692	80.006	19.994	103.800	20.038	0.561	0.528
903.000	538.462	80.006	19.994	103.799	20.038	0.584	0.526
904.500	539.243	80.005	19.995	103.811	20.036	0.746	0.525
906.000	539.997	80.006	19.994	103.808	20.036	0.723	0.517
907.500	540.808	80.007	19.995	103.807	20.036	0.713	0.538
909.000	541.581	80.007	19.994	103.814	20.037	0.684	0.503
910.500	542.365	80.006	19.994	103.817	20.035	0.771	0.541
912.000	543.106	80.005	19.994	103.815	20.038	0.566	0.518
913.500	543.902	80.006	19.994	103.814	20.038	0.551	0.532
915.000	544.644	80.005	19.995	103.814	20.036	0.712	0.498
916.500	545.416	80.004	19.995	103.811	20.034	0.835	0.533
918.001	546.159	80.004	19.994	103.804	20.038	0.597	0.472
919.500	546.949	80.003	19.995	103.806	20.038	0.601	0.533
921.000	547.678	80.005	19.996	103.803	20.038	0.578	0.480
922.500	548.475	80.004	19.995	103.799	20.037	0.646	0.546
924.000	549.231	80.004	19.996	103.807	20.035	0.826	0.501
925.500	549.988	80.005	19.996	103.811	20.037	0.675	0.502
927.000	550.797	80.003	19.995	103.807	20.035	0.797	0.511
928.500	551.514	80.003	19.995	103.808	20.035	0.777	0.495
930.000	552.269	80.004	19.994	103.806	20.036	0.715	0.497
931.500	553.020	80.004	19.994	103.797	20.041	0.358	0.511
933.000	553.786	80.005	19.995	103.803	20.039	0.520	0.521
934.500	554.552	80.004	19.994	103.807	20.036	0.710	0.519
936.000	555.311	80.004	19.994	103.812	20.039	0.526	0.503
937.500	556.090	80.005	19.994	103.813	20.039	0.493	0.529
939.000	556.895	80.006	19.994	103.814	20.041	0.383	0.529
940.500	557.632	80.005	19.995	103.811	20.040	0.445	0.499
942.000	558.447	80.006	19.995	103.803	20.040	0.449	0.539
943.500	559.225	80.004	19.994	103.801	20.042	0.300	0.515
945.000	560.048	80.007	19.994	103.813	20.040	0.443	0.532
946.500	560.797	80.005	19.994	103.813	20.040	0.423	0.500
948.000	561.575	80.005	19.994	103.813	20.039	0.491	0.511
949.500	562.358	80.004	19.995	103.811	20.042	0.323	0.532
951.001	563.136	80.004	19.995	103.812	20.039	0.522	0.515
952.500	563.887	80.004	19.995	103.815	20.037	0.640	0.499
954.000	564.645	80.005	19.995	103.815	20.039	0.495	0.511
955.500	565.410	80.005	19.995	103.814	20.037	0.640	0.530
957.000	566.216	80.007	19.994	103.814	20.039	0.505	0.525
958.500	567.004	80.006	19.994	103.812	20.042	0.296	0.517
960.000	567.773	80.007	19.995	103.817	20.037	0.623	0.508
961.500	568.549	80.006	19.994	103.814	20.037	0.675	0.542
963.000	569.320	80.006	19.993	103.811	20.039	0.509	0.534
964.500	570.071	80.008	19.995	103.809	20.037	0.626	0.497
966.000	570.871	80.006	19.994	103.809	20.037	0.688	0.538
967.500	571.585	80.005	19.995	103.807	20.040	0.433	0.485
969.000	572.364	80.006	19.993	103.813	20.037	0.652	0.523
970.500	573.148	80.005	19.994	103.816	20.038	0.551	0.496
972.000	573.966	80.006	19.993	103.819	20.041	0.350	0.547
973.500	574.777	80.005	19.994	103.817	20.043	0.220	0.539
975.000	575.548	80.005	19.994	103.816	20.040	0.420	0.516
976.500	576.310	80.005	19.994	103.813	20.038	0.611	0.502
978.000	577.044	80.006	19.995	103.816	20.039	0.514	0.488
979.500	577.851	80.005	19.995	103.812	20.038	0.561	0.537
981.000	578.590	80.006	19.994	103.804	20.040	0.470	0.495
982.500	579.347	80.006	19.995	103.807	20.043	0.246	0.508
984.000	580.124	80.007	19.995	103.807	20.039	0.512	0.514
985.500	580.919	80.007	19.994	103.805	20.041	0.408	0.526
987.000	581.686	80.008	19.994	103.802	20.045	0.114	0.510
988.500	582.444	80.007	19.994	103.803	20.038	0.601	0.502
990.000	583.175	80.007	19.994	103.800	20.041	0.387	0.489
991.501	583.950	80.007	19.994	103.801	20.039	0.510	0.503
993.000	584.713	80.006	19.994	103.809	20.042	0.296	0.496
994.500	585.477	80.006	19.994	103.810	20.039	0.541	0.506
996.000	586.233	80.004	19.995	103.811	20.040	0.474	0.510
997.500	587.013	80.005	19.995	103.806	20.039	0.545	0.541
999.000	587.797	80.006	19.994	103.801	20.040	0.443	0.518
1000.500	588.606	80.005	19.995	103.802	20.035	0.795	0.544
1002.000	589.318	80.005	19.996	103.804	20.040	0.449	0.464
1003.500	590.155	80.006	19.996	103.811	20.040	0.449	0.554
1005.000	590.873	80.005	19.994	103.811	20.038	0.570	0.471
1006.500	591.661	80.003	19.995	103.807	20.038	0.584	0.516
1008.000	592.448	80.006	19.994	103.800	20.038	0.559	0.522
1009.500	593.156	80.005	19.996	103.794	20.038	0.595	0.478
1011.000	593.995	80.004	19.995	103.798	20.038	0.605	0.537
1012.500	594.720	80.005	19.998	103.800	20.038	0.582	0.499
1014.000	595.527	80.004	19.994	103.808	20.040	0.464	0.566
1015.500	596.295	80.004	19.996	103.808	20.041	0.362	0.516
1017.000	597.063	80.004	19.994	103.794	20.042	0.329	0.499
1018.500	597.807	80.005	19.995	103.786	20.038	0.555	0.499
1020.000	598.566	80.003	19.996	103.791	20.040	0.472	0.508
1021.500	599.345	80.005	19.996	103.791	20.040	0.470	0.526
1023.000	600.071	80.004	19.995	103.796	20.045	0.101	0.490
1024.501	600.836	80.003	19.995	103.808	20.040	0.441	0.501
1026.000	601.608	80.004	19.996	103.795	20.039	0.524	0.519
1027.500	602.342	80.004	19.996	103.796	20.041	0.396	0.507
1029.000	603.118	80.004	19.994	103.795	20.044	0.149	0.508
1030.500	603.911	80.004	19.995	103.780	20.039	0.526	0.516
1032.001	604.643	80.004	19.995	103.789	20.036	0.715	0.480
1033.500	605.366	80.005	19.993	103.790	20.039	0.483	0.512
1035.000	606.154	80.005	19.993	103.792	20.039	0.508	0.518
1036.500	606.847	80.005	19.994	103.790	20.035	0.775	0.474
1038.000	607.602	80.006	19.994	103.791	20.037	0.673	0.493
1039.500	608.355	80.006	19.994	103.784	20.040	0.412	0.496
1041.000	609.099	80.006	19.994	103.789	20.043	0.263	0.514
1042.500	609.787	80.008	19.994	103.788	20.041	0.400	0.471
1044.000	610.493	80.007	19.993	103.796	20.043	0.230	0.491
1045.500	611.210	80.007	19.994	103.801	20.040	0.474	0.464
1047.000	611.955	80.007	19.994	103.796	20.039	0.516	0.496
1048.500	612.703	80.005	19.994	103.785	20.035	0.777	0.470
1050.000	613.412	80.007	19.994	103.785	20.039	0.491	0.448
1051.500	614.126	80.006	19.994	103.784	20.041	0.363	0.476
1053.000	614.865	80.005	19.994	103.797	20.038	0.570	0.491
1054.500	615.565	80.006	19.995	103.790	20.040	0.441	0.457
1056.000	616.322	80.007	19.995	103.788	20.041	0.392	0.494
1057.500	617.033	80.004	19.995	103.798	20.040	0.416	0.480
1059.000	617.763	80.006	19.994	103.797	20.038	0.594	0.486
1060.500	618.490	80.006	19.994	103.785	20.037	0.634	0.486
1062.000	619.211	80.007	19.995	103.793	20.035	0.771	0.469
1063.500	619.936	80.007	19.994	103.785	20.035	0.802	0.476
1065.001	620.663	80.007	19.993	103.783	20.039	0.547	0.505
1066.500	621.384	80.007	19.994	103.793	20.039	0.499	0.491
1068.000	622.102	80.007	19.994	103.784	20.035	0.781	0.483
1069.500	622.874	80.008	19.995	103.785	20.035	0.798	0.519
1071.000	623.588	80.007	19.995	103.801	20.039	0.481	0.478
1072.500	624.306	80.007	19.995	103.801	20.033	0.953	0.480
1074.000	625.048	80.006	19.993	103.783	20.039	0.516	0.488
1075.500	625.775	80.006	19.994	103.785	20.039	0.528	0.495
1077.000	626.445	80.004	19.995	103.782	20.038	0.596	0.469
1078.500	627.238	80.005	19.995	103.795	20.038	0.594	0.517
1080.000	627.987	80.004	19.996	103.790	20.039	0.539	0.486
1081.500	628.746	80.004	19.995	103.794	20.038	0.576	0.507
1083.000	629.493	80.003	19.996	103.794	20.039	0.545	0.517
1084.500	630.286	80.004	19.995	103.793	20.035	0.812	0.547
1086.000	631.047	80.003	19.994	103.801	20.037	0.673	0.512
1087.500	631.834	80.004	19.994	103.805	20.034	0.884	0.516
1089.000	632.572	80.004	19.995	103.798	20.039	0.487	0.487
1090.500	633.351	80.005	19.995	103.795	20.037	0.651	0.520
1092.000	634.128	80.004	19.994	103.802	20.036	0.723	0.544
1093.500	634.894	80.005	19.994	103.800	20.037	0.655	0.539
1095.000	635.720	80.004	19.993	103.797	20.037	0.640	0.530
1096.500	636.475	80.005	19.994	103.805	20.038	0.605	0.503
1098.000	637.273	80.005	19.994	103.805	20.040	0.468	0.536
1099.500	638.020	80.006	19.994	103.795	20.037	0.652	0.493
1101.000	638.804	80.004	19.993	103.785	20.039	0.520	0.525
1102.500	639.586	80.005	19.994	103.780	20.036	0.713	0.541
1104.000	640.359	80.004	19.995	103.798	20.038	0.617	0.532
1105.500	641.130	80.004	19.995	103.806	20.037	0.677	0.517
1107.000	641.924	80.003	19.995	103.789	20.037	0.679	0.523
1108.500	642.717	80.003	19.994	103.791	20.041	0.406	0.532
1110.000	643.489	80.003	19.996	103.795	20.042	0.284	0.503
1111.500	644.283	80.003	19.996	103.788	20.037	0.651	0.529
1113.000	645.104	80.003	19.996	103.795	20.037	0.638	0.528
1114.500	645.834	80.003	19.995	103.798	20.038	0.578	0.487
1116.000	646.660	80.004	19.996	103.793	20.040	0.441	0.549
1117.500	647.489	80.005	19.996	103.781	20.042	0.282	0.540
1119.000	648.237	80.006	19.994	103.790	20.039	0.524	0.507
1120.500	649.050	80.005	19.995	103.784	20.044	0.159	0.534
1122.000	649.836	80.005	19.995	103.780	20.042	0.298	0.534
1123.500	650.668	80.006	19.995	103.800	20.042	0.338	0.548
1125.000	651.494	80.007	19.994	103.802	20.038	0.580	0.540
1126.500	652.251	80.007	19.994	103.784	20.042	0.292	0.507
1128.000	653.023	80.008	19.994	103.796	20.038	0.551	0.553
1129.500	653.823	80.008	19.994	103.789	20.041	0.367	0.526
1131.000	654.632	80.006	19.994	103.791	20.039	0.516	0.535
1132.500	655.425	80.006	19.994	103.784	20.040	0.429	0.507
1134.000	656.257	80.006	19.995	103.782	20.037	0.644	0.540
1135.500	657.002	80.006	19.994	103.798	20.040	0.437	0.499
1137.000	657.787	80.006	19.995	103.794	20.042	0.290	0.514
1138.500	658.562	80.006	19.994	103.790	20.036	0.696	0.513
1140.000	659.377	80.006	19.994	103.799	20.037	0.653	0.538
1141.500	660.131	80.006	19.994	103.795	20.041	0.392	0.514
1143.000	660.875	80.006	19.995	103.791	20.038	0.551	0.497
1144.500	661.640	80.005	19.995	103.800	20.039	0.547	0.514
1146.000	662.398	80.006	19.995	103.797	20.041	0.408	0.504
1147.500	663.192	80.007	19.995	103.793	20.036	0.744	0.544
1149.000	663.975	80.007	19.995	103.789	20.039	0.510	0.531
1150.500	664.728	80.007	19.994	103.789	20.038	0.615	0.491
1152.000	665.516	80.007	19.994	103.791	20.038	0.605	0.527
1153.500	666.239	80.005	19.992	103.785	20.037	0.679	0.479
1155.000	667.030	80.005	19.994	103.787	20.041	0.350	0.520
1156.501	667.787	80.006	19.994	103.781	20.039	0.506	0.498
1158.000	668.573	80.003	19.993	103.791	20.039	0.537	0.508
1159.500	669.282	80.004	19.995	103.790	20.040	0.441	0.489
1161.001	670.052	80.004	19.995	103.787	20.041	0.360	0.506
1162.500	670.798	80.004	19.994	103.792	20.042	0.315	0.505
1164.000	671.561	80.005	19.993	103.794	20.039	0.481	0.497
1165.500	672.281	80.004	19.993	103.783	20.038	0.584	0.468
1167.000	673.044	80.003	19.994	103.780	20.039	0.522	0.514
1168.500	673.848	80.004	19.994	103.782	20.035	0.779	0.539
1170.000	674.610	80.002	19.992	103.789	20.040	0.460	0.497
1171.500	675.322	80.003	19.995	103.786	20.038	0.603	0.498
1173.000	676.125	80.003	19.994	103.780	20.037	0.642	0.537
1174.500	676.882	80.004	19.995	103.778	20.037	0.644	0.515
1176.000	677.617	80.004	19.995	103.777	20.040	0.425	0.446
1177.500	678.386	80.003	19.995	103.778	20.037	0.634	0.524
1179.000	679.129	80.004	19.994	103.776	20.038	0.561	0.483
1180.500	679.833	80.002	19.994	103.778	20.039	0.522	0.466
1182.000	680.589	80.004	19.995	103.778	20.038	0.601	0.501
1183.500	681.317	80.004	19.994	103.779	20.037	0.626	0.484
1185.000	682.051	80.004	19.995	103.778	20.034	0.845	0.503
1186.500	682.837	80.003	19.994	103.779	20.035	0.760	0.528
1188.000	683.510	80.003	19.995	103.780	20.036	0.744	0.436
1189.500	684.293	80.003	19.996	103.779	20.036	0.702	0.528
1191.000	685.043	80.004	19.996	103.777	20.038	0.609	0.493
1192.500	685.798	80.003	19.994	103.775	20.035	0.812	0.504
1194.000	686.510	80.003	19.996	103.775	20.035	0.785	0.489
1195.500	687.276	80.004	19.994	103.782	20.039	0.489	0.494
1197.000	688.030	80.003	19.995	103.784	20.036	0.706	0.505
1198.500	688.809	80.004	19.994	103.775	20.037	0.638	0.494
1200.000	689.576	80.005	19.995	103.779	20.037	0.630	0.513
1201.500	690.353	80.005	19.996	103.780	20.037	0.636	0.526
1203.000	691.097	80.006	19.995	103.778	20.035	0.773	0.498
1204.500	691.853	80.005	19.996	103.775	20.037	0.679	0.503
1206.000	692.623	80.005	19.996	103.779	20.036	0.742	0.486
1207.500	693.440	80.004	19.995	103.777	20.039	0.524	0.542
1209.000	694.161	80.005	19.996	103.784	20.033	0.907	0.479
1210.500	694.999	80.005	19.997	103.786	20.037	0.673	0.556
1212.000	695.791	80.005	19.995	103.782	20.040	0.445	0.530
1213.500	696.543	80.003	19.994	103.785	20.035	0.798	0.488
1215.000	697.345	80.005	19.995	103.783	20.035	0.777	0.539
1216.500	698.162	80.005	19.994	103.777	20.035	0.783	0.523
1218.000	698.926	80.005	19.994	103.776	20.035	0.810	0.489
1219.500	699.743	80.005	19.994	103.777	20.033	0.938	0.544
1221.000	700.501	80.006	19.995	103.779	20.032	0.997	0.492
1222.500	701.285	80.006	19.994	103.778	20.031	1.094	0.517
1224.000	702.068	80.005	19.994	103.777	20.034	0.831	0.502
1225.500	702.831	80.006	19.994	103.772	20.033	0.937	0.510
1227.000	703.628	80.005	19.994	103.769	20.036	0.727	0.507
1228.500	704.355	80.006	19.994	103.776	20.034	0.839	0.495
1230.000	705.139	80.007	19.994	103.778	20.035	0.823	0.518
1231.500	705.850	80.006	19.993	103.773	20.040	0.431	0.468
1233.000	706.616	80.006	19.995	103.763	20.032	1.009	0.512
1234.500	707.378	80.007	19.994	103.772	20.031	1.073	0.496
1236.000	708.136	80.005	19.992	103.776	20.035	0.791	0.518
1237.500	708.871	80.004	19.993	103.778	20.034	0.874	0.521
1239.000	709.638	80.006	19.995	103.779	20.033	0.949	0.516
1240.500	710.407	80.005	19.995	103.777	20.033	0.924	0.525
1242.001	711.118	80.004	19.994	103.775	20.033	0.901	0.494
1243.500	711.878	80.004	19.994	103.776	20.039	0.537	0.510
1245.000	712.576	80.005	19.994	103.777	20.032	1.019	0.484
1246.500	713.343	80.004	19.994	103.777	20.037	0.675	0.517
1248.000	714.083	80.004	19.994	103.775	20.031	1.065	0.483
1249.500	714.806	80.005	19.996	103.775	20.035	0.791	0.501
1251.000	715.603	80.006	19.995	103.776	20.039	0.483	0.529
1252.500	716.333	80.005	19.995	103.780	20.038	0.584	0.503
1254.000	717.091	80.004	19.995	103.777	20.032	0.970	0.505
1255.500	717.856	80.005	19.993	103.776	20.040	0.423	0.513
1257.000	718.560	80.006	19.994	103.776	20.036	0.696	0.480
1258.500	719.377	80.004	19.993	103.778	20.034	0.893	0.512
1260.000	720.108	80.006	19.993	103.778	20.035	0.781	0.487
1261.500	720.840	80.004	19.995	103.775	20.032	0.968	0.485
1263.000	721.639	80.004	19.994	103.775	20.031	1.042	0.530
1264.500	722.429	80.006	19.995	103.774	20.038	0.582	0.521
1266.000	723.180	80.005	19.995	103.776	20.038	0.603	0.506
1267.500	723.975	80.004	19.993	103.777	20.038	0.617	0.520
1269.000	724.761	80.005	19.995	103.783	20.035	0.773	0.529
1270.500	725.559	80.005	19.995	103.779	20.039	0.495	0.539
1272.000	726.343	80.003	19.995	103.774	20.034	0.880	0.536
1273.500	727.161	80.004	19.995	103.767	20.035	0.802	0.546
1275.000	727.973	80.005	19.995	103.773	20.034	0.870	0.565
1276.500	728.729	80.003	19.996	103.776	20.037	0.619	0.501
1278.000	729.538	80.004	19.995	103.776	20.037	0.663	0.551
1279.500	730.339	80.005	19.995	103.777	20.032	0.995	0.519
1281.000	731.123	80.004	19.994	103.781	20.037	0.651	0.496
1282.500	731.884	80.005	19.995	103.778	20.036	0.756	0.493
1284.000	732.681	80.003	19.994	103.778	20.036	0.756	0.538
1285.500	733.475	80.006	19.995	103.779	20.036	0.750	0.496
1287.000	734.263	80.006	19.994	103.779	20.036	0.752	0.535
1288.500	735.008	80.007	19.993	103.784	20.039	0.543	0.522
1290.000	735.819	80.008	19.995	103.780	20.036	0.729	0.508
1291.500	736.474	80.005	19.994	103.775	20.037	0.653	0.470
1293.000	737.304	80.005	19.995	103.776	20.038	0.611	0.541
1294.500	738.011	80.006	19.994	103.776	20.033	0.955	0.471
1296.000	738.765	80.005	19.993	103.775	20.038	0.591	0.477
1297.500	739.547	80.004	19.994	103.774	20.034	0.854	0.498
1299.000	740.292	80.005	19.995	103.779	20.038	0.549	0.498
1300.500	741.059	80.005	19.996	103.777	20.037	0.669	0.522
1302.000	741.796	80.004	19.994	103.777	20.035	0.787	0.491
1303.500	742.562	80.005	19.996	103.776	20.036	0.725	0.522
1305.000	743.271	80.007	19.996	103.774	20.036	0.692	0.488
1305.500	743.532	80.005	19.994	103.773	20.034	0.849	0.477