File: 01_Data/Straw/MCC/Straw_MCC_30K_min_220317_R1.txt
Sample ID:	C:\MCC\MCC Cal\Test\Straw_MCC_30K_220317_R1.txt
Sample Weight (mg):	4.54
Heating Rate (C/s):	0.5
Combustor Temp (C):	900
N2 Flow Rate (cc/min):	80
O2 Flow Rate (cc/min):	20
Calibration File:	C:\MCC\MCC Cal\Coeff1 JN10440_30_210304.txt.txt
T Correction Coefficients:	0	1.024463	0
Time Shift (s):	14
*
Time (s)	Temperature (C)	N2 flow rate (cc/min)	O2 flow rate (cc/min)	Flow Rate (cc/min)	Oxygen (%)	HRR (W/g)	Heating rate (C/s)
0.000	106.432	80.004	19.994	103.576	20.033	0.032	0.013
2.000	106.382	80.003	19.995	103.576	20.032	0.101	-0.026
4.000	106.402	80.001	19.993	103.575	20.029	0.267	-0.026
6.000	106.356	80.002	19.993	103.583	20.030	0.249	-0.010
8.000	106.406	79.998	19.996	103.594	20.028	0.391	0.025
10.000	106.453	80.001	19.995	103.590	20.025	0.569	0.024
12.000	106.466	80.001	19.996	103.597	20.025	0.589	-0.004
14.000	106.459	80.002	19.995	103.624	20.025	0.575	0.008
16.000	106.518	80.001	19.996	103.636	20.021	0.882	0.021
18.000	106.534	80.000	19.998	103.667	20.016	1.204	0.046
20.000	106.594	80.001	19.997	103.695	20.015	1.291	0.050
22.000	106.712	80.002	19.996	103.716	20.010	1.639	0.010
24.000	106.839	80.003	19.994	103.745	20.004	2.043	0.064
26.000	107.011	80.001	19.994	103.768	20.003	2.167	0.078
28.000	107.221	80.002	19.994	103.766	20.001	2.267	0.105
30.000	107.399	80.001	19.995	103.768	20.001	2.303	0.081
32.000	107.677	80.001	19.996	103.776	20.000	2.387	0.164
34.000	107.931	80.000	19.995	103.773	19.994	2.801	0.140
36.000	108.282	80.002	19.996	103.775	19.995	2.739	0.142
38.000	108.599	79.999	19.995	103.785	19.991	2.996	0.158
40.000	108.987	80.001	19.996	103.811	19.990	3.044	0.182
42.000	109.416	80.001	19.996	103.801	19.990	3.072	0.219
44.000	109.799	80.002	19.996	103.782	19.991	2.979	0.232
46.000	110.247	80.001	19.996	103.790	19.992	2.963	0.207
48.000	110.659	80.002	19.995	103.779	19.991	2.999	0.204
50.000	111.135	80.001	19.995	103.795	19.992	2.926	0.260
52.000	111.587	80.002	19.994	103.786	19.991	3.003	0.236
54.001	112.091	80.001	19.995	103.795	19.991	3.003	0.251
56.000	112.603	80.002	19.994	103.785	19.987	3.302	0.245
58.000	113.141	80.002	19.994	103.797	19.988	3.232	0.258
60.000	113.701	80.001	19.994	103.812	19.990	3.098	0.274
62.000	114.281	80.001	19.993	103.812	19.988	3.187	0.276
64.000	114.829	80.000	19.994	103.810	19.989	3.130	0.275
66.001	115.393	80.002	19.994	103.810	19.986	3.367	0.292
68.001	116.004	80.002	19.994	103.810	19.984	3.494	0.302
70.000	116.594	80.004	19.993	103.814	19.984	3.486	0.272
72.000	117.284	80.004	19.994	103.809	19.986	3.350	0.351
74.000	117.960	80.004	19.994	103.807	19.983	3.596	0.334
76.000	118.629	80.002	19.995	103.813	19.982	3.633	0.320
78.000	119.288	80.003	19.997	103.810	19.984	3.509	0.320
80.000	119.971	80.001	19.996	103.827	19.978	3.946	0.347
82.000	120.663	80.001	19.995	103.831	19.979	3.857	0.336
84.000	121.399	80.003	19.994	103.845	19.976	4.102	0.389
86.000	122.121	80.002	19.995	103.844	19.978	3.950	0.366
88.000	122.945	80.001	19.995	103.838	19.979	3.897	0.413
90.000	123.692	80.001	19.994	103.848	19.977	3.990	0.388
92.000	124.465	80.000	19.996	103.847	19.978	3.954	0.379
94.000	125.267	80.000	19.994	103.851	19.978	3.930	0.405
96.000	126.038	80.002	19.995	103.848	19.977	4.011	0.386
98.000	126.845	80.001	19.995	103.849	19.979	3.869	0.414
100.000	127.657	80.002	19.995	103.850	19.979	3.869	0.425
102.000	128.542	80.002	19.994	103.850	19.979	3.851	0.429
104.000	129.408	80.002	19.995	103.850	19.982	3.667	0.446
106.000	130.263	80.000	19.996	103.849	19.975	4.120	0.402
108.000	131.152	80.002	19.994	103.842	19.976	4.055	0.448
110.001	131.998	80.001	19.997	103.848	19.974	4.221	0.434
112.000	132.889	80.001	19.995	103.849	19.976	4.091	0.432
114.000	133.827	80.002	19.995	103.850	19.977	4.021	0.458
116.000	134.697	79.998	19.995	103.847	19.974	4.225	0.444
118.001	135.575	80.001	19.995	103.850	19.977	4.031	0.462
120.000	136.514	80.000	19.994	103.847	19.976	4.110	0.491
122.000	137.468	80.002	19.994	103.851	19.976	4.092	0.483
124.000	138.367	80.000	19.994	103.851	19.978	3.943	0.478
126.000	139.286	80.001	19.995	103.848	19.974	4.183	0.460
128.000	140.254	80.003	19.995	103.846	19.975	4.164	0.474
130.000	141.117	80.003	19.995	103.846	19.977	3.993	0.467
132.000	142.085	80.001	19.995	103.839	19.977	4.001	0.446
134.000	143.057	80.001	19.997	103.833	19.979	3.889	0.473
136.000	143.994	80.001	19.995	103.833	19.977	3.979	0.474
138.000	144.980	80.000	19.998	103.844	19.980	3.773	0.484
140.000	145.964	80.000	19.998	103.844	19.981	3.748	0.501
142.000	146.894	80.001	19.997	103.840	19.978	3.965	0.464
144.000	147.881	80.002	19.995	103.838	19.980	3.773	0.512
146.000	148.849	80.004	19.994	103.846	19.981	3.732	0.498
148.000	149.836	80.002	19.994	103.837	19.977	4.012	0.498
150.000	150.839	80.003	19.994	103.837	19.981	3.694	0.481
152.000	151.826	80.003	19.995	103.840	19.978	3.920	0.477
154.000	152.789	80.004	19.995	103.832	19.976	4.070	0.511
156.000	153.774	80.005	19.994	103.840	19.981	3.750	0.487
158.000	154.726	80.004	19.994	103.833	19.979	3.884	0.462
160.000	155.732	80.001	19.995	103.819	19.975	4.131	0.472
162.000	156.676	80.001	19.996	103.835	19.973	4.273	0.476
164.000	157.700	80.001	19.995	103.836	19.977	4.022	0.523
166.000	158.701	80.001	19.995	103.845	19.975	4.155	0.498
168.000	159.677	80.002	19.995	103.825	19.979	3.866	0.507
170.000	160.674	80.002	19.996	103.820	19.979	3.872	0.479
172.000	161.635	80.002	19.995	103.824	19.976	4.056	0.472
174.000	162.636	80.003	19.995	103.818	19.976	4.066	0.506
176.000	163.593	80.001	19.995	103.822	19.974	4.240	0.520
178.000	164.597	80.000	19.994	103.818	19.975	4.143	0.484
180.000	165.620	80.002	19.994	103.815	19.974	4.224	0.479
182.000	166.609	80.001	19.994	103.819	19.975	4.176	0.512
184.000	167.584	80.002	19.995	103.817	19.977	3.982	0.509
186.000	168.578	80.000	19.993	103.821	19.973	4.261	0.477
188.000	169.558	79.999	19.995	103.817	19.976	4.054	0.497
190.000	170.558	80.001	19.994	103.811	19.973	4.281	0.503
192.000	171.560	80.002	19.995	103.813	19.975	4.137	0.485
194.000	172.524	80.001	19.995	103.813	19.973	4.283	0.497
196.000	173.539	80.000	19.996	103.810	19.972	4.336	0.494
198.000	174.554	80.000	19.997	103.810	19.971	4.461	0.520
200.000	175.471	80.001	19.994	103.817	19.974	4.245	0.467
202.000	176.457	80.003	19.996	103.809	19.973	4.255	0.506
204.000	177.451	80.002	19.996	103.813	19.971	4.427	0.485
206.000	178.461	80.002	19.995	103.810	19.972	4.330	0.505
208.001	179.375	80.002	19.995	103.808	19.968	4.665	0.462
210.000	180.430	80.002	19.996	103.811	19.973	4.301	0.520
212.000	181.418	80.002	19.995	103.808	19.971	4.407	0.512
214.001	182.400	80.001	19.995	103.787	19.965	4.882	0.502
216.000	183.353	80.001	19.995	103.742	19.971	4.439	0.483
218.000	184.357	80.001	19.995	103.859	19.967	4.742	0.507
220.000	185.385	80.001	19.995	103.816	19.966	4.754	0.527
222.000	186.352	80.002	19.995	103.805	19.967	4.738	0.485
224.000	187.368	80.001	19.995	103.807	19.967	4.698	0.494
226.000	188.321	80.001	19.996	103.809	19.968	4.643	0.469
228.000	189.305	80.003	19.996	103.807	19.962	5.056	0.493
230.000	190.279	80.002	19.997	103.809	19.961	5.139	0.491
232.000	191.271	80.003	19.995	103.808	19.962	5.098	0.496
234.000	192.249	80.004	19.995	103.807	19.963	4.979	0.455
236.000	193.246	80.004	19.994	103.806	19.957	5.411	0.457
238.000	194.221	80.002	19.994	103.810	19.959	5.258	0.475
240.000	195.260	80.002	19.994	103.809	19.959	5.268	0.504
242.000	196.223	80.000	19.994	103.810	19.955	5.571	0.484
244.000	197.210	80.000	19.994	103.810	19.955	5.539	0.504
246.000	198.199	80.000	19.995	103.808	19.955	5.593	0.496
248.000	199.213	80.000	19.994	103.811	19.956	5.466	0.490
250.000	200.158	80.002	19.993	103.811	19.953	5.693	0.482
252.000	201.181	80.000	19.995	103.809	19.951	5.879	0.517
254.000	202.174	80.001	19.995	103.810	19.949	6.002	0.511
256.000	203.150	80.000	19.995	103.812	19.949	6.010	0.484
258.000	204.117	80.001	19.998	103.806	19.946	6.180	0.474
260.000	205.087	80.001	19.996	103.804	19.943	6.435	0.500
262.000	206.097	80.001	19.994	103.805	19.942	6.512	0.474
264.000	207.131	80.002	19.994	103.802	19.942	6.491	0.517
266.000	208.131	80.003	19.993	103.807	19.941	6.585	0.510
268.000	209.105	80.001	19.993	103.809	19.934	7.048	0.506
270.000	210.089	80.001	19.995	103.809	19.935	6.995	0.503
272.000	211.071	80.001	19.995	103.810	19.930	7.359	0.474
274.000	212.056	80.002	19.995	103.807	19.927	7.573	0.483
276.000	213.062	80.002	19.993	103.809	19.924	7.796	0.507
278.000	214.032	80.000	19.995	103.807	19.923	7.887	0.481
280.000	215.025	80.001	19.995	103.815	19.916	8.336	0.512
282.000	215.971	80.001	19.994	103.811	19.916	8.320	0.480
284.000	216.988	80.003	19.994	103.809	19.917	8.277	0.500
286.000	217.956	80.003	19.994	103.808	19.911	8.706	0.471
288.000	218.929	80.003	19.994	103.808	19.907	8.987	0.492
290.000	219.912	80.002	19.994	103.810	19.904	9.193	0.486
292.000	220.887	80.003	19.995	103.810	19.900	9.467	0.479
294.000	221.843	80.002	19.994	103.808	19.899	9.600	0.483
296.000	222.852	80.001	19.995	103.814	19.893	9.974	0.495
298.000	223.874	80.002	19.995	103.814	19.890	10.217	0.532
300.000	224.801	80.000	19.994	103.815	19.885	10.574	0.468
302.000	225.804	80.002	19.995	103.814	19.880	10.894	0.482
304.000	226.788	80.002	19.995	103.828	19.877	11.130	0.492
306.000	227.743	80.001	19.995	103.820	19.877	11.132	0.478
308.000	228.793	80.002	19.994	103.816	19.873	11.405	0.530
310.000	229.783	80.001	19.996	103.821	19.873	11.433	0.471
312.000	230.755	80.003	19.994	103.814	19.867	11.873	0.481
314.000	231.752	80.002	19.994	103.821	19.865	11.978	0.499
316.000	232.727	80.000	19.995	103.832	19.862	12.228	0.514
318.000	233.741	80.002	19.998	103.834	19.858	12.512	0.535
320.000	234.719	80.001	19.996	103.821	19.859	12.444	0.514
322.000	235.670	80.000	19.994	103.812	19.854	12.769	0.480
324.000	236.671	80.001	19.995	103.834	19.852	12.895	0.498
326.000	237.646	80.002	19.995	103.832	19.852	12.895	0.493
328.000	238.672	80.002	19.994	103.842	19.851	12.988	0.483
330.000	239.690	80.001	19.994	103.844	19.848	13.204	0.507
332.001	240.654	80.003	19.993	103.832	19.847	13.302	0.499
334.000	241.636	80.001	19.994	103.845	19.845	13.431	0.506
336.000	242.657	80.001	19.995	103.832	19.839	13.887	0.521
338.000	243.661	80.003	19.994	103.832	19.842	13.669	0.495
340.000	244.669	80.001	19.994	103.837	19.838	13.915	0.509
342.001	245.698	80.000	19.995	103.827	19.834	14.212	0.516
344.000	246.724	80.002	19.996	103.839	19.831	14.390	0.505
346.000	247.649	80.000	19.994	103.842	19.833	14.272	0.480
348.000	248.639	80.001	19.994	103.837	19.829	14.590	0.458
350.000	249.702	80.000	19.994	103.835	19.823	14.967	0.528
352.000	250.737	80.002	19.994	103.839	19.822	15.079	0.498
354.000	251.719	80.001	19.994	103.836	19.818	15.325	0.539
356.000	252.726	80.001	19.995	103.836	19.818	15.352	0.496
358.001	253.731	80.001	19.995	103.823	19.819	15.305	0.498
360.000	254.729	80.000	19.995	103.822	19.815	15.588	0.498
362.000	255.742	80.002	19.993	103.832	19.812	15.782	0.527
364.000	256.703	80.003	19.994	103.848	19.808	16.056	0.495
366.000	257.693	80.003	19.994	103.847	19.809	15.992	0.500
368.000	258.690	80.001	19.995	103.839	19.810	15.959	0.508
370.000	259.720	80.003	19.994	103.850	19.803	16.390	0.485
372.000	260.731	80.004	19.994	103.847	19.802	16.522	0.489
374.000	261.742	80.002	19.994	103.849	19.796	16.922	0.525
376.000	262.700	80.002	19.996	103.850	19.789	17.418	0.505
378.000	263.765	80.002	19.999	103.851	19.786	17.633	0.522
380.000	264.727	80.002	19.998	103.850	19.781	18.002	0.517
382.000	265.706	80.003	19.997	103.851	19.775	18.398	0.498
384.000	266.760	80.003	19.995	103.855	19.770	18.786	0.550
386.000	267.733	80.002	19.995	103.850	19.762	19.340	0.490
388.000	268.727	80.003	19.996	103.857	19.756	19.767	0.486
390.000	269.729	80.004	19.994	103.857	19.752	20.045	0.470
392.000	270.770	80.006	19.993	103.860	19.749	20.279	0.519
394.000	271.781	80.004	19.994	103.877	19.739	21.006	0.484
396.000	272.764	80.002	19.994	103.875	19.728	21.790	0.521
398.000	273.805	80.002	19.994	103.876	19.724	22.056	0.490
400.000	274.753	80.001	19.994	103.886	19.714	22.806	0.464
402.000	275.753	80.002	19.995	103.885	19.704	23.523	0.519
404.000	276.720	80.001	19.995	103.885	19.695	24.150	0.468
406.000	277.765	80.001	19.995	103.888	19.686	24.778	0.498
408.000	278.732	80.000	19.997	103.905	19.675	25.581	0.466
410.000	279.744	80.000	19.997	103.907	19.665	26.285	0.488
412.000	280.759	80.000	19.996	103.902	19.655	26.980	0.541
414.000	281.703	80.002	19.996	103.902	19.642	27.976	0.470
416.000	282.685	80.002	19.995	103.927	19.630	28.791	0.498
418.000	283.727	80.002	19.996	103.944	19.617	29.746	0.503
420.000	284.684	80.002	19.993	103.941	19.605	30.591	0.468
422.000	285.727	80.001	19.995	103.947	19.591	31.623	0.502
424.000	286.684	80.003	19.995	103.961	19.575	32.747	0.508
426.000	287.679	80.001	19.995	103.968	19.561	33.728	0.494
428.000	288.681	80.000	19.994	103.968	19.546	34.814	0.487
430.000	289.668	80.005	19.995	103.970	19.533	35.761	0.479
432.000	290.703	80.002	19.994	103.989	19.519	36.748	0.521
434.000	291.679	80.000	19.995	103.979	19.505	37.767	0.491
436.000	292.660	80.000	19.994	103.984	19.487	39.028	0.494
438.000	293.668	80.001	19.997	103.998	19.473	40.045	0.505
440.000	294.693	80.001	19.995	104.008	19.455	41.328	0.535
442.000	295.667	80.003	19.994	104.008	19.441	42.312	0.479
444.000	296.697	80.003	19.995	104.013	19.429	43.201	0.463
446.000	297.692	80.005	19.994	104.010	19.414	44.282	0.509
448.000	298.707	80.005	19.995	104.024	19.394	45.665	0.496
450.000	299.690	80.002	19.994	104.031	19.379	46.753	0.514
452.000	300.681	80.003	19.994	104.033	19.368	47.590	0.497
454.000	301.711	80.002	19.995	104.039	19.347	49.079	0.516
456.000	302.735	80.003	19.993	104.041	19.333	50.096	0.505
458.000	303.720	80.003	19.993	104.044	19.321	50.906	0.492
460.000	304.728	80.001	19.995	104.044	19.306	51.970	0.491
462.000	305.699	80.002	19.994	104.049	19.292	52.988	0.475
464.000	306.721	80.004	19.994	104.049	19.276	54.130	0.491
466.000	307.730	80.003	19.995	104.053	19.263	55.092	0.492
468.000	308.751	80.005	19.993	104.052	19.255	55.616	0.534
470.000	309.744	80.005	19.994	104.053	19.246	56.268	0.499
472.000	310.728	80.003	19.996	104.061	19.232	57.324	0.484
474.000	311.768	80.002	19.996	104.066	19.224	57.852	0.547
476.000	312.778	80.001	19.994	104.078	19.217	58.345	0.478
478.000	313.751	80.002	19.996	104.069	19.209	58.947	0.482
480.000	314.824	80.001	19.996	104.056	19.204	59.299	0.525
482.000	315.762	80.002	19.994	104.067	19.199	59.615	0.476
484.000	316.761	80.001	19.995	104.058	19.196	59.833	0.496
486.000	317.756	80.002	19.994	104.054	19.195	59.891	0.508
488.000	318.764	80.000	19.995	104.049	19.193	60.062	0.506
490.000	319.692	80.000	19.996	104.046	19.192	60.151	0.484
492.000	320.712	80.000	19.995	104.045	19.195	59.909	0.513
494.000	321.705	80.000	19.995	104.042	19.200	59.527	0.502
496.000	322.690	80.001	19.995	104.031	19.205	59.202	0.514
498.000	323.689	80.000	19.997	104.014	19.211	58.730	0.479
500.000	324.696	79.999	19.997	104.021	19.224	57.829	0.492
502.000	325.694	79.999	19.996	103.997	19.237	56.853	0.499
504.000	326.668	80.001	19.996	103.993	19.251	55.871	0.469
506.000	327.671	80.002	19.994	103.975	19.269	54.560	0.491
508.000	328.677	80.001	19.995	103.967	19.290	53.037	0.498
510.000	329.670	80.002	19.995	103.955	19.310	51.615	0.527
512.000	330.694	79.998	19.994	103.929	19.332	50.015	0.522
514.000	331.686	80.000	19.995	103.917	19.361	47.974	0.496
516.000	332.696	80.000	19.995	103.894	19.389	45.969	0.483
518.000	333.733	80.003	19.994	103.885	19.421	43.695	0.519
520.000	334.731	80.003	19.993	103.856	19.453	41.398	0.511
522.001	335.746	80.002	19.993	103.845	19.484	39.173	0.530
524.000	336.730	80.003	19.993	103.834	19.517	36.837	0.498
526.000	337.725	80.002	19.994	103.811	19.550	34.425	0.513
528.000	338.766	80.004	19.994	103.804	19.587	31.815	0.507
530.000	339.750	80.003	19.995	103.802	19.620	29.440	0.510
532.000	340.760	80.002	19.995	103.781	19.650	27.290	0.517
534.000	341.794	80.003	19.995	103.773	19.682	25.063	0.504
536.000	342.780	80.000	19.995	103.769	19.708	23.186	0.496
538.000	343.765	80.002	19.993	103.768	19.734	21.334	0.491
540.000	344.822	80.001	19.995	103.762	19.756	19.770	0.525
542.000	345.782	80.003	19.994	103.752	19.776	18.296	0.516
544.000	346.777	80.001	19.995	103.745	19.788	17.494	0.496
546.000	347.792	80.004	19.994	103.761	19.807	16.121	0.499
548.000	348.808	80.004	19.993	103.751	19.821	15.132	0.520
550.000	349.829	80.004	19.994	103.741	19.829	14.573	0.527
552.000	350.793	80.004	19.993	103.745	19.840	13.765	0.511
554.000	351.838	80.002	19.994	103.736	19.846	13.338	0.532
556.000	352.830	80.005	19.992	103.743	19.858	12.516	0.487
558.000	353.818	80.000	19.998	103.758	19.864	12.079	0.492
560.000	354.823	80.003	19.995	103.749	19.868	11.790	0.471
562.000	355.832	79.999	19.995	103.755	19.875	11.292	0.515
564.000	356.832	79.999	19.996	103.741	19.879	10.995	0.490
566.000	357.815	80.000	19.995	103.738	19.885	10.532	0.507
568.000	358.791	80.001	19.995	103.744	19.890	10.182	0.492
570.000	359.783	80.001	19.993	103.739	19.891	10.149	0.486
572.000	360.802	79.998	19.995	103.745	19.894	9.883	0.486
574.000	361.791	80.002	19.994	103.733	19.898	9.619	0.482
576.000	362.788	80.000	19.994	103.733	19.900	9.487	0.495
578.000	363.793	80.003	19.994	103.732	19.902	9.313	0.508
580.000	364.799	80.002	19.995	103.733	19.905	9.104	0.514
582.000	365.781	80.001	19.994	103.732	19.905	9.129	0.490
584.000	366.772	80.001	19.994	103.728	19.909	8.875	0.514
586.000	367.784	79.999	19.996	103.731	19.908	8.935	0.476
588.000	368.781	80.001	19.995	103.736	19.910	8.790	0.511
590.000	369.776	79.998	19.996	103.738	19.914	8.518	0.500
592.000	370.774	80.000	19.996	103.745	19.916	8.375	0.481
594.000	371.785	80.001	19.995	103.731	19.920	8.071	0.496
596.000	372.805	80.001	19.995	103.732	19.920	8.047	0.532
598.000	373.838	80.000	19.994	103.733	19.921	7.984	0.538
600.000	374.793	80.002	19.994	103.728	19.921	7.998	0.469
602.000	375.837	80.001	19.996	103.730	19.924	7.777	0.525
604.000	376.840	80.003	19.994	103.729	19.925	7.681	0.528
606.000	377.807	80.004	19.993	103.731	19.926	7.670	0.490
608.000	378.826	80.000	19.995	103.733	19.922	7.931	0.527
610.000	379.850	80.003	19.995	103.731	19.927	7.573	0.519
612.000	380.827	80.003	19.994	103.731	19.928	7.486	0.496
614.000	381.830	80.001	19.994	103.727	19.930	7.340	0.460
616.000	382.842	80.003	19.994	103.727	19.930	7.342	0.539
618.000	383.812	79.998	19.997	103.733	19.929	7.407	0.498
620.000	384.822	80.001	19.995	103.735	19.933	7.114	0.512
622.000	385.832	80.005	19.993	103.732	19.931	7.290	0.517
624.000	386.811	80.002	19.996	103.731	19.933	7.102	0.515
626.000	387.782	80.003	19.993	103.735	19.936	6.928	0.493
628.000	388.842	80.002	19.994	103.735	19.934	7.065	0.538
630.000	389.826	80.004	19.994	103.730	19.936	6.911	0.515
632.000	390.833	80.001	19.994	103.731	19.941	6.545	0.493
634.000	391.823	80.003	19.994	103.730	19.942	6.472	0.485
636.000	392.866	80.006	19.993	103.732	19.942	6.490	0.511
638.000	393.853	80.000	19.993	103.708	19.942	6.470	0.501
640.000	394.863	80.002	19.993	103.724	19.941	6.535	0.495
642.000	395.878	80.001	19.994	103.740	19.946	6.221	0.523
644.000	396.851	80.002	19.995	103.730	19.945	6.262	0.480
646.000	397.862	80.001	19.996	103.730	19.945	6.314	0.542
648.000	398.888	80.000	19.995	103.729	19.946	6.197	0.488
650.000	399.865	80.002	19.996	103.728	19.946	6.215	0.494
652.000	400.899	80.000	19.995	103.730	19.947	6.142	0.506
654.000	401.837	80.001	19.996	103.728	19.947	6.147	0.479
656.000	402.853	80.001	19.995	103.732	19.951	5.825	0.484
658.000	403.862	80.001	19.996	103.732	19.950	5.930	0.509
660.000	404.860	80.001	19.995	103.728	19.950	5.948	0.527
662.000	405.838	80.001	19.995	103.727	19.953	5.716	0.503
664.000	406.844	80.000	19.995	103.729	19.953	5.721	0.490
666.000	407.822	80.001	19.995	103.721	19.952	5.754	0.476
668.000	408.842	80.000	19.995	103.722	19.954	5.669	0.501
670.000	409.781	79.998	19.995	103.722	19.954	5.636	0.454
672.000	410.861	80.000	19.995	103.717	19.956	5.525	0.526
674.000	411.850	80.001	19.994	103.718	19.954	5.675	0.489
676.000	412.850	80.001	19.996	103.732	19.956	5.508	0.518
678.000	413.852	80.001	19.998	103.730	19.957	5.442	0.493
680.000	414.802	80.001	19.996	103.731	19.955	5.544	0.470
682.000	415.800	80.001	19.995	103.731	19.956	5.515	0.495
684.000	416.810	80.001	19.995	103.728	19.958	5.323	0.499
686.000	417.823	80.002	19.994	103.713	19.958	5.372	0.497
688.000	418.829	80.001	19.995	103.730	19.958	5.351	0.501
690.000	419.834	80.000	19.994	103.731	19.963	5.018	0.493
692.000	420.844	80.001	19.994	103.728	19.962	5.042	0.491
694.000	421.868	80.001	19.994	103.730	19.964	4.907	0.499
696.000	422.858	80.000	19.993	103.716	19.965	4.831	0.506
698.000	423.896	80.002	19.993	103.728	19.965	4.865	0.488
700.000	424.900	80.002	19.994	103.719	19.964	4.929	0.476
702.000	425.907	80.003	19.994	103.720	19.962	5.092	0.495
704.000	426.915	80.002	19.994	103.717	19.960	5.200	0.494
706.000	428.007	80.003	19.993	103.714	19.961	5.139	0.517
708.000	428.969	80.003	19.994	103.655	19.964	4.907	0.489
710.000	429.967	80.004	19.993	103.732	19.967	4.698	0.490
712.000	430.976	80.003	19.994	103.741	19.966	4.806	0.507
714.000	431.963	80.001	19.995	103.724	19.966	4.761	0.484
716.000	432.941	80.001	19.994	103.708	19.967	4.710	0.506
718.000	433.956	79.999	19.994	103.709	19.965	4.846	0.463
720.000	435.002	80.001	19.994	103.710	19.967	4.725	0.544
722.000	436.027	80.000	19.995	103.712	19.970	4.472	0.522
724.000	437.040	80.002	19.995	103.707	19.968	4.643	0.501
726.000	438.030	80.002	19.993	103.706	19.966	4.768	0.480
728.000	439.040	80.000	19.994	103.709	19.966	4.801	0.535
730.000	440.070	80.001	19.993	103.704	19.966	4.763	0.533
732.000	441.050	80.002	19.995	103.706	19.968	4.672	0.485
734.000	442.087	80.002	19.994	103.718	19.966	4.795	0.498
736.000	443.104	80.000	19.994	103.674	19.963	4.986	0.491
738.000	444.102	80.000	19.996	103.676	19.968	4.655	0.493
740.000	445.115	80.001	19.995	103.778	19.971	4.431	0.514
742.000	446.136	80.002	19.995	103.712	19.972	4.381	0.491
744.000	447.119	80.000	19.995	103.714	19.972	4.385	0.455
746.000	448.170	80.000	19.996	103.704	19.969	4.540	0.526
748.000	449.197	80.000	19.995	103.703	19.972	4.350	0.502
750.000	450.208	80.000	19.995	103.717	19.972	4.346	0.498
752.000	451.233	79.999	19.995	103.704	19.970	4.464	0.484
754.000	452.268	80.001	19.996	103.702	19.971	4.438	0.497
756.000	453.298	80.001	19.996	103.705	19.969	4.582	0.488
758.000	454.289	80.001	19.993	103.717	19.971	4.391	0.520
760.000	455.316	80.002	19.994	103.720	19.973	4.271	0.492
762.000	456.361	80.002	19.994	103.721	19.971	4.429	0.516
764.000	457.362	80.001	19.996	103.701	19.971	4.413	0.498
766.000	458.400	80.002	19.995	103.694	19.969	4.563	0.504
768.000	459.392	80.001	19.995	103.696	19.970	4.515	0.503
770.000	460.419	80.002	19.995	103.700	19.974	4.247	0.509
772.000	461.427	80.002	19.996	103.707	19.971	4.414	0.519
774.000	462.416	80.001	19.994	103.700	19.974	4.221	0.463
776.000	463.426	80.001	19.994	103.692	19.968	4.618	0.512
778.000	464.400	80.002	19.995	103.701	19.970	4.515	0.501
780.000	465.386	80.003	19.994	103.697	19.974	4.193	0.493
782.000	466.376	80.002	19.994	103.697	19.974	4.225	0.497
784.000	467.370	80.003	19.994	103.693	19.976	4.093	0.490
786.000	468.362	80.004	19.994	103.691	19.979	3.889	0.505
788.000	469.321	80.003	19.993	103.695	19.975	4.148	0.491
790.000	470.291	80.003	19.994	103.691	19.974	4.229	0.462
792.000	471.312	80.004	19.994	103.696	19.976	4.104	0.492
794.000	472.315	80.002	19.993	103.698	19.976	4.067	0.522
796.000	473.361	80.000	19.994	103.697	19.977	4.005	0.566
798.000	474.338	80.002	19.995	103.705	19.980	3.782	0.504
800.000	475.374	79.999	19.995	103.710	19.979	3.842	0.523
802.000	476.351	80.000	19.994	103.702	19.981	3.737	0.480
804.000	477.327	80.000	19.995	103.701	19.980	3.759	0.517
806.000	478.344	80.001	19.995	103.693	19.979	3.830	0.515
808.000	479.352	80.001	19.995	103.697	19.978	3.956	0.517
810.000	480.360	80.001	19.995	103.701	19.982	3.644	0.520
812.000	481.396	80.002	19.994	103.710	19.982	3.656	0.518
814.000	482.382	80.000	19.994	103.702	19.981	3.698	0.505
816.000	483.406	80.002	19.995	103.698	19.982	3.648	0.532
818.000	484.436	80.003	19.993	103.696	19.983	3.592	0.510
820.000	485.403	80.001	19.995	103.699	19.981	3.679	0.499
822.000	486.410	80.001	19.993	103.696	19.983	3.567	0.492
824.000	487.423	80.001	19.993	103.702	19.980	3.762	0.513
826.000	488.460	80.000	19.995	103.711	19.985	3.407	0.494
828.000	489.507	80.002	19.994	103.696	19.984	3.480	0.547
830.000	490.530	80.000	19.994	103.694	19.986	3.342	0.515
832.000	491.524	80.002	19.995	103.692	19.985	3.415	0.532
834.000	492.560	80.001	19.995	103.693	19.984	3.484	0.507
836.000	493.595	80.001	19.995	103.692	19.987	3.320	0.516
838.000	494.638	80.001	19.995	103.692	19.984	3.523	0.533
840.000	495.696	80.002	19.995	103.697	19.985	3.423	0.526
842.000	496.689	80.002	19.994	103.709	19.985	3.429	0.517
844.000	497.714	80.002	19.995	103.698	19.985	3.436	0.503
846.000	498.741	80.002	19.996	103.700	19.987	3.279	0.502
848.000	499.791	80.001	19.995	103.692	19.985	3.445	0.520
850.000	500.837	80.002	19.994	103.691	19.984	3.519	0.530
852.000	501.885	80.001	19.994	103.704	19.984	3.500	0.493
854.000	502.928	80.001	19.996	103.692	19.985	3.399	0.498
856.000	503.942	80.001	19.994	103.698	19.982	3.612	0.519
858.000	504.975	80.001	19.998	103.704	19.986	3.361	0.493
860.000	506.096	80.002	19.998	103.704	19.986	3.385	0.532
862.000	507.143	80.002	19.994	103.695	19.987	3.252	0.536
864.000	508.191	80.002	19.995	103.697	19.987	3.290	0.534
866.000	509.255	80.003	19.996	103.699	19.986	3.389	0.552
868.000	510.335	80.003	19.995	103.702	19.989	3.110	0.567
870.000	511.358	80.003	19.994	103.699	19.988	3.247	0.482
872.000	512.423	80.002	19.994	103.691	19.988	3.201	0.495
874.000	513.521	80.003	19.995	103.693	19.990	3.104	0.550
876.000	514.567	80.002	19.995	103.696	19.989	3.124	0.515
878.000	515.641	80.000	19.995	103.695	19.991	3.035	0.556
880.000	516.657	80.000	19.994	103.695	19.987	3.312	0.525
882.000	517.706	80.001	19.994	103.695	19.986	3.353	0.506
884.000	518.768	80.002	19.994	103.698	19.987	3.284	0.501
886.000	519.802	80.000	19.995	103.696	19.986	3.353	0.528
888.000	520.787	80.002	19.995	103.698	19.988	3.237	0.515
890.000	521.792	80.001	19.995	103.697	19.987	3.268	0.486
892.000	522.794	80.002	19.995	103.695	19.988	3.247	0.472
894.000	523.831	80.001	19.995	103.693	19.987	3.296	0.469
896.000	524.814	80.000	19.994	103.692	19.984	3.472	0.491
898.000	525.802	80.001	19.994	103.700	19.990	3.104	0.475
900.000	526.812	80.000	19.994	103.697	19.990	3.106	0.505
902.000	527.839	80.000	19.995	103.691	19.990	3.081	0.529
904.000	528.847	80.000	19.995	103.693	19.991	2.996	0.520
906.000	529.826	80.001	19.994	103.692	19.991	2.992	0.477
908.000	530.778	80.001	19.995	103.693	19.989	3.150	0.469
910.000	531.809	80.000	19.994	103.692	19.988	3.241	0.508
912.000	532.822	80.001	19.996	103.692	19.989	3.156	0.518
914.000	533.802	80.000	19.995	103.692	19.992	2.924	0.483
916.000	534.794	80.001	19.994	103.691	19.992	2.921	0.514
918.000	535.787	80.003	19.997	103.692	19.994	2.757	0.468
920.000	536.761	80.002	19.994	103.701	19.990	3.037	0.466
922.000	537.793	80.003	19.994	103.691	19.991	2.984	0.504
924.000	538.786	80.002	19.996	103.691	19.988	3.247	0.473
926.000	539.763	80.001	19.996	103.692	19.989	3.142	0.512
928.000	540.792	80.002	19.995	103.695	19.988	3.197	0.517
930.000	541.813	80.001	19.995	103.706	19.986	3.377	0.499
932.000	542.833	80.002	19.996	103.695	19.988	3.195	0.502
934.000	543.849	80.001	19.995	103.697	19.989	3.172	0.480
936.000	544.890	80.001	19.995	103.703	19.989	3.124	0.514
938.000	545.911	80.002	19.996	103.697	19.990	3.073	0.493
940.000	547.021	80.002	19.996	103.706	19.987	3.264	0.558
942.000	548.060	80.003	19.995	103.700	19.990	3.087	0.517
944.000	549.163	80.003	19.994	103.705	19.989	3.112	0.551
946.000	550.280	80.003	19.995	103.702	19.989	3.146	0.552
948.000	551.304	80.002	19.994	103.697	19.987	3.300	0.507
950.000	552.394	80.002	19.995	103.697	19.989	3.171	0.526
952.000	553.532	80.002	19.995	103.694	19.988	3.183	0.577
954.000	554.606	80.002	19.997	103.697	19.988	3.203	0.526
956.000	555.698	80.000	19.995	103.694	19.992	2.903	0.535
958.000	556.770	80.002	19.996	103.696	19.988	3.243	0.546
960.000	557.872	80.001	19.995	103.691	19.990	3.057	0.557
962.000	558.967	80.001	19.996	103.693	19.988	3.241	0.555
964.000	560.034	80.002	19.995	103.684	19.989	3.112	0.539
966.000	561.114	80.001	19.994	103.692	19.991	3.025	0.534
968.000	562.272	80.003	19.994	103.692	19.991	3.019	0.572
970.000	563.322	80.003	19.995	103.690	19.991	2.972	0.524
972.000	564.427	80.002	19.996	103.696	19.986	3.391	0.511
974.000	565.482	80.002	19.995	103.698	19.989	3.175	0.542
976.000	566.546	80.003	19.997	103.696	19.992	2.911	0.524
978.000	567.642	80.002	19.999	103.694	19.990	3.100	0.523
980.000	568.759	80.002	19.996	103.700	19.987	3.272	0.560
982.000	569.834	80.001	19.996	103.693	19.985	3.424	0.552
984.000	570.926	80.001	19.994	103.691	19.987	3.255	0.558
986.000	571.990	80.002	19.996	103.692	19.989	3.156	0.547
988.000	573.103	80.000	19.995	103.690	19.984	3.472	0.559
990.000	574.204	80.002	19.996	103.695	19.986	3.389	0.569
992.000	575.268	80.002	19.995	103.694	19.983	3.594	0.570
994.000	576.369	80.001	19.995	103.695	19.984	3.495	0.545
996.000	577.434	80.003	19.994	103.697	19.984	3.523	0.531
998.000	578.529	80.003	19.994	103.696	19.986	3.345	0.559
1000.000	579.571	80.004	19.994	103.694	19.987	3.312	0.528
1002.000	580.623	80.004	19.995	103.692	19.982	3.618	0.515
1004.000	581.663	80.003	19.993	103.694	19.986	3.334	0.529
1006.000	582.711	80.003	19.994	103.686	19.986	3.383	0.501
1008.000	583.769	80.002	19.995	103.688	19.986	3.385	0.503
1010.000	584.869	80.002	19.995	103.693	19.987	3.290	0.537
1012.000	585.921	80.001	19.994	103.694	19.987	3.304	0.533
1014.000	586.928	80.002	19.995	103.695	19.987	3.312	0.500
1016.000	587.937	80.002	19.994	103.694	19.989	3.130	0.490
1018.000	589.041	80.003	19.996	103.692	19.987	3.294	0.559
1020.000	590.080	80.003	19.995	103.690	19.989	3.146	0.503
1022.000	591.124	80.003	19.995	103.691	19.988	3.205	0.529
1024.000	592.124	80.004	19.995	103.691	19.986	3.345	0.480
1026.000	593.145	80.005	19.995	103.689	19.988	3.243	0.486
1028.000	594.200	80.003	19.994	103.690	19.987	3.252	0.533
1030.000	595.286	80.003	19.994	103.689	19.988	3.227	0.528
1032.001	596.289	80.002	19.995	103.690	19.986	3.353	0.508
1034.000	597.328	80.001	19.995	103.691	19.987	3.276	0.507
1036.000	598.351	80.001	19.994	103.690	19.985	3.438	0.511
1038.001	599.368	80.002	19.997	103.690	19.985	3.432	0.509
1040.000	600.439	80.000	19.996	103.689	19.988	3.248	0.522
1042.000	601.407	80.001	19.996	103.686	19.988	3.189	0.497
1044.000	602.433	80.002	19.996	103.687	19.986	3.363	0.515
1046.000	603.420	80.001	19.996	103.689	19.990	3.075	0.488
1048.000	604.430	80.002	19.994	103.691	19.988	3.199	0.497
1050.000	605.417	80.001	19.995	103.688	19.987	3.318	0.475
1052.000	606.412	80.004	19.996	103.691	19.986	3.336	0.481
1054.000	607.406	80.001	19.994	103.685	19.987	3.256	0.515
1056.000	608.426	80.001	19.996	103.689	19.991	3.031	0.531
1058.000	609.451	80.001	19.993	103.692	19.988	3.187	0.527
1060.000	610.465	80.002	19.995	103.696	19.986	3.381	0.528
1062.000	611.479	80.001	19.994	103.695	19.986	3.332	0.540
1064.001	612.486	80.001	19.995	103.692	19.987	3.262	0.529
1066.001	613.519	80.001	19.994	103.694	19.986	3.332	0.534
1068.000	614.531	80.001	19.994	103.694	19.990	3.069	0.502
1070.000	615.607	80.000	19.994	103.695	19.991	3.023	0.542
1072.000	616.615	80.001	19.994	103.686	19.989	3.167	0.515
1074.000	617.643	80.001	19.995	103.696	19.987	3.304	0.485
1076.000	618.668	80.001	19.994	103.696	19.991	3.017	0.543
1078.000	619.715	80.002	19.995	103.694	19.990	3.053	0.532
1080.000	620.708	80.002	19.994	103.693	19.993	2.828	0.502
1082.000	621.760	80.003	19.995	103.692	19.990	3.073	0.514
1084.000	622.843	80.003	19.994	103.689	19.991	3.005	0.535
1086.000	623.853	80.002	19.994	103.692	19.988	3.179	0.508
1088.000	624.909	80.003	19.994	103.689	19.987	3.260	0.527
1090.000	625.939	80.002	19.993	103.689	19.991	3.007	0.506
1092.000	626.991	80.003	19.994	103.691	19.993	2.861	0.510
1094.000	628.051	80.003	19.995	103.685	19.990	3.038	0.524
1096.000	629.069	80.003	19.993	103.685	19.992	2.911	0.548
1098.000	630.068	80.003	19.995	103.681	19.990	3.090	0.513
1100.000	631.111	80.003	19.995	103.691	19.991	2.972	0.514
1102.001	632.164	80.004	19.995	103.690	19.994	2.792	0.520
1104.001	633.224	80.004	19.994	103.667	19.992	2.912	0.535
1106.000	634.199	80.003	19.996	103.684	19.990	3.052	0.524
1108.000	635.298	80.003	19.995	103.687	19.986	3.359	0.546
1110.000	636.370	80.002	19.995	103.683	19.993	2.885	0.530
1112.000	637.367	80.001	19.996	103.687	19.988	3.201	0.516
1114.000	638.412	80.000	19.994	103.691	19.985	3.454	0.520
1116.000	639.475	80.001	19.995	103.684	19.988	3.189	0.523
1118.000	640.455	80.000	19.995	103.673	19.992	2.940	0.499
1120.000	641.517	80.000	19.994	103.697	19.989	3.173	0.539
1122.000	642.535	80.000	19.995	103.707	19.987	3.280	0.501
1124.001	643.533	80.001	19.995	103.688	19.988	3.199	0.488
1126.000	644.531	80.001	19.995	103.684	19.989	3.145	0.488
1128.000	645.567	80.000	19.995	103.692	19.990	3.052	0.521
1130.000	646.623	80.000	19.995	103.692	19.988	3.231	0.533
1132.000	647.680	80.001	19.996	103.687	19.990	3.065	0.556
1134.000	648.657	80.000	19.996	103.691	19.993	2.825	0.498
1136.000	649.660	80.001	19.995	103.684	19.991	2.976	0.498
1138.000	650.740	80.000	19.995	103.669	19.992	2.906	0.525
1140.000	651.780	80.001	19.995	103.696	19.991	2.980	0.531
1142.001	652.753	80.002	19.996	103.697	19.993	2.831	0.513
1144.000	653.795	80.000	19.995	103.678	19.994	2.821	0.524
1146.000	654.860	80.000	19.995	103.678	19.992	2.946	0.524
1148.001	655.902	80.001	19.994	103.670	19.989	3.133	0.525
1150.000	656.907	80.002	19.994	103.668	19.991	2.975	0.518
1152.000	657.872	80.002	19.995	103.681	19.994	2.790	0.504
1154.000	658.910	80.000	19.994	103.673	19.994	2.817	0.498
1156.000	659.984	80.003	19.994	103.674	19.990	3.077	0.545
1158.000	660.952	80.004	19.997	103.675	19.990	3.058	0.500
1160.000	661.935	80.003	19.995	103.679	19.985	3.441	0.470
1162.000	662.925	80.003	19.995	103.677	19.986	3.384	0.473
1164.000	663.960	80.001	19.994	103.682	19.988	3.232	0.519
1166.000	664.955	80.002	19.995	103.656	19.982	3.617	0.511
1168.000	665.991	80.003	19.994	103.656	19.989	3.117	0.505
1170.000	666.946	80.003	19.994	103.654	19.987	3.262	0.490
1172.000	667.935	80.003	19.994	103.652	19.987	3.313	0.496
1174.001	668.856	80.003	19.995	103.658	19.990	3.086	0.424
1176.000	669.935	80.001	19.996	103.662	19.987	3.282	0.574
1178.001	670.923	80.004	19.994	103.665	20.005	2.013	0.491
1180.000	671.906	80.005	19.993	103.658	19.997	2.539	0.512
1182.000	672.933	80.003	19.993	103.679	19.987	3.290	0.519
1184.000	673.940	80.004	19.993	103.677	19.988	3.244	0.547
1186.000	674.972	80.002	19.993	103.665	19.989	3.114	0.510
1188.000	676.047	80.003	19.993	103.682	19.991	2.973	0.543
1190.001	676.968	80.001	19.993	103.677	19.986	3.331	0.490
1192.000	677.962	80.002	19.995	103.683	19.988	3.207	0.484
1194.000	678.939	80.001	19.995	103.681	19.987	3.320	0.476
1196.000	680.009	80.002	19.995	103.685	19.986	3.348	0.503
1198.000	680.992	80.003	19.995	103.668	19.985	3.414	0.499
1200.000	682.039	80.000	19.994	103.676	19.987	3.272	0.515
1202.000	683.231	80.001	19.996	103.679	19.990	3.104	0.633
1204.001	684.077	80.001	19.994	103.686	19.989	3.155	0.422
1206.000	685.054	80.001	19.996	103.673	19.989	3.110	0.499
1208.000	686.069	80.002	19.995	103.662	19.985	3.414	0.492
1210.000	687.075	80.001	19.994	103.670	19.986	3.390	0.483
1212.000	688.080	80.001	19.993	103.683	19.979	3.831	0.508
1214.000	689.157	80.001	19.994	103.681	19.985	3.448	0.535
1216.001	690.133	80.001	19.995	103.672	19.990	3.060	0.542
1218.000	691.182	80.001	19.997	103.685	19.998	2.486	0.516
1220.001	692.192	80.000	19.994	103.672	19.990	3.105	0.479
1222.001	693.182	80.000	19.996	103.686	19.990	3.062	0.488
1224.000	694.142	80.001	19.996	103.683	19.989	3.122	0.472
1226.001	694.479	80.001	19.996	103.677	19.989	3.139	0.035
1228.000	696.211	80.000	19.995	103.671	19.989	3.145	0.661
1230.000	697.275	80.001	19.997	103.673	19.986	3.368	0.173
1232.001	698.418	80.002	19.996	103.656	19.988	3.246	0.829
1234.000	699.271	80.002	19.995	103.674	19.984	3.469	0.490
1236.000	700.252	80.003	19.994	103.674	19.988	3.202	0.529
1238.000	701.278	80.003	19.994	103.666	19.988	3.240	0.532
1240.000	702.189	80.004	19.994	103.677	19.981	3.714	0.500
1242.001	703.214	80.003	19.994	103.666	19.987	3.256	0.482
1244.000	704.207	80.002	19.994	103.674	19.985	3.432	0.503
1246.000	705.156	80.002	19.994	103.670	19.984	3.511	0.472
1248.000	706.135	80.002	19.994	103.669	19.987	3.313	0.513
1250.000	707.150	80.003	19.994	103.673	19.988	3.196	0.482
1252.000	708.140	80.003	19.994	103.671	19.989	3.155	0.535
1254.000	709.122	80.002	19.995	103.679	19.987	3.264	0.507
1256.001	710.105	80.003	19.994	103.674	19.989	3.165	0.499
1258.000	711.050	80.003	19.994	103.679	19.992	2.910	0.483
1260.000	712.029	80.003	19.994	103.670	19.989	3.112	0.478
1262.000	713.036	80.005	19.994	103.667	19.990	3.076	0.494
1264.001	714.038	80.004	19.993	103.678	19.988	3.240	0.494
1266.000	715.053	80.004	19.995	103.668	19.990	3.040	0.526
1268.000	716.075	80.004	19.994	103.667	19.988	3.236	0.515
1270.000	717.061	80.004	19.993	103.670	19.989	3.128	0.511
1272.000	718.091	80.003	19.995	103.690	19.989	3.127	0.500
1274.001	719.091	80.003	19.994	103.674	19.990	3.047	0.534
1276.001	720.049	80.003	19.995	103.668	19.990	3.076	0.492
1278.000	721.016	80.002	19.996	103.664	19.990	3.092	0.475
1280.000	721.970	80.002	19.995	103.686	19.988	3.240	0.456
1282.001	723.014	80.004	19.995	103.670	19.986	3.341	0.512
1284.000	723.986	80.003	19.995	103.666	19.986	3.355	0.519
1286.000	724.906	80.004	19.995	103.692	19.991	3.011	0.477
1288.000	725.924	80.004	19.995	103.673	19.989	3.124	0.498
1290.000	726.905	80.003	19.996	103.677	19.988	3.218	0.490
1292.001	727.888	80.004	19.997	103.686	19.987	3.262	0.510
1294.001	728.876	80.002	19.995	103.684	19.990	3.100	0.499
1296.000	729.908	80.002	19.996	103.685	19.991	3.019	0.521
1298.000	730.854	80.003	19.995	103.682	19.984	3.534	0.507
1300.000	731.841	80.002	19.994	103.668	19.986	3.341	0.505
1302.001	732.840	80.002	19.995	103.667	19.991	3.007	0.508
1304.000	733.831	80.001	19.995	103.674	19.988	3.228	0.491
1306.000	734.830	80.002	19.995	103.677	19.989	3.160	0.504
1308.001	735.834	80.002	19.995	103.670	19.987	3.277	0.489
1310.000	736.844	80.001	19.997	103.674	19.988	3.244	0.521
1312.000	737.781	80.002	19.996	103.688	19.989	3.161	0.488
1314.000	738.805	80.003	19.996	103.672	19.988	3.183	0.502
1316.000	739.797	80.003	19.996	103.678	19.985	3.400	0.499
1318.000	740.810	80.004	19.996	103.681	19.994	2.812	0.501
1320.001	741.787	80.004	19.995	103.670	19.994	2.756	0.482
1322.000	742.802	80.004	19.995	103.680	19.991	3.001	0.484
1323.500	743.597	80.002	19.995	103.662	19.992	2.926	0.527