File: 01_Data/Straw/MCC/Straw_MCC_30K_min_220317_R2.txt
Sample ID:	C:\MCC\MCC Cal\Test\Straw_MCC_30K_220317_R2.txt
Sample Weight (mg):	4.59
Heating Rate (C/s):	0.5
Combustor Temp (C):	900
N2 Flow Rate (cc/min):	80
O2 Flow Rate (cc/min):	20
Calibration File:	C:\MCC\MCC Cal\Coeff1 JN10440_30_210304.txt.txt
T Correction Coefficients:	0	1.024463	0
Time Shift (s):	14
*
Time (s)	Temperature (C)	N2 flow rate (cc/min)	O2 flow rate (cc/min)	Flow Rate (cc/min)	Oxygen (%)	HRR (W/g)	Heating rate (C/s)
0.000	107.991	80.009	19.992	103.600	20.024	-0.064	0.031
2.000	107.996	79.993	19.995	103.607	20.024	-0.063	0.037
4.000	108.085	80.003	19.994	103.632	20.023	-0.016	0.030
6.000	108.164	80.010	19.992	103.645	20.024	-0.090	0.055
8.000	108.161	79.998	19.997	103.648	20.022	0.055	0.036
9.999	108.246	80.015	19.993	103.649	20.020	0.219	0.052
11.999	108.293	79.988	19.996	103.685	20.019	0.229	0.031
13.999	108.347	80.010	19.992	103.697	20.015	0.549	0.051
15.999	108.405	79.991	19.994	103.703	20.018	0.336	0.059
17.999	108.467	80.001	19.999	103.717	20.015	0.573	0.059
19.999	108.567	79.989	19.997	103.721	20.014	0.631	0.038
22.000	108.676	80.011	19.994	103.723	20.018	0.338	0.071
23.999	108.726	79.994	19.993	103.698	20.015	0.526	0.079
26.000	108.832	79.994	19.995	103.701	20.017	0.401	0.019
27.999	108.932	79.992	19.995	103.699	20.016	0.460	0.027
29.999	109.082	80.004	19.993	103.699	20.016	0.456	0.086
32.000	109.190	79.999	19.995	103.694	20.015	0.534	0.071
34.000	109.262	79.997	19.994	103.691	20.014	0.626	0.042
35.999	109.419	80.009	19.997	103.718	20.013	0.689	0.068
37.999	109.514	79.989	19.996	103.741	20.009	0.996	0.070
39.999	109.663	79.996	19.996	103.781	20.010	0.869	0.080
42.000	109.827	80.002	19.993	103.796	20.006	1.178	0.058
43.999	110.000	79.994	19.995	103.809	19.998	1.709	0.088
45.999	110.228	79.987	19.995	103.810	19.996	1.852	0.123
47.999	110.446	79.995	19.996	103.819	19.994	2.008	0.126
49.999	110.736	79.994	19.994	103.820	19.989	2.372	0.123
51.999	111.068	80.015	19.993	103.833	19.989	2.345	0.149
53.999	111.389	79.996	19.993	103.839	19.987	2.483	0.178
55.999	111.707	79.997	19.993	103.842	19.987	2.495	0.184
57.999	112.032	79.984	19.996	103.846	19.987	2.487	0.194
59.999	112.472	80.001	19.993	103.845	19.984	2.763	0.191
61.999	112.861	80.014	19.995	103.860	19.982	2.837	0.205
64.000	113.306	80.004	19.994	103.876	19.980	2.980	0.224
65.999	113.741	79.993	19.996	103.889	19.982	2.865	0.225
67.999	114.279	80.000	19.995	103.888	19.981	2.961	0.234
69.999	114.791	79.990	19.995	103.882	19.975	3.343	0.243
71.999	115.342	80.009	19.994	103.881	19.978	3.126	0.283
73.999	115.879	79.994	19.994	103.887	19.980	3.045	0.248
76.000	116.406	79.997	19.994	103.889	19.976	3.298	0.271
78.001	117.042	80.010	19.992	103.893	19.976	3.292	0.286
79.999	117.673	80.006	19.993	103.903	19.981	2.937	0.304
81.999	118.320	80.001	19.993	103.909	19.979	3.079	0.299
83.999	118.987	80.006	19.996	103.900	19.978	3.141	0.328
86.000	119.652	80.003	19.993	103.888	19.983	2.777	0.310
88.000	120.362	80.002	19.995	103.887	19.978	3.151	0.382
89.999	121.054	80.000	19.996	103.885	19.978	3.144	0.362
92.000	121.830	79.993	19.996	103.892	19.976	3.276	0.367
93.999	122.576	79.999	19.994	103.896	19.979	3.100	0.392
95.999	123.359	79.993	19.996	103.901	19.978	3.186	0.390
98.000	124.125	79.998	19.996	103.901	19.976	3.282	0.381
99.999	124.883	80.006	19.995	103.910	19.981	2.972	0.407
102.000	125.675	80.010	19.992	103.901	19.978	3.129	0.365
103.999	126.489	80.000	19.996	103.891	19.980	3.025	0.391
106.000	127.283	79.986	19.996	103.893	19.973	3.521	0.377
107.999	128.108	79.998	19.994	103.885	19.978	3.151	0.382
109.999	128.980	80.002	19.994	103.885	19.978	3.186	0.435
112.000	129.793	80.003	19.994	103.890	19.974	3.415	0.428
113.999	130.647	80.001	19.995	103.882	19.976	3.329	0.425
115.999	131.521	80.002	19.995	103.886	19.977	3.229	0.439
117.999	132.391	80.004	19.995	103.890	19.975	3.380	0.426
119.999	133.238	79.998	19.996	103.888	19.973	3.531	0.413
121.999	134.135	80.000	19.996	103.893	19.974	3.401	0.480
123.999	134.994	80.001	19.996	103.897	19.976	3.264	0.451
125.999	135.895	79.999	19.999	103.895	19.976	3.260	0.436
127.999	136.796	79.997	19.996	103.886	19.976	3.317	0.456
130.000	137.698	80.000	19.996	103.894	19.976	3.278	0.450
132.000	138.631	79.997	19.994	103.897	19.976	3.307	0.440
134.000	139.542	79.999	19.995	103.890	19.976	3.276	0.475
136.000	140.473	79.993	19.997	103.891	19.977	3.210	0.458
138.000	141.453	80.007	19.995	103.880	19.972	3.546	0.461
140.000	142.375	80.000	19.995	103.887	19.973	3.519	0.455
142.000	143.334	80.004	19.994	103.887	19.971	3.654	0.468
144.000	144.345	80.001	19.995	103.887	19.974	3.417	0.509
146.000	145.257	80.000	19.995	103.893	19.977	3.245	0.479
148.000	146.260	80.003	19.997	103.890	19.974	3.460	0.495
150.000	147.228	80.002	19.994	103.891	19.977	3.249	0.500
152.000	148.176	80.001	19.995	103.890	19.972	3.593	0.500
154.000	149.160	79.999	19.995	103.891	19.973	3.478	0.500
156.000	150.115	80.002	19.996	103.889	19.975	3.364	0.505
158.000	151.111	80.000	19.994	103.888	19.979	3.090	0.485
160.000	152.120	80.002	19.994	103.888	19.977	3.223	0.515
162.000	153.043	80.001	19.995	103.891	19.978	3.147	0.472
164.000	154.033	80.009	19.993	103.890	19.982	2.884	0.485
166.000	154.982	80.000	19.994	103.890	19.980	3.013	0.482
168.000	155.968	79.987	19.995	103.888	19.979	3.113	0.488
170.000	156.975	80.000	19.995	103.878	19.980	2.994	0.497
172.000	157.976	80.009	19.993	103.879	19.980	3.030	0.509
174.000	158.923	79.998	19.994	103.886	19.974	3.410	0.476
176.000	159.969	80.005	19.995	103.877	19.979	3.109	0.485
178.000	160.978	79.995	19.995	103.884	19.980	3.040	0.530
180.000	161.972	80.004	19.994	103.879	19.980	3.036	0.511
182.000	162.975	80.002	19.994	103.860	19.976	3.293	0.498
184.000	163.909	80.002	19.995	103.855	19.978	3.140	0.474
186.000	164.922	80.000	19.996	103.857	19.982	2.903	0.512
188.000	165.929	79.999	19.997	103.854	19.978	3.151	0.498
190.000	166.953	79.998	19.995	103.856	19.976	3.286	0.446
192.000	167.931	79.999	19.996	103.854	19.979	3.060	0.476
194.000	168.894	79.999	19.995	103.858	19.978	3.175	0.504
196.000	169.893	80.000	19.996	103.854	19.979	3.069	0.472
198.000	170.872	79.999	19.994	103.850	19.978	3.181	0.501
200.000	171.875	80.001	19.996	103.847	19.975	3.330	0.469
202.000	172.851	79.998	19.996	103.850	19.975	3.355	0.467
204.000	173.853	79.999	19.995	103.851	19.974	3.412	0.478
206.000	174.823	80.001	19.996	103.851	19.975	3.339	0.460
208.000	175.831	79.995	19.995	103.855	19.975	3.347	0.518
210.000	176.787	80.000	19.995	103.854	19.970	3.692	0.471
212.000	177.776	79.997	19.995	103.851	19.971	3.651	0.480
214.000	178.801	80.000	19.995	103.856	19.972	3.578	0.516
216.000	179.746	80.000	19.996	103.860	19.975	3.349	0.462
218.000	180.737	80.001	19.995	103.852	19.970	3.735	0.490
220.000	181.708	80.000	19.995	103.850	19.975	3.351	0.468
222.000	182.715	80.001	19.995	103.852	19.974	3.428	0.530
224.000	183.669	79.998	19.995	103.851	19.974	3.463	0.504
226.000	184.669	80.002	19.996	103.850	19.971	3.647	0.524
228.000	185.667	80.001	19.994	103.860	19.971	3.678	0.528
230.000	186.710	79.999	19.995	103.851	19.971	3.639	0.531
232.000	187.680	80.004	19.993	103.851	19.970	3.739	0.521
234.000	188.689	80.001	19.993	103.852	19.967	3.915	0.497
236.000	189.681	80.007	19.992	103.847	19.969	3.807	0.491
238.000	190.646	80.001	19.994	103.852	19.970	3.705	0.497
240.000	191.661	80.002	19.993	103.845	19.968	3.862	0.524
242.000	192.616	80.005	19.994	103.846	19.969	3.809	0.469
244.000	193.581	80.001	19.995	103.846	19.969	3.784	0.506
246.000	194.569	80.001	19.994	103.846	19.967	3.923	0.478
248.000	195.572	80.002	19.994	103.846	19.964	4.132	0.478
250.000	196.509	80.000	19.994	103.845	19.963	4.214	0.485
252.000	197.510	79.998	19.996	103.846	19.962	4.306	0.484
254.000	198.522	80.002	19.994	103.845	19.959	4.490	0.516
256.000	199.509	80.001	19.993	103.846	19.962	4.312	0.478
258.000	200.489	79.999	19.995	103.849	19.954	4.835	0.489
260.000	201.452	80.000	19.997	103.849	19.954	4.866	0.483
262.000	202.435	80.000	19.995	103.848	19.953	4.915	0.505
264.000	203.422	80.003	19.995	103.848	19.950	5.130	0.469
266.000	204.416	80.002	19.996	103.844	19.953	4.905	0.473
268.000	205.394	80.002	19.995	103.848	19.947	5.354	0.488
270.000	206.408	79.998	19.995	103.851	19.945	5.504	0.489
272.000	207.372	80.004	19.993	103.852	19.943	5.610	0.500
274.000	208.357	80.000	19.995	103.851	19.941	5.733	0.543
276.000	209.336	80.000	19.998	103.852	19.937	6.025	0.476
278.000	210.276	79.999	19.996	103.851	19.939	5.927	0.515
280.000	211.253	79.999	19.996	103.850	19.936	6.119	0.487
282.000	212.248	80.003	19.995	103.849	19.929	6.626	0.507
284.000	213.241	79.999	19.995	103.851	19.929	6.583	0.468
286.000	214.213	79.998	19.996	103.850	19.929	6.606	0.490
288.000	215.194	80.001	19.997	103.851	19.924	6.964	0.481
290.000	216.188	80.000	19.995	103.851	19.920	7.241	0.487
292.000	217.145	80.000	19.996	103.854	19.918	7.397	0.482
294.000	218.149	80.001	19.994	103.854	19.914	7.636	0.495
296.000	219.144	80.002	19.994	103.853	19.911	7.871	0.469
298.000	220.133	80.001	19.996	103.851	19.908	8.110	0.484
300.000	221.133	80.001	19.996	103.847	19.905	8.329	0.557
302.000	222.150	80.003	19.993	103.853	19.901	8.603	0.525
304.000	223.087	80.002	19.995	103.849	19.900	8.690	0.512
306.000	224.102	80.001	19.996	103.849	19.894	9.058	0.499
308.000	225.066	80.000	19.995	103.849	19.888	9.482	0.502
310.000	226.009	80.000	19.996	103.858	19.888	9.522	0.463
312.000	227.006	79.999	19.996	103.847	19.884	9.809	0.515
314.000	228.045	80.000	19.995	103.856	19.884	9.799	0.517
316.000	229.002	80.001	19.995	103.855	19.879	10.151	0.497
318.000	230.009	79.999	19.999	103.870	19.874	10.476	0.511
320.000	231.002	80.001	19.995	103.861	19.873	10.561	0.527
322.000	232.000	80.001	19.994	103.869	19.869	10.884	0.508
324.000	232.929	80.002	19.994	103.871	19.863	11.288	0.498
326.000	233.928	80.002	19.994	103.871	19.864	11.188	0.515
328.000	234.912	80.001	19.994	103.868	19.860	11.487	0.494
330.000	235.903	79.997	19.999	103.861	19.859	11.589	0.467
332.000	236.857	80.003	19.995	103.863	19.852	12.083	0.502
334.000	237.887	79.999	19.996	103.872	19.851	12.146	0.503
336.000	238.901	79.999	19.997	103.868	19.851	12.146	0.506
338.000	239.844	80.000	19.994	103.877	19.847	12.370	0.465
340.000	240.820	80.001	19.994	103.876	19.846	12.469	0.489
342.000	241.793	80.001	19.995	103.871	19.843	12.657	0.491
344.000	242.804	79.998	19.995	103.864	19.842	12.791	0.488
346.000	243.772	79.999	19.993	103.867	19.839	13.003	0.476
348.000	244.762	79.999	19.994	103.878	19.837	13.092	0.487
350.000	245.758	80.000	19.995	103.870	19.834	13.337	0.490
352.000	246.753	80.000	19.993	103.866	19.831	13.528	0.493
354.000	247.719	80.001	19.995	103.868	19.832	13.494	0.507
356.000	248.719	80.000	19.996	103.871	19.830	13.579	0.492
358.000	249.737	80.000	19.995	103.877	19.829	13.697	0.504
360.000	250.768	80.000	19.995	103.862	19.827	13.837	0.505
362.000	251.751	80.000	19.998	103.861	19.825	13.953	0.464
364.000	252.726	80.003	19.997	103.865	19.820	14.334	0.492
366.000	253.735	79.999	19.997	103.874	19.821	14.243	0.494
368.000	254.743	80.000	19.995	103.863	19.818	14.443	0.478
370.000	255.737	80.001	19.997	103.872	19.816	14.568	0.464
372.000	256.738	80.000	19.994	103.882	19.812	14.870	0.511
374.000	257.700	80.001	19.997	103.877	19.809	15.122	0.500
376.000	258.726	80.001	19.997	103.882	19.805	15.383	0.478
378.000	259.709	80.000	19.999	103.874	19.802	15.597	0.482
380.000	260.737	80.001	19.995	103.878	19.798	15.859	0.501
382.000	261.724	80.003	19.998	103.886	19.794	16.129	0.483
384.000	262.731	79.999	19.997	103.884	19.791	16.394	0.492
386.000	263.686	80.002	19.999	103.886	19.788	16.541	0.487
388.000	264.733	80.000	19.995	103.888	19.783	16.924	0.508
390.000	265.694	80.001	19.996	103.888	19.776	17.399	0.475
392.000	266.711	79.995	20.001	103.888	19.774	17.588	0.523
394.000	267.741	80.000	19.995	103.888	19.766	18.114	0.466
396.000	268.716	80.003	19.995	103.894	19.760	18.548	0.468
398.000	269.747	79.999	19.995	103.902	19.751	19.162	0.511
400.000	270.777	79.998	19.994	103.902	19.746	19.540	0.527
402.000	271.759	80.001	19.998	103.906	19.739	20.068	0.460
404.000	272.815	79.999	19.999	103.913	19.730	20.698	0.548
406.000	273.803	79.998	20.000	103.920	19.722	21.217	0.520
408.000	274.800	80.001	19.993	103.923	19.715	21.731	0.528
410.000	275.798	79.999	19.993	103.929	19.704	22.526	0.494
412.000	276.771	80.003	19.995	103.931	19.694	23.224	0.477
414.000	277.785	80.003	19.990	103.929	19.686	23.816	0.487
416.000	278.798	80.001	19.995	103.945	19.675	24.537	0.484
418.000	279.779	79.999	19.997	103.955	19.659	25.674	0.465
420.000	280.804	79.998	19.993	103.963	19.653	26.109	0.503
422.000	281.773	80.001	19.995	103.967	19.638	27.195	0.494
424.000	282.829	80.000	19.995	103.967	19.625	28.138	0.550
426.000	283.805	79.999	19.994	103.968	19.618	28.642	0.491
428.000	284.793	80.001	19.993	103.967	19.601	29.817	0.475
430.000	285.823	80.000	19.993	103.970	19.585	30.978	0.536
432.000	286.753	80.000	19.998	103.985	19.572	31.874	0.439
434.000	287.808	79.999	19.998	103.999	19.558	32.850	0.505
436.000	288.788	80.003	19.994	104.002	19.543	33.930	0.481
438.000	289.784	80.002	19.992	104.005	19.526	35.143	0.455
440.000	290.807	79.999	19.997	104.019	19.511	36.189	0.503
442.000	291.807	80.006	19.990	104.032	19.495	37.342	0.497
444.000	292.839	80.003	19.991	104.039	19.478	38.555	0.494
446.000	293.821	79.999	19.996	104.038	19.463	39.602	0.480
448.000	294.842	80.001	19.996	104.044	19.450	40.548	0.521
450.000	295.808	79.996	19.998	104.045	19.433	41.723	0.486
452.000	296.824	80.000	19.991	104.048	19.412	43.206	0.492
454.000	297.811	79.993	19.999	104.060	19.395	44.394	0.522
456.000	298.803	80.003	19.993	104.073	19.383	45.238	0.510
458.000	299.827	80.001	19.992	104.079	19.364	46.572	0.507
460.000	300.807	80.000	19.995	104.084	19.348	47.751	0.487
462.000	301.832	80.002	19.994	104.082	19.335	48.677	0.507
464.000	302.836	79.998	19.996	104.086	19.316	50.038	0.525
466.000	303.820	80.004	19.987	104.083	19.299	51.182	0.487
468.000	304.797	80.003	19.991	104.097	19.282	52.402	0.499
470.000	305.816	80.002	19.993	104.094	19.267	53.514	0.500
472.000	306.846	80.000	19.996	104.111	19.251	54.645	0.511
474.000	307.828	80.005	19.993	104.111	19.237	55.612	0.489
476.000	308.806	79.998	19.997	104.112	19.224	56.519	0.509
478.000	309.788	80.004	19.998	104.123	19.212	57.366	0.503
480.000	310.832	80.001	19.996	104.124	19.197	58.452	0.536
482.000	311.832	79.998	19.996	104.124	19.188	59.044	0.498
484.000	312.880	80.001	19.991	104.127	19.176	59.927	0.534
486.000	313.865	80.001	19.995	104.124	19.169	60.436	0.514
488.000	314.908	80.004	19.993	104.122	19.159	61.106	0.550
490.000	315.868	79.999	19.994	104.122	19.151	61.644	0.499
492.000	316.886	80.000	20.000	104.121	19.149	61.804	0.511
494.000	317.943	80.001	19.994	104.119	19.141	62.340	0.531
496.000	318.899	79.996	19.997	104.110	19.141	62.379	0.505
498.000	319.842	79.997	19.997	104.105	19.141	62.372	0.472
500.000	320.879	80.005	19.993	104.108	19.144	62.129	0.500
502.000	321.918	79.999	19.990	104.086	19.151	61.643	0.523
504.000	322.893	80.001	19.995	104.082	19.156	61.275	0.496
506.000	323.844	80.002	19.994	104.070	19.166	60.568	0.513
508.000	324.844	79.996	19.998	104.060	19.180	59.538	0.455
510.000	325.903	80.002	19.996	104.045	19.193	58.641	0.538
512.000	326.850	80.000	19.993	104.030	19.215	57.076	0.490
514.000	327.882	80.001	19.993	104.010	19.240	55.312	0.513
516.000	328.861	80.001	20.000	104.003	19.262	53.711	0.511
518.000	329.926	79.997	19.994	103.982	19.289	51.808	0.528
520.000	330.925	80.000	19.991	103.961	19.322	49.487	0.501
522.000	331.920	79.998	19.997	103.932	19.357	46.997	0.507
524.000	332.907	80.000	19.990	103.918	19.391	44.610	0.494
526.000	333.952	79.999	19.995	103.897	19.427	42.004	0.510
528.000	334.971	80.001	19.995	103.887	19.462	39.540	0.491
530.000	335.943	79.999	19.993	103.862	19.501	36.778	0.479
532.000	336.947	79.998	19.992	103.853	19.540	34.089	0.513
534.000	337.995	80.004	19.992	103.849	19.573	31.731	0.526
536.000	338.991	80.000	19.994	103.822	19.611	29.012	0.509
538.000	339.980	80.001	19.999	103.813	19.644	26.721	0.488
540.000	341.008	79.999	19.993	103.812	19.676	24.491	0.523
542.000	341.987	80.005	19.992	103.809	19.701	22.724	0.498
544.000	342.950	79.999	19.997	103.809	19.724	21.057	0.495
546.000	343.933	80.001	19.994	103.799	19.751	19.159	0.510
548.000	344.943	80.002	19.994	103.796	19.768	17.986	0.490
550.000	345.922	80.003	19.996	103.795	19.784	16.827	0.510
552.000	346.948	80.003	19.990	103.798	19.799	15.744	0.538
554.000	347.916	79.999	19.997	103.789	19.816	14.599	0.487
556.000	348.974	80.003	19.992	103.802	19.827	13.828	0.557
558.000	349.975	79.999	19.997	103.785	19.836	13.160	0.539
560.000	350.990	79.999	19.996	103.775	19.846	12.452	0.508
562.000	351.970	80.001	19.994	103.771	19.853	11.957	0.518
564.000	352.943	80.002	19.997	103.769	19.861	11.388	0.489
566.000	353.987	80.005	19.992	103.770	19.866	11.034	0.508
568.000	354.998	80.000	19.991	103.772	19.870	10.763	0.521
570.000	355.978	80.003	19.998	103.770	19.874	10.519	0.457
572.000	357.013	80.003	19.995	103.773	19.878	10.208	0.511
574.000	358.018	79.999	19.998	103.770	19.881	9.964	0.521
576.000	359.047	79.999	19.997	103.781	19.884	9.756	0.528
578.000	360.017	80.002	19.995	103.793	19.886	9.639	0.488
580.000	361.033	80.003	19.995	103.772	19.890	9.338	0.481
582.000	362.012	80.003	19.991	103.769	19.895	9.034	0.493
584.000	363.061	80.000	19.993	103.777	19.894	9.073	0.505
586.000	364.050	79.998	19.996	103.773	19.897	8.839	0.507
588.000	365.038	79.997	20.003	103.774	19.900	8.669	0.487
590.000	366.045	79.999	19.997	103.774	19.900	8.649	0.495
592.000	367.059	80.005	19.991	103.771	19.903	8.436	0.472
594.000	368.029	79.996	19.996	103.770	19.905	8.289	0.526
596.000	369.032	79.998	19.999	103.772	19.907	8.172	0.498
598.000	370.046	80.000	19.998	103.771	19.909	8.004	0.512
600.000	371.029	79.995	20.002	103.774	19.911	7.885	0.473
602.000	372.039	80.001	19.990	103.771	19.911	7.871	0.516
604.000	373.064	80.001	19.989	103.773	19.913	7.756	0.531
606.000	374.104	79.996	19.995	103.772	19.915	7.578	0.547
608.000	375.108	79.994	20.000	103.773	19.913	7.707	0.480
610.000	376.116	80.001	19.997	103.772	19.913	7.757	0.503
612.000	377.118	80.004	19.994	103.773	19.915	7.585	0.483
614.000	378.123	79.999	19.994	103.774	19.916	7.495	0.507
616.000	379.085	80.001	19.993	103.773	19.916	7.495	0.497
618.000	380.123	80.007	19.993	103.775	19.921	7.192	0.501
620.000	381.098	80.003	19.994	103.774	19.922	7.090	0.497
622.000	382.117	80.000	19.990	103.771	19.921	7.171	0.501
624.000	383.093	80.003	19.992	103.769	19.921	7.173	0.484
626.000	384.089	80.000	19.995	103.769	19.924	6.985	0.495
628.000	385.117	80.000	19.997	103.767	19.922	7.090	0.509
630.000	386.139	80.001	19.994	103.765	19.925	6.916	0.528
632.000	387.128	80.001	19.994	103.769	19.925	6.893	0.486
634.000	388.153	80.001	19.994	103.772	19.926	6.795	0.511
636.000	389.162	80.004	19.995	103.771	19.925	6.881	0.506
638.000	390.121	80.004	19.994	103.770	19.928	6.709	0.500
640.000	391.161	80.002	19.994	103.769	19.927	6.750	0.532
642.000	392.165	80.005	19.994	103.771	19.929	6.638	0.522
644.000	393.167	80.003	19.996	103.770	19.929	6.638	0.513
646.000	394.196	80.005	19.996	103.768	19.931	6.466	0.503
648.000	395.175	80.004	19.995	103.764	19.933	6.359	0.466
650.000	396.164	80.003	19.994	103.770	19.932	6.419	0.497
652.000	397.183	80.003	19.998	103.770	19.930	6.508	0.502
654.000	398.229	80.001	19.996	103.769	19.932	6.427	0.529
656.000	399.185	80.000	19.994	103.766	19.933	6.359	0.534
658.000	400.179	79.999	19.995	103.771	19.933	6.351	0.497
660.000	401.206	80.001	19.994	103.771	19.935	6.206	0.508
662.000	402.229	80.000	19.994	103.772	19.933	6.314	0.501
664.000	403.216	80.000	19.994	103.772	19.936	6.126	0.507
666.000	404.185	80.000	19.996	103.773	19.932	6.392	0.495
668.000	405.188	80.000	19.994	103.773	19.937	6.028	0.512
670.000	406.200	80.000	19.994	103.773	19.934	6.279	0.530
672.000	407.190	80.002	19.993	103.774	19.933	6.318	0.504
674.000	408.205	79.999	19.994	103.772	19.935	6.157	0.516
676.000	409.214	80.000	19.993	103.769	19.935	6.172	0.506
678.000	410.195	80.001	19.994	103.770	19.941	5.752	0.495
680.000	411.231	80.000	19.995	103.772	19.938	5.952	0.480
682.000	412.249	79.999	19.995	103.771	19.937	6.036	0.495
684.000	413.238	80.001	19.994	103.764	19.936	6.139	0.480
686.000	414.238	79.999	19.996	103.763	19.938	5.969	0.513
688.000	415.184	79.998	19.994	103.752	19.942	5.662	0.478
690.000	416.232	80.000	19.995	103.766	19.936	6.145	0.511
692.000	417.214	80.003	19.990	103.767	19.941	5.755	0.501
694.000	418.256	79.998	19.998	103.762	19.940	5.820	0.498
696.000	419.247	80.002	19.994	103.757	19.940	5.843	0.499
698.000	420.213	80.003	19.991	103.764	19.945	5.486	0.456
700.000	421.243	80.001	19.996	103.765	19.940	5.836	0.487
702.000	422.267	80.000	19.997	103.757	19.942	5.717	0.493
704.000	423.288	80.000	19.996	103.753	19.941	5.752	0.500
706.000	424.240	80.002	19.994	103.756	19.941	5.789	0.486
708.000	425.246	80.002	19.994	103.762	19.942	5.698	0.528
710.000	426.243	80.002	19.994	103.766	19.943	5.644	0.477
712.000	427.255	80.003	19.993	103.763	19.942	5.693	0.494
714.000	428.266	80.001	19.995	103.761	19.942	5.697	0.512
716.000	429.222	80.000	19.995	103.758	19.942	5.671	0.502
718.000	430.243	80.001	19.994	103.751	19.942	5.657	0.491
720.000	431.204	80.002	19.993	103.749	19.945	5.507	0.443
722.000	432.229	80.002	19.994	103.769	19.946	5.379	0.530
724.000	433.211	80.002	19.995	103.756	19.945	5.494	0.489
726.000	434.273	80.005	19.994	103.749	19.944	5.577	0.542
728.000	435.222	80.003	19.995	103.748	19.944	5.537	0.511
730.000	436.199	80.004	19.993	103.745	19.942	5.707	0.491
732.000	437.239	80.003	19.992	103.763	19.945	5.474	0.499
734.000	438.214	80.001	19.994	103.767	19.945	5.469	0.460
736.000	439.207	80.000	19.994	103.755	19.946	5.374	0.483
738.000	440.232	80.000	19.993	103.752	19.944	5.544	0.538
740.000	441.224	80.001	19.994	103.760	19.945	5.460	0.514
742.000	442.202	79.999	19.995	103.763	19.945	5.481	0.507
744.000	443.197	80.000	19.994	103.753	19.947	5.356	0.498
746.000	444.218	80.002	19.994	103.753	19.948	5.278	0.479
748.000	445.222	80.001	19.995	103.752	19.947	5.325	0.498
750.000	446.202	80.001	19.995	103.746	19.945	5.480	0.496
752.000	447.206	80.001	19.995	103.734	19.946	5.401	0.503
754.000	448.189	80.001	19.995	103.739	19.948	5.278	0.499
756.000	449.234	80.002	19.996	103.751	19.949	5.198	0.506
758.000	450.216	80.002	19.999	103.744	19.947	5.306	0.498
760.000	451.235	80.001	19.995	103.751	19.949	5.190	0.519
762.000	452.222	80.002	19.994	103.749	19.948	5.231	0.488
764.000	453.278	80.000	19.996	103.748	19.951	5.020	0.527
766.000	454.271	80.001	19.995	103.752	19.950	5.138	0.531
768.000	455.339	80.001	19.995	103.760	19.948	5.265	0.547
770.000	456.346	80.001	19.996	103.746	19.951	5.081	0.517
772.000	457.413	80.000	19.995	103.751	19.954	4.831	0.518
774.000	458.423	80.000	19.996	103.754	19.951	5.067	0.506
776.000	459.490	80.001	19.995	103.756	19.950	5.112	0.542
778.000	460.508	80.000	19.996	103.764	19.951	5.061	0.509
780.000	461.572	80.001	19.996	103.757	19.955	4.789	0.556
782.000	462.644	80.002	19.995	103.754	19.951	5.073	0.552
784.000	463.657	80.001	19.995	103.763	19.950	5.103	0.505
786.000	464.742	80.002	19.995	103.757	19.950	5.097	0.540
788.000	465.763	80.001	19.994	103.746	19.950	5.137	0.527
790.000	466.821	80.002	19.994	103.750	19.949	5.180	0.552
792.000	467.905	80.003	19.993	103.748	19.951	5.049	0.541
794.000	468.957	80.003	19.994	103.756	19.955	4.789	0.538
796.000	469.972	80.002	19.994	103.764	19.952	5.018	0.527
798.000	471.092	80.002	19.993	103.753	19.955	4.767	0.554
800.000	472.133	80.001	19.993	103.747	19.953	4.906	0.518
802.000	473.213	80.001	19.995	103.745	19.953	4.935	0.527
804.000	474.292	80.002	19.995	103.737	19.958	4.583	0.532
806.000	475.392	80.003	19.994	103.743	19.954	4.830	0.543
808.000	476.483	80.002	19.994	103.750	19.957	4.638	0.564
810.000	477.553	80.004	19.994	103.746	19.954	4.839	0.552
812.000	478.632	80.002	19.994	103.744	19.957	4.650	0.531
814.000	479.701	80.003	19.994	103.732	19.959	4.460	0.535
816.000	480.761	80.003	19.996	103.741	19.960	4.384	0.525
818.000	481.850	80.002	19.994	103.756	19.958	4.544	0.545
820.000	482.933	80.001	19.995	103.737	19.957	4.605	0.558
822.000	483.983	80.003	19.996	103.741	19.957	4.603	0.554
824.000	485.057	80.002	19.995	103.733	19.958	4.556	0.507
826.000	486.113	80.001	19.995	103.731	19.956	4.700	0.541
828.000	487.206	80.002	19.995	103.732	19.959	4.476	0.567
830.000	488.267	80.002	19.995	103.733	19.958	4.560	0.525
832.000	489.328	80.002	19.995	103.732	19.958	4.548	0.526
834.000	490.377	80.001	19.995	103.733	19.964	4.169	0.533
836.000	491.433	80.002	19.995	103.731	19.957	4.601	0.545
838.000	492.464	80.002	19.995	103.731	19.960	4.403	0.516
840.000	493.528	80.003	19.995	103.735	19.957	4.650	0.500
842.000	494.629	80.002	19.995	103.734	19.959	4.460	0.545
844.000	495.690	80.002	19.996	103.741	19.959	4.489	0.516
846.000	496.733	80.001	19.995	103.733	19.962	4.266	0.535
848.000	497.778	80.002	19.995	103.734	19.961	4.354	0.518
850.000	498.812	80.000	19.995	103.737	19.961	4.368	0.512
852.000	499.836	80.001	19.996	103.737	19.962	4.255	0.497
854.000	500.900	80.000	19.995	103.739	19.962	4.280	0.529
856.000	501.948	80.001	19.996	103.737	19.962	4.249	0.526
858.000	502.943	80.001	19.995	103.735	19.963	4.216	0.510
860.000	503.978	80.001	19.995	103.734	19.963	4.238	0.531
862.000	504.988	80.002	19.994	103.735	19.962	4.245	0.513
864.000	506.002	80.002	19.994	103.736	19.961	4.335	0.522
866.000	506.996	80.001	19.996	103.736	19.962	4.243	0.487
868.000	508.062	80.002	19.996	103.734	19.959	4.460	0.512
870.000	509.112	80.001	19.995	103.739	19.962	4.307	0.524
872.000	510.078	80.001	19.996	103.746	19.962	4.306	0.478
874.000	511.093	80.000	19.996	103.733	19.961	4.335	0.515
876.000	512.099	80.001	19.997	103.737	19.959	4.477	0.491
878.000	513.118	80.002	19.997	103.734	19.965	4.075	0.508
880.000	514.159	80.002	19.997	103.731	19.961	4.343	0.522
882.000	515.181	80.003	19.997	103.737	19.964	4.163	0.526
884.000	516.224	80.003	19.994	103.737	19.964	4.110	0.536
886.000	517.236	80.002	19.995	103.733	19.963	4.198	0.501
888.000	518.243	80.005	19.995	103.731	19.965	4.075	0.498
890.000	519.292	80.005	19.997	103.733	19.969	3.766	0.536
892.000	520.327	80.004	19.995	103.733	19.965	4.065	0.522
894.000	521.343	80.002	19.995	103.729	19.964	4.166	0.497
896.000	522.371	80.002	19.995	103.730	19.964	4.131	0.527
898.000	523.398	80.002	19.994	103.729	19.963	4.227	0.511
900.000	524.391	80.002	19.993	103.730	19.964	4.153	0.510
902.000	525.434	80.001	19.995	103.728	19.965	4.047	0.504
904.000	526.502	80.002	19.994	103.729	19.964	4.124	0.542
906.000	527.487	80.000	19.995	103.732	19.967	3.938	0.518
908.000	528.479	80.001	19.996	103.732	19.967	3.920	0.491
910.000	529.516	80.001	19.995	103.732	19.968	3.842	0.520
912.000	530.512	80.001	19.995	103.732	19.966	3.971	0.467
914.000	531.561	80.002	19.995	103.733	19.968	3.885	0.509
916.000	532.574	80.001	19.994	103.734	19.969	3.760	0.534
918.000	533.587	80.003	19.994	103.735	19.968	3.889	0.514
920.000	534.654	80.002	19.994	103.734	19.970	3.705	0.528
922.000	535.671	80.003	19.993	103.736	19.967	3.920	0.484
924.000	536.710	80.003	19.995	103.735	19.970	3.731	0.494
926.000	537.735	80.001	19.994	103.733	19.968	3.883	0.521
928.000	538.728	80.003	19.995	103.737	19.967	3.912	0.495
930.000	539.765	80.000	19.994	103.738	19.966	3.983	0.510
932.000	540.787	80.000	19.994	103.736	19.970	3.748	0.494
934.000	541.837	80.001	19.996	103.735	19.965	4.086	0.491
936.000	542.769	80.001	19.998	103.740	19.966	4.026	0.504
938.000	543.830	80.001	19.998	103.742	19.962	4.311	0.498
940.000	544.850	80.002	19.997	103.732	19.965	4.077	0.527
942.000	545.854	80.003	19.996	103.733	19.965	4.086	0.500
944.000	546.883	80.003	19.997	103.730	19.967	3.916	0.535
946.000	547.963	80.003	19.995	103.730	19.966	3.967	0.537
948.000	548.927	80.004	19.995	103.730	19.964	4.167	0.486
950.000	549.985	80.003	19.996	103.729	19.964	4.159	0.518
952.000	550.991	80.003	19.994	103.730	19.964	4.155	0.491
954.000	552.013	80.002	19.995	103.729	19.963	4.184	0.500
956.000	553.074	80.003	19.996	103.733	19.963	4.186	0.536
958.000	554.093	80.003	19.995	103.741	19.963	4.231	0.538
960.000	555.155	80.002	19.997	103.732	19.962	4.284	0.523
962.000	556.134	80.002	19.997	103.733	19.962	4.272	0.495
964.000	557.167	80.001	19.997	103.730	19.961	4.376	0.486
966.000	558.207	80.004	19.995	103.727	19.960	4.415	0.516
968.000	559.221	80.005	19.996	103.727	19.963	4.180	0.526
970.000	560.222	80.003	19.994	103.731	19.961	4.352	0.511
972.000	561.300	80.004	19.995	103.733	19.960	4.393	0.564
974.000	562.272	80.003	19.994	103.733	19.961	4.331	0.494
976.000	563.296	80.004	19.995	103.732	19.960	4.389	0.510
978.000	564.323	80.000	19.995	103.731	19.962	4.284	0.528
980.000	565.331	80.003	19.996	103.733	19.962	4.301	0.507
982.000	566.332	80.001	19.994	103.733	19.960	4.419	0.493
984.000	567.401	80.001	19.994	103.733	19.959	4.499	0.506
986.000	568.390	80.001	19.994	103.733	19.963	4.231	0.530
988.000	569.420	80.003	19.993	103.733	19.966	4.030	0.501
990.000	570.448	80.001	19.993	103.733	19.962	4.278	0.489
992.000	571.467	80.002	19.995	103.733	19.960	4.417	0.508
994.000	572.499	79.999	19.995	103.731	19.960	4.450	0.530
996.000	573.537	80.000	19.998	103.736	19.964	4.163	0.529
998.000	574.543	80.001	19.995	103.736	19.962	4.278	0.518
1000.000	575.637	80.001	19.995	103.734	19.962	4.284	0.542
1002.000	576.688	80.002	19.995	103.734	19.962	4.247	0.501
1004.000	577.675	80.002	19.994	103.733	19.962	4.252	0.487
1006.000	578.689	80.000	19.995	103.732	19.964	4.159	0.505
1008.000	579.729	80.002	19.995	103.731	19.962	4.262	0.524
1010.000	580.785	80.001	19.994	103.730	19.962	4.247	0.526
1012.000	581.813	80.001	19.994	103.731	19.962	4.286	0.507
1014.000	582.854	80.000	19.995	103.725	19.964	4.163	0.534
1016.000	583.875	80.002	19.994	103.728	19.959	4.466	0.519
1018.000	584.895	80.000	19.995	103.731	19.965	4.092	0.520
1020.000	585.949	80.002	19.995	103.730	19.962	4.288	0.489
1022.000	586.977	80.002	19.995	103.728	19.958	4.542	0.520
1024.000	587.983	80.004	19.995	103.729	19.959	4.462	0.478
1025.999	589.009	80.003	19.995	103.729	19.960	4.428	0.513
1027.999	590.056	80.005	19.996	103.727	19.962	4.284	0.526
1029.999	591.079	80.003	19.995	103.726	19.959	4.458	0.506
1032.000	592.121	80.001	19.996	103.727	19.959	4.456	0.501
1033.999	593.136	80.002	19.996	103.730	19.961	4.329	0.514
1036.000	594.195	80.003	19.995	103.729	19.960	4.452	0.540
1037.999	595.211	80.004	19.996	103.729	19.961	4.368	0.522
1039.999	596.241	80.003	19.995	103.728	19.963	4.214	0.531
1041.999	597.263	80.002	19.995	103.729	19.958	4.524	0.503
1043.999	598.265	80.003	19.995	103.730	19.959	4.481	0.499
1046.000	599.315	80.002	19.995	103.732	19.963	4.239	0.498
1047.999	600.348	80.002	19.994	103.732	19.958	4.567	0.524
1050.000	601.323	80.003	19.994	103.732	19.956	4.677	0.467
1052.000	602.398	80.003	19.994	103.732	19.958	4.587	0.512
1054.000	603.404	80.001	19.995	103.730	19.958	4.581	0.559
1055.999	604.416	80.003	19.998	103.728	19.960	4.413	0.515
1057.999	605.377	80.002	19.996	103.727	19.958	4.538	0.505
1059.999	606.439	80.002	19.995	103.728	19.958	4.528	0.508
1062.000	607.422	80.001	19.994	103.734	19.959	4.495	0.490
1063.999	608.437	80.000	19.995	103.733	19.957	4.606	0.516
1065.999	609.432	80.000	19.994	103.733	19.960	4.413	0.519
1067.999	610.478	80.000	19.995	103.731	19.957	4.645	0.497
1069.999	611.506	80.002	19.994	103.730	19.958	4.540	0.497
1072.001	612.521	80.000	19.995	103.729	19.962	4.297	0.502
1073.999	613.560	80.002	19.994	103.730	19.958	4.589	0.513
1075.999	614.576	80.002	19.995	103.729	19.958	4.593	0.535
1078.000	615.581	80.002	19.994	103.722	19.957	4.632	0.502
1079.999	616.612	80.004	19.994	103.729	19.956	4.698	0.509
1081.999	617.690	80.002	19.994	103.729	19.957	4.624	0.528
1083.999	618.663	80.003	19.993	103.729	19.960	4.395	0.522
1085.999	619.709	80.001	19.995	103.730	19.958	4.532	0.539
1088.000	620.734	80.002	19.995	103.730	19.959	4.519	0.503
1089.999	621.760	80.002	19.995	103.729	19.958	4.528	0.484
1091.999	622.826	80.000	19.996	103.728	19.955	4.782	0.520
1093.999	623.810	80.001	19.994	103.725	19.954	4.808	0.508
1096.000	624.853	80.001	19.994	103.728	19.957	4.620	0.528
1097.999	625.881	80.004	19.995	103.731	19.958	4.561	0.522
1099.999	626.885	79.999	19.997	103.732	19.955	4.800	0.526
1102.000	627.921	80.001	19.995	103.731	19.954	4.855	0.529
1103.999	628.927	80.005	19.993	103.734	19.958	4.561	0.538
1105.999	629.960	80.002	19.995	103.734	19.954	4.853	0.501
1107.999	630.985	80.004	19.994	103.731	19.955	4.741	0.528
1110.000	632.006	80.004	19.993	103.733	19.955	4.763	0.493
1111.999	633.027	80.002	19.993	103.734	19.955	4.771	0.504
1114.001	634.069	80.004	19.994	103.730	19.953	4.894	0.546
1115.999	635.076	80.002	19.997	103.731	19.955	4.742	0.499
1117.999	636.113	80.002	19.994	103.734	19.959	4.509	0.528
1119.999	637.111	80.002	19.996	103.733	19.959	4.495	0.500
1121.999	638.131	80.001	19.995	103.733	19.956	4.691	0.482
1123.999	639.131	80.001	19.994	103.732	19.957	4.636	0.467
1126.000	640.141	80.003	19.994	103.733	19.958	4.583	0.489
1127.999	641.219	80.003	19.994	103.733	19.952	4.970	0.499
1129.999	642.230	80.005	19.994	103.732	19.955	4.776	0.531
1131.999	643.228	80.005	19.994	103.733	19.956	4.696	0.491
1133.999	644.254	80.004	19.994	103.729	19.956	4.728	0.493
1135.999	645.283	80.005	19.995	103.727	19.953	4.880	0.513
1137.999	646.318	80.004	19.995	103.726	19.952	5.017	0.517
1140.000	647.303	80.002	19.994	103.728	19.952	4.962	0.497
1141.999	648.345	80.001	19.995	103.729	19.954	4.847	0.519
1144.000	649.403	80.001	19.995	103.731	19.955	4.773	0.520
1145.999	650.423	80.001	19.996	103.733	19.955	4.741	0.536
1147.999	651.406	80.002	19.994	103.730	19.957	4.628	0.473
1149.999	652.439	80.001	19.996	103.730	19.954	4.845	0.508
1151.999	653.473	80.001	19.996	103.729	19.957	4.630	0.497
1153.999	654.529	80.001	19.995	103.730	19.954	4.827	0.536
1155.999	655.562	80.001	19.996	103.730	19.956	4.694	0.539
1157.999	656.594	80.003	19.994	103.729	19.952	4.962	0.503
1160.000	657.609	80.002	19.995	103.730	19.953	4.935	0.511
1161.999	658.637	80.002	19.995	103.730	19.949	5.174	0.511
1163.999	659.667	80.003	19.994	103.731	19.951	5.088	0.476
1165.999	660.697	80.001	19.995	103.727	19.953	4.924	0.529
1167.999	661.755	80.001	19.994	103.727	19.954	4.867	0.527
1170.000	662.735	80.000	19.995	103.732	19.954	4.841	0.498
1171.999	663.789	80.002	19.994	103.735	19.952	4.966	0.500
1173.999	664.834	80.000	19.995	103.735	19.952	4.992	0.523
1175.999	665.839	80.002	19.999	103.738	19.949	5.187	0.499
1177.999	666.839	80.002	19.996	103.739	19.952	4.988	0.511
1179.999	667.889	80.000	19.995	103.733	19.948	5.271	0.536
1181.999	668.939	80.003	19.995	103.729	19.949	5.162	0.544
1183.999	669.979	80.002	19.995	103.733	19.950	5.152	0.487
1185.999	671.012	80.003	19.993	103.733	19.948	5.252	0.523
1188.000	672.012	80.002	19.994	103.733	19.949	5.203	0.513
1189.999	673.025	80.002	19.994	103.734	19.948	5.298	0.517
1192.000	674.084	80.002	19.995	103.733	19.947	5.320	0.511
1193.999	675.120	80.005	19.994	103.733	19.948	5.236	0.504
1195.999	676.146	80.002	19.995	103.732	19.951	5.081	0.533
1197.999	677.187	80.002	19.994	103.728	19.949	5.208	0.534
1200.000	678.221	80.003	19.994	103.731	19.949	5.177	0.503
1201.999	679.203	80.002	19.994	103.725	19.949	5.177	0.516
1203.999	680.253	80.003	19.993	103.725	19.950	5.110	0.500
1206.000	681.231	80.003	19.994	103.729	19.946	5.398	0.546
1207.999	682.338	80.004	19.995	103.729	19.947	5.353	0.517
1209.999	683.326	80.005	19.995	103.729	19.945	5.470	0.651
1211.999	684.349	80.003	19.995	103.729	19.949	5.226	0.527
1214.000	685.321	80.005	19.994	103.720	19.949	5.210	0.481
1216.000	686.364	80.003	19.994	103.719	19.952	4.956	0.517
1218.001	687.389	80.005	19.993	103.722	19.948	5.242	0.509
1220.000	688.422	80.003	19.994	103.726	19.947	5.349	0.489
1221.999	689.421	80.002	19.996	103.722	19.947	5.347	0.497
1223.999	690.454	80.002	19.995	103.721	19.948	5.238	0.517
1225.999	691.496	80.002	19.994	103.732	19.949	5.181	0.516
1227.999	692.553	80.002	19.995	103.731	19.949	5.226	0.464
1229.999	693.532	80.002	19.995	103.731	19.947	5.331	0.683
1231.999	694.602	80.001	19.995	103.730	19.946	5.404	0.512
1233.999	695.650	80.002	19.995	103.731	19.947	5.355	0.536
1235.999	696.699	80.002	19.998	103.733	19.948	5.236	0.515
1238.000	697.748	80.001	19.996	103.732	19.947	5.367	0.537
1239.999	698.725	80.001	19.996	103.719	19.944	5.572	0.537
1241.999	699.729	80.001	19.996	103.718	19.943	5.625	0.509
1244.000	700.760	80.001	19.996	103.728	19.945	5.494	0.494
1245.999	701.772	80.001	19.994	103.729	19.946	5.430	0.516
1248.000	702.780	80.001	19.995	103.731	19.946	5.392	0.470
1250.000	703.841	80.002	19.996	103.732	19.946	5.377	0.513
1251.999	704.859	80.001	19.996	103.727	19.946	5.422	0.509
1253.999	705.797	80.002	19.995	103.733	19.948	5.293	0.468
1255.999	706.850	80.002	19.994	103.733	19.949	5.160	0.521
1257.999	707.861	80.001	19.994	103.730	19.945	5.473	0.533
1260.001	708.886	80.003	19.995	103.731	19.947	5.334	0.497
1261.999	709.880	80.002	19.995	103.732	19.943	5.615	0.521
1264.000	710.936	80.002	19.995	103.728	19.945	5.492	0.530
1265.999	711.912	80.003	19.995	103.729	19.944	5.572	0.517
1267.999	712.906	80.003	19.994	103.729	19.942	5.709	0.485
1269.999	713.908	80.003	19.995	103.728	19.946	5.439	0.515
1272.000	714.874	80.003	19.995	103.724	19.943	5.592	0.485
1274.001	715.895	80.003	19.995	103.722	19.945	5.453	0.517
1276.000	716.922	80.003	19.995	103.724	19.944	5.547	0.522
1277.999	717.920	80.003	19.994	103.725	19.944	5.540	0.505
1279.999	718.892	80.002	19.995	103.729	19.944	5.574	0.483
1281.999	719.875	80.002	19.995	103.727	19.942	5.664	0.480
1284.001	720.886	80.002	19.995	103.728	19.944	5.547	0.477
1285.999	721.897	80.003	19.994	103.729	19.945	5.455	0.490
1288.000	722.885	80.003	19.995	103.727	19.946	5.429	0.494
1290.000	723.885	80.005	19.994	103.716	19.945	5.474	0.476
1291.999	724.884	80.005	19.994	103.722	19.943	5.584	0.506
1293.999	725.854	80.004	19.994	103.727	19.943	5.641	0.487
1295.999	726.879	80.003	19.997	103.731	19.944	5.558	0.522
1297.999	727.902	80.004	19.994	103.730	19.944	5.512	0.532
1299.999	728.919	80.003	19.995	103.723	19.942	5.699	0.536
1301.999	729.893	80.003	19.995	103.728	19.940	5.832	0.499
1304.000	730.884	80.001	19.995	103.730	19.940	5.828	0.503
1306.000	731.917	80.002	19.994	103.730	19.943	5.631	0.485
1307.999	732.912	80.001	19.995	103.727	19.937	6.024	0.489
1309.999	733.897	80.001	19.996	103.731	19.939	5.865	0.503
1311.999	734.960	80.000	19.995	103.733	19.941	5.782	0.524
1313.999	735.932	80.002	19.994	103.728	19.938	5.957	0.510
1315.999	736.919	80.001	19.994	103.733	19.935	6.161	0.440
1317.999	737.931	80.002	19.994	103.732	19.938	6.002	0.492
1320.000	738.961	80.002	19.994	103.736	19.938	6.000	0.524
1322.000	739.992	80.002	19.995	103.705	19.937	6.065	0.510
1324.000	740.975	80.004	19.995	103.720	19.936	6.123	0.518
1325.999	742.001	80.001	19.995	103.725	19.937	6.018	0.503
1328.000	743.049	80.002	19.996	103.724	19.936	6.096	0.519
1328.499	743.300	80.002	19.995	103.724	19.936	6.129	0.512