File: 01_Data/Polyester_Bed_Skirt/FTIR/IS/Polyester_Bed_Skirt_IS_T_220822_R5.dpt
7497.03,0.01377
7491.25,0.01745
7485.46,0.02537
7479.67,0.02742
7473.89,0.01618
7468.1,0.02608
7462.32,0.02865
7456.53,0.02460
7450.74,0.02411
7444.96,0.02688
7439.17,0.01885
7433.38,0.01938
7427.6,0.02178
7421.81,0.02056
7416.03,0.01714
7410.24,0.02722
7404.45,0.02248
7398.67,0.02350
7392.88,0.02015
7387.09,0.02353
7381.31,0.02435
7375.52,0.02880
7369.74,0.02147
7363.95,0.01691
7358.16,0.02823
7352.38,0.02148
7346.59,0.02054
7340.8,0.02262
7335.02,0.03007
7329.23,0.02496
7323.45,0.02520
7317.66,0.02237
7311.87,0.02952
7306.09,0.02502
7300.3,0.01781
7294.51,0.02360
7288.73,0.01893
7282.94,0.02613
7277.16,0.02365
7271.37,0.02041
7265.58,0.01680
7259.8,0.02040
7254.01,0.01984
7248.22,0.01695
7242.44,0.02240
7236.65,0.01922
7230.87,0.01670
7225.08,0.02425
7219.29,0.02286
7213.51,0.02042
7207.72,0.01847
7201.93,0.02709
7196.15,0.01690
7190.36,0.01840
7184.58,0.01446
7178.79,0.01988
7173,0.02112
7167.22,0.02178
7161.43,0.02105
7155.65,0.01817
7149.86,0.02147
7144.07,0.02447
7138.29,0.01874
7132.5,0.02226
7126.71,0.02087
7120.93,0.01819
7115.14,0.02164
7109.36,0.01869
7103.57,0.02572
7097.78,0.02640
7092,0.02630
7086.21,0.01575
7080.42,0.02145
7074.64,0.03037
7068.85,0.01715
7063.07,0.01595
7057.28,0.01835
7051.49,0.02277
7045.71,0.02189
7039.92,0.01969
7034.13,0.01994
7028.35,0.01633
7022.56,0.02669
7016.78,0.02504
7010.99,0.01771
7005.2,0.01836
6999.42,0.01722
6993.63,0.01897
6987.84,0.01498
6982.06,0.02459
6976.27,0.01848
6970.49,0.01717
6964.7,0.01708
6958.91,0.01587
6953.13,0.02334
6947.34,0.02599
6941.55,0.01541
6935.77,0.02110
6929.98,0.02361
6924.2,0.02065
6918.41,0.01682
6912.62,0.02085
6906.84,0.02118
6901.05,0.02118
6895.26,0.02028
6889.48,0.02183
6883.69,0.02324
6877.91,0.01894
6872.12,0.01632
6866.33,0.02260
6860.55,0.02486
6854.76,0.02055
6848.97,0.02130
6843.19,0.02105
6837.4,0.01859
6831.62,0.01542
6825.83,0.01851
6820.04,0.01707
6814.26,0.01754
6808.47,0.02308
6802.68,0.01414
6796.9,0.02146
6791.11,0.02277
6785.33,0.02339
6779.54,0.02193
6773.75,0.02256
6767.97,0.02157
6762.18,0.02154
6756.39,0.02188
6750.61,0.02072
6744.82,0.01432
6739.04,0.01988
6733.25,0.02378
6727.46,0.01608
6721.68,0.01980
6715.89,0.02052
6710.1,0.01700
6704.32,0.02150
6698.53,0.02494
6692.75,0.02279
6686.96,0.02569
6681.17,0.01494
6675.39,0.01630
6669.6,0.02314
6663.82,0.01960
6658.03,0.01647
6652.24,0.02088
6646.46,0.02390
6640.67,0.02130
6634.88,0.02608
6629.1,0.02281
6623.31,0.02500
6617.53,0.01588
6611.74,0.01718
6605.95,0.02158
6600.17,0.01853
6594.38,0.01915
6588.59,0.02214
6582.81,0.02405
6577.02,0.01948
6571.24,0.02094
6565.45,0.01983
6559.66,0.01618
6553.88,0.02218
6548.09,0.01942
6542.3,0.02546
6536.52,0.01953
6530.73,0.02009
6524.95,0.02129
6519.16,0.01658
6513.37,0.01204
6507.59,0.01803
6501.8,0.02217
6496.01,0.02302
6490.23,0.01733
6484.44,0.02379
6478.66,0.02076
6472.87,0.01927
6467.08,0.01807
6461.3,0.01706
6455.51,0.01873
6449.72,0.01994
6443.94,0.01791
6438.15,0.01666
6432.37,0.02001
6426.58,0.01832
6420.79,0.01868
6415.01,0.02018
6409.22,0.02036
6403.43,0.01963
6397.65,0.01384
6391.86,0.02083
6386.08,0.02085
6380.29,0.01755
6374.5,0.02069
6368.72,0.01941
6362.93,0.02227
6357.14,0.02103
6351.36,0.01581
6345.57,0.01612
6339.79,0.01911
6334,0.01991
6328.21,0.02114
6322.43,0.02245
6316.64,0.02049
6310.85,0.01977
6305.07,0.02213
6299.28,0.01674
6293.5,0.01339
6287.71,0.01774
6281.92,0.01879
6276.14,0.02189
6270.35,0.01859
6264.56,0.01827
6258.78,0.02117
6252.99,0.01974
6247.21,0.02112
6241.42,0.01837
6235.63,0.01640
6229.85,0.02267
6224.06,0.01766
6218.27,0.01363
6212.49,0.01791
6206.7,0.01887
6200.92,0.02072
6195.13,0.02088
6189.34,0.01978
6183.56,0.01841
6177.77,0.01838
6171.98,0.01978
6166.2,0.01630
6160.41,0.01852
6154.63,0.01642
6148.84,0.02185
6143.05,0.01812
6137.27,0.01636
6131.48,0.02034
6125.7,0.02015
6119.91,0.01967
6114.12,0.01914
6108.34,0.02013
6102.55,0.01741
6096.76,0.02076
6090.98,0.01704
6085.19,0.01917
6079.41,0.01789
6073.62,0.01628
6067.83,0.02164
6062.05,0.02154
6056.26,0.01690
6050.47,0.01749
6044.69,0.01947
6038.9,0.02102
6033.12,0.02042
6027.33,0.01903
6021.54,0.01827
6015.76,0.01922
6009.97,0.01638
6004.18,0.01806
5998.4,0.01799
5992.61,0.01764
5986.83,0.02062
5981.04,0.01815
5975.25,0.01900
5969.47,0.01732
5963.68,0.02031
5957.89,0.01567
5952.11,0.01950
5946.32,0.02041
5940.54,0.01801
5934.75,0.02219
5928.96,0.02026
5923.18,0.01800
5917.39,0.01863
5911.6,0.02033
5905.82,0.01473
5900.03,0.01928
5894.25,0.01909
5888.46,0.01923
5882.67,0.01830
5876.89,0.02141
5871.1,0.01791
5865.31,0.01926
5859.53,0.01817
5853.74,0.01974
5847.96,0.01942
5842.17,0.01504
5836.38,0.01884
5830.6,0.01930
5824.81,0.01710
5819.02,0.01838
5813.24,0.01853
5807.45,0.02058
5801.67,0.01960
5795.88,0.01964
5790.09,0.02012
5784.31,0.01908
5778.52,0.02052
5772.73,0.02031
5766.95,0.01739
5761.16,0.01678
5755.38,0.01922
5749.59,0.01866
5743.8,0.01881
5738.02,0.02102
5732.23,0.01950
5726.44,0.01930
5720.66,0.01981
5714.87,0.01959
5709.09,0.01879
5703.3,0.01841
5697.51,0.01890
5691.73,0.02038
5685.94,0.01831
5680.15,0.01652
5674.37,0.01745
5668.58,0.01859
5662.8,0.02030
5657.01,0.02042
5651.22,0.01981
5645.44,0.01790
5639.65,0.01849
5633.87,0.01984
5628.08,0.01812
5622.29,0.01933
5616.51,0.01877
5610.72,0.01821
5604.93,0.01936
5599.15,0.01971
5593.36,0.01985
5587.58,0.02096
5581.79,0.02028
5576,0.02127
5570.22,0.02113
5564.43,0.01845
5558.64,0.01949
5552.86,0.01945
5547.07,0.01766
5541.29,0.01989
5535.5,0.01687
5529.71,0.01911
5523.93,0.01943
5518.14,0.01788
5512.35,0.01821
5506.57,0.01841
5500.78,0.01791
5495,0.02064
5489.21,0.02024
5483.42,0.01829
5477.64,0.01836
5471.85,0.01888
5466.06,0.01887
5460.28,0.01764
5454.49,0.01920
5448.71,0.01960
5442.92,0.01968
5437.13,0.01980
5431.35,0.02080
5425.56,0.01944
5419.77,0.02048
5413.99,0.01949
5408.2,0.02003
5402.42,0.02027
5396.63,0.02061
5390.84,0.01794
5385.06,0.01871
5379.27,0.01952
5373.48,0.01826
5367.7,0.01776
5361.91,0.01942
5356.13,0.01959
5350.34,0.01969
5344.55,0.01851
5338.77,0.01876
5332.98,0.01926
5327.19,0.01888
5321.41,0.02014
5315.62,0.01934
5309.84,0.02061
5304.05,0.01889
5298.26,0.01945
5292.48,0.01807
5286.69,0.01951
5280.9,0.02026
5275.12,0.01897
5269.33,0.01854
5263.55,0.01989
5257.76,0.01817
5251.97,0.01899
5246.19,0.01937
5240.4,0.02069
5234.61,0.02033
5228.83,0.02072
5223.04,0.02011
5217.26,0.01970
5211.47,0.01864
5205.68,0.02039
5199.9,0.01914
5194.11,0.01954
5188.32,0.01962
5182.54,0.01849
5176.75,0.01859
5170.97,0.01966
5165.18,0.01960
5159.39,0.01913
5153.61,0.01917
5147.82,0.01911
5142.03,0.01999
5136.25,0.02034
5130.46,0.01909
5124.68,0.01746
5118.89,0.01772
5113.1,0.01956
5107.32,0.01927
5101.53,0.01869
5095.75,0.01985
5089.96,0.01862
5084.17,0.01895
5078.39,0.01868
5072.6,0.01969
5066.81,0.01843
5061.03,0.01782
5055.24,0.01935
5049.46,0.01929
5043.67,0.01899
5037.88,0.01918
5032.1,0.01920
5026.31,0.01980
5020.52,0.01956
5014.74,0.02022
5008.95,0.01975
5003.17,0.01959
4997.38,0.01951
4991.59,0.02036
4985.81,0.01901
4980.02,0.01798
4974.23,0.01962
4968.45,0.01881
4962.66,0.01919
4956.88,0.01877
4951.09,0.01891
4945.3,0.01993
4939.52,0.01882
4933.73,0.01994
4927.94,0.01920
4922.16,0.02007
4916.37,0.01959
4910.59,0.01979
4904.8,0.01968
4899.01,0.01833
4893.23,0.01853
4887.44,0.01886
4881.65,0.01972
4875.87,0.01914
4870.08,0.01996
4864.3,0.01882
4858.51,0.01950
4852.72,0.01932
4846.94,0.01934
4841.15,0.01950
4835.36,0.01933
4829.58,0.02044
4823.79,0.01957
4818.01,0.01906
4812.22,0.01956
4806.43,0.01919
4800.65,0.01853
4794.86,0.01940
4789.07,0.01978
4783.29,0.01987
4777.5,0.01984
4771.72,0.01815
4765.93,0.01894
4760.14,0.01823
4754.36,0.01976
4748.57,0.02002
4742.78,0.01950
4737,0.01919
4731.21,0.01932
4725.43,0.02014
4719.64,0.01959
4713.85,0.01898
4708.07,0.02002
4702.28,0.01983
4696.49,0.01998
4690.71,0.01945
4684.92,0.01892
4679.14,0.01986
4673.35,0.01942
4667.56,0.01854
4661.78,0.02082
4655.99,0.01977
4650.2,0.01997
4644.42,0.01961
4638.63,0.01988
4632.85,0.01978
4627.06,0.02002
4621.27,0.01972
4615.49,0.01925
4609.7,0.02048
4603.92,0.01960
4598.13,0.01936
4592.34,0.02002
4586.56,0.02078
4580.77,0.01988
4574.98,0.01873
4569.2,0.01916
4563.41,0.01979
4557.63,0.01963
4551.84,0.01981
4546.05,0.02075
4540.27,0.02025
4534.48,0.01944
4528.69,0.02005
4522.91,0.01891
4517.12,0.01928
4511.34,0.02002
4505.55,0.02013
4499.76,0.01961
4493.98,0.01951
4488.19,0.01979
4482.4,0.01855
4476.62,0.01918
4470.83,0.02092
4465.05,0.01973
4459.26,0.01936
4453.47,0.01923
4447.69,0.01999
4441.9,0.01983
4436.11,0.02019
4430.33,0.02025
4424.54,0.02063
4418.76,0.01973
4412.97,0.01961
4407.18,0.01929
4401.4,0.01946
4395.61,0.01926
4389.82,0.01979
4384.04,0.02031
4378.25,0.01926
4372.47,0.01924
4366.68,0.01982
4360.89,0.01948
4355.11,0.02056
4349.32,0.02031
4343.53,0.01930
4337.75,0.01983
4331.96,0.01977
4326.18,0.01960
4320.39,0.01938
4314.6,0.01977
4308.82,0.01913
4303.03,0.01933
4297.24,0.01975
4291.46,0.01923
4285.67,0.01939
4279.89,0.01987
4274.1,0.01913
4268.31,0.01941
4262.53,0.01955
4256.74,0.01942
4250.95,0.01968
4245.17,0.01988
4239.38,0.01999
4233.6,0.01989
4227.81,0.01913
4222.02,0.01933
4216.24,0.01979
4210.45,0.01935
4204.66,0.01934
4198.88,0.01971
4193.09,0.01935
4187.31,0.02061
4181.52,0.01949
4175.73,0.01870
4169.95,0.01980
4164.16,0.01942
4158.37,0.01918
4152.59,0.01977
4146.8,0.01972
4141.02,0.01917
4135.23,0.01977
4129.44,0.01990
4123.66,0.01976
4117.87,0.01997
4112.09,0.01936
4106.3,0.01864
4100.51,0.01939
4094.73,0.02005
4088.94,0.01965
4083.15,0.02008
4077.37,0.01997
4071.58,0.01963
4065.8,0.01960
4060.01,0.01936
4054.22,0.01945
4048.44,0.01933
4042.65,0.01929
4036.86,0.01937
4031.08,0.01959
4025.29,0.01990
4019.51,0.01935
4013.72,0.01973
4007.93,0.01993
4002.15,0.01937
3996.36,0.01974
3990.57,0.02015
3984.79,0.01995
3979,0.01952
3973.22,0.01965
3967.43,0.01935
3961.64,0.02085
3955.86,0.02024
3950.07,0.02008
3944.28,0.01985
3938.5,0.01918
3932.71,0.01988
3926.93,0.01953
3921.14,0.01871
3915.35,0.02010
3909.57,0.01941
3903.78,0.02046
3897.99,0.02004
3892.21,0.02029
3886.42,0.02019
3880.64,0.02003
3874.85,0.01946
3869.06,0.02025
3863.28,0.01937
3857.49,0.01999
3851.7,0.02022
3845.92,0.01981
3840.13,0.02017
3834.35,0.01936
3828.56,0.01950
3822.77,0.01932
3816.99,0.01939
3811.2,0.02023
3805.41,0.02006
3799.63,0.01925
3793.84,0.01980
3788.06,0.01942
3782.27,0.02009
3776.48,0.01979
3770.7,0.01981
3764.91,0.02002
3759.12,0.02009
3753.34,0.01995
3747.55,0.01978
3741.77,0.01979
3735.98,0.02006
3730.19,0.02005
3724.41,0.01980
3718.62,0.01954
3712.83,0.01906
3707.05,0.01902
3701.26,0.01911
3695.48,0.01976
3689.69,0.01961
3683.9,0.01994
3678.12,0.01983
3672.33,0.01969
3666.54,0.01953
3660.76,0.01937
3654.97,0.01942
3649.19,0.01877
3643.4,0.01866
3637.61,0.01944
3631.83,0.01919
3626.04,0.01956
3620.25,0.01953
3614.47,0.01929
3608.68,0.01905
3602.9,0.01856
3597.11,0.01925
3591.32,0.01870
3585.54,0.01844
3579.75,0.01838
3573.97,0.01862
3568.18,0.01880
3562.39,0.01844
3556.61,0.01872
3550.82,0.01871
3545.03,0.01904
3539.25,0.01827
3533.46,0.01778
3527.68,0.01858
3521.89,0.01856
3516.1,0.01836
3510.32,0.01793
3504.53,0.01785
3498.74,0.01892
3492.96,0.01809
3487.17,0.01757
3481.39,0.01853
3475.6,0.01873
3469.81,0.01802
3464.03,0.01794
3458.24,0.01826
3452.45,0.01717
3446.67,0.01815
3440.88,0.01763
3435.1,0.01716
3429.31,0.01767
3423.52,0.01783
3417.74,0.01770
3411.95,0.01716
3406.16,0.01819
3400.38,0.01822
3394.59,0.01753
3388.81,0.01816
3383.02,0.01730
3377.23,0.01754
3371.45,0.01798
3365.66,0.01759
3359.87,0.01729
3354.09,0.01760
3348.3,0.01747
3342.52,0.01753
3336.73,0.01761
3330.94,0.01746
3325.16,0.01742
3319.37,0.01805
3313.58,0.01785
3307.8,0.01774
3302.01,0.01705
3296.23,0.01766
3290.44,0.01753
3284.65,0.01769
3278.87,0.01765
3273.08,0.01827
3267.29,0.01795
3261.51,0.01754
3255.72,0.01711
3249.94,0.01735
3244.15,0.01781
3238.36,0.01763
3232.58,0.01772
3226.79,0.01721
3221,0.01788
3215.22,0.01832
3209.43,0.01783
3203.65,0.01819
3197.86,0.01851
3192.07,0.01759
3186.29,0.01760
3180.5,0.01817
3174.71,0.01790
3168.93,0.01848
3163.14,0.01764
3157.36,0.01779
3151.57,0.01805
3145.78,0.01787
3140,0.01789
3134.21,0.01765
3128.42,0.01793
3122.64,0.01818
3116.85,0.01810
3111.07,0.01842
3105.28,0.01849
3099.49,0.01778
3093.71,0.01767
3087.92,0.01755
3082.14,0.01785
3076.35,0.01793
3070.56,0.01804
3064.78,0.01777
3058.99,0.01762
3053.2,0.01766
3047.42,0.01789
3041.63,0.01779
3035.85,0.01716
3030.06,0.01762
3024.27,0.01765
3018.49,0.01812
3012.7,0.01751
3006.91,0.01759
3001.13,0.01766
2995.34,0.01736
2989.56,0.01780
2983.77,0.01728
2977.98,0.01669
2972.2,0.01677
2966.41,0.01659
2960.62,0.01664
2954.84,0.01676
2949.05,0.01693
2943.27,0.01683
2937.48,0.01655
2931.69,0.01656
2925.91,0.01674
2920.12,0.01760
2914.33,0.01722
2908.55,0.01682
2902.76,0.01755
2896.98,0.01780
2891.19,0.01782
2885.4,0.01782
2879.62,0.01741
2873.83,0.01772
2868.04,0.01776
2862.26,0.01773
2856.47,0.01820
2850.69,0.01789
2844.9,0.01810
2839.11,0.01846
2833.33,0.01853
2827.54,0.01856
2821.75,0.01840
2815.97,0.01824
2810.18,0.01850
2804.4,0.01847
2798.61,0.01855
2792.82,0.01810
2787.04,0.01790
2781.25,0.01810
2775.46,0.01818
2769.68,0.01869
2763.89,0.01868
2758.11,0.01877
2752.32,0.01848
2746.53,0.01785
2740.75,0.01891
2734.96,0.01881
2729.17,0.01840
2723.39,0.01833
2717.6,0.01886
2711.82,0.01839
2706.03,0.01877
2700.24,0.01871
2694.46,0.01846
2688.67,0.01845
2682.88,0.01797
2677.1,0.01879
2671.31,0.01865
2665.53,0.01865
2659.74,0.01828
2653.95,0.01844
2648.17,0.01804
2642.38,0.01864
2636.59,0.01855
2630.81,0.01835
2625.02,0.01826
2619.24,0.01842
2613.45,0.01837
2607.66,0.01856
2601.88,0.01830
2596.09,0.01836
2590.3,0.01839
2584.52,0.01804
2578.73,0.01844
2572.95,0.01817
2567.16,0.01845
2561.37,0.01786
2555.59,0.01883
2549.8,0.01853
2544.02,0.01839
2538.23,0.01839
2532.44,0.01807
2526.66,0.01829
2520.87,0.01861
2515.08,0.01875
2509.3,0.01830
2503.51,0.01828
2497.73,0.01837
2491.94,0.01860
2486.15,0.01886
2480.37,0.01828
2474.58,0.01788
2468.79,0.01885
2463.01,0.01840
2457.22,0.01824
2451.44,0.01842
2445.65,0.01847
2439.86,0.01867
2434.08,0.01810
2428.29,0.01812
2422.5,0.01820
2416.72,0.01831
2410.93,0.01843
2405.15,0.01839
2399.36,0.01824
2393.57,0.01837
2387.79,0.01837
2382,0.01858
2376.21,0.01863
2370.43,0.01833
2364.64,0.01841
2358.86,0.01815
2353.07,0.01844
2347.28,0.01799
2341.5,0.01854
2335.71,0.01857
2329.92,0.01826
2324.14,0.01800
2318.35,0.01805
2312.57,0.01805
2306.78,0.01856
2300.99,0.01846
2295.21,0.01852
2289.42,0.01841
2283.63,0.01838
2277.85,0.01812
2272.06,0.01869
2266.28,0.01823
2260.49,0.01817
2254.7,0.01792
2248.92,0.01809
2243.13,0.01847
2237.34,0.01825
2231.56,0.01842
2225.77,0.01827
2219.99,0.01841
2214.2,0.01821
2208.41,0.01876
2202.63,0.01848
2196.84,0.01806
2191.05,0.01797
2185.27,0.01787
2179.48,0.01785
2173.7,0.01819
2167.91,0.01827
2162.12,0.01785
2156.34,0.01777
2150.55,0.01792
2144.76,0.01804
2138.98,0.01828
2133.19,0.01838
2127.41,0.01804
2121.62,0.01828
2115.83,0.01833
2110.05,0.01827
2104.26,0.01805
2098.47,0.01813
2092.69,0.01826
2086.9,0.01826
2081.12,0.01812
2075.33,0.01798
2069.54,0.01786
2063.76,0.01799
2057.97,0.01811
2052.19,0.01794
2046.4,0.01806
2040.61,0.01842
2034.83,0.01804
2029.04,0.01781
2023.25,0.01767
2017.47,0.01785
2011.68,0.01806
2005.9,0.01806
2000.11,0.01804
1994.32,0.01784
1988.54,0.01833
1982.75,0.01794
1976.96,0.01809
1971.18,0.01821
1965.39,0.01801
1959.61,0.01756
1953.82,0.01774
1948.03,0.01774
1942.25,0.01788
1936.46,0.01799
1930.67,0.01807
1924.89,0.01809
1919.1,0.01807
1913.32,0.01778
1907.53,0.01761
1901.74,0.01794
1895.96,0.01795
1890.17,0.01772
1884.38,0.01756
1878.6,0.01777
1872.81,0.01766
1867.03,0.01757
1861.24,0.01733
1855.45,0.01754
1849.67,0.01740
1843.88,0.01737
1838.09,0.01715
1832.31,0.01751
1826.52,0.01709
1820.74,0.01706
1814.95,0.01708
1809.16,0.01710
1803.38,0.01727
1797.59,0.01683
1791.8,0.01631
1786.02,0.01653
1780.23,0.01620
1774.45,0.01627
1768.66,0.01570
1762.87,0.01548
1757.09,0.01475
1751.3,0.01472
1745.51,0.01523
1739.73,0.01596
1733.94,0.01706
1728.16,0.01750
1722.37,0.01815
1716.58,0.01825
1710.8,0.01779
1705.01,0.01758
1699.22,0.01705
1693.44,0.01633
1687.65,0.01629
1681.87,0.01643
1676.08,0.01597
1670.29,0.01621
1664.51,0.01571
1658.72,0.01567
1652.93,0.01572
1647.15,0.01611
1641.36,0.01575
1635.58,0.01592
1629.79,0.01565
1624,0.01607
1618.22,0.01634
1612.43,0.01618
1606.64,0.01621
1600.86,0.01625
1595.07,0.01587
1589.29,0.01598
1583.5,0.01562
1577.71,0.01608
1571.93,0.01526
1566.14,0.01531
1560.35,0.01541
1554.57,0.01525
1548.78,0.01576
1543,0.01595
1537.21,0.01597
1531.42,0.01605
1525.64,0.01553
1519.85,0.01548
1514.07,0.01574
1508.28,0.01551
1502.49,0.01589
1496.71,0.01609
1490.92,0.01593
1485.13,0.01596
1479.35,0.01579
1473.56,0.01608
1467.78,0.01537
1461.99,0.01560
1456.2,0.01614
1450.42,0.01595
1444.63,0.01586
1438.84,0.01614
1433.06,0.01591
1427.27,0.01618
1421.49,0.01606
1415.7,0.01571
1409.91,0.01576
1404.13,0.01570
1398.34,0.01575
1392.55,0.01503
1386.77,0.01546
1380.98,0.01503
1375.2,0.01517
1369.41,0.01540
1363.62,0.01574
1357.84,0.01555
1352.05,0.01523
1346.26,0.01546
1340.48,0.01514
1334.69,0.01482
1328.91,0.01486
1323.12,0.01443
1317.33,0.01442
1311.55,0.01401
1305.76,0.01434
1299.97,0.01492
1294.19,0.01518
1288.4,0.01559
1282.62,0.01570
1276.83,0.01634
1271.04,0.01642
1265.26,0.01661
1259.47,0.01719
1253.68,0.01745
1247.9,0.01751
1242.11,0.01700
1236.33,0.01727
1230.54,0.01650
1224.75,0.01658
1218.97,0.01645
1213.18,0.01602
1207.39,0.01620
1201.61,0.01596
1195.82,0.01561
1190.04,0.01588
1184.25,0.01492
1178.46,0.01519
1172.68,0.01506
1166.89,0.01513
1161.1,0.01502
1155.32,0.01476
1149.53,0.01457
1143.75,0.01511
1137.96,0.01572
1132.17,0.01576
1126.39,0.01549
1120.6,0.01620
1114.81,0.01672
1109.03,0.01615
1103.24,0.01598
1097.46,0.01582
1091.67,0.01523
1085.88,0.01540
1080.1,0.01585
1074.31,0.01641
1068.52,0.01788
1062.74,0.01755
1056.95,0.01695
1051.17,0.01673
1045.38,0.01672
1039.59,0.01725
1033.81,0.01735
1028.02,0.01627
1022.24,0.01674
1016.45,0.01716
1010.66,0.01743
1004.88,0.01812
999.09,0.01788
993.304,0.01843
987.518,0.01839
981.731,0.01787
975.945,0.01785
970.159,0.01739
964.373,0.01735
958.586,0.01772
952.8,0.01766
947.014,0.01677
941.228,0.01659
935.441,0.01636
929.655,0.01694
923.869,0.01664
918.083,0.01664
912.297,0.01687
906.51,0.01630
900.724,0.01641
894.938,0.01646
889.152,0.01643
883.365,0.01607
877.579,0.01597
871.793,0.01609
866.007,0.01650
860.22,0.01610
854.434,0.01607
848.648,0.01556
842.862,0.01585
837.075,0.01643
831.289,0.01670
825.503,0.01591
819.717,0.01610
813.931,0.01642
808.144,0.01602
802.358,0.01525
796.572,0.01513
790.786,0.01530
784.999,0.01626
779.213,0.01593
773.427,0.01466
767.641,0.01533
761.854,0.01551
756.068,0.01530
750.282,0.01507
744.496,0.01567
738.709,0.01607
732.923,0.01550
727.137,0.01499
721.351,0.01584
715.565,0.01494
709.778,0.01417
703.992,0.01500
698.206,0.01540
692.42,0.01542
686.633,0.01551
680.847,0.01566
675.061,0.01592
669.275,0.01534
663.488,0.01506
657.702,0.01537
651.916,0.01474
646.13,0.01307
640.343,0.01277
634.557,0.01228
628.771,0.01321
622.985,0.01392
617.198,0.01353
611.412,0.01427
605.626,0.01424
599.84,0.01301