File: 01_Data/Polyester_Bed_Skirt/FTIR/IS/Polyester_Bed_Skirt_IS_S_220822_R6.dpt
7497.03,0.31653
7491.25,0.31120
7485.46,0.31995
7479.67,0.32079
7473.89,0.31463
7468.1,0.30944
7462.32,0.32031
7456.53,0.32644
7450.74,0.31508
7444.96,0.31544
7439.17,0.31200
7433.38,0.31014
7427.6,0.31296
7421.81,0.32131
7416.03,0.31295
7410.24,0.31381
7404.45,0.32226
7398.67,0.31500
7392.88,0.32219
7387.09,0.31820
7381.31,0.31112
7375.52,0.31654
7369.74,0.31477
7363.95,0.31395
7358.16,0.31761
7352.38,0.31351
7346.59,0.30735
7340.8,0.31384
7335.02,0.30721
7329.23,0.30935
7323.45,0.30830
7317.66,0.30850
7311.87,0.30479
7306.09,0.31123
7300.3,0.31166
7294.51,0.31403
7288.73,0.31179
7282.94,0.30795
7277.16,0.31259
7271.37,0.31151
7265.58,0.31043
7259.8,0.30897
7254.01,0.31276
7248.22,0.31267
7242.44,0.30913
7236.65,0.31140
7230.87,0.31374
7225.08,0.30735
7219.29,0.31215
7213.51,0.30828
7207.72,0.30777
7201.93,0.30649
7196.15,0.30953
7190.36,0.31187
7184.58,0.30334
7178.79,0.30866
7173,0.31519
7167.22,0.30827
7161.43,0.30969
7155.65,0.30569
7149.86,0.30700
7144.07,0.30218
7138.29,0.31301
7132.5,0.31403
7126.71,0.31483
7120.93,0.30660
7115.14,0.30685
7109.36,0.31035
7103.57,0.31239
7097.78,0.31175
7092,0.31198
7086.21,0.31134
7080.42,0.30708
7074.64,0.31190
7068.85,0.31104
7063.07,0.30961
7057.28,0.31199
7051.49,0.31667
7045.71,0.31338
7039.92,0.31305
7034.13,0.31380
7028.35,0.30917
7022.56,0.31039
7016.78,0.31801
7010.99,0.31493
7005.2,0.31346
6999.42,0.30841
6993.63,0.31310
6987.84,0.31577
6982.06,0.31212
6976.27,0.31126
6970.49,0.31387
6964.7,0.31174
6958.91,0.30627
6953.13,0.31173
6947.34,0.31258
6941.55,0.31268
6935.77,0.30716
6929.98,0.30972
6924.2,0.31172
6918.41,0.31102
6912.62,0.31156
6906.84,0.31133
6901.05,0.31199
6895.26,0.31487
6889.48,0.31076
6883.69,0.31510
6877.91,0.31454
6872.12,0.31068
6866.33,0.31342
6860.55,0.31241
6854.76,0.31134
6848.97,0.31135
6843.19,0.30972
6837.4,0.31334
6831.62,0.30702
6825.83,0.30738
6820.04,0.31078
6814.26,0.31626
6808.47,0.31211
6802.68,0.31119
6796.9,0.31613
6791.11,0.31221
6785.33,0.30977
6779.54,0.31276
6773.75,0.31257
6767.97,0.30939
6762.18,0.30561
6756.39,0.31098
6750.61,0.31011
6744.82,0.30786
6739.04,0.31218
6733.25,0.31308
6727.46,0.31218
6721.68,0.31231
6715.89,0.30933
6710.1,0.30961
6704.32,0.31204
6698.53,0.31467
6692.75,0.30885
6686.96,0.31244
6681.17,0.31109
6675.39,0.30990
6669.6,0.31277
6663.82,0.31056
6658.03,0.30967
6652.24,0.31160
6646.46,0.31294
6640.67,0.31392
6634.88,0.30947
6629.1,0.31302
6623.31,0.31245
6617.53,0.31565
6611.74,0.31301
6605.95,0.31648
6600.17,0.30906
6594.38,0.30959
6588.59,0.31107
6582.81,0.30988
6577.02,0.31318
6571.24,0.31146
6565.45,0.31096
6559.66,0.31161
6553.88,0.31260
6548.09,0.31429
6542.3,0.31285
6536.52,0.31362
6530.73,0.30803
6524.95,0.31112
6519.16,0.31327
6513.37,0.31346
6507.59,0.31217
6501.8,0.31419
6496.01,0.30994
6490.23,0.31420
6484.44,0.31509
6478.66,0.31169
6472.87,0.31030
6467.08,0.30994
6461.3,0.31302
6455.51,0.31462
6449.72,0.31353
6443.94,0.31554
6438.15,0.30803
6432.37,0.31205
6426.58,0.31108
6420.79,0.31099
6415.01,0.31261
6409.22,0.31134
6403.43,0.31264
6397.65,0.31482
6391.86,0.31586
6386.08,0.31233
6380.29,0.31397
6374.5,0.31510
6368.72,0.31440
6362.93,0.31256
6357.14,0.31048
6351.36,0.31183
6345.57,0.31045
6339.79,0.31164
6334,0.31062
6328.21,0.30997
6322.43,0.30998
6316.64,0.31146
6310.85,0.30729
6305.07,0.31087
6299.28,0.31218
6293.5,0.31126
6287.71,0.31178
6281.92,0.30919
6276.14,0.31152
6270.35,0.30966
6264.56,0.31050
6258.78,0.31128
6252.99,0.31222
6247.21,0.30930
6241.42,0.30912
6235.63,0.31344
6229.85,0.31043
6224.06,0.30969
6218.27,0.30841
6212.49,0.31086
6206.7,0.30990
6200.92,0.31014
6195.13,0.30840
6189.34,0.30941
6183.56,0.30766
6177.77,0.30963
6171.98,0.30734
6166.2,0.30676
6160.41,0.30439
6154.63,0.30564
6148.84,0.30654
6143.05,0.30777
6137.27,0.30916
6131.48,0.30921
6125.7,0.30544
6119.91,0.30474
6114.12,0.30552
6108.34,0.30750
6102.55,0.30294
6096.76,0.30912
6090.98,0.30924
6085.19,0.30608
6079.41,0.30890
6073.62,0.30824
6067.83,0.30784
6062.05,0.30710
6056.26,0.30835
6050.47,0.30812
6044.69,0.30569
6038.9,0.30594
6033.12,0.30797
6027.33,0.30525
6021.54,0.30393
6015.76,0.30744
6009.97,0.30518
6004.18,0.30614
5998.4,0.30588
5992.61,0.30437
5986.83,0.30682
5981.04,0.30461
5975.25,0.30474
5969.47,0.30401
5963.68,0.30305
5957.89,0.30551
5952.11,0.30061
5946.32,0.29992
5940.54,0.30019
5934.75,0.29898
5928.96,0.29457
5923.18,0.29140
5917.39,0.28077
5911.6,0.27607
5905.82,0.27177
5900.03,0.27208
5894.25,0.27290
5888.46,0.27334
5882.67,0.27076
5876.89,0.26888
5871.1,0.26482
5865.31,0.25964
5859.53,0.25714
5853.74,0.25663
5847.96,0.26080
5842.17,0.26323
5836.38,0.26566
5830.6,0.26780
5824.81,0.26720
5819.02,0.26617
5813.24,0.26222
5807.45,0.25770
5801.67,0.25469
5795.88,0.25764
5790.09,0.25750
5784.31,0.25875
5778.52,0.26116
5772.73,0.26078
5766.95,0.25876
5761.16,0.26035
5755.38,0.26022
5749.59,0.26195
5743.8,0.26649
5738.02,0.27203
5732.23,0.27466
5726.44,0.27528
5720.66,0.27416
5714.87,0.27612
5709.09,0.27639
5703.3,0.27716
5697.51,0.27722
5691.73,0.27597
5685.94,0.27769
5680.15,0.27794
5674.37,0.27810
5668.58,0.27681
5662.8,0.27896
5657.01,0.27738
5651.22,0.27776
5645.44,0.27908
5639.65,0.28083
5633.87,0.28004
5628.08,0.28093
5622.29,0.28247
5616.51,0.28443
5610.72,0.28526
5604.93,0.28419
5599.15,0.28390
5593.36,0.28486
5587.58,0.28647
5581.79,0.28538
5576,0.28721
5570.22,0.28732
5564.43,0.28580
5558.64,0.28511
5552.86,0.28447
5547.07,0.28525
5541.29,0.28529
5535.5,0.28490
5529.71,0.28512
5523.93,0.28336
5518.14,0.28431
5512.35,0.28489
5506.57,0.28223
5500.78,0.28321
5495,0.28289
5489.21,0.28354
5483.42,0.28389
5477.64,0.28501
5471.85,0.28414
5466.06,0.28340
5460.28,0.28290
5454.49,0.28348
5448.71,0.28499
5442.92,0.28626
5437.13,0.28576
5431.35,0.28684
5425.56,0.28890
5419.77,0.28843
5413.99,0.28944
5408.2,0.29003
5402.42,0.28883
5396.63,0.28942
5390.84,0.29190
5385.06,0.29067
5379.27,0.29019
5373.48,0.29123
5367.7,0.29136
5361.91,0.29015
5356.13,0.29123
5350.34,0.29239
5344.55,0.29214
5338.77,0.29179
5332.98,0.29210
5327.19,0.29229
5321.41,0.29188
5315.62,0.29072
5309.84,0.29226
5304.05,0.29161
5298.26,0.29109
5292.48,0.29098
5286.69,0.28990
5280.9,0.29023
5275.12,0.28994
5269.33,0.29165
5263.55,0.29083
5257.76,0.29068
5251.97,0.29335
5246.19,0.29235
5240.4,0.29082
5234.61,0.29186
5228.83,0.29262
5223.04,0.29252
5217.26,0.29173
5211.47,0.29136
5205.68,0.29155
5199.9,0.29154
5194.11,0.29157
5188.32,0.29251
5182.54,0.29135
5176.75,0.29250
5170.97,0.29163
5165.18,0.29195
5159.39,0.29150
5153.61,0.29199
5147.82,0.29165
5142.03,0.29133
5136.25,0.29167
5130.46,0.29131
5124.68,0.29156
5118.89,0.29189
5113.1,0.29074
5107.32,0.29126
5101.53,0.29084
5095.75,0.28999
5089.96,0.29017
5084.17,0.29067
5078.39,0.29021
5072.6,0.29141
5066.81,0.29072
5061.03,0.29063
5055.24,0.29014
5049.46,0.29039
5043.67,0.29108
5037.88,0.29007
5032.1,0.29011
5026.31,0.28931
5020.52,0.29129
5014.74,0.29066
5008.95,0.29176
5003.17,0.29252
4997.38,0.29359
4991.59,0.29188
4985.81,0.29287
4980.02,0.29246
4974.23,0.29149
4968.45,0.29290
4962.66,0.29315
4956.88,0.29326
4951.09,0.29316
4945.3,0.29438
4939.52,0.29379
4933.73,0.29261
4927.94,0.29309
4922.16,0.29395
4916.37,0.29455
4910.59,0.29315
4904.8,0.29312
4899.01,0.29330
4893.23,0.29385
4887.44,0.29384
4881.65,0.29340
4875.87,0.29338
4870.08,0.29352
4864.3,0.29329
4858.51,0.29352
4852.72,0.29212
4846.94,0.29333
4841.15,0.29340
4835.36,0.29227
4829.58,0.29289
4823.79,0.29244
4818.01,0.29341
4812.22,0.29214
4806.43,0.29262
4800.65,0.29161
4794.86,0.29391
4789.07,0.29214
4783.29,0.29221
4777.5,0.29182
4771.72,0.29230
4765.93,0.29246
4760.14,0.29291
4754.36,0.29316
4748.57,0.29361
4742.78,0.29390
4737,0.29258
4731.21,0.29339
4725.43,0.29258
4719.64,0.29175
4713.85,0.29333
4708.07,0.29314
4702.28,0.29192
4696.49,0.29353
4690.71,0.29166
4684.92,0.29176
4679.14,0.29151
4673.35,0.29217
4667.56,0.29176
4661.78,0.29145
4655.99,0.29107
4650.2,0.29072
4644.42,0.28997
4638.63,0.28894
4632.85,0.28967
4627.06,0.28969
4621.27,0.28891
4615.49,0.28929
4609.7,0.28917
4603.92,0.28849
4598.13,0.28792
4592.34,0.28662
4586.56,0.28548
4580.77,0.28622
4574.98,0.28517
4569.2,0.28448
4563.41,0.28385
4557.63,0.28314
4551.84,0.28473
4546.05,0.28346
4540.27,0.28480
4534.48,0.28484
4528.69,0.28449
4522.91,0.28407
4517.12,0.28302
4511.34,0.28238
4505.55,0.28228
4499.76,0.28214
4493.98,0.28205
4488.19,0.28132
4482.4,0.28092
4476.62,0.28012
4470.83,0.27872
4465.05,0.27809
4459.26,0.27582
4453.47,0.27445
4447.69,0.27010
4441.9,0.26571
4436.11,0.26044
4430.33,0.25139
4424.54,0.24052
4418.76,0.22982
4412.97,0.21875
4407.18,0.20938
4401.4,0.19871
4395.61,0.18769
4389.82,0.18513
4384.04,0.19138
4378.25,0.19733
4372.47,0.20204
4366.68,0.20496
4360.89,0.20726
4355.11,0.20548
4349.32,0.19907
4343.53,0.18552
4337.75,0.16814
4331.96,0.15390
4326.18,0.14783
4320.39,0.14780
4314.6,0.14989
4308.82,0.15364
4303.03,0.16254
4297.24,0.17218
4291.46,0.17598
4285.67,0.17586
4279.89,0.17594
4274.1,0.17636
4268.31,0.17478
4262.53,0.17140
4256.74,0.16436
4250.95,0.15801
4245.17,0.15203
4239.38,0.15217
4233.6,0.15991
4227.81,0.16763
4222.02,0.16950
4216.24,0.16919
4210.45,0.17218
4204.66,0.17438
4198.88,0.17816
4193.09,0.18363
4187.31,0.18611
4181.52,0.18466
4175.73,0.18032
4169.95,0.17698
4164.16,0.17729
4158.37,0.18232
4152.59,0.18435
4146.8,0.18832
4141.02,0.19001
4135.23,0.19008
4129.44,0.18872
4123.66,0.18611
4117.87,0.18520
4112.09,0.18773
4106.3,0.19155
4100.51,0.19577
4094.73,0.19854
4088.94,0.19621
4083.15,0.19077
4077.37,0.18375
4071.58,0.17667
4065.8,0.16971
4060.01,0.16436
4054.22,0.16967
4048.44,0.18245
4042.65,0.19323
4036.86,0.19908
4031.08,0.20287
4025.29,0.20429
4019.51,0.20585
4013.72,0.20915
4007.93,0.21145
4002.15,0.21156
3996.36,0.20867
3990.57,0.20986
3984.79,0.21400
3979,0.21771
3973.22,0.22084
3967.43,0.22054
3961.64,0.22206
3955.86,0.22339
3950.07,0.22418
3944.28,0.22289
3938.5,0.22151
3932.71,0.22108
3926.93,0.22151
3921.14,0.22244
3915.35,0.22396
3909.57,0.22726
3903.78,0.22856
3897.99,0.22900
3892.21,0.22886
3886.42,0.23021
3880.64,0.23036
3874.85,0.23114
3869.06,0.23210
3863.28,0.23299
3857.49,0.23523
3851.7,0.23739
3845.92,0.23675
3840.13,0.23607
3834.35,0.23621
3828.56,0.23540
3822.77,0.23560
3816.99,0.23430
3811.2,0.23486
3805.41,0.23554
3799.63,0.23676
3793.84,0.23683
3788.06,0.23794
3782.27,0.23813
3776.48,0.23693
3770.7,0.23362
3764.91,0.23087
3759.12,0.23195
3753.34,0.23382
3747.55,0.23672
3741.77,0.23838
3735.98,0.24010
3730.19,0.24099
3724.41,0.24218
3718.62,0.24226
3712.83,0.24158
3707.05,0.24219
3701.26,0.24198
3695.48,0.24244
3689.69,0.24312
3683.9,0.24402
3678.12,0.24577
3672.33,0.24933
3666.54,0.25277
3660.76,0.25499
3654.97,0.25674
3649.19,0.25559
3643.4,0.25383
3637.61,0.25191
3631.83,0.25219
3626.04,0.25486
3620.25,0.25727
3614.47,0.25868
3608.68,0.25795
3602.9,0.25683
3597.11,0.25664
3591.32,0.25497
3585.54,0.25472
3579.75,0.25587
3573.97,0.25576
3568.18,0.25687
3562.39,0.25701
3556.61,0.25660
3550.82,0.25620
3545.03,0.25474
3539.25,0.25375
3533.46,0.25299
3527.68,0.25284
3521.89,0.25256
3516.1,0.25098
3510.32,0.25086
3504.53,0.24932
3498.74,0.24871
3492.96,0.24783
3487.17,0.24651
3481.39,0.24563
3475.6,0.24364
3469.81,0.24137
3464.03,0.23926
3458.24,0.23736
3452.45,0.23560
3446.67,0.23259
3440.88,0.23033
3435.1,0.22751
3429.31,0.22424
3423.52,0.22133
3417.74,0.21894
3411.95,0.21731
3406.16,0.21665
3400.38,0.22009
3394.59,0.22111
3388.81,0.22142
3383.02,0.21932
3377.23,0.21702
3371.45,0.21478
3365.66,0.21226
3359.87,0.21081
3354.09,0.20843
3348.3,0.20629
3342.52,0.20595
3336.73,0.20746
3330.94,0.20793
3325.16,0.20744
3319.37,0.20306
3313.58,0.19292
3307.8,0.17678
3302.01,0.16166
3296.23,0.16467
3290.44,0.17992
3284.65,0.18959
3278.87,0.19599
3273.08,0.19967
3267.29,0.20260
3261.51,0.20443
3255.72,0.20654
3249.94,0.20639
3244.15,0.20518
3238.36,0.20172
3232.58,0.19608
3226.79,0.18823
3221,0.17945
3215.22,0.17222
3209.43,0.16474
3203.65,0.16003
3197.86,0.15722
3192.07,0.15484
3186.29,0.15619
3180.5,0.15884
3174.71,0.16046
3168.93,0.16215
3163.14,0.16204
3157.36,0.16040
3151.57,0.15915
3145.78,0.15718
3140,0.15693
3134.21,0.15893
3128.42,0.16216
3122.64,0.16406
3116.85,0.16709
3111.07,0.16772
3105.28,0.16822
3099.49,0.16739
3093.71,0.16741
3087.92,0.16580
3082.14,0.16470
3076.35,0.16328
3070.56,0.16073
3064.78,0.15773
3058.99,0.15402
3053.2,0.15039
3047.42,0.14729
3041.63,0.14387
3035.85,0.13995
3030.06,0.13339
3024.27,0.12488
3018.49,0.11456
3012.7,0.10320
3006.91,0.09075
3001.13,0.07662
2995.34,0.06190
2989.56,0.04716
2983.77,0.03591
2977.98,0.02891
2972.2,0.02500
2966.41,0.02433
2960.62,0.02871
2954.84,0.03081
2949.05,0.03217
2943.27,0.03277
2937.48,0.03016
2931.69,0.02904
2925.91,0.03015
2920.12,0.03383
2914.33,0.03691
2908.55,0.03504
2902.76,0.03515
2896.98,0.03548
2891.19,0.03459
2885.4,0.03343
2879.62,0.03333
2873.83,0.03344
2868.04,0.03428
2862.26,0.03610
2856.47,0.03740
2850.69,0.03605
2844.9,0.03359
2839.11,0.03405
2833.33,0.03727
2827.54,0.04258
2821.75,0.04987
2815.97,0.05590
2810.18,0.06131
2804.4,0.06873
2798.61,0.07724
2792.82,0.08286
2787.04,0.09552
2781.25,0.10805
2775.46,0.11802
2769.68,0.12231
2763.89,0.12495
2758.11,0.12856
2752.32,0.13073
2746.53,0.12893
2740.75,0.12118
2734.96,0.11172
2729.17,0.10204
2723.39,0.09136
2717.6,0.09956
2711.82,0.11373
2706.03,0.12350
2700.24,0.13085
2694.46,0.13352
2688.67,0.13309
2682.88,0.13271
2677.1,0.13207
2671.31,0.13390
2665.53,0.13445
2659.74,0.13323
2653.95,0.13750
2648.17,0.14293
2642.38,0.14504
2636.59,0.14632
2630.81,0.14158
2625.02,0.13350
2619.24,0.12715
2613.45,0.12313
2607.66,0.12303
2601.88,0.12427
2596.09,0.12276
2590.3,0.11812
2584.52,0.11077
2578.73,0.11043
2572.95,0.11652
2567.16,0.12152
2561.37,0.12325
2555.59,0.12284
2549.8,0.12273
2544.02,0.12288
2538.23,0.11880
2532.44,0.10414
2526.66,0.09044
2520.87,0.08204
2515.08,0.07863
2509.3,0.07979
2503.51,0.09000
2497.73,0.10961
2491.94,0.13241
2486.15,0.14937
2480.37,0.16282
2474.58,0.17606
2468.79,0.18775
2463.01,0.19270
2457.22,0.19404
2451.44,0.19558
2445.65,0.19602
2439.86,0.19437
2434.08,0.18972
2428.29,0.18823
2422.5,0.19109
2416.72,0.19596
2410.93,0.19733
2405.15,0.19653
2399.36,0.19629
2393.57,0.19759
2387.79,0.20011
2382,0.20089
2376.21,0.20090
2370.43,0.20022
2364.64,0.19933
2358.86,0.19930
2353.07,0.20142
2347.28,0.20490
2341.5,0.20859
2335.71,0.20969
2329.92,0.21154
2324.14,0.21425
2318.35,0.21800
2312.57,0.22019
2306.78,0.22116
2300.99,0.22062
2295.21,0.22098
2289.42,0.22219
2283.63,0.22317
2277.85,0.22065
2272.06,0.21652
2266.28,0.21421
2260.49,0.21190
2254.7,0.21038
2248.92,0.21470
2243.13,0.21817
2237.34,0.21810
2231.56,0.21608
2225.77,0.21659
2219.99,0.21843
2214.2,0.21812
2208.41,0.21652
2202.63,0.21479
2196.84,0.21325
2191.05,0.21239
2185.27,0.21150
2179.48,0.21101
2173.7,0.20939
2167.91,0.20964
2162.12,0.21298
2156.34,0.21221
2150.55,0.21096
2144.76,0.20969
2138.98,0.20695
2133.19,0.20429
2127.41,0.20940
2121.62,0.22141
2115.83,0.23128
2110.05,0.23440
2104.26,0.23588
2098.47,0.23603
2092.69,0.23683
2086.9,0.23757
2081.12,0.24089
2075.33,0.24420
2069.54,0.24630
2063.76,0.24680
2057.97,0.24620
2052.19,0.24534
2046.4,0.24475
2040.61,0.24522
2034.83,0.24445
2029.04,0.24367
2023.25,0.24463
2017.47,0.24536
2011.68,0.24541
2005.9,0.24564
2000.11,0.24483
1994.32,0.24375
1988.54,0.24401
1982.75,0.24507
1976.96,0.24570
1971.18,0.24534
1965.39,0.24209
1959.61,0.23792
1953.82,0.24130
1948.03,0.24279
1942.25,0.24233
1936.46,0.24182
1930.67,0.24049
1924.89,0.23820
1919.1,0.23669
1913.32,0.23493
1907.53,0.23442
1901.74,0.23290
1895.96,0.22978
1890.17,0.22933
1884.38,0.23303
1878.6,0.23436
1872.81,0.23409
1867.03,0.23272
1861.24,0.23048
1855.45,0.22744
1849.67,0.22525
1843.88,0.22236
1838.09,0.21784
1832.31,0.21360
1826.52,0.21110
1820.74,0.20783
1814.95,0.19965
1809.16,0.18021
1803.38,0.12543
1797.59,0.07199
1791.8,0.07827
1786.02,0.13498
1780.23,0.17051
1774.45,0.18165
1768.66,0.18204
1762.87,0.17582
1757.09,0.16794
1751.3,0.16044
1745.51,0.15114
1739.73,0.13868
1733.94,0.13960
1728.16,0.14297
1722.37,0.15947
1716.58,0.16346
1710.8,0.16440
1705.01,0.16552
1699.22,0.16577
1693.44,0.16535
1687.65,0.16513
1681.87,0.16568
1676.08,0.16608
1670.29,0.16726
1664.51,0.16606
1658.72,0.16151
1652.93,0.15435
1647.15,0.14224
1641.36,0.12256
1635.58,0.12798
1629.79,0.14427
1624,0.14902
1618.22,0.14968
1612.43,0.14998
1606.64,0.15052
1600.86,0.15037
1595.07,0.14772
1589.29,0.13960
1583.5,0.13792
1577.71,0.14300
1571.93,0.14795
1566.14,0.14640
1560.35,0.14355
1554.57,0.14103
1548.78,0.14123
1543,0.13658
1537.21,0.12929
1531.42,0.12239
1525.64,0.11501
1519.85,0.10731
1514.07,0.09848
1508.28,0.09051
1502.49,0.08242
1496.71,0.07461
1490.92,0.06633
1485.13,0.05907
1479.35,0.05240
1473.56,0.04669
1467.78,0.04140
1461.99,0.03908
1456.2,0.03995
1450.42,0.04201
1444.63,0.04427
1438.84,0.04538
1433.06,0.04741
1427.27,0.05033
1421.49,0.05329
1415.7,0.05782
1409.91,0.06076
1404.13,0.05837
1398.34,0.05654
1392.55,0.05810
1386.77,0.05669
1380.98,0.04587
1375.2,0.04450
1369.41,0.05811
1363.62,0.06521
1357.84,0.06508
1352.05,0.08102
1346.26,0.09558
1340.48,0.10596
1334.69,0.10917
1328.91,0.10584
1323.12,0.11438
1317.33,0.12294
1311.55,0.12785
1305.76,0.11136
1299.97,0.12069
1294.19,0.13212
1288.4,0.14757
1282.62,0.15533
1276.83,0.16289
1271.04,0.16384
1265.26,0.15669
1259.47,0.13988
1253.68,0.13019
1247.9,0.15852
1242.11,0.16737
1236.33,0.17228
1230.54,0.17387
1224.75,0.16786
1218.97,0.15946
1213.18,0.16964
1207.39,0.17603
1201.61,0.17382
1195.82,0.16896
1190.04,0.16450
1184.25,0.15184
1178.46,0.12937
1172.68,0.08850
1166.89,0.06008
1161.1,0.07860
1155.32,0.09725
1149.53,0.11560
1143.75,0.15118
1137.96,0.18714
1132.17,0.20839
1126.39,0.21414
1120.6,0.21101
1114.81,0.20088
1109.03,0.18463
1103.24,0.15845
1097.46,0.17906
1091.67,0.20270
1085.88,0.20894
1080.1,0.21579
1074.31,0.21702
1068.52,0.21403
1062.74,0.21319
1056.95,0.20863
1051.17,0.19666
1045.38,0.17251
1039.59,0.18258
1033.81,0.19080
1028.02,0.19006
1022.24,0.18402
1016.45,0.17339
1010.66,0.15593
1004.88,0.12051
999.09,0.06767
993.304,0.09316
987.518,0.13987
981.731,0.12796
975.945,0.07242
970.159,0.07578
964.373,0.14335
958.586,0.17951
952.8,0.19430
947.014,0.19604
941.228,0.18164
935.441,0.20203
929.655,0.22125
923.869,0.22937
918.083,0.22990
912.297,0.22293
906.51,0.20085
900.724,0.14200
894.938,0.16595
889.152,0.18145
883.365,0.08538
877.579,0.04838
871.793,0.06231
866.007,0.12681
860.22,0.16618
854.434,0.17038
848.648,0.12294
842.862,0.08571
837.075,0.11820
831.289,0.16981
825.503,0.18803
819.717,0.18828
813.931,0.15792
808.144,0.12794
802.358,0.16847
796.572,0.19252
790.786,0.20686
784.999,0.21807
779.213,0.22676
773.427,0.23213
767.641,0.23717
761.854,0.24179
756.068,0.24538
750.282,0.24611
744.496,0.24195
738.709,0.23596
732.923,0.22742
727.137,0.20954
721.351,0.16772
715.565,0.07886
709.778,0.09026
703.992,0.18793
698.206,0.22355
692.42,0.23665
686.633,0.24160
680.847,0.24258
675.061,0.24405
669.275,0.24484
663.488,0.24574
657.702,0.24306
651.916,0.24107
646.13,0.23665
640.343,0.23185
634.557,0.22878
628.771,0.22607
622.985,0.22539
617.198,0.22219
611.412,0.21885
605.626,0.21229
599.84,0.20462