File: 01_Data/Polyester_Bed_Skirt/FTIR/IS/Polyester_Bed_Skirt_IS_S_220822_R4.dpt
7497.03,0.31885
7491.25,0.31967
7485.46,0.31378
7479.67,0.31202
7473.89,0.30963
7468.1,0.30706
7462.32,0.31186
7456.53,0.32202
7450.74,0.31810
7444.96,0.32663
7439.17,0.31800
7433.38,0.30517
7427.6,0.31895
7421.81,0.31888
7416.03,0.32034
7410.24,0.31843
7404.45,0.31631
7398.67,0.31132
7392.88,0.30776
7387.09,0.30765
7381.31,0.31089
7375.52,0.31975
7369.74,0.31549
7363.95,0.31826
7358.16,0.31938
7352.38,0.31562
7346.59,0.30918
7340.8,0.31087
7335.02,0.31415
7329.23,0.30803
7323.45,0.31267
7317.66,0.31216
7311.87,0.30895
7306.09,0.30598
7300.3,0.31511
7294.51,0.31693
7288.73,0.31466
7282.94,0.31879
7277.16,0.31036
7271.37,0.31260
7265.58,0.31620
7259.8,0.31876
7254.01,0.30990
7248.22,0.31357
7242.44,0.30728
7236.65,0.30816
7230.87,0.31286
7225.08,0.31153
7219.29,0.31204
7213.51,0.31128
7207.72,0.31260
7201.93,0.30747
7196.15,0.30456
7190.36,0.30924
7184.58,0.30885
7178.79,0.30251
7173,0.30867
7167.22,0.30370
7161.43,0.30488
7155.65,0.31069
7149.86,0.31198
7144.07,0.30820
7138.29,0.30868
7132.5,0.31325
7126.71,0.31201
7120.93,0.30715
7115.14,0.30426
7109.36,0.30776
7103.57,0.30755
7097.78,0.30782
7092,0.30831
7086.21,0.31241
7080.42,0.30898
7074.64,0.31135
7068.85,0.31096
7063.07,0.30293
7057.28,0.31311
7051.49,0.31371
7045.71,0.30918
7039.92,0.31345
7034.13,0.30729
7028.35,0.30980
7022.56,0.31233
7016.78,0.31228
7010.99,0.30792
7005.2,0.30581
6999.42,0.31021
6993.63,0.31443
6987.84,0.30463
6982.06,0.31044
6976.27,0.31458
6970.49,0.31162
6964.7,0.30885
6958.91,0.30973
6953.13,0.31319
6947.34,0.30984
6941.55,0.30898
6935.77,0.31206
6929.98,0.31086
6924.2,0.30770
6918.41,0.31565
6912.62,0.31376
6906.84,0.31547
6901.05,0.31056
6895.26,0.30789
6889.48,0.31100
6883.69,0.31325
6877.91,0.31513
6872.12,0.31220
6866.33,0.30914
6860.55,0.30518
6854.76,0.31156
6848.97,0.30918
6843.19,0.31063
6837.4,0.30720
6831.62,0.30929
6825.83,0.31039
6820.04,0.30973
6814.26,0.31108
6808.47,0.30781
6802.68,0.30853
6796.9,0.30596
6791.11,0.31109
6785.33,0.31154
6779.54,0.31219
6773.75,0.31569
6767.97,0.31157
6762.18,0.31209
6756.39,0.31247
6750.61,0.31273
6744.82,0.31436
6739.04,0.31315
6733.25,0.31135
6727.46,0.31387
6721.68,0.31106
6715.89,0.30944
6710.1,0.31156
6704.32,0.30899
6698.53,0.30798
6692.75,0.30733
6686.96,0.31350
6681.17,0.31532
6675.39,0.31244
6669.6,0.31231
6663.82,0.30779
6658.03,0.31006
6652.24,0.31289
6646.46,0.31288
6640.67,0.31089
6634.88,0.30824
6629.1,0.31144
6623.31,0.31000
6617.53,0.31344
6611.74,0.31353
6605.95,0.31131
6600.17,0.30948
6594.38,0.31483
6588.59,0.30893
6582.81,0.30725
6577.02,0.31056
6571.24,0.31433
6565.45,0.31094
6559.66,0.30953
6553.88,0.31060
6548.09,0.30863
6542.3,0.31576
6536.52,0.31037
6530.73,0.31183
6524.95,0.31289
6519.16,0.31245
6513.37,0.30806
6507.59,0.30892
6501.8,0.31010
6496.01,0.31634
6490.23,0.31453
6484.44,0.31039
6478.66,0.31241
6472.87,0.30988
6467.08,0.31121
6461.3,0.30954
6455.51,0.31268
6449.72,0.31092
6443.94,0.31362
6438.15,0.31018
6432.37,0.31352
6426.58,0.31056
6420.79,0.31115
6415.01,0.31293
6409.22,0.31299
6403.43,0.31122
6397.65,0.30990
6391.86,0.30953
6386.08,0.31109
6380.29,0.31258
6374.5,0.31256
6368.72,0.30997
6362.93,0.30787
6357.14,0.30769
6351.36,0.30959
6345.57,0.31163
6339.79,0.31056
6334,0.31197
6328.21,0.31094
6322.43,0.30941
6316.64,0.31110
6310.85,0.30758
6305.07,0.31052
6299.28,0.31236
6293.5,0.30783
6287.71,0.31000
6281.92,0.30715
6276.14,0.31070
6270.35,0.31026
6264.56,0.31038
6258.78,0.30739
6252.99,0.30879
6247.21,0.30817
6241.42,0.30983
6235.63,0.30960
6229.85,0.30930
6224.06,0.31022
6218.27,0.30767
6212.49,0.31363
6206.7,0.30915
6200.92,0.30783
6195.13,0.30823
6189.34,0.30738
6183.56,0.30675
6177.77,0.30936
6171.98,0.31075
6166.2,0.31065
6160.41,0.30889
6154.63,0.30837
6148.84,0.30702
6143.05,0.30928
6137.27,0.30904
6131.48,0.30634
6125.7,0.30622
6119.91,0.30666
6114.12,0.30799
6108.34,0.30368
6102.55,0.30790
6096.76,0.30708
6090.98,0.30797
6085.19,0.30670
6079.41,0.30684
6073.62,0.30646
6067.83,0.30658
6062.05,0.30745
6056.26,0.30816
6050.47,0.30662
6044.69,0.30564
6038.9,0.30436
6033.12,0.30483
6027.33,0.30361
6021.54,0.30389
6015.76,0.30649
6009.97,0.30498
6004.18,0.30510
5998.4,0.30584
5992.61,0.30415
5986.83,0.30382
5981.04,0.30618
5975.25,0.30529
5969.47,0.30366
5963.68,0.30253
5957.89,0.30373
5952.11,0.30191
5946.32,0.30243
5940.54,0.29835
5934.75,0.29741
5928.96,0.29171
5923.18,0.28866
5917.39,0.28251
5911.6,0.27411
5905.82,0.27161
5900.03,0.27301
5894.25,0.27461
5888.46,0.27512
5882.67,0.27119
5876.89,0.26817
5871.1,0.26297
5865.31,0.25748
5859.53,0.25702
5853.74,0.25853
5847.96,0.25912
5842.17,0.26337
5836.38,0.26518
5830.6,0.26917
5824.81,0.26704
5819.02,0.26535
5813.24,0.25810
5807.45,0.25708
5801.67,0.25696
5795.88,0.25533
5790.09,0.25744
5784.31,0.25851
5778.52,0.26013
5772.73,0.25837
5766.95,0.25890
5761.16,0.25820
5755.38,0.25977
5749.59,0.26049
5743.8,0.26725
5738.02,0.27237
5732.23,0.27495
5726.44,0.27452
5720.66,0.27721
5714.87,0.27644
5709.09,0.27756
5703.3,0.27815
5697.51,0.27686
5691.73,0.27723
5685.94,0.27825
5680.15,0.27806
5674.37,0.27792
5668.58,0.27707
5662.8,0.27641
5657.01,0.27792
5651.22,0.27766
5645.44,0.27900
5639.65,0.28058
5633.87,0.28166
5628.08,0.28118
5622.29,0.28404
5616.51,0.28364
5610.72,0.28553
5604.93,0.28516
5599.15,0.28310
5593.36,0.28495
5587.58,0.28390
5581.79,0.28584
5576,0.28458
5570.22,0.28342
5564.43,0.28500
5558.64,0.28529
5552.86,0.28633
5547.07,0.28370
5541.29,0.28409
5535.5,0.28453
5529.71,0.28308
5523.93,0.28308
5518.14,0.28505
5512.35,0.28452
5506.57,0.28163
5500.78,0.28120
5495,0.28154
5489.21,0.28306
5483.42,0.28324
5477.64,0.28341
5471.85,0.28371
5466.06,0.28404
5460.28,0.28358
5454.49,0.28585
5448.71,0.28568
5442.92,0.28690
5437.13,0.28394
5431.35,0.28620
5425.56,0.28702
5419.77,0.28826
5413.99,0.28931
5408.2,0.28923
5402.42,0.28811
5396.63,0.28932
5390.84,0.28904
5385.06,0.29148
5379.27,0.29027
5373.48,0.29203
5367.7,0.29029
5361.91,0.29148
5356.13,0.29272
5350.34,0.29121
5344.55,0.28857
5338.77,0.29114
5332.98,0.29307
5327.19,0.29144
5321.41,0.29079
5315.62,0.29085
5309.84,0.28965
5304.05,0.29194
5298.26,0.29130
5292.48,0.29143
5286.69,0.29172
5280.9,0.29136
5275.12,0.29263
5269.33,0.28899
5263.55,0.29196
5257.76,0.29157
5251.97,0.29102
5246.19,0.29187
5240.4,0.29089
5234.61,0.29143
5228.83,0.29068
5223.04,0.29186
5217.26,0.29098
5211.47,0.29179
5205.68,0.29004
5199.9,0.29141
5194.11,0.29240
5188.32,0.29138
5182.54,0.29131
5176.75,0.29167
5170.97,0.29137
5165.18,0.29190
5159.39,0.29162
5153.61,0.29058
5147.82,0.29192
5142.03,0.29169
5136.25,0.29099
5130.46,0.29124
5124.68,0.29052
5118.89,0.29067
5113.1,0.29120
5107.32,0.29039
5101.53,0.29148
5095.75,0.29019
5089.96,0.29097
5084.17,0.29168
5078.39,0.29049
5072.6,0.29161
5066.81,0.28993
5061.03,0.29014
5055.24,0.28867
5049.46,0.28985
5043.67,0.28924
5037.88,0.28974
5032.1,0.29035
5026.31,0.29112
5020.52,0.29230
5014.74,0.29152
5008.95,0.29065
5003.17,0.29125
4997.38,0.29172
4991.59,0.29212
4985.81,0.29256
4980.02,0.29334
4974.23,0.29221
4968.45,0.29251
4962.66,0.29156
4956.88,0.29195
4951.09,0.29229
4945.3,0.29299
4939.52,0.29317
4933.73,0.29323
4927.94,0.29261
4922.16,0.29243
4916.37,0.29323
4910.59,0.29238
4904.8,0.29264
4899.01,0.29341
4893.23,0.29353
4887.44,0.29320
4881.65,0.29217
4875.87,0.29203
4870.08,0.29319
4864.3,0.29215
4858.51,0.29202
4852.72,0.29220
4846.94,0.29184
4841.15,0.29259
4835.36,0.29230
4829.58,0.29203
4823.79,0.29150
4818.01,0.29230
4812.22,0.29181
4806.43,0.29226
4800.65,0.29250
4794.86,0.29163
4789.07,0.29219
4783.29,0.29138
4777.5,0.29144
4771.72,0.29163
4765.93,0.29251
4760.14,0.29174
4754.36,0.29193
4748.57,0.29202
4742.78,0.29216
4737,0.29256
4731.21,0.29252
4725.43,0.29209
4719.64,0.29279
4713.85,0.29194
4708.07,0.29267
4702.28,0.29133
4696.49,0.29188
4690.71,0.29082
4684.92,0.29228
4679.14,0.29150
4673.35,0.29187
4667.56,0.29133
4661.78,0.29067
4655.99,0.29103
4650.2,0.29066
4644.42,0.28998
4638.63,0.28964
4632.85,0.28902
4627.06,0.28916
4621.27,0.28908
4615.49,0.28764
4609.7,0.28777
4603.92,0.28807
4598.13,0.28732
4592.34,0.28630
4586.56,0.28607
4580.77,0.28451
4574.98,0.28419
4569.2,0.28445
4563.41,0.28378
4557.63,0.28378
4551.84,0.28436
4546.05,0.28384
4540.27,0.28294
4534.48,0.28349
4528.69,0.28399
4522.91,0.28314
4517.12,0.28283
4511.34,0.28182
4505.55,0.28217
4499.76,0.28169
4493.98,0.28238
4488.19,0.28167
4482.4,0.28035
4476.62,0.27895
4470.83,0.27824
4465.05,0.27759
4459.26,0.27715
4453.47,0.27327
4447.69,0.27044
4441.9,0.26599
4436.11,0.25977
4430.33,0.25049
4424.54,0.24016
4418.76,0.22926
4412.97,0.21815
4407.18,0.20958
4401.4,0.19853
4395.61,0.18790
4389.82,0.18479
4384.04,0.19046
4378.25,0.19586
4372.47,0.20101
4366.68,0.20425
4360.89,0.20589
4355.11,0.20514
4349.32,0.19715
4343.53,0.18520
4337.75,0.16763
4331.96,0.15298
4326.18,0.14638
4320.39,0.14699
4314.6,0.14950
4308.82,0.15347
4303.03,0.16219
4297.24,0.17169
4291.46,0.17566
4285.67,0.17541
4279.89,0.17552
4274.1,0.17636
4268.31,0.17568
4262.53,0.17150
4256.74,0.16522
4250.95,0.15914
4245.17,0.15215
4239.38,0.15205
4233.6,0.15937
4227.81,0.16609
4222.02,0.16894
4216.24,0.16945
4210.45,0.17069
4204.66,0.17399
4198.88,0.17834
4193.09,0.18303
4187.31,0.18593
4181.52,0.18414
4175.73,0.18063
4169.95,0.17608
4164.16,0.17662
4158.37,0.18148
4152.59,0.18471
4146.8,0.18845
4141.02,0.18993
4135.23,0.19031
4129.44,0.18875
4123.66,0.18592
4117.87,0.18468
4112.09,0.18725
4106.3,0.19040
4100.51,0.19592
4094.73,0.19813
4088.94,0.19605
4083.15,0.19028
4077.37,0.18308
4071.58,0.17634
4065.8,0.16889
4060.01,0.16389
4054.22,0.16931
4048.44,0.18239
4042.65,0.19301
4036.86,0.19865
4031.08,0.20125
4025.29,0.20382
4019.51,0.20561
4013.72,0.20844
4007.93,0.21084
4002.15,0.21104
3996.36,0.20833
3990.57,0.20894
3984.79,0.21286
3979,0.21772
3973.22,0.21986
3967.43,0.22127
3961.64,0.22177
3955.86,0.22299
3950.07,0.22384
3944.28,0.22320
3938.5,0.22156
3932.71,0.22020
3926.93,0.22118
3921.14,0.22158
3915.35,0.22365
3909.57,0.22649
3903.78,0.22807
3897.99,0.22807
3892.21,0.22846
3886.42,0.22944
3880.64,0.22957
3874.85,0.23035
3869.06,0.23130
3863.28,0.23256
3857.49,0.23487
3851.7,0.23636
3845.92,0.23619
3840.13,0.23566
3834.35,0.23448
3828.56,0.23505
3822.77,0.23455
3816.99,0.23372
3811.2,0.23382
3805.41,0.23490
3799.63,0.23505
3793.84,0.23677
3788.06,0.23729
3782.27,0.23782
3776.48,0.23633
3770.7,0.23331
3764.91,0.23020
3759.12,0.23179
3753.34,0.23412
3747.55,0.23678
3741.77,0.23853
3735.98,0.23985
3730.19,0.24110
3724.41,0.24067
3718.62,0.24130
3712.83,0.24131
3707.05,0.24203
3701.26,0.24247
3695.48,0.24170
3689.69,0.24261
3683.9,0.24356
3678.12,0.24577
3672.33,0.24799
3666.54,0.25222
3660.76,0.25415
3654.97,0.25561
3649.19,0.25591
3643.4,0.25400
3637.61,0.25157
3631.83,0.25139
3626.04,0.25415
3620.25,0.25655
3614.47,0.25854
3608.68,0.25792
3602.9,0.25662
3597.11,0.25627
3591.32,0.25515
3585.54,0.25387
3579.75,0.25455
3573.97,0.25618
3568.18,0.25700
3562.39,0.25659
3556.61,0.25555
3550.82,0.25548
3545.03,0.25478
3539.25,0.25365
3533.46,0.25212
3527.68,0.25111
3521.89,0.25101
3516.1,0.25029
3510.32,0.24948
3504.53,0.24906
3498.74,0.24892
3492.96,0.24693
3487.17,0.24570
3481.39,0.24512
3475.6,0.24364
3469.81,0.24130
3464.03,0.23970
3458.24,0.23696
3452.45,0.23450
3446.67,0.23196
3440.88,0.22904
3435.1,0.22621
3429.31,0.22415
3423.52,0.22086
3417.74,0.21851
3411.95,0.21738
3406.16,0.21748
3400.38,0.21936
3394.59,0.22110
3388.81,0.22070
3383.02,0.21928
3377.23,0.21592
3371.45,0.21437
3365.66,0.21261
3359.87,0.21033
3354.09,0.20821
3348.3,0.20617
3342.52,0.20534
3336.73,0.20636
3330.94,0.20867
3325.16,0.20800
3319.37,0.20223
3313.58,0.19206
3307.8,0.17622
3302.01,0.16159
3296.23,0.16470
3290.44,0.17911
3284.65,0.18930
3278.87,0.19538
3273.08,0.19970
3267.29,0.20224
3261.51,0.20533
3255.72,0.20645
3249.94,0.20675
3244.15,0.20496
3238.36,0.20157
3232.58,0.19522
3226.79,0.18834
3221,0.17975
3215.22,0.17176
3209.43,0.16566
3203.65,0.15916
3197.86,0.15642
3192.07,0.15527
3186.29,0.15570
3180.5,0.15832
3174.71,0.16130
3168.93,0.16238
3163.14,0.16226
3157.36,0.16026
3151.57,0.15752
3145.78,0.15640
3140,0.15657
3134.21,0.15864
3128.42,0.16105
3122.64,0.16453
3116.85,0.16679
3111.07,0.16757
3105.28,0.16752
3099.49,0.16776
3093.71,0.16743
3087.92,0.16593
3082.14,0.16497
3076.35,0.16291
3070.56,0.15991
3064.78,0.15772
3058.99,0.15379
3053.2,0.15045
3047.42,0.14716
3041.63,0.14381
3035.85,0.13936
3030.06,0.13283
3024.27,0.12434
3018.49,0.11392
3012.7,0.10232
3006.91,0.08975
3001.13,0.07701
2995.34,0.06193
2989.56,0.04708
2983.77,0.03584
2977.98,0.02813
2972.2,0.02437
2966.41,0.02468
2960.62,0.02861
2954.84,0.03055
2949.05,0.03274
2943.27,0.03204
2937.48,0.03057
2931.69,0.02952
2925.91,0.02977
2920.12,0.03347
2914.33,0.03713
2908.55,0.03581
2902.76,0.03568
2896.98,0.03497
2891.19,0.03468
2885.4,0.03356
2879.62,0.03325
2873.83,0.03365
2868.04,0.03379
2862.26,0.03603
2856.47,0.03690
2850.69,0.03618
2844.9,0.03418
2839.11,0.03434
2833.33,0.03711
2827.54,0.04201
2821.75,0.04931
2815.97,0.05624
2810.18,0.06094
2804.4,0.06851
2798.61,0.07657
2792.82,0.08244
2787.04,0.09450
2781.25,0.10777
2775.46,0.11756
2769.68,0.12199
2763.89,0.12513
2758.11,0.12874
2752.32,0.13035
2746.53,0.12915
2740.75,0.12087
2734.96,0.11140
2729.17,0.10180
2723.39,0.09111
2717.6,0.09911
2711.82,0.11321
2706.03,0.12319
2700.24,0.13092
2694.46,0.13374
2688.67,0.13293
2682.88,0.13219
2677.1,0.13173
2671.31,0.13382
2665.53,0.13414
2659.74,0.13347
2653.95,0.13766
2648.17,0.14201
2642.38,0.14434
2636.59,0.14611
2630.81,0.14153
2625.02,0.13330
2619.24,0.12649
2613.45,0.12336
2607.66,0.12284
2601.88,0.12398
2596.09,0.12206
2590.3,0.11806
2584.52,0.11123
2578.73,0.11060
2572.95,0.11624
2567.16,0.12148
2561.37,0.12301
2555.59,0.12264
2549.8,0.12244
2544.02,0.12260
2538.23,0.11919
2532.44,0.10402
2526.66,0.09000
2520.87,0.08144
2515.08,0.07848
2509.3,0.07941
2503.51,0.09034
2497.73,0.10930
2491.94,0.13213
2486.15,0.14921
2480.37,0.16185
2474.58,0.17621
2468.79,0.18789
2463.01,0.19254
2457.22,0.19403
2451.44,0.19522
2445.65,0.19561
2439.86,0.19396
2434.08,0.18956
2428.29,0.18804
2422.5,0.19089
2416.72,0.19558
2410.93,0.19714
2405.15,0.19629
2399.36,0.19549
2393.57,0.19701
2387.79,0.20000
2382,0.20084
2376.21,0.20026
2370.43,0.20004
2364.64,0.19918
2358.86,0.19878
2353.07,0.20099
2347.28,0.20472
2341.5,0.20787
2335.71,0.20925
2329.92,0.21151
2324.14,0.21415
2318.35,0.21795
2312.57,0.22020
2306.78,0.22062
2300.99,0.22019
2295.21,0.22034
2289.42,0.22237
2283.63,0.22310
2277.85,0.22096
2272.06,0.21653
2266.28,0.21411
2260.49,0.21171
2254.7,0.21000
2248.92,0.21376
2243.13,0.21774
2237.34,0.21791
2231.56,0.21570
2225.77,0.21594
2219.99,0.21767
2214.2,0.21739
2208.41,0.21606
2202.63,0.21409
2196.84,0.21273
2191.05,0.21213
2185.27,0.21109
2179.48,0.21072
2173.7,0.20941
2167.91,0.20977
2162.12,0.21225
2156.34,0.21184
2150.55,0.21094
2144.76,0.20927
2138.98,0.20671
2133.19,0.20410
2127.41,0.20922
2121.62,0.22123
2115.83,0.23036
2110.05,0.23415
2104.26,0.23543
2098.47,0.23587
2092.69,0.23612
2086.9,0.23696
2081.12,0.24055
2075.33,0.24398
2069.54,0.24566
2063.76,0.24668
2057.97,0.24566
2052.19,0.24460
2046.4,0.24445
2040.61,0.24460
2034.83,0.24363
2029.04,0.24293
2023.25,0.24397
2017.47,0.24502
2011.68,0.24471
2005.9,0.24508
2000.11,0.24395
1994.32,0.24307
1988.54,0.24329
1982.75,0.24423
1976.96,0.24521
1971.18,0.24507
1965.39,0.24192
1959.61,0.23757
1953.82,0.24087
1948.03,0.24213
1942.25,0.24218
1936.46,0.24154
1930.67,0.24024
1924.89,0.23777
1919.1,0.23617
1913.32,0.23478
1907.53,0.23408
1901.74,0.23281
1895.96,0.22921
1890.17,0.22872
1884.38,0.23262
1878.6,0.23369
1872.81,0.23343
1867.03,0.23225
1861.24,0.23018
1855.45,0.22723
1849.67,0.22446
1843.88,0.22185
1838.09,0.21731
1832.31,0.21285
1826.52,0.21056
1820.74,0.20766
1814.95,0.19941
1809.16,0.17949
1803.38,0.12556
1797.59,0.07181
1791.8,0.07802
1786.02,0.13446
1780.23,0.17004
1774.45,0.18138
1768.66,0.18155
1762.87,0.17525
1757.09,0.16757
1751.3,0.16010
1745.51,0.15092
1739.73,0.13861
1733.94,0.13975
1728.16,0.14263
1722.37,0.15896
1716.58,0.16354
1710.8,0.16447
1705.01,0.16513
1699.22,0.16528
1693.44,0.16499
1687.65,0.16527
1681.87,0.16555
1676.08,0.16604
1670.29,0.16703
1664.51,0.16556
1658.72,0.16175
1652.93,0.15425
1647.15,0.14225
1641.36,0.12268
1635.58,0.12773
1629.79,0.14403
1624,0.14834
1618.22,0.14960
1612.43,0.14996
1606.64,0.14996
1600.86,0.15032
1595.07,0.14758
1589.29,0.13971
1583.5,0.13783
1577.71,0.14286
1571.93,0.14803
1566.14,0.14601
1560.35,0.14318
1554.57,0.14107
1548.78,0.14108
1543,0.13638
1537.21,0.12912
1531.42,0.12302
1525.64,0.11531
1519.85,0.10689
1514.07,0.09816
1508.28,0.09039
1502.49,0.08247
1496.71,0.07482
1490.92,0.06650
1485.13,0.05867
1479.35,0.05233
1473.56,0.04665
1467.78,0.04131
1461.99,0.03939
1456.2,0.04024
1450.42,0.04179
1444.63,0.04419
1438.84,0.04547
1433.06,0.04721
1427.27,0.05016
1421.49,0.05358
1415.7,0.05741
1409.91,0.06076
1404.13,0.05855
1398.34,0.05632
1392.55,0.05773
1386.77,0.05662
1380.98,0.04581
1375.2,0.04506
1369.41,0.05815
1363.62,0.06522
1357.84,0.06518
1352.05,0.08043
1346.26,0.09559
1340.48,0.10578
1334.69,0.10908
1328.91,0.10605
1323.12,0.11441
1317.33,0.12250
1311.55,0.12761
1305.76,0.11105
1299.97,0.12036
1294.19,0.13159
1288.4,0.14704
1282.62,0.15513
1276.83,0.16241
1271.04,0.16338
1265.26,0.15654
1259.47,0.13970
1253.68,0.13005
1247.9,0.15820
1242.11,0.16693
1236.33,0.17214
1230.54,0.17367
1224.75,0.16772
1218.97,0.15928
1213.18,0.16964
1207.39,0.17599
1201.61,0.17393
1195.82,0.16891
1190.04,0.16395
1184.25,0.15186
1178.46,0.12964
1172.68,0.08779
1166.89,0.06000
1161.1,0.07888
1155.32,0.09637
1149.53,0.11512
1143.75,0.15079
1137.96,0.18702
1132.17,0.20735
1126.39,0.21347
1120.6,0.21078
1114.81,0.20078
1109.03,0.18514
1103.24,0.15975
1097.46,0.17925
1091.67,0.20232
1085.88,0.20830
1080.1,0.21504
1074.31,0.21665
1068.52,0.21388
1062.74,0.21231
1056.95,0.20832
1051.17,0.19635
1045.38,0.17227
1039.59,0.18314
1033.81,0.19107
1028.02,0.19063
1022.24,0.18355
1016.45,0.17305
1010.66,0.15606
1004.88,0.12011
999.09,0.06657
993.304,0.09343
987.518,0.13984
981.731,0.12697
975.945,0.07162
970.159,0.07526
964.373,0.14311
958.586,0.17859
952.8,0.19433
947.014,0.19618
941.228,0.18226
935.441,0.20172
929.655,0.22154
923.869,0.22929
918.083,0.22985
912.297,0.22338
906.51,0.20015
900.724,0.14130
894.938,0.16515
889.152,0.18157
883.365,0.08438
877.579,0.04852
871.793,0.06294
866.007,0.12637
860.22,0.16678
854.434,0.17073
848.648,0.12265
842.862,0.08675
837.075,0.11867
831.289,0.17024
825.503,0.18814
819.717,0.18800
813.931,0.15758
808.144,0.12791
802.358,0.16790
796.572,0.19163
790.786,0.20731
784.999,0.21830
779.213,0.22639
773.427,0.23209
767.641,0.23728
761.854,0.24240
756.068,0.24566
750.282,0.24492
744.496,0.24141
738.709,0.23602
732.923,0.22771
727.137,0.20903
721.351,0.16749
715.565,0.07839
709.778,0.09102
703.992,0.18719
698.206,0.22330
692.42,0.23677
686.633,0.24273
680.847,0.24361
675.061,0.24426
669.275,0.24409
663.488,0.24342
657.702,0.24143
651.916,0.23912
646.13,0.23587
640.343,0.23303
634.557,0.22890
628.771,0.22753
622.985,0.22447
617.198,0.22130
611.412,0.21679
605.626,0.21231
599.84,0.20644