File: 01_Data/Polyester_Bed_Skirt/FTIR/IS/Polyester_Bed_Skirt_IS_S_220822_R3.dpt
7497.03,0.31248
7491.25,0.30781
7485.46,0.31104
7479.67,0.31544
7473.89,0.31217
7468.1,0.31342
7462.32,0.31702
7456.53,0.31411
7450.74,0.31312
7444.96,0.31266
7439.17,0.31729
7433.38,0.31607
7427.6,0.31194
7421.81,0.31783
7416.03,0.31783
7410.24,0.31515
7404.45,0.32585
7398.67,0.31487
7392.88,0.31892
7387.09,0.31918
7381.31,0.31435
7375.52,0.31709
7369.74,0.30480
7363.95,0.31889
7358.16,0.31380
7352.38,0.31779
7346.59,0.31113
7340.8,0.31190
7335.02,0.31261
7329.23,0.30986
7323.45,0.31561
7317.66,0.31756
7311.87,0.32179
7306.09,0.31304
7300.3,0.31440
7294.51,0.30555
7288.73,0.31674
7282.94,0.31597
7277.16,0.31425
7271.37,0.30649
7265.58,0.30822
7259.8,0.31221
7254.01,0.31175
7248.22,0.30956
7242.44,0.30193
7236.65,0.30248
7230.87,0.31059
7225.08,0.31398
7219.29,0.30990
7213.51,0.30801
7207.72,0.31010
7201.93,0.31413
7196.15,0.30623
7190.36,0.30972
7184.58,0.30842
7178.79,0.30791
7173,0.31409
7167.22,0.30678
7161.43,0.30767
7155.65,0.30657
7149.86,0.31197
7144.07,0.30596
7138.29,0.30521
7132.5,0.31285
7126.71,0.31114
7120.93,0.31087
7115.14,0.30638
7109.36,0.31418
7103.57,0.30994
7097.78,0.31592
7092,0.31140
7086.21,0.30690
7080.42,0.30836
7074.64,0.30435
7068.85,0.31361
7063.07,0.30795
7057.28,0.31393
7051.49,0.31035
7045.71,0.31123
7039.92,0.31388
7034.13,0.31441
7028.35,0.31761
7022.56,0.31580
7016.78,0.30900
7010.99,0.30995
7005.2,0.30588
6999.42,0.30372
6993.63,0.30944
6987.84,0.31066
6982.06,0.30309
6976.27,0.31468
6970.49,0.31350
6964.7,0.31353
6958.91,0.30383
6953.13,0.31022
6947.34,0.30528
6941.55,0.30940
6935.77,0.31402
6929.98,0.31397
6924.2,0.30949
6918.41,0.30942
6912.62,0.30623
6906.84,0.31222
6901.05,0.30952
6895.26,0.30784
6889.48,0.31075
6883.69,0.31144
6877.91,0.30836
6872.12,0.31256
6866.33,0.31188
6860.55,0.31123
6854.76,0.31383
6848.97,0.31146
6843.19,0.31325
6837.4,0.31613
6831.62,0.30909
6825.83,0.31239
6820.04,0.31143
6814.26,0.31128
6808.47,0.31230
6802.68,0.31339
6796.9,0.31393
6791.11,0.31024
6785.33,0.31321
6779.54,0.31159
6773.75,0.31530
6767.97,0.31367
6762.18,0.30953
6756.39,0.30992
6750.61,0.31479
6744.82,0.31280
6739.04,0.30978
6733.25,0.31124
6727.46,0.30892
6721.68,0.31468
6715.89,0.30983
6710.1,0.31351
6704.32,0.31562
6698.53,0.31037
6692.75,0.30991
6686.96,0.31395
6681.17,0.31162
6675.39,0.30580
6669.6,0.30983
6663.82,0.31395
6658.03,0.31438
6652.24,0.31295
6646.46,0.31187
6640.67,0.31087
6634.88,0.31565
6629.1,0.31368
6623.31,0.30746
6617.53,0.31207
6611.74,0.31473
6605.95,0.31104
6600.17,0.31101
6594.38,0.31170
6588.59,0.30748
6582.81,0.31012
6577.02,0.30968
6571.24,0.31145
6565.45,0.31348
6559.66,0.30948
6553.88,0.30977
6548.09,0.31255
6542.3,0.31035
6536.52,0.31151
6530.73,0.30954
6524.95,0.31291
6519.16,0.31320
6513.37,0.31305
6507.59,0.31549
6501.8,0.31467
6496.01,0.31196
6490.23,0.31325
6484.44,0.31000
6478.66,0.30919
6472.87,0.31273
6467.08,0.31563
6461.3,0.31467
6455.51,0.31257
6449.72,0.31414
6443.94,0.31344
6438.15,0.31359
6432.37,0.31368
6426.58,0.31388
6420.79,0.31067
6415.01,0.31092
6409.22,0.31063
6403.43,0.31017
6397.65,0.30715
6391.86,0.30748
6386.08,0.31239
6380.29,0.31028
6374.5,0.30842
6368.72,0.30935
6362.93,0.31139
6357.14,0.31148
6351.36,0.31028
6345.57,0.31070
6339.79,0.31238
6334,0.31334
6328.21,0.31391
6322.43,0.30721
6316.64,0.30934
6310.85,0.30983
6305.07,0.30904
6299.28,0.30983
6293.5,0.30868
6287.71,0.30802
6281.92,0.30998
6276.14,0.31084
6270.35,0.30942
6264.56,0.30978
6258.78,0.31264
6252.99,0.31484
6247.21,0.31039
6241.42,0.30586
6235.63,0.30612
6229.85,0.31190
6224.06,0.30723
6218.27,0.30885
6212.49,0.30788
6206.7,0.30904
6200.92,0.30983
6195.13,0.31018
6189.34,0.30764
6183.56,0.30855
6177.77,0.30797
6171.98,0.30611
6166.2,0.30782
6160.41,0.30968
6154.63,0.30820
6148.84,0.30677
6143.05,0.30661
6137.27,0.30569
6131.48,0.30510
6125.7,0.30673
6119.91,0.30923
6114.12,0.30716
6108.34,0.30530
6102.55,0.30679
6096.76,0.30562
6090.98,0.30494
6085.19,0.30542
6079.41,0.30380
6073.62,0.30703
6067.83,0.30604
6062.05,0.30517
6056.26,0.30477
6050.47,0.30347
6044.69,0.30777
6038.9,0.30748
6033.12,0.30657
6027.33,0.30705
6021.54,0.30519
6015.76,0.30634
6009.97,0.30466
6004.18,0.30641
5998.4,0.30473
5992.61,0.30377
5986.83,0.30507
5981.04,0.30096
5975.25,0.30449
5969.47,0.30100
5963.68,0.30259
5957.89,0.30418
5952.11,0.30135
5946.32,0.30019
5940.54,0.29929
5934.75,0.29795
5928.96,0.29544
5923.18,0.28886
5917.39,0.28053
5911.6,0.27291
5905.82,0.27168
5900.03,0.27297
5894.25,0.27292
5888.46,0.27175
5882.67,0.27105
5876.89,0.26849
5871.1,0.26139
5865.31,0.25808
5859.53,0.25713
5853.74,0.25874
5847.96,0.26081
5842.17,0.26480
5836.38,0.26502
5830.6,0.26549
5824.81,0.26615
5819.02,0.26293
5813.24,0.26295
5807.45,0.25647
5801.67,0.25360
5795.88,0.25451
5790.09,0.25549
5784.31,0.25988
5778.52,0.26033
5772.73,0.26188
5766.95,0.25827
5761.16,0.25726
5755.38,0.25740
5749.59,0.26136
5743.8,0.26610
5738.02,0.26876
5732.23,0.27406
5726.44,0.27688
5720.66,0.27571
5714.87,0.27496
5709.09,0.27755
5703.3,0.27687
5697.51,0.27826
5691.73,0.27774
5685.94,0.27796
5680.15,0.27914
5674.37,0.27547
5668.58,0.27818
5662.8,0.27735
5657.01,0.27615
5651.22,0.27645
5645.44,0.27855
5639.65,0.27919
5633.87,0.28179
5628.08,0.28045
5622.29,0.28064
5616.51,0.28355
5610.72,0.28356
5604.93,0.28299
5599.15,0.28503
5593.36,0.28494
5587.58,0.28279
5581.79,0.28539
5576,0.28333
5570.22,0.28554
5564.43,0.28642
5558.64,0.28474
5552.86,0.28449
5547.07,0.28505
5541.29,0.28459
5535.5,0.28496
5529.71,0.28170
5523.93,0.28389
5518.14,0.28291
5512.35,0.28541
5506.57,0.28339
5500.78,0.28332
5495,0.28433
5489.21,0.28313
5483.42,0.28218
5477.64,0.28273
5471.85,0.28170
5466.06,0.28257
5460.28,0.28357
5454.49,0.28413
5448.71,0.28616
5442.92,0.28422
5437.13,0.28540
5431.35,0.28715
5425.56,0.28716
5419.77,0.28780
5413.99,0.28776
5408.2,0.28728
5402.42,0.28817
5396.63,0.28918
5390.84,0.29102
5385.06,0.29100
5379.27,0.29266
5373.48,0.29227
5367.7,0.29231
5361.91,0.29190
5356.13,0.29215
5350.34,0.29246
5344.55,0.29157
5338.77,0.29268
5332.98,0.29216
5327.19,0.29087
5321.41,0.29050
5315.62,0.29065
5309.84,0.29023
5304.05,0.29055
5298.26,0.29025
5292.48,0.28908
5286.69,0.29158
5280.9,0.29075
5275.12,0.29006
5269.33,0.29122
5263.55,0.29144
5257.76,0.29128
5251.97,0.29075
5246.19,0.29123
5240.4,0.29165
5234.61,0.29102
5228.83,0.28892
5223.04,0.29072
5217.26,0.29051
5211.47,0.28992
5205.68,0.29000
5199.9,0.29116
5194.11,0.29212
5188.32,0.29168
5182.54,0.29077
5176.75,0.29085
5170.97,0.29102
5165.18,0.29059
5159.39,0.29125
5153.61,0.29088
5147.82,0.28999
5142.03,0.29012
5136.25,0.29001
5130.46,0.29131
5124.68,0.29161
5118.89,0.28952
5113.1,0.29022
5107.32,0.29033
5101.53,0.28995
5095.75,0.28993
5089.96,0.29094
5084.17,0.28969
5078.39,0.28987
5072.6,0.28947
5066.81,0.28947
5061.03,0.28944
5055.24,0.28976
5049.46,0.29080
5043.67,0.29000
5037.88,0.29015
5032.1,0.28924
5026.31,0.28931
5020.52,0.29108
5014.74,0.29071
5008.95,0.28982
5003.17,0.29145
4997.38,0.29303
4991.59,0.29159
4985.81,0.29219
4980.02,0.29141
4974.23,0.29222
4968.45,0.29263
4962.66,0.29289
4956.88,0.29361
4951.09,0.29264
4945.3,0.29279
4939.52,0.29262
4933.73,0.29329
4927.94,0.29238
4922.16,0.29359
4916.37,0.29213
4910.59,0.29381
4904.8,0.29379
4899.01,0.29322
4893.23,0.29269
4887.44,0.29331
4881.65,0.29399
4875.87,0.29201
4870.08,0.29293
4864.3,0.29268
4858.51,0.29128
4852.72,0.29114
4846.94,0.29199
4841.15,0.29241
4835.36,0.29269
4829.58,0.29197
4823.79,0.29212
4818.01,0.29141
4812.22,0.29240
4806.43,0.29225
4800.65,0.29326
4794.86,0.29120
4789.07,0.29148
4783.29,0.29232
4777.5,0.29123
4771.72,0.29177
4765.93,0.29289
4760.14,0.29351
4754.36,0.29276
4748.57,0.29152
4742.78,0.29186
4737,0.29184
4731.21,0.29140
4725.43,0.29250
4719.64,0.29143
4713.85,0.29237
4708.07,0.29195
4702.28,0.29144
4696.49,0.29215
4690.71,0.29144
4684.92,0.29079
4679.14,0.29088
4673.35,0.29180
4667.56,0.29141
4661.78,0.29017
4655.99,0.29049
4650.2,0.28936
4644.42,0.28984
4638.63,0.28882
4632.85,0.28848
4627.06,0.28981
4621.27,0.28798
4615.49,0.28869
4609.7,0.28800
4603.92,0.28720
4598.13,0.28654
4592.34,0.28592
4586.56,0.28611
4580.77,0.28487
4574.98,0.28410
4569.2,0.28407
4563.41,0.28425
4557.63,0.28358
4551.84,0.28367
4546.05,0.28383
4540.27,0.28334
4534.48,0.28315
4528.69,0.28303
4522.91,0.28244
4517.12,0.28201
4511.34,0.28261
4505.55,0.28261
4499.76,0.28212
4493.98,0.28136
4488.19,0.28129
4482.4,0.28096
4476.62,0.27981
4470.83,0.27878
4465.05,0.27804
4459.26,0.27506
4453.47,0.27321
4447.69,0.27068
4441.9,0.26603
4436.11,0.25937
4430.33,0.25008
4424.54,0.24014
4418.76,0.22898
4412.97,0.21869
4407.18,0.20982
4401.4,0.19979
4395.61,0.18814
4389.82,0.18430
4384.04,0.19057
4378.25,0.19566
4372.47,0.20000
4366.68,0.20452
4360.89,0.20600
4355.11,0.20536
4349.32,0.19809
4343.53,0.18537
4337.75,0.16840
4331.96,0.15316
4326.18,0.14671
4320.39,0.14743
4314.6,0.14968
4308.82,0.15354
4303.03,0.16169
4297.24,0.17206
4291.46,0.17513
4285.67,0.17582
4279.89,0.17568
4274.1,0.17664
4268.31,0.17564
4262.53,0.17126
4256.74,0.16533
4250.95,0.15792
4245.17,0.15126
4239.38,0.15148
4233.6,0.15999
4227.81,0.16634
4222.02,0.16841
4216.24,0.16852
4210.45,0.17127
4204.66,0.17324
4198.88,0.17713
4193.09,0.18264
4187.31,0.18570
4181.52,0.18389
4175.73,0.18005
4169.95,0.17624
4164.16,0.17713
4158.37,0.18146
4152.59,0.18422
4146.8,0.18806
4141.02,0.18943
4135.23,0.19044
4129.44,0.18870
4123.66,0.18592
4117.87,0.18496
4112.09,0.18682
4106.3,0.19109
4100.51,0.19613
4094.73,0.19779
4088.94,0.19537
4083.15,0.18984
4077.37,0.18290
4071.58,0.17549
4065.8,0.16997
4060.01,0.16382
4054.22,0.16940
4048.44,0.18189
4042.65,0.19272
4036.86,0.19840
4031.08,0.20236
4025.29,0.20349
4019.51,0.20449
4013.72,0.20833
4007.93,0.21029
4002.15,0.21015
3996.36,0.20887
3990.57,0.20973
3984.79,0.21315
3979,0.21752
3973.22,0.21934
3967.43,0.22104
3961.64,0.22154
3955.86,0.22296
3950.07,0.22340
3944.28,0.22306
3938.5,0.22118
3932.71,0.22051
3926.93,0.22118
3921.14,0.22156
3915.35,0.22415
3909.57,0.22664
3903.78,0.22828
3897.99,0.22820
3892.21,0.22856
3886.42,0.22922
3880.64,0.22915
3874.85,0.23017
3869.06,0.23069
3863.28,0.23269
3857.49,0.23402
3851.7,0.23575
3845.92,0.23604
3840.13,0.23475
3834.35,0.23537
3828.56,0.23491
3822.77,0.23457
3816.99,0.23347
3811.2,0.23334
3805.41,0.23412
3799.63,0.23607
3793.84,0.23612
3788.06,0.23713
3782.27,0.23801
3776.48,0.23663
3770.7,0.23316
3764.91,0.23038
3759.12,0.23115
3753.34,0.23425
3747.55,0.23685
3741.77,0.23775
3735.98,0.23914
3730.19,0.24017
3724.41,0.24138
3718.62,0.24158
3712.83,0.24154
3707.05,0.24185
3701.26,0.24145
3695.48,0.24136
3689.69,0.24214
3683.9,0.24293
3678.12,0.24567
3672.33,0.24882
3666.54,0.25266
3660.76,0.25462
3654.97,0.25559
3649.19,0.25503
3643.4,0.25349
3637.61,0.25111
3631.83,0.25118
3626.04,0.25407
3620.25,0.25638
3614.47,0.25706
3608.68,0.25655
3602.9,0.25643
3597.11,0.25557
3591.32,0.25461
3585.54,0.25403
3579.75,0.25498
3573.97,0.25525
3568.18,0.25583
3562.39,0.25605
3556.61,0.25537
3550.82,0.25482
3545.03,0.25470
3539.25,0.25327
3533.46,0.25237
3527.68,0.25177
3521.89,0.25120
3516.1,0.25058
3510.32,0.24976
3504.53,0.24875
3498.74,0.24864
3492.96,0.24750
3487.17,0.24594
3481.39,0.24503
3475.6,0.24257
3469.81,0.24099
3464.03,0.23871
3458.24,0.23715
3452.45,0.23427
3446.67,0.23138
3440.88,0.22866
3435.1,0.22579
3429.31,0.22413
3423.52,0.22061
3417.74,0.21838
3411.95,0.21780
3406.16,0.21714
3400.38,0.21972
3394.59,0.22008
3388.81,0.22021
3383.02,0.21901
3377.23,0.21669
3371.45,0.21394
3365.66,0.21256
3359.87,0.21084
3354.09,0.20837
3348.3,0.20560
3342.52,0.20559
3336.73,0.20655
3330.94,0.20809
3325.16,0.20764
3319.37,0.20266
3313.58,0.19214
3307.8,0.17667
3302.01,0.16148
3296.23,0.16396
3290.44,0.17897
3284.65,0.18999
3278.87,0.19557
3273.08,0.19874
3267.29,0.20179
3261.51,0.20400
3255.72,0.20620
3249.94,0.20638
3244.15,0.20487
3238.36,0.20137
3232.58,0.19485
3226.79,0.18709
3221,0.17919
3215.22,0.17135
3209.43,0.16422
3203.65,0.15945
3197.86,0.15591
3192.07,0.15568
3186.29,0.15568
3180.5,0.15791
3174.71,0.16040
3168.93,0.16223
3163.14,0.16170
3157.36,0.16002
3151.57,0.15856
3145.78,0.15646
3140,0.15658
3134.21,0.15902
3128.42,0.16111
3122.64,0.16411
3116.85,0.16697
3111.07,0.16750
3105.28,0.16708
3099.49,0.16748
3093.71,0.16707
3087.92,0.16605
3082.14,0.16381
3076.35,0.16246
3070.56,0.15954
3064.78,0.15760
3058.99,0.15427
3053.2,0.15020
3047.42,0.14699
3041.63,0.14392
3035.85,0.13946
3030.06,0.13275
3024.27,0.12404
3018.49,0.11428
3012.7,0.10280
3006.91,0.09025
3001.13,0.07695
2995.34,0.06231
2989.56,0.04737
2983.77,0.03613
2977.98,0.02923
2972.2,0.02513
2966.41,0.02446
2960.62,0.02833
2954.84,0.03018
2949.05,0.03283
2943.27,0.03242
2937.48,0.03048
2931.69,0.02897
2925.91,0.02986
2920.12,0.03417
2914.33,0.03731
2908.55,0.03564
2902.76,0.03502
2896.98,0.03490
2891.19,0.03442
2885.4,0.03371
2879.62,0.03386
2873.83,0.03414
2868.04,0.03412
2862.26,0.03629
2856.47,0.03789
2850.69,0.03653
2844.9,0.03370
2839.11,0.03453
2833.33,0.03728
2827.54,0.04244
2821.75,0.04935
2815.97,0.05606
2810.18,0.06138
2804.4,0.06845
2798.61,0.07709
2792.82,0.08273
2787.04,0.09520
2781.25,0.10796
2775.46,0.11706
2769.68,0.12211
2763.89,0.12526
2758.11,0.12892
2752.32,0.13014
2746.53,0.12823
2740.75,0.12088
2734.96,0.11132
2729.17,0.10168
2723.39,0.09061
2717.6,0.09916
2711.82,0.11308
2706.03,0.12326
2700.24,0.13044
2694.46,0.13333
2688.67,0.13252
2682.88,0.13228
2677.1,0.13179
2671.31,0.13347
2665.53,0.13399
2659.74,0.13377
2653.95,0.13757
2648.17,0.14202
2642.38,0.14433
2636.59,0.14645
2630.81,0.14182
2625.02,0.13324
2619.24,0.12693
2613.45,0.12304
2607.66,0.12310
2601.88,0.12363
2596.09,0.12247
2590.3,0.11762
2584.52,0.11071
2578.73,0.11017
2572.95,0.11595
2567.16,0.12062
2561.37,0.12276
2555.59,0.12258
2549.8,0.12226
2544.02,0.12247
2538.23,0.11875
2532.44,0.10384
2526.66,0.09032
2520.87,0.08175
2515.08,0.07864
2509.3,0.07917
2503.51,0.08973
2497.73,0.10907
2491.94,0.13181
2486.15,0.14943
2480.37,0.16230
2474.58,0.17594
2468.79,0.18769
2463.01,0.19251
2457.22,0.19418
2451.44,0.19523
2445.65,0.19522
2439.86,0.19376
2434.08,0.18927
2428.29,0.18764
2422.5,0.19096
2416.72,0.19540
2410.93,0.19726
2405.15,0.19592
2399.36,0.19509
2393.57,0.19741
2387.79,0.19950
2382,0.20043
2376.21,0.19987
2370.43,0.19976
2364.64,0.19900
2358.86,0.19877
2353.07,0.20130
2347.28,0.20473
2341.5,0.20822
2335.71,0.20942
2329.92,0.21132
2324.14,0.21395
2318.35,0.21761
2312.57,0.21958
2306.78,0.22041
2300.99,0.22022
2295.21,0.22057
2289.42,0.22188
2283.63,0.22259
2277.85,0.22042
2272.06,0.21597
2266.28,0.21359
2260.49,0.21123
2254.7,0.21003
2248.92,0.21413
2243.13,0.21779
2237.34,0.21774
2231.56,0.21542
2225.77,0.21634
2219.99,0.21779
2214.2,0.21711
2208.41,0.21617
2202.63,0.21398
2196.84,0.21278
2191.05,0.21175
2185.27,0.21100
2179.48,0.21037
2173.7,0.20907
2167.91,0.20945
2162.12,0.21185
2156.34,0.21182
2150.55,0.21032
2144.76,0.20886
2138.98,0.20612
2133.19,0.20375
2127.41,0.20878
2121.62,0.22119
2115.83,0.22995
2110.05,0.23442
2104.26,0.23524
2098.47,0.23567
2092.69,0.23588
2086.9,0.23693
2081.12,0.24015
2075.33,0.24394
2069.54,0.24600
2063.76,0.24665
2057.97,0.24585
2052.19,0.24491
2046.4,0.24365
2040.61,0.24437
2034.83,0.24386
2029.04,0.24311
2023.25,0.24367
2017.47,0.24448
2011.68,0.24468
2005.9,0.24510
2000.11,0.24413
1994.32,0.24314
1988.54,0.24348
1982.75,0.24460
1976.96,0.24518
1971.18,0.24474
1965.39,0.24146
1959.61,0.23725
1953.82,0.24060
1948.03,0.24219
1942.25,0.24161
1936.46,0.24134
1930.67,0.24002
1924.89,0.23782
1919.1,0.23625
1913.32,0.23478
1907.53,0.23433
1901.74,0.23257
1895.96,0.22913
1890.17,0.22854
1884.38,0.23273
1878.6,0.23342
1872.81,0.23346
1867.03,0.23235
1861.24,0.22986
1855.45,0.22717
1849.67,0.22484
1843.88,0.22199
1838.09,0.21755
1832.31,0.21269
1826.52,0.21003
1820.74,0.20752
1814.95,0.19903
1809.16,0.17955
1803.38,0.12538
1797.59,0.07174
1791.8,0.07779
1786.02,0.13434
1780.23,0.17006
1774.45,0.18137
1768.66,0.18127
1762.87,0.17538
1757.09,0.16751
1751.3,0.16009
1745.51,0.15084
1739.73,0.13831
1733.94,0.13970
1728.16,0.14282
1722.37,0.15911
1716.58,0.16349
1710.8,0.16419
1705.01,0.16467
1699.22,0.16522
1693.44,0.16486
1687.65,0.16508
1681.87,0.16559
1676.08,0.16567
1670.29,0.16657
1664.51,0.16557
1658.72,0.16137
1652.93,0.15398
1647.15,0.14201
1641.36,0.12261
1635.58,0.12815
1629.79,0.14362
1624,0.14912
1618.22,0.14939
1612.43,0.14950
1606.64,0.15019
1600.86,0.15014
1595.07,0.14739
1589.29,0.13950
1583.5,0.13807
1577.71,0.14262
1571.93,0.14755
1566.14,0.14632
1560.35,0.14330
1554.57,0.14087
1548.78,0.14074
1543,0.13601
1537.21,0.12932
1531.42,0.12242
1525.64,0.11505
1519.85,0.10700
1514.07,0.09855
1508.28,0.09103
1502.49,0.08230
1496.71,0.07451
1490.92,0.06658
1485.13,0.05850
1479.35,0.05200
1473.56,0.04651
1467.78,0.04162
1461.99,0.03934
1456.2,0.04011
1450.42,0.04177
1444.63,0.04388
1438.84,0.04511
1433.06,0.04697
1427.27,0.05010
1421.49,0.05340
1415.7,0.05757
1409.91,0.06085
1404.13,0.05838
1398.34,0.05657
1392.55,0.05798
1386.77,0.05649
1380.98,0.04587
1375.2,0.04459
1369.41,0.05789
1363.62,0.06525
1357.84,0.06466
1352.05,0.08062
1346.26,0.09559
1340.48,0.10572
1334.69,0.10882
1328.91,0.10603
1323.12,0.11430
1317.33,0.12206
1311.55,0.12751
1305.76,0.11089
1299.97,0.12048
1294.19,0.13168
1288.4,0.14680
1282.62,0.15496
1276.83,0.16272
1271.04,0.16337
1265.26,0.15635
1259.47,0.13971
1253.68,0.12999
1247.9,0.15815
1242.11,0.16730
1236.33,0.17218
1230.54,0.17312
1224.75,0.16794
1218.97,0.15969
1213.18,0.16983
1207.39,0.17552
1201.61,0.17389
1195.82,0.16939
1190.04,0.16440
1184.25,0.15149
1178.46,0.12942
1172.68,0.08811
1166.89,0.06017
1161.1,0.07835
1155.32,0.09644
1149.53,0.11499
1143.75,0.15139
1137.96,0.18634
1132.17,0.20766
1126.39,0.21326
1120.6,0.21077
1114.81,0.20031
1109.03,0.18377
1103.24,0.15850
1097.46,0.17943
1091.67,0.20218
1085.88,0.20885
1080.1,0.21543
1074.31,0.21620
1068.52,0.21339
1062.74,0.21275
1056.95,0.20793
1051.17,0.19627
1045.38,0.17251
1039.59,0.18322
1033.81,0.19112
1028.02,0.18960
1022.24,0.18362
1016.45,0.17273
1010.66,0.15573
1004.88,0.11994
999.09,0.06701
993.304,0.09366
987.518,0.13974
981.731,0.12687
975.945,0.07184
970.159,0.07568
964.373,0.14258
958.586,0.17845
952.8,0.19412
947.014,0.19584
941.228,0.18104
935.441,0.20198
929.655,0.22195
923.869,0.22898
918.083,0.22964
912.297,0.22280
906.51,0.20044
900.724,0.14153
894.938,0.16555
889.152,0.18135
883.365,0.08516
877.579,0.04870
871.793,0.06253
866.007,0.12614
860.22,0.16635
854.434,0.17061
848.648,0.12281
842.862,0.08569
837.075,0.11786
831.289,0.17017
825.503,0.18857
819.717,0.18775
813.931,0.15697
808.144,0.12680
802.358,0.16752
796.572,0.19239
790.786,0.20591
784.999,0.21845
779.213,0.22723
773.427,0.23239
767.641,0.23675
761.854,0.24220
756.068,0.24555
750.282,0.24526
744.496,0.24165
738.709,0.23581
732.923,0.22750
727.137,0.20930
721.351,0.16689
715.565,0.07779
709.778,0.09025
703.992,0.18783
698.206,0.22415
692.42,0.23775
686.633,0.24377
680.847,0.24298
675.061,0.24421
669.275,0.24417
663.488,0.24376
657.702,0.24214
651.916,0.23994
646.13,0.23729
640.343,0.23379
634.557,0.23042
628.771,0.22640
622.985,0.22489
617.198,0.22276
611.412,0.21914
605.626,0.21264
599.84,0.20742