File: 01_Data/Polyester_Bed_Skirt/FTIR/IS/Polyester_Bed_Skirt_IS_S_220822_R5.dpt
7497.03,0.31789
7491.25,0.31300
7485.46,0.30932
7479.67,0.32017
7473.89,0.31351
7468.1,0.32145
7462.32,0.31737
7456.53,0.31963
7450.74,0.31917
7444.96,0.31400
7439.17,0.31533
7433.38,0.31717
7427.6,0.31572
7421.81,0.31889
7416.03,0.31861
7410.24,0.31575
7404.45,0.31500
7398.67,0.31719
7392.88,0.32261
7387.09,0.31128
7381.31,0.31120
7375.52,0.31773
7369.74,0.32034
7363.95,0.31291
7358.16,0.30582
7352.38,0.31602
7346.59,0.31552
7340.8,0.31671
7335.02,0.30922
7329.23,0.31259
7323.45,0.31087
7317.66,0.31271
7311.87,0.30551
7306.09,0.31512
7300.3,0.30845
7294.51,0.31526
7288.73,0.31784
7282.94,0.31126
7277.16,0.30996
7271.37,0.31305
7265.58,0.31013
7259.8,0.31717
7254.01,0.31086
7248.22,0.31607
7242.44,0.31403
7236.65,0.30892
7230.87,0.31037
7225.08,0.30698
7219.29,0.30872
7213.51,0.30688
7207.72,0.31188
7201.93,0.31359
7196.15,0.31336
7190.36,0.30846
7184.58,0.30938
7178.79,0.31243
7173,0.30958
7167.22,0.30752
7161.43,0.30663
7155.65,0.30975
7149.86,0.31270
7144.07,0.30859
7138.29,0.31095
7132.5,0.31040
7126.71,0.31097
7120.93,0.30830
7115.14,0.30822
7109.36,0.30857
7103.57,0.30684
7097.78,0.30379
7092,0.31387
7086.21,0.31124
7080.42,0.30582
7074.64,0.31165
7068.85,0.30913
7063.07,0.31029
7057.28,0.30641
7051.49,0.31122
7045.71,0.30997
7039.92,0.30913
7034.13,0.30932
7028.35,0.30936
7022.56,0.30940
7016.78,0.31087
7010.99,0.31687
7005.2,0.31035
6999.42,0.30523
6993.63,0.30816
6987.84,0.31123
6982.06,0.30604
6976.27,0.30973
6970.49,0.31035
6964.7,0.30611
6958.91,0.31114
6953.13,0.31074
6947.34,0.31249
6941.55,0.31113
6935.77,0.31471
6929.98,0.31154
6924.2,0.31042
6918.41,0.31023
6912.62,0.30676
6906.84,0.30943
6901.05,0.30837
6895.26,0.30873
6889.48,0.30736
6883.69,0.30545
6877.91,0.30927
6872.12,0.30577
6866.33,0.30752
6860.55,0.30949
6854.76,0.30760
6848.97,0.30849
6843.19,0.30936
6837.4,0.30856
6831.62,0.31290
6825.83,0.31383
6820.04,0.30981
6814.26,0.30741
6808.47,0.30721
6802.68,0.30753
6796.9,0.31196
6791.11,0.31037
6785.33,0.31476
6779.54,0.31467
6773.75,0.31296
6767.97,0.31358
6762.18,0.31121
6756.39,0.31257
6750.61,0.31432
6744.82,0.31344
6739.04,0.30788
6733.25,0.31151
6727.46,0.31088
6721.68,0.31191
6715.89,0.30989
6710.1,0.30987
6704.32,0.31393
6698.53,0.31208
6692.75,0.31196
6686.96,0.31077
6681.17,0.31234
6675.39,0.31214
6669.6,0.30853
6663.82,0.31115
6658.03,0.30915
6652.24,0.31051
6646.46,0.30936
6640.67,0.31237
6634.88,0.30796
6629.1,0.31505
6623.31,0.31390
6617.53,0.31052
6611.74,0.31130
6605.95,0.30818
6600.17,0.31597
6594.38,0.31508
6588.59,0.31372
6582.81,0.31016
6577.02,0.31271
6571.24,0.31212
6565.45,0.31182
6559.66,0.30963
6553.88,0.31229
6548.09,0.30959
6542.3,0.31005
6536.52,0.31225
6530.73,0.31183
6524.95,0.31014
6519.16,0.30942
6513.37,0.31023
6507.59,0.31288
6501.8,0.31163
6496.01,0.31352
6490.23,0.31376
6484.44,0.31329
6478.66,0.31012
6472.87,0.31365
6467.08,0.31480
6461.3,0.31553
6455.51,0.31125
6449.72,0.30987
6443.94,0.31203
6438.15,0.30973
6432.37,0.31225
6426.58,0.31089
6420.79,0.31025
6415.01,0.31267
6409.22,0.31081
6403.43,0.31076
6397.65,0.31513
6391.86,0.31398
6386.08,0.30904
6380.29,0.31193
6374.5,0.31060
6368.72,0.31367
6362.93,0.31197
6357.14,0.31471
6351.36,0.31315
6345.57,0.31012
6339.79,0.31080
6334,0.30731
6328.21,0.31022
6322.43,0.31092
6316.64,0.31004
6310.85,0.31098
6305.07,0.30848
6299.28,0.31200
6293.5,0.30844
6287.71,0.30971
6281.92,0.30683
6276.14,0.30885
6270.35,0.31110
6264.56,0.30503
6258.78,0.30892
6252.99,0.30887
6247.21,0.30756
6241.42,0.30759
6235.63,0.30687
6229.85,0.30776
6224.06,0.30699
6218.27,0.30474
6212.49,0.30965
6206.7,0.30944
6200.92,0.30739
6195.13,0.30736
6189.34,0.31087
6183.56,0.30959
6177.77,0.30671
6171.98,0.30851
6166.2,0.30661
6160.41,0.30865
6154.63,0.30788
6148.84,0.30769
6143.05,0.30902
6137.27,0.30840
6131.48,0.30582
6125.7,0.30408
6119.91,0.30582
6114.12,0.30787
6108.34,0.31000
6102.55,0.30872
6096.76,0.30599
6090.98,0.30874
6085.19,0.30681
6079.41,0.30722
6073.62,0.30748
6067.83,0.30828
6062.05,0.30642
6056.26,0.30671
6050.47,0.30529
6044.69,0.30646
6038.9,0.30855
6033.12,0.30578
6027.33,0.30469
6021.54,0.30577
6015.76,0.30557
6009.97,0.30397
6004.18,0.30562
5998.4,0.30344
5992.61,0.30466
5986.83,0.30364
5981.04,0.30235
5975.25,0.30388
5969.47,0.30331
5963.68,0.30576
5957.89,0.30373
5952.11,0.29888
5946.32,0.29928
5940.54,0.29789
5934.75,0.29800
5928.96,0.29218
5923.18,0.28871
5917.39,0.28315
5911.6,0.27256
5905.82,0.27273
5900.03,0.27279
5894.25,0.26890
5888.46,0.27178
5882.67,0.27188
5876.89,0.26601
5871.1,0.26277
5865.31,0.25837
5859.53,0.25458
5853.74,0.25746
5847.96,0.26056
5842.17,0.26326
5836.38,0.26304
5830.6,0.26698
5824.81,0.26673
5819.02,0.26392
5813.24,0.26405
5807.45,0.25935
5801.67,0.25652
5795.88,0.25408
5790.09,0.25691
5784.31,0.25859
5778.52,0.26023
5772.73,0.26125
5766.95,0.25910
5761.16,0.25582
5755.38,0.25985
5749.59,0.25979
5743.8,0.26267
5738.02,0.26943
5732.23,0.27352
5726.44,0.27558
5720.66,0.27691
5714.87,0.27592
5709.09,0.27645
5703.3,0.27796
5697.51,0.27774
5691.73,0.27884
5685.94,0.27870
5680.15,0.27763
5674.37,0.27754
5668.58,0.28018
5662.8,0.27818
5657.01,0.27814
5651.22,0.27791
5645.44,0.27866
5639.65,0.27975
5633.87,0.28083
5628.08,0.28040
5622.29,0.28281
5616.51,0.28165
5610.72,0.28482
5604.93,0.28574
5599.15,0.28360
5593.36,0.28500
5587.58,0.28429
5581.79,0.28368
5576,0.28251
5570.22,0.28362
5564.43,0.28493
5558.64,0.28353
5552.86,0.28455
5547.07,0.28490
5541.29,0.28356
5535.5,0.28593
5529.71,0.28542
5523.93,0.28306
5518.14,0.28360
5512.35,0.28496
5506.57,0.28395
5500.78,0.28268
5495,0.28201
5489.21,0.28251
5483.42,0.28227
5477.64,0.28229
5471.85,0.28176
5466.06,0.28362
5460.28,0.28410
5454.49,0.28426
5448.71,0.28537
5442.92,0.28275
5437.13,0.28394
5431.35,0.28654
5425.56,0.28807
5419.77,0.28839
5413.99,0.28751
5408.2,0.28882
5402.42,0.29063
5396.63,0.28913
5390.84,0.28904
5385.06,0.29009
5379.27,0.29054
5373.48,0.29138
5367.7,0.29064
5361.91,0.29066
5356.13,0.29153
5350.34,0.29177
5344.55,0.29052
5338.77,0.28972
5332.98,0.29124
5327.19,0.29104
5321.41,0.28994
5315.62,0.29043
5309.84,0.29089
5304.05,0.29009
5298.26,0.29028
5292.48,0.29109
5286.69,0.29036
5280.9,0.29043
5275.12,0.28977
5269.33,0.28977
5263.55,0.29029
5257.76,0.29077
5251.97,0.29215
5246.19,0.29149
5240.4,0.29272
5234.61,0.29073
5228.83,0.29032
5223.04,0.28927
5217.26,0.29188
5211.47,0.28980
5205.68,0.29046
5199.9,0.29078
5194.11,0.29135
5188.32,0.29132
5182.54,0.29104
5176.75,0.29044
5170.97,0.28970
5165.18,0.28944
5159.39,0.29042
5153.61,0.29075
5147.82,0.29173
5142.03,0.29045
5136.25,0.29075
5130.46,0.28983
5124.68,0.29045
5118.89,0.29125
5113.1,0.29116
5107.32,0.29152
5101.53,0.29059
5095.75,0.28938
5089.96,0.28821
5084.17,0.28955
5078.39,0.28997
5072.6,0.29011
5066.81,0.28918
5061.03,0.28865
5055.24,0.29002
5049.46,0.28876
5043.67,0.28944
5037.88,0.29032
5032.1,0.29012
5026.31,0.28915
5020.52,0.28974
5014.74,0.29104
5008.95,0.29114
5003.17,0.29046
4997.38,0.29188
4991.59,0.29223
4985.81,0.29082
4980.02,0.29238
4974.23,0.29155
4968.45,0.29167
4962.66,0.29093
4956.88,0.29127
4951.09,0.29185
4945.3,0.29303
4939.52,0.29253
4933.73,0.29314
4927.94,0.29208
4922.16,0.29246
4916.37,0.29273
4910.59,0.29283
4904.8,0.29358
4899.01,0.29244
4893.23,0.29252
4887.44,0.29236
4881.65,0.29188
4875.87,0.29245
4870.08,0.29118
4864.3,0.29193
4858.51,0.29103
4852.72,0.29177
4846.94,0.29192
4841.15,0.29249
4835.36,0.29222
4829.58,0.29285
4823.79,0.29262
4818.01,0.29153
4812.22,0.29315
4806.43,0.29170
4800.65,0.29159
4794.86,0.29222
4789.07,0.29122
4783.29,0.29160
4777.5,0.29144
4771.72,0.29265
4765.93,0.29208
4760.14,0.29199
4754.36,0.29193
4748.57,0.29165
4742.78,0.29182
4737,0.29224
4731.21,0.29145
4725.43,0.29138
4719.64,0.29222
4713.85,0.29090
4708.07,0.29084
4702.28,0.29157
4696.49,0.29203
4690.71,0.29148
4684.92,0.29102
4679.14,0.29128
4673.35,0.29102
4667.56,0.29129
4661.78,0.29006
4655.99,0.28942
4650.2,0.28962
4644.42,0.28905
4638.63,0.28866
4632.85,0.28883
4627.06,0.28854
4621.27,0.28929
4615.49,0.28893
4609.7,0.28840
4603.92,0.28670
4598.13,0.28649
4592.34,0.28688
4586.56,0.28466
4580.77,0.28442
4574.98,0.28335
4569.2,0.28321
4563.41,0.28297
4557.63,0.28362
4551.84,0.28348
4546.05,0.28283
4540.27,0.28337
4534.48,0.28312
4528.69,0.28377
4522.91,0.28278
4517.12,0.28214
4511.34,0.28211
4505.55,0.28178
4499.76,0.28091
4493.98,0.28077
4488.19,0.28060
4482.4,0.27996
4476.62,0.27921
4470.83,0.27856
4465.05,0.27617
4459.26,0.27490
4453.47,0.27401
4447.69,0.27028
4441.9,0.26525
4436.11,0.25901
4430.33,0.24991
4424.54,0.24014
4418.76,0.22897
4412.97,0.21762
4407.18,0.20800
4401.4,0.19925
4395.61,0.18839
4389.82,0.18381
4384.04,0.19064
4378.25,0.19634
4372.47,0.20067
4366.68,0.20492
4360.89,0.20639
4355.11,0.20467
4349.32,0.19859
4343.53,0.18508
4337.75,0.16750
4331.96,0.15338
4326.18,0.14674
4320.39,0.14741
4314.6,0.15034
4308.82,0.15394
4303.03,0.16169
4297.24,0.17148
4291.46,0.17573
4285.67,0.17579
4279.89,0.17583
4274.1,0.17639
4268.31,0.17527
4262.53,0.17204
4256.74,0.16552
4250.95,0.15744
4245.17,0.15191
4239.38,0.15106
4233.6,0.15938
4227.81,0.16688
4222.02,0.16790
4216.24,0.16861
4210.45,0.17018
4204.66,0.17407
4198.88,0.17769
4193.09,0.18337
4187.31,0.18638
4181.52,0.18443
4175.73,0.18064
4169.95,0.17680
4164.16,0.17680
4158.37,0.18123
4152.59,0.18454
4146.8,0.18773
4141.02,0.19020
4135.23,0.18996
4129.44,0.18914
4123.66,0.18552
4117.87,0.18475
4112.09,0.18721
4106.3,0.19077
4100.51,0.19575
4094.73,0.19845
4088.94,0.19584
4083.15,0.18962
4077.37,0.18312
4071.58,0.17661
4065.8,0.16950
4060.01,0.16395
4054.22,0.16953
4048.44,0.18210
4042.65,0.19308
4036.86,0.19886
4031.08,0.20226
4025.29,0.20320
4019.51,0.20524
4013.72,0.20777
4007.93,0.21026
4002.15,0.21060
3996.36,0.20878
3990.57,0.20922
3984.79,0.21337
3979,0.21750
3973.22,0.22006
3967.43,0.22079
3961.64,0.22180
3955.86,0.22296
3950.07,0.22331
3944.28,0.22258
3938.5,0.22057
3932.71,0.22023
3926.93,0.22109
3921.14,0.22166
3915.35,0.22430
3909.57,0.22637
3903.78,0.22828
3897.99,0.22822
3892.21,0.22836
3886.42,0.22860
3880.64,0.22894
3874.85,0.22961
3869.06,0.23112
3863.28,0.23172
3857.49,0.23366
3851.7,0.23616
3845.92,0.23611
3840.13,0.23537
3834.35,0.23395
3828.56,0.23455
3822.77,0.23464
3816.99,0.23357
3811.2,0.23336
3805.41,0.23489
3799.63,0.23527
3793.84,0.23654
3788.06,0.23716
3782.27,0.23736
3776.48,0.23585
3770.7,0.23326
3764.91,0.23092
3759.12,0.23157
3753.34,0.23399
3747.55,0.23606
3741.77,0.23776
3735.98,0.23921
3730.19,0.24053
3724.41,0.24093
3718.62,0.24168
3712.83,0.24114
3707.05,0.24156
3701.26,0.24213
3695.48,0.24151
3689.69,0.24253
3683.9,0.24298
3678.12,0.24514
3672.33,0.24790
3666.54,0.25172
3660.76,0.25417
3654.97,0.25459
3649.19,0.25543
3643.4,0.25332
3637.61,0.25125
3631.83,0.25128
3626.04,0.25419
3620.25,0.25669
3614.47,0.25743
3608.68,0.25668
3602.9,0.25609
3597.11,0.25489
3591.32,0.25507
3585.54,0.25441
3579.75,0.25425
3573.97,0.25554
3568.18,0.25644
3562.39,0.25638
3556.61,0.25555
3550.82,0.25507
3545.03,0.25449
3539.25,0.25283
3533.46,0.25225
3527.68,0.25132
3521.89,0.25029
3516.1,0.25013
3510.32,0.24978
3504.53,0.24867
3498.74,0.24827
3492.96,0.24725
3487.17,0.24620
3481.39,0.24468
3475.6,0.24212
3469.81,0.24106
3464.03,0.23871
3458.24,0.23656
3452.45,0.23411
3446.67,0.23120
3440.88,0.22844
3435.1,0.22616
3429.31,0.22356
3423.52,0.22038
3417.74,0.21839
3411.95,0.21726
3406.16,0.21692
3400.38,0.22010
3394.59,0.22036
3388.81,0.22024
3383.02,0.21820
3377.23,0.21644
3371.45,0.21435
3365.66,0.21216
3359.87,0.21011
3354.09,0.20759
3348.3,0.20579
3342.52,0.20485
3336.73,0.20640
3330.94,0.20765
3325.16,0.20716
3319.37,0.20217
3313.58,0.19248
3307.8,0.17618
3302.01,0.16118
3296.23,0.16435
3290.44,0.17905
3284.65,0.18955
3278.87,0.19518
3273.08,0.19877
3267.29,0.20154
3261.51,0.20397
3255.72,0.20562
3249.94,0.20658
3244.15,0.20481
3238.36,0.20115
3232.58,0.19509
3226.79,0.18704
3221,0.17905
3215.22,0.17106
3209.43,0.16454
3203.65,0.15928
3197.86,0.15613
3192.07,0.15511
3186.29,0.15621
3180.5,0.15887
3174.71,0.16028
3168.93,0.16184
3163.14,0.16137
3157.36,0.16077
3151.57,0.15813
3145.78,0.15580
3140,0.15636
3134.21,0.15795
3128.42,0.16086
3122.64,0.16414
3116.85,0.16624
3111.07,0.16701
3105.28,0.16715
3099.49,0.16731
3093.71,0.16642
3087.92,0.16537
3082.14,0.16428
3076.35,0.16258
3070.56,0.16040
3064.78,0.15754
3058.99,0.15374
3053.2,0.15002
3047.42,0.14716
3041.63,0.14363
3035.85,0.13945
3030.06,0.13301
3024.27,0.12439
3018.49,0.11398
3012.7,0.10251
3006.91,0.09045
3001.13,0.07710
2995.34,0.06286
2989.56,0.04774
2983.77,0.03631
2977.98,0.02902
2972.2,0.02474
2966.41,0.02509
2960.62,0.02900
2954.84,0.03018
2949.05,0.03228
2943.27,0.03234
2937.48,0.03005
2931.69,0.02892
2925.91,0.03061
2920.12,0.03387
2914.33,0.03695
2908.55,0.03522
2902.76,0.03581
2896.98,0.03533
2891.19,0.03461
2885.4,0.03448
2879.62,0.03328
2873.83,0.03367
2868.04,0.03445
2862.26,0.03601
2856.47,0.03753
2850.69,0.03655
2844.9,0.03416
2839.11,0.03483
2833.33,0.03700
2827.54,0.04236
2821.75,0.04968
2815.97,0.05629
2810.18,0.06106
2804.4,0.06864
2798.61,0.07716
2792.82,0.08300
2787.04,0.09512
2781.25,0.10763
2775.46,0.11735
2769.68,0.12265
2763.89,0.12513
2758.11,0.12869
2752.32,0.13006
2746.53,0.12795
2740.75,0.12110
2734.96,0.11124
2729.17,0.10162
2723.39,0.09130
2717.6,0.09889
2711.82,0.11319
2706.03,0.12286
2700.24,0.13007
2694.46,0.13356
2688.67,0.13266
2682.88,0.13248
2677.1,0.13155
2671.31,0.13372
2665.53,0.13417
2659.74,0.13306
2653.95,0.13721
2648.17,0.14192
2642.38,0.14443
2636.59,0.14606
2630.81,0.14144
2625.02,0.13305
2619.24,0.12655
2613.45,0.12219
2607.66,0.12230
2601.88,0.12395
2596.09,0.12232
2590.3,0.11772
2584.52,0.11094
2578.73,0.11002
2572.95,0.11603
2567.16,0.12060
2561.37,0.12289
2555.59,0.12230
2549.8,0.12267
2544.02,0.12255
2538.23,0.11881
2532.44,0.10378
2526.66,0.09015
2520.87,0.08156
2515.08,0.07854
2509.3,0.07956
2503.51,0.09010
2497.73,0.10931
2491.94,0.13175
2486.15,0.14918
2480.37,0.16264
2474.58,0.17584
2468.79,0.18706
2463.01,0.19235
2457.22,0.19414
2451.44,0.19481
2445.65,0.19554
2439.86,0.19358
2434.08,0.18925
2428.29,0.18742
2422.5,0.19049
2416.72,0.19507
2410.93,0.19688
2405.15,0.19580
2399.36,0.19523
2393.57,0.19692
2387.79,0.19970
2382,0.20022
2376.21,0.20004
2370.43,0.19990
2364.64,0.19887
2358.86,0.19874
2353.07,0.20108
2347.28,0.20466
2341.5,0.20788
2335.71,0.20948
2329.92,0.21097
2324.14,0.21389
2318.35,0.21712
2312.57,0.21929
2306.78,0.21987
2300.99,0.21998
2295.21,0.22048
2289.42,0.22196
2283.63,0.22249
2277.85,0.22057
2272.06,0.21581
2266.28,0.21320
2260.49,0.21126
2254.7,0.20976
2248.92,0.21383
2243.13,0.21788
2237.34,0.21773
2231.56,0.21521
2225.77,0.21603
2219.99,0.21760
2214.2,0.21728
2208.41,0.21604
2202.63,0.21380
2196.84,0.21210
2191.05,0.21169
2185.27,0.21116
2179.48,0.21033
2173.7,0.20856
2167.91,0.20919
2162.12,0.21186
2156.34,0.21187
2150.55,0.21047
2144.76,0.20865
2138.98,0.20593
2133.19,0.20368
2127.41,0.20864
2121.62,0.22084
2115.83,0.23023
2110.05,0.23403
2104.26,0.23530
2098.47,0.23552
2092.69,0.23586
2086.9,0.23667
2081.12,0.23973
2075.33,0.24335
2069.54,0.24545
2063.76,0.24642
2057.97,0.24559
2052.19,0.24422
2046.4,0.24408
2040.61,0.24397
2034.83,0.24336
2029.04,0.24232
2023.25,0.24357
2017.47,0.24399
2011.68,0.24449
2005.9,0.24471
2000.11,0.24376
1994.32,0.24269
1988.54,0.24337
1982.75,0.24423
1976.96,0.24482
1971.18,0.24444
1965.39,0.24122
1959.61,0.23722
1953.82,0.24065
1948.03,0.24167
1942.25,0.24171
1936.46,0.24106
1930.67,0.23955
1924.89,0.23747
1919.1,0.23600
1913.32,0.23473
1907.53,0.23349
1901.74,0.23234
1895.96,0.22910
1890.17,0.22841
1884.38,0.23186
1878.6,0.23323
1872.81,0.23275
1867.03,0.23217
1861.24,0.22973
1855.45,0.22675
1849.67,0.22429
1843.88,0.22160
1838.09,0.21735
1832.31,0.21293
1826.52,0.21013
1820.74,0.20731
1814.95,0.19901
1809.16,0.17906
1803.38,0.12520
1797.59,0.07180
1791.8,0.07801
1786.02,0.13442
1780.23,0.16982
1774.45,0.18079
1768.66,0.18088
1762.87,0.17502
1757.09,0.16736
1751.3,0.15970
1745.51,0.15070
1739.73,0.13853
1733.94,0.13971
1728.16,0.14261
1722.37,0.15885
1716.58,0.16300
1710.8,0.16398
1705.01,0.16469
1699.22,0.16508
1693.44,0.16495
1687.65,0.16521
1681.87,0.16521
1676.08,0.16631
1670.29,0.16666
1664.51,0.16531
1658.72,0.16132
1652.93,0.15447
1647.15,0.14208
1641.36,0.12236
1635.58,0.12754
1629.79,0.14382
1624,0.14872
1618.22,0.14981
1612.43,0.14954
1606.64,0.15048
1600.86,0.15055
1595.07,0.14762
1589.29,0.13948
1583.5,0.13832
1577.71,0.14289
1571.93,0.14755
1566.14,0.14600
1560.35,0.14314
1554.57,0.14086
1548.78,0.14116
1543,0.13644
1537.21,0.12946
1531.42,0.12283
1525.64,0.11546
1519.85,0.10712
1514.07,0.09841
1508.28,0.09101
1502.49,0.08229
1496.71,0.07434
1490.92,0.06698
1485.13,0.05858
1479.35,0.05223
1473.56,0.04709
1467.78,0.04152
1461.99,0.03923
1456.2,0.04052
1450.42,0.04163
1444.63,0.04461
1438.84,0.04543
1433.06,0.04695
1427.27,0.05011
1421.49,0.05366
1415.7,0.05827
1409.91,0.06080
1404.13,0.05842
1398.34,0.05662
1392.55,0.05811
1386.77,0.05703
1380.98,0.04574
1375.2,0.04447
1369.41,0.05811
1363.62,0.06547
1357.84,0.06493
1352.05,0.08072
1346.26,0.09524
1340.48,0.10575
1334.69,0.10880
1328.91,0.10600
1323.12,0.11415
1317.33,0.12294
1311.55,0.12764
1305.76,0.11110
1299.97,0.12056
1294.19,0.13177
1288.4,0.14689
1282.62,0.15480
1276.83,0.16268
1271.04,0.16350
1265.26,0.15660
1259.47,0.13972
1253.68,0.12977
1247.9,0.15821
1242.11,0.16659
1236.33,0.17161
1230.54,0.17327
1224.75,0.16754
1218.97,0.15933
1213.18,0.16933
1207.39,0.17556
1201.61,0.17380
1195.82,0.16937
1190.04,0.16395
1184.25,0.15141
1178.46,0.12931
1172.68,0.08820
1166.89,0.06008
1161.1,0.07909
1155.32,0.09673
1149.53,0.11463
1143.75,0.15127
1137.96,0.18684
1132.17,0.20742
1126.39,0.21396
1120.6,0.21045
1114.81,0.20027
1109.03,0.18362
1103.24,0.15837
1097.46,0.17957
1091.67,0.20238
1085.88,0.20801
1080.1,0.21505
1074.31,0.21644
1068.52,0.21326
1062.74,0.21198
1056.95,0.20776
1051.17,0.19606
1045.38,0.17222
1039.59,0.18251
1033.81,0.19050
1028.02,0.18959
1022.24,0.18327
1016.45,0.17293
1010.66,0.15537
1004.88,0.12024
999.09,0.06692
993.304,0.09318
987.518,0.14001
981.731,0.12751
975.945,0.07226
970.159,0.07614
964.373,0.14296
958.586,0.17822
952.8,0.19432
947.014,0.19549
941.228,0.18152
935.441,0.20183
929.655,0.22091
923.869,0.22865
918.083,0.22916
912.297,0.22277
906.51,0.19946
900.724,0.14166
894.938,0.16556
889.152,0.18162
883.365,0.08604
877.579,0.04865
871.793,0.06184
866.007,0.12614
860.22,0.16663
854.434,0.17113
848.648,0.12322
842.862,0.08621
837.075,0.11868
831.289,0.16976
825.503,0.18826
819.717,0.18838
813.931,0.15772
808.144,0.12758
802.358,0.16819
796.572,0.19141
790.786,0.20696
784.999,0.21833
779.213,0.22730
773.427,0.23236
767.641,0.23689
761.854,0.24221
756.068,0.24479
750.282,0.24467
744.496,0.24200
738.709,0.23605
732.923,0.22620
727.137,0.20904
721.351,0.16737
715.565,0.07804
709.778,0.08958
703.992,0.18698
698.206,0.22296
692.42,0.23638
686.633,0.24228
680.847,0.24316
675.061,0.24413
669.275,0.24423
663.488,0.24496
657.702,0.24142
651.916,0.23739
646.13,0.23655
640.343,0.23486
634.557,0.23043
628.771,0.22654
622.985,0.22522
617.198,0.22196
611.412,0.21898
605.626,0.21307
599.84,0.20652