File: 01_Data/Polyester_Bed_Skirt/FTIR/IS/Polyester_Bed_Skirt_IS_S_220822_R8.dpt
7497.03,0.32170
7491.25,0.32505
7485.46,0.31470
7479.67,0.31211
7473.89,0.31039
7468.1,0.31659
7462.32,0.31129
7456.53,0.31760
7450.74,0.31559
7444.96,0.31358
7439.17,0.31677
7433.38,0.31733
7427.6,0.30726
7421.81,0.31778
7416.03,0.31903
7410.24,0.32065
7404.45,0.32496
7398.67,0.32042
7392.88,0.31568
7387.09,0.30964
7381.31,0.31879
7375.52,0.31548
7369.74,0.31585
7363.95,0.31374
7358.16,0.31121
7352.38,0.31597
7346.59,0.31321
7340.8,0.31071
7335.02,0.31828
7329.23,0.31446
7323.45,0.30490
7317.66,0.31298
7311.87,0.30319
7306.09,0.30906
7300.3,0.31395
7294.51,0.30869
7288.73,0.30772
7282.94,0.30847
7277.16,0.30765
7271.37,0.31040
7265.58,0.30857
7259.8,0.30829
7254.01,0.30759
7248.22,0.31048
7242.44,0.31301
7236.65,0.31159
7230.87,0.31429
7225.08,0.30357
7219.29,0.30123
7213.51,0.30616
7207.72,0.31088
7201.93,0.30725
7196.15,0.30737
7190.36,0.30497
7184.58,0.31032
7178.79,0.30567
7173,0.30854
7167.22,0.31487
7161.43,0.30770
7155.65,0.30763
7149.86,0.30812
7144.07,0.30669
7138.29,0.29965
7132.5,0.31179
7126.71,0.30788
7120.93,0.30904
7115.14,0.31165
7109.36,0.31094
7103.57,0.31471
7097.78,0.30997
7092,0.30471
7086.21,0.31052
7080.42,0.30637
7074.64,0.30859
7068.85,0.30952
7063.07,0.30939
7057.28,0.30849
7051.49,0.30893
7045.71,0.31151
7039.92,0.31199
7034.13,0.31476
7028.35,0.31430
7022.56,0.31212
7016.78,0.31054
7010.99,0.30917
7005.2,0.30663
6999.42,0.31413
6993.63,0.31385
6987.84,0.30720
6982.06,0.31312
6976.27,0.31195
6970.49,0.31189
6964.7,0.30937
6958.91,0.31233
6953.13,0.30947
6947.34,0.31273
6941.55,0.30886
6935.77,0.30856
6929.98,0.31104
6924.2,0.31020
6918.41,0.31194
6912.62,0.31250
6906.84,0.31309
6901.05,0.31233
6895.26,0.31327
6889.48,0.31058
6883.69,0.30898
6877.91,0.31340
6872.12,0.30939
6866.33,0.30911
6860.55,0.30707
6854.76,0.30721
6848.97,0.31380
6843.19,0.31283
6837.4,0.31283
6831.62,0.31005
6825.83,0.30890
6820.04,0.31254
6814.26,0.31260
6808.47,0.31013
6802.68,0.31340
6796.9,0.30917
6791.11,0.31519
6785.33,0.31498
6779.54,0.31334
6773.75,0.31392
6767.97,0.31079
6762.18,0.31350
6756.39,0.31085
6750.61,0.30994
6744.82,0.31271
6739.04,0.31389
6733.25,0.31152
6727.46,0.30835
6721.68,0.31226
6715.89,0.30743
6710.1,0.30960
6704.32,0.30835
6698.53,0.31040
6692.75,0.30941
6686.96,0.31167
6681.17,0.31180
6675.39,0.30732
6669.6,0.31222
6663.82,0.31113
6658.03,0.31473
6652.24,0.31582
6646.46,0.31081
6640.67,0.30929
6634.88,0.31159
6629.1,0.31116
6623.31,0.30924
6617.53,0.30975
6611.74,0.30753
6605.95,0.30880
6600.17,0.30505
6594.38,0.31342
6588.59,0.31754
6582.81,0.31442
6577.02,0.31195
6571.24,0.31168
6565.45,0.31233
6559.66,0.31712
6553.88,0.31603
6548.09,0.31457
6542.3,0.31364
6536.52,0.30825
6530.73,0.31249
6524.95,0.30985
6519.16,0.31413
6513.37,0.31240
6507.59,0.30946
6501.8,0.31262
6496.01,0.30863
6490.23,0.31000
6484.44,0.30863
6478.66,0.31151
6472.87,0.31159
6467.08,0.31025
6461.3,0.30874
6455.51,0.31047
6449.72,0.31470
6443.94,0.31329
6438.15,0.31145
6432.37,0.31251
6426.58,0.31089
6420.79,0.31587
6415.01,0.30985
6409.22,0.31110
6403.43,0.30929
6397.65,0.31020
6391.86,0.30904
6386.08,0.31277
6380.29,0.30911
6374.5,0.31018
6368.72,0.31168
6362.93,0.30912
6357.14,0.31331
6351.36,0.31230
6345.57,0.31089
6339.79,0.30806
6334,0.30862
6328.21,0.30994
6322.43,0.30836
6316.64,0.30665
6310.85,0.30860
6305.07,0.31145
6299.28,0.31313
6293.5,0.31132
6287.71,0.31004
6281.92,0.30904
6276.14,0.31193
6270.35,0.31197
6264.56,0.31046
6258.78,0.31176
6252.99,0.31013
6247.21,0.31204
6241.42,0.30678
6235.63,0.30746
6229.85,0.30990
6224.06,0.31126
6218.27,0.30905
6212.49,0.30787
6206.7,0.30795
6200.92,0.30790
6195.13,0.30805
6189.34,0.30888
6183.56,0.30850
6177.77,0.30760
6171.98,0.30490
6166.2,0.30357
6160.41,0.30934
6154.63,0.30957
6148.84,0.30620
6143.05,0.30938
6137.27,0.30748
6131.48,0.30562
6125.7,0.31020
6119.91,0.30670
6114.12,0.30900
6108.34,0.30523
6102.55,0.31028
6096.76,0.30799
6090.98,0.30538
6085.19,0.30701
6079.41,0.30510
6073.62,0.30691
6067.83,0.30565
6062.05,0.30757
6056.26,0.30801
6050.47,0.30575
6044.69,0.30844
6038.9,0.30583
6033.12,0.30312
6027.33,0.30543
6021.54,0.30620
6015.76,0.30499
6009.97,0.30551
6004.18,0.30707
5998.4,0.30490
5992.61,0.30191
5986.83,0.30442
5981.04,0.30374
5975.25,0.30425
5969.47,0.30695
5963.68,0.30423
5957.89,0.30319
5952.11,0.30137
5946.32,0.29861
5940.54,0.29904
5934.75,0.29811
5928.96,0.29347
5923.18,0.28827
5917.39,0.28070
5911.6,0.27479
5905.82,0.27361
5900.03,0.27153
5894.25,0.27302
5888.46,0.27354
5882.67,0.27313
5876.89,0.27024
5871.1,0.26674
5865.31,0.25669
5859.53,0.25598
5853.74,0.25677
5847.96,0.26125
5842.17,0.26519
5836.38,0.26716
5830.6,0.26635
5824.81,0.26843
5819.02,0.26517
5813.24,0.26117
5807.45,0.26021
5801.67,0.25374
5795.88,0.25392
5790.09,0.25534
5784.31,0.25897
5778.52,0.25920
5772.73,0.26024
5766.95,0.25831
5761.16,0.25855
5755.38,0.25744
5749.59,0.26037
5743.8,0.26500
5738.02,0.26982
5732.23,0.27246
5726.44,0.27624
5720.66,0.27711
5714.87,0.27625
5709.09,0.27698
5703.3,0.27655
5697.51,0.27671
5691.73,0.27603
5685.94,0.27677
5680.15,0.27602
5674.37,0.27784
5668.58,0.27779
5662.8,0.27599
5657.01,0.27864
5651.22,0.28033
5645.44,0.28008
5639.65,0.27966
5633.87,0.27979
5628.08,0.28063
5622.29,0.28248
5616.51,0.28355
5610.72,0.28303
5604.93,0.28272
5599.15,0.28334
5593.36,0.28538
5587.58,0.28479
5581.79,0.28418
5576,0.28442
5570.22,0.28609
5564.43,0.28604
5558.64,0.28427
5552.86,0.28454
5547.07,0.28544
5541.29,0.28380
5535.5,0.28435
5529.71,0.28404
5523.93,0.28494
5518.14,0.28279
5512.35,0.28381
5506.57,0.28424
5500.78,0.28481
5495,0.28312
5489.21,0.28294
5483.42,0.28251
5477.64,0.28250
5471.85,0.28390
5466.06,0.28477
5460.28,0.28377
5454.49,0.28305
5448.71,0.28672
5442.92,0.28668
5437.13,0.28628
5431.35,0.28611
5425.56,0.28685
5419.77,0.28848
5413.99,0.28883
5408.2,0.28876
5402.42,0.29013
5396.63,0.29139
5390.84,0.29300
5385.06,0.29127
5379.27,0.29121
5373.48,0.29119
5367.7,0.29120
5361.91,0.29438
5356.13,0.29156
5350.34,0.29220
5344.55,0.29236
5338.77,0.29222
5332.98,0.29038
5327.19,0.29068
5321.41,0.28990
5315.62,0.29103
5309.84,0.29083
5304.05,0.29210
5298.26,0.29139
5292.48,0.29155
5286.69,0.29243
5280.9,0.29085
5275.12,0.29060
5269.33,0.29266
5263.55,0.29218
5257.76,0.29098
5251.97,0.29234
5246.19,0.29241
5240.4,0.29276
5234.61,0.29060
5228.83,0.29021
5223.04,0.29077
5217.26,0.28947
5211.47,0.29195
5205.68,0.29035
5199.9,0.29102
5194.11,0.29088
5188.32,0.29300
5182.54,0.29066
5176.75,0.29061
5170.97,0.29121
5165.18,0.29186
5159.39,0.29031
5153.61,0.29057
5147.82,0.29083
5142.03,0.29101
5136.25,0.29001
5130.46,0.29037
5124.68,0.29101
5118.89,0.29104
5113.1,0.29151
5107.32,0.28998
5101.53,0.29106
5095.75,0.29003
5089.96,0.29010
5084.17,0.29078
5078.39,0.29145
5072.6,0.29106
5066.81,0.29044
5061.03,0.28914
5055.24,0.29069
5049.46,0.28968
5043.67,0.28989
5037.88,0.29096
5032.1,0.29005
5026.31,0.29063
5020.52,0.29159
5014.74,0.29135
5008.95,0.29049
5003.17,0.29064
4997.38,0.29213
4991.59,0.29201
4985.81,0.29260
4980.02,0.29294
4974.23,0.29171
4968.45,0.29307
4962.66,0.29312
4956.88,0.29269
4951.09,0.29213
4945.3,0.29222
4939.52,0.29264
4933.73,0.29267
4927.94,0.29273
4922.16,0.29351
4916.37,0.29289
4910.59,0.29240
4904.8,0.29212
4899.01,0.29248
4893.23,0.29289
4887.44,0.29345
4881.65,0.29350
4875.87,0.29268
4870.08,0.29316
4864.3,0.29216
4858.51,0.29181
4852.72,0.29320
4846.94,0.29297
4841.15,0.29179
4835.36,0.29380
4829.58,0.29304
4823.79,0.29262
4818.01,0.29210
4812.22,0.29232
4806.43,0.29206
4800.65,0.29305
4794.86,0.29353
4789.07,0.29229
4783.29,0.29221
4777.5,0.29271
4771.72,0.29160
4765.93,0.29281
4760.14,0.29231
4754.36,0.29262
4748.57,0.29389
4742.78,0.29343
4737,0.29290
4731.21,0.29212
4725.43,0.29239
4719.64,0.29258
4713.85,0.29164
4708.07,0.29221
4702.28,0.29224
4696.49,0.29153
4690.71,0.29263
4684.92,0.29178
4679.14,0.29165
4673.35,0.29115
4667.56,0.29057
4661.78,0.29131
4655.99,0.29101
4650.2,0.29176
4644.42,0.28949
4638.63,0.28916
4632.85,0.28947
4627.06,0.29006
4621.27,0.28923
4615.49,0.28825
4609.7,0.28699
4603.92,0.28769
4598.13,0.28696
4592.34,0.28672
4586.56,0.28555
4580.77,0.28480
4574.98,0.28442
4569.2,0.28498
4563.41,0.28421
4557.63,0.28414
4551.84,0.28398
4546.05,0.28373
4540.27,0.28382
4534.48,0.28331
4528.69,0.28297
4522.91,0.28277
4517.12,0.28308
4511.34,0.28254
4505.55,0.28191
4499.76,0.28257
4493.98,0.28175
4488.19,0.28113
4482.4,0.28133
4476.62,0.28003
4470.83,0.27855
4465.05,0.27796
4459.26,0.27624
4453.47,0.27329
4447.69,0.27085
4441.9,0.26627
4436.11,0.26011
4430.33,0.25097
4424.54,0.24000
4418.76,0.22955
4412.97,0.21919
4407.18,0.20990
4401.4,0.19959
4395.61,0.18873
4389.82,0.18447
4384.04,0.19032
4378.25,0.19660
4372.47,0.20110
4366.68,0.20498
4360.89,0.20622
4355.11,0.20501
4349.32,0.19814
4343.53,0.18505
4337.75,0.16725
4331.96,0.15357
4326.18,0.14600
4320.39,0.14812
4314.6,0.14977
4308.82,0.15410
4303.03,0.16235
4297.24,0.17251
4291.46,0.17510
4285.67,0.17643
4279.89,0.17646
4274.1,0.17709
4268.31,0.17533
4262.53,0.17252
4256.74,0.16572
4250.95,0.15723
4245.17,0.15162
4239.38,0.15126
4233.6,0.15894
4227.81,0.16642
4222.02,0.16856
4216.24,0.16920
4210.45,0.17071
4204.66,0.17347
4198.88,0.17813
4193.09,0.18313
4187.31,0.18598
4181.52,0.18394
4175.73,0.18070
4169.95,0.17662
4164.16,0.17705
4158.37,0.18141
4152.59,0.18471
4146.8,0.18779
4141.02,0.19001
4135.23,0.19032
4129.44,0.18932
4123.66,0.18630
4117.87,0.18499
4112.09,0.18757
4106.3,0.19162
4100.51,0.19596
4094.73,0.19810
4088.94,0.19569
4083.15,0.19050
4077.37,0.18313
4071.58,0.17654
4065.8,0.16972
4060.01,0.16418
4054.22,0.16933
4048.44,0.18264
4042.65,0.19327
4036.86,0.19902
4031.08,0.20212
4025.29,0.20406
4019.51,0.20504
4013.72,0.20806
4007.93,0.21090
4002.15,0.21056
3996.36,0.20839
3990.57,0.20928
3984.79,0.21360
3979,0.21743
3973.22,0.22006
3967.43,0.22093
3961.64,0.22164
3955.86,0.22272
3950.07,0.22413
3944.28,0.22247
3938.5,0.22090
3932.71,0.22065
3926.93,0.22134
3921.14,0.22256
3915.35,0.22458
3909.57,0.22726
3903.78,0.22884
3897.99,0.22916
3892.21,0.22857
3886.42,0.22969
3880.64,0.22926
3874.85,0.23024
3869.06,0.23084
3863.28,0.23251
3857.49,0.23489
3851.7,0.23622
3845.92,0.23638
3840.13,0.23559
3834.35,0.23496
3828.56,0.23500
3822.77,0.23410
3816.99,0.23323
3811.2,0.23389
3805.41,0.23555
3799.63,0.23610
3793.84,0.23594
3788.06,0.23713
3782.27,0.23795
3776.48,0.23530
3770.7,0.23310
3764.91,0.23078
3759.12,0.23133
3753.34,0.23416
3747.55,0.23706
3741.77,0.23813
3735.98,0.23900
3730.19,0.24048
3724.41,0.24158
3718.62,0.24133
3712.83,0.24176
3707.05,0.24219
3701.26,0.24174
3695.48,0.24167
3689.69,0.24263
3683.9,0.24401
3678.12,0.24572
3672.33,0.24932
3666.54,0.25262
3660.76,0.25480
3654.97,0.25586
3649.19,0.25535
3643.4,0.25386
3637.61,0.25174
3631.83,0.25149
3626.04,0.25401
3620.25,0.25712
3614.47,0.25785
3608.68,0.25747
3602.9,0.25679
3597.11,0.25570
3591.32,0.25460
3585.54,0.25378
3579.75,0.25463
3573.97,0.25628
3568.18,0.25702
3562.39,0.25671
3556.61,0.25600
3550.82,0.25559
3545.03,0.25491
3539.25,0.25349
3533.46,0.25238
3527.68,0.25142
3521.89,0.25116
3516.1,0.25069
3510.32,0.25034
3504.53,0.24931
3498.74,0.24890
3492.96,0.24791
3487.17,0.24647
3481.39,0.24466
3475.6,0.24348
3469.81,0.24187
3464.03,0.23908
3458.24,0.23742
3452.45,0.23498
3446.67,0.23232
3440.88,0.22923
3435.1,0.22661
3429.31,0.22361
3423.52,0.22095
3417.74,0.21840
3411.95,0.21784
3406.16,0.21768
3400.38,0.22003
3394.59,0.22061
3388.81,0.22076
3383.02,0.21902
3377.23,0.21660
3371.45,0.21392
3365.66,0.21223
3359.87,0.21015
3354.09,0.20864
3348.3,0.20603
3342.52,0.20597
3336.73,0.20741
3330.94,0.20805
3325.16,0.20759
3319.37,0.20276
3313.58,0.19243
3307.8,0.17749
3302.01,0.16138
3296.23,0.16468
3290.44,0.17895
3284.65,0.19008
3278.87,0.19582
3273.08,0.19925
3267.29,0.20282
3261.51,0.20510
3255.72,0.20622
3249.94,0.20683
3244.15,0.20601
3238.36,0.20117
3232.58,0.19583
3226.79,0.18774
3221,0.17976
3215.22,0.17204
3209.43,0.16441
3203.65,0.15973
3197.86,0.15632
3192.07,0.15514
3186.29,0.15660
3180.5,0.15844
3174.71,0.16049
3168.93,0.16176
3163.14,0.16197
3157.36,0.16039
3151.57,0.15878
3145.78,0.15684
3140,0.15679
3134.21,0.15892
3128.42,0.16136
3122.64,0.16476
3116.85,0.16641
3111.07,0.16767
3105.28,0.16693
3099.49,0.16708
3093.71,0.16661
3087.92,0.16582
3082.14,0.16528
3076.35,0.16243
3070.56,0.16030
3064.78,0.15772
3058.99,0.15442
3053.2,0.15080
3047.42,0.14734
3041.63,0.14382
3035.85,0.13927
3030.06,0.13349
3024.27,0.12419
3018.49,0.11424
3012.7,0.10279
3006.91,0.09026
3001.13,0.07689
2995.34,0.06185
2989.56,0.04722
2983.77,0.03650
2977.98,0.02871
2972.2,0.02499
2966.41,0.02498
2960.62,0.02897
2954.84,0.03076
2949.05,0.03273
2943.27,0.03208
2937.48,0.03041
2931.69,0.02891
2925.91,0.02995
2920.12,0.03396
2914.33,0.03670
2908.55,0.03540
2902.76,0.03534
2896.98,0.03544
2891.19,0.03424
2885.4,0.03371
2879.62,0.03329
2873.83,0.03390
2868.04,0.03429
2862.26,0.03597
2856.47,0.03742
2850.69,0.03627
2844.9,0.03349
2839.11,0.03440
2833.33,0.03759
2827.54,0.04273
2821.75,0.04960
2815.97,0.05660
2810.18,0.06129
2804.4,0.06808
2798.61,0.07747
2792.82,0.08305
2787.04,0.09523
2781.25,0.10811
2775.46,0.11742
2769.68,0.12228
2763.89,0.12503
2758.11,0.12901
2752.32,0.13070
2746.53,0.12849
2740.75,0.12119
2734.96,0.11136
2729.17,0.10160
2723.39,0.09100
2717.6,0.09945
2711.82,0.11350
2706.03,0.12341
2700.24,0.13070
2694.46,0.13346
2688.67,0.13279
2682.88,0.13293
2677.1,0.13245
2671.31,0.13374
2665.53,0.13431
2659.74,0.13343
2653.95,0.13804
2648.17,0.14238
2642.38,0.14461
2636.59,0.14657
2630.81,0.14180
2625.02,0.13339
2619.24,0.12669
2613.45,0.12259
2607.66,0.12273
2601.88,0.12384
2596.09,0.12228
2590.3,0.11816
2584.52,0.11124
2578.73,0.11030
2572.95,0.11603
2567.16,0.12078
2561.37,0.12287
2555.59,0.12268
2549.8,0.12252
2544.02,0.12315
2538.23,0.11879
2532.44,0.10376
2526.66,0.09015
2520.87,0.08180
2515.08,0.07841
2509.3,0.07972
2503.51,0.09025
2497.73,0.10921
2491.94,0.13191
2486.15,0.14878
2480.37,0.16231
2474.58,0.17633
2468.79,0.18742
2463.01,0.19223
2457.22,0.19439
2451.44,0.19517
2445.65,0.19558
2439.86,0.19417
2434.08,0.18981
2428.29,0.18798
2422.5,0.19096
2416.72,0.19562
2410.93,0.19730
2405.15,0.19623
2399.36,0.19550
2393.57,0.19710
2387.79,0.20003
2382,0.20050
2376.21,0.20001
2370.43,0.19973
2364.64,0.19889
2358.86,0.19904
2353.07,0.20122
2347.28,0.20506
2341.5,0.20812
2335.71,0.20966
2329.92,0.21098
2324.14,0.21387
2318.35,0.21807
2312.57,0.21968
2306.78,0.22052
2300.99,0.22029
2295.21,0.22087
2289.42,0.22241
2283.63,0.22316
2277.85,0.22079
2272.06,0.21640
2266.28,0.21401
2260.49,0.21133
2254.7,0.20987
2248.92,0.21416
2243.13,0.21839
2237.34,0.21784
2231.56,0.21531
2225.77,0.21636
2219.99,0.21805
2214.2,0.21759
2208.41,0.21632
2202.63,0.21387
2196.84,0.21284
2191.05,0.21166
2185.27,0.21101
2179.48,0.21074
2173.7,0.20913
2167.91,0.20974
2162.12,0.21226
2156.34,0.21193
2150.55,0.21071
2144.76,0.20951
2138.98,0.20648
2133.19,0.20390
2127.41,0.20896
2121.62,0.22143
2115.83,0.23047
2110.05,0.23440
2104.26,0.23513
2098.47,0.23600
2092.69,0.23614
2086.9,0.23724
2081.12,0.24074
2075.33,0.24410
2069.54,0.24591
2063.76,0.24668
2057.97,0.24593
2052.19,0.24528
2046.4,0.24453
2040.61,0.24476
2034.83,0.24444
2029.04,0.24331
2023.25,0.24405
2017.47,0.24496
2011.68,0.24544
2005.9,0.24540
2000.11,0.24426
1994.32,0.24330
1988.54,0.24367
1982.75,0.24472
1976.96,0.24555
1971.18,0.24482
1965.39,0.24157
1959.61,0.23734
1953.82,0.24111
1948.03,0.24225
1942.25,0.24204
1936.46,0.24156
1930.67,0.24049
1924.89,0.23865
1919.1,0.23655
1913.32,0.23506
1907.53,0.23369
1901.74,0.23261
1895.96,0.22936
1890.17,0.22936
1884.38,0.23303
1878.6,0.23404
1872.81,0.23364
1867.03,0.23233
1861.24,0.23008
1855.45,0.22732
1849.67,0.22501
1843.88,0.22220
1838.09,0.21783
1832.31,0.21322
1826.52,0.21085
1820.74,0.20762
1814.95,0.19939
1809.16,0.18011
1803.38,0.12514
1797.59,0.07223
1791.8,0.07801
1786.02,0.13443
1780.23,0.17017
1774.45,0.18132
1768.66,0.18147
1762.87,0.17537
1757.09,0.16761
1751.3,0.15993
1745.51,0.15098
1739.73,0.13833
1733.94,0.13991
1728.16,0.14263
1722.37,0.15896
1716.58,0.16373
1710.8,0.16457
1705.01,0.16489
1699.22,0.16557
1693.44,0.16478
1687.65,0.16541
1681.87,0.16535
1676.08,0.16594
1670.29,0.16661
1664.51,0.16555
1658.72,0.16168
1652.93,0.15412
1647.15,0.14227
1641.36,0.12249
1635.58,0.12833
1629.79,0.14370
1624,0.14894
1618.22,0.14973
1612.43,0.14985
1606.64,0.15033
1600.86,0.14984
1595.07,0.14739
1589.29,0.13952
1583.5,0.13828
1577.71,0.14324
1571.93,0.14773
1566.14,0.14624
1560.35,0.14323
1554.57,0.14112
1548.78,0.14112
1543,0.13635
1537.21,0.12930
1531.42,0.12280
1525.64,0.11520
1519.85,0.10714
1514.07,0.09814
1508.28,0.09095
1502.49,0.08237
1496.71,0.07457
1490.92,0.06628
1485.13,0.05891
1479.35,0.05255
1473.56,0.04664
1467.78,0.04135
1461.99,0.03966
1456.2,0.04019
1450.42,0.04174
1444.63,0.04407
1438.84,0.04539
1433.06,0.04717
1427.27,0.05031
1421.49,0.05332
1415.7,0.05789
1409.91,0.06098
1404.13,0.05889
1398.34,0.05671
1392.55,0.05844
1386.77,0.05675
1380.98,0.04610
1375.2,0.04483
1369.41,0.05785
1363.62,0.06498
1357.84,0.06490
1352.05,0.08108
1346.26,0.09539
1340.48,0.10560
1334.69,0.10860
1328.91,0.10585
1323.12,0.11435
1317.33,0.12257
1311.55,0.12706
1305.76,0.11108
1299.97,0.12052
1294.19,0.13199
1288.4,0.14669
1282.62,0.15502
1276.83,0.16282
1271.04,0.16359
1265.26,0.15663
1259.47,0.13983
1253.68,0.13005
1247.9,0.15868
1242.11,0.16722
1236.33,0.17170
1230.54,0.17332
1224.75,0.16756
1218.97,0.15929
1213.18,0.16962
1207.39,0.17603
1201.61,0.17472
1195.82,0.16915
1190.04,0.16415
1184.25,0.15160
1178.46,0.12931
1172.68,0.08822
1166.89,0.06018
1161.1,0.07876
1155.32,0.09654
1149.53,0.11482
1143.75,0.15065
1137.96,0.18671
1132.17,0.20758
1126.39,0.21353
1120.6,0.21104
1114.81,0.20007
1109.03,0.18447
1103.24,0.15861
1097.46,0.17891
1091.67,0.20234
1085.88,0.20811
1080.1,0.21501
1074.31,0.21639
1068.52,0.21401
1062.74,0.21188
1056.95,0.20840
1051.17,0.19660
1045.38,0.17250
1039.59,0.18282
1033.81,0.19059
1028.02,0.19024
1022.24,0.18360
1016.45,0.17326
1010.66,0.15535
1004.88,0.11869
999.09,0.06708
993.304,0.09360
987.518,0.14019
981.731,0.12755
975.945,0.07189
970.159,0.07562
964.373,0.14231
958.586,0.17796
952.8,0.19437
947.014,0.19588
941.228,0.18195
935.441,0.20225
929.655,0.22222
923.869,0.22948
918.083,0.23060
912.297,0.22334
906.51,0.20036
900.724,0.14164
894.938,0.16530
889.152,0.18102
883.365,0.08526
877.579,0.04744
871.793,0.06234
866.007,0.12637
860.22,0.16622
854.434,0.17059
848.648,0.12309
842.862,0.08633
837.075,0.11777
831.289,0.16946
825.503,0.18775
819.717,0.18871
813.931,0.15716
808.144,0.12714
802.358,0.16743
796.572,0.19194
790.786,0.20564
784.999,0.21811
779.213,0.22697
773.427,0.23151
767.641,0.23707
761.854,0.24230
756.068,0.24556
750.282,0.24458
744.496,0.24184
738.709,0.23571
732.923,0.22704
727.137,0.20904
721.351,0.16823
715.565,0.07868
709.778,0.09046
703.992,0.18789
698.206,0.22347
692.42,0.23653
686.633,0.24259
680.847,0.24310
675.061,0.24470
669.275,0.24501
663.488,0.24303
657.702,0.24142
651.916,0.23907
646.13,0.23564
640.343,0.23395
634.557,0.23216
628.771,0.22723
622.985,0.22398
617.198,0.22175
611.412,0.21609
605.626,0.21312
599.84,0.20662