File: 01_Data/Polyester_Bed_Skirt/FTIR/IS/Polyester_Bed_Skirt_IS_S_220822_R2.dpt
7497.03,0.31435
7491.25,0.31412
7485.46,0.32035
7479.67,0.31387
7473.89,0.31522
7468.1,0.32304
7462.32,0.31962
7456.53,0.31415
7450.74,0.32030
7444.96,0.31342
7439.17,0.31340
7433.38,0.31800
7427.6,0.32572
7421.81,0.32198
7416.03,0.31486
7410.24,0.31608
7404.45,0.31393
7398.67,0.30667
7392.88,0.31301
7387.09,0.30560
7381.31,0.31760
7375.52,0.31973
7369.74,0.31523
7363.95,0.31302
7358.16,0.31612
7352.38,0.31191
7346.59,0.31202
7340.8,0.31288
7335.02,0.31733
7329.23,0.31200
7323.45,0.31460
7317.66,0.31720
7311.87,0.31114
7306.09,0.30856
7300.3,0.32012
7294.51,0.30662
7288.73,0.31457
7282.94,0.31506
7277.16,0.31050
7271.37,0.30613
7265.58,0.31021
7259.8,0.31291
7254.01,0.31089
7248.22,0.31076
7242.44,0.31359
7236.65,0.31669
7230.87,0.31208
7225.08,0.31329
7219.29,0.30183
7213.51,0.31099
7207.72,0.30718
7201.93,0.30568
7196.15,0.30748
7190.36,0.30026
7184.58,0.31236
7178.79,0.30894
7173,0.30891
7167.22,0.30581
7161.43,0.30327
7155.65,0.31250
7149.86,0.31067
7144.07,0.30642
7138.29,0.31225
7132.5,0.31024
7126.71,0.30590
7120.93,0.31028
7115.14,0.31318
7109.36,0.30989
7103.57,0.30288
7097.78,0.31251
7092,0.30901
7086.21,0.31750
7080.42,0.31937
7074.64,0.30590
7068.85,0.30581
7063.07,0.30906
7057.28,0.31568
7051.49,0.31751
7045.71,0.31115
7039.92,0.31148
7034.13,0.31169
7028.35,0.31164
7022.56,0.31731
7016.78,0.31047
7010.99,0.31370
7005.2,0.31134
6999.42,0.30639
6993.63,0.30560
6987.84,0.31320
6982.06,0.31151
6976.27,0.31108
6970.49,0.30521
6964.7,0.31121
6958.91,0.30833
6953.13,0.30997
6947.34,0.31116
6941.55,0.31652
6935.77,0.31036
6929.98,0.31620
6924.2,0.31406
6918.41,0.30696
6912.62,0.31033
6906.84,0.31386
6901.05,0.31060
6895.26,0.31359
6889.48,0.31233
6883.69,0.30987
6877.91,0.31126
6872.12,0.31243
6866.33,0.31250
6860.55,0.31059
6854.76,0.31290
6848.97,0.30969
6843.19,0.31156
6837.4,0.31435
6831.62,0.30836
6825.83,0.31209
6820.04,0.30825
6814.26,0.31472
6808.47,0.30636
6802.68,0.31201
6796.9,0.31865
6791.11,0.31542
6785.33,0.30784
6779.54,0.31403
6773.75,0.31178
6767.97,0.31468
6762.18,0.30596
6756.39,0.31732
6750.61,0.31411
6744.82,0.31313
6739.04,0.31357
6733.25,0.31051
6727.46,0.31147
6721.68,0.31374
6715.89,0.31209
6710.1,0.30654
6704.32,0.30810
6698.53,0.31253
6692.75,0.31409
6686.96,0.30902
6681.17,0.31079
6675.39,0.30487
6669.6,0.31109
6663.82,0.31244
6658.03,0.31193
6652.24,0.31250
6646.46,0.31286
6640.67,0.31748
6634.88,0.31264
6629.1,0.31017
6623.31,0.30822
6617.53,0.31021
6611.74,0.31122
6605.95,0.31003
6600.17,0.30954
6594.38,0.30873
6588.59,0.30727
6582.81,0.31337
6577.02,0.31406
6571.24,0.30922
6565.45,0.31254
6559.66,0.31625
6553.88,0.31174
6548.09,0.31265
6542.3,0.31127
6536.52,0.30955
6530.73,0.31379
6524.95,0.31099
6519.16,0.31386
6513.37,0.31079
6507.59,0.30795
6501.8,0.31367
6496.01,0.31227
6490.23,0.31178
6484.44,0.31546
6478.66,0.31131
6472.87,0.31395
6467.08,0.31468
6461.3,0.31254
6455.51,0.31078
6449.72,0.31066
6443.94,0.31325
6438.15,0.31428
6432.37,0.30929
6426.58,0.31226
6420.79,0.31129
6415.01,0.31186
6409.22,0.31253
6403.43,0.31464
6397.65,0.31012
6391.86,0.31005
6386.08,0.31367
6380.29,0.31165
6374.5,0.31067
6368.72,0.31194
6362.93,0.31272
6357.14,0.31346
6351.36,0.30796
6345.57,0.30633
6339.79,0.31276
6334,0.31234
6328.21,0.31051
6322.43,0.31042
6316.64,0.31148
6310.85,0.31072
6305.07,0.31029
6299.28,0.31254
6293.5,0.31124
6287.71,0.31019
6281.92,0.30841
6276.14,0.30690
6270.35,0.30689
6264.56,0.31051
6258.78,0.30732
6252.99,0.30983
6247.21,0.30689
6241.42,0.30702
6235.63,0.31061
6229.85,0.30872
6224.06,0.30750
6218.27,0.30830
6212.49,0.30968
6206.7,0.30976
6200.92,0.30810
6195.13,0.31027
6189.34,0.31346
6183.56,0.30975
6177.77,0.30755
6171.98,0.30745
6166.2,0.30791
6160.41,0.30636
6154.63,0.30837
6148.84,0.30673
6143.05,0.30642
6137.27,0.30834
6131.48,0.30657
6125.7,0.30665
6119.91,0.30866
6114.12,0.30487
6108.34,0.30760
6102.55,0.30697
6096.76,0.30672
6090.98,0.30643
6085.19,0.30760
6079.41,0.30693
6073.62,0.30479
6067.83,0.30824
6062.05,0.30469
6056.26,0.30303
6050.47,0.30735
6044.69,0.30548
6038.9,0.30433
6033.12,0.30609
6027.33,0.30187
6021.54,0.30242
6015.76,0.30648
6009.97,0.30557
6004.18,0.30726
5998.4,0.30525
5992.61,0.30472
5986.83,0.30554
5981.04,0.30339
5975.25,0.30663
5969.47,0.30360
5963.68,0.30218
5957.89,0.30329
5952.11,0.30211
5946.32,0.30346
5940.54,0.29914
5934.75,0.29777
5928.96,0.29474
5923.18,0.28855
5917.39,0.28260
5911.6,0.27364
5905.82,0.27297
5900.03,0.27458
5894.25,0.27331
5888.46,0.27124
5882.67,0.27044
5876.89,0.26778
5871.1,0.26319
5865.31,0.25958
5859.53,0.25742
5853.74,0.25591
5847.96,0.25953
5842.17,0.26215
5836.38,0.26421
5830.6,0.26656
5824.81,0.26618
5819.02,0.26510
5813.24,0.26127
5807.45,0.25938
5801.67,0.25509
5795.88,0.25498
5790.09,0.25789
5784.31,0.25905
5778.52,0.25959
5772.73,0.25803
5766.95,0.25800
5761.16,0.25907
5755.38,0.25888
5749.59,0.26127
5743.8,0.26568
5738.02,0.27156
5732.23,0.27323
5726.44,0.27443
5720.66,0.27526
5714.87,0.27643
5709.09,0.27759
5703.3,0.27414
5697.51,0.27756
5691.73,0.27775
5685.94,0.27838
5680.15,0.27748
5674.37,0.28034
5668.58,0.27803
5662.8,0.27855
5657.01,0.27747
5651.22,0.27864
5645.44,0.27929
5639.65,0.27939
5633.87,0.28162
5628.08,0.28122
5622.29,0.28030
5616.51,0.28082
5610.72,0.28224
5604.93,0.28302
5599.15,0.28482
5593.36,0.28388
5587.58,0.28479
5581.79,0.28520
5576,0.28447
5570.22,0.28658
5564.43,0.28407
5558.64,0.28513
5552.86,0.28577
5547.07,0.28486
5541.29,0.28608
5535.5,0.28501
5529.71,0.28264
5523.93,0.28368
5518.14,0.28360
5512.35,0.28353
5506.57,0.28237
5500.78,0.28437
5495,0.28311
5489.21,0.28275
5483.42,0.28385
5477.64,0.28329
5471.85,0.28534
5466.06,0.28289
5460.28,0.28420
5454.49,0.28492
5448.71,0.28562
5442.92,0.28548
5437.13,0.28457
5431.35,0.28655
5425.56,0.28784
5419.77,0.28720
5413.99,0.28783
5408.2,0.28907
5402.42,0.29094
5396.63,0.29027
5390.84,0.29160
5385.06,0.29035
5379.27,0.29086
5373.48,0.29201
5367.7,0.29220
5361.91,0.29280
5356.13,0.29241
5350.34,0.29001
5344.55,0.29213
5338.77,0.29343
5332.98,0.29246
5327.19,0.29194
5321.41,0.29014
5315.62,0.29181
5309.84,0.29200
5304.05,0.28971
5298.26,0.29096
5292.48,0.29091
5286.69,0.29184
5280.9,0.29106
5275.12,0.29055
5269.33,0.29082
5263.55,0.29129
5257.76,0.29218
5251.97,0.29087
5246.19,0.29254
5240.4,0.29122
5234.61,0.29158
5228.83,0.29192
5223.04,0.29115
5217.26,0.29055
5211.47,0.29096
5205.68,0.29121
5199.9,0.29135
5194.11,0.29038
5188.32,0.29171
5182.54,0.29135
5176.75,0.29151
5170.97,0.29103
5165.18,0.29138
5159.39,0.29122
5153.61,0.29096
5147.82,0.29060
5142.03,0.29048
5136.25,0.29211
5130.46,0.29181
5124.68,0.29094
5118.89,0.29174
5113.1,0.28976
5107.32,0.28988
5101.53,0.29071
5095.75,0.29102
5089.96,0.28978
5084.17,0.28930
5078.39,0.29012
5072.6,0.28993
5066.81,0.29031
5061.03,0.28880
5055.24,0.28860
5049.46,0.29029
5043.67,0.29033
5037.88,0.28955
5032.1,0.29093
5026.31,0.28992
5020.52,0.29115
5014.74,0.29042
5008.95,0.29092
5003.17,0.29171
4997.38,0.29169
4991.59,0.29232
4985.81,0.29195
4980.02,0.29112
4974.23,0.29222
4968.45,0.29187
4962.66,0.29178
4956.88,0.29207
4951.09,0.29314
4945.3,0.29315
4939.52,0.29400
4933.73,0.29329
4927.94,0.29318
4922.16,0.29266
4916.37,0.29371
4910.59,0.29328
4904.8,0.29329
4899.01,0.29247
4893.23,0.29297
4887.44,0.29301
4881.65,0.29318
4875.87,0.29373
4870.08,0.29281
4864.3,0.29361
4858.51,0.29293
4852.72,0.29235
4846.94,0.29226
4841.15,0.29157
4835.36,0.29214
4829.58,0.29459
4823.79,0.29171
4818.01,0.29210
4812.22,0.29082
4806.43,0.29138
4800.65,0.29202
4794.86,0.29293
4789.07,0.29183
4783.29,0.29206
4777.5,0.29286
4771.72,0.29238
4765.93,0.29158
4760.14,0.29259
4754.36,0.29191
4748.57,0.29236
4742.78,0.29214
4737,0.29174
4731.21,0.29273
4725.43,0.29174
4719.64,0.29271
4713.85,0.29282
4708.07,0.29263
4702.28,0.29161
4696.49,0.29227
4690.71,0.29073
4684.92,0.29191
4679.14,0.29206
4673.35,0.29113
4667.56,0.29030
4661.78,0.29029
4655.99,0.29064
4650.2,0.29033
4644.42,0.28932
4638.63,0.28999
4632.85,0.29028
4627.06,0.28845
4621.27,0.28863
4615.49,0.28818
4609.7,0.28800
4603.92,0.28739
4598.13,0.28640
4592.34,0.28628
4586.56,0.28605
4580.77,0.28556
4574.98,0.28449
4569.2,0.28421
4563.41,0.28391
4557.63,0.28365
4551.84,0.28430
4546.05,0.28369
4540.27,0.28381
4534.48,0.28344
4528.69,0.28347
4522.91,0.28311
4517.12,0.28376
4511.34,0.28297
4505.55,0.28224
4499.76,0.28144
4493.98,0.28223
4488.19,0.28135
4482.4,0.28144
4476.62,0.27962
4470.83,0.27874
4465.05,0.27668
4459.26,0.27583
4453.47,0.27372
4447.69,0.27026
4441.9,0.26511
4436.11,0.25897
4430.33,0.24975
4424.54,0.23964
4418.76,0.22873
4412.97,0.21822
4407.18,0.20731
4401.4,0.19890
4395.61,0.18811
4389.82,0.18408
4384.04,0.19135
4378.25,0.19774
4372.47,0.20184
4366.68,0.20429
4360.89,0.20573
4355.11,0.20456
4349.32,0.19857
4343.53,0.18498
4337.75,0.16805
4331.96,0.15292
4326.18,0.14642
4320.39,0.14753
4314.6,0.14978
4308.82,0.15356
4303.03,0.16240
4297.24,0.17166
4291.46,0.17580
4285.67,0.17532
4279.89,0.17592
4274.1,0.17643
4268.31,0.17549
4262.53,0.17128
4256.74,0.16568
4250.95,0.15762
4245.17,0.15191
4239.38,0.15111
4233.6,0.15933
4227.81,0.16692
4222.02,0.16854
4216.24,0.16893
4210.45,0.17114
4204.66,0.17363
4198.88,0.17803
4193.09,0.18375
4187.31,0.18602
4181.52,0.18409
4175.73,0.17988
4169.95,0.17596
4164.16,0.17698
4158.37,0.18117
4152.59,0.18434
4146.8,0.18738
4141.02,0.18964
4135.23,0.19040
4129.44,0.18846
4123.66,0.18575
4117.87,0.18524
4112.09,0.18698
4106.3,0.19071
4100.51,0.19617
4094.73,0.19790
4088.94,0.19574
4083.15,0.19004
4077.37,0.18398
4071.58,0.17675
4065.8,0.16875
4060.01,0.16348
4054.22,0.16935
4048.44,0.18220
4042.65,0.19297
4036.86,0.19841
4031.08,0.20190
4025.29,0.20332
4019.51,0.20540
4013.72,0.20879
4007.93,0.21097
4002.15,0.21123
3996.36,0.20906
3990.57,0.20951
3984.79,0.21339
3979,0.21783
3973.22,0.21998
3967.43,0.22088
3961.64,0.22176
3955.86,0.22346
3950.07,0.22360
3944.28,0.22216
3938.5,0.22110
3932.71,0.22050
3926.93,0.22159
3921.14,0.22135
3915.35,0.22424
3909.57,0.22684
3903.78,0.22882
3897.99,0.22840
3892.21,0.22849
3886.42,0.22873
3880.64,0.22962
3874.85,0.23010
3869.06,0.23146
3863.28,0.23200
3857.49,0.23496
3851.7,0.23618
3845.92,0.23644
3840.13,0.23603
3834.35,0.23526
3828.56,0.23532
3822.77,0.23378
3816.99,0.23406
3811.2,0.23356
3805.41,0.23469
3799.63,0.23591
3793.84,0.23593
3788.06,0.23746
3782.27,0.23773
3776.48,0.23627
3770.7,0.23341
3764.91,0.23071
3759.12,0.23141
3753.34,0.23418
3747.55,0.23682
3741.77,0.23799
3735.98,0.23944
3730.19,0.24071
3724.41,0.24078
3718.62,0.24162
3712.83,0.24201
3707.05,0.24223
3701.26,0.24160
3695.48,0.24168
3689.69,0.24245
3683.9,0.24380
3678.12,0.24602
3672.33,0.24873
3666.54,0.25255
3660.76,0.25445
3654.97,0.25623
3649.19,0.25542
3643.4,0.25371
3637.61,0.25091
3631.83,0.25146
3626.04,0.25520
3620.25,0.25714
3614.47,0.25740
3608.68,0.25748
3602.9,0.25672
3597.11,0.25546
3591.32,0.25403
3585.54,0.25371
3579.75,0.25486
3573.97,0.25543
3568.18,0.25592
3562.39,0.25617
3556.61,0.25590
3550.82,0.25527
3545.03,0.25500
3539.25,0.25362
3533.46,0.25254
3527.68,0.25212
3521.89,0.25105
3516.1,0.25006
3510.32,0.25036
3504.53,0.24904
3498.74,0.24794
3492.96,0.24697
3487.17,0.24594
3481.39,0.24530
3475.6,0.24307
3469.81,0.24172
3464.03,0.23916
3458.24,0.23686
3452.45,0.23424
3446.67,0.23178
3440.88,0.22889
3435.1,0.22657
3429.31,0.22386
3423.52,0.22076
3417.74,0.21894
3411.95,0.21731
3406.16,0.21742
3400.38,0.21965
3394.59,0.22148
3388.81,0.22085
3383.02,0.21929
3377.23,0.21657
3371.45,0.21401
3365.66,0.21174
3359.87,0.21029
3354.09,0.20787
3348.3,0.20585
3342.52,0.20469
3336.73,0.20653
3330.94,0.20762
3325.16,0.20721
3319.37,0.20255
3313.58,0.19211
3307.8,0.17655
3302.01,0.16160
3296.23,0.16420
3290.44,0.17917
3284.65,0.18932
3278.87,0.19590
3273.08,0.19922
3267.29,0.20187
3261.51,0.20468
3255.72,0.20582
3249.94,0.20625
3244.15,0.20523
3238.36,0.20126
3232.58,0.19552
3226.79,0.18774
3221,0.17969
3215.22,0.17126
3209.43,0.16429
3203.65,0.15966
3197.86,0.15703
3192.07,0.15597
3186.29,0.15668
3180.5,0.15821
3174.71,0.16053
3168.93,0.16214
3163.14,0.16178
3157.36,0.16082
3151.57,0.15891
3145.78,0.15652
3140,0.15628
3134.21,0.15850
3128.42,0.16153
3122.64,0.16478
3116.85,0.16657
3111.07,0.16776
3105.28,0.16824
3099.49,0.16745
3093.71,0.16686
3087.92,0.16658
3082.14,0.16448
3076.35,0.16290
3070.56,0.16024
3064.78,0.15754
3058.99,0.15413
3053.2,0.15071
3047.42,0.14723
3041.63,0.14388
3035.85,0.13920
3030.06,0.13266
3024.27,0.12386
3018.49,0.11385
3012.7,0.10258
3006.91,0.09022
3001.13,0.07668
2995.34,0.06229
2989.56,0.04725
2983.77,0.03623
2977.98,0.02877
2972.2,0.02510
2966.41,0.02497
2960.62,0.02931
2954.84,0.03045
2949.05,0.03272
2943.27,0.03204
2937.48,0.03014
2931.69,0.02930
2925.91,0.03001
2920.12,0.03359
2914.33,0.03705
2908.55,0.03584
2902.76,0.03514
2896.98,0.03491
2891.19,0.03440
2885.4,0.03363
2879.62,0.03370
2873.83,0.03396
2868.04,0.03369
2862.26,0.03621
2856.47,0.03716
2850.69,0.03599
2844.9,0.03386
2839.11,0.03461
2833.33,0.03735
2827.54,0.04217
2821.75,0.04953
2815.97,0.05609
2810.18,0.06129
2804.4,0.06834
2798.61,0.07699
2792.82,0.08252
2787.04,0.09514
2781.25,0.10820
2775.46,0.11740
2769.68,0.12235
2763.89,0.12540
2758.11,0.12900
2752.32,0.13053
2746.53,0.12834
2740.75,0.12079
2734.96,0.11143
2729.17,0.10215
2723.39,0.09117
2717.6,0.09945
2711.82,0.11362
2706.03,0.12325
2700.24,0.13076
2694.46,0.13360
2688.67,0.13264
2682.88,0.13259
2677.1,0.13208
2671.31,0.13377
2665.53,0.13429
2659.74,0.13350
2653.95,0.13744
2648.17,0.14257
2642.38,0.14472
2636.59,0.14631
2630.81,0.14150
2625.02,0.13360
2619.24,0.12690
2613.45,0.12266
2607.66,0.12277
2601.88,0.12364
2596.09,0.12275
2590.3,0.11771
2584.52,0.11134
2578.73,0.11073
2572.95,0.11616
2567.16,0.12100
2561.37,0.12259
2555.59,0.12274
2549.8,0.12299
2544.02,0.12283
2538.23,0.11849
2532.44,0.10315
2526.66,0.09021
2520.87,0.08204
2515.08,0.07904
2509.3,0.07951
2503.51,0.09014
2497.73,0.10892
2491.94,0.13217
2486.15,0.14924
2480.37,0.16217
2474.58,0.17625
2468.79,0.18763
2463.01,0.19267
2457.22,0.19394
2451.44,0.19539
2445.65,0.19527
2439.86,0.19384
2434.08,0.18959
2428.29,0.18764
2422.5,0.19102
2416.72,0.19554
2410.93,0.19689
2405.15,0.19626
2399.36,0.19548
2393.57,0.19725
2387.79,0.19990
2382,0.20077
2376.21,0.20015
2370.43,0.19994
2364.64,0.19875
2358.86,0.19894
2353.07,0.20086
2347.28,0.20437
2341.5,0.20847
2335.71,0.20935
2329.92,0.21098
2324.14,0.21409
2318.35,0.21743
2312.57,0.21967
2306.78,0.22008
2300.99,0.22032
2295.21,0.22073
2289.42,0.22218
2283.63,0.22296
2277.85,0.22113
2272.06,0.21610
2266.28,0.21351
2260.49,0.21155
2254.7,0.20957
2248.92,0.21419
2243.13,0.21814
2237.34,0.21841
2231.56,0.21527
2225.77,0.21589
2219.99,0.21769
2214.2,0.21741
2208.41,0.21631
2202.63,0.21381
2196.84,0.21269
2191.05,0.21177
2185.27,0.21126
2179.48,0.21034
2173.7,0.20956
2167.91,0.20968
2162.12,0.21198
2156.34,0.21143
2150.55,0.21046
2144.76,0.20899
2138.98,0.20623
2133.19,0.20398
2127.41,0.20905
2121.62,0.22129
2115.83,0.23071
2110.05,0.23427
2104.26,0.23553
2098.47,0.23621
2092.69,0.23645
2086.9,0.23686
2081.12,0.24063
2075.33,0.24381
2069.54,0.24569
2063.76,0.24663
2057.97,0.24567
2052.19,0.24477
2046.4,0.24438
2040.61,0.24440
2034.83,0.24366
2029.04,0.24330
2023.25,0.24408
2017.47,0.24470
2011.68,0.24480
2005.9,0.24511
2000.11,0.24421
1994.32,0.24313
1988.54,0.24360
1982.75,0.24456
1976.96,0.24529
1971.18,0.24480
1965.39,0.24174
1959.61,0.23757
1953.82,0.24093
1948.03,0.24238
1942.25,0.24203
1936.46,0.24168
1930.67,0.24030
1924.89,0.23797
1919.1,0.23605
1913.32,0.23458
1907.53,0.23410
1901.74,0.23256
1895.96,0.22917
1890.17,0.22882
1884.38,0.23240
1878.6,0.23387
1872.81,0.23363
1867.03,0.23216
1861.24,0.22998
1855.45,0.22706
1849.67,0.22476
1843.88,0.22208
1838.09,0.21728
1832.31,0.21331
1826.52,0.21074
1820.74,0.20743
1814.95,0.19916
1809.16,0.17976
1803.38,0.12517
1797.59,0.07157
1791.8,0.07804
1786.02,0.13448
1780.23,0.17039
1774.45,0.18139
1768.66,0.18153
1762.87,0.17535
1757.09,0.16718
1751.3,0.15991
1745.51,0.15108
1739.73,0.13845
1733.94,0.13946
1728.16,0.14277
1722.37,0.15920
1716.58,0.16378
1710.8,0.16432
1705.01,0.16512
1699.22,0.16512
1693.44,0.16516
1687.65,0.16514
1681.87,0.16547
1676.08,0.16585
1670.29,0.16689
1664.51,0.16581
1658.72,0.16144
1652.93,0.15421
1647.15,0.14191
1641.36,0.12275
1635.58,0.12842
1629.79,0.14373
1624,0.14844
1618.22,0.14963
1612.43,0.14929
1606.64,0.15050
1600.86,0.15017
1595.07,0.14754
1589.29,0.13966
1583.5,0.13797
1577.71,0.14305
1571.93,0.14752
1566.14,0.14566
1560.35,0.14350
1554.57,0.14089
1548.78,0.14127
1543,0.13599
1537.21,0.12947
1531.42,0.12236
1525.64,0.11514
1519.85,0.10694
1514.07,0.09850
1508.28,0.09107
1502.49,0.08214
1496.71,0.07452
1490.92,0.06647
1485.13,0.05882
1479.35,0.05235
1473.56,0.04686
1467.78,0.04144
1461.99,0.03939
1456.2,0.04004
1450.42,0.04135
1444.63,0.04377
1438.84,0.04526
1433.06,0.04767
1427.27,0.05022
1421.49,0.05365
1415.7,0.05773
1409.91,0.06102
1404.13,0.05852
1398.34,0.05681
1392.55,0.05804
1386.77,0.05672
1380.98,0.04649
1375.2,0.04493
1369.41,0.05805
1363.62,0.06493
1357.84,0.06458
1352.05,0.08075
1346.26,0.09525
1340.48,0.10574
1334.69,0.10915
1328.91,0.10577
1323.12,0.11430
1317.33,0.12288
1311.55,0.12747
1305.76,0.11129
1299.97,0.12061
1294.19,0.13189
1288.4,0.14690
1282.62,0.15476
1276.83,0.16279
1271.04,0.16405
1265.26,0.15655
1259.47,0.13973
1253.68,0.13028
1247.9,0.15824
1242.11,0.16683
1236.33,0.17212
1230.54,0.17382
1224.75,0.16766
1218.97,0.15900
1213.18,0.16988
1207.39,0.17527
1201.61,0.17375
1195.82,0.16910
1190.04,0.16403
1184.25,0.15154
1178.46,0.12956
1172.68,0.08846
1166.89,0.06001
1161.1,0.07859
1155.32,0.09666
1149.53,0.11503
1143.75,0.15121
1137.96,0.18732
1132.17,0.20772
1126.39,0.21421
1120.6,0.21056
1114.81,0.20014
1109.03,0.18383
1103.24,0.15882
1097.46,0.17925
1091.67,0.20175
1085.88,0.20829
1080.1,0.21556
1074.31,0.21697
1068.52,0.21414
1062.74,0.21233
1056.95,0.20774
1051.17,0.19650
1045.38,0.17227
1039.59,0.18245
1033.81,0.19076
1028.02,0.18987
1022.24,0.18389
1016.45,0.17273
1010.66,0.15646
1004.88,0.11996
999.09,0.06740
993.304,0.09330
987.518,0.14013
981.731,0.12754
975.945,0.07237
970.159,0.07586
964.373,0.14270
958.586,0.17833
952.8,0.19420
947.014,0.19554
941.228,0.18164
935.441,0.20184
929.655,0.22171
923.869,0.22917
918.083,0.23012
912.297,0.22267
906.51,0.20032
900.724,0.14176
894.938,0.16541
889.152,0.18065
883.365,0.08529
877.579,0.04807
871.793,0.06300
866.007,0.12650
860.22,0.16715
854.434,0.16975
848.648,0.12279
842.862,0.08574
837.075,0.11786
831.289,0.16917
825.503,0.18784
819.717,0.18776
813.931,0.15680
808.144,0.12724
802.358,0.16806
796.572,0.19233
790.786,0.20658
784.999,0.21877
779.213,0.22686
773.427,0.23296
767.641,0.23750
761.854,0.24208
756.068,0.24569
750.282,0.24471
744.496,0.24052
738.709,0.23579
732.923,0.22829
727.137,0.20929
721.351,0.16685
715.565,0.07795
709.778,0.09028
703.992,0.18715
698.206,0.22317
692.42,0.23668
686.633,0.24317
680.847,0.24407
675.061,0.24393
669.275,0.24527
663.488,0.24235
657.702,0.24136
651.916,0.23885
646.13,0.23789
640.343,0.23322
634.557,0.23025
628.771,0.22516
622.985,0.22551
617.198,0.22191
611.412,0.21880
605.626,0.21474
599.84,0.20519