File: 01_Data/Polyester_Bed_Skirt/FTIR/IS/Polyester_Bed_Skirt_IS_T_220822_R1.dpt
7497.03,0.02175
7491.25,0.02999
7485.46,0.02786
7479.67,0.02388
7473.89,0.02069
7468.1,0.02787
7462.32,0.02394
7456.53,0.02203
7450.74,0.01845
7444.96,0.02255
7439.17,0.02115
7433.38,0.03187
7427.6,0.02078
7421.81,0.02104
7416.03,0.02247
7410.24,0.03345
7404.45,0.02678
7398.67,0.02378
7392.88,0.02033
7387.09,0.01705
7381.31,0.01718
7375.52,0.02926
7369.74,0.02758
7363.95,0.02588
7358.16,0.02131
7352.38,0.02587
7346.59,0.02332
7340.8,0.01514
7335.02,0.01935
7329.23,0.01903
7323.45,0.02049
7317.66,0.02429
7311.87,0.02433
7306.09,0.02091
7300.3,0.02617
7294.51,0.02485
7288.73,0.01896
7282.94,0.01962
7277.16,0.02246
7271.37,0.01451
7265.58,0.02416
7259.8,0.01883
7254.01,0.01353
7248.22,0.01731
7242.44,0.02581
7236.65,0.02134
7230.87,0.02057
7225.08,0.01937
7219.29,0.02153
7213.51,0.02109
7207.72,0.02690
7201.93,0.01969
7196.15,0.02182
7190.36,0.02060
7184.58,0.02589
7178.79,0.02488
7173,0.02333
7167.22,0.01682
7161.43,0.02121
7155.65,0.02026
7149.86,0.01799
7144.07,0.01978
7138.29,0.02174
7132.5,0.02519
7126.71,0.02043
7120.93,0.01773
7115.14,0.02418
7109.36,0.02014
7103.57,0.01784
7097.78,0.01858
7092,0.01918
7086.21,0.02358
7080.42,0.01849
7074.64,0.02402
7068.85,0.01831
7063.07,0.01850
7057.28,0.02865
7051.49,0.02275
7045.71,0.02159
7039.92,0.02566
7034.13,0.02813
7028.35,0.02179
7022.56,0.01752
7016.78,0.01497
7010.99,0.02167
7005.2,0.02149
6999.42,0.01890
6993.63,0.02516
6987.84,0.01955
6982.06,0.01877
6976.27,0.01327
6970.49,0.02535
6964.7,0.02693
6958.91,0.02114
6953.13,0.02090
6947.34,0.01938
6941.55,0.02263
6935.77,0.01935
6929.98,0.02002
6924.2,0.01731
6918.41,0.01521
6912.62,0.01917
6906.84,0.02174
6901.05,0.01678
6895.26,0.02166
6889.48,0.01879
6883.69,0.02125
6877.91,0.02353
6872.12,0.01808
6866.33,0.02158
6860.55,0.01749
6854.76,0.01883
6848.97,0.02145
6843.19,0.01954
6837.4,0.02186
6831.62,0.02092
6825.83,0.02186
6820.04,0.01561
6814.26,0.01762
6808.47,0.01628
6802.68,0.02021
6796.9,0.02519
6791.11,0.02154
6785.33,0.01848
6779.54,0.02085
6773.75,0.02198
6767.97,0.01634
6762.18,0.01966
6756.39,0.01965
6750.61,0.01981
6744.82,0.01725
6739.04,0.01914
6733.25,0.02499
6727.46,0.01871
6721.68,0.02131
6715.89,0.01956
6710.1,0.02062
6704.32,0.02404
6698.53,0.01733
6692.75,0.01980
6686.96,0.02280
6681.17,0.01969
6675.39,0.01752
6669.6,0.01951
6663.82,0.01920
6658.03,0.01611
6652.24,0.02015
6646.46,0.02004
6640.67,0.02147
6634.88,0.02187
6629.1,0.02271
6623.31,0.02352
6617.53,0.02396
6611.74,0.02135
6605.95,0.02059
6600.17,0.01991
6594.38,0.01930
6588.59,0.02172
6582.81,0.02187
6577.02,0.02308
6571.24,0.02224
6565.45,0.02123
6559.66,0.01916
6553.88,0.01977
6548.09,0.01864
6542.3,0.01870
6536.52,0.02093
6530.73,0.01687
6524.95,0.02204
6519.16,0.02156
6513.37,0.02120
6507.59,0.02092
6501.8,0.02203
6496.01,0.02073
6490.23,0.02405
6484.44,0.02129
6478.66,0.02418
6472.87,0.02013
6467.08,0.01680
6461.3,0.01532
6455.51,0.02003
6449.72,0.01766
6443.94,0.02209
6438.15,0.01894
6432.37,0.01467
6426.58,0.01789
6420.79,0.02076
6415.01,0.01764
6409.22,0.02183
6403.43,0.01763
6397.65,0.02313
6391.86,0.01662
6386.08,0.01464
6380.29,0.01851
6374.5,0.02208
6368.72,0.02391
6362.93,0.01870
6357.14,0.01682
6351.36,0.02067
6345.57,0.02370
6339.79,0.02250
6334,0.01675
6328.21,0.01351
6322.43,0.01642
6316.64,0.02156
6310.85,0.01804
6305.07,0.01902
6299.28,0.01836
6293.5,0.01838
6287.71,0.01736
6281.92,0.02037
6276.14,0.02103
6270.35,0.01932
6264.56,0.01807
6258.78,0.01832
6252.99,0.01617
6247.21,0.02097
6241.42,0.01641
6235.63,0.01612
6229.85,0.01724
6224.06,0.02115
6218.27,0.01891
6212.49,0.01667
6206.7,0.01744
6200.92,0.01904
6195.13,0.01919
6189.34,0.01663
6183.56,0.01964
6177.77,0.02016
6171.98,0.01951
6166.2,0.01824
6160.41,0.01899
6154.63,0.01747
6148.84,0.01826
6143.05,0.01742
6137.27,0.01671
6131.48,0.01543
6125.7,0.01709
6119.91,0.01772
6114.12,0.01845
6108.34,0.01751
6102.55,0.01879
6096.76,0.01823
6090.98,0.01859
6085.19,0.01957
6079.41,0.02067
6073.62,0.01930
6067.83,0.01807
6062.05,0.02156
6056.26,0.01809
6050.47,0.02164
6044.69,0.01849
6038.9,0.01954
6033.12,0.01912
6027.33,0.01831
6021.54,0.01969
6015.76,0.01574
6009.97,0.01951
6004.18,0.01979
5998.4,0.01853
5992.61,0.02049
5986.83,0.01864
5981.04,0.01736
5975.25,0.01961
5969.47,0.02043
5963.68,0.01894
5957.89,0.02013
5952.11,0.01906
5946.32,0.01670
5940.54,0.01834
5934.75,0.02170
5928.96,0.02013
5923.18,0.01705
5917.39,0.01751
5911.6,0.01922
5905.82,0.01919
5900.03,0.01983
5894.25,0.01859
5888.46,0.01870
5882.67,0.01842
5876.89,0.01650
5871.1,0.02035
5865.31,0.01894
5859.53,0.01948
5853.74,0.01679
5847.96,0.01784
5842.17,0.01869
5836.38,0.01995
5830.6,0.01873
5824.81,0.01923
5819.02,0.01844
5813.24,0.01893
5807.45,0.01936
5801.67,0.01759
5795.88,0.01853
5790.09,0.02205
5784.31,0.01791
5778.52,0.02032
5772.73,0.01879
5766.95,0.01735
5761.16,0.01972
5755.38,0.01897
5749.59,0.01861
5743.8,0.01863
5738.02,0.01800
5732.23,0.01941
5726.44,0.01857
5720.66,0.01738
5714.87,0.01888
5709.09,0.01642
5703.3,0.01735
5697.51,0.01843
5691.73,0.01681
5685.94,0.01848
5680.15,0.01938
5674.37,0.01748
5668.58,0.01839
5662.8,0.01957
5657.01,0.01768
5651.22,0.01896
5645.44,0.01748
5639.65,0.01882
5633.87,0.01895
5628.08,0.01839
5622.29,0.02072
5616.51,0.02031
5610.72,0.02073
5604.93,0.02142
5599.15,0.01854
5593.36,0.01906
5587.58,0.01881
5581.79,0.01839
5576,0.01887
5570.22,0.02111
5564.43,0.01904
5558.64,0.01647
5552.86,0.02121
5547.07,0.01985
5541.29,0.01977
5535.5,0.01677
5529.71,0.01860
5523.93,0.01984
5518.14,0.01916
5512.35,0.01839
5506.57,0.01977
5500.78,0.01963
5495,0.02072
5489.21,0.02026
5483.42,0.01929
5477.64,0.01966
5471.85,0.01964
5466.06,0.01955
5460.28,0.02033
5454.49,0.01899
5448.71,0.01926
5442.92,0.02110
5437.13,0.01982
5431.35,0.01842
5425.56,0.01997
5419.77,0.01755
5413.99,0.01812
5408.2,0.01656
5402.42,0.01902
5396.63,0.01922
5390.84,0.01998
5385.06,0.01878
5379.27,0.01862
5373.48,0.01883
5367.7,0.02106
5361.91,0.01813
5356.13,0.01843
5350.34,0.01903
5344.55,0.01990
5338.77,0.01848
5332.98,0.01926
5327.19,0.01946
5321.41,0.01896
5315.62,0.01801
5309.84,0.01925
5304.05,0.01915
5298.26,0.01883
5292.48,0.01926
5286.69,0.01899
5280.9,0.01845
5275.12,0.01888
5269.33,0.01924
5263.55,0.01915
5257.76,0.02058
5251.97,0.01995
5246.19,0.01883
5240.4,0.01953
5234.61,0.01926
5228.83,0.01926
5223.04,0.01977
5217.26,0.01891
5211.47,0.02023
5205.68,0.02007
5199.9,0.01887
5194.11,0.01905
5188.32,0.02033
5182.54,0.01799
5176.75,0.01913
5170.97,0.01863
5165.18,0.02030
5159.39,0.01858
5153.61,0.01708
5147.82,0.01933
5142.03,0.01961
5136.25,0.01961
5130.46,0.01838
5124.68,0.01825
5118.89,0.01873
5113.1,0.01919
5107.32,0.01865
5101.53,0.01985
5095.75,0.01898
5089.96,0.01838
5084.17,0.01876
5078.39,0.01864
5072.6,0.01891
5066.81,0.01876
5061.03,0.01825
5055.24,0.01964
5049.46,0.02026
5043.67,0.01926
5037.88,0.01870
5032.1,0.01855
5026.31,0.01741
5020.52,0.01916
5014.74,0.01947
5008.95,0.02083
5003.17,0.01868
4997.38,0.01839
4991.59,0.01833
4985.81,0.01693
4980.02,0.01861
4974.23,0.01996
4968.45,0.01825
4962.66,0.01925
4956.88,0.02021
4951.09,0.01912
4945.3,0.01848
4939.52,0.02025
4933.73,0.01898
4927.94,0.01861
4922.16,0.01919
4916.37,0.01986
4910.59,0.01988
4904.8,0.02007
4899.01,0.01898
4893.23,0.01960
4887.44,0.01803
4881.65,0.01918
4875.87,0.01849
4870.08,0.01951
4864.3,0.01860
4858.51,0.01828
4852.72,0.01857
4846.94,0.01892
4841.15,0.02043
4835.36,0.01923
4829.58,0.01975
4823.79,0.01979
4818.01,0.01913
4812.22,0.01824
4806.43,0.01869
4800.65,0.01924
4794.86,0.01896
4789.07,0.01932
4783.29,0.01816
4777.5,0.01906
4771.72,0.01893
4765.93,0.01935
4760.14,0.01904
4754.36,0.01941
4748.57,0.01890
4742.78,0.01904
4737,0.01702
4731.21,0.01797
4725.43,0.01847
4719.64,0.01814
4713.85,0.01855
4708.07,0.01878
4702.28,0.01888
4696.49,0.01986
4690.71,0.01941
4684.92,0.01861
4679.14,0.01847
4673.35,0.01949
4667.56,0.01944
4661.78,0.01878
4655.99,0.01966
4650.2,0.01860
4644.42,0.01924
4638.63,0.01904
4632.85,0.01948
4627.06,0.01984
4621.27,0.01908
4615.49,0.01917
4609.7,0.01944
4603.92,0.01897
4598.13,0.01855
4592.34,0.01877
4586.56,0.01931
4580.77,0.01850
4574.98,0.02051
4569.2,0.01940
4563.41,0.01964
4557.63,0.01913
4551.84,0.01829
4546.05,0.01908
4540.27,0.01965
4534.48,0.02016
4528.69,0.01936
4522.91,0.01909
4517.12,0.01950
4511.34,0.01927
4505.55,0.01874
4499.76,0.01935
4493.98,0.01928
4488.19,0.01960
4482.4,0.01912
4476.62,0.02001
4470.83,0.01945
4465.05,0.01857
4459.26,0.01828
4453.47,0.01944
4447.69,0.01996
4441.9,0.01945
4436.11,0.02018
4430.33,0.01848
4424.54,0.01913
4418.76,0.01888
4412.97,0.01978
4407.18,0.01976
4401.4,0.01930
4395.61,0.02004
4389.82,0.01986
4384.04,0.01953
4378.25,0.01941
4372.47,0.01886
4366.68,0.01935
4360.89,0.01855
4355.11,0.01909
4349.32,0.01888
4343.53,0.01983
4337.75,0.01952
4331.96,0.01983
4326.18,0.01877
4320.39,0.01839
4314.6,0.01950
4308.82,0.01931
4303.03,0.01845
4297.24,0.01922
4291.46,0.01923
4285.67,0.01825
4279.89,0.01880
4274.1,0.01887
4268.31,0.01848
4262.53,0.01964
4256.74,0.01855
4250.95,0.01857
4245.17,0.01959
4239.38,0.01991
4233.6,0.01899
4227.81,0.01914
4222.02,0.01922
4216.24,0.01922
4210.45,0.01898
4204.66,0.01913
4198.88,0.01945
4193.09,0.01948
4187.31,0.01896
4181.52,0.01957
4175.73,0.01927
4169.95,0.01858
4164.16,0.01909
4158.37,0.01947
4152.59,0.01927
4146.8,0.01957
4141.02,0.01946
4135.23,0.01949
4129.44,0.01927
4123.66,0.01974
4117.87,0.01937
4112.09,0.01996
4106.3,0.01980
4100.51,0.01919
4094.73,0.01911
4088.94,0.01936
4083.15,0.01910
4077.37,0.01949
4071.58,0.01987
4065.8,0.01956
4060.01,0.01955
4054.22,0.01898
4048.44,0.01973
4042.65,0.01920
4036.86,0.01970
4031.08,0.01913
4025.29,0.01928
4019.51,0.01900
4013.72,0.01880
4007.93,0.01985
4002.15,0.02010
3996.36,0.01950
3990.57,0.01945
3984.79,0.01930
3979,0.01915
3973.22,0.01895
3967.43,0.01950
3961.64,0.01867
3955.86,0.01922
3950.07,0.01979
3944.28,0.01965
3938.5,0.01953
3932.71,0.01912
3926.93,0.01891
3921.14,0.01863
3915.35,0.01915
3909.57,0.01885
3903.78,0.01922
3897.99,0.01909
3892.21,0.01939
3886.42,0.01985
3880.64,0.01929
3874.85,0.01913
3869.06,0.01951
3863.28,0.01895
3857.49,0.01913
3851.7,0.01887
3845.92,0.01971
3840.13,0.01968
3834.35,0.01996
3828.56,0.01944
3822.77,0.01943
3816.99,0.01965
3811.2,0.01937
3805.41,0.02030
3799.63,0.01970
3793.84,0.01977
3788.06,0.01896
3782.27,0.01964
3776.48,0.01930
3770.7,0.01947
3764.91,0.01953
3759.12,0.01912
3753.34,0.01996
3747.55,0.01951
3741.77,0.01943
3735.98,0.01975
3730.19,0.01919
3724.41,0.01894
3718.62,0.01876
3712.83,0.01949
3707.05,0.01915
3701.26,0.01896
3695.48,0.01930
3689.69,0.01872
3683.9,0.01893
3678.12,0.01855
3672.33,0.01884
3666.54,0.01896
3660.76,0.01861
3654.97,0.01917
3649.19,0.01907
3643.4,0.01898
3637.61,0.01893
3631.83,0.01891
3626.04,0.01839
3620.25,0.01858
3614.47,0.01905
3608.68,0.01832
3602.9,0.01810
3597.11,0.01870
3591.32,0.01843
3585.54,0.01814
3579.75,0.01860
3573.97,0.01810
3568.18,0.01783
3562.39,0.01834
3556.61,0.01848
3550.82,0.01780
3545.03,0.01828
3539.25,0.01792
3533.46,0.01847
3527.68,0.01794
3521.89,0.01815
3516.1,0.01875
3510.32,0.01759
3504.53,0.01830
3498.74,0.01790
3492.96,0.01766
3487.17,0.01743
3481.39,0.01801
3475.6,0.01783
3469.81,0.01748
3464.03,0.01778
3458.24,0.01738
3452.45,0.01726
3446.67,0.01813
3440.88,0.01808
3435.1,0.01825
3429.31,0.01800
3423.52,0.01830
3417.74,0.01787
3411.95,0.01794
3406.16,0.01752
3400.38,0.01708
3394.59,0.01707
3388.81,0.01685
3383.02,0.01705
3377.23,0.01756
3371.45,0.01745
3365.66,0.01730
3359.87,0.01788
3354.09,0.01721
3348.3,0.01693
3342.52,0.01690
3336.73,0.01692
3330.94,0.01688
3325.16,0.01687
3319.37,0.01649
3313.58,0.01707
3307.8,0.01708
3302.01,0.01717
3296.23,0.01703
3290.44,0.01677
3284.65,0.01704
3278.87,0.01720
3273.08,0.01731
3267.29,0.01759
3261.51,0.01799
3255.72,0.01770
3249.94,0.01697
3244.15,0.01636
3238.36,0.01777
3232.58,0.01750
3226.79,0.01780
3221,0.01795
3215.22,0.01745
3209.43,0.01814
3203.65,0.01774
3197.86,0.01750
3192.07,0.01759
3186.29,0.01828
3180.5,0.01783
3174.71,0.01768
3168.93,0.01775
3163.14,0.01775
3157.36,0.01686
3151.57,0.01769
3145.78,0.01781
3140,0.01767
3134.21,0.01784
3128.42,0.01834
3122.64,0.01758
3116.85,0.01726
3111.07,0.01717
3105.28,0.01826
3099.49,0.01771
3093.71,0.01771
3087.92,0.01764
3082.14,0.01723
3076.35,0.01797
3070.56,0.01789
3064.78,0.01791
3058.99,0.01737
3053.2,0.01768
3047.42,0.01727
3041.63,0.01751
3035.85,0.01774
3030.06,0.01746
3024.27,0.01753
3018.49,0.01796
3012.7,0.01704
3006.91,0.01717
3001.13,0.01703
2995.34,0.01688
2989.56,0.01679
2983.77,0.01657
2977.98,0.01719
2972.2,0.01654
2966.41,0.01634
2960.62,0.01674
2954.84,0.01641
2949.05,0.01615
2943.27,0.01607
2937.48,0.01635
2931.69,0.01614
2925.91,0.01660
2920.12,0.01691
2914.33,0.01760
2908.55,0.01706
2902.76,0.01705
2896.98,0.01715
2891.19,0.01744
2885.4,0.01684
2879.62,0.01721
2873.83,0.01707
2868.04,0.01671
2862.26,0.01695
2856.47,0.01717
2850.69,0.01788
2844.9,0.01791
2839.11,0.01812
2833.33,0.01810
2827.54,0.01824
2821.75,0.01819
2815.97,0.01780
2810.18,0.01756
2804.4,0.01817
2798.61,0.01804
2792.82,0.01814
2787.04,0.01820
2781.25,0.01774
2775.46,0.01808
2769.68,0.01830
2763.89,0.01796
2758.11,0.01806
2752.32,0.01825
2746.53,0.01811
2740.75,0.01821
2734.96,0.01828
2729.17,0.01827
2723.39,0.01816
2717.6,0.01756
2711.82,0.01779
2706.03,0.01805
2700.24,0.01800
2694.46,0.01828
2688.67,0.01829
2682.88,0.01816
2677.1,0.01800
2671.31,0.01812
2665.53,0.01786
2659.74,0.01799
2653.95,0.01810
2648.17,0.01812
2642.38,0.01825
2636.59,0.01815
2630.81,0.01802
2625.02,0.01779
2619.24,0.01812
2613.45,0.01800
2607.66,0.01779
2601.88,0.01791
2596.09,0.01773
2590.3,0.01791
2584.52,0.01781
2578.73,0.01795
2572.95,0.01791
2567.16,0.01784
2561.37,0.01818
2555.59,0.01807
2549.8,0.01832
2544.02,0.01803
2538.23,0.01850
2532.44,0.01790
2526.66,0.01781
2520.87,0.01783
2515.08,0.01799
2509.3,0.01808
2503.51,0.01821
2497.73,0.01789
2491.94,0.01800
2486.15,0.01798
2480.37,0.01801
2474.58,0.01809
2468.79,0.01817
2463.01,0.01845
2457.22,0.01804
2451.44,0.01819
2445.65,0.01803
2439.86,0.01826
2434.08,0.01805
2428.29,0.01789
2422.5,0.01815
2416.72,0.01805
2410.93,0.01774
2405.15,0.01846
2399.36,0.01835
2393.57,0.01777
2387.79,0.01772
2382,0.01826
2376.21,0.01803
2370.43,0.01773
2364.64,0.01816
2358.86,0.01757
2353.07,0.01826
2347.28,0.01782
2341.5,0.01803
2335.71,0.01792
2329.92,0.01798
2324.14,0.01813
2318.35,0.01820
2312.57,0.01817
2306.78,0.01763
2300.99,0.01779
2295.21,0.01797
2289.42,0.01781
2283.63,0.01807
2277.85,0.01827
2272.06,0.01801
2266.28,0.01764
2260.49,0.01806
2254.7,0.01799
2248.92,0.01779
2243.13,0.01801
2237.34,0.01799
2231.56,0.01788
2225.77,0.01807
2219.99,0.01797
2214.2,0.01815
2208.41,0.01773
2202.63,0.01768
2196.84,0.01786
2191.05,0.01784
2185.27,0.01823
2179.48,0.01783
2173.7,0.01803
2167.91,0.01807
2162.12,0.01790
2156.34,0.01789
2150.55,0.01762
2144.76,0.01758
2138.98,0.01764
2133.19,0.01800
2127.41,0.01771
2121.62,0.01729
2115.83,0.01762
2110.05,0.01773
2104.26,0.01741
2098.47,0.01728
2092.69,0.01739
2086.9,0.01763
2081.12,0.01779
2075.33,0.01813
2069.54,0.01796
2063.76,0.01797
2057.97,0.01786
2052.19,0.01790
2046.4,0.01769
2040.61,0.01754
2034.83,0.01794
2029.04,0.01802
2023.25,0.01799
2017.47,0.01776
2011.68,0.01767
2005.9,0.01743
2000.11,0.01774
1994.32,0.01775
1988.54,0.01802
1982.75,0.01749
1976.96,0.01759
1971.18,0.01784
1965.39,0.01738
1959.61,0.01742
1953.82,0.01747
1948.03,0.01767
1942.25,0.01779
1936.46,0.01763
1930.67,0.01761
1924.89,0.01782
1919.1,0.01750
1913.32,0.01751
1907.53,0.01788
1901.74,0.01742
1895.96,0.01738
1890.17,0.01727
1884.38,0.01788
1878.6,0.01751
1872.81,0.01756
1867.03,0.01742
1861.24,0.01751
1855.45,0.01723
1849.67,0.01736
1843.88,0.01769
1838.09,0.01707
1832.31,0.01701
1826.52,0.01695
1820.74,0.01668
1814.95,0.01659
1809.16,0.01693
1803.38,0.01663
1797.59,0.01602
1791.8,0.01633
1786.02,0.01621
1780.23,0.01560
1774.45,0.01579
1768.66,0.01547
1762.87,0.01502
1757.09,0.01429
1751.3,0.01433
1745.51,0.01469
1739.73,0.01565
1733.94,0.01654
1728.16,0.01735
1722.37,0.01778
1716.58,0.01817
1710.8,0.01750
1705.01,0.01722
1699.22,0.01724
1693.44,0.01692
1687.65,0.01616
1681.87,0.01575
1676.08,0.01597
1670.29,0.01630
1664.51,0.01593
1658.72,0.01540
1652.93,0.01511
1647.15,0.01535
1641.36,0.01528
1635.58,0.01530
1629.79,0.01545
1624,0.01590
1618.22,0.01569
1612.43,0.01591
1606.64,0.01579
1600.86,0.01599
1595.07,0.01580
1589.29,0.01537
1583.5,0.01550
1577.71,0.01567
1571.93,0.01507
1566.14,0.01511
1560.35,0.01563
1554.57,0.01509
1548.78,0.01507
1543,0.01514
1537.21,0.01531
1531.42,0.01557
1525.64,0.01555
1519.85,0.01526
1514.07,0.01537
1508.28,0.01530
1502.49,0.01553
1496.71,0.01548
1490.92,0.01576
1485.13,0.01579
1479.35,0.01569
1473.56,0.01529
1467.78,0.01533
1461.99,0.01532
1456.2,0.01578
1450.42,0.01583
1444.63,0.01569
1438.84,0.01583
1433.06,0.01570
1427.27,0.01609
1421.49,0.01547
1415.7,0.01534
1409.91,0.01529
1404.13,0.01542
1398.34,0.01514
1392.55,0.01472
1386.77,0.01480
1380.98,0.01499
1375.2,0.01490
1369.41,0.01529
1363.62,0.01579
1357.84,0.01553
1352.05,0.01493
1346.26,0.01459
1340.48,0.01456
1334.69,0.01450
1328.91,0.01450
1323.12,0.01427
1317.33,0.01402
1311.55,0.01402
1305.76,0.01426
1299.97,0.01444
1294.19,0.01504
1288.4,0.01540
1282.62,0.01574
1276.83,0.01588
1271.04,0.01606
1265.26,0.01649
1259.47,0.01706
1253.68,0.01768
1247.9,0.01686
1242.11,0.01717
1236.33,0.01641
1230.54,0.01655
1224.75,0.01685
1218.97,0.01610
1213.18,0.01606
1207.39,0.01551
1201.61,0.01516
1195.82,0.01526
1190.04,0.01555
1184.25,0.01489
1178.46,0.01489
1172.68,0.01456
1166.89,0.01528
1161.1,0.01491
1155.32,0.01450
1149.53,0.01495
1143.75,0.01444
1137.96,0.01447
1132.17,0.01530
1126.39,0.01557
1120.6,0.01569
1114.81,0.01599
1109.03,0.01586
1103.24,0.01550
1097.46,0.01484
1091.67,0.01521
1085.88,0.01477
1080.1,0.01554
1074.31,0.01633
1068.52,0.01701
1062.74,0.01682
1056.95,0.01679
1051.17,0.01707
1045.38,0.01613
1039.59,0.01606
1033.81,0.01571
1028.02,0.01610
1022.24,0.01614
1016.45,0.01658
1010.66,0.01656
1004.88,0.01759
999.09,0.01798
993.304,0.01825
987.518,0.01798
981.731,0.01778
975.945,0.01748
970.159,0.01749
964.373,0.01722
958.586,0.01687
952.8,0.01666
947.014,0.01706
941.228,0.01678
935.441,0.01727
929.655,0.01700
923.869,0.01649
918.083,0.01607
912.297,0.01620
906.51,0.01608
900.724,0.01589
894.938,0.01625
889.152,0.01570
883.365,0.01639
877.579,0.01645
871.793,0.01639
866.007,0.01614
860.22,0.01623
854.434,0.01597
848.648,0.01609
842.862,0.01561
837.075,0.01550
831.289,0.01567
825.503,0.01542
819.717,0.01546
813.931,0.01576
808.144,0.01545
802.358,0.01538
796.572,0.01563
790.786,0.01615
784.999,0.01548
779.213,0.01549
773.427,0.01582
767.641,0.01544
761.854,0.01554
756.068,0.01452
750.282,0.01410
744.496,0.01491
738.709,0.01538
732.923,0.01434
727.137,0.01448
721.351,0.01466
715.565,0.01491
709.778,0.01535
703.992,0.01505
698.206,0.01474
692.42,0.01505
686.633,0.01506
680.847,0.01433
675.061,0.01483
669.275,0.01433
663.488,0.01494
657.702,0.01392
651.916,0.01235
646.13,0.01306
640.343,0.01374
634.557,0.01275
628.771,0.01302
622.985,0.01266
617.198,0.01221
611.412,0.01278
605.626,0.01365
599.84,0.01326