File: 01_Data/Polyester_Bed_Skirt/FTIR/IS/Polyester_Bed_Skirt_IS_T_220822_R7.dpt
7497.03,0.02044
7491.25,0.02354
7485.46,0.01597
7479.67,0.01879
7473.89,0.02530
7468.1,0.02203
7462.32,0.01594
7456.53,0.02388
7450.74,0.02626
7444.96,0.02405
7439.17,0.01645
7433.38,0.02902
7427.6,0.01654
7421.81,0.01928
7416.03,0.01653
7410.24,0.01501
7404.45,0.01133
7398.67,0.01410
7392.88,0.02386
7387.09,0.02125
7381.31,0.02558
7375.52,0.01408
7369.74,0.02643
7363.95,0.02379
7358.16,0.02650
7352.38,0.02436
7346.59,0.02311
7340.8,0.01947
7335.02,0.01998
7329.23,0.02186
7323.45,0.02460
7317.66,0.02059
7311.87,0.02407
7306.09,0.01762
7300.3,0.01837
7294.51,0.02608
7288.73,0.02019
7282.94,0.02580
7277.16,0.03425
7271.37,0.02031
7265.58,0.02446
7259.8,0.02487
7254.01,0.01533
7248.22,0.01955
7242.44,0.02809
7236.65,0.01970
7230.87,0.02610
7225.08,0.02619
7219.29,0.02631
7213.51,0.02826
7207.72,0.01593
7201.93,0.02142
7196.15,0.02366
7190.36,0.01802
7184.58,0.02108
7178.79,0.01765
7173,0.02502
7167.22,0.01261
7161.43,0.01955
7155.65,0.02020
7149.86,0.02066
7144.07,0.02345
7138.29,0.01872
7132.5,0.02691
7126.71,0.02227
7120.93,0.01921
7115.14,0.02484
7109.36,0.01993
7103.57,0.01640
7097.78,0.02366
7092,0.02003
7086.21,0.01786
7080.42,0.02130
7074.64,0.02275
7068.85,0.01695
7063.07,0.02198
7057.28,0.02062
7051.49,0.01610
7045.71,0.02199
7039.92,0.02559
7034.13,0.02159
7028.35,0.02317
7022.56,0.02554
7016.78,0.01382
7010.99,0.01784
7005.2,0.02315
6999.42,0.02204
6993.63,0.02227
6987.84,0.01759
6982.06,0.01508
6976.27,0.01908
6970.49,0.02472
6964.7,0.02616
6958.91,0.02257
6953.13,0.01588
6947.34,0.02186
6941.55,0.02428
6935.77,0.01795
6929.98,0.01749
6924.2,0.01970
6918.41,0.02160
6912.62,0.01454
6906.84,0.01407
6901.05,0.01514
6895.26,0.01639
6889.48,0.01682
6883.69,0.01619
6877.91,0.02417
6872.12,0.02240
6866.33,0.01914
6860.55,0.02206
6854.76,0.02634
6848.97,0.01782
6843.19,0.01592
6837.4,0.02272
6831.62,0.02184
6825.83,0.01514
6820.04,0.01665
6814.26,0.01669
6808.47,0.01741
6802.68,0.02058
6796.9,0.02002
6791.11,0.01759
6785.33,0.01668
6779.54,0.02348
6773.75,0.02250
6767.97,0.02266
6762.18,0.01753
6756.39,0.02195
6750.61,0.02432
6744.82,0.02235
6739.04,0.01994
6733.25,0.02070
6727.46,0.02532
6721.68,0.02139
6715.89,0.01632
6710.1,0.02246
6704.32,0.01979
6698.53,0.02102
6692.75,0.02242
6686.96,0.02051
6681.17,0.01831
6675.39,0.02086
6669.6,0.02153
6663.82,0.02183
6658.03,0.02188
6652.24,0.02123
6646.46,0.02271
6640.67,0.02016
6634.88,0.02062
6629.1,0.02160
6623.31,0.01744
6617.53,0.02226
6611.74,0.02255
6605.95,0.01515
6600.17,0.01686
6594.38,0.02334
6588.59,0.01808
6582.81,0.02059
6577.02,0.02051
6571.24,0.01897
6565.45,0.01867
6559.66,0.02083
6553.88,0.02206
6548.09,0.02115
6542.3,0.02027
6536.52,0.01442
6530.73,0.01781
6524.95,0.01926
6519.16,0.01970
6513.37,0.02153
6507.59,0.01817
6501.8,0.01480
6496.01,0.02009
6490.23,0.02051
6484.44,0.02453
6478.66,0.01884
6472.87,0.02184
6467.08,0.02187
6461.3,0.01907
6455.51,0.01654
6449.72,0.01739
6443.94,0.02116
6438.15,0.01658
6432.37,0.01892
6426.58,0.01825
6420.79,0.02289
6415.01,0.01858
6409.22,0.02274
6403.43,0.02205
6397.65,0.01902
6391.86,0.02034
6386.08,0.02211
6380.29,0.01640
6374.5,0.01983
6368.72,0.01899
6362.93,0.02007
6357.14,0.01572
6351.36,0.01996
6345.57,0.01748
6339.79,0.01997
6334,0.01835
6328.21,0.01810
6322.43,0.01606
6316.64,0.01717
6310.85,0.01730
6305.07,0.01925
6299.28,0.01848
6293.5,0.02300
6287.71,0.01704
6281.92,0.01594
6276.14,0.01715
6270.35,0.02138
6264.56,0.02133
6258.78,0.01858
6252.99,0.01889
6247.21,0.02191
6241.42,0.02084
6235.63,0.01880
6229.85,0.02027
6224.06,0.01577
6218.27,0.01609
6212.49,0.01908
6206.7,0.01907
6200.92,0.01640
6195.13,0.01960
6189.34,0.02262
6183.56,0.01555
6177.77,0.02064
6171.98,0.01927
6166.2,0.01962
6160.41,0.01995
6154.63,0.02089
6148.84,0.01910
6143.05,0.01978
6137.27,0.01615
6131.48,0.01793
6125.7,0.01869
6119.91,0.01757
6114.12,0.01768
6108.34,0.01783
6102.55,0.01886
6096.76,0.01879
6090.98,0.01760
6085.19,0.01509
6079.41,0.01828
6073.62,0.01760
6067.83,0.01910
6062.05,0.01761
6056.26,0.01582
6050.47,0.01669
6044.69,0.02074
6038.9,0.01908
6033.12,0.01847
6027.33,0.01859
6021.54,0.01959
6015.76,0.01945
6009.97,0.01700
6004.18,0.02070
5998.4,0.01788
5992.61,0.01835
5986.83,0.01714
5981.04,0.01608
5975.25,0.01986
5969.47,0.01609
5963.68,0.01698
5957.89,0.02191
5952.11,0.02106
5946.32,0.01741
5940.54,0.01975
5934.75,0.02147
5928.96,0.02164
5923.18,0.01748
5917.39,0.02046
5911.6,0.01834
5905.82,0.01868
5900.03,0.02033
5894.25,0.01955
5888.46,0.02003
5882.67,0.01713
5876.89,0.01974
5871.1,0.01837
5865.31,0.02067
5859.53,0.01961
5853.74,0.01560
5847.96,0.01959
5842.17,0.02005
5836.38,0.02014
5830.6,0.02172
5824.81,0.01728
5819.02,0.01739
5813.24,0.01872
5807.45,0.01769
5801.67,0.01989
5795.88,0.01817
5790.09,0.01707
5784.31,0.01882
5778.52,0.01737
5772.73,0.01980
5766.95,0.01819
5761.16,0.01924
5755.38,0.02013
5749.59,0.01749
5743.8,0.01994
5738.02,0.01761
5732.23,0.01962
5726.44,0.01780
5720.66,0.01783
5714.87,0.02125
5709.09,0.01804
5703.3,0.02036
5697.51,0.02136
5691.73,0.01798
5685.94,0.01778
5680.15,0.01848
5674.37,0.01916
5668.58,0.01916
5662.8,0.01916
5657.01,0.02115
5651.22,0.01718
5645.44,0.01917
5639.65,0.01971
5633.87,0.01839
5628.08,0.01733
5622.29,0.01798
5616.51,0.01943
5610.72,0.02080
5604.93,0.01826
5599.15,0.01923
5593.36,0.01957
5587.58,0.01972
5581.79,0.01731
5576,0.01907
5570.22,0.01971
5564.43,0.01879
5558.64,0.01975
5552.86,0.01890
5547.07,0.02051
5541.29,0.01982
5535.5,0.01896
5529.71,0.01797
5523.93,0.01896
5518.14,0.02052
5512.35,0.01943
5506.57,0.02001
5500.78,0.01986
5495,0.02036
5489.21,0.02039
5483.42,0.01817
5477.64,0.01738
5471.85,0.01778
5466.06,0.01655
5460.28,0.01858
5454.49,0.01944
5448.71,0.01743
5442.92,0.01839
5437.13,0.02026
5431.35,0.01890
5425.56,0.01998
5419.77,0.02060
5413.99,0.01789
5408.2,0.01794
5402.42,0.01742
5396.63,0.01807
5390.84,0.02058
5385.06,0.01832
5379.27,0.01942
5373.48,0.01946
5367.7,0.01845
5361.91,0.01912
5356.13,0.01871
5350.34,0.01938
5344.55,0.01898
5338.77,0.01835
5332.98,0.01971
5327.19,0.02003
5321.41,0.01855
5315.62,0.01850
5309.84,0.01928
5304.05,0.01970
5298.26,0.01779
5292.48,0.01846
5286.69,0.01859
5280.9,0.02026
5275.12,0.01909
5269.33,0.01750
5263.55,0.01983
5257.76,0.02035
5251.97,0.01980
5246.19,0.01824
5240.4,0.01925
5234.61,0.01787
5228.83,0.01866
5223.04,0.01869
5217.26,0.01792
5211.47,0.01818
5205.68,0.01914
5199.9,0.01951
5194.11,0.01878
5188.32,0.02033
5182.54,0.01889
5176.75,0.01941
5170.97,0.01973
5165.18,0.01943
5159.39,0.01972
5153.61,0.01878
5147.82,0.01975
5142.03,0.01932
5136.25,0.01984
5130.46,0.01977
5124.68,0.01932
5118.89,0.02044
5113.1,0.01960
5107.32,0.01809
5101.53,0.01935
5095.75,0.01920
5089.96,0.01884
5084.17,0.01915
5078.39,0.01953
5072.6,0.01845
5066.81,0.01898
5061.03,0.02029
5055.24,0.01791
5049.46,0.01867
5043.67,0.01989
5037.88,0.01981
5032.1,0.01887
5026.31,0.01939
5020.52,0.02003
5014.74,0.02044
5008.95,0.01943
5003.17,0.01897
4997.38,0.01939
4991.59,0.01990
4985.81,0.01968
4980.02,0.01838
4974.23,0.02034
4968.45,0.01946
4962.66,0.02001
4956.88,0.01838
4951.09,0.02002
4945.3,0.01927
4939.52,0.01801
4933.73,0.02042
4927.94,0.02044
4922.16,0.01913
4916.37,0.01978
4910.59,0.02010
4904.8,0.01890
4899.01,0.01917
4893.23,0.01845
4887.44,0.01942
4881.65,0.01996
4875.87,0.01827
4870.08,0.01914
4864.3,0.01993
4858.51,0.01996
4852.72,0.01951
4846.94,0.02057
4841.15,0.01922
4835.36,0.01868
4829.58,0.01864
4823.79,0.02009
4818.01,0.02029
4812.22,0.01964
4806.43,0.02005
4800.65,0.01989
4794.86,0.02017
4789.07,0.01959
4783.29,0.01921
4777.5,0.01946
4771.72,0.01849
4765.93,0.01974
4760.14,0.01958
4754.36,0.02008
4748.57,0.01874
4742.78,0.01851
4737,0.01896
4731.21,0.02028
4725.43,0.02025
4719.64,0.01991
4713.85,0.01913
4708.07,0.01929
4702.28,0.01905
4696.49,0.01916
4690.71,0.01889
4684.92,0.01901
4679.14,0.01910
4673.35,0.01978
4667.56,0.02096
4661.78,0.02080
4655.99,0.02036
4650.2,0.02064
4644.42,0.01947
4638.63,0.02009
4632.85,0.01983
4627.06,0.02035
4621.27,0.01977
4615.49,0.01924
4609.7,0.01938
4603.92,0.01976
4598.13,0.01928
4592.34,0.01912
4586.56,0.01886
4580.77,0.01932
4574.98,0.01982
4569.2,0.01944
4563.41,0.01969
4557.63,0.01921
4551.84,0.01953
4546.05,0.01908
4540.27,0.01901
4534.48,0.01985
4528.69,0.01899
4522.91,0.02041
4517.12,0.01951
4511.34,0.01914
4505.55,0.01896
4499.76,0.01857
4493.98,0.01908
4488.19,0.02022
4482.4,0.01992
4476.62,0.01951
4470.83,0.01985
4465.05,0.01872
4459.26,0.01922
4453.47,0.01832
4447.69,0.02003
4441.9,0.01972
4436.11,0.01909
4430.33,0.01924
4424.54,0.01930
4418.76,0.01895
4412.97,0.01872
4407.18,0.01950
4401.4,0.01978
4395.61,0.01906
4389.82,0.01956
4384.04,0.02025
4378.25,0.02004
4372.47,0.01967
4366.68,0.01894
4360.89,0.02032
4355.11,0.01991
4349.32,0.01976
4343.53,0.01962
4337.75,0.01894
4331.96,0.01914
4326.18,0.02003
4320.39,0.01980
4314.6,0.01980
4308.82,0.01923
4303.03,0.01947
4297.24,0.01891
4291.46,0.02031
4285.67,0.01888
4279.89,0.01927
4274.1,0.01927
4268.31,0.01957
4262.53,0.01936
4256.74,0.01946
4250.95,0.01957
4245.17,0.01956
4239.38,0.01991
4233.6,0.01974
4227.81,0.01980
4222.02,0.01970
4216.24,0.01868
4210.45,0.01913
4204.66,0.01942
4198.88,0.02025
4193.09,0.01952
4187.31,0.01948
4181.52,0.01969
4175.73,0.01947
4169.95,0.02022
4164.16,0.02038
4158.37,0.01983
4152.59,0.01988
4146.8,0.02044
4141.02,0.02002
4135.23,0.01961
4129.44,0.01939
4123.66,0.02014
4117.87,0.01923
4112.09,0.01977
4106.3,0.01908
4100.51,0.01853
4094.73,0.01909
4088.94,0.01944
4083.15,0.01933
4077.37,0.01969
4071.58,0.01934
4065.8,0.01945
4060.01,0.02028
4054.22,0.02008
4048.44,0.01974
4042.65,0.01965
4036.86,0.02005
4031.08,0.01950
4025.29,0.01987
4019.51,0.02027
4013.72,0.01956
4007.93,0.01966
4002.15,0.01961
3996.36,0.01893
3990.57,0.01944
3984.79,0.01898
3979,0.01890
3973.22,0.01945
3967.43,0.01982
3961.64,0.01965
3955.86,0.02014
3950.07,0.01968
3944.28,0.01993
3938.5,0.01962
3932.71,0.01949
3926.93,0.01956
3921.14,0.01961
3915.35,0.02009
3909.57,0.01958
3903.78,0.01936
3897.99,0.01950
3892.21,0.02002
3886.42,0.01973
3880.64,0.02000
3874.85,0.01946
3869.06,0.01987
3863.28,0.01959
3857.49,0.02021
3851.7,0.01957
3845.92,0.02014
3840.13,0.02075
3834.35,0.01962
3828.56,0.02011
3822.77,0.01991
3816.99,0.01930
3811.2,0.02016
3805.41,0.01991
3799.63,0.01923
3793.84,0.01948
3788.06,0.01946
3782.27,0.01964
3776.48,0.01982
3770.7,0.01954
3764.91,0.01973
3759.12,0.01951
3753.34,0.01953
3747.55,0.01955
3741.77,0.01975
3735.98,0.01915
3730.19,0.01950
3724.41,0.01918
3718.62,0.01957
3712.83,0.01949
3707.05,0.01959
3701.26,0.01950
3695.48,0.01921
3689.69,0.01961
3683.9,0.01950
3678.12,0.01917
3672.33,0.01952
3666.54,0.01907
3660.76,0.01912
3654.97,0.01869
3649.19,0.01884
3643.4,0.01923
3637.61,0.01891
3631.83,0.01922
3626.04,0.01833
3620.25,0.01855
3614.47,0.01846
3608.68,0.01919
3602.9,0.01892
3597.11,0.01845
3591.32,0.01912
3585.54,0.01845
3579.75,0.01850
3573.97,0.01795
3568.18,0.01876
3562.39,0.01878
3556.61,0.01854
3550.82,0.01845
3545.03,0.01865
3539.25,0.01822
3533.46,0.01818
3527.68,0.01819
3521.89,0.01837
3516.1,0.01771
3510.32,0.01800
3504.53,0.01822
3498.74,0.01809
3492.96,0.01738
3487.17,0.01831
3481.39,0.01830
3475.6,0.01780
3469.81,0.01836
3464.03,0.01829
3458.24,0.01839
3452.45,0.01832
3446.67,0.01782
3440.88,0.01789
3435.1,0.01801
3429.31,0.01829
3423.52,0.01706
3417.74,0.01738
3411.95,0.01742
3406.16,0.01778
3400.38,0.01770
3394.59,0.01751
3388.81,0.01736
3383.02,0.01752
3377.23,0.01711
3371.45,0.01690
3365.66,0.01729
3359.87,0.01767
3354.09,0.01757
3348.3,0.01647
3342.52,0.01738
3336.73,0.01761
3330.94,0.01715
3325.16,0.01780
3319.37,0.01692
3313.58,0.01763
3307.8,0.01745
3302.01,0.01755
3296.23,0.01816
3290.44,0.01769
3284.65,0.01818
3278.87,0.01776
3273.08,0.01792
3267.29,0.01722
3261.51,0.01741
3255.72,0.01772
3249.94,0.01747
3244.15,0.01789
3238.36,0.01758
3232.58,0.01708
3226.79,0.01748
3221,0.01802
3215.22,0.01760
3209.43,0.01793
3203.65,0.01794
3197.86,0.01734
3192.07,0.01703
3186.29,0.01743
3180.5,0.01767
3174.71,0.01791
3168.93,0.01761
3163.14,0.01791
3157.36,0.01710
3151.57,0.01776
3145.78,0.01801
3140,0.01769
3134.21,0.01787
3128.42,0.01796
3122.64,0.01822
3116.85,0.01744
3111.07,0.01813
3105.28,0.01796
3099.49,0.01779
3093.71,0.01804
3087.92,0.01804
3082.14,0.01783
3076.35,0.01781
3070.56,0.01767
3064.78,0.01746
3058.99,0.01717
3053.2,0.01719
3047.42,0.01779
3041.63,0.01830
3035.85,0.01768
3030.06,0.01812
3024.27,0.01759
3018.49,0.01744
3012.7,0.01705
3006.91,0.01700
3001.13,0.01741
2995.34,0.01730
2989.56,0.01713
2983.77,0.01683
2977.98,0.01667
2972.2,0.01699
2966.41,0.01692
2960.62,0.01632
2954.84,0.01736
2949.05,0.01682
2943.27,0.01630
2937.48,0.01681
2931.69,0.01687
2925.91,0.01733
2920.12,0.01743
2914.33,0.01756
2908.55,0.01817
2902.76,0.01746
2896.98,0.01756
2891.19,0.01744
2885.4,0.01761
2879.62,0.01785
2873.83,0.01824
2868.04,0.01789
2862.26,0.01757
2856.47,0.01782
2850.69,0.01756
2844.9,0.01849
2839.11,0.01808
2833.33,0.01820
2827.54,0.01815
2821.75,0.01845
2815.97,0.01833
2810.18,0.01856
2804.4,0.01887
2798.61,0.01855
2792.82,0.01857
2787.04,0.01835
2781.25,0.01827
2775.46,0.01847
2769.68,0.01846
2763.89,0.01847
2758.11,0.01847
2752.32,0.01846
2746.53,0.01853
2740.75,0.01826
2734.96,0.01791
2729.17,0.01802
2723.39,0.01823
2717.6,0.01839
2711.82,0.01816
2706.03,0.01829
2700.24,0.01837
2694.46,0.01817
2688.67,0.01811
2682.88,0.01836
2677.1,0.01785
2671.31,0.01794
2665.53,0.01811
2659.74,0.01823
2653.95,0.01824
2648.17,0.01799
2642.38,0.01810
2636.59,0.01820
2630.81,0.01849
2625.02,0.01845
2619.24,0.01849
2613.45,0.01814
2607.66,0.01846
2601.88,0.01831
2596.09,0.01853
2590.3,0.01835
2584.52,0.01857
2578.73,0.01840
2572.95,0.01822
2567.16,0.01845
2561.37,0.01806
2555.59,0.01852
2549.8,0.01819
2544.02,0.01808
2538.23,0.01810
2532.44,0.01866
2526.66,0.01862
2520.87,0.01847
2515.08,0.01826
2509.3,0.01841
2503.51,0.01828
2497.73,0.01816
2491.94,0.01812
2486.15,0.01846
2480.37,0.01858
2474.58,0.01851
2468.79,0.01821
2463.01,0.01862
2457.22,0.01842
2451.44,0.01892
2445.65,0.01800
2439.86,0.01860
2434.08,0.01814
2428.29,0.01870
2422.5,0.01839
2416.72,0.01819
2410.93,0.01814
2405.15,0.01838
2399.36,0.01847
2393.57,0.01829
2387.79,0.01830
2382,0.01835
2376.21,0.01807
2370.43,0.01802
2364.64,0.01827
2358.86,0.01809
2353.07,0.01780
2347.28,0.01818
2341.5,0.01798
2335.71,0.01867
2329.92,0.01764
2324.14,0.01816
2318.35,0.01798
2312.57,0.01837
2306.78,0.01770
2300.99,0.01819
2295.21,0.01824
2289.42,0.01794
2283.63,0.01842
2277.85,0.01809
2272.06,0.01814
2266.28,0.01869
2260.49,0.01824
2254.7,0.01841
2248.92,0.01798
2243.13,0.01800
2237.34,0.01822
2231.56,0.01800
2225.77,0.01783
2219.99,0.01769
2214.2,0.01798
2208.41,0.01843
2202.63,0.01829
2196.84,0.01819
2191.05,0.01835
2185.27,0.01833
2179.48,0.01857
2173.7,0.01818
2167.91,0.01847
2162.12,0.01845
2156.34,0.01830
2150.55,0.01818
2144.76,0.01806
2138.98,0.01817
2133.19,0.01784
2127.41,0.01775
2121.62,0.01787
2115.83,0.01817
2110.05,0.01791
2104.26,0.01789
2098.47,0.01769
2092.69,0.01797
2086.9,0.01775
2081.12,0.01806
2075.33,0.01783
2069.54,0.01809
2063.76,0.01800
2057.97,0.01777
2052.19,0.01800
2046.4,0.01816
2040.61,0.01826
2034.83,0.01789
2029.04,0.01809
2023.25,0.01780
2017.47,0.01767
2011.68,0.01809
2005.9,0.01816
2000.11,0.01762
1994.32,0.01794
1988.54,0.01760
1982.75,0.01803
1976.96,0.01807
1971.18,0.01807
1965.39,0.01792
1959.61,0.01803
1953.82,0.01776
1948.03,0.01799
1942.25,0.01859
1936.46,0.01804
1930.67,0.01833
1924.89,0.01785
1919.1,0.01766
1913.32,0.01815
1907.53,0.01788
1901.74,0.01754
1895.96,0.01776
1890.17,0.01797
1884.38,0.01779
1878.6,0.01749
1872.81,0.01764
1867.03,0.01789
1861.24,0.01746
1855.45,0.01754
1849.67,0.01740
1843.88,0.01730
1838.09,0.01719
1832.31,0.01730
1826.52,0.01714
1820.74,0.01672
1814.95,0.01704
1809.16,0.01706
1803.38,0.01672
1797.59,0.01704
1791.8,0.01648
1786.02,0.01626
1780.23,0.01630
1774.45,0.01612
1768.66,0.01585
1762.87,0.01531
1757.09,0.01485
1751.3,0.01430
1745.51,0.01491
1739.73,0.01624
1733.94,0.01687
1728.16,0.01787
1722.37,0.01852
1716.58,0.01834
1710.8,0.01795
1705.01,0.01767
1699.22,0.01708
1693.44,0.01661
1687.65,0.01658
1681.87,0.01606
1676.08,0.01614
1670.29,0.01604
1664.51,0.01544
1658.72,0.01558
1652.93,0.01588
1647.15,0.01625
1641.36,0.01590
1635.58,0.01580
1629.79,0.01595
1624,0.01640
1618.22,0.01638
1612.43,0.01595
1606.64,0.01597
1600.86,0.01597
1595.07,0.01589
1589.29,0.01608
1583.5,0.01567
1577.71,0.01583
1571.93,0.01568
1566.14,0.01529
1560.35,0.01555
1554.57,0.01537
1548.78,0.01541
1543,0.01587
1537.21,0.01560
1531.42,0.01561
1525.64,0.01573
1519.85,0.01568
1514.07,0.01575
1508.28,0.01586
1502.49,0.01569
1496.71,0.01600
1490.92,0.01581
1485.13,0.01562
1479.35,0.01581
1473.56,0.01521
1467.78,0.01566
1461.99,0.01579
1456.2,0.01569
1450.42,0.01541
1444.63,0.01631
1438.84,0.01605
1433.06,0.01609
1427.27,0.01590
1421.49,0.01588
1415.7,0.01581
1409.91,0.01584
1404.13,0.01538
1398.34,0.01517
1392.55,0.01510
1386.77,0.01497
1380.98,0.01505
1375.2,0.01533
1369.41,0.01520
1363.62,0.01531
1357.84,0.01513
1352.05,0.01528
1346.26,0.01504
1340.48,0.01508
1334.69,0.01489
1328.91,0.01457
1323.12,0.01451
1317.33,0.01447
1311.55,0.01390
1305.76,0.01436
1299.97,0.01449
1294.19,0.01514
1288.4,0.01556
1282.62,0.01593
1276.83,0.01645
1271.04,0.01677
1265.26,0.01704
1259.47,0.01726
1253.68,0.01762
1247.9,0.01717
1242.11,0.01707
1236.33,0.01679
1230.54,0.01638
1224.75,0.01597
1218.97,0.01650
1213.18,0.01625
1207.39,0.01604
1201.61,0.01528
1195.82,0.01547
1190.04,0.01526
1184.25,0.01559
1178.46,0.01530
1172.68,0.01521
1166.89,0.01518
1161.1,0.01483
1155.32,0.01506
1149.53,0.01453
1143.75,0.01454
1137.96,0.01502
1132.17,0.01494
1126.39,0.01553
1120.6,0.01555
1114.81,0.01580
1109.03,0.01547
1103.24,0.01557
1097.46,0.01549
1091.67,0.01486
1085.88,0.01512
1080.1,0.01494
1074.31,0.01658
1068.52,0.01753
1062.74,0.01697
1056.95,0.01682
1051.17,0.01664
1045.38,0.01676
1039.59,0.01672
1033.81,0.01703
1028.02,0.01694
1022.24,0.01645
1016.45,0.01709
1010.66,0.01755
1004.88,0.01745
999.09,0.01852
993.304,0.01822
987.518,0.01746
981.731,0.01763
975.945,0.01734
970.159,0.01665
964.373,0.01756
958.586,0.01672
952.8,0.01665
947.014,0.01642
941.228,0.01659
935.441,0.01703
929.655,0.01714
923.869,0.01648
918.083,0.01642
912.297,0.01675
906.51,0.01602
900.724,0.01647
894.938,0.01587
889.152,0.01611
883.365,0.01641
877.579,0.01646
871.793,0.01596
866.007,0.01543
860.22,0.01558
854.434,0.01578
848.648,0.01546
842.862,0.01546
837.075,0.01587
831.289,0.01605
825.503,0.01635
819.717,0.01592
813.931,0.01635
808.144,0.01607
802.358,0.01583
796.572,0.01568
790.786,0.01515
784.999,0.01532
779.213,0.01611
773.427,0.01481
767.641,0.01513
761.854,0.01564
756.068,0.01497
750.282,0.01553
744.496,0.01517
738.709,0.01523
732.923,0.01595
727.137,0.01504
721.351,0.01480
715.565,0.01471
709.778,0.01474
703.992,0.01500
698.206,0.01475
692.42,0.01542
686.633,0.01523
680.847,0.01531
675.061,0.01517
669.275,0.01296
663.488,0.01437
657.702,0.01388
651.916,0.01473
646.13,0.01370
640.343,0.01329
634.557,0.01410
628.771,0.01452
622.985,0.01428
617.198,0.01112
611.412,0.01391
605.626,0.01437
599.84,0.01172