File: 01_Data/Polyester_Bed_Skirt/FTIR/IS/Polyester_Bed_Skirt_IS_S_220822_R7.dpt
7497.03,0.31263
7491.25,0.31823
7485.46,0.31792
7479.67,0.31310
7473.89,0.31997
7468.1,0.31540
7462.32,0.32097
7456.53,0.31104
7450.74,0.31666
7444.96,0.31054
7439.17,0.30933
7433.38,0.32126
7427.6,0.31567
7421.81,0.31999
7416.03,0.31488
7410.24,0.31927
7404.45,0.31903
7398.67,0.31730
7392.88,0.31288
7387.09,0.31533
7381.31,0.30696
7375.52,0.31328
7369.74,0.31530
7363.95,0.31458
7358.16,0.31203
7352.38,0.30917
7346.59,0.31212
7340.8,0.31839
7335.02,0.31568
7329.23,0.31401
7323.45,0.31172
7317.66,0.31206
7311.87,0.30771
7306.09,0.31038
7300.3,0.31502
7294.51,0.31239
7288.73,0.31023
7282.94,0.30924
7277.16,0.31095
7271.37,0.30788
7265.58,0.30565
7259.8,0.30969
7254.01,0.30829
7248.22,0.31043
7242.44,0.30996
7236.65,0.31228
7230.87,0.31590
7225.08,0.31172
7219.29,0.31005
7213.51,0.31294
7207.72,0.30601
7201.93,0.30955
7196.15,0.31150
7190.36,0.30981
7184.58,0.31045
7178.79,0.30342
7173,0.31233
7167.22,0.31555
7161.43,0.31301
7155.65,0.30725
7149.86,0.30418
7144.07,0.31168
7138.29,0.30842
7132.5,0.30382
7126.71,0.30504
7120.93,0.31343
7115.14,0.31085
7109.36,0.30993
7103.57,0.31772
7097.78,0.31630
7092,0.31467
7086.21,0.30922
7080.42,0.30648
7074.64,0.30891
7068.85,0.30377
7063.07,0.31017
7057.28,0.31268
7051.49,0.31066
7045.71,0.30469
7039.92,0.31044
7034.13,0.31219
7028.35,0.30874
7022.56,0.30959
7016.78,0.30515
7010.99,0.31275
7005.2,0.30990
6999.42,0.31079
6993.63,0.31048
6987.84,0.30474
6982.06,0.31213
6976.27,0.30822
6970.49,0.31373
6964.7,0.30716
6958.91,0.30785
6953.13,0.31234
6947.34,0.30964
6941.55,0.31005
6935.77,0.31097
6929.98,0.30682
6924.2,0.30994
6918.41,0.30730
6912.62,0.30914
6906.84,0.31402
6901.05,0.30817
6895.26,0.31021
6889.48,0.31194
6883.69,0.31013
6877.91,0.31603
6872.12,0.31214
6866.33,0.31358
6860.55,0.31247
6854.76,0.31393
6848.97,0.31097
6843.19,0.30907
6837.4,0.31589
6831.62,0.31090
6825.83,0.30647
6820.04,0.31046
6814.26,0.31316
6808.47,0.31409
6802.68,0.30737
6796.9,0.30912
6791.11,0.31567
6785.33,0.31130
6779.54,0.31026
6773.75,0.30845
6767.97,0.31037
6762.18,0.31400
6756.39,0.31192
6750.61,0.31260
6744.82,0.31047
6739.04,0.31224
6733.25,0.31363
6727.46,0.31440
6721.68,0.31300
6715.89,0.30673
6710.1,0.30840
6704.32,0.30832
6698.53,0.30576
6692.75,0.31131
6686.96,0.31193
6681.17,0.30844
6675.39,0.31142
6669.6,0.30581
6663.82,0.30859
6658.03,0.31449
6652.24,0.31427
6646.46,0.31387
6640.67,0.31069
6634.88,0.31365
6629.1,0.31284
6623.31,0.30899
6617.53,0.31084
6611.74,0.31270
6605.95,0.31202
6600.17,0.30846
6594.38,0.30800
6588.59,0.30936
6582.81,0.31092
6577.02,0.31245
6571.24,0.31403
6565.45,0.31582
6559.66,0.31198
6553.88,0.31195
6548.09,0.31011
6542.3,0.31442
6536.52,0.31289
6530.73,0.31244
6524.95,0.31298
6519.16,0.31131
6513.37,0.31025
6507.59,0.31228
6501.8,0.31082
6496.01,0.31165
6490.23,0.31170
6484.44,0.31350
6478.66,0.31238
6472.87,0.31464
6467.08,0.31239
6461.3,0.31020
6455.51,0.31229
6449.72,0.31377
6443.94,0.31354
6438.15,0.30877
6432.37,0.31037
6426.58,0.31107
6420.79,0.31105
6415.01,0.31414
6409.22,0.31360
6403.43,0.31017
6397.65,0.31074
6391.86,0.30946
6386.08,0.30802
6380.29,0.30956
6374.5,0.30803
6368.72,0.31011
6362.93,0.30910
6357.14,0.30908
6351.36,0.30872
6345.57,0.30661
6339.79,0.31030
6334,0.30687
6328.21,0.30793
6322.43,0.31081
6316.64,0.31041
6310.85,0.30867
6305.07,0.31102
6299.28,0.30983
6293.5,0.31087
6287.71,0.31063
6281.92,0.30817
6276.14,0.30827
6270.35,0.30976
6264.56,0.30974
6258.78,0.30850
6252.99,0.30897
6247.21,0.31154
6241.42,0.31105
6235.63,0.30710
6229.85,0.30881
6224.06,0.31085
6218.27,0.30852
6212.49,0.30834
6206.7,0.30896
6200.92,0.30683
6195.13,0.30512
6189.34,0.30766
6183.56,0.30765
6177.77,0.30532
6171.98,0.30695
6166.2,0.30829
6160.41,0.30962
6154.63,0.30702
6148.84,0.30706
6143.05,0.30833
6137.27,0.30511
6131.48,0.30797
6125.7,0.30718
6119.91,0.30546
6114.12,0.30613
6108.34,0.30758
6102.55,0.30929
6096.76,0.30485
6090.98,0.30618
6085.19,0.30854
6079.41,0.30642
6073.62,0.30715
6067.83,0.30526
6062.05,0.30568
6056.26,0.30387
6050.47,0.30450
6044.69,0.30614
6038.9,0.30731
6033.12,0.30573
6027.33,0.30589
6021.54,0.30751
6015.76,0.30635
6009.97,0.30545
6004.18,0.30726
5998.4,0.30830
5992.61,0.30743
5986.83,0.30523
5981.04,0.30134
5975.25,0.30417
5969.47,0.30322
5963.68,0.30441
5957.89,0.30218
5952.11,0.30305
5946.32,0.30034
5940.54,0.29916
5934.75,0.30036
5928.96,0.29611
5923.18,0.28780
5917.39,0.28271
5911.6,0.27510
5905.82,0.27279
5900.03,0.27204
5894.25,0.27185
5888.46,0.27396
5882.67,0.27281
5876.89,0.26668
5871.1,0.26225
5865.31,0.26051
5859.53,0.25776
5853.74,0.25654
5847.96,0.25736
5842.17,0.26297
5836.38,0.26469
5830.6,0.26674
5824.81,0.26746
5819.02,0.26605
5813.24,0.26233
5807.45,0.25830
5801.67,0.25615
5795.88,0.25363
5790.09,0.25903
5784.31,0.26046
5778.52,0.25936
5772.73,0.26032
5766.95,0.26198
5761.16,0.25922
5755.38,0.25811
5749.59,0.26137
5743.8,0.26657
5738.02,0.26733
5732.23,0.27413
5726.44,0.27592
5720.66,0.27668
5714.87,0.27688
5709.09,0.27660
5703.3,0.27795
5697.51,0.27736
5691.73,0.27747
5685.94,0.27845
5680.15,0.27727
5674.37,0.27646
5668.58,0.27949
5662.8,0.27757
5657.01,0.28015
5651.22,0.27571
5645.44,0.27853
5639.65,0.27803
5633.87,0.28017
5628.08,0.28209
5622.29,0.28184
5616.51,0.28308
5610.72,0.28340
5604.93,0.28387
5599.15,0.28539
5593.36,0.28513
5587.58,0.28535
5581.79,0.28449
5576,0.28403
5570.22,0.28429
5564.43,0.28521
5558.64,0.28318
5552.86,0.28399
5547.07,0.28691
5541.29,0.28459
5535.5,0.28377
5529.71,0.28389
5523.93,0.28327
5518.14,0.28220
5512.35,0.28288
5506.57,0.28248
5500.78,0.28390
5495,0.28284
5489.21,0.28322
5483.42,0.28302
5477.64,0.28444
5471.85,0.28340
5466.06,0.28179
5460.28,0.28396
5454.49,0.28413
5448.71,0.28447
5442.92,0.28522
5437.13,0.28611
5431.35,0.28648
5425.56,0.28700
5419.77,0.28855
5413.99,0.28891
5408.2,0.28950
5402.42,0.28919
5396.63,0.28863
5390.84,0.29081
5385.06,0.29051
5379.27,0.29219
5373.48,0.28958
5367.7,0.29010
5361.91,0.29180
5356.13,0.29074
5350.34,0.29116
5344.55,0.29193
5338.77,0.29117
5332.98,0.29096
5327.19,0.29141
5321.41,0.29107
5315.62,0.29113
5309.84,0.29125
5304.05,0.29168
5298.26,0.29207
5292.48,0.29072
5286.69,0.29107
5280.9,0.29131
5275.12,0.29046
5269.33,0.29101
5263.55,0.29070
5257.76,0.29016
5251.97,0.29058
5246.19,0.29309
5240.4,0.29149
5234.61,0.29202
5228.83,0.29020
5223.04,0.29058
5217.26,0.29088
5211.47,0.29135
5205.68,0.28943
5199.9,0.29100
5194.11,0.29235
5188.32,0.29179
5182.54,0.29006
5176.75,0.29001
5170.97,0.29096
5165.18,0.29090
5159.39,0.29014
5153.61,0.29045
5147.82,0.29060
5142.03,0.29118
5136.25,0.29038
5130.46,0.29090
5124.68,0.29087
5118.89,0.29038
5113.1,0.29122
5107.32,0.29118
5101.53,0.29025
5095.75,0.29015
5089.96,0.29028
5084.17,0.28938
5078.39,0.28959
5072.6,0.28920
5066.81,0.28858
5061.03,0.28907
5055.24,0.28916
5049.46,0.29027
5043.67,0.28932
5037.88,0.28992
5032.1,0.29069
5026.31,0.29241
5020.52,0.29206
5014.74,0.29191
5008.95,0.29173
5003.17,0.29143
4997.38,0.29224
4991.59,0.29153
4985.81,0.29175
4980.02,0.29273
4974.23,0.29236
4968.45,0.29214
4962.66,0.29246
4956.88,0.29287
4951.09,0.29266
4945.3,0.29242
4939.52,0.29232
4933.73,0.29209
4927.94,0.29293
4922.16,0.29281
4916.37,0.29326
4910.59,0.29304
4904.8,0.29418
4899.01,0.29289
4893.23,0.29269
4887.44,0.29203
4881.65,0.29209
4875.87,0.29282
4870.08,0.29283
4864.3,0.29246
4858.51,0.29278
4852.72,0.29201
4846.94,0.29221
4841.15,0.29222
4835.36,0.29238
4829.58,0.29172
4823.79,0.29200
4818.01,0.29184
4812.22,0.29249
4806.43,0.29228
4800.65,0.29141
4794.86,0.29201
4789.07,0.29208
4783.29,0.29216
4777.5,0.29160
4771.72,0.29169
4765.93,0.29178
4760.14,0.29212
4754.36,0.29186
4748.57,0.29224
4742.78,0.29191
4737,0.29165
4731.21,0.29263
4725.43,0.29205
4719.64,0.29146
4713.85,0.29174
4708.07,0.29258
4702.28,0.29212
4696.49,0.29207
4690.71,0.29182
4684.92,0.29234
4679.14,0.29150
4673.35,0.29092
4667.56,0.29086
4661.78,0.29078
4655.99,0.29096
4650.2,0.28920
4644.42,0.28958
4638.63,0.28883
4632.85,0.29005
4627.06,0.28941
4621.27,0.28833
4615.49,0.28840
4609.7,0.28803
4603.92,0.28785
4598.13,0.28654
4592.34,0.28664
4586.56,0.28492
4580.77,0.28587
4574.98,0.28415
4569.2,0.28480
4563.41,0.28409
4557.63,0.28398
4551.84,0.28415
4546.05,0.28434
4540.27,0.28372
4534.48,0.28371
4528.69,0.28360
4522.91,0.28361
4517.12,0.28251
4511.34,0.28193
4505.55,0.28197
4499.76,0.28159
4493.98,0.28171
4488.19,0.28112
4482.4,0.27988
4476.62,0.27986
4470.83,0.27833
4465.05,0.27719
4459.26,0.27597
4453.47,0.27408
4447.69,0.27006
4441.9,0.26549
4436.11,0.25950
4430.33,0.25052
4424.54,0.24026
4418.76,0.22847
4412.97,0.21817
4407.18,0.20834
4401.4,0.19850
4395.61,0.18886
4389.82,0.18433
4384.04,0.19035
4378.25,0.19670
4372.47,0.20039
4366.68,0.20411
4360.89,0.20637
4355.11,0.20468
4349.32,0.19765
4343.53,0.18490
4337.75,0.16760
4331.96,0.15384
4326.18,0.14666
4320.39,0.14651
4314.6,0.14963
4308.82,0.15374
4303.03,0.16301
4297.24,0.17149
4291.46,0.17551
4285.67,0.17562
4279.89,0.17569
4274.1,0.17626
4268.31,0.17532
4262.53,0.17143
4256.74,0.16553
4250.95,0.15736
4245.17,0.15144
4239.38,0.15096
4233.6,0.15924
4227.81,0.16671
4222.02,0.16816
4216.24,0.16932
4210.45,0.17141
4204.66,0.17353
4198.88,0.17752
4193.09,0.18278
4187.31,0.18560
4181.52,0.18340
4175.73,0.17997
4169.95,0.17598
4164.16,0.17710
4158.37,0.18061
4152.59,0.18368
4146.8,0.18723
4141.02,0.19035
4135.23,0.19099
4129.44,0.18850
4123.66,0.18584
4117.87,0.18523
4112.09,0.18697
4106.3,0.19136
4100.51,0.19627
4094.73,0.19807
4088.94,0.19544
4083.15,0.19009
4077.37,0.18350
4071.58,0.17615
4065.8,0.16948
4060.01,0.16364
4054.22,0.16967
4048.44,0.18279
4042.65,0.19261
4036.86,0.19933
4031.08,0.20221
4025.29,0.20339
4019.51,0.20559
4013.72,0.20878
4007.93,0.21108
4002.15,0.21146
3996.36,0.20804
3990.57,0.20952
3984.79,0.21289
3979,0.21726
3973.22,0.21991
3967.43,0.22058
3961.64,0.22186
3955.86,0.22274
3950.07,0.22363
3944.28,0.22284
3938.5,0.22040
3932.71,0.22032
3926.93,0.22014
3921.14,0.22142
3915.35,0.22451
3909.57,0.22669
3903.78,0.22818
3897.99,0.22865
3892.21,0.22871
3886.42,0.22864
3880.64,0.22955
3874.85,0.23006
3869.06,0.23137
3863.28,0.23239
3857.49,0.23395
3851.7,0.23668
3845.92,0.23599
3840.13,0.23507
3834.35,0.23443
3828.56,0.23484
3822.77,0.23491
3816.99,0.23325
3811.2,0.23388
3805.41,0.23525
3799.63,0.23520
3793.84,0.23592
3788.06,0.23681
3782.27,0.23782
3776.48,0.23600
3770.7,0.23309
3764.91,0.23028
3759.12,0.23187
3753.34,0.23395
3747.55,0.23712
3741.77,0.23849
3735.98,0.23930
3730.19,0.24075
3724.41,0.24091
3718.62,0.24201
3712.83,0.24199
3707.05,0.24145
3701.26,0.24162
3695.48,0.24100
3689.69,0.24187
3683.9,0.24337
3678.12,0.24495
3672.33,0.24919
3666.54,0.25213
3660.76,0.25445
3654.97,0.25539
3649.19,0.25524
3643.4,0.25374
3637.61,0.25137
3631.83,0.25049
3626.04,0.25365
3620.25,0.25607
3614.47,0.25760
3608.68,0.25676
3602.9,0.25571
3597.11,0.25540
3591.32,0.25406
3585.54,0.25412
3579.75,0.25459
3573.97,0.25565
3568.18,0.25632
3562.39,0.25646
3556.61,0.25535
3550.82,0.25476
3545.03,0.25493
3539.25,0.25358
3533.46,0.25222
3527.68,0.25146
3521.89,0.25080
3516.1,0.25092
3510.32,0.25009
3504.53,0.24925
3498.74,0.24829
3492.96,0.24671
3487.17,0.24632
3481.39,0.24437
3475.6,0.24295
3469.81,0.24033
3464.03,0.23838
3458.24,0.23630
3452.45,0.23444
3446.67,0.23126
3440.88,0.22903
3435.1,0.22679
3429.31,0.22366
3423.52,0.22076
3417.74,0.21829
3411.95,0.21747
3406.16,0.21742
3400.38,0.21991
3394.59,0.22096
3388.81,0.22073
3383.02,0.21943
3377.23,0.21637
3371.45,0.21399
3365.66,0.21244
3359.87,0.21040
3354.09,0.20830
3348.3,0.20585
3342.52,0.20571
3336.73,0.20727
3330.94,0.20734
3325.16,0.20771
3319.37,0.20230
3313.58,0.19302
3307.8,0.17686
3302.01,0.16152
3296.23,0.16454
3290.44,0.17907
3284.65,0.18971
3278.87,0.19551
3273.08,0.19923
3267.29,0.20231
3261.51,0.20401
3255.72,0.20588
3249.94,0.20657
3244.15,0.20561
3238.36,0.20118
3232.58,0.19575
3226.79,0.18787
3221,0.17939
3215.22,0.17079
3209.43,0.16447
3203.65,0.15933
3197.86,0.15659
3192.07,0.15527
3186.29,0.15612
3180.5,0.15786
3174.71,0.16012
3168.93,0.16203
3163.14,0.16188
3157.36,0.16023
3151.57,0.15833
3145.78,0.15705
3140,0.15637
3134.21,0.15803
3128.42,0.16074
3122.64,0.16403
3116.85,0.16643
3111.07,0.16762
3105.28,0.16780
3099.49,0.16722
3093.71,0.16664
3087.92,0.16558
3082.14,0.16494
3076.35,0.16240
3070.56,0.16002
3064.78,0.15757
3058.99,0.15413
3053.2,0.15087
3047.42,0.14725
3041.63,0.14396
3035.85,0.13942
3030.06,0.13317
3024.27,0.12449
3018.49,0.11392
3012.7,0.10233
3006.91,0.09016
3001.13,0.07685
2995.34,0.06154
2989.56,0.04719
2983.77,0.03654
2977.98,0.02893
2972.2,0.02488
2966.41,0.02453
2960.62,0.02847
2954.84,0.03085
2949.05,0.03249
2943.27,0.03239
2937.48,0.03062
2931.69,0.02859
2925.91,0.03016
2920.12,0.03399
2914.33,0.03753
2908.55,0.03562
2902.76,0.03569
2896.98,0.03517
2891.19,0.03459
2885.4,0.03398
2879.62,0.03350
2873.83,0.03386
2868.04,0.03388
2862.26,0.03582
2856.47,0.03738
2850.69,0.03644
2844.9,0.03370
2839.11,0.03425
2833.33,0.03712
2827.54,0.04262
2821.75,0.04952
2815.97,0.05621
2810.18,0.06139
2804.4,0.06878
2798.61,0.07709
2792.82,0.08304
2787.04,0.09505
2781.25,0.10770
2775.46,0.11715
2769.68,0.12199
2763.89,0.12524
2758.11,0.12910
2752.32,0.13038
2746.53,0.12856
2740.75,0.12096
2734.96,0.11062
2729.17,0.10153
2723.39,0.09134
2717.6,0.09884
2711.82,0.11327
2706.03,0.12285
2700.24,0.13081
2694.46,0.13393
2688.67,0.13248
2682.88,0.13208
2677.1,0.13188
2671.31,0.13398
2665.53,0.13389
2659.74,0.13301
2653.95,0.13745
2648.17,0.14241
2642.38,0.14423
2636.59,0.14609
2630.81,0.14163
2625.02,0.13320
2619.24,0.12680
2613.45,0.12262
2607.66,0.12254
2601.88,0.12380
2596.09,0.12190
2590.3,0.11796
2584.52,0.11120
2578.73,0.11021
2572.95,0.11614
2567.16,0.12091
2561.37,0.12243
2555.59,0.12272
2549.8,0.12224
2544.02,0.12239
2538.23,0.11834
2532.44,0.10340
2526.66,0.09003
2520.87,0.08214
2515.08,0.07848
2509.3,0.07936
2503.51,0.09009
2497.73,0.10918
2491.94,0.13198
2486.15,0.14922
2480.37,0.16212
2474.58,0.17585
2468.79,0.18733
2463.01,0.19248
2457.22,0.19409
2451.44,0.19559
2445.65,0.19543
2439.86,0.19402
2434.08,0.18969
2428.29,0.18787
2422.5,0.19092
2416.72,0.19534
2410.93,0.19696
2405.15,0.19633
2399.36,0.19525
2393.57,0.19712
2387.79,0.19987
2382,0.20060
2376.21,0.19967
2370.43,0.20002
2364.64,0.19915
2358.86,0.19904
2353.07,0.20099
2347.28,0.20472
2341.5,0.20786
2335.71,0.20906
2329.92,0.21091
2324.14,0.21418
2318.35,0.21749
2312.57,0.21973
2306.78,0.22013
2300.99,0.21987
2295.21,0.22033
2289.42,0.22162
2283.63,0.22277
2277.85,0.22058
2272.06,0.21613
2266.28,0.21337
2260.49,0.21121
2254.7,0.20982
2248.92,0.21377
2243.13,0.21785
2237.34,0.21774
2231.56,0.21536
2225.77,0.21621
2219.99,0.21772
2214.2,0.21697
2208.41,0.21589
2202.63,0.21398
2196.84,0.21275
2191.05,0.21213
2185.27,0.21104
2179.48,0.21015
2173.7,0.20925
2167.91,0.20958
2162.12,0.21176
2156.34,0.21177
2150.55,0.21033
2144.76,0.20913
2138.98,0.20639
2133.19,0.20363
2127.41,0.20891
2121.62,0.22119
2115.83,0.23020
2110.05,0.23408
2104.26,0.23536
2098.47,0.23578
2092.69,0.23614
2086.9,0.23675
2081.12,0.24082
2075.33,0.24369
2069.54,0.24543
2063.76,0.24647
2057.97,0.24539
2052.19,0.24426
2046.4,0.24394
2040.61,0.24445
2034.83,0.24405
2029.04,0.24331
2023.25,0.24400
2017.47,0.24468
2011.68,0.24494
2005.9,0.24479
2000.11,0.24396
1994.32,0.24286
1988.54,0.24314
1982.75,0.24425
1976.96,0.24481
1971.18,0.24480
1965.39,0.24168
1959.61,0.23724
1953.82,0.24079
1948.03,0.24172
1942.25,0.24179
1936.46,0.24127
1930.67,0.24003
1924.89,0.23785
1919.1,0.23620
1913.32,0.23471
1907.53,0.23399
1901.74,0.23253
1895.96,0.22893
1890.17,0.22832
1884.38,0.23229
1878.6,0.23354
1872.81,0.23332
1867.03,0.23216
1861.24,0.22951
1855.45,0.22669
1849.67,0.22475
1843.88,0.22233
1838.09,0.21742
1832.31,0.21291
1826.52,0.21069
1820.74,0.20738
1814.95,0.19908
1809.16,0.17966
1803.38,0.12525
1797.59,0.07184
1791.8,0.07779
1786.02,0.13399
1780.23,0.17014
1774.45,0.18142
1768.66,0.18122
1762.87,0.17532
1757.09,0.16731
1751.3,0.15989
1745.51,0.15059
1739.73,0.13835
1733.94,0.13952
1728.16,0.14253
1722.37,0.15898
1716.58,0.16329
1710.8,0.16459
1705.01,0.16517
1699.22,0.16548
1693.44,0.16510
1687.65,0.16534
1681.87,0.16536
1676.08,0.16551
1670.29,0.16643
1664.51,0.16550
1658.72,0.16138
1652.93,0.15406
1647.15,0.14183
1641.36,0.12227
1635.58,0.12830
1629.79,0.14358
1624,0.14840
1618.22,0.14979
1612.43,0.14975
1606.64,0.15044
1600.86,0.15060
1595.07,0.14742
1589.29,0.13983
1583.5,0.13822
1577.71,0.14242
1571.93,0.14743
1566.14,0.14612
1560.35,0.14336
1554.57,0.14058
1548.78,0.14101
1543,0.13617
1537.21,0.12925
1531.42,0.12285
1525.64,0.11520
1519.85,0.10695
1514.07,0.09808
1508.28,0.09066
1502.49,0.08188
1496.71,0.07418
1490.92,0.06643
1485.13,0.05865
1479.35,0.05259
1473.56,0.04684
1467.78,0.04154
1461.99,0.03971
1456.2,0.04015
1450.42,0.04170
1444.63,0.04407
1438.84,0.04515
1433.06,0.04761
1427.27,0.05025
1421.49,0.05338
1415.7,0.05820
1409.91,0.06091
1404.13,0.05881
1398.34,0.05702
1392.55,0.05810
1386.77,0.05716
1380.98,0.04567
1375.2,0.04436
1369.41,0.05744
1363.62,0.06529
1357.84,0.06472
1352.05,0.08019
1346.26,0.09540
1340.48,0.10561
1334.69,0.10839
1328.91,0.10548
1323.12,0.11427
1317.33,0.12255
1311.55,0.12702
1305.76,0.11129
1299.97,0.12020
1294.19,0.13169
1288.4,0.14671
1282.62,0.15505
1276.83,0.16245
1271.04,0.16329
1265.26,0.15648
1259.47,0.13971
1253.68,0.12992
1247.9,0.15780
1242.11,0.16653
1236.33,0.17182
1230.54,0.17316
1224.75,0.16746
1218.97,0.15912
1213.18,0.16932
1207.39,0.17547
1201.61,0.17380
1195.82,0.16906
1190.04,0.16411
1184.25,0.15156
1178.46,0.12941
1172.68,0.08803
1166.89,0.06011
1161.1,0.07895
1155.32,0.09612
1149.53,0.11455
1143.75,0.15129
1137.96,0.18638
1132.17,0.20748
1126.39,0.21330
1120.6,0.21076
1114.81,0.20000
1109.03,0.18446
1103.24,0.15855
1097.46,0.17899
1091.67,0.20241
1085.88,0.20831
1080.1,0.21512
1074.31,0.21637
1068.52,0.21353
1062.74,0.21196
1056.95,0.20759
1051.17,0.19652
1045.38,0.17128
1039.59,0.18273
1033.81,0.19094
1028.02,0.18988
1022.24,0.18414
1016.45,0.17369
1010.66,0.15601
1004.88,0.12002
999.09,0.06801
993.304,0.09379
987.518,0.13953
981.731,0.12706
975.945,0.07219
970.159,0.07540
964.373,0.14282
958.586,0.17849
952.8,0.19352
947.014,0.19574
941.228,0.18152
935.441,0.20136
929.655,0.22133
923.869,0.22917
918.083,0.23029
912.297,0.22242
906.51,0.20081
900.724,0.14132
894.938,0.16525
889.152,0.18106
883.365,0.08564
877.579,0.04718
871.793,0.06284
866.007,0.12600
860.22,0.16651
854.434,0.16997
848.648,0.12216
842.862,0.08598
837.075,0.11817
831.289,0.16967
825.503,0.18815
819.717,0.18842
813.931,0.15792
808.144,0.12694
802.358,0.16734
796.572,0.19198
790.786,0.20624
784.999,0.21842
779.213,0.22673
773.427,0.23188
767.641,0.23691
761.854,0.24237
756.068,0.24639
750.282,0.24489
744.496,0.24124
738.709,0.23640
732.923,0.22662
727.137,0.20909
721.351,0.16697
715.565,0.07822
709.778,0.09121
703.992,0.18728
698.206,0.22264
692.42,0.23623
686.633,0.24249
680.847,0.24303
675.061,0.24384
669.275,0.24446
663.488,0.24310
657.702,0.24273
651.916,0.23828
646.13,0.23730
640.343,0.23483
634.557,0.22927
628.771,0.22644
622.985,0.22536
617.198,0.21993
611.412,0.21980
605.626,0.21149
599.84,0.20872