File: 01_Data/Polyester_Bed_Skirt/FTIR/IS/Polyester_Bed_Skirt_IS_T_220822_R2.dpt
7497.03,0.02336
7491.25,0.02169
7485.46,0.01377
7479.67,0.01975
7473.89,0.02982
7468.1,0.02628
7462.32,0.02843
7456.53,0.02166
7450.74,0.02776
7444.96,0.02215
7439.17,0.02073
7433.38,0.01632
7427.6,0.02785
7421.81,0.02053
7416.03,0.01408
7410.24,0.02781
7404.45,0.02684
7398.67,0.02009
7392.88,0.02519
7387.09,0.01769
7381.31,0.02134
7375.52,0.01717
7369.74,0.02304
7363.95,0.02296
7358.16,0.03087
7352.38,0.02136
7346.59,0.01478
7340.8,0.01826
7335.02,0.02207
7329.23,0.01613
7323.45,0.02264
7317.66,0.02678
7311.87,0.02524
7306.09,0.02529
7300.3,0.01775
7294.51,0.02289
7288.73,0.02218
7282.94,0.02373
7277.16,0.01778
7271.37,0.02151
7265.58,0.02472
7259.8,0.02279
7254.01,0.01797
7248.22,0.02117
7242.44,0.02218
7236.65,0.02016
7230.87,0.01849
7225.08,0.02699
7219.29,0.02275
7213.51,0.02019
7207.72,0.02493
7201.93,0.02424
7196.15,0.02448
7190.36,0.01900
7184.58,0.02290
7178.79,0.02476
7173,0.02023
7167.22,0.01961
7161.43,0.02038
7155.65,0.02748
7149.86,0.01907
7144.07,0.02608
7138.29,0.02380
7132.5,0.02194
7126.71,0.02451
7120.93,0.01960
7115.14,0.02227
7109.36,0.01756
7103.57,0.02323
7097.78,0.02017
7092,0.02258
7086.21,0.02638
7080.42,0.02435
7074.64,0.02754
7068.85,0.01793
7063.07,0.02228
7057.28,0.01899
7051.49,0.01959
7045.71,0.01432
7039.92,0.02228
7034.13,0.01973
7028.35,0.02243
7022.56,0.02429
7016.78,0.01589
7010.99,0.02670
7005.2,0.01948
6999.42,0.02045
6993.63,0.02301
6987.84,0.02170
6982.06,0.01987
6976.27,0.02243
6970.49,0.02126
6964.7,0.01755
6958.91,0.01857
6953.13,0.01542
6947.34,0.01431
6941.55,0.02428
6935.77,0.02233
6929.98,0.01702
6924.2,0.01950
6918.41,0.02532
6912.62,0.01731
6906.84,0.01533
6901.05,0.01906
6895.26,0.02573
6889.48,0.02386
6883.69,0.01901
6877.91,0.01987
6872.12,0.02060
6866.33,0.01820
6860.55,0.01677
6854.76,0.02133
6848.97,0.01572
6843.19,0.01711
6837.4,0.01326
6831.62,0.01275
6825.83,0.01965
6820.04,0.02304
6814.26,0.01767
6808.47,0.01916
6802.68,0.02721
6796.9,0.01895
6791.11,0.02063
6785.33,0.01570
6779.54,0.01895
6773.75,0.02196
6767.97,0.02277
6762.18,0.01792
6756.39,0.02283
6750.61,0.02018
6744.82,0.01750
6739.04,0.02141
6733.25,0.01616
6727.46,0.01599
6721.68,0.02126
6715.89,0.02039
6710.1,0.01525
6704.32,0.01676
6698.53,0.01657
6692.75,0.01767
6686.96,0.02060
6681.17,0.01598
6675.39,0.02124
6669.6,0.01829
6663.82,0.01797
6658.03,0.01693
6652.24,0.02271
6646.46,0.01910
6640.67,0.01547
6634.88,0.02147
6629.1,0.02053
6623.31,0.02156
6617.53,0.01921
6611.74,0.01614
6605.95,0.02347
6600.17,0.01588
6594.38,0.01597
6588.59,0.01828
6582.81,0.02520
6577.02,0.02105
6571.24,0.02438
6565.45,0.01831
6559.66,0.02049
6553.88,0.01684
6548.09,0.02244
6542.3,0.02047
6536.52,0.01993
6530.73,0.02118
6524.95,0.02289
6519.16,0.01710
6513.37,0.01813
6507.59,0.01699
6501.8,0.01362
6496.01,0.01775
6490.23,0.01812
6484.44,0.01780
6478.66,0.01807
6472.87,0.01967
6467.08,0.02027
6461.3,0.02104
6455.51,0.01780
6449.72,0.01763
6443.94,0.01839
6438.15,0.02083
6432.37,0.02160
6426.58,0.01933
6420.79,0.01698
6415.01,0.01903
6409.22,0.01867
6403.43,0.01820
6397.65,0.01850
6391.86,0.02039
6386.08,0.02146
6380.29,0.01706
6374.5,0.01862
6368.72,0.01997
6362.93,0.01632
6357.14,0.01846
6351.36,0.01682
6345.57,0.01913
6339.79,0.01991
6334,0.01714
6328.21,0.02021
6322.43,0.02178
6316.64,0.02263
6310.85,0.02034
6305.07,0.01691
6299.28,0.01626
6293.5,0.01701
6287.71,0.01798
6281.92,0.02329
6276.14,0.01763
6270.35,0.02047
6264.56,0.02071
6258.78,0.02173
6252.99,0.01758
6247.21,0.01772
6241.42,0.02154
6235.63,0.01829
6229.85,0.02082
6224.06,0.02208
6218.27,0.01791
6212.49,0.01958
6206.7,0.02123
6200.92,0.02039
6195.13,0.01892
6189.34,0.02277
6183.56,0.02018
6177.77,0.01669
6171.98,0.01990
6166.2,0.02306
6160.41,0.02107
6154.63,0.02119
6148.84,0.01932
6143.05,0.01830
6137.27,0.02025
6131.48,0.01696
6125.7,0.01781
6119.91,0.01926
6114.12,0.01805
6108.34,0.02014
6102.55,0.02047
6096.76,0.02110
6090.98,0.02214
6085.19,0.01698
6079.41,0.01918
6073.62,0.01773
6067.83,0.01852
6062.05,0.02000
6056.26,0.01933
6050.47,0.01962
6044.69,0.02075
6038.9,0.02133
6033.12,0.02026
6027.33,0.01915
6021.54,0.02013
6015.76,0.01837
6009.97,0.01978
6004.18,0.01737
5998.4,0.01851
5992.61,0.01714
5986.83,0.01957
5981.04,0.02096
5975.25,0.01845
5969.47,0.01746
5963.68,0.02002
5957.89,0.02183
5952.11,0.01795
5946.32,0.01652
5940.54,0.01804
5934.75,0.01855
5928.96,0.01813
5923.18,0.01778
5917.39,0.02019
5911.6,0.01886
5905.82,0.01901
5900.03,0.01863
5894.25,0.01638
5888.46,0.02049
5882.67,0.01936
5876.89,0.01913
5871.1,0.01787
5865.31,0.01810
5859.53,0.02005
5853.74,0.02134
5847.96,0.01826
5842.17,0.01837
5836.38,0.01851
5830.6,0.02017
5824.81,0.01798
5819.02,0.01835
5813.24,0.01768
5807.45,0.01935
5801.67,0.01959
5795.88,0.01898
5790.09,0.01898
5784.31,0.01904
5778.52,0.01662
5772.73,0.01855
5766.95,0.01573
5761.16,0.01873
5755.38,0.01802
5749.59,0.01752
5743.8,0.01883
5738.02,0.01823
5732.23,0.01830
5726.44,0.01847
5720.66,0.02093
5714.87,0.02124
5709.09,0.02069
5703.3,0.01685
5697.51,0.01860
5691.73,0.01954
5685.94,0.01800
5680.15,0.02104
5674.37,0.02075
5668.58,0.02036
5662.8,0.01766
5657.01,0.01993
5651.22,0.01993
5645.44,0.01794
5639.65,0.01948
5633.87,0.01712
5628.08,0.01753
5622.29,0.01717
5616.51,0.01799
5610.72,0.01896
5604.93,0.02036
5599.15,0.01944
5593.36,0.01835
5587.58,0.02055
5581.79,0.01724
5576,0.01879
5570.22,0.01981
5564.43,0.02064
5558.64,0.01963
5552.86,0.01769
5547.07,0.01793
5541.29,0.01776
5535.5,0.01900
5529.71,0.01806
5523.93,0.01871
5518.14,0.02119
5512.35,0.02071
5506.57,0.01700
5500.78,0.01913
5495,0.01958
5489.21,0.01881
5483.42,0.01825
5477.64,0.01780
5471.85,0.01787
5466.06,0.01758
5460.28,0.02022
5454.49,0.01769
5448.71,0.01956
5442.92,0.01685
5437.13,0.02026
5431.35,0.01890
5425.56,0.01965
5419.77,0.01811
5413.99,0.01814
5408.2,0.01833
5402.42,0.02099
5396.63,0.01954
5390.84,0.01984
5385.06,0.01870
5379.27,0.01922
5373.48,0.01839
5367.7,0.01944
5361.91,0.01963
5356.13,0.02004
5350.34,0.01825
5344.55,0.01877
5338.77,0.01989
5332.98,0.01728
5327.19,0.01901
5321.41,0.01806
5315.62,0.01973
5309.84,0.01947
5304.05,0.01853
5298.26,0.01726
5292.48,0.02003
5286.69,0.01779
5280.9,0.01945
5275.12,0.01871
5269.33,0.01971
5263.55,0.01697
5257.76,0.01873
5251.97,0.01904
5246.19,0.01792
5240.4,0.01938
5234.61,0.01918
5228.83,0.01956
5223.04,0.01954
5217.26,0.02177
5211.47,0.01917
5205.68,0.01937
5199.9,0.01914
5194.11,0.01974
5188.32,0.01840
5182.54,0.01890
5176.75,0.01993
5170.97,0.01853
5165.18,0.01981
5159.39,0.01985
5153.61,0.02000
5147.82,0.01933
5142.03,0.01871
5136.25,0.02015
5130.46,0.01870
5124.68,0.01922
5118.89,0.01904
5113.1,0.01948
5107.32,0.02032
5101.53,0.01853
5095.75,0.01925
5089.96,0.02013
5084.17,0.01883
5078.39,0.01923
5072.6,0.02027
5066.81,0.02013
5061.03,0.01955
5055.24,0.01842
5049.46,0.01973
5043.67,0.01969
5037.88,0.01969
5032.1,0.01947
5026.31,0.01926
5020.52,0.02021
5014.74,0.01921
5008.95,0.02090
5003.17,0.01971
4997.38,0.01938
4991.59,0.01964
4985.81,0.01869
4980.02,0.01805
4974.23,0.01877
4968.45,0.01846
4962.66,0.01901
4956.88,0.01893
4951.09,0.02009
4945.3,0.01935
4939.52,0.01992
4933.73,0.02020
4927.94,0.02027
4922.16,0.01943
4916.37,0.01967
4910.59,0.01977
4904.8,0.01946
4899.01,0.01933
4893.23,0.01998
4887.44,0.01930
4881.65,0.01823
4875.87,0.01928
4870.08,0.01972
4864.3,0.02035
4858.51,0.01897
4852.72,0.01852
4846.94,0.01969
4841.15,0.01903
4835.36,0.01914
4829.58,0.01935
4823.79,0.01975
4818.01,0.01975
4812.22,0.01897
4806.43,0.01864
4800.65,0.01921
4794.86,0.02031
4789.07,0.01916
4783.29,0.01965
4777.5,0.02046
4771.72,0.01884
4765.93,0.01943
4760.14,0.02046
4754.36,0.01975
4748.57,0.01898
4742.78,0.01927
4737,0.02035
4731.21,0.01919
4725.43,0.02059
4719.64,0.01970
4713.85,0.01992
4708.07,0.02015
4702.28,0.01998
4696.49,0.02071
4690.71,0.01965
4684.92,0.01923
4679.14,0.01921
4673.35,0.01886
4667.56,0.01992
4661.78,0.01920
4655.99,0.01943
4650.2,0.02015
4644.42,0.02086
4638.63,0.01966
4632.85,0.02004
4627.06,0.01946
4621.27,0.01931
4615.49,0.01982
4609.7,0.01979
4603.92,0.02013
4598.13,0.01952
4592.34,0.01965
4586.56,0.01946
4580.77,0.01942
4574.98,0.02017
4569.2,0.02108
4563.41,0.01961
4557.63,0.01900
4551.84,0.01966
4546.05,0.01974
4540.27,0.01924
4534.48,0.01941
4528.69,0.02024
4522.91,0.02047
4517.12,0.01889
4511.34,0.01911
4505.55,0.01876
4499.76,0.01999
4493.98,0.02016
4488.19,0.02031
4482.4,0.01965
4476.62,0.01921
4470.83,0.01977
4465.05,0.01962
4459.26,0.01988
4453.47,0.02046
4447.69,0.01980
4441.9,0.01943
4436.11,0.01945
4430.33,0.01949
4424.54,0.01992
4418.76,0.01995
4412.97,0.02007
4407.18,0.01977
4401.4,0.02021
4395.61,0.01995
4389.82,0.02019
4384.04,0.01990
4378.25,0.02004
4372.47,0.01910
4366.68,0.01976
4360.89,0.01929
4355.11,0.01925
4349.32,0.02055
4343.53,0.02065
4337.75,0.01957
4331.96,0.01907
4326.18,0.01996
4320.39,0.01964
4314.6,0.02054
4308.82,0.01940
4303.03,0.01964
4297.24,0.02023
4291.46,0.01931
4285.67,0.01955
4279.89,0.02037
4274.1,0.01963
4268.31,0.01978
4262.53,0.02055
4256.74,0.02017
4250.95,0.01930
4245.17,0.01879
4239.38,0.01934
4233.6,0.01932
4227.81,0.01973
4222.02,0.02027
4216.24,0.01903
4210.45,0.02013
4204.66,0.02059
4198.88,0.01981
4193.09,0.01960
4187.31,0.02003
4181.52,0.02009
4175.73,0.01975
4169.95,0.02041
4164.16,0.01980
4158.37,0.01911
4152.59,0.01948
4146.8,0.01979
4141.02,0.02034
4135.23,0.01992
4129.44,0.01984
4123.66,0.01986
4117.87,0.01972
4112.09,0.02065
4106.3,0.01997
4100.51,0.02017
4094.73,0.01989
4088.94,0.02045
4083.15,0.01973
4077.37,0.01972
4071.58,0.01979
4065.8,0.02042
4060.01,0.01949
4054.22,0.02017
4048.44,0.01979
4042.65,0.01975
4036.86,0.01994
4031.08,0.02033
4025.29,0.01937
4019.51,0.01988
4013.72,0.02014
4007.93,0.01994
4002.15,0.02041
3996.36,0.02020
3990.57,0.02032
3984.79,0.01988
3979,0.01984
3973.22,0.02022
3967.43,0.01955
3961.64,0.02005
3955.86,0.01980
3950.07,0.02035
3944.28,0.01977
3938.5,0.01972
3932.71,0.01927
3926.93,0.02002
3921.14,0.01967
3915.35,0.01985
3909.57,0.01991
3903.78,0.01979
3897.99,0.02014
3892.21,0.01984
3886.42,0.01963
3880.64,0.01971
3874.85,0.01980
3869.06,0.01936
3863.28,0.01973
3857.49,0.02047
3851.7,0.02075
3845.92,0.02014
3840.13,0.02063
3834.35,0.01978
3828.56,0.01997
3822.77,0.01972
3816.99,0.02002
3811.2,0.02072
3805.41,0.02018
3799.63,0.01989
3793.84,0.02074
3788.06,0.01990
3782.27,0.01983
3776.48,0.01953
3770.7,0.01990
3764.91,0.02031
3759.12,0.02004
3753.34,0.01995
3747.55,0.02001
3741.77,0.01911
3735.98,0.02007
3730.19,0.01980
3724.41,0.01925
3718.62,0.01944
3712.83,0.01948
3707.05,0.01948
3701.26,0.02025
3695.48,0.01954
3689.69,0.01991
3683.9,0.01989
3678.12,0.01976
3672.33,0.01973
3666.54,0.01947
3660.76,0.01884
3654.97,0.01909
3649.19,0.01977
3643.4,0.01930
3637.61,0.01960
3631.83,0.01900
3626.04,0.01935
3620.25,0.01914
3614.47,0.01870
3608.68,0.01909
3602.9,0.01953
3597.11,0.01903
3591.32,0.01912
3585.54,0.01938
3579.75,0.01864
3573.97,0.01855
3568.18,0.01886
3562.39,0.01870
3556.61,0.01888
3550.82,0.01846
3545.03,0.01862
3539.25,0.01855
3533.46,0.01830
3527.68,0.01903
3521.89,0.01820
3516.1,0.01918
3510.32,0.01856
3504.53,0.01788
3498.74,0.01794
3492.96,0.01841
3487.17,0.01808
3481.39,0.01775
3475.6,0.01784
3469.81,0.01865
3464.03,0.01840
3458.24,0.01842
3452.45,0.01786
3446.67,0.01792
3440.88,0.01770
3435.1,0.01833
3429.31,0.01765
3423.52,0.01717
3417.74,0.01763
3411.95,0.01778
3406.16,0.01761
3400.38,0.01801
3394.59,0.01811
3388.81,0.01809
3383.02,0.01801
3377.23,0.01787
3371.45,0.01728
3365.66,0.01759
3359.87,0.01805
3354.09,0.01765
3348.3,0.01714
3342.52,0.01785
3336.73,0.01748
3330.94,0.01774
3325.16,0.01793
3319.37,0.01757
3313.58,0.01721
3307.8,0.01690
3302.01,0.01803
3296.23,0.01731
3290.44,0.01746
3284.65,0.01724
3278.87,0.01778
3273.08,0.01767
3267.29,0.01725
3261.51,0.01688
3255.72,0.01788
3249.94,0.01715
3244.15,0.01750
3238.36,0.01788
3232.58,0.01826
3226.79,0.01787
3221,0.01728
3215.22,0.01833
3209.43,0.01877
3203.65,0.01801
3197.86,0.01753
3192.07,0.01837
3186.29,0.01731
3180.5,0.01803
3174.71,0.01805
3168.93,0.01798
3163.14,0.01820
3157.36,0.01817
3151.57,0.01788
3145.78,0.01844
3140,0.01836
3134.21,0.01831
3128.42,0.01883
3122.64,0.01852
3116.85,0.01809
3111.07,0.01735
3105.28,0.01764
3099.49,0.01793
3093.71,0.01792
3087.92,0.01743
3082.14,0.01826
3076.35,0.01829
3070.56,0.01797
3064.78,0.01753
3058.99,0.01786
3053.2,0.01757
3047.42,0.01803
3041.63,0.01791
3035.85,0.01781
3030.06,0.01807
3024.27,0.01799
3018.49,0.01769
3012.7,0.01755
3006.91,0.01805
3001.13,0.01780
2995.34,0.01704
2989.56,0.01745
2983.77,0.01753
2977.98,0.01684
2972.2,0.01761
2966.41,0.01681
2960.62,0.01641
2954.84,0.01731
2949.05,0.01734
2943.27,0.01704
2937.48,0.01661
2931.69,0.01730
2925.91,0.01766
2920.12,0.01719
2914.33,0.01792
2908.55,0.01726
2902.76,0.01759
2896.98,0.01746
2891.19,0.01779
2885.4,0.01814
2879.62,0.01793
2873.83,0.01773
2868.04,0.01813
2862.26,0.01797
2856.47,0.01804
2850.69,0.01831
2844.9,0.01804
2839.11,0.01814
2833.33,0.01868
2827.54,0.01854
2821.75,0.01820
2815.97,0.01855
2810.18,0.01862
2804.4,0.01852
2798.61,0.01853
2792.82,0.01862
2787.04,0.01873
2781.25,0.01880
2775.46,0.01848
2769.68,0.01785
2763.89,0.01859
2758.11,0.01858
2752.32,0.01852
2746.53,0.01865
2740.75,0.01829
2734.96,0.01863
2729.17,0.01868
2723.39,0.01829
2717.6,0.01842
2711.82,0.01882
2706.03,0.01890
2700.24,0.01839
2694.46,0.01829
2688.67,0.01935
2682.88,0.01848
2677.1,0.01822
2671.31,0.01853
2665.53,0.01881
2659.74,0.01886
2653.95,0.01896
2648.17,0.01893
2642.38,0.01883
2636.59,0.01810
2630.81,0.01787
2625.02,0.01895
2619.24,0.01892
2613.45,0.01835
2607.66,0.01842
2601.88,0.01816
2596.09,0.01838
2590.3,0.01896
2584.52,0.01854
2578.73,0.01852
2572.95,0.01893
2567.16,0.01855
2561.37,0.01922
2555.59,0.01903
2549.8,0.01880
2544.02,0.01835
2538.23,0.01831
2532.44,0.01834
2526.66,0.01838
2520.87,0.01875
2515.08,0.01859
2509.3,0.01834
2503.51,0.01880
2497.73,0.01862
2491.94,0.01876
2486.15,0.01891
2480.37,0.01883
2474.58,0.01886
2468.79,0.01864
2463.01,0.01873
2457.22,0.01863
2451.44,0.01869
2445.65,0.01861
2439.86,0.01832
2434.08,0.01831
2428.29,0.01848
2422.5,0.01843
2416.72,0.01834
2410.93,0.01910
2405.15,0.01869
2399.36,0.01876
2393.57,0.01836
2387.79,0.01830
2382,0.01815
2376.21,0.01885
2370.43,0.01854
2364.64,0.01844
2358.86,0.01888
2353.07,0.01878
2347.28,0.01876
2341.5,0.01839
2335.71,0.01857
2329.92,0.01877
2324.14,0.01869
2318.35,0.01847
2312.57,0.01851
2306.78,0.01851
2300.99,0.01871
2295.21,0.01886
2289.42,0.01904
2283.63,0.01845
2277.85,0.01862
2272.06,0.01861
2266.28,0.01877
2260.49,0.01871
2254.7,0.01839
2248.92,0.01819
2243.13,0.01842
2237.34,0.01847
2231.56,0.01853
2225.77,0.01818
2219.99,0.01850
2214.2,0.01825
2208.41,0.01840
2202.63,0.01823
2196.84,0.01874
2191.05,0.01848
2185.27,0.01877
2179.48,0.01824
2173.7,0.01863
2167.91,0.01881
2162.12,0.01866
2156.34,0.01839
2150.55,0.01834
2144.76,0.01811
2138.98,0.01843
2133.19,0.01838
2127.41,0.01844
2121.62,0.01866
2115.83,0.01809
2110.05,0.01818
2104.26,0.01841
2098.47,0.01834
2092.69,0.01837
2086.9,0.01866
2081.12,0.01828
2075.33,0.01860
2069.54,0.01788
2063.76,0.01811
2057.97,0.01824
2052.19,0.01855
2046.4,0.01803
2040.61,0.01827
2034.83,0.01804
2029.04,0.01822
2023.25,0.01823
2017.47,0.01837
2011.68,0.01824
2005.9,0.01799
2000.11,0.01854
1994.32,0.01836
1988.54,0.01811
1982.75,0.01819
1976.96,0.01798
1971.18,0.01804
1965.39,0.01825
1959.61,0.01811
1953.82,0.01832
1948.03,0.01814
1942.25,0.01816
1936.46,0.01789
1930.67,0.01828
1924.89,0.01829
1919.1,0.01834
1913.32,0.01783
1907.53,0.01780
1901.74,0.01797
1895.96,0.01820
1890.17,0.01831
1884.38,0.01776
1878.6,0.01738
1872.81,0.01745
1867.03,0.01783
1861.24,0.01771
1855.45,0.01756
1849.67,0.01766
1843.88,0.01769
1838.09,0.01740
1832.31,0.01769
1826.52,0.01711
1820.74,0.01744
1814.95,0.01772
1809.16,0.01727
1803.38,0.01706
1797.59,0.01686
1791.8,0.01702
1786.02,0.01658
1780.23,0.01635
1774.45,0.01605
1768.66,0.01577
1762.87,0.01528
1757.09,0.01497
1751.3,0.01472
1745.51,0.01506
1739.73,0.01611
1733.94,0.01702
1728.16,0.01770
1722.37,0.01827
1716.58,0.01824
1710.8,0.01825
1705.01,0.01732
1699.22,0.01714
1693.44,0.01713
1687.65,0.01670
1681.87,0.01608
1676.08,0.01618
1670.29,0.01611
1664.51,0.01614
1658.72,0.01564
1652.93,0.01554
1647.15,0.01600
1641.36,0.01605
1635.58,0.01607
1629.79,0.01613
1624,0.01612
1618.22,0.01607
1612.43,0.01631
1606.64,0.01624
1600.86,0.01634
1595.07,0.01613
1589.29,0.01604
1583.5,0.01598
1577.71,0.01593
1571.93,0.01578
1566.14,0.01550
1560.35,0.01529
1554.57,0.01572
1548.78,0.01586
1543,0.01582
1537.21,0.01569
1531.42,0.01578
1525.64,0.01588
1519.85,0.01547
1514.07,0.01592
1508.28,0.01625
1502.49,0.01594
1496.71,0.01610
1490.92,0.01657
1485.13,0.01622
1479.35,0.01611
1473.56,0.01519
1467.78,0.01546
1461.99,0.01572
1456.2,0.01578
1450.42,0.01616
1444.63,0.01647
1438.84,0.01624
1433.06,0.01617
1427.27,0.01619
1421.49,0.01589
1415.7,0.01593
1409.91,0.01583
1404.13,0.01544
1398.34,0.01553
1392.55,0.01527
1386.77,0.01557
1380.98,0.01550
1375.2,0.01560
1369.41,0.01555
1363.62,0.01569
1357.84,0.01588
1352.05,0.01528
1346.26,0.01502
1340.48,0.01475
1334.69,0.01524
1328.91,0.01463
1323.12,0.01488
1317.33,0.01470
1311.55,0.01395
1305.76,0.01419
1299.97,0.01480
1294.19,0.01513
1288.4,0.01558
1282.62,0.01599
1276.83,0.01659
1271.04,0.01650
1265.26,0.01706
1259.47,0.01734
1253.68,0.01788
1247.9,0.01774
1242.11,0.01708
1236.33,0.01721
1230.54,0.01730
1224.75,0.01667
1218.97,0.01686
1213.18,0.01597
1207.39,0.01565
1201.61,0.01570
1195.82,0.01577
1190.04,0.01554
1184.25,0.01556
1178.46,0.01563
1172.68,0.01524
1166.89,0.01510
1161.1,0.01525
1155.32,0.01477
1149.53,0.01456
1143.75,0.01479
1137.96,0.01473
1132.17,0.01471
1126.39,0.01592
1120.6,0.01665
1114.81,0.01625
1109.03,0.01642
1103.24,0.01576
1097.46,0.01606
1091.67,0.01556
1085.88,0.01567
1080.1,0.01640
1074.31,0.01640
1068.52,0.01762
1062.74,0.01722
1056.95,0.01706
1051.17,0.01692
1045.38,0.01727
1039.59,0.01676
1033.81,0.01583
1028.02,0.01617
1022.24,0.01592
1016.45,0.01590
1010.66,0.01754
1004.88,0.01809
999.09,0.01841
993.304,0.01789
987.518,0.01859
981.731,0.01794
975.945,0.01817
970.159,0.01749
964.373,0.01767
958.586,0.01739
952.8,0.01705
947.014,0.01686
941.228,0.01693
935.441,0.01651
929.655,0.01649
923.869,0.01556
918.083,0.01538
912.297,0.01602
906.51,0.01615
900.724,0.01657
894.938,0.01646
889.152,0.01614
883.365,0.01638
877.579,0.01607
871.793,0.01563
866.007,0.01623
860.22,0.01647
854.434,0.01606
848.648,0.01589
842.862,0.01644
837.075,0.01646
831.289,0.01619
825.503,0.01682
819.717,0.01622
813.931,0.01646
808.144,0.01664
802.358,0.01594
796.572,0.01681
790.786,0.01640
784.999,0.01520
779.213,0.01611
773.427,0.01531
767.641,0.01510
761.854,0.01526
756.068,0.01482
750.282,0.01475
744.496,0.01522
738.709,0.01593
732.923,0.01562
727.137,0.01511
721.351,0.01545
715.565,0.01538
709.778,0.01513
703.992,0.01460
698.206,0.01416
692.42,0.01499
686.633,0.01458
680.847,0.01353
675.061,0.01304
669.275,0.01233
663.488,0.01402
657.702,0.01325
651.916,0.01453
646.13,0.01378
640.343,0.01312
634.557,0.01463
628.771,0.01286
622.985,0.01089
617.198,0.01492
611.412,0.01297
605.626,0.01621
599.84,0.01318