File: 01_Data/Polyester_Bed_Skirt/FTIR/IS/Polyester_Bed_Skirt_IS_S_220822_R1.dpt
7497.03,0.32475
7491.25,0.31290
7485.46,0.31597
7479.67,0.30920
7473.89,0.31303
7468.1,0.31824
7462.32,0.31609
7456.53,0.31458
7450.74,0.31354
7444.96,0.31791
7439.17,0.31739
7433.38,0.32150
7427.6,0.31221
7421.81,0.31924
7416.03,0.32261
7410.24,0.31442
7404.45,0.31485
7398.67,0.31498
7392.88,0.32047
7387.09,0.31031
7381.31,0.31691
7375.52,0.32013
7369.74,0.31812
7363.95,0.31303
7358.16,0.31634
7352.38,0.31901
7346.59,0.30638
7340.8,0.30575
7335.02,0.31495
7329.23,0.31587
7323.45,0.31200
7317.66,0.31555
7311.87,0.31120
7306.09,0.30919
7300.3,0.30996
7294.51,0.31145
7288.73,0.31275
7282.94,0.30963
7277.16,0.30911
7271.37,0.30908
7265.58,0.31325
7259.8,0.31168
7254.01,0.31479
7248.22,0.31823
7242.44,0.31315
7236.65,0.31633
7230.87,0.30506
7225.08,0.31092
7219.29,0.30793
7213.51,0.31088
7207.72,0.30898
7201.93,0.31491
7196.15,0.31039
7190.36,0.31015
7184.58,0.31362
7178.79,0.30798
7173,0.31190
7167.22,0.30848
7161.43,0.31272
7155.65,0.31365
7149.86,0.30735
7144.07,0.30427
7138.29,0.30687
7132.5,0.31051
7126.71,0.30826
7120.93,0.31677
7115.14,0.31515
7109.36,0.31001
7103.57,0.30607
7097.78,0.30543
7092,0.31427
7086.21,0.31252
7080.42,0.31166
7074.64,0.30715
7068.85,0.30792
7063.07,0.30873
7057.28,0.30923
7051.49,0.31098
7045.71,0.31298
7039.92,0.30967
7034.13,0.30583
7028.35,0.30531
7022.56,0.31174
7016.78,0.31229
7010.99,0.30881
7005.2,0.30932
6999.42,0.30636
6993.63,0.31075
6987.84,0.30712
6982.06,0.30947
6976.27,0.30825
6970.49,0.30791
6964.7,0.30644
6958.91,0.30602
6953.13,0.31082
6947.34,0.31193
6941.55,0.31678
6935.77,0.30856
6929.98,0.31372
6924.2,0.31172
6918.41,0.30713
6912.62,0.31252
6906.84,0.31487
6901.05,0.30831
6895.26,0.30891
6889.48,0.31038
6883.69,0.31194
6877.91,0.31251
6872.12,0.30884
6866.33,0.31418
6860.55,0.30807
6854.76,0.30944
6848.97,0.31327
6843.19,0.31604
6837.4,0.31216
6831.62,0.31298
6825.83,0.31461
6820.04,0.30625
6814.26,0.30769
6808.47,0.30917
6802.68,0.30591
6796.9,0.31163
6791.11,0.31657
6785.33,0.31369
6779.54,0.30965
6773.75,0.31073
6767.97,0.31139
6762.18,0.30653
6756.39,0.31101
6750.61,0.30911
6744.82,0.31264
6739.04,0.31215
6733.25,0.30934
6727.46,0.30837
6721.68,0.30698
6715.89,0.31289
6710.1,0.30925
6704.32,0.30994
6698.53,0.31277
6692.75,0.30955
6686.96,0.30954
6681.17,0.31308
6675.39,0.31509
6669.6,0.31941
6663.82,0.31070
6658.03,0.31113
6652.24,0.30544
6646.46,0.31475
6640.67,0.31090
6634.88,0.31235
6629.1,0.31111
6623.31,0.31472
6617.53,0.31478
6611.74,0.31095
6605.95,0.31071
6600.17,0.30539
6594.38,0.31254
6588.59,0.31160
6582.81,0.31367
6577.02,0.30962
6571.24,0.31511
6565.45,0.31622
6559.66,0.30824
6553.88,0.31168
6548.09,0.31417
6542.3,0.30838
6536.52,0.31327
6530.73,0.31464
6524.95,0.30881
6519.16,0.31281
6513.37,0.31017
6507.59,0.31188
6501.8,0.31214
6496.01,0.31193
6490.23,0.31127
6484.44,0.31382
6478.66,0.31105
6472.87,0.31174
6467.08,0.31438
6461.3,0.31258
6455.51,0.31258
6449.72,0.31117
6443.94,0.31492
6438.15,0.31227
6432.37,0.30979
6426.58,0.30995
6420.79,0.30853
6415.01,0.31429
6409.22,0.31264
6403.43,0.31046
6397.65,0.31240
6391.86,0.30755
6386.08,0.30622
6380.29,0.31029
6374.5,0.31229
6368.72,0.31371
6362.93,0.31295
6357.14,0.31130
6351.36,0.31418
6345.57,0.30815
6339.79,0.31117
6334,0.31191
6328.21,0.30731
6322.43,0.31077
6316.64,0.31033
6310.85,0.31124
6305.07,0.31112
6299.28,0.30790
6293.5,0.30913
6287.71,0.31020
6281.92,0.30956
6276.14,0.30888
6270.35,0.30734
6264.56,0.30988
6258.78,0.31109
6252.99,0.31187
6247.21,0.31051
6241.42,0.30619
6235.63,0.30851
6229.85,0.30789
6224.06,0.30990
6218.27,0.30593
6212.49,0.30965
6206.7,0.30811
6200.92,0.30888
6195.13,0.30947
6189.34,0.30676
6183.56,0.30858
6177.77,0.31193
6171.98,0.31285
6166.2,0.30717
6160.41,0.30841
6154.63,0.30749
6148.84,0.30905
6143.05,0.30633
6137.27,0.30673
6131.48,0.30762
6125.7,0.30757
6119.91,0.30866
6114.12,0.30646
6108.34,0.30705
6102.55,0.30604
6096.76,0.30499
6090.98,0.30487
6085.19,0.30556
6079.41,0.30930
6073.62,0.30482
6067.83,0.30948
6062.05,0.30424
6056.26,0.30738
6050.47,0.30483
6044.69,0.30704
6038.9,0.30689
6033.12,0.30582
6027.33,0.30722
6021.54,0.30342
6015.76,0.30778
6009.97,0.30355
6004.18,0.30562
5998.4,0.30327
5992.61,0.30481
5986.83,0.30574
5981.04,0.30773
5975.25,0.30414
5969.47,0.30372
5963.68,0.30193
5957.89,0.30186
5952.11,0.30118
5946.32,0.29831
5940.54,0.29909
5934.75,0.29872
5928.96,0.29538
5923.18,0.28835
5917.39,0.28156
5911.6,0.27340
5905.82,0.26875
5900.03,0.27533
5894.25,0.27321
5888.46,0.27360
5882.67,0.27457
5876.89,0.26806
5871.1,0.26457
5865.31,0.25707
5859.53,0.25695
5853.74,0.25846
5847.96,0.25967
5842.17,0.26470
5836.38,0.26471
5830.6,0.26759
5824.81,0.26708
5819.02,0.26463
5813.24,0.26280
5807.45,0.25870
5801.67,0.25636
5795.88,0.25616
5790.09,0.25646
5784.31,0.26027
5778.52,0.25887
5772.73,0.26090
5766.95,0.25919
5761.16,0.25976
5755.38,0.25886
5749.59,0.26094
5743.8,0.26656
5738.02,0.26891
5732.23,0.27377
5726.44,0.27583
5720.66,0.27723
5714.87,0.27517
5709.09,0.27612
5703.3,0.27834
5697.51,0.27672
5691.73,0.27721
5685.94,0.27970
5680.15,0.27640
5674.37,0.27768
5668.58,0.27867
5662.8,0.27918
5657.01,0.27876
5651.22,0.27831
5645.44,0.28014
5639.65,0.27875
5633.87,0.28068
5628.08,0.28241
5622.29,0.28123
5616.51,0.28420
5610.72,0.28363
5604.93,0.28377
5599.15,0.28516
5593.36,0.28444
5587.58,0.28594
5581.79,0.28631
5576,0.28440
5570.22,0.28565
5564.43,0.28676
5558.64,0.28438
5552.86,0.28501
5547.07,0.28546
5541.29,0.28404
5535.5,0.28343
5529.71,0.28542
5523.93,0.28404
5518.14,0.28349
5512.35,0.28486
5506.57,0.28444
5500.78,0.28364
5495,0.28261
5489.21,0.28391
5483.42,0.28564
5477.64,0.28361
5471.85,0.28178
5466.06,0.28403
5460.28,0.28481
5454.49,0.28477
5448.71,0.28591
5442.92,0.28646
5437.13,0.28732
5431.35,0.28823
5425.56,0.28593
5419.77,0.28898
5413.99,0.28940
5408.2,0.28836
5402.42,0.29000
5396.63,0.29036
5390.84,0.29121
5385.06,0.28993
5379.27,0.29130
5373.48,0.29286
5367.7,0.29136
5361.91,0.29128
5356.13,0.29040
5350.34,0.29036
5344.55,0.29099
5338.77,0.29154
5332.98,0.29218
5327.19,0.29160
5321.41,0.29132
5315.62,0.29290
5309.84,0.29047
5304.05,0.28955
5298.26,0.29138
5292.48,0.29211
5286.69,0.29117
5280.9,0.29087
5275.12,0.29199
5269.33,0.29191
5263.55,0.29103
5257.76,0.29208
5251.97,0.29143
5246.19,0.29144
5240.4,0.29155
5234.61,0.29069
5228.83,0.29090
5223.04,0.29086
5217.26,0.29199
5211.47,0.29221
5205.68,0.29134
5199.9,0.29034
5194.11,0.29036
5188.32,0.29278
5182.54,0.29199
5176.75,0.29250
5170.97,0.29178
5165.18,0.29164
5159.39,0.29145
5153.61,0.28995
5147.82,0.29047
5142.03,0.29019
5136.25,0.29115
5130.46,0.29037
5124.68,0.29084
5118.89,0.29233
5113.1,0.29056
5107.32,0.29159
5101.53,0.28995
5095.75,0.29116
5089.96,0.29061
5084.17,0.29037
5078.39,0.29046
5072.6,0.29053
5066.81,0.29035
5061.03,0.29030
5055.24,0.28906
5049.46,0.28977
5043.67,0.28988
5037.88,0.28890
5032.1,0.29085
5026.31,0.29081
5020.52,0.29188
5014.74,0.29073
5008.95,0.29170
5003.17,0.29080
4997.38,0.29134
4991.59,0.29148
4985.81,0.29263
4980.02,0.29341
4974.23,0.29382
4968.45,0.29244
4962.66,0.29352
4956.88,0.29358
4951.09,0.29302
4945.3,0.29369
4939.52,0.29271
4933.73,0.29274
4927.94,0.29312
4922.16,0.29264
4916.37,0.29376
4910.59,0.29413
4904.8,0.29405
4899.01,0.29280
4893.23,0.29333
4887.44,0.29290
4881.65,0.29351
4875.87,0.29260
4870.08,0.29219
4864.3,0.29267
4858.51,0.29216
4852.72,0.29264
4846.94,0.29237
4841.15,0.29202
4835.36,0.29206
4829.58,0.29228
4823.79,0.29140
4818.01,0.29178
4812.22,0.29100
4806.43,0.29172
4800.65,0.29123
4794.86,0.29154
4789.07,0.29194
4783.29,0.29162
4777.5,0.29031
4771.72,0.29168
4765.93,0.29301
4760.14,0.29286
4754.36,0.29253
4748.57,0.29292
4742.78,0.29277
4737,0.29173
4731.21,0.29295
4725.43,0.29264
4719.64,0.29159
4713.85,0.29243
4708.07,0.29129
4702.28,0.29183
4696.49,0.29122
4690.71,0.29256
4684.92,0.29186
4679.14,0.29179
4673.35,0.29133
4667.56,0.29138
4661.78,0.29016
4655.99,0.29014
4650.2,0.29021
4644.42,0.28974
4638.63,0.28906
4632.85,0.28921
4627.06,0.29045
4621.27,0.28907
4615.49,0.28971
4609.7,0.28784
4603.92,0.28797
4598.13,0.28799
4592.34,0.28697
4586.56,0.28545
4580.77,0.28468
4574.98,0.28462
4569.2,0.28451
4563.41,0.28377
4557.63,0.28450
4551.84,0.28428
4546.05,0.28363
4540.27,0.28439
4534.48,0.28342
4528.69,0.28312
4522.91,0.28344
4517.12,0.28320
4511.34,0.28256
4505.55,0.28197
4499.76,0.28170
4493.98,0.28149
4488.19,0.28078
4482.4,0.28010
4476.62,0.28022
4470.83,0.27864
4465.05,0.27786
4459.26,0.27573
4453.47,0.27378
4447.69,0.27075
4441.9,0.26584
4436.11,0.25912
4430.33,0.24986
4424.54,0.23980
4418.76,0.22924
4412.97,0.21833
4407.18,0.20889
4401.4,0.19928
4395.61,0.18839
4389.82,0.18530
4384.04,0.19124
4378.25,0.19645
4372.47,0.20103
4366.68,0.20458
4360.89,0.20690
4355.11,0.20543
4349.32,0.19801
4343.53,0.18503
4337.75,0.16831
4331.96,0.15391
4326.18,0.14730
4320.39,0.14756
4314.6,0.15009
4308.82,0.15444
4303.03,0.16242
4297.24,0.17217
4291.46,0.17533
4285.67,0.17538
4279.89,0.17575
4274.1,0.17659
4268.31,0.17543
4262.53,0.17211
4256.74,0.16565
4250.95,0.15721
4245.17,0.15198
4239.38,0.15131
4233.6,0.15929
4227.81,0.16711
4222.02,0.16866
4216.24,0.16925
4210.45,0.17114
4204.66,0.17321
4198.88,0.17735
4193.09,0.18280
4187.31,0.18603
4181.52,0.18434
4175.73,0.17987
4169.95,0.17591
4164.16,0.17650
4158.37,0.18103
4152.59,0.18396
4146.8,0.18763
4141.02,0.18979
4135.23,0.19112
4129.44,0.18883
4123.66,0.18564
4117.87,0.18572
4112.09,0.18788
4106.3,0.19095
4100.51,0.19617
4094.73,0.19786
4088.94,0.19619
4083.15,0.19011
4077.37,0.18292
4071.58,0.17666
4065.8,0.16905
4060.01,0.16407
4054.22,0.16970
4048.44,0.18237
4042.65,0.19341
4036.86,0.19918
4031.08,0.20193
4025.29,0.20329
4019.51,0.20529
4013.72,0.20858
4007.93,0.21084
4002.15,0.21075
3996.36,0.20893
3990.57,0.20966
3984.79,0.21350
3979,0.21748
3973.22,0.21980
3967.43,0.22079
3961.64,0.22169
3955.86,0.22354
3950.07,0.22303
3944.28,0.22333
3938.5,0.22109
3932.71,0.22018
3926.93,0.22065
3921.14,0.22170
3915.35,0.22408
3909.57,0.22743
3903.78,0.22846
3897.99,0.22833
3892.21,0.22815
3886.42,0.22922
3880.64,0.22920
3874.85,0.23017
3869.06,0.23126
3863.28,0.23232
3857.49,0.23535
3851.7,0.23728
3845.92,0.23637
3840.13,0.23547
3834.35,0.23528
3828.56,0.23550
3822.77,0.23435
3816.99,0.23347
3811.2,0.23336
3805.41,0.23524
3799.63,0.23596
3793.84,0.23608
3788.06,0.23724
3782.27,0.23744
3776.48,0.23637
3770.7,0.23316
3764.91,0.23082
3759.12,0.23166
3753.34,0.23429
3747.55,0.23694
3741.77,0.23866
3735.98,0.23928
3730.19,0.24073
3724.41,0.24116
3718.62,0.24183
3712.83,0.24225
3707.05,0.24229
3701.26,0.24195
3695.48,0.24152
3689.69,0.24291
3683.9,0.24359
3678.12,0.24578
3672.33,0.24879
3666.54,0.25215
3660.76,0.25468
3654.97,0.25575
3649.19,0.25494
3643.4,0.25340
3637.61,0.25166
3631.83,0.25116
3626.04,0.25519
3620.25,0.25675
3614.47,0.25743
3608.68,0.25744
3602.9,0.25605
3597.11,0.25567
3591.32,0.25480
3585.54,0.25405
3579.75,0.25513
3573.97,0.25605
3568.18,0.25647
3562.39,0.25658
3556.61,0.25572
3550.82,0.25478
3545.03,0.25485
3539.25,0.25310
3533.46,0.25199
3527.68,0.25156
3521.89,0.25114
3516.1,0.25026
3510.32,0.24947
3504.53,0.24890
3498.74,0.24809
3492.96,0.24745
3487.17,0.24609
3481.39,0.24473
3475.6,0.24257
3469.81,0.24132
3464.03,0.23915
3458.24,0.23681
3452.45,0.23474
3446.67,0.23145
3440.88,0.22913
3435.1,0.22710
3429.31,0.22344
3423.52,0.22124
3417.74,0.21916
3411.95,0.21699
3406.16,0.21719
3400.38,0.21957
3394.59,0.22128
3388.81,0.22084
3383.02,0.21880
3377.23,0.21587
3371.45,0.21386
3365.66,0.21243
3359.87,0.21034
3354.09,0.20807
3348.3,0.20608
3342.52,0.20475
3336.73,0.20644
3330.94,0.20808
3325.16,0.20748
3319.37,0.20242
3313.58,0.19243
3307.8,0.17680
3302.01,0.16150
3296.23,0.16459
3290.44,0.17891
3284.65,0.18975
3278.87,0.19542
3273.08,0.19910
3267.29,0.20227
3261.51,0.20473
3255.72,0.20554
3249.94,0.20585
3244.15,0.20562
3238.36,0.20143
3232.58,0.19553
3226.79,0.18761
3221,0.17908
3215.22,0.17067
3209.43,0.16461
3203.65,0.15977
3197.86,0.15608
3192.07,0.15564
3186.29,0.15591
3180.5,0.15821
3174.71,0.16121
3168.93,0.16177
3163.14,0.16140
3157.36,0.16093
3151.57,0.15810
3145.78,0.15684
3140,0.15661
3134.21,0.15830
3128.42,0.16183
3122.64,0.16440
3116.85,0.16669
3111.07,0.16721
3105.28,0.16783
3099.49,0.16725
3093.71,0.16726
3087.92,0.16596
3082.14,0.16465
3076.35,0.16246
3070.56,0.16053
3064.78,0.15750
3058.99,0.15419
3053.2,0.15066
3047.42,0.14737
3041.63,0.14357
3035.85,0.13962
3030.06,0.13287
3024.27,0.12402
3018.49,0.11431
3012.7,0.10291
3006.91,0.09032
3001.13,0.07670
2995.34,0.06190
2989.56,0.04751
2983.77,0.03637
2977.98,0.02897
2972.2,0.02501
2966.41,0.02461
2960.62,0.02916
2954.84,0.03041
2949.05,0.03268
2943.27,0.03254
2937.48,0.03045
2931.69,0.02891
2925.91,0.03044
2920.12,0.03391
2914.33,0.03747
2908.55,0.03543
2902.76,0.03541
2896.98,0.03517
2891.19,0.03457
2885.4,0.03387
2879.62,0.03369
2873.83,0.03408
2868.04,0.03460
2862.26,0.03646
2856.47,0.03770
2850.69,0.03602
2844.9,0.03353
2839.11,0.03409
2833.33,0.03714
2827.54,0.04216
2821.75,0.04979
2815.97,0.05647
2810.18,0.06120
2804.4,0.06844
2798.61,0.07735
2792.82,0.08284
2787.04,0.09537
2781.25,0.10767
2775.46,0.11755
2769.68,0.12228
2763.89,0.12494
2758.11,0.12929
2752.32,0.13054
2746.53,0.12864
2740.75,0.12112
2734.96,0.11164
2729.17,0.10181
2723.39,0.09131
2717.6,0.09931
2711.82,0.11340
2706.03,0.12352
2700.24,0.13089
2694.46,0.13349
2688.67,0.13245
2682.88,0.13255
2677.1,0.13187
2671.31,0.13408
2665.53,0.13389
2659.74,0.13340
2653.95,0.13771
2648.17,0.14222
2642.38,0.14464
2636.59,0.14618
2630.81,0.14145
2625.02,0.13348
2619.24,0.12650
2613.45,0.12323
2607.66,0.12312
2601.88,0.12420
2596.09,0.12266
2590.3,0.11808
2584.52,0.11093
2578.73,0.11020
2572.95,0.11650
2567.16,0.12113
2561.37,0.12319
2555.59,0.12286
2549.8,0.12281
2544.02,0.12246
2538.23,0.11865
2532.44,0.10352
2526.66,0.08979
2520.87,0.08198
2515.08,0.07868
2509.3,0.07945
2503.51,0.08963
2497.73,0.10908
2491.94,0.13218
2486.15,0.14896
2480.37,0.16260
2474.58,0.17561
2468.79,0.18762
2463.01,0.19267
2457.22,0.19429
2451.44,0.19501
2445.65,0.19554
2439.86,0.19425
2434.08,0.18949
2428.29,0.18776
2422.5,0.19069
2416.72,0.19525
2410.93,0.19681
2405.15,0.19587
2399.36,0.19540
2393.57,0.19708
2387.79,0.19973
2382,0.20089
2376.21,0.20003
2370.43,0.19977
2364.64,0.19915
2358.86,0.19879
2353.07,0.20117
2347.28,0.20473
2341.5,0.20809
2335.71,0.20939
2329.92,0.21152
2324.14,0.21426
2318.35,0.21766
2312.57,0.22008
2306.78,0.22073
2300.99,0.22019
2295.21,0.22018
2289.42,0.22211
2283.63,0.22284
2277.85,0.22073
2272.06,0.21594
2266.28,0.21348
2260.49,0.21162
2254.7,0.20998
2248.92,0.21376
2243.13,0.21808
2237.34,0.21783
2231.56,0.21547
2225.77,0.21634
2219.99,0.21798
2214.2,0.21747
2208.41,0.21599
2202.63,0.21362
2196.84,0.21302
2191.05,0.21206
2185.27,0.21107
2179.48,0.21085
2173.7,0.20922
2167.91,0.20974
2162.12,0.21199
2156.34,0.21177
2150.55,0.21028
2144.76,0.20915
2138.98,0.20625
2133.19,0.20414
2127.41,0.20927
2121.62,0.22117
2115.83,0.23008
2110.05,0.23417
2104.26,0.23536
2098.47,0.23612
2092.69,0.23623
2086.9,0.23712
2081.12,0.24053
2075.33,0.24417
2069.54,0.24592
2063.76,0.24615
2057.97,0.24544
2052.19,0.24480
2046.4,0.24452
2040.61,0.24479
2034.83,0.24401
2029.04,0.24288
2023.25,0.24402
2017.47,0.24491
2011.68,0.24518
2005.9,0.24479
2000.11,0.24402
1994.32,0.24332
1988.54,0.24350
1982.75,0.24497
1976.96,0.24557
1971.18,0.24473
1965.39,0.24169
1959.61,0.23738
1953.82,0.24097
1948.03,0.24206
1942.25,0.24212
1936.46,0.24136
1930.67,0.24027
1924.89,0.23807
1919.1,0.23637
1913.32,0.23480
1907.53,0.23357
1901.74,0.23246
1895.96,0.22933
1890.17,0.22878
1884.38,0.23244
1878.6,0.23389
1872.81,0.23369
1867.03,0.23275
1861.24,0.23004
1855.45,0.22721
1849.67,0.22455
1843.88,0.22181
1838.09,0.21730
1832.31,0.21297
1826.52,0.21078
1820.74,0.20754
1814.95,0.19923
1809.16,0.17999
1803.38,0.12534
1797.59,0.07155
1791.8,0.07782
1786.02,0.13426
1780.23,0.16962
1774.45,0.18118
1768.66,0.18153
1762.87,0.17534
1757.09,0.16752
1751.3,0.16010
1745.51,0.15114
1739.73,0.13810
1733.94,0.13941
1728.16,0.14276
1722.37,0.15938
1716.58,0.16337
1710.8,0.16425
1705.01,0.16522
1699.22,0.16531
1693.44,0.16521
1687.65,0.16528
1681.87,0.16515
1676.08,0.16566
1670.29,0.16652
1664.51,0.16540
1658.72,0.16121
1652.93,0.15451
1647.15,0.14195
1641.36,0.12246
1635.58,0.12816
1629.79,0.14386
1624,0.14870
1618.22,0.14989
1612.43,0.14971
1606.64,0.15038
1600.86,0.15058
1595.07,0.14775
1589.29,0.13945
1583.5,0.13790
1577.71,0.14255
1571.93,0.14739
1566.14,0.14611
1560.35,0.14330
1554.57,0.14030
1548.78,0.14090
1543,0.13646
1537.21,0.12943
1531.42,0.12279
1525.64,0.11520
1519.85,0.10673
1514.07,0.09833
1508.28,0.09082
1502.49,0.08220
1496.71,0.07460
1490.92,0.06655
1485.13,0.05857
1479.35,0.05227
1473.56,0.04642
1467.78,0.04134
1461.99,0.03925
1456.2,0.03974
1450.42,0.04169
1444.63,0.04409
1438.84,0.04539
1433.06,0.04722
1427.27,0.05007
1421.49,0.05340
1415.7,0.05813
1409.91,0.06099
1404.13,0.05867
1398.34,0.05675
1392.55,0.05854
1386.77,0.05688
1380.98,0.04599
1375.2,0.04465
1369.41,0.05794
1363.62,0.06508
1357.84,0.06502
1352.05,0.08088
1346.26,0.09530
1340.48,0.10548
1334.69,0.10849
1328.91,0.10584
1323.12,0.11428
1317.33,0.12254
1311.55,0.12722
1305.76,0.11162
1299.97,0.12072
1294.19,0.13162
1288.4,0.14698
1282.62,0.15525
1276.83,0.16254
1271.04,0.16330
1265.26,0.15631
1259.47,0.13966
1253.68,0.13018
1247.9,0.15808
1242.11,0.16714
1236.33,0.17192
1230.54,0.17368
1224.75,0.16814
1218.97,0.15927
1213.18,0.16972
1207.39,0.17539
1201.61,0.17396
1195.82,0.16923
1190.04,0.16430
1184.25,0.15135
1178.46,0.12949
1172.68,0.08809
1166.89,0.06026
1161.1,0.07854
1155.32,0.09633
1149.53,0.11467
1143.75,0.15115
1137.96,0.18732
1132.17,0.20785
1126.39,0.21383
1120.6,0.21107
1114.81,0.20065
1109.03,0.18470
1103.24,0.15926
1097.46,0.17921
1091.67,0.20194
1085.88,0.20840
1080.1,0.21530
1074.31,0.21688
1068.52,0.21353
1062.74,0.21227
1056.95,0.20836
1051.17,0.19643
1045.38,0.17191
1039.59,0.18307
1033.81,0.19079
1028.02,0.19007
1022.24,0.18375
1016.45,0.17288
1010.66,0.15553
1004.88,0.11962
999.09,0.06663
993.304,0.09339
987.518,0.14035
981.731,0.12748
975.945,0.07214
970.159,0.07541
964.373,0.14320
958.586,0.17849
952.8,0.19397
947.014,0.19560
941.228,0.18204
935.441,0.20199
929.655,0.22202
923.869,0.22978
918.083,0.22996
912.297,0.22291
906.51,0.20043
900.724,0.14133
894.938,0.16520
889.152,0.18164
883.365,0.08578
877.579,0.04886
871.793,0.06323
866.007,0.12563
860.22,0.16640
854.434,0.17065
848.648,0.12210
842.862,0.08547
837.075,0.11815
831.289,0.17048
825.503,0.18792
819.717,0.18850
813.931,0.15796
808.144,0.12677
802.358,0.16788
796.572,0.19206
790.786,0.20598
784.999,0.21768
779.213,0.22711
773.427,0.23253
767.641,0.23718
761.854,0.24240
756.068,0.24476
750.282,0.24566
744.496,0.24144
738.709,0.23562
732.923,0.22796
727.137,0.20896
721.351,0.16718
715.565,0.07851
709.778,0.09118
703.992,0.18677
698.206,0.22400
692.42,0.23689
686.633,0.24198
680.847,0.24347
675.061,0.24425
669.275,0.24442
663.488,0.24333
657.702,0.24125
651.916,0.23943
646.13,0.23506
640.343,0.23285
634.557,0.23101
628.771,0.22598
622.985,0.22376
617.198,0.22166
611.412,0.21912
605.626,0.21382
599.84,0.20624