File: 01_Data/Overstuffed_Chair_Polyester_Fabric/Cone/Overstuffed_Chair_Polyester_Fabric_Cone_HF25Scan_210324_R1.csv
Names,Time,Stack TC,Smoke TC,Exh Press,Smoke Comp,Smoke Meas,CO Meter,CO2 Meter,O2 Meter,Sample Mass,Ext Coeff,Start Test,Flame Verif
Chan Gain,,500,500,1,1,1,1,1,1,1,1,1.0,1.0
Offset,,0,0,0.194005,0,0,0,0,0,0,0,0.0,0.0
Gain,,1,1,25.011,13.5067,16.616,1,1,1,1.00091,1.04608,1.0,1.0
Units,sec,C,C,Pa,%,%,%,%,%,g,/m,,
Baseline,,20.1097,21.658,167.525,100.013,99.1211,0.00077079,0.0996331,20.7352,-1.34752,0.08221,,
4,0.75,17.6066,18.7289,166.943,100.022,99.1213,0.000516022,0.108747,20.7355,480.217,0.0829632,0.0,0.0
8,1.75,17.4239,18.6104,166.59,100.016,99.2126,0.000533974,0.10869,20.7358,480.157,0.0739873,0.0,0.0
12,2.75,16.7792,18.799,166.343,100.026,99.2699,0.000538682,0.108689,20.736,480.157,0.069635,0.0,0.0
16,3.75,17.4595,18.7677,167.982,100.016,99.1791,0.000520671,0.108699,20.7361,480.507,0.0770836,0.0,0.0
20,4.75,17.8607,18.7149,168.058,100.022,99.0909,0.000500095,0.108706,20.7359,480.267,0.085817,0.0,0.0
24,5.75,17.9301,19.2576,166.974,100.022,99.1902,0.000493946,0.108686,20.7358,481.218,0.0766562,0.0,0.0
28,6.75,17.6473,19.5639,165.385,100.026,99.0838,0.000512376,0.108632,20.7349,481.979,0.086815,0.0,0.0
32,7.75,17.7327,18.9234,172.56,100.041,99.0675,0.000544851,0.108566,20.7335,483.971,0.0897174,0.0,0.0
36,8.75,18.2275,19.2945,167.105,100.031,99.1892,0.000603763,0.108504,20.7326,483.24,0.0775446,0.0,0.0
40,9.75,18.1226,19.4209,172.537,100.038,99.0924,0.000684001,0.108493,20.7315,481.478,0.087113,0.0,0.0
44,10.75,18.1415,19.5189,168.097,100.029,99.102,0.000776129,0.108574,20.7297,480.938,0.0854658,0.0,0.0
48,11.75,18.1508,19.6925,170.569,100.067,99.1613,0.000845561,0.108723,20.7285,480.628,0.0834141,0.0,0.0
52,12.75,18.2913,19.6564,173.163,100.059,99.1771,0.000870817,0.108944,20.7261,480.157,0.0812036,0.0,0.0
56,13.75,18.2682,19.1678,163.954,100.059,99.0807,0.000853735,0.109049,20.7246,480.147,0.0901594,0.0,0.0
60,14.75,18.2404,19.6877,163.92,100.059,99.173,0.000806422,0.109245,20.7235,480.157,0.0816535,0.0,0.0
64,15.75,18.0102,19.5747,168.842,100.061,99.0827,0.000735563,0.109548,20.7221,480.167,0.0901616,0.0,0.0
68,16.75,18.1049,19.8988,167.255,100.076,99.1218,0.00064727,0.109852,20.7211,480.187,0.0879061,0.0,0.0
72,17.75,18.4353,19.9401,164.117,100.085,99.2126,0.000560756,0.110244,20.7197,480.157,0.0803763,0.0,0.0
76,18.75,18.2267,19.9873,166.492,100.086,99.2521,0.000461705,0.110662,20.7185,480.167,0.076794,0.0,0.0
80,19.75,18.5284,20.1396,168.451,100.093,99.2511,0.000374646,0.111036,20.7171,480.177,0.0775316,0.0,0.0
84,20.75,18.581,20.0006,170.656,100.099,99.2186,0.000324148,0.111502,20.716,480.177,0.0810225,0.0,0.0
88,21.75,18.1805,19.8682,161.836,100.092,99.2496,0.000317505,0.112137,20.714,480.167,0.0775208,0.0,0.0
92,22.75,18.1577,20.6193,167.082,100.105,99.2166,0.000333019,0.112869,20.7117,480.147,0.081814,0.0,0.0
96,23.75,18.2307,19.7085,168.401,100.111,99.2455,0.00035174,0.113585,20.71,480.157,0.0796714,0.0,0.0
100,24.75,18.5753,20.1363,168.691,100.108,99.1872,0.000362594,0.114278,20.709,480.157,0.0847625,0.0,0.0
104,25.75,18.7115,20.3894,168.459,100.123,99.2298,0.00033459,0.114877,20.7074,480.157,0.0822205,0.0,0.0
108,26.75,18.5453,19.8189,162.738,100.115,99.1908,0.000268669,0.115446,20.7057,480.147,0.0850757,0.0,0.0
112,27.75,18.891,20.4592,164.504,100.133,99.2455,0.000198543,0.115996,20.7045,480.147,0.0816731,0.0,0.0
116,28.75,19.0774,20.314,170.311,100.131,99.4357,0.000155661,0.116464,20.7037,480.147,0.0639577,0.0,0.0
120,29.75,18.4168,20.4751,163.729,100.141,99.2551,0.000176057,0.116842,20.7026,480.137,0.0815007,0.0,0.0
124,30.75,18.7644,20.4347,165.655,100.147,99.3464,0.000232138,0.117203,20.7017,480.147,0.0736325,0.0,0.0
128,31.75,18.7861,20.1629,167.625,100.165,99.2638,0.000308658,0.117552,20.7011,480.137,0.0829686,0.0,0.0
132,32.75,18.5934,20.548,170.104,100.169,99.2551,0.000370179,0.117825,20.7007,480.147,0.0840688,0.0,0.0
136,33.75,18.9631,21.0052,164.959,100.169,99.3104,0.00040185,0.118229,20.7005,480.147,0.0790359,0.0,0.0
140,34.75,18.6758,19.7014,167.567,100.175,99.2846,0.000432543,0.118572,20.7003,480.147,0.0819539,0.0,0.0
144,35.75,18.7922,20.4349,164.195,100.19,99.28,0.000476996,0.118859,20.7002,480.147,0.083697,0.0,0.0
148,36.75,18.901,20.3049,171.696,100.205,99.3784,0.000545967,0.119042,20.7007,480.147,0.0759685,0.0,0.0
152,37.75,18.2803,20.1366,166.395,100.2,99.2856,0.000620565,0.119324,20.7015,480.137,0.0841252,0.0,0.0
156,38.75,18.1616,20.2157,167.13,100.205,99.2628,0.00070184,0.119587,20.7025,480.117,0.0866871,0.0,0.0
160,39.75,18.1534,19.7696,165.792,100.207,99.3535,0.000748143,0.11976,20.7032,480.147,0.0784893,0.0,0.0
164,40.75,18.4062,20.0783,168.4,100.218,99.3023,0.000774768,0.119873,20.7037,480.147,0.08424,0.0,0.0
168,41.75,18.2119,20.123,166.344,100.241,99.387,0.000732489,0.119947,20.7032,480.137,0.0784926,0.0,0.0
172,42.75,18.694,20.3186,165.309,100.24,99.3378,0.000689267,0.120071,20.7026,480.127,0.0829978,0.0,0.0
176,43.75,18.6946,19.9026,169.721,100.254,99.3008,0.000660909,0.120239,20.7023,480.147,0.0876255,0.0,0.0
180,44.75,18.1007,20.3297,159.714,100.256,99.4402,0.000654523,0.120628,20.702,480.147,0.0750127,0.0,0.0
184,45.75,18.8921,20.4859,170.718,100.263,99.4818,0.000667952,0.121064,20.7019,480.137,0.0718179,0.0,0.0
188,46.75,18.9167,20.2065,168.144,100.281,99.3216,0.000695593,0.121419,20.7026,480.147,0.0881943,0.0,0.0
192,47.75,19.0054,20.093,168.78,100.294,99.3966,0.000709225,0.121686,20.7038,480.157,0.082433,0.0,0.0
196,48.75,18.1888,20.4479,168.196,100.312,99.3216,0.000708469,0.121961,20.7063,480.177,0.0910595,0.0,0.0
200,49.75,18.7777,20.1483,164.751,100.315,99.4276,0.000711113,0.122181,20.7086,480.157,0.0814996,0.0,0.0
204,50.75,18.1919,19.931,169.078,100.332,99.3885,0.00073719,0.122295,20.7102,480.157,0.0866882,0.0,0.0
208,51.75,18.6055,20.5891,168.201,100.344,99.5082,0.000753656,0.122268,20.7125,480.157,0.0767398,0.0,0.0
212,52.75,18.8332,20.1703,166.663,100.339,99.4301,0.000752594,0.12211,20.7143,480.127,0.0834911,0.0,0.0
216,53.75,18.7458,19.8215,169.655,100.362,99.5097,0.000713927,0.121882,20.7155,480.127,0.0782572,0.0,0.0
220,54.75,18.5578,20.0321,167.926,100.371,99.4625,0.000645623,0.12159,20.7163,480.137,0.0834737,0.0,0.0
224,55.75,18.2126,20.6222,168.51,100.392,99.4194,0.000572596,0.121124,20.7168,480.147,0.089335,0.0,0.0
228,56.75,18.8674,20.3459,166.594,100.388,99.459,0.00049376,0.12068,20.7172,480.127,0.0852708,0.0,0.0
232,57.75,17.8979,19.8047,163.725,100.399,99.5482,0.000430995,0.120195,20.7174,480.127,0.0780945,0.0,0.0
236,58.75,17.7547,20.3351,167.745,100.404,99.602,0.000392254,0.119735,20.7175,480.127,0.0736325,0.0,0.0
240,59.75,17.6558,20.1499,165.763,100.423,99.5498,0.000374912,0.119311,20.7176,480.147,0.0801019,0.0,0.0
244,60.75,18.716,19.9406,163.409,100.437,99.533,0.000364816,0.118896,20.7177,480.137,0.0829632,0.0,0.0
248,61.75,17.783,19.8142,168.823,100.444,99.5675,0.000349449,0.118482,20.7177,480.117,0.080424,0.0,0.0
252,62.75,18.4676,19.4276,164.005,100.452,99.5629,0.000325273,0.117936,20.7178,480.127,0.0815982,0.0,0.0
256,63.75,18.3935,19.8783,164.819,100.465,99.5929,0.000302095,0.117528,20.7178,480.147,0.0800087,0.0,0.0
260,64.75,18.5608,19.3626,173.829,100.476,99.5391,0.000291937,0.117235,20.7178,480.127,0.0859784,0.0,0.0
264,65.75,18.1924,20.2293,168.075,100.482,99.5979,0.000303795,0.116945,20.7178,480.137,0.0810475,0.0,0.0
268,66.75,18.3786,19.5137,167.065,100.499,99.6415,0.000335067,0.116685,20.7178,480.127,0.0786119,0.0,0.0
272,67.75,18.2319,20.2887,168.757,100.513,99.5102,0.00037105,0.116408,20.7178,480.147,0.091993,0.0,0.0
276,68.75,18.5882,20.1536,165.091,100.515,99.7379,0.000363733,0.116076,20.7178,480.127,0.0712481,0.0,0.0
280,69.75,18.6676,20.0807,167.269,100.524,99.602,0.00031478,0.115741,20.718,480.137,0.0845121,0.0,0.0
284,70.75,18.8076,19.772,170.031,100.536,99.6324,0.000262804,0.11545,20.7188,480.117,0.0828385,0.0,0.0
288,71.75,18.5472,19.6349,169.959,100.544,99.6431,0.000241941,0.115304,20.7192,480.117,0.0825718,0.0,0.0
292,72.75,18.483,19.6059,161.339,100.571,99.6547,0.000255083,0.115266,20.7195,480.147,0.083981,0.0,0.0
296,73.75,18.2164,20.0573,163.561,100.574,99.7475,0.000301303,0.115253,20.7204,480.127,0.0757038,0.0,0.0
300,74.75,17.9594,19.9588,164.144,100.589,99.7075,0.000354244,0.115236,20.7211,480.127,0.0807428,0.0,0.0
304,75.75,18.852,19.9502,169.909,100.594,99.7774,0.00039946,0.115208,20.7216,480.137,0.0747946,0.0,0.0
308,76.75,18.7082,20.2642,165.522,100.61,99.7146,0.000427779,0.11514,20.7218,480.117,0.0820449,0.0,0.0
312,77.75,18.3626,19.9889,168.331,100.637,99.71,0.000480505,0.11507,20.7218,480.137,0.0849088,0.0,0.0
316,78.75,18.5849,20.5058,169.33,100.636,99.815,0.000526154,0.114999,20.7207,480.127,0.0751407,0.0,0.0
320,79.75,18.5414,20.0474,166.5,100.646,99.6948,0.000556105,0.115081,20.7186,480.137,0.0871357,0.0,0.0
324,80.75,18.8551,20.2317,166.472,100.662,99.8119,0.000568786,0.115362,20.7148,480.137,0.0777887,0.0,0.0
328,81.75,18.5093,20.1278,168.655,100.687,99.7384,0.000559551,0.11585,20.7124,480.147,0.0868789,0.0,0.0
332,82.75,18.5025,20.1012,169.043,100.679,99.8347,0.000539506,0.116377,20.7108,480.157,0.0772312,0.0,0.0
336,83.75,18.3975,19.7303,164.235,100.696,99.8216,0.000520885,0.117032,20.7097,480.147,0.0800206,0.0,0.0
340,84.75,18.107,20.2064,164.891,100.7,99.819,0.000519001,0.117657,20.7096,480.127,0.0806669,0.0,0.0
344,85.75,18.961,20.3708,166.298,100.71,99.783,0.000538145,0.118167,20.7098,480.127,0.0848405,0.0,0.0
348,86.75,18.6906,20.2526,164.377,100.722,99.9225,0.000598375,0.118527,20.7106,480.127,0.0731148,0.0,0.0
352,87.75,18.8465,20.3718,171.964,100.731,99.7967,0.000684875,0.118738,20.712,480.127,0.0854973,0.0,0.0
356,88.75,18.7366,20.5887,170.382,100.74,99.8053,0.000756249,0.118915,20.7136,480.127,0.0855309,0.0,0.0
360,89.75,18.036,20.4684,160.209,100.763,99.7572,0.000788943,0.119042,20.7146,480.117,0.0921002,0.0,0.0
364,90.75,18.3755,19.9426,167.689,100.792,99.8393,0.000755062,0.119165,20.7148,480.097,0.0871747,0.0,0.0
368,91.75,18.3581,19.7882,165.526,100.773,99.8459,0.000673129,0.119178,20.7146,480.107,0.0847679,0.0,0.0
372,92.75,18.6866,20.3292,170.026,100.794,99.9397,0.000568557,0.119125,20.7145,480.117,0.0781011,0.0,0.0
376,93.75,19.2072,20.7731,165.865,100.801,100.056,0.000465798,0.119139,20.7144,480.117,0.068,0.0,0.0
380,94.75,18.7849,20.3847,162.642,100.815,100.066,0.000371359,0.119204,20.7137,480.117,0.0684289,0.0,0.0
384,95.75,18.7003,20.2515,167.914,100.817,99.8403,0.000313401,0.11925,20.7131,480.097,0.0892961,0.0,0.0
388,96.75,18.2052,19.9605,170.183,100.829,99.9346,0.00027799,0.119262,20.7127,480.117,0.0817565,0.0,0.0
392,97.75,18.2749,19.945,168.139,100.825,99.9412,0.000256322,0.119245,20.7124,480.117,0.0807753,0.0,0.0
396,98.75,18.1007,19.8774,166.485,100.856,99.9422,0.000279627,0.119309,20.7122,480.117,0.0834965,0.0,0.0
400,99.75,18.41,20.0618,167.208,100.855,99.9346,0.000365614,0.119475,20.712,480.107,0.0841566,0.0,0.0
404,100.75,18.5116,20.4946,167.649,100.855,99.959,0.000470913,0.119565,20.7114,480.107,0.0819213,0.0,0.0
408,101.75,18.5808,20.5774,168.524,100.864,100.009,0.000597943,0.119738,20.7111,480.097,0.0781488,0.0,0.0
412,102.75,18.2885,19.939,166.318,100.882,99.9083,0.000692659,0.119935,20.7109,480.107,0.0889786,0.0,0.0
416,103.75,19.007,20.8133,169.068,100.889,100.08,0.000737772,0.120202,20.7107,480.117,0.0739244,0.0,0.0
420,104.75,18.7277,20.4079,167.634,100.891,99.9661,0.000710119,0.120428,20.7112,480.107,0.0845327,0.0,0.0
424,105.75,18.3487,20.5642,170.647,100.905,99.9782,0.000622423,0.120611,20.7122,480.107,0.084653,0.0,0.0
428,106.75,18.394,20.371,166.523,100.914,100.014,0.000538339,0.120657,20.7132,480.127,0.0821739,0.0,0.0
432,107.75,19.3524,19.9348,166.756,100.922,99.9995,0.000469076,0.120511,20.7146,480.107,0.0842715,0.0,0.0
436,108.75,18.1612,19.6673,165.015,100.934,100.003,0.000445447,0.120391,20.7154,480.127,0.0850789,0.0,0.0
440,109.75,18.578,19.9984,167.693,100.944,99.9889,0.000439256,0.120233,20.7161,480.117,0.0871986,0.0,0.0
444,110.75,18.7132,20.4358,167.2,100.958,100.006,0.000440693,0.12005,20.7165,480.097,0.0869645,0.0,0.0
448,111.75,18.1191,20.4792,168.748,100.972,100.085,0.00043963,0.11992,20.7163,480.107,0.0809455,0.0,0.0
452,112.75,18.6908,20.0442,164.496,100.97,100.071,0.000418692,0.119754,20.7153,480.127,0.0821447,0.0,0.0
456,113.75,18.3389,19.8249,167.869,100.987,100.093,0.000386158,0.119565,20.7147,480.127,0.081634,0.0,0.0
460,114.75,17.8463,19.7905,169.071,101.003,100.134,0.000359934,0.119381,20.7143,480.117,0.0792095,0.0,0.0
464,115.75,18.637,20.2153,172.574,101.009,100.053,0.000350975,0.119191,20.7141,480.127,0.0872452,0.0,0.0
468,116.75,18.3157,19.6893,168.129,101.02,100.151,0.000375728,0.119072,20.7139,480.127,0.0792474,0.0,0.0
472,117.75,18.299,19.6391,166.472,101.033,100.083,0.000429536,0.119047,20.7146,480.117,0.086712,0.0,0.0
476,118.75,18.4725,20.01,166.076,101.038,100.07,0.000495163,0.118981,20.715,480.107,0.0883319,0.0,0.0
480,119.75,18.7765,19.6738,163.657,101.045,100.103,0.000581459,0.118962,20.7153,480.117,0.0858993,0.0,0.0
484,120.75,18.3501,20.1219,167.288,101.055,100.061,0.000645867,0.11885,20.7155,480.097,0.0906945,0.0,0.0
488,121.75,18.6588,19.3296,169.426,101.055,100.168,0.000728134,0.118652,20.7156,480.107,0.0808881,0.0,0.0
492,122.75,18.1638,19.7154,166.834,101.081,100.154,0.000781231,0.118443,20.7165,480.127,0.0845468,0.0,0.0
496,123.75,18.4043,20.4404,165.724,101.079,100.072,0.000786276,0.11818,20.7179,480.107,0.0918891,0.0,0.0
500,124.75,18.0304,19.6551,167.171,101.09,100.134,0.000739305,0.117798,20.7188,480.107,0.0872278,0.0,0.0
504,125.75,18.445,20.4536,163.858,101.085,100.122,0.000640879,0.117351,20.7194,480.107,0.0878942,0.0,0.0
508,126.75,18.113,19.6083,170.016,101.097,100.179,0.000531303,0.11697,20.7206,480.097,0.0837382,0.0,0.0
512,127.75,18.4909,19.8628,169.583,101.096,100.227,0.000444588,0.11652,20.7213,480.087,0.0792062,0.0,0.0
516,128.75,18.5845,19.5807,169.105,101.116,100.15,0.000367829,0.115975,20.7218,480.087,0.0881444,0.0,0.0
520,129.75,18.2112,20.0455,165.183,101.121,100.255,0.000326163,0.115543,20.722,480.097,0.0789438,0.0,0.0
524,130.75,18.9009,20.0899,165.167,101.133,100.179,0.000316823,0.115185,20.7215,480.097,0.0869461,0.0,0.0
528,131.75,17.9732,20.3428,162.837,101.143,100.286,0.000318386,0.114923,20.7211,480.087,0.0781325,0.0,0.0
532,132.75,18.0161,20.3598,168.938,101.151,100.168,0.000320347,0.114728,20.7205,480.067,0.0895669,0.0,0.0
536,133.75,18.4201,20.2373,164.457,101.163,100.271,0.000305538,0.114608,20.7191,480.087,0.081273,0.0,0.0
540,134.75,18.6948,19.805,163.612,101.167,100.259,0.000294256,0.114576,20.7174,480.087,0.082677,0.0,0.0
544,135.75,18.7374,20.1713,167.327,101.179,100.175,0.000311254,0.114625,20.7157,480.087,0.0914689,0.0,0.0
548,136.75,18.3048,20.1222,164.809,101.193,100.129,0.000365367,0.114854,20.7146,480.087,0.0969668,0.0,0.0
552,137.75,18.8349,19.5163,165.017,101.19,100.24,0.000433093,0.115098,20.7139,480.067,0.0864877,0.0,0.0
556,138.75,18.8355,20.1477,171.272,101.216,100.251,0.00050063,0.115336,20.7134,480.087,0.0879039,0.0,0.0
560,139.75,17.6723,20.3146,169.809,101.214,100.192,0.000563846,0.115597,20.7131,480.097,0.0931864,0.0,0.0
564,140.75,18.1479,20.0796,167.034,101.216,100.258,0.000635013,0.115894,20.7142,480.107,0.0873394,0.0,0.0
568,141.75,18.3513,20.4741,160.673,101.231,100.282,0.000700543,0.116263,20.7151,480.097,0.0864195,0.0,0.0
572,142.75,18.4582,20.0825,165.941,101.24,100.219,0.000762731,0.11648,20.7155,480.067,0.0930337,0.0,0.0
576,143.75,18.756,20.6654,168.157,101.243,100.27,0.000801716,0.116446,20.7158,480.067,0.0886157,0.0,0.0
580,144.75,18.4714,20.2567,171.099,101.258,100.334,0.000804481,0.116369,20.716,480.067,0.0841902,0.0,0.0
584,145.75,18.1297,20.1145,167.539,101.26,100.337,0.000793751,0.116252,20.7161,480.097,0.0839778,0.0,0.0
588,146.75,18.2044,19.9277,167.067,101.263,100.211,0.000759348,0.116093,20.7162,480.097,0.0957945,0.0,0.0
592,147.75,18.3981,20.2594,165.905,101.282,100.307,0.000709591,0.115918,20.7162,480.097,0.0887782,0.0,0.0
596,148.75,17.9846,19.9331,171.923,101.278,100.296,0.000656559,0.115808,20.7158,480.107,0.0893784,0.0,0.0
600,149.75,18.3946,19.9292,168.602,101.29,100.22,0.000590416,0.115706,20.7152,480.097,0.0975069,0.0,0.0
604,150.75,18.525,20.0321,168.183,101.296,100.327,0.00053004,0.11564,20.714,480.087,0.0881542,0.0,0.0
608,151.75,18.5827,20.4103,163.022,101.306,100.189,0.000488385,0.115615,20.7132,480.087,0.101795,0.0,0.0
612,152.75,18.2777,20.2911,171.164,101.306,100.186,0.000473555,0.115648,20.7125,480.077,0.102036,0.0,0.0
616,153.75,18.1657,20.0411,162.258,101.314,100.309,0.000476851,0.115776,20.712,480.077,0.0914212,0.0,0.0
620,154.75,18.4219,20.3622,164.46,101.322,100.368,0.000481517,0.116013,20.7117,480.057,0.0867966,0.0,0.0
624,155.75,18.2504,19.7107,166.257,101.323,100.31,0.000482601,0.116367,20.7115,480.077,0.0922324,0.0,0.0
628,156.75,18.1622,19.8674,165.409,101.334,100.279,0.000464042,0.1167,20.7113,480.077,0.0960706,0.0,0.0
632,157.75,18.4588,20.3124,162.442,101.336,100.251,0.000404869,0.116943,20.7112,480.087,0.0987721,0.0,0.0
636,158.75,18.4528,20.4235,167.538,101.347,100.332,0.000335145,0.117063,20.7111,480.087,0.0923656,0.0,0.0
640,159.75,18.4317,19.8811,166.078,101.345,100.318,0.000293812,0.117132,20.7105,480.087,0.093469,0.0,0.0
644,160.75,18.6852,20.0644,164.049,101.352,100.373,0.000296265,0.117117,20.7091,480.087,0.0890956,0.0,0.0
648,161.75,18.9181,20.1375,165.258,101.357,100.3,0.00035806,0.117147,20.7081,480.097,0.0962589,0.0,0.0
652,162.75,18.4722,20.2879,167.544,101.362,100.3,0.000428532,0.117267,20.7072,480.097,0.0966692,0.0,0.0
656,163.75,18.6245,20.0023,165.986,101.362,100.389,0.00048763,0.117368,20.7066,480.097,0.088424,0.0,0.0
660,164.75,18.5721,19.8648,162.684,101.364,100.364,0.000484404,0.11738,20.7062,480.087,0.090975,0.0,0.0
664,165.75,18.267,20.472,165.636,101.358,100.317,0.000420441,0.117363,20.7059,480.087,0.0947563,0.0,0.0
668,166.75,18.9908,19.9791,163.412,101.359,100.309,0.000340214,0.117351,20.7057,480.077,0.0955358,0.0,0.0
672,167.75,18.2084,19.5988,164.457,101.362,100.397,0.000280762,0.11733,20.7056,480.097,0.087775,0.0,0.0
676,168.75,18.2731,20.5221,173.914,101.356,100.389,0.000268776,0.117264,20.7055,480.077,0.0879018,0.0,0.0
680,169.75,18.6802,20.1962,168.858,101.354,100.287,0.000283587,0.11715,20.7055,480.087,0.0970827,0.0,0.0
684,170.75,18.8469,20.3946,170.522,101.364,100.377,0.000294305,0.11698,20.7062,480.097,0.0898442,0.0,0.0
688,171.75,18.3601,20.6514,168.713,101.378,100.344,0.000290299,0.116851,20.7067,480.097,0.094006,0.0,0.0
692,172.75,18.4751,20.1053,165.81,101.384,100.377,0.000279844,0.116737,20.7071,480.077,0.0915977,0.0,0.0
696,173.75,18.7474,19.897,171.458,101.386,100.302,0.000272984,0.116592,20.7073,480.077,0.0986476,0.0,0.0
700,174.75,18.1677,20.5461,169.692,101.375,100.261,0.000290559,0.116418,20.7074,480.077,0.101389,0.0,0.0
704,175.75,18.1684,20.4966,164.683,101.37,100.257,0.00033522,0.116243,20.7075,480.067,0.101275,0.0,0.0
708,176.75,18.5044,20.2881,162.766,101.383,100.38,0.000404299,0.116157,20.7076,480.067,0.091236,0.0,0.0
712,177.75,18.9697,20.1389,170.811,101.391,100.316,0.000462481,0.116092,20.7076,480.057,0.0978338,0.0,0.0
716,178.75,18.9616,20.4028,169.318,101.371,100.391,0.000530091,0.116016,20.7084,480.077,0.0891065,0.0,0.0
720,179.75,18.5399,20.5485,166.624,101.36,100.275,0.000569745,0.115901,20.709,480.067,0.0987472,0.0,0.0
724,180.75,18.5187,20.3874,171.663,101.361,100.361,0.000583561,0.115719,20.7099,480.067,0.0909458,0.0,0.0
728,181.75,19.1423,20.0469,166.29,101.357,100.311,0.000579573,0.115531,20.7106,480.077,0.0951916,0.0,0.0
732,182.75,18.4655,20.3116,166.437,101.373,100.43,0.00055805,0.115351,20.7106,480.097,0.0857714,0.0,0.0
736,183.75,18.7921,20.2199,170.914,101.365,100.397,0.000531363,0.115259,20.7103,480.087,0.0880274,0.0,0.0
740,184.75,18.7731,20.0671,169.832,101.355,100.392,0.000510888,0.115123,20.7096,480.077,0.0876049,0.0,0.0
744,185.75,18.497,20.2594,169.324,101.357,100.381,0.000515134,0.114984,20.7091,480.067,0.0887934,0.0,0.0
748,186.75,18.8801,20.2971,162.793,101.352,100.33,0.000530114,0.114893,20.7081,480.057,0.0929991,0.0,0.0
752,187.75,19.0446,20.5662,168.975,101.364,100.265,0.000531028,0.114932,20.7074,480.067,0.0999732,0.0,0.0
756,188.75,19.2431,20.5321,172.485,101.354,100.362,0.000512476,0.115041,20.7068,480.077,0.0902547,0.0,0.0
760,189.75,18.5883,20.2776,170.567,101.35,100.456,0.000472802,0.115298,20.7067,480.067,0.0812632,0.0,0.0
764,190.75,19.0741,19.9423,169.942,101.343,100.455,0.00043247,0.115573,20.7075,480.067,0.0808057,0.0,0.0
768,191.75,18.8726,20.6527,163.762,101.338,100.199,0.000404031,0.115828,20.7085,480.067,0.103778,0.0,0.0
772,192.75,18.6605,20.0717,170.996,101.347,100.342,0.000436184,0.11597,20.7098,480.057,0.0914385,0.0,0.0
776,193.75,18.3867,20.5277,168.166,101.335,100.236,0.000508132,0.116064,20.7108,480.057,0.10009,0.0,0.0
780,194.75,18.5805,20.2045,166.134,101.352,100.272,0.000571025,0.116184,20.7115,480.057,0.0983619,0.0,0.0
784,195.75,19.0145,20.4526,169.295,101.345,100.251,0.00060605,0.116235,20.7124,480.057,0.0996313,0.0,0.0
788,196.75,18.225,20.2674,168.169,101.35,100.341,0.000603561,0.116148,20.7133,480.057,0.0917461,0.0,0.0
792,197.75,18.4489,20.6035,168.148,101.341,100.435,0.000565307,0.116056,20.714,480.057,0.0824255,0.0,0.0
796,198.75,18.3039,20.3175,164.968,101.357,100.295,0.000515482,0.115995,20.7144,480.057,0.0966854,0.0,0.0
800,199.75,18.3505,20.4535,163.004,101.346,100.304,0.000415189,0.11593,20.7154,480.067,0.0948798,0.0,0.0
804,200.75,19.1235,20.7655,168.426,101.343,100.353,0.000352235,0.115813,20.7153,480.067,0.0900457,0.0,0.0
808,201.75,18.1251,20.4677,165.289,101.349,100.395,0.000292258,0.115667,20.7153,480.077,0.0868042,0.0,0.0
812,202.75,19.1987,21.0472,165.144,101.353,100.341,0.000262872,0.115474,20.7152,480.067,0.0920905,0.0,0.0
816,203.75,19.6478,20.5296,168.401,101.348,100.253,0.000246398,0.115319,20.7152,480.047,0.0996692,0.0,0.0
820,204.75,19.4227,21.1753,168.691,101.342,100.341,0.000231177,0.115099,20.7153,480.057,0.0911212,0.0,0.0
824,205.75,19.2236,20.8473,167.382,101.357,100.323,0.000203539,0.114918,20.7155,480.067,0.0940873,0.0,0.0
828,206.75,18.8791,21.3494,174.499,101.362,100.305,0.00019272,0.114814,20.7154,480.067,0.096168,0.0,0.0
832,207.75,18.6922,20.5916,172.247,101.352,100.199,0.000205666,0.114715,20.7147,480.067,0.10501,0.0,0.0
836,208.75,18.5837,20.9119,168.862,101.359,100.33,0.000257592,0.114617,20.7143,480.077,0.0936628,0.0,0.0
840,209.75,18.8424,20.8282,166.233,101.364,100.311,0.000312306,0.114428,20.714,480.077,0.0957978,0.0,0.0
844,210.75,18.5124,21.0442,166.392,101.349,100.357,0.000334153,0.114284,20.7138,480.077,0.0902341,0.0,0.0
848,211.75,18.9409,20.6941,165.642,101.355,100.405,0.000307743,0.114204,20.7129,480.087,0.0863902,0.0,0.0
852,212.75,18.9479,21.0506,169.958,101.359,100.313,0.000255981,0.114138,20.7115,480.067,0.0951926,0.0,0.0
856,213.75,19.1077,21.1388,168.866,101.349,100.346,0.000207396,0.114089,20.7106,480.067,0.0912544,0.0,0.0
860,214.75,19.5353,21.028,166.042,101.343,100.325,0.000185612,0.114096,20.71,480.067,0.0926796,0.0,0.0
864,215.75,18.7288,20.9381,170.505,101.335,100.182,0.000211039,0.114147,20.7093,480.087,0.105022,0.0,0.0
868,216.75,19.4296,20.728,168.504,101.324,100.209,0.000254041,0.114269,20.7081,480.077,0.101534,0.0,0.0
872,217.75,19.0387,21.041,166.853,101.322,100.306,0.000278193,0.114369,20.7068,480.077,0.0924457,0.0,0.0
876,218.75,19.3703,20.9986,167.044,101.322,100.275,0.000273593,0.11442,20.7051,480.067,0.095276,0.0,0.0
880,219.75,19.3254,20.6042,166.859,101.305,100.504,0.0002424,0.114468,20.704,480.057,0.0728045,0.0,0.0
884,220.75,18.9031,20.2689,164.115,101.311,100.395,0.000209764,0.11448,20.7033,480.067,0.083323,0.0,0.0
888,221.75,19.3374,20.3273,162.249,101.299,100.407,0.000202464,0.114487,20.7028,480.037,0.0811656,0.0,0.0
892,222.75,19.346,20.8527,170.36,101.303,100.205,0.000233661,0.114465,20.7025,480.037,0.0999732,0.0,0.0
896,223.75,19.4432,20.9103,161.051,101.298,100.384,0.000279634,0.114428,20.7025,480.037,0.0831398,0.0,0.0
900,224.75,19.5397,21.0842,170.203,101.292,100.091,0.000326075,0.114354,20.7028,480.047,0.10941,0.0,0.0
904,225.75,19.2029,21.319,166.16,101.287,100.289,0.000352419,0.114305,20.7025,480.047,0.0909338,0.0,0.0
908,226.75,19.0377,21.2816,171.389,101.292,100.257,0.000364761,0.114248,20.7023,480.057,0.0942572,0.0,0.0
912,227.75,19.4973,20.7014,166.134,101.284,100.271,0.000372859,0.114111,20.702,480.067,0.0922215,0.0,0.0
916,228.75,19.2814,20.5708,170.222,101.285,100.224,0.000381383,0.1141,20.7016,480.037,0.0966876,0.0,0.0
920,229.75,19.1809,20.7363,164.482,101.284,100.15,0.000397379,0.11415,20.7014,480.047,0.103394,0.0,0.0
924,230.75,19.6308,20.619,164.733,101.287,100.123,0.000415427,0.114271,20.7012,480.077,0.106079,0.0,0.0
928,231.75,18.957,20.6403,173.541,101.284,100.159,0.00043233,0.114301,20.7011,480.057,0.102482,0.0,0.0
932,232.75,18.904,20.9263,164.854,101.285,100.242,0.000454548,0.114359,20.701,480.037,0.0949328,0.0,0.0
936,233.75,19.2753,20.6832,165.574,101.277,100.294,0.000484802,0.114467,20.7009,480.037,0.0894975,0.0,0.0
940,234.75,18.5937,20.691,168.661,101.272,100.37,0.000499425,0.114574,20.7013,480.017,0.082085,0.0,0.0
944,235.75,19.2792,20.3756,166.949,101.284,100.354,0.000499066,0.114649,20.702,480.017,0.0846422,0.0,0.0
948,236.75,18.843,20.9186,170.049,101.298,100.217,0.000482141,0.114808,20.7024,480.037,0.098495,0.0,0.0
952,237.75,19.1257,20.6205,164.84,101.303,100.187,0.000461385,0.115002,20.7027,480.037,0.101674,0.0,0.0
956,238.75,19.1976,21.0037,165.183,101.301,100.174,0.000449039,0.115204,20.7028,480.067,0.102648,0.0,0.0
960,239.75,18.8487,20.8301,167.797,101.329,100.497,0.000443025,0.115411,20.7025,480.047,0.0756929,0.0,0.0
964,240.75,19.067,21.0906,165.473,101.329,99.928,0.000437462,0.115672,20.7011,480.037,0.127752,0.0,1.0
968,241.75,19.0909,20.9488,166.826,101.328,99.4651,0.00044265,0.116067,20.7002,480.017,0.170288,0.0,1.0
972,242.75,19.1005,21.0769,167.556,101.326,99.5513,0.000457102,0.116547,20.6978,479.587,0.162153,0.0,1.0
976,243.75,19.2864,21.0423,168.06,101.347,99.2491,0.000464843,0.117385,20.6944,480.057,0.191956,0.0,1.0
980,244.75,18.4975,20.4246,159.935,101.345,98.4159,0.000493766,0.118482,20.6896,480.037,0.269084,0.0,1.0
984,245.75,17.6477,19.273,165.457,101.336,97.2248,0.000561544,0.11996,20.6838,479.967,0.380036,0.0,1.0
988,246.75,18.7503,20.2556,160.833,101.343,96.6523,0.000657058,0.12159,20.6782,479.987,0.434826,0.0,1.0
992,247.75,18.1566,19.9117,169.445,101.354,96.1711,0.00078138,0.123477,20.6716,479.957,0.481633,0.0,0.0
996,248.75,18.3337,20.6032,164.307,101.361,94.8172,0.000938415,0.126071,20.6617,479.927,0.612367,0.0,0.0
1000,249.75,18.4733,20.6195,162.887,101.361,94.1869,0.00111692,0.129257,20.6546,479.897,0.673606,0.0,0.0
1004,250.75,18.6811,21.1957,163.226,101.369,94.6453,0.00132866,0.132759,20.6477,479.877,0.629801,0.0,0.0
1008,251.75,18.9836,21.5461,164.31,101.387,93.3157,0.0015947,0.136429,20.641,479.827,0.761225,0.0,0.0
1012,252.75,19.3554,21.3424,167.046,101.386,94.4191,0.00184711,0.139641,20.6334,479.787,0.653247,0.0,0.0
1016,253.75,19.6139,22.3478,161.494,101.389,93.7326,0.00206735,0.143969,20.6253,479.787,0.720478,0.0,0.0
1020,254.75,19.9425,22.3028,163.546,101.398,92.1413,0.00223183,0.148592,20.6176,479.767,0.878448,0.0,0.0
1024,255.75,20.1623,22.657,160.204,101.397,92.6104,0.00242021,0.153232,20.6122,479.707,0.831706,0.0,0.0
1028,256.75,19.8991,23.1201,158.291,101.407,92.3807,0.002602,0.158314,20.6074,479.647,0.855428,0.0,0.0
1032,257.75,19.8116,22.5935,162.429,101.405,91.2707,0.00277928,0.163107,20.6027,479.597,0.9662,0.0,0.0
1036,258.75,20.5904,22.9373,158.881,101.406,91.8964,0.00295292,0.167311,20.5975,479.587,0.903544,0.0,0.0
1040,259.75,20.2829,23.4845,162.139,101.42,90.5562,0.00314286,0.171698,20.5904,479.547,1.03962,0.0,0.0
1044,260.75,20.482,23.833,164.524,101.427,90.1779,0.00334916,0.176337,20.5825,479.507,1.0787,0.0,0.0
1048,261.75,21.0338,24.5903,158.163,101.424,89.0542,0.00353681,0.181172,20.5744,479.436,1.19347,0.0,0.0
1052,262.75,21.1905,24.6679,160.902,101.439,88.1111,0.00384913,0.186455,20.5636,479.366,1.29255,0.0,0.0
1056,263.75,21.8434,25.3762,159.44,101.437,88.5654,0.00424829,0.192144,20.5527,479.356,1.24517,0.0,0.0
1060,264.75,22.4053,26.0843,159.1,101.448,86.3272,0.00472993,0.198509,20.5395,479.246,1.48102,0.0,0.0
1064,265.75,21.9017,26.8402,162.474,101.453,85.744,0.00533017,0.205425,20.5194,479.186,1.5437,0.0,0.0
1068,266.75,23.001,27.5727,157.07,101.467,85.1731,0.00604826,0.213478,20.4954,479.106,1.60623,0.0,0.0
1072,267.75,23.7256,28.2551,150.442,101.483,82.6691,0.00674409,0.222394,20.4716,478.986,1.8815,0.0,0.0
1076,268.75,23.5566,29.5555,154.489,101.488,79.5947,0.00730608,0.23223,20.4543,478.846,2.22971,0.0,0.0
1080,269.75,24.552,29.9225,156.236,101.483,82.5667,0.00773986,0.241884,20.443,478.776,1.89287,0.0,0.0
1084,270.75,25.2481,30.6903,154.748,101.484,80.8837,0.00793717,0.251541,20.4356,478.716,2.082,0.0,0.0
1088,271.75,25.512,31.5811,158.511,101.505,86.9788,0.00779875,0.262029,20.4308,478.656,1.41723,0.0,0.0
1092,272.75,25.6564,31.4123,164.49,101.503,88.037,0.00747586,0.271462,20.4313,478.596,1.30604,0.0,0.0
1096,273.75,25.6504,31.597,158.568,101.523,89.9553,0.00696752,0.279457,20.4438,478.526,1.11003,0.0,0.0
1100,274.75,25.7255,31.335,164.81,101.526,91.6941,0.00624769,0.285203,20.4628,478.516,0.934616,0.0,0.0
1104,275.75,25.3445,31.0102,162.326,101.533,94.2898,0.00565704,0.289135,20.4826,478.476,0.679168,0.0,0.0
1108,276.75,25.5011,30.5692,163.287,101.536,95.5763,0.00499703,0.290768,20.5043,478.436,0.555079,0.0,0.0
1112,277.75,25.2207,30.5999,163.5,101.542,95.8532,0.00440663,0.290478,20.5263,478.436,0.529021,0.0,0.0
1116,278.75,24.9159,29.934,163.496,101.539,97.1533,0.00383939,0.288476,20.5482,478.395,0.405132,0.0,0.0
1120,279.75,24.6803,29.65,156.775,101.544,98.5037,0.00332114,0.285684,20.5696,478.415,0.278917,0.0,0.0
1124,280.75,24.5356,28.9305,163.277,101.557,98.991,0.00286221,0.280652,20.5903,478.395,0.234863,0.0,0.0
1128,281.75,23.9699,28.899,168.418,101.547,99.6319,0.00248662,0.274689,20.6082,478.395,0.174746,0.0,0.0
1132,282.75,23.773,27.9146,165.664,101.551,99.9727,0.00219937,0.268166,20.6213,478.375,0.143715,0.0,0.0
1136,283.75,23.7606,27.6115,168.955,101.569,100.387,0.00197979,0.261242,20.6324,478.345,0.107397,0.0,0.0
1140,284.75,23.7266,27.113,167.694,101.575,100.635,0.00182905,0.254749,20.6429,478.355,0.0853184,0.0,0.0
1144,285.75,23.3783,26.7371,165.84,101.576,100.664,0.00174126,0.247303,20.6505,478.335,0.0828038,0.0,0.0
1148,286.75,22.5929,26.3512,164.4,101.585,100.741,0.00169923,0.239621,20.6554,478.355,0.0765532,0.0,0.0
1152,287.75,22.6209,25.5712,167.156,101.578,100.747,0.00168943,0.231505,20.5701,478.365,0.0753295,0.0,0.0
1156,288.75,22.3153,25.3313,166.666,101.59,100.782,0.0016919,0.223364,20.4281,478.385,0.0732234,0.0,0.0
1160,289.75,21.9324,24.7125,166.875,101.596,100.74,0.00169106,0.215672,20.3138,478.375,0.0776976,0.0,0.0
1164,290.75,20.6737,24.0652,163.857,101.594,100.809,0.00167133,0.209279,20.2281,478.365,0.0712318,0.0,0.0
1168,291.75,21.3307,23.9173,166.709,101.609,100.769,0.00163734,0.204641,20.1718,478.375,0.0761724,0.0,0.0
1172,292.75,20.5994,23.2437,166.143,101.619,100.741,0.0015977,0.201488,20.1341,478.405,0.079615,0.0,0.0
1176,293.75,20.586,23.4634,166.871,101.617,101.34,0.00156059,0.199314,20.1094,478.365,0.0250342,0.0,0.0
1180,294.75,20.4316,23.3411,170.904,101.628,100.638,0.00151181,0.197847,20.0938,478.345,0.0898518,0.0,0.0
1184,295.75,20.6252,23.4208,168.135,101.642,100.59,0.00144428,0.196859,20.0837,478.355,0.095473,0.0,0.0
1188,296.75,20.1538,22.4523,166.659,101.643,100.61,0.00139997,0.196199,20.0771,478.375,0.0937354,0.0,0.0
1192,297.75,20.1864,22.2531,171.17,101.654,100.658,0.00133984,0.195781,20.2349,478.365,0.0903565,0.0,0.0
1196,298.75,19.9743,21.7595,164.451,101.65,100.682,0.00131087,0.195544,20.382,478.365,0.0878032,0.0,0.0
1200,299.75,19.8981,22.035,169.526,101.656,100.682,0.00130082,0.195471,20.4783,478.355,0.0883611,0.0,0.0
1204,300.75,19.7153,21.8237,170.96,101.651,100.641,0.00128938,0.195444,20.5414,478.355,0.0916584,0.0,0.0
1208,301.75,19.2433,21.9907,166.489,101.66,100.541,0.00125187,0.195425,20.5828,478.365,0.101515,0.0,0.0
1212,302.75,19.0518,21.9285,172.05,101.669,100.629,0.00119522,0.195361,20.61,478.355,0.0943222,0.0,0.0
1216,303.75,19.3335,21.764,166.224,101.667,100.635,0.00112346,0.195292,20.6278,478.345,0.0936271,0.0,0.0
1220,304.75,18.9255,21.3704,167.704,101.673,100.665,0.00103275,0.195325,20.6395,478.365,0.091458,0.0,0.0
1224,305.75,19.5583,21.2471,168.936,101.68,100.655,0.00096499,0.195265,20.6471,478.355,0.0929687,0.0,0.0
1228,306.75,19.6462,21.1332,165.06,101.669,100.658,0.000940664,0.195117,20.6522,478.365,0.0917699,0.0,0.0
1232,307.75,19.0665,20.618,171.348,101.684,100.612,0.000945578,0.194995,20.6555,478.355,0.0972796,0.0,0.0
1236,308.75,18.6994,20.6777,169.802,101.683,100.672,0.000963504,0.195011,20.6576,478.365,0.0916573,0.0,0.0
1240,309.75,19.0795,20.7917,165.811,101.678,100.768,0.000992055,0.194977,20.6592,478.355,0.0824797,0.0,0.0
1244,310.75,19.023,20.591,170.474,101.7,100.657,0.00100978,0.194928,20.6602,478.355,0.0946524,0.0,0.0
1248,311.75,18.6605,20.0471,168.884,101.682,100.782,0.0010683,0.194878,20.661,478.365,0.0815679,0.0,0.0
1252,312.75,18.868,20.2285,164.906,101.704,100.712,0.00114664,0.194873,20.6616,478.365,0.0899124,0.0,0.0
1256,313.75,18.9337,20.9251,165.01,101.697,100.672,0.00122252,0.194871,20.662,478.355,0.092959,0.0,0.0
1260,314.75,18.7911,20.4823,169.174,101.704,100.676,0.0012789,0.194876,20.6622,478.355,0.0931929,0.0,0.0
1264,315.75,19.1533,20.3101,173.176,101.703,100.696,0.00131221,0.194891,20.6624,478.385,0.0912707,0.0,0.0
1268,316.75,18.7855,20.14,165.837,101.696,100.652,0.00132617,0.194882,20.6625,478.365,0.0946968,0.0,0.0
1272,317.75,18.5679,20.1806,166.696,101.721,100.679,0.00132555,0.194876,20.6625,478.385,0.0945615,0.0,0.0
1276,318.75,18.4551,19.9905,164.232,101.706,100.596,0.00131098,0.194898,20.6626,478.385,0.100685,0.0,0.0
1280,319.75,18.4954,20.2312,165.527,101.703,100.692,0.00126149,0.194808,20.6626,478.375,0.0916865,0.0,0.0
1284,320.75,18.0235,19.9132,170.287,101.709,100.772,0.00120329,0.194831,20.6626,478.375,0.0849088,0.0,0.0
1288,321.75,18.2924,19.9663,169.568,101.721,100.708,0.00113937,0.194889,20.6626,478.355,0.0917602,0.0,0.0
1292,322.75,18.2351,20.035,169.404,101.71,100.74,0.00109959,0.194933,20.6626,478.355,0.0879668,0.0,0.0
1296,323.75,18.3141,19.9939,173.343,101.705,100.725,0.00108683,0.194883,20.6626,478.365,0.0889061,0.0,0.0
1300,324.75,18.3629,19.5995,166.124,101.708,100.738,0.0010989,0.194912,20.6626,478.345,0.0879288,0.0,0.0
1304,325.75,18.4194,20.0354,169.959,101.735,100.662,0.00113303,0.194886,20.6626,478.255,0.0972677,0.0,0.0
1308,326.75,18.2045,19.7039,165.617,101.721,100.649,0.00117472,0.194853,20.6626,478.305,0.097205,0.0,0.0
1312,327.75,18.3772,19.5333,170.525,101.722,100.708,0.00121026,0.194831,20.6631,478.365,0.0918717,0.0,0.0
1316,328.75,18.2576,19.4882,173.579,101.73,100.781,0.00122881,0.194824,20.6633,478.335,0.0860109,0.0,0.0
1320,329.75,18.0296,19.8056,167.244,101.728,100.689,0.00122025,0.19483,20.6633,478.365,0.0942226,0.0,0.0
1324,330.75,17.8619,19.1841,165.586,101.73,100.693,0.00118626,0.194816,20.6639,478.375,0.0940483,0.0,0.0
1328,331.75,17.8714,19.4958,171.32,101.72,100.76,0.00115885,0.194728,20.6643,478.375,0.0870111,0.0,0.0
1332,332.75,18.3773,19.38,168.379,101.728,100.725,0.00115502,0.194697,20.6637,478.395,0.0909522,0.0,0.0
1336,333.75,17.9924,19.653,169.451,101.728,100.722,0.00120353,0.194754,20.6634,478.395,0.0911829,0.0,0.0
1340,334.75,18.4998,19.5055,167.91,101.72,100.673,0.00126335,0.194792,20.6631,478.405,0.0949123,0.0,0.0
1344,335.75,18.638,19.8166,172.538,101.724,100.752,0.00130313,0.194817,20.663,478.405,0.0880849,0.0,0.0
1348,336.75,18.4762,19.4788,168.521,101.729,100.818,0.00129849,0.194803,20.6629,478.405,0.082484,0.0,0.0
1352,337.75,18.1082,19.1035,168.047,101.743,100.765,0.00125994,0.194705,20.6628,478.415,0.0885951,0.0,0.0
1356,338.75,18.8733,20.0152,163.935,101.741,100.712,0.00120281,0.194618,20.6627,478.395,0.0932135,0.0,0.0
1360,339.75,18.4077,19.3892,167.533,101.755,100.706,0.00113888,0.194599,20.6627,478.385,0.0950313,0.0,0.0
1364,340.75,18.1312,19.8311,168.884,101.753,100.724,0.00109987,0.194586,20.6627,478.385,0.093312,0.0,0.0
1368,341.75,18.5158,19.7173,169.961,101.768,100.748,0.00109625,0.194551,20.6627,478.345,0.0923948,0.0,0.0
1372,342.75,18.2226,19.722,169.014,101.759,100.726,0.0011206,0.194508,20.6627,478.345,0.0936379,0.0,0.0
1376,343.75,18.1486,19.6253,171.702,101.758,100.727,0.00118562,0.194474,20.6624,478.375,0.0934809,0.0,0.0
1380,344.75,18.0118,19.2593,172.66,101.759,100.688,0.00125894,0.194466,20.6617,478.375,0.0971032,0.0,0.0
1384,345.75,17.7573,19.2677,168.04,101.753,100.682,0.00134499,0.194473,20.6618,478.395,0.0971086,0.0,0.0
1388,346.75,17.5693,19.2685,168.901,101.765,100.756,0.00139445,0.194425,20.662,478.375,0.0915165,0.0,0.0
1392,347.75,18.4926,20.239,168.067,101.758,100.789,0.00143377,0.194443,20.6621,478.375,0.0877631,0.0,0.0
1396,348.75,18.6058,19.5476,168.411,101.75,100.779,0.00148994,0.194491,20.6622,478.375,0.0879798,0.0,0.0
1400,349.75,18.3646,18.7612,163.073,101.748,100.732,0.00156412,0.194541,20.6623,478.355,0.0921262,0.0,0.0
1404,350.75,17.7427,19.4143,168.422,101.764,100.745,0.00162326,0.194496,20.6623,478.365,0.0923287,0.0,0.0
1408,351.75,17.5432,19.7541,165.331,101.754,100.668,0.00165546,0.194437,20.6623,478.365,0.0984691,0.0,0.0
1412,352.75,17.9578,19.4225,168.956,101.749,100.602,0.00166961,0.194453,20.6623,478.375,0.104024,0.0,0.0
1416,353.75,17.6783,19.4621,164.105,101.761,100.871,0.00163221,0.19449,20.6624,478.375,0.0805476,0.0,0.0
1420,354.75,17.6405,19.1679,168.71,101.743,100.704,0.00157656,0.194437,20.6624,478.395,0.0941847,0.0,0.0
1424,355.75,18.163,19.1233,166.752,101.75,100.767,0.00151731,0.194422,20.6624,478.375,0.0891249,0.0,0.0
1428,356.75,18.2219,19.2809,167.588,101.759,100.722,0.00145306,0.194446,20.6624,478.345,0.0940548,0.0,0.0
1432,357.75,18.1511,19.1858,168.587,101.767,100.783,0.00138857,0.194471,20.6624,478.365,0.0890881,0.0,0.0
1436,358.75,17.9513,19.3053,166.042,101.757,100.757,0.00131398,0.19445,20.6624,478.365,0.0905981,0.0,0.0
1440,359.75,18.1746,19.2154,165.296,101.769,100.717,0.00124499,0.194384,20.6624,478.365,0.0953247,0.0,0.0
1444,360.75,17.8806,19.2558,168.041,101.759,100.74,0.00118715,0.194288,20.6624,478.375,0.0923071,0.0,0.0
1448,361.75,17.9227,19.5697,164.351,101.756,100.722,0.00115806,0.194226,20.6624,478.375,0.0937473,0.0,0.0
1452,362.75,17.8348,18.9898,169.592,101.762,100.722,0.00116668,0.194246,20.6627,478.365,0.0942681,0.0,0.0
1456,363.75,18.3455,19.9388,172.414,101.765,100.748,0.00120025,0.194319,20.6629,478.375,0.0922096,0.0,0.0
1460,364.75,17.7397,18.7946,169.397,101.767,100.72,0.00124431,0.194389,20.663,478.375,0.0948982,0.0,0.0
1464,365.75,18.2151,19.2574,172.541,101.768,100.693,0.0013043,0.194424,20.6631,478.365,0.097468,0.0,0.0
1468,366.75,17.516,19.118,168.288,101.775,100.711,0.00134301,0.194476,20.6631,478.365,0.096391,0.0,0.0
1472,367.75,17.5256,19.1777,168.917,101.765,100.676,0.00136684,0.194472,20.6626,478.335,0.0986952,0.0,0.0
1476,368.75,18.4788,19.2749,169.549,101.786,100.725,0.0013536,0.194453,20.6623,478.335,0.0961918,0.0,0.0
1480,369.75,18.0389,19.6342,167.141,101.756,100.796,0.00131164,0.194399,20.6621,478.365,0.0869299,0.0,0.0
1484,370.75,18.0985,19.8652,164.719,101.773,100.801,0.00125748,0.194338,20.662,478.335,0.0880394,0.0,0.0
1488,371.75,17.7633,19.4941,166.95,101.773,100.962,0.00120972,0.194294,20.6619,478.355,0.073372,0.0,0.0
1492,372.75,17.8691,19.3356,169.835,101.762,100.809,0.00118033,0.194299,20.6619,478.365,0.0863252,0.0,0.0
1496,373.75,17.4415,19.0118,168.871,101.762,100.728,0.00116826,0.194339,20.6621,478.365,0.0936769,0.0,0.0
1500,374.75,17.6492,19.0551,169.69,101.775,100.776,0.00117773,0.194304,20.6622,478.345,0.0905623,0.0,0.0
1504,375.75,17.4569,19.6346,166.982,101.766,100.752,0.00119696,0.194129,20.6622,478.355,0.0919605,0.0,0.0
1508,376.75,17.9027,19.1898,169.483,101.769,100.738,0.00122862,0.193989,20.6623,478.365,0.0934679,0.0,0.0
1512,377.75,17.6475,19.1582,168.455,101.765,100.765,0.00127289,0.193938,20.6623,478.355,0.0906479,0.0,0.0
1516,378.75,17.698,19.3606,164.297,101.751,100.816,0.00132082,0.193958,20.6623,478.355,0.0846758,0.0,0.0
1520,379.75,17.9136,18.9638,165.516,101.751,100.735,0.00138559,0.194007,20.6623,478.355,0.0920255,0.0,0.0
1524,380.75,17.8797,19.5876,163.855,101.738,100.727,0.00146486,0.193996,20.6623,478.365,0.0916118,0.0,0.0
1528,381.75,17.8842,19.2564,167.865,101.74,100.713,0.0015452,0.193968,20.6623,478.375,0.0930911,0.0,0.0
1532,382.75,18.2915,19.0877,170.463,101.75,100.703,0.00161161,0.193976,20.6624,478.375,0.094909,0.0,0.0
1536,383.75,17.6873,19.1006,170.958,101.748,100.794,0.00164681,0.194019,20.6627,478.375,0.0864932,0.0,0.0
1540,384.75,17.8393,18.964,168.599,101.738,100.649,0.00166394,0.194047,20.6629,478.355,0.0987753,0.0,0.0
1544,385.75,17.9437,19.2808,167.129,101.737,100.684,0.00167538,0.194067,20.663,478.365,0.0954655,0.0,0.0
1548,386.75,18.1299,19.5717,174.044,101.731,100.68,0.00169158,0.194107,20.6631,478.375,0.0953236,0.0,0.0
1552,387.75,17.9246,19.1555,167.93,101.737,100.747,0.00168994,0.194159,20.6631,478.385,0.0896904,0.0,0.0
1556,388.75,17.7066,18.6415,168.734,101.742,100.714,0.00166979,0.194144,20.6632,478.375,0.0931951,0.0,0.0
1560,389.75,18.0316,18.6578,164.794,101.728,100.773,0.00165233,0.194117,20.6632,478.365,0.0866015,0.0,0.0
1564,390.75,17.5998,19.1136,165.856,101.726,100.683,0.00164533,0.194087,20.6639,478.365,0.094555,0.0,0.0
1568,391.75,17.6726,19.118,168.467,101.723,100.68,0.0016474,0.194042,20.6643,478.365,0.0945712,0.0,0.0
1572,392.75,17.6599,18.5462,166.206,101.72,100.65,0.00163124,0.193997,20.6646,478.355,0.0970469,0.0,0.0
1576,393.75,18.1293,18.7766,168.848,101.719,100.678,0.00160716,0.193964,20.6646,478.345,0.0944207,0.0,0.0
1580,394.75,17.7792,18.8325,161.608,101.723,100.704,0.0015916,0.19399,20.6645,478.345,0.092437,0.0,0.0
1584,395.75,18.0249,18.8927,170.605,101.723,100.824,0.00158769,0.194029,20.6644,478.355,0.0814551,0.0,0.0
1588,396.75,17.5917,18.8564,164.719,101.721,100.664,0.00158957,0.194053,20.6644,478.345,0.0957805,0.0,0.0
1592,397.75,17.8026,19.2068,168.906,101.723,100.672,0.00158414,0.194043,20.6643,478.345,0.0952652,0.0,0.0
1596,398.75,17.8159,19.1775,163.645,101.707,100.677,,0.193993,,478.355,0.0934354,0.0,0.0
1600,399.75,18.06,19.1997,165.372,101.722,100.674,,0.193933,,478.365,0.0950054,0.0,0.0
1604,400.75,17.6907,18.8717,172.358,101.732,100.763,,0.193927,,478.355,0.0878216,0.0,0.0
1608,401.75,17.0811,19.504,165.158,101.723,100.81,,,,478.375,0.0827106,0.0,0.0
1612,402.75,18.2547,19.0753,168.543,101.709,100.774,,,,478.375,0.0847516,0.0,0.0
1616,403.75,18.0225,18.9525,171.661,101.724,100.684,,,,478.365,0.0943222,0.0,0.0
1620,404.75,17.4417,18.7871,163.112,101.711,100.718,,,,478.365,0.0900283,0.0,0.0
1624,405.75,17.7916,18.6063,171.453,101.724,100.643,,,,478.355,0.0981033,0.0,0.0
1628,406.75,17.775,19.0699,165.327,101.736,100.747,,,,478.345,0.0895788,0.0,0.0
1632,407.75,17.3331,18.8366,163.035,101.717,100.676,,,,478.335,0.0943374,0.0,0.0
1636,408.75,17.8665,18.9806,171.046,101.73,100.577,,,,478.345,0.10459,0.0,0.0
1638,409.25,17.9904,18.7169,167.974,101.728,100.839,,,,478.345,0.0805628,0.0,0.0