File: 01_Data/Polyolefin_Carpet_Low_Pile/Cone/Polyolefin_Carpet_Low_Pile_HRRPUA_50.csv
Time after Ignition,Polyolefin_Carpet_Low_Pile_R1,Polyolefin_Carpet_Low_Pile_R2,Polyolefin_Carpet_Low_Pile_R3,Mean,Std. Dev.
0.0,23.3,29.0,17.5,23.3,5.8
0.25,25.9,32.4,18.9,25.7,6.8
0.5,28.4,35.5,19.8,27.9,7.9
0.75,33.4,38.0,23.4,31.6,7.5
1.0,38.8,43.7,26.5,36.3,8.9
1.25,42.9,48.7,29.0,40.2,10.1
1.5,51.6,52.7,31.0,45.1,12.2
1.75,60.9,56.3,33.3,50.2,14.7
2.0,66.7,62.7,38.1,55.9,15.5
2.25,73.5,69.6,42.5,61.8,16.9
2.5,84.3,77.6,46.4,69.4,20.2
2.75,92.5,80.3,52.3,75.0,20.6
3.0,100.1,90.2,59.2,83.2,21.3
3.25,108.2,98.9,64.2,90.4,23.2
3.5,115.9,107.1,68.8,97.3,25.0
3.75,124.3,113.8,79.5,105.8,23.5
4.0,133.2,126.3,87.4,115.6,24.7
4.25,144.3,138.8,95.4,126.2,26.8
4.5,151.8,146.3,102.9,133.7,26.8
4.75,154.9,154.4,110.4,139.9,25.5
5.0,167.0,164.5,120.8,150.8,26.0
5.25,182.8,174.4,129.6,162.2,28.6
5.5,190.4,184.3,134.7,169.8,30.5
5.75,191.7,192.7,144.6,176.3,27.5
6.0,205.4,199.8,152.6,185.9,29.0
6.25,214.1,203.7,162.3,193.4,27.4
6.5,215.6,214.2,167.9,199.2,27.2
6.75,222.3,218.5,174.9,205.2,26.3
7.0,228.4,229.3,183.9,213.9,26.0
7.25,233.5,232.5,188.6,218.2,25.7
7.5,246.8,247.7,196.5,230.3,29.3
7.75,252.4,246.3,207.9,235.5,24.2
8.0,254.3,253.0,214.2,240.5,22.8
8.25,275.8,258.7,219.8,251.4,28.7
8.5,283.0,260.5,225.3,256.3,29.1
8.75,285.6,271.4,235.9,264.3,25.6
9.0,299.6,276.1,244.9,273.5,27.4
9.25,310.2,284.6,249.6,281.5,30.5
9.5,311.8,286.5,254.6,284.3,28.7
9.75,326.2,289.3,273.1,296.2,27.2
10.0,334.1,292.4,278.8,301.7,28.8
10.25,355.9,303.4,285.0,314.7,36.8
10.5,354.8,309.6,290.4,318.3,33.0
10.75,358.7,306.8,308.1,324.5,29.6
11.0,375.4,315.3,320.8,337.2,33.2
11.25,373.0,324.4,327.5,341.7,27.2
11.5,374.3,323.6,336.2,344.7,26.4
11.75,392.6,342.9,353.0,362.8,26.3
12.0,394.8,344.4,361.9,367.0,25.6
12.25,410.8,345.6,369.0,375.1,33.1
12.5,411.7,351.9,388.4,384.0,30.2
12.75,417.1,361.3,383.8,387.4,28.1
13.0,426.4,357.8,393.9,392.7,34.3
13.25,425.5,364.0,408.3,399.3,31.7
13.5,435.4,372.5,428.7,412.2,34.5
13.75,442.0,373.0,418.4,411.1,35.1
14.0,451.6,382.1,430.9,421.5,35.7
14.25,452.4,404.3,439.3,432.0,24.9
14.5,479.4,413.8,453.4,448.9,33.0
14.75,471.3,414.8,458.1,448.1,29.5
15.0,486.8,416.2,462.7,455.2,35.9
15.25,494.6,427.5,481.2,467.8,35.5
15.5,506.4,428.2,474.1,469.6,39.3
15.75,512.7,428.1,496.4,479.0,44.9
16.0,519.7,438.9,495.3,484.6,41.5
16.25,534.8,452.6,502.4,496.6,41.4
16.5,535.6,475.2,504.3,505.0,30.2
16.75,563.8,473.3,507.9,515.0,45.7
17.0,548.3,469.9,516.8,511.7,39.4
17.25,569.6,481.3,518.1,523.0,44.4
17.5,594.0,499.7,547.2,547.0,47.1
17.75,585.9,505.5,557.8,549.7,40.8
18.0,604.5,509.1,570.0,561.2,48.3
18.25,601.6,516.9,547.0,555.2,42.9
18.5,620.0,511.7,578.9,570.2,54.7
18.75,625.1,536.5,578.1,579.9,44.3
19.0,607.0,532.3,574.4,571.2,37.4
19.25,637.0,552.1,599.4,596.2,42.5
19.5,621.7,557.3,600.3,593.1,32.8
19.75,650.6,556.9,604.3,603.9,46.9
20.0,644.2,557.7,605.8,602.6,43.4
20.25,650.3,578.7,612.4,613.8,35.8
20.5,678.3,595.3,640.4,638.0,41.5
20.75,661.9,583.2,631.3,625.5,39.7
21.0,664.5,589.3,644.2,632.7,38.9
21.25,684.9,590.0,629.2,634.7,47.7
21.5,691.6,599.5,651.9,647.7,46.2
21.75,681.1,595.6,654.6,643.8,43.8
22.0,700.9,633.7,660.3,665.0,33.8
22.25,709.9,623.0,650.1,661.0,44.5
22.5,688.5,621.0,667.6,659.0,34.5
22.75,703.3,628.3,673.5,668.4,37.8
23.0,697.2,623.9,674.1,665.1,37.5
23.25,713.7,641.4,706.0,687.0,39.7
23.5,722.5,662.2,691.8,692.2,30.1
23.75,725.3,652.0,695.2,690.9,36.8
24.0,740.5,670.5,686.6,699.2,36.6
24.25,726.0,651.5,702.6,693.4,38.1
24.5,737.9,646.7,705.7,696.8,46.3
24.75,751.0,691.9,701.0,714.6,31.8
25.0,730.1,656.0,696.4,694.1,37.1
25.25,764.2,677.8,709.5,717.1,43.7
25.5,765.0,694.7,706.0,721.9,37.7
25.75,749.8,675.5,739.2,721.5,40.2
26.0,748.3,687.8,706.7,714.3,31.0
26.25,750.3,690.5,744.1,728.3,32.9
26.5,773.0,688.1,739.4,733.5,42.8
26.75,760.9,688.5,751.9,733.8,39.5
27.0,765.7,708.9,744.2,739.6,28.7
27.25,751.3,676.7,739.9,722.6,40.2
27.5,770.0,706.3,756.2,744.2,33.5
27.75,771.1,716.1,737.4,741.5,27.8
28.0,788.3,694.9,750.2,744.5,47.0
28.25,774.2,700.5,752.8,742.5,37.9
28.5,768.3,691.3,744.6,734.7,39.4
28.75,776.8,709.7,744.9,743.8,33.6
29.0,757.8,693.6,775.9,742.4,43.3
29.25,771.9,709.1,724.1,735.0,32.8
29.5,760.5,720.0,764.7,748.4,24.7
29.75,778.7,707.3,769.1,751.7,38.8
30.0,749.5,719.7,734.3,734.5,14.9
30.25,743.8,692.2,781.8,739.3,45.0
30.5,788.7,715.9,752.9,752.5,36.4
30.75,744.9,714.1,750.9,736.6,19.7
31.0,771.4,693.4,754.4,739.7,41.0
31.25,765.4,699.8,736.0,733.8,32.9
31.5,756.5,719.1,769.6,748.4,26.2
31.75,742.2,705.4,745.0,730.9,22.1
32.0,750.6,702.7,759.5,737.6,30.6
32.25,756.1,712.7,740.4,736.4,22.0
32.5,744.1,706.6,740.8,730.5,20.7
32.75,725.2,703.9,742.8,724.0,19.5
33.0,739.4,736.7,760.2,745.4,12.8
33.25,729.9,689.9,759.3,726.4,34.8
33.5,737.3,700.8,712.1,716.7,18.7
33.75,726.3,675.8,733.3,711.8,31.4
34.0,723.2,699.8,745.8,722.9,23.0
34.25,752.1,689.4,727.8,723.1,31.6
34.5,728.4,697.9,726.5,717.6,17.1
34.75,729.9,686.8,739.1,718.6,27.9
35.0,707.3,687.8,725.0,706.7,18.6
35.25,689.9,679.7,724.4,698.0,23.5
35.5,702.1,699.7,721.7,707.8,12.1
35.75,717.8,667.8,699.2,694.9,25.3
36.0,707.6,690.3,719.9,705.9,14.8
36.25,688.0,675.8,708.5,690.8,16.5
36.5,671.4,672.5,724.0,689.3,30.1
36.75,657.7,686.0,719.2,687.6,30.8
37.0,657.5,674.9,707.8,680.1,25.5
37.25,659.8,676.4,704.3,680.2,22.4
37.5,647.7,670.5,706.6,674.9,29.7
37.75,642.6,648.1,693.2,661.3,27.8
38.0,643.6,644.3,712.6,666.8,39.6
38.25,620.0,658.0,689.8,655.9,35.0
38.5,637.3,658.8,692.3,662.8,27.7
38.75,612.6,623.3,715.0,650.3,56.2
39.0,622.8,627.9,683.8,644.8,33.9
39.25,603.4,611.1,682.0,632.1,43.3
39.5,592.8,598.9,680.2,624.0,48.8
39.75,582.7,601.3,673.2,619.0,47.8
40.0,570.3,607.1,662.8,613.4,46.5
40.25,579.2,604.7,649.3,611.1,35.5
40.5,571.1,583.0,668.9,607.7,53.4
40.75,556.1,581.8,640.7,592.9,43.3
41.0,542.9,575.5,636.7,585.0,47.6
41.25,548.4,572.3,637.5,586.1,46.1
41.5,539.8,563.4,626.0,576.4,44.5
41.75,519.6,571.8,634.1,575.2,57.3
42.0,529.7,544.0,631.2,568.3,54.9
42.25,516.7,550.3,632.6,566.6,59.6
42.5,506.1,550.9,613.1,556.7,53.7
42.75,497.9,537.6,600.5,545.3,51.7
43.0,495.5,538.3,612.8,548.9,59.4
43.25,490.4,527.7,608.2,542.1,60.2
43.5,485.4,527.4,591.7,534.8,53.6
43.75,470.7,508.1,601.2,526.7,67.2
44.0,460.5,514.1,589.3,521.3,64.7
44.25,462.0,510.5,581.5,518.0,60.1
44.5,462.3,490.5,571.8,508.2,56.9
44.75,460.0,481.8,546.8,496.2,45.2
45.0,442.5,477.5,556.5,492.2,58.4
45.25,436.8,476.5,547.8,487.0,56.3
45.5,428.7,467.0,551.2,482.3,62.7
45.75,426.8,464.7,540.3,477.3,57.8
46.0,420.8,451.5,514.7,462.3,47.9
46.25,412.0,443.2,514.9,456.7,52.8
46.5,406.9,439.8,509.3,452.0,52.3
46.75,400.5,435.4,492.1,442.7,46.2
47.0,394.4,421.0,498.5,438.0,54.1
47.25,386.1,417.0,479.2,427.4,47.5
47.5,374.8,400.2,485.7,420.3,58.1
47.75,365.0,411.6,480.6,419.1,58.2
48.0,360.4,399.8,476.4,412.2,59.0
48.25,357.9,385.7,465.0,402.9,55.6
48.5,343.7,386.8,470.9,400.5,64.7
48.75,336.1,379.7,450.3,388.7,57.6
49.0,329.6,375.5,453.2,386.1,62.5
49.25,318.5,368.5,439.7,375.6,60.9
49.5,314.7,360.1,431.2,368.7,58.7
49.75,305.1,356.0,431.4,364.2,63.6
50.0,300.5,349.9,416.0,355.5,58.0
50.25,296.6,344.4,420.3,353.8,62.4
50.5,288.7,337.4,406.5,344.2,59.2
50.75,277.6,329.5,394.2,333.7,58.4
51.0,276.4,314.4,388.1,326.3,56.8
51.25,264.6,313.7,382.8,320.4,59.4
51.5,259.8,307.0,379.0,315.3,60.0
51.75,257.0,297.4,364.2,306.2,54.2
52.0,250.5,290.4,354.4,298.4,52.4
52.25,239.1,289.3,353.6,294.0,57.4
52.5,237.3,282.6,345.3,288.4,54.2
52.75,234.5,278.4,334.5,282.5,50.1
53.0,232.6,268.9,324.0,275.2,46.0
53.25,227.1,262.6,312.4,267.4,42.8
53.5,220.4,263.9,301.8,262.0,40.7
53.75,219.6,258.7,306.0,261.4,43.2
54.0,215.8,253.5,293.1,254.1,38.6
54.25,209.9,243.9,289.5,247.8,39.9
54.5,205.3,239.1,283.2,242.5,39.1
54.75,200.9,239.9,271.6,237.4,35.4
55.0,198.2,236.1,266.9,233.7,34.4
55.25,198.9,230.8,258.1,229.3,29.6
55.5,189.3,230.1,252.1,223.8,31.8
55.75,186.7,226.6,244.2,219.2,29.4
56.0,185.1,222.1,240.6,215.9,28.3
56.25,182.6,219.2,233.4,211.7,26.2
56.5,177.1,217.7,232.0,208.9,28.5
56.75,173.5,213.3,226.6,204.5,27.6
57.0,165.2,207.9,221.6,198.2,29.4
57.25,165.9,207.8,223.3,199.0,29.7
57.5,163.1,202.8,216.4,194.1,27.7
57.75,158.0,200.4,208.9,189.1,27.3
58.0,155.7,197.5,201.7,185.0,25.4
58.25,150.0,190.5,203.5,181.3,27.9
58.5,147.1,187.0,191.8,175.3,24.6
58.75,146.8,182.5,188.4,172.6,22.5
59.0,140.3,179.3,186.4,168.7,24.8
59.25,139.5,176.7,184.2,166.8,23.9
59.5,137.7,170.7,176.9,161.8,21.1
59.75,132.5,164.8,175.1,157.5,22.2
60.0,132.7,162.4,169.8,155.0,19.6
60.25,128.5,158.2,166.7,151.2,20.1
60.5,125.3,152.5,161.0,146.3,18.6
60.75,123.1,152.8,156.9,144.3,18.4
61.0,121.2,146.1,155.1,140.8,17.5
61.25,118.7,142.1,150.0,136.9,16.2
61.5,119.1,138.1,144.5,133.9,13.2
61.75,114.0,135.6,140.6,130.1,14.1
62.0,112.8,134.1,137.4,128.1,13.3
62.25,110.4,130.7,133.0,124.7,12.4
62.5,108.6,127.4,131.4,122.5,12.1
62.75,106.0,125.5,128.3,119.9,12.2
63.0,104.4,122.1,124.0,116.8,10.8
63.25,102.1,120.0,123.4,115.2,11.5
63.5,100.0,115.7,118.6,111.4,10.0
63.75,98.1,115.4,117.4,110.3,10.6
64.0,96.2,113.6,116.0,108.6,10.8
64.25,94.9,112.0,114.0,106.9,10.5
64.5,91.8,109.1,110.9,103.9,10.6
64.75,91.0,107.6,107.8,102.2,9.6
65.0,89.8,106.5,108.4,101.6,10.3
65.25,90.0,102.4,102.2,98.2,7.1
65.5,87.2,101.8,101.8,96.9,8.4
65.75,86.0,99.0,96.7,93.9,6.9
66.0,84.5,96.8,96.9,92.7,7.1
66.25,83.6,94.7,94.0,90.8,6.2
66.5,81.3,93.8,92.6,89.2,6.9
66.75,82.2,91.8,91.1,88.3,5.3
67.0,80.8,88.0,90.3,86.4,4.9
67.25,81.1,86.4,86.3,84.6,3.0
67.5,79.1,85.3,84.5,82.9,3.4
67.75,78.0,82.6,83.0,81.2,2.7
68.0,78.3,80.8,80.3,79.8,1.3
68.25,76.7,79.2,80.2,78.7,1.8
68.5,76.8,77.0,78.0,77.2,0.7
68.75,75.3,75.2,76.7,75.7,0.8
69.0,74.7,74.2,74.4,74.4,0.3
69.25,72.2,72.3,73.8,72.7,0.9
69.5,72.5,70.0,72.9,71.8,1.6
69.75,72.0,70.4,72.3,71.5,1.0
70.0,71.2,68.5,70.4,70.1,1.4
70.25,70.3,66.4,69.4,68.7,2.0
70.5,69.2,64.6,67.7,67.2,2.3
70.75,68.8,63.2,67.7,66.6,3.0
71.0,67.6,62.6,66.0,65.4,2.5
71.25,65.6,60.9,65.3,63.9,2.6
71.5,64.8,59.8,65.1,63.2,3.0
71.75,64.3,59.1,63.9,62.4,2.9
72.0,63.7,58.3,62.5,61.5,2.8
72.25,63.4,55.3,62.0,60.3,4.3
72.5,62.5,54.9,61.6,59.7,4.1
72.75,60.8,54.2,60.1,58.4,3.6
73.0,60.8,53.2,59.7,57.9,4.1
73.25,59.9,51.4,58.4,56.6,4.6
73.5,59.4,50.1,57.8,55.8,5.0
73.75,58.8,49.7,56.0,54.8,4.7
74.0,58.6,49.1,54.5,54.1,4.8
74.25,57.5,48.2,53.2,53.0,4.6
74.5,56.8,47.4,52.0,52.1,4.7
74.75,56.3,46.2,50.4,51.0,5.1
75.0,55.9,45.8,48.9,50.2,5.2
75.25,55.3,44.0,48.5,49.3,5.7
75.5,54.9,44.0,47.0,48.6,5.6
75.75,54.7,43.1,46.8,48.2,5.9
76.0,54.2,42.4,45.9,47.5,6.0
76.25,53.2,41.9,44.4,46.5,5.9
76.5,52.7,40.1,44.2,45.7,6.4
76.75,52.3,39.2,43.3,45.0,6.7
77.0,51.2,39.2,42.1,44.1,6.3
77.25,51.0,38.8,42.1,44.0,6.3
77.5,51.4,37.7,41.0,43.4,7.1
77.75,50.4,37.7,40.8,42.9,6.6
78.0,49.8,36.8,40.4,42.3,6.7
78.25,48.5,36.3,39.3,41.3,6.4
78.5,47.7,35.2,38.7,40.5,6.5
78.75,48.2,35.3,38.1,40.5,6.8
79.0,48.0,34.6,37.5,40.0,7.1
79.25,46.8,34.2,37.0,39.3,6.6
79.5,46.3,33.5,36.6,38.8,6.7
79.75,45.8,33.3,35.8,38.3,6.6
80.0,46.2,32.6,35.3,38.0,7.2
80.25,46.0,32.2,34.7,37.6,7.4
80.5,45.0,31.7,34.8,37.2,7.0
80.75,44.6,31.0,34.2,36.6,7.1
81.0,44.5,30.9,33.4,36.3,7.3
81.25,44.4,30.2,33.2,35.9,7.5
81.5,43.7,29.9,33.3,35.6,7.2
81.75,43.9,29.3,32.3,35.2,7.7
82.0,42.8,29.0,31.4,34.4,7.3
82.25,43.1,29.0,31.2,34.4,7.6
82.5,42.5,27.8,31.0,33.8,7.7
82.75,42.2,27.1,30.4,33.2,8.0
83.0,41.6,27.2,29.7,32.8,7.7
83.25,41.7,26.7,29.6,32.7,8.0
83.5,41.1,26.0,29.2,32.1,8.0
83.75,41.3,26.0,28.7,32.0,8.1
84.0,40.1,26.0,28.5,31.5,7.5
84.25,40.2,25.6,28.0,31.3,7.8
84.5,40.1,25.2,27.6,31.0,8.0
84.75,39.7,24.7,27.4,30.6,8.0
85.0,39.6,24.8,27.2,30.5,7.9
85.25,39.5,24.1,26.5,30.1,8.3
85.5,39.2,24.0,26.4,29.9,8.2
85.75,38.4,23.7,26.3,29.5,7.9
86.0,38.1,23.0,25.8,28.9,8.0
86.25,37.5,22.9,25.2,28.5,7.8
86.5,37.9,22.8,25.3,28.6,8.1
86.75,37.1,22.2,24.7,28.0,8.0
87.0,37.3,22.6,24.6,28.2,8.0
87.25,37.5,21.7,24.3,27.8,8.4
87.5,36.7,21.7,23.5,27.3,8.2
87.75,36.6,21.4,23.2,27.1,8.3
88.0,36.6,21.3,23.1,27.0,8.4
88.25,36.3,21.4,22.6,26.8,8.3
88.5,35.9,21.1,22.5,26.5,8.2
88.75,36.2,20.5,22.2,26.3,8.6
89.0,35.9,20.3,21.9,26.0,8.6
89.25,35.7,19.7,21.8,25.7,8.7
89.5,35.5,19.6,21.2,25.4,8.8
89.75,35.2,19.3,21.4,25.3,8.6
90.0,34.2,19.1,21.1,24.8,8.2
90.25,34.5,19.2,20.6,24.7,8.4
90.5,34.5,18.6,20.7,24.6,8.7
90.75,34.2,18.8,20.3,24.4,8.5
91.0,34.1,18.4,20.1,24.2,8.6
91.25,33.3,18.3,20.0,23.8,8.2
91.5,32.9,18.5,19.7,23.7,8.0
91.75,32.7,18.3,19.9,23.7,7.9
92.0,32.3,18.1,19.6,23.3,7.8
92.25,32.0,17.6,19.6,23.1,7.8
92.5,32.3,17.6,19.3,23.1,8.0
92.75,31.4,17.5,19.0,22.6,7.6
93.0,31.2,17.3,18.9,22.5,7.6
93.25,31.1,17.4,18.8,22.5,7.5
93.5,30.6,17.4,18.6,22.2,7.3
93.75,30.9,17.0,18.4,22.1,7.7
94.0,30.5,16.7,17.9,21.7,7.6
94.25,30.3,16.5,17.9,21.6,7.6
94.5,30.0,16.3,17.5,21.3,7.6
94.75,29.9,16.1,17.4,21.1,7.6
95.0,29.7,16.1,17.1,21.0,7.6
95.25,30.0,15.7,16.6,20.8,8.0
95.5,30.0,15.5,16.4,20.6,8.1
95.75,30.1,15.3,16.4,20.6,8.3
96.0,30.0,15.2,16.4,20.5,8.2
96.25,29.4,15.3,16.0,20.2,8.0
96.5,29.2,14.9,15.9,20.0,8.0
96.75,29.0,14.8,15.5,19.8,8.0
97.0,29.2,14.7,15.0,19.6,8.3
97.25,28.8,14.6,14.8,19.4,8.1
97.5,27.9,14.4,14.7,19.0,7.7
97.75,27.9,14.2,14.5,18.9,7.8
98.0,28.2,14.0,14.6,18.9,8.0
98.25,27.9,14.0,14.5,18.8,7.9
98.5,27.2,13.9,14.1,18.4,7.6
98.75,27.3,14.0,14.2,18.5,7.6
99.0,27.1,13.9,14.1,18.4,7.6
99.25,26.7,13.8,14.0,18.2,7.4
99.5,26.6,13.6,13.6,17.9,7.5
99.75,26.6,13.7,13.8,18.0,7.4
100.0,26.7,13.5,13.5,17.9,7.6
100.25,26.4,13.6,13.4,17.8,7.4
100.5,26.1,13.6,13.2,17.6,7.3
100.75,25.9,13.5,13.0,17.5,7.3
101.0,25.7,13.5,12.8,17.3,7.3
101.25,26.0,13.3,12.6,17.3,7.5
101.5,25.5,13.4,12.6,17.2,7.3
101.75,25.2,13.0,12.5,16.9,7.2
102.0,25.2,13.0,12.4,16.9,7.3
102.25,25.5,12.8,12.3,16.9,7.5
102.5,25.0,12.7,11.9,16.5,7.3
102.75,25.1,12.9,11.9,16.6,7.4
103.0,24.6,12.8,11.8,16.4,7.1
103.25,24.6,12.6,11.5,16.2,7.3
103.5,24.6,12.5,11.5,16.2,7.3
103.75,24.5,12.4,11.4,16.1,7.3
104.0,24.3,12.2,11.3,15.9,7.3
104.25,23.9,12.0,11.2,15.7,7.1
104.5,24.0,11.8,11.2,15.7,7.2
104.75,24.0,11.7,11.2,15.6,7.3
105.0,24.0,11.7,11.0,15.6,7.3
105.25,23.4,11.5,10.9,15.3,7.1
105.5,23.5,11.6,10.6,15.2,7.1
105.75,23.5,11.4,10.5,15.2,7.3
106.0,23.3,11.3,10.6,15.0,7.1
106.25,23.1,11.3,10.1,14.9,7.2
106.5,22.9,11.2,10.0,14.7,7.2
106.75,22.7,11.2,9.9,14.6,7.1
107.0,22.7,11.2,9.5,14.5,7.1
107.25,22.8,11.0,9.3,14.4,7.4
107.5,22.3,11.0,8.9,14.1,7.2
107.75,22.4,11.0,8.8,14.0,7.3
108.0,22.5,11.0,8.5,14.0,7.5
108.25,22.2,11.0,8.3,13.8,7.4
108.5,22.3,11.0,8.1,13.8,7.6
108.75,22.3,10.8,7.8,13.6,7.6
109.0,22.1,10.9,7.6,13.5,7.6
109.25,22.1,10.8,7.4,13.4,7.7
109.5,22.1,10.7,7.2,13.3,7.8
109.75,22.0,10.9,7.1,13.3,7.7
110.0,21.5,11.0,7.0,13.2,7.5
110.25,21.7,10.9,6.8,13.1,7.7
110.5,21.6,10.9,6.5,13.0,7.8
110.75,21.3,10.9,6.3,12.8,7.7
111.0,21.0,10.8,6.1,12.6,7.6
111.25,21.1,10.8,5.9,12.6,7.8
111.5,21.2,10.8,5.8,12.6,7.8
111.75,21.4,10.7,5.5,12.5,8.1
112.0,21.1,10.8,5.4,12.4,8.0
112.25,20.7,10.6,5.2,12.2,7.9
112.5,20.6,10.9,5.1,12.2,7.8
112.75,20.6,10.8,5.0,12.1,7.9
113.0,20.6,10.7,4.9,12.0,7.9
113.25,20.4,10.8,4.8,12.0,7.9
113.5,20.4,10.7,4.7,11.9,7.9
113.75,20.1,10.7,4.6,11.8,7.8
114.0,20.3,10.8,4.5,11.9,7.9
114.25,20.2,10.8,4.5,11.8,7.9
114.5,20.0,10.8,4.4,11.7,7.8
114.75,19.7,10.9,4.3,11.6,7.7
115.0,19.6,10.9,4.3,11.6,7.7
115.25,19.6,10.9,4.3,11.6,7.7
115.5,19.3,10.8,4.1,11.4,7.6
115.75,19.3,10.8,3.9,11.4,7.7
116.0,18.9,10.8,,14.9,5.7
116.25,18.7,10.9,,14.8,5.6
116.5,18.3,10.7,,14.5,5.3
116.75,18.4,10.8,,14.6,5.4
117.0,18.1,10.9,,14.5,5.1
117.25,18.0,10.7,,14.4,5.1
117.5,18.0,10.8,,14.4,5.1
117.75,17.9,10.8,,14.3,5.0
118.0,17.9,10.8,,14.3,5.0
118.25,17.8,10.9,,14.3,4.9
118.5,17.8,10.9,,14.4,4.9
118.75,17.6,10.9,,14.2,4.8
119.0,17.6,10.8,,14.2,4.8
119.25,17.4,10.9,,14.1,4.6
119.5,17.6,10.8,,14.2,4.8
119.75,17.4,10.7,,14.1,4.8
120.0,17.2,10.6,,13.9,4.7
120.25,17.2,10.5,,13.8,4.7
120.5,16.9,10.3,,13.6,4.7
120.75,16.8,10.2,,13.5,4.6
121.0,16.4,10.2,,13.3,4.4
121.25,16.5,10.2,,13.3,4.4
121.5,16.6,10.0,,13.3,4.7
121.75,16.4,10.0,,13.2,4.5
122.0,16.4,10.0,,13.2,4.5
122.25,16.4,10.1,,13.2,4.5
122.5,16.2,9.9,,13.1,4.5
122.75,16.3,9.9,,13.1,4.5
123.0,15.9,9.8,,12.9,4.3
123.25,16.3,9.9,,13.1,4.5
123.5,16.0,9.8,,12.9,4.4
123.75,15.8,9.9,,12.8,4.2
124.0,16.1,9.8,,12.9,4.4
124.25,15.9,9.7,,12.8,4.4
124.5,15.9,9.7,,12.8,4.4
124.75,16.0,9.6,,12.8,4.5
125.0,15.8,9.6,,12.7,4.4
125.25,15.7,9.5,,12.6,4.4
125.5,15.9,9.7,,12.8,4.4
125.75,15.7,9.5,,12.6,4.4
126.0,15.8,9.5,,12.6,4.5
126.25,15.8,9.4,,12.6,4.5
126.5,15.8,9.3,,12.5,4.6
126.75,15.6,9.3,,12.5,4.5
127.0,15.6,9.3,,12.4,4.5
127.25,15.8,9.2,,12.5,4.6
127.5,15.8,9.1,,12.4,4.8
127.75,15.8,9.2,,12.5,4.7
128.0,15.6,9.1,,12.3,4.5
128.25,15.4,9.0,,12.2,4.6
128.5,15.5,9.2,,12.3,4.5
128.75,15.2,8.9,,12.1,4.4
129.0,14.9,9.1,,12.0,4.1
129.25,15.0,9.1,,12.0,4.2
129.5,14.9,9.3,,12.1,4.0
129.75,14.5,9.3,,11.9,3.7
130.0,14.6,9.4,,12.0,3.7
130.25,14.6,9.5,,12.1,3.6
130.5,14.6,9.5,,12.1,3.6
130.75,14.5,9.5,,12.0,3.5
131.0,14.4,9.6,,12.0,3.4
131.25,14.4,9.6,,12.0,3.4
131.5,14.3,9.7,,12.0,3.2
131.75,14.2,9.8,,12.0,3.1
132.0,14.5,9.9,,12.2,3.3
132.25,14.1,9.8,,11.9,3.0
132.5,14.2,9.9,,12.1,3.1
132.75,14.4,9.8,,12.1,3.2
133.0,14.1,9.9,,12.0,3.0
133.25,14.0,10.1,,12.1,2.7
133.5,13.9,9.9,,11.9,2.8
133.75,13.8,9.9,,11.8,2.7
134.0,13.6,10.0,,11.8,2.5
134.25,13.5,9.9,,11.7,2.6
134.5,13.6,10.0,,11.8,2.5
134.75,13.4,10.1,,11.7,2.4
135.0,13.4,10.0,,11.7,2.5
135.25,13.5,10.0,,11.7,2.4
135.5,13.1,10.0,,11.5,2.2
135.75,13.1,9.8,,11.5,2.3
136.0,13.1,9.8,,11.5,2.3
136.25,13.1,9.7,,11.4,2.4
136.5,13.0,9.7,,11.3,2.4
136.75,13.2,9.6,,11.4,2.5
137.0,13.1,9.4,,11.3,2.6
137.25,13.3,9.5,,11.4,2.7
137.5,13.3,9.4,,11.3,2.8
137.75,13.4,9.3,,11.3,3.0
138.0,13.5,9.3,,11.4,2.9
138.25,13.5,9.2,,11.4,3.0
138.5,13.5,9.1,,11.3,3.2
138.75,13.4,8.9,,11.2,3.2
139.0,13.6,8.8,,11.2,3.4
139.25,13.9,8.6,,11.2,3.8
139.5,13.8,8.5,,11.2,3.7
139.75,13.9,8.5,,11.2,3.9
140.0,13.9,8.3,,11.1,4.0
140.25,14.1,8.3,,11.2,4.1
140.5,13.8,8.1,,11.0,4.0
140.75,14.1,8.1,,11.1,4.2
141.0,13.9,8.1,,11.0,4.1
141.25,13.8,8.1,,10.9,4.0
141.5,13.8,8.0,,10.9,4.1
141.75,13.7,8.0,,10.9,4.0
142.0,13.7,7.8,,10.7,4.1
142.25,13.6,7.9,,10.8,4.0
142.5,13.5,7.9,,10.7,3.9
142.75,13.7,7.8,,10.8,4.1
143.0,13.4,7.8,,10.6,4.0
143.25,13.4,7.7,,10.6,4.0
143.5,13.3,7.8,,10.6,3.9
143.75,13.7,7.7,,10.7,4.2
144.0,13.4,7.7,,10.5,4.1
144.25,13.2,7.7,,10.5,3.9
144.5,13.4,7.7,,10.5,4.0
144.75,13.1,7.7,,10.4,3.8
145.0,13.1,7.7,,10.4,3.8
145.25,12.7,7.5,,10.1,3.7
145.5,12.9,7.4,,10.1,3.9
145.75,12.8,7.4,,10.1,3.8
146.0,12.8,7.2,,10.0,3.9
146.25,12.7,7.1,,9.9,4.0
146.5,12.4,7.0,,9.7,3.8
146.75,12.3,6.8,,9.5,3.8
147.0,12.4,6.9,,9.7,3.9
147.25,12.3,6.7,,9.5,3.9
147.5,12.4,6.7,,9.5,4.0
147.75,12.3,6.7,,9.5,4.0
148.0,12.2,6.7,,9.4,3.9
148.25,12.1,6.6,,9.4,3.9
148.5,12.1,6.6,,9.4,3.9
148.75,12.3,6.5,,9.4,4.1
149.0,12.1,6.6,,9.3,3.9
149.25,12.1,6.5,,9.3,3.9
149.5,12.0,6.7,,9.4,3.7
149.75,12.3,6.6,,9.4,4.0
150.0,12.0,6.7,,9.3,3.7
150.25,12.0,6.9,,9.4,3.6
150.5,11.9,7.0,,9.4,3.5
150.75,11.7,7.2,,9.5,3.2
151.0,11.7,7.2,,9.5,3.1
151.25,11.5,7.4,,9.5,2.9
151.5,11.3,7.5,,9.4,2.7
151.75,11.3,7.5,,9.4,2.7
152.0,11.2,7.6,,9.4,2.6
152.25,11.1,7.7,,9.4,2.4
152.5,11.1,7.7,,9.4,2.4
152.75,11.0,7.7,,9.4,2.4
153.0,11.2,7.7,,9.4,2.4
153.25,10.9,7.6,,9.2,2.3
153.5,10.9,7.5,,9.2,2.4
153.75,10.9,7.5,,9.2,2.4
154.0,10.8,7.4,,9.1,2.4
154.25,10.8,7.4,,9.1,2.4
154.5,10.9,7.4,,9.1,2.5
154.75,11.0,7.4,,9.2,2.5
155.0,10.8,7.1,,9.0,2.6
155.25,10.8,7.2,,9.0,2.6
155.5,10.6,7.3,,9.0,2.4
155.75,10.7,7.2,,9.0,2.5
156.0,10.7,7.2,,9.0,2.5
156.25,10.7,7.2,,8.9,2.4
156.5,10.7,7.1,,8.9,2.5
156.75,10.5,7.1,,8.8,2.4
157.0,10.4,7.1,,8.8,2.3
157.25,10.4,7.2,,8.8,2.3
157.5,10.2,7.2,,8.7,2.1
157.75,10.0,7.2,,8.6,2.0
158.0,10.1,7.1,,8.6,2.1
158.25,9.9,7.1,,8.5,2.0
158.5,9.8,7.1,,8.5,1.9
158.75,9.9,7.1,,8.5,2.0
159.0,9.9,7.1,,8.5,2.0
159.25,9.6,7.1,,8.3,1.8
159.5,9.7,7.1,,8.4,1.8
159.75,9.4,7.1,,8.2,1.6
160.0,9.2,7.1,,8.1,1.5
160.25,9.0,7.1,,8.1,1.4
160.5,8.9,7.1,,8.0,1.3
160.75,8.7,7.1,,7.9,1.2
161.0,8.5,7.2,,7.9,1.0
161.25,8.4,7.1,,7.7,0.9
161.5,8.5,7.1,,7.8,1.0
161.75,8.3,7.1,,7.7,0.9
162.0,8.2,7.0,,7.6,0.9
162.25,8.1,7.1,,7.6,0.7
162.5,8.0,7.0,,7.5,0.7
162.75,7.9,6.9,,7.4,0.7
163.0,7.9,6.8,,7.3,0.8
163.25,7.7,6.7,,7.2,0.7
163.5,7.7,6.6,,7.2,0.8
163.75,7.7,6.5,,7.1,0.9
164.0,7.7,6.4,,7.1,0.9
164.25,7.6,6.4,,7.0,0.9
164.5,7.5,6.4,,7.0,0.8
164.75,7.6,6.1,,6.9,1.0
165.0,7.5,6.2,,6.9,1.0
165.25,7.6,6.0,,6.8,1.1
165.5,7.6,6.1,,6.9,1.0
165.75,7.6,6.0,,6.8,1.1
166.0,7.5,6.0,,6.7,1.0
166.25,7.4,6.0,,6.7,1.0
166.5,7.4,6.0,,6.7,1.0
166.75,7.5,5.9,,6.7,1.1
167.0,7.5,6.0,,6.7,1.1
167.25,7.4,5.9,,6.6,1.1
167.5,7.4,6.0,,6.7,1.0
167.75,7.4,5.9,,6.7,1.1
168.0,7.3,5.9,,6.6,1.0
168.25,7.4,5.9,,6.7,1.0
168.5,7.4,6.0,,6.7,1.0
168.75,7.5,6.1,,6.8,0.9
169.0,7.3,6.2,,6.8,0.8
169.25,7.3,6.3,,6.8,0.7
169.5,7.3,6.3,,6.8,0.7
169.75,7.3,6.4,,6.8,0.7
170.0,7.4,6.4,,6.9,0.7
170.25,7.3,6.4,,6.9,0.6
170.5,7.4,6.5,,6.9,0.6
170.75,7.4,6.4,,6.9,0.7
171.0,7.3,6.4,,6.9,0.7
171.25,7.4,6.5,,6.9,0.6
171.5,7.3,6.4,,6.9,0.6
171.75,7.3,6.4,,6.9,0.6
172.0,7.2,6.4,,6.8,0.6
172.25,7.4,6.2,,6.8,0.9
172.5,7.4,6.1,,6.8,0.9
172.75,7.4,6.0,,6.7,1.0
173.0,7.3,5.9,,6.6,1.0
173.25,7.3,5.8,,6.6,1.1
173.5,7.3,5.8,,6.5,1.1
173.75,7.3,5.7,,6.5,1.1
174.0,7.3,5.7,,6.5,1.1
174.25,7.4,5.7,,6.5,1.3
174.5,7.3,5.6,,6.4,1.2
174.75,7.3,5.5,,6.4,1.3
175.0,7.4,5.4,,6.4,1.4
175.25,7.3,5.3,,6.3,1.4
175.5,7.1,5.4,,6.2,1.2
175.75,6.9,5.3,,6.1,1.2
176.0,6.9,5.3,,6.1,1.1
176.25,6.8,5.2,,6.0,1.1
176.5,6.7,5.3,,6.0,1.0
176.75,6.7,5.2,,6.0,1.0
177.0,6.6,5.2,,5.9,1.0
177.25,6.5,5.2,,5.9,0.9
177.5,6.6,5.2,,5.9,1.0
177.75,6.4,5.1,,5.8,0.9
178.0,6.4,5.1,,5.8,0.9
178.25,6.4,5.1,,5.8,0.9
178.5,6.4,5.1,,5.7,0.9
178.75,6.3,5.0,,5.7,0.9
179.0,6.3,5.1,,5.7,0.8
179.25,6.3,5.1,,5.7,0.9
179.5,6.3,5.0,,5.7,0.9
179.75,6.2,5.1,,5.7,0.8
180.0,6.1,5.1,,5.6,0.8
180.25,6.2,5.1,,5.6,0.8
180.5,6.2,5.2,,5.7,0.7
180.75,6.2,5.2,,5.7,0.7
181.0,6.1,5.2,,5.7,0.7
181.25,6.2,5.2,,5.7,0.7
181.5,6.3,5.3,,5.8,0.7
181.75,6.1,5.3,,5.7,0.6
182.0,6.1,5.3,,5.7,0.6
182.25,6.1,5.3,,5.7,0.6
182.5,6.2,5.3,,5.7,0.6
182.75,6.1,5.4,,5.8,0.5
183.0,6.1,5.3,,5.7,0.6
183.25,6.1,5.4,,5.8,0.5
183.5,6.1,5.4,,5.8,0.5
183.75,6.1,5.4,,5.7,0.4
184.0,6.1,5.4,,5.7,0.5
184.25,6.1,5.4,,5.8,0.4
184.5,6.2,5.4,,5.8,0.5
184.75,6.0,5.6,,5.8,0.3
185.0,6.0,5.7,,5.9,0.2
185.25,6.1,5.8,,6.0,0.2
185.5,6.1,5.9,,6.0,0.1
185.75,6.1,6.0,,6.0,0.1
186.0,6.1,6.0,,6.1,0.1
186.25,6.1,6.1,,6.1,0.0
186.5,6.0,6.2,,6.1,0.1
186.75,6.0,6.3,,6.1,0.2
187.0,6.1,6.2,,6.1,0.0
187.25,6.1,6.0,,6.1,0.0
187.5,6.1,6.1,,6.1,0.0
187.75,6.1,6.0,,6.0,0.0
188.0,6.1,6.0,,6.0,0.1
188.25,6.1,5.9,,6.0,0.1
188.5,6.1,5.8,,5.9,0.2
188.75,6.1,5.8,,6.0,0.2
189.0,6.0,5.8,,5.9,0.2
189.25,6.1,5.8,,6.0,0.2
189.5,6.0,5.7,,5.9,0.2
189.75,6.0,5.8,,5.9,0.1
190.0,6.0,5.8,,5.9,0.2
190.25,6.0,5.7,,5.9,0.2
190.5,6.0,5.6,,5.8,0.3
190.75,6.0,5.7,,5.8,0.3
191.0,6.0,5.6,,5.8,0.3
191.25,6.0,5.6,,5.8,0.3
191.5,6.0,5.6,,5.8,0.3
191.75,6.0,5.6,,5.8,0.3
192.0,6.0,5.6,,5.8,0.3
192.25,6.0,5.6,,5.8,0.3
192.5,6.1,5.5,,5.8,0.4
192.75,6.1,5.5,,5.8,0.4
193.0,6.0,5.6,,5.8,0.3
193.25,6.1,5.6,,5.8,0.4
193.5,6.1,5.6,,5.9,0.4
193.75,6.0,5.6,,5.8,0.3
194.0,5.9,5.5,,5.7,0.2
194.25,5.8,5.6,,5.7,0.2
194.5,5.6,5.6,,5.6,0.0
194.75,5.6,5.5,,5.5,0.1
195.0,5.5,5.5,,5.5,0.0
195.25,5.4,5.5,,5.5,0.1
195.5,5.3,5.6,,5.4,0.2
195.75,5.3,5.5,,5.4,0.2
196.0,5.3,5.6,,5.5,0.2
196.25,5.1,5.7,,5.4,0.4
196.5,5.3,5.7,,5.5,0.3
196.75,5.4,5.7,,5.5,0.3
197.0,5.5,5.8,,5.6,0.2
197.25,5.5,5.8,,5.7,0.2
197.5,5.5,5.8,,5.7,0.2
197.75,5.6,5.8,,5.7,0.1
198.0,5.7,5.8,,5.7,0.0
198.25,5.7,5.8,,5.8,0.1
198.5,5.7,5.8,,5.8,0.1
198.75,5.8,5.9,,5.8,0.1
199.0,5.7,5.9,,5.8,0.1
199.25,5.8,5.9,,5.8,0.1
199.5,5.8,5.8,,5.8,0.0
199.75,6.0,5.9,,5.9,0.0
200.0,5.9,5.9,,5.9,0.0
200.25,6.0,6.0,,6.0,0.0
200.5,5.9,6.0,,6.0,0.1
200.75,5.9,6.2,,6.0,0.2
201.0,6.0,6.3,,6.1,0.2
201.25,6.0,6.3,,6.1,0.3
201.5,6.0,6.5,,6.2,0.4
201.75,6.0,6.5,,6.3,0.3
202.0,6.2,6.6,,6.4,0.3
202.25,6.1,6.7,,6.4,0.4
202.5,6.3,6.8,,6.5,0.4
202.75,6.3,6.8,,6.5,0.3
203.0,6.3,7.0,,6.6,0.5
203.25,6.3,6.9,,6.6,0.4
203.5,6.3,6.9,,6.6,0.4
203.75,6.3,6.9,,6.6,0.4
204.0,6.3,7.0,,6.7,0.5
204.25,6.4,7.1,,6.7,0.5
204.5,6.4,7.2,,6.8,0.5
204.75,6.3,7.1,,6.7,0.5
205.0,6.4,7.2,,6.8,0.6
205.25,6.4,7.1,,6.8,0.5
205.5,6.3,7.0,,6.6,0.5
205.75,6.2,7.1,,6.7,0.6
206.0,6.1,7.0,,6.5,0.6
206.25,6.0,7.0,,6.5,0.7
206.5,5.9,6.9,,6.4,0.7
206.75,5.7,6.8,,6.3,0.7
207.0,5.6,6.6,,6.1,0.7
207.25,5.4,6.5,,6.0,0.8
207.5,5.3,6.5,,5.9,0.9
207.75,5.2,6.4,,5.8,0.9
208.0,5.1,6.4,,5.7,0.9
208.25,5.0,6.4,,5.7,0.9
208.5,4.9,6.3,,5.6,1.0
208.75,4.8,6.3,,5.5,1.1
209.0,4.7,6.2,,5.5,1.1
209.25,4.7,6.2,,5.4,1.1
209.5,4.5,6.1,,5.3,1.1
209.75,4.5,6.2,,5.3,1.2
210.0,4.5,6.1,,5.3,1.1
210.25,4.4,6.2,,5.3,1.2
210.5,4.4,6.1,,5.2,1.2
210.75,4.4,6.1,,5.2,1.2
211.0,4.2,6.1,,5.2,1.3
211.25,4.3,6.1,,5.2,1.3
211.5,4.3,6.1,,5.2,1.3
211.75,4.3,6.1,,5.2,1.3
212.0,4.3,6.1,,5.2,1.3
212.25,4.2,6.0,,5.1,1.3
212.5,4.1,6.0,,5.1,1.3
212.75,4.1,6.0,,5.0,1.3
213.0,4.0,6.0,,5.0,1.4
213.25,4.0,6.0,,5.0,1.4
213.5,3.9,6.0,,5.0,1.5
213.75,3.9,6.1,,5.0,1.6
214.0,3.8,5.9,,4.9,1.5
214.25,3.8,6.0,,4.9,1.5
214.5,3.8,6.0,,4.9,1.6
214.75,3.7,6.0,,4.9,1.6
215.0,3.7,6.1,,4.9,1.7
215.25,3.7,6.1,,4.9,1.7
215.5,3.8,6.3,,5.0,1.8
215.75,3.7,6.4,,5.1,1.9
216.0,3.7,6.5,,5.1,2.0
216.25,3.7,6.6,,5.1,2.0
216.5,3.7,6.5,,5.1,2.0
216.75,3.6,6.5,,5.1,2.1
217.0,3.7,6.5,,5.1,2.0
217.25,3.7,6.4,,5.0,1.9
217.5,3.6,6.4,,5.0,1.9
217.75,3.8,6.4,,5.1,1.8
218.0,3.8,6.3,,5.1,1.8
218.25,4.0,6.3,,5.2,1.6
218.5,4.0,6.4,,5.2,1.7
218.75,4.1,6.3,,5.2,1.6
219.0,4.2,6.4,,5.3,1.6
219.25,4.3,6.4,,5.3,1.4
219.5,4.3,6.3,,5.3,1.5
219.75,4.4,6.3,,5.4,1.4
220.0,4.5,6.4,,5.4,1.4
220.25,4.3,6.4,,5.3,1.4
220.5,4.2,6.3,,5.3,1.5
220.75,4.2,6.3,,5.2,1.5
221.0,4.2,6.4,,5.3,1.6
221.25,4.1,6.4,,5.2,1.6
221.5,4.1,6.3,,5.2,1.5
221.75,4.2,6.4,,5.3,1.6
222.0,4.3,6.3,,5.3,1.4
222.25,4.3,6.4,,5.4,1.5
222.5,4.4,6.4,,5.4,1.4
222.75,4.4,6.5,,5.4,1.4
223.0,4.5,6.3,,5.4,1.3
223.25,4.5,6.4,,5.4,1.3
223.5,4.6,6.4,,5.5,1.3
223.75,4.6,6.4,,5.5,1.2
224.0,4.6,6.3,,5.5,1.2
224.25,4.7,6.3,,5.5,1.2
224.5,4.6,6.4,,5.5,1.2
224.75,4.7,6.3,,5.5,1.1
225.0,4.7,6.4,,5.5,1.2
225.25,4.7,6.3,,5.5,1.1
225.5,4.7,6.4,,5.5,1.2
225.75,4.7,6.4,,5.5,1.2
226.0,4.7,6.4,,5.6,1.2
226.25,4.7,6.3,,5.5,1.1
226.5,4.8,6.3,,5.5,1.1
226.75,4.8,6.3,,5.5,1.0
227.0,4.8,6.3,,5.5,1.1
227.25,4.8,6.4,,5.6,1.1
227.5,4.8,6.4,,5.6,1.1
227.75,4.8,6.4,,5.6,1.1
228.0,4.9,6.3,,5.6,1.0
228.25,4.8,6.3,,5.6,1.1
228.5,4.8,6.4,,5.6,1.2
228.75,4.8,6.3,,5.5,1.0
229.0,4.9,6.3,,5.6,1.0
229.25,4.8,6.4,,5.6,1.1
229.5,4.7,6.4,,5.5,1.2
229.75,4.7,6.3,,5.5,1.1
230.0,4.6,6.4,,5.5,1.3
230.25,4.5,6.3,,5.4,1.3
230.5,4.5,6.4,,5.4,1.3
230.75,4.5,6.3,,5.4,1.3
231.0,4.4,6.3,,5.3,1.3
231.25,4.4,6.3,,5.4,1.4
231.5,4.4,6.4,,5.4,1.4
231.75,4.4,6.3,,5.3,1.4
232.0,4.3,6.3,,5.3,1.4
232.25,4.2,6.3,,5.3,1.5
232.5,4.2,6.3,,5.2,1.5
232.75,4.3,6.3,,5.3,1.5
233.0,4.2,6.2,,5.2,1.4
233.25,4.3,6.1,,5.2,1.3
233.5,4.4,6.1,,5.3,1.3
233.75,4.4,6.1,,5.2,1.3
234.0,4.4,6.1,,5.2,1.2
234.25,4.4,6.0,,5.2,1.2
234.5,4.4,6.1,,5.2,1.2
234.75,4.4,6.0,,5.2,1.1
235.0,4.4,5.7,,5.1,0.9
235.25,4.5,5.7,,5.1,0.9
235.5,4.4,5.6,,5.0,0.8
235.75,4.4,5.5,,5.0,0.8
236.0,4.4,5.4,,4.9,0.7
236.25,4.5,5.3,,4.9,0.6
236.5,4.5,5.2,,4.8,0.5
236.75,4.5,5.1,,4.8,0.5
237.0,4.5,5.1,,4.8,0.4
237.25,4.4,5.0,,4.7,0.4
237.5,4.5,5.1,,4.8,0.5
237.75,4.5,5.0,,4.8,0.4
238.0,4.5,4.9,,4.7,0.3
238.25,4.5,4.8,,4.6,0.2
238.5,4.5,4.6,,4.6,0.0
238.75,4.5,4.5,,4.5,0.0
239.0,4.4,4.3,,4.4,0.1
239.25,4.5,4.2,,4.4,0.2
239.5,4.5,4.1,,4.3,0.3
239.75,4.5,4.1,,4.3,0.3
240.0,4.5,3.9,,4.2,0.4
240.25,4.6,3.9,,4.2,0.5
240.5,4.8,3.8,,4.3,0.6
240.75,4.9,3.8,,4.3,0.8
241.0,5.0,3.7,,4.3,0.9
241.25,5.0,3.7,,4.4,0.9
241.5,5.1,3.6,,4.4,1.1
241.75,5.2,3.6,,4.4,1.2
242.0,5.2,3.6,,4.4,1.1
242.25,5.3,3.6,,4.5,1.2
242.5,5.3,3.5,,4.4,1.3
242.75,5.4,3.5,,4.5,1.3
243.0,5.5,3.5,,4.5,1.4
243.25,5.5,3.5,,4.5,1.4
243.5,5.6,3.6,,4.6,1.4
243.75,5.5,3.6,,4.5,1.3
244.0,5.6,3.6,,4.6,1.4
244.25,5.6,3.6,,4.6,1.4
244.5,5.7,3.7,,4.7,1.4
244.75,5.6,3.6,,4.6,1.4
245.0,5.7,3.7,,4.7,1.4
245.25,5.6,3.7,,4.7,1.4
245.5,5.7,3.7,,4.7,1.4
245.75,5.7,3.7,,4.7,1.4
246.0,5.8,3.8,,4.8,1.4
246.25,5.7,3.8,,4.7,1.4
246.5,5.8,3.8,,4.8,1.4
246.75,5.7,3.8,,4.8,1.4
247.0,5.7,3.9,,4.8,1.3
247.25,5.8,4.0,,4.9,1.2
247.5,5.7,4.1,,4.9,1.1
247.75,5.7,4.2,,5.0,1.0
248.0,5.8,4.4,,5.1,1.0
248.25,5.7,4.4,,5.0,0.9
248.5,5.7,4.5,,5.1,0.9
248.75,5.8,4.6,,5.2,0.9
249.0,5.7,4.7,,5.2,0.8
249.25,5.9,4.6,,5.2,0.9
249.5,5.8,4.7,,5.2,0.8
249.75,5.9,4.8,,5.4,0.7
250.0,5.8,4.9,,5.3,0.6
250.25,5.8,4.8,,5.3,0.7
250.5,5.8,4.8,,5.3,0.7
250.75,5.9,5.0,,5.4,0.6
251.0,5.8,4.9,,5.4,0.6
251.25,5.8,5.0,,5.4,0.6
251.5,5.8,5.0,,5.4,0.5
251.75,5.8,5.2,,5.5,0.4
252.0,5.8,5.3,,5.6,0.4
252.25,5.8,5.5,,5.6,0.2
252.5,5.8,5.7,,5.7,0.1
252.75,5.7,5.7,,5.7,0.0
253.0,5.6,5.8,,5.7,0.1
253.25,5.6,5.8,,5.7,0.2
253.5,5.6,5.7,,5.7,0.1
253.75,5.6,5.6,,5.6,0.0
254.0,5.5,5.5,,5.5,0.0
254.25,5.5,5.4,,5.4,0.1
254.5,5.5,5.4,,5.4,0.1
254.75,5.4,5.3,,5.3,0.0
255.0,5.4,5.3,,5.3,0.1
255.25,5.3,5.1,,5.2,0.1
255.5,5.2,5.2,,5.2,0.0
255.75,5.3,5.1,,5.2,0.1
256.0,5.2,5.0,,5.1,0.1
256.25,5.1,5.0,,5.1,0.1
256.5,5.1,5.0,,5.1,0.1
256.75,5.1,4.9,,5.0,0.1
257.0,5.1,4.9,,5.0,0.1
257.25,5.1,4.9,,5.0,0.1
257.5,5.0,4.8,,4.9,0.1
257.75,5.0,4.8,,4.9,0.1
258.0,5.0,4.8,,4.9,0.1
258.25,5.0,5.0,,5.0,0.0
258.5,5.0,5.1,,5.1,0.0
258.75,5.0,5.2,,5.1,0.1
259.0,5.0,5.2,,5.1,0.2
259.25,5.0,5.3,,5.1,0.2
259.5,5.0,5.4,,5.2,0.3
259.75,4.9,5.4,,5.1,0.4
260.0,4.7,5.5,,5.1,0.6
260.25,4.5,5.5,,5.0,0.7
260.5,4.5,5.6,,5.1,0.8
260.75,4.4,5.7,,5.0,0.9
261.0,4.3,5.6,,5.0,0.9
261.25,4.2,5.7,,4.9,1.0
261.5,4.2,5.7,,4.9,1.1
261.75,4.1,5.8,,4.9,1.2
262.0,4.1,5.8,,4.9,1.2
262.25,4.0,5.9,,4.9,1.3
262.5,4.0,5.8,,4.9,1.3
262.75,3.9,5.8,,4.9,1.4
263.0,3.9,5.8,,4.8,1.4
263.25,3.8,5.9,,4.9,1.5
263.5,3.8,5.9,,4.9,1.5
263.75,3.8,5.8,,4.8,1.4
264.0,3.8,5.8,,4.8,1.4
264.25,3.7,6.0,,4.8,1.6
264.5,3.7,5.7,,4.7,1.4
264.75,3.9,5.4,,4.6,1.0
265.0,4.0,5.1,,4.6,0.8
265.25,4.2,4.9,,4.5,0.5
265.5,4.3,4.7,,4.5,0.3
265.75,4.4,4.6,,4.5,0.1
266.0,4.5,4.4,,4.5,0.0
266.25,4.6,4.2,,4.4,0.2
266.5,4.6,4.1,,4.4,0.4
266.75,4.8,4.0,,4.4,0.6
267.0,4.8,3.9,,4.3,0.6
267.25,4.9,3.9,,4.4,0.7
267.5,4.9,3.7,,4.3,0.8
267.75,4.9,3.7,,4.3,0.8
268.0,5.0,3.6,,4.3,1.0
268.25,5.0,3.5,,4.2,1.0
268.5,5.1,3.5,,4.3,1.1
268.75,5.0,3.4,,4.2,1.1
269.0,5.1,3.4,,4.2,1.2
269.25,5.1,3.4,,4.2,1.2
269.5,5.1,3.3,,4.2,1.3
269.75,5.2,3.3,,4.2,1.3
270.0,5.3,3.3,,4.3,1.4
270.25,5.2,3.2,,4.2,1.4
270.5,5.2,3.2,,4.2,1.4
270.75,5.2,3.2,,4.2,1.5
271.0,5.2,3.2,,4.2,1.5
271.25,5.2,3.0,,4.1,1.6
271.5,5.3,2.9,,4.1,1.7
271.75,5.3,2.8,,4.0,1.8
272.0,5.3,2.7,,4.0,1.9
272.25,5.3,2.6,,3.9,1.9
272.5,5.3,2.5,,3.9,2.0
272.75,5.3,2.4,,3.9,2.1
273.0,5.3,2.3,,3.8,2.1
273.25,5.3,2.3,,3.8,2.1
273.5,5.3,2.2,,3.8,2.2
273.75,5.3,2.1,,3.7,2.2
274.0,5.3,2.1,,3.7,2.3
274.25,5.3,2.1,,3.7,2.3
274.5,5.3,1.9,,3.6,2.4
274.75,5.4,1.7,,3.6,2.6
275.0,5.4,1.6,,3.5,2.7
275.25,5.5,,,5.5,
275.5,5.4,,,5.4,
275.75,5.5,,,5.5,
276.0,5.4,,,5.4,
276.25,5.5,,,5.5,
276.5,5.5,,,5.5,
276.75,5.4,,,5.4,
277.0,5.4,,,5.4,
277.25,5.4,,,5.4,
277.5,5.5,,,5.5,
277.75,5.7,,,5.7,
278.0,5.7,,,5.7,
278.25,5.8,,,5.8,
278.5,5.9,,,5.9,
278.75,6.0,,,6.0,
279.0,6.0,,,6.0,
279.25,6.0,,,6.0,
279.5,6.0,,,6.0,
279.75,6.1,,,6.1,
280.0,6.2,,,6.2,
280.25,6.2,,,6.2,
280.5,6.3,,,6.3,
280.75,6.3,,,6.3,
281.0,6.2,,,6.2,
281.25,6.4,,,6.4,
281.5,6.3,,,6.3,
281.75,6.4,,,6.4,
282.0,6.4,,,6.4,
282.25,6.4,,,6.4,
282.5,6.4,,,6.4,
282.75,6.3,,,6.3,
283.0,6.2,,,6.2,
283.25,6.1,,,6.1,
283.5,6.0,,,6.0,
283.75,5.9,,,5.9,
284.0,5.8,,,5.8,
284.25,5.8,,,5.8,
284.5,5.8,,,5.8,
284.75,5.7,,,5.7,
285.0,5.6,,,5.6,
285.25,5.6,,,5.6,
285.5,5.6,,,5.6,
285.75,5.5,,,5.5,
286.0,5.4,,,5.4,
286.25,5.5,,,5.5,
286.5,5.4,,,5.4,
286.75,5.4,,,5.4,
287.0,5.4,,,5.4,
287.25,5.4,,,5.4,
287.5,5.4,,,5.4,
287.75,5.4,,,5.4,
288.0,5.3,,,5.3,
288.25,5.4,,,5.4,
288.5,5.3,,,5.3,
288.75,5.3,,,5.3,
289.0,5.3,,,5.3,
289.25,5.3,,,5.3,
289.5,5.3,,,5.3,
289.75,5.3,,,5.3,
290.0,5.3,,,5.3,
290.25,5.3,,,5.3,
290.5,5.3,,,5.3,
290.75,5.3,,,5.3,
291.0,5.3,,,5.3,
291.25,5.3,,,5.3,
291.5,5.2,,,5.2,
291.75,5.3,,,5.3,
292.0,5.2,,,5.2,
292.25,5.3,,,5.3,
292.5,5.4,,,5.4,
292.75,5.5,,,5.5,
293.0,5.5,,,5.5,
293.25,5.7,,,5.7,
293.5,5.8,,,5.8,
293.75,5.8,,,5.8,
294.0,6.0,,,6.0,
294.25,5.9,,,5.9,
294.5,6.1,,,6.1,
294.75,6.1,,,6.1,
295.0,6.2,,,6.2,
295.25,6.2,,,6.2,
295.5,6.3,,,6.3,
295.75,6.2,,,6.2,
296.0,6.3,,,6.3,
296.25,6.3,,,6.3,
296.5,6.3,,,6.3,
296.75,6.4,,,6.4,
297.0,6.5,,,6.5,
297.25,6.3,,,6.3,
297.5,6.4,,,6.4,
297.75,6.4,,,6.4,
298.0,6.4,,,6.4,
298.25,6.4,,,6.4,
298.5,6.5,,,6.5,
298.75,6.4,,,6.4,
299.0,6.4,,,6.4,
299.25,6.5,,,6.5,
299.5,6.4,,,6.4,
299.75,6.4,,,6.4,
300.0,6.4,,,6.4,
300.25,6.5,,,6.5,
300.5,6.4,,,6.4,
300.75,6.5,,,6.5,
301.0,6.4,,,6.4,
301.25,6.4,,,6.4,
301.5,6.4,,,6.4,
301.75,6.3,,,6.3,
302.0,6.5,,,6.5,
302.25,6.4,,,6.4,
302.5,6.5,,,6.5,
302.75,6.5,,,6.5,
303.0,6.5,,,6.5,
303.25,6.4,,,6.4,
303.5,6.5,,,6.5,
303.75,6.5,,,6.5,
304.0,6.5,,,6.5,
304.25,6.5,,,6.5,
304.5,6.5,,,6.5,
304.75,6.5,,,6.5,
305.0,6.5,,,6.5,
305.25,6.5,,,6.5,
305.5,6.5,,,6.5,
305.75,6.5,,,6.5,
306.0,6.5,,,6.5,
306.25,6.5,,,6.5,
306.5,6.5,,,6.5,
306.75,6.5,,,6.5,
307.0,6.6,,,6.6,
307.25,6.5,,,6.5,
307.5,6.7,,,6.7,
307.75,6.7,,,6.7,
308.0,6.7,,,6.7,
308.25,6.7,,,6.7,
308.5,6.7,,,6.7,
308.75,6.7,,,6.7,
309.0,6.8,,,6.8,
309.25,6.9,,,6.9,
309.5,6.8,,,6.8,
309.75,6.8,,,6.8,
310.0,6.8,,,6.8,
310.25,6.9,,,6.9,
310.5,6.9,,,6.9,
310.75,6.9,,,6.9,
311.0,6.9,,,6.9,
311.25,6.9,,,6.9,
311.5,6.9,,,6.9,
311.75,6.9,,,6.9,
312.0,6.9,,,6.9,
312.25,6.9,,,6.9,
312.5,6.9,,,6.9,
312.75,6.9,,,6.9,
313.0,7.0,,,7.0,
313.25,6.9,,,6.9,
313.5,6.9,,,6.9,
313.75,6.9,,,6.9,
314.0,7.0,,,7.0,
314.25,6.9,,,6.9,
314.5,6.9,,,6.9,
314.75,6.9,,,6.9,
315.0,6.8,,,6.8,
315.25,6.6,,,6.6,
315.5,6.5,,,6.5,
315.75,6.4,,,6.4,
316.0,6.3,,,6.3,
316.25,6.3,,,6.3,
316.5,6.2,,,6.2,
316.75,6.2,,,6.2,
317.0,6.0,,,6.0,
317.25,6.1,,,6.1,
317.5,5.9,,,5.9,
317.75,6.0,,,6.0,
318.0,6.0,,,6.0,
318.25,5.8,,,5.8,
318.5,5.9,,,5.9,
318.75,5.8,,,5.8,
319.0,5.7,,,5.7,
319.25,5.7,,,5.7,
319.5,5.5,,,5.5,
319.75,5.6,,,5.6,
320.0,5.5,,,5.5,
320.25,5.6,,,5.6,
320.5,5.4,,,5.4,
320.75,5.4,,,5.4,
321.0,5.4,,,5.4,
321.25,5.4,,,5.4,
321.5,5.4,,,5.4,
321.75,5.3,,,5.3,
322.0,5.3,,,5.3,
322.25,5.3,,,5.3,
322.5,5.3,,,5.3,
322.75,5.4,,,5.4,
323.0,5.2,,,5.2,
323.25,5.2,,,5.2,
323.5,5.3,,,5.3,
323.75,5.2,,,5.2,
324.0,5.3,,,5.3,
324.25,5.2,,,5.2,
324.5,5.2,,,5.2,
324.75,5.2,,,5.2,
325.0,5.2,,,5.2,
325.25,5.2,,,5.2,
325.5,5.2,,,5.2,
325.75,5.2,,,5.2,
326.0,5.2,,,5.2,
326.25,5.2,,,5.2,
326.5,5.2,,,5.2,
326.75,5.3,,,5.3,
327.0,5.2,,,5.2,
327.25,5.2,,,5.2,
327.5,5.2,,,5.2,
327.75,5.2,,,5.2,
328.0,5.2,,,5.2,
328.25,5.2,,,5.2,
328.5,5.2,,,5.2,
328.75,5.2,,,5.2,
329.0,5.2,,,5.2,
329.25,5.2,,,5.2,
329.5,5.3,,,5.3,
329.75,5.2,,,5.2,
330.0,5.2,,,5.2,
330.25,5.2,,,5.2,
330.5,5.2,,,5.2,
330.75,5.2,,,5.2,
331.0,5.2,,,5.2,
331.25,5.2,,,5.2,
331.5,5.2,,,5.2,
331.75,5.2,,,5.2,
332.0,5.2,,,5.2,
332.25,5.2,,,5.2,
332.5,5.1,,,5.1,
332.75,5.2,,,5.2,
333.0,5.2,,,5.2,
333.25,5.1,,,5.1,
333.5,5.2,,,5.2,
333.75,5.2,,,5.2,
334.0,5.2,,,5.2,
334.25,5.2,,,5.2,
334.5,5.2,,,5.2,
334.75,5.2,,,5.2,
335.0,5.1,,,5.1,
335.25,5.3,,,5.3,
335.5,5.2,,,5.2,
335.75,5.2,,,5.2,
336.0,5.2,,,5.2,
336.25,5.1,,,5.1,
336.5,5.2,,,5.2,
336.75,5.2,,,5.2,
337.0,5.2,,,5.2,
337.25,5.2,,,5.2,
337.5,5.3,,,5.3,
337.75,5.2,,,5.2,
338.0,5.2,,,5.2,
338.25,5.2,,,5.2,
338.5,5.2,,,5.2,
338.75,5.2,,,5.2,
339.0,5.2,,,5.2,
339.25,5.2,,,5.2,
339.5,5.2,,,5.2,
339.75,5.2,,,5.2,
340.0,5.2,,,5.2,
340.25,5.2,,,5.2,
340.5,5.2,,,5.2,
340.75,5.2,,,5.2,
341.0,5.2,,,5.2,
341.25,5.2,,,5.2,
341.5,5.2,,,5.2,
341.75,5.2,,,5.2,
342.0,5.2,,,5.2,
342.25,5.2,,,5.2,
342.5,5.2,,,5.2,
342.75,5.2,,,5.2,
343.0,5.3,,,5.3,
343.25,5.2,,,5.2,
343.5,5.2,,,5.2,
343.75,5.2,,,5.2,
344.0,5.1,,,5.1,
344.25,5.1,,,5.1,
344.5,5.0,,,5.0,
344.75,4.9,,,4.9,
345.0,4.8,,,4.8,
345.25,4.8,,,4.8,
345.5,4.6,,,4.6,
345.75,4.6,,,4.6,
346.0,4.6,,,4.6,
346.25,4.5,,,4.5,
346.5,4.4,,,4.4,
346.75,4.3,,,4.3,
347.0,4.4,,,4.4,
347.25,4.4,,,4.4,
347.5,4.3,,,4.3,
347.75,4.2,,,4.2,
348.0,3.9,,,3.9,
348.25,3.9,,,3.9,
348.5,3.8,,,3.8,
348.75,3.7,,,3.7,
349.0,3.7,,,3.7,
349.25,3.7,,,3.7,
349.5,3.6,,,3.6,
349.75,3.6,,,3.6,
350.0,3.5,,,3.5,
350.25,3.5,,,3.5,
350.5,3.5,,,3.5,
350.75,3.5,,,3.5,
351.0,3.5,,,3.5,
351.25,3.4,,,3.4,
351.5,3.4,,,3.4,
351.75,3.4,,,3.4,
352.0,3.3,,,3.3,
352.25,3.4,,,3.4,
352.5,3.4,,,3.4,
352.75,3.6,,,3.6,
353.0,3.7,,,3.7,
353.25,3.8,,,3.8,
353.5,3.8,,,3.8,
353.75,3.9,,,3.9,
354.0,3.9,,,3.9,
354.25,4.1,,,4.1,
354.5,4.1,,,4.1,
354.75,4.2,,,4.2,
355.0,4.2,,,4.2,
355.25,4.2,,,4.2,
355.5,4.2,,,4.2,
355.75,4.3,,,4.3,
356.0,4.3,,,4.3,
356.25,4.3,,,4.3,
356.5,4.3,,,4.3,
356.75,4.4,,,4.4,
357.0,4.4,,,4.4,
357.25,4.4,,,4.4,
357.5,4.5,,,4.5,
357.75,4.4,,,4.4,
358.0,4.5,,,4.5,
358.25,4.5,,,4.5,
358.5,4.4,,,4.4,
358.75,4.5,,,4.5,
359.0,4.5,,,4.5,
359.25,4.4,,,4.4,
359.5,4.3,,,4.3,
359.75,4.2,,,4.2,
360.0,4.1,,,4.1,
360.25,3.9,,,3.9,
360.5,3.8,,,3.8,
360.75,3.8,,,3.8,
361.0,3.7,,,3.7,
361.25,3.6,,,3.6,
361.5,3.5,,,3.5,
361.75,3.4,,,3.4,
362.0,3.3,,,3.3,
362.25,3.1,,,3.1,
362.5,2.9,,,2.9,
362.75,2.8,,,2.8,
363.0,2.7,,,2.7,
363.25,2.6,,,2.6,
363.5,2.5,,,2.5,
363.75,2.4,,,2.4,
364.0,2.3,,,2.3,
364.25,2.2,,,2.2,
364.5,2.1,,,2.1,
364.75,2.0,,,2.0,
365.0,2.0,,,2.0,
365.25,1.9,,,1.9,
365.5,1.9,,,1.9,
365.75,1.9,,,1.9,
366.0,1.8,,,1.8,
366.25,1.8,,,1.8,
366.5,1.8,,,1.8,
366.75,1.7,,,1.7,
367.0,1.7,,,1.7,
367.25,1.7,,,1.7,
367.5,1.6,,,1.6,
367.75,1.6,,,1.6,
368.0,1.6,,,1.6,
368.25,1.6,,,1.6,
368.5,1.6,,,1.6,
368.75,1.6,,,1.6,
369.0,1.6,,,1.6,
369.25,1.6,,,1.6,
369.5,1.5,,,1.5,
369.75,1.5,,,1.5,
370.0,1.5,,,1.5,
370.25,1.5,,,1.5,
370.5,1.5,,,1.5,
370.75,1.5,,,1.5,
371.0,1.5,,,1.5,
371.25,1.5,,,1.5,
371.5,1.5,,,1.5,
371.75,1.5,,,1.5,
372.0,1.5,,,1.5,
372.25,1.5,,,1.5,
372.5,1.5,,,1.5,
372.75,1.5,,,1.5,
373.0,1.5,,,1.5,
373.25,1.5,,,1.5,
373.5,1.3,,,1.3,