File: 01_Data/Polyolefin_Carpet_Low_Pile/Cone/Polyolefin_Carpet_Low_Pile_HRRPUA_75.csv
Time after Ignition,Polyolefin_Carpet_Low_Pile_R1,Polyolefin_Carpet_Low_Pile_R2,Polyolefin_Carpet_Low_Pile_R3,Mean,Std. Dev.
0.0,42.9,25.1,33.4,33.8,8.9
0.25,49.0,30.0,38.4,39.1,9.5
0.5,54.8,34.1,42.9,43.9,10.4
0.75,66.2,37.9,47.3,50.5,14.4
1.0,78.2,41.7,55.0,58.3,18.5
1.25,87.0,49.3,62.3,66.2,19.1
1.5,96.3,57.8,69.1,74.4,19.8
1.75,104.4,65.0,74.5,81.3,20.6
2.0,117.1,69.2,85.1,90.5,24.4
2.25,128.2,75.3,94.6,99.3,26.8
2.5,142.1,90.8,100.0,110.9,27.4
2.75,146.4,103.3,107.9,119.2,23.7
3.0,163.9,113.7,124.2,133.9,26.5
3.25,180.8,128.0,133.9,147.6,28.9
3.5,186.1,150.4,149.4,162.0,20.9
3.75,198.8,164.6,156.6,173.3,22.4
4.0,210.1,176.3,168.9,185.1,21.9
4.25,215.2,203.6,182.8,200.5,16.5
4.5,220.9,216.2,197.2,211.4,12.6
4.75,235.2,230.0,206.4,223.9,15.4
5.0,249.2,241.3,213.5,234.6,18.7
5.25,255.8,253.2,225.5,244.9,16.8
5.5,263.5,266.4,237.5,255.8,15.9
5.75,278.6,281.6,246.9,269.0,19.2
6.0,287.9,299.9,254.6,280.8,23.5
6.25,296.3,309.4,259.4,288.4,25.9
6.5,302.5,317.4,268.6,296.2,25.0
6.75,318.1,332.2,276.3,308.8,29.1
7.0,322.3,342.5,290.1,318.3,26.4
7.25,336.3,351.9,290.3,326.2,32.0
7.5,345.0,359.0,299.4,334.5,31.1
7.75,350.1,364.9,303.5,339.5,32.0
8.0,359.1,380.4,311.7,350.4,35.1
8.25,362.8,391.4,320.8,358.4,35.5
8.5,373.0,402.7,328.1,367.9,37.6
8.75,383.8,420.7,338.3,380.9,41.3
9.0,385.8,428.3,341.8,385.3,43.3
9.25,390.2,433.0,347.7,390.3,42.7
9.5,410.6,452.3,348.5,403.8,52.2
9.75,416.3,460.4,378.8,418.5,40.9
10.0,433.4,470.5,384.7,429.5,43.0
10.25,436.7,486.5,399.8,441.0,43.5
10.5,463.3,502.2,410.6,458.7,45.9
10.75,468.0,517.2,413.4,466.2,51.9
11.0,478.0,519.7,427.7,475.1,46.0
11.25,475.7,544.0,449.3,489.7,48.9
11.5,502.1,537.3,458.2,499.2,39.6
11.75,507.2,560.4,476.5,514.7,42.4
12.0,519.3,587.9,487.3,531.5,51.4
12.25,555.7,605.0,508.0,556.3,48.5
12.5,569.6,603.4,516.3,563.1,43.9
12.75,555.1,620.0,522.3,565.8,49.7
13.0,592.9,624.9,543.6,587.1,41.0
13.25,613.5,672.9,532.0,606.2,70.7
13.5,620.7,655.0,552.7,609.4,52.1
13.75,632.5,671.9,574.3,626.2,49.1
14.0,676.8,728.9,579.1,661.6,76.1
14.25,665.2,686.7,581.9,644.6,55.4
14.5,702.9,715.1,610.1,676.0,57.4
14.75,691.0,715.4,611.1,672.5,54.5
15.0,712.5,745.5,653.3,703.8,46.7
15.25,739.9,762.1,647.2,716.4,60.9
15.5,762.0,800.0,638.1,733.4,84.7
15.75,752.1,781.8,623.3,719.1,84.2
16.0,821.5,845.8,652.9,773.4,105.1
16.25,813.6,815.9,671.5,767.0,82.7
16.5,825.3,900.6,701.5,809.1,100.5
16.75,822.0,876.5,666.9,788.5,108.8
17.0,810.2,939.3,701.2,816.9,119.2
17.25,825.2,820.0,687.2,777.5,78.2
17.5,822.7,885.7,693.1,800.5,98.2
17.75,845.2,922.8,675.4,814.5,126.5
18.0,872.6,919.4,754.0,848.7,85.3
18.25,867.9,919.4,731.4,839.6,97.2
18.5,941.2,930.3,731.5,867.7,118.0
18.75,866.3,993.6,750.6,870.2,121.5
19.0,871.4,895.7,785.5,850.9,57.9
19.25,935.4,964.0,748.8,882.7,116.9
19.5,927.9,985.4,769.2,894.2,111.9
19.75,946.9,980.7,767.2,898.3,114.8
20.0,931.7,931.1,783.7,882.2,85.2
20.25,929.9,976.0,759.5,888.5,114.0
20.5,948.5,980.5,777.2,902.1,109.3
20.75,939.8,952.2,768.1,886.7,102.9
21.0,958.5,938.8,754.7,884.0,112.4
21.25,929.3,996.9,761.1,895.7,121.5
21.5,996.9,955.1,778.5,910.1,115.9
21.75,950.4,967.0,778.7,898.7,104.2
22.0,976.9,1018.2,780.6,925.2,127.0
22.25,960.9,945.0,762.4,889.4,110.3
22.5,954.1,984.1,765.0,901.1,118.8
22.75,965.6,949.1,787.1,900.6,98.6
23.0,947.0,966.0,764.9,892.6,111.1
23.25,943.8,985.3,740.7,890.0,130.9
23.5,953.7,958.8,753.7,888.7,117.0
23.75,948.3,917.4,757.4,874.4,102.5
24.0,964.4,1007.9,767.3,913.2,128.2
24.25,955.8,964.9,756.8,892.5,117.6
24.5,961.6,935.4,727.9,875.0,128.0
24.75,940.7,939.3,734.5,871.5,118.6
25.0,937.8,908.6,730.8,859.0,112.0
25.25,925.2,930.3,716.7,857.4,121.9
25.5,947.5,945.0,719.7,870.7,130.8
25.75,944.8,912.0,736.5,864.4,112.0
26.0,933.4,901.4,709.4,848.1,121.2
26.25,933.2,898.2,687.0,839.5,133.2
26.5,904.3,885.4,671.2,820.3,129.5
26.75,886.9,891.1,701.9,826.6,108.0
27.0,883.1,872.4,674.6,810.0,117.4
27.25,918.0,875.4,686.2,826.5,123.4
27.5,880.9,872.0,666.0,806.3,121.6
27.75,857.5,845.3,650.7,784.5,116.1
28.0,868.7,856.4,638.6,787.9,129.4
28.25,864.7,817.1,650.2,777.4,112.6
28.5,857.0,830.7,647.8,778.5,114.0
28.75,850.0,827.7,641.8,773.2,114.3
29.0,840.4,803.7,624.2,756.1,115.7
29.25,811.5,794.7,624.6,743.6,103.4
29.5,802.1,796.8,608.2,735.7,110.5
29.75,811.9,773.5,611.9,732.4,106.1
30.0,815.2,754.7,590.2,720.1,116.4
30.25,790.2,756.2,609.0,718.5,96.3
30.5,790.8,726.1,592.0,703.0,101.4
30.75,780.2,730.5,583.5,698.0,102.3
31.0,786.1,726.8,561.4,691.4,116.5
31.25,763.0,705.3,563.3,677.2,102.7
31.5,738.8,703.5,559.7,667.4,94.9
31.75,742.4,694.7,550.4,662.5,100.0
32.0,742.0,668.4,541.5,650.7,101.4
32.25,727.5,674.8,529.7,644.0,102.4
32.5,698.3,654.8,519.0,624.1,93.5
32.75,705.8,642.2,511.9,620.0,98.8
33.0,666.7,643.2,502.3,604.1,88.9
33.25,651.6,628.3,486.9,588.9,89.1
33.5,648.6,624.1,487.4,586.7,86.8
33.75,626.9,631.4,482.4,580.2,84.8
34.0,624.8,603.8,471.8,566.8,82.9
34.25,605.0,608.9,467.8,560.6,80.4
34.5,585.7,592.8,462.6,547.1,73.2
34.75,574.1,577.4,450.2,533.9,72.5
35.0,567.7,575.5,458.8,534.0,65.2
35.25,541.5,568.6,442.0,517.4,66.7
35.5,537.9,559.7,435.9,511.2,66.1
35.75,517.6,548.3,430.8,498.9,61.0
36.0,505.0,538.5,420.9,488.1,60.6
36.25,506.0,524.1,421.6,483.9,54.7
36.5,492.0,526.0,406.1,474.7,61.8
36.75,479.7,503.6,406.9,463.4,50.4
37.0,458.9,490.2,398.5,449.2,46.6
37.25,445.3,496.7,399.1,447.0,48.8
37.5,446.1,481.5,386.2,437.9,48.2
37.75,442.5,471.6,378.6,430.9,47.6
38.0,429.4,471.5,368.2,423.0,52.0
38.25,429.0,454.4,369.1,417.5,43.8
38.5,414.3,443.9,369.1,409.1,37.7
38.75,413.7,441.0,361.4,405.4,40.5
39.0,402.9,433.5,361.4,399.3,36.2
39.25,391.2,424.6,346.0,387.3,39.4
39.5,389.2,412.1,347.7,383.0,32.6
39.75,376.5,405.0,345.0,375.5,30.0
40.0,374.8,399.4,343.4,372.6,28.1
40.25,365.0,391.3,334.8,363.7,28.3
40.5,358.3,389.9,327.3,358.5,31.3
40.75,343.5,375.4,322.6,347.2,26.6
41.0,344.5,364.6,321.0,343.4,21.8
41.25,334.7,364.9,319.3,339.6,23.2
41.5,319.8,357.3,315.7,330.9,22.9
41.75,316.2,356.7,310.1,327.6,25.4
42.0,308.4,349.4,306.3,321.4,24.3
42.25,300.6,339.8,301.2,313.9,22.5
42.5,289.8,334.1,297.5,307.1,23.6
42.75,284.4,330.6,289.0,301.3,25.4
43.0,280.8,322.6,288.5,297.3,22.2
43.25,271.2,317.4,285.8,291.5,23.6
43.5,266.2,309.1,278.1,284.4,22.1
43.75,259.1,309.1,273.1,280.4,25.8
44.0,255.0,305.9,267.4,276.1,26.5
44.25,247.7,293.6,265.0,268.7,23.2
44.5,245.1,294.6,263.7,267.8,25.0
44.75,240.4,286.0,254.6,260.3,23.3
45.0,235.8,281.2,250.8,255.9,23.1
45.25,226.2,282.8,249.4,252.8,28.4
45.5,226.4,268.1,243.9,246.1,21.0
45.75,220.2,271.4,237.1,242.9,26.1
46.0,217.1,264.8,231.1,237.7,24.5
46.25,209.4,264.8,228.8,234.4,28.1
46.5,205.3,260.1,224.5,229.9,27.8
46.75,201.0,253.3,222.0,225.4,26.3
47.0,195.7,246.8,217.8,220.1,25.6
47.25,193.6,247.2,213.2,218.0,27.1
47.5,188.2,240.7,211.4,213.4,26.3
47.75,184.9,240.8,206.2,210.6,28.2
48.0,182.3,236.3,201.7,206.8,27.4
48.25,178.8,233.4,201.9,204.7,27.4
48.5,174.6,230.5,197.1,200.7,28.1
48.75,173.2,228.0,196.8,199.3,27.5
49.0,165.0,220.8,195.5,193.7,27.9
49.25,163.5,221.4,193.4,192.8,28.9
49.5,158.7,214.8,187.4,187.0,28.1
49.75,156.1,214.5,186.0,185.5,29.2
50.0,153.1,210.9,182.9,182.3,28.9
50.25,154.2,209.9,181.7,181.9,27.9
50.5,150.3,202.3,178.6,177.0,26.0
50.75,147.5,203.0,177.3,175.9,27.8
51.0,146.6,196.4,175.1,172.7,25.0
51.25,141.9,193.7,171.4,169.0,26.0
51.5,139.5,191.2,168.2,166.3,25.9
51.75,138.2,184.1,166.2,162.8,23.2
52.0,138.0,183.5,164.1,161.9,22.8
52.25,133.6,176.8,161.5,157.3,21.9
52.5,131.8,177.2,161.2,156.7,23.0
52.75,131.0,175.0,155.5,153.8,22.0
53.0,129.1,169.7,157.9,152.2,20.9
53.25,126.6,168.2,151.9,148.9,21.0
53.5,122.6,165.6,148.8,145.7,21.6
53.75,120.2,164.7,147.4,144.1,22.4
54.0,119.3,159.9,144.1,141.1,20.5
54.25,116.4,156.8,143.3,138.8,20.5
54.5,113.1,153.4,141.7,136.1,20.7
54.75,110.1,154.5,140.7,135.1,22.8
55.0,109.6,149.5,139.1,132.7,20.7
55.25,107.1,146.7,136.3,130.0,20.5
55.5,103.8,147.9,136.1,129.3,22.9
55.75,100.9,144.9,134.7,126.8,23.0
56.0,99.5,141.8,131.4,124.2,22.1
56.25,96.5,140.7,130.7,122.6,23.2
56.5,94.8,138.0,128.5,120.4,22.7
56.75,92.0,136.1,128.1,118.7,23.5
57.0,90.6,133.6,124.4,116.2,22.6
57.25,89.1,131.1,125.9,115.4,22.9
57.5,88.2,127.9,124.4,113.5,22.0
57.75,86.0,125.5,121.2,110.9,21.7
58.0,83.6,124.9,120.9,109.8,22.8
58.25,81.1,123.8,120.7,108.5,23.8
58.5,79.7,120.3,119.8,106.6,23.3
58.75,79.9,118.2,117.5,105.2,21.9
59.0,78.4,115.0,117.4,103.6,21.9
59.25,76.3,113.4,115.3,101.7,22.0
59.5,76.4,112.8,113.8,101.0,21.3
59.75,74.1,110.9,113.1,99.4,21.9
60.0,72.8,109.8,110.7,97.8,21.7
60.25,70.9,108.6,109.4,96.3,22.0
60.5,69.8,105.7,109.0,94.8,21.7
60.75,69.2,101.9,108.1,93.1,20.9
61.0,68.5,101.8,104.6,91.6,20.1
61.25,66.2,100.0,106.3,90.8,21.5
61.5,65.6,99.3,104.0,89.7,20.9
61.75,64.4,99.6,103.5,89.2,21.5
62.0,63.6,97.9,103.8,88.4,21.7
62.25,62.1,94.3,101.3,85.9,20.9
62.5,61.4,94.4,100.2,85.3,20.9
62.75,60.9,93.2,100.6,84.9,21.1
63.0,59.8,92.6,98.9,83.8,21.0
63.25,59.5,91.0,98.1,82.9,20.5
63.5,58.2,90.9,97.1,82.1,20.9
63.75,57.5,88.6,97.6,81.2,21.0
64.0,56.5,87.7,96.2,80.1,20.9
64.25,56.9,86.9,93.8,79.2,19.6
64.5,55.2,86.0,94.3,78.5,20.6
64.75,55.3,84.6,92.1,77.3,19.5
65.0,55.0,82.8,92.1,76.6,19.3
65.25,53.5,83.2,90.2,75.6,19.4
65.5,53.5,81.2,89.3,74.7,18.7
65.75,52.5,78.6,86.7,72.6,17.9
66.0,51.8,79.3,85.8,72.3,18.0
66.25,51.1,77.6,85.0,71.2,17.8
66.5,50.7,76.2,85.0,70.7,17.8
66.75,51.3,75.3,83.0,69.9,16.6
67.0,50.5,73.4,82.2,68.7,16.4
67.25,50.4,73.4,79.9,67.9,15.5
67.5,49.2,73.3,78.8,67.1,15.7
67.75,49.7,71.5,77.3,66.2,14.6
68.0,49.2,71.4,78.2,66.3,15.1
68.25,48.3,69.1,77.6,65.0,15.1
68.5,48.2,69.2,76.7,64.7,14.8
68.75,48.3,68.4,76.7,64.4,14.6
69.0,47.9,66.8,76.0,63.6,14.3
69.25,47.9,66.9,73.7,62.8,13.4
69.5,47.6,65.3,72.4,61.8,12.8
69.75,47.7,65.0,72.5,61.7,12.7
70.0,47.8,63.5,71.8,61.0,12.2
70.25,47.7,62.5,71.7,60.7,12.1
70.5,47.5,62.9,69.2,59.9,11.2
70.75,47.3,61.8,69.2,59.4,11.1
71.0,47.3,60.9,68.2,58.8,10.6
71.25,47.5,59.1,67.1,57.9,9.9
71.5,47.5,60.0,68.2,58.5,10.4
71.75,47.8,59.5,66.0,57.8,9.2
72.0,48.6,59.0,64.9,57.5,8.3
72.25,47.3,57.9,63.5,56.2,8.3
72.5,46.8,57.0,63.4,55.7,8.3
72.75,46.7,55.9,62.0,54.9,7.7
73.0,46.4,55.3,61.0,54.2,7.3
73.25,47.5,55.2,60.5,54.4,6.6
73.5,47.2,54.5,58.7,53.4,5.8
73.75,47.2,53.6,58.6,53.1,5.7
74.0,46.7,53.4,57.4,52.5,5.4
74.25,47.0,52.2,56.5,51.9,4.8
74.5,47.1,51.6,54.5,51.1,3.7
74.75,46.8,51.1,54.9,50.9,4.1
75.0,46.9,50.1,54.1,50.4,3.6
75.25,46.6,49.6,53.3,49.9,3.4
75.5,47.3,49.3,53.0,49.9,2.9
75.75,46.8,48.8,50.9,48.8,2.0
76.0,46.4,47.9,50.5,48.3,2.1
76.25,47.5,47.3,49.8,48.2,1.4
76.5,46.8,47.6,48.7,47.7,0.9
76.75,46.7,47.0,47.8,47.2,0.6
77.0,47.8,45.6,46.9,46.7,1.1
77.25,46.8,46.2,45.7,46.2,0.6
77.5,46.8,45.2,46.6,46.2,0.9
77.75,47.1,44.4,44.8,45.4,1.4
78.0,47.1,44.0,43.9,45.0,1.8
78.25,47.1,43.1,43.5,44.6,2.2
78.5,47.4,43.3,42.5,44.4,2.6
78.75,47.8,42.3,42.1,44.1,3.2
79.0,47.3,41.9,40.9,43.4,3.4
79.25,47.8,42.2,40.1,43.4,4.0
79.5,47.3,41.6,39.1,42.7,4.2
79.75,46.8,40.5,38.9,42.1,4.2
80.0,47.0,40.5,37.7,41.7,4.8
80.25,47.2,40.4,37.0,41.5,5.2
80.5,46.7,39.3,36.1,40.7,5.4
80.75,46.8,39.5,35.4,40.6,5.8
81.0,46.9,38.4,34.8,40.0,6.2
81.25,46.4,38.5,33.6,39.5,6.4
81.5,46.5,38.1,33.8,39.5,6.5
81.75,47.4,38.6,32.9,39.6,7.3
82.0,47.2,37.7,32.5,39.1,7.4
82.25,46.2,37.4,32.1,38.6,7.1
82.5,46.8,37.5,31.8,38.7,7.6
82.75,46.0,37.7,31.0,38.2,7.5
83.0,47.2,37.8,30.7,38.5,8.3
83.25,46.1,36.7,30.4,37.8,7.9
83.5,46.7,36.5,29.7,37.6,8.6
83.75,46.4,36.3,29.1,37.3,8.7
84.0,46.5,36.4,28.3,37.1,9.1
84.25,46.7,35.9,27.7,36.8,9.5
84.5,46.4,35.1,27.1,36.2,9.7
84.75,46.7,35.1,27.1,36.3,9.9
85.0,46.6,35.1,26.4,36.1,10.1
85.25,47.0,34.8,26.2,36.0,10.4
85.5,46.7,34.5,25.8,35.6,10.5
85.75,47.1,34.0,25.5,35.5,10.9
86.0,46.3,34.1,24.8,35.1,10.8
86.25,46.6,34.2,24.4,35.1,11.1
86.5,47.0,34.0,24.0,35.0,11.5
86.75,46.9,34.0,23.7,34.9,11.6
87.0,46.4,33.4,23.5,34.4,11.5
87.25,46.7,33.1,23.5,34.5,11.7
87.5,46.7,33.2,23.0,34.3,11.9
87.75,46.8,32.7,23.0,34.1,12.0
88.0,46.1,32.7,22.8,33.9,11.7
88.25,47.7,32.4,22.5,34.2,12.7
88.5,47.7,32.2,22.5,34.1,12.7
88.75,47.5,32.7,22.3,34.2,12.7
89.0,47.7,32.5,22.1,34.1,12.8
89.25,48.2,32.1,22.1,34.1,13.2
89.5,48.2,32.3,22.0,34.2,13.2
89.75,48.7,32.1,21.7,34.1,13.6
90.0,49.3,31.6,21.8,34.2,13.9
90.25,49.4,31.5,21.4,34.1,14.2
90.5,50.5,32.2,21.3,34.7,14.7
90.75,49.8,31.5,21.2,34.1,14.5
91.0,49.5,31.3,21.0,33.9,14.4
91.25,50.9,31.5,20.8,34.4,15.2
91.5,50.7,31.1,20.8,34.2,15.2
91.75,50.9,31.3,20.7,34.3,15.3
92.0,51.2,30.8,20.2,34.1,15.7
92.25,51.5,31.0,19.9,34.1,16.0
92.5,50.7,30.3,19.9,33.6,15.7
92.75,51.2,30.1,19.7,33.7,16.0
93.0,51.3,30.4,19.6,33.8,16.1
93.25,51.3,30.1,19.2,33.5,16.3
93.5,51.7,29.8,19.1,33.5,16.6
93.75,52.5,30.0,19.0,33.8,17.0
94.0,51.4,30.2,18.9,33.5,16.5
94.25,52.2,30.1,18.8,33.7,17.0
94.5,51.7,30.1,18.6,33.4,16.8
94.75,52.6,30.0,18.4,33.7,17.4
95.0,52.0,29.4,18.3,33.2,17.2
95.25,51.5,30.1,18.4,33.3,16.8
95.5,52.1,29.5,17.9,33.2,17.4
95.75,51.9,29.3,17.6,33.0,17.5
96.0,51.7,29.1,17.5,32.8,17.4
96.25,51.7,29.4,17.5,32.9,17.3
96.5,51.4,29.3,17.3,32.6,17.3
96.75,51.5,29.3,17.2,32.7,17.4
97.0,51.9,28.9,17.4,32.7,17.6
97.25,51.5,28.9,16.9,32.4,17.6
97.5,51.0,28.9,17.1,32.3,17.2
97.75,50.4,29.5,16.9,32.2,16.9
98.0,50.7,28.7,16.8,32.1,17.2
98.25,49.5,29.1,16.6,31.7,16.6
98.5,49.5,29.2,16.7,31.8,16.5
98.75,49.7,28.7,16.6,31.7,16.8
99.0,49.5,28.7,16.4,31.5,16.7
99.25,49.6,28.8,16.3,31.6,16.8
99.5,48.9,28.3,16.4,31.2,16.4
99.75,49.3,28.6,16.0,31.3,16.8
100.0,49.3,28.2,15.8,31.1,16.9
100.25,49.2,28.3,15.8,31.1,16.9
100.5,49.0,28.0,15.6,30.9,16.9
100.75,49.2,27.6,15.4,30.7,17.1
101.0,48.2,27.7,15.2,30.4,16.7
101.25,48.4,27.7,15.1,30.4,16.8
101.5,48.7,27.4,15.0,30.4,17.1
101.75,48.1,27.4,15.0,30.2,16.7
102.0,48.3,27.3,14.7,30.1,17.0
102.25,48.8,27.1,14.8,30.2,17.3
102.5,48.3,26.7,14.7,29.9,17.0
102.75,47.8,27.0,14.5,29.8,16.8
103.0,48.4,26.7,14.5,29.9,17.2
103.25,47.9,26.9,14.4,29.7,16.9
103.5,47.9,26.8,14.5,29.8,16.9
103.75,47.7,27.0,14.4,29.7,16.8
104.0,48.1,26.8,14.5,29.8,17.0
104.25,47.8,26.6,14.3,29.6,16.9
104.5,48.0,26.4,14.2,29.5,17.1
104.75,47.6,26.4,14.1,29.4,16.9
105.0,47.7,26.8,14.2,29.6,16.9
105.25,48.1,26.5,14.2,29.6,17.2
105.5,48.5,26.5,14.4,29.8,17.3
105.75,48.0,26.4,14.1,29.5,17.2
106.0,47.8,26.1,13.9,29.3,17.2
106.25,48.2,26.4,13.8,29.4,17.4
106.5,47.9,26.5,13.8,29.4,17.3
106.75,48.1,26.6,13.7,29.5,17.4
107.0,48.0,26.5,13.6,29.4,17.4
107.25,47.6,26.7,13.6,29.3,17.1
107.5,48.0,26.4,13.5,29.3,17.4
107.75,48.1,26.0,13.5,29.2,17.5
108.0,48.2,26.1,13.1,29.2,17.7
108.25,48.2,26.3,13.4,29.3,17.6
108.5,47.3,26.3,13.3,29.0,17.1
108.75,47.9,26.0,13.3,29.1,17.5
109.0,47.7,25.9,13.2,28.9,17.5
109.25,48.5,25.9,13.1,29.1,17.9
109.5,47.4,26.0,13.2,28.9,17.3
109.75,47.6,25.8,13.1,28.8,17.5
110.0,47.7,26.0,12.9,28.9,17.6
110.25,47.4,25.7,12.9,28.7,17.5
110.5,47.9,25.7,12.9,28.8,17.7
110.75,47.7,25.8,12.9,28.8,17.6
111.0,47.2,26.1,12.8,28.7,17.3
111.25,47.5,25.8,12.8,28.7,17.5
111.5,47.8,26.0,12.7,28.8,17.7
111.75,47.0,25.5,12.7,28.4,17.4
112.0,47.1,25.5,12.8,28.5,17.3
112.25,47.4,25.7,12.7,28.6,17.6
112.5,47.4,25.9,12.9,28.7,17.4
112.75,47.5,26.1,12.8,28.8,17.5
113.0,46.8,25.8,12.7,28.4,17.2
113.25,47.0,25.4,12.5,28.3,17.5
113.5,46.6,25.8,12.3,28.3,17.3
113.75,46.6,25.7,12.1,28.1,17.4
114.0,45.7,25.8,12.2,27.9,16.9
114.25,45.9,25.5,12.0,27.8,17.0
114.5,46.9,25.2,11.9,28.0,17.7
114.75,45.6,25.3,11.9,27.6,17.0
115.0,46.2,25.7,11.8,27.9,17.3
115.25,45.2,25.7,11.8,27.5,16.8
115.5,45.3,25.7,11.7,27.6,16.9
115.75,44.9,25.5,11.5,27.3,16.8
116.0,45.4,25.2,11.5,27.4,17.0
116.25,45.3,25.5,11.6,27.5,16.9
116.5,44.4,25.3,11.5,27.1,16.5
116.75,44.6,25.7,11.5,27.3,16.6
117.0,44.4,25.3,11.4,27.0,16.5
117.25,44.3,25.2,11.4,27.0,16.5
117.5,44.3,25.3,11.3,26.9,16.5
117.75,43.0,24.7,11.3,26.3,15.9
118.0,44.3,25.1,11.2,26.9,16.6
118.25,43.7,25.0,11.3,26.7,16.3
118.5,43.0,24.5,11.4,26.3,15.9
118.75,42.5,24.9,11.2,26.2,15.7
119.0,42.8,24.9,11.3,26.3,15.8
119.25,42.8,24.4,11.2,26.1,15.8
119.5,42.4,24.0,11.3,25.9,15.7
119.75,41.8,24.0,11.4,25.7,15.3
120.0,41.7,23.7,11.1,25.5,15.4
120.25,41.2,23.5,11.2,25.3,15.1
120.5,41.1,24.1,11.1,25.5,15.0
120.75,40.9,23.4,10.9,25.1,15.1
121.0,40.5,23.5,10.9,25.0,14.9
121.25,40.7,23.5,10.9,25.0,15.0
121.5,40.6,23.4,10.8,24.9,15.0
121.75,40.1,23.4,10.6,24.7,14.8
122.0,39.9,23.1,10.5,24.5,14.7
122.25,40.0,23.1,10.6,24.6,14.8
122.5,39.9,23.0,10.4,24.4,14.8
122.75,40.1,23.0,10.4,24.5,14.9
123.0,39.4,22.9,10.3,24.2,14.6
123.25,39.7,23.1,10.4,24.4,14.7
123.5,39.7,22.7,10.4,24.3,14.7
123.75,39.7,22.6,10.3,24.2,14.8
124.0,39.6,23.0,10.3,24.3,14.7
124.25,39.1,23.0,10.2,24.1,14.5
124.5,39.4,23.1,10.4,24.3,14.6
124.75,39.1,23.1,10.2,24.2,14.5
125.0,38.3,23.2,10.2,23.9,14.1
125.25,38.4,23.3,10.3,24.0,14.1
125.5,37.9,23.2,10.3,23.8,13.9
125.75,38.0,23.6,10.2,23.9,13.9
126.0,38.0,23.1,10.2,23.8,13.9
126.25,37.6,23.5,10.3,23.8,13.7
126.5,38.0,23.7,10.3,24.0,13.9
126.75,37.3,23.5,10.3,23.7,13.5
127.0,38.1,22.9,10.4,23.8,13.9
127.25,37.2,23.8,10.3,23.8,13.5
127.5,36.5,23.6,10.4,23.5,13.1
127.75,37.0,23.8,10.5,23.7,13.2
128.0,36.8,23.6,10.3,23.6,13.3
128.25,36.2,23.6,10.4,23.4,12.9
128.5,35.9,23.3,10.5,23.2,12.7
128.75,35.8,23.4,10.3,23.2,12.8
129.0,35.8,23.4,10.3,23.2,12.8
129.25,35.7,23.3,10.4,23.1,12.7
129.5,34.8,22.8,10.4,22.7,12.2
129.75,35.0,23.0,10.5,22.8,12.2
130.0,34.8,22.7,10.3,22.6,12.2
130.25,35.0,23.0,10.3,22.8,12.3
130.5,34.3,22.9,10.5,22.5,11.9
130.75,34.8,22.8,10.4,22.7,12.2
131.0,34.4,22.9,10.3,22.5,12.0
131.25,34.4,22.9,10.5,22.6,12.0
131.5,34.3,22.8,10.4,22.5,12.0
131.75,34.1,22.7,10.3,22.4,11.9
132.0,34.4,22.7,10.5,22.5,12.0
132.25,34.2,22.9,10.7,22.6,11.8
132.5,33.9,22.9,10.5,22.4,11.7
132.75,33.8,22.8,10.3,22.3,11.7
133.0,33.6,22.8,10.4,22.2,11.6
133.25,33.6,23.1,10.3,22.4,11.7
133.5,33.9,22.8,10.2,22.3,11.9
133.75,33.2,22.9,10.3,22.1,11.4
134.0,32.9,22.8,10.4,22.0,11.3
134.25,32.8,22.6,10.3,21.9,11.3
134.5,32.7,22.5,10.3,21.8,11.2
134.75,32.7,22.4,10.3,21.8,11.2
135.0,32.6,22.5,10.2,21.8,11.2
135.25,32.7,21.8,10.1,21.5,11.3
135.5,32.6,21.8,10.1,21.5,11.3
135.75,32.1,21.6,10.0,21.2,11.1
136.0,31.7,21.4,9.9,21.0,10.9
136.25,32.1,21.4,10.0,21.2,11.1
136.5,31.5,21.3,9.9,20.9,10.8
136.75,31.3,21.2,10.0,20.9,10.7
137.0,31.3,21.1,9.9,20.8,10.7
137.25,31.2,20.8,9.9,20.6,10.7
137.5,31.0,20.9,9.8,20.6,10.6
137.75,31.0,20.6,9.9,20.5,10.6
138.0,31.0,20.8,9.8,20.5,10.6
138.25,31.1,20.8,9.8,20.6,10.6
138.5,30.8,20.8,9.8,20.4,10.5
138.75,30.9,20.7,9.8,20.5,10.5
139.0,30.2,20.7,9.8,20.3,10.2
139.25,30.3,20.9,9.8,20.3,10.3
139.5,30.1,20.5,9.9,20.1,10.1
139.75,30.2,20.4,9.8,20.1,10.2
140.0,29.4,20.4,9.8,19.9,9.8
140.25,29.5,20.8,9.7,20.0,9.9
140.5,29.2,20.7,9.8,19.9,9.7
140.75,29.2,20.6,9.9,19.9,9.7
141.0,29.1,20.2,9.9,19.8,9.6
141.25,28.9,20.0,9.8,19.6,9.6
141.5,29.0,20.4,9.7,19.7,9.6
141.75,28.5,19.9,9.7,19.4,9.4
142.0,28.6,20.1,9.7,19.5,9.5
142.25,28.4,20.0,9.8,19.4,9.3
142.5,28.3,20.0,9.9,19.4,9.2
142.75,28.3,20.0,9.7,19.4,9.3
143.0,28.3,20.0,9.8,19.4,9.3
143.25,27.8,19.8,9.7,19.1,9.1
143.5,27.6,19.8,9.7,19.0,9.0
143.75,27.5,19.8,9.9,19.1,8.8
144.0,27.7,19.9,9.7,19.1,9.0
144.25,27.6,19.8,9.7,19.0,9.0
144.5,27.2,19.7,9.8,18.9,8.7
144.75,27.5,19.8,9.6,19.0,9.0
145.0,27.4,19.6,9.8,18.9,8.8
145.25,27.2,19.7,9.8,18.9,8.7
145.5,27.3,19.5,9.8,18.9,8.8
145.75,27.1,19.7,9.8,18.9,8.7
146.0,27.1,19.5,9.8,18.8,8.7
146.25,27.5,19.4,9.7,18.9,8.9
146.5,27.4,19.4,9.8,18.9,8.8
146.75,27.0,19.2,9.7,18.6,8.7
147.0,26.9,19.2,9.8,18.6,8.5
147.25,26.8,19.0,9.7,18.5,8.6
147.5,27.3,18.8,9.8,18.6,8.7
147.75,26.9,19.0,9.7,18.5,8.6
148.0,26.7,18.9,9.8,18.5,8.5
148.25,26.5,18.7,9.9,18.4,8.3
148.5,26.3,18.7,10.1,18.4,8.1
148.75,25.9,18.6,10.1,18.2,7.9
149.0,26.0,18.6,10.2,18.3,7.9
149.25,25.5,18.4,10.2,18.1,7.7
149.5,25.4,18.1,10.3,18.0,7.6
149.75,25.7,18.1,10.4,18.0,7.7
150.0,25.3,18.1,10.6,18.0,7.4
150.25,25.3,18.1,10.6,18.0,7.4
150.5,25.0,17.5,10.5,17.7,7.2
150.75,24.9,17.8,10.5,17.7,7.2
151.0,25.0,17.4,10.6,17.7,7.2
151.25,25.2,17.3,10.6,17.7,7.3
151.5,24.8,17.2,10.7,17.6,7.0
151.75,24.8,17.2,10.7,17.6,7.1
152.0,24.8,16.9,10.8,17.5,7.0
152.25,24.6,16.6,10.6,17.3,7.0
152.5,24.6,16.4,10.8,17.3,6.9
152.75,24.5,16.4,10.7,17.2,6.9
153.0,23.8,16.2,10.7,16.9,6.6
153.25,24.4,16.0,10.8,17.0,6.9
153.5,24.1,15.9,10.7,16.9,6.8
153.75,24.0,15.8,10.8,16.9,6.6
154.0,23.6,15.7,10.9,16.7,6.4
154.25,24.1,15.5,10.8,16.8,6.8
154.5,23.9,15.5,10.9,16.7,6.6
154.75,23.8,15.4,10.8,16.7,6.6
155.0,24.2,15.2,10.9,16.8,6.8
155.25,23.9,14.9,10.8,16.5,6.7
155.5,23.7,15.0,10.8,16.5,6.6
155.75,23.2,15.1,10.6,16.3,6.4
156.0,23.3,15.0,10.7,16.3,6.4
156.25,23.2,14.8,10.4,16.1,6.5
156.5,23.4,14.9,10.4,16.2,6.6
156.75,22.8,14.5,10.2,15.9,6.4
157.0,22.7,14.3,10.3,15.8,6.3
157.25,22.8,14.1,10.2,15.7,6.4
157.5,22.5,14.1,10.2,15.6,6.3
157.75,22.1,14.1,10.1,15.4,6.1
158.0,22.2,14.2,10.0,15.4,6.2
158.25,22.2,13.9,9.9,15.3,6.3
158.5,21.6,14.1,9.9,15.2,5.9
158.75,21.4,13.9,9.9,15.1,5.9
159.0,21.3,13.8,9.7,15.0,5.9
159.25,21.1,13.4,9.9,14.8,5.7
159.5,20.8,13.5,9.9,14.7,5.6
159.75,20.9,13.3,9.9,14.7,5.6
160.0,20.9,13.1,9.8,14.6,5.7
160.25,20.8,13.1,9.8,14.6,5.6
160.5,20.5,12.8,9.6,14.3,5.6
160.75,20.3,12.8,9.8,14.3,5.4
161.0,20.3,12.8,9.7,14.3,5.5
161.25,20.5,12.6,9.6,14.2,5.6
161.5,20.5,12.6,9.7,14.3,5.6
161.75,20.5,12.3,9.7,14.2,5.6
162.0,20.0,12.3,9.7,14.0,5.4
162.25,19.9,12.2,9.8,13.9,5.3
162.5,19.8,12.0,9.9,13.9,5.2
162.75,19.4,12.1,9.9,13.8,5.0
163.0,19.5,12.3,9.9,13.9,5.0
163.25,19.2,12.2,10.2,13.9,4.7
163.5,19.5,12.1,10.2,13.9,4.9
163.75,19.4,12.4,10.1,14.0,4.9
164.0,19.1,12.2,10.3,13.8,4.6
164.25,19.0,12.2,10.4,13.9,4.6
164.5,18.9,12.1,10.3,13.8,4.5
164.75,18.9,12.3,10.6,13.9,4.4
165.0,19.0,12.1,10.4,13.8,4.6
165.25,18.9,12.0,10.5,13.8,4.5
165.5,18.9,11.9,10.6,13.8,4.4
165.75,18.7,12.2,10.5,13.8,4.4
166.0,18.5,12.1,10.4,13.7,4.3
166.25,18.1,12.1,10.6,13.6,4.0
166.5,18.1,12.3,10.5,13.6,4.0
166.75,17.9,12.3,10.6,13.6,3.9
167.0,17.9,12.2,10.5,13.6,3.9
167.25,17.6,12.3,10.5,13.4,3.7
167.5,17.2,12.3,10.5,13.3,3.4
167.75,17.1,12.1,10.3,13.2,3.5
168.0,16.9,12.3,10.2,13.1,3.4
168.25,16.6,12.2,10.2,13.0,3.3
168.5,16.5,12.2,10.0,12.9,3.3
168.75,16.3,12.1,10.1,12.8,3.2
169.0,16.2,12.1,9.9,12.7,3.2
169.25,16.3,12.3,10.0,12.9,3.2
169.5,16.0,12.4,10.0,12.8,3.0
169.75,15.8,12.2,9.9,12.6,3.0
170.0,15.5,12.1,9.8,12.5,2.9
170.25,15.3,12.2,9.9,12.5,2.7
170.5,15.2,12.1,9.9,12.4,2.7
170.75,15.1,12.4,9.9,12.5,2.6
171.0,14.9,12.1,9.9,12.3,2.5
171.25,14.9,12.0,9.7,12.2,2.6
171.5,14.6,12.1,9.7,12.2,2.4
171.75,14.5,12.1,9.7,12.1,2.4
172.0,14.1,12.1,9.7,11.9,2.2
172.25,14.2,12.1,9.7,12.0,2.2
172.5,14.0,12.0,9.5,11.8,2.2
172.75,14.0,12.1,9.4,11.8,2.3
173.0,13.8,12.1,9.4,11.8,2.2
173.25,13.7,12.0,9.2,11.6,2.3
173.5,13.2,12.1,9.2,11.5,2.1
173.75,13.0,12.2,9.1,11.4,2.1
174.0,12.8,12.1,9.0,11.3,2.0
174.25,12.4,12.0,9.0,11.2,1.9
174.5,12.3,12.2,8.9,11.1,1.9
174.75,12.0,12.2,8.8,11.0,1.9
175.0,12.0,12.1,8.9,11.0,1.8
175.25,11.6,12.2,8.8,10.9,1.8
175.5,11.6,12.1,8.8,10.8,1.8
175.75,11.4,12.2,8.7,10.7,1.8
176.0,11.4,12.1,8.8,10.7,1.7
176.25,11.1,12.1,8.6,10.6,1.8
176.5,11.0,11.8,8.7,10.5,1.6
176.75,11.0,11.7,8.6,10.5,1.6
177.0,10.9,11.6,8.6,10.4,1.6
177.25,10.8,11.6,8.7,10.4,1.5
177.5,10.8,11.5,8.7,10.3,1.4
177.75,10.6,11.5,8.7,10.3,1.4
178.0,10.7,11.4,8.7,10.2,1.4
178.25,10.5,11.4,8.7,10.2,1.4
178.5,10.3,11.2,8.6,10.1,1.3
178.75,10.2,11.3,8.7,10.0,1.3
179.0,10.1,11.4,8.6,10.0,1.4
179.25,10.0,11.3,8.6,10.0,1.4
179.5,10.0,11.3,8.7,10.0,1.3
179.75,9.9,11.2,8.5,9.9,1.3
180.0,9.9,11.0,8.4,9.8,1.3
180.25,9.6,11.1,8.3,9.7,1.4
180.5,9.3,11.2,8.3,9.6,1.5
180.75,9.1,11.1,8.2,9.5,1.5
181.0,8.9,11.0,8.1,9.3,1.5
181.25,8.9,11.1,8.0,9.3,1.6
181.5,8.8,11.1,7.9,9.3,1.7
181.75,8.8,10.8,7.8,9.1,1.5
182.0,8.6,10.7,7.8,9.0,1.5
182.25,8.4,10.7,7.8,9.0,1.5
182.5,8.5,10.6,7.7,8.9,1.5
182.75,8.4,10.5,7.6,8.8,1.5
183.0,8.4,10.5,7.7,8.9,1.5
183.25,8.2,10.4,7.7,8.7,1.4
183.5,8.1,10.3,7.7,8.7,1.4
183.75,8.0,10.4,7.6,8.7,1.5
184.0,7.9,10.3,7.6,8.6,1.5
184.25,7.7,10.1,7.5,8.4,1.4
184.5,7.7,10.0,7.4,8.4,1.4
184.75,7.5,9.8,7.5,8.3,1.3
185.0,7.3,9.7,7.6,8.2,1.3
185.25,7.0,9.5,7.4,8.0,1.3
185.5,6.9,9.4,7.5,7.9,1.3
185.75,6.7,9.6,7.4,7.9,1.5
186.0,6.6,9.4,7.5,7.8,1.4
186.25,6.5,9.4,7.5,7.8,1.5
186.5,6.4,9.3,7.4,7.7,1.5
186.75,6.4,9.6,7.5,7.8,1.6
187.0,6.3,9.3,7.5,7.7,1.5
187.25,6.3,9.1,7.5,7.6,1.4
187.5,6.2,9.2,7.4,7.6,1.5
187.75,6.2,9.0,7.4,7.5,1.4
188.0,6.1,8.8,7.4,7.4,1.4
188.25,6.0,8.7,7.3,7.3,1.4
188.5,6.1,8.8,7.3,7.4,1.4
188.75,6.0,8.6,7.3,7.3,1.3
189.0,5.8,8.5,7.3,7.2,1.3
189.25,5.7,8.4,7.1,7.1,1.4
189.5,5.7,8.4,7.0,7.1,1.4
189.75,5.5,8.5,6.8,6.9,1.5
190.0,5.4,8.5,6.8,6.9,1.5
190.25,5.2,8.4,6.7,6.8,1.6
190.5,5.1,8.2,6.7,6.7,1.5
190.75,5.0,8.3,6.5,6.6,1.7
191.0,4.9,8.2,6.5,6.5,1.6
191.25,4.8,8.3,6.4,6.5,1.8
191.5,4.8,8.4,6.3,6.5,1.8
191.75,4.7,8.2,6.3,6.4,1.7
192.0,4.8,8.2,6.3,6.4,1.7
192.25,4.6,8.2,6.3,6.4,1.8
192.5,4.6,8.2,6.2,6.3,1.8
192.75,4.6,8.2,6.2,6.3,1.8
193.0,4.4,8.2,6.2,6.3,1.9
193.25,4.3,8.2,6.2,6.2,2.0
193.5,4.1,8.2,6.1,6.1,2.1
193.75,4.0,8.2,6.0,6.1,2.1
194.0,3.9,8.1,6.0,6.0,2.1
194.25,3.8,8.2,6.0,6.0,2.2
194.5,3.7,8.1,5.9,5.9,2.2
194.75,3.7,8.1,6.1,6.0,2.2
195.0,3.6,8.0,6.0,5.9,2.2
195.25,3.5,8.1,6.0,5.9,2.3
195.5,3.5,8.1,6.0,5.9,2.3
195.75,3.4,8.1,6.0,5.8,2.4
196.0,3.4,8.1,6.0,5.8,2.4
196.25,3.3,8.1,5.9,5.8,2.4
196.5,3.2,8.1,5.9,5.7,2.4
196.75,3.3,8.0,5.9,5.7,2.4
197.0,3.2,8.1,5.9,5.7,2.4
197.25,3.2,8.1,6.0,5.7,2.4
197.5,3.2,8.1,5.9,5.8,2.5
197.75,3.2,8.1,5.9,5.7,2.5
198.0,3.2,8.1,5.9,5.7,2.5
198.25,3.1,8.1,6.0,5.7,2.5
198.5,3.1,8.1,5.9,5.7,2.5
198.75,3.1,8.2,5.9,5.7,2.5
199.0,3.0,8.1,5.9,5.7,2.6
199.25,3.1,8.3,5.9,5.8,2.6
199.5,3.1,8.2,5.9,5.7,2.5
199.75,3.1,8.4,5.8,5.8,2.7
200.0,3.0,8.5,5.9,5.8,2.7
200.25,3.0,8.6,5.9,5.8,2.8
200.5,3.0,8.7,5.9,5.9,2.8
200.75,3.0,8.7,5.9,5.9,2.8
201.0,3.0,8.8,5.9,5.9,2.9
201.25,3.0,8.8,5.9,5.9,2.9
201.5,3.0,8.9,6.0,5.9,3.0
201.75,3.0,8.8,6.0,5.9,2.9
202.0,3.0,8.9,5.9,5.9,3.0
202.25,3.0,8.7,5.9,5.8,2.9
202.5,2.9,8.8,6.0,5.9,2.9
202.75,3.0,8.6,5.9,5.8,2.8
203.0,3.0,8.7,5.7,5.8,2.8
203.25,3.0,8.6,5.7,5.7,2.8
203.5,2.8,8.6,5.6,5.7,2.9
203.75,2.7,8.7,5.6,5.7,3.0
204.0,2.6,8.6,5.5,5.6,3.0
204.25,2.5,8.6,5.4,5.5,3.0
204.5,2.5,8.5,5.5,5.5,3.0
204.75,2.4,8.5,5.3,5.4,3.1
205.0,2.3,8.6,5.3,5.4,3.2
205.25,2.2,8.6,5.2,5.3,3.2
205.5,2.2,8.6,5.2,5.3,3.2
205.75,2.2,8.6,5.3,5.4,3.2
206.0,2.1,8.6,5.1,5.3,3.3
206.25,2.1,8.6,5.1,5.3,3.3
206.5,2.0,8.5,5.1,5.2,3.3
206.75,1.9,8.5,5.1,5.2,3.3
207.0,1.9,8.5,5.1,5.2,3.3
207.25,1.8,8.6,5.0,5.1,3.4
207.5,1.8,8.5,5.0,5.1,3.4
207.75,1.7,8.7,5.0,5.1,3.5
208.0,1.7,8.6,5.0,5.1,3.5
208.25,1.6,8.5,5.0,5.1,3.5
208.5,1.6,8.5,5.0,5.0,3.5
208.75,1.6,8.6,5.0,5.0,3.5
209.0,1.5,8.5,5.1,5.0,3.5
209.25,1.5,8.6,5.1,5.1,3.5
209.5,1.4,8.7,5.3,5.1,3.6
209.75,1.4,8.4,5.3,5.0,3.5
210.0,1.4,8.6,5.3,5.1,3.6
210.25,1.3,8.7,5.3,5.1,3.7
210.5,1.2,8.6,5.1,5.0,3.7
210.75,1.0,8.6,5.1,4.9,3.8
211.0,0.9,8.5,5.2,4.9,3.8
211.25,0.8,8.5,5.2,4.9,3.9
211.5,0.8,8.5,5.3,4.8,3.9
211.75,0.7,8.5,5.4,4.9,3.9
212.0,0.6,8.5,5.5,4.9,4.0
212.25,0.6,8.5,5.5,4.9,4.0
212.5,0.5,8.6,5.5,4.9,4.1
212.75,0.4,8.6,5.6,4.9,4.1
213.0,0.3,8.8,5.6,4.9,4.3
213.25,0.1,9.0,5.6,4.9,4.4
213.5,0.0,8.8,5.7,4.8,4.5
213.75,-0.1,9.0,5.7,4.9,4.6
214.0,-0.2,9.1,5.8,4.9,4.7
214.25,-0.3,9.1,5.8,4.8,4.8
214.5,-0.4,9.0,5.6,4.8,4.8
214.75,-0.5,9.1,5.7,4.8,4.8
215.0,-0.5,8.9,5.6,4.7,4.8
215.25,-0.6,9.0,5.5,4.6,4.9
215.5,-0.6,8.9,5.3,4.5,4.8
215.75,-0.7,8.8,5.4,4.5,4.8
216.0,-0.7,8.5,5.2,4.3,4.7
216.25,-0.8,8.5,5.3,4.3,4.7
216.5,-0.8,8.2,5.2,4.2,4.6
216.75,-0.8,8.1,5.2,4.2,4.6
217.0,-0.9,8.2,5.2,4.2,4.6
217.25,-0.9,8.0,5.1,4.1,4.6
217.5,-0.9,7.8,5.1,4.0,4.5
217.75,-0.9,7.7,5.1,3.9,4.4
218.0,-0.9,7.5,5.0,3.9,4.3
218.25,-0.9,7.3,5.1,3.8,4.2
218.5,-0.9,7.2,5.0,3.8,4.2
218.75,-0.9,7.1,5.0,3.7,4.1
219.0,-0.8,7.0,5.1,3.7,4.1
219.25,-0.8,6.9,5.0,3.7,4.0
219.5,-0.8,6.8,5.0,3.7,4.0
219.75,-0.8,6.6,5.0,3.6,3.9
220.0,-0.8,6.4,5.0,3.5,3.8
220.25,-0.8,6.2,5.0,3.5,3.7
220.5,-0.7,6.1,4.9,3.4,3.7
220.75,-0.7,5.9,4.9,3.4,3.6
221.0,-0.7,5.8,4.9,3.3,3.5
221.25,-0.7,,4.9,2.1,4.0
221.5,-0.7,,5.0,2.1,4.0
221.75,-0.7,,5.0,2.1,4.0
222.0,-0.7,,4.9,2.1,4.0
222.25,-0.7,,4.9,2.1,4.0
222.5,-0.7,,5.0,2.1,4.0
222.75,-0.7,,5.0,2.1,4.0
223.0,-0.7,,4.9,2.1,4.0
223.25,-0.7,,4.9,2.1,4.0
223.5,-0.7,,4.9,2.1,3.9
223.75,-0.7,,4.9,2.1,3.9
224.0,-0.7,,4.9,2.1,3.9
224.25,-0.7,,4.9,2.1,3.9
224.5,-0.7,,4.9,2.1,4.0
224.75,-0.7,,4.9,2.1,3.9
225.0,-0.7,,4.8,2.1,3.9
225.25,-0.7,,4.8,2.1,3.9
225.5,-0.7,,4.8,2.1,3.9
225.75,-0.7,,4.8,2.1,3.9
226.0,-0.7,,4.7,2.0,3.8
226.25,-0.7,,4.7,2.0,3.8
226.5,-0.7,,4.7,2.0,3.8
226.75,-0.7,,4.6,2.0,3.8
227.0,-0.7,,4.7,2.0,3.8
227.25,-0.7,,4.7,2.0,3.8
227.5,-0.7,,4.7,2.0,3.8
227.75,-0.7,,4.7,2.0,3.8
228.0,-0.7,,4.6,2.0,3.8
228.25,-0.7,,4.6,2.0,3.8
228.5,-0.7,,4.5,1.9,3.7
228.75,-0.7,,4.5,1.9,3.6
229.0,-0.7,,4.3,1.8,3.5
229.25,-0.7,,4.3,1.8,3.5
229.5,-0.7,,4.2,1.7,3.4
229.75,-0.7,,4.1,1.7,3.4
230.0,-0.7,,4.0,1.7,3.3
230.25,-0.7,,4.0,1.6,3.3
230.5,-0.7,,3.9,1.6,3.3
230.75,-0.7,,3.9,1.6,3.2
231.0,-0.7,,3.8,1.6,3.2
231.25,-0.7,,3.8,1.5,3.1
231.5,-0.7,,3.8,1.6,3.2
231.75,-0.7,,3.7,1.5,3.1
232.0,-0.7,,3.7,1.5,3.1
232.25,-0.7,,3.6,1.5,3.1
232.5,-0.7,,3.7,1.5,3.1
232.75,-0.7,,3.7,1.5,3.1
233.0,-0.7,,3.6,1.5,3.0
233.25,-0.7,,3.6,1.5,3.0
233.5,-0.7,,3.6,1.4,3.0
233.75,-0.7,,3.6,1.5,3.0
234.0,-0.7,,3.6,1.5,3.0
234.25,-0.7,,3.5,1.4,3.0
234.5,-0.7,,3.6,1.4,3.0
234.75,-0.7,,3.5,1.4,3.0
235.0,-0.7,,3.6,1.4,3.0
235.25,-0.7,,3.5,1.4,3.0
235.5,-0.8,,3.5,1.4,3.1
235.75,-0.9,,3.5,1.3,3.1
236.0,-1.0,,3.5,1.2,3.2
236.25,-1.1,,3.5,1.2,3.3
236.5,-1.2,,3.5,1.2,3.3
236.75,-1.2,,3.5,1.1,3.4
237.0,-1.3,,3.5,1.1,3.4
237.25,-1.4,,3.5,1.1,3.4
237.5,-1.4,,3.5,1.1,3.5
237.75,-1.4,,3.5,1.0,3.5
238.0,-1.5,,3.5,1.0,3.5
238.25,-1.5,,3.5,1.0,3.5
238.5,-1.6,,3.5,1.0,3.6
238.75,-1.6,,3.5,0.9,3.6
239.0,-1.6,,3.5,0.9,3.6
239.25,-1.6,,3.5,0.9,3.6
239.5,-1.7,,3.4,0.9,3.6
239.75,-1.7,,3.5,0.9,3.7
240.0,-1.7,,3.5,0.9,3.7
240.25,-1.7,,3.5,0.9,3.7
240.5,-1.7,,3.5,0.9,3.7
240.75,-1.7,,3.6,0.9,3.7
241.0,-1.8,,3.6,0.9,3.8
241.25,-1.8,,3.6,0.9,3.8
241.5,-1.8,,3.6,0.9,3.8
241.75,-1.8,,3.7,0.9,3.8
242.0,-1.8,,3.8,1.0,3.9
242.25,-1.8,,3.9,1.1,4.0
242.5,-1.8,,4.0,1.1,4.1
242.75,-1.8,,4.1,1.2,4.2
243.0,-1.8,,4.3,1.3,4.3
243.25,-1.8,,4.5,1.3,4.4
243.5,-1.8,,4.6,1.4,4.5
243.75,-1.8,,4.8,1.5,4.7
244.0,-1.8,,4.9,1.6,4.8
244.25,-1.8,,5.1,1.6,4.9