File: 01_Data/Pallet_Wood/Cone/Pallet_Wood_HRRPUA_35.csv
Time after Ignition,Pallet_Wood_R1,Pallet_Wood_R2,Pallet_Wood_R3,Mean,Std. Dev.
0.0,6.2,11.5,12.6,10.1,3.4
0.75,11.5,20.1,22.5,18.0,5.8
1.5,19.8,31.3,32.4,27.8,6.9
2.25,31.3,42.7,42.3,38.8,6.5
3.0,40.7,51.7,51.1,47.8,6.2
3.75,49.5,59.8,60.4,56.6,6.2
4.5,60.3,67.3,68.2,65.3,4.4
5.25,69.0,75.1,74.2,72.7,3.3
6.0,76.7,82.2,78.8,79.2,2.8
6.75,82.5,86.8,85.2,84.8,2.2
7.5,87.5,92.4,91.5,90.5,2.6
8.25,92.6,96.1,98.0,95.6,2.7
9.0,97.4,100.9,101.9,100.1,2.4
9.75,101.2,102.8,102.4,102.1,0.8
10.5,104.3,106.1,105.3,105.2,0.9
11.25,106.9,108.2,109.5,108.2,1.3
12.0,109.7,111.3,110.4,110.5,0.8
12.75,111.6,111.2,110.7,111.2,0.5
13.5,113.2,114.6,111.6,113.1,1.5
14.25,114.8,115.7,111.0,113.8,2.5
15.0,119.0,117.4,113.6,116.7,2.7
15.75,119.3,116.9,115.6,117.3,1.9
16.5,120.2,119.8,115.9,118.6,2.4
17.25,123.0,122.9,116.9,120.9,3.5
18.0,122.1,122.1,117.2,120.5,2.8
18.75,124.9,122.4,117.5,121.6,3.8
19.5,124.7,122.7,120.2,122.5,2.3
20.25,126.2,123.8,119.1,123.1,3.6
21.0,127.5,123.3,118.8,123.2,4.4
21.75,126.1,122.5,118.6,122.4,3.7
22.5,126.3,124.2,121.3,123.9,2.5
23.25,128.9,122.8,117.9,123.2,5.5
24.0,128.9,121.8,118.7,123.1,5.3
24.75,128.6,122.4,118.8,123.3,4.9
25.5,126.9,123.0,119.0,123.0,4.0
26.25,125.7,121.8,121.2,122.9,2.4
27.0,128.6,121.5,120.5,123.5,4.4
27.75,127.0,121.5,119.0,122.5,4.1
28.5,126.1,121.8,120.7,122.9,2.8
29.25,127.4,123.5,120.5,123.8,3.4
30.0,127.4,122.6,120.6,123.5,3.5
30.75,128.0,120.8,121.8,123.6,3.9
31.5,125.6,122.3,117.1,121.7,4.3
32.25,126.3,121.6,119.5,122.4,3.5
33.0,127.2,124.4,119.6,123.8,3.8
33.75,129.1,121.3,118.3,122.9,5.5
34.5,127.1,122.7,117.3,122.4,4.9
35.25,126.6,121.3,116.1,121.3,5.3
36.0,126.2,120.7,116.2,121.0,5.0
36.75,127.8,120.7,115.6,121.4,6.1
37.5,124.6,118.4,117.8,120.3,3.7
38.25,125.0,117.3,116.5,119.6,4.7
39.0,126.2,118.4,113.2,119.2,6.5
39.75,123.8,115.9,116.7,118.8,4.4
40.5,125.4,116.5,114.4,118.7,5.8
41.25,120.8,115.5,112.0,116.1,4.4
42.0,121.4,115.8,113.2,116.8,4.2
42.75,121.3,116.1,112.1,116.5,4.6
43.5,120.0,116.6,112.5,116.4,3.7
44.25,120.8,113.8,109.9,114.9,5.5
45.0,121.5,112.0,111.1,114.9,5.7
45.75,118.7,112.6,111.1,114.2,4.0
46.5,120.7,113.9,109.0,114.5,5.9
47.25,119.6,112.3,107.7,113.2,6.0
48.0,116.3,112.4,109.8,112.8,3.3
48.75,118.7,109.9,109.0,112.5,5.3
49.5,116.6,110.5,107.5,111.5,4.6
50.25,115.1,109.3,107.4,110.6,4.0
51.0,114.0,110.8,108.4,111.0,2.8
51.75,113.5,108.8,106.7,109.7,3.5
52.5,114.6,108.5,105.3,109.5,4.7
53.25,112.1,107.6,107.9,109.2,2.5
54.0,109.6,108.5,106.5,108.2,1.6
54.75,111.6,107.0,106.3,108.3,2.9
55.5,109.5,107.7,105.2,107.4,2.1
56.25,111.4,106.0,105.6,107.7,3.2
57.0,109.0,106.5,105.7,107.1,1.7
57.75,110.6,106.9,104.8,107.4,2.9
58.5,108.4,106.1,104.3,106.2,2.0
59.25,108.5,107.9,102.8,106.4,3.1
60.0,107.5,107.0,103.3,105.9,2.3
60.75,108.2,106.9,100.9,105.3,3.9
61.5,109.7,106.7,101.7,106.0,4.1
62.25,107.5,105.7,102.3,105.2,2.6
63.0,107.1,105.0,100.9,104.3,3.2
63.75,106.0,103.4,100.5,103.3,2.8
64.5,106.1,104.4,100.2,103.6,3.0
65.25,104.8,103.9,98.2,102.3,3.6
66.0,103.8,103.5,97.8,101.7,3.4
66.75,101.5,101.4,97.7,100.2,2.2
67.5,104.0,101.4,98.1,101.2,3.0
68.25,104.1,103.5,97.5,101.7,3.7
69.0,104.4,101.0,96.9,100.8,3.8
69.75,102.9,102.4,95.5,100.3,4.2
70.5,104.4,100.1,97.7,100.7,3.4
71.25,101.1,101.4,96.6,99.7,2.7
72.0,102.3,100.4,95.2,99.3,3.7
72.75,103.4,98.5,94.8,98.9,4.3
73.5,101.6,97.7,94.7,98.0,3.4
74.25,102.5,98.6,92.7,97.9,4.9
75.0,102.1,99.3,92.7,98.0,4.8
75.75,101.3,97.2,93.9,97.5,3.7
76.5,101.7,95.9,92.8,96.8,4.5
77.25,100.6,97.0,92.9,96.8,3.9
78.0,100.1,96.5,90.7,95.8,4.7
78.75,99.0,95.9,90.7,95.2,4.2
79.5,99.1,95.4,90.9,95.1,4.1
80.25,96.7,97.1,89.8,94.5,4.1
81.0,97.0,97.5,90.0,94.8,4.2
81.75,97.5,96.8,90.9,95.1,3.6
82.5,96.6,95.4,89.0,93.7,4.1
83.25,98.1,97.6,88.7,94.8,5.3
84.0,96.4,94.9,90.0,93.8,3.3
84.75,96.1,95.0,89.4,93.5,3.6
85.5,93.3,95.2,90.0,92.8,2.6
86.25,95.5,95.4,89.4,93.4,3.5
87.0,95.0,95.7,90.1,93.6,3.1
87.75,94.0,94.8,88.4,92.4,3.5
88.5,93.4,94.2,89.3,92.3,2.6
89.25,94.3,93.3,88.8,92.2,2.9
90.0,95.3,93.7,87.7,92.2,4.0
90.75,94.7,94.2,88.3,92.4,3.6
91.5,95.1,94.2,88.1,92.5,3.8
92.25,94.9,93.4,87.1,91.8,4.2
93.0,93.1,92.8,86.8,90.9,3.5
93.75,92.6,92.8,86.9,90.8,3.4
94.5,92.6,93.7,85.9,90.7,4.2
95.25,91.9,93.0,86.9,90.6,3.2
96.0,91.3,92.5,85.1,89.6,3.9
96.75,92.0,92.1,86.1,90.1,3.4
97.5,90.5,94.6,86.1,90.4,4.3
98.25,91.0,91.5,85.4,89.3,3.4
99.0,89.9,90.9,85.2,88.7,3.0
99.75,90.9,90.7,84.1,88.6,3.8
100.5,90.7,91.0,85.8,89.2,2.9
101.25,90.5,90.2,85.3,88.7,2.9
102.0,90.6,90.9,83.7,88.4,4.1
102.75,91.2,91.7,84.8,89.2,3.8
103.5,90.7,90.9,84.5,88.7,3.7
104.25,88.6,90.6,84.1,87.8,3.3
105.0,88.5,90.3,84.5,87.7,3.0
105.75,87.7,89.7,84.8,87.4,2.5
106.5,88.3,90.5,83.7,87.5,3.4
107.25,88.1,89.8,82.3,86.7,3.9
108.0,87.5,90.6,82.9,87.0,3.9
108.75,88.2,88.1,82.1,86.1,3.5
109.5,87.7,89.2,81.5,86.1,4.0
110.25,86.3,89.2,82.0,85.8,3.6
111.0,86.9,89.6,82.3,86.3,3.7
111.75,86.2,88.9,81.6,85.6,3.7
112.5,86.4,88.5,82.0,85.7,3.3
113.25,87.6,87.5,82.6,85.9,2.9
114.0,86.4,87.2,80.8,84.8,3.5
114.75,85.8,87.1,81.6,84.9,2.9
115.5,86.1,87.2,84.0,85.8,1.7
116.25,84.7,86.8,80.6,84.1,3.1
117.0,85.7,86.0,81.9,84.5,2.3
117.75,83.5,86.6,82.2,84.1,2.2
118.5,84.5,86.7,81.2,84.1,2.8
119.25,84.1,86.3,80.3,83.6,3.1
120.0,83.2,86.6,80.7,83.5,3.0
120.75,83.8,86.0,80.8,83.5,2.6
121.5,82.5,84.8,81.7,83.0,1.6
122.25,84.2,85.0,81.3,83.5,2.0
123.0,82.5,84.4,80.8,82.5,1.8
123.75,84.7,84.8,80.0,83.2,2.7
124.5,82.8,84.4,79.9,82.4,2.3
125.25,82.9,84.1,78.9,82.0,2.7
126.0,83.2,86.6,79.0,82.9,3.8
126.75,81.9,84.7,80.2,82.2,2.3
127.5,81.9,84.4,79.2,81.9,2.6
128.25,81.1,84.7,79.7,81.9,2.6
129.0,81.4,84.2,79.5,81.7,2.4
129.75,81.6,82.6,78.1,80.8,2.4
130.5,80.0,84.1,79.6,81.3,2.5
131.25,80.1,83.6,78.6,80.7,2.5
132.0,80.3,82.8,77.1,80.1,2.9
132.75,79.9,81.8,77.4,79.7,2.2
133.5,79.3,82.6,76.5,79.5,3.1
134.25,78.4,82.1,76.7,79.1,2.7
135.0,77.3,79.9,75.9,77.7,2.0
135.75,77.9,80.9,76.2,78.3,2.4
136.5,79.2,80.1,76.5,78.6,1.9
137.25,78.0,81.0,75.2,78.1,2.9
138.0,77.0,79.0,76.0,77.3,1.5
138.75,77.2,80.8,75.0,77.7,2.9
139.5,77.8,78.8,75.6,77.4,1.7
140.25,76.9,79.1,76.0,77.3,1.6
141.0,77.2,79.0,75.8,77.3,1.6
141.75,77.6,79.3,76.9,77.9,1.3
142.5,77.2,80.3,76.7,78.0,1.9
143.25,75.8,77.9,75.6,76.4,1.3
144.0,77.4,79.3,76.1,77.6,1.6
144.75,75.0,78.9,76.0,76.6,2.0
145.5,76.3,78.8,75.5,76.9,1.7
146.25,76.4,79.5,76.6,77.5,1.7
147.0,75.5,78.6,75.5,76.5,1.8
147.75,76.5,80.2,77.6,78.1,1.9
148.5,75.0,78.4,76.4,76.6,1.7
149.25,74.2,80.3,75.9,76.8,3.1
150.0,76.1,80.5,75.9,77.5,2.6
150.75,74.0,79.6,75.4,76.3,2.9
151.5,74.7,78.0,76.7,76.5,1.6
152.25,75.6,78.9,76.1,76.9,1.8
153.0,75.8,80.0,75.1,77.0,2.7
153.75,75.8,79.0,74.9,76.6,2.1
154.5,74.8,80.4,76.2,77.1,2.9
155.25,75.1,80.2,75.2,76.8,2.9
156.0,74.6,80.2,76.0,77.0,2.9
156.75,74.0,79.5,76.5,76.7,2.7
157.5,74.0,79.7,75.3,76.3,3.0
158.25,71.7,79.5,77.7,76.3,4.1
159.0,72.7,78.5,76.4,75.9,2.9
159.75,72.6,79.1,75.3,75.7,3.3
160.5,71.6,78.5,76.6,75.6,3.5
161.25,72.3,79.9,75.6,75.9,3.8
162.0,70.4,80.4,76.1,75.7,5.0
162.75,71.4,80.8,75.6,75.9,4.7
163.5,70.4,80.6,75.5,75.5,5.1
164.25,71.2,81.4,75.3,76.0,5.1
165.0,71.4,80.3,76.4,76.0,4.5
165.75,73.2,79.8,76.9,76.6,3.3
166.5,72.8,80.2,75.6,76.2,3.7
167.25,72.9,79.3,76.1,76.1,3.2
168.0,72.8,79.4,74.9,75.7,3.4
168.75,70.4,79.5,73.7,74.5,4.6
169.5,71.8,78.9,74.9,75.2,3.5
170.25,72.2,78.4,74.4,75.0,3.1
171.0,71.3,79.5,74.2,75.0,4.2
171.75,70.8,80.0,73.9,74.9,4.7
172.5,70.8,79.8,75.0,75.2,4.5
173.25,70.9,79.5,72.6,74.3,4.6
174.0,71.5,78.8,73.6,74.7,3.8
174.75,69.9,78.8,74.7,74.4,4.5
175.5,70.7,78.0,73.6,74.1,3.7
176.25,70.5,78.5,75.9,74.9,4.1
177.0,69.4,77.2,74.7,73.8,4.0
177.75,69.6,78.4,75.1,74.4,4.4
178.5,69.0,77.4,76.2,74.2,4.6
179.25,69.5,77.6,76.0,74.4,4.3
180.0,68.1,77.5,75.6,73.7,5.0
180.75,67.8,76.3,75.3,73.1,4.6
181.5,67.8,77.9,75.9,73.9,5.4
182.25,66.8,75.7,75.2,72.6,5.0
183.0,67.0,76.8,76.2,73.3,5.5
183.75,66.3,75.0,75.8,72.3,5.3
184.5,66.4,74.9,75.5,72.3,5.1
185.25,67.0,75.1,75.8,72.6,4.9
186.0,66.7,74.0,75.8,72.1,4.8
186.75,66.1,75.6,75.9,72.5,5.6
187.5,67.0,75.1,75.3,72.5,4.7
188.25,66.4,75.2,76.1,72.6,5.4
189.0,66.4,75.6,76.6,72.9,5.6
189.75,66.6,74.7,75.7,72.3,5.0
190.5,66.3,74.6,76.3,72.4,5.3
191.25,66.1,73.2,75.5,71.6,4.9
192.0,67.2,73.5,74.5,71.7,3.9
192.75,65.4,74.6,75.4,71.8,5.5
193.5,65.8,73.1,75.5,71.4,5.0
194.25,65.3,73.3,75.3,71.3,5.3
195.0,65.9,73.3,74.8,71.3,4.7
195.75,65.2,73.6,74.1,70.9,5.0
196.5,66.3,73.3,75.2,71.6,4.7
197.25,65.0,72.5,76.0,71.2,5.6
198.0,65.8,72.8,75.0,71.2,4.8
198.75,65.6,72.9,76.3,71.6,5.4
199.5,66.9,73.8,75.4,72.0,4.5
200.25,66.5,73.8,75.1,71.8,4.6
201.0,67.0,73.8,74.3,71.7,4.0
201.75,67.1,73.4,74.5,71.7,4.0
202.5,67.2,73.3,74.7,71.7,4.0
203.25,67.8,72.8,74.9,71.8,3.6
204.0,67.3,72.7,74.8,71.6,3.9
204.75,66.6,73.9,74.0,71.5,4.3
205.5,66.6,74.3,76.4,72.4,5.1
206.25,66.6,73.4,75.2,71.7,4.5
207.0,67.3,73.6,75.7,72.2,4.4
207.75,67.6,72.4,75.1,71.7,3.8
208.5,65.9,72.3,74.4,70.8,4.4
209.25,65.3,72.6,76.6,71.5,5.8
210.0,65.0,73.9,75.3,71.4,5.6
210.75,66.5,73.0,75.4,71.6,4.6
211.5,67.3,73.0,73.1,71.1,3.4
212.25,65.2,72.9,74.5,70.9,5.0
213.0,66.5,73.5,75.2,71.7,4.6
213.75,66.0,73.4,75.5,71.6,5.0
214.5,67.6,74.2,73.8,71.9,3.7
215.25,67.1,72.8,75.0,71.6,4.1
216.0,66.9,73.1,74.3,71.4,3.9
216.75,66.5,72.0,73.9,70.8,3.8
217.5,66.7,71.8,72.8,70.4,3.3
218.25,66.3,72.5,73.8,70.8,4.0
219.0,66.8,71.9,73.4,70.7,3.5
219.75,66.2,71.9,73.8,70.6,3.9
220.5,65.3,71.8,73.5,70.2,4.4
221.25,66.5,72.5,73.5,70.8,3.8
222.0,67.4,72.0,74.6,71.3,3.6
222.75,67.4,72.2,73.1,70.9,3.1
223.5,66.3,72.3,73.6,70.7,3.9
224.25,66.5,72.0,75.7,71.4,4.6
225.0,66.8,72.0,74.9,71.2,4.2
225.75,66.1,73.0,72.4,70.5,3.8
226.5,65.9,71.6,74.9,70.8,4.5
227.25,65.9,71.9,75.3,71.0,4.7
228.0,65.0,72.3,74.4,70.6,4.9
228.75,65.8,72.7,75.0,71.2,4.8
229.5,66.1,72.1,74.3,70.8,4.3
230.25,65.2,71.5,74.5,70.4,4.8
231.0,65.0,72.3,73.4,70.2,4.5
231.75,65.9,71.9,76.7,71.5,5.4
232.5,66.1,71.8,73.7,70.5,4.0
233.25,65.7,72.1,76.0,71.3,5.2
234.0,65.4,72.1,74.3,70.6,4.6
234.75,64.9,72.1,75.4,70.8,5.4
235.5,65.6,72.5,74.8,71.0,4.8
236.25,65.1,70.8,74.7,70.2,4.8
237.0,65.7,72.6,76.0,71.5,5.2
237.75,64.3,72.7,74.5,70.5,5.4
238.5,65.8,72.0,74.8,70.9,4.6
239.25,64.9,72.1,74.6,70.5,5.0
240.0,64.4,71.4,75.4,70.4,5.6
240.75,64.6,71.7,75.3,70.5,5.4
241.5,64.0,71.6,75.3,70.3,5.7
242.25,64.1,71.2,75.7,70.3,5.9
243.0,64.4,70.9,75.6,70.3,5.6
243.75,63.8,71.4,76.8,70.7,6.5
244.5,63.9,72.0,76.1,70.7,6.2
245.25,65.0,71.4,75.3,70.6,5.2
246.0,63.8,71.3,75.3,70.2,5.9
246.75,65.8,71.9,75.5,71.1,4.9
247.5,64.3,71.8,76.3,70.8,6.0
248.25,63.6,71.5,75.9,70.3,6.2
249.0,63.4,71.7,74.8,70.0,5.9
249.75,64.3,71.9,76.1,70.8,6.0
250.5,63.7,72.3,75.8,70.6,6.3
251.25,65.1,72.4,75.6,71.0,5.4
252.0,64.1,71.7,75.6,70.5,5.8
252.75,65.0,71.6,75.9,70.8,5.5
253.5,64.4,72.8,75.6,70.9,5.9
254.25,64.2,73.0,76.0,71.1,6.1
255.0,63.7,71.7,76.6,70.7,6.5
255.75,62.9,72.0,75.5,70.1,6.5
256.5,63.4,72.4,74.9,70.2,6.0
257.25,62.5,73.1,75.6,70.4,7.0
258.0,63.2,73.3,75.5,70.7,6.6
258.75,63.1,72.6,75.8,70.5,6.6
259.5,63.8,72.5,74.7,70.3,5.8
260.25,63.7,71.9,76.0,70.6,6.2
261.0,62.7,72.9,75.3,70.3,6.7
261.75,63.1,71.1,76.1,70.1,6.5
262.5,62.5,72.9,75.9,70.4,7.0
263.25,63.7,71.5,75.3,70.1,5.9
264.0,63.0,72.2,75.8,70.3,6.6
264.75,63.2,73.4,76.3,70.9,6.9
265.5,63.0,72.2,75.0,70.1,6.3
266.25,63.2,71.8,75.8,70.2,6.5
267.0,62.3,72.5,75.5,70.1,6.9
267.75,62.5,73.2,76.1,70.6,7.2
268.5,61.7,72.0,75.5,69.7,7.2
269.25,61.5,72.5,75.6,69.9,7.4
270.0,61.1,71.9,75.7,69.6,7.6
270.75,62.0,72.6,76.4,70.3,7.5
271.5,61.5,72.7,75.2,69.8,7.3
272.25,61.9,72.3,77.8,70.6,8.0
273.0,62.3,72.5,76.8,70.5,7.5
273.75,63.3,72.2,76.0,70.5,6.6
274.5,63.4,71.3,75.7,70.1,6.2
275.25,63.3,72.0,75.9,70.4,6.4
276.0,62.4,72.4,75.2,70.0,6.7
276.75,64.4,72.9,76.8,71.4,6.3
277.5,64.2,72.4,77.0,71.2,6.5
278.25,64.3,71.9,76.5,70.9,6.1
279.0,64.1,72.7,76.5,71.1,6.4
279.75,63.8,73.5,77.5,71.6,7.1
280.5,64.3,74.9,75.8,71.7,6.4
281.25,64.1,73.7,75.9,71.2,6.3
282.0,63.7,73.4,78.7,71.9,7.6
282.75,64.4,74.8,77.9,72.3,7.0
283.5,63.5,74.4,78.6,72.2,7.8
284.25,63.9,75.0,78.3,72.4,7.5
285.0,63.5,73.5,77.8,71.6,7.4
285.75,64.4,74.5,76.5,71.8,6.5
286.5,63.7,73.6,78.2,71.8,7.4
287.25,64.5,73.9,76.7,71.7,6.4
288.0,63.1,73.4,79.2,71.9,8.1
288.75,63.6,74.0,79.0,72.2,7.9
289.5,63.5,74.6,79.2,72.4,8.0
290.25,63.8,73.9,79.4,72.4,7.9
291.0,63.3,75.1,77.6,72.0,7.7
291.75,63.7,73.3,79.5,72.2,8.0
292.5,64.7,73.5,79.4,72.6,7.4
293.25,64.4,74.5,79.1,72.7,7.5
294.0,64.2,74.3,78.2,72.3,7.2
294.75,66.0,73.1,79.9,73.0,7.0
295.5,64.9,74.2,78.6,72.6,7.0
296.25,65.1,74.5,78.8,72.8,7.0
297.0,64.5,74.8,77.7,72.4,6.9
297.75,65.0,74.3,79.5,73.0,7.3
298.5,65.7,75.1,80.3,73.7,7.4
299.25,65.5,73.5,79.0,72.6,6.8
300.0,65.7,74.9,79.2,73.3,6.9
300.75,67.4,75.6,78.6,73.8,5.8
301.5,66.6,75.8,79.0,73.8,6.5
302.25,66.6,76.5,81.1,74.7,7.4
303.0,64.6,75.5,80.7,73.6,8.2
303.75,64.1,76.2,79.2,73.2,8.0
304.5,65.0,74.8,80.3,73.4,7.8
305.25,65.4,76.4,81.0,74.3,8.0
306.0,64.8,76.4,81.4,74.2,8.6
306.75,66.1,76.5,80.4,74.4,7.4
307.5,66.4,75.8,81.7,74.7,7.7
308.25,65.6,77.3,82.0,75.0,8.5
309.0,66.4,76.5,80.9,74.6,7.5
309.75,66.1,78.1,81.8,75.3,8.2
310.5,67.3,75.0,80.7,74.3,6.7
311.25,66.5,76.1,82.0,74.9,7.8
312.0,67.3,76.6,80.4,74.7,6.7
312.75,67.9,75.4,82.3,75.2,7.2
313.5,68.3,75.6,80.8,74.9,6.3
314.25,68.0,75.6,81.3,75.0,6.7
315.0,67.8,76.2,82.5,75.5,7.4
315.75,68.4,76.1,81.9,75.5,6.8
316.5,68.2,76.3,82.3,75.6,7.1
317.25,68.3,76.7,82.1,75.7,7.0
318.0,68.0,78.3,81.4,75.9,7.0
318.75,69.2,78.1,82.8,76.7,6.9
319.5,68.1,78.0,82.0,76.0,7.2
320.25,67.1,77.9,82.7,75.9,8.0
321.0,68.4,77.3,81.7,75.8,6.8
321.75,68.6,77.6,82.7,76.3,7.1
322.5,69.4,77.8,83.1,76.8,6.9
323.25,67.6,77.8,81.5,75.6,7.2
324.0,69.0,79.2,82.5,76.9,7.1
324.75,69.8,76.8,81.5,76.0,5.9
325.5,67.9,78.1,80.8,75.6,6.8
326.25,68.3,78.3,81.1,75.9,6.7
327.0,68.5,78.3,81.2,76.0,6.6
327.75,69.8,78.7,80.9,76.4,5.9
328.5,68.8,78.6,82.1,76.5,6.9
329.25,69.2,78.5,80.7,76.1,6.1
330.0,70.2,79.6,81.0,76.9,5.9
330.75,69.6,79.8,82.4,77.3,6.7
331.5,70.4,80.3,82.5,77.8,6.5
332.25,69.6,81.1,82.3,77.7,7.0
333.0,71.2,83.2,82.1,78.9,6.7
333.75,71.1,81.1,83.8,78.7,6.7
334.5,70.6,82.1,83.8,78.8,7.2
335.25,70.3,79.8,83.6,77.9,6.8
336.0,70.4,80.8,83.7,78.3,7.0
336.75,71.1,81.3,83.8,78.8,6.7
337.5,70.8,81.0,83.6,78.4,6.8
338.25,71.6,81.5,84.7,79.3,6.8
339.0,71.9,82.1,85.1,79.7,6.9
339.75,70.5,82.3,85.0,79.3,7.8
340.5,72.0,82.3,84.5,79.6,6.7
341.25,72.7,81.9,84.5,79.7,6.2
342.0,72.7,82.5,83.7,79.6,6.0
342.75,72.4,83.9,86.5,80.9,7.5
343.5,73.4,85.5,84.3,81.0,6.7
344.25,73.6,85.1,86.7,81.8,7.1
345.0,74.2,84.8,86.8,81.9,6.8
345.75,73.5,83.7,86.0,81.1,6.6
346.5,73.1,85.1,85.5,81.3,7.0
347.25,74.6,84.1,87.0,81.9,6.5
348.0,73.1,85.4,86.3,81.6,7.4
348.75,74.3,85.4,86.9,82.2,6.9
349.5,75.1,85.3,86.0,82.1,6.1
350.25,74.4,85.9,88.7,83.0,7.6
351.0,74.8,86.5,88.5,83.3,7.4
351.75,74.2,87.8,87.9,83.3,7.9
352.5,76.2,88.3,87.9,84.1,6.9
353.25,76.7,86.6,87.3,83.5,5.9
354.0,76.3,86.4,87.8,83.5,6.3
354.75,76.4,88.0,88.5,84.3,6.8
355.5,75.3,86.6,88.2,83.4,7.0
356.25,76.2,86.8,88.2,83.7,6.6
357.0,76.7,89.1,87.9,84.6,6.8
357.75,77.4,89.5,88.2,85.0,6.6
358.5,75.9,88.1,88.2,84.0,7.1
359.25,78.2,89.6,88.8,85.5,6.3
360.0,77.6,88.4,90.3,85.4,6.8
360.75,77.3,89.5,87.3,84.7,6.5
361.5,78.0,89.2,89.8,85.7,6.6
362.25,79.1,88.5,89.5,85.7,5.7
363.0,79.2,89.8,89.5,86.1,6.0
363.75,79.4,90.9,90.8,87.0,6.6
364.5,79.7,91.3,89.3,86.8,6.2
365.25,79.4,90.3,91.2,87.0,6.5
366.0,80.6,91.7,91.1,87.8,6.2
366.75,81.8,90.8,90.1,87.5,5.0
367.5,81.2,89.7,90.1,87.0,5.0
368.25,82.4,92.2,91.0,88.5,5.3
369.0,82.3,92.7,89.3,88.1,5.3
369.75,82.3,91.2,90.5,88.0,5.0
370.5,82.1,94.3,91.6,89.3,6.4
371.25,84.2,93.1,92.2,89.8,4.9
372.0,82.0,92.5,91.3,88.6,5.7
372.75,82.5,93.4,92.9,89.6,6.1
373.5,83.3,92.2,92.5,89.3,5.3
374.25,82.4,91.6,93.3,89.1,5.9
375.0,84.8,93.6,93.7,90.7,5.1
375.75,82.9,93.6,92.3,89.6,5.8
376.5,84.1,91.7,94.0,89.9,5.2
377.25,83.6,92.5,94.8,90.3,5.9
378.0,86.0,92.7,94.0,90.9,4.3
378.75,85.2,91.9,94.5,90.5,4.8
379.5,85.6,92.9,94.9,91.2,4.9
380.25,85.3,92.8,95.1,91.1,5.1
381.0,85.8,93.5,93.9,91.1,4.6
381.75,85.8,94.4,94.0,91.4,4.8
382.5,85.4,91.7,95.3,90.8,5.0
383.25,86.5,94.5,94.3,91.7,4.5
384.0,87.0,94.5,94.9,92.1,4.5
384.75,87.7,96.1,93.8,92.5,4.3
385.5,87.7,95.8,95.7,93.0,4.7
386.25,88.6,96.4,94.5,93.2,4.1
387.0,88.2,95.5,94.0,92.6,3.9
387.75,88.6,97.1,93.1,92.9,4.3
388.5,87.3,95.9,92.7,92.0,4.3
389.25,87.2,95.2,93.8,92.1,4.3
390.0,88.0,96.7,95.2,93.3,4.7
390.75,88.5,96.5,95.7,93.5,4.4
391.5,87.5,98.8,95.4,93.9,5.8
392.25,88.7,98.0,95.8,94.2,4.8
393.0,89.8,98.8,95.1,94.6,4.5
393.75,89.1,98.9,96.5,94.8,5.1
394.5,90.3,99.9,97.9,96.0,5.1
395.25,89.4,101.2,97.9,96.2,6.1
396.0,89.7,99.5,97.5,95.6,5.2
396.75,90.2,101.3,96.3,95.9,5.5
397.5,91.0,100.6,99.0,96.9,5.1
398.25,91.4,100.6,99.9,97.3,5.1
399.0,93.7,102.0,99.2,98.3,4.2
399.75,91.1,102.0,99.1,97.4,5.6
400.5,92.1,102.1,99.5,97.9,5.2
401.25,91.3,103.2,102.0,98.9,6.5
402.0,92.0,103.4,98.5,98.0,5.7
402.75,93.4,104.3,101.1,99.6,5.6
403.5,93.2,102.8,99.9,98.6,4.9
404.25,91.0,102.8,100.9,98.3,6.3
405.0,93.0,106.6,100.1,99.9,6.8
405.75,95.0,106.8,100.0,100.6,5.9
406.5,94.4,105.3,101.3,100.3,5.5
407.25,95.6,104.8,102.0,100.8,4.7
408.0,94.5,106.5,101.6,100.9,6.1
408.75,95.9,105.8,101.4,101.0,5.0
409.5,95.4,107.0,101.2,101.2,5.8
410.25,98.0,106.9,102.3,102.4,4.4
411.0,96.4,108.1,102.4,102.3,5.8
411.75,97.2,107.6,102.7,102.5,5.2
412.5,95.7,108.7,104.2,102.9,6.6
413.25,97.8,109.2,104.9,104.0,5.7
414.0,97.7,109.0,104.1,103.6,5.7
414.75,97.1,110.9,103.2,103.7,6.9
415.5,98.1,111.0,104.3,104.4,6.4
416.25,99.8,112.4,106.0,106.1,6.3
417.0,98.7,111.6,104.5,104.9,6.5
417.75,100.3,114.0,105.5,106.6,6.9
418.5,102.3,112.2,105.2,106.6,5.1
419.25,100.9,115.3,105.4,107.2,7.4
420.0,100.7,113.6,106.1,106.8,6.5
420.75,100.5,113.3,104.9,106.2,6.5
421.5,101.6,113.8,106.7,107.4,6.2
422.25,103.1,116.7,105.1,108.3,7.3
423.0,103.8,116.0,106.9,108.9,6.4
423.75,103.3,115.8,109.0,109.4,6.2
424.5,102.7,117.8,108.3,109.6,7.6
425.25,103.5,117.9,107.2,109.5,7.5
426.0,105.1,117.0,110.6,110.9,6.0
426.75,103.2,118.9,110.3,110.8,7.9
427.5,102.6,119.3,110.2,110.7,8.3
428.25,104.6,120.2,108.9,111.2,8.1
429.0,105.8,121.0,109.4,112.1,7.9
429.75,106.2,121.4,110.4,112.7,7.8
430.5,106.7,119.7,111.1,112.5,6.6
431.25,107.9,122.9,111.4,114.1,7.8
432.0,106.0,121.7,111.0,112.9,8.0
432.75,108.0,121.7,113.8,114.5,6.9
433.5,110.6,123.0,114.6,116.1,6.3
434.25,111.9,123.4,114.3,116.5,6.1
435.0,110.3,123.0,113.9,115.8,6.5
435.75,113.5,127.6,115.0,118.7,7.7
436.5,112.5,126.7,114.2,117.8,7.7
437.25,113.0,125.3,115.4,117.9,6.5
438.0,114.5,126.5,117.7,119.6,6.2
438.75,114.5,126.7,116.9,119.4,6.5
439.5,114.5,126.0,117.7,119.4,5.9
440.25,114.4,129.2,117.5,120.3,7.8
441.0,116.1,129.4,117.6,121.0,7.3
441.75,115.2,128.5,117.8,120.5,7.0
442.5,116.6,130.5,119.6,122.2,7.3
443.25,117.7,131.2,118.2,122.3,7.7
444.0,118.9,132.5,120.0,123.8,7.6
444.75,117.3,130.7,120.1,122.7,7.1
445.5,118.0,133.2,120.1,123.8,8.3
446.25,120.5,130.9,120.5,124.0,6.0
447.0,119.4,133.2,120.2,124.3,7.8
447.75,120.3,132.8,121.1,124.7,7.0
448.5,121.9,133.7,122.0,125.9,6.8
449.25,121.7,134.3,119.8,125.3,7.9
450.0,124.0,133.2,123.6,126.9,5.4
450.75,125.5,133.2,122.7,127.1,5.5
451.5,125.1,134.1,125.6,128.3,5.0
452.25,124.1,134.4,123.2,127.2,6.3
453.0,127.7,135.5,126.7,130.0,4.8
453.75,126.9,134.8,124.5,128.7,5.4
454.5,127.4,136.3,126.6,130.1,5.4
455.25,126.8,136.5,126.4,129.9,5.7
456.0,130.0,138.0,126.2,131.4,6.0
456.75,128.5,138.6,127.5,131.5,6.2
457.5,130.0,140.6,126.7,132.4,7.3
458.25,130.0,142.1,129.5,133.8,7.1
459.0,131.9,141.6,131.2,134.9,5.8
459.75,131.9,143.7,129.7,135.1,7.6
460.5,132.4,145.0,130.4,135.9,7.9
461.25,132.0,145.0,130.2,135.7,8.1
462.0,132.5,146.0,132.0,136.8,8.0
462.75,133.9,148.3,131.8,138.0,9.0
463.5,132.3,146.0,134.0,137.4,7.5
464.25,134.6,148.0,130.9,137.8,9.0
465.0,133.7,150.6,133.8,139.4,9.7
465.75,134.8,152.1,132.9,139.9,10.6
466.5,135.8,151.1,134.0,140.3,9.4
467.25,135.6,151.0,134.3,140.3,9.3
468.0,136.6,154.0,133.5,141.4,11.0
468.75,139.2,152.6,134.6,142.2,9.4
469.5,135.9,153.4,138.1,142.4,9.6
470.25,138.4,152.4,136.4,142.4,8.7
471.0,136.1,152.5,138.2,142.3,9.0
471.75,137.9,155.1,138.2,143.8,9.9
472.5,140.1,153.8,138.8,144.2,8.3
473.25,139.9,155.9,140.2,145.4,9.2
474.0,140.5,156.5,141.8,146.3,8.9
474.75,136.7,156.7,141.4,144.9,10.4
475.5,143.2,157.3,141.1,147.2,8.8
476.25,138.4,158.4,143.6,146.8,10.4
477.0,143.8,156.0,142.6,147.5,7.4
477.75,142.3,155.9,146.2,148.1,7.0
478.5,145.0,159.6,142.3,149.0,9.3
479.25,147.5,157.5,145.6,150.2,6.4
480.0,146.2,158.0,145.6,149.9,7.0
480.75,144.8,159.6,145.5,150.0,8.4
481.5,146.0,155.9,145.7,149.2,5.8
482.25,148.0,161.3,144.6,151.3,8.8
483.0,148.9,164.0,148.4,153.8,8.9
483.75,148.1,166.5,148.2,154.3,10.6
484.5,145.3,163.4,146.7,151.8,10.0
485.25,146.4,162.2,152.2,153.6,8.0
486.0,149.2,163.0,148.8,153.7,8.1
486.75,149.7,162.0,148.0,153.2,7.7
487.5,150.2,164.0,149.2,154.5,8.3
488.25,148.0,165.9,150.8,154.9,9.7
489.0,149.5,162.7,151.6,154.6,7.1
489.75,149.4,164.3,151.2,155.0,8.2
490.5,148.9,164.7,154.3,156.0,8.1
491.25,149.2,165.3,152.3,155.6,8.5
492.0,147.9,164.1,153.3,155.1,8.2
492.75,148.9,166.3,158.6,158.0,8.7
493.5,149.5,164.8,153.0,155.7,8.0
494.25,149.2,169.6,153.3,157.4,10.8
495.0,151.0,165.0,154.7,156.9,7.2
495.75,147.8,169.9,158.6,158.8,11.1
496.5,148.9,165.7,153.7,156.1,8.7
497.25,150.0,168.4,156.9,158.4,9.3
498.0,150.4,168.7,158.7,159.3,9.2
498.75,151.4,166.7,157.1,158.4,7.7
499.5,146.3,165.7,157.5,156.5,9.8
500.25,147.5,168.7,155.8,157.3,10.7
501.0,148.6,164.6,157.3,156.9,8.0
501.75,148.1,167.9,159.4,158.4,9.9
502.5,147.7,166.1,157.7,157.2,9.2
503.25,145.0,162.7,160.3,156.0,9.6
504.0,145.4,164.5,160.0,156.6,10.0
504.75,148.1,169.4,160.8,159.4,10.7
505.5,146.4,167.9,158.8,157.7,10.8
506.25,145.8,165.0,161.3,157.3,10.2
507.0,145.0,164.6,163.9,157.8,11.1
507.75,148.3,168.0,159.0,158.4,9.9
508.5,146.1,163.9,161.2,157.1,9.6
509.25,148.9,164.7,160.1,157.9,8.2
510.0,145.1,165.5,160.9,157.2,10.7
510.75,143.5,167.4,163.2,158.0,12.7
511.5,143.4,163.0,160.0,155.5,10.6
512.25,144.9,166.9,161.0,157.6,11.4
513.0,146.3,167.7,158.4,157.4,10.7
513.75,144.3,169.3,161.3,158.3,12.8
514.5,145.0,167.0,162.0,158.0,11.5
515.25,144.2,164.4,163.7,157.4,11.4
516.0,141.5,166.5,164.4,157.4,13.8
516.75,144.0,166.3,161.8,157.4,11.8
517.5,144.5,166.1,160.7,157.1,11.2
518.25,144.5,161.3,158.3,154.7,8.9
519.0,144.8,163.2,160.7,156.2,10.0
519.75,142.2,165.2,161.4,156.2,12.3
520.5,143.6,163.9,163.3,156.9,11.5
521.25,146.8,165.4,163.3,158.5,10.2
522.0,145.4,163.4,159.7,156.2,9.5
522.75,145.2,164.3,160.6,156.7,10.1
523.5,142.6,164.3,164.5,157.1,12.6
524.25,142.7,169.1,162.5,158.1,13.7
525.0,141.1,163.6,162.6,155.8,12.7
525.75,142.7,163.4,160.0,155.4,11.1
526.5,141.7,165.4,163.5,156.8,13.2
527.25,141.7,165.1,162.1,156.3,12.7
528.0,141.2,162.0,161.7,155.0,11.9
528.75,140.0,162.8,162.2,155.0,13.0
529.5,142.4,161.1,160.0,154.5,10.5
530.25,139.6,162.9,161.1,154.5,13.0
531.0,139.9,160.2,162.7,154.3,12.5
531.75,137.4,162.1,159.5,153.0,13.6
532.5,139.6,162.5,157.9,153.3,12.2
533.25,137.9,164.3,160.4,154.2,14.3
534.0,140.6,160.0,159.2,153.2,11.0
534.75,137.0,160.7,159.0,152.3,13.2
535.5,139.2,161.1,157.6,152.6,11.7
536.25,138.0,162.1,159.0,153.1,13.1
537.0,136.4,159.3,159.6,151.8,13.3
537.75,141.3,157.5,158.6,152.4,9.7
538.5,138.1,162.8,159.0,153.3,13.3
539.25,137.3,158.1,160.0,151.8,12.6
540.0,136.5,155.4,157.4,149.8,11.5
540.75,136.4,157.3,157.9,150.5,12.3
541.5,136.7,158.2,154.8,149.9,11.6
542.25,137.4,159.8,160.4,152.6,13.1
543.0,134.8,156.1,158.3,149.7,13.0
543.75,135.1,157.3,156.1,149.5,12.5
544.5,135.7,155.1,158.3,149.7,12.2
545.25,133.3,157.7,156.6,149.2,13.8
546.0,137.4,156.1,156.7,150.0,10.9
546.75,134.2,157.3,156.8,149.5,13.2
547.5,135.4,157.6,155.4,149.5,12.2
548.25,135.5,151.7,156.1,147.8,10.8
549.0,133.0,154.5,156.6,148.0,13.1
549.75,133.3,152.4,156.4,147.4,12.3
550.5,132.7,153.7,153.7,146.7,12.1
551.25,130.5,149.2,154.9,144.9,12.7
552.0,132.4,152.2,152.5,145.7,11.5
552.75,132.4,150.3,152.6,145.1,11.0
553.5,133.0,147.9,151.2,144.0,9.7
554.25,131.7,148.9,151.2,143.9,10.7
555.0,132.0,146.1,150.7,142.9,9.7
555.75,132.1,146.3,151.8,143.4,10.2
556.5,129.9,145.1,152.1,142.4,11.4
557.25,130.1,140.9,154.7,141.9,12.3
558.0,129.6,143.6,148.3,140.5,9.7
558.75,128.3,143.0,148.1,139.8,10.3
559.5,127.7,142.7,149.8,140.0,11.3
560.25,129.0,141.4,150.2,140.2,10.6
561.0,126.2,140.2,149.9,138.8,11.9
561.75,126.0,141.7,147.8,138.5,11.3
562.5,124.4,137.9,148.7,137.0,12.2
563.25,122.7,139.8,147.1,136.5,12.5
564.0,123.7,141.5,148.8,138.0,12.9
564.75,123.3,139.3,146.4,136.3,11.9
565.5,121.6,137.9,148.1,135.9,13.4
566.25,122.8,137.5,147.6,135.9,12.5
567.0,122.0,136.6,144.8,134.5,11.5
567.75,121.6,135.1,147.0,134.6,12.7
568.5,121.5,134.5,146.5,134.2,12.5
569.25,122.5,133.4,145.8,133.9,11.7
570.0,121.1,132.8,143.8,132.6,11.4
570.75,118.4,129.9,145.0,131.1,13.3
571.5,120.1,130.0,141.3,130.5,10.6
572.25,120.7,130.3,144.4,131.8,12.0
573.0,117.7,130.3,145.4,131.1,13.8
573.75,118.0,128.9,145.2,130.7,13.7
574.5,117.4,126.8,142.5,128.9,12.7
575.25,114.8,128.7,142.1,128.5,13.6
576.0,116.0,125.8,139.8,127.2,11.9
576.75,115.6,124.5,143.0,127.7,14.0
577.5,114.5,126.4,142.6,127.8,14.1
578.25,115.7,122.7,143.8,127.4,14.6
579.0,113.8,124.0,140.5,126.1,13.5
579.75,112.8,120.5,141.9,125.1,15.1
580.5,113.1,122.6,140.4,125.4,13.8
581.25,111.5,122.1,141.8,125.1,15.4
582.0,109.8,117.5,139.5,122.3,15.4
582.75,109.5,120.7,137.7,122.7,14.2
583.5,107.9,116.5,137.1,120.5,15.0
584.25,107.8,116.9,137.4,120.7,15.1
585.0,107.8,116.1,134.8,119.6,13.8
585.75,107.1,114.1,135.7,119.0,14.9
586.5,106.2,113.5,134.5,118.1,14.7
587.25,106.8,113.8,135.1,118.6,14.8
588.0,105.8,113.6,132.6,117.3,13.8
588.75,104.3,113.0,133.1,116.8,14.8
589.5,102.5,111.7,133.0,115.7,15.6
590.25,102.9,111.2,133.8,116.0,16.0
591.0,100.0,108.5,130.9,113.1,16.0
591.75,100.8,108.9,132.7,114.1,16.6
592.5,100.6,108.8,131.3,113.6,15.9
593.25,98.9,108.0,129.8,112.2,15.9
594.0,97.8,106.1,129.0,111.0,16.2
594.75,98.2,107.1,127.0,110.7,14.8
595.5,97.8,105.6,127.4,110.3,15.3
596.25,96.2,104.4,127.4,109.4,16.2
597.0,97.0,103.8,126.4,109.0,15.4
597.75,94.2,103.1,126.8,108.0,16.8
598.5,96.9,101.7,124.2,107.6,14.6
599.25,93.1,99.2,125.3,105.8,17.1
600.0,91.5,99.1,122.9,104.5,16.4
600.75,90.5,100.3,123.3,104.7,16.8
601.5,90.4,96.7,122.5,103.2,17.0
602.25,89.9,98.1,119.9,102.6,15.5
603.0,88.5,94.8,122.3,101.9,17.9
603.75,88.7,96.5,118.1,101.1,15.2
604.5,86.4,94.0,116.5,99.0,15.6
605.25,87.5,93.3,115.8,98.9,14.9
606.0,85.8,92.6,116.6,98.3,16.2
606.75,86.0,92.4,114.0,97.5,14.7
607.5,84.8,91.1,114.9,96.9,15.8
608.25,83.4,88.3,113.4,95.0,16.1
609.0,84.2,88.2,112.4,94.9,15.3
609.75,84.6,88.2,112.9,95.2,15.4
610.5,83.2,86.8,110.7,93.5,14.9
611.25,82.9,85.5,110.0,92.8,14.9
612.0,82.3,84.8,107.6,91.5,13.9
612.75,81.1,84.2,107.0,90.8,14.1
613.5,80.3,83.3,108.0,90.5,15.2
614.25,80.6,83.3,107.4,90.5,14.8
615.0,81.3,80.9,106.5,89.5,14.7
615.75,79.7,80.7,105.2,88.5,14.4
616.5,81.3,80.1,105.0,88.8,14.0
617.25,78.4,79.7,105.7,88.0,15.4
618.0,79.6,79.0,103.6,87.4,14.0
618.75,77.1,78.6,103.1,86.2,14.6
619.5,78.2,77.6,103.9,86.6,15.0
620.25,76.6,78.7,101.1,85.5,13.5
621.0,76.6,76.7,101.7,85.0,14.4
621.75,76.1,76.0,99.8,84.0,13.7
622.5,76.2,75.1,99.3,83.5,13.7
623.25,75.4,74.9,96.9,82.4,12.6
624.0,75.8,74.0,97.9,82.6,13.3
624.75,74.1,73.4,97.2,81.6,13.6
625.5,74.3,73.2,94.1,80.5,11.8
626.25,74.2,72.3,94.6,80.4,12.4
627.0,74.1,73.0,93.5,80.2,11.5
627.75,72.6,71.4,93.6,79.2,12.5
628.5,72.1,70.3,92.6,78.3,12.4
629.25,72.7,69.8,92.7,78.4,12.5
630.0,71.9,70.6,89.7,77.4,10.7
630.75,71.8,70.5,90.5,77.6,11.2
631.5,72.2,68.6,87.9,76.2,10.3
632.25,71.7,68.0,87.6,75.8,10.4
633.0,70.4,66.2,86.4,74.3,10.7
633.75,71.0,67.8,86.4,75.0,10.0
634.5,70.4,66.8,84.5,73.9,9.4
635.25,69.3,66.9,83.2,73.1,8.8
636.0,68.6,66.9,83.9,73.1,9.4
636.75,68.1,64.7,84.0,72.3,10.3
637.5,68.7,65.5,83.9,72.7,9.8
638.25,69.0,63.5,81.9,71.4,9.4
639.0,67.7,63.8,82.1,71.2,9.6
639.75,67.5,63.3,81.3,70.7,9.4
640.5,67.6,63.1,78.8,69.8,8.1
641.25,66.7,62.6,81.7,70.3,10.1
642.0,65.6,60.6,80.8,69.0,10.5
642.75,64.7,60.6,80.7,68.7,10.6
643.5,65.8,60.1,78.8,68.3,9.6
644.25,65.0,58.6,79.2,67.6,10.6
645.0,64.8,57.9,79.8,67.5,11.2
645.75,64.9,57.3,78.0,66.7,10.5
646.5,63.7,57.1,77.1,66.0,10.2
647.25,63.7,56.0,77.2,65.6,10.7
648.0,62.7,56.6,75.8,65.1,9.8
648.75,63.6,54.8,75.9,64.8,10.6
649.5,62.9,54.0,74.7,63.9,10.4
650.25,61.1,53.9,75.4,63.5,10.9
651.0,60.8,54.5,75.5,63.6,10.8
651.75,61.1,53.1,75.9,63.4,11.5
652.5,60.7,52.9,73.5,62.4,10.4
653.25,60.3,51.8,73.3,61.8,10.8
654.0,60.4,51.0,72.7,61.4,10.9
654.75,60.7,50.7,72.4,61.2,10.9
655.5,60.0,50.0,71.8,60.6,10.9
656.25,59.5,49.8,72.5,60.6,11.4
657.0,58.8,49.6,72.2,60.2,11.3
657.75,59.1,48.7,71.1,59.6,11.2
658.5,58.6,47.8,70.0,58.8,11.1
659.25,58.7,47.4,69.3,58.5,10.9
660.0,59.1,47.4,69.7,58.7,11.1
660.75,57.9,46.9,69.0,57.9,11.0
661.5,58.2,46.3,69.8,58.1,11.7
662.25,57.9,47.0,68.3,57.7,10.7
663.0,57.8,46.2,68.4,57.5,11.1
663.75,58.4,46.2,68.0,57.5,10.9
664.5,58.3,45.5,66.6,56.8,10.6
665.25,58.1,45.2,66.8,56.7,10.8
666.0,58.3,44.6,65.9,56.3,10.8
666.75,57.1,44.6,65.9,55.9,10.7
667.5,56.7,44.4,65.6,55.6,10.6
668.25,55.8,43.5,65.3,54.9,10.9
669.0,55.8,43.3,64.7,54.6,10.8
669.75,54.2,43.6,64.1,54.0,10.3
670.5,54.5,42.9,64.0,53.8,10.6
671.25,53.7,42.8,64.4,53.6,10.8
672.0,53.3,42.0,63.0,52.8,10.5
672.75,52.8,41.9,63.9,52.9,11.0
673.5,53.5,41.6,63.1,52.7,10.8
674.25,53.5,41.9,62.5,52.6,10.3
675.0,53.6,41.2,61.9,52.2,10.4
675.75,53.3,41.6,61.6,52.1,10.0
676.5,52.3,41.1,60.6,51.3,9.8
677.25,52.8,41.4,60.5,51.5,9.6
678.0,52.8,41.1,59.8,51.2,9.4
678.75,52.6,41.8,60.0,51.5,9.2
679.5,52.1,40.2,60.1,50.8,10.0
680.25,52.2,40.4,60.4,51.0,10.1
681.0,52.0,40.1,59.5,50.6,9.8
681.75,53.0,39.8,59.5,50.8,10.1
682.5,51.8,39.2,59.2,50.1,10.1
683.25,51.5,38.5,57.7,49.2,9.8
684.0,51.5,,57.2,54.4,4.0
684.75,51.7,,57.3,54.5,3.9
685.5,50.4,,57.0,53.7,4.7
686.25,50.7,,56.7,53.7,4.2
687.0,50.6,,56.6,53.6,4.2
687.75,50.3,,56.5,53.4,4.5
688.5,49.2,,55.7,52.5,4.6
689.25,49.7,,55.8,52.7,4.3
690.0,48.8,,55.5,52.1,4.7
690.75,49.4,,55.1,52.3,4.0
691.5,49.2,,55.3,52.3,4.3
692.25,48.6,,53.7,51.1,3.6
693.0,48.5,,53.8,51.1,3.7
693.75,48.7,,53.3,51.0,3.3
694.5,48.9,,53.1,51.0,3.0
695.25,48.7,,52.3,50.5,2.6
696.0,48.1,,52.2,50.1,2.9
696.75,48.4,,51.9,50.1,2.5
697.5,47.5,,52.0,49.8,3.1
698.25,47.8,,50.9,49.4,2.2
699.0,48.0,,51.6,49.8,2.5
699.75,47.4,,51.5,49.4,2.9
700.5,46.9,,50.8,48.9,2.7
701.25,46.9,,50.1,48.5,2.2
702.0,46.6,,49.9,48.2,2.3
702.75,46.1,,49.6,47.9,2.5
703.5,46.4,,49.7,48.1,2.4
704.25,46.3,,50.2,48.2,2.7
705.0,46.7,,49.1,47.9,1.7
705.75,45.6,,50.1,47.8,3.2
706.5,46.1,,49.3,47.7,2.3
707.25,46.3,,49.1,47.7,2.0
708.0,45.8,,49.4,47.6,2.5
708.75,45.9,,48.9,47.4,2.2
709.5,46.0,,48.8,47.4,2.0
710.25,46.4,,48.5,47.5,1.5
711.0,45.5,,48.7,47.1,2.3
711.75,45.3,,47.5,46.4,1.6
712.5,45.2,,48.2,46.7,2.2
713.25,44.8,,47.9,46.4,2.2
714.0,44.4,,47.4,45.9,2.1
714.75,44.2,,48.2,46.2,2.8
715.5,43.8,,47.5,45.6,2.6
716.25,44.0,,47.2,45.6,2.3
717.0,43.3,,47.1,45.2,2.7
717.75,42.7,,47.0,44.8,3.1
718.5,42.0,,47.6,44.8,3.9
719.25,42.0,,46.9,44.5,3.5
720.0,41.7,,46.3,44.0,3.2
720.75,42.1,,46.3,44.2,3.0
721.5,41.4,,45.8,43.6,3.1
722.25,41.5,,45.1,43.3,2.5
723.0,41.1,,44.8,43.0,2.6
723.75,41.4,,44.7,43.1,2.3
724.5,41.7,,43.6,42.7,1.3
725.25,41.4,,43.9,42.7,1.8
726.0,42.3,,43.1,42.7,0.6
726.75,41.7,,42.8,42.2,0.8
727.5,42.0,,42.8,42.4,0.5
728.25,41.3,,42.1,41.7,0.6
729.0,41.5,,41.5,41.5,0.0
729.75,41.5,,40.9,41.2,0.4
730.5,41.9,,40.2,41.1,1.2
731.25,41.6,,40.5,41.0,0.8
732.0,41.9,,41.0,41.4,0.6
732.75,41.9,,40.6,41.2,0.9
733.5,41.2,,39.9,40.6,0.9
734.25,40.8,,39.7,40.3,0.8
735.0,40.9,,39.0,39.9,1.3
735.75,41.8,,38.8,40.3,2.1
736.5,40.8,,39.3,40.0,1.1
737.25,40.9,,38.5,39.7,1.7
738.0,40.8,,38.4,39.6,1.7
738.75,40.1,,38.7,39.4,1.0
739.5,39.6,,38.6,39.1,0.7
740.25,39.7,,38.6,39.2,0.8
741.0,39.3,,38.0,38.7,0.9
741.75,39.9,,38.9,39.4,0.7
742.5,39.3,,38.7,39.0,0.5
743.25,39.7,,38.4,39.0,0.9
744.0,40.0,,38.0,39.0,1.4
744.75,40.0,,37.7,38.8,1.6
745.5,40.7,,37.6,39.1,2.2
746.25,39.7,,37.5,38.6,1.5
747.0,39.3,,37.3,38.3,1.5
747.75,38.9,,37.2,38.0,1.2
748.5,39.0,,36.5,37.8,1.8
749.25,39.2,,36.5,37.9,1.9
750.0,38.7,,36.2,37.4,1.8
750.75,38.4,,36.4,37.4,1.5
751.5,38.7,,36.5,37.6,1.5
752.25,37.8,,36.8,37.3,0.7
753.0,37.5,,36.8,37.2,0.5
753.75,38.2,,37.1,37.7,0.8
754.5,37.9,,,37.9,
755.25,37.2,,,37.2,
756.0,37.3,,,37.3,
756.75,37.3,,,37.3,
757.5,37.2,,,37.2,
758.25,36.6,,,36.6,
759.0,36.8,,,36.8,
759.75,36.6,,,36.6,
760.5,36.6,,,36.6,
761.25,37.2,,,37.2,
762.0,36.8,,,36.8,
762.75,36.6,,,36.6,
763.5,36.0,,,36.0,
764.25,36.7,,,36.7,
765.0,36.7,,,36.7,
765.75,36.3,,,36.3,
766.5,36.0,,,36.0,
767.25,35.8,,,35.8,
768.0,35.9,,,35.9,
768.75,35.1,,,35.1,
769.5,35.8,,,35.8,
770.25,35.4,,,35.4,
771.0,35.2,,,35.2,
771.75,35.2,,,35.2,
772.5,35.3,,,35.3,
773.25,35.2,,,35.2,
774.0,34.5,,,34.5,
774.75,34.1,,,34.1,
775.5,34.4,,,34.4,
776.25,33.8,,,33.8,
777.0,34.0,,,34.0,
777.75,34.5,,,34.5,
778.5,34.6,,,34.6,
779.25,34.6,,,34.6,
780.0,34.5,,,34.5,
780.75,35.3,,,35.3,
781.5,35.5,,,35.5,
782.25,35.4,,,35.4,
783.0,35.4,,,35.4,
783.75,35.1,,,35.1,
784.5,35.1,,,35.1,
785.25,34.2,,,34.2,
786.0,34.3,,,34.3,
786.75,34.0,,,34.0,
787.5,34.3,,,34.3,
788.25,33.6,,,33.6,
789.0,33.8,,,33.8,
789.75,33.8,,,33.8,
790.5,33.7,,,33.7,
791.25,33.2,,,33.2,
792.0,33.1,,,33.1,
792.75,33.5,,,33.5,
793.5,33.7,,,33.7,
794.25,33.8,,,33.8,
795.0,33.7,,,33.7,
795.75,33.7,,,33.7,
796.5,34.2,,,34.2,
797.25,33.7,,,33.7,
798.0,33.3,,,33.3,
798.75,33.5,,,33.5,
799.5,33.9,,,33.9,
800.25,33.9,,,33.9,
801.0,33.7,,,33.7,
801.75,33.9,,,33.9,
802.5,33.2,,,33.2,
803.25,33.1,,,33.1,
804.0,32.7,,,32.7,
804.75,32.8,,,32.8,
805.5,33.0,,,33.0,
806.25,32.5,,,32.5,
807.0,31.7,,,31.7,
807.75,32.4,,,32.4,
808.5,31.8,,,31.8,
809.25,31.6,,,31.6,
810.0,31.3,,,31.3,
810.75,31.2,,,31.2,
811.5,30.9,,,30.9,
812.0,31.3,,,31.3,