File: 01_Data/Pallet_Wood/Cone/Pallet_Wood_Cone_HF35Scan_180728_R2.csv
Names,Time,Stack TC,Smoke TC,Exh Press,Smoke Comp,Smoke Meas,CO Meter,CO2 Meter,O2 Meter,Sample Mass,Ext Coeff,Start Test,Flame Verif
Chan Gain,,500,500,1,1,1,1,1,1,1,1,1,1
Offset,,0,0,0.124825,0,0,0,0,0,0,0,0,0
Gain,,1,1,25.011,13.6595,14.2307,1,1,1,1.00094,1.03371,1,1
Units,sec,C,C,Pa,%,%,%,%,%,g,/m,,
Baseline,,41.2553,43.3704,165.809,99.3099,99.8578,0.007912978,0.068466,20.8786,-918.995,-0.0498575,,
7,1.5,39.284,40.0828,168.429,99.3758,99.6427,0.008088652,0.0699822,20.8732,47.1443,-0.0243193,0,0
14,3.25,38.9557,40.7929,161.796,99.3858,100.04,0.008190895,0.070843,20.8724,47.1944,-0.0595346,0,0
21,5,40.2016,41.3982,158.556,99.3716,99.7873,0.008257161,0.0710526,20.872,47.2745,-0.0378503,0,0
28,6.75,40.2757,41.6599,165.227,99.3737,99.6449,0.008242697,0.0707518,20.8722,47.2544,-0.0247073,0,0
35,8.5,40.144,41.963,164.254,99.357,100.179,0.008177242,0.0704176,20.8731,47.1844,-0.0747078,0,0
42,10.25,40.2116,42.0748,163.809,99.3549,100.146,0.008108817,0.0699315,20.8735,47.2144,-0.0718718,0,0
49,12,39.9556,42.5266,167.433,99.3641,99.8355,0.008080683,0.0695034,20.8747,47.1744,-0.04291492,0,0
56,13.75,40.1247,42.5385,165.379,99.3387,99.5276,0.008026341,0.06910491,20.875,47.1243,-0.0172266,0,0
63,15.5,41.2742,42.319,165.358,99.3362,99.4247,0.007955432,0.0689331,20.8749,47.1043,-0.008072305,0,0
70,17.25,40.9807,42.2804,163.228,99.3337,99.9063,0.007964352,0.0688041,20.8752,47.0743,-0.0521186,0,0
77,19,41.4463,42.5383,167.388,99.3266,99.5172,0.007993235,0.0687353,20.8752,47.1544,-0.0173799,0,0
84,20.75,41.2154,42.4417,169.558,99.3078,99.8116,0.008012174,0.0687825,20.8763,47.0943,-0.045882,0,0
91,22.5,41.3092,42.7001,167.316,99.3099,99.3322,0.008082953,0.0687937,20.8769,47.0843,-0.002029701,0,0
98,24.25,41.1722,42.6028,162.886,99.3216,99.4581,0.008156076,0.0687923,20.8772,47.0543,-0.012454,0,0
105,26,41.579,42.863,166.872,99.3262,99.0694,0.008176061,0.0686845,20.8774,47.0342,0.0234715,0,0
112,27.75,40.6375,43.4573,171.17,99.3103,99.1984,0.008165339,0.0685845,20.8764,47.0342,0.0102275,0,0
119,29.5,41.1403,43.851,167.505,99.3016,99.264,0.008126711,0.0685383,20.8766,47.0242,0.003435673,0,0
126,31.25,41.57,43.078,164.324,99.2878,99.6279,0.008055877,0.0685887,20.8771,46.9842,-0.0310047,0,0
133,33,40.7041,43.5497,167.582,99.297,98.867,0.007995739,0.0686381,20.8773,46.9341,0.0393495,0,0
140,34.75,40.9882,43.2863,166.002,99.3129,99.2223,0.007980396,0.0688138,20.8775,46.9241,0.00827194,0,0
147,36.5,41.5399,43.1836,168.166,99.3091,98.6421,0.008086487,0.0690488,20.878,46.9942,0.0611091,0,0
154,38.25,41.7598,43.4992,160.715,99.3166,98.6681,0.008243971,0.0691658,20.8782,46.9842,0.0593997,0,0
161,40,42.0081,43.5948,161.441,99.3174,98.5626,0.008330251,0.0692182,20.8781,46.9141,0.0691786,0,0
168,41.75,41.4191,44.0517,165.863,99.3254,98.752,0.008322979,0.0692974,20.8772,46.9442,0.0524984,0,0
175,43.5,41.697,43.534,167.279,99.327,98.0137,0.008294245,0.06945423,20.8764,46.9341,0.120697,0,0
182,45.25,42.131,43.9537,162.326,99.3462,97.8169,0.008329056,0.0696688,20.8756,46.9141,0.140666,0,0
189,47,41.8517,43.5118,161.537,99.3683,97.9781,0.008322457,0.0703113,20.8751,46.8541,0.127758,0,0
196,48.75,41.8917,43.3903,164.427,99.3921,97.5021,0.00828996,0.071724,20.874,46.8441,0.174084,0,0
203,50.5,41.911,43.833,168.123,99.4162,98.8853,0.0083474,0.0811033,20.8651,46.814,0.0485566,0,0
210,52.25,42.2924,45.0451,162.25,99.4137,99.7864,0.008536667,0.114687,20.8235,46.7039,-0.033931,0,1
217,54,43.2275,47.4389,159.76,99.4141,99.9467,0.00877089,0.160357,20.7764,46.8741,-0.0484431,0,1
224,55.75,44.314,49.074,156.561,99.4417,99.3118,0.009060014,0.200587,20.7398,46.5938,0.0118535,0,1
231,57.5,46.1363,50.3848,153.169,99.4462,98.9031,0.009261059,0.227478,20.7097,46.2935,0.0496607,0,0
238,59.25,46.9258,51.8645,155.451,99.4496,98.7841,0.009414999,0.247113,20.6847,46.1634,0.0608815,0,0
245,61,47.9472,53.838,152.308,99.4721,98.4375,0.009519514,0.261269,20.6675,46.0934,0.094802,0,0
252,62.75,48.6549,55.1182,157.483,99.4967,99.0208,0.009593418,0.272706,20.6559,45.9332,0.043475,0,0
259,64.5,48.8506,55.9944,156.532,99.5192,99.3825,0.009696204,0.279735,20.6475,45.7931,0.0124601,0,0
266,66.25,50.103,57.8586,153.333,99.548,99.2831,0.009804137,0.286092,20.6412,45.6429,0.0241583,0,0
273,68,50.7406,58.4871,150.412,99.565,98.1314,0.00991498,0.292527,20.6337,45.5428,0.131518,0,0
280,69.75,51.4017,59.872,155.913,99.5946,98.7446,0.0100595,0.295264,20.6301,45.3727,0.0777264,0,0
287,71.5,52.0584,60.7171,154.436,99.6172,98.6855,0.0101302,0.296693,20.6284,45.2125,0.0852017,0,0
294,73.25,52.6604,60.2114,156.768,99.6534,98.775,0.0100571,0.296493,20.6287,45.0824,0.0802863,0,0
301,75,52.9654,60.6449,153.656,99.673,97.8387,0.009976594,0.295777,20.6289,44.9223,0.168433,0,0
308,76.75,52.9233,61.6051,154.334,99.6922,98.6178,0.0100129,0.29551,20.629,44.8021,0.0982565,0,0
315,78.5,53.4193,61.445,162.736,99.74263,99.2006,0.0100783,0.295202,20.6291,44.5919,0.0494124,0,0
322,80.25,53.9264,62.329,158.747,99.776,99.1493,0.01009303,0.295146,20.6291,44.4518,0.0571292,0,0
329,82,53.7972,62.7459,153.593,99.7901,98.8419,0.0100552,0.296026,20.6291,44.2817,0.0865809,0,0
336,83.75,54.4611,63.0361,152.305,99.8172,99.6236,0.009982523,0.296098,20.6291,44.2216,0.0176109,0,0
343,85.5,54.015,63.1476,157.441,99.8635,98.8948,0.00991369,0.29426,20.6298,44.0715,0.0883858,0,0
350,87.25,54.2233,63.2195,153.78,99.8839,99.7421,0.009887732,0.291402,20.6335,43.9313,0.0128833,0,0
357,89,55.1281,63.2174,156.615,99.8873,99.4603,0.00993825,0.28983,20.636,43.8112,0.0388458,0,0
364,90.75,54.7469,63.6714,150.82,99.9127,98.5283,0.01004652,0.288727,20.6382,43.6511,0.126521,0,0
371,92.5,55.0227,63.4734,155.41,99.9323,99.1941,0.0101041,0.287637,20.6403,43.4909,0.0672346,0,0
378,94.25,54.8174,63.4344,156.67,99.9477,98.9821,0.0100639,0.285266,20.6429,43.3508,0.0880283,0,0
385,96,55.0105,62.9838,151.233,99.9548,98.7793,0.009986416,0.281869,20.6465,43.2006,0.107268,0,0
392,97.75,54.9636,62.9402,155.405,99.9636,99.8733,0.010011,0.277532,20.6496,43.0705,0.008193103,0,0
399,99.5,54.8964,62.8886,159.237,99.9773,100.187,0.0101391,0.275954,20.6526,42.9304,-0.0189829,0,0
406,101.25,54.8849,63.0672,155.351,100.004,99.8164,0.0102334,0.275196,20.6552,42.8103,0.0169884,0,0
413,103,55.4713,62.4544,158.233,100.013,99.33,0.0102954,0.273922,20.6569,42.6701,0.0621141,0,0
420,104.75,54.7541,62.9973,158.15,100.037,99.0451,0.010348,0.27099,20.6597,42.5,0.0903135,0,0
427,106.5,55.2345,62.4829,158.947,100.051,99.8186,0.0103397,0.269986,20.661,42.3999,0.0210993,0,0
434,108.25,55.0498,63.0857,152.404,100.072,99.9389,0.010281,0.269615,20.6614,42.2397,0.0120672,0,0
441,110,54.9134,62.3257,159.471,100.091,98.9378,0.0101403,0.268635,20.6606,42.1196,0.105049,0,0
448,111.75,55.4345,62.7818,158.005,100.105,99.7513,0.00996077,0.267019,20.6618,41.9695,0.0320883,0,0
455,113.5,54.726,62.5367,158.836,100.115,99.8616,0.009861954,0.26497,20.6643,41.8394,0.0229723,0,0
462,115.25,54.812,62.4903,155.89,100.136,100.307,0.009863908,0.262526,20.6675,41.6892,-0.01546962,0,0
469,117,54.9817,62.1583,160.759,100.162,99.4142,0.009901762,0.259783,20.6707,41.5691,0.0679835,0,0
476,118.75,55.3897,61.9717,159.965,100.168,99.9953,0.009943354,0.258068,20.6723,41.459,0.0156666,0,0
483,120.5,55.6758,62.0897,154.286,100.193,99.6435,0.009948141,0.257216,20.6734,41.2688,0.0498854,0,0
490,122.25,55.0882,62.9636,161.194,100.198,100.512,0.009937813,0.255873,20.6751,41.1187,-0.0283591,0,0
497,124,55.8301,62.3015,157.508,100.222,99.8811,0.009935915,0.254372,20.677,41.0386,0.0308958,0,0
504,125.75,55.7938,61.8982,157.595,100.236,100.721,0.009878411,0.252386,20.6792,40.9085,-0.0437507,0,0
511,127.5,55.106,62.3282,152.085,100.245,100.053,0.009793095,0.25056,20.6805,40.7683,0.0173337,0,0
518,129.25,55.0587,61.9531,152.437,100.262,99.9393,0.009711705,0.249096,20.6819,40.6382,0.0291979,0,0
525,131,54.9741,62.0924,154.876,100.282,100.554,0.00964665,0.247944,20.6823,40.5181,-0.024503,0,0
532,132.75,55.1751,61.8304,158.264,100.29,100.49,0.009701,0.247383,20.6826,40.428,-0.018105,0,0
539,134.5,55.3353,62.4631,156.688,100.315,99.4624,0.009897332,0.246696,20.6832,40.2979,0.0774273,0,0
546,136.25,55.3209,62.4323,156.419,100.337,99.2709,0.0101397,0.244985,20.6847,40.1578,0.0968268,0,0
553,138,54.5708,61.8641,158.936,100.338,101.056,0.0103494,0.243603,20.6854,40.0377,-0.0646505,0,0
560,139.75,55.2521,61.7076,152.642,100.354,100.091,0.0104341,0.243033,20.6871,39.8975,0.0238219,0,0
567,141.5,55.0172,61.8564,157.402,100.365,100.288,0.0103945,0.2426489,20.6881,39.7774,0.006994258,0,0
574,143.25,54.8075,61.7365,156.804,100.381,100.123,0.0102918,0.242429,20.6887,39.6773,0.0233206,0,0
581,145,55.2886,61.6854,153.781,100.394,100.494,0.010217,0.242506,20.6889,39.5372,-0.009039043,0,0
588,146.75,55.6388,62.468,159.777,100.402,100.672,0.0102056,0.242045,20.6891,39.4371,-0.0244146,0,0
595,148.5,55.8507,61.9713,163.665,100.43,99.723,0.0102251,0.240879,20.6901,39.2769,0.0640967,0,0
602,150.25,55.1849,61.7922,158.744,100.442,100.368,0.0102138,0.237463,20.6932,39.1468,0.006621612,0,0
609,152,55.2992,61.435,154.757,100.458,100.14,0.0101491,0.235182,20.6947,39.0067,0.0287486,0,0
616,153.75,55.8356,61.4661,160.586,100.48,101.018,0.0100594,0.236049,20.6943,38.8966,-0.0484235,0,0
623,155.5,55.962,61.5739,157.771,100.505,100.592,0.0100561,0.237124,20.694,38.7565,-0.007766671,0,0
630,157.25,55.2036,61.5244,156.326,100.535,100.175,0.0101114,0.237039,20.6941,38.6464,0.0325245,0,0
637,159,55.0579,61.3526,157.639,100.547,101.452,0.0101407,0.236072,20.695,38.5162,-0.0812653,0,0
644,160.75,55.235,61.6426,150.783,100.561,100.791,0.0102004,0.234612,20.6958,38.3961,-0.0207173,0,0
651,162.5,55.4073,61.541,159.074,100.567,101.222,0.0102377,0.232556,20.6976,38.286,-0.0588279,0,0
658,164.25,55.5296,61.2473,154.746,100.599,100.939,0.0101525,0.230488,20.6994,38.1959,-0.0306121,0,0
665,166,55.2331,61.2298,157.057,100.609,100.071,0.010085,0.229753,20.7011,38.0658,0.0486534,0,0
672,167.75,55.1144,61.1613,160.365,100.621,100.33,0.0100827,0.22864,20.7018,37.9757,0.026243,0,0
679,169.5,55.351,61.332,156.689,100.633,100.397,0.0100632,0.22804,20.7022,37.8756,0.0212524,0,0
686,171.25,55.9367,61.0418,159.38,100.653,101.106,0.0100353,0.227911,20.7036,37.6254,-0.0407333,0,0
693,173,54.9477,61.0705,153.698,100.662,100.734,0.0100405,0.22793,20.7043,37.5753,-0.006505297,0,0
700,174.75,55.5947,61.7003,156.206,100.676,101.197,0.010148,0.226512,20.7057,37.4452,-0.0468044,0,0
707,176.5,55.8078,60.7064,158.219,100.693,100.647,0.0102101,0.22504,20.7065,37.3151,0.004208223,0,0
714,178.25,55.2466,61.1292,153.514,100.702,100.193,0.0101744,0.224744,20.7069,37.225,0.0459382,0,0
721,180,55.27,60.7489,157.921,100.709,100.758,0.01015366,0.224302,20.7079,37.0749,-0.004415113,0,0
728,181.75,55.4759,60.2395,154.28,100.722,101.033,0.01015761,0.224138,20.7089,36.9548,-0.0279574,0,0
735,183.5,55.6947,60.4933,161.702,100.725,100.8,0.0101566,0.223156,20.7108,36.8246,-0.006739493,0,0
742,185.25,55.4821,60.2337,160.03,100.734,100.804,0.0101955,0.222146,20.7134,36.7245,-0.006226759,0,0
749,187,55.8266,60.3395,155.713,100.734,100.275,0.0102718,0.221253,20.7155,36.7045,0.0414426,0,0
756,188.75,55.5727,60.5805,160.691,100.742,101.055,0.0103209,0.220172,20.7166,36.6044,-0.0281433,0,0
763,190.5,55.4247,60.1464,154.32,100.757,100.96,0.0102772,0.219408,20.717,36.5043,-0.018255,0,0
770,192.25,55.8665,60.6673,157.973,100.756,101.23,0.0102339,0.218664,20.7177,36.3041,-0.04255924,0,0
777,194,54.8837,60.3045,154.639,100.761,101.14,0.01025057,0.217608,20.7188,36.134,-0.0340493,0,0
784,195.75,55.2743,61.0383,158.379,100.77,100.092,0.0103259,0.21747,20.7191,36.0339,0.0611789,0,0
791,197.5,55.7092,60.3817,159.176,100.767,100.733,0.0104079,0.217791,20.7183,35.9438,0.003068284,0,0
798,199.25,55.1416,60.6872,149.989,100.759,100.785,0.0104455,0.217424,20.7179,35.8237,-0.00233352,0,0
805,201,55.8855,60.1309,162.556,100.769,101.15,0.0104194,0.216943,20.7177,35.7136,-0.0341947,0,0
812,202.75,55.7943,60.1437,152.699,100.773,101.484,0.0103585,0.216214,20.7176,35.6635,-0.0637855,0,0
819,204.5,55.4427,59.9346,161.189,100.774,101.818,0.0103289,0.215658,20.7159,35.5534,-0.093387,0,0
826,206.25,55.723,60.1733,156.996,100.779,100.804,0.0103646,0.215502,20.7155,35.3933,-0.002250807,0,0
833,208,55.4575,60.4178,154.548,100.769,101.475,0.0103831,0.2147104,20.717,35.2832,-0.0633077,0,0
840,209.75,55.0964,60.2235,160.882,100.777,100.915,0.0104382,0.213588,20.718,35.1531,-0.0123956,0,0
847,211.5,55.5175,60.1188,154.029,100.777,100.878,0.0105251,0.213556,20.7176,35.053,-0.009040664,0,0
854,213.25,55.1488,59.9108,158.444,100.775,100.467,0.0105854,0.213393,20.7171,34.9429,0.0277755,0,0
861,215,55.318,60.0613,159.103,100.771,101.425,0.0106662,0.212662,20.7165,34.7527,-0.0586952,0,0
868,216.75,54.6849,59.787,158.224,100.767,101.177,0.01071831,0.21186,20.7172,34.7327,-0.036797,0,0
875,218.5,55.1666,59.478,154.288,100.766,101.64,0.0106144,0.212038,20.7177,34.6025,-0.0783062,0,0
882,220.25,55.3001,59.9534,159.372,100.776,101.404,0.010445,0.212756,20.7179,34.4624,-0.0563411,0,0
889,222,54.9469,60.0371,158.577,100.77,101.381,0.0103836,0.212451,20.718,34.3723,-0.0548076,0,0
896,223.75,55.652,59.7737,152.956,100.778,100.969,0.01042078,0.210718,20.718,34.2122,-0.0172358,0,0
903,225.5,54.7614,59.7955,161.181,100.781,101.014,0.0104913,0.209971,20.7181,34.0921,-0.0209144,0,0
910,227.25,54.8368,59.8945,157.367,100.772,101.525,0.0105967,0.210818,20.7195,34.042,-0.0675071,0,0
917,229,55.0206,60.3072,155.268,100.768,101.37,0.0106761,0.21143,20.7206,33.9219,-0.0539871,0,0
924,230.75,55.4716,60.046,154.056,100.751,100.773,0.0107243,0.211096,20.7211,33.8118,-0.001991319,0,0
931,232.5,55.2697,60.378,160.34,100.768,100.65,0.0107502,0.21049,20.7221,33.6717,0.0106119,0,0
938,234.25,54.7071,59.7415,154.782,100.757,101.255,0.0107429,0.209374,20.7236,33.6016,-0.044699,0,0
945,236,55.1636,59.9991,158.785,100.766,100.869,0.0106802,0.208905,20.7249,33.4114,-0.009234889,0,0
952,237.75,55.1198,60.0141,157.837,100.76,100.523,0.0105801,0.208119,20.7256,33.2913,0.0213322,0,0
959,239.5,55.2832,60.534,158.246,100.765,101.237,0.0105035,0.207991,20.7259,33.2112,-0.04239253,0,0
966,241.25,55.5037,59.9157,156.118,100.76,101.917,0.01050009,0.207893,20.7266,33.0911,-0.103477,0,0
973,243,54.8296,60.0871,155.27,100.763,101.617,0.0106048,0.20678,20.7286,32.981,-0.0765515,0,0
980,244.75,54.78,59.7525,152.399,100.76,101.083,0.0106902,0.205522,20.7297,32.921,-0.0289853,0,0
987,246.5,55.3728,60.4911,159.001,100.744,101.237,0.01068859,0.204858,20.7303,32.8209,-0.0441917,0,0
994,248.25,55.4853,60.3524,155.131,100.754,100.498,0.0105867,0.20432,20.7305,32.6807,0.0231179,0,0
1001,250,55.7399,59.7276,156.041,100.755,100.711,0.0104478,0.204233,20.7303,32.5706,0.00389705,0,0
1008,251.75,55.6775,59.8846,161.857,100.746,100.917,0.0103164,0.204526,20.7301,32.4005,-0.01544255,0,0
1015,253.5,54.7935,59.844,157.242,100.739,100.844,0.0102404,0.204283,20.7299,32.3004,-0.00940856,0,0
1022,255.25,54.7839,59.929,158.464,100.739,101.231,0.0101888,0.20408,20.7299,32.2103,-0.04413629,0,0
1029,257,55.1494,59.6321,154.083,100.736,101.339,0.0101542,0.204393,20.7298,32.1302,-0.0541926,0,0
1036,258.75,55.0645,59.9951,154.556,100.743,101.385,0.010109,0.204252,20.7305,32.0001,-0.0575202,0,0
1043,260.5,55.1402,59.2624,159.818,100.723,101.599,0.010121,0.203619,20.7302,31.89,-0.0784883,0,0
1050,262.25,54.789,59.7585,157.637,100.709,101.289,0.01023747,0.203621,20.73,31.6298,-0.052086,0,0
1057,264,55.3151,59.2819,158.392,100.718,100.912,0.0104218,0.203893,20.7299,31.6298,-0.0174118,0,0
1064,265.75,55.6599,59.5758,158.715,100.717,100.987,0.0106471,0.203624,20.7305,31.5597,-0.0242754,0,0
1071,267.5,54.8693,59.8729,162.593,100.709,100.719,0.0108163,0.20271,20.7313,31.3895,-0.000895067,0,0
1078,269.25,55.2544,59.4166,157.63,100.702,100.307,0.0108991,0.201957,20.7317,31.2394,0.0356077,0,0
1085,271,54.9366,59.8393,161.58,100.709,100.595,0.010933,0.202475,20.7319,31.1393,0.0102545,0,0
1092,272.75,54.8858,59.5214,158.983,100.698,101.04,0.0109155,0.202614,20.732,30.9791,-0.0307569,0,0
1099,274.5,54.5966,59.5189,156.915,100.688,100.815,0.0107758,0.201846,20.7319,30.9391,-0.0114853,0,0
1106,276.25,55.303,59.1977,157.892,100.667,101.22,0.0105745,0.201173,20.7318,30.859,-0.0496179,0,0
1113,278,55.5566,59.1768,157.736,100.677,101.081,0.01044134,0.201133,20.7331,30.7589,-0.0363737,0,0
1120,279.75,54.7628,58.9662,160.376,100.671,101.37,0.010429,0.20028,20.7327,30.6989,-0.0627689,0,0
1127,281.5,54.9344,58.6004,158.039,100.656,101.237,0.0104769,0.200086,20.7322,30.5788,-0.0521877,0,0
1134,283.25,54.9116,58.7746,160.012,100.649,101.083,0.0105574,0.200641,20.7324,30.4486,-0.0390064,0,0
1141,285,55.4546,59.4568,157.93,100.645,101.359,0.0106327,0.200667,20.7325,30.3686,-0.0640495,0,0
1148,286.75,54.6747,59.3953,157.263,100.633,101.817,0.0107043,0.200741,20.7326,30.2585,-0.106072,0,0
1155,288.5,55.0474,59.6101,161.241,100.636,100.099,0.0108266,0.200896,20.7322,30.11833,0.048462,0,0
1162,290.25,55.3616,58.745,157.965,100.616,101.286,0.0108785,0.200784,20.7326,30.0583,-0.0602255,0,0
1169,292,54.7893,59.2284,159.302,100.606,100.985,0.0108419,0.200126,20.7334,29.9181,-0.0341046,0,0
1176,293.75,55.3952,59.1588,158.148,100.608,100.662,0.0107913,0.199298,20.7337,29.778,-0.004935857,0,0
1183,295.5,54.5794,59.2793,159.945,100.6,101.043,0.0107609,0.199127,20.7339,29.6879,-0.0398543,0,0
1190,297.25,55.2558,58.8545,165.516,100.588,100.796,0.0106972,0.199545,20.7337,29.5778,-0.01866658,0,0
1197,299,55.0349,58.8374,159.912,100.568,100.813,0.0106629,0.199909,20.7335,29.4577,-0.0220689,0,0
1204,300.75,55.1251,59.7055,158.56,100.561,100.847,0.0107622,0.19991,20.7332,29.3176,-0.025679,0,0
1211,302.5,55.0261,59.6925,155.54,100.558,100.853,0.0109276,0.200634,20.7321,29.2475,-0.0266422,0,0
1218,304.25,55.6045,58.9526,157.265,100.541,100.469,0.0110701,0.200902,20.7316,29.1274,0.006515756,0,0
1225,306,54.7404,59.2444,153.33,100.52,100.679,0.0112199,0.200393,20.7313,29.0373,-0.0142781,0,0
1232,307.75,55.289,59.0048,161.81,100.498,100.638,0.01135157,0.199855,20.7312,28.9372,-0.0127084,0,0
1239,309.5,55.1405,59.5466,156.86,100.476,100.379,0.0113977,0.199846,20.7318,28.8171,0.008726591,0,0
1246,311.25,54.8141,59.0638,157.053,100.477,100.781,0.0112811,0.199072,20.7326,28.7771,-0.0274537,0,0
1253,313,54.9755,58.751,158.906,100.471,100.674,0.0110231,0.198843,20.733,28.5869,-0.0183243,0,0
1260,314.75,54.6808,58.9957,158.818,100.449,101.224,0.0107468,0.199845,20.7323,28.5068,-0.069705,0,0
1267,316.5,54.991,59.1708,156.357,100.448,100.936,0.01059847,0.200732,20.7317,28.4367,-0.0439104,0,0
1274,318.25,55.3906,59.0325,158.383,100.448,100.901,0.0105554,0.200961,20.7314,28.3266,-0.0408256,0,0
1281,320,54.8044,59.1487,152.863,100.431,100.897,0.0105535,0.200915,20.7316,28.2466,-0.0419424,0,0
1288,321.75,54.9443,59.8529,159.072,100.412,101.424,0.0105668,0.200849,20.7322,28.0764,-0.0908935,0,0
1295,323.5,55.3842,58.969,154.015,100.405,101.131,0.01053958,0.200793,20.7325,28.0063,-0.0652503,0,0
1302,325.25,55.0936,59.8543,160.92,100.408,101.322,0.0105121,0.202125,20.7317,27.8862,-0.0821035,0,0
1309,327,55.1685,58.9088,155.806,100.414,100.632,0.0105314,0.203187,20.731,27.7761,-0.0197233,0,0
1316,328.75,55.3408,59.6154,153.311,100.391,101.154,0.0106787,0.203153,20.7307,27.636,-0.06867075,0,0
1323,330.5,55.1271,59.5138,161.109,100.38,101.026,0.0108634,0.203275,20.7302,27.5459,-0.0581577,0,0
1330,332.25,55.2594,60.1906,157.508,100.371,100.82,0.0109913,0.204685,20.7291,27.3858,-0.0404911,0,0
1337,334,55.0567,59.3971,151.366,100.37,101.309,0.0110269,0.205416,20.7286,27.3257,-0.0845172,0,0
1344,335.75,55.2137,60.2756,159.936,100.358,99.9971,0.01093046,0.205536,20.7284,27.2456,0.03270008,0,0
1351,337.5,55.1419,59.4594,155.268,100.338,100.662,0.010823,0.205705,20.7283,27.1756,-0.0292396,0,0
1358,339.25,55.5362,60.3745,153.343,100.33,100.203,0.0108421,0.206366,20.7282,27.0354,0.0114918,0,0
1365,341,55.3259,59.5915,157.007,100.319,99.9588,0.0109101,0.206542,20.7282,26.8953,0.0326247,0,0
1372,342.75,55.3289,59.9445,153.613,100.319,100.718,0.0109439,0.205947,20.7282,26.8352,-0.035977,0,0
1379,344.5,55.6854,60.0186,155.207,100.313,101.107,0.01090314,0.20512,20.7287,26.7251,-0.0714317,0,0
1386,346.25,55.2164,60.0622,157.743,100.304,100.933,0.010828,0.204644,20.7291,26.565,-0.056668,0,0
1393,348,55.3055,60.1074,160.007,100.306,100.756,0.0107892,0.204867,20.728,26.5149,-0.0406236,0,0
1400,349.75,55.2259,60.2488,157.596,100.293,100.804,0.0107815,0.205974,20.7265,26.3748,-0.0460917,0,0
1407,351.5,55.4975,60.444,162.037,100.287,100.929,0.010798,0.206824,20.7255,26.3047,-0.0578993,0,0
1414,353.25,55.4134,59.7432,159.422,100.282,100.641,0.0108074,0.207035,20.7244,26.1846,-0.0323704,0,0
1421,355,55.5559,59.373,154.104,100.281,100.393,0.0107687,0.208141,20.7244,26.1046,-0.0101525,0,0
1428,356.75,55.809,59.5545,157.737,100.276,101.1,0.0106877,0.2086896,20.7239,25.9644,-0.0742392,0,0
1435,358.5,54.9284,59.9227,154.89,100.281,100.489,0.0106098,0.209364,20.7236,25.8543,-0.0187402,0,0
1442,360.25,55.7529,59.9147,158.452,100.274,100.454,0.01059,0.20935,20.7235,25.7442,-0.0162828,0,0
1449,362,56.0345,59.9429,154.771,100.259,99.7495,0.010597,0.209367,20.7239,25.6541,0.046207,0,0
1456,363.75,55.4508,60.4351,154.839,100.266,100.296,0.0106079,0.209394,20.7244,25.524,-0.002680599,0,0
1463,365.5,55.5262,60.4786,153.574,100.262,100.268,0.0105746,0.209094,20.7244,25.4139,-0.000504815,0,0
1470,367.25,55.473,59.4316,155.954,100.25,100.808,0.0104553,0.209755,20.7231,25.2938,-0.0503625,0,0
1477,369,55.7389,59.381,161.267,100.241,101.227,0.0103195,0.21092,20.7215,25.1937,-0.0888116,0,0
1484,370.75,55.3333,60.0059,159.342,100.236,99.8924,0.01023715,0.211781,20.7205,25.1437,0.0311533,0,0
1491,372.5,55.5799,60.7122,159.142,100.225,100.718,0.0102631,0.211605,20.72,25.0335,-0.0444986,0,0
1498,374.25,55.162,60.3548,155.477,100.222,100.091,0.0102968,0.2116,20.7198,24.8634,0.0117973,0,0
1505,376,55.5173,60.8074,160.748,100.196,99.8928,0.0102505,0.212099,20.7197,24.7633,0.02745547,0,0
1512,377.75,55.8818,60.7996,157.335,100.191,100.671,0.0102176,0.213138,20.7188,24.7333,-0.0433293,0,0
1519,379.5,55.6257,60.3285,155.349,100.189,100.359,0.0102654,0.214371,20.718,24.6132,-0.0154263,0,0
1526,381.25,55.3662,60.3059,158.59,100.177,100.452,0.010362,0.215744,20.7155,24.473,-0.0248379,0,0
1533,383,56.1361,60.4991,153.312,100.177,100.92,0.0104113,0.217465,20.714,24.3829,-0.0669609,0,0
1540,384.75,55.6092,60.7218,156.151,100.173,100.024,0.0103278,0.218231,20.7133,24.2828,0.01356,0,0
1547,386.5,56.7433,60.6897,156.065,100.157,99.9832,0.0101631,0.218541,20.713,24.1527,0.015712,0,0
1554,388.25,56.23,60.9302,152.588,100.152,100.443,0.0100624,0.2187,20.7128,23.9926,-0.0262791,0,0
1561,390,55.7458,60.6312,157.293,100.144,100.066,0.009995036,0.219266,20.7118,23.9325,0.007023421,0,0
1568,391.75,56.7491,60.6429,159.474,100.133,100.1,0.009905164,0.220416,20.7106,23.8124,0.003011012,0,0
1575,393.5,56.4673,61.5878,157.71,100.115,99.5936,0.009861771,0.222923,20.7085,23.7724,0.0473738,0,0
1582,395.25,56.0183,61.2939,160.459,100.127,100.34,0.00995055,0.223667,20.7074,23.6122,-0.01928347,0,0
1589,397,56.4225,60.8578,157.496,100.114,100.375,0.0100839,0.224116,20.7063,23.5321,-0.0235958,0,0
1596,398.75,56.5626,61.8715,151.201,100.11,99.67,0.0100807,0.225837,20.7044,23.4421,0.0399275,0,0
1603,400.5,56.375,61.4044,153.452,100.1,99.8155,0.009989399,0.226519,20.703,23.2519,0.0258323,0,0
1610,402.25,56.4656,61.4692,157.368,100.071,99.7612,0.009912947,0.228059,20.7013,23.1318,0.0281214,0,0
1617,404,57.1325,61.7297,150.51,100.068,99.8494,0.009863618,0.229861,20.7007,23.0317,0.0198094,0,0
1624,405.75,56.8489,62.0365,158.205,100.048,100.517,0.009754227,0.230326,20.7001,22.9516,-0.04245878,0,0
1631,407.5,56.4498,61.4894,155.822,100.037,99.9067,0.00961904,0.2306,20.699,22.8515,0.0118481,0,0
1638,409.25,57.161,61.3802,152.636,100.018,99.5298,0.00951913,0.231761,20.6976,22.7414,0.0443872,0,0
1645,411,57.4073,61.5461,154.183,100.032,99.8559,0.009447835,0.232962,20.6966,22.6513,0.01600655,0,0
1652,412.75,57.0374,61.7879,155.632,100.077,100.642,0.009455766,0.235005,20.696,22.4711,-0.0509739,0,0
1659,414.5,56.525,62.0229,154.551,100.114,100.011,0.00962923,0.236373,20.6944,22.3811,0.009344276,0,0
1666,416.25,57.6007,62.0101,153.954,100.147,100.613,0.009786421,0.23767,20.6926,22.281,-0.0420488,0,0
1673,418,56.9309,62.5241,152.843,100.185,100.35,0.00981639,0.239113,20.6909,22.2009,-0.0149412,0,0
1680,419.75,57.4079,62.2796,152.955,100.211,100.439,0.009776275,0.240681,20.6902,22.0808,-0.0206436,0,0
1687,421.5,57.616,62.4658,162.802,100.232,100.276,0.009761686,0.241152,20.6898,21.9506,-0.003967936,0,0
1694,423.25,56.9873,62.6161,156.383,100.255,99.9137,0.009788924,0.240866,20.6896,21.8906,0.0308808,0,0
1701,425,57.369,62.7293,154.936,100.276,100.117,0.009790391,0.241528,20.6895,21.7404,0.0144148,0,0
1708,426.75,57.3365,62.7463,159.875,100.317,100.07,0.009799234,0.242167,20.6895,21.6003,0.02239652,0,0
1715,428.5,57.6849,63.3744,158.456,100.339,101.41,0.009905322,0.242271,20.6895,21.4702,-0.09628,0,0
1722,430.25,57.8975,62.3117,157.773,100.34,99.8629,0.01004051,0.24289,20.6885,21.3,0.04325768,0,0
1729,432,57.5423,62.761,156.925,100.359,100.904,0.01012436,0.243954,20.6878,21.22,-0.049118,0,0
1736,433.75,57.4078,62.4728,159.468,100.37,100.827,0.0100767,0.245131,20.6865,21.1399,-0.0411535,0,0
1743,435.5,57.3746,62.8232,154.733,100.392,100.679,0.009900633,0.246499,20.6847,20.9797,-0.0259051,0,0
1750,437.25,57.2687,62.9035,157.762,100.394,99.026,0.009671873,0.248096,20.6825,20.8796,0.124387,0,0
1757,439,58.0172,63.5613,151.558,100.392,100.163,0.009507469,0.248935,20.6809,20.7595,0.0206431,0,0
1764,440.75,57.9589,63.3731,160.291,100.389,100.496,0.009422873,0.249828,20.6801,20.6294,-0.009609286,0,0
1771,442.5,58.1823,62.8663,159.755,100.403,99.9276,0.009426419,0.250642,20.6787,20.5193,0.0430328,0,0
1778,444.25,57.8543,63.4202,158.319,100.395,99.8867,0.00952158,0.251652,20.6763,20.4092,0.0460597,0,0
1785,446,57.8298,63.4108,152.533,100.405,101.171,0.009667737,0.254297,20.6741,20.2991,-0.0689469,0,0
1792,447.75,58.3412,64.0527,157.633,100.416,100.745,0.009759767,0.255905,20.6721,20.1389,-0.0297038,0,0
1799,449.5,58.6714,63.7453,154.372,100.43,100.89,0.009792521,0.257974,20.6707,20.0589,-0.04147,0,0
1806,451.25,58.567,64.3326,155.517,100.436,100.941,0.009778362,0.260096,20.6684,19.9087,-0.0454713,0,0
1813,453,58.7502,63.7415,156.656,100.44,100.44,0.009729246,0.261287,20.667,19.7886,0,0,0
1820,454.75,58.494,64.3078,152.35,100.438,100.874,0.0097105,0.26383,20.6642,19.6985,-0.0392713,0,0
1827,456.5,59.3807,64.2015,161.033,100.439,100.415,0.009721198,0.266115,20.6613,19.5584,0.002159471,0,0
1834,458.25,58.8953,64.4468,150.724,100.439,100.164,0.009701435,0.266879,20.66,19.4483,0.024818,0,0
1841,460,59.566,64.6522,158.124,100.443,100.681,0.00961682,0.268466,20.6582,19.2581,-0.0214697,0,0
1848,461.75,59.1308,64.7887,154.589,100.429,100.182,0.009562477,0.270158,20.6573,19.108,0.02230271,0,0
1855,463.5,59.3415,65.2897,154.32,100.433,100.35,0.009591106,0.271945,20.6542,18.9879,0.007556979,0,0
1862,465.25,59.1527,64.8463,157.206,100.453,100.07,0.009639126,0.274815,20.6508,18.8778,0.0346343,0,0
1869,467,59.2743,65.4515,153.508,100.439,100.235,0.009657891,0.278414,20.6483,18.7376,0.0183715,0,0
1876,468.75,59.3798,65.5399,157.614,100.438,100.219,0.009628545,0.280459,20.6457,18.6375,0.0197889,0,0
1883,470.5,60.1934,65.3872,150.685,100.44,100.827,0.009563684,0.282199,20.6435,18.4674,-0.0349423,0,0
1890,472.25,60.0321,65.9586,155.002,100.452,100.392,0.00950561,0.284233,20.6399,18.3473,0.005367464,0,0
1897,474,60.2267,66.7491,153.076,100.458,100.873,0.009506477,0.287021,20.6377,18.1971,-0.0374249,0,0
1904,475.75,60.65,65.8625,153.952,100.443,99.7534,0.009552187,0.289557,20.6355,18.027,0.0625005,0,0
1911,477.5,60.4609,66.1985,155.588,100.449,100.764,0.009625233,0.291589,20.6332,17.9068,-0.0284128,0,0
1918,479.25,61.0305,66.8784,155.42,100.441,99.925,0.009723262,0.292897,20.6306,17.7767,0.0466942,0,0
1925,481,61.0299,66.6047,152.575,100.44,100.478,0.00981834,0.29574,20.628,17.6666,-0.003449952,0,0
1932,482.75,60.9173,67.2999,152.909,100.453,100.415,0.009904195,0.298858,20.6258,17.4564,0.003438915,0,0
1939,484.5,61.0448,67.7026,152.759,100.459,100.69,0.009968881,0.301936,20.6226,17.3163,-0.0208619,0,0
1946,486.25,61.8526,67.7469,152.963,100.464,99.7647,0.0100541,0.305202,20.6186,17.1461,0.0633185,0,0
1953,488,61.1865,68.1326,154.861,100.476,99.6383,0.0101366,0.307602,20.6157,17.006,0.0759021,0,0
1960,489.75,61.6145,68.7381,151.853,100.477,99.4946,0.0101457,0.309125,20.6138,16.8458,0.0890688,0,0
1967,491.5,61.8304,68.9288,152.285,100.486,99.495,0.01012863,0.311806,20.6107,16.7357,0.0898565,0,0
1974,493.25,62.5531,68.7475,148.579,100.474,99.4264,0.01018331,0.314287,20.6082,16.5556,0.09502133,0,0
1981,495,62.1074,69.271,155.784,100.478,100.064,0.0102468,0.317183,20.605,16.4254,0.0374013,0,0
1988,496.75,62.4068,69.9481,154.481,100.482,99.7747,0.010256,0.32041,20.6024,16.2653,0.06406451,0,0
1995,498.5,63.1984,69.6885,145.014,100.485,99.3443,0.01017959,0.322255,20.6004,16.0951,0.103564,0,0
2002,500.25,62.7508,70.1455,153.237,100.49,99.079,0.009966997,0.324292,20.5986,15.935,0.12823,0,0
2009,502,62.5205,70.2202,150.876,100.477,99.5875,0.00975657,0.325935,20.5968,15.7448,0.0806024,0,0
2016,503.75,63.0385,70.7941,153.978,100.48,99.4034,0.009664872,0.327308,20.5956,15.5947,0.0976844,0,0
2023,505.5,63.296,69.8912,152.355,100.495,99.3708,0.009718033,0.330208,20.5934,15.4245,0.101974,0,0
2030,507.25,63.1627,71.1985,153.381,100.484,99.3778,0.009944231,0.333944,20.5879,15.2744,0.100362,0,0
2037,509,63.8407,71.0171,148.538,100.493,98.7085,0.0102382,0.338238,20.5819,15.0842,0.162422,0,0
2044,510.75,64.134,71.1808,151.576,100.514,98.8584,0.0104887,0.341172,20.5766,14.934,0.150625,0,0
2051,512.5,63.7369,71.2217,149.581,100.519,98.9027,0.0106493,0.345038,20.5722,14.7439,0.146975,0,0
2058,514.25,63.9803,71.9376,154.916,100.516,99.0659,0.01067023,0.348127,20.5688,14.6137,0.131753,0,0
2065,516,64.2655,72.411,154.117,100.522,98.4605,0.0105959,0.351339,20.5646,14.4136,0.187863,0,0
2072,517.75,64.3732,71.949,151.327,100.534,99.0868,0.0105143,0.354415,20.5608,14.2234,0.131462,0,0
2079,519.5,64.748,72.997,152.911,100.542,99.6401,0.0104462,0.358164,20.5577,14.0432,0.081723,0,0
2086,521.25,65.5224,72.8057,148.904,100.537,99.7847,0.010441,0.361109,20.5547,13.863,0.0680833,0,0
2093,523,64.8074,73.28,155.329,100.536,99.8663,0.0104466,0.364099,20.5513,13.6829,0.0605927,0,0
2100,524.75,65.3722,73.4951,148.612,100.533,99.0225,0.0104146,0.365989,20.5487,13.4927,0.13731,0,0
2107,526.5,66.2126,73.8077,151.932,100.553,98.2721,0.0103523,0.366849,20.5472,13.2625,0.208019,0,0
2114,528.25,65.8767,74.444,149.943,100.55,98.6264,0.01031145,0.369336,20.5449,13.1624,0.175116,0,0
2121,530,65.6384,74.2074,158.365,100.544,99.3113,0.0104195,0.372515,20.5428,12.9622,0.111879,0,0
2128,531.75,66.3517,74.1714,150.205,100.548,98.5409,0.0105462,0.374792,20.5404,12.772,0.182873,0,0
2135,533.5,66.572,75.5064,143.302,100.553,98.1704,0.0105989,0.376324,20.5375,12.5418,0.2174,0,0
2142,535.25,66.43,74.9475,145.765,100.555,98.3971,0.01060065,0.378551,20.5339,12.3917,0.196712,0,0
2149,537,66.4924,75.4985,147.987,100.561,98.9252,0.0106299,0.38108,20.5305,12.2315,0.148702,0,0
2156,538.75,67.2243,75.1214,148.085,100.553,99.2301,0.01069,0.382525,20.5289,11.9813,0.120125,0,0
2163,540.5,67.1436,76.2042,148.767,100.556,99.3165,0.0107939,0.381132,20.5292,11.8211,0.112456,0,0
2170,542.25,67.2525,74.9523,151.548,100.537,99.056,0.0108501,0.380437,20.5295,11.651,0.134586,0,0
2177,544,67.293,75.1378,151.982,100.541,97.4248,0.0108458,0.383326,20.5253,11.4608,0.285523,0,0
2184,545.75,67.7036,75.4421,152.228,100.543,98.3815,0.01085767,0.3866,20.5228,11.2706,0.197099,0,0
2191,547.5,68.0118,75.821,147.072,100.54,99.0699,0.0108628,0.386785,20.5227,11.0904,0.133576,0,0
2198,549.25,67.6516,76.6655,147.772,100.551,98.8692,0.0107915,0.386425,20.5228,10.8702,0.152937,0,0
2205,551,68.1946,76.1167,150.241,100.551,98.4579,0.010748,0.386467,20.5228,10.6901,0.190772,0,0
2212,552.75,67.8762,77.1179,151.402,100.549,98.7632,0.0107767,0.386408,20.5234,10.4698,0.16251,0,0
2219,554.5,68.22,76.5091,148.962,100.558,98.6304,0.01083,0.385941,20.5246,10.2797,0.175471,0,0
2226,556.25,67.9897,77.2159,146.834,100.563,98.4857,0.0107959,0.384165,20.5252,10.1095,0.1892647,0,0
2233,558,68.7207,76.9887,146.636,100.568,99.6014,0.0107723,0.384999,20.5243,9.95937,0.0875722,0,0
2240,559.75,68.3462,77.3419,147.085,100.56,97.6853,0.0107667,0.386191,20.52388,9.75918,0.262995,0,0
2247,561.5,68.0813,77.357,149.912,100.571,98.1804,0.0107441,0.386401,20.5232,9.58902,0.218133,0,0
2254,563.25,69.0232,77.3308,149.825,100.562,98.4145,0.010739,0.387137,20.5231,9.37882,0.195713,0,0
2261,565,68.5437,77.6889,152.046,100.576,98.9035,0.0107881,0.386984,20.5233,9.22868,0.15201,0,0
2268,566.75,68.5991,77.775,149.957,100.582,98.4197,0.0108633,0.385047,20.5242,9.01848,0.197037,0,0
2275,568.5,69.064,77.0901,150.136,100.58,97.6806,0.0109467,0.382644,20.525,8.85833,0.265205,0,0
2282,570.25,68.6748,78.0631,147.1,100.576,96.8706,0.0109666,0.382553,20.5267,8.64814,0.34033,0,0
2289,572,68.9046,77.4852,151.392,100.589,98.8345,0.0108723,0.38164,20.5278,8.44795,0.159581,0,0
2296,573.75,68.7126,77.6524,149.23,100.581,98.5865,0.0106818,0.380663,20.528,8.2878,0.181647,0,0
2303,575.5,69.095,77.0676,147.141,100.594,98.2069,0.0105237,0.381007,20.5279,8.10763,0.217754,0,0
2310,577.25,69.0943,76.9767,144.891,100.594,98.5179,0.0105201,0.381252,20.5271,7.92746,0.189125,0,0
2317,579,69.3331,77.896,146.007,100.596,98.798,0.010622,0.37959,20.5289,7.72727,0.16353,0,0
2324,580.75,68.5931,77.1106,148.508,100.606,98.9452,0.0107223,0.377965,20.53,7.55711,0.150968,0,0
2331,582.5,69.3931,76.8755,153.355,100.613,98.0927,0.0107468,0.376919,20.5308,7.41698,0.230071,0,0
2338,584.25,68.8961,77.0402,152.855,100.615,98.6668,0.010716,0.374529,20.5321,7.2268,0.177267,0,0
2345,586,69.2957,77.5053,154.571,100.605,98.6169,0.01067549,0.371509,20.5351,7.07666,0.180956,0,0
2352,587.75,68.8092,76.7688,150.547,100.618,98.5166,0.01066,0.369685,20.5366,6.92652,0.191387,0,0
2359,589.5,68.7747,77.2407,155.592,100.618,99.0616,0.0106288,0.369,20.5385,6.75636,0.141397,0,0
2366,591.25,68.781,77.3978,149.87,100.616,97.9338,0.01056958,0.367492,20.5407,6.54616,0.245039,0,0
2373,593,68.6783,77.0324,148.681,100.619,98.6703,0.0105463,0.365694,20.5429,6.38601,0.177323,0,0
2380,594.75,69.2778,76.7003,150.948,100.619,98.6295,0.0105544,0.363366,20.5447,6.21585,0.181113,0,0
2387,596.5,68.4025,76.7748,143.641,100.628,98.9526,0.0105352,0.361232,20.5466,6.03568,0.152283,0,0
2394,598.25,68.7283,76.4279,154.685,100.628,98.491,0.0104551,0.358302,20.5493,5.91556,0.194647,0,0
2401,600,68.3158,76.7375,153.221,100.626,99.3539,0.0102398,0.355528,20.5537,5.70537,0.11536,0,0
2408,601.75,68.8159,76.4483,149.712,100.622,99.201,0.0100595,0.354235,20.5566,5.58525,0.128983,0,0
2415,603.5,68.546,76.2052,149.532,100.623,98.9826,0.009959568,0.351908,20.5585,5.4251,0.149012,0,0
2422,605.25,68.5214,75.6758,150.831,100.626,99.4433,0.009988308,0.347656,20.5629,5.27496,0.107236,0,0
2429,607,68.6908,75.656,148.33,100.628,99.3074,0.010045,0.343153,20.5705,5.07477,0.119752,0,0
2436,608.75,68.172,75.9594,156.308,100.616,99.5867,0.0100577,0.338259,20.5747,4.97468,0.0932005,0,0
2443,610.5,68.4582,75.0691,151.911,100.629,98.8067,0.0100307,0.334722,20.5773,4.80452,0.165701,0,0
2450,612.25,68.7937,75.0249,150.438,100.633,97.7904,0.009989104,0.332973,20.5794,4.68441,0.259822,0,0
2457,614,68.001,75.5538,150.011,100.635,99.6787,0.009923799,0.331075,20.5816,4.55428,0.0865862,0,0
2464,615.75,67.8859,75.1106,152.182,100.624,100.56,0.009848311,0.327964,20.585,4.39413,0.005767168,0,0
2471,617.5,68.4165,74.4984,146.459,100.62,100.277,0.009790015,0.324375,20.5888,4.24399,0.0309195,0,0
2478,619.25,67.7901,75.1309,148.89,100.628,99.4829,0.009823903,0.320446,20.5942,4.11387,0.103746,0,0
2485,621,67.4675,74.6828,153.294,100.625,99.8933,0.009908056,0.314809,20.5999,3.94371,0.0661895,0,0
2492,622.75,68.1639,73.6003,151.126,100.629,99.2258,0.0100401,0.308491,20.604,3.83361,0.12736,0,0
2499,624.5,66.7493,73.3917,153.084,100.628,99.5424,0.0100935,0.304018,20.6071,3.70348,0.0983239,0,0
2506,626.25,67.6184,73.0958,154.882,100.627,100.685,0.0100114,0.300408,20.6099,3.6134,-0.005165145,0,0
2513,628,66.6465,72.8219,152.662,100.627,100.48,0.009876113,0.296426,20.6146,3.5033,0.0131985,0,0
2520,629.75,66.2716,72.2812,153.201,100.622,99.6501,0.009792279,0.291029,20.6203,3.37317,0.0880304,0,0
2527,631.5,66.3537,72.0806,158.194,100.622,100.149,0.009732073,0.285246,20.626,3.24305,0.04266059,0,0
2534,633.25,66.1603,71.8213,148.028,100.621,100.221,0.009633397,0.28192,20.6301,3.07289,0.0361772,0,0
2541,635,65.9371,71.5769,154.332,100.626,101.15,0.009539898,0.277012,20.635,2.98281,-0.0471076,0,0
2548,636.75,65.6603,70.8822,152.012,100.635,100.073,0.009526843,0.273218,20.6389,2.86269,0.0507873,0,0
2555,638.5,65.5407,70.8374,151.415,100.633,100.719,0.009695561,0.269817,20.6426,2.73257,-0.007767754,0,0
2562,640.25,65.4452,70.8955,154.345,100.626,100.266,0.009922007,0.266487,20.6455,2.70254,0.0324276,0,0
2569,642,65.5922,69.7492,151.303,100.628,101.028,0.0101192,0.262651,20.6502,2.58243,-0.0359759,0,0
2576,643.75,65.1223,69.4879,150.945,100.634,101.224,0.0102939,0.259785,20.653,2.48234,-0.05305038,0,0
2583,645.5,64.4001,68.9919,153.189,100.631,100.165,0.0103689,0.257206,20.6553,2.38224,0.0421108,0,0
2590,647.25,64.4639,68.4328,151.985,100.628,100.282,0.0103382,0.254109,20.6597,2.29216,0.0312772,0,0
2597,649,64.375,68.9297,158.842,100.626,100.262,0.0103391,0.250576,20.6653,2.2321,0.0329349,0,0
2604,650.75,64.0349,68.3973,153.517,100.627,100.636,0.0103431,0.245634,20.6711,2.07195,-0.000822096,0,0
2611,652.5,63.7633,68.5172,150.302,100.626,100.484,0.0103184,0.242133,20.6751,1.99187,0.0128077,0,0
2618,654.25,64.3931,67.93,152.334,100.623,101.573,0.0102851,0.238492,20.6785,1.94183,-0.0852111,0,0
2625,656,63.8524,68.144,156.274,100.618,100.95,0.0103487,0.234764,20.6837,1.89178,-0.0298204,0,0
2632,657.75,63.1385,67.5178,157.793,100.634,100.519,0.0104573,0.229725,20.689,1.79169,0.0103895,0,0
2639,659.5,62.9002,67.2193,153.593,100.631,100.914,0.0104576,0.225761,20.6934,1.68158,-0.0254563,0,0
2646,661.25,62.812,66.4794,155.048,100.635,101.095,0.0103914,0.221993,20.6987,1.63153,-0.0414135,0,0
2653,663,62.4174,65.9861,155.07,100.625,101.4,0.01039781,0.218155,20.7034,1.56147,-0.0696189,0,0
2660,664.75,61.9266,65.9285,155.689,100.618,100.983,0.0105776,0.214807,20.7062,1.4914,-0.0327843,0,0
2667,666.5,62.6384,65.4118,157.283,100.616,101.081,0.0108087,0.211001,20.7099,1.3813,-0.0418571,0,0
2674,668.25,62.3743,65.0094,155.663,100.615,101.439,0.01101777,0.206488,20.7142,1.29121,-0.0740147,0,0
2681,670,61.2654,64.6869,148.68,100.616,101.195,0.0111713,0.202638,20.7173,1.24117,-0.0520197,0,0
2688,671.75,61.6464,64.1606,158.979,100.614,100.452,0.011286,0.199176,20.7199,1.22115,0.0146587,0,0
2695,673.5,60.9747,63.5578,154.671,100.615,100.862,0.0114183,0.196212,20.7236,1.16109,-0.0222353,0,0
2702,675.25,60.4874,63.6779,152.034,100.618,100.776,0.0115367,0.19409,20.7262,1.07101,-0.0142391,0,0
2709,677,60.6052,63.4961,154.974,100.605,100.945,0.0116084,0.191636,20.7293,1.02096,-0.030592,0,0
2716,678.75,60.2818,63.0239,157.891,100.609,101.189,0.0116867,0.188545,20.7328,0.950894,-0.0521148,0,0
2723,680.5,60.4829,62.3274,157.163,100.611,101.031,0.0119337,0.185468,20.7351,0.86081,-0.0377874,0,0
2730,682.25,60.0316,62.2395,158.155,100.603,101.013,0.0123306,0.183334,20.737,0.820772,-0.0368659,0,0
2737,684,59.7226,62.2459,148.764,100.601,101.251,0.01271,0.181299,20.7395,0.760716,-0.0584297,0,0
2744,685.75,59.1531,61.931,152.153,100.583,100.75,0.0129322,0.178508,20.7426,0.740697,-0.01505,0,0
2751,687.5,59.3535,60.8159,160.493,100.575,100.903,0.0130692,0.175266,20.7453,0.69065,-0.0295135,0,0
2758,689.25,58.4203,60.7711,154.046,100.567,100.658,0.0131446,0.172996,20.7478,0.650612,-0.008265969,0,0
2765,691,58.4732,60.8149,157.833,100.572,100.929,0.01316812,0.17048,20.7499,0.580546,-0.0321182,0,0
2772,692.75,58.5306,61.0027,157.144,100.573,100.952,0.01320303,0.167041,20.7535,0.560527,-0.0340732,0,0
2779,694.5,58.4607,60.0114,160.508,100.565,100.295,0.0132583,0.163954,20.7573,0.51048,0.0244644,0,0
2786,696.25,58.1702,60.1298,158.554,100.568,101.21,0.01328219,0.161038,20.7612,0.480452,-0.05766492,0,0
2793,698,57.8301,59.6717,152.669,100.571,101.311,0.0133686,0.158291,20.7639,0.420395,-0.0664611,0,0
2800,699.75,57.9945,59.3131,157.744,100.554,100.823,0.0135836,0.155802,20.7673,0.370348,-0.0242076,0,0
2807,701.5,57.3842,59.3723,155.809,100.551,100.751,0.01384876,0.153471,20.77,0.320301,-0.0180633,0,0
2814,703.25,56.9693,58.7838,158.605,100.544,100.665,0.0140096,0.15148,20.7723,0.290273,-0.010922,0,0
2821,705,57.2282,58.4996,156.929,100.545,100.534,0.0140981,0.149797,20.7748,0.260245,0.000976041,0,0
2828,706.75,57.3209,58.0312,164.256,100.536,101.568,0.0141655,0.147639,20.777,0.230217,-0.0926406,0,0
2835,708.5,56.6535,58.1287,161.73,100.534,101.487,0.0142286,0.145469,20.7795,0.250235,-0.0855358,0,0
2842,710.25,57.0243,57.8116,157.334,100.533,101.012,0.0144337,0.143494,20.7822,0.210198,-0.0430626,0,0
2849,712,56.2311,57.591,160.731,100.537,101.236,0.0146833,0.141671,20.7844,0.17016,-0.0628189,0,0
2856,713.75,56.158,57.2816,156.838,100.531,100.738,0.0149595,0.140482,20.7854,0.140132,-0.0185788,0,0
2863,715.5,55.3722,57.0539,158.086,100.543,100.673,0.0151044,0.139214,20.7865,0.100094,-0.0117018,0,0
2870,717.25,55.9297,56.5098,158.769,100.534,101.157,0.0152096,0.137596,20.7887,0.0500471,-0.055998,0,0
2877,719,55.7384,57.0763,161.388,100.525,101.183,0.015308,0.136413,20.7902,0.0200188,-0.0591608,0,0
2884,720.75,55.4351,56.3335,160.021,100.548,101.547,0.0154369,0.135242,20.791,-0.0300282,-0.089651,0,0
2891,722.5,55.4437,55.6427,160.892,100.537,101.293,0.0156043,0.134419,20.7926,-0.0400377,-0.0679508,0,0
2898,724.25,55.115,56.0182,157.157,100.535,101.875,0.0158693,0.133609,20.7945,-0.0500471,-0.120084,0,0
2905,726,54.8025,56.0331,158.633,100.544,101.494,0.0161731,0.132485,20.7955,-0.0900847,-0.0852935,0,0
2912,727.75,54.8077,55.9961,161.21,100.544,101.227,0.0164121,0.131987,20.796,-0.0900847,-0.0614002,0,0
2919,729.5,54.3377,55.8493,159.714,100.543,100.932,0.01659926,0.131126,20.7962,-0.0900847,-0.03506,0,0
2926,731.25,54.2205,55.5512,161.572,100.534,101.18,0.0167462,0.12955,20.798,-0.130122,-0.0581001,0,0
2933,733,54.8238,55.5041,162.363,100.537,100.942,0.0168917,0.128019,20.7996,-0.17016,-0.0364838,0,0
2940,734.75,54.7602,54.8582,157.819,100.545,101.487,0.0169889,0.126567,20.801,-0.180169,-0.0845598,0,0
2947,736.5,54.482,54.6495,154.678,100.557,101.406,0.0169905,0.125736,20.8022,-0.200188,-0.07625068,0,0
2954,738.25,53.4862,54.6836,164.205,100.553,100.098,0.0169406,0.125823,20.8025,-0.200188,0.0411026,0,0
2961,740,53.5299,54.4782,164.571,100.563,101.434,0.0167995,0.125791,20.8022,-0.240226,-0.07817,0,0
2968,741.75,54.0422,54.5072,158.637,100.563,101.303,0.01660963,0.125214,20.8016,-0.300282,-0.0665139,0,0
2975,743.5,53.7004,53.8197,163.599,100.576,101.594,0.016556,0.124202,20.8013,-0.300282,-0.0913575,0,0
2982,745.25,53.2157,53.9242,164.81,100.582,100.949,0.0167795,0.123429,20.8023,-0.310292,-0.0330094,0,0
2989,747,53.1384,54.3361,157.2612,100.572,101.45,0.017213,0.123621,20.8018,-0.34032,-0.0788187,0,0
2996,748.75,53.1285,54.4924,154.408,100.582,101.297,0.0175544,0.123767,20.802,-0.390367,-0.0642411,0,0
3003,750.5,52.6412,53.8773,159.351,100.597,100.567,0.0177014,0.123419,20.8027,-0.430405,0.002735459,0,0
3010,752.25,52.8387,54.2059,164.92,100.603,101.547,0.0177104,0.123046,20.803,-0.400377,-0.0846885,0,0
3017,754,53.0032,53.6982,162.572,100.594,101.229,0.01769845,0.122549,20.8031,-0.430405,-0.0570084,0,0
3024,755.75,52.816,53.3676,156.688,100.596,100.43,0.01777906,0.122031,20.8032,-0.440414,0.0149674,0,0
3031,757.5,52.4114,53.8003,166.506,100.593,101.443,0.0178777,0.121979,20.8039,-0.440414,-0.0762414,0,0
3038,759.25,52.8659,53.1999,161.592,100.602,101.533,0.0178846,0.122039,20.8048,-0.500471,-0.08348456,0,0
3045,761,52.1466,53.4859,163.909,100.601,101.234,0.0178695,0.121914,20.8052,-0.490461,-0.0569111,0,0
3052,762.75,52.4282,54.0889,159.134,100.603,101.012,0.0179051,0.121712,20.8065,-0.51048,-0.03674921,0,0
3059,764.5,52.1381,52.8262,157.259,100.601,101.091,0.0179219,0.121016,20.808,-0.500471,-0.0440657,0,0
3066,766.25,51.8632,52.7858,159.112,100.609,100.796,0.0178301,0.120454,20.8087,-0.52049,-0.0168638,0,0
3073,768,52.067,53.4911,163.551,100.602,101.013,0.0177147,0.120014,20.8091,-0.560527,-0.0369766,0,0
3080,769.75,51.7631,53.1211,158.838,100.607,101.128,0.0176565,0.119748,20.8092,-0.610574,-0.0468137,0,0
3087,771.5,52.5688,52.9784,161.937,100.593,101.821,0.0175451,0.119722,20.8092,-0.640603,-0.110029,0,0
3094,773.25,52.2782,52.7726,163.415,100.604,100.936,0.01739843,0.119702,20.8089,-0.620584,-0.0298469,0,0
3101,775,52.5071,52.7641,157.719,100.603,101.057,0.0172813,0.119787,20.8087,-0.650612,-0.0408028,0,0
3108,776.75,52.0043,52.0572,164.045,100.602,100.749,0.017197,0.119895,20.8086,-0.700659,-0.0132453,0,0
3115,778.5,52.1505,52.7418,160.654,100.597,101.027,0.0171823,0.119661,20.8086,-0.69065,-0.0386753,0,0
3122,780.25,51.5903,52.6462,162.938,100.596,101.058,0.0172004,0.119697,20.8086,-0.68064,-0.0415178,0,0
3129,782,51.429,52.2053,161.063,100.596,100.937,0.0171662,0.119549,20.8081,-0.730687,-0.0307173,0,0
3136,783.75,51.0045,52.2651,161.792,100.603,101.096,0.017093,0.119416,20.808,-0.740697,-0.0443465,0,0
3143,785.5,51.2632,52.1591,159.666,100.591,100.943,0.017067,0.119638,20.8083,-0.760716,-0.0317125,0,0
3150,787.25,51.4723,53.0121,159.192,100.602,101.017,0.0170117,0.119726,20.8084,-0.790744,-0.0373668,0,0
3157,789,52.025,52.3351,164.016,100.611,101.587,0.0168898,0.119971,20.8084,-0.830781,-0.087505,0,0
3164,790.75,51.2446,52.5503,159.546,100.603,101.222,0.0168237,0.119858,20.8084,-0.8508,-0.05559608,0,0
3171,792.5,50.8134,52.2391,161.872,100.613,101.319,0.0168551,0.1195627,20.8084,-0.86081,-0.0634051,0,0
3178,794.25,51.7046,52.0965,162.686,100.602,101.134,0.0168091,0.11966,20.8084,-0.8808285,-0.0478862,0,0
3185,796,51.2844,52.9333,160.421,100.605,101.699,0.01668513,0.119576,20.8084,-0.8508,-0.0980636,0,0
3192,797.75,51.6715,52.4127,158.409,100.599,101.151,0.01660765,0.118857,20.8086,-0.930876,-0.0496304,0,0
3199,799.5,51.2093,51.8041,161.082,100.593,100.804,0.016583,0.118344,20.8089,-0.980923,-0.018958,0,0
3206,801.25,50.2748,52.0069,158.495,100.603,101.215,0.0165833,0.118313,20.8092,-0.950894,-0.0550126,0,0
3213,803,51.0593,51.5936,168.732,100.61,101.003,0.0166078,0.118522,20.8094,-0.920866,-0.0353666,0,0
3220,804.75,51.2299,51.628,159.53,100.613,100.841,0.0165647,0.118762,20.8097,-0.940885,-0.0205493,0,0
3227,806.5,51.1591,52.5043,159.279,100.615,100.872,0.016482,0.118612,20.8098,-0.970913,-0.0231336,0,0
3234,808.25,50.5381,52.3106,157.04,100.611,100.567,0.0164018,0.117899,20.8105,-0.990932,0.003937027,0,0
3241,810,51.3951,51.9293,158.241,100.613,101.46,0.0163688,0.11735,20.8111,-0.990932,-0.0760659,0,0
3248,811.75,50.706,52.4419,160.857,100.618,101.114,0.0164,0.117119,20.8114,-1.01095,-0.0446278,0,0
3255,813.5,50.1716,52.0732,159.073,100.613,100.747,0.0164716,0.117152,20.8116,-1.02096,-0.012034,0,0
3262,815.25,50.9603,51.5734,164.16,100.622,100.665,0.0165269,0.116842,20.8116,-1.04098,-0.003932249,0,0
3269,817,50.5721,52.4791,159.291,100.613,101.597,0.0165139,0.117046,20.8117,-1.03097,-0.0881697,0,0
3276,818.75,50.9106,51.9353,157.344,100.625,101.441,0.0164254,0.117577,20.8117,-1.061,-0.0731919,0,0
3283,820.5,50.6331,52.2436,167.208,100.622,101.411,0.0163035,0.117493,20.8111,-1.09103,-0.0708139,0,0
3290,822.25,50.3249,51.6892,162.023,100.621,100.949,0.01613507,0.117418,20.8113,-1.10104,-0.0294788,0,0
3297,824,50.8729,51.7085,166.095,100.625,100.76,0.01601,0.11754,20.8115,-1.13106,-0.0121536,0,0
3304,825.75,49.975,51.7786,157.75,100.607,101.369,0.0159274,0.117372,20.812,-1.15108,-0.0683996,0,0
3311,827.5,49.8215,51.521,160.561,100.613,101.737,0.0158898,0.117136,20.8129,-1.1711,-0.100718,0,0
3318,829.25,50.1365,51.6296,161.463,100.61,101.136,0.0158516,0.117015,20.8139,-1.19112,-0.0472912,0,0
3325,831,50.0056,51.2432,160.377,100.607,101.556,0.0158014,0.116876,20.8139,-1.19112,-0.0851271,0,0
3332,832.75,49.7486,51.3331,162.125,100.607,101.116,0.0157302,0.117332,20.8115,-1.18111,-0.0458,0,0
3339,834.5,50.7717,51.4939,160.32,100.613,100.993,0.0156623,0.116967,20.8104,-1.21114,-0.0342072,0,0
3346,836.25,49.7656,51.6438,161.745,100.613,101.438,0.0156276,0.116734,20.8101,-1.21114,-0.0740098,0,0
3353,838,50.1014,51.2813,161.426,100.606,101.505,0.0156257,0.116279,20.8109,-1.24117,-0.0806262,0,0
3360,839.75,50.3521,51.6105,159.791,100.603,100.786,0.0156784,0.115985,20.8113,-1.28121,-0.0164155,0,0
3367,841.5,50.2865,51.1271,160.839,100.6,100.687,0.0157361,0.115978,20.8115,-1.30122,-0.007802374,0,0
3374,843.25,49.8763,52.2292,166.585,100.605,101.485,0.0157606,0.116021,20.8116,-1.31123,-0.0789921,0,0
3381,845,49.7595,51.4061,163.283,100.607,100.886,,0.116172,,-1.29121,-0.02513597,0,0
3388,846.75,50.2928,51.1394,165.715,100.614,101.454,,,,-1.33125,-0.07537213,0,0
3395,848.5,49.587,51.4745,160.844,100.608,100.964,,,,-1.34126,-0.0320075,0,0
3402,850.25,50.4823,51.459,160.217,100.615,101.007,,,,-1.40132,-0.0352293,0,0
3409,852,49.3642,51.3475,158.886,100.623,101.426,,,,-1.36128,-0.0720614,0,0
3416,853.75,49.919,51.5532,155.254,100.616,101.031,,,,-1.40132,-0.0373353,0,0
3419,854.5,49.8213,51.5313,160.012,100.618,101.385,,,,-1.40132,-0.0689365,0,0