File: 01_Data/Pallet_Wood/Cone/Pallet_Wood_Cone_HF35Scan_180728_R3.csv
Names,Time,Stack TC,Smoke TC,Exh Press,Smoke Comp,Smoke Meas,CO Meter,CO2 Meter,O2 Meter,Sample Mass,Ext Coeff,Start Test,Flame Verif
Chan Gain,,500,500,1,1,1,1,1,1,1,1,1,1
Offset,,0,0,0.124825,0,0,0,0,0,0,0,0,0
Gain,,1,1,25.011,13.6595,14.2307,1,1,1,1.00094,1.03371,1,1
Units,sec,C,C,Pa,%,%,%,%,%,g,/m,,
Baseline,,33.684,35.6605,170.561,100.102,99.4177,0.0112125,0.0629392,20.8762,-918.978,0.0622268,,
8,1.75,32.1668,33.9608,170.844,100.387,99.9085,0.0114614,0.0672666,20.8728,59.1356,0.0432986,0,0
16,3.75,33.4237,34.8224,169.822,100.394,99.6427,0.0114609,0.0669477,20.8731,58.9354,0.06809292,0,0
24,5.75,33.5069,35.1105,167.071,100.417,99.6466,0.0115337,0.0666981,20.874,58.8754,0.0698458,0,0
32,7.75,34.0115,34.3236,168.507,100.42,99.7347,0.0115422,0.06608782,20.8749,58.8754,0.0621269,0,0
40,9.75,33.0295,35.5834,168.865,100.423,99.5141,0.0114641,0.0652323,20.8748,58.9054,0.0823957,0,0
48,11.75,33.9196,35.37,174.187,100.443,99.8103,0.011384,0.0645842,20.8758,58.9154,0.0572925,0,0
56,13.75,34.5465,35.8864,170.998,100.458,100.017,0.0112938,0.06412293,20.8761,58.8854,0.0399253,0,0
64,15.75,33.3245,36.7816,169.418,100.474,99.6175,0.01112604,0.06381917,20.8763,58.8454,0.0776481,0,0
72,17.75,33.3217,36.3202,170.64,100.472,99.7786,0.010913,0.0637425,20.8764,58.9254,0.0627689,0,0
80,19.75,34.5091,35.9791,169.653,100.475,99.6809,0.0108442,0.0636334,20.8764,58.8754,0.0719169,0,0
88,21.75,33.2253,36.9807,165.701,100.485,99.3196,0.0110373,0.0634319,20.876,58.8854,0.105786,0,0
96,23.75,35.1561,36.141,170.976,100.499,99.8077,0.0112775,0.0633716,20.8758,58.8854,0.0625703,0,0
104,25.75,34.274,36.5407,168.677,100.503,99.3222,0.0113417,0.0634099,20.8757,58.8654,0.107127,0,0
112,27.75,34.0843,36.6356,174.467,100.52,99.439,0.0111491,0.0633566,20.8756,58.8454,0.0980854,0,0
120,29.75,34.617,37.0623,172.967,100.516,98.9569,0.0108699,0.0632762,20.8769,58.7453,0.141774,0,0
128,31.75,34.8307,36.6216,168.891,100.508,98.9817,0.0107672,0.0633026,20.8779,58.7252,0.138717,0,0
136,33.75,35.4637,36.2972,173.226,100.522,98.9504,0.0108586,0.0633107,20.8777,58.7853,0.142898,0,0
144,35.75,34.534,36.6676,168.057,100.531,99.3452,0.011016,0.06346079,20.8769,58.7553,0.107583,0,0
152,37.75,33.8744,37.7754,169.768,100.545,98.7394,0.01110058,0.0635196,20.8767,58.7653,0.164365,0,0
160,39.75,35.3533,36.7234,167.964,100.558,98.8028,0.0111749,0.0636443,20.8765,58.6652,0.159673,0,0
168,41.75,35.1568,36.3405,169.179,100.564,98.4089,0.0111935,0.06376303,20.8765,58.6852,0.196421,0,0
176,43.75,35.8303,37.1405,168.281,100.586,98.6264,0.0112302,0.063935,20.876,58.7252,0.178423,0,0
184,45.75,34.501,37.4202,161.892,100.585,97.6259,0.0113881,0.0641285,20.8748,58.6752,0.270737,0,0
192,47.75,34.4758,37.9145,172.54,100.596,97.5811,0.0115878,0.0644038,20.8743,58.6552,0.275907,0,0
200,49.75,36.0474,37.1451,171.228,100.603,97.6684,0.0117145,0.0645713,20.8728,58.6151,0.268476,0,0
208,51.75,34.4972,37.34,166.931,100.61,98.068,0.0118541,0.0656352,20.8721,58.5751,0.232022,0,0
216,53.75,35.4794,36.5896,171.317,100.631,97.1629,0.0120344,0.0709797,20.8669,58.5551,0.317971,0,0
224,55.75,35.0255,38.2006,165.235,100.634,99.6839,0.0122114,0.0984334,20.8278,58.5551,0.086038,0,1
232,57.75,36.8068,39.9698,161.021,100.65,99.4855,0.0123871,0.146564,20.7767,58.505,0.105537,0,1
240,59.75,38.0199,41.5115,157.596,100.668,100.124,0.0125315,0.188375,20.7354,58.2548,0.0490737,0,1
248,61.75,39.1308,42.8651,162.367,100.676,98.8575,0.0126961,0.220894,20.7061,58.0946,0.165246,0,0
256,63.75,40.5385,45.5555,167.1,100.682,99.5241,0.0128504,0.242472,20.6799,57.9745,0.104868,0,0
264,65.75,41.6199,46.6298,159.236,100.688,99.1198,0.0130007,0.255279,20.6641,57.7743,0.14238,0,0
272,67.75,42.4633,48.8088,165.553,100.69,99.2696,0.0131932,0.265037,20.6564,57.6142,0.128835,0,0
280,69.75,42.8434,50.1561,158.817,100.696,98.7537,0.01330604,0.270876,20.6508,57.414,0.176611,0,0
288,71.75,44.4252,50.1687,155.705,100.688,98.4818,0.0133363,0.276588,20.6446,57.2839,0.200895,0,0
296,73.75,44.0703,52.382,156.152,100.702,99.1706,0.0133885,0.28006,20.6416,57.1538,0.138935,0,0
304,75.75,44.6128,53.799,158.159,100.693,97.8704,0.0133384,0.281441,20.6394,56.8735,0.257784,0,0
312,77.75,45.6705,53.8982,159.438,100.704,99.3678,0.0132787,0.281454,20.6384,56.7434,0.121113,0,0
320,79.75,46.2078,53.7393,160.004,100.708,99.0056,0.0133169,0.281378,20.637,56.6032,0.154563,0,0
328,81.75,47.285,54.577,159.641,100.725,98.3733,0.01339934,0.283158,20.6361,56.393,0.214199,0,0
336,83.75,45.8495,55.5107,155.942,100.73,98.4996,0.0133954,0.282367,20.6361,56.2529,0.203046,0,0
344,85.75,46.234,55.9416,163.357,100.737,97.7501,0.0133428,0.280272,20.6373,56.1028,0.272914,0,0
352,87.75,46.552,55.9648,161.551,100.744,99.5502,0.0133359,0.278911,20.6395,55.9726,0.108123,0,0
360,89.75,48.412,55.8292,161.187,100.741,98.1791,0.0134276,0.277273,20.6411,55.8225,0.233537,0,0
368,91.75,48.4237,55.4718,155.302,100.736,97.5429,0.0134704,0.274513,20.6437,55.6423,0.292113,0,0
376,93.75,48.0592,56.8289,154.166,100.759,99.0234,0.013457,0.272314,20.6464,55.4622,0.157547,0,0
384,95.75,48.8457,56.1665,161.157,100.763,100.034,0.01343,0.270337,20.649,55.302,0.0657752,0,0
392,97.75,48.3698,56.424,160.86,100.766,98.2595,0.0133264,0.266644,20.6525,55.1419,0.228408,0,0
400,99.75,47.5356,57.0782,160.187,100.774,98.9713,0.01324691,0.265759,20.655,55.0117,0.163634,0,0
408,101.75,48.7605,56.5785,152.71,100.781,99.1307,0.0132778,0.264377,20.6568,54.8816,0.14968,0,0
416,103.75,49.3026,55.9777,157.283,100.783,98.7342,0.0133702,0.262438,20.6593,54.7115,0.186246,0,0
424,105.75,49.0864,55.4376,161.941,100.776,98.7411,0.0134371,0.259379,20.6612,54.5013,0.184971,0,0
432,107.75,48.6286,55.4465,163.318,100.783,98.8045,0.0134778,0.256818,20.6632,54.4012,0.179751,0,0
440,109.75,48.2958,56.4363,158.165,100.776,98.4445,0.01345528,0.254568,20.6657,54.2811,0.212289,0,0
448,111.75,47.8201,56.062,162.193,100.789,98.4549,0.0133207,0.252628,20.6671,54.1109,0.212417,0,0
456,113.75,48.9377,55.0848,159.12,100.785,99.2496,0.0132158,0.250761,20.6694,53.9708,0.139214,0,0
464,115.75,48.8874,54.9294,161.045,100.785,98.8054,0.0131936,0.249264,20.6711,53.8406,0.179895,0,0
472,117.75,49.2718,55.2875,159.348,100.789,99.462,0.0131735,0.246647,20.6745,53.6605,0.120209,0,0
480,119.75,49.287,55.0887,163.754,100.783,99.4624,0.0132003,0.243839,20.6784,53.4503,0.119569,0,0
488,121.75,48.5415,55.4111,156.705,100.796,99.7195,0.013362,0.241173,20.6813,53.3502,0.0973604,0,0
496,123.75,48.4855,55.1249,159.496,100.783,99.6527,0.0135164,0.239903,20.6828,53.2501,0.102244,0,0
504,125.75,47.7258,55.5424,157.253,100.798,99.1241,0.0135297,0.239169,20.6839,53.11,0.151851,0,0
512,127.75,48.7243,55.1997,158.46,100.796,99.4112,0.0134252,0.237364,20.6868,52.9598,0.125479,0,0
520,129.75,49.4732,55.0359,156.638,100.793,99.9428,0.0133006,0.234929,20.6891,52.7897,0.0768228,0,0
528,131.75,48.5354,55.6535,161.613,100.786,99.6831,0.01319449,0.231798,20.6914,52.6495,0.09974058,0,0
536,133.75,48.7268,54.5993,160.766,100.79,99.4955,0.0131867,0.228984,20.6948,52.5695,0.117197,0,0
544,135.75,48.3526,54.7834,159.212,100.794,99.5193,0.0132067,0.227722,20.6964,52.4093,0.115396,0,0
552,137.75,49.1015,53.9407,158.743,100.798,98.9639,0.0132873,0.227259,20.6969,52.2892,0.166485,0,0
560,139.75,49.2716,54.4027,156.434,100.806,98.8653,0.0132523,0.226043,20.6973,52.099,0.176273,0,0
568,141.75,48.2375,54.8544,163.28,100.799,98.6586,0.013142,0.225082,20.6987,51.9789,0.194614,0,0
576,143.75,48.5592,53.944,157.539,100.804,99.1702,0.0130899,0.224614,20.7006,51.8688,0.148166,0,0
584,145.75,48.7094,53.5247,160.279,100.806,99.7643,0.0130635,0.22355,20.7017,51.7086,0.094157,0,0
592,147.75,48.5028,54.5076,160.165,100.817,99.8993,0.0130841,0.221435,20.7033,51.5585,0.0829388,0,0
600,149.75,47.7496,54.472,160.601,100.812,99.3261,0.0131857,0.220711,20.704,51.4284,0.134672,0,0
608,151.75,49.4009,53.7924,162.003,100.817,99.1419,0.0132655,0.219388,20.7054,51.3483,0.151948,0,0
616,153.75,48.7824,54.2235,160.543,100.816,100.423,0.0133856,0.217792,20.7066,51.1982,0.035374,0,0
624,155.75,48.6794,53.32584,153.996,100.814,99.0012,0.0135778,0.216967,20.708,51.008,0.164526,0,0
632,157.75,48.7552,54.4165,158.268,100.816,99.9749,0.0137254,0.216361,20.7086,50.8879,0.0759321,0,0
640,159.75,47.7679,54.9469,161.875,100.816,99.5419,0.0136837,0.215796,20.7091,50.7377,0.115327,0,0
648,161.75,49.2619,53.7068,161.363,100.816,99.2688,0.0135538,0.213806,20.7114,50.5976,0.140244,0,0
656,163.75,49.3148,54.2798,157.712,100.824,98.9235,0.0135359,0.212434,20.7127,50.5175,0.172511,0,0
664,165.75,48.5539,53.385,162.022,100.813,99.5615,0.0136196,0.211755,20.7133,50.3273,0.113247,0,0
672,167.75,48.731,55.0074,158.731,100.84,99.3647,0.0137814,0.212187,20.7133,50.1772,0.133656,0,0
680,169.75,48.9235,54.2221,156.863,100.82,99.6353,0.01379234,0.21209,20.7122,50.0571,0.1072,0,0
688,171.75,48.2117,54.9177,159.817,100.832,99.74,0.0136307,0.211649,20.7131,49.977,0.0987291,0,0
696,173.75,49.5215,54.3092,158.924,100.834,100.36,0.013456,0.211683,20.7134,49.8569,0.04271223,0,0
704,175.75,49.3325,53.6775,161.894,100.816,100.461,0.0133735,0.211017,20.7149,49.7068,0.0319623,0,0
712,177.75,48.505,54.5341,160.588,100.834,98.5383,0.0133396,0.209873,20.7155,49.5967,0.20879,0,0
720,179.75,49.4467,54.2182,157.053,100.824,99.4208,0.0133612,0.207368,20.7171,49.4665,0.127083,0,0
728,181.75,49.5662,54.1049,158.18,100.825,99.6996,0.01341923,0.206428,20.718,49.3364,0.101802,0,0
736,183.75,49.6827,53.8332,163.884,100.831,99.9697,0.0133991,0.206029,20.7194,49.1662,0.0777542,0,0
744,185.75,48.7792,53.2457,159.907,100.827,99.6023,0.01335,0.205623,20.7203,49.0461,0.1108035,0,0
752,187.75,49.7641,53.7499,161.525,100.82,100.141,0.0133143,0.20493,20.7216,48.916,0.0612734,0,0
760,189.75,48.9794,53.5839,156.245,100.829,99.7712,0.0132799,0.20332,20.7231,48.8259,0.095662,0,0
768,191.75,48.7437,54.5347,160.26,100.821,99.1485,0.0132197,0.202272,20.7249,48.6157,0.151727,0,0
776,193.75,48.4165,53.962,161.004,100.823,99.7374,0.0132657,0.201453,20.7254,48.4556,0.0981795,0,0
784,195.75,48.8804,53.4128,159.996,100.832,99.6131,0.013405,0.202188,20.7251,48.3955,0.1102653,0,0
792,197.75,49.5553,53.8331,156.216,100.832,99.3791,0.0135334,0.201361,20.725,48.2654,0.131599,0,0
800,199.75,49.4504,53.7587,158.175,100.83,99.5567,0.0135558,0.200688,20.7249,48.1053,0.115256,0,0
808,201.75,49.834,54.1257,158.689,100.829,99.8768,0.0136013,0.201153,20.7249,48.0152,0.0860766,0,0
816,203.75,48.5135,54.9028,161.773,100.839,99.5024,0.0136688,0.201173,20.7249,47.9151,0.120952,0,0
824,205.75,48.2732,54.0819,159.308,100.828,100.305,0.0137021,0.201603,20.7253,47.7049,0.047134,0,0
832,207.75,48.4887,54.355,158.685,100.832,99.8611,0.0137811,0.201151,20.7261,47.6148,0.0877585,0,0
840,209.75,50.1169,53.9084,161.92,100.836,100.429,0.0138695,0.200788,20.7255,47.5147,0.0366617,0,0
848,211.75,49.9346,53.5758,161.227,100.833,99.8181,0.0138257,0.201319,20.7248,47.3746,0.0917379,0,0
856,213.75,49.3779,54.0878,161.188,100.831,100.134,0.0137234,0.201694,20.7245,47.1944,0.0629514,0,0
864,215.75,48.3188,54.4559,160.213,100.83,100.296,0.0136311,0.200914,20.7243,47.0943,0.0481061,0,0
872,217.75,49.1024,54.2524,155.548,100.824,99.789,0.013602,0.200502,20.7243,46.9642,0.0935568,0,0
880,219.75,50.1188,53.7216,162.198,100.831,100.961,0.0135587,0.20032,20.7247,46.8341,-0.0117331,0,0
888,221.75,49.4765,53.1057,159.867,100.827,99.8481,0.0134337,0.199955,20.7259,46.6939,0.0884907,0,0
896,223.75,49.4216,53.3966,161.34,100.819,100.076,0.0133885,0.198628,20.7276,46.5738,0.06709832,0,0
904,225.75,49.452,53.1945,160.244,100.826,100.837,0.0134712,0.19708,20.7283,46.4637,-0.000981551,0,0
912,227.75,48.5735,54.1106,159.33,100.817,99.7608,0.0136145,0.195972,20.7286,46.2935,0.0955219,0,0
920,229.75,50.1047,53.7831,160.323,100.805,99.9523,0.0138018,0.196443,20.7287,46.1534,0.0770061,0,0
928,231.75,49.6737,52.9128,160.646,100.804,100.199,0.0138951,0.19711,20.7276,46.0433,0.0545799,0,0
936,233.75,50.3634,53.8252,159.172,100.806,99.6614,0.0139149,0.197913,20.7265,45.9132,0.103516,0,0
944,235.75,49.258,54.6243,161.76,100.814,100.004,0.0139197,0.199171,20.7252,45.763,0.07314574,0,0
952,237.75,50.0981,54.1309,163.248,100.791,99.6301,0.01398639,0.198905,20.7256,45.6129,0.105012,0,0
960,239.75,50.3555,53.8958,162.832,100.779,99.7426,0.0139536,0.198806,20.7261,45.5228,0.09369269,0,0
968,241.75,50.2535,53.7186,157.251,100.772,98.7198,0.0138573,0.199009,20.7253,45.3927,0.186551,0,0
976,243.75,50.4891,54.0575,162.982,100.77,99.7317,0.013798,0.198508,20.7247,45.2826,0.0938927,0,0
984,245.75,48.6422,54.0357,157.505,100.761,99.6839,0.01374194,0.198338,20.7252,45.1024,0.0974481,0,0
992,247.75,49.0861,54.8844,163.403,100.752,99.148,0.013705,0.198861,20.7259,44.9423,0.145503,0,0
1000,249.75,50.0507,54.0944,158.633,100.759,98.7038,0.0137435,0.198997,20.7263,44.8722,0.186902,0,0
1008,251.75,49.5343,54.5481,155.392,100.753,99.4568,0.0137735,0.198841,20.7264,44.7521,0.11742,0,0
1016,253.75,50.5579,54.2121,160.731,100.75,99.8338,0.0137645,0.198726,20.7265,44.5419,0.0828552,0,0
1024,255.75,48.7067,54.6292,156.228,100.747,99.647,0.01373898,0.198729,20.7265,44.4919,0.0995695,0,0
1032,257.75,50.4762,54.3553,156.766,100.737,98.9569,0.0136693,0.199287,20.7265,44.3517,0.161645,0,0
1040,259.75,49.393,54.2219,162.472,100.727,100.032,0.0136747,0.198529,20.7265,44.2316,0.0628215,0,0
1048,261.75,50.5135,53.8933,163.466,100.716,99.8316,0.013748,0.197938,20.7265,44.1015,0.0799756,0,0
1056,263.75,48.94,54.4964,159.063,100.715,99.6939,0.0137814,0.198861,20.7269,43.9613,0.0923756,0,0
1064,265.75,50.2946,53.6118,160.85,100.701,98.7315,0.01384,0.198778,20.7271,43.8412,0.179095,0,0
1072,267.75,48.768,54.9585,161.887,100.693,99.908,0.0139544,0.197626,20.7273,43.6711,0.0709334,0,0
1080,269.75,49.5576,53.0264,161.386,100.693,99.9315,0.0139946,0.196668,20.7284,43.571,0.0688793,0,0
1088,271.75,48.9435,54.3628,156.817,100.673,99.4655,0.0138793,0.196726,20.7291,43.4509,0.109423,0,0
1096,273.75,49.3735,54.6986,158.087,100.66,99.5237,0.0138324,0.19687,20.7289,43.3107,0.102955,0,0
1104,275.75,50.2741,54.0243,159.003,100.652,99.9614,0.0139179,0.196349,20.7289,43.2106,0.0624447,0,0
1112,277.75,49.2667,54.1189,160.739,100.638,99.4008,0.0140973,0.196607,20.7288,43.0805,0.112132,0,0
1120,279.75,48.8605,54.3977,164.26,100.621,99.5432,0.0141514,0.196865,20.7288,42.9204,0.0976438,0,0
1128,281.75,49.9175,53.2751,157.837,100.606,99.7947,0.0140875,0.196297,20.7277,42.8103,0.0733773,0,0
1136,283.75,49.8513,52.9524,160.589,100.579,99.7591,0.014036,0.197089,20.727,42.6801,0.0742469,0,0
1144,285.75,50.0406,53.9198,153.751,100.562,99.6757,0.0139799,0.197522,20.7267,42.52,0.0802499,0,0
1152,287.75,48.7348,53.9997,160.935,100.552,99.604,0.0138982,0.197278,20.7266,42.4099,0.0858688,0,0
1160,289.75,49.9121,53.9682,157.109,100.528,99.6323,0.0137582,0.196962,20.7266,42.3098,0.0811938,0,0
1168,291.75,49.1923,55.0051,164.109,100.493,99.5702,0.0136183,0.197098,20.7265,42.1797,0.08361461,0,0
1176,293.75,50.6536,54.2729,156.161,100.471,99.611,0.013654,0.197909,20.7265,42.0696,0.0779782,0,0
1184,295.75,50.6281,54.5911,160.104,100.444,100.344,0.0138178,0.198878,20.7252,41.9595,0.009007363,0,0
1192,297.75,50.164,53.5012,158.892,100.41,99.3712,0.0138933,0.199026,20.7246,41.7793,0.0942575,0,0
1200,299.75,50.1523,53.5529,157.243,100.397,99.3526,0.0138176,0.199078,20.725,41.6392,0.0947945,0,0
1208,301.75,50.4008,53.8443,158.706,100.373,99.4759,0.0136698,0.199397,20.7249,41.509,0.08139839,0,0
1216,303.75,49.816,55.3303,154.157,100.345,99.5159,0.0135236,0.20041,20.7241,41.3989,0.0752343,0,0
1224,305.75,50.6278,54.7174,153.04,100.298,99.7582,0.0134765,0.200403,20.7238,41.2388,0.0489221,0,0
1232,307.75,50.4581,54.0101,158.442,100.252,99.3712,0.0135043,0.201079,20.7237,41.0886,0.0800549,0,0
1240,309.75,49.3587,55.3184,160.22,100.227,99.277,0.0135355,0.201598,20.7236,40.9485,0.0863582,0,0
1248,311.75,50.9849,54.5442,158.861,100.196,98.7441,0.0135321,0.201033,20.7249,40.8384,0.13233,0,0
1256,313.75,50.0772,55.6293,158.117,100.172,98.9,0.0134618,0.200447,20.7254,40.7683,0.115874,0,0
1264,315.75,50.2567,54.9296,160.061,100.134,98.7107,0.0133547,0.200665,20.7258,40.6683,0.129854,0,0
1272,317.75,51.0824,54.56,161.595,100.097,98.5231,0.0132646,0.201337,20.725,40.5582,0.143744,0,0
1280,319.75,49.7698,55.8959,156.279,100.064,99.3417,0.01322776,0.202548,20.7247,40.378,0.0656915,0,0
1288,321.75,50.4519,55.2431,157.992,100.032,99.0911,0.0132219,0.202553,20.7245,40.2479,0.0857211,0,0
1296,323.75,50.5745,55.6965,166.502,99.9861,99.0117,0.0131892,0.201697,20.7238,40.1277,0.08880116,0,0
1304,325.75,50.7942,54.4551,161.351,99.9427,98.9734,0.0131874,0.201692,20.7234,39.9976,0.0883698,0,0
1312,327.75,51.3364,55.2909,161.419,99.9069,99.5984,0.01325797,0.202406,20.7233,39.8775,0.0280417,0,0
1320,329.75,50.4879,56.169,158.731,99.8548,97.9233,0.0133662,0.202908,20.7232,39.7974,0.177107,0,0
1328,331.75,51.6029,55.3018,156.276,99.8197,97.671,0.0133748,0.203452,20.7232,39.6273,0.197321,0,0
1336,333.75,50.3488,56.1284,159.025,99.7651,98.3342,0.0132957,0.203853,20.723,39.5172,0.131001,0,0
1344,335.75,51.6799,55.359,165.3,99.7139,98.4888,0.0132177,0.203814,20.7218,39.387,0.112095,0,0
1352,337.75,51.0887,55.3801,159.625,99.6609,98.547,0.0132597,0.204933,20.7208,39.2669,0.101923,0,0
1360,339.75,50.781,54.2203,159.507,99.6151,98.0098,0.0133232,0.205135,20.7204,39.0667,0.147316,0,0
1368,341.75,50.5496,55.7757,158.711,99.5996,99.0607,0.0132458,0.205698,20.7194,38.9667,0.0491963,0,0
1376,343.75,51.3035,55.2355,158.205,99.5634,98.0866,0.0131042,0.205375,20.7185,38.8265,0.1355,0,0
1384,345.75,50.8373,55.2683,153.998,99.5242,98.5739,0.013078,0.206714,20.7181,38.7264,0.08699733,0,0
1392,347.75,51.6641,55.1805,162.954,99.4896,99.0955,0.0132936,0.207513,20.7182,38.5463,0.035992,0,0
1400,349.75,51.3864,54.4395,156.896,99.4475,98.4362,0.0135217,0.207448,20.7186,38.3361,0.0926784,0,0
1408,351.75,51.9574,55.3824,156.206,99.4054,99.1732,0.0136189,0.207441,20.7187,38.306,0.0212039,0,0
1416,353.75,50.2155,56.0802,158.774,99.3645,98.7311,0.0137059,0.207806,20.7177,38.1859,0.0579895,0,0
1424,355.75,51.1434,54.8907,157.838,99.3279,98.5079,0.0137907,0.208521,20.717,38.0858,0.0751657,0,0
1432,357.75,51.9701,55.5849,161.429,99.2883,98.4692,0.0138446,0.2088155,20.7153,37.9957,0.0751078,0,0
1440,359.75,52.5133,55.8763,157.402,99.2249,98.3594,0.01377141,0.209434,20.7142,37.8456,0.07944309,0,0
1448,361.75,51.4532,55.103,164.434,99.182,98.3819,0.0135791,0.210023,20.7137,37.7155,0.0734374,0,0
1456,363.75,52.546,56.2462,159.077,99.1457,98.18,0.0133935,0.210254,20.7135,37.5753,0.088753,0,0
1464,365.75,52.276,56.0901,159.532,99.0932,97.4578,0.0133444,0.210743,20.7134,37.4652,0.150897,0,0
1472,367.75,51.3903,55.7091,157.399,99.0552,98.2291,0.0133675,0.211463,20.7123,37.3752,0.075945,0,0
1480,369.75,51.6073,56.2128,160.849,99.0102,98.3033,0.0134059,0.213083,20.7115,37.175,0.0649704,0,0
1488,371.75,51.6017,57.2618,159.006,98.9752,98.5635,0.0133755,0.214485,20.711,37.0448,0.0377985,0,0
1496,373.75,52.0838,55.6455,160.875,98.941,97.4634,0.0132377,0.21445,20.7108,36.9748,0.136438,0,0
1504,375.75,52.4655,55.8106,156.599,98.9072,98.5743,0.0130697,0.214421,20.7107,36.8647,0.0305727,0,0
1512,377.75,52.4301,55.7814,157.912,98.8822,97.8929,0.0129559,0.213749,20.7111,36.6645,0.0911772,0,0
1520,379.75,52.1919,55.5921,161.471,98.8443,97.5681,0.01298563,0.213067,20.7122,36.5944,0.117838,0,0
1528,381.75,51.4232,57.2166,157.715,98.8205,97.6554,0.01302516,0.212751,20.7126,36.4843,0.107548,0,0
1536,383.75,51.2417,57.1745,155.715,98.8014,98.5461,0.0130295,0.213382,20.7122,36.3542,0.0234575,0,0
1544,385.75,51.1046,57.0607,160.362,98.7726,98.3841,0.0130969,0.214358,20.7113,36.2241,0.0357347,0,0
1552,387.75,51.3634,57.3722,155.985,98.7805,98.0866,0.0131451,0.21469,20.7097,36.0539,0.0639207,0,0
1560,389.75,51.8099,57.5201,161.349,98.773,97.2537,0.0130862,0.215855,20.7082,35.9438,0.140565,0,0
1568,391.75,52.2184,57.731,152.404,98.7676,98.4718,0.013017,0.215871,20.707,35.8037,0.0271936,0,0
1576,393.75,51.8782,56.985,160.849,98.773,98.5096,0.0130048,0.215198,20.7062,35.6635,0.0242132,0,0
1584,395.75,52.2562,56.7581,160.084,98.7768,97.9742,0.0129762,0.215704,20.7057,35.6035,0.073981,0,0
1592,397.75,51.9875,57.7479,158.658,98.7839,98.1396,0.0129012,0.219114,20.7032,35.4533,0.0593309,0,0
1600,399.75,52.2737,57.156,159.541,98.7901,97.9125,0.0128296,0.219945,20.702,35.3533,0.0809152,0,0
1608,401.75,52.5154,57.5545,154.003,98.8147,98.137,0.0127864,0.219717,20.7018,35.1631,0.0624018,0,0
1616,403.75,52.6584,57.0443,155.863,98.8272,98.3003,0.0128677,0.220967,20.7017,35.0129,0.0484749,0,0
1624,405.75,52.4538,57.9351,162.779,98.851,97.8625,0.0130225,0.222056,20.7004,34.8928,0.0911258,0,0
1632,407.75,52.6572,57.8865,159.165,98.8885,97.7544,0.0130849,0.222784,20.699,34.7627,0.104591,0,0
1640,409.75,51.9127,57.5532,160.839,98.9139,98.4102,0.013074,0.223589,20.6979,34.6626,0.0462974,0,0
1648,411.75,53.0104,56.8023,155.86,98.9256,97.4969,0.0130951,0.223547,20.6974,34.5225,0.131913,0,0
1656,413.75,52.1762,58.0378,154.389,98.976,98.5591,0.0131838,0.224166,20.6972,34.3823,0.0382743,0,0
1664,415.75,52.251,57.5831,159.645,99.0144,98.7085,0.0131582,0.22481,20.6964,34.2622,0.0280536,0,0
1672,417.75,53.0486,57.5111,157.983,99.0644,98.1995,0.0130882,0.2252,20.6955,34.1621,0.0795106,0,0
1680,419.75,53.2578,57.9043,160.908,99.0978,98.1748,0.0130804,0.225325,20.6944,34.052,0.0848483,0,0
1688,421.75,53.1406,56.9847,158.333,99.1419,98.4619,0.0131385,0.226301,20.6934,33.9519,0.0624157,0,0
1696,423.75,53.3181,57.0848,153.064,99.1886,98.3646,0.0131839,0.227662,20.6929,33.7718,0.0756481,0,0
1704,425.75,52.5914,58.8636,162.056,99.2407,98.7628,0.0131083,0.227991,20.6909,33.6717,0.043773,0,0
1712,427.75,53.3109,57.4025,163.263,99.2933,98.636,0.01297274,0.229444,20.6892,33.5215,0.0602212,0,0
1720,429.75,52.812,58.8698,160.547,99.3416,98.3724,0.0128113,0.230447,20.6885,33.3914,0.0889028,0,0
1728,431.75,54.1239,58.1357,156.398,99.382,98.0979,0.01273157,0.230894,20.6868,33.2513,0.117927,0,0
1736,433.75,53.9646,58.1544,159.038,99.4192,98.0971,0.0128611,0.231885,20.6857,33.1312,0.121392,0,0
1744,435.75,53.1279,57.3916,155.954,99.4567,98.56,0.0130912,0.232433,20.6852,33.0211,0.0821204,0,0
1752,437.75,53.0519,58.8696,161.1,99.5038,98.3576,0.0132442,0.23302,20.685,32.8509,0.105053,0,0
1760,439.75,52.4096,58.9172,159.62,99.5275,98.732,0.0132113,0.234269,20.6848,32.7808,0.0727704,0,0
1768,441.75,53.439,58.5129,155.713,99.5692,99.2627,0.0130686,0.235087,20.6848,32.5706,0.0279587,0,0
1776,443.75,54.0093,57.9435,165.538,99.6096,98.9548,0.0130024,0.23517,20.6852,32.4505,0.059812,0,0
1784,445.75,54.398,58.7198,156.938,99.6468,98.7854,0.012964,0.236185,20.6842,32.3704,0.0787219,0,0
1792,447.75,53.7533,58.7896,153.841,99.6959,98.7368,0.0129931,0.238942,20.6812,32.1803,0.0876632,0,0
1800,449.75,53.675,59.1712,159.869,99.7364,99.5028,0.0130743,0.240882,20.6787,32.0602,0.0212567,0,0
1808,451.75,54.5373,59.1767,157.76,99.7726,98.5683,0.0131821,0.243126,20.6764,31.92,0.110124,0,0
1816,453.75,54.8833,59.2451,157.79,99.8114,98.4801,0.0132572,0.245376,20.6751,31.7699,0.12176,0,0
1824,455.75,54.3483,58.5155,159.207,99.8685,99.2418,0.01318217,0.245498,20.674,31.6498,0.0570798,0,0
1832,457.75,54.1187,60.3625,156.422,99.9027,98.8458,0.0130391,0.245431,20.6727,31.5597,0.0964439,0,0
1840,459.75,54.8637,59.7943,156.167,99.9498,98.5083,0.0129223,0.245868,20.6722,31.3595,0.131726,0,0
1848,461.75,55.1307,59.535,155.364,99.9857,98.7507,0.0128885,0.248291,20.671,31.2394,0.112699,0,0
1856,463.75,53.6939,60.6225,156.055,100.01,98.5018,0.0129187,0.250662,20.6685,31.0892,0.137808,0,0
1864,465.75,54.831,61.0571,154.787,100.036,98.5322,0.0129316,0.252202,20.6665,30.9291,0.137353,0,0
1872,467.75,54.9992,60.4855,153.27,100.074,99.3934,0.0129435,0.253232,20.6657,30.809,0.06184458,0,0
1880,469.75,54.9233,60.7982,154.28,100.1,98.2139,0.0129455,0.254234,20.6642,30.6789,0.172513,0,0
1888,471.75,55.6215,60.9548,154.805,100.129,99.0625,0.0129915,0.256447,20.662,30.5187,0.0971455,0,0
1896,473.75,55.3576,60.7206,156.121,100.16,99.5476,0.013061,0.257757,20.6611,30.3886,0.0556048,0,0
1904,475.75,55.4269,60.0925,156.032,100.176,99.0108,0.01313746,0.258564,20.6606,30.2384,0.106104,0,0
1912,477.75,55.5855,61.0598,155.393,100.199,98.256,0.0132394,0.260537,20.6576,30.0683,0.177568,0,0
1920,479.75,55.3966,62.1898,161.268,100.224,98.5839,0.01331333,0.263799,20.6544,29.9482,0.149623,0,0
1928,481.75,55.6829,61.1057,150.697,100.24,98.9187,0.01333787,0.266066,20.6525,29.788,0.120348,0,0
1936,483.75,56.8176,61.7975,153.996,100.265,99.3448,0.0133557,0.26705,20.6509,29.5278,0.08364138,0,0
1944,485.75,55.8962,62.6534,153.288,100.276,98.5839,0.0133413,0.269105,20.6485,29.4477,0.154336,0,0
1952,487.75,56.359,62.2934,156,100.278,98.332,0.01323889,0.27111,20.645,29.3576,0.177685,0,0
1960,489.75,56.2896,62.0403,153.672,100.28,98.9309,0.0130917,0.274255,20.6415,29.1674,0.122853,0,0
1968,491.75,56.4252,61.9386,154.946,100.288,98.7116,0.0129872,0.276651,20.6389,29.0373,0.143655,0,0
1976,493.75,57.1387,62.189,151.704,100.299,98.4271,0.0129301,0.279055,20.637,28.8571,0.170841,0,0
1984,495.75,57.3791,62.494,156.777,100.292,98.3798,0.0128303,0.280112,20.6361,28.717,0.174524,0,0
1992,497.75,57.3697,63.0906,156.614,100.285,99.3313,0.0128222,0.281831,20.633,28.5669,0.0866419,0,0
2000,499.75,57.4234,62.812,151.242,100.284,98.5257,0.0129512,0.284764,20.63,28.4067,0.160368,0,0
2008,501.75,57.9297,63.5774,153.093,100.269,99.4902,0.0130683,0.28703,20.6275,28.2266,0.0707114,0,0
2016,503.75,57.2774,63.8526,158.218,100.25,98.0167,0.0131187,0.288122,20.6256,28.0864,0.204317,0,0
2024,505.75,58.1433,63.9558,155.257,100.24,98.5105,0.0131883,0.291909,20.6217,27.9163,0.157848,0,0
2032,507.75,57.9787,63.7965,158.233,100.22,98.2999,0.0132724,0.295124,20.6182,27.7161,0.175407,0,0
2040,509.75,57.8575,63.5623,156.818,100.193,97.9455,0.0133402,0.296894,20.6155,27.5359,0.205704,0,0
2048,511.75,58.7415,64.485,155.183,100.176,97.7887,0.0133926,0.299631,20.6119,27.3557,0.21872,0,0
2056,513.75,58.2264,65.3033,158.707,100.142,98.3628,0.0134651,0.301741,20.6093,27.1756,0.162545,0,0
2064,515.75,58.4315,65.6563,148.227,100.126,97.7401,0.01362681,0.304246,20.6074,27.0755,0.218704,0,0
2072,517.75,58.9723,64.6504,157.433,100.082,99.1102,0.0138121,0.307369,20.6041,26.8352,0.0884683,0,0
2080,519.75,59.4612,65.6919,155.669,100.049,98.104,0.0138292,0.309947,20.6008,26.6851,0.177978,0,0
2088,521.75,59.5343,65.6557,153.971,100.022,98.3489,0.0138618,0.311842,20.5979,26.4849,0.152912,0,0
2096,523.75,60.0055,66.3256,145.912,100.005,97.0152,0.0139866,0.314816,20.5952,26.3248,0.275244,0,0
2104,525.75,59.6736,65.7689,154.668,99.9761,97.7813,0.01412052,0.318381,20.5908,26.1246,0.201276,0,0
2112,527.75,59.5477,67.4417,154.191,99.9611,97.7766,0.014192,0.321584,20.587,25.9244,0.200358,0,0
2120,529.75,59.82,67.7464,152.129,99.9548,97.3614,0.0140829,0.324535,20.5835,25.7442,0.238375,0,0
2128,531.75,60.2692,67.8678,154.231,99.9481,98.3112,0.0139049,0.327934,20.5809,25.6041,0.149742,0,0
2136,533.75,60.4821,67.5489,154.175,99.9152,97.8452,0.0137391,0.331402,20.5761,25.4239,0.189836,0,0
2144,535.75,60.0897,68.9341,153.501,99.904,97.9173,0.0136734,0.334268,20.574,25.1837,0.182136,0,0
2152,537.75,60.0533,68.5126,156.726,99.8931,98.2291,0.01361155,0.336648,20.5714,25.0035,0.152322,0,0
2160,539.75,61.2097,68.787,152.452,99.8894,96.7929,0.013641,0.339574,20.5676,24.8233,0.285536,0,0
2168,541.75,60.4911,68.9038,154.451,99.8673,98.309,0.0137557,0.342609,20.5634,24.6132,0.142603,0,0
2176,543.75,61.513,69.2401,152.009,99.8652,97.6589,0.0138243,0.346104,20.5592,24.413,0.202578,0,0
2184,545.75,61.0999,70.0211,149.643,99.9419,98.1752,0.013774,0.349978,20.5557,24.2128,0.161721,0,0
2192,547.75,62.0693,69.2155,154.008,100.034,98.2903,0.0136782,0.351758,20.5529,23.9926,0.15949,0,0
2200,549.75,62.6677,70.1595,149.444,100.122,97.5168,0.0135852,0.355004,20.5494,23.8524,0.239096,0,0
2208,551.75,62.3297,69.6081,150.932,100.229,97.5542,0.0135542,0.356793,20.5473,23.5722,0.245284,0,0
2216,553.75,61.7378,70.9602,155.523,100.299,97.9833,0.0135407,0.357918,20.5457,23.372,0.211784,0,0
2224,555.75,63.6839,70.6656,150.867,100.38,97.3644,0.0135639,0.358565,20.5449,23.1418,0.276545,0,0
2232,557.75,62.767,71.6975,145.83,100.454,98.7272,0.0136775,0.359922,20.5441,22.9916,0.157245,0,0
2240,559.75,62.7796,71.7962,152.295,100.518,97.2068,0.0138714,0.361678,20.5423,22.7914,0.303731,0,0
2248,561.75,63.0461,71.4268,159.283,100.561,97.8686,0.0140897,0.363064,20.5406,22.5712,0.246038,0,0
2256,563.75,63.483,72.0802,150.131,100.611,97.8382,0.014153,0.365106,20.5387,22.361,0.253401,0,0
2264,565.75,63.1669,72.3779,149.841,100.64,97.7605,0.0140701,0.366111,20.5369,22.1909,0.263238,0,0
2272,567.75,64.6448,72.1181,144.924,100.681,96.5597,0.0140497,0.367506,20.5353,21.9907,0.378987,0,0
2280,569.75,64.1955,71.8304,151.163,100.698,97.9672,0.0141411,0.36847,20.5346,21.7605,0.249341,0,0
2288,571.75,64.069,72.2717,153.133,100.721,97.7544,0.0141662,0.367124,20.5356,21.5102,0.271123,0,0
2296,573.75,64.1588,71.7181,149.562,100.746,97.3027,0.01401,0.365594,20.536,21.3301,0.315367,0,0
2304,575.75,63.6574,72.4819,151.771,100.767,97.8547,0.0138333,0.365972,20.5358,21.1299,0.265912,0,0
2312,577.75,64.278,73.2654,152.094,100.772,97.6115,0.01379,0.367625,20.5348,20.9397,0.288963,0,0
2320,579.75,64.4671,71.9044,152.55,100.771,97.2133,0.01390234,0.367318,20.5352,20.6995,0.325883,0,0
2328,581.75,65.2526,72.8141,151.266,100.771,97.4917,0.0139676,0.365793,20.5371,20.5393,0.299993,0,0
2336,583.75,63.7458,72.9077,147.763,100.761,96.4268,0.0139103,0.364924,20.5379,20.3091,0.398717,0,0
2344,585.75,64.701,72.0328,156.668,100.741,97.8469,0.0138476,0.362416,20.5395,20.1089,0.264348,0,0
2352,587.75,64.6441,72.0031,149.106,100.717,97.7201,0.0137714,0.36172,20.5403,19.8687,0.273893,0,0
2360,589.75,65.3647,72.8898,151.976,100.68,97.9498,0.0137865,0.360998,20.5408,19.6685,0.249298,0,0
2368,591.75,65.2019,72.2266,153.368,100.637,97.9685,0.0138988,0.35969,20.5421,19.5284,0.2437,0,0
2376,593.75,65.4379,72.0367,153.723,100.601,97.6345,0.0141395,0.360029,20.5426,19.2982,0.271396,0,0
2384,595.75,64.5744,72.4873,151.466,100.54,98.5075,0.0143336,0.359825,20.5433,19.0379,0.185162,0,0
2392,597.75,64.8896,72.4592,152.885,100.492,96.5784,0.0143812,0.357679,20.5445,18.9278,0.360172,0,0
2400,599.75,65.6255,72.6744,147.076,100.432,97.4157,0.01426118,0.357008,20.545,18.7476,0.276479,0,0
2408,601.75,64.0383,72.9356,145.185,100.355,97.453,0.01410472,0.355796,20.5463,18.5374,0.266038,0,0
2416,603.75,65.0768,72.2818,152.749,100.263,97.7944,0.0141017,0.353079,20.5479,18.3573,0.226081,0,0
2424,605.75,64.3705,72.8709,150.318,100.164,96.8936,0.0141443,0.351226,20.551,18.1771,0.300967,0,0
2432,607.75,64.8637,72.401,156.341,100.109,96.3625,0.0140545,0.348284,20.5545,17.9569,0.345903,0,0
2440,609.75,65.1466,72.0099,150.381,100.129,96.25,0.013906,0.344666,20.5577,17.8068,0.358305,0,0
2448,611.75,64.6961,71.2382,151.764,100.168,97.4096,0.013818,0.342133,20.5593,17.5966,0.253191,0,0
2456,613.75,65.0605,71.7773,149.335,100.194,97.2228,0.0138038,0.339472,20.5626,17.3563,0.27293,0,0
2464,615.75,64.6493,71.0833,155.533,100.239,97.4804,0.0137919,0.336385,20.5651,17.1862,0.253017,0,0
2472,617.75,65.0511,71.5422,148.78,100.295,97.869,0.01379,0.335382,20.5661,17.0661,0.221984,0,0
2480,619.75,64.8892,71.1481,150.605,100.336,96.1102,0.0137855,0.333989,20.5668,16.8959,0.390193,0,0
2488,621.75,64.7013,71.0251,149.077,100.39,98.4614,0.0137891,0.332676,20.569,16.7257,0.175893,0,0
2496,623.75,64.5249,70.7203,148.584,100.433,98.0901,0.0138457,0.3304618,20.5712,16.5556,0.213993,0,0
2504,625.75,64.9625,71.3665,152.991,100.475,97.1898,0.0138291,0.327949,20.5735,16.3654,0.301475,0,0
2512,627.75,64.2626,72.1095,156.314,100.523,98.233,0.0137069,0.325869,20.5754,16.1952,0.208995,0,0
2520,629.75,64.0025,71.2348,156.525,100.561,99.3756,0.0135823,0.322799,20.578,16.0251,0.107554,0,0
2528,631.75,63.8895,70.9785,151.779,100.598,98.2569,0.0134052,0.320421,20.5792,15.8849,0.213557,0,0
2536,633.75,65.1546,70.9339,151.57,100.65,97.9576,0.0132126,0.319829,20.5806,15.7048,0.24587,0,0
2544,635.75,64.3313,70.394,155.484,100.671,98.5991,0.01315121,0.317109,20.5837,15.5246,0.188602,0,0
2552,637.75,64.5037,70.249,154.778,100.696,97.562,0.013228,0.311931,20.5882,15.4045,0.286735,0,0
2560,639.75,63.91,71.024,150.464,100.726,98.312,0.0132841,0.308616,20.5922,15.2343,0.21992,0,0
2568,641.75,63.3391,69.8889,154.411,100.756,97.7631,0.0132844,0.306348,20.5941,15.1042,0.273469,0,0
2576,643.75,63.8673,69.8373,155.406,100.776,97.8751,0.0132708,0.304823,20.5961,14.9441,0.264845,0,0
2584,645.75,64.4195,69.9319,150.142,100.789,97.5472,0.013284,0.301887,20.5998,14.7539,0.296474,0,0
2592,647.75,63.7446,69.3851,152.751,100.793,99.7964,0.0133013,0.298725,20.604,14.6238,0.0900738,0,0
2600,649.75,64.3064,69.5324,151.745,100.804,99.3104,0.0132581,0.294596,20.6079,14.4736,0.135349,0,0
2608,651.75,63.4035,68.7318,151.95,100.807,98.3815,0.0132038,0.291204,20.6114,14.3435,0.220828,0,0
2616,653.75,62.8011,68.936,153.925,100.807,98.5548,0.0131457,0.286427,20.6167,14.2334,0.204909,0,0
2624,655.75,62.818,68.9468,153.983,100.799,98.3385,0.0130594,0.281825,20.6214,14.0632,0.224042,0,0
2632,657.75,62.0347,68.9002,159.967,100.786,98.4736,0.0129461,0.277391,20.6272,13.9731,0.210508,0,0
2640,659.75,63.3109,68.0471,153.44,100.775,100.298,0.0128917,0.27287,20.6326,13.873,0.0430382,0,0
2648,661.75,62.9571,67.7156,151.331,100.761,99.5823,0.0128549,0.267879,20.6382,13.7129,0.106735,0,0
2656,663.75,62.8595,67.3443,153.766,100.737,99.4242,0.0128334,0.263396,20.6424,13.5227,0.118964,0,0
2664,665.75,62.2862,66.3931,156.101,100.709,98.6608,0.012855,0.258054,20.6483,13.4326,0.186349,0,0
2672,667.75,62.6387,66.7115,154.481,100.682,98.6981,0.0129772,0.253547,20.6538,13.3225,0.180439,0,0
2680,669.75,61.2002,66.8536,155.896,100.649,98.494,0.0130817,0.251192,20.6569,13.2024,0.196283,0,0
2688,671.75,61.2942,66.6161,155.97,100.618,99.1333,0.0130472,0.248299,20.659,13.1324,0.134766,0,0
2696,673.75,61.9172,65.8405,151.702,100.583,99.0047,0.0129402,0.244507,20.6624,13.0122,0.143413,0,0
2704,675.75,60.9497,64.4433,154.677,100.562,99.0299,0.012888,0.2399,20.6661,12.8821,0.139227,0,0
2712,677.75,60.7521,65.1007,152.602,100.514,99.0416,0.0129265,0.235235,20.6729,12.8521,0.133792,0,0
2720,679.75,60.4679,65.4998,150.941,100.485,99.6566,0.012901,0.230894,20.6783,12.722,0.0750692,0,0
2728,681.75,60.2012,63.9094,155.221,100.436,99.224,0.0129074,0.225944,20.6837,12.6319,0.11011,0,0
2736,683.75,59.6715,63.6792,152.108,100.398,97.7066,0.0129831,0.221888,20.6874,12.5218,0.246387,0,0
2744,685.75,60.2039,63.3546,159.669,100.358,100.001,0.0131145,0.216432,20.6928,12.4217,0.0322693,0,0
2752,687.75,59.8934,62.5828,155.496,100.319,98.7255,0.0132916,0.212713,20.6984,12.2916,0.145205,0,0
2760,689.75,59.1778,61.7237,160.31,100.278,99.1758,0.0135026,0.208238,20.7028,12.2115,0.100205,0,0
2768,691.75,59.3313,61.757,157.309,100.218,98.4045,0.0135972,0.20547,20.7061,12.1815,0.165608,0,0
2776,693.75,58.7701,62.5552,156.854,100.15,98.7897,0.0136081,0.203958,20.7084,12.0914,0.12403,0,0
2784,695.75,58.267,62.3667,152.865,100.078,99.3547,0.0137226,0.200862,20.7111,11.9913,0.065786,0,0
2792,697.75,57.4831,61.6952,155.856,100.005,98.1183,0.0139678,0.1983,20.7129,11.9012,0.172725,0,0
2800,699.75,57.3477,61.7415,161.517,99.9381,99.4507,0.0141864,0.195477,20.7158,11.721,0.04433234,0,0
2808,701.75,57.2052,60.9748,154.616,99.8518,98.1796,0.0143238,0.192068,20.7202,11.6209,0.153147,0,0
2816,703.75,56.693,61.1015,157.628,99.7877,99.2032,0.0144508,0.190433,20.7225,11.6109,0.0532668,0,0
2824,705.75,56.5841,60.5134,161.454,99.7009,98.5283,0.014592,0.188485,20.7247,11.5709,0.107282,0,0
2832,707.75,57.7779,59.9477,155.293,99.6367,98.4836,0.0146879,0.185524,20.727,11.5709,0.10556,0,0
2840,709.75,56.7132,59.7857,155.277,99.5517,98.494,0.01480455,0.183455,20.7293,11.5008,0.0968567,0,0
2848,711.75,56.0728,59.5945,160.708,99.5079,98.124,0.01495295,0.182444,20.7311,11.4408,0.126997,0,0
2856,713.75,57.033,59.3275,161.026,99.4371,97.7379,0.015175,0.179614,20.7344,11.3507,0.156286,0,0
2864,715.75,56.6708,58.1339,157.724,99.3737,98.6486,0.0153139,0.177266,20.7363,11.3206,0.0664073,0,0
2872,717.75,55.5898,59.1446,160.953,99.3087,97.3609,0.01543327,0.175132,20.7389,11.2306,0.17961,0,0
2880,719.75,56.3667,58.4268,159.352,99.2524,98.4866,0.0155005,0.173337,20.7406,11.1405,0.070233,0,0
2888,721.75,56.5867,58.0964,162.584,99.1932,98.9608,0.0155312,0.170249,20.7434,11.1004,0.0212664,0,0
2896,723.75,55.8797,57.8445,159.423,99.1365,98.7446,0.0156358,0.168775,20.7458,11.0704,0.035921,0,0
2904,725.75,54.5891,58.1923,161.3,99.0911,98.8644,0.0157652,0.167447,20.7473,11.0003,0.0207639,0,0
2912,727.75,55.5602,57.1918,159.848,99.0456,98.5057,0.0157972,0.166343,20.749,10.9303,0.0495661,0,0
2920,729.75,55.28,56.5284,156.863,99.0073,97.7005,0.0157179,0.164521,20.7505,10.9403,0.120476,0,0
2928,731.75,54.9997,57.7751,156.867,98.9773,98.2391,0.0156812,0.162631,20.7533,10.8702,0.0678837,0,0
2936,733.75,54.9993,56.1305,160.788,98.9414,97.9516,0.0156308,0.160861,20.7544,10.8202,0.091174,0,0
2944,735.75,54.1299,57.3318,158.663,98.9047,97.2936,0.0155361,0.159055,20.7562,10.7801,0.148924,0,0
2952,737.75,54.6894,56.6218,159.636,98.8827,97.9724,0.0155884,0.157321,20.7592,10.7201,0.0838567,0,0
2960,739.75,55.1319,56.2525,158.307,98.8593,97.6133,0.0158671,0.155225,20.7609,10.68,0.115018,0,0
2968,741.75,54.0213,56.861,159.703,98.8431,97.4643,0.0164514,0.153591,20.7625,10.61,0.127375,0,0
2976,743.75,54.6577,55.4353,156.003,98.8235,98.4202,0.0170768,0.15215,20.7646,10.4999,0.0370816,0,0
2984,745.75,54.1197,54.9369,156.503,98.8064,97.5034,0.017465,0.150451,20.7666,10.4098,0.120374,0,0
2992,747.75,53.4499,55.4915,160.904,98.798,97.4118,0.0176299,0.148555,20.7687,10.4298,0.128134,0,0
3000,749.75,52.9235,55.4302,160.357,98.7934,98.21,0.0177275,0.146904,20.7708,10.3597,0.0537127,0,0
3008,751.75,53.0591,55.0473,161.038,98.793,97.7005,0.0179159,0.146158,20.7722,10.2597,0.100831,0,0
3016,753.75,53.3437,54.6848,163.473,98.7789,97.4543,0.0181629,0.144623,20.7738,10.2797,0.122413,0,0
3024,755.75,52.6062,54.5605,157.815,98.7755,97.3127,0.0182235,0.143142,20.7753,10.2997,0.135289,0,0
3032,757.75,51.9015,54.6112,163.405,98.7789,97.4478,0.01813532,0.142368,20.7765,10.2196,0.12302,0,0
3040,759.75,52.9371,53.3493,157.418,98.7851,98.7446,0.0180093,0.141485,20.777,10.1596,0.00372201,0,0
3048,761.75,53.3567,53.5997,167.252,98.7847,98.216,0.0179176,0.140194,20.7772,10.1195,0.0523479,0,0
3056,763.75,53.3783,53.7329,161.765,98.8155,97.9724,0.0178508,0.138337,20.7788,10.0795,0.07770063,0,0
3064,765.75,52.2282,53.7306,163.757,98.8147,97.7809,0.0177512,0.137288,20.7799,10.0495,0.0953668,0,0
3072,767.75,52.3222,54.0493,163.383,98.8597,98.2451,0.01763599,0.136324,20.7803,10.0094,0.0565459,0,0
3080,769.75,52.4769,52.8484,160.881,98.8718,98.2035,0.0176349,0.135194,20.7813,9.97939,0.0615042,0,0
3088,771.75,51.2298,53.828,159.32,98.8906,97.6984,0.0178705,0.133805,20.7818,9.92934,0.109981,0,0
3096,773.75,52.5061,53.0347,162.858,98.921,97.2328,0.0182187,0.13238,20.7832,9.90932,0.156084,0,0
3104,775.75,51.0855,53.1755,161.911,98.9523,97.8816,0.01858736,0.130884,20.7841,9.95937,0.0986425,0,0
3112,777.75,52.3011,52.9249,161.068,98.9806,98.4636,0.0189944,0.128308,20.7868,9.87929,0.0474889,0,0
3120,779.75,50.7264,53.3243,160.613,98.999,97.7379,0.01933643,0.125691,20.7894,9.85927,0.116246,0,0
3128,781.75,51.2317,53.3682,157.537,99.0361,97.8152,0.0195151,0.124036,20.7911,9.80923,0.112474,0,0
3136,783.75,50.7125,52.56,159.404,99.0732,97.8955,0.0195668,0.122441,20.7933,9.69912,0.108426,0,0
3144,785.75,51.7351,52.1099,159.654,99.1078,99.0694,0.019612,0.121303,20.7953,9.73916,0.003508068,0,0
3152,787.75,51.0409,52.3773,161.618,99.1532,98.3737,0.0197745,0.12022,20.7971,9.69912,0.07156723,0,0
3160,789.75,50.1753,52.5646,158.219,99.2016,98.5769,0.0199268,0.119557,20.798,9.62906,0.0572742,0,0
3168,791.75,50.5429,52.0991,162.395,99.262,99.0942,0.019974,0.118932,20.7988,9.68911,0.0153429,0,0
3176,793.75,49.4989,51.9365,161.455,99.3295,99.2518,0.01995342,0.118068,20.7996,9.71914,0.007095788,0,0
3184,795.75,50.3293,51.3898,158.493,99.3808,98.3546,0.0199719,0.117811,20.8,9.63907,0.0941195,0,0
3192,797.75,50.9131,51.6073,161.315,99.4429,98.8979,0.0200424,0.11732,20.8001,9.52896,0.0498349,0,0
3200,799.75,50.2799,51.6112,162.753,99.4992,98.5114,0.0200686,0.116667,20.8012,9.60904,0.090473,0,0
3208,801.75,50.2534,51.0418,160.294,99.5546,99.426,0.0201748,0.115902,20.802,9.58902,0.0117261,0,0
3216,803.75,49.6505,50.4015,159.588,99.6109,99.0004,0.0203471,0.114782,20.8036,9.55899,0.0557477,0,0
3224,805.75,49.9117,50.0692,162.264,99.6668,98.884,0.02040508,0.11388,20.8043,9.48892,0.0714986,0,0
3232,807.75,49.933,50.8487,162.745,99.7097,99.327,0.0202569,0.114661,20.8034,9.47892,0.0348733,0,0
3240,809.75,48.9789,51.1213,169.284,99.7751,98.6399,0.0201484,0.115504,20.8026,9.43888,0.103762,0,0
3248,811.75,49.2516,51.0728,163.695,99.8247,98.6495,0.02023698,0.115545,20.8019,9.46891,0.10739,0,0
3256,813.75,49.6571,50.1644,162.864,99.8739,99.3391,0.0204934,0.114788,20.8019,9.40885,0.0486878,0,0
3264,815.75,49.0899,50.0093,165.682,99.9202,99.0143,0.020609,0.114331,20.8029,9.46891,0.0825885,0,0
3272,817.75,48.2763,50.5592,163.357,99.974,99.0781,0.0204359,0.113488,20.804,9.38883,0.0816223,0,0
3280,819.75,49.1501,49.9574,161.211,100.016,98.8284,0.02028729,0.112823,20.8052,9.32877,0.108323,0,0
3288,821.75,49.4571,49.9523,165.116,100.054,98.4493,0.0203771,0.112389,20.8057,9.30876,0.146576,0,0
3296,823.75,48.5269,50.0313,166.598,100.097,99.4846,0.0205641,0.112802,20.806,9.29875,0.0556048,0,0
3304,825.75,49.331,49.8414,167.24,100.119,98.8818,0.0205102,0.113516,20.8052,9.31877,0.112753,0,0
3312,827.75,48.944,50.0861,164.426,100.154,99.0368,0.0203038,0.113209,20.8049,9.25871,0.10168,0,0
3320,829.75,48.9644,49.3417,157.247,100.182,98.5257,0.0202184,0.11292,20.8047,9.19865,0.151205,0,0
3328,831.75,48.8959,49.8049,163.361,100.202,99.5541,0.0202716,0.11287,20.8056,9.21867,0.058823,0,0
3336,833.75,47.9026,49.991,162.442,100.227,99.4781,0.0203303,0.112685,20.8056,9.23869,0.0680114,0,0
3344,835.75,48.208,49.7811,160.261,100.238,99.4507,0.0203001,0.11192,20.8053,9.16862,0.0715233,0,0
3352,837.75,48.9879,49.4545,163.848,100.253,99.5832,0.0202194,0.11155,20.8052,9.08855,0.0607741,0,0
3360,839.75,48.1484,49.2989,162.8,100.262,99.6049,0.0201548,0.111676,20.8052,9.11858,0.0596638,0,0
3368,841.75,49.0561,49.6167,165.549,100.263,99.7256,0.0201176,0.112075,20.8052,9.06853,0.0487179,0,0
3376,843.75,47.7113,49.8183,164.222,100.258,99.0117,0.02013672,0.111846,20.806,9.14861,0.113416,0,0
3384,845.75,48.5393,49.5486,165.847,100.247,99.1819,0.0201393,0.111891,20.8073,9.08855,0.0968588,0,0
3392,847.75,48.5036,49.1977,163.515,100.255,99.875,0.0200873,0.111678,20.8079,9.05852,0.0344652,0,0
3400,849.75,48.1941,49.4961,161.807,100.237,99.6092,0.0200962,0.111924,20.8074,9.06853,0.0569681,0,0
3408,851.75,48.2857,49.2649,163.864,100.222,98.854,0.0201412,0.112293,20.8066,9.04851,0.124622,0,0
3416,853.75,48.4675,49.6844,160.233,100.2,99.7712,0.0199492,0.112386,20.8063,9.00847,0.0388404,0,0
3424,855.75,48.8007,49.5886,158.666,100.188,98.5131,0.0195988,0.112537,20.8063,8.93841,0.152855,0,0
3432,857.75,48.5089,48.8924,165.614,100.177,99.5762,0.0194132,0.112767,20.8065,8.94842,0.0545423,0,0
3440,859.75,47.9996,49.1639,166.929,100.146,99.687,0.0194276,0.1127951,20.8074,8.99846,0.0416331,0,0
3448,861.75,47.7432,49.8092,163.138,100.11,99.1115,0.01944669,0.112289,20.8083,8.96844,0.09091711,0,0
3456,863.75,48.0187,48.5904,163.28,100.097,98.8067,0.0193904,0.111864,20.8095,8.94842,0.117606,0,0
3464,865.75,47.9787,48.9157,164.933,100.06,98.8332,0.0193731,0.111212,20.8105,8.91839,0.1118894,0,0
3472,867.75,48.087,48.8511,162.411,100.026,99.1124,0.0193682,0.110563,20.8107,8.89837,0.08320868,0,0
3480,869.75,47.3903,49.3933,160.61,99.9886,98.9582,0.0193776,0.110121,20.8097,8.88836,0.0939216,0,0
3488,871.75,46.8385,49.2289,159.616,99.9573,99.0399,0.019462,0.110153,20.8093,8.87835,0.08360818,0,0
3496,873.75,47.291,48.8774,162.691,99.9306,99.2392,0.0196225,0.110683,20.8091,8.8283,0.06295462,0,0
3504,875.75,47.312,48.3785,166.003,99.9181,99.2575,0.0196677,0.111478,20.8087,8.8283,0.06015351,0,0
3512,877.75,47.326,48.1649,162.804,99.901,99.0056,0.01958,0.11179,20.8084,8.8183,0.0816437,0,0
3520,879.75,47.3029,48.8984,165.379,99.8798,99.4585,0.0193583,0.111372,20.8089,8.79828,0.0383227,0,0
3528,881.75,47.4591,48.8878,161.877,99.8556,98.7598,0.0192251,0.111049,20.8093,8.78827,0.100059,0,0
3536,883.75,47.4049,48.5911,164.346,99.8485,98.8401,0.0192242,0.110897,20.8095,8.73822,0.0920418,0,0
3544,885.75,47.298,49.492,160.005,99.8302,99.6118,0.0191868,0.110914,20.8097,8.74823,0.0198525,0,0
3552,887.75,47.4676,48.214,160.738,99.8323,99.1281,0.0190943,0.110855,20.8102,8.73822,0.0641879,0,0
3560,889.75,47.2857,49.3071,157.67,99.826,99.1854,0.019062,0.11033,20.8111,8.70819,0.05837835,0,0
3568,891.75,47.3133,48.0946,162.819,99.8844,99.0429,0.0191838,0.109862,20.8121,8.68817,0.0767092,0,0
3576,893.75,47.7833,48.5447,161.377,99.9706,99.2948,0.019272,0.109623,20.8125,8.67816,0.0615085,0,0
3584,895.75,47.2142,48.1959,160.547,100.029,98.9483,0.0192577,0.109681,20.8127,8.66815,0.0985409,0,0
3592,897.75,46.8797,48.6502,163.822,100.137,99.2266,0.0190529,0.109081,20.8109,8.66815,0.0828477,0,0
3600,899.75,47.0903,48.1463,162.488,100.215,99.8911,0.0188421,0.108661,20.811,8.63813,0.0293865,0,0
3608,901.75,47.0088,48.303,159.711,100.293,100.295,0.0188367,0.108884,20.8107,8.6081,-0.000112419,0,0
3616,903.75,46.5398,48.5094,163.764,100.371,99.2675,0.0189399,0.108997,20.8101,8.59809,0.10027,0,0
3624,905.75,46.1543,48.8144,164.582,100.423,100.495,0.0188639,0.109055,20.8098,8.57807,-0.006558842,0,0
3632,907.75,47.1531,48.858,159.952,100.496,99.9771,0.01868338,0.108847,20.8097,8.54804,0.0469695,0,0
3640,909.75,46.2764,48.8241,161.994,100.543,100.089,0.0185069,0.10915,20.811,8.51801,0.0409875,0,0
3648,911.75,46.3422,48.6093,160.158,100.582,100.44,0.01856176,0.109668,20.8115,8.508,0.012785,0,0
3656,913.75,47.0663,48.547,167.637,100.621,100.271,0.0187338,0.10992,20.8118,8.49799,0.0316219,0,0
3664,915.75,47.5142,48.3364,160.833,100.669,100.433,0.0187692,0.10931,20.8129,8.47797,0.021302,0,0
3672,917.75,46.2649,48.9112,161.834,100.706,99.2796,,0.108648,,8.47797,0.129387,0,0
3680,919.75,47.48,48.2931,160.809,100.722,100.23,,0.108034,,8.45796,0.044398,0,0
3688,921.75,47.4359,48.3567,157.557,100.732,99.9284,,,,8.42793,0.0726096,0,0
3696,923.75,47.1369,48.3779,161.807,100.737,100,,,,8.42793,0.0665586,0,0
3704,925.75,47.216,48.2234,164.505,100.746,100.78,,,,8.3979,-0.003103924,0,0
3712,927.75,47.1366,48.5626,164.395,100.729,99.2349,,,,8.36787,0.135499,0,0
3715,928.5,47.1003,48.634,161.552,100.736,100.262,,,,8.35786,0.042808,0,0