File: 01_Data/Pallet_Wood/Cone/Pallet_Wood_Cone_HF35Scan_180728_R1.csv
Names,Time,Stack TC,Smoke TC,Exh Press,Smoke Comp,Smoke Meas,CO Meter,CO2 Meter,O2 Meter,Sample Mass,Ext Coeff,Start Test,Flame Verif
Chan Gain,,500,500,1,1,1,1,1,1,1,1,1,1
Offset,,0,0,0.124825,0,0,0,0,0,0,0,0,0
Gain,,1,1,25.011,13.6595,14.2307,1,1,1,1.00094,1.03371,1,1
Units,sec,C,C,Pa,%,%,%,%,%,g,/m,,
Baseline,,40.0798,42.2226,166.114,98.8394,98.6928,0.007113696,0.0676113,20.8918,-918.709,0.0134899,,
8,1.75,38.3161,39.8589,162.036,98.833,98.3815,0.007282494,0.0676166,20.8898,56.2829,0.0415222,0,0
16,3.75,38.7011,40.2146,163.149,98.8339,98.6716,0.007345614,0.0676302,20.8901,56.363,0.0148994,0,0
24,5.75,39.4007,39.9871,165.434,98.826,98.6755,0.007316554,0.0677169,20.8902,56.1228,0.0138148,0,0
32,7.75,39.1171,40.5936,166.185,98.8185,99.1307,0.007241856,0.06765388,20.8896,55.9226,-0.028602,0,0
40,9.75,39.3168,41.3043,164.161,98.8376,98.5652,0.007192803,0.067725,20.8894,55.8726,0.0250261,0,0
48,11.75,39.8138,41.1081,168.295,98.8247,98.6799,0.007109495,0.06778457,20.8886,55.9426,0.013301,0,0
56,13.75,39.7532,41.7447,162.474,98.823,99.0668,0.007121115,0.067513,20.8882,55.9827,-0.0223398,0,0
64,15.75,40.1279,41.6371,168.739,98.8343,98.7333,0.007245714,0.0675099,20.8881,55.8926,0.009271927,0,0
72,17.75,39.7892,42.1543,167.046,98.8268,98.7116,0.007354181,0.0675831,20.8886,55.9226,0.01057844,0,0
80,19.75,40.0055,42.4389,163.206,98.8285,98.2812,0.00737055,0.067562,20.8904,55.8826,0.050352,0,0
88,21.75,39.8066,42.0482,165.454,98.8335,98.8401,0.007318432,0.0677074,20.8913,55.8425,-0.000610214,0,0
96,23.75,39.8192,42.0942,165.27,98.8343,99.1385,0.007244943,0.0677699,20.8917,55.8926,-0.0278641,0,0
104,25.75,39.6867,42.5885,168.251,98.8335,98.4927,0.007212572,0.0678641,20.8916,55.8726,0.0313192,0,0
112,27.75,40.0958,42.4497,165.784,98.8326,98.4041,0.007228349,0.0678761,20.8913,55.8525,0.0394033,0,0
120,29.75,40.2784,42.6137,169.489,98.8314,98.5335,0.007273292,0.0680515,20.8912,55.8525,0.0273703,0,0
128,31.75,40.3315,42.6485,164.044,98.8314,98.2456,0.007264209,0.0680895,20.8912,55.8325,0.0539072,0,0
136,33.75,40.4909,42.5791,162.35,98.8326,98.1231,0.007238133,0.0681956,20.8912,55.8425,0.065332,0,0
144,35.75,40.2889,42.3361,166.237,98.8289,98.4914,0.007228884,0.0683318,20.8899,55.7124,0.0310186,0,0
152,37.75,40.688,41.8856,168.171,98.8272,97.6267,0.007202887,0.068394,20.8893,55.7524,0.110823,0,0
160,39.75,40.2086,42.4343,163.444,98.8201,97.6528,0.007203323,0.068568,20.889,55.7424,0.107752,0,0
168,41.75,39.9883,42.5801,168.159,98.8276,97.7175,0.00736587,0.068514,20.8893,55.7825,0.102434,0,0
176,43.75,40.5945,42.3242,163.951,98.8285,98.1904,0.007555378,0.0686039,20.8895,55.7925,0.0587306,0,0
184,45.75,40.3017,42.5639,167.444,98.8172,97.7327,0.007637044,0.068835,20.8896,55.6624,0.100068,0,0
192,47.75,40.4597,42.9913,170.35,98.8185,97.833,0.007652342,0.0690911,20.89,55.6523,0.0908797,0,0
200,49.75,40.3404,42.5736,171.877,98.821,96.8993,0.007712692,0.0693665,20.8903,55.6223,0.178066,0,0
208,51.75,40.2751,43.2429,164.928,98.8343,97.4269,0.007823612,0.06977462,20.8895,55.6423,0.130046,0,0
216,53.75,41.1098,42.6577,167.683,98.8235,96.5627,0.007983588,0.0720454,20.887,55.6924,0.209845,0,0
224,55.75,40.8085,43.4371,163.163,98.8247,98.2269,0.008197162,0.094317,20.863,55.5723,0.0550182,0,1
232,57.75,41.9622,45.5639,158.234,98.8235,99.0134,0.008405601,0.139488,20.8112,55.332,-0.0174107,0,1
240,59.75,43.4687,47.2941,155.58,98.8289,98.7237,0.008540186,0.189154,20.7625,55.1619,0.009653104,0,0
248,61.75,44.6176,50.1831,153.039,98.818,98.1248,0.008632755,0.226114,20.7253,55.0718,0.06383267,0,0
256,63.75,46.2076,52.0621,158.367,98.8255,97.9359,0.008827105,0.249714,20.6974,55.0117,0.0819951,0,0
264,65.75,46.8212,53.4885,160.085,98.8289,97.6784,0.008980321,0.264999,20.678,54.8416,0.106177,0,0
272,67.75,47.9148,54.8547,161.955,98.8306,98.9895,0.009024388,0.276297,20.6655,54.6714,-0.0145726,0,0
280,69.75,49.1943,55.7811,160.248,98.8364,98.6634,0.009040005,0.285624,20.6544,54.5113,0.0158879,0,0
288,71.75,50.1165,56.7082,156.176,98.8297,98.2291,0.009050969,0.290794,20.647,54.251,0.0552772,0,0
296,73.75,50.4212,58.7229,155.627,98.828,97.8673,0.009061759,0.298384,20.6388,54.1509,0.08857958,0,0
304,75.75,50.6036,59.2628,157.573,98.833,98.117,0.009123811,0.302497,20.6346,53.9207,0.0659319,0,0
312,77.75,51.6461,59.8242,156.507,98.8376,96.4581,0.009197305,0.303605,20.6328,53.8406,0.220979,0,0
320,79.75,52.3423,60.5195,153.917,98.846,97.9928,0.009222835,0.304355,20.632,53.6805,0.078603,0,0
328,81.75,52.5253,61.2561,157.647,98.8535,97.106,0.009209087,0.305107,20.6317,53.4603,0.161725,0,0
336,83.75,52.9224,62.1744,155.074,98.8564,96.9644,0.009250732,0.303176,20.6328,53.2701,0.175223,0,0
344,85.75,53.7824,61.7223,155.685,98.8781,96.8046,0.009395117,0.302315,20.6333,53.0999,0.192168,0,0
352,87.75,53.3048,62.7945,156.771,98.8885,97.1386,0.009481333,0.303354,20.6334,52.8197,0.161895,0,0
360,89.75,54.306,62.1851,153.711,98.8964,98.038,0.00941495,0.302752,20.6335,52.7196,0.0790509,0,0
368,91.75,54.1712,62.7193,159.063,98.9085,97.0105,0.009344905,0.300635,20.6346,52.5594,0.175697,0,0
376,93.75,53.9805,62.9928,157.967,98.9227,97.2593,0.009341149,0.298577,20.6364,52.4593,0.153767,0,0
384,95.75,54.7151,63.0613,162.067,98.9435,97.0509,0.009395059,0.295703,20.6395,52.3092,0.175133,0,0
392,97.75,54.7414,62.9781,155.211,98.9573,98.1518,0.00946516,0.292486,20.6433,52.1491,0.0741118,0,0
400,99.75,54.271,63.42,158.82,98.9698,98.395,0.00951355,0.289455,20.6465,51.9188,0.0528176,0,0
408,101.75,54.4565,63.2402,157.13,99.006,97.843,0.009493203,0.287373,20.6478,51.8288,0.10715,0,0
416,103.75,54.6435,62.8255,163.254,99.0252,98.1183,0.009453544,0.284308,20.6518,51.6786,0.08342503,0,0
424,105.75,54.6106,62.7914,154.778,99.0219,97.7505,0.009345413,0.279734,20.6585,51.5285,0.117178,0,0
432,107.75,54.8793,62.4531,157.665,99.0481,97.5442,0.009235732,0.275178,20.6632,51.3983,0.138738,0,0
440,109.75,55.0939,62.8773,154.271,99.0702,97.5008,0.009189286,0.273489,20.6653,51.2582,0.144799,0,0
448,111.75,54.6189,62.9345,152.042,99.0827,97.4404,0.009209321,0.27277,20.6668,51.0981,0.151559,0,0
456,113.75,54.5396,63.2885,159.072,99.1098,97.8821,0.009227867,0.271235,20.6697,50.9579,0.11303,0,0
464,115.75,55.2678,62.6952,158.038,99.1248,96.7521,0.009131495,0.268931,20.6721,50.8278,0.219694,0,0
472,117.75,54.9005,63.0012,156.864,99.134,98.1544,0.008970196,0.266702,20.6739,50.6376,0.0900513,0,0
480,119.75,54.6374,63.047,151.308,99.1557,98.2634,0.008909498,0.263712,20.6778,50.4575,0.0819694,0,0
488,121.75,54.8324,62.5879,158.622,99.167,98.2955,0.008965709,0.260509,20.6804,50.3073,0.0800335,0,0
496,123.75,54.6157,62.2304,159.548,99.1811,97.0205,0.009060491,0.259127,20.6815,50.1872,0.199722,0,0
504,125.75,55.0446,61.8638,156.838,99.2011,97.7666,0.00910845,0.258913,20.6819,50.0471,0.132087,0,0
512,127.75,54.8704,61.6458,152.707,99.2191,98.1031,0.00909786,0.258425,20.6834,49.8569,0.102562,0,0
520,129.75,55.0383,61.7932,157.479,99.2399,98.2617,0.009093809,0.256808,20.6845,49.7568,0.0898266,0,0
528,131.75,55.1262,61.5702,156.46,99.2691,97.7309,0.00916387,0.254713,20.6869,49.6267,0.141599,0,0
536,133.75,55.0065,62.1076,157.491,99.2866,97.6319,0.009242447,0.253492,20.6893,49.4265,0.152389,0,0
544,135.75,54.5146,62.0477,152.478,99.3074,99.3734,0.009271093,0.250525,20.6919,49.3464,-0.006023404,0,0
552,137.75,54.7138,61.5621,158.308,99.3408,98.6073,0.009239707,0.248021,20.6944,49.1662,0.067196,0,0
560,139.75,54.7648,61.337,158.453,99.352,97.833,0.009217648,0.246328,20.6966,48.9961,0.139709,0,0
568,141.75,54.809,61.916,157.035,99.3629,98.8123,0.00926959,0.245025,20.6988,48.8359,0.050381,0,0
576,143.75,54.6442,61.8183,157.166,99.3866,99.0916,0.009272395,0.24414,20.6994,48.6858,0.0269608,0,0
584,145.75,54.593,61.5395,160.771,99.4116,98.613,0.009172765,0.243584,20.6995,48.6057,0.0731425,0,0
592,147.75,54.4866,61.9104,153.746,99.4304,98.3112,0.009077504,0.24302,20.7008,48.4356,0.102649,0,0
600,149.75,54.2945,61.147,156.84,99.4504,98.4397,0.009032835,0.240829,20.7037,48.2954,0.0926249,0,0
608,151.75,54.7761,60.9239,158.199,99.4638,98.2408,0.009120857,0.239324,20.7054,48.1453,0.112182,0,0
616,153.75,54.8619,61.2161,152.233,99.4704,99.3569,0.009237818,0.239033,20.7064,47.9551,0.0103528,0,0
624,155.75,55.1522,60.9228,154.352,99.4696,98.7585,0.009261389,0.237566,20.7079,47.845,0.0650584,0,0
632,157.75,54.4741,61.4753,158.963,99.4879,98.4076,0.009253646,0.235987,20.7093,47.7349,0.0990061,0,0
640,159.75,54.4119,60.9638,155.883,99.5246,99.3052,0.009284612,0.235448,20.7116,47.5547,0.0200089,0,0
648,161.75,54.5015,60.8444,161.537,99.5096,98.9387,0.009323678,0.233286,20.7139,47.4246,0.0521728,0,0
656,163.75,54.3461,60.6959,154.242,99.5379,99.4273,0.009269578,0.231358,20.7149,47.2444,0.01008825,0,0
664,165.75,54.2152,60.4757,156.612,99.5379,98.514,0.009268809,0.231929,20.7153,47.1644,0.0937644,0,0
672,167.75,54.4026,60.9875,158.502,99.5688,98.7993,0.009379844,0.231789,20.7163,46.9442,0.070351,0,0
680,169.75,54.4737,60.8332,160.162,99.5876,99.2774,0.009522365,0.23017,20.718,46.794,0.0282799,0,0
688,171.75,54.3728,60.7028,159.44,99.6105,99.5458,0.009574014,0.228077,20.7193,46.6839,0.005887076,0,0
696,173.75,54.5149,60.5501,157.871,99.6217,99.8299,0.009576309,0.227526,20.7208,46.5938,-0.0189228,0,0
704,175.75,54.3146,60.4109,156.786,99.6413,98.8392,0.009656627,0.227492,20.7218,46.4437,0.0732873,0,0
712,177.75,54.365,60.6937,152.858,99.6409,98.6516,0.009740365,0.226404,20.7222,46.3336,0.0904773,0,0
720,179.75,54.5342,60.2812,155.892,99.6584,98.6629,0.009789825,0.225356,20.7235,46.1734,0.0910327,0,0
728,181.75,55.2295,60.053,157.932,99.6926,99.9367,0.009820445,0.223604,20.7248,46.0733,-0.022174,0,0
736,183.75,54.6139,60.2299,156.439,99.6976,99.6657,0.009824512,0.221968,20.7262,45.8832,0.002902953,0,0
744,185.75,54.4287,60.3173,161.193,99.7193,99.2979,0.009799477,0.219576,20.7284,45.723,0.0384024,0,0
752,187.75,54.5311,59.9989,155.087,99.7472,99.3048,0.009666228,0.217167,20.7315,45.6029,0.0403074,0,0
760,189.75,54.3222,60.2084,153.905,99.7614,100.359,0.009473092,0.215983,20.7334,45.4828,-0.054141,0,0
768,191.75,54.2296,59.6869,160.391,99.7922,99.5028,0.009313281,0.215019,20.7342,45.3927,0.0263346,0,0
776,193.75,54.7088,59.4746,160.459,99.811,99.4659,0.00919866,0.214424,20.7346,45.2726,0.0314032,0,0
784,195.75,54.6868,60.2363,156.83,99.8306,99.6779,0.009185625,0.213777,20.735,45.1525,0.0138828,0,0
792,197.75,55.1723,59.6973,155.005,99.8523,100.156,0.009370167,0.212898,20.7362,45.0023,-0.0275806,0,0
800,199.75,54.494,60.2367,160.479,99.8656,99.4494,0.009611905,0.211619,20.7377,44.8522,0.0378674,0,0
808,201.75,54.4664,59.3038,158.223,99.8802,98.5717,0.009765434,0.210832,20.7392,44.7321,0.119574,0,0
816,203.75,54.557,59.4196,162.854,99.9031,100.058,0.009818198,0.209592,20.7398,44.5619,-0.014034,0,0
824,205.75,54.5123,59.7476,160.7,99.919,99.8316,0.00979338,0.208712,20.7398,44.4418,0.007932827,0,0
832,207.75,54.5535,59.2493,160.615,99.9365,99.8646,0.009743359,0.207808,20.7397,44.2716,0.006522237,0,0
840,209.75,54.9697,58.8556,155.857,99.9494,99.7387,0.009716265,0.207536,20.7397,44.1615,0.0191385,0,0
848,211.75,54.4155,58.6461,155.619,99.9915,99.4668,0.009747082,0.206315,20.7413,44.0514,0.0477072,0,0
856,213.75,54.5038,58.7732,159.001,100.009,99.7148,0.009730018,0.203522,20.7452,43.9513,0.0267162,0,0
864,215.75,54.0141,58.5275,155.789,100.022,98.2847,0.009670203,0.200517,20.7473,43.8012,0.15884,0,0
872,217.75,53.9385,58.4357,154.698,100.032,99.5376,0.009805654,0.200799,20.7476,43.6811,0.0448841,0,0
880,219.75,54.2094,59.0134,154.574,100.048,99.399,0.010036,0.202019,20.7459,43.5109,0.0590249,0,0
888,221.75,54.4725,58.53,159.757,100.062,100.59,0.0101395,0.202438,20.7459,43.4008,-0.04775412,0,0
896,223.75,54.5977,58.524,155.841,100.082,100.114,0.0100715,0.201471,20.7463,43.3007,-0.002892529,0,0
904,225.75,53.4058,58.6945,157.403,100.106,100.282,0.0100452,0.20012,20.7477,43.1706,-0.0159103,0,0
912,227.75,53.9048,58.3299,160.365,100.121,100.256,0.0100802,0.198534,20.7484,43.0205,-0.0122343,0,0
920,229.75,53.7886,58.8681,155.061,100.134,99.5862,0.0100999,0.19686,20.7496,42.9004,0.0497822,0,0
928,231.75,53.5306,58.7361,157.347,100.147,100.64,0.010146,0.196586,20.7514,42.8103,-0.0445138,0,0
936,233.75,53.6183,58.5438,160.783,100.148,99.6605,0.0102464,0.196798,20.7528,42.6701,0.04427,0,0
944,235.75,54.0509,58.761,158.073,100.148,99.7825,0.0103177,0.195425,20.7545,42.55,0.0331352,0,0
952,237.75,53.5479,58.5564,157.521,100.159,99.5415,0.0102842,0.193558,20.7563,42.3999,0.0561216,0,0
960,239.75,53.6151,58.5932,154.062,100.161,100.771,0.0102922,0.192307,20.7573,42.2898,-0.0550773,0,0
968,241.75,53.5397,58.2971,158.217,100.167,99.5545,0.0104076,0.192114,20.7578,42.1396,0.0556134,0,0
976,243.75,53.888,57.7478,158.836,100.173,100.03,0.0106059,0.192017,20.7579,42.0295,0.0129308,0,0
984,245.75,53.1698,58.1365,160.114,100.177,100.01,0.0107074,0.191742,20.758,41.9094,0.0151217,0,0
992,247.75,52.9502,58.1464,161.281,100.185,99.8472,0.0105869,0.191453,20.7594,41.8093,0.0306524,0,0
1000,249.75,52.9664,57.7927,160.826,100.176,99.938,0.0103498,0.189631,20.76,41.6592,0.0215457,0,0
1008,251.75,53.049,57.3453,159.221,100.187,100.196,0.0102458,0.189057,20.7596,41.5391,-0.00088858,0,0
1016,253.75,53.5915,57.2702,159.587,100.189,99.5332,0.0103689,0.189727,20.7587,41.419,0.0595522,0,0
1024,255.75,53.1924,57.5182,159.527,100.184,99.7569,0.0105544,0.189795,20.7572,41.3089,0.0387845,0,0
1032,257.75,53.1265,56.998,160.206,100.186,99.9319,0.0106066,0.189826,20.7564,41.1787,0.0230413,0,0
1040,259.75,53.2162,57.6562,161.827,100.194,100.697,0.0104979,0.190001,20.7569,41.0987,-0.0454121,0,0
1048,261.75,53.7651,57.0955,162.448,100.195,100.514,0.0103785,0.189295,20.7577,40.9285,-0.0287804,0,0
1056,263.75,53.5679,56.8673,156.681,100.203,99.343,0.0103646,0.187358,20.7597,40.8184,0.0781808,0,0
1064,265.75,53.3151,57.344,161.54,100.191,99.8907,0.0105221,0.186082,20.7597,40.6783,0.0272001,0,0
1072,267.75,52.7623,57.4706,159.466,100.196,100.186,0.0107042,0.187896,20.7583,40.5782,0.000924161,0,0
1080,269.75,53.7331,57.0787,157.576,100.195,100.673,0.010722,0.188673,20.7579,40.448,-0.0431854,0,0
1088,271.75,53.6393,56.9626,160.004,100.192,100.108,0.0106586,0.188658,20.758,40.3179,0.00758506,0,0
1096,273.75,53.33181,57.4073,160.464,100.2,100.41,0.0106196,0.188669,20.758,40.2178,-0.01899912,0,0
1104,275.75,53.214,57.7217,160.231,100.192,99.6427,0.0105699,0.188555,20.7567,40.0877,0.0498897,0,0
1112,277.75,53.7378,57.1451,159.117,100.192,99.2384,0.01050763,0.188151,20.7568,39.9876,0.0866826,0,0
1120,279.75,53.0229,57.2907,161.139,100.202,100.348,0.0105058,0.187159,20.7585,39.8575,-0.0132366,0,0
1128,281.75,53.5263,56.9524,157.963,100.209,101.007,0.0105405,0.18677,20.7587,39.7274,-0.0719323,0,0
1136,283.75,53.1358,57.3745,167.582,100.197,100.163,0.0105239,0.187526,20.7588,39.6073,0.00304451,0,0
1144,285.75,53.4473,56.9232,154.161,100.198,99.8789,0.0104905,0.188579,20.7589,39.4771,0.0289059,0,0
1152,287.75,53.0728,57.6563,157.499,100.195,100.212,0.01044709,0.187888,20.7589,39.3971,-0.001471285,0,0
1160,289.75,53.8432,57.0003,156.254,100.207,99.2088,0.0104214,0.186339,20.7602,39.2769,0.0907395,0,0
1168,291.75,53.162,57.6865,162.967,100.199,100.308,0.0104277,0.185168,20.7612,39.1268,-0.009812721,0,0
1176,293.75,53.4682,56.7528,155.772,100.194,99.9006,0.0104602,0.184999,20.7617,39.0167,0.0266332,0,0
1184,295.75,53.4916,57.0532,158.452,100.198,100.265,0.01048409,0.185187,20.7619,38.9166,-0.006077487,0,0
1192,297.75,53.0082,57.4942,158.618,100.195,99.6466,0.0104861,0.184987,20.7621,38.7865,0.0497607,0,0
1200,299.75,53.5442,56.8467,153.846,100.195,99.6835,0.0104603,0.184742,20.7624,38.6964,0.0464393,0,0
1208,301.75,53.2028,57.2742,161.669,100.196,100.02,0.0104428,0.184206,20.7626,38.5863,0.0159893,0,0
1216,303.75,52.9835,57.0513,155.055,100.204,100.18,0.0104581,0.184657,20.7627,38.4261,0.002113001,0,0
1224,305.75,53.8134,56.9676,159.197,100.192,99.6874,0.0105452,0.18541,20.7627,38.3561,0.0457446,0,0
1232,307.75,52.75,57.4072,158.015,100.2,99.5684,0.0107456,0.185136,20.7629,38.1959,0.057329,0,0
1240,309.75,52.9718,56.9673,159.817,100.199,99.257,0.0108571,0.183757,20.764,38.0858,0.0856172,0,0
1248,311.75,53.0594,57.1584,158.555,100.189,99.9132,0.0108386,0.183663,20.7646,37.9857,0.02499911,0,0
1256,313.75,53.6049,56.7039,157.102,100.193,100.261,0.0106481,0.183268,20.7648,37.8656,-0.006136979,0,0
1264,315.75,53.0981,56.899,157.133,100.202,100.574,0.0104567,0.183504,20.7649,37.7855,-0.0335822,0,0
1272,317.75,52.9086,57.0579,154.22,100.2,99.9493,0.0104152,0.184052,20.765,37.6154,0.022747,0,0
1280,319.75,53.0106,56.9985,153.412,100.21,99.7934,0.0104337,0.183186,20.765,37.5053,0.0377328,0,0
1288,321.75,53.3036,56.3946,158.328,100.2,100.255,0.010413,0.18192,20.7662,37.3752,-0.005024002,0,0
1296,323.75,52.8549,56.8915,158.258,100.201,100.277,0.0103981,0.180521,20.7679,37.3051,-0.006912575,0,0
1304,325.75,52.5211,56.9806,163.116,100.204,100.167,0.0104049,0.181216,20.7684,37.1449,0.003291961,0,0
1312,327.75,52.943,57.2367,158.074,100.204,99.7135,0.01051,0.182631,20.7662,37.0248,0.0444679,0,0
1320,329.75,53.2663,56.5335,161.93,100.198,100.572,0.0106368,0.183577,20.7649,36.9848,-0.033765,0,0
1328,331.75,52.5777,56.9798,161.01,100.202,99.8854,0.0107373,0.183646,20.7637,36.8547,0.02869148,0,0
1336,333.75,52.8972,56.896,159.012,100.202,99.8016,0.0107688,0.183889,20.763,36.7245,0.03634087,0,0
1344,335.75,53.426,56.7786,154.016,100.212,100.002,0.0106968,0.184417,20.7624,36.6345,0.01899823,0,0
1352,337.75,53.5376,56.7166,159.434,100.207,99.9758,0.0106979,0.184797,20.7623,36.5143,0.0209105,0,0
1360,339.75,52.9179,57.01,156.847,100.202,99.8299,0.0107483,0.183982,20.7633,36.4042,0.0337771,0,0
1368,341.75,52.8361,57.5305,156.789,100.199,99.9241,0.0107604,0.18371,20.7638,36.3142,0.0248816,0,0
1376,343.75,53.1457,57.0744,159.317,100.205,99.6818,0.0107905,0.184372,20.764,36.184,0.0474652,0,0
1384,345.75,53.1472,57.3437,155.858,100.198,100.247,0.0107835,0.185183,20.7633,36.0439,-0.004467565,0,0
1392,347.75,52.9197,57.1788,163.559,100.197,100.31,0.0107162,0.186271,20.7625,35.9438,-0.010159,0,0
1400,349.75,53.4627,56.6585,159.517,100.196,100.451,0.0106059,0.187575,20.7613,35.8337,-0.0230615,0,0
1408,351.75,53.5306,56.9491,154.031,100.198,99.7617,0.0104406,0.188025,20.7598,35.7336,0.0395949,0,0
1416,353.75,53.4039,56.6104,160.975,100.188,99.6435,0.0103123,0.188478,20.7588,35.6235,0.0494328,0,0
1424,355.75,53.2041,57.2077,156.147,100.186,99.819,0.0102286,0.188993,20.7588,35.5034,0.0332924,0,0
1432,357.75,53.6043,57.1023,154.507,100.183,99.7934,0.0102376,0.188483,20.7598,35.3533,0.035318,0,0
1440,359.75,53.8311,57.324,160.014,100.193,99.4941,0.0103081,0.188909,20.7598,35.2732,0.0634538,0,0
1448,361.75,52.9798,57.6314,157.37,100.187,100.396,0.0103332,0.18894,20.7593,35.1531,-0.0189103,0,0
1456,363.75,53.7689,57.2483,160.728,100.191,99.974,0.010336,0.1897,20.7589,35.0229,0.0196713,0,0
1464,365.75,53.4711,57.9958,160.593,100.186,99.9336,0.0103795,0.191564,20.7568,34.9829,0.0228839,0,0
1472,367.75,53.2448,58.005,157.317,100.184,99.69,0.01048475,0.192158,20.7553,34.8228,0.0448271,0,0
1480,369.75,53.1732,57.8707,156.713,100.186,100.605,0.0105409,0.191772,20.7545,34.7527,-0.037795,0,0
1488,371.75,53.1439,57.7678,162.396,100.186,99.898,0.0103881,0.191476,20.7549,34.6226,0.0261147,0,0
1496,373.75,53.6507,57.3262,156.408,100.185,99.8941,0.0102015,0.191318,20.755,34.5325,0.0263939,0,0
1504,375.75,53.9326,57.3152,158.812,100.189,100.156,0.0101241,0.192328,20.754,34.3723,0.002992643,0,0
1512,377.75,53.5736,57.4104,161.444,100.188,99.6527,0.0102823,0.193211,20.7533,34.3023,0.0486039,0,0
1520,379.75,53.3498,58.1187,152.013,100.183,100.554,0.010452,0.193118,20.7531,34.1822,-0.033516,0,0
1528,381.75,53.6009,57.7701,156.891,100.197,100.336,0.0103953,0.193427,20.7529,34.022,-0.0126294,0,0
1536,383.75,53.6185,57.723,158.247,100.194,99.7769,0.0102484,0.194652,20.7518,33.9319,0.0377985,0,0
1544,385.75,53.6466,58.1014,158.544,100.208,99.763,0.0101045,0.195968,20.7511,33.7718,0.0403816,0,0
1552,387.75,53.9039,57.3347,161.639,100.193,99.8477,0.009999844,0.197164,20.7496,33.7317,0.03133,0,0
1560,389.75,53.8879,57.4392,161.167,100.193,99.8763,0.009984137,0.197681,20.7488,33.6817,0.0286893,0,0
1568,391.75,53.884,57.9197,158.167,100.196,100.407,0.009978535,0.198496,20.7482,33.5716,-0.0190224,0,0
1576,393.75,54.3843,57.8331,158.882,100.202,101.097,0.01000427,0.199667,20.7468,33.4214,-0.0806022,0,0
1584,395.75,53.9687,57.3903,155.914,100.202,100.486,0.0100243,0.199826,20.7454,33.2913,-0.0256319,0,0
1592,397.75,53.5595,58.2132,159.551,100.191,100.981,0.0100122,0.200416,20.7447,33.1712,-0.071253,0,0
1600,399.75,53.9738,58.3957,161.165,100.21,100.191,0.009889677,0.202131,20.7434,33.0511,0.001695844,0,0
1608,401.75,53.5998,58.3855,157.983,100.201,99.4694,0.009814065,0.202448,20.7426,32.921,0.0664266,0,0
1616,403.75,53.8319,58.1265,157.23,100.204,99.1654,0.009874232,0.204156,20.7412,32.8409,0.0944833,0,0
1624,405.75,53.7396,58.3534,157.329,100.2,100.019,0.009924336,0.205478,20.7404,32.7108,0.0164457,0,0
1632,407.75,54.6033,58.1823,156.252,100.202,100.071,0.009871733,0.206128,20.7389,32.6007,0.0118729,0,0
1640,409.75,54.0097,58.1097,155.408,100.207,99.9462,0.009754322,0.206732,20.7376,32.4705,0.0236268,0,0
1648,411.75,53.7608,58.8089,156.696,100.2,99.6705,0.009607768,0.208671,20.7362,32.3805,0.0480771,0,0
1656,413.75,54.2749,58.706,153.593,100.217,99.3665,0.009502535,0.209822,20.7351,32.2503,0.0772473,0,0
1664,415.75,54.7877,58.4608,157.429,100.212,100.008,0.009518449,0.211345,20.7327,32.1002,0.0184092,0,0
1672,417.75,54.547,59.3916,157.552,100.212,99.7291,0.009645372,0.212237,20.7314,32.0001,0.0438009,0,0
1680,419.75,54.6233,58.8846,166.015,100.205,99.9528,0.009734279,0.213628,20.729,31.92,0.02284723,0,0
1688,421.75,55.1473,59.2037,163.644,100.216,99.2979,0.009617115,0.216056,20.726,31.7799,0.0834743,0,0
1696,423.75,54.7632,59.7645,156.706,100.207,99.6058,0.009426998,0.217362,20.7246,31.6898,0.0546067,0,0
1704,425.75,54.8711,59.8944,156.539,100.197,100.344,0.009350447,0.217854,20.724,31.5697,-0.0132588,0,0
1712,427.75,54.7176,60.1619,158.234,100.199,99.7052,0.009409214,0.218943,20.7237,31.4396,0.0448035,0,0
1720,429.75,55.1244,59.558,163.634,100.21,100.294,0.009481639,0.218512,20.723,31.2894,-0.007614129,0,0
1728,431.75,54.8223,59.529,155.12,100.205,99.6566,0.009460758,0.219604,20.7218,31.1593,0.049794,0,0
1736,433.75,55.4693,59.8173,159.066,100.209,100.029,0.009396621,0.222898,20.7192,31.0492,0.0162936,0,0
1744,435.75,54.6903,60.0748,157.56,100.21,99.9619,0.009379505,0.224703,20.7179,30.9491,0.0224731,0,0
1752,437.75,55.298,60.2818,155.766,100.207,100.325,0.009420179,0.226259,20.7168,30.7689,-0.010627,0,0
1760,439.75,55.3364,60.4986,152.688,100.207,100.123,0.009468201,0.228004,20.7148,30.6188,0.0075667,0,0
1768,441.75,55.5986,60.6275,159.633,100.213,99.8094,0.009411279,0.228427,20.714,30.5087,0.0366122,0,0
1776,443.75,55.3499,60.401,158.539,100.209,99.5697,0.009310581,0.22939,20.7136,30.3986,0.05804,0,0
1784,445.75,55.5426,60.5567,157.418,100.21,99.9258,0.009323398,0.232428,20.7122,30.2184,0.0257429,0,0
1792,447.75,55.5811,60.58,159.574,100.214,100.276,0.009387515,0.233538,20.7106,30.0483,-0.00562536,0,0
1800,449.75,56.335,60.5084,149.814,100.217,100.215,0.009378534,0.234695,20.7095,30.0082,9.83655E-05,0,0
1808,451.75,56.2286,60.947,155.9,100.208,100.167,0.009346182,0.237382,20.7064,29.8481,0.003706883,0,0
1816,453.75,56.1506,61.5111,163.555,100.209,99.6205,0.009399532,0.239105,20.705,29.768,0.053414,0,0
1824,455.75,56.4015,61.5629,158.703,100.209,99.9606,0.009452276,0.239956,20.7032,29.6279,0.02247739,0,0
1832,457.75,56.4036,62.1496,156.325,100.211,100.115,0.009388362,0.241342,20.7015,29.4777,0.008652078,0,0
1840,459.75,56.4745,62.4507,152.972,100.21,98.2008,0.009271321,0.243907,20.6999,29.3776,0.183604,0,0
1848,461.75,56.5586,62.6631,151.391,100.209,100.701,0.008957674,0.246353,20.6972,29.2475,-0.0444046,0,0
1856,463.75,56.8507,62.8218,154.794,100.205,99.8025,0.008832872,0.247584,20.6955,29.0774,0.0365271,0,0
1864,465.75,57.0201,62.6054,154.902,100.207,100.227,0.008913201,0.248815,20.694,29.0073,-0.001752922,0,0
1872,467.75,57.5741,62.2956,158.057,100.207,100.14,0.00899744,0.251086,20.6928,28.8471,0.006032908,0,0
1880,469.75,57.1682,63.3201,160.501,100.207,99.5133,0.009102793,0.252161,20.6912,28.717,0.0629943,0,0
1888,471.75,57.804,62.9317,153.533,100.2,99.3439,0.009252228,0.254829,20.6881,28.6069,0.0778003,0,0
1896,473.75,58.2002,63.091,151.553,100.207,100.095,0.009284083,0.257259,20.685,28.4267,0.0101595,0,0
1904,475.75,58.2549,63.2951,154.698,100.215,99.555,0.009240383,0.259366,20.6827,28.2966,0.0598754,0,0
1912,477.75,58.352,63.6851,157.876,100.204,99.9441,0.009196615,0.260841,20.6803,28.1465,0.0235599,0,0
1920,479.75,57.6225,64.177,154.162,100.212,100.199,0.009217144,0.262607,20.6791,27.9863,0.001140325,0,0
1928,481.75,58.2793,63.6995,155.211,100.213,99.5237,0.00918857,0.264608,20.677,27.8562,0.0626111,0,0
1936,483.75,58.0815,64.3866,153.881,100.215,99.9532,0.009073311,0.267393,20.6735,27.7361,0.023713,0,0
1944,485.75,58.0393,64.7274,154.507,100.21,99.3126,0.008964131,0.269901,20.6702,27.5459,0.0815216,0,0
1952,487.75,58.7518,65.5385,149.711,100.207,99.7882,0.008964684,0.273542,20.6653,27.3758,0.0379427,0,0
1960,489.75,59.3099,65.1687,151.132,100.206,99.2431,0.008987886,0.276516,20.6617,27.2656,0.0875658,0,0
1968,491.75,59.5039,65.1002,153.486,100.201,99.2371,0.008933022,0.280973,20.6573,27.1255,0.0876697,0,0
1976,493.75,59.1318,66.2354,155.233,100.208,98.593,0.008925969,0.284335,20.6545,26.9654,0.147351,0,0
1984,495.75,59.5645,66.0789,153.717,100.21,99.2979,0.009023424,0.287283,20.6515,26.8052,0.0828702,0,0
1992,497.75,59.6913,66.281,156.034,100.215,99.0803,0.009210619,0.289927,20.6485,26.6551,0.103212,0,0
2000,499.75,59.622,66.8104,155.499,100.207,99.2062,0.009368301,0.291972,20.6462,26.4649,0.091053,0,0
2008,501.75,59.8083,66.8494,151.849,100.197,98.8935,0.009466763,0.29425,20.6431,26.2447,0.118773,0,0
2016,503.75,60.0975,67.3186,150.573,100.21,98.8488,0.009436383,0.297655,20.6379,26.1346,0.124045,0,0
2024,505.75,60.2159,67.794,152.975,100.207,98.5756,0.00935673,0.302787,20.6339,25.9344,0.148873,0,0
2032,507.75,60.728,67.5351,157.776,100.2,98.5565,0.009247622,0.305268,20.6304,25.8043,0.14999,0,0
2040,509.75,60.9502,67.7082,150.982,100.211,98.6277,0.009130645,0.307452,20.6274,25.6141,0.144421,0,0
2048,511.75,61.7162,68.3773,151.354,100.205,98.3198,0.009047207,0.311163,20.6242,25.504,0.172207,0,0
2056,513.75,61.7561,68.6105,156.23,100.2,99.8186,0.00904268,0.314709,20.62,25.3038,0.0345772,0,0
2064,515.75,61.7406,68.823,153.861,100.215,97.9186,0.009087543,0.317829,20.6162,25.0936,0.210159,0,0
2072,517.75,61.7221,69.1828,151.917,100.209,98.9509,0.009221978,0.3196,20.6144,24.8934,0.114574,0,0
2080,519.75,62.2458,69.4187,151.221,100.212,99.3734,0.009341811,0.322537,20.6115,24.7032,0.076198,0,0
2088,521.75,62.5733,69.7203,154.28,100.212,99.0811,0.009394587,0.325495,20.6075,24.5231,0.102907,0,0
2096,523.75,62.5925,70.3211,156.686,100.215,98.5014,0.009392204,0.328198,20.6053,24.3129,0.156349,0,0
2104,525.75,62.5186,70.5794,147.162,100.218,99.9033,0.009441794,0.330174,20.6025,24.1727,0.02854709,0,0
2112,527.75,63.1432,70.6525,151.76,100.207,98.6616,0.009563116,0.331642,20.5997,23.9525,0.140967,0,0
2120,529.75,62.8482,71.3717,148.584,100.208,99.2331,0.009643613,0.335389,20.5968,23.7624,0.0886674,0,0
2128,531.75,63.2273,71.0616,152.498,100.208,98.9891,0.009589562,0.340182,20.5911,23.6122,0.11096,0,0
2136,533.75,63.3343,71.575,152.733,100.205,98.8288,0.009572699,0.342931,20.5873,23.402,0.125349,0,0
2144,535.75,63.6298,72.2664,150.514,100.208,98.6886,0.00960207,0.344695,20.5856,23.2619,0.138531,0,0
2152,537.75,63.905,72.4816,156.272,100.215,98.9912,0.009587559,0.346088,20.5837,23.0417,0.111403,0,0
2160,539.75,63.7564,72.4307,149.322,100.212,98.53,0.009424184,0.348072,20.5813,22.8815,0.153484,0,0
2168,541.75,64.2093,72.5952,152.463,100.216,99.3508,0.009322151,0.3507,20.578,22.6513,0.0786362,0,0
2176,543.75,64.5515,73.0092,150.458,100.204,98.8875,0.009427136,0.352007,20.5764,22.4611,0.119896,0,0
2184,545.75,65.2042,73.0163,151.1,100.21,99.419,0.009649543,0.352399,20.5761,22.301,0.0718879,0,0
2192,547.75,64.9181,72.9176,147.83,100.218,98.3511,0.009784696,0.350347,20.5769,22.1108,0.170493,0,0
2200,549.75,64.6147,73.5422,155.303,100.215,98.1917,0.009879336,0.351323,20.5782,21.9206,0.184936,0,0
2208,551.75,65.0129,73.4911,152.49,100.21,98.4645,0.0099851,0.350258,20.5783,21.7204,0.15937,0,0
2216,553.75,65.3121,72.9662,150.215,100.212,98.4623,0.0100592,0.35044,20.5788,21.5503,0.159683,0,0
2224,555.75,65.1789,73.1692,152.646,100.197,98.1079,0.0100946,0.349553,20.5802,21.3701,0.191095,0,0
2232,557.75,64.8939,73.5242,151.599,100.213,97.9511,0.01002413,0.348377,20.582,21.1399,0.20703,0,0
2240,559.75,64.9946,73.3096,150.542,100.207,97.8973,0.009924449,0.34654,20.5837,20.9397,0.211451,0,0
2248,561.75,65.6572,72.7525,147.77,100.207,98.0736,0.009810712,0.346791,20.5826,20.7996,0.195097,0,0
2256,563.75,65.2843,73.7011,148.803,100.205,98.6225,0.009790014,0.348299,20.5827,20.5994,0.144334,0,0
2264,565.75,65.426,73.741,157.886,100.2,97.8117,0.009863644,0.34648,20.5839,20.4092,0.218774,0,0
2272,567.75,65.1795,73.7795,153.37,100.201,97.8534,0.009954529,0.344022,20.5859,20.229,0.214948,0,0
2280,569.75,65.408,73.6697,150.812,100.201,98.7554,0.009977214,0.342353,20.5871,20.0188,0.131746,0,0
2288,571.75,66.0071,73.133,153.258,100.194,99.1315,0.009935221,0.340854,20.5886,19.8587,0.0966375,0,0
2296,573.75,65.7966,72.992,153.865,100.19,98.4093,0.009856067,0.33913,20.5892,19.6885,0.162602,0,0
2304,575.75,65.8578,73.0291,148.458,100.182,98.5739,0.00983021,0.339197,20.5907,19.5184,0.146732,0,0
2312,577.75,65.4092,73.1664,152.723,100.2,98.6773,0.009711599,0.338785,20.5902,19.3182,0.138813,0,0
2320,579.75,65.1412,73.2075,148.004,100.191,98.4219,0.009544672,0.338118,20.5914,19.088,0.161517,0,0
2328,581.75,65.4181,73.429,154.592,100.189,99.1719,0.00944427,0.337079,20.5924,18.9278,0.0925672,0,0
2336,583.75,65.7194,72.936,147.349,100.183,98.643,0.00940105,0.335066,20.5941,18.7677,0.140496,0,0
2344,585.75,65.652,72.9715,151.072,100.182,98.2708,0.00938659,0.332275,20.5968,18.5675,0.174659,0,0
2352,587.75,65.6681,72.554,150.754,100.178,97.6502,0.009390378,0.329717,20.5994,18.4173,0.231765,0,0
2360,589.75,65.2817,73.1675,152.193,100.181,98.8705,0.009424211,0.328332,20.6006,18.2472,0.119374,0,0
2368,591.75,65.9001,72.262,148.08,100.169,98.7841,0.009489232,0.328306,20.6011,18.057,0.126284,0,0
2376,593.75,65.6215,72.6695,153.027,100.159,97.8643,0.0096103,0.328066,20.6023,17.9369,0.210131,0,0
2384,595.75,65.241,72.4502,153.907,100.149,98.1274,0.009799358,0.326001,20.6039,17.6666,0.184912,0,0
2392,597.75,65.9706,72.2268,149.405,100.149,97.7722,0.0100496,0.323018,20.6058,17.5265,0.217798,0,0
2400,599.75,65.1756,72.7029,152.382,100.142,98.3698,0.0102669,0.321594,20.6073,17.3363,0.161943,0,0
2408,601.75,65.0672,72.0947,152.549,100.14,98.3042,0.0102318,0.31908,20.6087,17.1762,0.1678,0,0
2416,603.75,65.4963,71.9866,150.13,100.135,98.1813,0.010155,0.317469,20.6107,17.006,0.178691,0,0
2424,605.75,65.169,72.3786,145.769,100.132,98.8128,0.0101397,0.3148987,20.6135,16.8358,0.120295,0,0
2432,607.75,65.1566,72.2074,150.351,100.126,97.5029,0.0101095,0.312666,20.6149,16.7157,0.240729,0,0
2440,609.75,65.595,71.6631,154.498,100.122,99.0855,0.009921335,0.310842,20.6166,16.5956,0.0943966,0,0
2448,611.75,65.6976,71.3149,153.188,100.11,98.309,0.009686373,0.309456,20.6191,16.4355,0.164642,0,0
2456,613.75,65.3268,71.1183,156.742,100.098,98.9439,0.009598985,0.307804,20.6212,16.2753,0.105134,0,0
2464,615.75,65.4942,71.0902,149.771,100.094,97.8903,0.009705648,0.304603,20.6248,16.0551,0.201828,0,0
2472,617.75,65.1827,70.7282,155.703,100.097,98.7137,0.009739236,0.300379,20.6305,15.895,0.126139,0,0
2480,619.75,64.5869,70.7984,154.545,100.086,98.7593,0.009609109,0.295389,20.6353,15.7949,0.12097,0,0
2488,621.75,64.0112,70.5203,153.654,100.083,98.8227,0.009447578,0.293684,20.6374,15.6848,0.114885,0,0
2496,623.75,64.6954,70.5719,145.871,100.081,98.6855,0.009350479,0.293668,20.6386,15.5346,0.127298,0,0
2504,625.75,64.1858,70.2389,154.098,100.077,97.8851,0.009318314,0.290755,20.6421,15.3444,0.200801,0,0
2512,627.75,64.2833,69.5593,153.136,100.06,97.9859,0.009305677,0.286915,20.646,15.2043,0.189961,0,0
2520,629.75,63.8554,70.361,150.502,100.048,98.5127,0.009325812,0.285019,20.648,15.0842,0.1402466,0,0
2528,631.75,64.3574,69.1909,150.212,100.029,98.7515,0.009351854,0.2827546,20.6508,14.924,0.116588,0,0
2536,633.75,64.338,69.0898,155.668,100.014,97.8043,0.009297882,0.27877,20.6562,14.854,0.202544,0,0
2544,635.75,63.3667,69.6117,151.498,100.002,98.1379,0.009183249,0.274175,20.6605,14.6938,0.170653,0,0
2552,637.75,63.0316,68.7587,160.618,99.9923,99.5493,0.009107425,0.269792,20.6655,14.5837,0.0402632,0,0
2560,639.75,62.8357,68.4566,154.341,99.9765,99.3621,0.009070907,0.267228,20.6682,14.4136,0.0558928,0,0
2568,641.75,63.5922,68.3575,154.133,99.9536,99.3474,0.009010011,0.263777,20.6715,14.3035,0.05516,0,0
2576,643.75,63.3309,67.6116,156.09,99.9248,99.7004,0.009030365,0.258828,20.6755,14.1633,0.0203821,0,0
2584,645.75,62.7126,67.5965,149.032,99.9094,99.2553,0.009112287,0.253587,20.6808,14.0432,0.0595586,0,0
2592,647.75,62.7642,66.9501,156.164,99.8881,98.606,0.009172951,0.249511,20.6861,13.9431,0.1171377,0,0
2600,649.75,62.3151,67.1246,156.951,99.8652,99.3656,0.009162576,0.246194,20.6891,13.853,0.04547463,0,0
2608,651.75,61.7592,66.5534,156.967,99.8485,99.1836,0.009071636,0.242441,20.6927,13.7329,0.0605809,0,0
2616,653.75,62.2622,66.0709,152.433,99.8206,99.812,0.009041818,0.238318,20.6984,13.6128,0.000775004,0,0
2624,655.75,61.5885,65.6684,154.903,99.8077,99.4412,0.009133923,0.233022,20.7055,13.5227,0.0333571,0,0
2632,657.75,61.6801,64.9231,156.877,99.7897,99.2827,0.009268505,0.228163,20.71,13.4026,0.0461941,0,0
2640,659.75,61.1287,64.3494,154.032,99.7739,98.9439,0.009371964,0.225171,20.7126,13.3225,0.0757456,0,0
2648,661.75,60.7417,64.3315,156.014,99.7714,99.3925,0.009470098,0.221231,20.7166,13.2024,0.0344975,0,0
2656,663.75,60.5292,64.2632,156.029,99.7601,98.5982,0.009475441,0.219462,20.7189,13.1023,0.106232,0,0
2664,665.75,60.0225,64.2444,157.503,99.746,98.9426,0.009490752,0.21837,20.7205,12.9622,0.07332588,0,0
2672,667.75,60.218,63.22,150.816,99.7443,99.3078,0.009609576,0.215568,20.7249,12.9222,0.0397639,0,0
2680,669.75,59.9848,63.7805,161.219,99.731,99.6627,0.009665308,0.211837,20.7277,12.8721,0.006212224,0,0
2688,671.75,59.5399,63.3372,153.165,99.723,98.9322,0.009600557,0.209347,20.7285,12.782,0.07219781,0,0
2696,673.75,59.3874,63.4786,154.615,99.7234,99.1432,0.009628536,0.20764,20.7308,12.6519,0.05291,0,0
2704,675.75,59.3411,62.9639,155.003,99.716,98.8701,0.009885362,0.205489,20.7342,12.6019,0.0772473,0,0
2712,677.75,59.255,63.2164,156.922,99.7793,99.3144,0.0103024,0.202078,20.7368,12.4917,0.0423529,0,0
2720,679.75,59.013,62.8241,158.462,99.8414,99.4116,0.0106675,0.198928,20.7398,12.4117,0.0391171,0,0
2728,681.75,59.2406,62.112,159.156,99.9098,99.8863,0.0108437,0.197508,20.7414,12.3316,0.002131373,0,0
2736,683.75,58.8806,62.2429,156.058,99.9619,99.5771,0.0108361,0.196483,20.7427,12.2715,0.0349713,0,0
2744,685.75,59.0338,61.3812,160.752,100.015,100.455,0.0106197,0.19428,20.7444,12.2115,-0.0397626,0,0
2752,687.75,58.2871,61.5329,154.279,100.084,100.111,0.0102847,0.191696,20.747,12.1514,-0.002390825,0,0
2760,689.75,58.9133,60.742,158.565,100.135,100.244,0.0101497,0.189206,20.7497,12.0313,-0.009812721,0,0
2768,691.75,58.2951,60.5661,156.507,100.162,100.048,0.0102257,0.18667,20.7522,11.9312,0.0103355,0,0
2776,693.75,57.9172,60.6811,157.625,100.196,99.8207,0.0104252,0.184526,20.7541,11.9012,0.03403984,0,0
2784,695.75,57.4229,60.8393,160.198,100.261,100.231,0.0106257,0.181984,20.7565,11.8511,0.00272033,0,0
2792,697.75,58.197,59.6517,158.448,100.331,99.8086,0.01076076,0.180606,20.7595,11.7711,0.0473588,0,0
2800,699.75,57.2777,60.0328,159.658,100.372,100.725,0.010826,0.179261,20.761,11.681,-0.0318215,0,0
2808,701.75,57.4571,59.47612,157.941,100.43,100.862,0.0108837,0.177197,20.7625,11.6009,-0.03893099,0,0
2816,703.75,57.2022,59.4335,157.952,100.457,100.731,0.0109631,0.17427,20.7648,11.5308,-0.02464929,0,0
2824,705.75,56.7987,59.1164,155.002,100.508,100.516,0.0110416,0.172702,20.7672,11.4508,-0.000726965,0,0
2832,707.75,56.7182,58.8588,161.068,100.537,100.894,0.0111238,0.171963,20.7691,11.4508,-0.0321529,0,0
2840,709.75,57.0976,58.7927,154.807,100.558,100.669,0.0112335,0.169486,20.7713,11.3507,-0.009996682,0,0
2848,711.75,56.5357,58.4723,158.198,100.591,99.9276,0.0114287,0.167976,20.7726,11.3006,0.0599581,0,0
2856,713.75,56.455,58.8893,157.341,100.62,100.338,0.0116896,0.16802,20.7731,11.2206,0.0254238,0,0
2864,715.75,56.1494,58.7136,156.14,100.638,100.945,0.0118594,0.166076,20.7734,11.1905,-0.0275882,0,0
2872,717.75,56.4041,58.2011,157.944,100.653,100.336,0.0119279,0.164717,20.7747,11.1004,0.0286247,0,0
2880,719.75,56.4576,57.874,157.788,100.667,100.773,0.0119321,0.163759,20.7754,11.0704,-0.009572495,0,0
2888,721.75,55.853,58.4465,160.367,100.67,100.15,0.0119861,0.162365,20.7768,10.9403,0.0469383,0,0
2896,723.75,55.525,57.9448,162.482,100.68,100.712,0.0120681,0.1604231,20.7805,10.9103,-0.002898477,0,0
2904,725.75,55.2249,57.6199,159.298,100.664,100.275,0.0122947,0.15837,20.7831,10.9403,0.03509729,0,0
2912,727.75,55.8794,57.3342,156.667,100.667,100.857,0.0125716,0.157773,20.7842,10.8502,-0.0170344,0,0
2920,729.75,55.3326,57.1495,161.779,100.651,100.688,0.0127161,0.157669,20.7847,10.8002,-0.003335869,0,0
2928,731.75,55.3695,57.2585,156.935,100.631,100.017,0.0128094,0.156499,20.7851,10.7301,0.0555253,0,0
2936,733.75,55.8773,56.7781,160.569,100.613,99.594,0.0128828,0.155483,20.7864,10.6901,0.0923029,0,0
2944,735.75,55.211,56.7149,159.111,100.575,100.042,0.012826,0.154203,20.787,10.63,0.04820931,0,0
2952,737.75,55.2217,56.8129,160.327,100.535,100.422,0.0126779,0.15316,20.7878,10.59,0.0101854,0,0
2960,739.75,54.5483,56.4056,160.554,100.508,100.527,0.0126417,0.151879,20.7889,10.5299,-0.001745354,0,0
2968,741.75,54.8306,56.1212,158.736,100.458,99.7217,0.01284947,0.150704,20.7896,10.4598,0.06669917,0,0
2976,743.75,54.6817,55.8774,156.879,100.403,100.293,0.0130218,0.149348,20.7922,10.4298,0.009874457,0,0
2984,745.75,54.0107,56.6042,153.617,100.345,99.2054,0.0130703,0.14816,20.7938,10.3698,0.103609,0,0
2992,747.75,53.9576,56.1098,155.76,100.266,100.316,0.0130827,0.148387,20.7931,10.3097,-0.004525965,0,0
3000,749.75,54.4929,55.5517,158.74,100.212,100.4,0.0132087,0.148261,20.7933,10.3297,-0.0169992,0,0
3008,751.75,54.4629,55.5594,160.41,100.143,99.7491,0.0133615,0.147044,20.7952,10.2897,0.03572179,0,0
3016,753.75,54.217,54.9578,163.283,100.054,99.8759,0.0134418,0.145741,20.7963,10.2396,0.0161954,0,0
3024,755.75,53.5624,55.1531,158.809,100.078,99.9549,0.01338248,0.144819,20.7979,10.1996,0.0111377,0,0
3032,757.75,53.012,55.2189,155.493,100.104,99.9397,0.0132383,0.143824,20.7988,10.1596,0.0149339,0,0
3040,759.75,53.0624,55.1983,163.568,100.13,100.305,0.0131542,0.142258,20.7992,10.0895,-0.0158805,0,0
3048,761.75,53.492,54.7524,156.3,100.162,99.9462,0.0132403,0.141757,20.7994,10.0695,0.0195893,0,0
3056,763.75,53.1649,55.2359,159.335,100.195,99.7026,0.0136231,0.141817,20.7995,10.0294,0.0447013,0,0
3064,765.75,53.0875,55.3577,158.617,100.24,100.44,0.0140786,0.141217,20.8003,10.0094,-0.01812122,0,0
3072,767.75,53.2044,55.2103,159.324,100.28,100.066,0.0143554,0.140599,20.8017,9.9894,0.0193952,0,0
3080,769.75,53.374,54.5592,160.533,100.306,100.151,0.0144622,0.139014,20.8033,9.92934,0.0139842,0,0
3088,771.75,52.5469,54.9087,163.3,100.35,100.295,0.0143812,0.137033,20.806,9.87929,0.004934252,0,0
3096,773.75,52.8587,53.8693,158.739,100.383,100.007,0.0143386,0.136227,20.8076,9.82925,0.0340172,0,0
3104,775.75,52.313,54.1441,159.088,100.433,100.496,0.0144006,0.13517,20.8082,9.7792,-0.005735145,0,0
3112,777.75,52.091,54.081,156.037,100.461,100.222,0.0145058,0.135307,20.8085,9.75918,0.0215457,0,0
3120,779.75,52.0828,53.9686,166.371,100.493,100.469,0.0146475,0.134509,20.8087,9.71914,0.002114082,0,0
3128,781.75,52.0099,54.0302,155.71,100.528,99.7708,0.0147727,0.133628,20.8087,9.6791,0.0685199,0,0
3136,783.75,52.5495,53.8896,159.737,100.552,100.309,0.01486,0.13332,20.8087,9.55899,0.0219275,0,0
3144,785.75,52.1428,53.873,158.868,100.573,100.626,0.0148816,0.13363,20.8087,9.53897,-0.004805533,0,0
3152,787.75,52.4779,53.5613,156.461,100.599,100.33,0.0148234,0.134116,20.8086,9.52896,0.0242909,0,0
3160,789.75,51.8012,53.8143,157.238,100.626,100.909,0.0146894,0.133283,20.8094,9.55899,-0.025478,0,0
3168,791.75,52.5441,53.626,165.682,100.642,100.632,0.01453982,0.132573,20.81,9.55899,0.000921999,0,0
3176,793.75,52.4528,53.4517,160.521,100.651,100.926,0.0144108,0.132031,20.8115,9.42887,-0.0247821,0,0
3184,795.75,52.4547,53.6439,155.83,100.669,100.438,0.0143173,0.131801,20.8122,9.38883,0.0208307,0,0
3192,797.75,51.9374,53.5139,161.178,100.688,100.782,0.0143456,0.131712,20.8125,9.40885,-0.008477489,0,0
3200,799.75,52.2804,53.1132,157.103,100.698,100.819,0.0143963,0.131791,20.8121,9.40885,-0.010936,0,0
3208,801.75,52.3001,53.6466,158.753,100.705,100.687,0.0143375,0.13102,20.8128,9.3588,0.001584527,0,0
3216,803.75,52.4157,53.1155,165.574,100.727,100.053,0.0142258,0.129334,20.814,9.32877,0.0608557,0,0
3224,805.75,51.6699,53.1184,160.474,100.738,100.608,0.0140769,0.128131,20.8154,9.26872,0.0117844,0,0
3232,807.75,51.5492,53.7017,156.636,100.75,101.039,0.0139435,0.127894,20.816,9.27873,-0.0260265,0,0
3240,809.75,51.2862,53.8712,159.454,100.764,101.495,0.0138556,0.127233,20.8167,9.2487,-0.0655443,0,0
3248,811.75,51.4552,53.049,160.839,100.761,100.665,0.0139099,0.126022,20.8179,9.22868,0.008682315,0,0
3256,813.75,50.6831,52.9522,161.097,100.766,100.737,0.0140774,0.124744,20.8185,9.14861,0.0025658,0,0
3264,815.75,51.0669,53.0391,160.792,100.779,101.225,0.0141946,0.124664,20.8188,9.19865,-0.0400286,0,0
3272,817.75,51.0286,53.0538,160.002,100.777,101.107,0.0142257,0.12507,20.8189,9.14861,-0.029629,0,0
3280,819.75,50.9911,52.9408,162.722,100.776,100.471,0.01426149,0.124799,20.8192,9.07854,0.0275363,0,0
3288,821.75,50.8595,52.8049,158.811,100.779,100.496,0.0143923,0.123735,20.8204,9.0385,0.0254896,0,0
3296,823.75,50.7087,52.4185,164.988,100.778,101.01,0.014434,0.122893,20.8214,9.0385,-0.02090144,0,0
3304,825.75,50.4709,52.9293,161.113,100.787,100.19,0.0142622,0.121977,20.8218,9.02849,0.05390615,0,0
3312,827.75,50.6997,52.3475,162.087,100.781,101.184,0.0140855,0.121144,20.8222,8.99846,-0.0362592,0,0
3320,829.75,50.8469,52.183,161.398,100.767,101.142,0.0140008,0.120285,20.8235,8.93841,-0.03368203,0,0
3328,831.75,51.3062,52.1897,159.835,100.758,100.993,0.0140316,0.120294,20.8239,8.96844,-0.0211441,0,0
3336,833.75,50.467,52.7683,163.508,100.752,101.107,0.0140529,0.120761,20.8232,8.9284,-0.0319175,0,0
3344,835.75,50.0978,52.4105,161.909,100.74,100.941,0.0139357,0.120449,20.8221,8.94842,-0.0180752,0,0
3352,837.75,50.5664,51.9588,161.807,100.721,100.565,0.0137791,0.119986,20.8216,8.89837,0.0140079,0,0
3360,839.75,50.1824,52.5477,160.526,100.71,100.725,0.0137991,0.119752,20.8227,8.89837,-0.00132966,0,0
3368,841.75,50.827,51.6564,164.943,100.688,100.229,0.01391097,0.118786,20.8242,8.87835,0.0414405,0,0
3376,843.75,50.3887,51.9886,161.217,100.672,101.022,0.0139551,0.117988,20.8246,8.8283,-0.03152483,0,0
3384,845.75,50.0584,51.6361,165.602,100.645,100.88,0.01391554,0.117207,20.8255,8.80829,-0.0212102,0,0
3392,847.75,49.8822,52.1923,162.089,100.613,100.001,0.0139413,0.117172,20.8255,8.74823,0.0553309,0,0
3400,849.75,50.0395,51.4175,162.388,100.593,100.795,0.0140724,0.117486,20.8252,8.75824,-0.0182122,0,0
3408,851.75,50.1162,51.3292,162.501,100.557,100.792,0.0141622,0.11735,20.8251,8.75824,-0.0211728,0,0
3416,853.75,50.0922,52.0662,164.019,100.535,100.256,0.0141741,0.117248,20.8251,8.70819,0.02525243,0,0
3424,855.75,50.0059,52.1811,162.251,100.482,100.399,0.0141568,0.11713,20.825,8.70819,0.007525657,0,0
3432,857.75,50.5247,51.4906,161.932,100.44,101.103,0.0140849,0.116921,20.8261,8.62812,-0.0595955,0,0
3440,859.75,49.5668,52.0349,161.496,100.397,100.633,0.0139954,0.116612,20.8273,8.6081,-0.02130774,0,0
3448,861.75,50.3059,51.5685,156.416,100.353,100.254,0.0141648,0.115941,20.8278,8.62812,0.009004124,0,0
3456,863.75,49.7532,51.519,161.206,100.301,100.31,0.0144934,0.115059,20.829,8.59809,-0.000808583,0,0
3464,865.75,49.5002,51.6341,160.655,100.264,100.424,0.0147826,0.113814,20.8298,8.57807,-0.0144432,0,0
3472,867.75,49.836,50.6192,161.409,100.224,100.13,0.0149269,0.113372,20.8302,8.56806,0.008522487,0,0
3480,869.75,49.7251,51.2004,163.109,100.178,100.833,0.0148921,0.113159,20.8304,8.56806,-0.0590776,0,0
3488,871.75,49.1767,51.3384,160.15,100.114,99.8763,0.01481005,0.113212,20.8304,8.54804,0.0215565,0,0
3496,873.75,49.2263,51.7133,159.151,100.093,100.265,0.01485288,0.113021,20.8297,8.508,-0.0155904,0,0
3504,875.75,49.6194,51.0599,163.517,100.039,99.6509,0.0149899,0.112817,20.8288,8.49799,0.0352437,0,0
3512,877.75,49.4358,50.5828,160.36,99.9977,99.5515,0.015108,0.112563,20.8292,8.49799,0.040557,0,0
3520,879.75,48.7643,51.1585,161.11,99.9277,99.766,0.0151689,0.112091,20.8309,8.45796,0.0146846,0,0
3528,881.75,49.7866,50.7637,161.158,99.8827,100.579,0.0150644,0.111798,20.8312,8.51801,-0.0629545,0,0
3536,883.75,50.0528,50.377,160.804,99.8468,99.578,0.0148363,0.111613,20.8314,8.42793,0.0244504,0,0
3544,885.75,49.2729,51.1105,157.25,99.8018,100.066,0.0146263,0.111603,20.8314,8.37788,-0.023941,0,0
3552,887.75,48.9586,50.8331,159.369,99.7493,99.6331,0.0145042,0.111657,20.8312,8.38789,0.0105666,0,0
3560,889.75,48.7223,51.0651,157.686,99.6918,99.8351,0.0144558,0.111735,20.8301,8.32783,-0.0130245,0,0
3568,891.75,48.8795,50.7859,163.308,99.6363,99.5558,0.0143593,0.111225,20.8308,8.30781,0.007329087,0,0
3576,893.75,49.1176,50.1256,158.331,99.5863,99.6948,0.01426178,0.110661,20.8312,8.30781,-0.009872779,0,0
3584,895.75,48.679,50.8145,158.761,99.5309,100.048,0.0141917,0.110837,20.8314,8.2878,-0.0470179,0,0
3592,897.75,49.3951,50.6285,159.143,99.4696,98.7229,0.0141827,0.111152,20.8314,8.31782,0.0683279,0,0
3600,899.75,48.8024,50.7984,165.516,99.4241,99.6023,0.0142069,0.110652,20.8327,8.31782,-0.0162319,0,0
3608,901.75,49.2954,50.1699,167.261,99.3921,99.1511,0.0143229,0.110814,20.8322,8.31782,0.0220126,0,0
3616,903.75,48.7652,50.4007,162.891,99.347,99.4164,0.0144152,0.111037,20.8318,8.27779,-0.006330601,0,0
3624,905.75,48.4325,50.9106,164.043,99.3016,99.9645,0.0144033,0.11122,20.8313,8.23775,-0.06033,0,0
3632,907.75,49.0469,50.1504,162.161,99.2453,99.6427,0.014351,0.111074,20.8309,8.22774,-0.0362321,0,0
3640,909.75,48.7912,50.0768,160.704,99.1982,99.5367,0.0142763,0.110824,20.8308,8.20772,-0.0308892,0,0
3648,911.75,48.7768,50.2033,159.543,99.1419,99.4021,0.014114,0.110832,20.8307,8.16768,-0.0237622,0,0
3656,913.75,48.6437,49.937,164.618,99.1048,98.4679,0.0140191,0.110497,20.8319,8.1877,0.058461,0,0
3664,915.75,48.7753,49.8487,162.597,99.064,98.3337,0.0139979,0.110316,20.8326,8.20772,0.0670897,0,0
3672,917.75,48.4284,50.5356,164.289,99.0194,98.1909,0.0139883,0.11033,20.8333,8.16768,0.0761915,0,0
3680,919.75,48.6603,49.8581,162.583,98.991,99.852,0.0139664,0.10997,20.8336,8.15767,-0.0785243,0,0
3688,921.75,48.3054,50.3749,162.305,98.9577,98.9409,0.0139701,0.109662,20.8337,8.13765,0.001541296,0,0
3696,923.75,48.1323,50.8216,164.65,98.9285,98.745,0.013987,0.109494,20.8337,8.09762,0.0168352,0,0
3704,925.75,48.7225,50.1581,159.504,98.8997,98.3081,0.0139789,0.109624,20.8338,8.08761,0.05440687,0,0
3712,927.75,48.3728,50.8329,164.345,98.8735,98.808,0.0140386,0.109482,20.8341,8.0776,0.006009143,0,0
3720,929.75,48.9206,49.862,160.351,98.8556,98.8501,0.014083,0.109422,20.8343,8.04757,0.000500464,0,0
3728,931.75,48.776,50.151,157.214,98.8447,98.7954,0.0141073,0.109991,20.8344,8.04757,0.004526949,0,0
3736,933.75,48.3807,50.6107,161.566,98.8339,98.2877,0.01409144,0.11017,20.8344,8.02755,0.0502488,0,0
3744,935.75,48.3888,50.8322,160.207,98.8306,98.4037,0.0140251,0.11013,20.8344,8.02755,0.0392516,0,0
3752,937.75,47.9892,50.4229,160.313,98.8247,98.5383,0.0138927,0.109922,20.8344,8.00753,0.0263195,0,0
3760,939.75,48.6657,49.9423,163.299,98.8318,98.8371,0.0138033,0.109827,20.8344,7.96749,-0.000483736,0,0
3768,941.75,48.2183,50.4091,163.906,98.8347,99.1315,0.0137336,0.109368,20.8344,7.95748,-0.0271897,0,0
3776,943.75,48.4513,49.7251,167.037,98.8476,98.5756,0.0136497,0.109126,20.8344,7.90744,0.0249862,0,0
3784,945.75,48.1613,49.8113,158.268,98.8522,98.5978,0.0136486,0.10936,20.8344,7.93747,0.0233702,0,0
3792,947.75,48.0382,50.0976,161.384,98.8581,99.0594,0.0138099,0.109744,20.8344,7.89743,-0.0184516,0,0
3800,949.75,47.9999,50.073,160.756,98.8772,99.0364,0.0139654,0.10964,20.8344,7.90744,-0.0145861,0,0
3808,951.75,47.6218,50.1032,162.928,98.8881,98.699,0.0140422,0.109228,20.8344,7.91745,0.0173563,0,0
3816,953.75,47.7834,50.684,161.816,98.916,99.3335,0.0139917,0.109475,20.8344,7.90744,-0.0381885,0,0
3824,955.75,48.3143,49.8505,163.499,98.9402,99.0768,0.0138771,0.109372,20.8344,7.88742,-0.012513,0,0
3832,957.75,47.794,49.8417,159.93,98.9744,99.4095,0.0137559,0.109182,20.8344,7.85739,-0.0397751,0,0
3840,959.75,47.8915,49.7511,163.145,99.0106,98.7098,0.0136415,0.108788,20.8344,7.84738,0.0275891,0,0
3848,961.75,48.2642,49.7246,163.542,99.0461,99.5076,0.0135324,0.108449,20.8347,7.85739,-0.0421563,0,0
3856,963.75,47.6544,50.1236,156.982,99.0819,98.9904,0.0135275,0.108129,20.8358,7.81735,0.008379935,0,0
3864,965.75,47.8252,50.1047,160.059,99.1115,99.5832,0.0136122,0.108412,20.835,7.78733,-0.04305068,0,0
3872,967.75,47.5414,50.1457,166.1,99.1528,99.2653,0.0136796,0.108662,20.8347,7.69724,-0.0102829,0,0
3880,969.75,48.0966,49.4208,165.083,99.1699,99.2662,0.0137168,0.108444,20.8345,7.70725,-0.008799377,0,0
3888,971.75,47.9386,49.3722,161.116,99.1974,99.0078,0.01378333,0.108621,20.8345,7.76731,0.0173509,0,0
3896,973.75,47.4512,49.783,160.412,99.227,99.3969,0.0138503,0.108876,20.835,7.73728,-0.01551239,0,0
3904,975.75,47.8378,49.9157,162.58,99.2741,99.1993,,0.108727,,7.70725,0.00683548,0,0
3912,977.75,47.509,50.2498,161.579,99.2999,99.0117,,0.108544,,7.71726,0.0263616,0,0
3920,979.75,47.3937,49.8999,161.229,99.3312,99.4238,,,,7.70725,-0.008449899,0,0
3928,981.75,47.699,49.6544,163.613,99.3641,99.3695,,,,7.72727,-0.000492384,0,0
3936,983.75,48.3895,49.3026,159.462,99.3645,99.5936,,,,7.66721,-0.0208798,0,0
3944,985.75,47.3634,49.5468,164.998,99.4058,98.9756,,,,7.64719,0.0393269,0,0
3947,986.5,47.7287,49.6553,162.921,99.4171,99.0295,,,,7.63718,0.0354214,0,0