File: 01_Data/Pine_Siding/Cone/Pine_Siding_HRRPUA_75.csv
Time after Ignition,Pine_Siding_R1,Pine_Siding_R2,Pine_Siding_R3,Mean,Std. Dev.
0.0,9.3,7.3,18.7,11.8,6.1
0.5,17.9,12.3,21.9,17.4,4.8
1.0,29.8,20.8,24.8,25.2,4.5
1.5,39.3,27.0,35.4,33.9,6.3
2.0,59.7,47.3,44.4,50.5,8.1
2.5,74.8,62.7,63.7,67.1,6.7
3.0,104.7,84.7,78.0,89.1,13.9
3.5,129.8,113.0,95.4,112.8,17.2
4.0,166.3,138.0,114.1,139.5,26.1
4.5,187.3,165.3,140.5,164.4,23.4
5.0,214.2,193.0,162.7,190.0,25.9
5.5,241.0,216.0,193.9,217.0,23.6
6.0,252.8,227.4,213.5,231.2,19.9
6.5,270.8,253.3,241.1,255.1,15.0
7.0,292.0,266.9,264.7,274.5,15.1
7.5,306.1,292.7,277.6,292.2,14.3
8.0,321.1,298.1,297.1,305.4,13.6
8.5,336.9,314.2,312.5,321.2,13.6
9.0,346.4,322.2,325.5,331.4,13.1
9.5,354.7,336.8,342.1,344.5,9.2
10.0,360.4,339.7,342.5,347.5,11.2
10.5,362.6,356.6,362.8,360.7,3.5
11.0,377.3,355.1,355.8,362.7,12.6
11.5,375.6,350.2,361.4,362.4,12.8
12.0,369.3,363.8,375.5,369.5,5.9
12.5,369.7,364.1,373.6,369.1,4.8
13.0,374.4,363.4,374.7,370.8,6.4
13.5,379.2,366.1,376.4,373.9,6.9
14.0,372.6,361.4,371.2,368.4,6.1
14.5,376.4,358.4,371.3,368.7,9.2
15.0,379.6,362.8,369.9,370.8,8.4
15.5,366.1,354.7,371.1,364.0,8.4
16.0,360.5,365.4,365.1,363.7,2.7
16.5,349.9,351.9,357.2,353.0,3.8
17.0,350.3,353.6,362.7,355.5,6.5
17.5,341.4,358.8,352.1,350.8,8.8
18.0,337.6,347.6,345.1,343.4,5.2
18.5,325.1,351.4,352.0,342.8,15.3
19.0,326.6,344.7,345.0,338.8,10.5
19.5,321.3,348.8,332.4,334.2,13.8
20.0,313.7,344.5,332.8,330.3,15.6
20.5,306.6,337.7,331.5,325.3,16.4
21.0,313.0,337.9,328.7,326.5,12.6
21.5,304.1,330.2,313.2,315.8,13.2
22.0,297.9,332.8,318.6,316.4,17.5
22.5,293.2,334.9,307.4,311.8,21.2
23.0,290.5,328.4,310.4,309.8,19.0
23.5,290.8,322.9,310.1,307.9,16.1
24.0,285.1,322.9,299.3,302.4,19.1
24.5,283.6,321.3,298.7,301.2,19.0
25.0,281.4,321.8,291.6,298.3,21.0
25.5,271.9,317.4,294.5,294.6,22.8
26.0,262.9,311.8,294.0,289.6,24.7
26.5,265.3,315.1,289.9,290.1,24.9
27.0,264.1,305.4,290.9,286.8,21.0
27.5,261.1,313.4,282.8,285.8,26.3
28.0,257.3,313.1,282.1,284.2,27.9
28.5,255.7,303.6,277.9,279.1,24.0
29.0,256.3,308.8,278.6,281.2,26.3
29.5,248.8,305.9,270.9,275.2,28.8
30.0,250.2,310.5,272.9,277.8,30.4
30.5,243.6,297.8,267.7,269.7,27.1
31.0,241.2,295.5,263.7,266.8,27.3
31.5,244.6,305.2,259.0,269.6,31.7
32.0,240.4,302.4,257.4,266.7,32.1
32.5,239.6,297.3,254.4,263.8,30.0
33.0,234.6,291.8,251.2,259.2,29.4
33.5,233.4,283.0,246.3,254.2,25.7
34.0,230.9,290.5,243.9,255.1,31.3
34.5,230.1,287.7,244.4,254.1,30.0
35.0,228.5,278.4,242.7,249.9,25.7
35.5,226.5,281.2,239.4,249.0,28.6
36.0,224.6,279.9,236.2,246.9,29.2
36.5,221.4,281.0,233.1,245.2,31.6
37.0,219.1,277.7,234.7,243.8,30.4
37.5,219.2,279.8,233.6,244.2,31.7
38.0,217.6,281.0,227.6,242.1,34.1
38.5,215.5,280.6,226.6,240.9,34.8
39.0,212.9,278.9,224.7,238.8,35.2
39.5,213.2,273.6,227.4,238.1,31.6
40.0,206.4,272.0,221.9,233.5,34.3
40.5,208.2,272.3,222.5,234.3,33.6
41.0,210.6,267.2,225.6,234.5,29.3
41.5,205.9,270.8,221.2,232.7,33.9
42.0,202.3,271.0,218.4,230.6,36.0
42.5,200.3,266.0,217.0,227.8,34.2
43.0,199.6,261.9,213.3,225.0,32.8
43.5,201.3,264.1,215.0,226.8,33.0
44.0,195.0,263.1,212.1,223.4,35.4
44.5,193.0,262.7,212.2,222.6,36.0
45.0,191.8,259.8,211.1,220.9,35.0
45.5,191.5,259.8,209.0,220.1,35.5
46.0,191.4,260.3,207.8,219.9,36.0
46.5,189.8,258.1,207.2,218.3,35.5
47.0,186.6,258.6,208.8,218.0,36.9
47.5,184.6,253.4,203.0,213.7,35.6
48.0,186.1,254.3,205.4,215.3,35.1
48.5,186.3,254.8,204.7,215.3,35.5
49.0,183.3,251.6,200.0,211.6,35.6
49.5,181.4,247.9,203.7,211.0,33.9
50.0,182.5,251.5,199.2,211.1,36.0
50.5,179.0,247.4,204.8,210.4,34.6
51.0,178.8,250.6,200.3,209.9,36.9
51.5,180.7,244.4,201.7,208.9,32.5
52.0,178.0,248.0,196.9,207.6,36.2
52.5,179.7,247.7,198.1,208.5,35.2
53.0,174.6,244.7,195.3,204.8,36.0
53.5,178.7,242.5,194.0,205.1,33.3
54.0,171.5,246.7,194.9,204.4,38.5
54.5,177.0,242.2,193.0,204.1,34.0
55.0,173.2,242.5,192.1,202.6,35.8
55.5,175.8,239.1,192.7,202.5,32.8
56.0,170.3,240.5,189.7,200.2,36.3
56.5,171.0,241.4,191.4,201.3,36.2
57.0,171.0,239.0,188.8,199.6,35.3
57.5,167.5,237.1,191.8,198.8,35.3
58.0,169.3,235.7,189.4,198.1,34.0
58.5,165.5,235.4,189.9,196.9,35.5
59.0,167.0,233.3,187.4,195.9,34.0
59.5,164.6,235.3,186.6,195.5,36.2
60.0,164.2,230.0,187.2,193.8,33.4
60.5,162.2,233.7,185.4,193.8,36.5
61.0,162.6,231.9,185.8,193.4,35.3
61.5,162.4,232.4,185.1,193.3,35.7
62.0,161.7,233.9,184.1,193.3,37.0
62.5,161.4,230.5,187.6,193.2,34.9
63.0,159.3,229.2,181.0,189.8,35.8
63.5,161.3,225.3,182.5,189.7,32.6
64.0,159.0,229.4,179.6,189.3,36.2
64.5,160.1,227.4,183.8,190.5,34.1
65.0,161.1,227.5,185.2,191.2,33.6
65.5,155.2,226.6,183.3,188.4,35.9
66.0,157.8,224.5,181.2,187.8,33.8
66.5,158.7,222.5,184.2,188.5,32.1
67.0,155.0,221.2,182.9,186.4,33.3
67.5,153.6,222.6,178.7,185.0,34.9
68.0,151.7,221.4,178.6,183.9,35.2
68.5,155.2,221.5,176.5,184.4,33.9
69.0,153.8,225.1,179.2,186.0,36.1
69.5,150.0,224.3,177.3,183.9,37.6
70.0,154.3,220.1,177.3,183.9,33.4
70.5,151.0,220.5,177.4,183.0,35.0
71.0,151.6,217.6,176.0,181.7,33.4
71.5,148.5,220.7,176.0,181.7,36.5
72.0,147.9,220.3,177.6,181.9,36.4
72.5,148.6,218.5,175.5,180.9,35.2
73.0,149.3,215.8,173.7,179.6,33.6
73.5,147.2,218.1,173.2,179.5,35.9
74.0,147.4,216.2,170.5,178.0,35.0
74.5,147.8,214.1,171.7,177.8,33.6
75.0,145.7,213.8,170.2,176.6,34.5
75.5,147.1,214.3,170.0,177.1,34.2
76.0,147.9,208.8,170.8,175.8,30.8
76.5,145.8,212.2,168.7,175.6,33.7
77.0,143.0,207.4,168.3,172.9,32.4
77.5,144.5,207.2,169.8,173.8,31.5
78.0,146.0,207.4,168.1,173.8,31.1
78.5,144.3,210.2,171.8,175.4,33.1
79.0,143.4,207.7,168.6,173.2,32.4
79.5,144.6,204.7,169.0,172.8,30.3
80.0,143.4,205.4,167.4,172.1,31.3
80.5,145.8,203.6,169.8,173.1,29.0
81.0,143.7,205.7,168.0,172.5,31.3
81.5,144.0,201.6,168.3,171.3,28.9
82.0,143.1,201.8,164.8,169.9,29.7
82.5,143.8,201.8,167.6,171.1,29.1
83.0,141.1,200.6,166.9,169.5,29.8
83.5,143.4,199.6,165.3,169.5,28.3
84.0,139.5,197.5,165.2,167.4,29.1
84.5,142.5,201.2,164.7,169.5,29.7
85.0,142.9,198.1,165.0,168.6,27.8
85.5,143.6,197.6,163.6,168.3,27.3
86.0,142.2,196.7,164.9,167.9,27.4
86.5,141.4,197.7,162.2,167.1,28.5
87.0,141.9,196.0,161.7,166.5,27.4
87.5,140.1,193.3,163.4,165.6,26.7
88.0,142.2,195.2,161.5,166.3,26.8
88.5,138.5,192.8,164.7,165.3,27.1
89.0,140.5,191.0,161.7,164.4,25.4
89.5,140.5,197.0,157.8,165.1,28.9
90.0,137.7,195.3,158.9,164.0,29.1
90.5,139.5,194.0,162.0,165.2,27.4
91.0,141.0,193.2,157.7,164.0,26.7
91.5,139.0,194.5,159.3,164.3,28.1
92.0,141.5,194.8,160.6,165.6,27.0
92.5,139.7,190.2,160.2,163.4,25.4
93.0,138.9,187.3,160.2,162.1,24.2
93.5,138.5,189.7,155.2,161.2,26.1
94.0,136.9,190.6,159.3,162.3,27.0
94.5,139.1,190.8,158.4,162.8,26.2
95.0,136.2,191.0,160.9,162.7,27.5
95.5,136.2,188.4,161.4,162.0,26.1
96.0,139.0,188.9,155.4,161.1,25.4
96.5,137.3,185.8,159.4,160.8,24.3
97.0,137.2,187.0,158.9,161.0,24.9
97.5,139.7,187.1,159.3,162.0,23.8
98.0,138.4,187.4,157.4,161.1,24.7
98.5,137.0,185.6,155.3,159.3,24.6
99.0,136.9,184.7,156.0,159.2,24.0
99.5,136.5,186.6,157.4,160.2,25.2
100.0,136.1,186.1,156.4,159.5,25.2
100.5,137.3,185.2,152.8,158.5,24.4
101.0,138.6,183.9,155.1,159.2,22.9
101.5,137.2,185.0,153.6,158.6,24.3
102.0,138.1,185.2,157.0,160.1,23.7
102.5,137.1,181.1,152.9,157.0,22.3
103.0,136.3,181.6,154.2,157.4,22.8
103.5,135.5,184.1,153.0,157.5,24.6
104.0,134.7,181.0,152.6,156.1,23.3
104.5,135.2,181.6,155.0,157.3,23.3
105.0,135.7,183.1,152.7,157.2,24.0
105.5,135.4,180.3,151.4,155.7,22.7
106.0,133.1,181.4,151.1,155.2,24.4
106.5,134.3,182.3,152.1,156.2,24.3
107.0,136.2,178.6,148.9,154.6,21.8
107.5,135.2,179.0,149.7,154.6,22.3
108.0,133.4,184.0,151.5,156.3,25.7
108.5,134.8,177.4,149.6,153.9,21.6
109.0,132.9,183.4,152.2,156.2,25.5
109.5,134.0,181.1,151.0,155.4,23.8
110.0,132.4,180.9,149.3,154.2,24.6
110.5,132.8,179.5,150.6,154.3,23.6
111.0,130.6,179.8,149.2,153.2,24.8
111.5,133.6,177.8,149.5,153.6,22.4
112.0,134.3,181.4,149.3,155.0,24.0
112.5,132.5,182.3,148.5,154.4,25.5
113.0,132.7,183.5,152.1,156.1,25.6
113.5,131.3,179.8,148.8,153.3,24.5
114.0,134.9,181.1,149.8,155.3,23.6
114.5,133.7,180.3,151.0,155.0,23.5
115.0,132.1,179.7,148.5,153.4,24.1
115.5,132.2,181.0,148.6,153.9,24.8
116.0,131.9,178.3,146.5,152.2,23.7
116.5,131.3,178.7,148.3,152.8,24.0
117.0,131.2,177.7,147.5,152.1,23.6
117.5,132.8,177.8,148.5,153.0,22.9
118.0,134.0,177.3,147.5,152.9,22.1
118.5,132.8,176.5,148.9,152.7,22.1
119.0,132.8,181.2,148.0,154.0,24.8
119.5,132.2,179.6,148.1,153.3,24.1
120.0,131.8,179.8,147.5,153.0,24.5
120.5,135.5,176.9,146.0,152.8,21.5
121.0,132.8,177.6,145.9,152.1,23.0
121.5,132.8,179.4,145.8,152.6,24.1
122.0,133.9,177.1,147.8,152.9,22.1
122.5,133.9,176.0,144.3,151.4,21.9
123.0,132.3,175.1,147.6,151.7,21.7
123.5,131.9,175.9,145.5,151.1,22.5
124.0,131.4,172.8,145.6,149.9,21.0
124.5,133.8,174.9,145.1,151.3,21.3
125.0,132.3,174.5,144.2,150.3,21.8
125.5,132.1,172.9,147.2,150.8,20.6
126.0,129.5,173.6,144.9,149.4,22.4
126.5,130.8,171.0,142.4,148.1,20.7
127.0,131.0,173.8,142.6,149.1,22.2
127.5,132.6,171.0,141.8,148.5,20.1
128.0,129.1,172.9,141.7,147.9,22.6
128.5,130.9,173.3,141.0,148.4,22.1
129.0,129.8,171.0,141.6,147.5,21.2
129.5,127.1,173.5,142.6,147.7,23.6
130.0,130.3,170.8,141.6,147.6,20.9
130.5,127.6,174.1,141.3,147.6,23.9
131.0,129.7,170.6,141.6,147.3,21.1
131.5,129.6,169.6,139.6,146.3,20.8
132.0,129.8,167.7,139.3,145.6,19.7
132.5,128.7,170.4,141.3,146.8,21.4
133.0,129.9,170.1,139.7,146.6,21.0
133.5,127.5,172.2,140.6,146.8,23.0
134.0,128.9,169.7,140.4,146.3,21.0
134.5,127.7,168.2,139.4,145.1,20.9
135.0,129.5,169.6,141.0,146.7,20.7
135.5,127.1,167.0,138.9,144.3,20.5
136.0,128.9,169.8,137.1,145.3,21.6
136.5,128.8,168.5,138.6,145.3,20.7
137.0,129.4,167.0,137.5,144.6,19.8
137.5,126.7,168.5,138.0,144.4,21.6
138.0,127.3,167.4,137.5,144.1,20.8
138.5,128.5,169.0,139.0,145.5,21.0
139.0,128.2,166.0,139.4,144.5,19.4
139.5,128.8,162.9,136.6,142.8,17.9
140.0,131.2,164.6,137.5,144.4,17.8
140.5,127.3,164.7,133.9,142.0,20.0
141.0,126.0,165.9,135.1,142.3,20.9
141.5,127.1,162.3,136.6,142.0,18.2
142.0,126.8,162.2,134.5,141.2,18.6
142.5,126.8,162.5,136.0,141.7,18.5
143.0,126.7,162.6,134.9,141.4,18.8
143.5,125.3,164.8,134.6,141.6,20.6
144.0,125.7,164.0,134.0,141.2,20.2
144.5,124.9,164.2,134.1,141.1,20.6
145.0,123.9,164.5,134.8,141.1,21.0
145.5,125.3,164.7,135.0,141.7,20.5
146.0,126.4,164.6,135.9,142.3,19.9
146.5,126.1,164.4,134.3,141.6,20.2
147.0,129.2,164.1,134.9,142.7,18.7
147.5,124.8,164.8,134.9,141.5,20.8
148.0,125.5,163.4,132.7,140.5,20.1
148.5,127.5,163.3,132.5,141.1,19.3
149.0,128.6,164.7,134.1,142.5,19.5
149.5,126.0,164.1,133.6,141.2,20.2
150.0,125.9,162.5,133.1,140.5,19.4
150.5,126.4,163.1,132.7,140.7,19.6
151.0,126.1,161.0,133.9,140.3,18.3
151.5,125.8,160.7,129.9,138.8,19.1
152.0,126.5,160.0,132.8,139.8,17.8
152.5,126.7,165.3,134.8,142.3,20.3
153.0,125.3,161.3,132.6,139.7,19.0
153.5,125.3,162.1,132.7,140.0,19.5
154.0,126.4,162.1,131.8,140.1,19.3
154.5,126.4,160.2,135.1,140.6,17.6
155.0,126.9,159.2,132.0,139.4,17.4
155.5,126.0,162.2,134.1,140.8,19.0
156.0,125.6,159.3,135.7,140.2,17.3
156.5,128.7,156.3,131.9,139.0,15.1
157.0,124.4,163.1,131.8,139.8,20.5
157.5,126.3,159.5,130.0,138.6,18.2
158.0,125.5,160.6,132.0,139.3,18.7
158.5,126.2,161.8,128.8,138.9,19.8
159.0,125.0,158.1,131.3,138.1,17.6
159.5,126.2,159.0,130.9,138.7,17.7
160.0,126.1,159.7,129.3,138.4,18.5
160.5,125.1,160.6,130.5,138.7,19.1
161.0,127.0,160.7,128.6,138.8,19.0
161.5,125.9,157.7,130.5,138.0,17.2
162.0,125.4,159.1,130.9,138.5,18.1
162.5,126.9,157.8,128.9,137.9,17.3
163.0,126.2,158.9,130.8,138.6,17.7
163.5,126.4,158.7,126.8,137.3,18.6
164.0,124.1,159.5,130.0,137.8,19.0
164.5,123.2,157.6,130.4,137.1,18.1
165.0,123.5,158.0,129.9,137.1,18.3
165.5,121.9,157.8,130.1,136.6,18.8
166.0,121.9,159.2,128.3,136.5,19.9
166.5,122.9,159.4,130.8,137.7,19.2
167.0,123.1,157.4,129.6,136.7,18.2
167.5,122.8,157.8,129.4,136.7,18.6
168.0,123.1,157.3,129.4,136.6,18.2
168.5,122.4,160.3,131.7,138.1,19.8
169.0,123.4,158.8,132.0,138.1,18.4
169.5,122.4,160.8,132.5,138.6,19.9
170.0,122.5,159.1,131.0,137.5,19.2
170.5,121.8,155.3,128.7,135.3,17.6
171.0,121.6,159.4,132.0,137.7,19.5
171.5,125.3,157.0,130.9,137.7,16.9
172.0,123.2,159.5,129.9,137.6,19.3
172.5,122.3,158.5,132.4,137.7,18.6
173.0,122.3,157.6,128.9,136.3,18.8
173.5,123.2,156.3,130.4,136.6,17.4
174.0,121.1,156.0,126.7,134.6,18.7
174.5,121.5,155.0,130.0,135.5,17.4
175.0,118.3,158.4,129.6,135.4,20.7
175.5,121.2,155.8,129.4,135.5,18.1
176.0,123.0,156.7,130.8,136.9,17.7
176.5,119.7,157.2,127.3,134.8,19.8
177.0,121.6,158.0,129.6,136.4,19.2
177.5,118.6,154.2,127.9,133.6,18.5
178.0,120.5,153.4,129.0,134.3,17.1
178.5,120.1,154.0,128.5,134.2,17.6
179.0,119.4,154.7,129.1,134.4,18.2
179.5,119.5,155.8,128.4,134.6,19.0
180.0,121.1,156.0,126.8,134.6,18.8
180.5,119.9,156.7,128.2,134.9,19.3
181.0,119.3,155.2,130.0,134.8,18.4
181.5,119.1,152.3,128.7,133.3,17.1
182.0,120.5,154.8,129.7,135.0,17.8
182.5,118.3,156.9,127.9,134.4,20.1
183.0,117.1,155.7,130.6,134.5,19.6
183.5,117.8,157.8,125.9,133.8,21.1
184.0,121.7,156.0,126.5,134.7,18.6
184.5,118.1,158.7,126.4,134.4,21.5
185.0,118.9,156.3,126.9,134.0,19.7
185.5,118.9,153.4,126.2,132.8,18.2
186.0,118.7,155.7,126.8,133.7,19.5
186.5,119.3,154.8,127.4,133.8,18.6
187.0,117.7,153.4,126.1,132.4,18.7
187.5,119.5,156.0,125.4,133.7,19.6
188.0,117.6,156.8,126.0,133.5,20.7
188.5,119.2,156.9,124.9,133.7,20.3
189.0,119.7,156.2,125.9,133.9,19.5
189.5,120.4,152.7,125.2,132.7,17.4
190.0,119.0,153.0,126.7,132.9,17.9
190.5,118.8,155.7,125.1,133.2,19.7
191.0,122.0,153.6,123.4,133.0,17.8
191.5,117.1,153.5,124.9,131.8,19.2
192.0,118.1,152.8,125.3,132.1,18.3
192.5,120.3,153.0,124.0,132.4,17.9
193.0,119.5,154.2,123.7,132.5,19.0
193.5,117.8,153.0,125.5,132.1,18.5
194.0,120.0,150.3,126.6,132.3,15.9
194.5,121.1,152.6,124.3,132.7,17.3
195.0,118.6,151.7,124.6,131.6,17.6
195.5,120.8,151.5,125.0,132.4,16.7
196.0,120.7,153.0,126.0,133.2,17.3
196.5,118.8,152.3,125.6,132.2,17.7
197.0,119.5,153.4,124.1,132.3,18.4
197.5,120.4,152.3,125.4,132.7,17.2
198.0,120.3,153.3,124.6,132.7,17.9
198.5,119.4,152.4,125.6,132.4,17.5
199.0,119.0,152.5,126.5,132.7,17.6
199.5,119.8,152.5,126.4,132.9,17.3
200.0,120.6,151.7,127.2,133.2,16.4
200.5,119.3,154.7,125.0,133.0,19.0
201.0,120.1,151.0,128.1,133.1,16.0
201.5,118.0,153.3,124.2,131.9,18.8
202.0,119.4,151.9,126.5,132.6,17.1
202.5,118.6,150.4,126.1,131.7,16.6
203.0,120.4,150.0,125.3,131.9,15.9
203.5,120.2,150.9,123.8,131.7,16.8
204.0,120.0,151.7,124.1,131.9,17.2
204.5,118.7,152.1,125.4,132.1,17.7
205.0,121.2,150.4,126.8,132.8,15.5
205.5,122.6,151.9,123.7,132.8,16.6
206.0,120.8,151.5,126.8,133.0,16.2
206.5,120.6,152.2,126.9,133.2,16.7
207.0,121.2,153.4,126.4,133.7,17.3
207.5,119.9,152.8,124.5,132.4,17.8
208.0,119.4,152.7,126.3,132.8,17.5
208.5,120.3,151.7,124.5,132.1,17.0
209.0,120.1,151.0,124.0,131.7,16.8
209.5,119.7,151.1,124.3,131.7,17.0
210.0,120.5,151.2,124.6,132.1,16.7
210.5,121.9,151.4,124.9,132.7,16.2
211.0,121.1,152.3,124.5,132.6,17.1
211.5,121.5,151.6,128.1,133.7,15.8
212.0,121.7,150.7,127.3,133.2,15.4
212.5,121.8,151.9,123.6,132.4,16.9
213.0,121.0,151.0,124.3,132.1,16.5
213.5,120.7,152.9,125.4,133.0,17.4
214.0,119.6,150.7,125.1,131.8,16.6
214.5,121.1,152.4,124.2,132.5,17.3
215.0,121.4,150.7,124.1,132.1,16.2
215.5,122.0,151.5,125.8,133.1,16.1
216.0,121.2,153.2,124.8,133.1,17.5
216.5,122.2,150.5,124.8,132.5,15.7
217.0,121.9,150.9,125.1,132.6,15.9
217.5,122.5,152.7,124.0,133.1,17.0
218.0,122.5,151.3,124.7,132.9,16.0
218.5,121.8,150.0,123.1,131.6,15.9
219.0,120.6,152.4,123.3,132.1,17.6
219.5,120.8,151.0,125.0,132.3,16.3
220.0,120.6,152.3,125.5,132.8,17.0
220.5,121.9,151.2,124.8,132.7,16.2
221.0,122.3,150.7,124.0,132.4,15.9
221.5,120.5,150.8,124.9,132.1,16.4
222.0,120.8,149.8,125.2,131.9,15.6
222.5,119.7,150.0,123.7,131.1,16.5
223.0,120.9,150.4,125.1,132.1,16.0
223.5,118.9,153.0,124.3,132.0,18.4
224.0,118.4,150.1,124.5,131.0,16.8
224.5,120.1,150.8,124.8,131.9,16.6
225.0,118.4,147.6,124.7,130.2,15.4
225.5,120.6,149.0,125.6,131.7,15.2
226.0,119.1,150.9,125.5,131.8,16.8
226.5,118.2,148.8,124.3,130.4,16.2
227.0,119.4,149.0,124.3,130.9,15.9
227.5,118.0,149.4,122.8,130.1,16.9
228.0,120.9,149.9,124.4,131.7,15.8
228.5,115.9,151.0,124.2,130.3,18.3
229.0,116.7,149.7,124.7,130.4,17.2
229.5,115.1,146.7,126.2,129.3,16.0
230.0,118.3,147.5,124.9,130.2,15.3
230.5,119.1,148.6,124.9,130.9,15.6
231.0,115.8,148.5,124.9,129.7,16.9
231.5,117.9,150.2,125.1,131.1,16.9
232.0,115.3,148.0,125.5,129.6,16.8
232.5,114.0,148.9,126.9,129.9,17.7
233.0,114.6,149.5,125.9,130.0,17.8
233.5,117.8,150.4,125.7,131.3,17.0
234.0,115.1,148.9,124.1,129.4,17.5
234.5,116.9,149.2,124.3,130.2,16.9
235.0,116.2,146.5,125.2,129.3,15.6
235.5,115.6,147.6,126.1,129.8,16.3
236.0,116.5,151.5,124.4,130.8,18.3
236.5,115.7,150.8,126.2,130.9,18.0
237.0,114.3,148.8,126.8,130.0,17.4
237.5,115.8,149.5,124.5,129.9,17.5
238.0,115.0,151.0,124.4,130.1,18.7
238.5,115.3,149.3,125.9,130.2,17.4
239.0,115.0,149.4,125.7,130.0,17.6
239.5,114.3,148.9,123.5,128.9,17.9
240.0,114.4,148.6,124.7,129.2,17.5
240.5,116.5,148.4,123.1,129.3,16.8
241.0,115.3,149.7,123.0,129.4,18.0
241.5,114.7,146.9,124.3,128.6,16.6
242.0,113.6,149.6,123.5,128.9,18.6
242.5,113.3,149.6,127.2,130.0,18.3
243.0,115.5,147.2,125.6,129.4,16.2
243.5,115.2,147.2,124.3,128.9,16.5
244.0,117.1,146.9,123.3,129.1,15.7
244.5,115.7,147.3,125.2,129.4,16.2
245.0,115.6,147.5,126.3,129.8,16.2
245.5,115.4,147.4,126.5,129.8,16.2
246.0,118.0,150.4,125.4,131.3,17.0
246.5,115.4,147.6,124.0,129.0,16.7
247.0,116.9,148.8,125.7,130.5,16.5
247.5,116.1,150.0,125.5,130.5,17.5
248.0,115.7,145.8,126.3,129.3,15.2
248.5,114.7,146.5,124.6,128.6,16.3
249.0,116.8,151.9,126.3,131.7,18.1
249.5,114.5,148.7,126.6,129.9,17.3
250.0,116.6,147.7,126.2,130.2,15.9
250.5,116.0,147.7,126.7,130.1,16.1
251.0,115.2,147.9,125.2,129.4,16.8
251.5,116.5,146.1,124.5,129.0,15.3
252.0,116.4,145.2,124.5,128.7,14.8
252.5,115.9,147.5,126.3,129.9,16.1
253.0,116.3,145.5,125.1,129.0,15.0
253.5,115.9,149.3,126.3,130.5,17.1
254.0,115.9,145.3,125.7,128.9,15.0
254.5,115.1,145.4,125.1,128.5,15.5
255.0,113.5,148.6,124.8,129.0,17.9
255.5,113.9,147.0,125.9,128.9,16.8
256.0,115.4,145.6,125.9,129.0,15.3
256.5,117.7,146.4,127.9,130.6,14.6
257.0,115.5,146.9,125.8,129.4,16.0
257.5,116.4,148.0,126.8,130.4,16.1
258.0,116.3,147.8,126.4,130.2,16.1
258.5,118.9,148.4,125.3,130.9,15.5
259.0,117.9,148.0,124.8,130.2,15.8
259.5,116.0,146.7,126.9,129.9,15.6
260.0,117.8,145.7,125.5,129.7,14.4
260.5,115.9,146.6,125.8,129.4,15.7
261.0,114.9,146.5,124.7,128.7,16.1
261.5,116.5,148.3,126.1,130.3,16.3
262.0,117.4,145.4,123.7,128.8,14.7
262.5,116.2,149.1,125.8,130.4,16.9
263.0,116.7,148.0,125.3,130.0,16.2
263.5,119.0,148.0,126.5,131.2,15.0
264.0,116.5,149.3,127.2,131.0,16.8
264.5,116.4,147.9,125.5,129.9,16.2
265.0,117.3,149.6,124.2,130.3,17.0
265.5,118.4,149.5,126.4,131.4,16.1
266.0,118.5,147.0,126.2,130.6,14.7
266.5,119.6,146.5,124.6,130.2,14.3
267.0,117.5,146.4,126.8,130.2,14.8
267.5,116.3,149.3,127.3,131.0,16.8
268.0,117.3,150.7,127.0,131.6,17.2
268.5,117.0,148.9,123.6,129.8,16.8
269.0,116.2,149.8,126.1,130.7,17.2
269.5,118.2,147.7,124.9,130.3,15.5
270.0,116.9,149.5,126.6,131.0,16.8
270.5,118.6,148.7,125.2,130.8,15.8
271.0,118.0,147.0,126.4,130.5,14.9
271.5,118.3,146.9,127.0,130.7,14.7
272.0,117.8,148.7,124.8,130.4,16.2
272.5,118.2,150.5,126.7,131.8,16.8
273.0,116.3,149.3,125.0,130.2,17.1
273.5,116.1,148.7,123.9,129.6,17.0
274.0,117.4,147.7,126.3,130.4,15.6
274.5,116.8,149.8,124.7,130.4,17.2
275.0,117.8,148.9,126.2,131.0,16.1
275.5,115.4,149.4,125.4,130.0,17.4
276.0,117.9,149.3,124.8,130.7,16.5
276.5,119.0,147.2,126.5,130.9,14.6
277.0,118.3,149.9,125.4,131.2,16.6
277.5,116.9,147.9,124.5,129.8,16.2
278.0,117.1,147.3,125.1,129.8,15.6
278.5,118.6,147.6,126.6,131.0,15.0
279.0,118.7,146.0,123.8,129.5,14.6
279.5,117.4,149.9,123.9,130.4,17.2
280.0,117.9,146.6,124.4,129.6,15.0
280.5,116.7,147.4,126.5,130.2,15.7
281.0,119.0,147.3,123.5,130.0,15.2
281.5,117.2,147.2,123.0,129.2,15.9
282.0,116.6,145.6,124.3,128.8,15.0
282.5,117.5,145.4,125.5,129.5,14.4
283.0,118.8,147.1,122.8,129.6,15.3
283.5,118.3,145.4,123.7,129.1,14.3
284.0,119.2,147.3,123.7,130.1,15.1
284.5,118.2,145.1,124.9,129.4,14.0
285.0,119.1,147.9,124.5,130.5,15.3
285.5,117.6,149.2,124.8,130.5,16.6
286.0,118.0,149.2,122.9,130.1,16.8
286.5,117.7,148.7,125.2,130.5,16.1
287.0,119.0,147.9,125.7,130.9,15.1
287.5,119.7,151.4,127.6,132.9,16.5
288.0,118.5,149.7,125.4,131.2,16.4
288.5,118.5,148.7,125.4,130.9,15.8
289.0,119.5,151.1,125.2,131.9,16.9
289.5,119.6,150.1,124.7,131.5,16.4
290.0,120.9,150.8,124.9,132.2,16.2
290.5,122.6,148.5,123.8,131.6,14.6
291.0,119.5,147.9,124.6,130.7,15.1
291.5,119.2,149.6,124.3,131.0,16.3
292.0,120.0,151.3,123.6,131.6,17.1
292.5,121.6,150.7,123.7,132.0,16.2
293.0,118.7,150.0,125.5,131.4,16.5
293.5,119.4,148.1,126.7,131.4,14.9
294.0,118.6,152.0,127.3,132.6,17.3
294.5,120.6,150.0,125.3,132.0,15.8
295.0,120.1,148.6,126.0,131.6,15.1
295.5,122.6,149.5,126.0,132.7,14.6
296.0,120.4,150.1,126.5,132.3,15.7
296.5,121.7,150.5,125.7,132.7,15.6
297.0,118.7,147.7,125.9,130.7,15.1
297.5,118.9,151.0,124.5,131.5,17.2
298.0,119.5,150.2,123.2,131.0,16.7
298.5,119.9,146.8,126.0,130.9,14.1
299.0,119.9,149.8,126.2,131.9,15.8
299.5,118.7,147.7,125.3,130.6,15.2
300.0,121.3,148.2,126.0,131.9,14.4
300.5,119.3,151.7,126.0,132.4,17.1
301.0,120.3,151.3,127.1,132.9,16.3
301.5,120.0,149.4,126.1,131.8,15.5
302.0,120.4,154.1,125.1,133.2,18.2
302.5,120.4,150.6,127.2,132.7,15.8
303.0,119.0,150.7,127.4,132.4,16.4
303.5,118.8,150.4,125.8,131.7,16.6
304.0,119.7,151.4,125.1,132.0,16.9
304.5,119.7,149.9,126.8,132.2,15.8
305.0,118.8,151.4,126.0,132.1,17.1
305.5,117.9,152.2,127.1,132.4,17.8
306.0,121.4,150.6,125.0,132.3,15.9
306.5,119.5,150.5,126.3,132.1,16.3
307.0,118.5,153.7,126.9,133.0,18.4
307.5,118.4,152.1,125.7,132.1,17.7
308.0,120.9,153.3,127.6,133.9,17.1
308.5,120.3,151.3,125.4,132.3,16.6
309.0,119.3,151.6,125.5,132.1,17.1
309.5,120.2,149.4,124.9,131.5,15.7
310.0,118.5,150.7,127.6,132.3,16.6
310.5,118.7,149.6,125.4,131.3,16.3
311.0,119.4,149.5,126.1,131.7,15.8
311.5,122.5,150.6,125.8,133.0,15.4
312.0,118.6,152.0,126.1,132.2,17.5
312.5,121.3,150.5,126.4,132.7,15.6
313.0,121.9,153.1,126.0,133.7,16.9
313.5,119.5,148.1,126.0,131.2,15.0
314.0,121.3,149.3,127.0,132.5,14.8
314.5,118.8,150.1,126.1,131.7,16.4
315.0,121.4,150.3,127.3,133.0,15.3
315.5,120.6,149.6,125.2,131.8,15.6
316.0,123.0,150.6,126.3,133.3,15.1
316.5,121.9,149.2,125.5,132.2,14.9
317.0,121.9,148.7,126.4,132.3,14.3
317.5,120.3,149.4,125.7,131.8,15.5
318.0,120.8,151.6,125.2,132.5,16.7
318.5,121.5,149.8,126.2,132.5,15.2
319.0,120.5,149.6,125.3,131.8,15.6
319.5,120.3,150.5,124.2,131.6,16.4
320.0,121.9,151.4,123.3,132.2,16.6
320.5,121.0,150.2,125.6,132.3,15.7
321.0,119.6,153.5,126.5,133.2,17.9
321.5,120.2,149.0,125.2,131.5,15.4
322.0,121.8,150.2,124.6,132.2,15.7
322.5,121.2,151.4,125.5,132.7,16.3
323.0,120.8,150.3,125.5,132.2,15.9
323.5,120.5,151.1,126.7,132.8,16.2
324.0,120.6,150.2,125.0,131.9,16.0
324.5,121.4,149.9,125.9,132.4,15.3
325.0,122.4,150.2,126.3,132.9,15.0
325.5,120.4,153.0,125.9,133.1,17.4
326.0,121.7,149.9,127.9,133.2,14.8
326.5,123.0,152.3,127.3,134.2,15.8
327.0,119.8,149.9,128.7,132.8,15.5
327.5,122.1,150.5,125.6,132.7,15.5
328.0,123.3,150.0,128.1,133.8,14.2
328.5,122.5,149.4,128.4,133.4,14.1
329.0,120.5,148.3,127.5,132.1,14.5
329.5,122.4,149.4,128.2,133.3,14.3
330.0,122.6,150.2,128.0,133.6,14.7
330.5,123.1,150.1,128.5,133.9,14.3
331.0,123.3,149.2,128.8,133.7,13.7
331.5,122.3,150.3,130.1,134.3,14.5
332.0,122.5,151.8,128.9,134.4,15.4
332.5,120.5,151.7,129.4,133.9,16.1
333.0,123.5,153.8,127.7,135.0,16.4
333.5,121.5,150.0,128.8,133.4,14.8
334.0,121.3,151.3,128.8,133.8,15.6
334.5,120.8,150.8,128.6,133.4,15.6
335.0,121.9,151.5,129.1,134.1,15.4
335.5,121.7,147.5,129.7,133.0,13.2
336.0,119.4,152.0,129.7,133.7,16.7
336.5,121.2,148.9,127.5,132.5,14.5
337.0,120.1,148.6,128.4,132.4,14.6
337.5,119.1,148.5,128.3,132.0,15.0
338.0,120.3,148.4,129.0,132.6,14.4
338.5,120.1,147.6,129.6,132.4,13.9
339.0,120.9,149.3,129.2,133.1,14.6
339.5,121.3,148.0,131.5,133.6,13.5
340.0,119.4,148.3,129.0,132.2,14.7
340.5,120.7,149.5,131.4,133.9,14.5
341.0,123.8,149.6,129.9,134.4,13.5
341.5,120.9,150.6,130.3,134.0,15.2
342.0,122.0,151.0,129.0,134.0,15.1
342.5,121.4,149.6,133.0,134.7,14.2
343.0,120.2,151.7,129.6,133.8,16.2
343.5,118.7,152.7,130.2,133.9,17.3
344.0,121.0,147.6,129.3,132.6,13.6
344.5,122.3,148.9,129.4,133.5,13.7
345.0,124.1,150.9,130.1,135.0,14.1
345.5,122.6,149.8,129.5,134.0,14.2
346.0,120.7,151.5,128.7,133.6,16.0
346.5,120.2,153.3,130.0,134.5,17.0
347.0,120.9,150.3,129.8,133.7,15.1
347.5,120.4,149.2,127.7,132.4,15.0
348.0,122.1,150.6,127.7,133.5,15.1
348.5,121.7,149.6,130.3,133.9,14.2
349.0,123.5,151.7,128.0,134.4,15.1
349.5,123.5,150.2,129.6,134.4,14.0
350.0,124.4,149.4,129.6,134.5,13.2
350.5,122.1,150.1,131.3,134.5,14.3
351.0,121.2,150.7,128.7,133.6,15.3
351.5,124.9,149.0,129.6,134.5,12.8
352.0,123.3,148.4,129.5,133.7,13.0
352.5,123.5,150.1,129.0,134.2,14.1
353.0,124.5,148.8,129.7,134.3,12.8
353.5,123.4,153.1,129.5,135.3,15.7
354.0,124.2,150.9,128.7,134.6,14.3
354.5,121.8,149.4,128.9,133.4,14.3
355.0,125.1,149.5,127.8,134.2,13.4
355.5,123.7,151.2,129.6,134.8,14.5
356.0,123.0,151.8,128.4,134.4,15.3
356.5,124.8,150.4,129.4,134.9,13.6
357.0,123.6,152.3,130.1,135.4,15.1
357.5,123.3,151.0,130.3,134.9,14.4
358.0,126.3,151.6,129.9,135.9,13.7
358.5,124.3,152.3,129.0,135.2,15.0
359.0,123.1,152.4,129.9,135.1,15.3
359.5,123.9,154.4,128.3,135.6,16.5
360.0,123.7,150.8,128.6,134.3,14.4
360.5,125.7,151.8,130.5,136.0,13.9
361.0,124.8,152.4,129.9,135.7,14.7
361.5,124.5,151.2,132.1,135.9,13.7
362.0,122.7,154.6,128.0,135.1,17.1
362.5,122.8,150.7,129.2,134.3,14.6
363.0,125.3,150.2,128.9,134.8,13.4
363.5,124.5,150.0,131.9,135.5,13.1
364.0,122.9,151.3,127.5,133.9,15.2
364.5,125.0,150.3,129.5,134.9,13.5
365.0,122.2,151.5,129.3,134.4,15.3
365.5,122.9,151.4,131.6,135.3,14.6
366.0,124.8,151.7,128.7,135.1,14.5
366.5,124.6,150.9,134.4,136.6,13.3
367.0,123.5,152.1,130.9,135.5,14.8
367.5,124.9,153.3,130.9,136.4,15.0
368.0,127.7,151.7,130.9,136.8,13.0
368.5,124.4,154.5,132.7,137.2,15.6
369.0,127.3,154.2,133.4,138.3,14.1
369.5,123.9,154.2,131.7,136.6,15.7
370.0,126.6,151.7,131.0,136.4,13.4
370.5,128.0,155.5,129.5,137.7,15.4
371.0,124.1,155.7,129.9,136.6,16.8
371.5,125.6,155.9,129.5,137.0,16.5
372.0,126.2,155.7,130.7,137.5,15.9
372.5,124.8,154.0,133.6,137.5,15.0
373.0,124.3,152.8,129.1,135.4,15.2
373.5,126.1,156.1,131.3,137.8,16.0
374.0,125.4,154.2,129.8,136.5,15.6
374.5,125.2,155.7,131.1,137.3,16.2
375.0,124.0,154.9,131.2,136.7,16.1
375.5,124.6,153.5,129.1,135.8,15.6
376.0,123.6,153.6,130.2,135.8,15.8
376.5,124.5,154.7,130.9,136.7,16.0
377.0,124.1,154.7,131.4,136.7,16.0
377.5,125.7,153.3,132.7,137.2,14.4
378.0,124.7,157.6,130.7,137.7,17.5
378.5,124.3,154.3,131.6,136.7,15.6
379.0,127.3,151.9,133.4,137.6,12.8
379.5,124.8,153.1,132.8,136.9,14.6
380.0,124.4,155.4,134.1,138.0,15.9
380.5,126.0,156.2,132.1,138.1,16.0
381.0,125.5,154.4,132.9,137.6,15.0
381.5,128.8,156.1,133.4,139.4,14.6
382.0,126.6,155.7,133.4,138.6,15.2
382.5,125.1,154.8,135.0,138.3,15.1
383.0,126.1,155.4,133.5,138.3,15.2
383.5,125.1,155.3,133.4,138.0,15.6
384.0,127.6,156.2,134.2,139.3,15.0
384.5,126.2,157.2,132.5,138.6,16.4
385.0,125.2,156.4,133.1,138.2,16.3
385.5,126.8,154.4,133.9,138.4,14.3
386.0,126.1,156.2,134.7,139.0,15.5
386.5,123.4,156.2,132.2,137.3,17.0
387.0,125.9,155.0,134.0,138.3,15.0
387.5,125.3,157.3,135.5,139.4,16.3
388.0,125.4,157.6,133.5,138.8,16.7
388.5,125.9,155.7,133.6,138.4,15.5
389.0,126.3,155.2,132.9,138.1,15.1
389.5,125.6,157.4,135.5,139.5,16.3
390.0,126.6,152.3,134.3,137.7,13.2
390.5,126.4,154.8,134.8,138.7,14.5
391.0,126.2,158.5,132.6,139.1,17.1
391.5,125.9,157.4,134.5,139.3,16.3
392.0,127.7,157.0,134.7,139.8,15.3
392.5,125.7,153.9,137.9,139.2,14.2
393.0,129.1,155.7,132.5,139.1,14.5
393.5,128.4,156.2,133.8,139.4,14.7
394.0,126.5,154.1,135.7,138.8,14.0
394.5,129.0,155.1,133.0,139.0,14.1
395.0,126.8,156.4,132.9,138.7,15.6
395.5,128.4,157.9,137.7,141.3,15.1
396.0,125.7,154.5,135.1,138.4,14.7
396.5,126.9,156.3,133.8,139.0,15.3
397.0,127.6,157.8,135.7,140.4,15.6
397.5,126.1,157.2,136.6,140.0,15.8
398.0,125.5,158.4,135.0,139.6,16.9
398.5,125.7,155.9,137.8,139.8,15.2
399.0,125.8,156.6,135.0,139.1,15.8
399.5,125.8,157.3,136.1,139.7,16.1
400.0,127.3,158.0,136.1,140.5,15.8
400.5,126.8,157.0,137.7,140.5,15.3
401.0,127.0,158.5,136.8,140.8,16.2
401.5,127.4,161.6,133.8,140.9,18.2
402.0,124.8,156.9,135.4,139.0,16.3
402.5,126.2,157.6,137.2,140.4,15.9
403.0,127.0,158.9,136.1,140.6,16.4
403.5,129.4,157.0,139.9,142.1,13.9
404.0,125.8,157.7,136.8,140.1,16.2
404.5,127.1,159.1,136.7,140.9,16.4
405.0,127.6,157.9,136.1,140.5,15.6
405.5,125.0,156.3,136.1,139.1,15.9
406.0,129.9,158.8,135.7,141.5,15.3
406.5,129.2,159.0,133.9,140.7,16.0
407.0,128.2,157.4,134.8,140.1,15.3
407.5,128.5,159.3,134.9,140.9,16.2
408.0,127.2,157.6,134.0,139.6,16.0
408.5,128.6,156.6,134.4,139.9,14.8
409.0,128.4,157.5,134.2,140.0,15.4
409.5,128.4,157.3,133.0,139.6,15.5
410.0,128.4,157.5,133.1,139.7,15.6
410.5,130.0,157.6,133.1,140.2,15.2
411.0,129.7,157.1,134.2,140.3,14.7
411.5,128.5,157.0,137.6,141.1,14.5
412.0,127.8,156.7,135.3,139.9,15.0
412.5,128.9,159.9,137.1,142.0,16.0
413.0,129.3,158.0,135.0,140.8,15.2
413.5,131.1,157.3,137.2,141.9,13.7
414.0,131.0,158.8,137.6,142.5,14.5
414.5,130.1,159.9,138.1,142.7,15.4
415.0,130.4,161.0,137.6,143.0,16.0
415.5,131.9,158.9,137.4,142.7,14.3
416.0,129.9,161.4,141.0,144.1,16.0
416.5,133.6,160.8,137.2,143.9,14.8
417.0,128.8,159.6,137.9,142.1,15.8
417.5,130.9,162.1,139.2,144.1,16.2
418.0,129.6,160.0,141.6,143.7,15.3
418.5,131.4,161.9,139.3,144.2,15.8
419.0,131.4,161.7,139.5,144.2,15.7
419.5,130.4,161.5,139.0,143.6,16.0
420.0,131.0,159.8,141.5,144.1,14.6
420.5,133.0,161.1,139.0,144.4,14.8
421.0,132.5,158.5,138.5,143.2,13.6
421.5,131.1,159.7,139.1,143.3,14.7
422.0,131.8,160.7,140.2,144.2,14.9
422.5,130.5,159.0,140.1,143.2,14.5
423.0,130.7,162.9,139.4,144.3,16.7
423.5,130.7,159.3,139.4,143.1,14.7
424.0,131.8,161.4,139.2,144.1,15.4
424.5,131.8,157.7,138.0,142.5,13.5
425.0,131.1,159.2,139.8,143.4,14.4
425.5,131.5,160.5,140.5,144.2,14.8
426.0,132.7,159.2,137.8,143.2,14.0
426.5,131.7,160.8,140.0,144.2,15.0
427.0,130.3,160.9,141.9,144.4,15.4
427.5,130.0,162.4,139.2,143.9,16.7
428.0,131.9,159.2,140.6,143.9,13.9
428.5,133.6,160.3,140.4,144.8,13.9
429.0,133.8,160.4,138.7,144.3,14.2
429.5,131.1,162.0,139.2,144.1,16.0
430.0,131.8,159.7,139.1,143.5,14.5
430.5,133.4,160.0,141.1,144.8,13.7
431.0,133.5,160.4,139.9,144.6,14.1
431.5,131.5,161.5,141.1,144.7,15.3
432.0,134.1,158.2,140.4,144.3,12.5
432.5,135.0,158.8,140.2,144.7,12.5
433.0,132.3,163.4,138.4,144.7,16.5
433.5,133.7,163.3,139.8,145.6,15.6
434.0,132.8,161.6,139.6,144.7,15.1
434.5,134.5,163.9,143.1,147.2,15.1
435.0,134.7,161.4,141.7,145.9,13.8
435.5,133.9,163.0,143.4,146.8,14.8
436.0,133.9,162.6,142.3,146.3,14.8
436.5,133.5,161.1,142.3,145.6,14.1
437.0,132.7,161.7,141.1,145.1,15.0
437.5,136.6,163.5,141.3,147.1,14.3
438.0,134.7,162.2,143.4,146.8,14.0
438.5,134.9,163.5,142.0,146.8,14.9
439.0,135.3,160.1,144.8,146.7,12.5
439.5,134.8,159.4,140.8,145.0,12.8
440.0,135.7,161.2,143.1,146.7,13.1
440.5,134.8,163.4,142.1,146.8,14.8
441.0,135.6,162.0,142.8,146.8,13.7
441.5,134.8,162.5,141.5,146.2,14.4
442.0,137.2,161.7,144.2,147.7,12.7
442.5,135.4,160.0,142.3,145.9,12.7
443.0,137.5,163.1,144.5,148.4,13.2
443.5,138.1,160.7,144.4,147.7,11.7
444.0,135.0,162.2,144.0,147.0,13.9
444.5,136.5,163.1,142.4,147.3,13.9
445.0,137.0,159.2,143.9,146.7,11.4
445.5,138.9,160.8,145.0,148.2,11.3
446.0,135.7,160.8,143.7,146.8,12.8
446.5,137.7,161.2,146.5,148.5,11.9
447.0,138.7,162.8,142.7,148.1,12.9
447.5,138.7,158.9,144.2,147.3,10.5
448.0,140.1,163.0,143.0,148.7,12.4
448.5,138.1,159.8,144.0,147.3,11.2
449.0,137.1,160.1,143.8,147.0,11.8
449.5,136.9,163.6,143.1,147.9,14.0
450.0,138.7,160.8,141.6,147.0,12.0
450.5,138.3,162.7,143.4,148.1,12.9
451.0,137.1,161.0,142.7,146.9,12.5
451.5,137.8,162.1,146.3,148.7,12.4
452.0,136.7,162.2,141.3,146.8,13.6
452.5,136.4,163.1,143.2,147.6,13.9
453.0,138.4,163.3,142.0,147.9,13.5
453.5,136.5,161.2,143.7,147.1,12.7
454.0,137.5,161.8,143.8,147.7,12.6
454.5,137.3,163.6,144.4,148.4,13.6
455.0,139.4,159.0,144.2,147.5,10.2
455.5,138.5,164.0,143.7,148.7,13.5
456.0,139.1,161.8,145.8,148.9,11.6
456.5,138.5,160.2,145.1,148.0,11.1
457.0,137.2,159.2,143.8,146.7,11.3
457.5,141.4,161.8,145.3,149.5,10.8
458.0,138.5,160.5,144.2,147.7,11.4
458.5,139.7,158.7,145.5,148.0,9.7
459.0,138.5,160.5,146.1,148.3,11.1
459.5,137.8,163.2,145.6,148.9,13.0
460.0,138.6,162.0,144.2,148.3,12.2
460.5,138.6,161.8,145.6,148.7,11.9
461.0,139.1,163.1,146.4,149.6,12.3
461.5,138.2,161.7,145.2,148.4,12.1
462.0,139.1,162.7,149.0,150.3,11.8
462.5,139.1,163.3,146.1,149.5,12.4
463.0,139.0,161.9,147.9,149.6,11.5
463.5,137.3,162.1,144.9,148.1,12.7
464.0,139.5,162.4,145.9,149.3,11.8
464.5,140.0,161.1,147.1,149.4,10.7
465.0,140.6,164.2,146.8,150.5,12.2
465.5,140.8,163.2,147.2,150.4,11.5
466.0,139.3,161.6,148.8,149.9,11.2
466.5,140.5,166.3,145.8,150.8,13.6
467.0,140.8,160.5,146.7,149.3,10.1
467.5,138.7,162.0,146.1,148.9,11.9
468.0,140.6,162.3,149.2,150.7,10.9
468.5,140.0,163.3,147.0,150.1,12.0
469.0,141.0,164.4,149.5,151.6,11.9
469.5,141.4,161.8,150.3,151.2,10.2
470.0,141.4,164.3,149.2,151.6,11.6
470.5,140.2,163.5,150.1,151.3,11.7
471.0,140.6,165.0,149.9,151.8,12.3
471.5,141.5,164.7,150.5,152.2,11.7
472.0,141.3,165.2,146.6,151.0,12.6
472.5,141.1,162.6,150.1,151.3,10.8
473.0,140.8,163.5,149.1,151.1,11.5
473.5,141.0,164.3,149.5,151.6,11.8
474.0,139.4,163.2,151.3,151.3,11.9
474.5,139.7,165.8,151.4,152.3,13.1
475.0,138.9,165.5,149.1,151.2,13.4
475.5,140.5,163.2,150.7,151.5,11.4
476.0,141.9,162.9,149.8,151.5,10.6
476.5,139.6,164.4,149.1,151.0,12.5
477.0,140.5,166.1,150.8,152.4,12.9
477.5,140.2,164.8,151.0,152.0,12.4
478.0,141.9,164.7,147.6,151.4,11.8
478.5,142.4,163.8,151.7,152.6,10.8
479.0,139.5,164.0,149.3,150.9,12.4
479.5,142.0,162.9,149.8,151.6,10.6
480.0,143.5,163.9,147.5,151.6,10.8
480.5,143.2,164.5,148.5,152.0,11.1
481.0,143.2,165.2,150.5,153.0,11.2
481.5,140.1,163.6,150.0,151.2,11.8
482.0,142.0,163.0,150.7,151.9,10.5
482.5,140.0,163.0,149.9,151.0,11.5
483.0,142.7,163.8,150.1,152.2,10.7
483.5,141.6,165.7,150.9,152.7,12.1
484.0,142.2,165.7,147.4,151.8,12.4
484.5,139.5,166.1,150.3,152.0,13.3
485.0,141.4,168.8,147.1,152.5,14.5
485.5,140.1,165.8,151.6,152.5,12.9
486.0,140.2,163.6,148.5,150.8,11.9
486.5,142.1,166.7,149.6,152.8,12.6
487.0,143.8,165.5,150.7,153.3,11.1
487.5,142.5,166.6,150.5,153.2,12.3
488.0,142.9,165.2,150.5,152.9,11.4
488.5,141.4,166.3,151.1,152.9,12.5
489.0,144.5,164.8,151.5,153.6,10.3
489.5,142.6,165.6,153.1,153.8,11.5
490.0,141.2,166.0,154.6,153.9,12.4
490.5,145.9,168.4,155.1,156.4,11.4
491.0,143.5,162.1,156.2,153.9,9.5
491.5,145.0,164.6,154.9,154.9,9.8
492.0,144.6,167.7,153.4,155.3,11.7
492.5,143.1,167.7,157.9,156.2,12.4
493.0,144.8,169.3,156.3,156.8,12.2
493.5,144.6,164.8,155.7,155.1,10.1
494.0,144.4,165.6,155.6,155.2,10.6
494.5,146.3,167.3,157.2,156.9,10.5
495.0,145.7,167.3,155.8,156.3,10.8
495.5,145.0,167.1,155.7,156.0,11.0
496.0,141.5,165.8,156.4,154.6,12.2
496.5,145.1,165.0,157.9,156.0,10.1
497.0,143.6,165.8,157.2,155.6,11.2
497.5,144.9,165.0,158.2,156.0,10.2
498.0,144.4,163.5,158.8,155.5,9.9
498.5,146.1,162.9,157.2,155.4,8.5
499.0,144.1,167.3,160.3,157.2,11.9
499.5,144.1,166.8,158.4,156.4,11.5
500.0,146.1,162.8,160.1,156.4,9.0
500.5,148.8,165.8,158.9,157.8,8.5
501.0,146.9,163.4,158.0,156.1,8.4
501.5,146.4,166.8,159.8,157.7,10.4
502.0,148.2,164.6,160.2,157.7,8.5
502.5,146.9,165.1,159.0,157.0,9.3
503.0,147.6,164.2,158.9,156.9,8.5
503.5,145.9,163.6,162.2,157.2,9.9
504.0,146.2,162.4,159.1,155.9,8.5
504.5,144.7,166.0,159.2,156.6,10.8
505.0,145.5,162.3,161.0,156.3,9.3
505.5,147.8,164.9,160.1,157.6,8.8
506.0,146.5,163.4,158.9,156.3,8.7
506.5,149.6,164.5,159.3,157.8,7.6
507.0,146.4,162.9,160.6,156.6,9.0
507.5,152.1,163.5,161.9,159.2,6.2
508.0,146.9,163.1,159.9,156.6,8.6
508.5,146.4,165.4,161.5,157.8,10.0
509.0,148.5,167.2,157.8,157.8,9.4
509.5,145.1,165.1,160.8,157.0,10.5
510.0,146.9,163.6,159.4,156.6,8.7
510.5,147.3,166.5,160.3,158.0,9.8
511.0,148.1,166.6,158.8,157.8,9.3
511.5,148.2,167.7,157.1,157.6,9.7
512.0,146.4,165.6,161.3,157.8,10.1
512.5,148.0,167.0,158.5,157.8,9.5
513.0,149.4,167.0,158.3,158.2,8.8
513.5,146.3,165.9,158.1,156.8,9.9
514.0,148.9,162.8,158.7,156.8,7.1
514.5,148.5,165.4,160.6,158.2,8.7
515.0,148.4,166.2,155.9,156.8,8.9
515.5,149.3,163.5,159.1,157.3,7.3
516.0,146.8,164.0,157.2,156.0,8.6
516.5,144.0,166.9,157.1,156.0,11.5
517.0,147.1,166.3,157.5,157.0,9.6
517.5,149.2,165.8,157.5,157.5,8.3
518.0,147.5,165.5,158.3,157.1,9.0
518.5,144.8,167.0,157.6,156.5,11.2
519.0,148.9,165.7,155.9,156.8,8.5
519.5,146.4,165.5,158.9,156.9,9.7
520.0,147.2,164.9,158.6,156.9,9.0
520.5,146.8,164.2,156.9,156.0,8.7
521.0,148.5,164.6,157.3,156.8,8.1
521.5,145.8,166.1,154.0,155.3,10.2
522.0,143.8,162.3,157.7,154.6,9.6
522.5,146.7,161.4,157.1,155.1,7.6
523.0,143.4,163.9,157.6,155.0,10.5
523.5,145.6,163.8,157.6,155.7,9.2
524.0,146.9,163.3,159.1,156.4,8.5
524.5,145.0,164.0,160.4,156.5,10.1
525.0,143.1,164.8,160.2,156.0,11.5
525.5,146.3,164.0,159.7,156.7,9.2
526.0,144.4,165.8,158.9,156.4,10.9
526.5,145.5,166.7,158.8,157.0,10.7
527.0,146.1,163.3,160.8,156.8,9.3
527.5,145.8,165.6,157.2,156.2,9.9
528.0,145.5,165.4,159.1,156.6,10.2
528.5,146.8,164.8,156.3,156.0,9.0
529.0,146.6,165.5,157.5,156.5,9.5
529.5,146.1,164.8,160.1,157.0,9.7
530.0,146.4,164.2,160.2,156.9,9.3
530.5,147.1,163.8,157.7,156.2,8.4
531.0,149.3,163.7,157.1,156.7,7.2
531.5,147.1,164.7,157.9,156.6,8.9
532.0,145.2,164.9,158.7,156.3,10.1
532.5,147.2,164.5,159.2,157.0,8.9
533.0,149.8,165.1,159.5,158.2,7.7
533.5,147.9,165.2,159.0,157.4,8.8
534.0,146.1,164.8,157.5,156.1,9.5
534.5,146.8,164.4,158.0,156.4,8.9
535.0,146.0,164.4,160.4,156.9,9.7
535.5,146.4,165.7,159.3,157.1,9.8
536.0,147.4,166.9,157.8,157.4,9.7
536.5,147.9,166.0,156.4,156.7,9.1
537.0,150.0,164.7,158.9,157.9,7.4
537.5,146.6,163.2,157.3,155.7,8.5
538.0,145.7,166.5,157.1,156.4,10.4
538.5,145.6,167.0,158.5,157.0,10.8
539.0,146.1,164.2,158.4,156.3,9.2
539.5,145.8,166.0,158.5,156.8,10.2
540.0,146.8,166.3,158.2,157.1,9.8
540.5,147.6,166.9,156.8,157.1,9.7
541.0,146.3,165.0,159.8,157.0,9.6
541.5,144.8,167.9,158.7,157.1,11.7
542.0,146.2,167.0,159.3,157.5,10.5
542.5,146.0,164.6,157.5,156.1,9.4
543.0,146.3,167.1,158.0,157.1,10.4
543.5,144.5,166.4,160.2,157.1,11.3
544.0,147.3,165.9,155.9,156.4,9.3
544.5,145.4,166.3,158.3,156.7,10.5
545.0,146.2,167.6,158.3,157.4,10.7
545.5,149.0,166.8,156.6,157.5,8.9
546.0,146.6,167.1,156.3,156.7,10.3
546.5,145.8,168.7,157.9,157.5,11.4
547.0,147.4,164.8,157.1,156.5,8.7
547.5,144.3,168.2,153.2,155.2,12.0
548.0,148.4,166.8,152.9,156.0,9.6
548.5,149.7,166.0,154.3,156.7,8.4
549.0,146.5,165.8,157.2,156.5,9.7
549.5,146.0,165.1,157.0,156.0,9.6
550.0,145.2,166.4,155.9,155.9,10.6
550.5,146.7,168.2,153.7,156.2,11.0
551.0,145.0,168.2,155.0,156.0,11.6
551.5,148.6,167.7,154.8,157.0,9.7
552.0,144.1,166.2,155.8,155.3,11.1
552.5,147.4,165.9,155.9,156.4,9.3
553.0,146.8,165.6,156.2,156.2,9.4
553.5,145.3,166.2,155.2,155.6,10.5
554.0,145.1,166.9,155.4,155.8,10.9
554.5,145.3,165.7,154.0,155.0,10.2
555.0,146.9,166.8,155.9,156.5,10.0
555.5,148.5,163.4,155.5,155.8,7.5
556.0,145.4,166.4,153.3,155.0,10.6
556.5,146.9,166.3,153.7,155.6,9.9
557.0,143.9,163.3,153.9,153.7,9.7
557.5,143.7,163.7,155.4,154.3,10.0
558.0,146.9,165.4,153.1,155.1,9.4
558.5,145.9,162.3,153.0,153.7,8.2
559.0,143.5,163.3,153.0,153.3,9.9
559.5,144.3,164.4,151.3,153.3,10.2
560.0,142.6,162.4,153.1,152.7,9.9
560.5,142.2,163.4,154.0,153.2,10.6
561.0,146.2,163.1,151.7,153.7,8.6
561.5,143.6,164.2,151.7,153.2,10.4
562.0,144.7,164.7,151.8,153.7,10.1
562.5,144.2,163.7,151.7,153.2,9.8
563.0,149.1,163.9,152.4,155.1,7.8
563.5,145.8,164.2,152.1,154.0,9.4
564.0,144.0,163.2,154.5,153.9,9.6
564.5,143.3,164.7,151.0,153.0,10.8
565.0,145.0,163.7,152.3,153.7,9.4
565.5,143.7,165.2,151.3,153.4,10.9
566.0,142.5,164.9,152.6,153.4,11.2
566.5,144.0,164.9,154.1,154.3,10.5
567.0,144.0,163.0,154.9,154.0,9.6
567.5,144.8,165.0,153.6,154.5,10.1
568.0,142.7,165.3,152.4,153.5,11.3
568.5,141.2,163.2,152.3,152.2,11.0
569.0,142.9,164.0,154.2,153.7,10.6
569.5,145.0,163.9,153.4,154.1,9.5
570.0,141.7,159.3,151.2,150.8,8.8
570.5,143.7,162.3,153.2,153.1,9.3
571.0,143.4,163.6,150.0,152.3,10.3
571.5,145.3,164.4,151.6,153.7,9.7
572.0,139.0,165.5,151.4,152.0,13.3
572.5,142.4,162.1,148.6,151.0,10.1
573.0,140.7,164.7,150.2,151.8,12.1
573.5,140.2,163.3,147.5,150.3,11.8
574.0,139.8,162.2,144.6,148.9,11.8
574.5,141.9,165.1,145.3,150.8,12.5
575.0,140.1,162.7,148.2,150.3,11.5
575.5,139.7,164.3,145.8,149.9,12.8
576.0,141.5,163.0,148.9,151.1,10.9
576.5,142.1,162.0,146.1,150.1,10.5
577.0,140.3,161.2,143.6,148.4,11.2
577.5,139.8,161.8,143.7,148.4,11.7
578.0,137.5,158.5,143.4,146.5,10.9
578.5,139.0,161.4,144.9,148.4,11.6
579.0,137.6,158.0,144.3,146.6,10.4
579.5,137.9,158.2,143.6,146.6,10.5
580.0,139.5,158.4,144.9,147.6,9.7
580.5,138.5,160.3,142.8,147.2,11.5
581.0,138.5,157.7,142.0,146.1,10.2
581.5,138.2,158.4,140.1,145.6,11.2
582.0,136.3,157.1,141.8,145.1,10.8
582.5,138.1,158.0,141.2,145.8,10.7
583.0,136.0,157.5,141.4,145.0,11.2
583.5,136.0,157.5,139.2,144.2,11.6
584.0,135.2,155.7,139.4,143.4,10.8
584.5,134.6,156.9,137.6,143.0,12.1
585.0,135.0,155.9,141.1,144.0,10.7
585.5,134.7,155.6,138.2,142.8,11.2
586.0,136.7,157.8,138.1,144.2,11.8
586.5,134.0,158.3,137.3,143.2,13.2
587.0,131.8,155.0,138.5,141.8,11.9
587.5,134.6,153.7,134.1,140.8,11.1
588.0,135.9,156.8,137.7,143.5,11.6
588.5,134.1,156.6,134.3,141.6,13.0
589.0,135.0,155.1,133.2,141.1,12.1
589.5,137.8,153.6,133.0,141.5,10.8
590.0,133.4,150.2,133.8,139.2,9.6
590.5,135.8,152.7,133.7,140.7,10.4
591.0,133.6,151.7,134.0,139.7,10.3
591.5,133.8,151.9,132.6,139.4,10.8
592.0,133.7,150.4,130.8,138.3,10.6
592.5,133.3,149.6,131.5,138.1,10.0
593.0,133.9,151.0,133.8,139.6,9.9
593.5,131.1,148.3,130.8,136.7,10.0
594.0,132.2,146.7,132.0,137.0,8.5
594.5,131.0,148.7,129.9,136.5,10.5
595.0,132.6,149.5,130.6,137.6,10.4
595.5,131.9,150.4,129.2,137.2,11.6
596.0,131.0,147.3,129.7,136.0,9.8
596.5,130.2,146.9,131.2,136.1,9.4
597.0,129.6,147.5,129.8,135.6,10.3
597.5,130.1,149.0,131.1,136.7,10.7
598.0,128.9,147.4,125.4,133.9,11.8
598.5,128.6,146.8,126.7,134.0,11.1
599.0,128.2,146.5,127.8,134.2,10.7
599.5,128.7,147.0,126.3,134.0,11.4
600.0,128.5,144.3,126.4,133.1,9.8
600.5,129.0,147.5,124.4,133.6,12.2
601.0,129.3,149.7,125.2,134.8,13.1
601.5,125.5,147.4,122.3,131.8,13.7
602.0,125.3,146.3,122.3,131.3,13.1
602.5,126.9,147.1,119.9,131.3,14.1
603.0,126.8,150.3,120.7,132.6,15.6
603.5,124.1,147.0,120.3,130.5,14.5
604.0,123.0,147.4,119.6,130.0,15.2
604.5,124.5,146.7,119.1,130.1,14.6
605.0,123.7,145.5,119.7,129.6,13.9
605.5,124.5,147.7,120.0,130.7,14.9
606.0,124.1,145.1,118.0,129.1,14.2
606.5,123.7,145.7,117.0,128.8,15.0
607.0,123.5,146.2,115.5,128.4,16.0
607.5,120.6,145.7,115.2,127.2,16.2
608.0,123.1,144.0,117.5,128.2,14.0
608.5,122.1,144.4,114.6,127.0,15.5
609.0,121.0,144.4,115.5,127.0,15.4
609.5,120.5,143.8,114.3,126.2,15.5
610.0,118.5,144.5,113.3,125.4,16.7
610.5,121.5,144.3,112.4,126.1,16.4
611.0,119.2,144.0,112.5,125.2,16.6
611.5,120.3,143.8,111.3,125.2,16.8
612.0,119.3,144.3,111.8,125.1,17.0
612.5,119.9,143.9,112.1,125.3,16.6
613.0,118.2,142.7,109.7,123.5,17.1
613.5,119.2,145.9,109.1,124.7,19.1
614.0,117.3,143.2,109.4,123.3,17.7
614.5,118.4,141.6,108.0,122.7,17.2
615.0,116.8,141.6,108.4,122.3,17.3
615.5,114.0,141.3,110.8,122.0,16.7
616.0,116.3,143.4,106.0,121.9,19.3
616.5,114.4,144.9,106.9,122.0,20.1
617.0,115.0,141.1,107.4,121.2,17.7
617.5,114.1,143.8,106.5,121.5,19.7
618.0,112.1,138.7,104.7,118.5,17.9
618.5,112.7,141.6,106.2,120.2,18.8
619.0,110.9,142.8,105.1,119.6,20.3
619.5,112.2,141.2,103.6,119.0,19.7
620.0,111.9,139.2,103.5,118.2,18.7
620.5,110.5,141.6,103.1,118.4,20.5
621.0,109.7,140.1,103.2,117.7,19.7
621.5,108.4,141.2,102.9,117.5,20.7
622.0,109.8,139.1,101.0,116.6,20.0
622.5,108.9,142.0,101.3,117.4,21.6
623.0,108.6,140.0,99.2,115.9,21.4
623.5,106.9,138.6,101.4,115.6,20.1
624.0,109.7,139.6,98.4,115.9,21.3
624.5,106.2,140.1,99.2,115.2,21.9
625.0,105.9,138.9,98.7,114.5,21.4
625.5,104.9,142.0,96.9,114.6,24.1
626.0,103.8,139.9,95.1,112.9,23.7
626.5,103.5,137.6,95.0,112.1,22.5
627.0,102.8,137.1,95.2,111.7,22.3
627.5,100.7,137.0,95.8,111.2,22.5
628.0,102.1,138.4,94.9,111.8,23.3
628.5,102.0,138.7,95.1,111.9,23.4
629.0,100.4,136.3,91.9,109.6,23.6
629.5,99.5,137.1,91.8,109.5,24.3
630.0,99.3,136.4,92.6,109.4,23.6
630.5,98.4,136.2,90.6,108.4,24.4
631.0,97.1,135.9,90.9,107.9,24.4
631.5,97.9,135.9,88.5,107.4,25.1
632.0,96.4,136.3,89.4,107.3,25.3
632.5,97.5,134.1,88.2,106.6,24.3
633.0,94.7,133.8,88.6,105.7,24.5
633.5,94.5,134.9,86.5,105.3,25.9
634.0,95.3,134.9,85.8,105.3,26.1
634.5,95.7,133.7,85.2,104.8,25.5
635.0,96.0,133.9,84.5,104.8,25.9
635.5,95.6,133.0,83.1,103.9,26.0
636.0,93.6,134.7,82.5,103.6,27.5
636.5,93.3,131.7,83.4,102.8,25.5
637.0,93.4,130.5,81.8,101.9,25.4
637.5,93.7,130.8,80.7,101.7,26.0
638.0,94.1,131.7,80.3,102.0,26.6
638.5,91.4,129.3,79.5,100.0,26.1
639.0,91.6,128.1,79.5,99.7,25.3
639.5,90.1,129.5,77.7,99.1,27.0
640.0,89.2,128.8,78.0,98.7,26.7
640.5,89.5,128.1,77.1,98.2,26.6
641.0,89.3,128.6,75.5,97.8,27.6
641.5,87.5,129.5,75.1,97.4,28.5
642.0,87.1,127.0,76.0,96.7,26.8
642.5,85.4,129.4,74.0,96.3,29.3
643.0,85.1,126.4,73.3,94.9,27.9
643.5,84.5,126.6,71.8,94.3,28.7
644.0,85.1,128.8,71.3,95.1,30.0
644.5,83.7,127.5,71.3,94.2,29.5
645.0,82.3,127.0,70.1,93.1,30.0
645.5,83.6,128.2,69.8,93.9,30.5
646.0,82.9,126.8,69.9,93.2,29.8
646.5,81.1,126.2,68.6,92.0,30.3
647.0,80.4,127.4,67.7,91.8,31.4
647.5,81.4,124.6,66.7,90.9,30.1
648.0,81.4,126.5,66.1,91.3,31.4
648.5,78.6,126.8,65.1,90.2,32.5
649.0,78.8,125.6,65.0,89.8,31.7
649.5,77.6,124.7,64.4,88.9,31.7
650.0,77.5,126.3,64.1,89.3,32.7
650.5,76.9,123.5,63.8,88.1,31.4
651.0,76.4,123.1,63.4,87.6,31.4
651.5,75.7,125.1,61.6,87.5,33.4
652.0,74.2,124.6,61.4,86.7,33.4
652.5,74.8,123.8,60.5,86.4,33.2
653.0,74.3,123.2,60.4,86.0,33.0
653.5,73.5,123.0,60.1,85.5,33.1
654.0,73.1,121.1,58.3,84.2,32.8
654.5,72.3,121.5,59.1,84.3,32.8
655.0,71.0,121.6,58.5,83.7,33.4
655.5,70.8,123.0,57.7,83.8,34.5
656.0,71.2,121.5,56.9,83.2,33.9
656.5,70.3,121.1,56.3,82.6,34.1
657.0,69.5,119.4,55.8,81.6,33.4
657.5,69.4,121.3,55.4,82.0,34.7
658.0,68.0,118.2,54.1,80.1,33.7
658.5,68.6,119.2,54.4,80.7,34.1
659.0,66.7,118.2,54.5,79.8,33.8
659.5,67.0,118.0,52.9,79.3,34.2
660.0,65.8,118.1,54.1,79.3,34.1
660.5,65.3,117.0,52.9,78.4,34.0
661.0,64.2,117.4,52.5,78.0,34.6
661.5,63.4,118.2,51.6,77.7,35.5
662.0,62.6,116.8,51.4,76.9,35.0
662.5,62.0,119.4,51.6,77.7,36.5
663.0,61.7,117.0,51.5,76.7,35.2
663.5,60.1,116.7,51.4,76.1,35.5
664.0,61.2,116.1,51.1,76.1,35.0
664.5,59.5,116.3,50.4,75.4,35.7
665.0,59.6,114.8,51.3,75.2,34.5
665.5,57.5,114.0,50.4,74.0,34.9
666.0,57.8,115.2,50.6,74.5,35.4
666.5,57.7,115.6,50.4,74.6,35.7
667.0,56.3,114.2,49.7,73.4,35.5
667.5,55.6,113.8,50.8,73.4,35.1
668.0,55.4,114.4,49.7,73.2,35.8
668.5,55.4,114.9,50.7,73.7,35.8
669.0,54.7,112.8,50.4,72.6,34.9
669.5,54.2,115.5,50.7,73.5,36.5
670.0,54.5,113.0,50.0,72.5,35.1
670.5,53.4,111.6,50.0,71.6,34.6
671.0,53.4,111.2,50.2,71.6,34.3
671.5,53.5,110.2,49.3,71.0,34.0
672.0,53.0,111.5,49.7,71.4,34.8
672.5,52.9,109.6,49.7,70.7,33.7
673.0,51.9,107.3,50.0,69.7,32.5
673.5,52.1,108.3,49.3,69.9,33.3
674.0,51.7,108.4,50.0,70.0,33.2
674.5,51.4,108.1,49.1,69.5,33.4
675.0,51.2,107.0,48.8,69.0,33.0
675.5,51.9,107.0,49.6,69.5,32.5
676.0,50.6,107.1,48.6,68.8,33.2
676.5,50.5,106.4,49.9,69.0,32.4
677.0,50.5,105.5,49.4,68.5,32.1
677.5,50.3,106.1,49.1,68.5,32.6
678.0,49.9,106.6,50.0,68.9,32.7
678.5,49.7,105.9,49.4,68.4,32.5
679.0,49.7,107.2,49.0,68.6,33.4
679.5,50.4,106.3,49.8,68.8,32.4
680.0,50.3,104.9,49.6,68.3,31.7
680.5,50.3,105.8,49.2,68.5,32.3
681.0,49.7,105.4,,77.6,39.4
681.5,49.4,103.6,,76.5,38.4
682.0,50.2,104.2,,77.2,38.1
682.5,49.3,104.6,,77.0,39.1
683.0,49.7,104.4,,77.1,38.7
683.5,49.6,104.2,,76.9,38.7
684.0,49.8,104.2,,77.0,38.5
684.5,50.1,103.5,,76.8,37.8
685.0,50.0,103.3,,76.7,37.7
685.5,49.3,101.4,,75.4,36.9
686.0,48.9,103.3,,76.1,38.5
686.5,49.7,104.5,,77.1,38.7
687.0,49.3,104.7,,77.0,39.1
687.5,48.8,102.7,,75.7,38.1