File: 01_Data/Pine_Siding/Cone/Pine_Siding_HRRPUA_25.csv
Time after Ignition,Pine_Siding_R1,Pine_Siding_R2,Pine_Siding_R3,Mean,Std. Dev.
0.0,5.8,-1.0,1.7,2.2,3.4
1.0,19.6,1.8,9.9,10.4,8.9
2.0,39.0,7.4,25.5,24.0,15.8
3.0,65.5,19.3,42.2,42.3,23.1
4.0,95.9,36.6,67.6,66.7,29.6
5.0,130.6,57.2,99.1,95.6,36.8
6.0,165.6,76.3,127.9,123.3,44.8
7.0,190.8,95.7,155.3,147.3,48.0
8.0,209.8,115.2,182.4,169.1,48.7
9.0,228.8,141.1,205.0,191.6,45.4
10.0,245.6,164.7,219.2,209.8,41.2
11.0,255.0,187.9,235.8,226.2,34.5
12.0,262.9,208.3,249.7,240.3,28.5
13.0,265.6,217.3,259.4,247.4,26.3
14.0,268.9,230.1,256.1,251.7,19.8
15.0,265.3,240.4,259.1,254.9,13.0
16.0,262.4,242.3,258.1,254.3,10.6
17.0,251.8,241.1,254.9,249.3,7.2
18.0,246.2,241.1,258.3,248.5,8.8
19.0,236.9,240.7,245.6,241.1,4.4
20.0,230.6,232.7,243.0,235.4,6.6
21.0,221.2,233.1,235.8,230.0,7.8
22.0,215.4,231.8,230.1,225.7,9.0
23.0,207.7,219.4,220.6,215.9,7.1
24.0,197.7,216.7,212.7,209.0,10.0
25.0,193.2,205.1,213.9,204.1,10.4
26.0,184.1,201.7,207.1,197.6,12.0
27.0,178.7,195.4,200.1,191.4,11.2
28.0,169.7,191.2,195.0,185.3,13.7
29.0,166.0,185.6,189.0,180.2,12.4
30.0,160.3,185.2,187.1,177.6,14.9
31.0,154.8,180.6,183.6,173.0,15.8
32.0,150.5,174.8,182.1,169.1,16.6
33.0,149.5,171.6,180.6,167.2,16.0
34.0,146.7,167.2,178.4,164.1,16.1
35.0,143.0,167.1,175.0,161.7,16.7
36.0,138.3,161.4,170.7,156.8,16.7
37.0,139.6,160.4,166.7,155.6,14.2
38.0,133.0,158.4,162.7,151.3,16.1
39.0,133.0,155.0,161.3,149.8,14.9
40.0,129.0,146.5,156.9,144.1,14.1
41.0,127.8,149.4,154.3,143.9,14.1
42.0,124.4,146.4,152.7,141.2,14.8
43.0,120.8,143.8,149.1,137.9,15.0
44.0,122.3,140.4,146.7,136.5,12.7
45.0,119.0,140.5,145.3,134.9,14.0
46.0,118.2,136.1,140.5,131.6,11.8
47.0,115.3,135.4,141.9,130.8,13.8
48.0,114.1,133.4,139.1,128.9,13.1
49.0,112.9,131.2,135.3,126.4,11.9
50.0,111.7,128.3,135.7,125.2,12.2
51.0,109.9,126.8,135.4,124.0,13.0
52.0,107.6,124.7,135.0,122.5,13.9
53.0,107.7,121.9,132.5,120.7,12.4
54.0,107.5,121.5,132.4,120.4,12.5
55.0,105.3,120.9,132.2,119.5,13.5
56.0,103.9,121.1,130.4,118.5,13.5
57.0,103.6,118.6,129.5,117.2,13.0
58.0,102.8,117.5,127.9,116.1,12.6
59.0,99.2,117.5,128.2,115.0,14.6
60.0,100.1,114.2,127.1,113.8,13.5
61.0,99.5,113.1,126.5,113.0,13.5
62.0,97.3,111.2,124.1,110.9,13.4
63.0,95.3,110.1,123.3,109.6,14.0
64.0,95.2,110.1,123.5,109.6,14.2
65.0,92.8,108.4,121.7,107.7,14.5
66.0,91.9,105.4,118.4,105.3,13.3
67.0,90.1,106.0,119.5,105.2,14.7
68.0,89.4,104.0,116.2,103.2,13.4
69.0,88.6,103.6,116.2,102.8,13.8
70.0,89.1,102.3,117.5,102.9,14.2
71.0,87.9,101.8,116.0,101.9,14.0
72.0,87.2,100.9,114.2,100.8,13.5
73.0,85.5,100.8,115.4,100.6,14.9
74.0,84.4,99.8,115.7,99.9,15.6
75.0,83.1,98.5,114.5,98.7,15.7
76.0,83.5,97.9,114.4,98.6,15.5
77.0,82.6,100.6,113.4,98.8,15.5
78.0,81.3,99.6,113.9,98.3,16.3
79.0,81.7,98.0,112.8,97.5,15.6
80.0,80.9,98.2,111.5,96.9,15.3
81.0,81.5,95.5,109.7,95.6,14.1
82.0,80.9,96.0,110.5,95.8,14.8
83.0,80.3,95.2,110.0,95.2,14.8
84.0,80.4,94.9,109.9,95.0,14.7
85.0,80.1,94.9,108.1,94.4,14.0
86.0,79.2,93.7,108.2,93.7,14.5
87.0,79.5,94.2,107.1,93.6,13.8
88.0,77.0,92.3,108.9,92.7,16.0
89.0,77.3,94.4,108.4,93.4,15.6
90.0,77.1,93.5,106.7,92.4,14.9
91.0,77.3,94.0,106.5,92.6,14.6
92.0,76.2,94.2,104.3,91.6,14.3
93.0,75.8,92.6,105.3,91.3,14.8
94.0,74.4,92.0,104.3,90.2,15.0
95.0,74.4,90.7,106.2,90.5,15.9
96.0,74.4,91.6,105.2,90.4,15.4
97.0,74.4,90.8,106.3,90.5,16.0
98.0,73.3,89.3,104.4,89.0,15.6
99.0,74.2,89.0,105.9,89.7,15.8
100.0,74.0,89.0,106.1,89.7,16.1
101.0,73.1,88.2,105.0,88.8,15.9
102.0,74.2,88.0,104.3,88.9,15.1
103.0,73.1,88.1,106.0,89.1,16.5
104.0,73.1,88.2,105.1,88.8,16.0
105.0,73.3,87.4,106.8,89.2,16.8
106.0,74.8,87.6,105.5,89.3,15.4
107.0,72.8,88.1,107.7,89.5,17.5
108.0,73.1,87.3,105.9,88.8,16.4
109.0,72.8,87.3,104.9,88.4,16.1
110.0,72.7,86.4,104.1,87.8,15.7
111.0,72.9,86.4,105.6,88.3,16.4
112.0,71.6,87.0,104.1,87.6,16.3
113.0,70.8,85.8,105.4,87.3,17.3
114.0,71.4,86.6,107.1,88.4,17.9
115.0,70.1,84.6,104.9,86.5,17.5
116.0,70.5,85.3,104.4,86.7,17.0
117.0,70.6,86.2,103.1,86.6,16.3
118.0,70.9,85.4,104.7,87.0,17.0
119.0,71.2,84.5,103.8,86.5,16.4
120.0,71.8,85.1,102.3,86.4,15.3
121.0,71.6,84.1,101.1,85.6,14.8
122.0,72.8,84.2,102.0,86.3,14.7
123.0,71.2,85.0,100.6,85.6,14.7
124.0,73.1,84.1,102.2,86.5,14.7
125.0,70.9,83.9,100.0,84.9,14.6
126.0,71.9,83.5,100.1,85.2,14.1
127.0,71.5,84.0,99.9,85.1,14.2
128.0,70.3,81.9,99.5,83.9,14.7
129.0,71.7,81.9,101.4,85.0,15.1
130.0,71.3,82.6,100.1,84.6,14.5
131.0,70.9,82.0,99.3,84.1,14.3
132.0,70.4,82.3,99.3,84.0,14.6
133.0,69.6,81.1,100.1,83.6,15.4
134.0,70.3,80.7,100.9,84.0,15.6
135.0,71.6,81.5,101.1,84.7,15.0
136.0,71.4,80.5,100.8,84.2,15.0
137.0,70.4,80.7,101.4,84.2,15.8
138.0,69.8,79.5,100.5,83.2,15.7
139.0,69.8,80.1,99.6,83.2,15.1
140.0,69.5,79.5,101.7,83.6,16.5
141.0,69.9,79.8,98.7,82.8,14.6
142.0,70.8,79.8,98.3,82.9,14.1
143.0,70.5,79.6,98.6,82.9,14.3
144.0,70.5,77.9,100.1,82.8,15.4
145.0,70.4,79.3,100.8,83.5,15.6
146.0,69.9,78.6,98.4,82.3,14.6
147.0,71.1,77.9,98.3,82.4,14.2
148.0,70.0,77.9,98.1,82.0,14.5
149.0,70.9,78.5,99.0,82.8,14.5
150.0,70.7,77.4,99.0,82.4,14.8
151.0,69.4,77.7,96.3,81.1,13.8
152.0,70.4,78.8,97.7,82.3,14.0
153.0,70.3,76.9,98.1,81.7,14.5
154.0,70.5,77.9,96.9,81.8,13.6
155.0,69.7,77.4,96.8,81.3,13.9
156.0,70.3,76.5,96.4,81.1,13.6
157.0,69.6,76.6,96.9,81.0,14.2
158.0,70.4,75.9,96.6,81.0,13.8
159.0,70.6,76.5,96.9,81.3,13.8
160.0,70.4,74.9,97.6,81.0,14.6
161.0,69.4,75.4,96.3,80.4,14.1
162.0,70.1,75.2,96.9,80.7,14.2
163.0,69.1,75.6,96.0,80.3,14.0
164.0,69.7,75.0,96.3,80.3,14.1
165.0,70.1,74.8,96.3,80.4,14.0
166.0,71.0,74.2,96.1,80.4,13.6
167.0,70.2,75.1,94.9,80.1,13.1
168.0,70.3,74.6,96.1,80.3,13.8
169.0,70.8,74.6,94.7,80.0,12.9
170.0,71.0,74.5,93.5,79.7,12.1
171.0,72.0,73.4,94.3,79.9,12.5
172.0,70.6,73.4,93.8,79.2,12.7
173.0,70.9,72.9,93.3,79.0,12.4
174.0,71.5,72.5,92.8,78.9,12.0
175.0,71.9,73.0,92.8,79.2,11.8
176.0,71.3,73.1,92.1,78.8,11.5
177.0,70.9,72.0,91.6,78.2,11.7
178.0,70.7,72.8,92.6,78.7,12.1
179.0,72.2,72.9,93.3,79.4,12.0
180.0,71.5,74.1,92.4,79.3,11.4
181.0,72.4,72.8,94.0,79.7,12.3
182.0,72.2,72.7,93.5,79.5,12.1
183.0,71.9,72.8,94.4,79.7,12.7
184.0,72.4,71.3,92.9,78.9,12.2
185.0,72.6,71.3,94.9,79.6,13.3
186.0,71.7,70.6,95.1,79.1,13.8
187.0,73.0,71.1,94.4,79.5,12.9
188.0,72.6,70.1,94.9,79.2,13.7
189.0,71.8,70.0,93.9,78.6,13.3
190.0,72.5,69.6,95.3,79.2,14.1
191.0,71.7,70.3,94.5,78.8,13.6
192.0,72.8,71.6,95.1,79.8,13.3
193.0,72.3,71.2,95.2,79.6,13.6
194.0,72.4,71.9,94.5,79.6,12.9
195.0,72.5,71.5,95.7,79.9,13.7
196.0,72.2,70.8,92.9,78.6,12.4
197.0,72.8,71.7,93.1,79.2,12.0
198.0,72.9,71.5,94.7,79.7,13.0
199.0,72.7,71.5,94.3,79.5,12.8
200.0,72.5,71.0,94.3,79.3,13.0
201.0,72.5,72.2,94.5,79.7,12.8
202.0,73.7,73.0,94.1,80.3,12.0
203.0,72.4,72.4,95.7,80.2,13.5
204.0,73.1,72.5,94.8,80.2,12.7
205.0,73.2,72.5,94.1,79.9,12.3
206.0,73.0,72.7,93.3,79.6,11.8
207.0,74.4,73.2,92.3,80.0,10.7
208.0,74.9,72.6,92.8,80.1,11.1
209.0,74.6,73.2,92.9,80.3,11.0
210.0,74.3,72.1,93.8,80.0,11.9
211.0,73.6,73.1,93.6,80.1,11.7
212.0,74.3,73.7,93.5,80.5,11.3
213.0,73.0,73.1,93.1,79.8,11.6
214.0,74.3,73.9,92.0,80.1,10.3
215.0,73.2,74.8,93.1,80.3,11.0
216.0,72.6,73.8,91.9,79.5,10.8
217.0,72.9,72.9,91.9,79.3,11.0
218.0,72.7,74.0,91.2,79.3,10.3
219.0,71.3,74.7,91.5,79.2,10.8
220.0,71.8,74.4,91.6,79.3,10.8
221.0,71.1,73.4,90.4,78.3,10.6
222.0,72.3,74.4,89.8,78.8,9.6
223.0,72.4,74.7,89.9,79.0,9.5
224.0,71.2,74.4,89.8,78.5,9.9
225.0,71.9,74.4,89.0,78.5,9.2
226.0,71.3,75.3,90.1,78.9,9.9
227.0,71.8,74.9,89.3,78.6,9.4
228.0,72.0,74.5,89.2,78.5,9.3
229.0,71.6,74.6,89.2,78.5,9.4
230.0,71.3,74.1,88.4,77.9,9.2
231.0,72.7,75.2,87.8,78.6,8.1
232.0,72.7,74.7,89.5,79.0,9.2
233.0,72.1,75.1,88.4,78.5,8.7
234.0,72.1,74.3,88.4,78.2,8.8
235.0,72.6,75.2,86.9,78.2,7.6
236.0,72.3,75.4,87.0,78.2,7.8
237.0,71.6,74.7,87.1,77.8,8.2
238.0,72.4,74.1,87.1,77.9,8.1
239.0,72.3,74.0,87.8,78.0,8.5
240.0,71.9,73.3,86.9,77.3,8.3
241.0,71.7,73.2,87.6,77.5,8.8
242.0,72.5,72.3,87.5,77.5,8.7
243.0,72.4,73.4,86.6,77.5,7.9
244.0,72.6,72.2,86.9,77.2,8.3
245.0,72.6,71.7,87.0,77.1,8.6
246.0,72.6,72.2,86.4,77.1,8.1
247.0,73.2,71.2,86.1,76.8,8.1
248.0,72.2,70.7,87.6,76.8,9.3
249.0,71.9,70.6,85.9,76.1,8.5
250.0,72.2,71.7,85.6,76.5,7.9
251.0,74.4,72.3,86.5,77.7,7.6
252.0,72.5,73.4,86.9,77.6,8.1
253.0,72.9,73.1,85.9,77.3,7.4
254.0,72.6,73.1,85.9,77.2,7.6
255.0,73.2,74.1,85.7,77.7,6.9
256.0,73.4,72.9,86.3,77.5,7.6
257.0,73.0,73.9,86.4,77.8,7.5
258.0,74.2,73.4,86.1,77.9,7.1
259.0,73.7,73.6,86.7,78.0,7.5
260.0,72.9,73.3,85.4,77.2,7.1
261.0,73.2,73.1,86.6,77.6,7.8
262.0,73.7,72.8,85.7,77.4,7.2
263.0,72.5,73.3,85.8,77.2,7.4
264.0,71.9,73.9,85.2,77.0,7.1
265.0,72.0,73.5,86.3,77.3,7.8
266.0,71.7,73.7,88.1,77.8,8.9
267.0,70.6,73.4,86.0,76.7,8.2
268.0,70.4,74.6,86.4,77.1,8.3
269.0,70.1,72.9,86.1,76.4,8.6
270.0,70.5,71.8,86.4,76.2,8.8
271.0,70.5,72.6,85.5,76.2,8.1
272.0,71.2,72.8,84.2,76.0,7.1
273.0,70.6,71.3,85.2,75.7,8.2
274.0,70.8,71.7,85.5,76.0,8.2
275.0,71.1,71.5,84.7,75.8,7.7
276.0,69.4,70.6,85.5,75.2,9.0
277.0,70.3,71.3,85.6,75.7,8.5
278.0,70.4,70.6,86.6,75.9,9.3
279.0,69.9,70.9,88.0,76.3,10.2
280.0,69.8,71.0,86.3,75.7,9.2
281.0,68.9,71.3,86.1,75.5,9.3
282.0,69.1,71.2,86.7,75.7,9.6
283.0,69.0,71.0,85.8,75.3,9.2
284.0,69.1,70.4,87.2,75.5,10.1
285.0,70.0,70.6,86.1,75.5,9.1
286.0,68.7,70.6,86.3,75.2,9.6
287.0,68.0,71.1,87.0,75.4,10.2
288.0,68.5,70.4,84.7,74.5,8.9
289.0,68.5,69.8,85.7,74.7,9.6
290.0,67.2,69.7,84.7,73.9,9.4
291.0,68.9,69.9,84.6,74.5,8.8
292.0,67.6,70.9,84.7,74.4,9.1
293.0,68.7,69.9,84.7,74.4,8.9
294.0,69.0,69.8,84.2,74.4,8.6
295.0,69.3,70.9,85.4,75.2,8.9
296.0,68.8,70.2,85.8,74.9,9.4
297.0,69.6,70.6,83.8,74.7,7.9
298.0,69.7,71.4,85.2,75.4,8.5
299.0,70.9,72.2,83.8,75.6,7.1
300.0,71.2,71.5,84.7,75.8,7.7
301.0,70.7,71.6,83.3,75.2,7.0
302.0,70.5,72.9,83.9,75.8,7.2
303.0,70.7,73.2,84.7,76.2,7.4
304.0,71.5,73.9,85.4,77.0,7.5
305.0,71.9,74.1,84.8,77.0,6.9
306.0,71.7,73.6,84.7,76.7,7.0
307.0,72.0,74.0,85.4,77.1,7.3
308.0,72.0,75.6,84.7,77.4,6.6
309.0,72.5,75.5,83.6,77.2,5.7
310.0,72.5,74.1,83.7,76.8,6.1
311.0,72.3,75.4,84.0,77.2,6.0
312.0,71.8,74.3,84.7,76.9,6.9
313.0,72.4,73.7,83.5,76.6,6.1
314.0,72.2,73.5,84.7,76.8,6.9
315.0,72.1,73.7,83.5,76.4,6.1
316.0,72.4,72.6,83.0,76.0,6.1
317.0,71.6,72.7,83.9,76.1,6.8
318.0,72.0,73.8,83.8,76.5,6.4
319.0,71.9,73.1,83.7,76.2,6.5
320.0,72.4,71.6,84.0,76.0,6.9
321.0,72.2,73.5,84.0,76.6,6.5
322.0,72.1,71.6,84.9,76.2,7.5
323.0,72.3,73.1,85.0,76.8,7.1
324.0,71.9,73.4,84.0,76.4,6.6
325.0,71.5,72.8,85.9,76.7,8.0
326.0,71.9,73.3,85.0,76.7,7.2
327.0,71.7,74.8,83.8,76.8,6.3
328.0,71.6,74.2,84.7,76.8,6.9
329.0,70.8,74.6,84.5,76.6,7.1
330.0,71.4,73.8,84.6,76.6,7.1
331.0,70.7,74.6,84.0,76.5,6.9
332.0,71.5,74.4,85.8,77.2,7.6
333.0,71.7,73.7,84.9,76.8,7.1
334.0,71.5,73.3,85.2,76.7,7.5
335.0,71.7,73.6,85.4,76.9,7.4
336.0,72.8,72.9,84.7,76.8,6.8
337.0,71.5,73.2,84.4,76.4,7.0
338.0,72.6,73.1,84.8,76.8,6.9
339.0,72.8,72.0,85.8,76.9,7.7
340.0,73.3,72.9,84.4,76.9,6.5
341.0,72.2,71.4,84.7,76.1,7.4
342.0,72.1,72.0,83.5,75.9,6.6
343.0,71.3,72.2,85.6,76.4,8.1
344.0,73.4,71.7,86.6,77.2,8.2
345.0,72.6,71.6,84.2,76.1,7.0
346.0,73.1,71.2,85.4,76.5,7.7
347.0,71.7,71.2,86.0,76.3,8.4
348.0,72.4,71.0,86.1,76.5,8.3
349.0,73.3,72.5,84.5,76.8,6.7
350.0,73.4,71.5,86.3,77.1,8.1
351.0,73.8,72.4,85.2,77.1,7.0
352.0,73.4,72.8,85.1,77.1,6.9
353.0,73.7,71.7,86.9,77.4,8.3
354.0,73.0,72.1,85.8,77.0,7.6
355.0,73.6,71.2,85.1,76.6,7.4
356.0,73.9,71.1,85.0,76.7,7.3
357.0,73.4,71.3,84.0,76.3,6.8
358.0,72.7,70.7,84.3,75.9,7.3
359.0,73.2,70.9,85.3,76.5,7.7
360.0,73.0,70.3,84.8,76.0,7.7
361.0,72.2,70.6,83.3,75.3,6.9
362.0,73.4,70.5,83.6,75.9,6.9
363.0,72.0,70.5,84.3,75.6,7.6
364.0,72.0,70.8,84.1,75.6,7.4
365.0,71.4,69.9,83.5,74.9,7.5
366.0,72.2,70.2,83.8,75.4,7.4
367.0,71.1,71.1,83.3,75.2,7.1
368.0,71.6,71.1,83.6,75.4,7.1
369.0,71.5,70.7,83.3,75.2,7.1
370.0,71.9,70.4,84.0,75.4,7.5
371.0,72.0,71.6,82.2,75.3,6.0
372.0,73.3,70.3,84.1,75.9,7.3
373.0,72.3,69.4,83.6,75.1,7.5
374.0,73.3,69.1,85.2,75.8,8.3
375.0,73.7,70.0,85.0,76.2,7.8
376.0,73.8,69.1,83.9,75.6,7.6
377.0,72.5,68.5,83.4,74.8,7.7
378.0,73.7,68.8,83.5,75.3,7.5
379.0,73.1,67.8,84.5,75.1,8.5
380.0,72.7,68.0,84.1,74.9,8.3
381.0,72.9,68.1,83.5,74.9,7.9
382.0,72.4,68.7,83.6,74.9,7.8
383.0,72.2,69.0,82.4,74.5,7.0
384.0,72.4,69.4,84.5,75.5,8.0
385.0,72.6,69.9,84.6,75.7,7.8
386.0,72.9,69.5,84.8,75.7,8.0
387.0,72.6,69.4,83.9,75.3,7.6
388.0,72.7,69.5,85.0,75.7,8.2
389.0,72.6,69.7,84.3,75.6,7.7
390.0,72.7,71.0,83.5,75.8,6.8
391.0,72.0,70.8,84.5,75.8,7.6
392.0,71.8,70.4,83.7,75.3,7.3
393.0,73.7,70.4,84.0,76.0,7.1
394.0,72.1,70.1,84.9,75.7,8.1
395.0,73.9,70.6,85.7,76.7,7.9
396.0,72.6,69.3,84.1,75.3,7.8
397.0,73.2,69.2,84.3,75.6,7.8
398.0,73.5,70.4,85.4,76.4,7.9
399.0,73.3,69.9,84.6,75.9,7.7
400.0,74.7,69.7,85.5,76.6,8.1
401.0,74.4,70.7,84.7,76.6,7.2
402.0,73.7,70.2,84.8,76.2,7.6
403.0,72.4,68.8,87.2,76.2,9.7
404.0,72.6,68.8,85.4,75.6,8.7
405.0,72.9,68.3,86.2,75.8,9.3
406.0,74.0,68.4,87.0,76.5,9.6
407.0,73.3,68.4,85.5,75.8,8.8
408.0,73.8,68.4,86.0,76.1,9.1
409.0,73.6,69.1,86.8,76.5,9.2
410.0,72.8,69.1,86.9,76.3,9.4
411.0,72.9,68.0,87.8,76.2,10.3
412.0,74.8,69.7,85.7,76.7,8.2
413.0,72.3,69.5,88.0,76.6,10.0
414.0,73.7,70.0,86.7,76.8,8.8
415.0,71.9,69.9,86.6,76.1,9.1
416.0,71.9,68.4,86.4,75.6,9.5
417.0,71.0,70.8,86.5,76.1,9.0
418.0,71.5,69.9,85.4,75.6,8.5
419.0,71.2,69.0,86.2,75.5,9.4
420.0,71.5,69.5,85.0,75.3,8.4
421.0,71.4,70.2,85.4,75.7,8.4
422.0,71.4,69.3,84.8,75.2,8.4
423.0,72.6,70.4,84.9,76.0,7.8
424.0,73.0,70.5,85.8,76.4,8.2
425.0,72.9,69.9,84.3,75.7,7.6
426.0,73.5,69.9,84.5,76.0,7.6
427.0,73.0,69.7,85.4,76.0,8.3
428.0,73.3,70.4,84.9,76.2,7.7
429.0,73.1,69.4,84.3,75.6,7.7
430.0,72.7,70.0,84.6,75.8,7.8
431.0,73.4,71.1,84.3,76.3,7.1
432.0,73.8,71.2,85.1,76.7,7.4
433.0,73.1,70.9,85.6,76.5,7.9
434.0,73.8,70.0,86.1,76.6,8.4
435.0,73.4,70.5,86.9,77.0,8.7
436.0,73.7,69.4,86.8,76.6,9.1
437.0,71.9,69.4,87.5,76.3,9.8
438.0,71.9,70.2,86.5,76.2,8.9
439.0,72.2,70.6,85.2,76.0,8.0
440.0,71.7,70.4,87.1,76.4,9.3
441.0,71.6,70.5,86.7,76.3,9.1
442.0,71.9,69.3,85.7,75.6,8.8
443.0,71.1,70.4,85.7,75.7,8.7
444.0,72.6,71.3,85.3,76.4,7.7
445.0,73.3,70.5,86.9,76.9,8.8
446.0,72.1,71.9,85.3,76.5,7.7
447.0,72.2,72.7,85.8,76.9,7.7
448.0,74.1,71.5,84.9,76.8,7.1
449.0,72.3,71.5,85.2,76.3,7.7
450.0,73.1,72.3,83.4,76.3,6.2
451.0,73.1,72.9,84.6,76.9,6.7
452.0,72.7,71.7,84.2,76.2,7.0
453.0,73.5,72.9,84.9,77.1,6.8
454.0,73.1,72.7,84.7,76.8,6.8
455.0,73.1,72.4,83.9,76.5,6.5
456.0,72.2,72.3,84.0,76.2,6.8
457.0,70.8,72.9,83.7,75.8,6.9
458.0,70.8,72.7,84.2,75.9,7.2
459.0,71.3,73.2,83.7,76.1,6.7
460.0,70.6,74.4,85.0,76.7,7.4
461.0,70.4,73.4,84.5,76.1,7.4
462.0,70.2,73.8,84.8,76.3,7.6
463.0,70.1,73.6,85.2,76.3,7.9
464.0,71.1,74.6,84.9,76.9,7.2
465.0,70.0,73.7,84.4,76.1,7.5
466.0,70.2,74.4,84.5,76.4,7.4
467.0,70.5,75.0,85.9,77.1,7.9
468.0,70.6,75.3,86.2,77.3,8.0
469.0,69.4,74.9,87.0,77.1,9.0
470.0,70.1,76.5,85.5,77.4,7.7
471.0,69.3,76.3,85.9,77.2,8.4
472.0,68.3,75.6,86.3,76.7,9.1
473.0,69.7,74.8,86.0,76.8,8.3
474.0,68.6,76.7,86.3,77.2,8.9
475.0,69.3,76.8,86.0,77.3,8.4
476.0,69.2,77.0,85.9,77.4,8.3
477.0,69.2,77.5,85.5,77.4,8.2
478.0,69.8,77.8,86.0,77.9,8.1
479.0,70.4,77.0,86.4,77.9,8.0
480.0,72.3,77.5,85.4,78.4,6.6
481.0,72.5,76.1,85.8,78.1,6.9
482.0,72.2,76.7,85.5,78.2,6.8
483.0,72.7,77.2,85.1,78.3,6.3
484.0,73.2,76.9,84.8,78.3,5.9
485.0,73.4,76.5,85.4,78.4,6.2
486.0,72.5,77.2,86.4,78.7,7.1
487.0,74.0,76.3,85.6,78.6,6.1
488.0,73.1,77.1,84.7,78.3,5.9
489.0,71.9,76.8,85.3,78.0,6.8
490.0,74.1,75.3,85.8,78.4,6.4
491.0,74.3,75.4,85.2,78.3,6.0
492.0,74.4,76.7,85.4,78.8,5.8
493.0,74.3,76.9,85.2,78.8,5.7
494.0,74.9,77.1,84.8,78.9,5.2
495.0,74.0,76.9,86.1,79.0,6.3
496.0,74.4,78.2,86.1,79.5,5.9
497.0,74.1,77.1,86.5,79.2,6.4
498.0,74.9,77.7,86.8,79.8,6.2
499.0,75.9,76.9,85.9,79.6,5.5
500.0,74.3,77.8,87.6,79.9,6.9
501.0,74.8,76.4,86.6,79.3,6.4
502.0,74.2,77.1,88.3,79.9,7.4
503.0,74.7,78.4,89.0,80.7,7.4
504.0,74.8,77.1,87.3,79.8,6.7
505.0,73.6,76.7,87.8,79.4,7.5
506.0,75.8,77.7,89.4,81.0,7.4
507.0,74.6,78.0,87.9,80.2,6.9
508.0,75.2,78.5,89.0,80.9,7.2
509.0,75.5,78.8,88.4,80.9,6.7
510.0,76.2,79.1,90.0,81.8,7.2
511.0,75.0,79.3,88.6,81.0,6.9
512.0,75.5,79.3,88.8,81.2,6.8
513.0,76.1,78.3,88.6,81.0,6.7
514.0,76.7,78.4,88.3,81.1,6.3
515.0,76.1,78.2,89.0,81.1,6.9
516.0,77.4,78.1,87.7,81.1,5.8
517.0,77.1,79.7,87.3,81.4,5.3
518.0,77.5,77.6,88.8,81.3,6.5
519.0,77.6,78.4,88.9,81.6,6.3
520.0,77.3,78.1,88.5,81.3,6.2
521.0,79.1,79.6,87.5,82.1,4.7
522.0,78.3,80.0,87.9,82.1,5.1
523.0,78.8,81.1,88.4,82.8,5.0
524.0,78.4,80.2,88.1,82.2,5.2
525.0,79.5,80.4,86.6,82.1,3.9
526.0,79.4,79.8,87.2,82.1,4.4
527.0,80.2,81.2,87.4,82.9,3.9
528.0,79.7,80.4,86.7,82.3,3.8
529.0,77.7,80.9,86.2,81.6,4.3
530.0,80.7,81.9,87.0,83.2,3.4
531.0,79.1,81.0,89.0,83.1,5.2
532.0,79.8,81.3,88.3,83.1,4.5
533.0,81.6,81.8,90.0,84.5,4.8
534.0,80.0,81.2,88.6,83.3,4.7
535.0,81.1,82.0,88.8,84.0,4.2
536.0,81.8,82.4,89.6,84.6,4.3
537.0,80.4,82.1,89.8,84.1,5.0
538.0,80.9,82.9,88.6,84.1,4.0
539.0,80.7,82.0,88.5,83.7,4.2
540.0,82.8,82.8,89.8,85.2,4.1
541.0,81.0,83.2,88.1,84.1,3.7
542.0,83.1,83.8,88.5,85.1,2.9
543.0,80.8,83.5,88.6,84.3,4.0
544.0,80.8,83.2,89.2,84.4,4.3
545.0,81.8,82.9,87.9,84.2,3.2
546.0,80.3,84.5,88.9,84.6,4.3
547.0,80.5,84.0,88.3,84.3,3.9
548.0,80.4,84.1,88.6,84.4,4.1
549.0,80.7,84.0,88.6,84.4,4.0
550.0,81.8,82.8,87.8,84.1,3.2
551.0,81.7,83.7,88.5,84.6,3.5
552.0,82.0,83.1,88.0,84.4,3.2
553.0,81.5,83.7,87.8,84.3,3.2
554.0,82.4,84.4,88.1,85.0,2.9
555.0,83.4,84.2,87.8,85.2,2.3
556.0,82.2,83.5,87.9,84.5,3.0
557.0,83.1,84.3,88.9,85.4,3.1
558.0,82.1,83.1,88.7,84.6,3.5
559.0,82.8,83.0,88.5,84.8,3.3
560.0,82.0,82.4,88.3,84.2,3.6
561.0,83.8,83.3,88.9,85.4,3.1
562.0,82.4,84.3,88.3,85.0,3.0
563.0,83.2,84.0,87.8,85.0,2.4
564.0,83.1,84.5,88.5,85.4,2.8
565.0,82.2,84.6,88.2,85.0,3.0
566.0,84.1,85.1,88.2,85.8,2.1
567.0,83.1,85.7,89.5,86.1,3.2
568.0,85.6,83.8,87.9,85.8,2.1
569.0,83.4,84.9,88.2,85.5,2.4
570.0,84.7,85.4,89.2,86.4,2.4
571.0,83.2,85.0,88.5,85.6,2.7
572.0,82.6,84.6,89.4,85.5,3.5
573.0,82.6,84.3,89.8,85.6,3.7
574.0,83.8,85.3,90.0,86.4,3.3
575.0,83.9,84.6,89.9,86.1,3.3
576.0,82.6,84.1,90.8,85.8,4.3
577.0,82.3,85.4,90.3,86.0,4.0
578.0,81.7,85.9,90.0,85.9,4.2
579.0,84.4,84.0,90.5,86.3,3.7
580.0,83.9,84.3,90.8,86.3,3.9
581.0,83.4,84.1,90.9,86.1,4.1
582.0,82.9,83.6,90.5,85.7,4.2
583.0,83.6,86.3,91.2,87.1,3.8
584.0,83.3,86.1,91.7,87.0,4.3
585.0,83.2,85.1,91.7,86.7,4.5
586.0,84.6,84.7,91.1,86.8,3.8
587.0,84.5,84.6,93.6,87.5,5.2
588.0,84.6,85.6,92.4,87.5,4.3
589.0,85.4,86.4,92.4,88.1,3.8
590.0,85.1,86.5,92.8,88.1,4.1
591.0,85.0,86.1,92.3,87.8,3.9
592.0,84.4,86.9,94.3,88.5,5.2
593.0,85.1,86.3,93.4,88.3,4.5
594.0,85.4,85.4,93.9,88.2,4.9
595.0,85.1,87.5,93.8,88.8,4.5
596.0,85.0,85.1,94.2,88.1,5.3
597.0,85.5,85.7,94.5,88.6,5.1
598.0,85.2,85.1,93.6,87.9,4.9
599.0,85.6,87.4,93.9,89.0,4.3
600.0,84.7,86.5,93.8,88.3,4.9
601.0,86.0,88.5,93.5,89.3,3.8
602.0,87.1,87.8,94.1,89.6,3.8
603.0,85.8,89.1,94.1,89.7,4.2
604.0,85.9,88.7,96.2,90.3,5.3
605.0,86.0,88.0,94.7,89.6,4.5
606.0,87.8,88.0,94.3,90.0,3.7
607.0,85.4,88.5,94.4,89.4,4.6
608.0,86.0,87.3,95.7,89.7,5.3
609.0,88.5,87.5,95.2,90.4,4.2
610.0,89.0,89.6,96.0,91.5,3.9
611.0,88.2,87.9,95.6,90.5,4.4
612.0,89.0,89.2,96.5,91.6,4.3
613.0,89.3,89.9,96.3,91.8,3.8
614.0,90.0,90.8,96.1,92.3,3.3
615.0,90.8,90.2,96.4,92.5,3.4
616.0,91.2,89.9,96.8,92.6,3.6
617.0,89.7,90.1,96.8,92.2,4.0
618.0,89.6,91.1,98.1,93.0,4.5
619.0,91.3,88.7,97.8,92.6,4.7
620.0,89.7,89.2,97.4,92.1,4.6
621.0,89.9,90.8,97.3,92.7,4.0
622.0,89.1,89.0,97.6,91.9,4.9
623.0,89.3,90.0,98.4,92.6,5.1
624.0,89.9,89.4,98.3,92.6,5.0
625.0,89.2,90.4,96.9,92.2,4.2
626.0,90.3,89.5,96.6,92.2,3.9
627.0,90.8,89.2,98.6,92.9,5.0
628.0,90.3,90.6,98.9,93.3,4.9
629.0,91.1,90.2,99.8,93.7,5.3
630.0,91.6,89.3,99.7,93.5,5.5
631.0,90.6,90.2,98.4,93.1,4.7
632.0,90.9,90.4,98.3,93.2,4.4
633.0,90.5,91.8,99.1,93.8,4.6
634.0,91.0,91.4,101.2,94.5,5.7
635.0,92.9,90.3,100.4,94.5,5.2
636.0,92.2,91.0,99.6,94.3,4.7
637.0,91.8,91.3,100.6,94.5,5.2
638.0,93.5,90.3,101.1,95.0,5.5
639.0,92.8,92.0,100.4,95.1,4.6
640.0,92.6,92.9,101.1,95.5,4.8
641.0,94.5,92.1,101.3,96.0,4.8
642.0,93.7,92.4,100.2,95.5,4.2
643.0,95.4,92.8,99.7,96.0,3.5
644.0,96.5,94.2,101.3,97.4,3.6
645.0,94.2,92.6,99.5,95.4,3.6
646.0,96.5,92.6,100.4,96.5,3.9
647.0,97.3,93.9,101.5,97.6,3.8
648.0,94.8,95.4,100.8,97.0,3.3
649.0,95.3,94.7,101.9,97.3,4.0
650.0,97.2,94.3,100.2,97.2,3.0
651.0,95.3,95.1,100.0,96.8,2.8
652.0,97.1,94.0,100.1,97.1,3.1
653.0,96.7,93.5,100.0,96.7,3.3
654.0,98.3,93.7,100.9,97.6,3.6
655.0,96.7,93.9,101.2,97.3,3.7
656.0,96.8,95.1,100.4,97.4,2.7
657.0,98.0,94.9,100.4,97.8,2.7
658.0,98.2,96.7,100.4,98.4,1.9
659.0,96.8,94.4,99.7,97.0,2.7
660.0,98.7,95.1,100.8,98.2,2.9
661.0,97.3,94.6,99.2,97.0,2.3
662.0,98.0,95.5,99.7,97.7,2.1
663.0,97.6,95.1,100.3,97.7,2.6
664.0,98.7,95.5,100.0,98.1,2.3
665.0,97.4,98.2,100.2,98.6,1.4
666.0,99.1,97.5,99.6,98.7,1.1
667.0,98.9,97.6,100.0,98.8,1.2
668.0,98.1,97.5,100.3,98.7,1.4
669.0,99.5,98.0,99.2,98.9,0.8
670.0,99.0,97.0,100.3,98.8,1.7
671.0,100.4,99.6,100.2,100.0,0.4
672.0,100.4,97.8,101.1,99.7,1.7
673.0,100.1,97.7,100.8,99.5,1.6
674.0,100.1,97.2,100.4,99.2,1.8
675.0,100.6,97.4,100.1,99.4,1.7
676.0,99.6,98.4,102.0,100.0,1.8
677.0,99.7,98.3,103.2,100.4,2.5
678.0,101.9,96.8,101.1,99.9,2.7
679.0,100.5,97.3,100.4,99.4,1.8
680.0,99.8,97.1,101.0,99.3,2.0
681.0,103.5,97.1,101.7,100.7,3.3
682.0,103.1,98.3,100.4,100.6,2.4
683.0,103.6,97.8,102.5,101.3,3.1
684.0,102.6,99.6,103.0,101.8,1.9
685.0,102.7,99.7,104.0,102.2,2.2
686.0,102.6,98.9,104.1,101.9,2.7
687.0,103.3,99.6,103.9,102.3,2.3
688.0,102.4,100.0,101.1,101.2,1.2
689.0,102.9,100.0,103.8,102.2,2.0
690.0,102.1,99.8,102.8,101.6,1.6
691.0,102.3,101.5,104.3,102.7,1.4
692.0,102.4,101.5,104.9,102.9,1.8
693.0,102.0,100.5,104.9,102.4,2.3
694.0,102.7,99.1,104.6,102.2,2.8
695.0,101.9,101.6,103.8,102.4,1.2
696.0,102.6,100.5,103.0,102.0,1.4
697.0,102.6,100.5,102.7,101.9,1.2
698.0,103.3,101.2,103.4,102.6,1.2
699.0,104.0,101.7,105.0,103.6,1.7
700.0,103.3,98.7,104.1,102.0,2.9
701.0,102.5,101.6,104.3,102.8,1.4
702.0,104.4,101.1,103.2,102.9,1.7
703.0,105.4,100.9,103.3,103.2,2.2
704.0,103.4,102.0,104.9,103.4,1.4
705.0,103.3,99.7,103.4,102.1,2.1
706.0,105.1,102.2,105.3,104.2,1.7
707.0,105.5,102.8,104.7,104.3,1.4
708.0,106.8,103.7,104.9,105.1,1.6
709.0,104.7,103.8,103.6,104.0,0.6
710.0,105.5,105.0,103.7,104.7,0.9
711.0,106.1,104.0,103.9,104.7,1.2
712.0,105.3,106.7,105.9,106.0,0.7
713.0,106.0,105.8,105.9,105.9,0.1
714.0,107.6,104.2,106.4,106.0,1.7
715.0,107.6,104.2,107.4,106.4,1.9
716.0,106.2,104.8,106.8,105.9,1.0
717.0,108.1,105.5,108.6,107.4,1.6
718.0,106.5,107.0,107.0,106.8,0.3
719.0,107.8,106.2,107.4,107.1,0.9
720.0,108.3,105.2,109.4,107.6,2.1
721.0,108.3,105.0,107.5,106.9,1.8
722.0,109.4,106.4,107.3,107.7,1.6
723.0,110.6,109.8,107.1,109.2,1.8
724.0,110.0,107.6,107.7,108.4,1.4
725.0,110.2,106.3,108.3,108.3,2.0
726.0,110.7,107.4,109.6,109.2,1.7
727.0,109.1,108.1,109.3,108.8,0.6
728.0,112.3,109.5,107.5,109.7,2.4
729.0,111.5,108.9,107.1,109.2,2.2
730.0,110.2,108.7,109.8,109.5,0.8
731.0,113.0,109.2,109.7,110.6,2.1
732.0,111.3,109.2,109.2,109.9,1.2
733.0,111.2,107.3,107.8,108.8,2.1
734.0,110.0,109.5,107.1,108.9,1.5
735.0,111.3,108.3,107.4,109.0,2.0
736.0,111.3,108.4,109.1,109.6,1.5
737.0,112.4,108.7,109.2,110.1,2.0
738.0,113.3,107.5,109.1,110.0,3.0
739.0,114.1,109.5,109.0,110.9,2.8
740.0,114.4,107.6,110.8,110.9,3.4
741.0,115.1,109.2,109.0,111.1,3.4
742.0,113.6,111.0,109.8,111.5,1.9
743.0,115.2,110.2,112.5,112.6,2.5
744.0,115.4,111.4,110.1,112.3,2.8
745.0,113.8,110.8,110.3,111.6,1.9
746.0,117.5,110.5,111.3,113.1,3.8
747.0,116.2,109.7,110.7,112.2,3.5
748.0,118.2,113.6,109.9,113.9,4.2
749.0,116.8,112.1,110.9,113.3,3.1
750.0,117.2,112.1,110.9,113.4,3.3
751.0,116.8,111.9,111.0,113.2,3.1
752.0,115.7,113.1,110.5,113.1,2.6
753.0,117.4,114.7,112.0,114.7,2.7
754.0,116.1,114.7,112.1,114.3,2.0
755.0,118.3,114.4,109.0,113.9,4.7
756.0,118.1,113.5,110.6,114.1,3.8
757.0,117.1,114.9,111.4,114.5,2.9
758.0,119.2,114.4,109.8,114.5,4.7
759.0,116.7,115.6,110.9,114.4,3.1
760.0,116.2,113.6,110.7,113.5,2.8
761.0,117.0,113.9,112.6,114.5,2.3
762.0,117.2,115.9,110.9,114.7,3.3
763.0,117.1,117.6,113.0,115.9,2.5
764.0,117.5,115.3,110.8,114.5,3.4
765.0,116.0,117.2,111.2,114.8,3.2
766.0,115.5,116.8,109.8,114.0,3.7
767.0,117.6,114.5,111.2,114.4,3.2
768.0,117.4,116.8,111.7,115.3,3.1
769.0,118.2,116.1,113.5,115.9,2.4
770.0,117.6,116.5,113.3,115.8,2.3
771.0,118.3,116.6,114.0,116.3,2.2
772.0,118.8,116.7,114.9,116.8,2.0
773.0,118.0,117.1,115.0,116.7,1.5
774.0,118.9,116.8,112.5,116.1,3.3
775.0,120.2,118.5,114.1,117.6,3.2
776.0,117.3,118.0,115.0,116.8,1.6
777.0,120.0,119.8,113.9,117.9,3.4
778.0,121.1,118.6,114.2,118.0,3.5
779.0,120.1,119.1,114.5,117.9,3.0
780.0,120.3,119.0,113.7,117.7,3.5
781.0,119.3,120.8,114.8,118.3,3.1
782.0,119.1,117.9,113.8,116.9,2.8
783.0,119.0,119.3,112.7,117.0,3.7
784.0,122.5,117.3,114.9,118.3,3.9
785.0,121.9,117.8,113.3,117.7,4.3
786.0,120.6,118.3,112.6,117.2,4.1
787.0,122.9,118.2,116.8,119.3,3.2
788.0,121.6,115.3,115.5,117.4,3.6
789.0,122.3,116.9,116.6,118.6,3.2
790.0,121.5,118.4,116.4,118.8,2.6
791.0,121.1,117.8,117.4,118.8,2.0
792.0,118.5,116.5,113.6,116.2,2.5
793.0,122.0,117.3,116.1,118.4,3.1
794.0,120.1,117.2,117.6,118.3,1.6
795.0,120.7,118.2,115.9,118.2,2.4
796.0,122.4,119.0,114.0,118.5,4.2
797.0,121.3,117.5,118.8,119.2,1.9
798.0,120.3,119.5,117.1,119.0,1.6
799.0,119.3,119.1,117.6,118.7,0.9
800.0,122.1,118.7,119.8,120.2,1.7
801.0,122.0,120.0,117.1,119.7,2.5
802.0,122.0,119.4,119.5,120.3,1.5
803.0,121.8,120.0,118.7,120.2,1.5
804.0,122.2,120.2,120.1,120.8,1.2
805.0,121.3,122.2,120.6,121.4,0.8
806.0,122.0,123.3,123.1,122.8,0.7
807.0,120.9,123.0,122.0,122.0,1.1
808.0,121.7,123.1,124.9,123.3,1.6
809.0,122.1,123.4,123.9,123.1,0.9
810.0,121.4,123.4,124.9,123.2,1.8
811.0,122.8,124.1,125.1,124.0,1.1
812.0,121.8,125.6,124.8,124.1,2.0
813.0,121.1,125.3,127.6,124.7,3.3
814.0,120.5,124.4,128.5,124.4,4.0
815.0,120.7,126.2,126.2,124.4,3.2
816.0,124.3,125.6,128.1,126.0,1.9
817.0,123.0,125.1,126.4,124.8,1.7
818.0,122.1,124.2,127.6,124.6,2.8
819.0,123.4,126.4,129.2,126.3,2.9
820.0,120.7,124.0,127.1,123.9,3.2
821.0,122.0,128.6,126.8,125.8,3.4
822.0,119.2,124.2,126.4,123.3,3.7
823.0,120.4,127.9,125.5,124.6,3.8
824.0,120.9,125.6,123.3,123.3,2.3
825.0,118.7,126.5,125.0,123.4,4.1
826.0,122.3,126.5,123.8,124.2,2.1
827.0,118.6,126.9,123.4,123.0,4.2
828.0,120.2,128.8,125.7,124.9,4.4
829.0,120.8,127.3,124.5,124.2,3.3
830.0,120.6,126.8,124.4,123.9,3.1
831.0,119.1,127.6,124.0,123.6,4.3
832.0,118.4,128.9,128.1,125.1,5.9
833.0,119.1,130.1,125.7,125.0,5.5
834.0,119.2,126.8,127.3,124.4,4.5
835.0,117.8,130.5,126.7,125.0,6.5
836.0,117.0,130.2,125.0,124.1,6.7
837.0,116.6,129.7,126.9,124.4,6.9
838.0,118.4,128.1,126.7,124.4,5.3
839.0,117.7,129.4,125.6,124.2,6.0
840.0,116.7,130.5,125.7,124.3,7.0
841.0,117.7,129.9,125.8,124.5,6.2
842.0,117.7,131.1,126.3,125.0,6.8
843.0,115.9,129.8,128.3,124.7,7.6
844.0,115.1,131.0,124.6,123.6,8.0
845.0,116.3,129.9,125.1,123.7,6.9
846.0,116.6,129.2,127.9,124.5,6.9
847.0,116.0,130.1,126.7,124.3,7.3
848.0,115.3,131.9,126.8,124.6,8.5
849.0,115.8,132.4,125.4,124.6,8.3
850.0,114.3,132.2,126.7,124.4,9.1
851.0,115.5,134.0,127.0,125.5,9.3
852.0,115.3,133.9,128.2,125.8,9.5
853.0,116.7,132.0,125.7,124.8,7.7
854.0,114.3,131.9,127.4,124.6,9.2
855.0,115.2,133.1,127.7,125.3,9.2
856.0,114.2,134.0,125.4,124.5,9.9
857.0,114.4,132.0,126.4,124.3,9.0
858.0,114.6,134.0,125.7,124.8,9.7
859.0,113.9,134.1,126.3,124.8,10.2
860.0,113.3,133.2,125.9,124.1,10.1
861.0,111.8,134.9,125.1,123.9,11.6
862.0,113.0,134.3,125.3,124.2,10.7
863.0,112.2,133.3,125.0,123.5,10.6
864.0,113.0,136.0,124.3,124.4,11.5
865.0,111.1,132.0,124.7,122.6,10.6
866.0,112.2,132.1,125.4,123.2,10.1
867.0,110.4,133.4,126.9,123.6,11.8
868.0,112.1,134.0,125.2,123.7,11.0
869.0,111.3,131.2,125.2,122.6,10.2
870.0,110.0,133.1,126.3,123.1,11.9
871.0,110.1,132.9,126.0,123.0,11.7
872.0,109.7,133.2,124.2,122.3,11.8
873.0,111.4,130.8,126.7,122.9,10.2
874.0,109.9,131.4,124.2,121.8,10.9
875.0,110.8,132.5,129.3,124.2,11.7
876.0,111.4,129.8,124.7,122.0,9.5
877.0,108.9,131.8,126.4,122.4,12.0
878.0,109.6,131.7,128.0,123.1,11.8
879.0,109.6,129.4,126.9,122.0,10.8
880.0,109.6,129.3,128.5,122.4,11.2
881.0,113.0,129.4,129.2,123.9,9.4
882.0,109.5,130.0,125.3,121.6,10.8
883.0,108.6,129.2,129.1,122.3,11.9
884.0,109.2,129.3,126.2,121.6,10.8
885.0,107.5,132.1,126.9,122.2,12.9
886.0,108.2,132.5,126.8,122.5,12.7
887.0,108.9,134.4,128.2,123.8,13.3
888.0,107.3,135.1,126.9,123.1,14.3
889.0,107.6,133.5,125.2,122.1,13.2
890.0,107.5,134.6,126.0,122.7,13.9
891.0,107.5,133.0,126.0,122.2,13.2
892.0,107.2,131.9,123.8,121.0,12.6
893.0,108.6,130.1,124.0,120.9,11.1
894.0,107.5,129.1,122.5,119.7,11.1
895.0,105.6,130.0,121.8,119.1,12.4
896.0,106.8,128.7,124.2,119.9,11.5
897.0,105.8,128.4,122.8,119.0,11.8
898.0,103.8,126.6,124.5,118.3,12.6
899.0,104.5,125.2,121.3,117.0,11.0
900.0,103.1,127.4,122.2,117.6,12.8
901.0,104.1,126.7,122.2,117.7,12.0
902.0,102.3,127.5,123.7,117.8,13.6
903.0,101.9,127.2,124.1,117.7,13.8
904.0,100.0,125.8,124.9,116.9,14.7
905.0,100.9,125.3,123.4,116.5,13.6
906.0,100.9,123.1,122.5,115.5,12.7
907.0,99.7,122.6,124.7,115.7,13.8
908.0,98.9,124.8,123.0,115.6,14.4
909.0,97.7,121.0,122.6,113.8,14.0
910.0,97.7,122.4,125.0,115.0,15.1
911.0,96.2,122.2,124.2,114.2,15.6
912.0,97.7,122.8,123.8,114.8,14.8
913.0,97.7,121.5,123.3,114.2,14.3
914.0,95.5,120.6,123.7,113.3,15.5
915.0,93.4,120.8,121.4,111.9,16.0
916.0,93.9,119.7,121.2,111.6,15.3
917.0,92.4,123.0,120.9,112.1,17.1
918.0,93.2,122.1,123.7,113.0,17.2
919.0,93.3,118.8,122.7,111.6,16.0
920.0,94.0,119.7,122.4,112.0,15.7
921.0,93.2,118.5,121.6,111.1,15.6
922.0,93.3,119.1,121.8,111.4,15.7
923.0,91.8,118.8,122.2,110.9,16.6
924.0,91.6,117.0,121.0,109.9,15.9
925.0,94.0,117.8,121.1,111.0,14.8
926.0,92.5,118.0,121.4,110.6,15.8
927.0,92.1,117.4,121.5,110.3,15.9
928.0,90.3,117.7,122.9,110.3,17.5
929.0,90.1,118.2,121.5,109.9,17.3
930.0,91.8,116.8,120.3,109.6,15.5
931.0,88.8,118.6,121.3,109.6,18.1
932.0,90.8,116.0,120.7,109.2,16.1
933.0,89.0,116.8,119.3,108.4,16.8
934.0,89.2,113.9,119.4,107.5,16.1
935.0,89.0,113.4,119.3,107.2,16.1
936.0,87.6,112.2,118.9,106.2,16.5
937.0,88.7,109.7,119.0,105.8,15.5
938.0,88.6,109.6,118.9,105.7,15.5
939.0,87.4,108.1,118.8,104.8,16.0
940.0,87.1,106.9,118.3,104.1,15.8
941.0,86.4,104.6,117.4,102.8,15.6
942.0,86.8,104.6,116.7,102.7,15.1
943.0,86.0,103.3,118.6,102.6,16.3
944.0,85.6,102.7,116.5,101.6,15.4
945.0,83.7,103.6,115.4,100.9,16.1
946.0,82.8,102.5,116.6,100.6,17.0
947.0,83.4,98.9,116.6,99.7,16.6
948.0,80.5,100.1,115.3,98.6,17.4
949.0,79.2,99.1,114.7,97.7,17.8
950.0,78.3,99.1,116.0,97.8,18.9
951.0,77.8,97.7,116.5,97.3,19.4
952.0,76.9,97.1,115.5,96.5,19.3
953.0,76.0,96.6,116.1,96.3,20.0
954.0,77.0,97.1,114.7,96.3,18.8
955.0,76.3,96.4,114.6,95.8,19.1
956.0,76.2,96.4,115.1,95.9,19.4
957.0,77.4,95.3,115.7,96.1,19.2
958.0,75.0,96.0,116.0,95.7,20.5
959.0,76.0,94.6,115.9,95.5,20.0
960.0,74.6,94.9,114.8,94.7,20.1
961.0,75.5,94.6,115.1,95.1,19.8
962.0,74.2,92.0,114.6,93.6,20.3
963.0,74.0,92.5,114.0,93.5,20.0
964.0,72.5,92.0,114.5,93.0,21.0
965.0,72.0,90.8,114.3,92.3,21.2
966.0,71.4,90.6,114.7,92.2,21.7
967.0,70.7,90.4,119.3,93.5,24.5
968.0,69.6,88.5,115.9,91.3,23.3
969.0,69.2,87.8,116.9,91.3,24.0
970.0,68.5,87.1,114.8,90.1,23.3
971.0,68.3,87.2,114.9,90.1,23.5
972.0,67.2,86.4,116.3,90.0,24.7
973.0,67.2,86.6,115.0,89.6,24.0
974.0,67.5,85.6,115.9,89.7,24.4
975.0,67.3,85.5,115.1,89.3,24.1
976.0,66.8,85.0,115.4,89.1,24.5
977.0,65.8,86.3,115.5,89.2,25.0
978.0,65.8,84.5,115.4,88.6,25.1
979.0,64.5,84.2,115.8,88.2,25.9
980.0,64.2,83.7,116.8,88.2,26.6
981.0,62.5,84.1,116.8,87.8,27.3
982.0,62.5,83.0,115.8,87.1,26.9
983.0,61.8,81.8,116.2,86.6,27.5
984.0,61.3,81.5,113.7,85.5,26.4
985.0,61.2,81.6,114.9,85.9,27.1
986.0,61.2,80.1,113.3,84.9,26.4
987.0,61.3,80.2,112.5,84.6,25.9
988.0,60.6,79.4,113.3,84.4,26.7
989.0,60.4,79.1,111.5,83.7,25.9
990.0,61.2,79.2,111.2,83.9,25.3
991.0,61.6,80.7,110.5,84.3,24.7
992.0,60.6,79.0,109.9,83.2,24.9
993.0,60.2,78.3,111.4,83.3,26.0
994.0,59.1,79.0,111.6,83.3,26.5
995.0,59.3,77.9,111.0,82.7,26.2
996.0,59.1,78.3,109.9,82.4,25.7
997.0,57.4,77.8,110.8,82.0,27.0
998.0,56.8,78.2,110.3,81.7,26.9
999.0,55.3,77.2,109.9,80.8,27.5
1000.0,55.5,77.1,110.6,81.0,27.7
1001.0,53.8,76.5,110.0,80.1,28.3
1002.0,54.1,76.5,109.8,80.1,28.0
1003.0,52.9,76.0,110.4,79.8,29.0
1004.0,52.1,74.5,110.0,78.8,29.2
1005.0,51.5,75.5,108.0,78.3,28.3
1006.0,50.9,75.3,109.1,78.4,29.2
1007.0,51.5,75.1,108.2,78.3,28.5
1008.0,51.1,76.7,110.1,79.3,29.6
1009.0,51.3,77.5,109.2,79.3,29.0
1010.0,51.5,77.6,109.8,79.6,29.2
1011.0,53.2,78.5,109.4,80.4,28.1
1012.0,52.4,79.3,108.6,80.1,28.1
1013.0,53.4,80.2,109.3,81.0,27.9
1014.0,54.2,81.4,109.2,81.6,27.5
1015.0,54.6,81.3,108.1,81.3,26.7
1016.0,55.1,81.4,109.0,81.8,27.0
1017.0,55.9,82.0,108.5,82.1,26.3
1018.0,56.4,80.3,108.9,81.9,26.3
1019.0,55.2,81.0,108.2,81.5,26.5
1020.0,55.8,80.5,108.2,81.5,26.2
1021.0,56.3,80.1,108.7,81.7,26.2
1022.0,57.4,80.6,107.3,81.8,25.0
1023.0,56.9,80.3,109.3,82.2,26.3
1024.0,57.5,81.0,107.5,82.0,25.0
1025.0,57.5,80.5,107.9,82.0,25.3
1026.0,58.3,79.4,107.6,81.8,24.7
1027.0,57.6,79.8,108.6,82.0,25.6
1028.0,57.9,78.3,107.9,81.4,25.1
1029.0,58.5,78.1,107.1,81.3,24.4
1030.0,59.2,76.2,107.0,80.8,24.2
1031.0,58.1,75.9,107.3,80.4,24.9
1032.0,57.7,74.8,106.5,79.7,24.7
1033.0,57.3,74.4,104.8,78.8,24.0
1034.0,56.4,73.8,106.8,79.0,25.6
1035.0,56.8,72.9,106.8,78.8,25.5
1036.0,56.4,70.7,105.0,77.4,25.0
1037.0,57.3,72.5,104.4,78.1,24.0
1038.0,55.4,69.7,104.5,76.5,25.3
1039.0,56.4,69.5,104.1,76.7,24.6
1040.0,56.7,68.8,105.5,77.0,25.4
1041.0,55.3,67.7,104.6,75.9,25.6
1042.0,55.7,66.5,103.2,75.2,24.9
1043.0,55.9,66.1,102.6,74.8,24.5
1044.0,54.9,64.2,103.0,74.0,25.5
1045.0,56.1,62.9,102.1,73.7,24.8
1046.0,56.3,62.2,101.0,73.2,24.3
1047.0,56.7,60.6,101.0,72.8,24.6
1048.0,57.1,60.9,101.2,73.1,24.5
1049.0,57.8,60.5,99.7,72.7,23.5
1050.0,57.3,59.5,102.7,73.2,25.6
1051.0,57.4,58.4,98.9,71.6,23.6
1052.0,57.4,59.8,100.0,72.4,23.9
1053.0,57.0,58.8,100.1,72.0,24.4
1054.0,56.5,59.5,99.4,71.8,24.0
1055.0,56.7,58.7,99.9,71.7,24.4
1056.0,56.4,59.3,98.7,71.5,23.6
1057.0,57.3,58.6,98.7,71.6,23.5
1058.0,56.4,57.5,98.4,70.7,23.9
1059.0,57.3,57.6,98.2,71.0,23.5
1060.0,56.0,57.4,98.6,70.7,24.2
1061.0,56.7,54.8,98.4,70.0,24.6
1062.0,57.5,55.3,98.0,70.2,24.0
1063.0,57.3,53.5,97.3,69.4,24.3
1064.0,57.9,52.4,96.3,68.9,23.9
1065.0,57.5,51.5,96.4,68.5,24.4
1066.0,57.7,49.7,96.8,68.1,25.2
1067.0,57.8,50.0,96.4,68.1,24.8
1068.0,57.4,50.5,96.7,68.2,24.9
1069.0,57.4,49.9,97.2,68.2,25.5
1070.0,56.8,49.5,97.8,68.0,26.0
1071.0,57.2,49.1,97.9,68.1,26.2
1072.0,57.5,49.5,97.1,68.0,25.5
1073.0,57.3,48.5,97.7,67.8,26.2
1074.0,56.8,49.1,96.8,67.6,25.6
1075.0,56.9,48.6,97.2,67.6,26.0
1076.0,56.2,48.3,96.1,66.8,25.6
1077.0,56.8,47.5,95.3,66.5,25.4
1078.0,56.1,46.1,95.0,65.8,25.8
1079.0,56.4,45.9,95.4,65.9,26.0
1080.0,55.8,45.0,96.4,65.7,27.1
1081.0,56.0,44.4,94.7,65.0,26.3
1082.0,56.0,43.2,94.8,64.7,26.8
1083.0,55.8,42.9,93.4,64.1,26.3
1084.0,55.4,,93.5,74.5,27.0
1085.0,57.0,,94.2,75.6,26.3
1086.0,56.6,,93.7,75.1,26.2
1087.0,56.9,,93.6,75.2,26.0
1088.0,56.5,,93.5,75.0,26.1
1089.0,56.8,,94.2,75.5,26.4
1090.0,57.3,,94.6,75.9,26.4
1091.0,56.5,,94.1,75.3,26.6
1092.0,57.2,,93.5,75.3,25.7
1093.0,57.0,,95.4,76.2,27.2
1094.0,55.9,,93.9,74.9,26.9
1095.0,55.6,,94.0,74.8,27.2
1096.0,55.9,,94.5,75.2,27.3
1097.0,55.3,,93.7,74.5,27.2
1098.0,54.7,,94.1,74.4,27.9
1099.0,55.1,,92.1,73.6,26.2
1100.0,55.7,,92.9,74.3,26.4
1101.0,56.0,,91.3,73.6,25.0
1102.0,55.0,,90.5,72.8,25.1
1103.0,54.9,,90.9,72.9,25.4
1104.0,55.6,,90.2,72.9,24.5
1105.0,54.8,,89.9,72.3,24.8
1106.0,54.0,,88.7,71.4,24.5
1107.0,53.4,,90.4,71.9,26.1
1108.0,53.8,,89.3,71.5,25.1
1109.0,53.8,,90.1,71.9,25.6
1110.0,53.9,,88.7,71.3,24.6
1111.0,53.4,,90.8,72.1,26.4
1112.0,53.1,,89.6,71.4,25.8
1113.0,52.9,,89.1,71.0,25.6
1114.0,53.0,,90.6,71.8,26.6
1115.0,51.8,,90.1,71.0,27.1
1116.0,52.1,,90.4,71.2,27.1
1117.0,53.3,,88.8,71.0,25.2
1118.0,52.1,,89.6,70.9,26.5
1119.0,51.9,,91.4,71.6,27.9
1120.0,51.5,,90.3,70.9,27.4
1121.0,51.6,,91.3,71.4,28.1
1122.0,51.7,,88.8,70.3,26.2
1123.0,52.0,,88.9,70.5,26.1
1124.0,52.6,,87.0,69.8,24.4
1125.0,52.1,,89.6,70.8,26.5
1126.0,52.4,,87.8,70.1,25.0
1127.0,52.7,,87.8,70.3,24.8
1128.0,52.4,,87.6,70.0,24.8
1129.0,53.7,,87.2,70.4,23.7
1130.0,53.1,,87.7,70.4,24.5
1131.0,54.1,,88.5,71.3,24.3
1132.0,52.8,,89.8,71.3,26.2
1133.0,53.0,,87.7,70.4,24.5
1134.0,53.4,,87.9,70.6,24.4
1135.0,53.1,,87.9,70.5,24.6
1136.0,53.2,,88.2,70.7,24.8
1137.0,53.0,,88.7,70.9,25.2
1138.0,53.6,,87.5,70.5,23.9
1139.0,54.2,,87.4,70.8,23.4
1140.0,54.0,,87.5,70.7,23.7
1141.0,52.7,,86.9,69.8,24.2
1142.0,53.4,,89.0,71.2,25.1
1143.0,54.2,,86.6,70.4,22.9
1144.0,54.0,,87.3,70.7,23.5
1145.0,53.2,,87.3,70.2,24.1
1146.0,53.6,,88.8,71.2,24.9
1147.0,52.5,,86.1,69.3,23.8
1148.0,52.1,,87.1,69.6,24.7
1149.0,52.4,,86.8,69.6,24.3
1150.0,52.0,,85.5,68.7,23.7
1151.0,52.3,,86.2,69.3,23.9
1152.0,51.2,,86.3,68.7,24.8
1153.0,51.6,,87.3,69.4,25.2
1154.0,50.6,,87.0,68.8,25.7
1155.0,50.8,,87.1,68.9,25.7
1156.0,50.6,,86.2,68.4,25.2
1157.0,51.1,,86.8,69.0,25.2
1158.0,51.6,,86.7,69.2,24.9
1159.0,51.2,,87.3,69.2,25.5
1160.0,50.8,,86.0,68.4,24.9
1161.0,51.5,,84.8,68.1,23.6
1162.0,51.9,,86.5,69.2,24.5
1163.0,51.7,,85.7,68.7,24.0
1164.0,51.9,,86.0,68.9,24.1
1165.0,51.9,,85.1,68.5,23.5
1166.0,50.7,,85.8,68.3,24.8
1167.0,50.6,,86.6,68.6,25.4
1168.0,50.0,,86.5,68.3,25.8
1169.0,49.7,,88.0,68.8,27.1
1170.0,50.0,,87.8,68.9,26.8
1171.0,49.7,,86.7,68.2,26.1
1172.0,49.5,,85.4,67.5,25.4
1173.0,48.9,,88.1,68.5,27.7
1174.0,48.3,,86.4,67.3,26.9
1175.0,48.5,,86.9,67.7,27.2
1176.0,48.6,,86.6,67.6,26.9
1177.0,49.1,,85.8,67.4,25.9
1178.0,48.4,,86.4,67.4,26.8
1179.0,49.0,,85.5,67.2,25.8
1180.0,48.1,,86.7,67.4,27.3
1181.0,48.2,,86.8,67.5,27.2
1182.0,48.7,,87.4,68.0,27.3
1183.0,47.2,,85.0,66.1,26.7
1184.0,47.1,,87.7,67.4,28.7
1185.0,47.6,,85.2,66.4,26.6
1186.0,48.4,,85.8,67.1,26.5
1187.0,47.3,,84.5,65.9,26.3
1188.0,48.0,,84.8,66.4,26.1
1189.0,48.5,,85.5,67.0,26.1
1189.25,48.3,,84.8,66.5,25.8