File: 01_Data/Pine_Siding/Cone/Pine_Siding_HRRPUA_50.csv
Time after Ignition,Pine_Siding_R1,Pine_Siding_R2,Pine_Siding_R3,Mean,Std. Dev.
0.0,12.8,9.6,13.6,12.0,2.1
0.75,22.8,18.2,26.8,22.6,4.3
1.5,33.8,35.0,40.6,36.5,3.6
2.25,54.5,58.4,59.2,57.4,2.5
3.0,79.0,107.3,81.3,89.2,15.7
3.75,106.0,133.7,104.2,114.6,16.6
4.5,139.0,167.1,139.6,148.6,16.1
5.25,165.0,197.0,164.3,175.4,18.7
6.0,195.7,220.1,191.5,202.4,15.5
6.75,215.1,240.4,220.7,225.4,13.3
7.5,235.9,256.5,241.6,244.7,10.7
8.25,259.2,273.4,263.5,265.3,7.3
9.0,271.9,282.9,274.6,276.5,5.8
9.75,289.6,287.5,289.0,288.7,1.1
10.5,302.3,295.9,295.6,297.9,3.8
11.25,306.5,299.7,295.6,300.6,5.5
12.0,316.2,298.9,297.7,304.3,10.4
12.75,323.5,299.9,302.8,308.8,12.9
13.5,317.2,300.7,301.2,306.4,9.4
14.25,313.8,298.7,299.0,303.9,8.6
15.0,303.9,296.7,287.2,295.9,8.4
15.75,301.5,289.4,285.9,292.3,8.2
16.5,293.5,280.8,284.4,286.3,6.5
17.25,291.0,275.0,281.8,282.6,8.0
18.0,281.3,265.7,267.7,271.6,8.4
18.75,275.2,264.5,259.9,266.5,7.8
19.5,260.0,260.0,249.5,256.5,6.0
20.25,262.3,244.3,244.2,250.3,10.4
21.0,256.7,248.3,240.5,248.5,8.1
21.75,247.4,236.5,236.3,240.1,6.4
22.5,244.5,233.9,233.1,237.2,6.4
23.25,238.7,236.4,227.9,234.3,5.7
24.0,234.4,229.9,220.9,228.4,6.9
24.75,235.8,222.3,215.3,224.5,10.4
25.5,225.4,217.0,209.6,217.3,7.9
26.25,223.4,216.8,210.2,216.8,6.6
27.0,221.0,213.2,205.0,213.1,8.0
27.75,213.4,210.5,204.1,209.4,4.7
28.5,212.8,210.5,202.0,208.5,5.7
29.25,209.2,208.8,199.6,205.8,5.4
30.0,208.0,200.8,196.0,201.6,6.0
30.75,201.0,199.6,194.7,198.5,3.3
31.5,200.5,194.8,191.0,195.4,4.8
32.25,197.5,194.4,187.4,193.1,5.2
33.0,194.6,189.9,185.1,189.9,4.7
33.75,197.2,188.7,184.3,190.0,6.5
34.5,194.1,191.6,180.1,188.6,7.5
35.25,189.3,185.9,179.7,185.0,4.9
36.0,189.9,181.1,178.9,183.3,5.8
36.75,187.7,181.0,178.2,182.3,4.9
37.5,185.9,181.0,178.0,181.6,4.0
38.25,182.1,177.1,173.8,177.7,4.1
39.0,180.7,176.8,171.4,176.3,4.7
39.75,177.8,175.7,170.4,174.6,3.8
40.5,177.0,170.7,167.4,171.7,4.9
41.25,173.6,169.7,162.6,168.6,5.6
42.0,174.3,168.2,162.1,168.2,6.1
42.75,173.4,168.9,161.4,167.9,6.1
43.5,174.1,169.2,163.9,169.1,5.1
44.25,167.4,165.0,160.0,164.1,3.7
45.0,167.6,164.1,162.6,164.8,2.6
45.75,166.8,165.7,160.4,164.3,3.4
46.5,164.9,158.2,156.5,159.9,4.4
47.25,164.2,165.0,156.4,161.9,4.7
48.0,161.8,162.6,154.7,159.7,4.4
48.75,162.6,161.5,152.6,158.9,5.5
49.5,160.7,158.7,153.9,157.8,3.5
50.25,155.8,160.1,153.9,156.6,3.1
51.0,155.6,159.6,152.6,155.9,3.5
51.75,157.7,156.9,152.6,155.8,2.8
52.5,155.4,156.8,151.5,154.6,2.7
53.25,153.4,152.9,151.1,152.5,1.2
54.0,155.3,154.9,148.5,152.9,3.8
54.75,152.4,151.9,147.0,150.4,3.0
55.5,149.6,152.6,145.7,149.3,3.5
56.25,151.2,148.8,145.8,148.6,2.7
57.0,149.2,151.4,146.0,148.9,2.7
57.75,147.8,149.2,144.8,147.3,2.2
58.5,149.2,145.1,144.2,146.2,2.6
59.25,145.5,145.4,139.3,143.4,3.5
60.0,144.9,144.2,140.0,143.0,2.7
60.75,143.2,145.7,140.2,143.0,2.8
61.5,142.3,144.3,138.2,141.6,3.1
62.25,142.9,140.6,138.3,140.6,2.3
63.0,140.4,140.2,139.1,139.9,0.7
63.75,140.4,137.8,134.2,137.5,3.1
64.5,137.5,141.0,135.9,138.1,2.6
65.25,138.2,138.1,137.6,137.9,0.3
66.0,136.0,135.9,134.0,135.3,1.1
66.75,138.1,137.0,133.2,136.1,2.6
67.5,136.3,134.2,136.1,135.5,1.2
68.25,135.3,134.1,132.1,133.8,1.6
69.0,134.3,136.1,133.7,134.7,1.2
69.75,135.6,134.9,132.1,134.2,1.8
70.5,134.5,130.9,132.5,132.6,1.8
71.25,132.9,131.7,131.9,132.2,0.7
72.0,131.0,130.8,130.7,130.8,0.2
72.75,131.6,132.1,131.2,131.6,0.4
73.5,132.5,128.8,129.6,130.3,1.9
74.25,130.3,131.4,132.7,131.4,1.2
75.0,128.8,127.9,130.9,129.2,1.5
75.75,128.5,128.1,128.4,128.3,0.3
76.5,126.8,126.4,127.2,126.8,0.4
77.25,128.0,125.4,129.1,127.5,1.9
78.0,126.7,126.7,126.4,126.6,0.2
78.75,125.3,126.6,127.2,126.4,1.0
79.5,125.7,124.7,125.6,125.3,0.5
80.25,124.7,125.2,125.3,125.1,0.3
81.0,124.3,125.4,125.1,124.9,0.6
81.75,124.1,122.5,126.0,124.2,1.7
82.5,123.9,123.4,122.0,123.1,1.0
83.25,123.9,123.3,122.7,123.3,0.6
84.0,121.8,122.4,126.3,123.5,2.4
84.75,122.5,120.5,122.9,122.0,1.3
85.5,121.1,119.5,122.5,121.0,1.5
86.25,122.2,120.2,122.4,121.6,1.2
87.0,122.1,118.1,121.3,120.5,2.1
87.75,122.1,119.5,120.2,120.6,1.3
88.5,120.9,116.1,119.4,118.8,2.5
89.25,122.1,117.7,120.1,120.0,2.2
90.0,121.3,116.0,117.8,118.4,2.7
90.75,119.9,118.0,117.5,118.5,1.3
91.5,119.7,118.0,117.7,118.4,1.1
92.25,119.4,116.5,117.1,117.7,1.5
93.0,119.3,116.0,116.4,117.2,1.8
93.75,119.7,114.5,116.5,116.9,2.6
94.5,120.5,113.9,114.2,116.2,3.8
95.25,119.1,113.4,115.1,115.9,2.9
96.0,121.1,113.0,115.5,116.5,4.1
96.75,116.9,112.8,114.4,114.7,2.1
97.5,120.5,112.3,113.9,115.5,4.3
98.25,118.2,111.3,112.3,113.9,3.7
99.0,119.5,110.6,111.4,113.8,4.9
99.75,117.8,111.4,111.9,113.7,3.5
100.5,119.9,107.9,111.0,112.9,6.2
101.25,119.2,108.4,112.9,113.5,5.4
102.0,115.9,108.7,112.8,112.5,3.6
102.75,116.7,108.4,111.1,112.0,4.3
103.5,116.2,110.0,111.0,112.4,3.3
104.25,116.4,107.2,110.3,111.3,4.7
105.0,115.9,109.6,110.8,112.1,3.4
105.75,119.5,107.2,112.2,113.0,6.2
106.5,117.3,106.5,110.2,111.3,5.5
107.25,118.1,108.7,108.8,111.9,5.4
108.0,116.3,108.6,110.3,111.7,4.1
108.75,116.6,108.6,108.7,111.3,4.6
109.5,117.4,108.8,109.8,112.0,4.7
110.25,114.6,108.1,111.2,111.3,3.2
111.0,116.8,109.3,109.7,111.9,4.2
111.75,116.8,109.0,109.0,111.6,4.5
112.5,113.5,110.2,109.0,110.9,2.3
113.25,114.1,108.5,111.1,111.2,2.8
114.0,115.0,109.4,110.4,111.6,3.0
114.75,112.9,106.4,107.4,108.9,3.6
115.5,112.6,106.5,109.0,109.4,3.1
116.25,113.7,107.9,108.5,110.0,3.2
117.0,113.0,106.3,108.5,109.3,3.4
117.75,112.0,106.6,108.3,108.9,2.8
118.5,112.0,105.8,107.6,108.5,3.2
119.25,114.6,105.7,107.7,109.3,4.7
120.0,112.7,106.1,106.8,108.5,3.6
120.75,110.9,105.9,106.3,107.7,2.8
121.5,111.7,107.2,104.5,107.8,3.7
122.25,111.2,107.6,105.7,108.2,2.8
123.0,110.2,106.6,104.3,107.0,3.0
123.75,110.7,107.7,104.9,107.8,2.9
124.5,113.0,105.2,103.5,107.2,5.0
125.25,112.6,104.8,104.7,107.4,4.5
126.0,111.5,106.4,104.6,107.5,3.6
126.75,110.9,105.0,104.3,106.7,3.6
127.5,112.4,105.7,104.7,107.6,4.2
128.25,111.2,104.4,104.3,106.6,3.9
129.0,111.8,103.2,103.8,106.3,4.8
129.75,112.5,103.8,102.9,106.4,5.3
130.5,109.3,103.3,102.8,105.1,3.6
131.25,110.1,101.9,102.7,104.9,4.5
132.0,110.2,104.6,102.8,105.9,3.9
132.75,109.4,102.1,103.8,105.1,3.9
133.5,112.0,104.1,101.7,105.9,5.4
134.25,111.2,103.1,103.9,106.1,4.5
135.0,110.4,104.1,103.3,105.9,3.9
135.75,109.6,103.4,102.4,105.1,3.9
136.5,109.2,103.4,102.8,105.1,3.6
137.25,109.0,103.0,100.3,104.1,4.4
138.0,109.7,104.1,101.3,105.0,4.3
138.75,108.7,101.2,102.2,104.0,4.1
139.5,109.8,104.3,100.9,105.0,4.5
140.25,110.1,103.6,99.8,104.5,5.2
141.0,110.3,103.6,100.6,104.8,5.0
141.75,109.2,103.6,101.8,104.9,3.9
142.5,109.1,103.0,99.8,104.0,4.7
143.25,109.7,102.5,98.3,103.5,5.7
144.0,110.7,103.0,98.9,104.2,6.0
144.75,110.6,102.8,100.6,104.7,5.3
145.5,109.2,102.6,99.0,103.6,5.1
146.25,109.8,102.6,99.4,103.9,5.3
147.0,110.1,103.5,100.1,104.6,5.1
147.75,110.9,103.4,99.8,104.7,5.7
148.5,109.5,102.2,98.1,103.2,5.8
149.25,109.7,102.5,97.5,103.2,6.1
150.0,109.6,101.2,99.6,103.5,5.4
150.75,109.2,101.0,97.3,102.5,6.1
151.5,110.0,102.2,97.8,103.3,6.2
152.25,107.8,102.3,97.6,102.6,5.1
153.0,108.0,101.3,97.3,102.2,5.4
153.75,107.1,102.4,95.3,101.6,5.9
154.5,107.9,101.3,96.4,101.9,5.8
155.25,108.0,101.4,93.8,101.1,7.1
156.0,108.5,102.4,97.7,102.9,5.4
156.75,107.7,102.5,95.9,102.0,5.9
157.5,107.5,102.9,95.5,102.0,6.1
158.25,106.1,102.5,96.3,101.6,5.0
159.0,107.3,101.6,97.3,102.1,5.0
159.75,106.1,101.0,96.3,101.1,4.9
160.5,106.6,100.6,97.2,101.5,4.8
161.25,105.8,101.8,96.0,101.2,4.9
162.0,106.9,100.4,97.3,101.6,4.9
162.75,106.8,100.0,97.1,101.3,4.9
163.5,105.2,101.1,96.9,101.0,4.1
164.25,106.4,100.9,99.1,102.1,3.8
165.0,106.6,100.8,97.7,101.7,4.5
165.75,105.8,102.4,98.5,102.2,3.7
166.5,105.1,100.4,97.3,100.9,3.9
167.25,104.3,100.2,97.0,100.5,3.7
168.0,105.3,98.8,95.7,99.9,4.9
168.75,106.1,101.4,98.0,101.8,4.1
169.5,104.1,100.8,97.2,100.7,3.4
170.25,105.0,100.1,95.3,100.1,4.9
171.0,103.4,101.5,96.6,100.5,3.5
171.75,103.1,100.0,97.5,100.2,2.8
172.5,104.5,99.5,96.2,100.1,4.2
173.25,103.7,99.4,97.6,100.2,3.1
174.0,102.3,98.8,96.3,99.1,3.0
174.75,103.6,100.5,96.8,100.3,3.4
175.5,103.9,98.1,97.0,99.7,3.7
176.25,103.6,99.0,96.8,99.8,3.5
177.0,102.7,98.3,96.6,99.2,3.2
177.75,102.4,98.9,98.8,100.1,2.0
178.5,102.1,100.0,95.7,99.3,3.3
179.25,103.4,98.7,97.1,99.7,3.3
180.0,103.1,97.7,96.6,99.1,3.5
180.75,103.9,99.7,98.3,100.6,2.9
181.5,105.2,101.1,98.2,101.5,3.5
182.25,104.3,100.6,96.5,100.5,3.9
183.0,104.4,98.7,95.6,99.6,4.5
183.75,103.9,99.2,95.2,99.4,4.4
184.5,104.8,98.6,94.1,99.2,5.4
185.25,104.4,100.1,94.5,99.7,5.0
186.0,104.8,99.7,94.2,99.5,5.3
186.75,105.4,100.0,95.9,100.4,4.8
187.5,105.1,99.4,94.3,99.6,5.4
188.25,106.5,99.0,94.5,100.0,6.1
189.0,104.0,98.1,93.9,98.7,5.1
189.75,103.3,97.3,92.7,97.7,5.3
190.5,104.2,98.2,95.2,99.2,4.6
191.25,105.3,100.7,93.6,99.9,5.9
192.0,104.8,100.1,93.0,99.3,5.9
192.75,105.9,98.0,94.3,99.4,5.9
193.5,106.0,97.9,94.1,99.4,6.1
194.25,105.8,98.5,94.5,99.6,5.7
195.0,103.6,97.2,94.0,98.3,4.8
195.75,103.8,97.9,95.5,99.1,4.3
196.5,103.4,99.3,94.6,99.1,4.4
197.25,103.7,98.0,95.1,98.9,4.4
198.0,102.9,98.3,95.2,98.8,3.9
198.75,102.5,98.6,94.0,98.4,4.3
199.5,102.2,97.7,94.2,98.0,4.0
200.25,101.3,96.9,95.6,97.9,3.0
201.0,101.2,97.4,96.1,98.2,2.7
201.75,100.8,97.9,94.1,97.6,3.4
202.5,101.0,98.0,96.5,98.5,2.3
203.25,100.9,96.2,94.7,97.3,3.3
204.0,99.1,97.1,94.8,97.0,2.1
204.75,102.8,96.3,94.5,97.9,4.4
205.5,102.8,96.9,95.1,98.2,4.0
206.25,100.7,96.0,96.7,97.8,2.6
207.0,103.2,98.8,95.2,99.1,4.0
207.75,100.7,96.7,95.6,97.7,2.7
208.5,100.7,95.7,95.8,97.4,2.9
209.25,103.0,97.0,93.4,97.8,4.8
210.0,101.0,97.5,96.1,98.2,2.5
210.75,100.9,97.6,96.8,98.4,2.2
211.5,101.7,96.9,96.4,98.4,2.9
212.25,100.9,97.5,96.3,98.2,2.4
213.0,101.2,97.2,97.2,98.5,2.3
213.75,101.1,98.1,95.4,98.2,2.9
214.5,101.0,96.5,95.2,97.6,3.1
215.25,100.8,95.6,94.0,96.8,3.5
216.0,100.2,96.0,94.0,96.8,3.2
216.75,101.5,96.6,93.7,97.3,3.9
217.5,99.8,97.5,94.7,97.3,2.6
218.25,101.2,97.5,93.6,97.4,3.8
219.0,100.9,96.4,95.0,97.4,3.1
219.75,102.1,96.8,93.4,97.4,4.4
220.5,102.4,97.6,93.8,97.9,4.3
221.25,101.9,96.0,93.6,97.2,4.3
222.0,103.6,95.0,92.6,97.1,5.8
222.75,101.4,95.8,91.7,96.3,4.9
223.5,102.0,96.2,92.3,96.8,4.9
224.25,102.5,96.1,92.7,97.1,5.0
225.0,101.8,96.7,91.3,96.6,5.3
225.75,102.7,96.5,91.5,96.9,5.6
226.5,101.2,96.9,91.9,96.7,4.7
227.25,101.7,97.8,92.9,97.5,4.4
228.0,101.0,96.6,91.7,96.4,4.6
228.75,101.2,97.2,90.7,96.4,5.3
229.5,101.6,96.4,93.1,97.0,4.3
230.25,100.9,96.4,91.4,96.2,4.8
231.0,102.4,96.0,91.0,96.5,5.7
231.75,102.0,96.9,92.6,97.2,4.7
232.5,102.1,95.3,93.0,96.8,4.7
233.25,102.1,96.6,92.6,97.1,4.8
234.0,101.6,96.6,93.4,97.2,4.1
234.75,102.2,96.9,92.1,97.1,5.0
235.5,100.5,96.2,91.8,96.2,4.3
236.25,100.0,96.4,93.7,96.7,3.2
237.0,99.5,96.8,93.2,96.5,3.2
237.75,101.3,98.0,92.1,97.1,4.6
238.5,101.6,97.5,92.4,97.2,4.6
239.25,101.4,96.7,92.3,96.8,4.5
240.0,101.6,97.7,92.8,97.4,4.4
240.75,99.9,98.4,93.1,97.1,3.6
241.5,101.3,97.1,93.0,97.1,4.2
242.25,101.0,96.1,91.6,96.3,4.7
243.0,99.7,98.0,92.7,96.8,3.6
243.75,99.2,98.4,91.8,96.5,4.1
244.5,100.3,98.8,92.7,97.3,4.0
245.25,100.1,96.8,92.9,96.6,3.6
246.0,99.2,97.5,93.1,96.6,3.2
246.75,101.7,97.4,93.5,97.5,4.1
247.5,99.0,96.9,92.3,96.1,3.4
248.25,97.5,97.2,92.7,95.8,2.7
249.0,100.5,96.8,92.0,96.4,4.3
249.75,99.4,96.4,93.3,96.3,3.1
250.5,98.6,96.6,91.7,95.6,3.6
251.25,98.2,95.9,93.2,95.8,2.5
252.0,100.1,97.2,93.4,96.9,3.3
252.75,99.9,97.3,92.9,96.7,3.5
253.5,97.6,96.1,93.7,95.8,2.0
254.25,98.0,96.8,92.8,95.9,2.7
255.0,98.5,98.2,94.8,97.2,2.1
255.75,98.2,96.1,93.7,96.0,2.3
256.5,100.0,97.1,93.5,96.9,3.2
257.25,99.7,96.3,93.6,96.5,3.0
258.0,97.8,96.7,93.7,96.1,2.1
258.75,99.3,97.2,94.3,96.9,2.5
259.5,99.1,97.6,96.2,97.6,1.5
260.25,99.0,97.6,94.1,96.9,2.5
261.0,100.2,98.6,94.6,97.8,2.9
261.75,101.4,99.3,92.5,97.8,4.6
262.5,99.9,98.2,94.9,97.7,2.5
263.25,100.9,97.5,94.7,97.7,3.1
264.0,101.5,97.3,94.1,97.6,3.7
264.75,99.3,99.9,94.3,97.8,3.0
265.5,100.7,98.0,92.4,97.0,4.3
266.25,100.8,98.9,92.9,97.6,4.1
267.0,100.9,99.3,94.5,98.2,3.3
267.75,100.6,100.7,93.8,98.4,3.9
268.5,99.4,100.0,93.7,97.7,3.5
269.25,99.6,98.7,94.2,97.5,2.9
270.0,99.3,99.8,93.6,97.5,3.5
270.75,98.7,100.2,92.4,97.1,4.1
271.5,99.0,100.0,94.3,97.8,3.1
272.25,99.2,98.7,93.5,97.1,3.2
273.0,100.8,98.6,94.7,98.1,3.1
273.75,99.0,99.3,93.0,97.1,3.6
274.5,100.5,99.1,93.8,97.8,3.5
275.25,101.2,100.3,93.9,98.5,4.0
276.0,100.0,97.5,92.8,96.8,3.7
276.75,100.4,98.2,95.1,97.9,2.7
277.5,101.2,97.2,94.0,97.5,3.6
278.25,99.5,97.4,93.2,96.7,3.2
279.0,100.3,97.9,94.4,97.6,3.0
279.75,101.5,96.4,92.6,96.8,4.5
280.5,100.3,96.1,92.5,96.3,3.9
281.25,100.5,95.9,92.8,96.4,3.9
282.0,102.3,96.3,93.7,97.4,4.4
282.75,100.2,97.4,95.1,97.6,2.6
283.5,99.1,97.9,93.5,96.8,2.9
284.25,99.7,98.3,93.5,97.2,3.3
285.0,99.6,97.5,93.6,96.9,3.0
285.75,100.5,97.7,92.7,97.0,3.9
286.5,98.7,96.6,94.0,96.4,2.4
287.25,100.1,96.8,92.7,96.5,3.7
288.0,100.9,97.5,92.8,97.0,4.1
288.75,100.3,98.6,94.6,97.8,2.9
289.5,101.8,98.1,92.6,97.5,4.6
290.25,103.4,97.9,93.1,98.1,5.1
291.0,102.7,97.2,93.9,97.9,4.5
291.75,101.6,98.4,93.2,97.7,4.2
292.5,103.1,96.9,93.3,97.8,4.9
293.25,102.7,96.2,93.9,97.6,4.6
294.0,103.4,98.4,93.3,98.4,5.1
294.75,102.1,97.0,94.2,97.8,4.0
295.5,103.3,97.3,92.5,97.7,5.4
296.25,102.4,96.8,92.9,97.4,4.8
297.0,102.7,97.6,92.9,97.7,4.9
297.75,103.8,94.6,94.4,97.6,5.4
298.5,101.6,94.9,92.7,96.4,4.6
299.25,102.4,95.0,93.2,96.9,4.9
300.0,101.1,95.8,94.0,97.0,3.7
300.75,101.2,97.2,92.5,97.0,4.4
301.5,102.6,95.6,92.4,96.9,5.2
302.25,102.1,96.1,93.4,97.2,4.5
303.0,104.0,96.1,92.9,97.7,5.7
303.75,102.5,95.9,93.3,97.2,4.8
304.5,103.4,95.9,93.0,97.4,5.4
305.25,102.9,98.0,93.3,98.1,4.8
306.0,103.3,97.3,94.6,98.4,4.5
306.75,104.7,99.0,95.4,99.7,4.7
307.5,102.6,98.7,94.7,98.7,3.9
308.25,102.6,99.6,96.0,99.4,3.3
309.0,102.5,98.4,94.3,98.4,4.1
309.75,104.4,98.6,94.6,99.2,4.9
310.5,103.7,98.3,94.1,98.7,4.8
311.25,101.5,97.8,93.7,97.7,3.9
312.0,102.6,96.8,95.2,98.2,3.9
312.75,102.2,97.3,94.4,98.0,3.9
313.5,103.5,96.5,93.8,97.9,5.0
314.25,102.1,96.2,95.0,97.8,3.8
315.0,102.1,97.8,93.7,97.8,4.2
315.75,101.4,97.5,95.5,98.1,3.0
316.5,102.7,95.8,92.4,97.0,5.2
317.25,101.6,96.7,95.3,97.9,3.3
318.0,103.4,98.3,94.1,98.6,4.6
318.75,103.9,96.7,96.1,98.9,4.3
319.5,102.3,96.4,95.1,97.9,3.8
320.25,103.6,95.8,94.7,98.0,4.9
321.0,102.1,96.9,93.6,97.5,4.3
321.75,101.8,96.8,95.5,98.0,3.4
322.5,102.7,97.2,94.3,98.1,4.3
323.25,101.8,99.3,96.4,99.1,2.7
324.0,101.7,96.7,94.6,97.7,3.6
324.75,100.8,97.3,94.8,97.7,3.0
325.5,101.1,97.4,96.5,98.3,2.4
326.25,101.4,98.0,94.8,98.1,3.3
327.0,102.6,98.7,94.6,98.6,4.0
327.75,103.2,98.5,95.2,99.0,4.0
328.5,102.0,98.3,95.4,98.6,3.3
329.25,102.3,98.7,96.3,99.1,3.0
330.0,103.1,99.0,95.5,99.2,3.8
330.75,102.6,98.6,94.3,98.5,4.2
331.5,103.4,97.6,95.2,98.7,4.2
332.25,101.0,98.4,95.3,98.3,2.9
333.0,101.7,99.0,94.2,98.3,3.8
333.75,102.1,100.8,96.3,99.7,3.1
334.5,101.9,99.5,94.8,98.7,3.6
335.25,105.3,99.2,95.1,99.8,5.1
336.0,102.3,99.7,94.7,98.9,3.8
336.75,101.0,98.7,94.8,98.2,3.1
337.5,102.4,99.0,93.6,98.4,4.4
338.25,101.1,98.6,94.5,98.1,3.3
339.0,101.9,98.4,93.5,97.9,4.2
339.75,102.3,99.9,94.6,98.9,3.9
340.5,103.2,99.6,92.5,98.4,5.5
341.25,103.1,98.6,93.3,98.3,4.9
342.0,103.7,98.8,93.6,98.7,5.0
342.75,104.1,97.8,94.9,98.9,4.7
343.5,102.0,96.6,95.0,97.9,3.7
344.25,103.3,97.2,93.4,97.9,5.0
345.0,104.8,98.7,95.4,99.6,4.8
345.75,104.2,98.3,93.3,98.6,5.4
346.5,103.2,97.8,93.6,98.2,4.8
347.25,102.8,97.9,94.7,98.4,4.1
348.0,102.8,98.7,94.2,98.6,4.3
348.75,104.0,99.6,94.5,99.3,4.7
349.5,102.6,98.7,93.7,98.4,4.5
350.25,102.9,99.5,95.9,99.4,3.5
351.0,102.8,97.4,95.8,98.7,3.7
351.75,103.7,98.1,94.6,98.8,4.6
352.5,103.4,99.3,94.2,99.0,4.6
353.25,101.1,98.7,94.3,98.0,3.4
354.0,102.2,99.4,94.7,98.8,3.8
354.75,102.0,98.6,95.3,98.6,3.4
355.5,101.9,100.0,93.0,98.3,4.7
356.25,102.7,100.4,94.2,99.1,4.4
357.0,101.4,98.9,94.4,98.2,3.5
357.75,103.7,100.4,94.3,99.5,4.7
358.5,102.9,101.1,95.1,99.7,4.1
359.25,102.7,99.4,92.0,98.1,5.4
360.0,103.7,98.8,94.2,98.9,4.8
360.75,102.5,100.0,93.0,98.5,4.9
361.5,101.8,98.8,94.4,98.3,3.7
362.25,101.9,99.1,94.7,98.6,3.6
363.0,102.6,100.0,93.7,98.8,4.6
363.75,101.6,98.5,92.6,97.6,4.6
364.5,101.3,98.9,94.7,98.3,3.4
365.25,101.8,99.4,94.0,98.4,4.0
366.0,101.8,99.0,95.0,98.6,3.4
366.75,101.4,100.1,94.6,98.7,3.6
367.5,102.5,101.7,95.2,99.8,4.0
368.25,102.9,99.4,95.6,99.3,3.6
369.0,103.7,99.0,93.7,98.8,5.0
369.75,102.1,100.1,95.2,99.1,3.6
370.5,101.7,99.7,95.8,99.1,3.0
371.25,103.0,100.6,95.8,99.8,3.7
372.0,103.5,101.1,95.6,100.1,4.0
372.75,104.4,100.7,94.5,99.9,5.0
373.5,104.9,101.0,96.5,100.8,4.2
374.25,103.0,98.8,97.4,99.7,2.9
375.0,102.8,100.5,97.6,100.3,2.6
375.75,105.1,99.3,95.6,100.0,4.8
376.5,104.4,101.2,97.3,101.0,3.6
377.25,103.0,99.6,96.1,99.6,3.4
378.0,102.4,100.7,96.7,99.9,2.9
378.75,102.9,100.1,96.8,100.0,3.0
379.5,104.1,101.5,97.9,101.2,3.1
380.25,102.9,102.0,99.4,101.5,1.8
381.0,103.3,101.4,96.6,100.4,3.5
381.75,101.9,99.7,96.9,99.5,2.5
382.5,103.0,100.4,96.9,100.1,3.1
383.25,102.4,100.3,97.4,100.0,2.5
384.0,104.0,100.2,97.4,100.5,3.3
384.75,104.1,100.4,96.4,100.3,3.8
385.5,103.5,100.0,98.0,100.5,2.8
386.25,104.1,100.1,98.5,100.9,2.9
387.0,103.7,101.5,99.1,101.4,2.3
387.75,103.9,98.6,99.4,100.6,2.8
388.5,103.1,100.4,100.2,101.3,1.6
389.25,104.1,100.0,98.4,100.8,3.0
390.0,104.7,100.3,99.9,101.6,2.6
390.75,103.9,102.0,99.0,101.6,2.4
391.5,103.2,100.6,100.3,101.4,1.6
392.25,105.5,101.2,99.4,102.0,3.1
393.0,103.9,100.9,99.0,101.3,2.5
393.75,104.3,100.3,100.7,101.8,2.2
394.5,104.0,102.5,101.1,102.5,1.5
395.25,102.8,103.1,100.1,102.0,1.7
396.0,104.7,100.5,100.5,101.9,2.4
396.75,105.5,102.5,101.4,103.1,2.1
397.5,104.1,102.2,100.2,102.2,1.9
398.25,103.4,100.5,101.7,101.8,1.5
399.0,104.7,102.1,100.7,102.5,2.0
399.75,102.9,103.1,99.9,102.0,1.8
400.5,103.9,102.2,100.3,102.2,1.8
401.25,105.0,102.7,101.4,103.0,1.8
402.0,105.5,102.5,102.1,103.4,1.9
402.75,103.7,103.2,101.5,102.8,1.2
403.5,103.7,103.4,103.4,103.5,0.2
404.25,103.7,104.1,102.9,103.6,0.7
405.0,106.8,103.9,102.8,104.5,2.1
405.75,104.9,104.1,102.9,104.0,1.0
406.5,106.7,104.4,101.7,104.3,2.5
407.25,105.0,104.0,103.6,104.2,0.7
408.0,106.7,106.1,101.7,104.8,2.7
408.75,104.9,104.2,101.9,103.7,1.6
409.5,104.3,103.8,103.2,103.7,0.5
410.25,105.2,105.2,102.5,104.3,1.5
411.0,104.8,104.5,101.5,103.6,1.8
411.75,104.8,104.4,103.3,104.2,0.8
412.5,105.2,104.5,104.3,104.7,0.5
413.25,107.1,103.8,102.6,104.5,2.3
414.0,105.4,104.1,102.4,104.0,1.5
414.75,105.7,104.5,104.3,104.9,0.8
415.5,106.5,105.3,102.8,104.9,1.9
416.25,105.0,104.9,105.7,105.2,0.5
417.0,106.5,104.4,106.1,105.7,1.1
417.75,107.2,106.5,103.9,105.9,1.8
418.5,106.5,105.0,106.6,106.1,0.9
419.25,106.3,106.3,107.0,106.6,0.4
420.0,105.7,105.3,105.9,105.6,0.3
420.75,105.8,107.6,107.0,106.8,0.9
421.5,105.7,106.3,106.0,106.0,0.3
422.25,106.0,107.2,105.8,106.4,0.8
423.0,106.3,107.8,106.5,106.9,0.8
423.75,105.1,107.1,105.9,106.0,1.0
424.5,104.2,107.5,107.1,106.3,1.8
425.25,106.4,107.8,106.0,106.7,0.9
426.0,105.3,107.1,104.7,105.7,1.2
426.75,105.2,108.0,106.4,106.5,1.4
427.5,106.8,108.1,105.7,106.9,1.2
428.25,107.2,109.1,106.5,107.6,1.4
429.0,105.7,107.4,105.9,106.3,0.9
429.75,105.0,107.8,105.9,106.3,1.4
430.5,105.3,108.7,105.9,106.6,1.8
431.25,106.4,107.1,106.7,106.7,0.4
432.0,105.8,109.6,107.0,107.5,2.0
432.75,106.5,108.1,107.7,107.4,0.8
433.5,106.0,108.2,108.5,107.6,1.4
434.25,107.0,109.1,108.8,108.3,1.1
435.0,106.1,110.1,106.9,107.7,2.1
435.75,107.4,110.7,107.6,108.6,1.9
436.5,105.6,110.1,108.1,107.9,2.2
437.25,106.2,109.2,110.3,108.6,2.1
438.0,106.4,111.4,107.6,108.4,2.6
438.75,107.4,111.6,109.2,109.4,2.1
439.5,106.7,111.5,109.8,109.3,2.4
440.25,105.3,112.5,108.9,108.9,3.6
441.0,108.0,111.3,111.5,110.3,2.0
441.75,107.1,112.2,109.2,109.5,2.6
442.5,106.2,112.0,109.5,109.2,2.9
443.25,107.2,112.6,108.3,109.4,2.9
444.0,106.9,112.8,111.1,110.3,3.1
444.75,109.2,113.3,108.7,110.4,2.5
445.5,111.3,111.1,109.3,110.6,1.1
446.25,107.3,113.2,109.9,110.1,2.9
447.0,110.6,113.3,111.0,111.7,1.5
447.75,110.6,112.0,110.0,110.9,1.0
448.5,108.9,110.7,111.0,110.2,1.2
449.25,108.6,113.0,110.5,110.7,2.2
450.0,109.0,111.3,111.5,110.6,1.4
450.75,109.2,113.3,110.9,111.2,2.1
451.5,110.2,112.8,110.8,111.3,1.4
452.25,110.1,112.6,110.1,110.9,1.5
453.0,110.4,113.4,111.4,111.7,1.5
453.75,110.2,113.4,112.1,111.9,1.6
454.5,108.5,112.4,112.3,111.1,2.2
455.25,109.8,115.3,109.7,111.6,3.2
456.0,109.9,115.3,110.6,111.9,2.9
456.75,109.9,114.5,111.0,111.8,2.4
457.5,110.7,112.7,112.7,112.0,1.1
458.25,108.5,115.5,111.3,111.7,3.5
459.0,111.0,114.8,111.7,112.5,2.0
459.75,110.7,114.0,111.1,111.9,1.8
460.5,108.7,115.8,112.0,112.2,3.6
461.25,109.4,114.9,111.2,111.9,2.8
462.0,107.7,115.9,111.9,111.8,4.1
462.75,110.2,114.7,113.2,112.7,2.3
463.5,109.5,115.2,112.9,112.6,2.9
464.25,109.0,115.4,111.4,111.9,3.2
465.0,110.1,116.3,113.4,113.3,3.1
465.75,110.8,114.9,113.6,113.1,2.1
466.5,111.6,114.2,114.0,113.3,1.5
467.25,112.3,115.2,114.7,114.1,1.6
468.0,111.4,117.2,114.6,114.4,2.9
468.75,112.0,115.8,114.6,114.1,1.9
469.5,112.7,114.2,115.9,114.2,1.6
470.25,110.7,116.1,114.5,113.8,2.8
471.0,110.0,116.4,116.2,114.2,3.7
471.75,111.4,117.1,116.6,115.0,3.2
472.5,111.1,115.6,117.9,114.9,3.4
473.25,112.1,116.1,117.0,115.1,2.6
474.0,110.8,115.6,116.1,114.1,2.9
474.75,111.3,115.7,118.7,115.2,3.8
475.5,112.3,116.7,117.7,115.5,2.9
476.25,110.7,115.9,118.9,115.2,4.1
477.0,113.8,118.6,116.0,116.1,2.4
477.75,111.8,118.5,115.4,115.2,3.4
478.5,111.1,116.7,116.2,114.7,3.1
479.25,112.4,119.4,117.5,116.4,3.6
480.0,111.5,120.0,117.7,116.4,4.4
480.75,110.9,118.6,118.1,115.9,4.3
481.5,111.0,119.9,116.5,115.8,4.5
482.25,112.1,121.2,118.9,117.4,4.8
483.0,111.4,120.5,116.6,116.2,4.6
483.75,111.5,119.0,115.7,115.4,3.8
484.5,113.1,122.4,116.8,117.4,4.7
485.25,113.3,118.6,116.0,116.0,2.7
486.0,112.5,120.9,116.9,116.8,4.2
486.75,115.0,119.5,117.6,117.4,2.3
487.5,114.4,119.7,117.5,117.2,2.7
488.25,114.4,121.8,117.4,117.9,3.7
489.0,114.3,118.7,118.3,117.1,2.4
489.75,114.3,120.5,117.1,117.3,3.1
490.5,112.3,119.2,117.0,116.2,3.5
491.25,112.4,121.4,117.6,117.1,4.5
492.0,114.6,122.0,117.2,117.9,3.8
492.75,114.4,121.7,117.5,117.9,3.7
493.5,113.2,122.9,118.8,118.3,4.8
494.25,113.8,123.1,117.9,118.3,4.7
495.0,114.4,120.7,118.8,118.0,3.3
495.75,114.5,121.9,118.6,118.3,3.7
496.5,114.2,121.1,116.9,117.4,3.5
497.25,115.2,122.2,120.0,119.1,3.6
498.0,115.5,121.3,120.1,119.0,3.0
498.75,116.2,123.3,119.9,119.8,3.6
499.5,114.2,122.9,119.5,118.9,4.4
500.25,116.5,124.6,119.6,120.2,4.1
501.0,116.0,124.7,120.0,120.3,4.3
501.75,115.8,125.2,117.9,119.6,4.9
502.5,115.7,126.4,120.1,120.7,5.4
503.25,115.9,126.5,120.2,120.8,5.4
504.0,117.0,125.6,122.5,121.7,4.3
504.75,118.7,129.2,118.9,122.3,6.0
505.5,117.0,127.5,122.2,122.2,5.2
506.25,117.3,127.0,123.8,122.7,4.9
507.0,118.3,126.8,121.6,122.2,4.3
507.75,116.5,127.2,125.4,123.1,5.7
508.5,118.7,126.6,120.9,122.1,4.1
509.25,116.6,127.1,121.4,121.7,5.3
510.0,119.3,127.8,124.0,123.7,4.3
510.75,116.2,127.2,122.9,122.1,5.5
511.5,119.9,128.1,124.3,124.1,4.1
512.25,120.9,129.0,125.0,125.0,4.0
513.0,119.3,127.5,124.0,123.6,4.1
513.75,120.3,131.7,123.8,125.3,5.8
514.5,120.6,130.8,123.8,125.0,5.2
515.25,121.5,129.7,124.9,125.4,4.2
516.0,120.0,132.1,124.4,125.5,6.1
516.75,119.8,132.3,126.5,126.2,6.3
517.5,118.1,131.4,126.0,125.2,6.7
518.25,119.9,132.7,125.7,126.1,6.4
519.0,119.9,130.8,127.4,126.0,5.6
519.75,119.4,135.0,127.1,127.2,7.8
520.5,120.5,132.9,126.3,126.6,6.2
521.25,122.0,135.0,127.5,128.2,6.5
522.0,120.2,133.8,127.7,127.2,6.8
522.75,118.2,134.8,128.2,127.1,8.4
523.5,121.3,134.7,127.3,127.7,6.7
524.25,119.2,132.3,128.5,126.7,6.7
525.0,121.2,134.5,128.7,128.1,6.7
525.75,121.5,134.1,128.2,127.9,6.3
526.5,118.8,134.8,128.0,127.2,8.0
527.25,122.1,134.4,128.1,128.2,6.2
528.0,120.7,133.4,127.5,127.2,6.4
528.75,121.2,134.8,130.1,128.7,6.9
529.5,122.0,134.8,127.9,128.2,6.4
530.25,119.9,135.5,128.8,128.1,7.9
531.0,120.9,135.1,127.7,127.9,7.1
531.75,121.7,135.6,128.6,128.6,7.0
532.5,121.4,135.5,126.2,127.7,7.2
533.25,122.6,135.1,128.5,128.7,6.3
534.0,121.1,134.8,129.7,128.5,7.0
534.75,121.6,135.8,129.2,128.9,7.1
535.5,122.2,136.0,130.5,129.6,7.0
536.25,121.9,134.9,131.8,129.6,6.8
537.0,120.6,135.8,132.3,129.6,8.0
537.75,121.5,135.9,128.2,128.5,7.2
538.5,120.9,136.1,132.7,129.9,8.0
539.25,120.5,135.2,130.2,128.6,7.5
540.0,125.4,135.6,131.6,130.9,5.1
540.75,123.9,135.6,129.6,129.7,5.8
541.5,123.8,136.4,131.0,130.4,6.3
542.25,121.8,137.3,131.0,130.0,7.8
543.0,123.8,136.0,129.2,129.7,6.1
543.75,123.4,136.7,129.8,129.9,6.7
544.5,123.4,138.4,128.4,130.1,7.6
545.25,125.0,138.9,127.4,130.4,7.4
546.0,124.2,141.1,129.1,131.5,8.7
546.75,124.0,138.3,128.2,130.2,7.3
547.5,125.8,135.0,129.4,130.0,4.6
548.25,122.7,137.4,129.8,130.0,7.3
549.0,124.7,138.4,127.4,130.2,7.3
549.75,124.4,140.4,129.4,131.4,8.2
550.5,125.9,137.6,129.0,130.9,6.0
551.25,125.8,139.7,129.8,131.8,7.1
552.0,125.7,137.1,126.9,129.9,6.2
552.75,125.9,139.4,128.6,131.3,7.1
553.5,124.4,138.1,125.7,129.4,7.6
554.25,128.3,140.6,129.0,132.7,6.9
555.0,125.7,140.0,129.6,131.8,7.4
555.75,124.4,139.9,128.5,130.9,8.0
556.5,124.8,140.9,128.8,131.5,8.3
557.25,127.1,142.8,129.7,133.2,8.4
558.0,127.5,139.1,127.9,131.5,6.6
558.75,128.5,141.6,130.7,133.6,7.0
559.5,125.3,143.1,128.6,132.4,9.5
560.25,127.4,141.6,130.0,133.0,7.6
561.0,127.7,141.0,131.7,133.5,6.8
561.75,128.2,139.1,128.0,131.8,6.4
562.5,127.6,143.0,131.0,133.9,8.1
563.25,129.5,142.2,129.6,133.8,7.3
564.0,129.2,140.3,130.7,133.4,6.0
564.75,129.7,141.1,130.4,133.7,6.4
565.5,129.2,141.7,128.7,133.2,7.4
566.25,128.9,143.8,131.7,134.8,7.9
567.0,131.6,140.8,129.0,133.8,6.2
567.75,129.3,141.9,128.7,133.3,7.4
568.5,128.8,140.2,130.6,133.2,6.1
569.25,128.3,142.6,128.4,133.1,8.2
570.0,129.3,141.9,130.4,133.9,7.0
570.75,128.1,142.2,129.6,133.3,7.7
571.5,129.1,142.0,130.6,133.9,7.1
572.25,128.9,142.7,129.4,133.7,7.9
573.0,127.7,140.8,129.6,132.7,7.1
573.75,127.6,140.7,133.1,133.8,6.6
574.5,127.7,140.8,132.9,133.8,6.6
575.25,128.3,141.3,131.0,133.5,6.9
576.0,127.0,140.7,132.0,133.2,6.9
576.75,128.5,142.6,131.5,134.2,7.4
577.5,127.2,141.4,131.2,133.3,7.3
578.25,126.5,140.4,130.9,132.6,7.1
579.0,128.9,142.0,131.0,134.0,7.0
579.75,128.8,141.9,130.9,133.8,7.0
580.5,131.9,141.1,130.9,134.6,5.7
581.25,130.2,141.6,131.3,134.4,6.3
582.0,130.6,141.3,131.7,134.5,5.9
582.75,133.4,140.5,131.8,135.2,4.7
583.5,130.8,143.4,133.1,135.7,6.7
584.25,132.1,140.1,131.6,134.6,4.8
585.0,132.7,144.4,130.6,135.9,7.5
585.75,131.4,140.8,131.2,134.5,5.5
586.5,133.4,141.5,131.6,135.5,5.3
587.25,133.6,140.3,134.1,136.0,3.8
588.0,132.9,140.8,130.0,134.6,5.6
588.75,131.0,141.4,132.3,134.9,5.7
589.5,132.7,142.5,132.9,136.0,5.6
590.25,132.4,142.2,133.0,135.9,5.5
591.0,132.7,142.3,132.1,135.7,5.7
591.75,133.6,139.0,132.9,135.2,3.3
592.5,134.3,142.5,133.7,136.8,4.9
593.25,131.9,142.9,133.3,136.0,6.0
594.0,133.4,140.1,132.7,135.4,4.1
594.75,131.7,141.4,133.9,135.7,5.0
595.5,130.6,141.9,133.8,135.4,5.9
596.25,132.5,139.5,131.6,134.5,4.3
597.0,131.0,141.3,133.8,135.4,5.3
597.75,133.2,140.8,134.1,136.1,4.1
598.5,130.6,140.1,134.1,134.9,4.8
599.25,131.8,139.5,133.4,134.9,4.0
600.0,133.4,139.1,133.1,135.2,3.4
600.75,130.1,139.6,132.8,134.2,4.9
601.5,132.2,138.8,133.0,134.7,3.6
602.25,131.5,137.4,131.6,133.5,3.4
603.0,133.9,138.5,134.0,135.5,2.6
603.75,132.9,137.0,135.5,135.1,2.1
604.5,132.8,137.7,132.3,134.3,3.0
605.25,134.3,139.2,134.2,135.9,2.9
606.0,130.7,139.2,134.2,134.7,4.3
606.75,134.4,138.4,132.0,134.9,3.3
607.5,132.7,139.3,134.6,135.5,3.4
608.25,132.5,141.3,134.6,136.1,4.6
609.0,134.1,138.9,132.7,135.2,3.3
609.75,133.5,139.8,133.6,135.6,3.6
610.5,133.8,137.2,131.8,134.3,2.7
611.25,133.1,140.1,133.4,135.5,4.0
612.0,133.0,139.7,134.5,135.8,3.5
612.75,132.3,136.9,134.5,134.6,2.3
613.5,134.5,138.9,135.8,136.4,2.2
614.25,133.5,138.3,133.9,135.2,2.7
615.0,133.3,136.5,135.2,135.0,1.6
615.75,134.6,140.2,134.6,136.5,3.2
616.5,132.4,137.5,132.4,134.1,3.0
617.25,134.2,140.5,132.4,135.7,4.3
618.0,132.9,138.7,133.2,134.9,3.2
618.75,132.1,135.6,134.2,134.0,1.7
619.5,131.1,138.9,133.5,134.5,4.0
620.25,131.8,136.6,134.1,134.2,2.4
621.0,133.8,137.3,131.4,134.2,3.0
621.75,132.9,137.9,136.3,135.7,2.6
622.5,133.1,136.9,133.7,134.6,2.1
623.25,133.0,137.7,132.4,134.3,2.9
624.0,133.2,137.4,132.8,134.5,2.6
624.75,136.1,136.0,132.5,134.9,2.0
625.5,134.7,137.1,133.1,135.0,2.0
626.25,135.7,136.5,132.2,134.8,2.3
627.0,134.4,138.6,134.6,135.9,2.3
627.75,134.2,136.7,133.6,134.8,1.7
628.5,134.9,138.0,131.7,134.9,3.2
629.25,134.5,135.8,132.3,134.2,1.7
630.0,132.8,134.5,132.1,133.1,1.2
630.75,134.5,134.0,131.3,133.3,1.8
631.5,135.1,133.7,131.1,133.3,2.0
632.25,133.5,134.9,134.4,134.3,0.7
633.0,134.2,133.4,131.0,132.8,1.7
633.75,132.7,131.9,132.4,132.4,0.4
634.5,134.5,133.2,131.0,132.9,1.8
635.25,134.4,131.1,131.6,132.4,1.8
636.0,132.3,130.5,131.7,131.5,0.9
636.75,135.8,132.0,131.4,133.1,2.4
637.5,135.2,130.6,129.5,131.8,3.0
638.25,135.6,133.7,133.8,134.4,1.1
639.0,136.2,130.2,131.4,132.6,3.2
639.75,134.5,131.6,131.0,132.4,1.9
640.5,134.7,131.4,131.0,132.3,2.1
641.25,135.5,131.6,130.1,132.4,2.8
642.0,134.0,130.1,130.7,131.6,2.1
642.75,134.7,131.1,129.8,131.9,2.5
643.5,136.1,129.7,128.9,131.6,4.0
644.25,136.4,130.2,131.6,132.7,3.3
645.0,133.7,131.0,130.4,131.7,1.8
645.75,134.6,128.5,131.4,131.5,3.1
646.5,136.9,128.2,130.8,132.0,4.5
647.25,136.4,129.9,130.3,132.2,3.7
648.0,136.4,129.0,130.9,132.1,3.9
648.75,135.6,128.9,130.6,131.7,3.5
649.5,135.4,128.3,132.5,132.1,3.6
650.25,133.3,127.5,132.1,131.0,3.0
651.0,134.1,126.9,131.7,130.9,3.7
651.75,134.3,126.2,134.7,131.8,4.8
652.5,132.4,128.3,133.2,131.3,2.6
653.25,133.7,125.4,134.9,131.3,5.2
654.0,134.1,126.5,135.9,132.2,5.0
654.75,135.1,127.0,134.8,132.3,4.6
655.5,133.9,126.9,132.9,131.2,3.8
656.25,133.1,128.1,133.5,131.6,3.0
657.0,132.8,126.1,135.1,131.3,4.6
657.75,133.1,127.8,134.1,131.7,3.4
658.5,132.7,125.6,133.9,130.7,4.5
659.25,131.5,124.6,131.8,129.3,4.1
660.0,131.4,124.9,133.2,129.8,4.3
660.75,133.4,124.7,132.9,130.3,4.9
661.5,131.9,125.1,132.3,129.8,4.0
662.25,128.2,127.0,131.4,128.9,2.3
663.0,130.1,124.4,132.6,129.1,4.2
663.75,129.2,124.9,131.0,128.3,3.1
664.5,131.2,124.1,127.2,127.5,3.6
665.25,129.9,126.4,131.5,129.2,2.6
666.0,129.9,125.1,130.5,128.5,3.0
666.75,128.3,122.3,127.4,126.0,3.2
667.5,128.8,123.0,129.4,127.0,3.5
668.25,127.3,124.2,130.4,127.3,3.1
669.0,127.8,122.6,129.4,126.6,3.6
669.75,126.1,122.4,126.9,125.1,2.4
670.5,124.8,121.8,125.9,124.2,2.1
671.25,126.7,120.3,126.3,124.4,3.6
672.0,125.4,120.1,126.3,124.0,3.3
672.75,124.8,120.6,124.7,123.4,2.4
673.5,125.6,120.6,123.6,123.2,2.5
674.25,124.5,121.1,122.8,122.8,1.7
675.0,124.9,120.1,123.1,122.7,2.4
675.75,125.1,118.7,121.4,121.7,3.2
676.5,124.5,117.4,122.7,121.5,3.7
677.25,123.8,118.2,121.9,121.3,2.8
678.0,123.0,117.7,120.5,120.4,2.7
678.75,123.5,118.6,121.7,121.3,2.5
679.5,123.9,117.8,121.0,120.9,3.0
680.25,122.0,117.2,119.7,119.6,2.4
681.0,123.4,115.7,121.8,120.3,4.0
681.75,121.1,116.0,119.0,118.7,2.6
682.5,125.3,115.3,115.3,118.6,5.8
683.25,122.9,114.2,116.6,117.9,4.5
684.0,122.2,114.1,116.3,117.5,4.2
684.75,121.6,113.5,115.2,116.8,4.3
685.5,120.3,113.0,114.5,115.9,3.9
686.25,121.7,112.2,115.9,116.6,4.8
687.0,123.8,112.4,117.9,118.0,5.7
687.75,122.9,113.0,117.9,117.9,4.9
688.5,121.9,110.7,116.6,116.4,5.6
689.25,121.4,109.4,117.3,116.0,6.1
690.0,123.5,110.4,117.8,117.2,6.6
690.75,122.5,109.0,118.8,116.8,7.0
691.5,122.5,109.6,117.4,116.5,6.5
692.25,123.1,109.3,117.7,116.7,7.0
693.0,121.7,108.2,114.8,114.9,6.8
693.75,123.1,107.0,114.9,115.0,8.1
694.5,121.8,106.0,116.1,114.6,8.0
695.25,120.3,105.4,115.7,113.8,7.6
696.0,122.3,105.3,114.5,114.0,8.5
696.75,123.1,106.0,113.9,114.3,8.5
697.5,122.4,106.6,115.7,114.9,7.9
698.25,121.7,106.3,115.0,114.3,7.8
699.0,120.6,103.2,114.3,112.7,8.8
699.75,119.3,103.1,115.0,112.5,8.4
700.5,120.3,102.5,113.7,112.1,9.0
701.25,117.7,101.9,113.2,110.9,8.1
702.0,119.6,102.4,112.8,111.6,8.6
702.75,119.1,100.7,111.2,110.3,9.2
703.5,116.8,101.0,111.2,109.6,8.0
704.25,116.9,100.9,109.9,109.3,8.0
705.0,117.5,100.1,108.8,108.8,8.7
705.75,115.7,97.7,110.6,108.0,9.2
706.5,117.0,96.1,107.9,107.0,10.5
707.25,117.6,96.0,108.3,107.3,10.8
708.0,115.8,95.4,107.0,106.1,10.2
708.75,115.7,93.3,107.4,105.5,11.3
709.5,114.6,92.5,104.8,104.0,11.1
710.25,115.2,91.1,104.0,103.4,12.1
711.0,113.6,90.9,103.7,102.7,11.4
711.75,114.6,90.6,102.0,102.4,12.0
712.5,115.0,90.6,103.3,103.0,12.2
713.25,113.0,90.8,102.4,102.1,11.1
714.0,115.2,90.4,101.9,102.5,12.4
714.75,112.3,91.3,101.7,101.7,10.5
715.5,112.5,90.4,100.6,101.2,11.1
716.25,112.4,90.6,101.6,101.6,10.9
717.0,113.9,91.5,100.1,101.8,11.3
717.75,112.3,90.6,99.1,100.7,10.9
718.5,114.8,90.7,98.4,101.3,12.3
719.25,113.2,91.2,99.2,101.2,11.2
720.0,113.1,88.7,98.2,100.0,12.3
720.75,113.1,87.6,97.3,99.3,12.9
721.5,113.2,87.6,96.0,98.9,13.0
722.25,114.4,85.6,97.9,99.3,14.4
723.0,114.5,84.8,95.2,98.1,15.1
723.75,115.4,84.2,96.6,98.7,15.7
724.5,112.8,83.7,94.6,97.1,14.7
725.25,114.0,83.5,95.0,97.5,15.4
726.0,112.1,82.9,93.6,96.2,14.8
726.75,113.5,81.7,92.6,95.9,16.2
727.5,110.8,81.8,90.1,94.3,14.9
728.25,113.3,81.7,89.5,94.8,16.4
729.0,110.6,79.9,88.0,92.8,15.9
729.75,110.9,80.6,89.1,93.5,15.6
730.5,110.9,79.4,86.6,92.3,16.5
731.25,109.2,79.1,85.5,91.3,15.9
732.0,109.4,77.8,84.1,90.4,16.7
732.75,108.3,76.4,85.2,90.0,16.5
733.5,107.5,76.5,85.0,89.7,16.0
734.25,107.1,75.3,83.7,88.7,16.5
735.0,109.3,77.4,82.7,89.8,17.1
735.75,106.6,74.9,82.1,87.9,16.6
736.5,107.5,74.3,82.1,88.0,17.4
737.25,106.2,74.3,81.3,87.3,16.8
738.0,105.5,73.1,80.8,86.5,16.9
738.75,105.6,71.8,79.5,85.7,17.7
739.5,105.1,71.9,79.4,85.5,17.4
740.25,103.3,69.9,78.2,83.8,17.4
741.0,104.1,69.6,78.1,83.9,18.0
741.75,103.5,67.6,77.8,83.0,18.5
742.5,102.9,67.4,76.1,82.1,18.5
743.25,102.0,67.2,76.2,81.8,18.1
744.0,101.8,65.9,75.1,80.9,18.7
744.75,102.5,65.5,75.3,81.1,19.2
745.5,100.0,64.3,74.4,79.5,18.4
746.25,98.7,65.1,73.4,79.1,17.5
747.0,99.3,63.4,72.4,78.4,18.7
747.75,97.9,62.1,72.3,77.4,18.5
748.5,98.1,61.7,71.8,77.2,18.8
749.25,97.7,62.1,70.6,76.8,18.6
750.0,96.2,60.6,71.3,76.0,18.3
750.75,96.1,60.0,69.4,75.2,18.7
751.5,96.8,60.1,68.3,75.1,19.3
752.25,94.8,60.1,67.0,74.0,18.4
753.0,93.0,59.0,66.3,72.8,17.9
753.75,91.7,59.2,65.2,72.1,17.3
754.5,92.6,57.4,66.0,72.0,18.4
755.25,92.2,57.8,64.8,71.6,18.2
756.0,91.2,57.0,63.9,70.7,18.1
756.75,88.5,57.1,63.3,69.6,16.7
757.5,88.4,57.2,62.3,69.3,16.7
758.25,89.0,56.8,61.7,69.2,17.4
759.0,89.6,56.6,62.0,69.4,17.7
759.75,89.7,56.3,60.7,68.9,18.2
760.5,89.2,56.0,61.1,68.8,17.8
761.25,88.1,55.9,60.9,68.3,17.3
762.0,88.6,55.9,59.4,68.0,17.9
762.75,86.6,56.1,60.0,67.6,16.6
763.5,87.4,55.3,59.9,67.5,17.3
764.25,85.5,55.1,58.4,66.3,16.7
765.0,84.4,54.7,58.9,66.0,16.1
765.75,83.9,54.4,57.0,65.1,16.4
766.5,83.3,53.6,56.9,64.6,16.3
767.25,82.5,53.6,56.0,64.1,16.0
768.0,82.2,55.0,55.4,64.2,15.6
768.75,82.7,54.4,55.2,64.1,16.1
769.5,80.6,54.5,54.4,63.1,15.1
770.25,82.5,54.5,54.4,63.8,16.2
771.0,80.4,54.6,53.2,62.7,15.4
771.75,80.1,53.9,53.4,62.5,15.3
772.5,79.8,54.1,52.4,62.1,15.4
773.25,78.9,53.7,52.8,61.8,14.8
774.0,77.4,53.9,51.3,60.8,14.4
774.75,78.4,54.1,51.1,61.2,15.0
775.5,77.7,54.2,50.4,60.8,14.8
776.25,77.6,53.8,50.3,60.6,14.9
777.0,77.3,53.7,50.0,60.3,14.8
777.75,77.3,53.3,49.4,60.0,15.1
778.5,76.3,53.6,49.4,59.8,14.5
779.25,76.5,52.7,49.3,59.5,14.8
780.0,75.3,53.2,49.1,59.2,14.1
780.75,75.5,53.3,48.7,59.2,14.3
781.5,75.2,53.2,47.7,58.7,14.6
782.25,73.9,53.1,47.8,58.3,13.8
783.0,74.5,53.1,47.9,58.5,14.1
783.75,74.1,52.8,47.4,58.1,14.2
784.5,74.9,52.8,47.3,58.3,14.6
785.25,74.6,52.8,47.7,58.4,14.3
786.0,73.8,53.1,47.2,58.0,14.0
786.75,73.6,52.7,46.0,57.4,14.4
787.5,72.7,,46.2,59.5,18.8
788.25,74.2,,46.3,60.2,19.7
789.0,73.3,,46.9,60.1,18.6
789.75,73.5,,46.2,59.9,19.3
790.5,73.9,,46.5,60.2,19.3
791.25,72.4,,45.9,59.2,18.7
792.0,73.0,,45.8,59.4,19.2
792.75,72.1,,45.5,58.8,18.8
793.5,70.8,,46.0,58.4,17.5
794.25,70.7,,46.2,58.5,17.3
795.0,71.3,,45.4,58.3,18.3
795.75,69.2,,45.2,57.2,17.0
796.5,70.1,,44.8,57.4,17.9
797.25,67.9,,45.8,56.8,15.7
798.0,69.2,,,69.2,
798.75,67.3,,,67.3,
799.5,67.8,,,67.8,
800.25,66.7,,,66.7,
801.0,66.5,,,66.5,
801.75,65.9,,,65.9,
802.5,66.5,,,66.5,
803.25,65.5,,,65.5,
804.0,65.3,,,65.3,
804.75,65.4,,,65.4,
805.5,65.1,,,65.1,
806.25,64.5,,,64.5,
807.0,64.7,,,64.7,
807.75,64.0,,,64.0,
808.5,63.8,,,63.8,
809.25,63.0,,,63.0,
810.0,63.2,,,63.2,
810.75,62.1,,,62.1,
811.5,61.9,,,61.9,
812.25,62.4,,,62.4,
813.0,60.6,,,60.6,
813.75,60.7,,,60.7,
814.5,59.7,,,59.7,
815.25,59.9,,,59.9,
816.0,58.8,,,58.8,
816.75,57.8,,,57.8,
817.5,57.2,,,57.2,
818.25,56.7,,,56.7,
819.0,56.1,,,56.1,
819.75,55.9,,,55.9,
820.5,55.7,,,55.7,
821.25,54.9,,,54.9,
822.0,53.5,,,53.5,
822.75,53.4,,,53.4,
823.5,53.7,,,53.7,
824.25,52.1,,,52.1,
825.0,52.1,,,52.1,
825.75,50.9,,,50.9,
826.5,51.7,,,51.7,
827.25,51.4,,,51.4,
828.0,51.7,,,51.7,
828.75,51.5,,,51.5,
829.5,50.9,,,50.9,
830.25,51.7,,,51.7,
831.0,52.3,,,52.3,
831.75,51.7,,,51.7,
832.5,51.9,,,51.9,
833.25,52.5,,,52.5,
834.0,52.3,,,52.3,
834.75,51.7,,,51.7,
835.5,52.1,,,52.1,
836.25,52.1,,,52.1,
837.0,51.9,,,51.9,
837.75,52.4,,,52.4,
838.5,52.4,,,52.4,
839.25,52.3,,,52.3,
840.0,52.1,,,52.1,
840.25,51.7,,,51.7,