File: 01_Data/Eucalyptus_Flooring/Cone/Eucalyptus_Flooring_HRRPUA_50.csv
Time after Ignition,Eucalyptus_Flooring_R1,Eucalyptus_Flooring_R2,Eucalyptus_Flooring_R3,Mean,Std. Dev.
0.0,14.1,7.9,4.7,8.9,4.8
1.75,50.4,28.7,17.7,32.3,16.7
3.5,113.9,85.6,54.5,84.7,29.7
5.25,182.1,142.7,121.2,148.7,30.9
7.0,248.5,193.5,188.9,210.3,33.2
8.75,304.0,233.4,258.9,265.4,35.7
10.5,361.0,299.2,325.0,328.4,31.0
12.25,387.9,383.8,380.3,384.0,3.8
14.0,403.0,422.8,427.7,417.8,13.1
15.75,424.3,444.7,462.2,443.7,19.0
17.5,419.5,443.8,477.9,447.1,29.4
19.25,402.9,442.5,468.9,438.1,33.2
21.0,401.4,421.7,456.4,426.5,27.8
22.75,385.4,402.9,434.0,407.4,24.7
24.5,372.0,372.7,394.3,379.7,12.7
26.25,353.5,344.5,374.0,357.3,15.1
28.0,340.5,324.7,352.5,339.2,14.0
29.75,331.4,299.9,338.8,323.4,20.7
31.5,312.0,290.6,321.9,308.2,16.0
33.25,292.5,267.0,307.9,289.1,20.7
35.0,279.9,251.8,295.5,275.7,22.2
36.75,263.8,234.3,283.5,260.5,24.7
38.5,247.8,218.3,270.4,245.5,26.2
40.25,231.4,210.8,260.7,234.3,25.1
42.0,224.1,201.7,249.2,225.0,23.8
43.75,216.7,194.4,241.6,217.6,23.6
45.5,205.2,188.0,233.2,208.8,22.8
47.25,201.4,182.6,219.8,201.2,18.6
49.0,196.4,177.0,218.4,197.3,20.7
50.75,196.4,170.7,211.7,193.0,20.7
52.5,190.9,167.8,206.2,188.3,19.3
54.25,190.6,165.3,195.9,183.9,16.4
56.0,186.5,166.2,189.0,180.6,12.5
57.75,181.0,164.8,188.1,178.0,11.9
59.5,176.6,162.0,182.7,173.8,10.6
61.25,176.5,163.5,177.8,172.6,7.9
63.0,174.2,160.0,177.0,170.4,9.1
64.75,174.2,159.9,171.8,168.6,7.6
66.5,173.4,154.9,167.0,165.1,9.4
68.25,170.9,152.3,167.8,163.7,10.0
70.0,171.0,153.4,162.4,162.3,8.8
71.75,172.4,150.9,165.1,162.8,10.9
73.5,169.9,152.0,161.4,161.1,9.0
75.25,167.6,148.3,160.7,158.9,9.8
77.0,168.7,147.9,155.8,157.5,10.5
78.75,168.3,146.4,154.4,156.4,11.1
80.5,164.4,146.1,152.8,154.4,9.2
82.25,167.1,142.8,153.6,154.5,12.2
84.0,164.6,142.2,151.4,152.7,11.3
85.75,161.4,141.4,147.4,150.1,10.2
87.5,160.4,139.8,147.7,149.3,10.4
89.25,156.6,136.8,146.5,146.6,9.9
91.0,159.8,135.5,147.0,147.4,12.1
92.75,158.0,133.5,144.2,145.2,12.3
94.5,159.6,132.6,146.1,146.1,13.5
96.25,158.6,130.4,146.7,145.2,14.2
98.0,158.4,127.4,144.9,143.6,15.5
99.75,161.0,127.1,142.6,143.6,17.0
101.5,155.3,127.9,142.0,141.7,13.7
103.25,156.7,125.1,143.1,141.6,15.8
105.0,156.5,123.6,139.9,140.0,16.5
106.75,155.4,122.5,140.6,139.5,16.5
108.5,153.8,120.5,136.0,136.8,16.7
110.25,155.2,119.1,138.4,137.6,18.1
112.0,158.2,117.4,135.3,137.0,20.4
113.75,153.5,117.6,133.1,134.7,18.0
115.5,153.6,117.6,137.8,136.3,18.1
117.25,151.1,118.6,139.0,136.2,16.4
119.0,153.8,117.3,137.3,136.2,18.3
120.75,150.7,116.3,136.6,134.5,17.3
122.5,149.3,115.8,133.9,133.0,16.8
124.25,148.3,115.8,133.6,132.6,16.3
126.0,148.5,115.7,132.0,132.0,16.4
127.75,143.0,114.9,128.9,128.9,14.0
129.5,143.9,113.7,129.0,128.8,15.1
131.25,142.7,113.1,127.0,127.6,14.8
133.0,140.7,115.0,129.2,128.3,12.9
134.75,141.7,112.9,128.5,127.7,14.4
136.5,141.2,113.0,128.9,127.7,14.1
138.25,139.0,112.5,127.2,126.2,13.3
140.0,138.7,113.3,126.7,126.2,12.8
141.75,137.6,113.0,126.5,125.7,12.3
143.5,136.5,114.4,124.7,125.2,11.1
145.25,134.7,112.3,125.2,124.1,11.2
147.0,132.8,113.3,123.1,123.1,9.7
148.75,131.4,111.7,122.2,121.8,9.9
150.5,130.5,112.0,121.1,121.2,9.3
152.25,128.5,110.7,121.0,120.1,8.9
154.0,128.2,112.3,121.6,120.7,8.0
155.75,127.6,111.5,119.8,119.6,8.1
157.5,124.6,113.9,118.0,118.8,5.4
159.25,123.9,109.8,118.5,117.4,7.1
161.0,124.1,111.6,118.1,118.0,6.3
162.75,123.7,112.5,119.9,118.7,5.7
164.5,123.5,111.7,117.9,117.7,5.9
166.25,124.7,110.3,117.6,117.5,7.2
168.0,122.8,110.1,116.4,116.4,6.4
169.75,120.5,111.6,117.8,116.6,4.6
171.5,118.8,110.6,116.8,115.4,4.3
173.25,118.0,112.7,116.2,115.6,2.7
175.0,119.9,110.6,118.2,116.3,4.9
176.75,116.5,110.3,116.1,114.3,3.5
178.5,116.3,109.2,117.4,114.3,4.4
180.25,114.4,109.6,119.1,114.4,4.8
182.0,114.0,110.2,116.9,113.7,3.4
183.75,112.5,110.0,116.7,113.1,3.4
185.5,111.0,110.7,116.6,112.8,3.3
187.25,112.5,109.4,117.7,113.2,4.2
189.0,110.9,108.3,117.5,112.2,4.7
190.75,111.7,108.1,116.9,112.2,4.4
192.5,107.8,107.8,119.6,111.7,6.8
194.25,110.3,108.1,117.6,112.0,4.9
196.0,106.8,107.6,117.4,110.6,5.9
197.75,106.4,105.7,117.5,109.9,6.7
199.5,105.4,106.7,115.4,109.2,5.5
201.25,107.7,105.5,115.9,109.7,5.5
203.0,104.1,105.7,116.1,108.6,6.5
204.75,105.2,106.8,115.6,109.2,5.6
206.5,105.7,104.7,115.7,108.7,6.1
208.25,104.2,104.4,115.1,107.9,6.2
210.0,102.0,104.2,113.8,106.7,6.3
211.75,103.4,104.7,114.2,107.4,5.9
213.5,103.9,106.4,114.9,108.4,5.8
215.25,103.6,105.9,114.2,107.9,5.6
217.0,103.0,105.8,112.9,107.3,5.1
218.75,101.7,104.0,113.2,106.3,6.1
220.5,102.9,104.9,112.4,106.7,5.0
222.25,103.8,106.2,112.0,107.3,4.2
224.0,106.1,104.5,113.0,107.9,4.5
225.75,103.6,103.5,111.9,106.3,4.8
227.5,103.1,104.2,112.9,106.7,5.4
229.25,104.1,104.9,112.5,107.2,4.6
231.0,103.9,106.0,112.7,107.6,4.6
232.75,103.9,105.4,113.5,107.6,5.2
234.5,102.5,105.7,111.2,106.5,4.4
236.25,100.7,106.0,109.7,105.5,4.6
238.0,103.4,104.6,110.9,106.3,4.0
239.75,102.6,101.9,110.4,104.9,4.7
241.5,103.3,104.7,110.5,106.1,3.8
243.25,102.5,103.6,110.5,105.5,4.3
245.0,102.8,102.0,109.1,104.7,3.9
246.75,101.9,104.1,109.8,105.3,4.1
248.5,102.8,103.7,111.0,105.8,4.5
250.25,104.2,104.1,110.1,106.1,3.5
252.0,100.4,102.7,108.8,104.0,4.3
253.75,102.8,103.3,110.1,105.4,4.0
255.5,102.8,103.3,107.7,104.6,2.7
257.25,103.9,102.2,108.0,104.7,3.0
259.0,102.0,103.1,110.7,105.3,4.7
260.75,100.7,102.5,108.8,104.0,4.3
262.5,101.2,104.1,107.5,104.3,3.2
264.25,100.6,103.1,107.7,103.8,3.6
266.0,100.0,104.3,108.1,104.1,4.1
267.75,100.1,101.8,107.9,103.3,4.1
269.5,100.7,104.6,107.6,104.3,3.5
271.25,99.7,103.1,108.2,103.7,4.3
273.0,101.3,101.0,105.9,102.7,2.8
274.75,100.2,102.0,105.5,102.5,2.7
276.5,100.9,99.7,105.3,102.0,2.9
278.25,101.9,100.8,106.3,103.0,2.9
280.0,99.9,100.8,104.8,101.9,2.6
281.75,100.2,100.3,104.6,101.7,2.5
283.5,101.6,98.5,104.8,101.6,3.2
285.25,103.2,101.8,106.3,103.8,2.3
287.0,103.1,98.7,104.1,102.0,2.9
288.75,103.7,101.0,105.8,103.5,2.4
290.5,104.8,100.4,104.4,103.2,2.4
292.25,102.8,101.7,103.8,102.7,1.0
294.0,103.6,100.7,103.5,102.6,1.6
295.75,103.8,100.5,104.3,102.9,2.1
297.5,103.3,100.6,106.0,103.3,2.7
299.25,102.9,100.8,106.7,103.5,3.0
301.0,102.1,100.7,103.9,102.2,1.6
302.75,102.1,100.9,104.3,102.4,1.8
304.5,100.9,100.0,103.6,101.5,1.9
306.25,101.8,100.2,105.3,102.4,2.6
308.0,100.4,100.0,105.4,101.9,3.0
309.75,102.2,99.3,105.3,102.3,3.0
311.5,101.8,98.0,104.6,101.5,3.3
313.25,100.9,99.0,105.6,101.8,3.4
315.0,101.8,98.7,105.0,101.8,3.1
316.75,101.1,98.2,101.9,100.4,1.9
318.5,101.0,96.5,107.3,101.6,5.4
320.25,101.1,98.1,105.4,101.6,3.7
322.0,99.2,97.2,105.5,100.6,4.3
323.75,100.0,98.1,106.0,101.3,4.1
325.5,100.7,99.0,106.2,102.0,3.7
327.25,101.0,97.4,105.3,101.2,4.0
329.0,100.7,97.9,105.1,101.2,3.6
330.75,100.6,96.9,105.2,100.9,4.1
332.5,100.6,97.1,104.3,100.7,3.6
334.25,101.0,96.7,105.6,101.1,4.5
336.0,102.7,97.7,104.0,101.5,3.3
337.75,101.5,95.1,105.2,100.6,5.1
339.5,103.1,92.8,106.2,100.7,7.0
341.25,101.6,95.7,105.0,100.8,4.7
343.0,102.3,96.2,105.5,101.3,4.8
344.75,103.9,95.6,105.4,101.6,5.3
346.5,101.9,94.2,105.1,100.4,5.6
348.25,101.5,95.8,103.1,100.1,3.8
350.0,104.4,95.3,104.9,101.5,5.4
351.75,103.0,95.5,105.9,101.5,5.3
353.5,101.2,95.4,104.9,100.5,4.8
355.25,101.2,95.6,103.2,100.0,3.9
357.0,102.5,94.6,104.7,100.6,5.3
358.75,104.4,95.4,104.1,101.3,5.1
360.5,102.2,94.6,104.0,100.3,5.0
362.25,103.5,92.3,104.7,100.2,6.9
364.0,104.3,92.5,103.1,100.0,6.5
365.75,102.6,92.3,101.8,98.9,5.7
367.5,103.8,93.7,101.7,99.7,5.3
369.25,103.1,94.0,102.2,99.8,5.0
371.0,103.2,90.9,103.0,99.0,7.0
372.75,103.6,90.7,102.6,99.0,7.1
374.5,102.8,90.5,102.4,98.5,7.0
376.25,103.8,90.5,102.4,98.9,7.3
378.0,102.0,92.0,103.0,99.0,6.1
379.75,103.2,92.4,101.8,99.1,5.9
381.5,103.9,93.1,101.9,99.6,5.7
383.25,103.4,93.2,100.7,99.1,5.3
385.0,101.1,93.2,100.1,98.2,4.3
386.75,101.5,92.7,99.6,97.9,4.6
388.5,102.4,92.3,98.1,97.6,5.1
390.25,101.1,92.8,100.6,98.1,4.7
392.0,101.9,90.8,98.6,97.1,5.7
393.75,103.4,93.2,99.1,98.6,5.1
395.5,103.1,92.7,98.8,98.2,5.2
397.25,105.2,92.1,100.7,99.3,6.7
399.0,103.8,92.7,98.1,98.2,5.5
400.75,103.4,92.4,98.6,98.1,5.5
402.5,102.8,92.3,100.3,98.5,5.5
404.25,102.6,93.5,98.3,98.1,4.5
406.0,104.1,92.4,98.5,98.3,5.8
407.75,104.5,93.7,98.6,98.9,5.4
409.5,100.5,93.8,99.9,98.1,3.7
411.25,100.3,95.1,99.1,98.2,2.7
413.0,102.4,93.8,97.1,97.7,4.3
414.75,100.9,92.1,97.7,96.9,4.4
416.5,101.5,92.8,96.6,97.0,4.3
418.25,99.0,93.5,98.7,97.1,3.1
420.0,101.1,93.5,97.8,97.5,3.8
421.75,100.8,94.6,97.5,97.6,3.1
423.5,98.9,93.6,98.7,97.1,3.0
425.25,98.5,93.2,98.9,96.9,3.2
427.0,97.3,94.3,98.9,96.8,2.4
428.75,99.4,93.7,97.8,97.0,2.9
430.5,98.6,93.5,99.7,97.2,3.3
432.25,98.1,93.2,98.0,96.4,2.8
434.0,96.8,96.4,96.5,96.6,0.2
435.75,97.8,94.6,97.5,96.6,1.7
437.5,98.9,96.8,97.3,97.6,1.1
439.25,96.7,96.4,97.5,96.8,0.5
441.0,96.4,96.1,97.4,96.6,0.7
442.75,97.5,96.5,96.2,96.7,0.7
444.5,96.6,95.0,96.7,96.1,1.0
446.25,94.9,96.7,95.1,95.6,1.0
448.0,96.7,96.9,96.2,96.6,0.3
449.75,96.9,98.7,97.6,97.7,0.9
451.5,96.0,97.9,97.5,97.1,1.0
453.25,95.8,97.8,98.1,97.2,1.3
455.0,95.4,98.1,98.2,97.2,1.6
456.75,93.2,99.7,98.7,97.2,3.5
458.5,93.7,99.0,98.4,97.1,2.9
460.25,95.1,100.7,98.1,98.0,2.8
462.0,93.5,100.9,98.6,97.7,3.8
463.75,92.5,99.6,99.4,97.2,4.0
465.5,93.1,100.0,100.0,97.7,4.0
467.25,93.5,101.7,98.4,97.8,4.1
469.0,93.1,101.7,98.0,97.6,4.3
470.75,92.1,101.6,99.7,97.8,5.0
472.5,92.0,101.7,99.1,97.6,5.0
474.25,90.6,101.4,99.6,97.2,5.8
476.0,93.1,101.8,100.3,98.4,4.6
477.75,92.3,101.4,98.7,97.5,4.7
479.5,93.2,100.7,98.8,97.6,3.9
481.25,92.6,100.6,99.6,97.6,4.4
483.0,91.1,98.9,97.9,95.9,4.3
484.75,93.1,101.5,99.0,97.9,4.3
486.5,92.4,100.1,97.8,96.8,4.0
488.25,93.2,100.4,98.0,97.2,3.7
490.0,94.7,99.2,97.8,97.2,2.3
491.75,93.6,102.0,98.1,97.9,4.2
493.5,93.1,101.3,99.5,98.0,4.3
495.25,93.2,101.1,100.2,98.1,4.3
497.0,92.5,101.5,99.1,97.7,4.6
498.75,92.6,101.1,99.8,97.8,4.6
500.5,93.3,100.5,98.8,97.5,3.7
502.25,92.7,100.9,100.7,98.1,4.7
504.0,92.5,101.5,99.9,97.9,4.8
505.75,92.2,102.6,102.0,98.9,5.9
507.5,94.1,101.2,99.9,98.4,3.8
509.25,93.0,102.7,99.7,98.4,5.0
511.0,92.8,102.6,99.7,98.3,5.0
512.75,91.6,102.7,100.2,98.1,5.8
514.5,93.4,102.2,101.3,99.0,4.8
516.25,93.9,101.4,100.7,98.7,4.1
518.0,93.4,104.3,100.6,99.4,5.5
519.75,92.3,102.0,100.2,98.2,5.2
521.5,92.1,102.4,101.7,98.7,5.8
523.25,92.6,103.1,102.2,99.3,5.8
525.0,93.2,103.2,101.0,99.1,5.3
526.75,94.1,102.2,101.8,99.4,4.5
528.5,93.8,102.9,100.3,99.0,4.7
530.25,92.4,103.4,100.8,98.8,5.8
532.0,94.1,104.3,102.9,100.4,5.5
533.75,93.9,102.5,100.6,99.0,4.5
535.5,93.0,103.0,100.6,98.8,5.2
537.25,94.1,102.1,100.4,98.9,4.2
539.0,93.5,103.4,101.2,99.4,5.2
540.75,94.2,102.6,102.7,99.8,4.9
542.5,92.8,101.2,102.5,98.8,5.2
544.25,94.5,102.3,104.6,100.4,5.3
546.0,92.0,101.6,104.7,99.4,6.6
547.75,93.7,101.5,101.6,99.0,4.5
549.5,91.5,103.5,104.0,99.7,7.1
551.25,93.4,101.8,102.9,99.4,5.2
553.0,94.3,104.9,103.7,101.0,5.8
554.75,93.9,103.6,102.6,100.1,5.3
556.5,95.1,103.9,103.4,100.8,5.0
558.25,94.5,103.7,103.7,100.6,5.3
560.0,94.7,105.0,107.1,102.3,6.7
561.75,95.1,106.3,105.2,102.2,6.2
563.5,94.9,104.6,104.6,101.4,5.6
565.25,95.0,105.1,105.0,101.7,5.8
567.0,93.8,105.7,104.4,101.3,6.5
568.75,96.1,105.5,105.6,102.4,5.4
570.5,95.5,106.4,104.4,102.1,5.8
572.25,95.7,106.6,105.5,102.6,6.0
574.0,95.9,107.8,104.5,102.7,6.1
575.75,97.0,108.1,104.9,103.3,5.7
577.5,96.9,107.9,105.5,103.4,5.8
579.25,96.7,109.3,105.3,103.8,6.4
581.0,96.9,110.5,105.7,104.4,6.9
582.75,95.0,109.8,104.8,103.2,7.5
584.5,96.9,108.9,104.4,103.4,6.1
586.25,96.3,109.3,105.8,103.8,6.7
588.0,96.8,111.7,103.7,104.1,7.5
589.75,95.7,109.9,103.7,103.1,7.1
591.5,96.9,110.8,104.8,104.1,7.0
593.25,97.4,113.0,105.1,105.2,7.8
595.0,97.9,112.1,105.6,105.2,7.1
596.75,98.2,113.1,107.0,106.1,7.5
598.5,97.6,113.2,107.0,105.9,7.8
600.25,96.9,111.8,105.7,104.8,7.5
602.0,99.0,112.1,107.7,106.3,6.7
603.75,98.9,112.3,108.3,106.5,6.9
605.5,99.0,114.4,108.2,107.2,7.8
607.25,96.2,113.9,108.4,106.2,9.0
609.0,99.0,114.9,107.6,107.2,8.0
610.75,98.8,114.9,108.9,107.6,8.2
612.5,99.3,115.9,108.0,107.7,8.3
614.25,99.9,117.1,108.5,108.5,8.6
616.0,98.9,115.6,109.4,107.9,8.5
617.75,100.3,118.2,108.9,109.1,8.9
619.5,99.7,117.8,108.6,108.7,9.0
621.25,99.7,117.2,108.6,108.5,8.8
623.0,100.4,118.7,109.4,109.5,9.2
624.75,99.7,120.3,110.3,110.1,10.3
626.5,100.8,120.1,110.6,110.5,9.7
628.25,101.0,120.9,109.3,110.4,10.0
630.0,99.5,121.9,109.8,110.4,11.2
631.75,99.9,122.5,112.6,111.7,11.3
633.5,100.6,121.5,112.4,111.5,10.4
635.25,100.5,119.9,111.0,110.5,9.7
637.0,101.7,120.2,113.0,111.6,9.4
638.75,99.7,123.0,110.7,111.1,11.7
640.5,101.4,123.3,112.6,112.4,11.0
642.25,103.3,124.3,111.6,113.1,10.6
644.0,104.8,123.3,111.7,113.3,9.4
645.75,105.2,124.1,113.9,114.4,9.4
647.5,105.5,126.1,113.1,114.9,10.4
649.25,106.2,125.0,114.6,115.3,9.4
651.0,106.9,125.5,115.9,116.1,9.3
652.75,105.1,126.4,116.8,116.1,10.7
654.5,106.5,127.9,115.5,116.6,10.8
656.25,106.5,130.4,117.2,118.0,12.0
658.0,107.3,131.1,116.7,118.4,12.0
659.75,108.8,131.2,117.2,119.0,11.3
661.5,107.7,129.0,116.8,117.8,10.7
663.25,109.5,129.3,119.2,119.3,9.9
665.0,109.0,132.8,121.1,121.0,11.9
666.75,109.8,132.9,120.9,121.2,11.5
668.5,111.2,137.0,121.9,123.4,13.0
670.25,111.8,135.1,122.1,123.0,11.7
672.0,111.6,137.1,122.9,123.9,12.8
673.75,111.7,137.1,123.3,124.0,12.7
675.5,112.8,139.1,124.0,125.3,13.2
677.25,113.1,138.4,124.1,125.2,12.7
679.0,113.1,140.2,124.0,125.8,13.6
680.75,114.5,141.6,124.8,127.0,13.7
682.5,114.6,139.2,125.6,126.5,12.3
684.25,116.9,141.6,125.8,128.1,12.5
686.0,115.4,141.4,128.0,128.3,13.0
687.75,118.8,140.9,127.1,128.9,11.2
689.5,120.8,146.3,127.6,131.6,13.2
691.25,119.2,145.2,127.6,130.7,13.3
693.0,120.8,149.4,129.4,133.2,14.7
694.75,119.7,145.5,130.9,132.0,13.0
696.5,121.3,148.4,130.7,133.5,13.7
698.25,121.0,149.3,128.9,133.1,14.6
700.0,122.2,146.8,131.7,133.6,12.4
701.75,124.7,149.8,133.0,135.8,12.8
703.5,124.4,149.9,133.2,135.8,12.9
705.25,125.5,150.6,134.8,137.0,12.7
707.0,128.0,150.2,133.3,137.2,11.6
708.75,125.2,150.6,133.6,136.5,12.9
710.5,124.8,153.5,133.6,137.3,14.7
712.25,128.8,153.7,135.6,139.4,12.9
714.0,128.4,156.7,137.8,141.0,14.4
715.75,129.0,158.1,138.4,141.8,14.9
717.5,128.6,156.7,136.8,140.7,14.5
719.25,128.5,155.9,138.1,140.8,13.9
721.0,129.3,156.6,138.7,141.5,13.9
722.75,129.6,157.9,139.0,142.1,14.4
724.5,132.6,160.2,141.5,144.7,14.1
726.25,131.2,158.7,142.2,144.0,13.8
728.0,134.2,161.2,146.0,147.1,13.5
729.75,133.1,159.0,145.2,145.8,13.0
731.5,135.8,159.6,142.8,146.0,12.2
733.25,133.8,164.2,147.5,148.5,15.2
735.0,134.7,162.7,147.4,148.3,14.1
736.75,132.1,161.6,149.3,147.7,14.8
738.5,137.3,160.8,149.9,149.3,11.8
740.25,135.9,163.1,148.3,149.1,13.6
742.0,139.1,160.6,148.8,149.5,10.8
743.75,140.3,164.2,148.5,151.0,12.1
745.5,142.3,161.8,150.3,151.5,9.8
747.25,144.4,165.5,153.4,154.4,10.6
749.0,142.5,164.3,154.4,153.7,10.9
750.75,145.3,165.5,153.4,154.7,10.2
752.5,144.0,167.6,155.7,155.8,11.8
754.25,145.1,169.0,156.3,156.8,11.9
756.0,147.6,166.4,155.6,156.6,9.5
757.75,145.9,165.6,160.0,157.2,10.2
759.5,149.5,168.9,157.3,158.6,9.7
761.25,150.4,168.1,159.5,159.3,8.9
763.0,149.7,170.9,159.8,160.1,10.6
764.75,152.1,172.1,162.3,162.2,10.0
766.5,150.6,171.3,160.7,160.9,10.3
768.25,152.7,174.9,165.5,164.4,11.1
770.0,154.5,175.9,166.8,165.7,10.7
771.75,157.2,173.8,166.4,165.8,8.3
773.5,159.3,177.0,166.2,167.5,8.9
775.25,159.4,177.2,168.0,168.2,8.9
777.0,162.0,175.6,169.6,169.1,6.8
778.75,162.7,176.6,168.7,169.3,7.0
780.5,162.4,178.1,171.8,170.7,7.9
782.25,162.1,177.3,175.3,171.6,8.3
784.0,165.4,176.5,169.1,170.3,5.7
785.75,165.5,179.2,172.1,172.3,6.8
787.5,169.3,178.9,174.2,174.1,4.8
789.25,169.1,179.0,175.8,174.6,5.1
791.0,169.9,182.9,179.6,177.5,6.8
792.75,174.7,181.8,180.1,178.9,3.7
794.5,174.0,182.3,178.0,178.1,4.2
796.25,174.8,186.6,177.5,179.6,6.2
798.0,178.0,186.9,183.8,182.9,4.5
799.75,175.1,183.3,181.9,180.1,4.4
801.5,184.6,188.3,184.9,185.9,2.1
803.25,180.0,184.7,189.6,184.8,4.8
805.0,185.1,188.0,186.2,186.4,1.5
806.75,186.4,184.9,187.2,186.1,1.2
808.5,185.0,188.6,187.2,186.9,1.8
810.25,186.6,188.9,190.1,188.6,1.8
812.0,189.1,188.8,197.2,191.7,4.7
813.75,189.4,190.5,194.7,191.5,2.8
815.5,193.5,186.5,194.3,191.5,4.3
817.25,191.5,187.7,195.5,191.6,3.9
819.0,193.7,188.3,200.2,194.1,6.0
820.75,199.5,187.0,197.3,194.6,6.6
822.5,200.0,188.4,195.8,194.7,5.9
824.25,203.5,188.0,196.5,196.0,7.8
826.0,203.6,187.2,197.8,196.2,8.3
827.75,206.2,186.2,198.5,197.0,10.1
829.5,205.0,191.1,199.1,198.4,7.0
831.25,209.4,187.4,201.7,199.5,11.1
833.0,213.0,189.6,203.5,202.0,11.8
834.75,211.3,187.0,201.0,199.8,12.2
836.5,211.8,186.3,206.0,201.4,13.4
838.25,220.6,186.8,206.8,204.7,17.0
840.0,215.7,186.3,203.2,201.7,14.7
841.75,221.6,184.9,206.4,204.3,18.5
843.5,226.1,187.0,207.7,206.9,19.5
845.25,220.7,187.7,211.4,206.6,17.0
847.0,224.7,189.7,211.0,208.4,17.6
848.75,224.9,186.3,212.1,207.8,19.6
850.5,228.6,186.5,213.2,209.5,21.3
852.25,231.5,186.3,213.0,210.3,22.7
854.0,230.4,186.6,216.4,211.1,22.4
855.75,234.3,187.7,216.5,212.8,23.5
857.5,236.6,183.9,220.2,213.5,27.0
859.25,239.4,183.9,221.3,214.9,28.3
861.0,237.4,184.1,222.3,214.6,27.5
862.75,241.8,188.3,220.2,216.8,26.9
864.5,243.9,185.5,218.4,215.9,29.2
866.25,243.3,185.3,220.6,216.4,29.2
868.0,246.5,186.3,224.7,219.2,30.5
869.75,244.8,186.4,227.0,219.4,30.0
871.5,256.3,184.8,220.9,220.7,35.8
873.25,257.7,185.0,225.6,222.8,36.4
875.0,252.0,185.2,222.8,220.0,33.5
876.75,253.0,185.0,225.9,221.3,34.3
878.5,255.6,185.2,224.2,221.7,35.3
880.25,259.6,186.0,229.5,225.0,37.0
882.0,262.6,182.9,233.9,226.4,40.4
883.75,259.2,182.5,231.2,224.3,38.9
885.5,264.6,185.1,232.4,227.4,40.0
887.25,267.9,185.1,229.6,227.6,41.5
889.0,269.0,187.3,229.9,228.7,40.9
890.75,269.6,185.4,235.4,230.1,42.4
892.5,265.6,186.9,236.4,229.6,39.8
894.25,263.1,187.8,233.4,228.1,37.9
896.0,264.3,187.8,237.6,229.9,38.8
897.75,270.6,187.9,235.7,231.4,41.5
899.5,266.3,190.7,238.9,232.0,38.3
901.25,267.9,184.8,239.6,230.8,42.2
903.0,271.6,184.9,239.6,232.0,43.9
904.75,268.0,190.7,238.9,232.6,39.1
906.5,271.1,187.4,243.9,234.1,42.7
908.25,273.3,185.1,241.8,233.4,44.7
910.0,270.5,180.2,241.5,230.7,46.1
911.75,270.3,179.6,247.7,232.5,47.2
913.5,266.5,178.8,241.5,228.9,45.1
915.25,267.1,173.1,253.5,231.3,50.8
917.0,262.6,175.5,249.3,229.1,46.9
918.75,264.7,172.8,249.0,228.9,49.2
920.5,263.2,169.0,254.5,228.9,52.1
922.25,264.5,166.7,252.0,227.8,53.3
924.0,262.5,159.8,257.1,226.5,57.8
925.75,266.8,153.0,262.6,227.5,64.6
927.5,266.7,146.2,264.6,225.8,69.0
929.25,265.3,141.0,260.0,222.1,70.3
931.0,263.6,135.2,256.4,218.4,72.2
932.75,264.5,128.6,260.9,218.0,77.5
934.5,259.5,121.3,262.0,214.3,80.5
936.25,266.0,115.2,255.0,212.1,84.0
938.0,263.8,111.2,258.8,211.3,86.7
939.75,261.8,105.2,258.5,208.5,89.5
941.5,258.4,99.9,258.4,205.6,91.5
943.25,256.9,99.1,257.8,204.6,91.3
945.0,259.1,95.2,259.3,204.6,94.7
946.75,254.7,91.5,254.6,200.2,94.2
948.5,247.4,87.2,253.7,196.1,94.3
950.25,248.0,84.5,257.7,196.7,97.3
952.0,253.3,83.2,257.9,198.1,99.6
953.75,250.2,83.3,255.1,196.2,97.8
955.5,246.7,80.3,255.5,194.2,98.7
957.25,244.1,80.6,250.9,191.9,96.4
959.0,243.7,78.3,257.4,193.1,99.7
960.75,242.1,75.5,257.0,191.6,100.8
962.5,241.9,75.1,259.7,192.2,101.9
964.25,240.1,73.9,258.2,190.7,101.6
966.0,237.8,71.7,255.6,188.4,101.4
967.75,235.4,71.8,252.2,186.5,99.7
969.5,230.2,69.5,257.8,185.8,101.7
971.25,231.1,69.6,255.4,185.4,101.0
973.0,227.0,67.7,250.0,181.5,99.3
974.75,223.8,68.2,249.1,180.4,98.0
976.5,223.9,68.0,252.4,181.4,99.3
978.25,221.2,67.3,246.5,178.3,97.0
980.0,221.8,67.5,242.3,177.2,95.5
981.75,219.6,67.6,241.9,176.4,94.9
983.5,217.4,66.3,240.2,174.7,94.5
985.25,218.1,64.8,236.3,173.1,94.2
987.0,212.5,63.7,233.3,169.8,92.5
988.75,214.5,63.4,226.9,168.3,91.0
990.5,208.6,62.9,222.0,164.5,88.2
992.25,210.4,62.6,219.7,164.2,88.1
994.0,202.0,62.7,215.3,160.0,84.5
995.75,201.0,60.5,209.7,157.0,83.7
997.5,189.8,60.8,207.5,152.7,80.1
999.25,190.1,60.6,201.5,150.7,78.3
1001.0,187.9,59.9,197.9,148.6,76.9
1002.75,181.9,60.1,186.1,142.7,71.6
1004.5,176.2,59.5,181.9,139.2,69.1
1006.25,164.5,59.6,177.8,133.9,64.7
1008.0,160.6,58.7,177.4,132.3,64.2
1009.75,153.1,57.9,168.4,126.4,59.9
1011.5,141.4,57.5,158.1,119.0,53.9
1013.25,133.1,57.0,152.9,114.3,50.6
1015.0,128.7,57.4,147.5,111.2,47.5
1016.75,120.4,55.6,141.9,106.0,44.9
1018.5,113.8,55.1,132.4,100.4,40.3
1020.25,112.4,56.1,126.5,98.3,37.3
1022.0,106.0,55.8,123.2,95.0,35.0
1023.75,102.1,55.7,119.9,92.6,33.2
1025.5,98.3,55.9,113.0,89.1,29.7
1027.25,94.2,56.1,109.6,86.6,27.6
1029.0,91.6,54.6,104.1,83.4,25.7
1030.75,88.1,54.5,103.1,81.9,24.9
1032.5,84.1,53.7,97.7,78.5,22.6
1034.25,82.7,53.9,93.2,76.6,20.4
1036.0,79.6,53.4,90.2,74.4,18.9
1037.75,78.7,52.9,87.0,72.9,17.8
1039.5,76.5,53.8,84.8,71.7,16.0
1041.25,76.1,53.2,82.2,70.5,15.3
1043.0,74.2,52.3,80.2,68.9,14.7
1044.75,73.4,52.5,77.0,67.7,13.2
1046.5,71.2,51.4,74.6,65.7,12.5
1048.25,70.6,51.8,73.2,65.2,11.7
1050.0,69.1,50.7,72.2,64.0,11.6
1051.75,66.9,50.5,71.7,63.0,11.1
1053.5,66.2,50.6,71.1,62.6,10.7
1055.25,64.9,50.5,71.6,62.3,10.7
1057.0,64.6,50.5,68.3,61.1,9.4
1058.75,63.1,50.8,67.4,60.4,8.6
1060.5,62.9,50.8,67.0,60.2,8.4
1062.25,62.1,50.8,66.9,59.9,8.3
1064.0,60.8,49.8,65.4,58.7,8.0
1065.75,60.1,49.8,64.2,58.0,7.4
1067.5,59.8,49.6,62.9,57.4,7.0
1069.25,58.6,49.8,62.0,56.8,6.3
1071.0,58.1,50.1,62.2,56.8,6.1
1072.75,57.7,49.9,62.0,56.5,6.1
1074.5,56.8,49.9,60.8,55.9,5.5
1076.25,56.0,49.0,60.2,55.1,5.7
1078.0,55.3,49.1,59.8,54.7,5.4
1079.75,55.1,49.0,58.7,54.2,4.9
1081.5,54.9,48.8,57.5,53.7,4.5
1083.25,54.6,48.7,56.9,53.4,4.2
1085.0,54.7,49.0,57.1,53.6,4.2
1086.75,54.6,48.9,55.6,53.0,3.6
1088.5,54.6,48.3,55.3,52.7,3.9
1090.25,54.7,47.2,56.4,52.8,4.9
1092.0,54.1,48.1,55.1,52.5,3.8
1093.75,54.7,49.2,54.5,52.8,3.1
1095.5,53.0,49.2,55.6,52.6,3.2
1097.25,52.9,49.8,54.7,52.5,2.5
1099.0,52.5,49.1,54.4,52.0,2.7
1100.75,51.9,49.2,54.5,51.9,2.7
1102.5,51.3,49.0,54.5,51.6,2.7
1104.25,51.4,48.3,53.4,51.0,2.6
1106.0,50.8,47.9,53.4,50.7,2.7
1107.75,50.9,48.2,53.1,50.7,2.5
1109.5,51.1,48.6,53.0,50.9,2.2
1111.25,51.0,47.6,52.4,50.3,2.5
1113.0,51.6,47.5,53.0,50.7,2.9
1114.75,49.8,47.6,51.4,49.6,1.9
1116.5,50.3,47.3,52.6,50.1,2.7
1118.25,49.7,47.1,50.2,49.0,1.7
1120.0,50.8,46.5,52.5,49.9,3.1
1121.75,49.7,46.7,50.9,49.1,2.2
1123.5,50.6,46.6,50.6,49.3,2.3
1125.25,50.3,46.6,50.6,49.2,2.2
1127.0,48.9,45.7,51.6,48.8,2.9
1128.75,48.6,45.9,50.4,48.3,2.3
1130.5,48.6,46.2,49.0,47.9,1.5
1132.25,48.6,45.3,48.5,47.5,1.9
1134.0,46.6,45.6,48.9,47.0,1.7
1135.75,47.7,45.5,47.8,47.0,1.3
1137.5,47.4,45.3,48.4,47.0,1.6
1139.25,48.6,44.8,48.3,47.2,2.1
1141.0,48.4,44.4,48.2,47.0,2.3
1142.75,48.1,44.2,48.3,46.9,2.3
1144.5,47.5,43.5,48.8,46.6,2.8
1146.25,47.8,44.3,47.8,46.6,2.0
1148.0,47.0,44.6,48.1,46.6,1.7
1149.75,47.0,44.6,48.3,46.7,1.9
1151.5,46.7,43.8,47.9,46.1,2.1
1153.25,47.0,43.2,47.0,45.7,2.2
1155.0,46.7,43.7,46.3,45.6,1.6
1156.75,47.4,44.6,46.4,46.1,1.4
1158.5,47.1,43.5,45.9,45.5,1.8
1160.25,46.9,43.0,46.1,45.3,2.0
1162.0,46.6,43.1,46.8,45.5,2.1
1163.75,46.1,44.0,46.6,45.6,1.4
1165.5,45.6,43.9,46.6,45.4,1.3
1167.25,46.6,43.5,46.5,45.5,1.8
1169.0,45.5,43.4,47.5,45.5,2.0
1170.75,45.3,43.6,46.6,45.2,1.5
1172.5,44.9,43.3,46.4,44.9,1.6
1174.25,45.4,43.2,46.0,44.9,1.5
1176.0,46.1,43.2,46.2,45.2,1.7
1177.75,45.7,43.3,45.7,44.9,1.4
1179.5,46.4,43.6,45.9,45.3,1.5
1181.25,46.0,43.9,46.6,45.5,1.4
1183.0,45.3,44.4,46.5,45.4,1.1
1184.75,45.2,42.8,46.7,44.9,1.9
1186.5,44.6,42.4,46.4,44.5,2.0
1188.25,44.5,43.1,46.6,44.7,1.8
1190.0,44.1,43.5,46.1,44.5,1.4
1191.75,45.1,42.7,44.8,44.2,1.3
1193.5,43.7,43.0,45.2,44.0,1.1
1195.25,43.4,42.8,44.5,43.6,0.8
1197.0,44.1,42.1,44.5,43.6,1.3
1198.75,43.4,42.2,44.4,43.4,1.1
1200.5,42.9,42.2,44.0,43.0,0.9
1202.25,43.4,41.9,44.0,43.1,1.1
1204.0,43.6,41.4,43.6,42.9,1.3
1205.75,43.2,41.5,43.2,42.7,1.0
1207.5,42.8,41.7,43.9,42.8,1.1
1209.25,43.0,42.4,43.5,43.0,0.6
1211.0,42.8,42.0,43.8,42.9,0.9
1212.75,42.6,42.7,43.9,43.1,0.7
1214.5,43.3,42.1,43.9,43.1,0.9
1216.25,43.2,42.9,43.3,43.1,0.2
1218.0,43.1,42.8,42.6,42.8,0.2
1219.75,43.0,42.9,42.8,42.9,0.1
1221.5,42.3,43.1,43.3,42.9,0.5
1223.25,42.7,42.4,43.9,43.0,0.8
1225.0,42.3,41.7,42.9,42.3,0.6
1226.75,42.0,41.5,43.0,42.2,0.8
1228.5,41.6,41.7,43.4,42.2,1.0
1230.25,42.9,41.7,42.9,42.5,0.7
1232.0,42.8,41.9,42.3,42.4,0.4
1233.75,42.0,42.7,42.6,42.4,0.3
1235.5,42.6,42.4,42.5,42.5,0.1
1237.25,42.3,42.6,41.9,42.2,0.3
1239.0,42.3,41.3,42.4,42.0,0.6
1240.75,42.4,41.8,41.4,41.9,0.5
1242.5,42.7,41.9,41.3,42.0,0.7
1244.25,42.5,42.0,41.8,42.1,0.3
1246.0,42.3,41.9,42.0,42.1,0.2
1247.75,41.6,41.1,41.9,41.6,0.4
1249.5,42.3,41.5,40.7,41.5,0.8
1251.25,41.5,40.8,41.5,41.3,0.4
1253.0,42.6,40.9,41.3,41.6,0.9
1254.75,42.4,40.5,40.6,41.2,1.1
1256.5,42.0,40.0,40.4,40.8,1.0
1258.25,41.3,40.5,41.1,41.0,0.4
1260.0,41.2,41.2,41.5,41.3,0.2
1261.75,41.8,41.3,41.7,41.6,0.3
1263.5,41.5,41.6,41.1,41.4,0.3
1265.25,41.6,41.4,41.5,41.5,0.1
1267.0,41.1,41.2,41.3,41.2,0.1
1268.75,41.6,40.9,41.4,41.3,0.4
1270.5,41.8,40.9,41.0,41.2,0.5
1272.25,41.2,40.9,41.6,41.2,0.3
1274.0,40.8,40.9,41.2,41.0,0.2
1275.75,41.1,40.1,41.2,40.8,0.6
1277.5,41.4,39.9,41.3,40.9,0.8
1279.25,41.2,38.9,41.3,40.5,1.3
1281.0,41.9,39.0,41.2,40.7,1.5
1282.75,40.6,38.7,40.9,40.1,1.2
1284.5,40.9,38.1,41.5,40.2,1.8
1286.25,41.3,37.8,40.9,40.0,1.9
1288.0,40.6,38.6,39.9,39.7,1.0
1289.75,41.2,38.3,40.0,39.8,1.5
1291.5,41.3,38.7,39.8,39.9,1.3
1293.25,40.8,38.1,39.4,39.4,1.3
1295.0,40.6,39.1,39.3,39.6,0.8
1296.75,41.3,39.2,39.6,40.0,1.1
1298.5,40.2,38.8,39.5,39.5,0.7
1300.25,39.3,38.3,39.4,39.0,0.6
1302.0,39.1,37.8,40.0,39.0,1.1
1303.75,38.6,37.6,39.4,38.5,0.9
1305.5,38.3,37.7,39.7,38.6,1.0
1307.25,39.0,38.3,39.5,39.0,0.6
1309.0,38.6,38.5,39.7,38.9,0.7
1310.75,38.9,38.7,40.1,39.2,0.8
1312.5,38.7,38.8,39.6,39.0,0.5
1314.25,38.5,38.7,39.6,39.0,0.6
1316.0,38.2,38.7,39.2,38.7,0.5
1317.75,38.3,38.6,39.3,38.7,0.5
1319.5,37.7,38.3,39.0,38.3,0.7
1321.25,37.1,38.3,39.4,38.3,1.2
1323.0,37.4,37.8,38.9,38.0,0.8
1324.75,37.8,37.7,39.5,38.4,1.0
1326.5,38.2,37.0,39.1,38.1,1.0
1328.25,38.3,37.0,39.0,38.1,1.0
1330.0,38.2,36.9,38.2,37.8,0.8
1331.75,38.3,36.7,38.8,37.9,1.1
1333.5,38.7,37.5,38.5,38.2,0.6
1335.25,38.5,37.0,39.2,38.2,1.1
1337.0,38.4,38.0,38.9,38.5,0.5
1338.75,38.3,38.2,39.5,38.7,0.7
1340.5,38.2,37.6,39.7,38.5,1.1
1342.25,38.4,37.5,39.4,38.4,0.9
1344.0,38.4,37.5,38.8,38.2,0.6
1345.75,37.6,37.4,38.9,38.0,0.8
1347.5,36.8,38.1,38.6,37.8,0.9
1349.25,36.8,38.3,38.9,38.0,1.1
1351.0,36.7,38.1,38.5,37.8,0.9
1352.75,36.1,38.2,38.5,37.6,1.3
1354.5,36.3,37.9,38.8,37.7,1.3
1356.25,37.1,38.6,38.8,38.2,0.9
1358.0,36.6,38.2,38.6,37.8,1.0
1359.75,37.2,38.7,38.5,38.1,0.8
1361.5,38.5,38.7,37.8,38.3,0.4
1363.25,37.5,38.1,37.9,37.8,0.3
1365.0,37.4,37.8,37.9,37.7,0.3
1366.75,37.3,38.5,38.4,38.1,0.7
1368.5,36.9,38.5,37.7,37.7,0.8
1370.25,36.3,37.9,37.1,37.1,0.8
1372.0,35.8,36.9,36.8,36.5,0.6
1373.75,35.9,37.1,37.2,36.7,0.7
1375.5,35.9,36.4,37.4,36.6,0.8
1377.25,34.9,36.3,37.1,36.1,1.1
1379.0,35.8,36.8,37.4,36.7,0.8
1380.75,35.4,36.3,37.3,36.3,1.0
1382.5,36.5,36.5,37.4,36.8,0.5
1384.25,36.3,36.8,37.5,36.9,0.6
1386.0,36.7,36.1,38.1,36.9,1.0
1387.75,36.7,36.7,37.7,37.0,0.6
1389.5,35.7,36.8,38.0,36.8,1.2
1391.25,36.1,37.0,38.2,37.1,1.1
1393.0,36.4,36.7,37.7,36.9,0.7
1394.75,36.1,37.5,37.8,37.1,0.9
1396.5,36.5,37.2,38.2,37.3,0.8
1398.25,36.5,36.9,38.5,37.3,1.0
1400.0,37.1,36.4,38.6,37.4,1.1
1401.75,36.4,36.7,38.4,37.2,1.1
1403.5,37.1,36.3,38.4,37.3,1.1
1405.25,36.6,35.8,38.5,37.0,1.4
1407.0,36.4,35.8,37.7,36.7,1.0
1408.75,36.4,36.5,38.0,37.0,0.9
1410.5,36.7,35.9,38.5,37.0,1.3
1412.25,36.9,35.7,37.9,36.8,1.1
1414.0,36.0,35.8,37.4,36.4,0.9
1415.75,36.2,37.1,37.5,36.9,0.7
1417.5,35.6,36.6,38.3,36.8,1.4
1419.25,34.8,36.5,37.3,36.2,1.3
1421.0,35.4,37.0,37.2,36.5,1.0
1422.75,34.4,36.6,37.8,36.3,1.7
1424.5,34.3,37.2,37.2,36.2,1.7
1426.25,34.6,37.1,37.8,36.5,1.7
1428.0,33.6,37.2,37.0,36.0,2.0
1429.75,34.5,37.4,37.2,36.4,1.6
1431.5,35.0,37.1,36.7,36.2,1.1
1433.25,35.2,36.6,37.0,36.2,0.9
1435.0,35.0,37.1,37.4,36.5,1.3
1436.75,34.9,37.2,37.1,36.4,1.3
1438.5,34.1,36.0,37.6,35.9,1.7
1440.25,34.7,34.9,36.8,35.4,1.2
1442.0,34.6,34.5,36.4,35.2,1.1
1443.75,34.5,33.9,37.9,35.4,2.1
1445.5,34.5,34.4,37.9,35.6,2.0
1447.25,34.6,34.5,37.1,35.4,1.5
1449.0,34.4,34.7,37.9,35.7,1.9
1450.75,34.7,34.5,37.8,35.7,1.8
1452.5,34.5,34.8,37.8,35.7,1.8
1454.25,35.2,34.9,37.8,36.0,1.6
1456.0,34.6,34.9,37.5,35.7,1.6
1457.75,34.8,34.8,38.2,35.9,2.0
1459.5,34.8,34.2,37.4,35.5,1.7
1461.25,34.6,34.1,37.6,35.4,1.9
1463.0,35.2,34.0,38.4,35.8,2.3
1464.75,34.9,34.1,37.6,35.5,1.8
1466.5,35.1,34.5,36.6,35.4,1.1
1468.25,34.8,34.0,36.9,35.2,1.5
1470.0,35.4,34.0,37.1,35.5,1.5
1471.75,34.7,34.8,36.6,35.4,1.1
1473.5,34.3,35.4,36.3,35.3,1.0
1475.25,34.5,34.9,37.0,35.5,1.3
1477.0,34.7,,36.5,35.6,1.3
1478.75,35.0,,36.9,35.9,1.3
1480.5,34.8,,36.0,35.4,0.8
1482.25,34.1,,35.8,34.9,1.2
1484.0,33.7,,35.7,34.7,1.4
1485.75,33.5,,35.9,34.7,1.7
1487.5,33.1,,35.6,34.3,1.7
1489.25,33.1,,36.4,34.8,2.4
1491.0,33.1,,36.3,34.7,2.2
1492.75,33.1,,36.7,34.9,2.6
1494.5,33.2,,36.7,34.9,2.5
1496.25,32.7,,36.6,34.6,2.8
1498.0,32.0,,37.7,34.9,4.0
1499.75,32.5,,38.3,35.4,4.1
1501.5,32.0,,37.9,34.9,4.2
1503.25,33.3,,38.1,35.7,3.4
1505.0,33.1,,37.1,35.1,2.8
1506.75,33.4,,37.2,35.3,2.6
1508.5,32.3,,36.6,34.5,3.1
1510.25,32.5,,35.7,34.1,2.3
1512.0,33.5,,36.7,35.1,2.3
1513.75,32.6,,36.4,34.5,2.7
1515.5,32.3,,36.9,34.6,3.3
1517.25,31.7,,36.2,33.9,3.2
1519.0,31.8,,36.1,33.9,3.1
1520.75,31.7,,36.0,33.9,3.0
1522.5,32.5,,35.9,34.2,2.4
1524.25,31.9,,35.4,33.7,2.5
1526.0,32.2,,37.2,34.7,3.6
1527.75,32.4,,36.7,34.6,3.0
1529.5,31.6,,36.2,33.9,3.3
1531.25,31.6,,36.2,33.9,3.2
1533.0,31.6,,35.9,33.7,3.1
1534.75,31.0,,36.0,33.5,3.5
1536.5,31.1,,35.9,33.5,3.4
1538.25,31.1,,35.5,33.3,3.1
1540.0,30.9,,35.5,33.2,3.3
1541.75,31.3,,35.4,33.4,2.9
1543.5,32.0,,36.6,34.3,3.3
1545.25,32.1,,36.5,34.3,3.1
1547.0,31.9,,36.3,34.1,3.1
1548.75,31.6,,36.2,33.9,3.2
1550.5,30.8,,36.4,33.6,4.0
1552.25,31.3,,36.7,34.0,3.8
1554.0,32.4,,36.3,34.4,2.8
1555.75,32.9,,35.6,34.2,1.9
1557.5,32.9,,35.8,34.3,2.1
1559.25,33.3,,36.7,35.0,2.4
1561.0,33.3,,36.6,35.0,2.3
1562.75,32.3,,35.8,34.1,2.5
1564.5,32.6,,36.0,34.3,2.4
1566.25,32.7,,36.6,34.6,2.8
1568.0,32.1,,36.3,34.2,3.0
1569.75,31.7,,36.4,34.0,3.4
1571.5,31.3,,36.0,33.6,3.3
1573.25,31.8,,35.7,33.8,2.8
1575.0,32.0,,35.9,33.9,2.7
1576.75,32.4,,36.3,34.4,2.7
1578.5,32.3,,36.0,34.2,2.6
1580.25,31.8,,35.5,33.6,2.7
1582.0,31.4,,34.8,33.1,2.4
1583.75,31.0,,35.0,33.0,2.8
1585.5,31.2,,34.9,33.1,2.6
1587.25,31.7,,35.3,33.5,2.6
1589.0,31.5,,35.2,33.4,2.7
1590.75,31.8,,35.1,33.4,2.4
1592.5,32.1,,35.6,33.8,2.5
1594.25,31.4,,35.7,33.5,3.0
1596.0,30.9,,35.7,33.3,3.4
1597.75,31.2,,34.8,33.0,2.6
1599.5,31.3,,35.6,33.4,3.1
1601.25,31.3,,35.5,33.4,3.0
1603.0,31.6,,36.0,33.8,3.1
1604.75,32.1,,36.0,34.0,2.8
1606.5,32.4,,35.0,33.7,1.8
1608.25,32.1,,36.6,34.4,3.2
1610.0,33.0,,36.3,34.6,2.3
1611.75,32.2,,36.8,34.5,3.2
1613.5,31.3,,36.4,33.8,3.6
1615.25,31.8,,36.3,34.0,3.2
1617.0,31.6,,36.0,33.8,3.1
1618.75,31.4,,36.5,33.9,3.6
1620.5,31.2,,36.3,33.8,3.6
1622.25,31.2,,35.8,33.5,3.3
1624.0,31.3,,35.3,33.3,2.8
1625.75,31.1,,35.2,33.2,2.9
1627.5,30.8,,35.1,32.9,3.1
1629.25,30.4,,34.5,32.4,2.9
1631.0,31.3,,34.6,32.9,2.4
1632.75,30.7,,34.1,32.4,2.5
1634.5,30.6,,34.0,32.3,2.5
1636.25,30.4,,33.6,32.0,2.3
1638.0,30.7,,34.1,32.4,2.4
1639.75,30.8,,34.8,32.8,2.8
1641.5,30.0,,35.2,32.6,3.7
1643.25,30.0,,34.6,32.3,3.3
1645.0,30.2,,34.6,32.4,3.1
1646.75,30.2,,34.9,32.5,3.4
1648.5,30.3,,35.0,32.6,3.4
1650.25,30.2,,34.9,32.5,3.3
1652.0,30.0,,34.8,32.4,3.4
1653.75,30.6,,34.0,32.3,2.4
1655.5,30.0,,33.9,31.9,2.8
1657.25,29.9,,33.9,31.9,2.8
1659.0,29.4,,33.7,31.5,3.1
1660.75,29.9,,34.0,32.0,2.9
1662.5,30.6,,34.5,32.5,2.8
1664.25,30.4,,34.4,32.4,2.8
1666.0,30.5,,33.8,32.1,2.4
1667.75,30.4,,34.5,32.4,2.9
1669.5,29.8,,34.7,32.2,3.4
1671.25,29.5,,35.0,32.3,3.9
1673.0,29.9,,34.8,32.3,3.4
1674.75,31.5,,34.9,33.2,2.4
1676.5,32.6,,35.2,33.9,1.9
1678.25,33.2,,35.2,34.2,1.4
1680.0,32.9,,34.6,33.7,1.2
1681.75,31.6,,34.4,33.0,2.0
1683.5,30.9,,33.7,32.3,2.0
1685.25,30.5,,34.3,32.4,2.6
1687.0,30.4,,34.0,32.2,2.6
1688.75,29.6,,33.5,31.5,2.8
1690.5,29.6,,33.3,31.4,2.6
1692.25,29.8,,33.0,31.4,2.2
1694.0,30.3,,33.9,32.1,2.6
1695.75,30.5,,33.9,32.2,2.4
1697.5,30.0,,34.2,32.1,3.0
1699.25,30.1,,34.5,32.3,3.1
1701.0,29.6,,34.1,31.8,3.2
1702.75,29.7,,34.7,32.2,3.5
1704.5,29.4,,34.6,32.0,3.7
1706.25,30.3,,34.1,32.2,2.7
1708.0,29.9,,34.0,31.9,2.9
1709.75,30.2,,33.5,31.9,2.3
1711.5,29.9,,34.0,32.0,2.8
1713.25,30.0,,33.1,31.5,2.2
1715.0,29.5,,,29.5,
1716.75,29.8,,,29.8,
1718.5,29.4,,,29.4,
1720.25,30.0,,,30.0,
1722.0,29.7,,,29.7,
1723.75,29.2,,,29.2,
1725.5,29.7,,,29.7,
1727.25,29.6,,,29.6,
1729.0,29.5,,,29.5,
1730.75,29.9,,,29.9,
1732.5,29.6,,,29.6,
1734.25,29.8,,,29.8,
1736.0,29.6,,,29.6,
1737.75,29.5,,,29.5,
1739.5,29.7,,,29.7,
1741.25,29.4,,,29.4,
1743.0,28.9,,,28.9,
1744.75,28.8,,,28.8,
1746.5,28.7,,,28.7,
1748.25,28.6,,,28.6,
1750.0,28.7,,,28.7,
1751.75,28.6,,,28.6,
1753.5,28.8,,,28.8,
1755.25,28.2,,,28.2,
1757.0,29.0,,,29.0,
1758.75,29.0,,,29.0,
1760.5,28.7,,,28.7,
1762.25,28.4,,,28.4,
1764.0,28.2,,,28.2,
1765.75,28.2,,,28.2,
1767.5,28.3,,,28.3,
1769.25,28.1,,,28.1,
1771.0,27.7,,,27.7,
1772.75,27.6,,,27.6,
1774.5,27.8,,,27.8,
1776.25,28.1,,,28.1,
1778.0,28.0,,,28.0,
1779.75,28.2,,,28.2,
1781.5,28.1,,,28.1,
1783.25,28.8,,,28.8,
1785.0,28.5,,,28.5,
1786.75,28.1,,,28.1,
1788.5,28.3,,,28.3,
1790.25,29.0,,,29.0,
1792.0,29.0,,,29.0,
1793.75,29.1,,,29.1,
1795.5,29.0,,,29.0,
1797.25,28.9,,,28.9,
1799.0,28.2,,,28.2,
1800.75,28.5,,,28.5,
1802.5,29.0,,,29.0,
1804.25,28.6,,,28.6,
1806.0,28.4,,,28.4,
1807.75,28.6,,,28.6,
1809.5,28.4,,,28.4,
1811.25,28.5,,,28.5,
1813.0,28.3,,,28.3,
1814.75,28.8,,,28.8,
1816.5,28.8,,,28.8,
1818.25,28.5,,,28.5,
1820.0,28.8,,,28.8,
1821.75,29.0,,,29.0,
1823.5,29.4,,,29.4,
1825.25,28.9,,,28.9,
1827.0,28.6,,,28.6,
1828.75,28.0,,,28.0,
1830.5,27.1,,,27.1,
1832.25,27.3,,,27.3,
1834.0,27.4,,,27.4,
1835.75,27.1,,,27.1,
1837.5,27.2,,,27.2,
1839.25,26.9,,,26.9,
1841.0,26.5,,,26.5,
1842.75,26.0,,,26.0,
1844.5,26.0,,,26.0,
1846.25,25.9,,,25.9,
1848.0,26.0,,,26.0,
1849.75,25.9,,,25.9,
1851.5,26.9,,,26.9,
1853.25,27.2,,,27.2,
1855.0,27.2,,,27.2,
1856.75,27.0,,,27.0,
1858.5,27.2,,,27.2,
1860.25,27.9,,,27.9,
1862.0,27.2,,,27.2,
1863.75,27.3,,,27.3,
1865.5,27.2,,,27.2,
1867.25,27.3,,,27.3,
1869.0,27.1,,,27.1,
1870.75,27.0,,,27.0,
1872.5,26.9,,,26.9,
1874.25,26.6,,,26.6,
1876.0,26.5,,,26.5,
1877.75,25.9,,,25.9,
1879.5,25.9,,,25.9,
1881.25,26.1,,,26.1,
1883.0,26.0,,,26.0,
1884.75,25.9,,,25.9,
1886.5,25.9,,,25.9,
1888.25,25.8,,,25.8,
1890.0,26.1,,,26.1,
1891.75,25.6,,,25.6,
1893.5,25.9,,,25.9,
1895.25,26.5,,,26.5,
1897.0,27.1,,,27.1,
1898.75,27.3,,,27.3,
1900.5,27.5,,,27.5,
1902.25,28.0,,,28.0,
1904.0,27.5,,,27.5,
1905.75,27.0,,,27.0,
1907.5,26.8,,,26.8,
1909.25,26.7,,,26.7,
1911.0,26.7,,,26.7,
1912.75,27.1,,,27.1,
1914.5,27.9,,,27.9,
1916.25,27.8,,,27.8,
1918.0,28.0,,,28.0,
1919.75,27.4,,,27.4,
1921.5,26.4,,,26.4,
1923.25,26.9,,,26.9,
1925.0,26.4,,,26.4,
1926.75,26.4,,,26.4,
1928.5,26.6,,,26.6,
1930.25,26.6,,,26.6,
1932.0,26.3,,,26.3,
1933.75,26.4,,,26.4,
1935.5,26.5,,,26.5,
1937.25,26.9,,,26.9,
1939.0,27.3,,,27.3,
1940.75,26.6,,,26.6,
1942.5,25.8,,,25.8,
1944.25,25.3,,,25.3,
1946.0,25.2,,,25.2,
1947.75,25.2,,,25.2,
1949.5,24.9,,,24.9,
1951.25,24.8,,,24.8,
1953.0,24.8,,,24.8,
1954.75,24.8,,,24.8,
1956.5,25.2,,,25.2,
1958.25,25.2,,,25.2,
1960.0,25.7,,,25.7,
1961.75,25.7,,,25.7,
1963.5,25.7,,,25.7,
1965.25,25.6,,,25.6,
1967.0,26.0,,,26.0,
1968.75,26.4,,,26.4,
1970.5,25.9,,,25.9,
1972.25,26.1,,,26.1,
1974.0,26.0,,,26.0,
1975.75,26.0,,,26.0,
1977.5,26.3,,,26.3,
1979.25,26.1,,,26.1,
1981.0,26.1,,,26.1,
1982.75,25.9,,,25.9,
1984.5,26.0,,,26.0,
1986.25,26.3,,,26.3,
1988.0,25.5,,,25.5,
1989.75,24.9,,,24.9,
1991.5,24.9,,,24.9,
1993.25,24.7,,,24.7,
1995.0,24.7,,,24.7,
1996.75,24.7,,,24.7,
1998.5,24.4,,,24.4,
2000.25,24.7,,,24.7,
2002.0,25.2,,,25.2,
2003.75,25.6,,,25.6,
2005.5,25.7,,,25.7,
2007.25,24.9,,,24.9,
2009.0,24.6,,,24.6,
2010.75,25.1,,,25.1,
2012.5,25.3,,,25.3,
2014.25,26.2,,,26.2,
2016.0,26.1,,,26.1,
2017.75,26.3,,,26.3,
2019.5,26.6,,,26.6,
2021.25,26.9,,,26.9,
2023.0,26.6,,,26.6,
2024.75,26.0,,,26.0,
2026.5,26.7,,,26.7,
2028.25,26.8,,,26.8,
2030.0,26.8,,,26.8,
2031.75,26.7,,,26.7,
2033.5,25.7,,,25.7,
2035.25,25.8,,,25.8,
2037.0,26.0,,,26.0,
2038.75,25.4,,,25.4,
2040.5,25.2,,,25.2,
2042.25,25.2,,,25.2,
2044.0,25.6,,,25.6,
2045.75,26.0,,,26.0,
2047.5,26.3,,,26.3,
2049.25,26.5,,,26.5,
2051.0,26.1,,,26.1,
2052.75,25.7,,,25.7,
2054.5,25.7,,,25.7,
2056.25,25.1,,,25.1,
2058.0,24.7,,,24.7,
2059.75,24.9,,,24.9,
2061.5,25.1,,,25.1,
2063.25,25.1,,,25.1,
2065.0,25.0,,,25.0,
2066.75,25.4,,,25.4,
2068.5,25.3,,,25.3,
2070.25,25.6,,,25.6,
2072.0,24.7,,,24.7,
2073.75,24.7,,,24.7,
2075.5,25.1,,,25.1,
2077.25,25.0,,,25.0,
2079.0,25.9,,,25.9,
2080.75,25.4,,,25.4,
2082.5,25.5,,,25.5,
2084.25,26.2,,,26.2,
2086.0,26.6,,,26.6,
2087.75,26.8,,,26.8,
2089.5,26.1,,,26.1,
2091.25,26.0,,,26.0,
2093.0,25.3,,,25.3,
2094.75,25.3,,,25.3,
2096.5,25.1,,,25.1,
2098.25,25.6,,,25.6,
2100.0,26.2,,,26.2,
2101.75,26.1,,,26.1,
2103.5,25.6,,,25.6,
2105.25,25.3,,,25.3,
2107.0,25.3,,,25.3,
2108.75,25.9,,,25.9,
2110.5,26.1,,,26.1,
2112.25,25.6,,,25.6,
2114.0,25.8,,,25.8,
2115.75,25.6,,,25.6,
2117.5,24.9,,,24.9,
2119.25,25.2,,,25.2,
2121.0,25.3,,,25.3,
2122.75,25.6,,,25.6,
2124.5,24.7,,,24.7,
2126.25,23.9,,,23.9,
2128.0,24.1,,,24.1,
2129.75,24.5,,,24.5,
2131.5,24.5,,,24.5,
2133.25,25.2,,,25.2,
2135.0,24.6,,,24.6,
2136.75,25.1,,,25.1,
2138.5,25.1,,,25.1,
2140.25,24.5,,,24.5,
2142.0,24.3,,,24.3,
2143.75,24.0,,,24.0,
2145.5,24.0,,,24.0,
2147.25,24.3,,,24.3,
2149.0,25.0,,,25.0,
2150.75,25.0,,,25.0,
2152.5,24.8,,,24.8,
2154.25,24.6,,,24.6,
2156.0,24.1,,,24.1,
2157.75,24.6,,,24.6,
2159.5,24.2,,,24.2,
2161.25,24.1,,,24.1,
2163.0,24.2,,,24.2,
2164.75,24.2,,,24.2,
2166.5,23.8,,,23.8,
2168.25,24.1,,,24.1,
2170.0,24.1,,,24.1,
2171.75,24.9,,,24.9,
2173.5,24.9,,,24.9,
2175.25,25.1,,,25.1,
2177.0,24.9,,,24.9,
2178.75,25.3,,,25.3,
2180.5,25.5,,,25.5,
2182.25,24.9,,,24.9,
2184.0,24.4,,,24.4,
2185.75,24.4,,,24.4,
2187.5,24.3,,,24.3,
2189.25,24.0,,,24.0,
2191.0,24.1,,,24.1,
2192.75,24.0,,,24.0,
2194.5,23.7,,,23.7,
2196.25,23.1,,,23.1,
2198.0,23.3,,,23.3,
2199.75,23.5,,,23.5,
2201.5,23.9,,,23.9,
2203.25,23.8,,,23.8,
2205.0,23.8,,,23.8,
2206.75,23.6,,,23.6,
2208.5,23.8,,,23.8,
2210.25,24.1,,,24.1,
2212.0,24.0,,,24.0,
2213.75,24.1,,,24.1,
2215.5,23.7,,,23.7,
2217.25,23.7,,,23.7,
2219.0,24.3,,,24.3,
2220.75,24.6,,,24.6,
2222.5,24.6,,,24.6,
2224.25,24.2,,,24.2,
2226.0,23.8,,,23.8,
2227.75,23.4,,,23.4,
2229.5,23.3,,,23.3,
2231.25,23.1,,,23.1,
2233.0,23.2,,,23.2,
2234.75,23.4,,,23.4,
2236.5,23.3,,,23.3,
2238.25,24.1,,,24.1,
2240.0,23.9,,,23.9,
2241.75,23.6,,,23.6,
2243.5,23.2,,,23.2,
2245.25,22.9,,,22.9,
2247.0,22.3,,,22.3,
2248.75,22.5,,,22.5,
2250.5,22.7,,,22.7,
2252.25,22.8,,,22.8,
2254.0,22.8,,,22.8,
2255.75,22.6,,,22.6,
2257.5,22.7,,,22.7,
2259.25,22.2,,,22.2,
2261.0,22.0,,,22.0,
2262.75,22.4,,,22.4,
2264.5,22.8,,,22.8,
2266.25,23.5,,,23.5,
2268.0,23.5,,,23.5,
2269.75,24.0,,,24.0,
2271.5,23.7,,,23.7,
2273.25,23.7,,,23.7,
2275.0,23.4,,,23.4,
2276.75,23.6,,,23.6,
2278.5,23.3,,,23.3,
2280.25,23.3,,,23.3,
2282.0,23.6,,,23.6,
2283.75,23.4,,,23.4,
2285.5,23.4,,,23.4,
2287.25,24.1,,,24.1,
2289.0,24.4,,,24.4,
2290.75,23.7,,,23.7,
2292.5,23.6,,,23.6,
2294.25,23.9,,,23.9,
2296.0,24.1,,,24.1,
2297.75,24.7,,,24.7,
2299.5,24.6,,,24.6,
2301.25,24.6,,,24.6,
2303.0,23.8,,,23.8,
2304.75,24.0,,,24.0,
2306.5,23.9,,,23.9,
2308.25,23.6,,,23.6,
2310.0,23.5,,,23.5,
2311.75,23.2,,,23.2,
2313.5,23.1,,,23.1,
2315.25,22.6,,,22.6,
2317.0,22.2,,,22.2,
2318.75,22.6,,,22.6,
2320.5,23.1,,,23.1,
2322.25,23.0,,,23.0,
2324.0,23.1,,,23.1,
2325.75,23.0,,,23.0,
2327.5,23.2,,,23.2,
2329.25,23.8,,,23.8,
2331.0,23.9,,,23.9,
2332.75,24.3,,,24.3,
2334.5,23.0,,,23.0,
2336.25,22.3,,,22.3,
2338.0,22.2,,,22.2,
2339.75,22.1,,,22.1,
2341.5,22.4,,,22.4,
2343.25,22.5,,,22.5,
2345.0,22.6,,,22.6,
2346.75,22.8,,,22.8,
2348.5,22.8,,,22.8,
2350.25,22.8,,,22.8,
2352.0,23.0,,,23.0,
2353.75,23.1,,,23.1,
2355.5,22.7,,,22.7,
2357.25,23.2,,,23.2,
2359.0,22.8,,,22.8,
2360.75,23.4,,,23.4,
2362.5,23.5,,,23.5,
2364.25,23.2,,,23.2,
2366.0,23.0,,,23.0,
2367.75,22.7,,,22.7,
2369.5,22.2,,,22.2,
2371.25,22.6,,,22.6,
2373.0,22.9,,,22.9,
2374.75,23.1,,,23.1,
2376.5,22.7,,,22.7,
2378.25,22.4,,,22.4,
2380.0,22.0,,,22.0,
2381.75,22.3,,,22.3,
2383.5,22.5,,,22.5,
2385.25,22.6,,,22.6,
2387.0,22.9,,,22.9,
2388.75,22.9,,,22.9,
2390.5,22.2,,,22.2,
2392.25,22.2,,,22.2,
2394.0,22.4,,,22.4,
2395.75,21.8,,,21.8,
2397.5,22.0,,,22.0,
2399.25,22.3,,,22.3,
2401.0,22.3,,,22.3,
2402.75,21.9,,,21.9,
2404.5,21.9,,,21.9,
2406.25,21.8,,,21.8,
2408.0,22.0,,,22.0,
2409.75,21.8,,,21.8,
2411.5,22.4,,,22.4,
2413.25,22.1,,,22.1,
2415.0,23.1,,,23.1,
2416.75,22.9,,,22.9,
2418.5,22.7,,,22.7,
2420.25,23.1,,,23.1,
2422.0,23.0,,,23.0,
2423.75,22.8,,,22.8,
2425.5,22.8,,,22.8,
2427.25,23.1,,,23.1,
2429.0,22.3,,,22.3,
2430.75,22.2,,,22.2,
2432.5,22.0,,,22.0,
2434.25,22.7,,,22.7,
2436.0,22.8,,,22.8,
2437.75,23.0,,,23.0,
2439.5,22.4,,,22.4,
2441.25,22.6,,,22.6,
2443.0,23.2,,,23.2,
2444.75,22.8,,,22.8,
2446.5,23.0,,,23.0,
2448.25,22.4,,,22.4,
2450.0,22.1,,,22.1,
2451.75,21.5,,,21.5,
2453.5,22.1,,,22.1,
2455.25,21.6,,,21.6,