File: 01_Data/Eucalyptus_Flooring/Cone/Eucalyptus_Flooring_HRRPUA_25.csv
Time after Ignition,Eucalyptus_Flooring_R1,Eucalyptus_Flooring_R2,Eucalyptus_Flooring_R3,Mean,Std. Dev.
0.0,63.2,7.9,5.3,25.5,32.7
1.25,100.3,14.2,15.1,43.2,49.4
2.5,132.4,27.4,24.7,61.5,61.4
3.75,161.5,49.8,39.6,83.7,67.6
5.0,185.7,75.4,59.4,106.8,68.8
6.25,200.3,100.4,86.9,129.2,61.9
7.5,224.7,122.9,128.1,158.6,57.3
8.75,245.4,140.7,167.3,184.5,54.4
10.0,266.3,161.4,200.0,209.2,53.1
11.25,297.7,179.4,222.8,233.3,59.8
12.5,327.1,196.6,252.1,258.6,65.5
13.75,354.3,218.3,276.3,283.0,68.3
15.0,363.5,242.1,298.1,301.2,60.8
16.25,377.3,256.4,325.4,319.7,60.7
17.5,378.3,268.0,339.7,328.7,56.0
18.75,402.6,292.9,343.9,346.5,54.9
20.0,385.2,304.4,351.5,347.0,40.6
21.25,373.9,311.6,361.2,348.9,32.9
22.5,362.3,317.5,343.5,341.1,22.5
23.75,354.6,330.5,351.9,345.7,13.2
25.0,343.2,334.0,347.6,341.6,6.9
26.25,334.6,331.8,345.3,337.2,7.1
27.5,320.3,333.2,343.3,332.3,11.6
28.75,311.0,345.5,332.7,329.7,17.4
30.0,297.1,345.8,327.3,323.4,24.6
31.25,292.5,336.0,314.2,314.2,21.8
32.5,277.0,331.1,306.4,304.8,27.1
33.75,270.8,328.6,297.0,298.8,28.9
35.0,262.6,313.2,286.1,287.3,25.3
36.25,242.2,303.7,281.1,275.7,31.1
37.5,235.7,285.1,268.2,263.0,25.1
38.75,225.4,274.2,256.3,252.0,24.7
40.0,216.3,259.6,250.3,242.1,22.8
41.25,211.5,249.0,247.1,235.8,21.1
42.5,203.4,237.7,239.5,226.8,20.4
43.75,191.6,229.5,230.8,217.3,22.3
45.0,187.6,222.2,221.7,210.5,19.8
46.25,183.6,212.3,213.1,203.0,16.8
47.5,179.3,201.5,201.4,194.1,12.8
48.75,173.4,193.9,200.8,189.4,14.3
50.0,165.9,187.5,194.7,182.7,15.0
51.25,159.9,179.8,186.2,175.3,13.7
52.5,157.8,172.6,183.9,171.4,13.1
53.75,154.7,167.3,177.5,166.5,11.4
55.0,152.0,161.0,173.7,162.2,10.9
56.25,145.2,157.8,166.2,156.4,10.6
57.5,142.7,151.9,160.1,151.6,8.7
58.75,139.5,147.9,157.2,148.2,8.9
60.0,135.5,140.2,152.7,142.8,8.9
61.25,131.8,140.7,150.4,141.0,9.3
62.5,128.6,137.2,144.9,136.9,8.2
63.75,126.2,136.1,139.5,133.9,6.9
65.0,122.5,132.7,136.5,130.6,7.2
66.25,118.5,132.9,132.4,127.9,8.2
67.5,117.6,128.3,130.5,125.4,6.9
68.75,114.6,128.5,126.8,123.3,7.6
70.0,111.6,125.3,124.2,120.3,7.6
71.25,111.4,124.3,119.8,118.5,6.6
72.5,108.1,122.3,116.3,115.6,7.1
73.75,107.7,121.1,113.9,114.2,6.7
75.0,105.0,117.6,113.8,112.1,6.5
76.25,102.8,115.3,110.7,109.6,6.3
77.5,102.7,114.7,109.5,109.0,6.0
78.75,99.6,112.3,106.5,106.1,6.3
80.0,98.5,109.2,105.3,104.4,5.4
81.25,96.2,108.0,102.8,102.3,5.9
82.5,95.8,108.0,100.6,101.5,6.1
83.75,94.9,105.0,99.3,99.7,5.0
85.0,94.2,102.5,98.1,98.2,4.2
86.25,94.2,99.8,98.5,97.5,2.9
87.5,92.7,98.5,96.0,95.7,2.9
88.75,92.0,96.0,93.6,93.9,2.0
90.0,89.3,93.1,90.5,91.0,1.9
91.25,87.9,91.4,89.5,89.6,1.7
92.5,89.0,91.0,87.9,89.3,1.6
93.75,87.8,90.2,85.9,88.0,2.2
95.0,86.5,90.6,84.9,87.3,2.9
96.25,85.3,90.9,85.6,87.3,3.1
97.5,83.1,87.6,84.4,85.0,2.3
98.75,83.7,85.4,82.1,83.7,1.6
100.0,83.8,85.5,82.5,84.0,1.5
101.25,81.6,83.6,80.8,82.0,1.4
102.5,83.4,82.1,80.0,81.8,1.7
103.75,82.9,80.7,78.6,80.8,2.1
105.0,83.0,81.2,79.6,81.3,1.7
106.25,81.8,77.4,78.7,79.3,2.3
107.5,78.9,77.0,77.6,77.8,1.0
108.75,78.2,77.5,75.7,77.1,1.3
110.0,78.2,77.2,76.2,77.2,1.0
111.25,77.8,75.4,74.8,76.0,1.6
112.5,76.6,74.9,74.5,75.3,1.1
113.75,76.3,72.9,75.2,74.8,1.7
115.0,75.7,72.2,74.2,74.0,1.7
116.25,75.4,72.3,72.5,73.4,1.8
117.5,75.5,70.9,72.5,73.0,2.3
118.75,74.8,70.4,72.7,72.6,2.2
120.0,73.3,72.0,72.0,72.4,0.8
121.25,74.4,70.2,71.2,71.9,2.2
122.5,73.2,71.0,71.1,71.8,1.2
123.75,74.1,67.8,69.9,70.6,3.2
125.0,74.6,67.7,70.6,70.9,3.5
126.25,71.4,68.0,69.4,69.6,1.7
127.5,72.2,66.6,69.3,69.4,2.8
128.75,70.5,66.9,68.1,68.5,1.8
130.0,69.4,66.6,67.8,67.9,1.4
131.25,69.4,65.7,67.3,67.5,1.9
132.5,69.0,65.8,67.5,67.4,1.6
133.75,68.7,64.6,66.7,66.6,2.1
135.0,68.2,65.9,66.8,67.0,1.1
136.25,68.4,64.3,65.4,66.0,2.1
137.5,67.8,63.8,65.4,65.6,2.0
138.75,67.4,62.9,66.8,65.7,2.5
140.0,66.3,63.0,64.9,64.7,1.7
141.25,66.1,63.2,64.9,64.8,1.5
142.5,66.3,63.9,66.1,65.4,1.3
143.75,65.2,62.5,65.9,64.5,1.8
145.0,65.5,61.3,65.7,64.1,2.5
146.25,63.8,59.9,65.2,63.0,2.8
147.5,63.7,60.1,64.5,62.8,2.4
148.75,64.2,59.8,64.4,62.8,2.6
150.0,63.3,60.0,64.8,62.7,2.5
151.25,62.5,60.4,65.6,62.8,2.6
152.5,62.5,58.9,63.6,61.7,2.4
153.75,62.3,59.0,66.4,62.5,3.7
155.0,62.7,58.6,65.0,62.1,3.3
156.25,63.7,58.1,64.3,62.0,3.4
157.5,62.1,58.7,64.6,61.8,2.9
158.75,62.4,57.2,65.0,61.5,4.0
160.0,62.3,58.1,64.3,61.6,3.2
161.25,63.3,57.6,63.9,61.6,3.5
162.5,63.0,56.7,63.2,61.0,3.7
163.75,64.0,58.2,62.0,61.4,3.0
165.0,63.3,58.4,62.2,61.3,2.6
166.25,64.0,57.3,61.9,61.0,3.4
167.5,63.8,56.5,62.5,60.9,3.9
168.75,64.0,57.2,62.8,61.3,3.7
170.0,65.4,56.3,62.7,61.5,4.6
171.25,64.5,55.5,62.2,60.7,4.7
172.5,65.2,56.1,60.6,60.6,4.5
173.75,64.7,56.7,61.6,61.0,4.0
175.0,63.6,57.1,61.0,60.5,3.3
176.25,64.2,56.5,60.3,60.3,3.8
177.5,64.2,56.3,61.2,60.5,4.0
178.75,64.3,56.1,59.8,60.1,4.1
180.0,62.5,55.4,59.1,59.0,3.6
181.25,63.5,56.2,59.3,59.7,3.7
182.5,63.7,56.0,59.3,59.7,3.9
183.75,63.4,56.3,58.9,59.5,3.6
185.0,63.8,55.2,59.8,59.6,4.3
186.25,63.3,55.3,59.8,59.5,4.0
187.5,63.2,56.1,60.1,59.8,3.6
188.75,62.1,55.9,60.2,59.4,3.2
190.0,62.3,56.3,60.1,59.5,3.0
191.25,62.5,55.3,59.4,59.1,3.6
192.5,61.5,55.8,62.3,59.9,3.5
193.75,61.8,55.4,62.9,60.0,4.0
195.0,62.0,55.6,64.7,60.8,4.7
196.25,62.8,55.6,66.1,61.5,5.4
197.5,61.8,55.3,65.2,60.8,5.0
198.75,61.7,54.7,67.8,61.4,6.6
200.0,62.4,56.1,66.2,61.6,5.1
201.25,62.5,56.0,66.4,61.7,5.3
202.5,62.2,54.8,67.7,61.5,6.5
203.75,62.3,55.2,67.2,61.6,6.0
205.0,62.6,55.5,67.2,61.8,5.9
206.25,62.7,55.1,67.7,61.9,6.3
207.5,62.0,55.9,67.3,61.7,5.7
208.75,61.9,55.6,68.8,62.1,6.6
210.0,61.7,55.6,68.8,62.0,6.6
211.25,62.2,55.8,69.9,62.6,7.1
212.5,61.1,55.1,68.5,61.6,6.7
213.75,61.7,56.2,68.6,62.2,6.2
215.0,62.8,55.5,66.9,61.8,5.8
216.25,63.2,54.7,68.3,62.0,6.9
217.5,63.2,54.6,67.5,61.7,6.6
218.75,63.7,55.3,66.5,61.8,5.8
220.0,63.7,54.7,67.0,61.8,6.3
221.25,62.6,54.5,65.0,60.7,5.5
222.5,63.0,54.7,64.2,60.6,5.1
223.75,63.4,54.3,64.6,60.7,5.6
225.0,63.6,54.9,64.5,61.0,5.3
226.25,63.0,55.3,63.8,60.7,4.7
227.5,63.9,56.3,64.1,61.4,4.4
228.75,63.3,55.9,63.3,60.8,4.3
230.0,62.6,56.2,64.0,60.9,4.1
231.25,63.6,55.5,63.8,61.0,4.7
232.5,64.4,56.2,62.8,61.1,4.4
233.75,64.2,55.8,62.6,60.9,4.5
235.0,63.3,56.3,63.5,61.1,4.1
236.25,63.3,57.1,63.8,61.4,3.7
237.5,63.9,57.0,63.9,61.6,4.0
238.75,64.2,55.9,64.1,61.4,4.8
240.0,62.7,56.9,63.7,61.1,3.7
241.25,63.7,56.6,63.9,61.4,4.1
242.5,63.6,57.2,63.3,61.4,3.6
243.75,64.4,57.0,63.3,61.6,4.0
245.0,63.7,56.9,63.9,61.5,4.0
246.25,63.7,56.8,64.7,61.8,4.3
247.5,64.4,57.4,64.6,62.1,4.1
248.75,62.8,57.7,64.0,61.5,3.4
250.0,63.1,58.2,64.7,62.0,3.4
251.25,63.4,58.1,64.9,62.1,3.6
252.5,63.6,58.2,63.3,61.7,3.0
253.75,63.0,58.2,63.1,61.5,2.8
255.0,62.1,58.7,63.5,61.4,2.4
256.25,62.0,58.4,63.3,61.2,2.6
257.5,61.9,58.9,64.0,61.6,2.6
258.75,61.5,58.5,63.7,61.2,2.6
260.0,61.4,58.0,63.7,61.0,2.9
261.25,61.4,58.0,63.6,61.0,2.8
262.5,60.6,58.7,63.8,61.0,2.6
263.75,60.8,57.9,64.1,60.9,3.1
265.0,60.9,58.4,64.2,61.2,2.9
266.25,60.6,58.3,64.2,61.0,3.0
267.5,60.9,58.6,65.1,61.5,3.3
268.75,60.3,58.5,65.3,61.4,3.6
270.0,60.0,58.8,65.3,61.4,3.5
271.25,60.6,59.4,65.6,61.9,3.3
272.5,60.8,60.4,65.2,62.1,2.7
273.75,60.3,60.1,65.3,61.9,2.9
275.0,60.2,60.3,65.5,62.0,3.1
276.25,60.5,59.9,64.5,61.7,2.5
277.5,60.6,60.7,66.4,62.6,3.3
278.75,61.0,59.7,65.6,62.1,3.1
280.0,60.9,61.3,65.2,62.5,2.4
281.25,61.5,60.6,65.7,62.6,2.7
282.5,61.2,61.2,65.3,62.6,2.4
283.75,60.7,60.7,64.9,62.1,2.4
285.0,61.3,61.6,65.4,62.8,2.3
286.25,59.4,61.6,65.2,62.1,3.0
287.5,60.0,60.7,64.9,61.9,2.6
288.75,58.4,60.3,65.5,61.4,3.6
290.0,58.6,60.4,66.3,61.8,4.0
291.25,59.3,60.4,65.5,61.7,3.3
292.5,58.7,61.3,65.3,61.8,3.3
293.75,58.4,61.0,65.2,61.5,3.5
295.0,59.2,61.0,65.3,61.8,3.1
296.25,59.2,61.3,64.7,61.7,2.8
297.5,58.9,61.1,63.5,61.2,2.3
298.75,58.6,62.6,63.3,61.5,2.5
300.0,59.9,61.3,63.6,61.6,1.9
301.25,59.2,61.8,63.5,61.5,2.1
302.5,60.3,61.3,63.9,61.8,1.9
303.75,60.0,62.3,62.7,61.7,1.5
305.0,59.0,63.3,63.3,61.9,2.5
306.25,59.9,62.8,63.7,62.1,2.0
307.5,59.4,63.9,63.7,62.3,2.5
308.75,59.2,63.9,62.6,61.9,2.4
310.0,59.3,62.9,63.4,61.9,2.2
311.25,60.6,63.0,63.5,62.4,1.5
312.5,61.1,63.5,63.4,62.7,1.4
313.75,60.7,64.7,63.2,62.9,2.0
315.0,60.6,65.1,63.8,63.1,2.3
316.25,60.6,65.2,63.3,63.0,2.3
317.5,60.9,65.6,63.1,63.2,2.4
318.75,60.7,65.5,62.3,62.8,2.5
320.0,61.2,65.8,62.4,63.1,2.4
321.25,61.9,65.6,61.9,63.1,2.2
322.5,61.0,65.7,62.4,63.0,2.4
323.75,60.5,65.3,61.4,62.4,2.5
325.0,60.4,65.4,61.7,62.5,2.6
326.25,61.0,64.6,62.1,62.6,1.9
327.5,59.8,64.8,62.1,62.3,2.5
328.75,61.5,65.2,62.6,63.1,1.9
330.0,62.0,65.1,61.0,62.7,2.1
331.25,60.6,64.3,62.3,62.4,1.8
332.5,60.7,64.1,61.2,62.0,1.8
333.75,59.6,63.8,62.0,61.8,2.1
335.0,60.6,64.7,60.9,62.1,2.3
336.25,60.5,65.4,61.0,62.3,2.7
337.5,60.1,65.5,61.8,62.5,2.8
338.75,60.1,66.0,60.5,62.2,3.3
340.0,60.0,66.3,61.4,62.6,3.3
341.25,60.1,65.9,61.7,62.6,3.0
342.5,60.4,65.6,61.2,62.4,2.8
343.75,61.1,67.0,62.0,63.4,3.2
345.0,61.3,67.5,61.0,63.2,3.6
346.25,59.5,66.6,61.5,62.5,3.7
347.5,59.7,67.2,61.2,62.7,4.0
348.75,60.3,66.5,62.2,63.0,3.2
350.0,58.8,65.5,61.1,61.8,3.4
351.25,58.1,65.5,60.5,61.4,3.8
352.5,57.8,66.6,61.5,61.9,4.4
353.75,56.8,66.4,60.5,61.3,4.9
355.0,57.7,66.1,60.6,61.4,4.3
356.25,57.8,66.1,60.7,61.5,4.2
357.5,57.5,66.1,60.5,61.3,4.4
358.75,57.6,66.2,59.9,61.2,4.4
360.0,59.2,66.9,60.1,62.1,4.2
361.25,58.8,66.2,60.3,61.8,3.9
362.5,59.0,65.9,60.6,61.8,3.6
363.75,59.1,65.3,59.1,61.2,3.6
365.0,58.8,65.6,59.8,61.4,3.7
366.25,59.1,64.8,58.7,60.9,3.4
367.5,59.4,65.4,58.6,61.1,3.7
368.75,59.3,65.5,58.8,61.2,3.7
370.0,58.5,65.9,58.4,60.9,4.3
371.25,59.5,66.7,58.4,61.5,4.5
372.5,59.4,65.0,57.9,60.8,3.8
373.75,59.3,66.3,57.9,61.2,4.5
375.0,59.4,65.8,59.1,61.4,3.8
376.25,59.6,65.7,58.4,61.3,3.9
377.5,59.0,65.9,57.6,60.9,4.4
378.75,59.7,66.1,57.6,61.1,4.4
380.0,60.5,66.4,58.3,61.7,4.2
381.25,59.6,65.7,57.3,60.9,4.3
382.5,60.1,66.7,57.6,61.4,4.7
383.75,60.2,65.6,56.9,60.9,4.4
385.0,59.8,66.0,57.3,61.0,4.5
386.25,60.6,68.1,56.1,61.6,6.1
387.5,59.9,66.3,55.8,60.7,5.3
388.75,60.1,67.3,55.7,61.0,5.9
390.0,61.1,67.1,55.7,61.3,5.7
391.25,60.1,67.4,54.9,60.8,6.3
392.5,60.1,67.0,53.7,60.3,6.6
393.75,59.6,67.6,54.2,60.4,6.7
395.0,60.4,66.2,55.0,60.5,5.6
396.25,59.1,66.8,54.9,60.3,6.1
397.5,59.0,66.6,55.0,60.2,5.9
398.75,59.6,66.2,55.2,60.3,5.6
400.0,58.8,66.2,55.7,60.3,5.3
401.25,59.7,66.3,54.7,60.2,5.9
402.5,60.0,65.5,56.2,60.6,4.7
403.75,59.9,66.1,56.4,60.8,4.9
405.0,60.2,66.2,55.8,60.7,5.2
406.25,61.0,66.1,56.2,61.1,5.0
407.5,60.4,67.0,56.3,61.2,5.4
408.75,60.3,65.5,57.1,61.0,4.2
410.0,60.5,65.0,56.4,60.6,4.3
411.25,60.8,65.6,56.9,61.1,4.4
412.5,60.9,65.4,56.2,60.8,4.6
413.75,60.3,65.6,56.0,60.6,4.8
415.0,60.8,66.6,55.7,61.0,5.5
416.25,58.9,66.1,55.5,60.2,5.4
417.5,60.5,66.4,55.9,60.9,5.2
418.75,59.3,66.5,56.0,60.6,5.4
420.0,59.8,65.3,55.9,60.3,4.7
421.25,60.1,64.9,56.2,60.4,4.4
422.5,61.3,64.4,55.4,60.3,4.6
423.75,61.2,64.1,56.2,60.5,4.0
425.0,61.0,64.4,56.4,60.6,4.0
426.25,60.5,64.6,55.6,60.2,4.5
427.5,60.7,64.8,55.2,60.2,4.8
428.75,60.8,64.8,55.2,60.3,4.9
430.0,60.1,65.3,54.7,60.0,5.3
431.25,61.6,65.0,54.6,60.4,5.3
432.5,62.2,65.8,55.2,61.0,5.3
433.75,61.5,65.3,55.0,60.6,5.2
435.0,61.5,65.0,55.2,60.6,4.9
436.25,61.7,63.9,54.8,60.2,4.8
437.5,62.1,64.5,54.8,60.5,5.1
438.75,62.3,63.5,54.3,60.0,5.0
440.0,62.6,63.5,55.1,60.4,4.6
441.25,62.5,64.0,53.7,60.1,5.6
442.5,62.4,63.4,53.2,59.7,5.6
443.75,61.6,65.0,53.7,60.1,5.8
445.0,62.0,64.7,52.4,59.7,6.4
446.25,61.9,64.8,51.9,59.6,6.8
447.5,62.5,63.8,52.4,59.6,6.2
448.75,62.5,63.1,52.6,59.4,5.9
450.0,62.4,63.1,52.6,59.4,5.9
451.25,62.3,63.1,51.9,59.1,6.3
452.5,61.0,62.3,52.6,58.6,5.3
453.75,60.7,63.1,52.4,58.7,5.6
455.0,61.3,63.1,52.4,58.9,5.7
456.25,61.2,62.9,52.5,58.8,5.6
457.5,61.0,63.0,53.2,59.1,5.2
458.75,61.0,62.5,52.8,58.8,5.2
460.0,61.0,63.2,52.8,59.0,5.5
461.25,59.8,62.8,52.3,58.3,5.4
462.5,61.4,61.7,51.9,58.3,5.6
463.75,62.2,62.2,51.7,58.7,6.1
465.0,62.7,61.9,52.1,58.9,5.9
466.25,62.2,61.4,52.1,58.6,5.6
467.5,63.5,61.3,51.9,58.9,6.2
468.75,63.0,61.9,52.4,59.1,5.8
470.0,61.7,61.5,53.0,58.7,5.0
471.25,61.1,60.9,53.5,58.5,4.3
472.5,61.5,61.2,53.5,58.7,4.5
473.75,61.0,61.8,53.2,58.7,4.7
475.0,60.7,61.6,54.3,58.9,4.0
476.25,60.5,63.3,53.7,59.2,5.0
477.5,60.0,64.6,54.0,59.6,5.3
478.75,59.9,66.2,54.0,60.0,6.1
480.0,59.8,66.8,54.1,60.2,6.4
481.25,59.6,66.7,53.4,59.9,6.6
482.5,59.5,67.6,53.9,60.3,6.9
483.75,58.8,68.3,54.1,60.4,7.2
485.0,58.2,68.2,54.5,60.3,7.1
486.25,56.8,68.9,54.9,60.2,7.6
487.5,57.8,68.0,54.9,60.2,6.9
488.75,56.9,68.4,54.5,59.9,7.4
490.0,57.6,67.4,54.4,59.8,6.8
491.25,58.4,67.5,54.1,60.0,6.9
492.5,57.4,66.2,54.5,59.4,6.1
493.75,57.8,66.3,52.9,59.0,6.8
495.0,58.6,66.6,53.9,59.7,6.4
496.25,59.2,66.6,54.3,60.0,6.2
497.5,59.1,66.6,54.7,60.1,6.0
498.75,58.8,67.6,53.8,60.1,7.0
500.0,58.7,67.1,53.7,59.8,6.8
501.25,59.3,66.9,53.9,60.0,6.5
502.5,59.9,66.4,54.7,60.3,5.8
503.75,59.6,64.4,54.0,59.3,5.2
505.0,59.4,65.9,54.7,60.0,5.6
506.25,60.1,65.1,55.2,60.1,5.0
507.5,60.8,65.5,54.9,60.4,5.3
508.75,61.1,64.6,54.6,60.1,5.1
510.0,60.5,64.1,54.3,59.6,5.0
511.25,60.1,63.5,54.1,59.2,4.8
512.5,59.8,63.6,54.7,59.4,4.5
513.75,59.8,64.2,53.7,59.2,5.3
515.0,60.3,65.7,54.4,60.1,5.6
516.25,59.9,63.8,55.0,59.6,4.4
517.5,58.7,64.7,54.7,59.3,5.0
518.75,58.8,64.9,54.6,59.4,5.2
520.0,60.0,64.3,54.1,59.5,5.1
521.25,58.5,64.7,54.3,59.2,5.3
522.5,58.8,64.0,53.8,58.9,5.1
523.75,58.7,64.4,54.3,59.1,5.1
525.0,58.6,64.3,55.2,59.4,4.6
526.25,58.9,63.5,53.7,58.7,4.9
527.5,58.0,63.6,53.4,58.4,5.1
528.75,57.3,64.0,53.4,58.2,5.3
530.0,56.8,64.5,53.9,58.4,5.5
531.25,57.1,63.6,54.2,58.3,4.8
532.5,57.6,63.6,54.4,58.5,4.7
533.75,57.1,62.9,54.7,58.2,4.2
535.0,57.3,63.2,55.3,58.6,4.1
536.25,56.6,62.7,55.9,58.4,3.7
537.5,57.6,63.5,57.0,59.4,3.6
538.75,56.0,63.7,56.4,58.7,4.4
540.0,56.1,62.3,56.5,58.3,3.5
541.25,55.8,64.2,56.2,58.7,4.7
542.5,55.1,63.6,56.8,58.5,4.5
543.75,55.6,63.4,56.8,58.6,4.2
545.0,56.4,64.5,57.5,59.5,4.4
546.25,56.9,62.8,57.9,59.2,3.1
547.5,57.0,63.4,58.4,59.6,3.4
548.75,57.0,63.7,58.4,59.7,3.5
550.0,55.7,62.6,58.1,58.8,3.5
551.25,55.3,63.6,57.7,58.8,4.3
552.5,55.9,63.5,58.0,59.2,3.9
553.75,55.9,62.2,59.9,59.4,3.2
555.0,55.5,63.7,58.7,59.3,4.1
556.25,55.4,62.8,59.3,59.2,3.7
557.5,56.2,62.3,57.3,58.6,3.2
558.75,56.1,61.9,57.8,58.6,3.0
560.0,55.9,61.9,56.5,58.1,3.3
561.25,56.5,63.0,56.7,58.7,3.7
562.5,55.7,62.0,56.5,58.1,3.4
563.75,55.2,62.1,57.5,58.3,3.5
565.0,55.5,62.8,56.1,58.1,4.1
566.25,55.8,61.7,56.9,58.1,3.1
567.5,55.0,62.1,56.5,57.9,3.8
568.75,55.6,60.7,56.4,57.6,2.7
570.0,55.9,61.8,56.1,57.9,3.4
571.25,54.3,61.3,56.0,57.2,3.6
572.5,54.3,60.4,55.8,56.8,3.2
573.75,54.9,61.0,56.6,57.5,3.2
575.0,54.0,60.7,57.4,57.4,3.3
576.25,54.9,60.6,56.8,57.4,2.9
577.5,55.7,61.7,57.9,58.5,3.0
578.75,55.6,61.1,57.4,58.0,2.8
580.0,55.5,60.6,57.2,57.8,2.6
581.25,55.8,61.3,55.8,57.6,3.2
582.5,55.2,60.9,57.3,57.8,2.9
583.75,54.4,61.6,57.3,57.8,3.6
585.0,54.0,61.3,57.1,57.5,3.6
586.25,54.9,61.1,57.1,57.7,3.1
587.5,55.2,62.1,56.1,57.8,3.7
588.75,55.1,61.3,56.9,57.7,3.2
590.0,54.8,62.4,57.2,58.1,3.9
591.25,55.6,62.0,57.0,58.2,3.4
592.5,54.8,62.2,56.4,57.8,3.9
593.75,55.0,62.8,57.8,58.5,3.9
595.0,55.8,61.9,57.7,58.4,3.1
596.25,55.8,60.9,57.3,58.0,2.6
597.5,55.6,62.0,58.0,58.5,3.2
598.75,55.4,61.4,57.5,58.1,3.1
600.0,55.5,61.9,58.1,58.5,3.2
601.25,55.9,62.1,57.9,58.6,3.2
602.5,55.9,61.5,58.2,58.5,2.8
603.75,55.3,62.3,58.2,58.6,3.5
605.0,55.9,62.6,58.5,59.0,3.4
606.25,55.7,61.5,57.7,58.3,2.9
607.5,55.9,62.0,57.9,58.6,3.1
608.75,56.1,61.7,58.0,58.6,2.9
610.0,57.1,60.9,57.9,58.6,2.0
611.25,56.3,61.5,57.6,58.5,2.7
612.5,56.5,61.6,57.9,58.7,2.6
613.75,57.0,61.4,57.7,58.7,2.4
615.0,57.2,62.4,57.5,59.0,3.0
616.25,57.1,63.0,57.1,59.1,3.4
617.5,57.1,64.0,57.8,59.6,3.8
618.75,57.0,64.0,56.0,59.0,4.4
620.0,57.1,62.5,55.5,58.4,3.7
621.25,58.3,64.5,56.1,59.6,4.4
622.5,57.3,63.8,55.4,58.8,4.4
623.75,56.9,63.5,57.1,59.2,3.7
625.0,57.6,62.9,56.8,59.1,3.3
626.25,56.8,62.0,56.1,58.3,3.2
627.5,58.0,61.4,56.4,58.6,2.6
628.75,57.4,61.0,56.5,58.3,2.4
630.0,58.3,61.3,56.2,58.6,2.5
631.25,57.8,61.9,56.4,58.7,2.9
632.5,59.4,62.3,56.6,59.4,2.9
633.75,58.6,62.9,56.9,59.5,3.1
635.0,58.5,62.9,56.7,59.4,3.2
636.25,58.6,61.9,55.9,58.8,3.0
637.5,59.2,61.5,55.7,58.8,2.9
638.75,59.0,60.6,56.6,58.7,2.1
640.0,59.5,61.1,55.5,58.7,2.9
641.25,58.6,60.3,56.4,58.4,2.0
642.5,58.1,60.1,56.3,58.2,1.9
643.75,58.0,61.7,56.9,58.9,2.5
645.0,58.8,61.4,57.6,59.3,2.0
646.25,58.8,61.6,56.8,59.1,2.4
647.5,58.5,61.7,57.6,59.3,2.2
648.75,59.4,61.0,57.0,59.1,2.0
650.0,59.6,61.5,57.6,59.6,1.9
651.25,59.4,61.4,58.5,59.8,1.5
652.5,59.4,61.9,59.7,60.3,1.4
653.75,59.4,61.3,59.7,60.1,1.0
655.0,59.3,61.6,61.0,60.6,1.2
656.25,59.6,61.2,60.2,60.3,0.8
657.5,58.7,61.8,60.1,60.2,1.6
658.75,59.8,62.0,59.1,60.3,1.5
660.0,59.4,61.6,58.8,59.9,1.5
661.25,59.5,61.3,59.1,60.0,1.2
662.5,58.4,61.4,57.8,59.2,1.9
663.75,58.0,60.7,57.9,58.9,1.6
665.0,58.7,61.5,58.6,59.6,1.6
666.25,58.5,60.7,59.3,59.5,1.1
667.5,58.3,61.1,59.3,59.6,1.4
668.75,58.5,62.0,59.3,59.9,1.9
670.0,58.6,61.9,58.8,59.8,1.8
671.25,59.7,62.3,59.1,60.4,1.7
672.5,59.3,60.8,58.8,59.6,1.0
673.75,60.8,60.7,59.8,60.4,0.5
675.0,60.4,59.8,59.6,59.9,0.4
676.25,59.3,60.1,59.4,59.6,0.5
677.5,59.5,60.0,60.1,59.8,0.3
678.75,59.5,60.0,59.9,59.8,0.3
680.0,59.3,59.3,59.9,59.5,0.4
681.25,58.9,60.1,59.4,59.5,0.6
682.5,60.0,59.5,58.6,59.4,0.8
683.75,59.1,59.2,58.9,59.1,0.2
685.0,58.9,58.2,58.7,58.6,0.4
686.25,59.0,59.1,59.5,59.2,0.3
687.5,59.2,58.9,58.7,58.9,0.3
688.75,59.8,59.5,58.3,59.2,0.8
690.0,59.9,58.8,58.6,59.1,0.7
691.25,59.1,59.2,60.1,59.5,0.6
692.5,59.6,60.1,60.1,59.9,0.3
693.75,60.0,59.7,59.7,59.8,0.1
695.0,60.2,60.6,59.6,60.1,0.5
696.25,60.5,60.8,60.0,60.4,0.4
697.5,59.9,59.1,59.9,59.6,0.4
698.75,59.7,60.2,58.9,59.6,0.6
700.0,59.3,59.5,59.3,59.3,0.1
701.25,59.2,59.6,60.5,59.7,0.7
702.5,59.2,60.2,58.6,59.3,0.8
703.75,58.2,58.6,59.1,58.6,0.4
705.0,58.7,59.1,57.8,58.5,0.7
706.25,57.6,58.6,58.7,58.3,0.6
707.5,59.1,60.1,59.9,59.7,0.5
708.75,59.6,58.8,59.7,59.4,0.5
710.0,59.3,58.8,59.2,59.1,0.3
711.25,58.8,58.5,59.5,58.9,0.5
712.5,59.1,59.3,58.8,59.0,0.2
713.75,59.4,58.4,59.2,59.0,0.6
715.0,60.0,59.2,59.4,59.5,0.4
716.25,60.9,58.9,58.7,59.5,1.2
717.5,60.3,58.7,58.7,59.2,0.9
718.75,60.2,58.2,58.9,59.1,1.0
720.0,60.5,58.2,59.3,59.3,1.2
721.25,60.4,58.4,59.4,59.4,1.0
722.5,59.6,58.4,59.9,59.3,0.8
723.75,59.9,58.4,61.1,59.8,1.4
725.0,58.7,58.4,61.5,59.5,1.7
726.25,60.7,59.1,61.8,60.5,1.4
727.5,59.8,58.4,61.2,59.8,1.4
728.75,60.6,57.7,61.1,59.8,1.8
730.0,60.6,58.3,61.7,60.2,1.7
731.25,60.3,58.7,63.3,60.8,2.4
732.5,61.3,58.5,62.5,60.8,2.0
733.75,61.2,57.8,62.1,60.4,2.3
735.0,61.3,58.6,61.8,60.6,1.8
736.25,62.1,59.1,62.0,61.0,1.7
737.5,63.0,59.0,63.2,61.7,2.4
738.75,62.8,58.7,61.9,61.1,2.1
740.0,63.7,58.7,62.3,61.6,2.6
741.25,64.2,57.9,62.9,61.7,3.3
742.5,63.5,57.2,63.7,61.5,3.7
743.75,63.3,57.9,63.6,61.6,3.2
745.0,63.1,58.4,64.6,62.0,3.3
746.25,63.1,57.5,64.7,61.8,3.8
747.5,62.5,57.5,64.0,61.3,3.4
748.75,62.4,57.2,65.6,61.7,4.2
750.0,62.4,57.7,65.2,61.8,3.8
751.25,62.8,57.5,64.2,61.5,3.6
752.5,63.4,56.9,64.4,61.6,4.1
753.75,64.1,57.9,64.9,62.3,3.8
755.0,63.1,58.1,65.9,62.4,4.0
756.25,64.4,58.7,64.2,62.4,3.2
757.5,63.7,59.7,63.8,62.4,2.4
758.75,63.7,59.1,63.9,62.2,2.7
760.0,64.0,58.6,64.4,62.3,3.2
761.25,64.5,59.2,65.5,63.1,3.4
762.5,65.8,58.2,64.6,62.9,4.1
763.75,65.2,58.9,64.6,62.9,3.5
765.0,66.0,58.7,65.7,63.4,4.1
766.25,65.9,58.8,66.3,63.7,4.2
767.5,66.2,57.7,65.2,63.0,4.7
768.75,66.8,58.0,65.1,63.3,4.6
770.0,66.6,58.6,66.8,64.0,4.6
771.25,66.5,57.6,64.9,63.0,4.7
772.5,65.7,58.3,64.4,62.8,4.0
773.75,66.6,58.7,65.1,63.5,4.2
775.0,67.4,58.2,64.9,63.5,4.8
776.25,67.8,58.6,64.4,63.6,4.7
777.5,67.6,58.3,64.7,63.5,4.8
778.75,68.7,57.6,65.8,64.0,5.7
780.0,69.0,58.5,63.6,63.7,5.2
781.25,69.5,58.2,64.9,64.2,5.7
782.5,69.1,58.9,65.3,64.4,5.1
783.75,68.3,58.4,66.3,64.4,5.3
785.0,68.8,58.6,65.1,64.2,5.2
786.25,68.7,58.1,67.0,64.6,5.7
787.5,67.3,58.0,66.1,63.8,5.1
788.75,67.6,57.1,66.6,63.7,5.8
790.0,66.9,56.3,66.4,63.2,6.0
791.25,66.5,57.7,65.6,63.3,4.8
792.5,66.7,58.0,65.8,63.5,4.8
793.75,66.8,57.9,65.7,63.5,4.8
795.0,67.9,57.6,66.0,63.8,5.5
796.25,68.4,57.4,65.7,63.8,5.7
797.5,69.4,58.8,65.2,64.5,5.3
798.75,69.2,57.7,65.2,64.0,5.8
800.0,70.2,57.7,64.9,64.3,6.3
801.25,69.6,58.1,65.0,64.2,5.8
802.5,69.7,58.5,65.9,64.7,5.7
803.75,68.8,59.0,65.3,64.4,5.0
805.0,68.8,57.3,66.1,64.1,6.1
806.25,68.5,58.2,66.4,64.4,5.5
807.5,69.3,58.7,66.0,64.7,5.4
808.75,68.8,58.7,66.5,64.7,5.3
810.0,68.6,58.9,66.5,64.6,5.1
811.25,67.9,58.9,67.6,64.8,5.1
812.5,70.0,58.3,67.2,65.2,6.1
813.75,69.1,59.2,67.7,65.3,5.4
815.0,69.9,59.1,67.8,65.6,5.7
816.25,70.9,60.2,68.1,66.4,5.5
817.5,69.5,60.4,67.9,65.9,4.9
818.75,70.2,59.0,68.0,65.7,5.9
820.0,70.1,60.4,66.4,65.6,4.9
821.25,71.9,59.6,67.1,66.2,6.2
822.5,71.1,59.7,66.7,65.9,5.7
823.75,70.2,58.5,67.7,65.5,6.2
825.0,70.3,59.9,67.0,65.7,5.3
826.25,69.7,60.5,68.2,66.1,4.9
827.5,70.0,61.2,68.3,66.5,4.7
828.75,70.4,60.9,69.0,66.8,5.2
830.0,69.7,60.8,68.9,66.4,4.9
831.25,70.2,60.7,68.7,66.5,5.1
832.5,69.5,61.6,68.5,66.5,4.3
833.75,69.6,61.3,69.5,66.8,4.8
835.0,69.7,60.6,68.8,66.4,5.0
836.25,69.9,60.8,67.9,66.2,4.8
837.5,68.5,61.5,68.7,66.2,4.1
838.75,69.1,60.8,69.2,66.4,4.8
840.0,69.1,62.3,69.2,66.9,3.9
841.25,69.7,61.3,69.6,66.9,4.8
842.5,69.4,61.5,69.9,66.9,4.7
843.75,70.2,63.0,70.7,68.0,4.3
845.0,70.1,62.5,70.5,67.7,4.5
846.25,69.4,61.7,71.7,67.6,5.2
847.5,70.3,61.9,70.4,67.5,4.9
848.75,70.4,62.6,70.5,67.9,4.5
850.0,71.0,63.3,70.5,68.2,4.3
851.25,69.5,63.3,72.5,68.4,4.7
852.5,70.7,63.4,71.7,68.6,4.5
853.75,69.6,63.4,71.4,68.1,4.2
855.0,69.0,63.2,71.9,68.0,4.4
856.25,70.0,64.0,72.7,68.9,4.4
857.5,70.3,63.4,71.4,68.3,4.3
858.75,71.1,63.4,71.6,68.7,4.6
860.0,70.6,63.4,70.8,68.2,4.2
861.25,70.3,63.6,70.5,68.1,3.9
862.5,70.6,63.8,70.9,68.4,4.0
863.75,70.4,63.0,70.7,68.0,4.4
865.0,70.0,63.6,70.2,67.9,3.7
866.25,69.5,63.8,69.9,67.7,3.4
867.5,70.0,62.4,70.9,67.8,4.7
868.75,71.2,63.2,73.8,69.4,5.5
870.0,71.9,64.1,72.3,69.5,4.6
871.25,71.3,63.4,72.0,68.9,4.8
872.5,71.0,63.4,72.8,69.1,5.0
873.75,70.8,63.5,72.2,68.8,4.7
875.0,70.9,63.2,72.0,68.7,4.8
876.25,71.4,62.8,72.4,68.9,5.2
877.5,70.9,62.5,72.9,68.8,5.5
878.75,70.3,63.1,72.6,68.7,5.0
880.0,70.7,62.7,74.5,69.3,6.0
881.25,71.1,65.8,74.2,70.4,4.3
882.5,71.3,64.4,75.5,70.4,5.6
883.75,71.9,66.8,74.1,71.0,3.7
885.0,70.5,67.5,74.4,70.8,3.4
886.25,72.7,66.1,75.2,71.3,4.7
887.5,71.5,66.9,72.6,70.3,3.0
888.75,71.8,67.3,74.0,71.0,3.4
890.0,72.6,66.4,74.1,71.0,4.1
891.25,72.4,66.1,74.2,70.9,4.2
892.5,72.9,66.8,73.6,71.1,3.7
893.75,73.1,67.3,74.6,71.6,3.9
895.0,72.5,68.8,73.0,71.5,2.3
896.25,73.3,71.6,74.3,73.1,1.4
897.5,73.8,71.3,75.0,73.4,1.9
898.75,74.6,70.1,73.0,72.6,2.3
900.0,73.4,71.3,73.4,72.7,1.2
901.25,73.2,70.9,74.1,72.7,1.7
902.5,72.7,71.3,74.5,72.8,1.6
903.75,73.6,72.0,73.0,72.9,0.8
905.0,73.1,72.3,73.6,73.0,0.6
906.25,72.4,72.9,74.6,73.3,1.1
907.5,72.9,71.1,74.6,72.9,1.8
908.75,72.9,70.6,75.7,73.1,2.5
910.0,72.8,71.2,74.9,73.0,1.8
911.25,72.6,71.3,76.1,73.4,2.5
912.5,73.7,70.4,75.6,73.2,2.6
913.75,74.5,69.0,76.0,73.2,3.7
915.0,74.7,70.6,75.6,73.6,2.7
916.25,75.5,70.8,74.8,73.7,2.5
917.5,76.6,71.0,75.7,74.5,3.0
918.75,76.1,70.7,74.4,73.7,2.7
920.0,75.1,73.0,75.5,74.5,1.3
921.25,74.8,75.0,74.9,74.9,0.1
922.5,76.0,73.5,76.1,75.2,1.5
923.75,76.2,74.1,75.3,75.2,1.0
925.0,76.4,74.2,76.8,75.8,1.4
926.25,75.2,74.9,74.6,74.9,0.3
927.5,75.8,74.4,75.8,75.3,0.8
928.75,77.1,74.4,75.1,75.6,1.4
930.0,77.5,75.4,74.6,75.8,1.5
931.25,77.9,74.9,75.2,76.0,1.6
932.5,76.8,75.4,75.0,75.7,1.0
933.75,76.4,74.2,76.1,75.6,1.2
935.0,77.3,73.6,76.4,75.7,1.9
936.25,77.1,74.7,76.5,76.1,1.2
937.5,76.4,76.2,76.7,76.4,0.3
938.75,76.6,75.0,77.2,76.3,1.1
940.0,76.9,76.2,76.7,76.6,0.4
941.25,77.9,75.0,77.1,76.7,1.5
942.5,79.4,76.7,77.8,78.0,1.3
943.75,80.5,75.7,79.2,78.5,2.5
945.0,78.6,76.4,79.0,78.0,1.4
946.25,79.8,76.9,78.6,78.4,1.5
947.5,80.0,76.8,78.2,78.3,1.6
948.75,79.9,75.5,78.8,78.1,2.3
950.0,79.5,76.9,78.8,78.4,1.3
951.25,80.6,76.2,79.0,78.6,2.3
952.5,80.3,76.9,79.8,79.0,1.8
953.75,80.5,77.1,79.1,78.9,1.7
955.0,80.3,78.1,78.7,79.0,1.1
956.25,80.7,77.7,79.3,79.2,1.5
957.5,81.0,77.3,79.1,79.1,1.8
958.75,81.2,76.5,79.9,79.2,2.4
960.0,81.3,77.1,78.8,79.1,2.1
961.25,81.9,77.3,80.1,79.8,2.3
962.5,80.5,77.4,81.2,79.7,2.0
963.75,80.2,77.8,79.3,79.1,1.2
965.0,80.7,77.4,80.5,79.5,1.9
966.25,80.3,78.8,79.7,79.6,0.8
967.5,82.2,78.2,81.8,80.7,2.2
968.75,81.9,78.7,81.1,80.6,1.6
970.0,83.2,79.7,82.0,81.6,1.8
971.25,82.3,79.1,83.0,81.5,2.1
972.5,83.0,79.4,80.7,81.0,1.9
973.75,82.7,79.1,81.0,80.9,1.8
975.0,83.6,79.1,81.0,81.2,2.3
976.25,84.2,79.4,81.1,81.6,2.4
977.5,84.1,79.1,82.1,81.8,2.5
978.75,83.8,78.9,83.2,82.0,2.7
980.0,83.9,79.7,81.6,81.8,2.1
981.25,82.4,79.8,82.8,81.7,1.6
982.5,83.0,80.3,82.6,82.0,1.5
983.75,84.3,79.6,82.6,82.2,2.4
985.0,84.1,80.2,82.9,82.4,2.0
986.25,83.6,81.6,82.2,82.5,1.0
987.5,84.3,81.1,84.2,83.2,1.8
988.75,85.5,81.0,81.3,82.6,2.5
990.0,85.7,80.5,81.8,82.7,2.7
991.25,86.4,81.5,82.0,83.3,2.7
992.5,86.1,81.8,81.7,83.2,2.5
993.75,86.6,82.6,82.2,83.8,2.5
995.0,88.7,81.7,81.9,84.1,4.0
996.25,86.4,81.6,83.1,83.7,2.5
997.5,87.8,81.5,83.3,84.2,3.2
998.75,86.5,82.7,82.7,84.0,2.1
1000.0,87.3,80.9,84.1,84.1,3.2
1001.25,87.7,81.2,83.1,84.0,3.3
1002.5,88.1,80.8,83.6,84.2,3.7
1003.75,90.1,80.6,83.4,84.7,4.9
1005.0,91.3,82.1,84.3,85.9,4.8
1006.25,88.5,81.3,85.1,85.0,3.6
1007.5,90.6,81.2,84.8,85.5,4.8
1008.75,90.2,81.6,84.5,85.5,4.4
1010.0,90.2,81.7,85.2,85.7,4.3
1011.25,90.3,82.2,85.1,85.8,4.1
1012.5,92.7,82.4,86.4,87.1,5.2
1013.75,91.6,83.3,85.8,86.9,4.3
1015.0,92.5,80.8,86.5,86.6,5.9
1016.25,92.6,82.2,86.1,87.0,5.3
1017.5,93.2,83.3,87.4,88.0,5.0
1018.75,92.3,85.0,86.8,88.1,3.8
1020.0,92.3,83.8,87.7,87.9,4.3
1021.25,94.0,84.7,87.6,88.8,4.7
1022.5,94.3,84.4,87.0,88.6,5.1
1023.75,93.9,86.1,87.2,89.1,4.2
1025.0,93.4,85.6,88.4,89.1,4.0
1026.25,94.9,85.5,88.5,89.6,4.8
1027.5,96.7,86.0,88.9,90.5,5.5
1028.75,96.8,85.3,87.3,89.8,6.1
1030.0,96.1,85.0,88.5,89.9,5.7
1031.25,96.7,86.7,89.1,90.8,5.2
1032.5,96.1,86.6,88.3,90.4,5.1
1033.75,94.9,86.5,88.1,89.8,4.5
1035.0,96.6,86.8,89.0,90.8,5.1
1036.25,99.1,87.4,88.5,91.7,6.4
1037.5,98.4,88.5,88.6,91.8,5.7
1038.75,98.5,87.6,89.0,91.7,5.9
1040.0,99.6,88.0,88.9,92.2,6.5
1041.25,100.3,88.3,90.5,93.0,6.4
1042.5,101.5,88.2,89.3,93.0,7.4
1043.75,100.0,88.0,90.1,92.7,6.4
1045.0,100.8,88.8,89.4,93.0,6.8
1046.25,101.3,88.3,90.6,93.4,6.9
1047.5,102.2,87.8,90.4,93.4,7.7
1048.75,101.7,86.8,90.8,93.1,7.7
1050.0,103.0,89.1,90.7,94.3,7.6
1051.25,102.3,88.3,91.9,94.2,7.3
1052.5,104.2,88.4,92.6,95.1,8.2
1053.75,104.0,90.3,92.0,95.4,7.5
1055.0,104.3,88.7,93.6,95.5,8.0
1056.25,105.6,89.1,93.6,96.1,8.5
1057.5,106.3,90.7,93.9,97.0,8.3
1058.75,105.7,90.4,94.2,96.8,7.9
1060.0,106.0,91.5,95.2,97.6,7.5
1061.25,107.5,90.6,95.9,98.0,8.6
1062.5,106.1,91.8,95.3,97.7,7.4
1063.75,106.1,91.6,96.9,98.2,7.3
1065.0,109.1,91.2,95.1,98.4,9.4
1066.25,108.3,92.9,95.7,99.0,8.2
1067.5,108.4,93.1,97.8,99.8,7.8
1068.75,109.3,92.3,97.4,99.7,8.7
1070.0,110.8,93.5,98.0,100.8,9.0
1071.25,109.6,93.9,97.6,100.4,8.2
1072.5,112.4,93.3,99.1,101.6,9.8
1073.75,111.1,93.1,98.6,100.9,9.3
1075.0,111.5,93.4,98.4,101.1,9.3
1076.25,113.4,92.8,98.9,101.7,10.6
1077.5,113.4,94.1,99.2,102.2,10.0
1078.75,113.4,93.9,101.0,102.8,9.9
1080.0,114.2,93.6,100.7,102.8,10.5
1081.25,115.7,95.1,101.5,104.1,10.5
1082.5,114.5,92.8,103.6,103.6,10.8
1083.75,113.9,93.5,102.9,103.4,10.2
1085.0,117.2,94.4,104.3,105.3,11.4
1086.25,117.3,94.7,104.4,105.5,11.3
1087.5,117.0,95.4,104.4,105.6,10.9
1088.75,117.6,94.5,104.4,105.5,11.6
1090.0,119.2,94.8,105.8,106.6,12.2
1091.25,119.3,96.2,108.4,108.0,11.6
1092.5,119.6,93.5,107.7,106.9,13.0
1093.75,121.6,96.5,107.2,108.4,12.6
1095.0,120.7,94.8,107.5,107.6,12.9
1096.25,119.7,96.5,107.9,108.0,11.6
1097.5,122.7,95.2,107.9,108.6,13.8
1098.75,119.7,95.3,108.3,107.8,12.2
1100.0,119.5,96.7,109.5,108.6,11.4
1101.25,119.9,96.0,108.8,108.2,12.0
1102.5,121.1,97.3,107.7,108.7,11.9
1103.75,119.9,98.5,110.0,109.5,10.7
1105.0,121.4,98.7,110.9,110.4,11.3
1106.25,121.9,98.2,111.8,110.6,11.9
1107.5,121.6,98.7,112.2,110.8,11.5
1108.75,120.4,98.0,111.9,110.1,11.3
1110.0,120.8,100.1,111.3,110.7,10.4
1111.25,122.5,98.4,112.9,111.3,12.1
1112.5,123.6,98.7,112.7,111.6,12.5
1113.75,123.8,99.6,112.4,112.0,12.1
1115.0,122.6,100.4,112.3,111.8,11.2
1116.25,126.0,100.6,113.1,113.3,12.7
1117.5,122.8,101.0,113.8,112.5,10.9
1118.75,123.6,101.1,114.9,113.2,11.3
1120.0,123.4,102.1,114.7,113.4,10.7
1121.25,126.2,102.5,114.9,114.6,11.9
1122.5,126.1,102.9,118.8,115.9,11.8
1123.75,124.4,102.4,116.6,114.5,11.2
1125.0,126.5,103.5,117.8,115.9,11.6
1126.25,125.5,105.5,116.3,115.8,10.0
1127.5,127.0,103.6,117.9,116.2,11.8
1128.75,128.0,102.9,118.3,116.4,12.7
1130.0,128.2,103.2,118.8,116.7,12.7
1131.25,130.0,104.2,118.8,117.7,12.9
1132.5,131.6,103.1,121.8,118.8,14.5
1133.75,128.9,105.7,119.4,118.0,11.7
1135.0,133.2,104.0,119.2,118.8,14.6
1136.25,134.8,105.2,121.2,120.4,14.8
1137.5,131.2,106.4,121.7,119.8,12.5
1138.75,135.4,106.2,123.8,121.8,14.7
1140.0,135.4,107.1,124.6,122.4,14.3
1141.25,135.9,108.1,122.2,122.1,13.9
1142.5,137.0,109.4,122.4,122.9,13.8
1143.75,137.0,107.5,124.0,122.9,14.8
1145.0,137.2,108.4,124.0,123.2,14.4
1146.25,137.5,109.7,123.9,123.7,13.9
1147.5,138.9,109.0,125.8,124.6,15.0
1148.75,139.6,108.6,126.6,124.9,15.5
1150.0,136.6,110.7,126.9,124.8,13.1
1151.25,141.0,108.6,128.4,126.0,16.3
1152.5,141.2,111.0,129.1,127.1,15.2
1153.75,141.4,110.4,131.3,127.7,15.8
1155.0,140.9,111.2,130.1,127.4,15.1
1156.25,145.0,110.0,130.6,128.5,17.6
1157.5,143.6,111.4,130.5,128.5,16.2
1158.75,141.3,113.9,129.4,128.2,13.8
1160.0,145.2,112.3,134.4,130.6,16.8
1161.25,144.6,110.6,131.1,128.7,17.1
1162.5,144.4,111.1,133.5,129.7,17.0
1163.75,144.3,111.7,134.7,130.2,16.8
1165.0,147.1,113.2,134.6,131.6,17.2
1166.25,146.8,113.3,138.4,132.8,17.4
1167.5,149.8,113.2,138.2,133.7,18.7
1168.75,151.4,112.8,137.5,133.9,19.5
1170.0,150.6,114.6,137.4,134.2,18.2
1171.25,152.3,117.1,136.0,135.1,17.6
1172.5,154.2,115.5,136.5,135.4,19.4
1173.75,154.3,116.3,139.6,136.7,19.1
1175.0,156.0,116.9,138.2,137.0,19.6
1176.25,159.7,118.8,139.9,139.5,20.4
1177.5,158.8,116.1,139.7,138.2,21.4
1178.75,159.1,116.8,138.8,138.2,21.2
1180.0,163.3,117.2,142.3,140.9,23.1
1181.25,165.4,117.4,144.8,142.5,24.0
1182.5,165.0,116.2,145.2,142.2,24.5
1183.75,164.7,117.8,145.5,142.7,23.6
1185.0,164.2,116.7,147.1,142.6,24.0
1186.25,165.2,121.8,148.0,145.0,21.9
1187.5,166.7,121.1,146.8,144.9,22.9
1188.75,168.3,118.4,149.7,145.4,25.2
1190.0,173.3,120.6,150.4,148.1,26.4
1191.25,173.4,121.6,151.2,148.7,26.0
1192.5,173.9,123.7,152.8,150.1,25.2
1193.75,175.4,123.9,153.4,150.9,25.8
1195.0,175.0,124.1,155.3,151.5,25.7
1196.25,174.2,123.9,155.9,151.3,25.5
1197.5,179.3,125.8,157.2,154.1,26.9
1198.75,178.6,128.9,157.0,154.8,25.0
1200.0,179.2,128.5,159.4,155.7,25.6
1201.25,181.6,130.8,159.7,157.4,25.5
1202.5,180.6,134.4,164.0,159.7,23.4
1203.75,183.0,132.2,161.7,159.0,25.5
1205.0,184.6,132.4,162.1,159.7,26.1
1206.25,184.7,133.6,164.2,160.8,25.7
1207.5,188.7,136.1,166.5,163.8,26.4
1208.75,186.1,135.2,168.9,163.4,25.9
1210.0,188.7,137.7,171.1,165.8,25.9
1211.25,183.6,138.9,170.7,164.4,23.0
1212.5,189.0,139.1,176.5,168.2,26.0
1213.75,190.7,139.8,172.7,167.7,25.8
1215.0,193.2,138.4,173.1,168.3,27.7
1216.25,198.0,139.8,178.2,172.0,29.6
1217.5,196.8,140.2,180.5,172.5,29.1
1218.75,200.2,140.9,182.1,174.4,30.4
1220.0,198.8,139.8,188.7,175.8,31.6
1221.25,197.3,142.0,187.6,175.6,29.5
1222.5,195.4,139.1,188.6,174.3,30.7
1223.75,198.4,139.5,192.0,176.6,32.4
1225.0,197.5,142.7,188.0,176.1,29.3
1226.25,196.7,140.4,188.6,175.2,30.5
1227.5,199.5,143.1,193.6,178.7,31.0
1228.75,198.7,145.3,191.5,178.5,29.0
1230.0,198.2,143.7,195.6,179.2,30.7
1231.25,204.5,144.4,197.5,182.1,32.9
1232.5,200.2,145.4,199.8,181.8,31.5
1233.75,198.0,146.3,197.1,180.5,29.6
1235.0,199.9,147.2,199.0,182.0,30.2
1236.25,201.4,147.1,200.7,183.1,31.1
1237.5,202.0,148.6,205.5,185.4,31.9
1238.75,203.5,146.5,206.3,185.4,33.7
1240.0,207.1,149.3,202.5,186.3,32.1
1241.25,207.3,147.5,206.3,187.0,34.2
1242.5,207.7,148.1,208.2,188.0,34.6
1243.75,205.4,148.7,208.5,187.5,33.7
1245.0,204.8,150.1,213.5,189.5,34.4
1246.25,207.8,150.7,214.7,191.1,35.1
1247.5,212.2,150.6,212.6,191.8,35.7
1248.75,204.2,152.5,218.3,191.6,34.6
1250.0,205.2,152.9,220.1,192.7,35.3
1251.25,209.7,153.7,221.3,194.9,36.1
1252.5,211.8,154.6,222.5,196.3,36.5
1253.75,213.5,151.5,222.3,195.8,38.6
1255.0,218.3,152.6,224.4,198.4,39.8
1256.25,215.2,152.9,229.0,199.1,40.6
1257.5,217.2,153.8,224.3,198.4,38.8
1258.75,211.6,157.1,227.9,198.9,37.1
1260.0,208.5,155.5,227.0,197.0,37.1
1261.25,214.0,155.8,229.3,199.7,38.8
1262.5,212.8,157.7,230.5,200.3,38.0
1263.75,212.7,158.2,233.5,201.5,38.9
1265.0,213.1,160.0,235.0,202.7,38.6
1266.25,212.0,161.8,235.7,203.2,37.7
1267.5,211.5,163.0,234.5,203.0,36.5
1268.75,216.3,161.9,234.7,204.3,37.9
1270.0,210.8,163.4,236.3,203.5,37.0
1271.25,213.1,166.0,233.1,204.0,34.5
1272.5,208.5,163.7,237.1,203.1,37.0
1273.75,208.0,166.3,233.3,202.5,33.9
1275.0,209.7,164.9,236.6,203.7,36.2
1276.25,212.0,168.9,230.7,203.9,31.7
1277.5,210.0,168.4,231.8,203.4,32.2
1278.75,210.1,172.3,232.9,205.1,30.6
1280.0,206.6,175.8,236.5,206.3,30.4
1281.25,207.1,173.9,229.7,203.6,28.1
1282.5,205.3,177.3,227.5,203.3,25.2
1283.75,203.5,180.6,226.8,203.6,23.1
1285.0,200.6,179.6,230.1,203.4,25.4
1286.25,199.2,180.6,230.1,203.3,25.0
1287.5,205.4,182.4,229.5,205.8,23.5
1288.75,201.0,186.2,231.5,206.2,23.1
1290.0,199.7,188.4,229.1,205.7,21.0
1291.25,200.5,192.1,228.2,206.9,18.9
1292.5,193.8,192.4,232.0,206.1,22.5
1293.75,195.5,194.7,226.4,205.6,18.1
1295.0,195.1,196.6,224.7,205.5,16.6
1296.25,189.9,194.3,227.0,203.7,20.3
1297.5,190.3,196.4,226.5,204.4,19.4
1298.75,188.5,199.4,230.9,206.2,22.0
1300.0,188.9,200.8,225.5,205.1,18.7
1301.25,187.4,203.4,230.5,207.1,21.8
1302.5,187.1,207.2,229.3,207.9,21.1
1303.75,187.3,208.1,228.0,207.8,20.4
1305.0,185.7,210.3,229.1,208.4,21.8
1306.25,185.3,211.4,231.7,209.4,23.3
1307.5,185.4,210.0,230.1,208.5,22.4
1308.75,182.0,211.3,221.7,205.0,20.6
1310.0,181.1,216.5,225.1,207.5,23.3
1311.25,176.9,214.9,227.6,206.5,26.4
1312.5,172.6,214.4,222.9,203.3,26.9
1313.75,175.1,218.1,219.5,204.2,25.2
1315.0,170.4,215.1,223.3,202.9,28.4
1316.25,171.6,217.4,217.4,202.1,26.5
1317.5,166.2,222.8,210.4,199.8,29.8
1318.75,167.4,220.1,207.4,198.3,27.5
1320.0,165.6,216.9,208.2,196.9,27.4
1321.25,165.6,214.9,204.3,194.9,25.9
1322.5,165.6,215.7,202.6,194.6,26.0
1323.75,161.8,218.1,200.3,193.4,28.7
1325.0,163.5,214.1,194.4,190.7,25.5
1326.25,162.8,208.9,193.1,188.3,23.4
1327.5,157.7,213.1,189.7,186.8,27.9
1328.75,157.9,210.0,186.4,184.8,26.1
1330.0,156.1,209.4,181.6,182.4,26.7
1331.25,154.4,208.4,177.9,180.2,27.1
1332.5,153.7,209.2,175.4,179.4,28.0
1333.75,152.6,211.3,172.8,178.9,29.8
1335.0,151.5,205.8,171.1,176.2,27.5
1336.25,151.7,205.9,166.2,174.6,28.0
1337.5,148.9,209.8,165.7,174.8,31.5
1338.75,148.2,207.8,164.4,173.5,30.8
1340.0,149.8,205.3,161.0,172.1,29.3
1341.25,146.5,205.8,156.8,169.7,31.7
1342.5,143.3,203.3,154.5,167.1,31.9
1343.75,144.6,203.3,153.7,167.2,31.6
1345.0,142.0,200.4,153.1,165.2,31.0
1346.25,142.6,199.9,151.8,164.7,30.8
1347.5,142.7,199.2,149.6,163.8,30.8
1348.75,139.1,199.2,145.0,161.1,33.1
1350.0,143.7,197.0,146.1,162.3,30.1
1351.25,139.3,197.5,144.0,160.3,32.3
1352.5,137.9,196.0,142.6,158.8,32.2
1353.75,138.8,194.8,139.1,157.6,32.2
1355.0,137.3,197.0,138.4,157.6,34.2
1356.25,136.4,194.9,137.0,156.1,33.6
1357.5,134.4,201.0,137.2,157.5,37.7
1358.75,134.1,195.1,134.2,154.5,35.2
1360.0,131.7,193.3,133.6,152.8,35.0
1361.25,131.8,192.8,132.5,152.4,35.0
1362.5,132.1,194.3,129.7,152.0,36.6
1363.75,130.1,192.1,131.0,151.1,35.5
1365.0,129.6,190.8,129.8,150.1,35.3
1366.25,129.9,191.1,129.4,150.2,35.5
1367.5,128.2,189.6,126.9,148.2,35.8
1368.75,127.5,187.1,128.5,147.7,34.1
1370.0,123.8,184.5,126.6,145.0,34.3
1371.25,125.6,188.6,124.1,146.1,36.8
1372.5,122.3,186.1,126.9,145.1,35.6
1373.75,123.7,184.7,124.8,144.4,34.9
1375.0,121.9,183.8,124.3,143.4,35.1
1376.25,119.1,180.0,123.1,140.7,34.1
1377.5,119.5,183.3,120.3,141.0,36.6
1378.75,121.8,175.9,119.8,139.1,31.8
1380.0,120.5,178.8,120.1,139.8,33.8
1381.25,118.2,175.0,117.8,137.0,32.9
1382.5,115.9,174.8,116.4,135.7,33.8
1383.75,114.6,170.1,116.9,133.8,31.4
1385.0,113.0,166.9,115.0,131.6,30.6
1386.25,114.9,164.4,115.5,131.6,28.4
1387.5,111.6,164.4,114.5,130.2,29.7
1388.75,111.5,162.9,112.2,128.9,29.5
1390.0,109.2,157.3,113.1,126.5,26.7
1391.25,109.4,157.7,112.3,126.5,27.1
1392.5,107.7,156.0,113.9,125.9,26.3
1393.75,108.4,156.3,110.0,124.9,27.2
1395.0,106.7,152.3,110.6,123.2,25.3
1396.25,107.0,152.5,107.0,122.1,26.3
1397.5,104.0,149.0,105.9,119.6,25.5
1398.75,105.3,148.4,105.7,119.8,24.8
1400.0,102.4,148.5,103.7,118.2,26.2
1401.25,102.5,147.1,101.8,117.1,25.9
1402.5,101.6,142.9,101.9,115.5,23.8
1403.75,101.2,144.0,102.9,116.0,24.2
1405.0,100.5,144.2,100.7,115.1,25.2
1406.25,99.0,140.8,99.9,113.2,23.8
1407.5,100.0,139.8,98.6,112.8,23.4
1408.75,100.4,139.8,96.8,112.3,23.9
1410.0,98.7,138.1,97.3,111.4,23.2
1411.25,99.5,138.7,95.9,111.4,23.7
1412.5,99.2,134.5,96.9,110.2,21.1
1413.75,98.0,134.3,93.2,108.5,22.4
1415.0,96.6,134.3,93.4,108.1,22.8
1416.25,95.5,129.5,92.3,105.8,20.7
1417.5,95.6,128.7,91.8,105.4,20.3
1418.75,93.1,128.7,88.5,103.5,22.0
1420.0,93.6,124.3,90.5,102.8,18.7
1421.25,92.1,122.3,90.8,101.7,17.9
1422.5,90.9,122.1,90.0,101.0,18.3
1423.75,89.5,121.5,88.3,99.8,18.8
1425.0,88.7,120.4,88.4,99.2,18.4
1426.25,87.0,118.5,86.6,97.4,18.3
1427.5,87.1,116.8,87.0,97.0,17.2
1428.75,84.9,117.4,85.5,96.0,18.6
1430.0,83.1,117.4,84.3,94.9,19.5
1431.25,83.1,116.2,83.8,94.3,18.9
1432.5,82.1,114.8,82.4,93.1,18.8
1433.75,80.8,114.6,81.1,92.1,19.4
1435.0,80.4,111.7,78.9,90.3,18.5
1436.25,79.0,111.8,78.4,89.7,19.1
1437.5,79.0,111.7,77.2,89.3,19.4
1438.75,77.7,111.6,76.1,88.5,20.0
1440.0,76.7,108.1,74.8,86.5,18.7
1441.25,75.6,109.4,74.6,86.5,19.8
1442.5,73.6,105.6,71.8,83.6,19.0
1443.75,74.6,105.3,70.7,83.6,19.0
1445.0,73.2,105.3,69.7,82.7,19.6
1446.25,70.3,103.3,68.9,80.8,19.4
1447.5,69.5,103.2,68.5,80.4,19.8
1448.75,68.4,101.8,66.7,78.9,19.8
1450.0,66.3,100.8,67.4,78.1,19.6
1451.25,65.6,100.8,64.4,76.9,20.7
1452.5,65.1,99.5,64.6,76.4,20.0
1453.75,62.6,98.0,62.9,74.5,20.4
1455.0,61.7,98.2,62.5,74.1,20.8
1456.25,59.9,98.9,60.9,73.2,22.2
1457.5,58.4,96.7,60.8,72.0,21.4
1458.75,57.4,95.2,60.9,71.2,20.9
1460.0,56.7,94.5,60.3,70.5,20.9
1461.25,56.0,95.5,58.7,70.1,22.1
1462.5,54.6,92.6,58.6,68.6,20.9
1463.75,55.3,91.2,57.3,67.9,20.2
1465.0,54.5,89.8,56.4,66.9,19.9
1466.25,54.8,89.8,55.4,66.7,20.0
1467.5,53.8,88.3,54.9,65.7,19.6
1468.75,52.6,86.4,54.4,64.5,19.0
1470.0,53.2,87.7,53.8,64.9,19.8
1471.25,52.3,84.4,53.6,63.4,18.2
1472.5,51.1,85.4,51.8,62.8,19.6
1473.75,51.0,83.3,50.8,61.7,18.7
1475.0,49.3,81.5,50.3,60.4,18.3
1476.25,49.4,80.6,50.1,60.0,17.8
1477.5,48.1,78.9,49.9,59.0,17.3
1478.75,48.7,79.7,49.4,59.3,17.7
1480.0,48.6,76.9,48.6,58.0,16.3
1481.25,47.1,76.8,47.5,57.1,17.0
1482.5,46.0,75.4,48.1,56.5,16.4
1483.75,45.4,76.9,47.6,56.6,17.6
1485.0,47.2,75.7,47.1,56.7,16.5
1486.25,45.1,75.2,47.4,55.9,16.7
1487.5,45.4,74.1,46.6,55.4,16.2
1488.75,43.5,72.8,46.0,54.1,16.3
1490.0,42.8,71.1,45.7,53.2,15.6
1491.25,42.6,70.3,45.5,52.8,15.2
1492.5,42.3,69.6,44.1,52.0,15.3
1493.75,43.0,68.4,43.8,51.7,14.4
1495.0,42.4,66.7,44.3,51.1,13.5
1496.25,42.2,66.0,43.2,50.5,13.5
1497.5,41.9,66.1,43.4,50.5,13.6
1498.75,41.6,64.4,43.5,49.8,12.6
1500.0,41.3,63.3,42.3,49.0,12.4
1501.25,41.2,63.0,43.1,49.1,12.1
1502.5,40.8,62.1,42.9,48.6,11.7
1503.75,40.9,61.5,41.9,48.1,11.6
1505.0,40.9,59.9,42.4,47.7,10.6
1506.25,41.1,60.6,42.1,48.0,11.0
1507.5,40.0,61.3,41.7,47.7,11.8
1508.75,41.0,60.4,42.0,47.8,10.9
1510.0,40.4,59.2,42.3,47.3,10.4
1511.25,39.9,58.2,42.2,46.8,10.0
1512.5,40.1,56.9,42.0,46.3,9.2
1513.75,39.6,57.7,41.8,46.4,9.9
1515.0,40.1,56.2,41.6,46.0,8.9
1516.25,39.9,55.4,41.0,45.4,8.6
1517.5,40.6,54.4,40.7,45.2,7.9
1518.75,39.9,54.8,41.0,45.2,8.3
1520.0,38.8,53.7,41.2,44.6,8.0
1521.25,39.7,53.1,40.9,44.6,7.4
1522.5,38.7,52.6,40.9,44.1,7.5
1523.75,38.8,52.2,40.5,43.8,7.3
1525.0,38.5,51.8,39.7,43.3,7.4
1526.25,38.1,50.4,40.1,42.9,6.6
1527.5,38.0,50.3,39.2,42.5,6.8
1528.75,37.6,50.4,38.7,42.3,7.1
1530.0,37.3,51.6,38.0,42.3,8.0
1531.25,37.8,50.9,37.6,42.1,7.6
1532.5,37.2,51.1,38.0,42.1,7.8
1533.75,37.7,50.4,36.9,41.7,7.6
1535.0,37.4,50.7,36.9,41.7,7.9
1536.25,37.7,49.5,35.9,41.0,7.4
1537.5,36.9,49.4,36.1,40.8,7.5
1538.75,37.0,48.9,36.4,40.8,7.0
1540.0,36.2,47.7,36.2,40.0,6.6
1541.25,36.2,47.7,35.9,39.9,6.7
1542.5,36.2,46.9,36.3,39.8,6.2
1543.75,36.5,46.3,36.2,39.6,5.8
1545.0,36.8,46.4,35.6,39.6,5.9
1546.25,36.5,46.0,35.7,39.4,5.7
1547.5,36.8,45.2,35.2,39.0,5.4
1548.75,36.2,44.8,34.4,38.5,5.6
1550.0,36.4,45.1,35.2,38.9,5.4
1551.25,36.4,44.3,35.0,38.6,5.0
1552.5,36.7,44.5,35.0,38.7,5.1
1553.75,36.8,43.7,34.9,38.5,4.6
1555.0,36.2,42.6,34.9,37.9,4.1
1556.25,36.8,42.2,34.7,37.9,3.9
1557.5,36.6,42.2,34.5,37.8,4.0
1558.75,36.7,40.9,34.2,37.3,3.4
1560.0,36.1,41.1,33.6,36.9,3.8
1561.25,36.1,40.4,33.5,36.7,3.5
1562.5,35.4,40.3,34.2,36.7,3.2
1563.75,35.1,39.6,34.5,36.4,2.8
1565.0,35.0,38.6,34.1,35.9,2.4
1566.25,35.3,38.8,34.7,36.3,2.2
1567.5,34.2,37.7,34.3,35.4,2.0
1568.75,34.4,38.1,34.4,35.7,2.1
1570.0,34.0,38.9,34.6,35.8,2.7
1571.25,34.9,38.4,34.5,36.0,2.2
1572.5,35.0,38.5,34.9,36.2,2.0
1573.75,35.5,39.1,34.4,36.3,2.5
1575.0,34.9,39.0,34.2,36.0,2.6
1576.25,35.5,38.9,33.9,36.1,2.6
1577.5,35.0,38.7,33.7,35.8,2.6
1578.75,34.2,38.3,33.8,35.4,2.5
1580.0,34.4,37.4,33.8,35.2,2.0
1581.25,33.3,37.3,34.0,34.9,2.1
1582.5,33.5,37.4,33.9,34.9,2.1
1583.75,33.2,37.4,34.2,34.9,2.2
1585.0,33.4,37.3,33.8,34.8,2.1
1586.25,33.2,37.1,33.8,34.7,2.1
1587.5,33.4,36.5,33.6,34.5,1.7
1588.75,33.5,36.6,33.8,34.6,1.7
1590.0,33.2,36.1,34.2,34.5,1.5
1591.25,33.0,36.0,33.8,34.3,1.6
1592.5,33.1,35.3,33.9,34.1,1.1
1593.75,33.4,35.6,33.6,34.2,1.2
1595.0,33.7,35.2,33.1,34.0,1.1
1596.25,33.6,34.3,32.9,33.6,0.7
1597.5,33.8,35.0,32.9,33.9,1.1
1598.75,33.4,34.9,32.6,33.6,1.2
1600.0,33.9,36.1,32.4,34.1,1.8
1601.25,34.1,35.5,32.2,33.9,1.7
1602.5,34.0,35.3,31.9,33.7,1.7
1603.75,33.2,34.9,32.5,33.6,1.2
1605.0,32.8,35.1,32.0,33.3,1.6
1606.25,32.0,34.8,32.2,33.0,1.6
1607.5,31.4,34.2,31.7,32.4,1.6
1608.75,31.1,33.2,32.1,32.1,1.1
1610.0,31.4,33.5,32.4,32.4,1.0
1611.25,31.4,33.5,32.1,32.3,1.1
1612.5,31.1,33.9,32.4,32.4,1.4
1613.75,32.0,34.5,31.7,32.8,1.5
1615.0,31.8,34.6,31.9,32.8,1.6
1616.25,31.9,35.3,32.3,33.2,1.8
1617.5,32.3,35.3,32.3,33.3,1.7
1618.75,32.5,34.3,32.7,33.1,1.0
1620.0,32.0,34.4,32.2,32.9,1.3
1621.25,31.2,33.9,32.2,32.4,1.3
1622.5,30.9,33.9,32.4,32.4,1.5
1623.75,30.4,33.0,31.9,31.8,1.3
1625.0,31.2,32.8,32.1,32.0,0.8
1626.25,31.3,32.8,31.2,31.8,0.9
1627.5,31.7,32.9,31.7,32.1,0.7
1628.75,32.0,33.1,31.7,32.3,0.8
1630.0,32.4,32.6,31.6,32.2,0.5
1631.25,32.4,32.3,31.2,32.0,0.7
1632.5,31.9,32.8,31.2,32.0,0.8
1633.75,32.4,33.3,31.5,32.4,0.9
1635.0,32.3,33.0,31.3,32.2,0.9
1636.25,32.3,32.6,31.2,32.0,0.7
1637.5,32.1,33.0,31.7,32.3,0.7
1638.75,32.6,33.0,31.8,32.4,0.6
1640.0,32.8,33.3,32.1,32.7,0.6
1641.25,32.4,32.9,31.8,32.3,0.6
1642.5,32.5,33.8,31.7,32.6,1.1
1643.75,32.8,32.2,32.3,32.4,0.3
1645.0,32.5,32.2,32.0,32.2,0.3
1646.25,32.4,31.3,31.5,31.7,0.6
1647.5,32.4,31.2,31.3,31.6,0.7
1648.75,32.0,30.8,30.9,31.2,0.6
1650.0,31.6,31.5,30.7,31.2,0.5
1651.25,31.0,31.2,31.9,31.4,0.5
1652.5,31.3,30.3,31.2,31.0,0.5
1653.75,31.6,30.0,31.5,31.0,0.8
1655.0,31.7,,32.0,31.8,0.2
1656.25,31.6,,31.2,31.4,0.3
1657.5,32.4,,31.3,31.9,0.8
1658.75,32.3,,30.9,31.6,1.0
1660.0,31.9,,31.7,31.8,0.2
1661.25,31.4,,31.6,31.5,0.2
1662.5,31.3,,32.0,31.7,0.5
1663.75,30.3,,31.7,31.0,1.0
1665.0,29.7,,32.3,31.0,1.8
1666.25,29.3,,31.7,30.5,1.7
1667.5,29.1,,32.0,30.6,2.0
1668.75,29.6,,31.6,30.6,1.4
1670.0,30.2,,31.3,30.8,0.8
1671.25,30.1,,32.6,31.4,1.7
1672.5,30.4,,31.3,30.9,0.6
1673.75,30.8,,31.5,31.1,0.5
1675.0,30.6,,30.9,30.7,0.2
1676.25,31.1,,30.6,30.8,0.4
1677.5,31.2,,30.3,30.7,0.6
1678.75,31.2,,30.4,30.8,0.6
1680.0,31.1,,30.3,30.7,0.6
1681.25,31.2,,29.9,30.5,0.9
1682.5,31.3,,29.7,30.5,1.1
1683.75,30.6,,29.9,30.2,0.5
1685.0,30.9,,30.0,30.5,0.7
1686.25,30.1,,29.5,29.8,0.5
1687.5,30.4,,29.5,30.0,0.7
1688.75,30.6,,30.5,30.5,0.1
1690.0,30.2,,30.4,30.3,0.1
1691.25,30.2,,30.3,30.3,0.0
1692.5,30.9,,31.3,31.1,0.3
1693.75,30.1,,31.5,30.8,1.0
1695.0,30.0,,,30.0,
1696.25,30.2,,,30.2,
1697.5,29.5,,,29.5,
1698.75,29.5,,,29.5,
1700.0,29.6,,,29.6,
1701.25,29.1,,,29.1,
1702.5,29.2,,,29.2,
1703.75,29.6,,,29.6,
1705.0,29.9,,,29.9,
1706.25,29.9,,,29.9,
1707.5,30.1,,,30.1,
1708.75,30.2,,,30.2,
1710.0,30.4,,,30.4,
1711.25,30.3,,,30.3,
1712.5,30.2,,,30.2,
1713.75,30.0,,,30.0,
1715.0,30.3,,,30.3,
1716.25,30.6,,,30.6,
1717.5,30.6,,,30.6,
1718.75,30.0,,,30.0,
1720.0,29.5,,,29.5,
1721.25,29.7,,,29.7,
1722.5,30.3,,,30.3,
1723.75,30.5,,,30.5,
1725.0,30.8,,,30.8,
1726.25,30.6,,,30.6,
1727.5,30.0,,,30.0,
1728.75,30.3,,,30.3,
1730.0,30.2,,,30.2,
1731.25,29.4,,,29.4,
1732.5,29.6,,,29.6,
1733.75,29.8,,,29.8,
1735.0,29.3,,,29.3,
1736.25,29.2,,,29.2,
1737.5,29.5,,,29.5,
1738.75,29.6,,,29.6,
1740.0,29.5,,,29.5,
1741.25,29.9,,,29.9,
1742.5,30.3,,,30.3,
1743.75,30.9,,,30.9,
1745.0,31.5,,,31.5,
1746.25,31.7,,,31.7,
1747.5,31.5,,,31.5,
1748.75,31.5,,,31.5,
1750.0,31.3,,,31.3,
1751.25,31.1,,,31.1,
1752.5,31.4,,,31.4,
1753.75,31.1,,,31.1,
1755.0,31.4,,,31.4,
1756.25,31.2,,,31.2,
1757.5,31.2,,,31.2,
1758.75,30.9,,,30.9,
1760.0,31.4,,,31.4,
1761.25,31.7,,,31.7,
1762.5,32.5,,,32.5,
1763.75,32.7,,,32.7,
1765.0,33.1,,,33.1,
1766.25,32.6,,,32.6,
1767.5,32.3,,,32.3,
1768.75,31.3,,,31.3,
1770.0,31.0,,,31.0,
1771.25,30.7,,,30.7,
1772.5,30.5,,,30.5,
1773.75,30.6,,,30.6,
1775.0,30.2,,,30.2,
1776.25,30.1,,,30.1,
1777.5,30.4,,,30.4,
1778.75,30.7,,,30.7,
1780.0,31.0,,,31.0,
1781.25,30.8,,,30.8,
1782.5,31.1,,,31.1,
1783.75,31.0,,,31.0,
1785.0,31.3,,,31.3,
1786.25,31.8,,,31.8,
1787.5,30.9,,,30.9,
1788.75,30.6,,,30.6,
1790.0,30.2,,,30.2,
1791.25,30.0,,,30.0,
1792.5,29.8,,,29.8,
1793.75,29.0,,,29.0,
1795.0,29.1,,,29.1,
1796.25,29.2,,,29.2,
1797.5,29.5,,,29.5,
1798.75,30.1,,,30.1,
1800.0,30.5,,,30.5,
1801.25,30.7,,,30.7,
1802.5,31.4,,,31.4,
1803.75,31.0,,,31.0,
1805.0,31.0,,,31.0,
1806.25,32.0,,,32.0,
1807.5,32.1,,,32.1,
1808.75,31.8,,,31.8,
1810.0,32.3,,,32.3,
1811.25,32.5,,,32.5,
1812.5,32.6,,,32.6,
1813.75,32.9,,,32.9,
1815.0,32.9,,,32.9,
1816.25,33.2,,,33.2,
1817.5,32.7,,,32.7,
1818.75,32.7,,,32.7,
1820.0,33.0,,,33.0,
1821.25,32.5,,,32.5,
1822.5,32.2,,,32.2,
1823.75,32.0,,,32.0,
1825.0,32.5,,,32.5,
1826.25,32.5,,,32.5,
1827.5,33.0,,,33.0,
1828.75,33.4,,,33.4,
1830.0,32.7,,,32.7,
1831.25,32.9,,,32.9,
1832.5,33.0,,,33.0,
1833.75,32.1,,,32.1,
1835.0,31.9,,,31.9,
1836.25,31.1,,,31.1,
1837.5,31.2,,,31.2,
1838.75,30.4,,,30.4,
1840.0,29.9,,,29.9,
1841.25,29.8,,,29.8,
1842.5,29.5,,,29.5,
1843.75,30.2,,,30.2,
1845.0,30.3,,,30.3,
1846.25,30.3,,,30.3,
1847.5,30.5,,,30.5,
1848.75,30.3,,,30.3,
1850.0,30.0,,,30.0,
1851.25,30.2,,,30.2,
1852.5,30.2,,,30.2,
1853.75,30.3,,,30.3,
1855.0,30.0,,,30.0,
1856.25,30.2,,,30.2,
1857.5,30.2,,,30.2,
1858.75,30.6,,,30.6,
1860.0,29.1,,,29.1,
1861.25,28.8,,,28.8,
1862.5,28.0,,,28.0,
1863.25,27.8,,,27.8,