File: 01_Data/Eucalyptus_Flooring/Cone/Eucalyptus_Flooring_HRRPUA_75.csv
Time after Ignition,Eucalyptus_Flooring_R1,Eucalyptus_Flooring_R2,Eucalyptus_Flooring_R3,Mean,Std. Dev.
0.0,16.9,14.8,15.1,15.6,1.1
4.5,283.8,151.3,275.8,237.0,74.3
9.0,490.7,415.2,540.7,482.2,63.2
13.5,569.0,572.8,578.1,573.3,4.6
18.0,496.4,530.5,473.4,500.1,28.7
22.5,405.0,402.7,386.4,398.1,10.1
27.0,325.4,333.5,315.0,324.6,9.3
31.5,288.4,292.6,280.4,287.1,6.2
36.0,255.2,266.2,253.9,258.4,6.7
40.5,237.4,251.8,243.3,244.2,7.3
45.0,218.2,234.0,220.6,224.3,8.5
49.5,214.0,224.1,209.1,215.8,7.6
54.0,205.3,213.0,201.0,206.4,6.0
58.5,194.9,209.4,191.6,198.6,9.5
63.0,189.5,209.0,184.0,194.1,13.1
67.5,187.5,201.8,181.4,190.2,10.5
72.0,183.6,192.4,178.8,184.9,6.9
76.5,183.3,183.6,180.0,182.3,2.0
81.0,180.5,181.5,177.1,179.7,2.3
85.5,180.6,182.1,174.9,179.2,3.8
90.0,178.1,180.3,172.6,177.0,4.0
94.5,174.4,176.9,168.9,173.4,4.1
99.0,174.3,171.4,166.0,170.5,4.2
103.5,172.9,165.9,162.4,167.1,5.3
108.0,170.8,167.5,160.4,166.2,5.3
112.5,168.0,160.0,159.5,162.5,4.8
117.0,166.1,160.2,157.3,161.2,4.5
121.5,160.9,154.7,159.5,158.4,3.2
126.0,159.7,155.5,157.7,157.7,2.1
130.5,157.5,155.8,151.5,155.0,3.1
135.0,153.3,154.3,147.6,151.7,3.6
139.5,150.2,153.6,148.9,150.9,2.4
144.0,149.3,155.2,151.0,151.8,3.0
148.5,145.7,152.3,148.3,148.7,3.3
153.0,142.6,152.4,149.3,148.1,5.0
157.5,143.4,149.5,149.6,147.5,3.6
162.0,140.9,147.0,148.6,145.5,4.0
166.5,140.2,147.2,145.0,144.1,3.6
171.0,141.3,145.6,145.3,144.1,2.4
175.5,140.2,145.1,147.6,144.3,3.8
180.0,141.3,145.3,147.5,144.7,3.2
184.5,140.2,145.8,144.8,143.6,3.0
189.0,139.2,141.6,144.9,141.9,2.8
193.5,139.1,139.1,145.9,141.4,3.9
198.0,140.4,142.1,145.4,142.7,2.5
202.5,139.2,144.3,147.9,143.8,4.4
207.0,140.7,142.8,141.8,141.8,1.0
211.5,139.6,141.3,143.9,141.6,2.2
216.0,140.7,141.2,144.4,142.1,2.0
220.5,138.9,143.8,144.2,142.3,2.9
225.0,141.6,144.2,144.6,143.5,1.6
229.5,140.1,142.7,142.3,141.7,1.4
234.0,141.9,139.9,144.3,142.0,2.2
238.5,144.2,142.9,143.4,143.5,0.7
243.0,142.5,145.0,143.9,143.8,1.2
247.5,145.8,140.6,145.3,143.9,2.9
252.0,142.9,143.9,144.7,143.9,0.9
256.5,143.2,143.9,145.3,144.2,1.0
261.0,143.5,144.2,145.9,144.5,1.2
265.5,140.9,143.5,145.8,143.4,2.5
270.0,139.2,145.3,145.7,143.4,3.6
274.5,142.2,149.7,146.7,146.2,3.8
279.0,139.9,147.5,143.9,143.7,3.8
283.5,142.5,145.5,143.4,143.8,1.6
288.0,139.8,147.9,141.5,143.1,4.3
292.5,142.0,145.0,140.1,142.4,2.5
297.0,138.0,148.9,140.7,142.5,5.7
301.5,138.2,145.2,140.5,141.3,3.6
306.0,138.6,144.8,141.0,141.5,3.1
310.5,136.7,144.7,140.6,140.7,4.0
315.0,135.8,145.9,140.3,140.6,5.1
319.5,137.1,148.1,141.9,142.4,5.6
324.0,132.2,145.8,143.4,140.5,7.3
328.5,134.4,145.9,142.0,140.8,5.9
333.0,134.1,142.5,141.1,139.2,4.5
337.5,133.8,143.4,141.0,139.4,5.0
342.0,133.0,142.3,142.4,139.2,5.4
346.5,131.2,143.7,142.2,139.0,6.9
351.0,129.5,144.9,140.6,138.3,8.0
355.5,129.4,140.4,141.7,137.2,6.8
360.0,131.1,139.0,139.4,136.5,4.7
364.5,130.1,136.5,140.0,135.5,5.0
369.0,130.4,137.0,139.3,135.6,4.6
373.5,132.0,135.1,136.9,134.7,2.5
378.0,133.6,134.4,134.7,134.2,0.6
382.5,135.8,133.7,135.6,135.0,1.2
387.0,139.1,136.0,136.3,137.1,1.7
391.5,140.6,135.8,135.1,137.2,3.0
396.0,141.4,136.1,136.2,137.9,3.0
400.5,141.4,137.0,136.1,138.2,2.8
405.0,142.1,139.7,137.7,139.8,2.2
409.5,141.3,138.3,135.7,138.4,2.8
414.0,142.4,135.6,137.4,138.5,3.5
418.5,143.0,137.2,134.5,138.3,4.3
423.0,145.3,135.6,133.4,138.1,6.3
427.5,145.7,138.4,136.9,140.3,4.7
432.0,144.0,138.5,136.4,139.6,3.9
436.5,145.2,138.2,136.3,139.9,4.7
441.0,143.1,138.8,134.7,138.9,4.2
445.5,143.1,137.2,136.9,139.1,3.5
450.0,142.0,136.5,134.4,137.6,4.0
454.5,140.2,137.5,133.9,137.2,3.1
459.0,139.0,141.4,137.2,139.2,2.1
463.5,139.5,139.5,135.3,138.1,2.4
468.0,137.8,136.5,137.7,137.3,0.7
472.5,137.6,138.1,135.1,136.9,1.6
477.0,136.0,137.2,137.4,136.9,0.8
481.5,137.2,137.1,135.4,136.6,1.0
486.0,138.3,139.9,135.6,137.9,2.2
490.5,137.9,140.7,136.9,138.5,2.0
495.0,139.3,139.5,139.1,139.3,0.2
499.5,137.0,143.3,141.3,140.5,3.2
504.0,139.0,143.2,139.6,140.6,2.3
508.5,140.2,144.2,142.1,142.2,2.0
513.0,140.2,145.7,141.5,142.4,2.9
517.5,141.4,147.1,142.4,143.6,3.1
522.0,144.6,150.4,143.5,146.2,3.7
526.5,144.6,155.3,139.9,146.6,7.9
531.0,141.8,149.3,140.4,143.8,4.8
535.5,143.2,152.9,141.6,145.9,6.1
540.0,142.9,152.3,143.8,146.3,5.2
544.5,144.6,155.3,142.5,147.5,6.8
549.0,144.5,155.2,141.3,147.0,7.3
553.5,146.1,155.7,146.7,149.5,5.4
558.0,146.4,159.4,150.5,152.1,6.6
562.5,150.2,160.9,153.2,154.8,5.5
567.0,154.8,162.4,151.7,156.3,5.5
571.5,154.2,162.7,154.6,157.2,4.8
576.0,151.5,163.7,156.7,157.3,6.1
580.5,153.4,162.7,154.4,156.8,5.1
585.0,155.9,165.4,153.4,158.2,6.3
589.5,162.3,165.8,160.1,162.7,2.9
594.0,162.7,164.6,159.3,162.2,2.7
598.5,168.9,166.9,160.0,165.2,4.7
603.0,170.6,168.0,162.1,166.9,4.4
607.5,170.8,172.3,168.4,170.5,2.0
612.0,175.5,174.2,167.2,172.3,4.5
616.5,175.8,173.0,170.2,173.0,2.8
621.0,179.2,175.9,172.8,176.0,3.2
625.5,182.6,179.7,172.3,178.2,5.3
630.0,186.6,177.6,176.1,180.1,5.7
634.5,185.8,177.8,181.3,181.6,4.0
639.0,188.3,182.3,184.4,185.0,3.0
643.5,190.1,179.9,184.3,184.8,5.1
648.0,191.6,183.0,186.5,187.0,4.4
652.5,193.3,178.6,188.0,186.6,7.4
657.0,196.5,186.3,188.2,190.4,5.4
661.5,197.7,185.1,194.3,192.4,6.5
666.0,196.1,184.7,197.1,192.7,6.9
670.5,191.7,182.5,197.4,190.6,7.5
675.0,198.0,182.3,199.5,193.3,9.5
679.5,194.7,182.1,198.8,191.9,8.7
684.0,200.8,178.1,202.6,193.8,13.7
688.5,196.9,180.7,202.7,193.4,11.4
693.0,195.2,180.4,206.8,194.1,13.2
697.5,200.7,181.6,205.2,195.8,12.5
702.0,202.0,183.5,206.9,197.5,12.4
706.5,201.4,183.1,207.9,197.5,12.8
711.0,198.4,184.0,207.5,196.6,11.9
715.5,193.0,181.3,204.2,192.8,11.5
720.0,194.7,183.5,207.2,195.1,11.9
724.5,196.4,183.0,206.7,195.4,11.9
729.0,196.1,186.0,209.8,197.3,11.9
733.5,195.2,183.7,207.5,195.5,11.9
738.0,200.6,183.9,206.1,196.8,11.6
742.5,197.2,183.8,208.9,196.6,12.6
747.0,200.2,183.3,205.7,196.4,11.7
751.5,196.4,188.7,206.7,197.2,9.0
756.0,196.7,189.3,207.4,197.8,9.1
760.5,195.1,189.0,206.3,196.8,8.8
765.0,195.1,188.2,204.6,195.9,8.2
769.5,197.2,189.8,203.9,197.0,7.1
774.0,193.4,188.4,204.0,195.3,7.9
778.5,191.6,192.9,198.9,194.4,3.9
783.0,194.4,190.4,202.5,195.8,6.1
787.5,188.9,195.4,200.6,195.0,5.9
792.0,189.4,196.5,197.3,194.4,4.3
796.5,187.4,189.3,196.4,191.0,4.7
801.0,183.8,190.7,190.8,188.4,4.0
805.5,184.4,195.8,188.1,189.4,5.8
810.0,177.5,192.7,184.8,185.0,7.6
814.5,176.4,189.5,185.3,183.7,6.7
819.0,179.3,190.7,181.1,183.7,6.1
823.5,178.8,188.1,182.4,183.1,4.7
828.0,179.6,186.9,173.3,179.9,6.8
832.5,176.4,185.6,175.2,179.0,5.7
837.0,177.6,187.5,176.1,180.4,6.2
841.5,178.0,185.6,170.0,177.8,7.8
846.0,177.1,186.0,169.8,177.7,8.1
850.5,173.5,185.5,169.3,176.1,8.4
855.0,171.9,182.8,166.5,173.8,8.3
859.5,169.5,185.7,163.7,173.0,11.4
864.0,166.0,186.9,162.0,171.6,13.3
868.5,164.7,186.9,161.9,171.2,13.7
873.0,161.9,181.0,159.6,167.5,11.7
877.5,157.2,187.6,161.0,168.6,16.6
882.0,148.8,179.6,157.1,161.8,15.9
886.5,142.1,181.7,155.3,159.7,20.1
891.0,134.2,176.6,156.8,155.9,21.2
895.5,123.0,174.0,155.0,150.7,25.8
900.0,108.7,168.9,156.7,144.8,31.8
904.5,95.2,164.4,152.2,137.3,36.9
909.0,86.5,158.6,148.7,131.3,39.1
913.5,80.6,150.0,146.1,125.6,39.0
918.0,78.8,135.6,143.0,119.1,35.1
922.5,76.5,119.0,130.7,108.8,28.5
927.0,73.4,103.8,121.6,99.6,24.4
931.5,71.6,95.4,110.7,92.6,19.7
936.0,69.9,90.5,98.1,86.2,14.6
940.5,68.2,87.7,92.4,82.8,12.8
945.0,67.3,85.7,88.1,80.4,11.4
949.5,64.6,81.3,84.3,76.7,10.6
954.0,63.7,79.1,82.1,75.0,9.9
958.5,64.5,78.8,78.5,73.9,8.2
963.0,64.4,74.9,75.6,71.6,6.3
967.5,64.4,74.1,74.7,71.1,5.8
972.0,64.2,73.1,73.4,70.2,5.2
976.5,62.2,70.4,73.6,68.7,5.9
981.0,61.0,69.8,71.0,67.3,5.5
985.5,60.3,69.8,70.7,66.9,5.7
990.0,61.1,68.4,70.3,66.6,4.9
994.5,60.3,67.1,70.5,66.0,5.2
999.0,59.9,65.8,69.4,65.0,4.8
1003.5,59.8,65.8,68.9,64.8,4.6
1008.0,59.3,65.4,67.7,64.1,4.3
1012.5,58.7,65.1,66.7,63.5,4.2
1017.0,58.6,64.4,66.3,63.1,4.0
1021.5,57.1,63.7,67.4,62.7,5.2
1026.0,56.8,63.2,66.7,62.2,5.0
1030.5,57.6,63.3,65.2,62.0,4.0
1035.0,56.1,62.0,64.6,60.9,4.3
1039.5,56.7,61.0,65.2,61.0,4.3
1044.0,55.6,60.1,63.2,59.6,3.8
1048.5,54.1,61.2,63.4,59.6,4.8
1053.0,53.4,60.8,63.8,59.3,5.4
1057.5,53.4,60.8,62.4,58.9,4.8
1062.0,52.9,59.8,61.7,58.1,4.7
1066.5,52.3,60.9,61.5,58.2,5.1
1071.0,51.4,60.5,60.3,57.4,5.2
1075.5,51.3,58.8,59.5,56.5,4.6
1080.0,53.1,58.7,60.9,57.6,4.0
1084.5,52.0,58.9,60.3,57.1,4.4
1089.0,51.6,58.1,60.1,56.6,4.4
1093.5,51.2,57.6,58.8,55.9,4.1
1098.0,51.5,57.9,59.3,56.2,4.2
1102.5,50.7,57.9,59.9,56.2,4.9
1107.0,51.0,56.0,59.4,55.4,4.2
1111.5,50.4,56.5,57.5,54.8,3.9
1116.0,50.7,56.5,56.4,54.5,3.4
1120.5,49.3,54.3,56.9,53.5,3.8
1125.0,49.2,56.6,56.8,54.2,4.3
1129.5,49.1,55.8,56.4,53.8,4.0
1134.0,48.4,55.4,56.9,53.6,4.5
1138.5,48.8,56.1,57.4,54.1,4.6
1143.0,47.7,54.8,56.9,53.1,4.8
1147.5,47.3,54.0,56.1,52.4,4.6
1152.0,47.7,54.0,55.8,52.5,4.2
1156.5,46.8,54.0,55.1,52.0,4.5
1161.0,47.3,53.9,54.3,51.8,3.9
1165.5,48.2,52.8,55.1,52.0,3.5
1170.0,47.3,52.8,55.2,51.7,4.0
1174.5,47.0,53.2,54.4,51.5,4.0
1179.0,46.9,52.9,53.7,51.2,3.7
1183.5,46.5,52.3,53.9,50.9,3.9
1188.0,46.6,51.9,54.0,50.8,3.9
1192.5,47.0,52.6,55.1,51.6,4.2
1197.0,48.1,,53.1,50.6,3.6
1201.5,48.0,,54.0,51.0,4.3
1206.0,47.7,,,47.7,
1210.5,48.0,,,48.0,
1215.0,46.7,,,46.7,
1219.5,46.6,,,46.6,
1224.0,47.0,,,47.0,
1228.5,46.1,,,46.1,
1233.0,46.5,,,46.5,
1237.5,46.1,,,46.1,
1242.0,46.3,,,46.3,
1246.5,46.8,,,46.8,
1251.0,47.2,,,47.2,
1255.5,46.1,,,46.1,
1260.0,46.2,,,46.2,
1264.5,45.7,,,45.7,
1269.0,46.1,,,46.1,
1273.5,44.5,,,44.5,
1278.0,45.2,,,45.2,
1282.5,45.5,,,45.5,
1287.0,46.3,,,46.3,
1291.5,45.1,,,45.1,
1296.0,43.1,,,43.1,
1300.5,42.2,,,42.2,
1305.0,43.4,,,43.4,
1309.5,44.9,,,44.9,
1314.0,44.7,,,44.7,
1318.5,44.9,,,44.9,
1323.0,44.4,,,44.4,
1327.5,43.8,,,43.8,
1332.0,44.3,,,44.3,
1336.5,43.3,,,43.3,
1341.0,43.8,,,43.8,
1345.5,44.6,,,44.6,
1350.0,43.9,,,43.9,
1354.5,43.7,,,43.7,
1359.0,43.6,,,43.6,
1363.5,43.4,,,43.4,
1368.0,42.3,,,42.3,
1372.5,41.3,,,41.3,
1377.0,42.3,,,42.3,
1381.5,42.3,,,42.3,
1386.0,42.6,,,42.6,
1390.5,42.5,,,42.5,
1395.0,43.7,,,43.7,
1399.5,43.0,,,43.0,
1404.0,42.8,,,42.8,
1408.5,43.0,,,43.0,
1413.0,42.6,,,42.6,
1417.5,43.2,,,43.2,
1422.0,42.9,,,42.9,
1426.5,42.8,,,42.8,
1431.0,43.4,,,43.4,
1435.5,43.5,,,43.5,
1440.0,43.4,,,43.4,
1444.5,42.6,,,42.6,
1449.0,42.8,,,42.8,
1453.5,43.5,,,43.5,
1458.0,43.4,,,43.4,
1462.5,43.4,,,43.4,
1467.0,43.4,,,43.4,
1471.5,42.1,,,42.1,
1476.0,42.2,,,42.2,
1480.5,42.1,,,42.1,
1485.0,42.2,,,42.2,
1489.5,41.7,,,41.7,
1494.0,41.9,,,41.9,
1498.5,42.4,,,42.4,
1503.0,42.1,,,42.1,
1507.5,42.6,,,42.6,
1512.0,41.7,,,41.7,
1516.5,41.6,,,41.6,
1521.0,42.0,,,42.0,
1525.5,41.7,,,41.7,
1530.0,41.7,,,41.7,
1534.5,42.0,,,42.0,
1539.0,43.2,,,43.2,
1543.5,42.5,,,42.5,
1548.0,41.8,,,41.8,
1552.5,41.6,,,41.6,
1557.0,42.2,,,42.2,
1561.5,41.7,,,41.7,
1566.0,41.3,,,41.3,
1570.5,40.8,,,40.8,
1575.0,41.0,,,41.0,
1579.5,41.7,,,41.7,
1584.0,41.7,,,41.7,
1588.5,40.9,,,40.9,
1593.0,41.0,,,41.0,
1597.5,41.0,,,41.0,
1602.0,41.0,,,41.0,
1606.5,40.2,,,40.2,
1611.0,40.4,,,40.4,
1615.5,39.4,,,39.4,
1620.0,40.2,,,40.2,
1624.5,40.7,,,40.7,
1629.0,40.8,,,40.8,
1633.5,40.1,,,40.1,
1638.0,39.9,,,39.9,
1642.5,41.4,,,41.4,
1647.0,41.4,,,41.4,
1651.5,40.3,,,40.3,
1656.0,40.4,,,40.4,
1660.5,41.2,,,41.2,
1665.0,40.1,,,40.1,
1669.5,40.0,,,40.0,
1674.0,40.0,,,40.0,
1678.5,40.5,,,40.5,
1683.0,40.3,,,40.3,
1687.5,40.8,,,40.8,
1692.0,41.6,,,41.6,
1696.5,41.2,,,41.2,
1701.0,40.9,,,40.9,
1705.5,40.1,,,40.1,
1710.0,40.6,,,40.6,
1714.5,39.9,,,39.9,
1719.0,39.7,,,39.7,
1723.5,39.4,,,39.4,
1728.0,39.4,,,39.4,
1732.5,38.4,,,38.4,
1737.0,38.2,,,38.2,
1741.5,38.9,,,38.9,
1746.0,38.9,,,38.9,
1750.5,39.4,,,39.4,
1755.0,38.6,,,38.6,
1759.5,38.8,,,38.8,
1764.0,39.6,,,39.6,
1768.5,39.1,,,39.1,
1773.0,39.9,,,39.9,
1777.5,39.6,,,39.6,
1782.0,39.7,,,39.7,
1786.5,39.0,,,39.0,
1791.0,39.2,,,39.2,
1795.5,39.0,,,39.0,
1800.0,38.4,,,38.4,
1804.5,38.0,,,38.0,
1809.0,39.0,,,39.0,
1813.5,39.1,,,39.1,
1818.0,39.1,,,39.1,
1822.5,38.3,,,38.3,
1827.0,38.5,,,38.5,
1831.5,39.2,,,39.2,
1836.0,38.1,,,38.1,
1840.5,38.4,,,38.4,
1845.0,38.3,,,38.3,
1849.5,38.7,,,38.7,
1854.0,39.7,,,39.7,
1858.5,40.4,,,40.4,
1863.0,41.2,,,41.2,
1867.5,40.6,,,40.6,
1872.0,39.1,,,39.1,
1876.5,39.9,,,39.9,
1881.0,39.3,,,39.3,
1885.5,38.5,,,38.5,
1890.0,39.6,,,39.6,
1894.5,39.6,,,39.6,
1899.0,40.0,,,40.0,
1903.5,40.6,,,40.6,
1908.0,39.7,,,39.7,
1912.5,39.7,,,39.7,
1917.0,38.6,,,38.6,
1921.5,39.1,,,39.1,
1926.0,39.0,,,39.0,
1930.5,38.7,,,38.7,
1935.0,37.8,,,37.8,
1939.5,39.5,,,39.5,
1944.0,39.0,,,39.0,
1948.5,40.0,,,40.0,
1953.0,40.4,,,40.4,
1957.5,40.3,,,40.3,
1962.0,39.0,,,39.0,
1966.5,38.9,,,38.9,
1971.0,39.7,,,39.7,
1975.5,38.6,,,38.6,
1980.0,39.0,,,39.0,
1984.5,38.5,,,38.5,
1989.0,38.8,,,38.8,
1993.5,38.7,,,38.7,
1998.0,38.8,,,38.8,
2002.5,37.6,,,37.6,
2007.0,37.3,,,37.3,
2011.5,37.7,,,37.7,
2016.0,36.6,,,36.6,
2020.5,36.5,,,36.5,
2025.0,36.5,,,36.5,
2029.5,37.7,,,37.7,
2034.0,38.7,,,38.7,
2038.5,37.5,,,37.5,
2043.0,38.5,,,38.5,
2047.5,37.1,,,37.1,
2052.0,39.1,,,39.1,
2056.5,38.7,,,38.7,
2061.0,38.7,,,38.7,
2065.5,38.5,,,38.5,
2070.0,38.1,,,38.1,
2074.5,38.6,,,38.6,
2079.0,39.0,,,39.0,
2083.5,38.0,,,38.0,
2088.0,37.1,,,37.1,
2092.5,37.5,,,37.5,
2097.0,37.3,,,37.3,
2101.5,37.2,,,37.2,
2106.0,36.0,,,36.0,
2110.5,36.1,,,36.1,
2115.0,36.8,,,36.8,
2119.5,37.7,,,37.7,
2124.0,37.9,,,37.9,
2128.5,37.0,,,37.0,
2133.0,36.8,,,36.8,
2137.5,36.3,,,36.3,
2142.0,36.1,,,36.1,
2146.5,36.9,,,36.9,
2151.0,37.2,,,37.2,
2155.5,36.7,,,36.7,
2160.0,36.4,,,36.4,
2164.5,35.9,,,35.9,
2169.0,36.8,,,36.8,
2173.5,37.1,,,37.1,
2178.0,36.7,,,36.7,
2182.5,37.7,,,37.7,
2187.0,37.5,,,37.5,
2191.5,37.3,,,37.3,
2196.0,36.7,,,36.7,
2200.5,36.4,,,36.4,
2205.0,37.4,,,37.4,
2209.5,37.6,,,37.6,
2214.0,37.1,,,37.1,
2218.5,36.3,,,36.3,
2223.0,36.4,,,36.4,
2227.5,37.0,,,37.0,
2232.0,36.7,,,36.7,
2236.5,36.9,,,36.9,
2241.0,38.3,,,38.3,
2245.5,36.9,,,36.9,
2250.0,36.6,,,36.6,
2254.5,36.8,,,36.8,
2259.0,37.8,,,37.8,
2263.5,37.6,,,37.6,
2268.0,38.1,,,38.1,
2272.5,37.1,,,37.1,
2277.0,36.8,,,36.8,
2281.5,36.5,,,36.5,
2286.0,35.4,,,35.4,
2290.5,36.2,,,36.2,
2295.0,36.1,,,36.1,
2299.5,35.5,,,35.5,
2304.0,36.4,,,36.4,
2308.5,35.1,,,35.1,
2313.0,35.5,,,35.5,
2317.5,35.9,,,35.9,
2322.0,35.6,,,35.6,
2326.5,36.8,,,36.8,
2331.0,36.2,,,36.2,
2335.5,37.4,,,37.4,
2340.0,38.3,,,38.3,
2344.5,37.5,,,37.5,
2349.0,36.1,,,36.1,
2353.5,36.6,,,36.6,
2358.0,35.6,,,35.6,
2362.5,35.6,,,35.6,
2367.0,35.9,,,35.9,
2371.5,36.5,,,36.5,
2376.0,35.4,,,35.4,
2380.5,33.7,,,33.7,
2385.0,34.8,,,34.8,
2389.5,35.2,,,35.2,
2394.0,35.1,,,35.1,
2398.5,35.4,,,35.4,
2403.0,35.6,,,35.6,
2407.5,34.9,,,34.9,
2412.0,34.9,,,34.9,
2416.5,35.2,,,35.2,
2421.0,34.7,,,34.7,
2425.5,36.1,,,36.1,
2430.0,37.0,,,37.0,
2434.5,36.6,,,36.6,
2439.0,36.7,,,36.7,
2443.5,37.0,,,37.0,
2448.0,36.1,,,36.1,
2452.5,34.7,,,34.7,
2457.0,35.0,,,35.0,
2461.5,36.0,,,36.0,
2466.0,35.9,,,35.9,
2470.5,36.3,,,36.3,
2475.0,35.0,,,35.0,
2479.5,35.8,,,35.8,
2484.0,35.7,,,35.7,
2488.5,34.9,,,34.9,
2493.0,34.2,,,34.2,
2497.5,34.0,,,34.0,
2502.0,33.4,,,33.4,
2506.5,33.4,,,33.4,
2511.0,34.0,,,34.0,
2515.5,34.7,,,34.7,
2520.0,34.0,,,34.0,
2524.5,35.1,,,35.1,
2529.0,35.3,,,35.3,
2533.5,34.9,,,34.9,
2538.0,34.7,,,34.7,
2542.5,35.8,,,35.8,
2547.0,36.1,,,36.1,
2551.5,36.0,,,36.0,
2556.0,36.0,,,36.0,
2560.5,35.4,,,35.4,
2565.0,36.0,,,36.0,
2569.5,35.6,,,35.6,
2574.0,36.3,,,36.3,
2578.5,36.2,,,36.2,
2583.0,35.6,,,35.6,
2587.5,34.9,,,34.9,
2592.0,34.8,,,34.8,
2596.5,35.6,,,35.6,
2601.0,34.2,,,34.2,
2605.5,34.5,,,34.5,
2610.0,34.3,,,34.3,
2614.5,34.2,,,34.2,
2619.0,33.7,,,33.7,
2623.5,33.0,,,33.0,
2628.0,33.9,,,33.9,
2632.5,35.7,,,35.7,
2637.0,35.6,,,35.6,
2641.5,36.1,,,36.1,
2646.0,35.7,,,35.7,
2650.5,36.1,,,36.1,
2655.0,35.6,,,35.6,
2659.5,35.6,,,35.6,
2664.0,35.4,,,35.4,
2668.5,34.5,,,34.5,
2673.0,35.0,,,35.0,
2677.5,35.4,,,35.4,
2682.0,34.4,,,34.4,
2686.5,33.8,,,33.8,
2691.0,34.8,,,34.8,
2695.5,34.6,,,34.6,
2700.0,34.7,,,34.7,
2704.5,34.9,,,34.9,
2709.0,35.0,,,35.0,
2713.5,35.4,,,35.4,
2718.0,35.6,,,35.6,
2722.5,34.6,,,34.6,
2727.0,34.0,,,34.0,
2731.5,33.9,,,33.9,
2736.0,33.1,,,33.1,
2740.5,33.2,,,33.2,
2745.0,33.2,,,33.2,
2749.5,33.5,,,33.5,
2754.0,33.6,,,33.6,
2758.5,33.0,,,33.0,
2763.0,32.6,,,32.6,
2767.5,32.3,,,32.3,
2772.0,33.3,,,33.3,
2776.5,33.6,,,33.6,
2781.0,33.4,,,33.4,
2785.5,32.8,,,32.8,
2790.0,32.7,,,32.7,
2794.5,33.6,,,33.6,
2799.0,33.2,,,33.2,
2803.5,33.7,,,33.7,
2808.0,35.1,,,35.1,
2812.5,34.7,,,34.7,
2817.0,33.6,,,33.6,
2821.5,33.8,,,33.8,
2826.0,32.7,,,32.7,
2830.5,33.1,,,33.1,
2835.0,33.9,,,33.9,
2839.5,33.5,,,33.5,
2844.0,33.9,,,33.9,
2848.5,32.7,,,32.7,
2853.0,32.5,,,32.5,
2857.5,32.5,,,32.5,
2862.0,33.6,,,33.6,
2866.5,33.6,,,33.6,
2871.0,33.7,,,33.7,
2875.5,33.1,,,33.1,
2880.0,33.4,,,33.4,
2884.5,32.2,,,32.2,
2889.0,32.7,,,32.7,
2893.5,33.3,,,33.3,
2898.0,32.3,,,32.3,
2902.5,32.1,,,32.1,
2907.0,31.8,,,31.8,
2911.5,32.6,,,32.6,
2916.0,31.8,,,31.8,
2920.5,32.3,,,32.3,
2925.0,32.8,,,32.8,
2929.5,33.2,,,33.2,
2934.0,31.3,,,31.3,
2938.5,31.0,,,31.0,
2943.0,31.2,,,31.2,
2947.5,30.9,,,30.9,
2952.0,31.1,,,31.1,
2956.5,31.4,,,31.4,
2961.0,32.2,,,32.2,
2965.5,32.9,,,32.9,
2970.0,32.8,,,32.8,
2974.5,32.0,,,32.0,
2979.0,32.5,,,32.5,
2983.5,31.6,,,31.6,
2988.0,32.4,,,32.4,
2992.5,32.6,,,32.6,
2997.0,32.8,,,32.8,
3001.5,30.7,,,30.7,
3006.0,30.1,,,30.1,
3010.5,30.7,,,30.7,
3015.0,30.7,,,30.7,
3019.5,31.4,,,31.4,
3024.0,32.2,,,32.2,
3028.5,32.8,,,32.8,
3033.0,31.4,,,31.4,
3037.5,31.5,,,31.5,
3042.0,32.1,,,32.1,
3046.5,32.8,,,32.8,
3051.0,31.7,,,31.7,
3055.5,31.8,,,31.8,
3060.0,31.3,,,31.3,
3064.5,31.8,,,31.8,
3069.0,30.9,,,30.9,
3073.5,30.8,,,30.8,
3078.0,30.9,,,30.9,
3082.5,30.7,,,30.7,
3087.0,30.6,,,30.6,
3091.5,30.5,,,30.5,
3096.0,31.8,,,31.8,
3100.5,30.9,,,30.9,
3105.0,30.7,,,30.7,
3109.5,30.6,,,30.6,
3114.0,31.2,,,31.2,
3118.5,30.8,,,30.8,
3123.0,30.9,,,30.9,
3127.5,31.8,,,31.8,
3132.0,31.7,,,31.7,
3136.5,30.6,,,30.6,
3141.0,30.0,,,30.0,
3145.5,30.3,,,30.3,
3150.0,30.8,,,30.8,
3154.5,30.9,,,30.9,
3159.0,30.1,,,30.1,
3163.5,30.7,,,30.7,
3168.0,31.1,,,31.1,
3172.5,31.3,,,31.3,
3177.0,30.7,,,30.7,
3181.5,31.0,,,31.0,
3186.0,30.8,,,30.8,
3190.5,30.3,,,30.3,
3195.0,30.5,,,30.5,
3199.5,30.5,,,30.5,
3204.0,30.8,,,30.8,
3208.5,31.5,,,31.5,
3213.0,31.5,,,31.5,
3217.5,32.0,,,32.0,
3222.0,33.1,,,33.1,
3226.5,32.5,,,32.5,
3231.0,30.9,,,30.9,
3235.5,29.9,,,29.9,
3240.0,29.0,,,29.0,
3244.5,30.6,,,30.6,
3249.0,30.1,,,30.1,
3253.5,31.3,,,31.3,
3258.0,31.8,,,31.8,
3262.5,31.6,,,31.6,
3267.0,31.3,,,31.3,
3271.5,32.1,,,32.1,
3276.0,32.0,,,32.0,
3280.5,32.2,,,32.2,
3285.0,31.4,,,31.4,
3289.5,31.0,,,31.0,
3294.0,31.3,,,31.3,
3298.5,30.6,,,30.6,
3303.0,30.4,,,30.4,
3307.5,30.1,,,30.1,
3312.0,31.2,,,31.2,
3316.5,31.4,,,31.4,
3321.0,31.5,,,31.5,
3325.5,30.3,,,30.3,
3330.0,30.2,,,30.2,
3334.5,29.9,,,29.9,
3339.0,30.3,,,30.3,
3343.5,30.2,,,30.2,
3348.0,31.4,,,31.4,
3352.5,31.4,,,31.4,
3357.0,31.0,,,31.0,
3361.5,31.1,,,31.1,
3366.0,31.1,,,31.1,
3370.5,29.6,,,29.6,
3375.0,29.1,,,29.1,
3379.5,28.6,,,28.6,
3384.0,27.3,,,27.3,
3388.5,28.0,,,28.0,
3393.0,28.6,,,28.6,
3397.5,30.4,,,30.4,
3402.0,29.8,,,29.8,
3406.5,30.0,,,30.0,
3411.0,29.6,,,29.6,
3415.5,29.6,,,29.6,
3420.0,29.7,,,29.7,
3424.5,29.9,,,29.9,
3429.0,30.0,,,30.0,
3433.5,29.6,,,29.6,
3438.0,29.6,,,29.6,
3442.5,30.2,,,30.2,
3447.0,29.8,,,29.8,
3451.5,29.9,,,29.9,
3456.0,30.5,,,30.5,
3460.5,29.5,,,29.5,
3465.0,29.1,,,29.1,
3469.5,29.2,,,29.2,
3474.0,28.7,,,28.7,
3478.5,29.4,,,29.4,
3483.0,30.5,,,30.5,
3487.5,30.2,,,30.2,
3492.0,29.6,,,29.6,
3496.5,30.0,,,30.0,
3501.0,29.5,,,29.5,
3505.5,29.1,,,29.1,
3510.0,29.7,,,29.7,
3514.5,30.4,,,30.4,
3519.0,29.0,,,29.0,
3523.5,29.5,,,29.5,
3528.0,29.5,,,29.5,
3532.5,29.1,,,29.1,
3537.0,29.7,,,29.7,
3541.5,29.9,,,29.9,
3546.0,30.3,,,30.3,
3550.5,31.1,,,31.1,
3555.0,30.2,,,30.2,
3559.5,29.6,,,29.6,
3564.0,30.1,,,30.1,
3568.5,30.5,,,30.5,
3573.0,30.2,,,30.2,
3577.5,30.9,,,30.9,
3582.0,31.3,,,31.3,
3586.5,30.9,,,30.9,
3591.0,30.8,,,30.8,
3595.5,31.1,,,31.1,
3600.0,29.4,,,29.4,
3604.5,29.4,,,29.4,
3609.0,29.4,,,29.4,
3613.5,29.3,,,29.3,
3618.0,28.8,,,28.8,
3622.5,29.6,,,29.6,
3627.0,29.3,,,29.3,
3631.5,29.8,,,29.8,
3636.0,29.4,,,29.4,
3640.5,29.9,,,29.9,
3645.0,29.0,,,29.0,
3649.5,30.0,,,30.0,
3654.0,30.3,,,30.3,
3658.5,30.1,,,30.1,
3663.0,29.7,,,29.7,
3667.5,29.9,,,29.9,
3672.0,29.5,,,29.5,
3676.5,28.5,,,28.5,
3681.0,29.4,,,29.4,
3685.5,30.4,,,30.4,
3690.0,29.7,,,29.7,
3694.5,28.8,,,28.8,
3699.0,28.8,,,28.8,
3703.5,29.1,,,29.1,
3708.0,29.2,,,29.2,
3712.5,29.4,,,29.4,
3717.0,29.9,,,29.9,
3721.5,29.4,,,29.4,
3726.0,29.3,,,29.3,
3730.5,29.7,,,29.7,
3735.0,29.6,,,29.6,
3739.5,28.6,,,28.6,
3744.0,28.3,,,28.3,
3748.5,28.0,,,28.0,
3753.0,27.9,,,27.9,
3757.5,28.0,,,28.0,
3762.0,27.2,,,27.2,
3766.5,27.2,,,27.2,
3771.0,28.0,,,28.0,
3775.5,27.5,,,27.5,
3780.0,27.4,,,27.4,
3784.5,28.3,,,28.3,
3789.0,28.2,,,28.2,
3793.5,28.8,,,28.8,
3798.0,29.1,,,29.1,
3802.5,29.0,,,29.0,
3807.0,27.5,,,27.5,
3811.5,27.4,,,27.4,
3816.0,26.5,,,26.5,
3820.5,26.0,,,26.0,
3825.0,25.0,,,25.0,
3829.5,26.4,,,26.4,
3834.0,27.4,,,27.4,
3838.5,26.6,,,26.6,
3843.0,26.5,,,26.5,
3847.5,27.0,,,27.0,
3852.0,27.5,,,27.5,
3856.5,27.4,,,27.4,
3861.0,26.8,,,26.8,
3865.5,26.8,,,26.8,
3870.0,26.4,,,26.4,
3874.5,26.7,,,26.7,
3879.0,27.8,,,27.8,
3883.5,28.0,,,28.0,
3888.0,28.2,,,28.2,
3892.5,28.5,,,28.5,
3897.0,27.8,,,27.8,
3901.5,28.5,,,28.5,
3906.0,28.9,,,28.9,
3910.5,28.8,,,28.8,
3915.0,29.0,,,29.0,
3919.5,29.8,,,29.8,
3924.0,27.9,,,27.9,
3928.5,27.0,,,27.0,
3933.0,26.8,,,26.8,
3937.5,26.8,,,26.8,
3942.0,26.0,,,26.0,
3946.5,26.2,,,26.2,
3951.0,26.9,,,26.9,
3955.5,26.1,,,26.1,
3960.0,26.0,,,26.0,
3964.5,27.1,,,27.1,
3969.0,26.7,,,26.7,
3973.5,26.7,,,26.7,
3978.0,27.0,,,27.0,
3982.5,26.8,,,26.8,
3987.0,25.9,,,25.9,
3991.5,26.6,,,26.6,
3996.0,27.1,,,27.1,
4000.5,27.1,,,27.1,
4005.0,27.4,,,27.4,
4009.5,27.6,,,27.6,
4014.0,27.8,,,27.8,
4018.5,27.0,,,27.0,
4023.0,27.0,,,27.0,
4027.5,27.2,,,27.2,
4032.0,27.0,,,27.0,
4036.5,27.6,,,27.6,
4041.0,28.4,,,28.4,
4045.5,27.8,,,27.8,
4050.0,26.5,,,26.5,
4054.5,28.3,,,28.3,
4059.0,29.1,,,29.1,
4063.5,27.7,,,27.7,
4068.0,27.8,,,27.8,
4072.5,26.9,,,26.9,
4077.0,27.1,,,27.1,
4081.5,26.7,,,26.7,
4086.0,27.4,,,27.4,
4090.5,27.5,,,27.5,
4095.0,27.3,,,27.3,
4099.5,27.5,,,27.5,
4104.0,27.9,,,27.9,
4108.5,27.9,,,27.9,
4113.0,27.2,,,27.2,
4117.5,26.6,,,26.6,
4122.0,26.8,,,26.8,
4126.5,26.5,,,26.5,
4131.0,26.1,,,26.1,
4135.5,26.7,,,26.7,
4140.0,26.3,,,26.3,
4144.5,27.6,,,27.6,
4149.0,26.8,,,26.8,
4153.5,27.5,,,27.5,
4158.0,27.7,,,27.7,
4162.5,27.6,,,27.6,
4167.0,27.6,,,27.6,
4171.5,27.2,,,27.2,
4176.0,26.3,,,26.3,
4180.5,26.5,,,26.5,
4185.0,25.9,,,25.9,
4189.5,26.0,,,26.0,
4194.0,25.0,,,25.0,
4198.5,25.1,,,25.1,
4203.0,24.8,,,24.8,
4207.5,25.9,,,25.9,
4212.0,26.4,,,26.4,
4216.5,26.1,,,26.1,
4221.0,25.3,,,25.3,
4225.5,25.3,,,25.3,
4230.0,26.2,,,26.2,
4234.5,27.1,,,27.1,
4239.0,26.9,,,26.9,
4243.5,26.9,,,26.9,
4248.0,26.6,,,26.6,
4252.5,27.6,,,27.6,
4257.0,27.2,,,27.2,
4261.5,27.0,,,27.0,
4266.0,26.7,,,26.7,
4270.5,26.0,,,26.0,
4275.0,26.0,,,26.0,
4279.5,25.8,,,25.8,
4284.0,25.1,,,25.1,
4288.5,25.9,,,25.9,
4293.0,25.4,,,25.4,
4297.5,25.3,,,25.3,
4302.0,25.3,,,25.3,
4306.5,25.5,,,25.5,
4311.0,26.1,,,26.1,
4315.5,25.5,,,25.5,
4320.0,24.9,,,24.9,
4324.5,25.5,,,25.5,
4329.0,25.0,,,25.0,
4333.5,24.6,,,24.6,
4338.0,24.9,,,24.9,
4342.5,24.3,,,24.3,
4347.0,24.9,,,24.9,
4351.5,24.8,,,24.8,
4356.0,24.4,,,24.4,
4360.5,24.9,,,24.9,
4365.0,24.8,,,24.8,
4369.5,24.5,,,24.5,
4374.0,24.3,,,24.3,
4378.5,24.4,,,24.4,
4383.0,23.8,,,23.8,
4387.5,23.9,,,23.9,
4392.0,23.8,,,23.8,
4396.5,23.3,,,23.3,
4401.0,24.2,,,24.2,
4405.5,24.3,,,24.3,
4410.0,23.8,,,23.8,
4414.5,23.5,,,23.5,
4419.0,22.5,,,22.5,
4423.5,22.7,,,22.7,
4428.0,23.2,,,23.2,
4432.5,22.9,,,22.9,
4437.0,23.0,,,23.0,
4441.5,22.7,,,22.7,
4446.0,22.8,,,22.8,
4450.5,22.8,,,22.8,
4455.0,23.5,,,23.5,
4459.5,24.0,,,24.0,
4464.0,24.6,,,24.6,
4468.5,24.2,,,24.2,
4473.0,25.0,,,25.0,
4477.5,25.1,,,25.1,
4482.0,24.4,,,24.4,
4486.5,23.9,,,23.9,
4491.0,23.9,,,23.9,
4495.5,23.9,,,23.9,
4500.0,24.0,,,24.0,
4504.5,23.4,,,23.4,
4509.0,24.2,,,24.2,
4513.5,23.6,,,23.6,
4518.0,22.9,,,22.9,
4522.5,23.1,,,23.1,
4527.0,25.2,,,25.2,
4531.5,25.5,,,25.5,
4536.0,24.6,,,24.6,
4540.5,24.7,,,24.7,
4545.0,24.6,,,24.6,
4549.5,23.0,,,23.0,
4554.0,22.6,,,22.6,
4558.5,22.0,,,22.0,
4563.0,22.4,,,22.4,
4567.5,22.7,,,22.7,
4572.0,23.3,,,23.3,
4576.5,23.6,,,23.6,
4581.0,23.9,,,23.9,
4585.5,23.5,,,23.5,
4590.0,23.9,,,23.9,
4594.5,23.5,,,23.5,
4599.0,23.1,,,23.1,
4603.5,22.4,,,22.4,
4608.0,22.9,,,22.9,
4612.5,23.1,,,23.1,
4617.0,24.4,,,24.4,
4621.5,23.3,,,23.3,
4626.0,22.6,,,22.6,
4630.5,23.2,,,23.2,
4635.0,23.7,,,23.7,
4639.5,22.9,,,22.9,
4644.0,21.8,,,21.8,
4648.5,21.9,,,21.9,
4653.0,22.2,,,22.2,
4657.5,21.1,,,21.1,
4662.0,21.3,,,21.3,
4666.5,20.8,,,20.8,
4671.0,21.1,,,21.1,
4675.5,21.6,,,21.6,
4680.0,21.4,,,21.4,
4684.5,21.9,,,21.9,
4689.0,20.1,,,20.1,
4693.5,19.5,,,19.5,
4698.0,19.1,,,19.1,
4702.5,19.5,,,19.5,
4707.0,19.5,,,19.5,
4711.5,20.1,,,20.1,
4716.0,20.7,,,20.7,
4720.5,21.5,,,21.5,
4725.0,21.5,,,21.5,
4729.5,19.8,,,19.8,
4734.0,19.1,,,19.1,
4738.5,20.1,,,20.1,
4743.0,20.5,,,20.5,
4747.5,19.9,,,19.9,
4752.0,20.3,,,20.3,
4756.5,19.7,,,19.7,
4761.0,20.1,,,20.1,
4765.5,20.1,,,20.1,
4770.0,19.1,,,19.1,
4774.5,18.8,,,18.8,
4779.0,19.0,,,19.0,
4783.5,19.5,,,19.5,
4788.0,20.5,,,20.5,
4792.5,20.1,,,20.1,
4797.0,21.1,,,21.1,
4801.5,20.4,,,20.4,
4806.0,19.7,,,19.7,
4810.5,19.6,,,19.6,
4815.0,19.7,,,19.7,
4819.5,19.5,,,19.5,
4824.0,19.2,,,19.2,
4828.5,19.4,,,19.4,
4833.0,19.1,,,19.1,
4837.5,19.2,,,19.2,
4842.0,19.4,,,19.4,
4846.5,18.9,,,18.9,
4851.0,18.5,,,18.5,
4855.5,18.5,,,18.5,
4860.0,17.9,,,17.9,
4864.5,18.8,,,18.8,
4869.0,18.5,,,18.5,
4873.5,17.8,,,17.8,
4878.0,17.9,,,17.9,
4882.5,17.6,,,17.6,
4887.0,17.2,,,17.2,
4891.5,17.4,,,17.4,
4896.0,17.5,,,17.5,
4900.5,17.4,,,17.4,
4905.0,16.6,,,16.6,
4909.5,16.2,,,16.2,
4914.0,16.4,,,16.4,
4918.5,17.2,,,17.2,
4923.0,17.2,,,17.2,
4927.5,17.4,,,17.4,
4932.0,18.1,,,18.1,
4936.5,18.0,,,18.0,
4941.0,17.1,,,17.1,
4945.5,17.5,,,17.5,
4950.0,17.4,,,17.4,
4954.5,18.0,,,18.0,
4959.0,17.7,,,17.7,
4963.5,17.7,,,17.7,
4968.0,17.1,,,17.1,
4972.5,17.0,,,17.0,
4977.0,17.2,,,17.2,
4981.5,16.2,,,16.2,
4986.0,16.4,,,16.4,
4990.5,16.4,,,16.4,
4995.0,16.7,,,16.7,
4999.5,16.6,,,16.6,
5004.0,17.5,,,17.5,
5008.5,17.3,,,17.3,
5013.0,16.4,,,16.4,
5017.5,16.4,,,16.4,
5022.0,16.5,,,16.5,
5026.5,16.7,,,16.7,
5031.0,16.9,,,16.9,
5035.5,17.6,,,17.6,
5040.0,17.1,,,17.1,
5044.5,17.1,,,17.1,
5049.0,17.4,,,17.4,
5053.5,16.2,,,16.2,
5058.0,15.7,,,15.7,
5062.5,15.6,,,15.6,
5067.0,15.8,,,15.8,
5071.5,15.2,,,15.2,
5076.0,16.0,,,16.0,
5080.5,16.5,,,16.5,
5085.0,16.7,,,16.7,
5089.5,16.7,,,16.7,
5094.0,15.6,,,15.6,
5098.5,15.6,,,15.6,
5103.0,18.0,,,18.0,
5107.5,18.9,,,18.9,
5112.0,17.9,,,17.9,
5116.5,17.8,,,17.8,
5121.0,17.0,,,17.0,
5125.5,16.6,,,16.6,
5130.0,16.2,,,16.2,
5134.5,15.1,,,15.1,
5139.0,15.1,,,15.1,
5143.5,14.9,,,14.9,
5148.0,14.8,,,14.8,
5152.5,15.5,,,15.5,
5157.0,15.6,,,15.6,
5161.5,16.2,,,16.2,
5166.0,16.2,,,16.2,
5170.5,15.0,,,15.0,
5175.0,14.5,,,14.5,
5179.5,15.0,,,15.0,
5184.0,15.8,,,15.8,
5188.5,16.0,,,16.0,
5193.0,14.9,,,14.9,
5197.5,14.6,,,14.6,
5202.0,14.7,,,14.7,
5206.5,14.9,,,14.9,
5211.0,14.7,,,14.7,
5215.5,14.8,,,14.8,
5220.0,15.2,,,15.2,
5224.5,15.1,,,15.1,
5229.0,15.1,,,15.1,
5233.5,15.0,,,15.0,
5238.0,14.5,,,14.5,
5242.5,13.3,,,13.3,
5247.0,14.1,,,14.1,
5251.5,14.6,,,14.6,
5256.0,14.6,,,14.6,
5260.5,14.5,,,14.5,
5265.0,13.8,,,13.8,
5269.5,13.4,,,13.4,
5274.0,13.5,,,13.5,
5278.5,14.3,,,14.3,
5283.0,14.7,,,14.7,
5287.5,15.0,,,15.0,
5292.0,15.0,,,15.0,
5296.5,14.2,,,14.2,
5301.0,14.2,,,14.2,
5305.5,14.7,,,14.7,
5310.0,14.1,,,14.1,
5314.5,13.9,,,13.9,
5319.0,14.0,,,14.0,
5323.5,13.9,,,13.9,
5328.0,13.9,,,13.9,
5332.5,14.6,,,14.6,
5337.0,14.8,,,14.8,
5341.5,15.7,,,15.7,
5346.0,16.4,,,16.4,
5350.5,15.5,,,15.5,
5355.0,14.1,,,14.1,
5359.5,13.7,,,13.7,
5364.0,13.6,,,13.6,
5368.5,13.1,,,13.1,
5373.0,13.6,,,13.6,
5377.5,13.8,,,13.8,
5382.0,13.0,,,13.0,
5386.5,12.7,,,12.7,
5391.0,13.4,,,13.4,
5395.5,13.4,,,13.4,
5400.0,13.6,,,13.6,
5404.5,13.5,,,13.5,
5409.0,12.6,,,12.6,
5413.5,12.7,,,12.7,
5418.0,12.6,,,12.6,
5422.5,12.6,,,12.6,
5427.0,12.7,,,12.7,
5431.5,12.1,,,12.1,
5436.0,12.0,,,12.0,
5440.5,11.7,,,11.7,
5445.0,12.0,,,12.0,
5449.5,12.5,,,12.5,
5454.0,12.8,,,12.8,
5458.5,11.8,,,11.8,
5463.0,11.4,,,11.4,
5467.5,11.5,,,11.5,
5472.0,11.0,,,11.0,
5476.5,10.9,,,10.9,
5481.0,11.1,,,11.1,
5485.5,11.3,,,11.3,
5490.0,11.3,,,11.3,
5494.5,10.7,,,10.7,
5499.0,10.6,,,10.6,
5503.5,10.5,,,10.5,
5508.0,9.8,,,9.8,
5512.5,9.5,,,9.5,
5517.0,10.6,,,10.6,
5521.5,11.6,,,11.6,
5526.0,11.9,,,11.9,
5530.5,12.0,,,12.0,
5535.0,12.2,,,12.2,
5539.5,11.4,,,11.4,
5544.0,11.4,,,11.4,
5548.5,11.4,,,11.4,
5553.0,11.6,,,11.6,
5557.5,10.9,,,10.9,
5562.0,11.2,,,11.2,
5566.5,11.2,,,11.2,
5571.0,11.3,,,11.3,
5575.5,11.5,,,11.5,
5580.0,10.9,,,10.9,
5584.5,10.9,,,10.9,
5589.0,10.6,,,10.6,
5593.5,10.0,,,10.0,
5598.0,9.8,,,9.8,
5602.5,9.8,,,9.8,
5607.0,9.7,,,9.7,
5611.5,9.4,,,9.4,
5616.0,10.3,,,10.3,
5620.5,10.5,,,10.5,
5625.0,9.7,,,9.7,
5629.5,9.7,,,9.7,
5634.0,11.1,,,11.1,
5638.5,10.5,,,10.5,
5643.0,10.2,,,10.2,
5647.5,10.2,,,10.2,
5652.0,10.2,,,10.2,
5656.5,10.2,,,10.2,
5661.0,10.4,,,10.4,
5665.5,10.4,,,10.4,
5670.0,10.7,,,10.7,
5674.5,9.9,,,9.9,
5679.0,8.7,,,8.7,
5683.5,8.5,,,8.5,
5688.0,8.4,,,8.4,
5692.5,8.4,,,8.4,
5697.0,7.9,,,7.9,
5701.5,8.7,,,8.7,
5706.0,9.2,,,9.2,
5710.5,9.0,,,9.0,
5715.0,9.1,,,9.1,
5719.5,9.2,,,9.2,
5724.0,9.3,,,9.3,
5728.5,9.4,,,9.4,
5733.0,9.3,,,9.3,
5737.5,8.5,,,8.5,
5742.0,8.9,,,8.9,
5746.5,8.6,,,8.6,
5751.0,7.5,,,7.5,
5755.5,7.3,,,7.3,
5760.0,7.2,,,7.2,
5764.5,7.3,,,7.3,
5769.0,8.0,,,8.0,
5773.5,8.2,,,8.2,
5778.0,8.3,,,8.3,
5782.5,8.3,,,8.3,
5787.0,8.4,,,8.4,
5791.5,8.4,,,8.4,
5796.0,8.3,,,8.3,
5800.5,9.1,,,9.1,
5805.0,8.8,,,8.8,
5809.5,8.0,,,8.0,
5814.0,8.4,,,8.4,
5818.5,8.0,,,8.0,
5823.0,7.9,,,7.9,
5827.5,7.9,,,7.9,
5832.0,7.9,,,7.9,
5836.5,7.8,,,7.8,
5841.0,7.6,,,7.6,
5845.5,8.2,,,8.2,
5850.0,9.7,,,9.7,
5854.5,10.3,,,10.3,
5859.0,10.4,,,10.4,
5863.5,9.5,,,9.5,
5868.0,8.8,,,8.8,
5872.5,7.7,,,7.7,
5877.0,7.6,,,7.6,
5881.5,7.4,,,7.4,
5886.0,7.5,,,7.5,
5890.5,7.5,,,7.5,
5895.0,7.8,,,7.8,
5899.5,7.9,,,7.9,
5904.0,7.1,,,7.1,
5908.5,6.6,,,6.6,
5913.0,6.7,,,6.7,
5917.5,6.8,,,6.8,
5922.0,6.1,,,6.1,
5926.5,5.7,,,5.7,
5931.0,6.2,,,6.2,
5935.5,6.0,,,6.0,
5940.0,5.9,,,5.9,
5944.5,5.8,,,5.8,
5949.0,5.9,,,5.9,
5953.5,6.3,,,6.3,
5958.0,6.6,,,6.6,
5962.5,6.1,,,6.1,
5967.0,6.0,,,6.0,
5971.5,6.5,,,6.5,
5976.0,6.1,,,6.1,
5980.5,6.0,,,6.0,
5985.0,6.0,,,6.0,
5989.5,5.9,,,5.9,
5994.0,6.0,,,6.0,
5998.5,6.1,,,6.1,
6003.0,6.3,,,6.3,
6007.5,6.3,,,6.3,
6012.0,7.2,,,7.2,
6016.5,6.9,,,6.9,
6021.0,6.6,,,6.6,
6025.5,5.4,,,5.4,
6030.0,4.9,,,4.9,
6034.5,4.7,,,4.7,
6039.0,4.9,,,4.9,
6043.5,5.1,,,5.1,
6048.0,5.4,,,5.4,
6052.5,5.2,,,5.2,
6057.0,5.2,,,5.2,
6061.5,5.4,,,5.4,
6066.0,5.1,,,5.1,
6070.5,4.4,,,4.4,
6075.0,4.1,,,4.1,
6079.5,4.1,,,4.1,
6084.0,5.1,,,5.1,
6088.5,5.6,,,5.6,
6093.0,6.1,,,6.1,
6097.5,5.4,,,5.4,
6102.0,5.2,,,5.2,
6106.5,5.2,,,5.2,
6111.0,5.1,,,5.1,
6115.5,5.2,,,5.2,
6120.0,5.2,,,5.2,
6124.5,5.1,,,5.1,
6129.0,5.1,,,5.1,
6133.5,5.3,,,5.3,
6138.0,5.3,,,5.3,
6142.5,5.2,,,5.2,
6147.0,4.8,,,4.8,
6151.5,4.7,,,4.7,
6156.0,3.8,,,3.8,
6160.5,4.4,,,4.4,
6165.0,5.6,,,5.6,
6169.5,5.8,,,5.8,
6174.0,5.1,,,5.1,
6178.5,4.8,,,4.8,
6183.0,4.5,,,4.5,
6187.5,4.2,,,4.2,
6192.0,4.4,,,4.4,
6196.5,4.5,,,4.5,
6201.0,3.5,,,3.5,
6205.5,3.4,,,3.4,
6210.0,3.6,,,3.6,
6214.5,3.8,,,3.8,
6219.0,4.0,,,4.0,
6223.5,3.8,,,3.8,
6228.0,3.4,,,3.4,
6232.5,3.1,,,3.1,
6237.0,3.3,,,3.3,
6241.5,3.1,,,3.1,
6246.0,3.1,,,3.1,
6250.5,3.1,,,3.1,
6255.0,2.9,,,2.9,
6259.5,2.9,,,2.9,
6264.0,2.9,,,2.9,
6268.5,2.9,,,2.9,
6273.0,2.9,,,2.9,
6277.5,3.2,,,3.2,
6282.0,3.7,,,3.7,
6286.5,4.6,,,4.6,
6291.0,4.2,,,4.2,
6295.5,3.9,,,3.9,
6300.0,3.4,,,3.4,
6304.5,3.1,,,3.1,
6309.0,3.1,,,3.1,
6313.5,4.0,,,4.0,
6318.0,4.1,,,4.1,
6322.5,4.2,,,4.2,
6327.0,4.5,,,4.5,
6331.5,3.8,,,3.8,
6336.0,3.7,,,3.7,
6340.5,3.7,,,3.7,
6345.0,2.8,,,2.8,
6349.5,2.0,,,2.0,
6354.0,2.0,,,2.0,
6358.5,1.9,,,1.9,
6363.0,2.0,,,2.0,
6367.5,2.3,,,2.3,
6372.0,2.1,,,2.1,
6376.5,1.8,,,1.8,
6381.0,1.7,,,1.7,
6385.5,1.7,,,1.7,
6390.0,1.0,,,1.0,
6394.5,1.6,,,1.6,
6399.0,1.8,,,1.8,
6403.5,2.4,,,2.4,
6408.0,2.9,,,2.9,
6412.5,2.3,,,2.3,
6417.0,1.7,,,1.7,
6421.5,2.1,,,2.1,
6426.0,1.6,,,1.6,
6430.5,1.3,,,1.3,
6435.0,1.9,,,1.9,
6439.5,1.9,,,1.9,
6444.0,1.2,,,1.2,
6448.5,1.1,,,1.1,
6453.0,1.8,,,1.8,
6457.5,1.2,,,1.2,
6462.0,1.1,,,1.1,
6466.5,1.1,,,1.1,
6471.0,1.1,,,1.1,
6475.5,1.8,,,1.8,
6480.0,1.6,,,1.6,
6484.5,1.2,,,1.2,
6489.0,1.1,,,1.1,
6493.5,1.1,,,1.1,
6498.0,0.9,,,0.9,
6502.5,1.1,,,1.1,
6507.0,0.9,,,0.9,
6511.5,0.7,,,0.7,
6516.0,0.6,,,0.6,
6520.5,0.6,,,0.6,
6525.0,0.6,,,0.6,
6529.5,0.6,,,0.6,
6534.0,1.0,,,1.0,
6538.5,1.2,,,1.2,
6539.0,1.2,,,1.2,