File: 01_Data/Homasote/FTIR/IS/Homasote_IS_S_221031_R3.dpt
7497.03,0.58799
7491.25,0.58418
7485.46,0.58726
7479.67,0.58878
7473.89,0.59325
7468.1,0.58251
7462.32,0.58822
7456.53,0.58298
7450.74,0.58027
7444.96,0.59004
7439.17,0.58239
7433.38,0.58849
7427.6,0.58787
7421.81,0.58512
7416.03,0.58260
7410.24,0.58007
7404.45,0.57954
7398.67,0.57604
7392.88,0.57228
7387.09,0.57359
7381.31,0.58711
7375.52,0.59317
7369.74,0.58378
7363.95,0.57880
7358.16,0.58281
7352.38,0.58760
7346.59,0.58161
7340.8,0.58455
7335.02,0.57822
7329.23,0.57771
7323.45,0.57929
7317.66,0.57362
7311.87,0.58696
7306.09,0.57482
7300.3,0.58025
7294.51,0.58113
7288.73,0.57853
7282.94,0.58222
7277.16,0.57766
7271.37,0.57370
7265.58,0.56862
7259.8,0.58090
7254.01,0.58405
7248.22,0.57379
7242.44,0.57455
7236.65,0.57373
7230.87,0.58208
7225.08,0.57799
7219.29,0.57710
7213.51,0.57135
7207.72,0.57368
7201.93,0.57239
7196.15,0.57985
7190.36,0.56930
7184.58,0.57208
7178.79,0.57381
7173,0.57597
7167.22,0.56966
7161.43,0.56979
7155.65,0.56919
7149.86,0.57400
7144.07,0.56887
7138.29,0.57814
7132.5,0.57848
7126.71,0.56934
7120.93,0.57249
7115.14,0.57641
7109.36,0.57661
7103.57,0.57706
7097.78,0.57221
7092,0.56448
7086.21,0.56603
7080.42,0.56442
7074.64,0.55982
7068.85,0.55731
7063.07,0.55778
7057.28,0.56005
7051.49,0.56012
7045.71,0.57071
7039.92,0.56184
7034.13,0.55420
7028.35,0.55866
7022.56,0.56737
7016.78,0.56252
7010.99,0.55338
7005.2,0.56333
6999.42,0.55613
6993.63,0.55524
6987.84,0.55634
6982.06,0.55247
6976.27,0.55256
6970.49,0.55774
6964.7,0.55570
6958.91,0.55471
6953.13,0.55479
6947.34,0.54955
6941.55,0.54937
6935.77,0.54615
6929.98,0.55287
6924.2,0.55136
6918.41,0.54673
6912.62,0.54606
6906.84,0.54939
6901.05,0.54976
6895.26,0.54976
6889.48,0.54015
6883.69,0.54617
6877.91,0.54575
6872.12,0.54835
6866.33,0.54428
6860.55,0.54568
6854.76,0.55197
6848.97,0.54494
6843.19,0.54583
6837.4,0.54666
6831.62,0.54587
6825.83,0.54479
6820.04,0.54536
6814.26,0.54706
6808.47,0.54095
6802.68,0.54722
6796.9,0.54696
6791.11,0.53400
6785.33,0.54463
6779.54,0.54661
6773.75,0.54656
6767.97,0.53825
6762.18,0.54603
6756.39,0.53639
6750.61,0.54515
6744.82,0.54630
6739.04,0.53661
6733.25,0.54240
6727.46,0.54089
6721.68,0.54427
6715.89,0.54687
6710.1,0.54896
6704.32,0.54089
6698.53,0.54569
6692.75,0.54476
6686.96,0.54271
6681.17,0.55047
6675.39,0.54674
6669.6,0.54501
6663.82,0.54203
6658.03,0.54379
6652.24,0.54394
6646.46,0.54156
6640.67,0.54610
6634.88,0.54866
6629.1,0.54549
6623.31,0.54556
6617.53,0.55191
6611.74,0.55450
6605.95,0.54808
6600.17,0.54863
6594.38,0.55007
6588.59,0.55077
6582.81,0.55087
6577.02,0.55185
6571.24,0.54800
6565.45,0.55068
6559.66,0.55525
6553.88,0.55694
6548.09,0.54821
6542.3,0.55145
6536.52,0.54858
6530.73,0.55171
6524.95,0.55636
6519.16,0.54400
6513.37,0.55057
6507.59,0.55185
6501.8,0.55461
6496.01,0.55246
6490.23,0.55459
6484.44,0.54719
6478.66,0.54695
6472.87,0.55340
6467.08,0.55227
6461.3,0.55229
6455.51,0.54977
6449.72,0.54984
6443.94,0.55069
6438.15,0.55527
6432.37,0.55485
6426.58,0.55442
6420.79,0.55432
6415.01,0.55401
6409.22,0.54953
6403.43,0.55160
6397.65,0.55085
6391.86,0.55158
6386.08,0.55659
6380.29,0.55259
6374.5,0.55523
6368.72,0.55225
6362.93,0.55333
6357.14,0.55736
6351.36,0.55584
6345.57,0.55479
6339.79,0.55424
6334,0.55031
6328.21,0.55584
6322.43,0.55693
6316.64,0.55651
6310.85,0.55562
6305.07,0.55056
6299.28,0.55704
6293.5,0.55949
6287.71,0.55721
6281.92,0.55775
6276.14,0.55831
6270.35,0.55855
6264.56,0.55881
6258.78,0.56063
6252.99,0.55981
6247.21,0.55803
6241.42,0.56207
6235.63,0.56231
6229.85,0.56312
6224.06,0.56228
6218.27,0.56084
6212.49,0.56109
6206.7,0.56386
6200.92,0.56489
6195.13,0.56625
6189.34,0.56091
6183.56,0.56566
6177.77,0.56839
6171.98,0.56647
6166.2,0.56981
6160.41,0.56682
6154.63,0.56886
6148.84,0.56772
6143.05,0.56843
6137.27,0.56941
6131.48,0.56869
6125.7,0.56770
6119.91,0.57053
6114.12,0.57043
6108.34,0.56890
6102.55,0.57249
6096.76,0.57249
6090.98,0.57004
6085.19,0.57369
6079.41,0.57102
6073.62,0.56966
6067.83,0.56943
6062.05,0.56947
6056.26,0.57212
6050.47,0.57066
6044.69,0.57061
6038.9,0.56886
6033.12,0.57026
6027.33,0.57078
6021.54,0.57194
6015.76,0.57145
6009.97,0.57088
6004.18,0.56931
5998.4,0.57166
5992.61,0.57118
5986.83,0.57131
5981.04,0.56979
5975.25,0.56887
5969.47,0.57030
5963.68,0.57216
5957.89,0.57226
5952.11,0.57245
5946.32,0.57141
5940.54,0.56890
5934.75,0.57189
5928.96,0.56946
5923.18,0.56964
5917.39,0.57114
5911.6,0.56845
5905.82,0.56782
5900.03,0.56877
5894.25,0.56548
5888.46,0.57006
5882.67,0.56953
5876.89,0.56840
5871.1,0.57163
5865.31,0.56755
5859.53,0.56818
5853.74,0.56753
5847.96,0.56938
5842.17,0.56792
5836.38,0.56602
5830.6,0.56986
5824.81,0.56942
5819.02,0.56604
5813.24,0.56508
5807.45,0.56663
5801.67,0.56643
5795.88,0.56611
5790.09,0.56660
5784.31,0.56598
5778.52,0.56490
5772.73,0.56467
5766.95,0.56490
5761.16,0.56309
5755.38,0.56572
5749.59,0.56474
5743.8,0.56808
5738.02,0.56826
5732.23,0.56496
5726.44,0.56714
5720.66,0.56565
5714.87,0.56808
5709.09,0.56755
5703.3,0.56672
5697.51,0.56632
5691.73,0.56580
5685.94,0.56511
5680.15,0.56579
5674.37,0.56474
5668.58,0.56421
5662.8,0.56375
5657.01,0.56620
5651.22,0.56805
5645.44,0.56669
5639.65,0.56568
5633.87,0.56509
5628.08,0.56321
5622.29,0.56477
5616.51,0.56374
5610.72,0.56497
5604.93,0.56659
5599.15,0.56694
5593.36,0.56507
5587.58,0.56871
5581.79,0.56720
5576,0.56637
5570.22,0.56702
5564.43,0.56700
5558.64,0.56673
5552.86,0.56449
5547.07,0.56815
5541.29,0.56741
5535.5,0.56865
5529.71,0.56943
5523.93,0.56903
5518.14,0.56705
5512.35,0.56715
5506.57,0.56789
5500.78,0.56780
5495,0.56633
5489.21,0.56662
5483.42,0.56810
5477.64,0.57051
5471.85,0.57031
5466.06,0.56980
5460.28,0.56943
5454.49,0.56960
5448.71,0.57132
5442.92,0.56966
5437.13,0.57116
5431.35,0.57159
5425.56,0.57049
5419.77,0.57315
5413.99,0.57210
5408.2,0.57290
5402.42,0.57127
5396.63,0.57237
5390.84,0.57413
5385.06,0.57308
5379.27,0.57292
5373.48,0.57572
5367.7,0.57409
5361.91,0.57410
5356.13,0.57412
5350.34,0.57242
5344.55,0.57133
5338.77,0.57193
5332.98,0.57237
5327.19,0.56982
5321.41,0.57056
5315.62,0.56835
5309.84,0.56609
5304.05,0.56540
5298.26,0.56330
5292.48,0.56009
5286.69,0.55752
5280.9,0.55331
5275.12,0.55063
5269.33,0.54425
5263.55,0.54077
5257.76,0.53563
5251.97,0.53032
5246.19,0.52438
5240.4,0.51933
5234.61,0.51270
5228.83,0.50905
5223.04,0.50598
5217.26,0.50176
5211.47,0.49919
5205.68,0.49815
5199.9,0.49654
5194.11,0.49826
5188.32,0.49931
5182.54,0.50140
5176.75,0.50121
5170.97,0.50128
5165.18,0.50168
5159.39,0.50329
5153.61,0.50450
5147.82,0.50770
5142.03,0.50910
5136.25,0.51045
5130.46,0.51198
5124.68,0.51382
5118.89,0.51615
5113.1,0.51791
5107.32,0.51902
5101.53,0.52084
5095.75,0.52175
5089.96,0.52317
5084.17,0.52413
5078.39,0.52547
5072.6,0.52689
5066.81,0.52754
5061.03,0.53052
5055.24,0.53227
5049.46,0.53323
5043.67,0.53380
5037.88,0.53594
5032.1,0.53694
5026.31,0.53678
5020.52,0.53671
5014.74,0.53656
5008.95,0.53695
5003.17,0.53857
4997.38,0.53932
4991.59,0.53903
4985.81,0.53944
4980.02,0.54006
4974.23,0.54023
4968.45,0.54113
4962.66,0.53849
4956.88,0.53803
4951.09,0.53741
4945.3,0.53573
4939.52,0.53336
4933.73,0.53226
4927.94,0.53102
4922.16,0.52743
4916.37,0.52607
4910.59,0.52444
4904.8,0.52125
4899.01,0.51821
4893.23,0.51539
4887.44,0.51167
4881.65,0.50926
4875.87,0.50548
4870.08,0.50344
4864.3,0.49986
4858.51,0.49691
4852.72,0.49413
4846.94,0.49074
4841.15,0.48864
4835.36,0.48506
4829.58,0.48300
4823.79,0.48073
4818.01,0.47864
4812.22,0.47668
4806.43,0.47420
4800.65,0.47395
4794.86,0.47312
4789.07,0.47108
4783.29,0.46908
4777.5,0.46811
4771.72,0.46645
4765.93,0.46587
4760.14,0.46435
4754.36,0.46454
4748.57,0.46417
4742.78,0.46407
4737,0.46498
4731.21,0.46528
4725.43,0.46632
4719.64,0.46679
4713.85,0.46637
4708.07,0.46821
4702.28,0.46908
4696.49,0.47064
4690.71,0.47163
4684.92,0.47451
4679.14,0.47505
4673.35,0.47664
4667.56,0.47690
4661.78,0.47879
4655.99,0.48054
4650.2,0.48126
4644.42,0.48212
4638.63,0.48344
4632.85,0.48439
4627.06,0.48563
4621.27,0.48747
4615.49,0.48941
4609.7,0.49071
4603.92,0.49165
4598.13,0.49409
4592.34,0.49591
4586.56,0.49699
4580.77,0.49785
4574.98,0.49973
4569.2,0.50030
4563.41,0.50066
4557.63,0.50165
4551.84,0.50297
4546.05,0.50401
4540.27,0.50402
4534.48,0.50397
4528.69,0.50216
4522.91,0.50489
4517.12,0.50632
4511.34,0.50888
4505.55,0.50977
4499.76,0.50958
4493.98,0.50881
4488.19,0.50819
4482.4,0.50665
4476.62,0.50536
4470.83,0.50351
4465.05,0.50025
4459.26,0.49799
4453.47,0.49356
4447.69,0.49011
4441.9,0.48664
4436.11,0.48181
4430.33,0.47791
4424.54,0.47275
4418.76,0.46743
4412.97,0.46271
4407.18,0.45814
4401.4,0.45444
4395.61,0.45397
4389.82,0.45370
4384.04,0.45506
4378.25,0.45656
4372.47,0.45792
4366.68,0.45853
4360.89,0.45829
4355.11,0.45707
4349.32,0.45659
4343.53,0.45347
4337.75,0.45148
4331.96,0.44882
4326.18,0.44480
4320.39,0.44161
4314.6,0.44234
4308.82,0.44222
4303.03,0.44069
4297.24,0.43873
4291.46,0.43782
4285.67,0.43524
4279.89,0.43540
4274.1,0.43439
4268.31,0.43424
4262.53,0.43491
4256.74,0.43429
4250.95,0.43447
4245.17,0.43630
4239.38,0.43800
4233.6,0.43912
4227.81,0.43926
4222.02,0.43965
4216.24,0.43965
4210.45,0.43954
4204.66,0.44065
4198.88,0.44114
4193.09,0.44110
4187.31,0.44172
4181.52,0.44118
4175.73,0.44229
4169.95,0.44208
4164.16,0.44209
4158.37,0.44178
4152.59,0.44021
4146.8,0.43907
4141.02,0.43696
4135.23,0.43493
4129.44,0.43316
4123.66,0.42976
4117.87,0.42642
4112.09,0.42251
4106.3,0.41800
4100.51,0.41219
4094.73,0.40846
4088.94,0.40302
4083.15,0.39853
4077.37,0.39348
4071.58,0.38848
4065.8,0.38311
4060.01,0.37785
4054.22,0.37213
4048.44,0.36708
4042.65,0.36246
4036.86,0.35792
4031.08,0.35404
4025.29,0.35228
4019.51,0.35157
4013.72,0.35165
4007.93,0.35248
4002.15,0.35345
3996.36,0.35589
3990.57,0.35782
3984.79,0.35982
3979,0.36097
3973.22,0.36253
3967.43,0.36526
3961.64,0.36734
3955.86,0.36885
3950.07,0.37143
3944.28,0.37345
3938.5,0.37666
3932.71,0.37902
3926.93,0.38138
3921.14,0.38424
3915.35,0.38670
3909.57,0.38944
3903.78,0.39091
3897.99,0.39306
3892.21,0.39532
3886.42,0.39759
3880.64,0.39878
3874.85,0.40056
3869.06,0.40223
3863.28,0.40481
3857.49,0.40783
3851.7,0.40924
3845.92,0.41164
3840.13,0.41258
3834.35,0.41374
3828.56,0.41330
3822.77,0.41335
3816.99,0.41345
3811.2,0.41195
3805.41,0.41173
3799.63,0.41084
3793.84,0.40986
3788.06,0.40871
3782.27,0.40725
3776.48,0.40600
3770.7,0.40407
3764.91,0.40073
3759.12,0.39871
3753.34,0.39495
3747.55,0.39040
3741.77,0.38506
3735.98,0.37759
3730.19,0.36870
3724.41,0.35722
3718.62,0.33996
3712.83,0.31564
3707.05,0.27937
3701.26,0.23249
3695.48,0.20141
3689.69,0.21213
3683.9,0.23034
3678.12,0.22831
3672.33,0.21080
3666.54,0.19471
3660.76,0.18148
3654.97,0.16102
3649.19,0.14958
3643.4,0.14117
3637.61,0.13128
3631.83,0.11953
3626.04,0.10429
3620.25,0.09251
3614.47,0.09362
3608.68,0.09093
3602.9,0.08720
3597.11,0.08357
3591.32,0.08103
3585.54,0.07767
3579.75,0.07416
3573.97,0.07021
3568.18,0.06725
3562.39,0.06386
3556.61,0.06096
3550.82,0.05919
3545.03,0.05799
3539.25,0.05633
3533.46,0.05473
3527.68,0.05333
3521.89,0.05238
3516.1,0.05048
3510.32,0.05023
3504.53,0.04904
3498.74,0.04816
3492.96,0.04696
3487.17,0.04648
3481.39,0.04498
3475.6,0.04446
3469.81,0.04348
3464.03,0.04327
3458.24,0.04287
3452.45,0.04285
3446.67,0.04154
3440.88,0.04273
3435.1,0.04208
3429.31,0.04177
3423.52,0.04145
3417.74,0.04136
3411.95,0.04074
3406.16,0.04106
3400.38,0.04103
3394.59,0.04140
3388.81,0.04110
3383.02,0.04139
3377.23,0.04142
3371.45,0.04202
3365.66,0.04224
3359.87,0.04314
3354.09,0.04282
3348.3,0.04262
3342.52,0.04369
3336.73,0.04479
3330.94,0.04493
3325.16,0.04571
3319.37,0.04721
3313.58,0.04719
3307.8,0.04761
3302.01,0.04814
3296.23,0.04864
3290.44,0.04805
3284.65,0.04961
3278.87,0.04973
3273.08,0.05145
3267.29,0.05218
3261.51,0.05364
3255.72,0.05396
3249.94,0.05427
3244.15,0.05651
3238.36,0.05769
3232.58,0.05814
3226.79,0.05833
3221,0.06029
3215.22,0.06164
3209.43,0.06264
3203.65,0.06322
3197.86,0.06507
3192.07,0.06633
3186.29,0.06630
3180.5,0.06919
3174.71,0.07079
3168.93,0.07172
3163.14,0.07308
3157.36,0.07466
3151.57,0.07676
3145.78,0.07760
3140,0.07979
3134.21,0.08115
3128.42,0.08286
3122.64,0.08405
3116.85,0.08621
3111.07,0.08786
3105.28,0.08931
3099.49,0.09145
3093.71,0.09317
3087.92,0.09517
3082.14,0.09654
3076.35,0.09861
3070.56,0.10038
3064.78,0.10209
3058.99,0.10376
3053.2,0.10596
3047.42,0.10787
3041.63,0.10986
3035.85,0.11062
3030.06,0.11217
3024.27,0.11334
3018.49,0.11463
3012.7,0.11480
3006.91,0.11461
3001.13,0.11358
2995.34,0.11217
2989.56,0.10955
2983.77,0.10535
2977.98,0.10047
2972.2,0.09341
2966.41,0.08827
2960.62,0.08592
2954.84,0.08275
2949.05,0.07862
2943.27,0.07585
2937.48,0.07387
2931.69,0.07093
2925.91,0.06890
2920.12,0.06609
2914.33,0.06652
2908.55,0.06904
2902.76,0.06970
2896.98,0.07124
2891.19,0.07380
2885.4,0.07623
2879.62,0.07817
2873.83,0.07985
2868.04,0.08116
2862.26,0.08263
2856.47,0.08354
2850.69,0.08224
2844.9,0.09096
2839.11,0.10094
2833.33,0.10735
2827.54,0.11256
2821.75,0.11762
2815.97,0.12237
2810.18,0.12647
2804.4,0.13031
2798.61,0.13320
2792.82,0.13544
2787.04,0.13702
2781.25,0.13899
2775.46,0.14009
2769.68,0.14075
2763.89,0.14241
2758.11,0.14333
2752.32,0.14398
2746.53,0.14426
2740.75,0.14484
2734.96,0.14582
2729.17,0.14703
2723.39,0.14869
2717.6,0.14987
2711.82,0.15204
2706.03,0.15463
2700.24,0.15717
2694.46,0.15981
2688.67,0.16191
2682.88,0.16398
2677.1,0.16635
2671.31,0.16819
2665.53,0.16960
2659.74,0.17105
2653.95,0.17282
2648.17,0.17440
2642.38,0.17617
2636.59,0.17842
2630.81,0.18041
2625.02,0.18217
2619.24,0.18419
2613.45,0.18592
2607.66,0.18703
2601.88,0.18830
2596.09,0.19028
2590.3,0.19153
2584.52,0.19218
2578.73,0.19326
2572.95,0.19388
2567.16,0.19454
2561.37,0.19464
2555.59,0.19482
2549.8,0.19482
2544.02,0.19443
2538.23,0.19465
2532.44,0.19433
2526.66,0.19347
2520.87,0.19379
2515.08,0.19399
2509.3,0.19653
2503.51,0.20129
2497.73,0.20597
2491.94,0.21146
2486.15,0.21533
2480.37,0.21911
2474.58,0.22281
2468.79,0.22582
2463.01,0.22852
2457.22,0.23074
2451.44,0.23338
2445.65,0.23606
2439.86,0.23931
2434.08,0.24213
2428.29,0.24560
2422.5,0.24858
2416.72,0.25158
2410.93,0.25478
2405.15,0.25682
2399.36,0.25952
2393.57,0.26147
2387.79,0.26387
2382,0.26624
2376.21,0.26827
2370.43,0.27047
2364.64,0.27225
2358.86,0.27423
2353.07,0.27531
2347.28,0.27726
2341.5,0.27807
2335.71,0.27989
2329.92,0.28098
2324.14,0.28188
2318.35,0.28329
2312.57,0.28391
2306.78,0.28419
2300.99,0.28386
2295.21,0.28362
2289.42,0.28366
2283.63,0.28281
2277.85,0.28256
2272.06,0.28213
2266.28,0.28024
2260.49,0.27839
2254.7,0.27692
2248.92,0.27552
2243.13,0.27435
2237.34,0.27312
2231.56,0.27219
2225.77,0.27202
2219.99,0.27207
2214.2,0.27259
2208.41,0.27289
2202.63,0.27196
2196.84,0.27116
2191.05,0.26979
2185.27,0.26739
2179.48,0.26410
2173.7,0.26002
2167.91,0.25619
2162.12,0.25312
2156.34,0.25055
2150.55,0.24774
2144.76,0.24573
2138.98,0.24413
2133.19,0.24389
2127.41,0.24457
2121.62,0.24746
2115.83,0.25056
2110.05,0.25280
2104.26,0.25450
2098.47,0.25580
2092.69,0.25691
2086.9,0.25828
2081.12,0.25950
2075.33,0.25982
2069.54,0.25976
2063.76,0.25964
2057.97,0.25957
2052.19,0.25962
2046.4,0.26025
2040.61,0.26160
2034.83,0.26417
2029.04,0.26699
2023.25,0.27040
2017.47,0.27407
2011.68,0.27674
2005.9,0.27863
2000.11,0.27989
1994.32,0.28125
1988.54,0.28309
1982.75,0.28436
1976.96,0.28529
1971.18,0.28532
1965.39,0.28574
1959.61,0.28577
1953.82,0.28664
1948.03,0.28748
1942.25,0.28924
1936.46,0.29054
1930.67,0.29099
1924.89,0.29188
1919.1,0.29249
1913.32,0.29273
1907.53,0.29264
1901.74,0.29245
1895.96,0.29228
1890.17,0.29137
1884.38,0.29069
1878.6,0.28964
1872.81,0.28858
1867.03,0.28691
1861.24,0.28467
1855.45,0.28221
1849.67,0.27922
1843.88,0.27502
1838.09,0.27010
1832.31,0.26478
1826.52,0.25809
1820.74,0.24956
1814.95,0.23952
1809.16,0.22535
1803.38,0.20555
1797.59,0.18166
1791.8,0.16727
1786.02,0.15860
1780.23,0.14618
1774.45,0.13460
1768.66,0.12328
1762.87,0.11357
1757.09,0.10412
1751.3,0.09517
1745.51,0.08760
1739.73,0.08226
1733.94,0.07904
1728.16,0.07708
1722.37,0.07641
1716.58,0.07689
1710.8,0.07749
1705.01,0.07926
1699.22,0.08005
1693.44,0.07950
1687.65,0.07865
1681.87,0.07634
1676.08,0.07470
1670.29,0.07293
1664.51,0.07146
1658.72,0.06975
1652.93,0.06877
1647.15,0.06821
1641.36,0.06799
1635.58,0.06763
1629.79,0.06596
1624,0.06513
1618.22,0.06476
1612.43,0.06571
1606.64,0.06678
1600.86,0.06756
1595.07,0.06945
1589.29,0.07295
1583.5,0.07711
1577.71,0.08220
1571.93,0.08827
1566.14,0.09292
1560.35,0.09659
1554.57,0.09990
1548.78,0.10101
1543,0.10079
1537.21,0.09864
1531.42,0.09477
1525.64,0.08859
1519.85,0.08021
1514.07,0.07492
1508.28,0.07354
1502.49,0.07303
1496.71,0.07228
1490.92,0.06972
1485.13,0.06591
1479.35,0.06213
1473.56,0.05833
1467.78,0.05427
1461.99,0.05241
1456.2,0.05235
1450.42,0.05211
1444.63,0.05193
1438.84,0.05141
1433.06,0.05001
1427.27,0.05142
1421.49,0.05413
1415.7,0.05686
1409.91,0.05845
1404.13,0.05847
1398.34,0.05858
1392.55,0.05830
1386.77,0.05651
1380.98,0.05363
1375.2,0.05194
1369.41,0.05209
1363.62,0.05362
1357.84,0.05405
1352.05,0.05575
1346.26,0.05511
1340.48,0.05338
1334.69,0.05264
1328.91,0.05379
1323.12,0.05246
1317.33,0.05246
1311.55,0.05433
1305.76,0.05625
1299.97,0.05729
1294.19,0.05674
1288.4,0.05536
1282.62,0.05369
1276.83,0.05496
1271.04,0.05519
1265.26,0.05561
1259.47,0.05641
1253.68,0.05625
1247.9,0.05552
1242.11,0.05624
1236.33,0.05593
1230.54,0.05676
1224.75,0.05772
1218.97,0.05715
1213.18,0.05565
1207.39,0.05368
1201.61,0.05344
1195.82,0.05407
1190.04,0.05370
1184.25,0.05135
1178.46,0.04828
1172.68,0.04709
1166.89,0.04962
1161.1,0.05448
1155.32,0.05605
1149.53,0.05487
1143.75,0.05273
1137.96,0.04943
1132.17,0.04622
1126.39,0.04533
1120.6,0.04668
1114.81,0.04833
1109.03,0.04966
1103.24,0.05038
1097.46,0.05000
1091.67,0.05016
1085.88,0.04936
1080.1,0.05010
1074.31,0.05245
1068.52,0.05659
1062.74,0.06432
1056.95,0.06912
1051.17,0.06839
1045.38,0.06610
1039.59,0.06780
1033.81,0.07441
1028.02,0.07487
1022.24,0.07452
1016.45,0.07398
1010.66,0.07572
1004.88,0.07603
999.09,0.07741
993.304,0.08142
987.518,0.08487
981.731,0.09105
975.945,0.09730
970.159,0.09997
964.373,0.10469
958.586,0.11027
952.8,0.11485
947.014,0.11528
941.228,0.11277
935.441,0.11139
929.655,0.11156
923.869,0.11057
918.083,0.10747
912.297,0.10557
906.51,0.10524
900.724,0.10288
894.938,0.10503
889.152,0.11235
883.365,0.11254
877.579,0.10321
871.793,0.10342
866.007,0.11826
860.22,0.11940
854.434,0.11875
848.648,0.11869
842.862,0.11916
837.075,0.11748
831.289,0.11549
825.503,0.11285
819.717,0.10906
813.931,0.10566
808.144,0.10252
802.358,0.09980
796.572,0.09752
790.786,0.09578
784.999,0.09369
779.213,0.09119
773.427,0.08888
767.641,0.08617
761.854,0.08437
756.068,0.08326
750.282,0.08257
744.496,0.08139
738.709,0.07850
732.923,0.07528
727.137,0.07138
721.351,0.06840
715.565,0.06541
709.778,0.06521
703.992,0.06571
698.206,0.06476
692.42,0.06355
686.633,0.06399
680.847,0.06178
675.061,0.06104
669.275,0.06125
663.488,0.06004
657.702,0.06149
651.916,0.06049
646.13,0.06115
640.343,0.06010
634.557,0.05801
628.771,0.05708
622.985,0.05955
617.198,0.05748
611.412,0.06098
605.626,0.06287
599.84,0.06296