File: 01_Data/Homasote/FTIR/IS/Homasote_IS_S_221031_R2.dpt
7497.03,0.58678
7491.25,0.59329
7485.46,0.58304
7479.67,0.57816
7473.89,0.58395
7468.1,0.58871
7462.32,0.58247
7456.53,0.58727
7450.74,0.59002
7444.96,0.57952
7439.17,0.58090
7433.38,0.57372
7427.6,0.58090
7421.81,0.58649
7416.03,0.58196
7410.24,0.57787
7404.45,0.58432
7398.67,0.57397
7392.88,0.57802
7387.09,0.58196
7381.31,0.58147
7375.52,0.58611
7369.74,0.57688
7363.95,0.58675
7358.16,0.57597
7352.38,0.57528
7346.59,0.57449
7340.8,0.57974
7335.02,0.57472
7329.23,0.57594
7323.45,0.57369
7317.66,0.57548
7311.87,0.57924
7306.09,0.58188
7300.3,0.58355
7294.51,0.57841
7288.73,0.57438
7282.94,0.57892
7277.16,0.57644
7271.37,0.56405
7265.58,0.58047
7259.8,0.59419
7254.01,0.58592
7248.22,0.57940
7242.44,0.58041
7236.65,0.57901
7230.87,0.56993
7225.08,0.58376
7219.29,0.58125
7213.51,0.57693
7207.72,0.56831
7201.93,0.58192
7196.15,0.57812
7190.36,0.58243
7184.58,0.57805
7178.79,0.57653
7173,0.57377
7167.22,0.57842
7161.43,0.57839
7155.65,0.56735
7149.86,0.57790
7144.07,0.57197
7138.29,0.57933
7132.5,0.57452
7126.71,0.57028
7120.93,0.57567
7115.14,0.57608
7109.36,0.57388
7103.57,0.57222
7097.78,0.56946
7092,0.56581
7086.21,0.57461
7080.42,0.57134
7074.64,0.56478
7068.85,0.56499
7063.07,0.56165
7057.28,0.55317
7051.49,0.55442
7045.71,0.56362
7039.92,0.55946
7034.13,0.56020
7028.35,0.56365
7022.56,0.55991
7016.78,0.56239
7010.99,0.55363
7005.2,0.55706
6999.42,0.55391
6993.63,0.55450
6987.84,0.55813
6982.06,0.55034
6976.27,0.55610
6970.49,0.54712
6964.7,0.55257
6958.91,0.54709
6953.13,0.54477
6947.34,0.55279
6941.55,0.54844
6935.77,0.54539
6929.98,0.54957
6924.2,0.55587
6918.41,0.54828
6912.62,0.54965
6906.84,0.55346
6901.05,0.54465
6895.26,0.54290
6889.48,0.53907
6883.69,0.54736
6877.91,0.54660
6872.12,0.54126
6866.33,0.54703
6860.55,0.54692
6854.76,0.54553
6848.97,0.54447
6843.19,0.54819
6837.4,0.54261
6831.62,0.54102
6825.83,0.54781
6820.04,0.54989
6814.26,0.54561
6808.47,0.54165
6802.68,0.54363
6796.9,0.54765
6791.11,0.54310
6785.33,0.54189
6779.54,0.54597
6773.75,0.54667
6767.97,0.54350
6762.18,0.53734
6756.39,0.53958
6750.61,0.54232
6744.82,0.54539
6739.04,0.54595
6733.25,0.53859
6727.46,0.54038
6721.68,0.53799
6715.89,0.53897
6710.1,0.54404
6704.32,0.54257
6698.53,0.54560
6692.75,0.54510
6686.96,0.54074
6681.17,0.54246
6675.39,0.54625
6669.6,0.54670
6663.82,0.54452
6658.03,0.53888
6652.24,0.54640
6646.46,0.55150
6640.67,0.54331
6634.88,0.54551
6629.1,0.54998
6623.31,0.54764
6617.53,0.54514
6611.74,0.54780
6605.95,0.54635
6600.17,0.54771
6594.38,0.54734
6588.59,0.54872
6582.81,0.55132
6577.02,0.55544
6571.24,0.55422
6565.45,0.55028
6559.66,0.54778
6553.88,0.55014
6548.09,0.54915
6542.3,0.55337
6536.52,0.55364
6530.73,0.55241
6524.95,0.54984
6519.16,0.55209
6513.37,0.55149
6507.59,0.54912
6501.8,0.54829
6496.01,0.55147
6490.23,0.55001
6484.44,0.55346
6478.66,0.55240
6472.87,0.55027
6467.08,0.55414
6461.3,0.55415
6455.51,0.55232
6449.72,0.55314
6443.94,0.54832
6438.15,0.54914
6432.37,0.55582
6426.58,0.55111
6420.79,0.55025
6415.01,0.55282
6409.22,0.55177
6403.43,0.55546
6397.65,0.55620
6391.86,0.54974
6386.08,0.55333
6380.29,0.55673
6374.5,0.55408
6368.72,0.55532
6362.93,0.55459
6357.14,0.55245
6351.36,0.55376
6345.57,0.54916
6339.79,0.55325
6334,0.55351
6328.21,0.55609
6322.43,0.56002
6316.64,0.55835
6310.85,0.55808
6305.07,0.55350
6299.28,0.55683
6293.5,0.55482
6287.71,0.55908
6281.92,0.55572
6276.14,0.55219
6270.35,0.55687
6264.56,0.55938
6258.78,0.55689
6252.99,0.55610
6247.21,0.55915
6241.42,0.56174
6235.63,0.56022
6229.85,0.55817
6224.06,0.56080
6218.27,0.55987
6212.49,0.56097
6206.7,0.56115
6200.92,0.56493
6195.13,0.56588
6189.34,0.56182
6183.56,0.56424
6177.77,0.56425
6171.98,0.56522
6166.2,0.56840
6160.41,0.56718
6154.63,0.56596
6148.84,0.56537
6143.05,0.56759
6137.27,0.56870
6131.48,0.56667
6125.7,0.56898
6119.91,0.57045
6114.12,0.56827
6108.34,0.56508
6102.55,0.56633
6096.76,0.56893
6090.98,0.56680
6085.19,0.56801
6079.41,0.57110
6073.62,0.57200
6067.83,0.57169
6062.05,0.57101
6056.26,0.57156
6050.47,0.57078
6044.69,0.56841
6038.9,0.56885
6033.12,0.57371
6027.33,0.57400
6021.54,0.56732
6015.76,0.56932
6009.97,0.57135
6004.18,0.57286
5998.4,0.57107
5992.61,0.57200
5986.83,0.57078
5981.04,0.57005
5975.25,0.57105
5969.47,0.56907
5963.68,0.57048
5957.89,0.57069
5952.11,0.57052
5946.32,0.56743
5940.54,0.57079
5934.75,0.56931
5928.96,0.57013
5923.18,0.57043
5917.39,0.57018
5911.6,0.56971
5905.82,0.56932
5900.03,0.56917
5894.25,0.56758
5888.46,0.56929
5882.67,0.56593
5876.89,0.57132
5871.1,0.56847
5865.31,0.56564
5859.53,0.56523
5853.74,0.56657
5847.96,0.56723
5842.17,0.56711
5836.38,0.56688
5830.6,0.56715
5824.81,0.56605
5819.02,0.56506
5813.24,0.56763
5807.45,0.56890
5801.67,0.56763
5795.88,0.56335
5790.09,0.56242
5784.31,0.56539
5778.52,0.56653
5772.73,0.56704
5766.95,0.56511
5761.16,0.56622
5755.38,0.56401
5749.59,0.56372
5743.8,0.56441
5738.02,0.56465
5732.23,0.56598
5726.44,0.56593
5720.66,0.56399
5714.87,0.56688
5709.09,0.56629
5703.3,0.56661
5697.51,0.56638
5691.73,0.56660
5685.94,0.56479
5680.15,0.56538
5674.37,0.56429
5668.58,0.56574
5662.8,0.56441
5657.01,0.56569
5651.22,0.56491
5645.44,0.56486
5639.65,0.56267
5633.87,0.56443
5628.08,0.56733
5622.29,0.56610
5616.51,0.56578
5610.72,0.56416
5604.93,0.56275
5599.15,0.56516
5593.36,0.56655
5587.58,0.56649
5581.79,0.56755
5576,0.56515
5570.22,0.56671
5564.43,0.56504
5558.64,0.56589
5552.86,0.56766
5547.07,0.56692
5541.29,0.56734
5535.5,0.56650
5529.71,0.56728
5523.93,0.56558
5518.14,0.56814
5512.35,0.56953
5506.57,0.56679
5500.78,0.56912
5495,0.56901
5489.21,0.56860
5483.42,0.56699
5477.64,0.56715
5471.85,0.56866
5466.06,0.57025
5460.28,0.57048
5454.49,0.56820
5448.71,0.57016
5442.92,0.57048
5437.13,0.57046
5431.35,0.56924
5425.56,0.57058
5419.77,0.57156
5413.99,0.57106
5408.2,0.57153
5402.42,0.57279
5396.63,0.57410
5390.84,0.57188
5385.06,0.57224
5379.27,0.57197
5373.48,0.57258
5367.7,0.57180
5361.91,0.57235
5356.13,0.57178
5350.34,0.57179
5344.55,0.57121
5338.77,0.57155
5332.98,0.56996
5327.19,0.56936
5321.41,0.56891
5315.62,0.56651
5309.84,0.56501
5304.05,0.56399
5298.26,0.56039
5292.48,0.55858
5286.69,0.55526
5280.9,0.55254
5275.12,0.54841
5269.33,0.54476
5263.55,0.53934
5257.76,0.53496
5251.97,0.52753
5246.19,0.52335
5240.4,0.51839
5234.61,0.51186
5228.83,0.50844
5223.04,0.50507
5217.26,0.50068
5211.47,0.49748
5205.68,0.49446
5199.9,0.49553
5194.11,0.49730
5188.32,0.49797
5182.54,0.49762
5176.75,0.50009
5170.97,0.49837
5165.18,0.50047
5159.39,0.50327
5153.61,0.50392
5147.82,0.50425
5142.03,0.50724
5136.25,0.50707
5130.46,0.51069
5124.68,0.51174
5118.89,0.51248
5113.1,0.51393
5107.32,0.51638
5101.53,0.51800
5095.75,0.52072
5089.96,0.52051
5084.17,0.52216
5078.39,0.52459
5072.6,0.52626
5066.81,0.52696
5061.03,0.52878
5055.24,0.52904
5049.46,0.53029
5043.67,0.53233
5037.88,0.53257
5032.1,0.53332
5026.31,0.53583
5020.52,0.53684
5014.74,0.53770
5008.95,0.53754
5003.17,0.53772
4997.38,0.53817
4991.59,0.53916
4985.81,0.53931
4980.02,0.54019
4974.23,0.53916
4968.45,0.53958
4962.66,0.53760
4956.88,0.53762
4951.09,0.53658
4945.3,0.53399
4939.52,0.53281
4933.73,0.53130
4927.94,0.52976
4922.16,0.52837
4916.37,0.52648
4910.59,0.52240
4904.8,0.52090
4899.01,0.51678
4893.23,0.51379
4887.44,0.51260
4881.65,0.50830
4875.87,0.50443
4870.08,0.50168
4864.3,0.49908
4858.51,0.49690
4852.72,0.49351
4846.94,0.49061
4841.15,0.48877
4835.36,0.48529
4829.58,0.48420
4823.79,0.48136
4818.01,0.47853
4812.22,0.47567
4806.43,0.47431
4800.65,0.47207
4794.86,0.47176
4789.07,0.47054
4783.29,0.46840
4777.5,0.46827
4771.72,0.46628
4765.93,0.46602
4760.14,0.46537
4754.36,0.46459
4748.57,0.46351
4742.78,0.46445
4737,0.46456
4731.21,0.46494
4725.43,0.46538
4719.64,0.46667
4713.85,0.46757
4708.07,0.46833
4702.28,0.46980
4696.49,0.46989
4690.71,0.47082
4684.92,0.47306
4679.14,0.47472
4673.35,0.47446
4667.56,0.47726
4661.78,0.47773
4655.99,0.47963
4650.2,0.48099
4644.42,0.48133
4638.63,0.48362
4632.85,0.48500
4627.06,0.48648
4621.27,0.48784
4615.49,0.48876
4609.7,0.49000
4603.92,0.49148
4598.13,0.49302
4592.34,0.49462
4586.56,0.49471
4580.77,0.49655
4574.98,0.49814
4569.2,0.49926
4563.41,0.50116
4557.63,0.50185
4551.84,0.50306
4546.05,0.50313
4540.27,0.50435
4534.48,0.50386
4528.69,0.50294
4522.91,0.50385
4517.12,0.50675
4511.34,0.50748
4505.55,0.50815
4499.76,0.50905
4493.98,0.50835
4488.19,0.50788
4482.4,0.50609
4476.62,0.50482
4470.83,0.50286
4465.05,0.50030
4459.26,0.49662
4453.47,0.49457
4447.69,0.48978
4441.9,0.48631
4436.11,0.48171
4430.33,0.47718
4424.54,0.47234
4418.76,0.46793
4412.97,0.46191
4407.18,0.45838
4401.4,0.45613
4395.61,0.45344
4389.82,0.45389
4384.04,0.45486
4378.25,0.45635
4372.47,0.45755
4366.68,0.45792
4360.89,0.45843
4355.11,0.45706
4349.32,0.45519
4343.53,0.45313
4337.75,0.45100
4331.96,0.44870
4326.18,0.44463
4320.39,0.44150
4314.6,0.44183
4308.82,0.44163
4303.03,0.44120
4297.24,0.43795
4291.46,0.43674
4285.67,0.43455
4279.89,0.43484
4274.1,0.43335
4268.31,0.43400
4262.53,0.43409
4256.74,0.43395
4250.95,0.43382
4245.17,0.43505
4239.38,0.43766
4233.6,0.43826
4227.81,0.43867
4222.02,0.43946
4216.24,0.43895
4210.45,0.43989
4204.66,0.44055
4198.88,0.44052
4193.09,0.44080
4187.31,0.44117
4181.52,0.44088
4175.73,0.44090
4169.95,0.44185
4164.16,0.44283
4158.37,0.44163
4152.59,0.43992
4146.8,0.43783
4141.02,0.43644
4135.23,0.43477
4129.44,0.43212
4123.66,0.42856
4117.87,0.42532
4112.09,0.42123
4106.3,0.41809
4100.51,0.41286
4094.73,0.40729
4088.94,0.40200
4083.15,0.39825
4077.37,0.39282
4071.58,0.38814
4065.8,0.38290
4060.01,0.37770
4054.22,0.37211
4048.44,0.36711
4042.65,0.36122
4036.86,0.35725
4031.08,0.35437
4025.29,0.35194
4019.51,0.35141
4013.72,0.35107
4007.93,0.35159
4002.15,0.35277
3996.36,0.35493
3990.57,0.35714
3984.79,0.35896
3979,0.36038
3973.22,0.36258
3967.43,0.36406
3961.64,0.36618
3955.86,0.36911
3950.07,0.37057
3944.28,0.37320
3938.5,0.37610
3932.71,0.37834
3926.93,0.38080
3921.14,0.38370
3915.35,0.38576
3909.57,0.38760
3903.78,0.38961
3897.99,0.39228
3892.21,0.39410
3886.42,0.39641
3880.64,0.39738
3874.85,0.39898
3869.06,0.40113
3863.28,0.40389
3857.49,0.40648
3851.7,0.40920
3845.92,0.41031
3840.13,0.41092
3834.35,0.41304
3828.56,0.41276
3822.77,0.41291
3816.99,0.41237
3811.2,0.41088
3805.41,0.41060
3799.63,0.40937
3793.84,0.40878
3788.06,0.40760
3782.27,0.40569
3776.48,0.40433
3770.7,0.40264
3764.91,0.39947
3759.12,0.39650
3753.34,0.39234
3747.55,0.38827
3741.77,0.38307
3735.98,0.37683
3730.19,0.36730
3724.41,0.35619
3718.62,0.33855
3712.83,0.31392
3707.05,0.27810
3701.26,0.23076
3695.48,0.20093
3689.69,0.21117
3683.9,0.22824
3678.12,0.22711
3672.33,0.20909
3666.54,0.19289
3660.76,0.18008
3654.97,0.15953
3649.19,0.14823
3643.4,0.13936
3637.61,0.12969
3631.83,0.11731
3626.04,0.10399
3620.25,0.09181
3614.47,0.09273
3608.68,0.09001
3602.9,0.08630
3597.11,0.08266
3591.32,0.08035
3585.54,0.07666
3579.75,0.07328
3573.97,0.06977
3568.18,0.06638
3562.39,0.06308
3556.61,0.06080
3550.82,0.05915
3545.03,0.05656
3539.25,0.05579
3533.46,0.05417
3527.68,0.05354
3521.89,0.05193
3516.1,0.05079
3510.32,0.05034
3504.53,0.04875
3498.74,0.04756
3492.96,0.04664
3487.17,0.04668
3481.39,0.04482
3475.6,0.04432
3469.81,0.04391
3464.03,0.04358
3458.24,0.04321
3452.45,0.04190
3446.67,0.04220
3440.88,0.04175
3435.1,0.04168
3429.31,0.04147
3423.52,0.04178
3417.74,0.04066
3411.95,0.04102
3406.16,0.04151
3400.38,0.04099
3394.59,0.04102
3388.81,0.04141
3383.02,0.04107
3377.23,0.04130
3371.45,0.04153
3365.66,0.04170
3359.87,0.04238
3354.09,0.04264
3348.3,0.04314
3342.52,0.04391
3336.73,0.04433
3330.94,0.04513
3325.16,0.04556
3319.37,0.04648
3313.58,0.04716
3307.8,0.04769
3302.01,0.04733
3296.23,0.04876
3290.44,0.04811
3284.65,0.04839
3278.87,0.04917
3273.08,0.05057
3267.29,0.05174
3261.51,0.05288
3255.72,0.05331
3249.94,0.05441
3244.15,0.05662
3238.36,0.05694
3232.58,0.05758
3226.79,0.05966
3221,0.05977
3215.22,0.06102
3209.43,0.06266
3203.65,0.06313
3197.86,0.06479
3192.07,0.06534
3186.29,0.06678
3180.5,0.06849
3174.71,0.06984
3168.93,0.07092
3163.14,0.07240
3157.36,0.07452
3151.57,0.07637
3145.78,0.07763
3140,0.07879
3134.21,0.08021
3128.42,0.08179
3122.64,0.08326
3116.85,0.08518
3111.07,0.08707
3105.28,0.08870
3099.49,0.09044
3093.71,0.09212
3087.92,0.09411
3082.14,0.09585
3076.35,0.09741
3070.56,0.09925
3064.78,0.10151
3058.99,0.10319
3053.2,0.10518
3047.42,0.10732
3041.63,0.10862
3035.85,0.11063
3030.06,0.11186
3024.27,0.11225
3018.49,0.11330
3012.7,0.11356
3006.91,0.11349
3001.13,0.11256
2995.34,0.11185
2989.56,0.10932
2983.77,0.10566
2977.98,0.10027
2972.2,0.09267
2966.41,0.08769
2960.62,0.08566
2954.84,0.08265
2949.05,0.07889
2943.27,0.07539
2937.48,0.07357
2931.69,0.07149
2925.91,0.06940
2920.12,0.06641
2914.33,0.06645
2908.55,0.06913
2902.76,0.06979
2896.98,0.07159
2891.19,0.07365
2885.4,0.07641
2879.62,0.07818
2873.83,0.07954
2868.04,0.08118
2862.26,0.08268
2856.47,0.08341
2850.69,0.08208
2844.9,0.09095
2839.11,0.10075
2833.33,0.10727
2827.54,0.11258
2821.75,0.11709
2815.97,0.12178
2810.18,0.12621
2804.4,0.12894
2798.61,0.13261
2792.82,0.13505
2787.04,0.13717
2781.25,0.13845
2775.46,0.13901
2769.68,0.14026
2763.89,0.14197
2758.11,0.14314
2752.32,0.14404
2746.53,0.14395
2740.75,0.14444
2734.96,0.14525
2729.17,0.14675
2723.39,0.14830
2717.6,0.14960
2711.82,0.15201
2706.03,0.15420
2700.24,0.15705
2694.46,0.15939
2688.67,0.16148
2682.88,0.16361
2677.1,0.16618
2671.31,0.16804
2665.53,0.16898
2659.74,0.17067
2653.95,0.17234
2648.17,0.17394
2642.38,0.17613
2636.59,0.17829
2630.81,0.17962
2625.02,0.18141
2619.24,0.18365
2613.45,0.18484
2607.66,0.18718
2601.88,0.18809
2596.09,0.18983
2590.3,0.19072
2584.52,0.19192
2578.73,0.19309
2572.95,0.19353
2567.16,0.19359
2561.37,0.19420
2555.59,0.19443
2549.8,0.19424
2544.02,0.19426
2538.23,0.19425
2532.44,0.19406
2526.66,0.19340
2520.87,0.19303
2515.08,0.19342
2509.3,0.19593
2503.51,0.20025
2497.73,0.20594
2491.94,0.21075
2486.15,0.21498
2480.37,0.21859
2474.58,0.22204
2468.79,0.22561
2463.01,0.22821
2457.22,0.23020
2451.44,0.23312
2445.65,0.23582
2439.86,0.23892
2434.08,0.24193
2428.29,0.24479
2422.5,0.24809
2416.72,0.25110
2410.93,0.25374
2405.15,0.25622
2399.36,0.25867
2393.57,0.26111
2387.79,0.26325
2382,0.26562
2376.21,0.26785
2370.43,0.26978
2364.64,0.27216
2358.86,0.27347
2353.07,0.27429
2347.28,0.27639
2341.5,0.27729
2335.71,0.27919
2329.92,0.27994
2324.14,0.28155
2318.35,0.28227
2312.57,0.28275
2306.78,0.28345
2300.99,0.28323
2295.21,0.28248
2289.42,0.28229
2283.63,0.28182
2277.85,0.28162
2272.06,0.28056
2266.28,0.27897
2260.49,0.27700
2254.7,0.27569
2248.92,0.27414
2243.13,0.27297
2237.34,0.27183
2231.56,0.27063
2225.77,0.27064
2219.99,0.27134
2214.2,0.27175
2208.41,0.27163
2202.63,0.27092
2196.84,0.27037
2191.05,0.26800
2185.27,0.26585
2179.48,0.26268
2173.7,0.25878
2167.91,0.25510
2162.12,0.25195
2156.34,0.24897
2150.55,0.24669
2144.76,0.24452
2138.98,0.24273
2133.19,0.24267
2127.41,0.24421
2121.62,0.24642
2115.83,0.24892
2110.05,0.25107
2104.26,0.25312
2098.47,0.25431
2092.69,0.25565
2086.9,0.25692
2081.12,0.25843
2075.33,0.25862
2069.54,0.25813
2063.76,0.25816
2057.97,0.25809
2052.19,0.25850
2046.4,0.25892
2040.61,0.26064
2034.83,0.26292
2029.04,0.26597
2023.25,0.26940
2017.47,0.27244
2011.68,0.27555
2005.9,0.27743
2000.11,0.27867
1994.32,0.28002
1988.54,0.28176
1982.75,0.28340
1976.96,0.28383
1971.18,0.28430
1965.39,0.28438
1959.61,0.28462
1953.82,0.28531
1948.03,0.28653
1942.25,0.28811
1936.46,0.28919
1930.67,0.29005
1924.89,0.29088
1919.1,0.29134
1913.32,0.29178
1907.53,0.29150
1901.74,0.29125
1895.96,0.29149
1890.17,0.29086
1884.38,0.28964
1878.6,0.28826
1872.81,0.28738
1867.03,0.28558
1861.24,0.28354
1855.45,0.28122
1849.67,0.27783
1843.88,0.27400
1838.09,0.26963
1832.31,0.26413
1826.52,0.25749
1820.74,0.24847
1814.95,0.23845
1809.16,0.22476
1803.38,0.20511
1797.59,0.18142
1791.8,0.16760
1786.02,0.15817
1780.23,0.14614
1774.45,0.13472
1768.66,0.12326
1762.87,0.11373
1757.09,0.10381
1751.3,0.09509
1745.51,0.08743
1739.73,0.08207
1733.94,0.07871
1728.16,0.07730
1722.37,0.07641
1716.58,0.07685
1710.8,0.07745
1705.01,0.07879
1699.22,0.07980
1693.44,0.07911
1687.65,0.07800
1681.87,0.07630
1676.08,0.07429
1670.29,0.07220
1664.51,0.07035
1658.72,0.06919
1652.93,0.06880
1647.15,0.06813
1641.36,0.06767
1635.58,0.06668
1629.79,0.06559
1624,0.06509
1618.22,0.06492
1612.43,0.06496
1606.64,0.06622
1600.86,0.06777
1595.07,0.06978
1589.29,0.07280
1583.5,0.07694
1577.71,0.08197
1571.93,0.08762
1566.14,0.09265
1560.35,0.09661
1554.57,0.09956
1548.78,0.10076
1543,0.10117
1537.21,0.09828
1531.42,0.09440
1525.64,0.08832
1519.85,0.08038
1514.07,0.07488
1508.28,0.07338
1502.49,0.07309
1496.71,0.07277
1490.92,0.07011
1485.13,0.06600
1479.35,0.06193
1473.56,0.05800
1467.78,0.05446
1461.99,0.05317
1456.2,0.05247
1450.42,0.05234
1444.63,0.05233
1438.84,0.05134
1433.06,0.05020
1427.27,0.05102
1421.49,0.05383
1415.7,0.05666
1409.91,0.05848
1404.13,0.05904
1398.34,0.05891
1392.55,0.05849
1386.77,0.05627
1380.98,0.05383
1375.2,0.05222
1369.41,0.05201
1363.62,0.05388
1357.84,0.05447
1352.05,0.05553
1346.26,0.05503
1340.48,0.05314
1334.69,0.05311
1328.91,0.05324
1323.12,0.05243
1317.33,0.05194
1311.55,0.05393
1305.76,0.05641
1299.97,0.05772
1294.19,0.05652
1288.4,0.05510
1282.62,0.05376
1276.83,0.05482
1271.04,0.05552
1265.26,0.05566
1259.47,0.05574
1253.68,0.05630
1247.9,0.05573
1242.11,0.05596
1236.33,0.05615
1230.54,0.05668
1224.75,0.05733
1218.97,0.05737
1213.18,0.05533
1207.39,0.05322
1201.61,0.05356
1195.82,0.05439
1190.04,0.05339
1184.25,0.05093
1178.46,0.04810
1172.68,0.04678
1166.89,0.04979
1161.1,0.05498
1155.32,0.05620
1149.53,0.05499
1143.75,0.05341
1137.96,0.04979
1132.17,0.04661
1126.39,0.04573
1120.6,0.04623
1114.81,0.04824
1109.03,0.04966
1103.24,0.05008
1097.46,0.04998
1091.67,0.05015
1085.88,0.05023
1080.1,0.04958
1074.31,0.05234
1068.52,0.05598
1062.74,0.06448
1056.95,0.06994
1051.17,0.06888
1045.38,0.06632
1039.59,0.06762
1033.81,0.07373
1028.02,0.07460
1022.24,0.07406
1016.45,0.07453
1010.66,0.07576
1004.88,0.07646
999.09,0.07801
993.304,0.08138
987.518,0.08485
981.731,0.09075
975.945,0.09674
970.159,0.09990
964.373,0.10398
958.586,0.11040
952.8,0.11484
947.014,0.11498
941.228,0.11230
935.441,0.11120
929.655,0.11202
923.869,0.11032
918.083,0.10760
912.297,0.10531
906.51,0.10405
900.724,0.10230
894.938,0.10483
889.152,0.11188
883.365,0.11197
877.579,0.10279
871.793,0.10255
866.007,0.11693
860.22,0.11860
854.434,0.11834
848.648,0.11758
842.862,0.11721
837.075,0.11628
831.289,0.11518
825.503,0.11194
819.717,0.10747
813.931,0.10364
808.144,0.10210
802.358,0.09911
796.572,0.09673
790.786,0.09505
784.999,0.09237
779.213,0.09118
773.427,0.08796
767.641,0.08560
761.854,0.08435
756.068,0.08263
750.282,0.08104
744.496,0.07974
738.709,0.07822
732.923,0.07453
727.137,0.07156
721.351,0.06864
715.565,0.06632
709.778,0.06515
703.992,0.06522
698.206,0.06483
692.42,0.06548
686.633,0.06330
680.847,0.06162
675.061,0.06116
669.275,0.06105
663.488,0.06030
657.702,0.06128
651.916,0.06223
646.13,0.06078
640.343,0.05837
634.557,0.05784
628.771,0.05872
622.985,0.05746
617.198,0.06088
611.412,0.06053
605.626,0.06165
599.84,0.06487