File: 01_Data/Homasote/FTIR/IS/Homasote_IS_S_221031_R1.dpt
7497.03,0.58317
7491.25,0.59513
7485.46,0.57327
7479.67,0.58224
7473.89,0.57875
7468.1,0.58554
7462.32,0.58303
7456.53,0.59209
7450.74,0.58321
7444.96,0.58238
7439.17,0.57532
7433.38,0.57476
7427.6,0.58200
7421.81,0.58940
7416.03,0.57573
7410.24,0.58832
7404.45,0.57659
7398.67,0.57275
7392.88,0.58313
7387.09,0.58513
7381.31,0.58212
7375.52,0.58135
7369.74,0.57462
7363.95,0.57595
7358.16,0.57572
7352.38,0.57871
7346.59,0.57511
7340.8,0.58741
7335.02,0.58235
7329.23,0.57317
7323.45,0.57610
7317.66,0.57428
7311.87,0.57836
7306.09,0.58635
7300.3,0.58301
7294.51,0.57202
7288.73,0.57208
7282.94,0.57149
7277.16,0.57589
7271.37,0.58345
7265.58,0.57681
7259.8,0.58143
7254.01,0.58206
7248.22,0.57978
7242.44,0.57687
7236.65,0.57829
7230.87,0.58472
7225.08,0.58228
7219.29,0.58599
7213.51,0.58353
7207.72,0.57247
7201.93,0.57992
7196.15,0.57368
7190.36,0.58169
7184.58,0.57092
7178.79,0.56880
7173,0.58565
7167.22,0.56959
7161.43,0.57655
7155.65,0.57247
7149.86,0.57802
7144.07,0.58453
7138.29,0.58037
7132.5,0.57174
7126.71,0.56844
7120.93,0.57318
7115.14,0.57304
7109.36,0.56630
7103.57,0.57635
7097.78,0.57418
7092,0.56515
7086.21,0.56123
7080.42,0.56449
7074.64,0.56047
7068.85,0.56120
7063.07,0.55930
7057.28,0.56449
7051.49,0.55928
7045.71,0.55884
7039.92,0.56183
7034.13,0.56087
7028.35,0.56403
7022.56,0.55746
7016.78,0.55659
7010.99,0.55634
7005.2,0.55856
6999.42,0.55665
6993.63,0.55987
6987.84,0.56006
6982.06,0.55477
6976.27,0.54954
6970.49,0.55311
6964.7,0.55517
6958.91,0.54644
6953.13,0.54756
6947.34,0.55009
6941.55,0.55016
6935.77,0.54914
6929.98,0.55006
6924.2,0.54865
6918.41,0.54241
6912.62,0.55361
6906.84,0.54334
6901.05,0.54756
6895.26,0.54658
6889.48,0.54666
6883.69,0.55052
6877.91,0.54602
6872.12,0.54631
6866.33,0.54974
6860.55,0.54570
6854.76,0.54607
6848.97,0.54612
6843.19,0.54780
6837.4,0.54851
6831.62,0.54763
6825.83,0.54955
6820.04,0.53835
6814.26,0.54064
6808.47,0.54098
6802.68,0.54213
6796.9,0.54276
6791.11,0.54228
6785.33,0.54494
6779.54,0.54588
6773.75,0.54558
6767.97,0.54398
6762.18,0.54293
6756.39,0.54133
6750.61,0.54643
6744.82,0.54171
6739.04,0.54915
6733.25,0.54625
6727.46,0.54522
6721.68,0.53354
6715.89,0.54279
6710.1,0.54018
6704.32,0.54723
6698.53,0.54252
6692.75,0.55019
6686.96,0.54595
6681.17,0.54563
6675.39,0.54756
6669.6,0.54482
6663.82,0.54037
6658.03,0.54575
6652.24,0.54161
6646.46,0.54294
6640.67,0.54228
6634.88,0.54112
6629.1,0.54635
6623.31,0.54584
6617.53,0.54836
6611.74,0.54570
6605.95,0.54913
6600.17,0.55047
6594.38,0.55099
6588.59,0.55372
6582.81,0.55274
6577.02,0.54818
6571.24,0.54799
6565.45,0.55382
6559.66,0.54886
6553.88,0.54980
6548.09,0.55141
6542.3,0.55241
6536.52,0.55320
6530.73,0.54968
6524.95,0.55082
6519.16,0.55095
6513.37,0.54843
6507.59,0.54926
6501.8,0.55264
6496.01,0.55065
6490.23,0.54999
6484.44,0.54548
6478.66,0.54728
6472.87,0.55040
6467.08,0.54821
6461.3,0.55546
6455.51,0.55573
6449.72,0.54634
6443.94,0.55005
6438.15,0.55210
6432.37,0.55579
6426.58,0.55592
6420.79,0.55529
6415.01,0.55334
6409.22,0.55344
6403.43,0.55376
6397.65,0.55154
6391.86,0.55101
6386.08,0.55533
6380.29,0.55819
6374.5,0.55599
6368.72,0.55649
6362.93,0.55307
6357.14,0.55351
6351.36,0.55386
6345.57,0.55552
6339.79,0.55450
6334,0.55739
6328.21,0.55601
6322.43,0.55408
6316.64,0.55804
6310.85,0.55887
6305.07,0.55886
6299.28,0.55607
6293.5,0.55555
6287.71,0.55750
6281.92,0.55801
6276.14,0.55432
6270.35,0.55789
6264.56,0.56046
6258.78,0.55746
6252.99,0.56270
6247.21,0.55970
6241.42,0.55828
6235.63,0.56144
6229.85,0.55923
6224.06,0.56432
6218.27,0.56018
6212.49,0.56405
6206.7,0.56389
6200.92,0.56009
6195.13,0.56270
6189.34,0.56436
6183.56,0.56459
6177.77,0.56297
6171.98,0.56558
6166.2,0.57257
6160.41,0.56553
6154.63,0.56790
6148.84,0.56676
6143.05,0.56709
6137.27,0.56689
6131.48,0.57027
6125.7,0.56855
6119.91,0.56838
6114.12,0.56923
6108.34,0.56703
6102.55,0.56865
6096.76,0.56699
6090.98,0.57179
6085.19,0.56923
6079.41,0.56844
6073.62,0.57032
6067.83,0.57072
6062.05,0.56960
6056.26,0.57019
6050.47,0.57198
6044.69,0.57196
6038.9,0.57198
6033.12,0.56956
6027.33,0.56820
6021.54,0.56834
6015.76,0.57162
6009.97,0.57143
6004.18,0.57232
5998.4,0.57139
5992.61,0.57037
5986.83,0.57201
5981.04,0.57247
5975.25,0.57085
5969.47,0.57095
5963.68,0.57429
5957.89,0.57293
5952.11,0.57053
5946.32,0.57132
5940.54,0.56716
5934.75,0.56760
5928.96,0.56799
5923.18,0.57255
5917.39,0.56845
5911.6,0.57052
5905.82,0.56829
5900.03,0.56854
5894.25,0.57100
5888.46,0.56696
5882.67,0.56887
5876.89,0.56739
5871.1,0.56712
5865.31,0.56793
5859.53,0.56860
5853.74,0.56694
5847.96,0.56599
5842.17,0.56714
5836.38,0.56787
5830.6,0.56624
5824.81,0.56614
5819.02,0.56508
5813.24,0.56447
5807.45,0.56682
5801.67,0.56572
5795.88,0.56395
5790.09,0.56749
5784.31,0.56732
5778.52,0.56447
5772.73,0.56462
5766.95,0.56616
5761.16,0.56588
5755.38,0.56464
5749.59,0.56641
5743.8,0.56533
5738.02,0.56451
5732.23,0.56549
5726.44,0.56740
5720.66,0.56698
5714.87,0.56791
5709.09,0.56755
5703.3,0.56744
5697.51,0.56707
5691.73,0.56580
5685.94,0.56729
5680.15,0.56641
5674.37,0.56545
5668.58,0.56406
5662.8,0.56483
5657.01,0.56438
5651.22,0.56407
5645.44,0.56645
5639.65,0.56655
5633.87,0.56714
5628.08,0.56523
5622.29,0.56571
5616.51,0.56577
5610.72,0.56641
5604.93,0.56524
5599.15,0.56828
5593.36,0.56566
5587.58,0.56648
5581.79,0.56647
5576,0.56670
5570.22,0.56664
5564.43,0.56657
5558.64,0.56561
5552.86,0.56667
5547.07,0.56775
5541.29,0.56742
5535.5,0.56713
5529.71,0.56934
5523.93,0.56746
5518.14,0.56798
5512.35,0.56848
5506.57,0.56830
5500.78,0.56737
5495,0.56652
5489.21,0.56768
5483.42,0.56828
5477.64,0.56735
5471.85,0.56889
5466.06,0.57042
5460.28,0.56864
5454.49,0.56962
5448.71,0.57096
5442.92,0.57272
5437.13,0.57035
5431.35,0.57092
5425.56,0.57032
5419.77,0.57148
5413.99,0.57189
5408.2,0.57138
5402.42,0.57157
5396.63,0.57382
5390.84,0.57177
5385.06,0.57182
5379.27,0.57290
5373.48,0.57386
5367.7,0.57301
5361.91,0.57162
5356.13,0.57378
5350.34,0.57117
5344.55,0.57222
5338.77,0.57195
5332.98,0.56980
5327.19,0.56908
5321.41,0.56956
5315.62,0.56603
5309.84,0.56579
5304.05,0.56288
5298.26,0.56155
5292.48,0.55909
5286.69,0.55669
5280.9,0.55157
5275.12,0.54883
5269.33,0.54272
5263.55,0.53847
5257.76,0.53165
5251.97,0.52746
5246.19,0.52206
5240.4,0.51618
5234.61,0.51181
5228.83,0.50528
5223.04,0.50131
5217.26,0.49824
5211.47,0.49236
5205.68,0.49214
5199.9,0.49399
5194.11,0.49355
5188.32,0.49438
5182.54,0.49623
5176.75,0.49645
5170.97,0.49682
5165.18,0.49914
5159.39,0.49785
5153.61,0.50067
5147.82,0.50232
5142.03,0.50407
5136.25,0.50534
5130.46,0.50686
5124.68,0.50919
5118.89,0.51146
5113.1,0.51275
5107.32,0.51329
5101.53,0.51522
5095.75,0.51792
5089.96,0.52077
5084.17,0.52086
5078.39,0.52175
5072.6,0.52438
5066.81,0.52556
5061.03,0.52661
5055.24,0.52728
5049.46,0.52845
5043.67,0.53018
5037.88,0.53216
5032.1,0.53244
5026.31,0.53339
5020.52,0.53442
5014.74,0.53622
5008.95,0.53614
5003.17,0.53592
4997.38,0.53808
4991.59,0.53911
4985.81,0.53691
4980.02,0.53745
4974.23,0.53854
4968.45,0.53990
4962.66,0.53626
4956.88,0.53683
4951.09,0.53606
4945.3,0.53480
4939.52,0.53173
4933.73,0.53051
4927.94,0.52943
4922.16,0.52678
4916.37,0.52558
4910.59,0.52217
4904.8,0.52009
4899.01,0.51683
4893.23,0.51483
4887.44,0.51102
4881.65,0.50839
4875.87,0.50474
4870.08,0.50155
4864.3,0.49820
4858.51,0.49693
4852.72,0.49342
4846.94,0.49193
4841.15,0.48871
4835.36,0.48566
4829.58,0.48296
4823.79,0.48033
4818.01,0.47913
4812.22,0.47587
4806.43,0.47476
4800.65,0.47268
4794.86,0.47223
4789.07,0.47066
4783.29,0.46738
4777.5,0.46745
4771.72,0.46658
4765.93,0.46542
4760.14,0.46492
4754.36,0.46383
4748.57,0.46354
4742.78,0.46377
4737,0.46340
4731.21,0.46435
4725.43,0.46540
4719.64,0.46573
4713.85,0.46720
4708.07,0.46836
4702.28,0.46943
4696.49,0.47058
4690.71,0.47111
4684.92,0.47318
4679.14,0.47414
4673.35,0.47617
4667.56,0.47667
4661.78,0.47761
4655.99,0.47859
4650.2,0.47985
4644.42,0.48117
4638.63,0.48345
4632.85,0.48501
4627.06,0.48611
4621.27,0.48706
4615.49,0.48840
4609.7,0.49037
4603.92,0.49143
4598.13,0.49310
4592.34,0.49458
4586.56,0.49537
4580.77,0.49689
4574.98,0.49837
4569.2,0.49927
4563.41,0.50025
4557.63,0.50205
4551.84,0.50307
4546.05,0.50282
4540.27,0.50419
4534.48,0.50288
4528.69,0.50179
4522.91,0.50354
4517.12,0.50639
4511.34,0.50787
4505.55,0.50794
4499.76,0.50896
4493.98,0.50834
4488.19,0.50779
4482.4,0.50641
4476.62,0.50502
4470.83,0.50337
4465.05,0.50028
4459.26,0.49682
4453.47,0.49422
4447.69,0.48980
4441.9,0.48619
4436.11,0.48143
4430.33,0.47730
4424.54,0.47140
4418.76,0.46617
4412.97,0.46240
4407.18,0.45855
4401.4,0.45497
4395.61,0.45389
4389.82,0.45363
4384.04,0.45568
4378.25,0.45633
4372.47,0.45792
4366.68,0.45855
4360.89,0.45774
4355.11,0.45799
4349.32,0.45517
4343.53,0.45420
4337.75,0.45099
4331.96,0.44761
4326.18,0.44466
4320.39,0.44125
4314.6,0.44131
4308.82,0.44154
4303.03,0.44004
4297.24,0.43806
4291.46,0.43670
4285.67,0.43474
4279.89,0.43411
4274.1,0.43416
4268.31,0.43366
4262.53,0.43393
4256.74,0.43474
4250.95,0.43440
4245.17,0.43526
4239.38,0.43674
4233.6,0.43827
4227.81,0.43889
4222.02,0.43835
4216.24,0.43867
4210.45,0.43952
4204.66,0.44073
4198.88,0.44064
4193.09,0.44125
4187.31,0.44131
4181.52,0.44037
4175.73,0.43995
4169.95,0.44139
4164.16,0.44214
4158.37,0.44158
4152.59,0.43913
4146.8,0.43698
4141.02,0.43586
4135.23,0.43303
4129.44,0.43123
4123.66,0.42874
4117.87,0.42481
4112.09,0.42054
4106.3,0.41679
4100.51,0.41113
4094.73,0.40737
4088.94,0.40163
4083.15,0.39739
4077.37,0.39238
4071.58,0.38756
4065.8,0.38229
4060.01,0.37679
4054.22,0.37104
4048.44,0.36555
4042.65,0.36078
4036.86,0.35710
4031.08,0.35353
4025.29,0.35092
4019.51,0.35032
4013.72,0.35040
4007.93,0.35114
4002.15,0.35232
3996.36,0.35394
3990.57,0.35654
3984.79,0.35823
3979,0.35960
3973.22,0.36181
3967.43,0.36400
3961.64,0.36570
3955.86,0.36731
3950.07,0.36955
3944.28,0.37195
3938.5,0.37418
3932.71,0.37706
3926.93,0.37965
3921.14,0.38300
3915.35,0.38497
3909.57,0.38646
3903.78,0.38884
3897.99,0.39107
3892.21,0.39339
3886.42,0.39454
3880.64,0.39730
3874.85,0.39828
3869.06,0.40054
3863.28,0.40310
3857.49,0.40547
3851.7,0.40760
3845.92,0.40902
3840.13,0.41083
3834.35,0.41127
3828.56,0.41141
3822.77,0.41210
3816.99,0.41138
3811.2,0.41018
3805.41,0.40907
3799.63,0.40906
3793.84,0.40718
3788.06,0.40607
3782.27,0.40425
3776.48,0.40289
3770.7,0.39986
3764.91,0.39702
3759.12,0.39467
3753.34,0.39136
3747.55,0.38665
3741.77,0.38096
3735.98,0.37446
3730.19,0.36517
3724.41,0.35399
3718.62,0.33616
3712.83,0.31235
3707.05,0.27619
3701.26,0.23009
3695.48,0.19997
3689.69,0.21041
3683.9,0.22650
3678.12,0.22477
3672.33,0.20633
3666.54,0.19057
3660.76,0.17792
3654.97,0.15796
3649.19,0.14583
3643.4,0.13708
3637.61,0.12785
3631.83,0.11628
3626.04,0.10163
3620.25,0.09011
3614.47,0.09099
3608.68,0.08863
3602.9,0.08466
3597.11,0.08197
3591.32,0.07883
3585.54,0.07534
3579.75,0.07266
3573.97,0.06860
3568.18,0.06558
3562.39,0.06269
3556.61,0.05947
3550.82,0.05826
3545.03,0.05661
3539.25,0.05507
3533.46,0.05371
3527.68,0.05245
3521.89,0.05135
3516.1,0.05037
3510.32,0.04921
3504.53,0.04829
3498.74,0.04699
3492.96,0.04655
3487.17,0.04530
3481.39,0.04492
3475.6,0.04440
3469.81,0.04361
3464.03,0.04320
3458.24,0.04328
3452.45,0.04228
3446.67,0.04192
3440.88,0.04078
3435.1,0.04138
3429.31,0.04184
3423.52,0.04160
3417.74,0.04148
3411.95,0.04149
3406.16,0.04103
3400.38,0.04075
3394.59,0.04136
3388.81,0.04104
3383.02,0.04136
3377.23,0.04231
3371.45,0.04210
3365.66,0.04179
3359.87,0.04205
3354.09,0.04337
3348.3,0.04327
3342.52,0.04367
3336.73,0.04392
3330.94,0.04527
3325.16,0.04661
3319.37,0.04612
3313.58,0.04656
3307.8,0.04717
3302.01,0.04751
3296.23,0.04762
3290.44,0.04822
3284.65,0.04912
3278.87,0.05011
3273.08,0.05133
3267.29,0.05151
3261.51,0.05268
3255.72,0.05273
3249.94,0.05419
3244.15,0.05550
3238.36,0.05581
3232.58,0.05779
3226.79,0.05864
3221,0.05911
3215.22,0.05966
3209.43,0.06167
3203.65,0.06361
3197.86,0.06379
3192.07,0.06559
3186.29,0.06624
3180.5,0.06795
3174.71,0.06906
3168.93,0.07091
3163.14,0.07200
3157.36,0.07349
3151.57,0.07399
3145.78,0.07658
3140,0.07807
3134.21,0.07952
3128.42,0.08100
3122.64,0.08307
3116.85,0.08400
3111.07,0.08572
3105.28,0.08730
3099.49,0.08925
3093.71,0.09144
3087.92,0.09299
3082.14,0.09479
3076.35,0.09653
3070.56,0.09827
3064.78,0.10021
3058.99,0.10152
3053.2,0.10374
3047.42,0.10555
3041.63,0.10764
3035.85,0.10876
3030.06,0.10982
3024.27,0.11154
3018.49,0.11188
3012.7,0.11277
3006.91,0.11293
3001.13,0.11222
2995.34,0.11070
2989.56,0.10880
2983.77,0.10461
2977.98,0.09975
2972.2,0.09211
2966.41,0.08757
2960.62,0.08516
2954.84,0.08191
2949.05,0.07850
2943.27,0.07564
2937.48,0.07352
2931.69,0.07164
2925.91,0.06931
2920.12,0.06635
2914.33,0.06661
2908.55,0.06851
2902.76,0.06929
2896.98,0.07123
2891.19,0.07399
2885.4,0.07600
2879.62,0.07768
2873.83,0.07924
2868.04,0.08095
2862.26,0.08275
2856.47,0.08294
2850.69,0.08219
2844.9,0.09077
2839.11,0.10072
2833.33,0.10675
2827.54,0.11196
2821.75,0.11668
2815.97,0.12167
2810.18,0.12575
2804.4,0.12928
2798.61,0.13234
2792.82,0.13457
2787.04,0.13618
2781.25,0.13732
2775.46,0.13895
2769.68,0.14004
2763.89,0.14086
2758.11,0.14202
2752.32,0.14297
2746.53,0.14348
2740.75,0.14420
2734.96,0.14496
2729.17,0.14638
2723.39,0.14764
2717.6,0.14923
2711.82,0.15166
2706.03,0.15373
2700.24,0.15634
2694.46,0.15836
2688.67,0.16094
2682.88,0.16322
2677.1,0.16534
2671.31,0.16727
2665.53,0.16879
2659.74,0.16988
2653.95,0.17196
2648.17,0.17364
2642.38,0.17519
2636.59,0.17770
2630.81,0.17936
2625.02,0.18146
2619.24,0.18339
2613.45,0.18474
2607.66,0.18618
2601.88,0.18734
2596.09,0.18892
2590.3,0.19017
2584.52,0.19112
2578.73,0.19204
2572.95,0.19298
2567.16,0.19317
2561.37,0.19357
2555.59,0.19399
2549.8,0.19386
2544.02,0.19380
2538.23,0.19378
2532.44,0.19348
2526.66,0.19305
2520.87,0.19281
2515.08,0.19304
2509.3,0.19538
2503.51,0.20023
2497.73,0.20549
2491.94,0.21033
2486.15,0.21434
2480.37,0.21786
2474.58,0.22154
2468.79,0.22492
2463.01,0.22706
2457.22,0.23009
2451.44,0.23260
2445.65,0.23534
2439.86,0.23843
2434.08,0.24153
2428.29,0.24422
2422.5,0.24732
2416.72,0.25051
2410.93,0.25289
2405.15,0.25545
2399.36,0.25797
2393.57,0.26048
2387.79,0.26237
2382,0.26419
2376.21,0.26689
2370.43,0.26925
2364.64,0.27132
2358.86,0.27224
2353.07,0.27308
2347.28,0.27483
2341.5,0.27621
2335.71,0.27752
2329.92,0.27887
2324.14,0.28004
2318.35,0.28110
2312.57,0.28165
2306.78,0.28182
2300.99,0.28197
2295.21,0.28147
2289.42,0.28117
2283.63,0.28086
2277.85,0.28044
2272.06,0.27936
2266.28,0.27751
2260.49,0.27548
2254.7,0.27416
2248.92,0.27262
2243.13,0.27166
2237.34,0.27016
2231.56,0.26932
2225.77,0.26922
2219.99,0.26931
2214.2,0.26994
2208.41,0.26964
2202.63,0.26912
2196.84,0.26823
2191.05,0.26656
2185.27,0.26417
2179.48,0.26088
2173.7,0.25713
2167.91,0.25367
2162.12,0.25008
2156.34,0.24732
2150.55,0.24500
2144.76,0.24301
2138.98,0.24144
2133.19,0.24110
2127.41,0.24201
2121.62,0.24483
2115.83,0.24731
2110.05,0.24956
2104.26,0.25135
2098.47,0.25246
2092.69,0.25381
2086.9,0.25525
2081.12,0.25671
2075.33,0.25660
2069.54,0.25627
2063.76,0.25645
2057.97,0.25655
2052.19,0.25668
2046.4,0.25729
2040.61,0.25867
2034.83,0.26111
2029.04,0.26440
2023.25,0.26727
2017.47,0.27101
2011.68,0.27371
2005.9,0.27576
2000.11,0.27691
1994.32,0.27857
1988.54,0.28018
1982.75,0.28150
1976.96,0.28227
1971.18,0.28254
1965.39,0.28236
1959.61,0.28285
1953.82,0.28391
1948.03,0.28523
1942.25,0.28655
1936.46,0.28754
1930.67,0.28866
1924.89,0.28910
1919.1,0.28967
1913.32,0.29029
1907.53,0.29040
1901.74,0.28987
1895.96,0.28958
1890.17,0.28914
1884.38,0.28796
1878.6,0.28715
1872.81,0.28576
1867.03,0.28420
1861.24,0.28242
1855.45,0.27989
1849.67,0.27666
1843.88,0.27321
1838.09,0.26800
1832.31,0.26282
1826.52,0.25636
1820.74,0.24788
1814.95,0.23797
1809.16,0.22441
1803.38,0.20458
1797.59,0.18159
1791.8,0.16719
1786.02,0.15815
1780.23,0.14628
1774.45,0.13477
1768.66,0.12314
1762.87,0.11368
1757.09,0.10405
1751.3,0.09537
1745.51,0.08751
1739.73,0.08231
1733.94,0.07929
1728.16,0.07724
1722.37,0.07652
1716.58,0.07665
1710.8,0.07685
1705.01,0.07843
1699.22,0.07958
1693.44,0.07925
1687.65,0.07809
1681.87,0.07561
1676.08,0.07362
1670.29,0.07162
1664.51,0.06916
1658.72,0.06851
1652.93,0.06815
1647.15,0.06755
1641.36,0.06661
1635.58,0.06632
1629.79,0.06564
1624,0.06517
1618.22,0.06445
1612.43,0.06536
1606.64,0.06597
1600.86,0.06707
1595.07,0.06944
1589.29,0.07223
1583.5,0.07688
1577.71,0.08244
1571.93,0.08764
1566.14,0.09211
1560.35,0.09642
1554.57,0.09888
1548.78,0.10051
1543,0.10051
1537.21,0.09821
1531.42,0.09422
1525.64,0.08829
1519.85,0.08008
1514.07,0.07456
1508.28,0.07319
1502.49,0.07268
1496.71,0.07201
1490.92,0.07000
1485.13,0.06572
1479.35,0.06187
1473.56,0.05822
1467.78,0.05412
1461.99,0.05273
1456.2,0.05235
1450.42,0.05199
1444.63,0.05224
1438.84,0.05148
1433.06,0.05011
1427.27,0.05091
1421.49,0.05403
1415.7,0.05683
1409.91,0.05837
1404.13,0.05851
1398.34,0.05862
1392.55,0.05826
1386.77,0.05660
1380.98,0.05321
1375.2,0.05195
1369.41,0.05201
1363.62,0.05361
1357.84,0.05466
1352.05,0.05556
1346.26,0.05471
1340.48,0.05343
1334.69,0.05313
1328.91,0.05316
1323.12,0.05233
1317.33,0.05211
1311.55,0.05429
1305.76,0.05632
1299.97,0.05728
1294.19,0.05674
1288.4,0.05507
1282.62,0.05346
1276.83,0.05463
1271.04,0.05562
1265.26,0.05556
1259.47,0.05609
1253.68,0.05608
1247.9,0.05599
1242.11,0.05592
1236.33,0.05596
1230.54,0.05678
1224.75,0.05749
1218.97,0.05715
1213.18,0.05565
1207.39,0.05368
1201.61,0.05335
1195.82,0.05448
1190.04,0.05351
1184.25,0.05074
1178.46,0.04784
1172.68,0.04699
1166.89,0.04980
1161.1,0.05402
1155.32,0.05595
1149.53,0.05500
1143.75,0.05327
1137.96,0.04971
1132.17,0.04626
1126.39,0.04485
1120.6,0.04630
1114.81,0.04834
1109.03,0.05062
1103.24,0.05061
1097.46,0.05034
1091.67,0.04967
1085.88,0.04922
1080.1,0.05013
1074.31,0.05270
1068.52,0.05589
1062.74,0.06391
1056.95,0.06978
1051.17,0.06903
1045.38,0.06616
1039.59,0.06740
1033.81,0.07360
1028.02,0.07484
1022.24,0.07388
1016.45,0.07444
1010.66,0.07531
1004.88,0.07616
999.09,0.07782
993.304,0.08063
987.518,0.08466
981.731,0.09055
975.945,0.09647
970.159,0.09935
964.373,0.10360
958.586,0.11061
952.8,0.11437
947.014,0.11459
941.228,0.11157
935.441,0.11082
929.655,0.11126
923.869,0.11002
918.083,0.10702
912.297,0.10504
906.51,0.10390
900.724,0.10212
894.938,0.10478
889.152,0.11189
883.365,0.11110
877.579,0.10223
871.793,0.10222
866.007,0.11670
860.22,0.11842
854.434,0.11668
848.648,0.11594
842.862,0.11610
837.075,0.11437
831.289,0.11352
825.503,0.11075
819.717,0.10616
813.931,0.10295
808.144,0.10059
802.358,0.09819
796.572,0.09531
790.786,0.09316
784.999,0.09116
779.213,0.08897
773.427,0.08741
767.641,0.08534
761.854,0.08256
756.068,0.08094
750.282,0.08082
744.496,0.07933
738.709,0.07673
732.923,0.07372
727.137,0.06968
721.351,0.06769
715.565,0.06505
709.778,0.06412
703.992,0.06496
698.206,0.06410
692.42,0.06459
686.633,0.06265
680.847,0.06256
675.061,0.05945
669.275,0.06087
663.488,0.06002
657.702,0.06077
651.916,0.06045
646.13,0.06035
640.343,0.05934
634.557,0.05760
628.771,0.05595
622.985,0.05644
617.198,0.05878
611.412,0.05981
605.626,0.06108
599.84,0.06112