File: 01_Data/Homasote/FTIR/IS/Homasote_IS_S_221031_R4.dpt
7497.03,0.58441
7491.25,0.58221
7485.46,0.58795
7479.67,0.58836
7473.89,0.58301
7468.1,0.58408
7462.32,0.58573
7456.53,0.57972
7450.74,0.58623
7444.96,0.58686
7439.17,0.57828
7433.38,0.58588
7427.6,0.58412
7421.81,0.58219
7416.03,0.58311
7410.24,0.57447
7404.45,0.57489
7398.67,0.58273
7392.88,0.57763
7387.09,0.57510
7381.31,0.58600
7375.52,0.58862
7369.74,0.57969
7363.95,0.57967
7358.16,0.56997
7352.38,0.59080
7346.59,0.58362
7340.8,0.58527
7335.02,0.57960
7329.23,0.57877
7323.45,0.58637
7317.66,0.57473
7311.87,0.57835
7306.09,0.57302
7300.3,0.58377
7294.51,0.59259
7288.73,0.57643
7282.94,0.57968
7277.16,0.57546
7271.37,0.58023
7265.58,0.58595
7259.8,0.58523
7254.01,0.58321
7248.22,0.57774
7242.44,0.57583
7236.65,0.57649
7230.87,0.58861
7225.08,0.58118
7219.29,0.57741
7213.51,0.58213
7207.72,0.57830
7201.93,0.58191
7196.15,0.58248
7190.36,0.58333
7184.58,0.57893
7178.79,0.57612
7173,0.57819
7167.22,0.57969
7161.43,0.57863
7155.65,0.57521
7149.86,0.57528
7144.07,0.57221
7138.29,0.56879
7132.5,0.57261
7126.71,0.57776
7120.93,0.57422
7115.14,0.57132
7109.36,0.57697
7103.57,0.57217
7097.78,0.57637
7092,0.57942
7086.21,0.56899
7080.42,0.56401
7074.64,0.55170
7068.85,0.56678
7063.07,0.56668
7057.28,0.56768
7051.49,0.56561
7045.71,0.56120
7039.92,0.56402
7034.13,0.56122
7028.35,0.56235
7022.56,0.56122
7016.78,0.56489
7010.99,0.55939
7005.2,0.55812
6999.42,0.55800
6993.63,0.55556
6987.84,0.56051
6982.06,0.55244
6976.27,0.55104
6970.49,0.55416
6964.7,0.55229
6958.91,0.54471
6953.13,0.55230
6947.34,0.55110
6941.55,0.55418
6935.77,0.55287
6929.98,0.54707
6924.2,0.55196
6918.41,0.55500
6912.62,0.54543
6906.84,0.54137
6901.05,0.55021
6895.26,0.54656
6889.48,0.54874
6883.69,0.54912
6877.91,0.54525
6872.12,0.54795
6866.33,0.54784
6860.55,0.54881
6854.76,0.54580
6848.97,0.54637
6843.19,0.55437
6837.4,0.54586
6831.62,0.54742
6825.83,0.54250
6820.04,0.54515
6814.26,0.54993
6808.47,0.54300
6802.68,0.54283
6796.9,0.53978
6791.11,0.54194
6785.33,0.54108
6779.54,0.54308
6773.75,0.54364
6767.97,0.54185
6762.18,0.54244
6756.39,0.54398
6750.61,0.54720
6744.82,0.53929
6739.04,0.54449
6733.25,0.54533
6727.46,0.54250
6721.68,0.54270
6715.89,0.54234
6710.1,0.54056
6704.32,0.54683
6698.53,0.54349
6692.75,0.54455
6686.96,0.54266
6681.17,0.54326
6675.39,0.54025
6669.6,0.54488
6663.82,0.54510
6658.03,0.54630
6652.24,0.54672
6646.46,0.54338
6640.67,0.55026
6634.88,0.54323
6629.1,0.54987
6623.31,0.54681
6617.53,0.54343
6611.74,0.54714
6605.95,0.54880
6600.17,0.54681
6594.38,0.54670
6588.59,0.54531
6582.81,0.55017
6577.02,0.55236
6571.24,0.54859
6565.45,0.54922
6559.66,0.54636
6553.88,0.55313
6548.09,0.54754
6542.3,0.55179
6536.52,0.55195
6530.73,0.55019
6524.95,0.54837
6519.16,0.54887
6513.37,0.55116
6507.59,0.55077
6501.8,0.55436
6496.01,0.54991
6490.23,0.54892
6484.44,0.55247
6478.66,0.55579
6472.87,0.55177
6467.08,0.55353
6461.3,0.55581
6455.51,0.55203
6449.72,0.55278
6443.94,0.55133
6438.15,0.55078
6432.37,0.55425
6426.58,0.55342
6420.79,0.55382
6415.01,0.55505
6409.22,0.55272
6403.43,0.55372
6397.65,0.55239
6391.86,0.55255
6386.08,0.55206
6380.29,0.55313
6374.5,0.55497
6368.72,0.55064
6362.93,0.55343
6357.14,0.55135
6351.36,0.55650
6345.57,0.55328
6339.79,0.55522
6334,0.55818
6328.21,0.55605
6322.43,0.55636
6316.64,0.55732
6310.85,0.55441
6305.07,0.55291
6299.28,0.55610
6293.5,0.55659
6287.71,0.55765
6281.92,0.55249
6276.14,0.55603
6270.35,0.55902
6264.56,0.56067
6258.78,0.55918
6252.99,0.55906
6247.21,0.55947
6241.42,0.56432
6235.63,0.55999
6229.85,0.56009
6224.06,0.55821
6218.27,0.55925
6212.49,0.56299
6206.7,0.56286
6200.92,0.56016
6195.13,0.56520
6189.34,0.56474
6183.56,0.56489
6177.77,0.56490
6171.98,0.56494
6166.2,0.56467
6160.41,0.56577
6154.63,0.56746
6148.84,0.56746
6143.05,0.56970
6137.27,0.56731
6131.48,0.56917
6125.7,0.56712
6119.91,0.56655
6114.12,0.56475
6108.34,0.56809
6102.55,0.57099
6096.76,0.56715
6090.98,0.56948
6085.19,0.57309
6079.41,0.57359
6073.62,0.56846
6067.83,0.57014
6062.05,0.56997
6056.26,0.56996
6050.47,0.57089
6044.69,0.57284
6038.9,0.57044
6033.12,0.57035
6027.33,0.57240
6021.54,0.57129
6015.76,0.56931
6009.97,0.56950
6004.18,0.56913
5998.4,0.56811
5992.61,0.57075
5986.83,0.57306
5981.04,0.57019
5975.25,0.57040
5969.47,0.57182
5963.68,0.57268
5957.89,0.57108
5952.11,0.57048
5946.32,0.57199
5940.54,0.57350
5934.75,0.57199
5928.96,0.57130
5923.18,0.57120
5917.39,0.56727
5911.6,0.57178
5905.82,0.56971
5900.03,0.57081
5894.25,0.57042
5888.46,0.56855
5882.67,0.56684
5876.89,0.56890
5871.1,0.56814
5865.31,0.56867
5859.53,0.56759
5853.74,0.56528
5847.96,0.56698
5842.17,0.56802
5836.38,0.56667
5830.6,0.56942
5824.81,0.56727
5819.02,0.56645
5813.24,0.56701
5807.45,0.56638
5801.67,0.56440
5795.88,0.56508
5790.09,0.56252
5784.31,0.56526
5778.52,0.56609
5772.73,0.56631
5766.95,0.56628
5761.16,0.56610
5755.38,0.56414
5749.59,0.56454
5743.8,0.56667
5738.02,0.56725
5732.23,0.56290
5726.44,0.56360
5720.66,0.56538
5714.87,0.56396
5709.09,0.56873
5703.3,0.56656
5697.51,0.56462
5691.73,0.56712
5685.94,0.56594
5680.15,0.56520
5674.37,0.56374
5668.58,0.56790
5662.8,0.56496
5657.01,0.56511
5651.22,0.56562
5645.44,0.56490
5639.65,0.56656
5633.87,0.56604
5628.08,0.56710
5622.29,0.56597
5616.51,0.56786
5610.72,0.56647
5604.93,0.56670
5599.15,0.56580
5593.36,0.56653
5587.58,0.56566
5581.79,0.56841
5576,0.56716
5570.22,0.56574
5564.43,0.56586
5558.64,0.56656
5552.86,0.56699
5547.07,0.56857
5541.29,0.56454
5535.5,0.56743
5529.71,0.56726
5523.93,0.56673
5518.14,0.56739
5512.35,0.56856
5506.57,0.56511
5500.78,0.56789
5495,0.56781
5489.21,0.56747
5483.42,0.56863
5477.64,0.56785
5471.85,0.56930
5466.06,0.56964
5460.28,0.57019
5454.49,0.56976
5448.71,0.56963
5442.92,0.57121
5437.13,0.57011
5431.35,0.57135
5425.56,0.57045
5419.77,0.57297
5413.99,0.57192
5408.2,0.57167
5402.42,0.57315
5396.63,0.57261
5390.84,0.57381
5385.06,0.57330
5379.27,0.57264
5373.48,0.57290
5367.7,0.57275
5361.91,0.57282
5356.13,0.57240
5350.34,0.57161
5344.55,0.57305
5338.77,0.57105
5332.98,0.56924
5327.19,0.56924
5321.41,0.56866
5315.62,0.56857
5309.84,0.56650
5304.05,0.56392
5298.26,0.56342
5292.48,0.55939
5286.69,0.55742
5280.9,0.55364
5275.12,0.54905
5269.33,0.54571
5263.55,0.54069
5257.76,0.53447
5251.97,0.53062
5246.19,0.52514
5240.4,0.52161
5234.61,0.51551
5228.83,0.51019
5223.04,0.50678
5217.26,0.50401
5211.47,0.50176
5205.68,0.49948
5199.9,0.49759
5194.11,0.49976
5188.32,0.50085
5182.54,0.50186
5176.75,0.50138
5170.97,0.50488
5165.18,0.50328
5159.39,0.50587
5153.61,0.50794
5147.82,0.50759
5142.03,0.50936
5136.25,0.50952
5130.46,0.51517
5124.68,0.51398
5118.89,0.51682
5113.1,0.52084
5107.32,0.51992
5101.53,0.52243
5095.75,0.52264
5089.96,0.52383
5084.17,0.52589
5078.39,0.52730
5072.6,0.52873
5066.81,0.52951
5061.03,0.53195
5055.24,0.53282
5049.46,0.53366
5043.67,0.53295
5037.88,0.53571
5032.1,0.53657
5026.31,0.53703
5020.52,0.53852
5014.74,0.53993
5008.95,0.54021
5003.17,0.54106
4997.38,0.54035
4991.59,0.54031
4985.81,0.54092
4980.02,0.54001
4974.23,0.54089
4968.45,0.54030
4962.66,0.53936
4956.88,0.53814
4951.09,0.53639
4945.3,0.53612
4939.52,0.53554
4933.73,0.53221
4927.94,0.53085
4922.16,0.52858
4916.37,0.52617
4910.59,0.52405
4904.8,0.52104
4899.01,0.51893
4893.23,0.51625
4887.44,0.51191
4881.65,0.50823
4875.87,0.50505
4870.08,0.50162
4864.3,0.49948
4858.51,0.49688
4852.72,0.49509
4846.94,0.49215
4841.15,0.48854
4835.36,0.48633
4829.58,0.48380
4823.79,0.48090
4818.01,0.47855
4812.22,0.47588
4806.43,0.47483
4800.65,0.47241
4794.86,0.47209
4789.07,0.46981
4783.29,0.46830
4777.5,0.46774
4771.72,0.46638
4765.93,0.46715
4760.14,0.46713
4754.36,0.46484
4748.57,0.46486
4742.78,0.46447
4737,0.46401
4731.21,0.46442
4725.43,0.46541
4719.64,0.46684
4713.85,0.46786
4708.07,0.46884
4702.28,0.46880
4696.49,0.46941
4690.71,0.47124
4684.92,0.47372
4679.14,0.47418
4673.35,0.47611
4667.56,0.47539
4661.78,0.47809
4655.99,0.48070
4650.2,0.48070
4644.42,0.48184
4638.63,0.48381
4632.85,0.48492
4627.06,0.48666
4621.27,0.48678
4615.49,0.48840
4609.7,0.49047
4603.92,0.49212
4598.13,0.49395
4592.34,0.49476
4586.56,0.49699
4580.77,0.49864
4574.98,0.49944
4569.2,0.50073
4563.41,0.50164
4557.63,0.50136
4551.84,0.50283
4546.05,0.50441
4540.27,0.50429
4534.48,0.50299
4528.69,0.50326
4522.91,0.50378
4517.12,0.50702
4511.34,0.50901
4505.55,0.50944
4499.76,0.50965
4493.98,0.50884
4488.19,0.50865
4482.4,0.50676
4476.62,0.50454
4470.83,0.50311
4465.05,0.50010
4459.26,0.49758
4453.47,0.49396
4447.69,0.49066
4441.9,0.48534
4436.11,0.48178
4430.33,0.47722
4424.54,0.47346
4418.76,0.46756
4412.97,0.46280
4407.18,0.45787
4401.4,0.45507
4395.61,0.45447
4389.82,0.45424
4384.04,0.45546
4378.25,0.45663
4372.47,0.45856
4366.68,0.45876
4360.89,0.45893
4355.11,0.45759
4349.32,0.45660
4343.53,0.45412
4337.75,0.45184
4331.96,0.44887
4326.18,0.44501
4320.39,0.44194
4314.6,0.44204
4308.82,0.44211
4303.03,0.44055
4297.24,0.43855
4291.46,0.43688
4285.67,0.43451
4279.89,0.43435
4274.1,0.43383
4268.31,0.43463
4262.53,0.43486
4256.74,0.43512
4250.95,0.43530
4245.17,0.43590
4239.38,0.43723
4233.6,0.43894
4227.81,0.43990
4222.02,0.43964
4216.24,0.43980
4210.45,0.43996
4204.66,0.44132
4198.88,0.44192
4193.09,0.44216
4187.31,0.44218
4181.52,0.44174
4175.73,0.44188
4169.95,0.44236
4164.16,0.44324
4158.37,0.44204
4152.59,0.44025
4146.8,0.43864
4141.02,0.43687
4135.23,0.43542
4129.44,0.43302
4123.66,0.42971
4117.87,0.42654
4112.09,0.42249
4106.3,0.41822
4100.51,0.41267
4094.73,0.40783
4088.94,0.40363
4083.15,0.39857
4077.37,0.39371
4071.58,0.38909
4065.8,0.38390
4060.01,0.37802
4054.22,0.37280
4048.44,0.36745
4042.65,0.36263
4036.86,0.35877
4031.08,0.35546
4025.29,0.35274
4019.51,0.35110
4013.72,0.35098
4007.93,0.35285
4002.15,0.35422
3996.36,0.35591
3990.57,0.35761
3984.79,0.35965
3979,0.36135
3973.22,0.36298
3967.43,0.36503
3961.64,0.36712
3955.86,0.36950
3950.07,0.37134
3944.28,0.37364
3938.5,0.37659
3932.71,0.37921
3926.93,0.38194
3921.14,0.38460
3915.35,0.38705
3909.57,0.38848
3903.78,0.39182
3897.99,0.39319
3892.21,0.39488
3886.42,0.39737
3880.64,0.39858
3874.85,0.39925
3869.06,0.40251
3863.28,0.40565
3857.49,0.40704
3851.7,0.40943
3845.92,0.41131
3840.13,0.41297
3834.35,0.41340
3828.56,0.41420
3822.77,0.41439
3816.99,0.41350
3811.2,0.41279
3805.41,0.41206
3799.63,0.41229
3793.84,0.40972
3788.06,0.40924
3782.27,0.40813
3776.48,0.40590
3770.7,0.40426
3764.91,0.40149
3759.12,0.39803
3753.34,0.39456
3747.55,0.39047
3741.77,0.38435
3735.98,0.37808
3730.19,0.36966
3724.41,0.35881
3718.62,0.34119
3712.83,0.31549
3707.05,0.27919
3701.26,0.23257
3695.48,0.20202
3689.69,0.21225
3683.9,0.23010
3678.12,0.22906
3672.33,0.21074
3666.54,0.19456
3660.76,0.18252
3654.97,0.16136
3649.19,0.15062
3643.4,0.14213
3637.61,0.13176
3631.83,0.12064
3626.04,0.10558
3620.25,0.09418
3614.47,0.09485
3608.68,0.09164
3602.9,0.08822
3597.11,0.08487
3591.32,0.08210
3585.54,0.07817
3579.75,0.07442
3573.97,0.07140
3568.18,0.06706
3562.39,0.06414
3556.61,0.06140
3550.82,0.05919
3545.03,0.05773
3539.25,0.05658
3533.46,0.05454
3527.68,0.05361
3521.89,0.05212
3516.1,0.05107
3510.32,0.05043
3504.53,0.04825
3498.74,0.04818
3492.96,0.04687
3487.17,0.04632
3481.39,0.04574
3475.6,0.04475
3469.81,0.04438
3464.03,0.04267
3458.24,0.04281
3452.45,0.04196
3446.67,0.04197
3440.88,0.04211
3435.1,0.04191
3429.31,0.04102
3423.52,0.04044
3417.74,0.04131
3411.95,0.04176
3406.16,0.04107
3400.38,0.04094
3394.59,0.04104
3388.81,0.04098
3383.02,0.04143
3377.23,0.04077
3371.45,0.04143
3365.66,0.04197
3359.87,0.04218
3354.09,0.04276
3348.3,0.04292
3342.52,0.04394
3336.73,0.04455
3330.94,0.04586
3325.16,0.04567
3319.37,0.04676
3313.58,0.04736
3307.8,0.04660
3302.01,0.04781
3296.23,0.04809
3290.44,0.04893
3284.65,0.04962
3278.87,0.04991
3273.08,0.05065
3267.29,0.05209
3261.51,0.05337
3255.72,0.05420
3249.94,0.05576
3244.15,0.05614
3238.36,0.05666
3232.58,0.05875
3226.79,0.05861
3221,0.06022
3215.22,0.06163
3209.43,0.06231
3203.65,0.06397
3197.86,0.06502
3192.07,0.06630
3186.29,0.06749
3180.5,0.06811
3174.71,0.07000
3168.93,0.07197
3163.14,0.07367
3157.36,0.07491
3151.57,0.07704
3145.78,0.07807
3140,0.08003
3134.21,0.08129
3128.42,0.08280
3122.64,0.08469
3116.85,0.08728
3111.07,0.08783
3105.28,0.08968
3099.49,0.09122
3093.71,0.09357
3087.92,0.09508
3082.14,0.09681
3076.35,0.09880
3070.56,0.10054
3064.78,0.10274
3058.99,0.10416
3053.2,0.10665
3047.42,0.10826
3041.63,0.11013
3035.85,0.11116
3030.06,0.11257
3024.27,0.11345
3018.49,0.11502
3012.7,0.11523
3006.91,0.11447
3001.13,0.11403
2995.34,0.11255
2989.56,0.10958
2983.77,0.10599
2977.98,0.10037
2972.2,0.09340
2966.41,0.08799
2960.62,0.08580
2954.84,0.08272
2949.05,0.07866
2943.27,0.07505
2937.48,0.07314
2931.69,0.07138
2925.91,0.06936
2920.12,0.06624
2914.33,0.06644
2908.55,0.06892
2902.76,0.07005
2896.98,0.07171
2891.19,0.07361
2885.4,0.07631
2879.62,0.07802
2873.83,0.07945
2868.04,0.08136
2862.26,0.08324
2856.47,0.08307
2850.69,0.08274
2844.9,0.09112
2839.11,0.10117
2833.33,0.10736
2827.54,0.11265
2821.75,0.11775
2815.97,0.12193
2810.18,0.12675
2804.4,0.13012
2798.61,0.13332
2792.82,0.13585
2787.04,0.13758
2781.25,0.13894
2775.46,0.14027
2769.68,0.14147
2763.89,0.14248
2758.11,0.14377
2752.32,0.14440
2746.53,0.14445
2740.75,0.14504
2734.96,0.14611
2729.17,0.14740
2723.39,0.14859
2717.6,0.15025
2711.82,0.15257
2706.03,0.15516
2700.24,0.15747
2694.46,0.15993
2688.67,0.16228
2682.88,0.16440
2677.1,0.16636
2671.31,0.16815
2665.53,0.16950
2659.74,0.17089
2653.95,0.17268
2648.17,0.17429
2642.38,0.17655
2636.59,0.17843
2630.81,0.18065
2625.02,0.18194
2619.24,0.18434
2613.45,0.18575
2607.66,0.18721
2601.88,0.18850
2596.09,0.19030
2590.3,0.19155
2584.52,0.19219
2578.73,0.19309
2572.95,0.19414
2567.16,0.19488
2561.37,0.19438
2555.59,0.19488
2549.8,0.19537
2544.02,0.19484
2538.23,0.19471
2532.44,0.19441
2526.66,0.19391
2520.87,0.19377
2515.08,0.19426
2509.3,0.19625
2503.51,0.20119
2497.73,0.20663
2491.94,0.21131
2486.15,0.21558
2480.37,0.21934
2474.58,0.22278
2468.79,0.22621
2463.01,0.22841
2457.22,0.23096
2451.44,0.23376
2445.65,0.23663
2439.86,0.23943
2434.08,0.24269
2428.29,0.24580
2422.5,0.24887
2416.72,0.25187
2410.93,0.25450
2405.15,0.25731
2399.36,0.25944
2393.57,0.26167
2387.79,0.26417
2382,0.26624
2376.21,0.26865
2370.43,0.27117
2364.64,0.27292
2358.86,0.27445
2353.07,0.27588
2347.28,0.27700
2341.5,0.27840
2335.71,0.28009
2329.92,0.28155
2324.14,0.28287
2318.35,0.28367
2312.57,0.28427
2306.78,0.28500
2300.99,0.28442
2295.21,0.28426
2289.42,0.28361
2283.63,0.28375
2277.85,0.28328
2272.06,0.28196
2266.28,0.28085
2260.49,0.27838
2254.7,0.27742
2248.92,0.27603
2243.13,0.27495
2237.34,0.27369
2231.56,0.27286
2225.77,0.27229
2219.99,0.27265
2214.2,0.27303
2208.41,0.27307
2202.63,0.27273
2196.84,0.27170
2191.05,0.27015
2185.27,0.26790
2179.48,0.26454
2173.7,0.26048
2167.91,0.25682
2162.12,0.25371
2156.34,0.25118
2150.55,0.24859
2144.76,0.24626
2138.98,0.24444
2133.19,0.24454
2127.41,0.24559
2121.62,0.24848
2115.83,0.25078
2110.05,0.25321
2104.26,0.25525
2098.47,0.25613
2092.69,0.25772
2086.9,0.25939
2081.12,0.25997
2075.33,0.26014
2069.54,0.25995
2063.76,0.26022
2057.97,0.26017
2052.19,0.26004
2046.4,0.26087
2040.61,0.26260
2034.83,0.26474
2029.04,0.26794
2023.25,0.27149
2017.47,0.27409
2011.68,0.27704
2005.9,0.27935
2000.11,0.28053
1994.32,0.28211
1988.54,0.28377
1982.75,0.28496
1976.96,0.28542
1971.18,0.28595
1965.39,0.28605
1959.61,0.28637
1953.82,0.28698
1948.03,0.28837
1942.25,0.28977
1936.46,0.29056
1930.67,0.29168
1924.89,0.29232
1919.1,0.29283
1913.32,0.29331
1907.53,0.29315
1901.74,0.29307
1895.96,0.29252
1890.17,0.29209
1884.38,0.29118
1878.6,0.29025
1872.81,0.28895
1867.03,0.28730
1861.24,0.28503
1855.45,0.28217
1849.67,0.27933
1843.88,0.27526
1838.09,0.27051
1832.31,0.26520
1826.52,0.25823
1820.74,0.24976
1814.95,0.23953
1809.16,0.22513
1803.38,0.20540
1797.59,0.18155
1791.8,0.16791
1786.02,0.15861
1780.23,0.14604
1774.45,0.13450
1768.66,0.12333
1762.87,0.11365
1757.09,0.10399
1751.3,0.09541
1745.51,0.08766
1739.73,0.08174
1733.94,0.07905
1728.16,0.07724
1722.37,0.07694
1716.58,0.07657
1710.8,0.07725
1705.01,0.07895
1699.22,0.08008
1693.44,0.07963
1687.65,0.07891
1681.87,0.07670
1676.08,0.07470
1670.29,0.07311
1664.51,0.07129
1658.72,0.06976
1652.93,0.06952
1647.15,0.06870
1641.36,0.06797
1635.58,0.06802
1629.79,0.06623
1624,0.06550
1618.22,0.06501
1612.43,0.06564
1606.64,0.06644
1600.86,0.06774
1595.07,0.06981
1589.29,0.07279
1583.5,0.07728
1577.71,0.08256
1571.93,0.08807
1566.14,0.09254
1560.35,0.09624
1554.57,0.10003
1548.78,0.10108
1543,0.10122
1537.21,0.09852
1531.42,0.09457
1525.64,0.08865
1519.85,0.08042
1514.07,0.07503
1508.28,0.07359
1502.49,0.07274
1496.71,0.07244
1490.92,0.07008
1485.13,0.06622
1479.35,0.06192
1473.56,0.05813
1467.78,0.05443
1461.99,0.05271
1456.2,0.05226
1450.42,0.05208
1444.63,0.05172
1438.84,0.05133
1433.06,0.05021
1427.27,0.05148
1421.49,0.05349
1415.7,0.05688
1409.91,0.05830
1404.13,0.05871
1398.34,0.05852
1392.55,0.05806
1386.77,0.05613
1380.98,0.05351
1375.2,0.05191
1369.41,0.05230
1363.62,0.05370
1357.84,0.05413
1352.05,0.05548
1346.26,0.05510
1340.48,0.05334
1334.69,0.05264
1328.91,0.05312
1323.12,0.05245
1317.33,0.05234
1311.55,0.05431
1305.76,0.05612
1299.97,0.05753
1294.19,0.05667
1288.4,0.05483
1282.62,0.05366
1276.83,0.05425
1271.04,0.05536
1265.26,0.05586
1259.47,0.05607
1253.68,0.05615
1247.9,0.05573
1242.11,0.05636
1236.33,0.05579
1230.54,0.05680
1224.75,0.05732
1218.97,0.05700
1213.18,0.05558
1207.39,0.05328
1201.61,0.05352
1195.82,0.05383
1190.04,0.05330
1184.25,0.05072
1178.46,0.04825
1172.68,0.04690
1166.89,0.04974
1161.1,0.05417
1155.32,0.05595
1149.53,0.05505
1143.75,0.05271
1137.96,0.04945
1132.17,0.04602
1126.39,0.04481
1120.6,0.04609
1114.81,0.04907
1109.03,0.04984
1103.24,0.04984
1097.46,0.05016
1091.67,0.04939
1085.88,0.04966
1080.1,0.04971
1074.31,0.05262
1068.52,0.05637
1062.74,0.06434
1056.95,0.07006
1051.17,0.06835
1045.38,0.06562
1039.59,0.06782
1033.81,0.07391
1028.02,0.07513
1022.24,0.07458
1016.45,0.07458
1010.66,0.07582
1004.88,0.07678
999.09,0.07850
993.304,0.08091
987.518,0.08453
981.731,0.09116
975.945,0.09666
970.159,0.10010
964.373,0.10442
958.586,0.11109
952.8,0.11501
947.014,0.11483
941.228,0.11226
935.441,0.11169
929.655,0.11189
923.869,0.11061
918.083,0.10777
912.297,0.10460
906.51,0.10517
900.724,0.10293
894.938,0.10498
889.152,0.11288
883.365,0.11215
877.579,0.10347
871.793,0.10365
866.007,0.11785
860.22,0.11960
854.434,0.11894
848.648,0.11880
842.862,0.11873
837.075,0.11800
831.289,0.11521
825.503,0.11305
819.717,0.10895
813.931,0.10500
808.144,0.10300
802.358,0.10022
796.572,0.09791
790.786,0.09623
784.999,0.09379
779.213,0.09194
773.427,0.08945
767.641,0.08699
761.854,0.08554
756.068,0.08346
750.282,0.08237
744.496,0.07957
738.709,0.07855
732.923,0.07534
727.137,0.07267
721.351,0.06939
715.565,0.06651
709.778,0.06571
703.992,0.06571
698.206,0.06544
692.42,0.06488
686.633,0.06513
680.847,0.06273
675.061,0.06142
669.275,0.06108
663.488,0.06103
657.702,0.06070
651.916,0.06238
646.13,0.06278
640.343,0.06084
634.557,0.05761
628.771,0.05748
622.985,0.05769
617.198,0.05708
611.412,0.05918
605.626,0.06157
599.84,0.06256