File: 01_Data/Homasote/FTIR/IS/Homasote_IS_S_221031_R5.dpt
7497.03,0.58211
7491.25,0.58074
7485.46,0.57520
7479.67,0.58924
7473.89,0.57090
7468.1,0.58042
7462.32,0.56942
7456.53,0.58377
7450.74,0.59002
7444.96,0.58439
7439.17,0.58282
7433.38,0.58124
7427.6,0.58864
7421.81,0.57789
7416.03,0.58321
7410.24,0.58617
7404.45,0.56647
7398.67,0.57806
7392.88,0.58235
7387.09,0.58690
7381.31,0.58284
7375.52,0.58501
7369.74,0.57530
7363.95,0.58374
7358.16,0.58038
7352.38,0.57972
7346.59,0.58728
7340.8,0.57597
7335.02,0.57095
7329.23,0.57369
7323.45,0.58730
7317.66,0.58160
7311.87,0.57829
7306.09,0.58021
7300.3,0.58102
7294.51,0.57941
7288.73,0.57850
7282.94,0.58600
7277.16,0.58124
7271.37,0.57224
7265.58,0.57256
7259.8,0.58855
7254.01,0.58506
7248.22,0.58089
7242.44,0.57908
7236.65,0.57711
7230.87,0.57995
7225.08,0.57418
7219.29,0.56952
7213.51,0.58197
7207.72,0.57728
7201.93,0.57354
7196.15,0.58175
7190.36,0.57072
7184.58,0.57741
7178.79,0.57229
7173,0.57467
7167.22,0.57711
7161.43,0.57545
7155.65,0.57018
7149.86,0.57167
7144.07,0.57686
7138.29,0.57398
7132.5,0.57499
7126.71,0.58034
7120.93,0.57384
7115.14,0.56688
7109.36,0.57282
7103.57,0.57363
7097.78,0.56617
7092,0.57358
7086.21,0.56814
7080.42,0.56481
7074.64,0.56528
7068.85,0.55754
7063.07,0.56112
7057.28,0.55697
7051.49,0.56090
7045.71,0.56074
7039.92,0.56585
7034.13,0.56066
7028.35,0.55901
7022.56,0.55740
7016.78,0.56265
7010.99,0.55770
7005.2,0.56043
6999.42,0.56178
6993.63,0.55077
6987.84,0.55788
6982.06,0.55468
6976.27,0.55215
6970.49,0.55700
6964.7,0.55618
6958.91,0.55513
6953.13,0.54814
6947.34,0.55048
6941.55,0.55078
6935.77,0.54857
6929.98,0.55258
6924.2,0.55315
6918.41,0.55316
6912.62,0.55033
6906.84,0.54723
6901.05,0.54567
6895.26,0.54657
6889.48,0.54859
6883.69,0.55099
6877.91,0.54718
6872.12,0.54476
6866.33,0.54588
6860.55,0.55164
6854.76,0.54492
6848.97,0.55362
6843.19,0.54984
6837.4,0.54389
6831.62,0.54046
6825.83,0.54060
6820.04,0.54266
6814.26,0.54509
6808.47,0.54313
6802.68,0.54386
6796.9,0.54698
6791.11,0.54625
6785.33,0.55220
6779.54,0.54880
6773.75,0.53989
6767.97,0.54253
6762.18,0.54322
6756.39,0.55024
6750.61,0.54708
6744.82,0.54552
6739.04,0.54865
6733.25,0.54738
6727.46,0.54460
6721.68,0.54640
6715.89,0.54928
6710.1,0.54126
6704.32,0.54282
6698.53,0.54702
6692.75,0.54658
6686.96,0.54249
6681.17,0.54536
6675.39,0.54239
6669.6,0.54347
6663.82,0.55057
6658.03,0.55223
6652.24,0.54989
6646.46,0.54876
6640.67,0.54990
6634.88,0.54924
6629.1,0.54807
6623.31,0.54869
6617.53,0.55436
6611.74,0.55235
6605.95,0.54820
6600.17,0.55051
6594.38,0.55455
6588.59,0.54913
6582.81,0.54892
6577.02,0.55127
6571.24,0.54503
6565.45,0.55428
6559.66,0.55479
6553.88,0.55042
6548.09,0.55324
6542.3,0.55203
6536.52,0.55084
6530.73,0.55329
6524.95,0.55144
6519.16,0.55192
6513.37,0.55571
6507.59,0.55463
6501.8,0.54922
6496.01,0.55109
6490.23,0.55027
6484.44,0.55199
6478.66,0.55307
6472.87,0.55174
6467.08,0.55664
6461.3,0.55337
6455.51,0.55018
6449.72,0.55364
6443.94,0.55273
6438.15,0.55031
6432.37,0.55158
6426.58,0.55124
6420.79,0.55774
6415.01,0.55267
6409.22,0.55275
6403.43,0.55450
6397.65,0.55237
6391.86,0.55688
6386.08,0.55408
6380.29,0.55809
6374.5,0.55517
6368.72,0.55701
6362.93,0.55748
6357.14,0.55679
6351.36,0.55738
6345.57,0.55712
6339.79,0.55772
6334,0.55394
6328.21,0.55115
6322.43,0.55469
6316.64,0.55560
6310.85,0.55469
6305.07,0.55402
6299.28,0.55523
6293.5,0.55642
6287.71,0.56013
6281.92,0.55826
6276.14,0.55941
6270.35,0.55486
6264.56,0.55632
6258.78,0.56206
6252.99,0.56366
6247.21,0.55800
6241.42,0.56083
6235.63,0.56099
6229.85,0.56109
6224.06,0.56179
6218.27,0.55949
6212.49,0.56302
6206.7,0.56438
6200.92,0.56334
6195.13,0.56542
6189.34,0.56540
6183.56,0.56446
6177.77,0.56820
6171.98,0.56881
6166.2,0.56545
6160.41,0.56830
6154.63,0.56832
6148.84,0.56890
6143.05,0.56976
6137.27,0.57257
6131.48,0.56844
6125.7,0.56936
6119.91,0.56935
6114.12,0.57040
6108.34,0.57212
6102.55,0.56985
6096.76,0.57094
6090.98,0.57198
6085.19,0.57012
6079.41,0.57121
6073.62,0.57298
6067.83,0.57415
6062.05,0.57093
6056.26,0.57014
6050.47,0.57226
6044.69,0.56970
6038.9,0.56871
6033.12,0.57169
6027.33,0.57140
6021.54,0.57477
6015.76,0.57390
6009.97,0.57073
6004.18,0.56990
5998.4,0.57501
5992.61,0.57494
5986.83,0.57465
5981.04,0.57301
5975.25,0.57072
5969.47,0.57213
5963.68,0.57146
5957.89,0.57023
5952.11,0.57190
5946.32,0.57240
5940.54,0.57432
5934.75,0.57526
5928.96,0.57521
5923.18,0.57110
5917.39,0.57117
5911.6,0.57009
5905.82,0.57203
5900.03,0.56873
5894.25,0.57006
5888.46,0.57021
5882.67,0.56741
5876.89,0.56910
5871.1,0.56974
5865.31,0.56914
5859.53,0.56867
5853.74,0.56941
5847.96,0.56897
5842.17,0.56815
5836.38,0.57007
5830.6,0.56861
5824.81,0.56849
5819.02,0.56827
5813.24,0.56727
5807.45,0.56621
5801.67,0.56506
5795.88,0.56523
5790.09,0.56671
5784.31,0.56537
5778.52,0.56726
5772.73,0.56610
5766.95,0.56617
5761.16,0.56798
5755.38,0.56765
5749.59,0.56755
5743.8,0.56794
5738.02,0.56743
5732.23,0.56634
5726.44,0.56480
5720.66,0.56737
5714.87,0.56825
5709.09,0.56743
5703.3,0.56751
5697.51,0.56794
5691.73,0.56775
5685.94,0.56687
5680.15,0.56572
5674.37,0.56732
5668.58,0.56765
5662.8,0.56727
5657.01,0.56403
5651.22,0.56637
5645.44,0.56556
5639.65,0.56794
5633.87,0.56765
5628.08,0.56910
5622.29,0.56674
5616.51,0.56786
5610.72,0.56655
5604.93,0.56640
5599.15,0.56651
5593.36,0.56816
5587.58,0.56718
5581.79,0.56550
5576,0.56889
5570.22,0.56792
5564.43,0.57016
5558.64,0.56983
5552.86,0.56740
5547.07,0.56842
5541.29,0.56911
5535.5,0.56955
5529.71,0.56874
5523.93,0.56925
5518.14,0.57058
5512.35,0.57045
5506.57,0.56947
5500.78,0.56969
5495,0.57033
5489.21,0.56845
5483.42,0.56880
5477.64,0.57061
5471.85,0.57097
5466.06,0.57100
5460.28,0.56996
5454.49,0.57163
5448.71,0.57112
5442.92,0.57137
5437.13,0.57231
5431.35,0.57472
5425.56,0.57123
5419.77,0.57178
5413.99,0.57349
5408.2,0.57355
5402.42,0.57243
5396.63,0.57473
5390.84,0.57426
5385.06,0.57403
5379.27,0.57476
5373.48,0.57432
5367.7,0.57419
5361.91,0.57347
5356.13,0.57457
5350.34,0.57436
5344.55,0.57384
5338.77,0.57363
5332.98,0.57304
5327.19,0.57103
5321.41,0.57014
5315.62,0.56927
5309.84,0.56816
5304.05,0.56678
5298.26,0.56362
5292.48,0.56132
5286.69,0.55933
5280.9,0.55717
5275.12,0.55114
5269.33,0.54725
5263.55,0.54308
5257.76,0.53782
5251.97,0.53138
5246.19,0.52684
5240.4,0.52277
5234.61,0.51636
5228.83,0.51387
5223.04,0.50911
5217.26,0.50425
5211.47,0.50119
5205.68,0.50159
5199.9,0.50185
5194.11,0.50269
5188.32,0.50281
5182.54,0.50569
5176.75,0.50497
5170.97,0.50503
5165.18,0.50616
5159.39,0.50683
5153.61,0.50995
5147.82,0.51119
5142.03,0.51191
5136.25,0.51391
5130.46,0.51494
5124.68,0.51786
5118.89,0.51895
5113.1,0.52048
5107.32,0.52269
5101.53,0.52419
5095.75,0.52511
5089.96,0.52602
5084.17,0.52617
5078.39,0.52918
5072.6,0.53070
5066.81,0.53154
5061.03,0.53295
5055.24,0.53355
5049.46,0.53386
5043.67,0.53507
5037.88,0.53864
5032.1,0.53979
5026.31,0.54000
5020.52,0.54085
5014.74,0.54103
5008.95,0.54229
5003.17,0.54054
4997.38,0.54310
4991.59,0.54263
4985.81,0.54341
4980.02,0.54349
4974.23,0.54270
4968.45,0.54269
4962.66,0.54083
4956.88,0.54103
4951.09,0.53995
4945.3,0.53769
4939.52,0.53510
4933.73,0.53372
4927.94,0.53169
4922.16,0.53068
4916.37,0.52735
4910.59,0.52476
4904.8,0.52191
4899.01,0.52070
4893.23,0.51619
4887.44,0.51324
4881.65,0.50998
4875.87,0.50774
4870.08,0.50389
4864.3,0.50217
4858.51,0.49837
4852.72,0.49537
4846.94,0.49261
4841.15,0.49101
4835.36,0.48695
4829.58,0.48414
4823.79,0.48258
4818.01,0.47973
4812.22,0.47788
4806.43,0.47426
4800.65,0.47340
4794.86,0.47378
4789.07,0.47088
4783.29,0.47200
4777.5,0.46985
4771.72,0.46711
4765.93,0.46795
4760.14,0.46665
4754.36,0.46585
4748.57,0.46570
4742.78,0.46536
4737,0.46723
4731.21,0.46724
4725.43,0.46757
4719.64,0.46667
4713.85,0.46856
4708.07,0.47035
4702.28,0.47132
4696.49,0.47208
4690.71,0.47309
4684.92,0.47435
4679.14,0.47611
4673.35,0.47721
4667.56,0.47923
4661.78,0.47923
4655.99,0.48094
4650.2,0.48214
4644.42,0.48283
4638.63,0.48487
4632.85,0.48552
4627.06,0.48670
4621.27,0.48982
4615.49,0.49124
4609.7,0.49225
4603.92,0.49245
4598.13,0.49613
4592.34,0.49682
4586.56,0.49850
4580.77,0.49901
4574.98,0.50018
4569.2,0.50201
4563.41,0.50235
4557.63,0.50361
4551.84,0.50492
4546.05,0.50589
4540.27,0.50645
4534.48,0.50586
4528.69,0.50421
4522.91,0.50591
4517.12,0.50957
4511.34,0.50996
4505.55,0.51042
4499.76,0.51075
4493.98,0.51047
4488.19,0.50950
4482.4,0.50899
4476.62,0.50648
4470.83,0.50473
4465.05,0.50167
4459.26,0.49847
4453.47,0.49587
4447.69,0.49205
4441.9,0.48747
4436.11,0.48353
4430.33,0.47881
4424.54,0.47357
4418.76,0.46918
4412.97,0.46424
4407.18,0.45944
4401.4,0.45735
4395.61,0.45497
4389.82,0.45598
4384.04,0.45661
4378.25,0.45838
4372.47,0.45966
4366.68,0.46058
4360.89,0.45982
4355.11,0.45952
4349.32,0.45698
4343.53,0.45497
4337.75,0.45268
4331.96,0.44962
4326.18,0.44702
4320.39,0.44355
4314.6,0.44388
4308.82,0.44366
4303.03,0.44204
4297.24,0.44038
4291.46,0.43834
4285.67,0.43627
4279.89,0.43556
4274.1,0.43558
4268.31,0.43567
4262.53,0.43664
4256.74,0.43622
4250.95,0.43515
4245.17,0.43758
4239.38,0.43863
4233.6,0.44006
4227.81,0.44078
4222.02,0.44126
4216.24,0.44067
4210.45,0.44098
4204.66,0.44245
4198.88,0.44239
4193.09,0.44296
4187.31,0.44223
4181.52,0.44312
4175.73,0.44328
4169.95,0.44431
4164.16,0.44410
4158.37,0.44344
4152.59,0.44228
4146.8,0.44029
4141.02,0.43864
4135.23,0.43686
4129.44,0.43449
4123.66,0.43122
4117.87,0.42754
4112.09,0.42380
4106.3,0.41892
4100.51,0.41387
4094.73,0.40936
4088.94,0.40434
4083.15,0.39910
4077.37,0.39485
4071.58,0.39018
4065.8,0.38493
4060.01,0.37974
4054.22,0.37458
4048.44,0.36823
4042.65,0.36347
4036.86,0.35920
4031.08,0.35595
4025.29,0.35373
4019.51,0.35267
4013.72,0.35315
4007.93,0.35361
4002.15,0.35475
3996.36,0.35685
3990.57,0.35868
3984.79,0.36045
3979,0.36308
3973.22,0.36436
3967.43,0.36703
3961.64,0.36817
3955.86,0.37036
3950.07,0.37250
3944.28,0.37507
3938.5,0.37754
3932.71,0.38044
3926.93,0.38371
3921.14,0.38502
3915.35,0.38805
3909.57,0.39059
3903.78,0.39223
3897.99,0.39450
3892.21,0.39669
3886.42,0.39880
3880.64,0.40011
3874.85,0.40185
3869.06,0.40442
3863.28,0.40681
3857.49,0.40854
3851.7,0.41180
3845.92,0.41308
3840.13,0.41526
3834.35,0.41546
3828.56,0.41572
3822.77,0.41555
3816.99,0.41444
3811.2,0.41371
3805.41,0.41344
3799.63,0.41324
3793.84,0.41164
3788.06,0.41120
3782.27,0.40940
3776.48,0.40729
3770.7,0.40568
3764.91,0.40322
3759.12,0.40012
3753.34,0.39663
3747.55,0.39217
3741.77,0.38645
3735.98,0.38063
3730.19,0.37144
3724.41,0.36008
3718.62,0.34190
3712.83,0.31721
3707.05,0.28017
3701.26,0.23382
3695.48,0.20311
3689.69,0.21278
3683.9,0.23138
3678.12,0.23032
3672.33,0.21232
3666.54,0.19643
3660.76,0.18352
3654.97,0.16312
3649.19,0.15239
3643.4,0.14318
3637.61,0.13334
3631.83,0.12197
3626.04,0.10681
3620.25,0.09438
3614.47,0.09476
3608.68,0.09295
3602.9,0.08862
3597.11,0.08585
3591.32,0.08334
3585.54,0.07982
3579.75,0.07554
3573.97,0.07212
3568.18,0.06804
3562.39,0.06448
3556.61,0.06217
3550.82,0.06035
3545.03,0.05827
3539.25,0.05749
3533.46,0.05580
3527.68,0.05462
3521.89,0.05246
3516.1,0.05144
3510.32,0.05047
3504.53,0.04883
3498.74,0.04777
3492.96,0.04736
3487.17,0.04589
3481.39,0.04542
3475.6,0.04413
3469.81,0.04374
3464.03,0.04365
3458.24,0.04298
3452.45,0.04241
3446.67,0.04183
3440.88,0.04145
3435.1,0.04189
3429.31,0.04160
3423.52,0.04158
3417.74,0.04150
3411.95,0.04180
3406.16,0.04138
3400.38,0.04134
3394.59,0.04050
3388.81,0.04102
3383.02,0.04112
3377.23,0.04166
3371.45,0.04212
3365.66,0.04211
3359.87,0.04237
3354.09,0.04276
3348.3,0.04327
3342.52,0.04378
3336.73,0.04436
3330.94,0.04559
3325.16,0.04658
3319.37,0.04707
3313.58,0.04746
3307.8,0.04682
3302.01,0.04767
3296.23,0.04902
3290.44,0.04917
3284.65,0.04984
3278.87,0.05048
3273.08,0.05087
3267.29,0.05168
3261.51,0.05296
3255.72,0.05408
3249.94,0.05523
3244.15,0.05612
3238.36,0.05735
3232.58,0.05787
3226.79,0.05972
3221,0.06095
3215.22,0.06131
3209.43,0.06295
3203.65,0.06385
3197.86,0.06571
3192.07,0.06725
3186.29,0.06781
3180.5,0.06959
3174.71,0.07083
3168.93,0.07198
3163.14,0.07364
3157.36,0.07520
3151.57,0.07739
3145.78,0.07854
3140,0.08011
3134.21,0.08119
3128.42,0.08302
3122.64,0.08523
3116.85,0.08681
3111.07,0.08838
3105.28,0.09025
3099.49,0.09220
3093.71,0.09401
3087.92,0.09564
3082.14,0.09746
3076.35,0.09944
3070.56,0.10118
3064.78,0.10307
3058.99,0.10483
3053.2,0.10668
3047.42,0.10922
3041.63,0.11050
3035.85,0.11219
3030.06,0.11331
3024.27,0.11473
3018.49,0.11565
3012.7,0.11539
3006.91,0.11498
3001.13,0.11449
2995.34,0.11339
2989.56,0.11010
2983.77,0.10670
2977.98,0.10072
2972.2,0.09364
2966.41,0.08841
2960.62,0.08601
2954.84,0.08281
2949.05,0.07893
2943.27,0.07559
2937.48,0.07397
2931.69,0.07191
2925.91,0.06897
2920.12,0.06577
2914.33,0.06654
2908.55,0.06863
2902.76,0.06964
2896.98,0.07189
2891.19,0.07419
2885.4,0.07625
2879.62,0.07807
2873.83,0.07974
2868.04,0.08150
2862.26,0.08307
2856.47,0.08410
2850.69,0.08251
2844.9,0.09137
2839.11,0.10121
2833.33,0.10802
2827.54,0.11300
2821.75,0.11801
2815.97,0.12239
2810.18,0.12720
2804.4,0.13078
2798.61,0.13389
2792.82,0.13647
2787.04,0.13792
2781.25,0.13933
2775.46,0.14046
2769.68,0.14169
2763.89,0.14292
2758.11,0.14404
2752.32,0.14503
2746.53,0.14518
2740.75,0.14561
2734.96,0.14650
2729.17,0.14754
2723.39,0.14932
2717.6,0.15099
2711.82,0.15291
2706.03,0.15548
2700.24,0.15830
2694.46,0.16058
2688.67,0.16292
2682.88,0.16497
2677.1,0.16719
2671.31,0.16884
2665.53,0.17015
2659.74,0.17177
2653.95,0.17326
2648.17,0.17526
2642.38,0.17744
2636.59,0.17969
2630.81,0.18103
2625.02,0.18300
2619.24,0.18490
2613.45,0.18662
2607.66,0.18828
2601.88,0.18947
2596.09,0.19077
2590.3,0.19199
2584.52,0.19329
2578.73,0.19440
2572.95,0.19501
2567.16,0.19524
2561.37,0.19552
2555.59,0.19576
2549.8,0.19586
2544.02,0.19553
2538.23,0.19581
2532.44,0.19541
2526.66,0.19462
2520.87,0.19424
2515.08,0.19487
2509.3,0.19670
2503.51,0.20201
2497.73,0.20763
2491.94,0.21246
2486.15,0.21619
2480.37,0.21982
2474.58,0.22362
2468.79,0.22692
2463.01,0.22950
2457.22,0.23168
2451.44,0.23446
2445.65,0.23765
2439.86,0.24058
2434.08,0.24345
2428.29,0.24663
2422.5,0.24972
2416.72,0.25306
2410.93,0.25559
2405.15,0.25822
2399.36,0.26060
2393.57,0.26256
2387.79,0.26509
2382,0.26733
2376.21,0.26987
2370.43,0.27216
2364.64,0.27343
2358.86,0.27545
2353.07,0.27703
2347.28,0.27813
2341.5,0.28039
2335.71,0.28105
2329.92,0.28283
2324.14,0.28374
2318.35,0.28478
2312.57,0.28524
2306.78,0.28600
2300.99,0.28544
2295.21,0.28513
2289.42,0.28489
2283.63,0.28446
2277.85,0.28479
2272.06,0.28358
2266.28,0.28187
2260.49,0.27990
2254.7,0.27792
2248.92,0.27730
2243.13,0.27587
2237.34,0.27422
2231.56,0.27394
2225.77,0.27391
2219.99,0.27404
2214.2,0.27471
2208.41,0.27472
2202.63,0.27411
2196.84,0.27338
2191.05,0.27199
2185.27,0.26922
2179.48,0.26562
2173.7,0.26186
2167.91,0.25834
2162.12,0.25491
2156.34,0.25189
2150.55,0.24939
2144.76,0.24756
2138.98,0.24582
2133.19,0.24564
2127.41,0.24745
2121.62,0.24953
2115.83,0.25236
2110.05,0.25445
2104.26,0.25625
2098.47,0.25747
2092.69,0.25929
2086.9,0.26038
2081.12,0.26175
2075.33,0.26213
2069.54,0.26149
2063.76,0.26132
2057.97,0.26125
2052.19,0.26145
2046.4,0.26233
2040.61,0.26367
2034.83,0.26620
2029.04,0.26926
2023.25,0.27260
2017.47,0.27609
2011.68,0.27843
2005.9,0.28074
2000.11,0.28177
1994.32,0.28335
1988.54,0.28519
1982.75,0.28679
1976.96,0.28674
1971.18,0.28747
1965.39,0.28755
1959.61,0.28766
1953.82,0.28861
1948.03,0.28999
1942.25,0.29087
1936.46,0.29207
1930.67,0.29338
1924.89,0.29395
1919.1,0.29435
1913.32,0.29478
1907.53,0.29440
1901.74,0.29409
1895.96,0.29381
1890.17,0.29310
1884.38,0.29218
1878.6,0.29131
1872.81,0.28993
1867.03,0.28821
1861.24,0.28620
1855.45,0.28373
1849.67,0.28048
1843.88,0.27658
1838.09,0.27171
1832.31,0.26655
1826.52,0.25964
1820.74,0.25075
1814.95,0.24033
1809.16,0.22631
1803.38,0.20609
1797.59,0.18225
1791.8,0.16828
1786.02,0.15910
1780.23,0.14654
1774.45,0.13479
1768.66,0.12353
1762.87,0.11417
1757.09,0.10447
1751.3,0.09535
1745.51,0.08766
1739.73,0.08229
1733.94,0.07948
1728.16,0.07756
1722.37,0.07678
1716.58,0.07698
1710.8,0.07773
1705.01,0.07915
1699.22,0.08010
1693.44,0.08021
1687.65,0.07931
1681.87,0.07703
1676.08,0.07519
1670.29,0.07330
1664.51,0.07186
1658.72,0.07028
1652.93,0.06951
1647.15,0.06891
1641.36,0.06843
1635.58,0.06790
1629.79,0.06669
1624,0.06549
1618.22,0.06521
1612.43,0.06578
1606.64,0.06673
1600.86,0.06793
1595.07,0.07043
1589.29,0.07313
1583.5,0.07750
1577.71,0.08262
1571.93,0.08880
1566.14,0.09338
1560.35,0.09689
1554.57,0.10058
1548.78,0.10169
1543,0.10191
1537.21,0.09910
1531.42,0.09457
1525.64,0.08889
1519.85,0.08065
1514.07,0.07493
1508.28,0.07388
1502.49,0.07335
1496.71,0.07231
1490.92,0.06980
1485.13,0.06604
1479.35,0.06215
1473.56,0.05794
1467.78,0.05453
1461.99,0.05276
1456.2,0.05267
1450.42,0.05194
1444.63,0.05192
1438.84,0.05139
1433.06,0.05017
1427.27,0.05132
1421.49,0.05419
1415.7,0.05668
1409.91,0.05853
1404.13,0.05908
1398.34,0.05887
1392.55,0.05892
1386.77,0.05605
1380.98,0.05348
1375.2,0.05155
1369.41,0.05220
1363.62,0.05356
1357.84,0.05458
1352.05,0.05563
1346.26,0.05520
1340.48,0.05376
1334.69,0.05314
1328.91,0.05345
1323.12,0.05253
1317.33,0.05232
1311.55,0.05444
1305.76,0.05641
1299.97,0.05735
1294.19,0.05657
1288.4,0.05518
1282.62,0.05361
1276.83,0.05463
1271.04,0.05545
1265.26,0.05574
1259.47,0.05617
1253.68,0.05657
1247.9,0.05597
1242.11,0.05582
1236.33,0.05586
1230.54,0.05653
1224.75,0.05733
1218.97,0.05709
1213.18,0.05547
1207.39,0.05305
1201.61,0.05330
1195.82,0.05402
1190.04,0.05316
1184.25,0.05061
1178.46,0.04825
1172.68,0.04705
1166.89,0.04950
1161.1,0.05404
1155.32,0.05556
1149.53,0.05491
1143.75,0.05318
1137.96,0.04956
1132.17,0.04591
1126.39,0.04551
1120.6,0.04615
1114.81,0.04822
1109.03,0.04981
1103.24,0.04958
1097.46,0.05052
1091.67,0.04989
1085.88,0.04929
1080.1,0.05047
1074.31,0.05339
1068.52,0.05675
1062.74,0.06428
1056.95,0.06997
1051.17,0.06874
1045.38,0.06565
1039.59,0.06812
1033.81,0.07358
1028.02,0.07517
1022.24,0.07424
1016.45,0.07447
1010.66,0.07607
1004.88,0.07647
999.09,0.07874
993.304,0.08130
987.518,0.08450
981.731,0.09110
975.945,0.09674
970.159,0.09981
964.373,0.10460
958.586,0.11111
952.8,0.11536
947.014,0.11537
941.228,0.11318
935.441,0.11251
929.655,0.11231
923.869,0.11080
918.083,0.10831
912.297,0.10568
906.51,0.10495
900.724,0.10264
894.938,0.10554
889.152,0.11303
883.365,0.11272
877.579,0.10424
871.793,0.10324
866.007,0.11828
860.22,0.12005
854.434,0.11934
848.648,0.11901
842.862,0.11926
837.075,0.11884
831.289,0.11681
825.503,0.11402
819.717,0.10955
813.931,0.10623
808.144,0.10353
802.358,0.10152
796.572,0.09827
790.786,0.09634
784.999,0.09443
779.213,0.09292
773.427,0.09023
767.641,0.08753
761.854,0.08494
756.068,0.08330
750.282,0.08276
744.496,0.08056
738.709,0.07982
732.923,0.07550
727.137,0.07202
721.351,0.06892
715.565,0.06652
709.778,0.06603
703.992,0.06536
698.206,0.06494
692.42,0.06475
686.633,0.06457
680.847,0.06234
675.061,0.06031
669.275,0.06046
663.488,0.05994
657.702,0.06160
651.916,0.06026
646.13,0.06144
640.343,0.06122
634.557,0.05880
628.771,0.05841
622.985,0.05799
617.198,0.05838
611.412,0.06006
605.626,0.06372
599.84,0.06414