File: 01_Data/Homasote/FTIR/IS/Homasote_IS_S_221031_R7.dpt
7497.03,0.58052
7491.25,0.58921
7485.46,0.57997
7479.67,0.57388
7473.89,0.58699
7468.1,0.58353
7462.32,0.57535
7456.53,0.58828
7450.74,0.57830
7444.96,0.58340
7439.17,0.59095
7433.38,0.57181
7427.6,0.58245
7421.81,0.58239
7416.03,0.58344
7410.24,0.58231
7404.45,0.57831
7398.67,0.56988
7392.88,0.57628
7387.09,0.57694
7381.31,0.58708
7375.52,0.57829
7369.74,0.57996
7363.95,0.57251
7358.16,0.57417
7352.38,0.57901
7346.59,0.57556
7340.8,0.57520
7335.02,0.56983
7329.23,0.57242
7323.45,0.58012
7317.66,0.58036
7311.87,0.58000
7306.09,0.57784
7300.3,0.59072
7294.51,0.57309
7288.73,0.57708
7282.94,0.56696
7277.16,0.57626
7271.37,0.57887
7265.58,0.57620
7259.8,0.58843
7254.01,0.57551
7248.22,0.58133
7242.44,0.58238
7236.65,0.57541
7230.87,0.57021
7225.08,0.58237
7219.29,0.58117
7213.51,0.57497
7207.72,0.57886
7201.93,0.58284
7196.15,0.57728
7190.36,0.58051
7184.58,0.56666
7178.79,0.57148
7173,0.57750
7167.22,0.58271
7161.43,0.57580
7155.65,0.57914
7149.86,0.57801
7144.07,0.57898
7138.29,0.57289
7132.5,0.57070
7126.71,0.57720
7120.93,0.57017
7115.14,0.57022
7109.36,0.57425
7103.57,0.56959
7097.78,0.56995
7092,0.57755
7086.21,0.57193
7080.42,0.56782
7074.64,0.56757
7068.85,0.56182
7063.07,0.55712
7057.28,0.56503
7051.49,0.56133
7045.71,0.56326
7039.92,0.55386
7034.13,0.55942
7028.35,0.55882
7022.56,0.56118
7016.78,0.56334
7010.99,0.56093
7005.2,0.55174
6999.42,0.56367
6993.63,0.55295
6987.84,0.55607
6982.06,0.55817
6976.27,0.56117
6970.49,0.55703
6964.7,0.55194
6958.91,0.55750
6953.13,0.55356
6947.34,0.55458
6941.55,0.55228
6935.77,0.55498
6929.98,0.54709
6924.2,0.54719
6918.41,0.54996
6912.62,0.54683
6906.84,0.55141
6901.05,0.55284
6895.26,0.55040
6889.48,0.55225
6883.69,0.55055
6877.91,0.55187
6872.12,0.54663
6866.33,0.54876
6860.55,0.55050
6854.76,0.54537
6848.97,0.54770
6843.19,0.55156
6837.4,0.54650
6831.62,0.54572
6825.83,0.54476
6820.04,0.54322
6814.26,0.54793
6808.47,0.54164
6802.68,0.53906
6796.9,0.54340
6791.11,0.54343
6785.33,0.54318
6779.54,0.54707
6773.75,0.54181
6767.97,0.54475
6762.18,0.54465
6756.39,0.54323
6750.61,0.54491
6744.82,0.54406
6739.04,0.54725
6733.25,0.54263
6727.46,0.54168
6721.68,0.54389
6715.89,0.54255
6710.1,0.54387
6704.32,0.54555
6698.53,0.54813
6692.75,0.54668
6686.96,0.54004
6681.17,0.54219
6675.39,0.54979
6669.6,0.54328
6663.82,0.54128
6658.03,0.54907
6652.24,0.54558
6646.46,0.54810
6640.67,0.54799
6634.88,0.54600
6629.1,0.54555
6623.31,0.54756
6617.53,0.54596
6611.74,0.54771
6605.95,0.54854
6600.17,0.54725
6594.38,0.55157
6588.59,0.55379
6582.81,0.55433
6577.02,0.55246
6571.24,0.55245
6565.45,0.54949
6559.66,0.55261
6553.88,0.55339
6548.09,0.54807
6542.3,0.55529
6536.52,0.55282
6530.73,0.54799
6524.95,0.54725
6519.16,0.55168
6513.37,0.55372
6507.59,0.55072
6501.8,0.55053
6496.01,0.54856
6490.23,0.55173
6484.44,0.55841
6478.66,0.55563
6472.87,0.55133
6467.08,0.55285
6461.3,0.55187
6455.51,0.55425
6449.72,0.55513
6443.94,0.55527
6438.15,0.54754
6432.37,0.55339
6426.58,0.55072
6420.79,0.55368
6415.01,0.55500
6409.22,0.55438
6403.43,0.55475
6397.65,0.55382
6391.86,0.56030
6386.08,0.55655
6380.29,0.55545
6374.5,0.55593
6368.72,0.55704
6362.93,0.55463
6357.14,0.55730
6351.36,0.55444
6345.57,0.55112
6339.79,0.55613
6334,0.55587
6328.21,0.55504
6322.43,0.55568
6316.64,0.55289
6310.85,0.55238
6305.07,0.55424
6299.28,0.55700
6293.5,0.55557
6287.71,0.55844
6281.92,0.55651
6276.14,0.55635
6270.35,0.55644
6264.56,0.56205
6258.78,0.55999
6252.99,0.55553
6247.21,0.56213
6241.42,0.55947
6235.63,0.56238
6229.85,0.56445
6224.06,0.56460
6218.27,0.56322
6212.49,0.56744
6206.7,0.56314
6200.92,0.56359
6195.13,0.56312
6189.34,0.56424
6183.56,0.56500
6177.77,0.56432
6171.98,0.56293
6166.2,0.56581
6160.41,0.56940
6154.63,0.56684
6148.84,0.56834
6143.05,0.56751
6137.27,0.56633
6131.48,0.56880
6125.7,0.56628
6119.91,0.57007
6114.12,0.56804
6108.34,0.56885
6102.55,0.57035
6096.76,0.57170
6090.98,0.56822
6085.19,0.57038
6079.41,0.57006
6073.62,0.57032
6067.83,0.56632
6062.05,0.57430
6056.26,0.57264
6050.47,0.57184
6044.69,0.57364
6038.9,0.57059
6033.12,0.57038
6027.33,0.57128
6021.54,0.57038
6015.76,0.57183
6009.97,0.57238
6004.18,0.57184
5998.4,0.56928
5992.61,0.57029
5986.83,0.57313
5981.04,0.57127
5975.25,0.57306
5969.47,0.57387
5963.68,0.57115
5957.89,0.57144
5952.11,0.57449
5946.32,0.57167
5940.54,0.57004
5934.75,0.57326
5928.96,0.57341
5923.18,0.57062
5917.39,0.57202
5911.6,0.56908
5905.82,0.57152
5900.03,0.57151
5894.25,0.57156
5888.46,0.56793
5882.67,0.56835
5876.89,0.56786
5871.1,0.56850
5865.31,0.56856
5859.53,0.56864
5853.74,0.57094
5847.96,0.56695
5842.17,0.56667
5836.38,0.56827
5830.6,0.56934
5824.81,0.56882
5819.02,0.56759
5813.24,0.56446
5807.45,0.56753
5801.67,0.56667
5795.88,0.56500
5790.09,0.56443
5784.31,0.56458
5778.52,0.56492
5772.73,0.56579
5766.95,0.56462
5761.16,0.56502
5755.38,0.56525
5749.59,0.56652
5743.8,0.56702
5738.02,0.56649
5732.23,0.56673
5726.44,0.56761
5720.66,0.56737
5714.87,0.57065
5709.09,0.56811
5703.3,0.56680
5697.51,0.56992
5691.73,0.56829
5685.94,0.56523
5680.15,0.56576
5674.37,0.56670
5668.58,0.56591
5662.8,0.56458
5657.01,0.56591
5651.22,0.56721
5645.44,0.56457
5639.65,0.56714
5633.87,0.56686
5628.08,0.56675
5622.29,0.56645
5616.51,0.56679
5610.72,0.56718
5604.93,0.56559
5599.15,0.56731
5593.36,0.56491
5587.58,0.56842
5581.79,0.56774
5576,0.56777
5570.22,0.56854
5564.43,0.56885
5558.64,0.56797
5552.86,0.56923
5547.07,0.56920
5541.29,0.56926
5535.5,0.56824
5529.71,0.56844
5523.93,0.56895
5518.14,0.56794
5512.35,0.56903
5506.57,0.56768
5500.78,0.56965
5495,0.56941
5489.21,0.56722
5483.42,0.56965
5477.64,0.56931
5471.85,0.56905
5466.06,0.57037
5460.28,0.56910
5454.49,0.56984
5448.71,0.57015
5442.92,0.57099
5437.13,0.57144
5431.35,0.57272
5425.56,0.57105
5419.77,0.57390
5413.99,0.57327
5408.2,0.57342
5402.42,0.57541
5396.63,0.57480
5390.84,0.57292
5385.06,0.57426
5379.27,0.57216
5373.48,0.57399
5367.7,0.57501
5361.91,0.57406
5356.13,0.57347
5350.34,0.57310
5344.55,0.57328
5338.77,0.57238
5332.98,0.57176
5327.19,0.57118
5321.41,0.57025
5315.62,0.57053
5309.84,0.56780
5304.05,0.56638
5298.26,0.56467
5292.48,0.56289
5286.69,0.55955
5280.9,0.55577
5275.12,0.55215
5269.33,0.54849
5263.55,0.54262
5257.76,0.53802
5251.97,0.53286
5246.19,0.52867
5240.4,0.52276
5234.61,0.51877
5228.83,0.51449
5223.04,0.50908
5217.26,0.50652
5211.47,0.50353
5205.68,0.50284
5199.9,0.50229
5194.11,0.50490
5188.32,0.50358
5182.54,0.50513
5176.75,0.50628
5170.97,0.50684
5165.18,0.50802
5159.39,0.50905
5153.61,0.51098
5147.82,0.51194
5142.03,0.51295
5136.25,0.51318
5130.46,0.51692
5124.68,0.51811
5118.89,0.52067
5113.1,0.52253
5107.32,0.52336
5101.53,0.52537
5095.75,0.52655
5089.96,0.52748
5084.17,0.52880
5078.39,0.52992
5072.6,0.53108
5066.81,0.53127
5061.03,0.53428
5055.24,0.53663
5049.46,0.53563
5043.67,0.53657
5037.88,0.53869
5032.1,0.53942
5026.31,0.53975
5020.52,0.54126
5014.74,0.54175
5008.95,0.54096
5003.17,0.54254
4997.38,0.54337
4991.59,0.54351
4985.81,0.54345
4980.02,0.54321
4974.23,0.54170
4968.45,0.54172
4962.66,0.54117
4956.88,0.54123
4951.09,0.53991
4945.3,0.53797
4939.52,0.53731
4933.73,0.53444
4927.94,0.53261
4922.16,0.53006
4916.37,0.52811
4910.59,0.52446
4904.8,0.52174
4899.01,0.52015
4893.23,0.51716
4887.44,0.51330
4881.65,0.51143
4875.87,0.50822
4870.08,0.50403
4864.3,0.50182
4858.51,0.49840
4852.72,0.49574
4846.94,0.49318
4841.15,0.49069
4835.36,0.48749
4829.58,0.48316
4823.79,0.48187
4818.01,0.48082
4812.22,0.47838
4806.43,0.47548
4800.65,0.47457
4794.86,0.47238
4789.07,0.47036
4783.29,0.47106
4777.5,0.46919
4771.72,0.46784
4765.93,0.46743
4760.14,0.46718
4754.36,0.46602
4748.57,0.46477
4742.78,0.46414
4737,0.46640
4731.21,0.46717
4725.43,0.46670
4719.64,0.46750
4713.85,0.46815
4708.07,0.46921
4702.28,0.47052
4696.49,0.47260
4690.71,0.47386
4684.92,0.47519
4679.14,0.47612
4673.35,0.47639
4667.56,0.47891
4661.78,0.47972
4655.99,0.48152
4650.2,0.48083
4644.42,0.48353
4638.63,0.48397
4632.85,0.48476
4627.06,0.48697
4621.27,0.48878
4615.49,0.49094
4609.7,0.49162
4603.92,0.49399
4598.13,0.49515
4592.34,0.49590
4586.56,0.49873
4580.77,0.49916
4574.98,0.50104
4569.2,0.50116
4563.41,0.50205
4557.63,0.50349
4551.84,0.50421
4546.05,0.50500
4540.27,0.50614
4534.48,0.50480
4528.69,0.50382
4522.91,0.50508
4517.12,0.50831
4511.34,0.51012
4505.55,0.51039
4499.76,0.51100
4493.98,0.50985
4488.19,0.50926
4482.4,0.50883
4476.62,0.50688
4470.83,0.50434
4465.05,0.50226
4459.26,0.49873
4453.47,0.49549
4447.69,0.49258
4441.9,0.48767
4436.11,0.48309
4430.33,0.47907
4424.54,0.47396
4418.76,0.46878
4412.97,0.46287
4407.18,0.45970
4401.4,0.45698
4395.61,0.45535
4389.82,0.45511
4384.04,0.45673
4378.25,0.45722
4372.47,0.45894
4366.68,0.45937
4360.89,0.45951
4355.11,0.45940
4349.32,0.45709
4343.53,0.45469
4337.75,0.45318
4331.96,0.45034
4326.18,0.44642
4320.39,0.44264
4314.6,0.44374
4308.82,0.44243
4303.03,0.44110
4297.24,0.43897
4291.46,0.43829
4285.67,0.43651
4279.89,0.43532
4274.1,0.43513
4268.31,0.43546
4262.53,0.43657
4256.74,0.43611
4250.95,0.43563
4245.17,0.43672
4239.38,0.43897
4233.6,0.43959
4227.81,0.44022
4222.02,0.44066
4216.24,0.44159
4210.45,0.44142
4204.66,0.44203
4198.88,0.44282
4193.09,0.44310
4187.31,0.44314
4181.52,0.44308
4175.73,0.44253
4169.95,0.44342
4164.16,0.44395
4158.37,0.44381
4152.59,0.44247
4146.8,0.44113
4141.02,0.43789
4135.23,0.43670
4129.44,0.43473
4123.66,0.43091
4117.87,0.42795
4112.09,0.42358
4106.3,0.42010
4100.51,0.41483
4094.73,0.40961
4088.94,0.40448
4083.15,0.40029
4077.37,0.39463
4071.58,0.39007
4065.8,0.38456
4060.01,0.37935
4054.22,0.37450
4048.44,0.36846
4042.65,0.36325
4036.86,0.35955
4031.08,0.35596
4025.29,0.35352
4019.51,0.35245
4013.72,0.35312
4007.93,0.35363
4002.15,0.35540
3996.36,0.35774
3990.57,0.35934
3984.79,0.36138
3979,0.36273
3973.22,0.36481
3967.43,0.36635
3961.64,0.36860
3955.86,0.37037
3950.07,0.37313
3944.28,0.37515
3938.5,0.37809
3932.71,0.38033
3926.93,0.38363
3921.14,0.38592
3915.35,0.38907
3909.57,0.39127
3903.78,0.39263
3897.99,0.39502
3892.21,0.39696
3886.42,0.39898
3880.64,0.40029
3874.85,0.40232
3869.06,0.40425
3863.28,0.40723
3857.49,0.40930
3851.7,0.41207
3845.92,0.41337
3840.13,0.41464
3834.35,0.41607
3828.56,0.41609
3822.77,0.41571
3816.99,0.41560
3811.2,0.41554
3805.41,0.41417
3799.63,0.41342
3793.84,0.41311
3788.06,0.41177
3782.27,0.41053
3776.48,0.40858
3770.7,0.40661
3764.91,0.40376
3759.12,0.40154
3753.34,0.39774
3747.55,0.39282
3741.77,0.38729
3735.98,0.38082
3730.19,0.37271
3724.41,0.36096
3718.62,0.34306
3712.83,0.31781
3707.05,0.28122
3701.26,0.23451
3695.48,0.20282
3689.69,0.21416
3683.9,0.23131
3678.12,0.23093
3672.33,0.21250
3666.54,0.19700
3660.76,0.18434
3654.97,0.16395
3649.19,0.15306
3643.4,0.14401
3637.61,0.13394
3631.83,0.12213
3626.04,0.10713
3620.25,0.09453
3614.47,0.09616
3608.68,0.09341
3602.9,0.08958
3597.11,0.08632
3591.32,0.08271
3585.54,0.07962
3579.75,0.07570
3573.97,0.07156
3568.18,0.06843
3562.39,0.06468
3556.61,0.06222
3550.82,0.06026
3545.03,0.05881
3539.25,0.05732
3533.46,0.05615
3527.68,0.05423
3521.89,0.05342
3516.1,0.05132
3510.32,0.05051
3504.53,0.04915
3498.74,0.04823
3492.96,0.04736
3487.17,0.04626
3481.39,0.04543
3475.6,0.04501
3469.81,0.04420
3464.03,0.04329
3458.24,0.04293
3452.45,0.04235
3446.67,0.04217
3440.88,0.04219
3435.1,0.04170
3429.31,0.04157
3423.52,0.04145
3417.74,0.04148
3411.95,0.04150
3406.16,0.04095
3400.38,0.04149
3394.59,0.04172
3388.81,0.04173
3383.02,0.04180
3377.23,0.04149
3371.45,0.04184
3365.66,0.04190
3359.87,0.04199
3354.09,0.04310
3348.3,0.04234
3342.52,0.04384
3336.73,0.04449
3330.94,0.04499
3325.16,0.04640
3319.37,0.04667
3313.58,0.04693
3307.8,0.04727
3302.01,0.04815
3296.23,0.04832
3290.44,0.04837
3284.65,0.04966
3278.87,0.04988
3273.08,0.05121
3267.29,0.05272
3261.51,0.05359
3255.72,0.05389
3249.94,0.05464
3244.15,0.05701
3238.36,0.05768
3232.58,0.05829
3226.79,0.05881
3221,0.06023
3215.22,0.06182
3209.43,0.06281
3203.65,0.06429
3197.86,0.06572
3192.07,0.06692
3186.29,0.06820
3180.5,0.06946
3174.71,0.07109
3168.93,0.07290
3163.14,0.07334
3157.36,0.07491
3151.57,0.07688
3145.78,0.07876
3140,0.08020
3134.21,0.08184
3128.42,0.08410
3122.64,0.08616
3116.85,0.08661
3111.07,0.08870
3105.28,0.09094
3099.49,0.09262
3093.71,0.09447
3087.92,0.09678
3082.14,0.09793
3076.35,0.09998
3070.56,0.10190
3064.78,0.10370
3058.99,0.10560
3053.2,0.10748
3047.42,0.10989
3041.63,0.11103
3035.85,0.11273
3030.06,0.11368
3024.27,0.11486
3018.49,0.11521
3012.7,0.11605
3006.91,0.11576
3001.13,0.11491
2995.34,0.11390
2989.56,0.11043
2983.77,0.10667
2977.98,0.10164
2972.2,0.09370
2966.41,0.08843
2960.62,0.08654
2954.84,0.08291
2949.05,0.07892
2943.27,0.07599
2937.48,0.07376
2931.69,0.07148
2925.91,0.06922
2920.12,0.06640
2914.33,0.06687
2908.55,0.06898
2902.76,0.07018
2896.98,0.07206
2891.19,0.07458
2885.4,0.07636
2879.62,0.07852
2873.83,0.07991
2868.04,0.08176
2862.26,0.08357
2856.47,0.08388
2850.69,0.08274
2844.9,0.09146
2839.11,0.10124
2833.33,0.10751
2827.54,0.11340
2821.75,0.11836
2815.97,0.12304
2810.18,0.12755
2804.4,0.13034
2798.61,0.13385
2792.82,0.13647
2787.04,0.13865
2781.25,0.13987
2775.46,0.14127
2769.68,0.14186
2763.89,0.14304
2758.11,0.14411
2752.32,0.14471
2746.53,0.14531
2740.75,0.14590
2734.96,0.14697
2729.17,0.14834
2723.39,0.14967
2717.6,0.15114
2711.82,0.15322
2706.03,0.15556
2700.24,0.15848
2694.46,0.16059
2688.67,0.16322
2682.88,0.16545
2677.1,0.16709
2671.31,0.16914
2665.53,0.17047
2659.74,0.17217
2653.95,0.17389
2648.17,0.17576
2642.38,0.17784
2636.59,0.17968
2630.81,0.18146
2625.02,0.18334
2619.24,0.18524
2613.45,0.18654
2607.66,0.18804
2601.88,0.18930
2596.09,0.19114
2590.3,0.19220
2584.52,0.19329
2578.73,0.19413
2572.95,0.19495
2567.16,0.19605
2561.37,0.19553
2555.59,0.19579
2549.8,0.19577
2544.02,0.19592
2538.23,0.19585
2532.44,0.19536
2526.66,0.19463
2520.87,0.19451
2515.08,0.19517
2509.3,0.19710
2503.51,0.20204
2497.73,0.20753
2491.94,0.21241
2486.15,0.21649
2480.37,0.22029
2474.58,0.22375
2468.79,0.22703
2463.01,0.22975
2457.22,0.23197
2451.44,0.23482
2445.65,0.23780
2439.86,0.24073
2434.08,0.24367
2428.29,0.24670
2422.5,0.24983
2416.72,0.25269
2410.93,0.25557
2405.15,0.25861
2399.36,0.26142
2393.57,0.26319
2387.79,0.26537
2382,0.26780
2376.21,0.27023
2370.43,0.27268
2364.64,0.27427
2358.86,0.27573
2353.07,0.27741
2347.28,0.27852
2341.5,0.28012
2335.71,0.28156
2329.92,0.28309
2324.14,0.28389
2318.35,0.28524
2312.57,0.28646
2306.78,0.28649
2300.99,0.28628
2295.21,0.28613
2289.42,0.28562
2283.63,0.28536
2277.85,0.28513
2272.06,0.28419
2266.28,0.28242
2260.49,0.28075
2254.7,0.27844
2248.92,0.27767
2243.13,0.27639
2237.34,0.27526
2231.56,0.27476
2225.77,0.27437
2219.99,0.27500
2214.2,0.27522
2208.41,0.27579
2202.63,0.27507
2196.84,0.27417
2191.05,0.27275
2185.27,0.27025
2179.48,0.26672
2173.7,0.26279
2167.91,0.25885
2162.12,0.25539
2156.34,0.25268
2150.55,0.25029
2144.76,0.24806
2138.98,0.24639
2133.19,0.24620
2127.41,0.24788
2121.62,0.25055
2115.83,0.25310
2110.05,0.25551
2104.26,0.25706
2098.47,0.25852
2092.69,0.25999
2086.9,0.26144
2081.12,0.26252
2075.33,0.26289
2069.54,0.26213
2063.76,0.26180
2057.97,0.26224
2052.19,0.26253
2046.4,0.26299
2040.61,0.26460
2034.83,0.26700
2029.04,0.27014
2023.25,0.27363
2017.47,0.27671
2011.68,0.27936
2005.9,0.28147
2000.11,0.28249
1994.32,0.28412
1988.54,0.28594
1982.75,0.28739
1976.96,0.28772
1971.18,0.28815
1965.39,0.28774
1959.61,0.28828
1953.82,0.28908
1948.03,0.29048
1942.25,0.29205
1936.46,0.29338
1930.67,0.29426
1924.89,0.29454
1919.1,0.29503
1913.32,0.29531
1907.53,0.29517
1901.74,0.29505
1895.96,0.29451
1890.17,0.29398
1884.38,0.29289
1878.6,0.29189
1872.81,0.29050
1867.03,0.28881
1861.24,0.28676
1855.45,0.28416
1849.67,0.28095
1843.88,0.27715
1838.09,0.27215
1832.31,0.26683
1826.52,0.25988
1820.74,0.25126
1814.95,0.24081
1809.16,0.22658
1803.38,0.20649
1797.59,0.18235
1791.8,0.16816
1786.02,0.15883
1780.23,0.14654
1774.45,0.13497
1768.66,0.12376
1762.87,0.11368
1757.09,0.10425
1751.3,0.09542
1745.51,0.08779
1739.73,0.08238
1733.94,0.07981
1728.16,0.07792
1722.37,0.07690
1716.58,0.07703
1710.8,0.07806
1705.01,0.07915
1699.22,0.08052
1693.44,0.08013
1687.65,0.07929
1681.87,0.07769
1676.08,0.07572
1670.29,0.07361
1664.51,0.07196
1658.72,0.07016
1652.93,0.06963
1647.15,0.06925
1641.36,0.06879
1635.58,0.06800
1629.79,0.06701
1624,0.06548
1618.22,0.06505
1612.43,0.06602
1606.64,0.06695
1600.86,0.06838
1595.07,0.07021
1589.29,0.07343
1583.5,0.07789
1577.71,0.08286
1571.93,0.08844
1566.14,0.09333
1560.35,0.09741
1554.57,0.10019
1548.78,0.10177
1543,0.10152
1537.21,0.09918
1531.42,0.09497
1525.64,0.08864
1519.85,0.08096
1514.07,0.07516
1508.28,0.07392
1502.49,0.07273
1496.71,0.07201
1490.92,0.07004
1485.13,0.06634
1479.35,0.06222
1473.56,0.05805
1467.78,0.05477
1461.99,0.05253
1456.2,0.05211
1450.42,0.05214
1444.63,0.05191
1438.84,0.05102
1433.06,0.05061
1427.27,0.05160
1421.49,0.05391
1415.7,0.05656
1409.91,0.05797
1404.13,0.05858
1398.34,0.05865
1392.55,0.05812
1386.77,0.05660
1380.98,0.05345
1375.2,0.05220
1369.41,0.05247
1363.62,0.05356
1357.84,0.05443
1352.05,0.05514
1346.26,0.05538
1340.48,0.05375
1334.69,0.05283
1328.91,0.05325
1323.12,0.05235
1317.33,0.05248
1311.55,0.05429
1305.76,0.05637
1299.97,0.05740
1294.19,0.05666
1288.4,0.05507
1282.62,0.05366
1276.83,0.05484
1271.04,0.05516
1265.26,0.05624
1259.47,0.05625
1253.68,0.05602
1247.9,0.05571
1242.11,0.05605
1236.33,0.05622
1230.54,0.05674
1224.75,0.05771
1218.97,0.05709
1213.18,0.05565
1207.39,0.05363
1201.61,0.05363
1195.82,0.05416
1190.04,0.05315
1184.25,0.05088
1178.46,0.04808
1172.68,0.04733
1166.89,0.04944
1161.1,0.05458
1155.32,0.05601
1149.53,0.05526
1143.75,0.05309
1137.96,0.04955
1132.17,0.04641
1126.39,0.04551
1120.6,0.04592
1114.81,0.04815
1109.03,0.05048
1103.24,0.05064
1097.46,0.05034
1091.67,0.05036
1085.88,0.05025
1080.1,0.05014
1074.31,0.05256
1068.52,0.05600
1062.74,0.06427
1056.95,0.06841
1051.17,0.06842
1045.38,0.06600
1039.59,0.06740
1033.81,0.07387
1028.02,0.07537
1022.24,0.07454
1016.45,0.07433
1010.66,0.07553
1004.88,0.07632
999.09,0.07849
993.304,0.08119
987.518,0.08456
981.731,0.09144
975.945,0.09698
970.159,0.10001
964.373,0.10493
958.586,0.11083
952.8,0.11528
947.014,0.11563
941.228,0.11288
935.441,0.11238
929.655,0.11266
923.869,0.11089
918.083,0.10810
912.297,0.10615
906.51,0.10547
900.724,0.10311
894.938,0.10573
889.152,0.11258
883.365,0.11256
877.579,0.10471
871.793,0.10379
866.007,0.11878
860.22,0.12061
854.434,0.11919
848.648,0.12030
842.862,0.12040
837.075,0.11931
831.289,0.11660
825.503,0.11432
819.717,0.10950
813.931,0.10627
808.144,0.10436
802.358,0.10264
796.572,0.09972
790.786,0.09718
784.999,0.09417
779.213,0.09278
773.427,0.09035
767.641,0.08780
761.854,0.08600
756.068,0.08436
750.282,0.08329
744.496,0.08166
738.709,0.07876
732.923,0.07623
727.137,0.07230
721.351,0.06982
715.565,0.06699
709.778,0.06567
703.992,0.06495
698.206,0.06453
692.42,0.06566
686.633,0.06611
680.847,0.06273
675.061,0.06084
669.275,0.06120
663.488,0.06106
657.702,0.06315
651.916,0.06240
646.13,0.06170
640.343,0.06033
634.557,0.05783
628.771,0.05641
622.985,0.05665
617.198,0.06239
611.412,0.05834
605.626,0.06139
599.84,0.06441