File: 01_Data/Homasote/FTIR/IS/Homasote_IS_S_221031_R8.dpt
7497.03,0.58578
7491.25,0.59292
7485.46,0.58019
7479.67,0.57003
7473.89,0.57967
7468.1,0.58947
7462.32,0.58146
7456.53,0.57884
7450.74,0.58389
7444.96,0.59158
7439.17,0.58186
7433.38,0.58179
7427.6,0.57158
7421.81,0.59222
7416.03,0.58320
7410.24,0.58039
7404.45,0.58092
7398.67,0.57646
7392.88,0.58574
7387.09,0.57628
7381.31,0.58608
7375.52,0.58383
7369.74,0.58471
7363.95,0.57564
7358.16,0.58522
7352.38,0.58054
7346.59,0.58709
7340.8,0.58267
7335.02,0.57605
7329.23,0.57806
7323.45,0.56963
7317.66,0.56916
7311.87,0.57481
7306.09,0.58630
7300.3,0.57013
7294.51,0.57827
7288.73,0.57637
7282.94,0.57451
7277.16,0.57967
7271.37,0.58266
7265.58,0.57498
7259.8,0.56634
7254.01,0.58134
7248.22,0.57547
7242.44,0.58111
7236.65,0.57175
7230.87,0.58188
7225.08,0.58650
7219.29,0.58348
7213.51,0.58603
7207.72,0.57849
7201.93,0.57276
7196.15,0.56865
7190.36,0.57201
7184.58,0.57681
7178.79,0.57867
7173,0.57753
7167.22,0.56823
7161.43,0.57288
7155.65,0.57204
7149.86,0.57700
7144.07,0.57121
7138.29,0.57810
7132.5,0.57762
7126.71,0.57421
7120.93,0.56977
7115.14,0.57354
7109.36,0.57256
7103.57,0.56129
7097.78,0.57424
7092,0.57029
7086.21,0.56981
7080.42,0.56384
7074.64,0.56376
7068.85,0.56389
7063.07,0.56947
7057.28,0.56377
7051.49,0.57092
7045.71,0.56488
7039.92,0.56633
7034.13,0.56025
7028.35,0.55190
7022.56,0.55874
7016.78,0.55847
7010.99,0.56325
7005.2,0.56460
6999.42,0.55840
6993.63,0.55472
6987.84,0.55432
6982.06,0.55304
6976.27,0.55097
6970.49,0.55461
6964.7,0.55407
6958.91,0.54893
6953.13,0.54954
6947.34,0.55023
6941.55,0.55408
6935.77,0.55526
6929.98,0.55410
6924.2,0.55215
6918.41,0.55437
6912.62,0.55777
6906.84,0.55632
6901.05,0.54722
6895.26,0.54907
6889.48,0.54640
6883.69,0.55154
6877.91,0.54984
6872.12,0.54612
6866.33,0.55472
6860.55,0.55279
6854.76,0.54475
6848.97,0.54696
6843.19,0.54628
6837.4,0.54817
6831.62,0.54760
6825.83,0.54179
6820.04,0.54739
6814.26,0.54727
6808.47,0.54691
6802.68,0.54682
6796.9,0.54475
6791.11,0.54305
6785.33,0.55059
6779.54,0.54606
6773.75,0.54190
6767.97,0.54310
6762.18,0.54069
6756.39,0.54223
6750.61,0.54346
6744.82,0.54396
6739.04,0.54520
6733.25,0.55040
6727.46,0.54228
6721.68,0.54465
6715.89,0.54875
6710.1,0.54796
6704.32,0.54042
6698.53,0.54418
6692.75,0.54264
6686.96,0.54291
6681.17,0.54942
6675.39,0.54762
6669.6,0.54526
6663.82,0.54417
6658.03,0.54906
6652.24,0.54518
6646.46,0.54443
6640.67,0.54845
6634.88,0.54176
6629.1,0.54803
6623.31,0.54753
6617.53,0.55132
6611.74,0.54837
6605.95,0.55065
6600.17,0.55162
6594.38,0.54889
6588.59,0.55296
6582.81,0.54936
6577.02,0.54982
6571.24,0.55216
6565.45,0.55256
6559.66,0.55243
6553.88,0.54814
6548.09,0.55383
6542.3,0.55012
6536.52,0.54926
6530.73,0.55244
6524.95,0.55184
6519.16,0.55053
6513.37,0.55565
6507.59,0.55524
6501.8,0.55035
6496.01,0.55539
6490.23,0.55154
6484.44,0.55513
6478.66,0.55270
6472.87,0.55443
6467.08,0.55843
6461.3,0.55317
6455.51,0.56002
6449.72,0.55623
6443.94,0.55329
6438.15,0.55677
6432.37,0.55394
6426.58,0.55626
6420.79,0.55782
6415.01,0.55370
6409.22,0.55220
6403.43,0.55127
6397.65,0.55596
6391.86,0.55522
6386.08,0.55514
6380.29,0.55535
6374.5,0.55575
6368.72,0.55462
6362.93,0.55366
6357.14,0.55739
6351.36,0.55451
6345.57,0.55648
6339.79,0.55543
6334,0.55483
6328.21,0.55876
6322.43,0.55670
6316.64,0.55634
6310.85,0.55626
6305.07,0.55733
6299.28,0.55936
6293.5,0.56170
6287.71,0.55901
6281.92,0.56070
6276.14,0.55652
6270.35,0.55794
6264.56,0.55989
6258.78,0.56060
6252.99,0.56088
6247.21,0.56225
6241.42,0.56358
6235.63,0.56504
6229.85,0.56486
6224.06,0.56314
6218.27,0.56552
6212.49,0.56402
6206.7,0.55881
6200.92,0.56334
6195.13,0.56383
6189.34,0.56401
6183.56,0.56596
6177.77,0.56583
6171.98,0.56763
6166.2,0.56889
6160.41,0.56771
6154.63,0.56692
6148.84,0.56709
6143.05,0.57115
6137.27,0.56975
6131.48,0.56624
6125.7,0.57010
6119.91,0.56971
6114.12,0.56918
6108.34,0.56977
6102.55,0.57275
6096.76,0.57232
6090.98,0.57011
6085.19,0.57293
6079.41,0.57202
6073.62,0.56931
6067.83,0.57229
6062.05,0.57160
6056.26,0.57286
6050.47,0.57461
6044.69,0.57198
6038.9,0.57288
6033.12,0.56983
6027.33,0.57138
6021.54,0.57231
6015.76,0.57320
6009.97,0.57464
6004.18,0.57331
5998.4,0.57403
5992.61,0.57238
5986.83,0.57253
5981.04,0.57468
5975.25,0.57420
5969.47,0.57115
5963.68,0.57259
5957.89,0.57292
5952.11,0.57292
5946.32,0.57224
5940.54,0.57147
5934.75,0.57358
5928.96,0.57192
5923.18,0.57295
5917.39,0.57239
5911.6,0.57153
5905.82,0.57038
5900.03,0.57160
5894.25,0.57135
5888.46,0.57144
5882.67,0.56761
5876.89,0.56872
5871.1,0.57001
5865.31,0.56815
5859.53,0.56954
5853.74,0.57122
5847.96,0.56972
5842.17,0.56947
5836.38,0.56956
5830.6,0.56786
5824.81,0.56797
5819.02,0.56763
5813.24,0.56682
5807.45,0.56656
5801.67,0.56773
5795.88,0.56746
5790.09,0.56631
5784.31,0.56765
5778.52,0.56849
5772.73,0.56680
5766.95,0.56749
5761.16,0.56757
5755.38,0.56751
5749.59,0.56778
5743.8,0.56641
5738.02,0.56597
5732.23,0.56699
5726.44,0.56733
5720.66,0.56809
5714.87,0.56606
5709.09,0.56930
5703.3,0.56890
5697.51,0.56729
5691.73,0.56512
5685.94,0.56651
5680.15,0.56784
5674.37,0.56765
5668.58,0.56875
5662.8,0.56906
5657.01,0.56710
5651.22,0.56800
5645.44,0.56665
5639.65,0.56638
5633.87,0.56731
5628.08,0.56955
5622.29,0.56805
5616.51,0.56834
5610.72,0.56743
5604.93,0.56767
5599.15,0.56698
5593.36,0.56935
5587.58,0.56799
5581.79,0.56858
5576,0.56889
5570.22,0.56906
5564.43,0.57066
5558.64,0.56812
5552.86,0.57028
5547.07,0.57132
5541.29,0.57012
5535.5,0.57028
5529.71,0.57007
5523.93,0.56956
5518.14,0.56982
5512.35,0.56848
5506.57,0.57061
5500.78,0.57129
5495,0.56975
5489.21,0.57053
5483.42,0.57194
5477.64,0.56952
5471.85,0.57223
5466.06,0.57126
5460.28,0.57126
5454.49,0.57132
5448.71,0.57219
5442.92,0.57200
5437.13,0.57197
5431.35,0.57181
5425.56,0.57451
5419.77,0.57437
5413.99,0.57323
5408.2,0.57552
5402.42,0.57515
5396.63,0.57323
5390.84,0.57510
5385.06,0.57401
5379.27,0.57656
5373.48,0.57669
5367.7,0.57497
5361.91,0.57441
5356.13,0.57346
5350.34,0.57389
5344.55,0.57361
5338.77,0.57393
5332.98,0.57262
5327.19,0.57328
5321.41,0.57207
5315.62,0.57026
5309.84,0.56872
5304.05,0.56589
5298.26,0.56522
5292.48,0.56334
5286.69,0.55935
5280.9,0.55673
5275.12,0.55291
5269.33,0.54754
5263.55,0.54200
5257.76,0.53933
5251.97,0.53434
5246.19,0.52881
5240.4,0.52451
5234.61,0.51887
5228.83,0.51528
5223.04,0.51152
5217.26,0.50850
5211.47,0.50472
5205.68,0.50515
5199.9,0.50470
5194.11,0.50459
5188.32,0.50490
5182.54,0.50682
5176.75,0.50840
5170.97,0.50879
5165.18,0.50859
5159.39,0.51154
5153.61,0.51264
5147.82,0.51339
5142.03,0.51488
5136.25,0.51612
5130.46,0.51807
5124.68,0.51931
5118.89,0.52084
5113.1,0.52194
5107.32,0.52352
5101.53,0.52600
5095.75,0.52852
5089.96,0.52846
5084.17,0.53038
5078.39,0.53224
5072.6,0.53261
5066.81,0.53384
5061.03,0.53411
5055.24,0.53609
5049.46,0.53736
5043.67,0.53754
5037.88,0.53877
5032.1,0.54071
5026.31,0.54090
5020.52,0.54261
5014.74,0.54207
5008.95,0.54342
5003.17,0.54410
4997.38,0.54514
4991.59,0.54631
4985.81,0.54581
4980.02,0.54427
4974.23,0.54518
4968.45,0.54347
4962.66,0.54388
4956.88,0.54144
4951.09,0.54078
4945.3,0.53834
4939.52,0.53727
4933.73,0.53583
4927.94,0.53298
4922.16,0.53078
4916.37,0.52879
4910.59,0.52645
4904.8,0.52325
4899.01,0.52075
4893.23,0.51754
4887.44,0.51434
4881.65,0.51137
4875.87,0.50818
4870.08,0.50462
4864.3,0.50216
4858.51,0.49939
4852.72,0.49592
4846.94,0.49411
4841.15,0.49113
4835.36,0.48741
4829.58,0.48493
4823.79,0.48367
4818.01,0.48000
4812.22,0.47844
4806.43,0.47741
4800.65,0.47589
4794.86,0.47316
4789.07,0.47289
4783.29,0.47203
4777.5,0.46974
4771.72,0.46845
4765.93,0.46855
4760.14,0.46715
4754.36,0.46639
4748.57,0.46802
4742.78,0.46575
4737,0.46625
4731.21,0.46776
4725.43,0.46811
4719.64,0.46826
4713.85,0.47020
4708.07,0.47004
4702.28,0.47164
4696.49,0.47323
4690.71,0.47475
4684.92,0.47518
4679.14,0.47544
4673.35,0.47753
4667.56,0.47916
4661.78,0.48040
4655.99,0.48123
4650.2,0.48277
4644.42,0.48451
4638.63,0.48600
4632.85,0.48692
4627.06,0.48830
4621.27,0.49047
4615.49,0.49087
4609.7,0.49265
4603.92,0.49359
4598.13,0.49588
4592.34,0.49708
4586.56,0.49773
4580.77,0.50080
4574.98,0.50089
4569.2,0.50147
4563.41,0.50286
4557.63,0.50370
4551.84,0.50501
4546.05,0.50502
4540.27,0.50670
4534.48,0.50675
4528.69,0.50477
4522.91,0.50648
4517.12,0.50948
4511.34,0.51089
4505.55,0.51149
4499.76,0.51142
4493.98,0.51016
4488.19,0.51072
4482.4,0.50952
4476.62,0.50733
4470.83,0.50518
4465.05,0.50225
4459.26,0.49986
4453.47,0.49648
4447.69,0.49348
4441.9,0.48881
4436.11,0.48412
4430.33,0.47945
4424.54,0.47463
4418.76,0.47002
4412.97,0.46489
4407.18,0.45987
4401.4,0.45698
4395.61,0.45596
4389.82,0.45655
4384.04,0.45840
4378.25,0.45860
4372.47,0.45933
4366.68,0.46077
4360.89,0.46040
4355.11,0.45993
4349.32,0.45771
4343.53,0.45615
4337.75,0.45316
4331.96,0.45139
4326.18,0.44694
4320.39,0.44387
4314.6,0.44466
4308.82,0.44403
4303.03,0.44244
4297.24,0.44044
4291.46,0.43969
4285.67,0.43663
4279.89,0.43610
4274.1,0.43528
4268.31,0.43650
4262.53,0.43655
4256.74,0.43648
4250.95,0.43650
4245.17,0.43800
4239.38,0.44011
4233.6,0.44175
4227.81,0.44195
4222.02,0.44178
4216.24,0.44219
4210.45,0.44194
4204.66,0.44273
4198.88,0.44383
4193.09,0.44393
4187.31,0.44334
4181.52,0.44340
4175.73,0.44407
4169.95,0.44522
4164.16,0.44533
4158.37,0.44442
4152.59,0.44257
4146.8,0.44127
4141.02,0.43866
4135.23,0.43746
4129.44,0.43510
4123.66,0.43238
4117.87,0.42881
4112.09,0.42458
4106.3,0.42016
4100.51,0.41559
4094.73,0.41049
4088.94,0.40547
4083.15,0.40083
4077.37,0.39528
4071.58,0.39094
4065.8,0.38584
4060.01,0.38007
4054.22,0.37477
4048.44,0.36876
4042.65,0.36407
4036.86,0.36051
4031.08,0.35678
4025.29,0.35400
4019.51,0.35306
4013.72,0.35363
4007.93,0.35424
4002.15,0.35614
3996.36,0.35782
3990.57,0.36051
3984.79,0.36127
3979,0.36299
3973.22,0.36509
3967.43,0.36735
3961.64,0.36892
3955.86,0.37123
3950.07,0.37279
3944.28,0.37654
3938.5,0.37876
3932.71,0.38165
3926.93,0.38392
3921.14,0.38739
3915.35,0.38885
3909.57,0.39137
3903.78,0.39245
3897.99,0.39514
3892.21,0.39700
3886.42,0.39935
3880.64,0.40082
3874.85,0.40259
3869.06,0.40491
3863.28,0.40772
3857.49,0.40994
3851.7,0.41201
3845.92,0.41421
3840.13,0.41489
3834.35,0.41624
3828.56,0.41711
3822.77,0.41663
3816.99,0.41601
3811.2,0.41522
3805.41,0.41475
3799.63,0.41387
3793.84,0.41384
3788.06,0.41242
3782.27,0.41046
3776.48,0.40928
3770.7,0.40688
3764.91,0.40450
3759.12,0.40175
3753.34,0.39826
3747.55,0.39321
3741.77,0.38801
3735.98,0.38146
3730.19,0.37245
3724.41,0.36134
3718.62,0.34387
3712.83,0.31854
3707.05,0.28183
3701.26,0.23490
3695.48,0.20374
3689.69,0.21360
3683.9,0.23180
3678.12,0.23097
3672.33,0.21385
3666.54,0.19702
3660.76,0.18557
3654.97,0.16533
3649.19,0.15302
3643.4,0.14476
3637.61,0.13505
3631.83,0.12308
3626.04,0.10831
3620.25,0.09523
3614.47,0.09682
3608.68,0.09360
3602.9,0.08972
3597.11,0.08680
3591.32,0.08340
3585.54,0.08011
3579.75,0.07615
3573.97,0.07241
3568.18,0.06818
3562.39,0.06484
3556.61,0.06256
3550.82,0.06040
3545.03,0.05820
3539.25,0.05730
3533.46,0.05576
3527.68,0.05469
3521.89,0.05281
3516.1,0.05153
3510.32,0.05053
3504.53,0.04927
3498.74,0.04877
3492.96,0.04707
3487.17,0.04606
3481.39,0.04583
3475.6,0.04443
3469.81,0.04388
3464.03,0.04386
3458.24,0.04335
3452.45,0.04274
3446.67,0.04183
3440.88,0.04238
3435.1,0.04188
3429.31,0.04173
3423.52,0.04149
3417.74,0.04138
3411.95,0.04124
3406.16,0.04158
3400.38,0.04088
3394.59,0.04156
3388.81,0.04128
3383.02,0.04190
3377.23,0.04162
3371.45,0.04136
3365.66,0.04206
3359.87,0.04231
3354.09,0.04371
3348.3,0.04301
3342.52,0.04395
3336.73,0.04467
3330.94,0.04605
3325.16,0.04701
3319.37,0.04725
3313.58,0.04676
3307.8,0.04751
3302.01,0.04826
3296.23,0.04773
3290.44,0.04869
3284.65,0.04968
3278.87,0.05048
3273.08,0.05066
3267.29,0.05195
3261.51,0.05267
3255.72,0.05407
3249.94,0.05570
3244.15,0.05626
3238.36,0.05706
3232.58,0.05873
3226.79,0.05935
3221,0.06057
3215.22,0.06221
3209.43,0.06283
3203.65,0.06377
3197.86,0.06602
3192.07,0.06728
3186.29,0.06877
3180.5,0.06932
3174.71,0.07163
3168.93,0.07286
3163.14,0.07393
3157.36,0.07546
3151.57,0.07773
3145.78,0.07862
3140,0.08032
3134.21,0.08197
3128.42,0.08425
3122.64,0.08569
3116.85,0.08754
3111.07,0.08901
3105.28,0.09125
3099.49,0.09270
3093.71,0.09521
3087.92,0.09658
3082.14,0.09837
3076.35,0.10041
3070.56,0.10164
3064.78,0.10401
3058.99,0.10610
3053.2,0.10793
3047.42,0.10979
3041.63,0.11158
3035.85,0.11316
3030.06,0.11477
3024.27,0.11477
3018.49,0.11550
3012.7,0.11566
3006.91,0.11602
3001.13,0.11531
2995.34,0.11366
2989.56,0.11166
2983.77,0.10741
2977.98,0.10132
2972.2,0.09371
2966.41,0.08891
2960.62,0.08632
2954.84,0.08302
2949.05,0.07919
2943.27,0.07623
2937.48,0.07448
2931.69,0.07168
2925.91,0.06909
2920.12,0.06668
2914.33,0.06650
2908.55,0.06903
2902.76,0.06977
2896.98,0.07201
2891.19,0.07374
2885.4,0.07665
2879.62,0.07811
2873.83,0.07966
2868.04,0.08199
2862.26,0.08324
2856.47,0.08386
2850.69,0.08260
2844.9,0.09167
2839.11,0.10148
2833.33,0.10810
2827.54,0.11377
2821.75,0.11852
2815.97,0.12344
2810.18,0.12749
2804.4,0.13089
2798.61,0.13404
2792.82,0.13678
2787.04,0.13849
2781.25,0.13996
2775.46,0.14148
2769.68,0.14267
2763.89,0.14355
2758.11,0.14452
2752.32,0.14557
2746.53,0.14553
2740.75,0.14588
2734.96,0.14680
2729.17,0.14823
2723.39,0.14974
2717.6,0.15149
2711.82,0.15356
2706.03,0.15581
2700.24,0.15848
2694.46,0.16132
2688.67,0.16366
2682.88,0.16561
2677.1,0.16750
2671.31,0.16977
2665.53,0.17108
2659.74,0.17238
2653.95,0.17395
2648.17,0.17564
2642.38,0.17776
2636.59,0.17971
2630.81,0.18159
2625.02,0.18327
2619.24,0.18536
2613.45,0.18680
2607.66,0.18850
2601.88,0.18985
2596.09,0.19137
2590.3,0.19262
2584.52,0.19378
2578.73,0.19488
2572.95,0.19546
2567.16,0.19547
2561.37,0.19573
2555.59,0.19606
2549.8,0.19599
2544.02,0.19606
2538.23,0.19610
2532.44,0.19596
2526.66,0.19516
2520.87,0.19493
2515.08,0.19530
2509.3,0.19761
2503.51,0.20231
2497.73,0.20744
2491.94,0.21307
2486.15,0.21702
2480.37,0.22086
2474.58,0.22404
2468.79,0.22754
2463.01,0.23002
2457.22,0.23265
2451.44,0.23546
2445.65,0.23797
2439.86,0.24117
2434.08,0.24419
2428.29,0.24727
2422.5,0.25006
2416.72,0.25327
2410.93,0.25633
2405.15,0.25891
2399.36,0.26155
2393.57,0.26394
2387.79,0.26628
2382,0.26797
2376.21,0.27040
2370.43,0.27208
2364.64,0.27378
2358.86,0.27543
2353.07,0.27724
2347.28,0.27866
2341.5,0.28041
2335.71,0.28135
2329.92,0.28291
2324.14,0.28415
2318.35,0.28541
2312.57,0.28640
2306.78,0.28722
2300.99,0.28681
2295.21,0.28638
2289.42,0.28617
2283.63,0.28632
2277.85,0.28622
2272.06,0.28474
2266.28,0.28295
2260.49,0.28095
2254.7,0.27950
2248.92,0.27866
2243.13,0.27761
2237.34,0.27607
2231.56,0.27537
2225.77,0.27484
2219.99,0.27546
2214.2,0.27608
2208.41,0.27614
2202.63,0.27595
2196.84,0.27465
2191.05,0.27305
2185.27,0.27071
2179.48,0.26708
2173.7,0.26341
2167.91,0.25960
2162.12,0.25630
2156.34,0.25363
2150.55,0.25095
2144.76,0.24877
2138.98,0.24701
2133.19,0.24638
2127.41,0.24844
2121.62,0.25089
2115.83,0.25371
2110.05,0.25596
2104.26,0.25759
2098.47,0.25934
2092.69,0.26053
2086.9,0.26181
2081.12,0.26309
2075.33,0.26325
2069.54,0.26298
2063.76,0.26275
2057.97,0.26313
2052.19,0.26315
2046.4,0.26393
2040.61,0.26506
2034.83,0.26758
2029.04,0.27071
2023.25,0.27439
2017.47,0.27719
2011.68,0.28001
2005.9,0.28241
2000.11,0.28363
1994.32,0.28492
1988.54,0.28671
1982.75,0.28820
1976.96,0.28835
1971.18,0.28904
1965.39,0.28923
1959.61,0.28924
1953.82,0.29013
1948.03,0.29114
1942.25,0.29234
1936.46,0.29405
1930.67,0.29489
1924.89,0.29495
1919.1,0.29574
1913.32,0.29582
1907.53,0.29591
1901.74,0.29572
1895.96,0.29534
1890.17,0.29491
1884.38,0.29384
1878.6,0.29267
1872.81,0.29079
1867.03,0.28949
1861.24,0.28764
1855.45,0.28486
1849.67,0.28163
1843.88,0.27758
1838.09,0.27311
1832.31,0.26773
1826.52,0.26048
1820.74,0.25174
1814.95,0.24126
1809.16,0.22685
1803.38,0.20656
1797.59,0.18258
1791.8,0.16810
1786.02,0.15903
1780.23,0.14681
1774.45,0.13519
1768.66,0.12389
1762.87,0.11419
1757.09,0.10407
1751.3,0.09545
1745.51,0.08793
1739.73,0.08248
1733.94,0.07965
1728.16,0.07762
1722.37,0.07714
1716.58,0.07737
1710.8,0.07800
1705.01,0.07971
1699.22,0.08059
1693.44,0.08072
1687.65,0.07958
1681.87,0.07739
1676.08,0.07565
1670.29,0.07378
1664.51,0.07218
1658.72,0.07077
1652.93,0.06974
1647.15,0.06923
1641.36,0.06871
1635.58,0.06796
1629.79,0.06686
1624,0.06569
1618.22,0.06545
1612.43,0.06583
1606.64,0.06684
1600.86,0.06792
1595.07,0.07032
1589.29,0.07349
1583.5,0.07791
1577.71,0.08329
1571.93,0.08900
1566.14,0.09322
1560.35,0.09748
1554.57,0.10023
1548.78,0.10177
1543,0.10156
1537.21,0.09930
1531.42,0.09497
1525.64,0.08865
1519.85,0.08058
1514.07,0.07506
1508.28,0.07413
1502.49,0.07327
1496.71,0.07238
1490.92,0.06961
1485.13,0.06621
1479.35,0.06222
1473.56,0.05838
1467.78,0.05460
1461.99,0.05280
1456.2,0.05222
1450.42,0.05214
1444.63,0.05221
1438.84,0.05127
1433.06,0.05064
1427.27,0.05138
1421.49,0.05390
1415.7,0.05633
1409.91,0.05850
1404.13,0.05901
1398.34,0.05905
1392.55,0.05843
1386.77,0.05630
1380.98,0.05345
1375.2,0.05198
1369.41,0.05261
1363.62,0.05376
1357.84,0.05430
1352.05,0.05542
1346.26,0.05523
1340.48,0.05374
1334.69,0.05282
1328.91,0.05297
1323.12,0.05225
1317.33,0.05242
1311.55,0.05402
1305.76,0.05663
1299.97,0.05760
1294.19,0.05656
1288.4,0.05512
1282.62,0.05356
1276.83,0.05458
1271.04,0.05533
1265.26,0.05587
1259.47,0.05595
1253.68,0.05583
1247.9,0.05594
1242.11,0.05585
1236.33,0.05602
1230.54,0.05630
1224.75,0.05724
1218.97,0.05685
1213.18,0.05549
1207.39,0.05372
1201.61,0.05337
1195.82,0.05416
1190.04,0.05381
1184.25,0.05117
1178.46,0.04795
1172.68,0.04709
1166.89,0.04926
1161.1,0.05449
1155.32,0.05548
1149.53,0.05503
1143.75,0.05260
1137.96,0.04927
1132.17,0.04628
1126.39,0.04548
1120.6,0.04615
1114.81,0.04778
1109.03,0.05006
1103.24,0.04998
1097.46,0.05020
1091.67,0.04939
1085.88,0.04910
1080.1,0.05049
1074.31,0.05272
1068.52,0.05634
1062.74,0.06448
1056.95,0.06957
1051.17,0.06862
1045.38,0.06610
1039.59,0.06844
1033.81,0.07386
1028.02,0.07479
1022.24,0.07388
1016.45,0.07475
1010.66,0.07590
1004.88,0.07669
999.09,0.07781
993.304,0.08130
987.518,0.08478
981.731,0.09118
975.945,0.09665
970.159,0.10006
964.373,0.10501
958.586,0.11158
952.8,0.11580
947.014,0.11598
941.228,0.11343
935.441,0.11246
929.655,0.11291
923.869,0.11144
918.083,0.10847
912.297,0.10531
906.51,0.10528
900.724,0.10393
894.938,0.10655
889.152,0.11347
883.365,0.11309
877.579,0.10392
871.793,0.10419
866.007,0.11952
860.22,0.12012
854.434,0.11991
848.648,0.12027
842.862,0.12016
837.075,0.11905
831.289,0.11733
825.503,0.11423
819.717,0.11086
813.931,0.10676
808.144,0.10449
802.358,0.10197
796.572,0.09959
790.786,0.09740
784.999,0.09571
779.213,0.09277
773.427,0.09046
767.641,0.08885
761.854,0.08605
756.068,0.08465
750.282,0.08336
744.496,0.08177
738.709,0.07968
732.923,0.07658
727.137,0.07320
721.351,0.06857
715.565,0.06695
709.778,0.06632
703.992,0.06509
698.206,0.06643
692.42,0.06595
686.633,0.06430
680.847,0.06187
675.061,0.06207
669.275,0.06067
663.488,0.06232
657.702,0.06201
651.916,0.06194
646.13,0.06145
640.343,0.06072
634.557,0.05752
628.771,0.05748
622.985,0.05688
617.198,0.05728
611.412,0.06198
605.626,0.06294
599.84,0.06292