File: 01_Data/Homasote/FTIR/IS/Homasote_IS_S_221031_R6.dpt
7497.03,0.59313
7491.25,0.58930
7485.46,0.58154
7479.67,0.58685
7473.89,0.59483
7468.1,0.59397
7462.32,0.59183
7456.53,0.58833
7450.74,0.57803
7444.96,0.58153
7439.17,0.58870
7433.38,0.58430
7427.6,0.58514
7421.81,0.58147
7416.03,0.58324
7410.24,0.58028
7404.45,0.58154
7398.67,0.57853
7392.88,0.57403
7387.09,0.58242
7381.31,0.58294
7375.52,0.58001
7369.74,0.57017
7363.95,0.57932
7358.16,0.58502
7352.38,0.58310
7346.59,0.57982
7340.8,0.58110
7335.02,0.58031
7329.23,0.57119
7323.45,0.56937
7317.66,0.57661
7311.87,0.58453
7306.09,0.57624
7300.3,0.58342
7294.51,0.57761
7288.73,0.59198
7282.94,0.57697
7277.16,0.57515
7271.37,0.58209
7265.58,0.58295
7259.8,0.57255
7254.01,0.57305
7248.22,0.58303
7242.44,0.58876
7236.65,0.58471
7230.87,0.57679
7225.08,0.57703
7219.29,0.57558
7213.51,0.57657
7207.72,0.57355
7201.93,0.56639
7196.15,0.57745
7190.36,0.57132
7184.58,0.57285
7178.79,0.57852
7173,0.57195
7167.22,0.57758
7161.43,0.57098
7155.65,0.57025
7149.86,0.57720
7144.07,0.57807
7138.29,0.57843
7132.5,0.57784
7126.71,0.57101
7120.93,0.57408
7115.14,0.57283
7109.36,0.56716
7103.57,0.56705
7097.78,0.57307
7092,0.57478
7086.21,0.56656
7080.42,0.56768
7074.64,0.56406
7068.85,0.55680
7063.07,0.55914
7057.28,0.56054
7051.49,0.56386
7045.71,0.56611
7039.92,0.56298
7034.13,0.56357
7028.35,0.55969
7022.56,0.56120
7016.78,0.55913
7010.99,0.55834
7005.2,0.55764
6999.42,0.56081
6993.63,0.56078
6987.84,0.55748
6982.06,0.54999
6976.27,0.55810
6970.49,0.55348
6964.7,0.55495
6958.91,0.55521
6953.13,0.55201
6947.34,0.54695
6941.55,0.55899
6935.77,0.54902
6929.98,0.54610
6924.2,0.54683
6918.41,0.54806
6912.62,0.55053
6906.84,0.54850
6901.05,0.55683
6895.26,0.54974
6889.48,0.54885
6883.69,0.54936
6877.91,0.54677
6872.12,0.54019
6866.33,0.54674
6860.55,0.54914
6854.76,0.54722
6848.97,0.54688
6843.19,0.54903
6837.4,0.55211
6831.62,0.54842
6825.83,0.54196
6820.04,0.54257
6814.26,0.53904
6808.47,0.54789
6802.68,0.54849
6796.9,0.54416
6791.11,0.53785
6785.33,0.54340
6779.54,0.54590
6773.75,0.54093
6767.97,0.54819
6762.18,0.54579
6756.39,0.54472
6750.61,0.54330
6744.82,0.54253
6739.04,0.54111
6733.25,0.54343
6727.46,0.54247
6721.68,0.54477
6715.89,0.54630
6710.1,0.53927
6704.32,0.54383
6698.53,0.54341
6692.75,0.54807
6686.96,0.54568
6681.17,0.54382
6675.39,0.54420
6669.6,0.54422
6663.82,0.54628
6658.03,0.54639
6652.24,0.54762
6646.46,0.54314
6640.67,0.54649
6634.88,0.54624
6629.1,0.54695
6623.31,0.54812
6617.53,0.54915
6611.74,0.55064
6605.95,0.54855
6600.17,0.54933
6594.38,0.55125
6588.59,0.55318
6582.81,0.55359
6577.02,0.54953
6571.24,0.54937
6565.45,0.55161
6559.66,0.55149
6553.88,0.54562
6548.09,0.55101
6542.3,0.55420
6536.52,0.55378
6530.73,0.54913
6524.95,0.55451
6519.16,0.55046
6513.37,0.55037
6507.59,0.55070
6501.8,0.54967
6496.01,0.55750
6490.23,0.55457
6484.44,0.55337
6478.66,0.55071
6472.87,0.55025
6467.08,0.55149
6461.3,0.55113
6455.51,0.54896
6449.72,0.55124
6443.94,0.54725
6438.15,0.55498
6432.37,0.55526
6426.58,0.55679
6420.79,0.55450
6415.01,0.55517
6409.22,0.55496
6403.43,0.55428
6397.65,0.55474
6391.86,0.55434
6386.08,0.55354
6380.29,0.55868
6374.5,0.55728
6368.72,0.55510
6362.93,0.55417
6357.14,0.55381
6351.36,0.55455
6345.57,0.55620
6339.79,0.55741
6334,0.55353
6328.21,0.55361
6322.43,0.55545
6316.64,0.55789
6310.85,0.56033
6305.07,0.55670
6299.28,0.56145
6293.5,0.55396
6287.71,0.55718
6281.92,0.56022
6276.14,0.56144
6270.35,0.55997
6264.56,0.55861
6258.78,0.56201
6252.99,0.55373
6247.21,0.56341
6241.42,0.56151
6235.63,0.55743
6229.85,0.56475
6224.06,0.56035
6218.27,0.56374
6212.49,0.55972
6206.7,0.56454
6200.92,0.56311
6195.13,0.56484
6189.34,0.56110
6183.56,0.56607
6177.77,0.56433
6171.98,0.56644
6166.2,0.56204
6160.41,0.56660
6154.63,0.56789
6148.84,0.56862
6143.05,0.56744
6137.27,0.56874
6131.48,0.57018
6125.7,0.56950
6119.91,0.57185
6114.12,0.56685
6108.34,0.56944
6102.55,0.56935
6096.76,0.57308
6090.98,0.57193
6085.19,0.57238
6079.41,0.57076
6073.62,0.57118
6067.83,0.56933
6062.05,0.57188
6056.26,0.57176
6050.47,0.57301
6044.69,0.57300
6038.9,0.57620
6033.12,0.57292
6027.33,0.57311
6021.54,0.57148
6015.76,0.57209
6009.97,0.57331
6004.18,0.57240
5998.4,0.57318
5992.61,0.57187
5986.83,0.57430
5981.04,0.57205
5975.25,0.57192
5969.47,0.57356
5963.68,0.57152
5957.89,0.57199
5952.11,0.57199
5946.32,0.57244
5940.54,0.57118
5934.75,0.57253
5928.96,0.57505
5923.18,0.57042
5917.39,0.56640
5911.6,0.56841
5905.82,0.56712
5900.03,0.56783
5894.25,0.56948
5888.46,0.57013
5882.67,0.57065
5876.89,0.56975
5871.1,0.56992
5865.31,0.57105
5859.53,0.56979
5853.74,0.57081
5847.96,0.56738
5842.17,0.56858
5836.38,0.56600
5830.6,0.56838
5824.81,0.56812
5819.02,0.56687
5813.24,0.56715
5807.45,0.56430
5801.67,0.56886
5795.88,0.56787
5790.09,0.56901
5784.31,0.56720
5778.52,0.56412
5772.73,0.56531
5766.95,0.56619
5761.16,0.56762
5755.38,0.56639
5749.59,0.56792
5743.8,0.56524
5738.02,0.56521
5732.23,0.56697
5726.44,0.56607
5720.66,0.56633
5714.87,0.56697
5709.09,0.56734
5703.3,0.56767
5697.51,0.56575
5691.73,0.56753
5685.94,0.56612
5680.15,0.56716
5674.37,0.56797
5668.58,0.56795
5662.8,0.56583
5657.01,0.56798
5651.22,0.56493
5645.44,0.56570
5639.65,0.56493
5633.87,0.56734
5628.08,0.56482
5622.29,0.56699
5616.51,0.56694
5610.72,0.56551
5604.93,0.56549
5599.15,0.56779
5593.36,0.56613
5587.58,0.56599
5581.79,0.56696
5576,0.56519
5570.22,0.56803
5564.43,0.56862
5558.64,0.56732
5552.86,0.56978
5547.07,0.56767
5541.29,0.56827
5535.5,0.56727
5529.71,0.56912
5523.93,0.56846
5518.14,0.56770
5512.35,0.56929
5506.57,0.56766
5500.78,0.57080
5495,0.56903
5489.21,0.56984
5483.42,0.56852
5477.64,0.56918
5471.85,0.57108
5466.06,0.56966
5460.28,0.57126
5454.49,0.57090
5448.71,0.57120
5442.92,0.57140
5437.13,0.57180
5431.35,0.57212
5425.56,0.57375
5419.77,0.57167
5413.99,0.57178
5408.2,0.57327
5402.42,0.57352
5396.63,0.57464
5390.84,0.57378
5385.06,0.57371
5379.27,0.57298
5373.48,0.57377
5367.7,0.57425
5361.91,0.57401
5356.13,0.57360
5350.34,0.57438
5344.55,0.57347
5338.77,0.57360
5332.98,0.57208
5327.19,0.57204
5321.41,0.57041
5315.62,0.56912
5309.84,0.56786
5304.05,0.56723
5298.26,0.56486
5292.48,0.56279
5286.69,0.55936
5280.9,0.55574
5275.12,0.55229
5269.33,0.54794
5263.55,0.54343
5257.76,0.53820
5251.97,0.53288
5246.19,0.52908
5240.4,0.52360
5234.61,0.51855
5228.83,0.51296
5223.04,0.51015
5217.26,0.50480
5211.47,0.50349
5205.68,0.50158
5199.9,0.50195
5194.11,0.50283
5188.32,0.50428
5182.54,0.50409
5176.75,0.50543
5170.97,0.50727
5165.18,0.50706
5159.39,0.50834
5153.61,0.51087
5147.82,0.51163
5142.03,0.51227
5136.25,0.51454
5130.46,0.51537
5124.68,0.51807
5118.89,0.51953
5113.1,0.52029
5107.32,0.52268
5101.53,0.52382
5095.75,0.52650
5089.96,0.52765
5084.17,0.52846
5078.39,0.52981
5072.6,0.53118
5066.81,0.53246
5061.03,0.53350
5055.24,0.53360
5049.46,0.53504
5043.67,0.53667
5037.88,0.53833
5032.1,0.53888
5026.31,0.53850
5020.52,0.53963
5014.74,0.54251
5008.95,0.54245
5003.17,0.54233
4997.38,0.54264
4991.59,0.54290
4985.81,0.54220
4980.02,0.54374
4974.23,0.54291
4968.45,0.54269
4962.66,0.54062
4956.88,0.54082
4951.09,0.53944
4945.3,0.53712
4939.52,0.53548
4933.73,0.53524
4927.94,0.53172
4922.16,0.53072
4916.37,0.52806
4910.59,0.52536
4904.8,0.52329
4899.01,0.52058
4893.23,0.51702
4887.44,0.51428
4881.65,0.51109
4875.87,0.50789
4870.08,0.50469
4864.3,0.50192
4858.51,0.49880
4852.72,0.49631
4846.94,0.49370
4841.15,0.49041
4835.36,0.48722
4829.58,0.48341
4823.79,0.48231
4818.01,0.47926
4812.22,0.47731
4806.43,0.47638
4800.65,0.47380
4794.86,0.47269
4789.07,0.47078
4783.29,0.46992
4777.5,0.46920
4771.72,0.46802
4765.93,0.46788
4760.14,0.46774
4754.36,0.46631
4748.57,0.46650
4742.78,0.46466
4737,0.46625
4731.21,0.46615
4725.43,0.46782
4719.64,0.46745
4713.85,0.46871
4708.07,0.46977
4702.28,0.47070
4696.49,0.47188
4690.71,0.47340
4684.92,0.47441
4679.14,0.47641
4673.35,0.47839
4667.56,0.47824
4661.78,0.48030
4655.99,0.48150
4650.2,0.48246
4644.42,0.48370
4638.63,0.48544
4632.85,0.48575
4627.06,0.48684
4621.27,0.48911
4615.49,0.49053
4609.7,0.49201
4603.92,0.49364
4598.13,0.49464
4592.34,0.49538
4586.56,0.49716
4580.77,0.49993
4574.98,0.50000
4569.2,0.50146
4563.41,0.50229
4557.63,0.50347
4551.84,0.50438
4546.05,0.50502
4540.27,0.50587
4534.48,0.50526
4528.69,0.50477
4522.91,0.50589
4517.12,0.50913
4511.34,0.51038
4505.55,0.51140
4499.76,0.51124
4493.98,0.51096
4488.19,0.50961
4482.4,0.50875
4476.62,0.50701
4470.83,0.50491
4465.05,0.50198
4459.26,0.49871
4453.47,0.49593
4447.69,0.49136
4441.9,0.48771
4436.11,0.48313
4430.33,0.47800
4424.54,0.47393
4418.76,0.46857
4412.97,0.46430
4407.18,0.45945
4401.4,0.45641
4395.61,0.45515
4389.82,0.45552
4384.04,0.45667
4378.25,0.45783
4372.47,0.45905
4366.68,0.46000
4360.89,0.45983
4355.11,0.45943
4349.32,0.45749
4343.53,0.45517
4337.75,0.45360
4331.96,0.44937
4326.18,0.44527
4320.39,0.44368
4314.6,0.44394
4308.82,0.44323
4303.03,0.44186
4297.24,0.43978
4291.46,0.43810
4285.67,0.43655
4279.89,0.43602
4274.1,0.43538
4268.31,0.43645
4262.53,0.43602
4256.74,0.43596
4250.95,0.43587
4245.17,0.43735
4239.38,0.43861
4233.6,0.44005
4227.81,0.44106
4222.02,0.44094
4216.24,0.44167
4210.45,0.44135
4204.66,0.44208
4198.88,0.44240
4193.09,0.44291
4187.31,0.44342
4181.52,0.44285
4175.73,0.44319
4169.95,0.44446
4164.16,0.44469
4158.37,0.44394
4152.59,0.44211
4146.8,0.44070
4141.02,0.43912
4135.23,0.43707
4129.44,0.43448
4123.66,0.43192
4117.87,0.42826
4112.09,0.42382
4106.3,0.41962
4100.51,0.41425
4094.73,0.40905
4088.94,0.40505
4083.15,0.39962
4077.37,0.39408
4071.58,0.38892
4065.8,0.38462
4060.01,0.38004
4054.22,0.37380
4048.44,0.36878
4042.65,0.36340
4036.86,0.35956
4031.08,0.35607
4025.29,0.35409
4019.51,0.35278
4013.72,0.35274
4007.93,0.35434
4002.15,0.35554
3996.36,0.35687
3990.57,0.35946
3984.79,0.36055
3979,0.36261
3973.22,0.36448
3967.43,0.36628
3961.64,0.36854
3955.86,0.37066
3950.07,0.37311
3944.28,0.37533
3938.5,0.37769
3932.71,0.38067
3926.93,0.38395
3921.14,0.38590
3915.35,0.38829
3909.57,0.39047
3903.78,0.39243
3897.99,0.39483
3892.21,0.39640
3886.42,0.39898
3880.64,0.40007
3874.85,0.40120
3869.06,0.40446
3863.28,0.40706
3857.49,0.40907
3851.7,0.41191
3845.92,0.41380
3840.13,0.41504
3834.35,0.41564
3828.56,0.41596
3822.77,0.41566
3816.99,0.41556
3811.2,0.41471
3805.41,0.41368
3799.63,0.41410
3793.84,0.41267
3788.06,0.41143
3782.27,0.40939
3776.48,0.40866
3770.7,0.40668
3764.91,0.40361
3759.12,0.40107
3753.34,0.39739
3747.55,0.39308
3741.77,0.38722
3735.98,0.38071
3730.19,0.37214
3724.41,0.36052
3718.62,0.34349
3712.83,0.31733
3707.05,0.28138
3701.26,0.23370
3695.48,0.20310
3689.69,0.21438
3683.9,0.23185
3678.12,0.23028
3672.33,0.21283
3666.54,0.19661
3660.76,0.18426
3654.97,0.16347
3649.19,0.15106
3643.4,0.14391
3637.61,0.13470
3631.83,0.12213
3626.04,0.10725
3620.25,0.09447
3614.47,0.09558
3608.68,0.09282
3602.9,0.08896
3597.11,0.08622
3591.32,0.08338
3585.54,0.07954
3579.75,0.07607
3573.97,0.07153
3568.18,0.06752
3562.39,0.06420
3556.61,0.06238
3550.82,0.05986
3545.03,0.05900
3539.25,0.05730
3533.46,0.05519
3527.68,0.05373
3521.89,0.05267
3516.1,0.05165
3510.32,0.05035
3504.53,0.04916
3498.74,0.04786
3492.96,0.04665
3487.17,0.04656
3481.39,0.04544
3475.6,0.04439
3469.81,0.04429
3464.03,0.04341
3458.24,0.04338
3452.45,0.04272
3446.67,0.04301
3440.88,0.04178
3435.1,0.04171
3429.31,0.04192
3423.52,0.04154
3417.74,0.04189
3411.95,0.04098
3406.16,0.04128
3400.38,0.04150
3394.59,0.04120
3388.81,0.04153
3383.02,0.04178
3377.23,0.04186
3371.45,0.04214
3365.66,0.04262
3359.87,0.04241
3354.09,0.04234
3348.3,0.04312
3342.52,0.04357
3336.73,0.04468
3330.94,0.04502
3325.16,0.04613
3319.37,0.04680
3313.58,0.04688
3307.8,0.04717
3302.01,0.04794
3296.23,0.04869
3290.44,0.04895
3284.65,0.04961
3278.87,0.04950
3273.08,0.05129
3267.29,0.05179
3261.51,0.05271
3255.72,0.05427
3249.94,0.05572
3244.15,0.05669
3238.36,0.05773
3232.58,0.05830
3226.79,0.05976
3221,0.06087
3215.22,0.06191
3209.43,0.06215
3203.65,0.06438
3197.86,0.06611
3192.07,0.06701
3186.29,0.06829
3180.5,0.06984
3174.71,0.07071
3168.93,0.07259
3163.14,0.07417
3157.36,0.07558
3151.57,0.07687
3145.78,0.07915
3140,0.08044
3134.21,0.08174
3128.42,0.08381
3122.64,0.08533
3116.85,0.08724
3111.07,0.08907
3105.28,0.09083
3099.49,0.09296
3093.71,0.09408
3087.92,0.09604
3082.14,0.09788
3076.35,0.09971
3070.56,0.10153
3064.78,0.10341
3058.99,0.10545
3053.2,0.10757
3047.42,0.10940
3041.63,0.11108
3035.85,0.11195
3030.06,0.11364
3024.27,0.11459
3018.49,0.11556
3012.7,0.11581
3006.91,0.11553
3001.13,0.11463
2995.34,0.11374
2989.56,0.11086
2983.77,0.10665
2977.98,0.10126
2972.2,0.09386
2966.41,0.08844
2960.62,0.08611
2954.84,0.08269
2949.05,0.07884
2943.27,0.07584
2937.48,0.07367
2931.69,0.07135
2925.91,0.06937
2920.12,0.06682
2914.33,0.06695
2908.55,0.06875
2902.76,0.07012
2896.98,0.07161
2891.19,0.07410
2885.4,0.07631
2879.62,0.07866
2873.83,0.07985
2868.04,0.08145
2862.26,0.08311
2856.47,0.08379
2850.69,0.08275
2844.9,0.09134
2839.11,0.10143
2833.33,0.10764
2827.54,0.11343
2821.75,0.11816
2815.97,0.12283
2810.18,0.12727
2804.4,0.13085
2798.61,0.13423
2792.82,0.13612
2787.04,0.13815
2781.25,0.13963
2775.46,0.14123
2769.68,0.14194
2763.89,0.14329
2758.11,0.14433
2752.32,0.14476
2746.53,0.14536
2740.75,0.14607
2734.96,0.14685
2729.17,0.14817
2723.39,0.14956
2717.6,0.15095
2711.82,0.15298
2706.03,0.15581
2700.24,0.15805
2694.46,0.16039
2688.67,0.16298
2682.88,0.16510
2677.1,0.16761
2671.31,0.16925
2665.53,0.17073
2659.74,0.17238
2653.95,0.17376
2648.17,0.17551
2642.38,0.17760
2636.59,0.17945
2630.81,0.18146
2625.02,0.18328
2619.24,0.18504
2613.45,0.18658
2607.66,0.18794
2601.88,0.18910
2596.09,0.19081
2590.3,0.19238
2584.52,0.19328
2578.73,0.19415
2572.95,0.19511
2567.16,0.19536
2561.37,0.19568
2555.59,0.19597
2549.8,0.19603
2544.02,0.19566
2538.23,0.19569
2532.44,0.19509
2526.66,0.19451
2520.87,0.19476
2515.08,0.19482
2509.3,0.19754
2503.51,0.20195
2497.73,0.20742
2491.94,0.21259
2486.15,0.21653
2480.37,0.22006
2474.58,0.22337
2468.79,0.22697
2463.01,0.22960
2457.22,0.23196
2451.44,0.23506
2445.65,0.23758
2439.86,0.24070
2434.08,0.24368
2428.29,0.24691
2422.5,0.24995
2416.72,0.25326
2410.93,0.25550
2405.15,0.25841
2399.36,0.26093
2393.57,0.26319
2387.79,0.26532
2382,0.26743
2376.21,0.26995
2370.43,0.27245
2364.64,0.27395
2358.86,0.27546
2353.07,0.27676
2347.28,0.27856
2341.5,0.28018
2335.71,0.28165
2329.92,0.28298
2324.14,0.28394
2318.35,0.28532
2312.57,0.28582
2306.78,0.28581
2300.99,0.28574
2295.21,0.28580
2289.42,0.28549
2283.63,0.28523
2277.85,0.28540
2272.06,0.28412
2266.28,0.28221
2260.49,0.28026
2254.7,0.27870
2248.92,0.27763
2243.13,0.27649
2237.34,0.27530
2231.56,0.27438
2225.77,0.27431
2219.99,0.27462
2214.2,0.27503
2208.41,0.27465
2202.63,0.27510
2196.84,0.27392
2191.05,0.27215
2185.27,0.26970
2179.48,0.26610
2173.7,0.26225
2167.91,0.25858
2162.12,0.25520
2156.34,0.25249
2150.55,0.25019
2144.76,0.24812
2138.98,0.24620
2133.19,0.24635
2127.41,0.24771
2121.62,0.25016
2115.83,0.25291
2110.05,0.25538
2104.26,0.25692
2098.47,0.25842
2092.69,0.25962
2086.9,0.26100
2081.12,0.26215
2075.33,0.26197
2069.54,0.26167
2063.76,0.26163
2057.97,0.26179
2052.19,0.26220
2046.4,0.26306
2040.61,0.26437
2034.83,0.26662
2029.04,0.26963
2023.25,0.27322
2017.47,0.27636
2011.68,0.27904
2005.9,0.28113
2000.11,0.28264
1994.32,0.28389
1988.54,0.28551
1982.75,0.28702
1976.96,0.28776
1971.18,0.28770
1965.39,0.28785
1959.61,0.28800
1953.82,0.28880
1948.03,0.29011
1942.25,0.29148
1936.46,0.29272
1930.67,0.29351
1924.89,0.29448
1919.1,0.29498
1913.32,0.29494
1907.53,0.29542
1901.74,0.29458
1895.96,0.29427
1890.17,0.29344
1884.38,0.29294
1878.6,0.29188
1872.81,0.29037
1867.03,0.28877
1861.24,0.28699
1855.45,0.28422
1849.67,0.28088
1843.88,0.27668
1838.09,0.27214
1832.31,0.26707
1826.52,0.25997
1820.74,0.25125
1814.95,0.24092
1809.16,0.22651
1803.38,0.20610
1797.59,0.18223
1791.8,0.16827
1786.02,0.15907
1780.23,0.14679
1774.45,0.13511
1768.66,0.12384
1762.87,0.11359
1757.09,0.10427
1751.3,0.09566
1745.51,0.08762
1739.73,0.08247
1733.94,0.07969
1728.16,0.07747
1722.37,0.07681
1716.58,0.07718
1710.8,0.07786
1705.01,0.07934
1699.22,0.08039
1693.44,0.08016
1687.65,0.07918
1681.87,0.07679
1676.08,0.07553
1670.29,0.07371
1664.51,0.07181
1658.72,0.07070
1652.93,0.06984
1647.15,0.06912
1641.36,0.06820
1635.58,0.06783
1629.79,0.06695
1624,0.06554
1618.22,0.06503
1612.43,0.06535
1606.64,0.06679
1600.86,0.06800
1595.07,0.07007
1589.29,0.07313
1583.5,0.07784
1577.71,0.08296
1571.93,0.08870
1566.14,0.09337
1560.35,0.09679
1554.57,0.10034
1548.78,0.10148
1543,0.10186
1537.21,0.09904
1531.42,0.09483
1525.64,0.08886
1519.85,0.08061
1514.07,0.07514
1508.28,0.07343
1502.49,0.07313
1496.71,0.07254
1490.92,0.07030
1485.13,0.06590
1479.35,0.06189
1473.56,0.05839
1467.78,0.05481
1461.99,0.05302
1456.2,0.05206
1450.42,0.05186
1444.63,0.05202
1438.84,0.05157
1433.06,0.05028
1427.27,0.05122
1421.49,0.05392
1415.7,0.05652
1409.91,0.05807
1404.13,0.05875
1398.34,0.05889
1392.55,0.05821
1386.77,0.05620
1380.98,0.05326
1375.2,0.05195
1369.41,0.05218
1363.62,0.05373
1357.84,0.05414
1352.05,0.05526
1346.26,0.05515
1340.48,0.05328
1334.69,0.05263
1328.91,0.05303
1323.12,0.05256
1317.33,0.05228
1311.55,0.05459
1305.76,0.05656
1299.97,0.05753
1294.19,0.05695
1288.4,0.05530
1282.62,0.05365
1276.83,0.05462
1271.04,0.05532
1265.26,0.05623
1259.47,0.05651
1253.68,0.05659
1247.9,0.05612
1242.11,0.05552
1236.33,0.05661
1230.54,0.05684
1224.75,0.05745
1218.97,0.05690
1213.18,0.05525
1207.39,0.05328
1201.61,0.05323
1195.82,0.05457
1190.04,0.05333
1184.25,0.05104
1178.46,0.04792
1172.68,0.04736
1166.89,0.04954
1161.1,0.05408
1155.32,0.05627
1149.53,0.05563
1143.75,0.05270
1137.96,0.04928
1132.17,0.04627
1126.39,0.04504
1120.6,0.04587
1114.81,0.04837
1109.03,0.05035
1103.24,0.05039
1097.46,0.04980
1091.67,0.04978
1085.88,0.04932
1080.1,0.05065
1074.31,0.05294
1068.52,0.05680
1062.74,0.06496
1056.95,0.06910
1051.17,0.06833
1045.38,0.06622
1039.59,0.06764
1033.81,0.07374
1028.02,0.07527
1022.24,0.07439
1016.45,0.07427
1010.66,0.07557
1004.88,0.07614
999.09,0.07800
993.304,0.08138
987.518,0.08450
981.731,0.09135
975.945,0.09654
970.159,0.10005
964.373,0.10505
958.586,0.11114
952.8,0.11511
947.014,0.11524
941.228,0.11275
935.441,0.11172
929.655,0.11241
923.869,0.11138
918.083,0.10858
912.297,0.10574
906.51,0.10552
900.724,0.10335
894.938,0.10679
889.152,0.11331
883.365,0.11276
877.579,0.10495
871.793,0.10406
866.007,0.11838
860.22,0.12083
854.434,0.11918
848.648,0.11950
842.862,0.11965
837.075,0.11899
831.289,0.11688
825.503,0.11450
819.717,0.11078
813.931,0.10600
808.144,0.10342
802.358,0.10100
796.572,0.09992
790.786,0.09696
784.999,0.09495
779.213,0.09303
773.427,0.09035
767.641,0.08771
761.854,0.08545
756.068,0.08346
750.282,0.08321
744.496,0.08152
738.709,0.07922
732.923,0.07569
727.137,0.07284
721.351,0.06997
715.565,0.06676
709.778,0.06597
703.992,0.06545
698.206,0.06483
692.42,0.06565
686.633,0.06439
680.847,0.06244
675.061,0.06223
669.275,0.06004
663.488,0.06101
657.702,0.06146
651.916,0.06270
646.13,0.06036
640.343,0.06058
634.557,0.05980
628.771,0.05897
622.985,0.05907
617.198,0.05710
611.412,0.05820
605.626,0.06192
599.84,0.06285