File: 01_Data/PET/Cone/PET_HRRPUA_50.csv
Time after Ignition,PET_R1,PET_R2,PET_R3,Mean,Std. Dev.
0.0,20.5,7.2,23.3,17.0,8.6
0.25,23.0,8.2,26.9,19.4,9.9
0.5,29.0,9.4,30.7,23.1,11.8
0.75,34.4,14.3,36.3,28.3,12.2
1.0,40.6,21.6,40.7,34.3,11.0
1.25,44.8,25.3,45.9,38.7,11.6
1.5,48.9,25.3,50.2,41.5,14.0
1.75,55.5,28.1,53.5,45.7,15.3
2.0,63.3,34.1,60.3,52.6,16.0
2.25,68.9,39.6,66.2,58.3,16.2
2.5,75.4,44.1,70.5,63.3,16.9
2.75,83.7,47.7,74.4,68.6,18.7
3.0,91.8,54.7,79.6,75.4,18.9
3.25,99.0,61.3,83.2,81.1,18.9
3.5,103.9,65.1,89.7,86.3,19.6
3.75,114.6,70.6,94.5,93.2,22.0
4.0,121.0,75.2,101.7,99.3,23.0
4.25,129.0,82.9,102.7,104.9,23.1
4.5,131.8,89.3,110.1,110.4,21.2
4.75,139.3,97.9,116.9,118.0,20.7
5.0,149.8,101.8,122.6,124.7,24.1
5.25,159.0,112.9,127.4,133.1,23.6
5.5,162.9,131.3,133.0,142.4,17.8
5.75,170.9,128.3,143.2,147.5,21.6
6.0,174.0,136.7,149.6,153.4,19.0
6.25,179.8,140.7,158.0,159.5,19.6
6.5,187.3,147.4,158.5,164.4,20.6
6.75,189.5,157.1,169.7,172.1,16.3
7.0,198.5,164.6,176.2,179.7,17.2
7.25,209.8,169.6,186.8,188.7,20.2
7.5,213.5,174.9,191.1,193.2,19.4
7.75,213.7,183.2,197.1,198.0,15.3
8.0,224.0,188.2,201.2,204.5,18.2
8.25,224.1,196.4,214.0,211.5,14.0
8.5,230.1,202.7,217.6,216.8,13.8
8.75,236.4,212.8,228.5,225.9,12.0
9.0,245.4,213.2,237.2,231.9,16.7
9.25,247.8,220.8,247.4,238.7,15.4
9.5,257.5,221.9,255.7,245.0,20.1
9.75,261.3,231.4,264.8,252.5,18.4
10.0,264.3,231.2,266.6,254.0,19.8
10.25,266.6,242.0,276.8,261.8,17.9
10.5,273.1,254.0,275.1,267.4,11.7
10.75,277.7,251.7,287.0,272.1,18.3
11.0,290.6,265.2,288.8,281.5,14.2
11.25,290.4,263.8,303.9,286.0,20.4
11.5,289.0,271.9,306.5,289.1,17.3
11.75,291.1,274.1,309.2,291.5,17.6
12.0,297.0,280.7,329.0,302.2,24.6
12.25,302.3,286.6,327.4,305.4,20.6
12.5,306.1,295.7,324.9,308.9,14.8
12.75,311.3,292.9,340.1,314.7,23.8
13.0,318.2,300.6,342.4,320.4,21.0
13.25,320.5,298.0,359.2,325.9,30.9
13.5,321.1,306.5,360.2,329.3,27.8
13.75,327.9,319.5,363.0,336.8,23.1
14.0,328.8,321.0,380.7,343.5,32.5
14.25,337.8,317.9,379.9,345.2,31.7
14.5,338.7,324.9,390.5,351.4,34.6
14.75,345.4,336.5,386.7,356.2,26.8
15.0,350.0,332.1,395.3,359.2,32.6
15.25,354.2,349.6,401.9,368.6,29.0
15.5,355.2,338.2,409.0,367.5,37.0
15.75,364.0,347.9,412.5,374.8,33.6
16.0,365.3,359.1,423.0,382.5,35.3
16.25,374.0,351.6,431.0,385.5,41.0
16.5,367.2,359.9,427.7,385.0,37.2
16.75,366.9,371.3,439.2,392.5,40.6
17.0,377.8,370.2,439.2,395.8,37.8
17.25,374.3,381.1,446.9,400.8,40.1
17.5,380.1,391.2,462.1,411.2,44.5
17.75,385.9,388.3,470.6,414.9,48.2
18.0,376.6,392.0,449.6,406.1,38.5
18.25,378.6,389.6,463.8,410.7,46.3
18.5,393.1,402.7,485.5,427.1,50.8
18.75,388.9,405.1,486.3,426.8,52.2
19.0,397.6,421.2,490.4,436.4,48.2
19.25,410.4,402.7,504.8,439.3,56.9
19.5,403.7,419.8,497.1,440.2,49.9
19.75,408.1,423.8,514.1,448.7,57.2
20.0,414.0,428.9,512.1,451.7,52.9
20.25,428.7,424.8,535.9,463.1,63.0
20.5,424.3,434.5,527.3,462.0,56.7
20.75,443.7,435.0,539.6,472.8,58.0
21.0,454.9,443.6,526.8,475.1,45.1
21.25,440.5,444.3,530.6,471.8,50.9
21.5,460.5,454.9,555.8,490.4,56.7
21.75,460.1,444.7,561.0,488.6,63.2
22.0,460.1,459.5,557.6,492.4,56.5
22.25,472.7,468.4,567.3,502.8,55.9
22.5,486.2,466.8,569.4,507.5,54.5
22.75,486.3,458.9,563.0,502.7,53.9
23.0,481.7,470.6,554.6,502.3,45.6
23.25,482.0,472.8,550.9,501.9,42.7
23.5,499.1,485.8,588.9,524.6,56.1
23.75,498.8,475.1,580.0,518.0,55.0
24.0,510.3,476.5,586.9,524.6,56.6
24.25,500.4,491.5,581.5,524.5,49.6
24.5,522.2,496.0,584.6,534.3,45.5
24.75,507.8,508.6,569.6,528.7,35.5
25.0,529.1,501.3,585.4,538.6,42.9
25.25,527.1,503.2,571.1,533.8,34.4
25.5,538.8,510.0,583.0,543.9,36.8
25.75,532.9,500.6,582.6,538.7,41.3
26.0,523.1,521.5,602.1,548.9,46.1
26.25,528.6,539.3,585.1,551.0,30.0
26.5,537.5,523.1,597.9,552.8,39.7
26.75,565.9,518.4,584.7,556.3,34.2
27.0,552.1,538.2,584.5,558.3,23.7
27.25,541.3,538.6,577.2,552.4,21.6
27.5,541.7,542.4,593.8,559.3,29.9
27.75,555.0,536.8,583.6,558.5,23.6
28.0,566.1,552.6,590.1,569.6,19.0
28.25,572.7,548.6,598.5,573.3,25.0
28.5,567.4,564.8,601.8,578.0,20.7
28.75,569.3,529.5,593.9,564.2,32.5
29.0,569.9,548.7,583.0,567.2,17.3
29.25,569.4,549.4,590.5,569.8,20.6
29.5,571.8,547.4,581.0,566.7,17.4
29.75,588.7,555.1,589.4,577.7,19.6
30.0,571.1,553.1,601.6,575.3,24.5
30.25,580.0,556.4,560.7,565.7,12.5
30.5,604.0,562.2,598.9,588.3,22.8
30.75,593.8,551.1,586.6,577.1,22.9
31.0,596.1,548.0,589.9,578.0,26.2
31.25,594.9,569.2,586.2,583.4,13.1
31.5,608.7,567.0,563.6,579.8,25.1
31.75,604.1,558.9,576.3,579.8,22.8
32.0,594.6,577.0,559.5,577.0,17.6
32.25,594.4,570.1,558.8,574.5,18.2
32.5,589.3,560.3,571.3,573.6,14.7
32.75,597.3,555.3,551.5,568.0,25.4
33.0,608.8,580.9,563.1,584.3,23.0
33.25,591.9,550.6,563.3,568.6,21.1
33.5,595.0,580.0,566.1,580.4,14.5
33.75,600.1,588.1,545.5,577.9,28.7
34.0,609.5,573.1,559.4,580.7,25.9
34.25,602.1,570.1,549.7,574.0,26.5
34.5,599.4,573.0,558.1,576.8,20.9
34.75,599.8,565.4,565.9,577.0,19.7
35.0,623.7,579.6,561.2,588.2,32.1
35.25,606.7,576.6,544.3,575.9,31.2
35.5,598.9,578.1,565.5,580.8,16.9
35.75,616.5,559.3,552.6,576.2,35.1
36.0,601.0,557.7,550.8,569.8,27.2
36.25,590.3,588.1,539.9,572.8,28.5
36.5,603.0,559.7,544.6,569.1,30.3
36.75,613.5,585.2,558.2,585.6,27.7
37.0,612.7,567.7,557.7,579.4,29.3
37.25,621.4,565.1,554.5,580.3,35.9
37.5,593.0,556.4,541.7,563.7,26.4
37.75,603.3,577.1,541.5,574.0,31.1
38.0,603.5,574.8,561.2,579.9,21.6
38.25,606.4,570.7,528.4,568.5,39.0
38.5,608.7,577.0,539.5,575.0,34.7
38.75,608.9,563.5,539.1,570.5,35.4
39.0,608.8,574.9,538.5,574.1,35.2
39.25,595.7,576.8,528.0,566.8,34.9
39.5,609.7,574.2,534.5,572.8,37.6
39.75,595.3,559.9,523.3,559.5,36.0
40.0,621.7,556.8,538.6,572.4,43.7
40.25,609.3,577.3,543.4,576.6,33.0
40.5,612.2,570.1,540.0,574.1,36.2
40.75,610.2,561.8,534.1,568.7,38.5
41.0,597.7,564.8,534.0,565.5,31.8
41.25,615.5,564.4,532.0,570.6,42.1
41.5,579.5,576.6,536.3,564.1,24.1
41.75,601.4,571.4,534.2,569.0,33.7
42.0,629.1,571.5,526.1,575.6,51.6
42.25,602.7,560.6,538.0,567.1,32.8
42.5,594.5,566.3,523.9,561.5,35.5
42.75,594.5,571.3,514.9,560.2,40.9
43.0,593.2,582.9,522.0,566.1,38.5
43.25,601.2,572.4,512.8,562.2,45.1
43.5,607.5,564.9,532.1,568.2,37.8
43.75,602.0,570.2,524.8,565.6,38.8
44.0,608.3,575.7,519.4,567.8,45.0
44.25,586.0,570.1,516.6,557.6,36.3
44.5,584.4,567.2,531.8,561.1,26.8
44.75,601.9,562.2,511.8,558.6,45.2
45.0,583.6,580.4,510.0,558.0,41.6
45.25,567.2,569.3,514.2,550.2,31.2
45.5,571.2,559.2,514.6,548.4,29.8
45.75,609.7,552.9,512.7,558.4,48.7
46.0,605.0,565.1,509.4,559.8,48.0
46.25,585.8,550.3,515.8,550.6,35.0
46.5,586.1,581.0,522.9,563.3,35.1
46.75,578.6,553.1,523.9,551.9,27.4
47.0,578.2,560.7,529.3,556.0,24.8
47.25,571.8,568.7,531.5,557.3,22.4
47.5,564.8,575.3,537.3,559.1,19.7
47.75,571.6,566.0,523.8,553.8,26.1
48.0,571.6,564.9,523.7,553.4,25.9
48.25,568.2,565.1,533.8,555.7,19.0
48.5,579.8,582.5,514.5,558.9,38.5
48.75,567.7,554.5,531.8,551.4,18.2
49.0,571.5,563.3,521.6,552.2,26.8
49.25,562.2,568.6,532.6,554.4,19.2
49.5,578.4,557.0,531.7,555.7,23.4
49.75,565.4,545.8,524.7,545.3,20.4
50.0,571.8,566.6,544.7,561.0,14.4
50.25,564.5,587.7,534.4,562.2,26.7
50.5,554.8,560.3,526.6,547.3,18.1
50.75,563.3,555.2,541.5,553.3,11.0
51.0,559.2,558.7,527.9,548.6,17.9
51.25,553.7,561.8,549.4,555.0,6.3
51.5,556.7,549.4,536.0,547.4,10.5
51.75,560.2,568.1,546.0,558.1,11.2
52.0,553.2,568.1,565.6,562.3,8.0
52.25,545.6,592.3,552.9,563.6,25.1
52.5,565.2,576.4,542.1,561.2,17.5
52.75,557.4,561.1,543.0,553.9,9.6
53.0,546.8,555.7,573.0,558.5,13.3
53.25,562.3,567.9,548.6,559.6,9.9
53.5,548.4,562.6,553.2,554.7,7.3
53.75,557.4,550.5,571.3,559.7,10.6
54.0,549.4,564.5,569.6,561.2,10.5
54.25,558.8,544.9,573.4,559.0,14.2
54.5,559.1,562.8,560.5,560.8,1.9
54.75,550.6,574.5,560.2,561.8,12.0
55.0,546.9,554.3,556.8,552.7,5.1
55.25,551.6,560.8,587.1,566.5,18.4
55.5,553.3,555.3,559.2,555.9,3.0
55.75,567.3,550.4,581.9,566.6,15.8
56.0,547.1,543.3,588.0,559.5,24.8
56.25,545.3,554.4,591.6,563.8,24.5
56.5,543.4,540.2,589.2,557.6,27.4
56.75,550.8,541.7,597.7,563.4,30.1
57.0,543.7,543.3,583.4,556.8,23.0
57.25,554.0,542.7,580.0,558.9,19.1
57.5,535.2,544.4,585.3,555.0,26.7
57.75,544.5,548.2,598.4,563.7,30.1
58.0,556.7,537.5,591.9,562.0,27.6
58.25,544.6,536.3,577.7,552.9,21.9
58.5,539.5,538.5,586.3,554.8,27.3
58.75,523.5,531.8,589.3,548.2,35.8
59.0,547.5,532.4,586.2,555.3,27.7
59.25,543.8,536.2,585.7,555.2,26.7
59.5,533.6,534.0,616.6,561.4,47.8
59.75,540.4,527.8,604.2,557.4,41.0
60.0,531.0,536.8,600.7,556.2,38.7
60.25,534.3,532.6,586.2,551.0,30.5
60.5,534.5,532.3,598.8,555.2,37.8
60.75,537.3,536.0,612.5,561.9,43.8
61.0,540.1,532.6,599.9,557.6,36.9
61.25,518.4,537.8,599.2,551.8,42.2
61.5,539.5,540.6,602.0,560.7,35.7
61.75,530.1,514.5,610.5,551.7,51.5
62.0,507.5,527.7,601.7,545.6,49.6
62.25,519.2,515.5,603.8,546.2,49.9
62.5,529.7,530.2,615.8,558.6,49.6
62.75,518.6,522.3,608.9,549.9,51.1
63.0,529.5,513.9,600.0,547.8,45.9
63.25,511.0,511.8,596.3,539.7,49.0
63.5,521.8,529.7,617.0,556.2,52.8
63.75,519.8,517.9,599.4,545.7,46.5
64.0,530.5,519.8,623.0,557.8,56.7
64.25,523.4,513.5,599.4,545.4,47.0
64.5,522.0,519.7,618.7,553.5,56.5
64.75,514.6,523.4,623.6,553.8,60.6
65.0,512.7,516.9,617.5,549.0,59.3
65.25,516.0,518.9,613.5,549.5,55.5
65.5,524.6,511.8,614.2,550.2,55.8
65.75,527.1,513.8,621.8,554.2,58.9
66.0,521.4,517.5,627.3,555.4,62.3
66.25,523.5,524.3,615.2,554.4,52.7
66.5,511.7,511.6,614.4,545.9,59.3
66.75,517.8,516.0,631.0,554.9,65.9
67.0,529.3,508.1,641.0,559.5,71.4
67.25,520.4,521.7,644.0,562.0,71.0
67.5,527.4,510.8,619.5,552.6,58.5
67.75,526.2,529.2,610.7,555.3,48.0
68.0,519.3,510.5,626.5,552.1,64.6
68.25,531.5,508.3,624.4,554.8,61.4
68.5,522.1,514.2,646.6,561.0,74.3
68.75,540.0,501.8,657.0,566.3,80.9
69.0,530.9,510.0,653.0,564.6,77.2
69.25,543.8,521.4,668.6,578.0,79.3
69.5,528.5,518.2,658.8,568.5,78.3
69.75,537.0,525.2,664.7,575.7,77.4
70.0,529.4,515.5,663.1,569.3,81.5
70.25,515.3,512.4,673.2,567.0,92.0
70.5,548.0,518.9,673.9,580.2,82.4
70.75,536.6,507.6,672.3,572.2,87.9
71.0,549.3,513.4,674.2,579.0,84.4
71.25,532.1,510.9,669.0,570.7,85.8
71.5,555.2,502.0,688.1,581.8,95.8
71.75,553.7,511.1,656.1,573.6,74.6
72.0,552.0,504.6,682.8,579.8,92.3
72.25,571.6,510.8,691.7,591.4,92.1
72.5,570.3,504.5,688.5,587.8,93.2
72.75,563.7,520.0,684.8,589.5,85.3
73.0,567.4,507.9,684.8,586.7,90.0
73.25,592.0,508.1,651.1,583.7,71.9
73.5,580.1,525.8,689.6,598.5,83.4
73.75,581.8,520.7,661.9,588.1,70.8
74.0,579.9,519.7,691.0,596.9,86.9
74.25,563.8,513.1,704.7,593.9,99.3
74.5,599.3,517.4,656.6,591.1,70.0
74.75,581.0,505.5,691.6,592.7,93.6
75.0,590.8,511.1,684.1,595.3,86.6
75.25,578.7,516.5,663.3,586.2,73.7
75.5,581.6,527.0,695.7,601.5,86.1
75.75,581.0,510.7,681.0,590.9,85.6
76.0,569.2,501.4,671.2,580.6,85.5
76.25,587.9,519.1,696.9,601.3,89.7
76.5,581.4,517.1,697.1,598.5,91.2
76.75,583.9,515.5,678.3,592.6,81.8
77.0,608.5,521.9,691.3,607.3,84.7
77.25,610.0,535.3,709.8,618.4,87.6
77.5,611.3,528.3,687.0,608.9,79.4
77.75,603.4,520.8,674.8,599.7,77.0
78.0,614.6,531.2,707.6,617.8,88.2
78.25,598.7,520.4,684.1,601.1,81.9
78.5,608.2,537.1,682.2,609.2,72.6
78.75,592.0,524.7,688.5,601.8,82.3
79.0,593.6,535.3,646.5,591.8,55.7
79.25,598.2,549.2,681.2,609.5,66.7
79.5,618.3,553.3,675.0,615.5,60.9
79.75,608.7,540.8,632.5,594.0,47.6
80.0,608.2,554.7,679.5,614.1,62.6
80.25,607.7,561.2,649.2,606.0,44.0
80.5,582.9,551.0,654.4,596.1,52.9
80.75,593.7,552.3,687.1,611.0,69.0
81.0,600.6,587.0,644.9,610.9,30.3
81.25,602.3,578.1,661.5,613.9,42.9
81.5,604.7,597.0,667.6,623.1,38.7
81.75,607.4,600.4,639.5,615.8,20.9
82.0,616.4,609.3,643.9,623.2,18.3
82.25,614.9,623.9,646.1,628.3,16.1
82.5,615.3,592.2,660.0,622.5,34.5
82.75,612.8,614.7,648.3,625.3,19.9
83.0,596.2,627.5,656.9,626.9,30.4
83.25,602.2,610.5,664.2,625.7,33.6
83.5,596.2,637.7,674.7,636.2,39.2
83.75,600.3,620.4,645.5,622.1,22.6
84.0,590.8,625.1,667.7,627.9,38.5
84.25,603.8,613.9,649.0,622.2,23.7
84.5,629.1,634.7,664.2,642.7,18.8
84.75,608.3,634.4,649.6,630.7,20.9
85.0,622.4,634.7,638.5,631.8,8.4
85.25,615.4,640.6,681.5,645.8,33.4
85.5,594.5,638.7,662.0,631.7,34.3
85.75,579.5,646.9,660.9,629.1,43.5
86.0,622.7,656.3,642.2,640.4,16.9
86.25,612.7,642.7,635.6,630.3,15.7
86.5,577.8,683.6,664.0,641.8,56.3
86.75,590.8,666.2,671.5,642.8,45.1
87.0,616.2,661.9,655.8,644.6,24.8
87.25,588.1,681.4,663.9,644.4,49.6
87.5,586.4,678.1,655.5,640.0,47.8
87.75,600.9,651.3,673.8,642.0,37.3
88.0,587.0,657.8,658.3,634.4,41.0
88.25,599.5,664.7,638.5,634.2,32.8
88.5,604.0,675.6,649.6,643.1,36.2
88.75,589.2,669.7,642.5,633.8,40.9
89.0,593.9,675.0,659.5,642.8,43.1
89.25,618.0,679.0,648.6,648.5,30.5
89.5,600.1,682.6,646.3,643.0,41.4
89.75,585.9,660.3,651.5,632.5,40.7
90.0,598.3,673.0,645.7,639.0,37.8
90.25,600.4,666.3,641.3,636.0,33.2
90.5,592.1,663.0,653.5,636.2,38.5
90.75,594.5,688.5,623.4,635.5,48.1
91.0,586.3,675.5,652.7,638.2,46.3
91.25,597.6,691.6,649.5,646.2,47.1
91.5,594.7,692.3,646.6,644.6,48.8
91.75,575.5,663.5,624.3,621.1,44.0
92.0,579.5,682.7,638.5,633.6,51.8
92.25,596.0,662.1,649.7,635.9,35.2
92.5,595.9,682.9,656.4,645.1,44.6
92.75,589.3,715.0,625.7,643.3,64.7
93.0,594.2,707.3,600.0,633.8,63.7
93.25,594.0,672.9,627.6,631.5,39.6
93.5,602.3,692.1,633.2,642.5,45.6
93.75,580.2,694.1,637.4,637.2,56.9
94.0,600.0,694.3,661.9,652.1,47.9
94.25,572.3,682.7,610.8,621.9,56.1
94.5,565.1,690.3,616.4,623.9,62.9
94.75,579.2,686.7,641.8,635.9,54.0
95.0,582.7,685.7,631.4,633.3,51.5
95.25,579.0,707.3,624.6,636.9,65.0
95.5,576.3,677.6,617.3,623.7,51.0
95.75,570.2,667.2,633.1,623.5,49.3
96.0,575.6,719.0,619.2,637.9,73.5
96.25,600.6,697.4,619.1,639.0,51.4
96.5,585.6,694.3,619.0,632.9,55.7
96.75,580.4,666.8,631.4,626.2,43.4
97.0,564.6,691.0,606.4,620.7,64.4
97.25,580.3,694.4,614.2,629.6,58.6
97.5,607.8,687.0,613.9,636.3,44.1
97.75,599.9,682.3,621.7,634.6,42.7
98.0,597.5,689.2,617.1,634.6,48.3
98.25,589.7,674.9,595.3,619.9,47.7
98.5,596.0,704.9,604.2,635.0,60.7
98.75,594.4,690.4,614.8,633.2,50.6
99.0,588.2,693.1,597.0,626.1,58.2
99.25,579.8,692.6,621.3,631.2,57.1
99.5,589.2,700.0,599.2,629.5,61.3
99.75,594.5,683.1,609.0,628.8,47.5
100.0,592.8,693.6,609.5,631.9,54.0
100.25,614.6,684.3,602.7,633.8,44.1
100.5,597.1,679.9,589.9,622.3,50.0
100.75,614.6,674.9,608.1,632.5,36.9
101.0,606.6,685.7,607.2,633.2,45.5
101.25,598.5,667.2,585.1,616.9,44.0
101.5,590.6,678.9,595.5,621.7,49.6
101.75,597.5,652.1,594.2,614.6,32.5
102.0,610.4,689.7,589.5,629.9,52.8
102.25,617.3,664.3,599.9,627.1,33.3
102.5,595.8,658.9,601.5,618.7,34.9
102.75,608.7,668.5,611.1,629.4,33.9
103.0,617.4,697.9,602.7,639.3,51.3
103.25,605.7,689.4,608.1,634.4,47.6
103.5,621.9,672.0,593.2,629.0,39.9
103.75,611.7,686.5,608.0,635.4,44.3
104.0,627.6,674.1,594.9,632.2,39.8
104.25,621.2,689.8,607.5,639.5,44.1
104.5,624.1,667.9,625.6,639.2,24.9
104.75,627.2,679.4,618.4,641.6,33.0
105.0,604.9,670.4,612.2,629.2,35.9
105.25,621.5,669.0,596.5,629.0,36.8
105.5,616.5,670.9,613.5,633.7,32.3
105.75,622.8,673.5,612.5,636.3,32.7
106.0,599.6,663.6,614.3,625.8,33.5
106.25,613.6,664.3,598.6,625.5,34.4
106.5,636.0,662.4,594.3,630.9,34.4
106.75,610.1,696.2,600.2,635.5,52.8
107.0,606.4,662.9,605.6,625.0,32.9
107.25,635.9,647.2,613.5,632.2,17.2
107.5,632.9,655.9,582.8,623.9,37.3
107.75,613.5,670.2,603.5,629.1,36.0
108.0,612.0,671.9,604.5,629.5,37.0
108.25,628.7,669.6,625.2,641.2,24.7
108.5,641.2,650.5,593.3,628.3,30.7
108.75,618.3,671.8,590.4,626.8,41.3
109.0,639.2,644.4,610.8,631.5,18.1
109.25,598.8,651.1,614.8,621.6,26.8
109.5,627.6,667.3,586.2,627.1,40.6
109.75,621.5,664.2,606.1,630.6,30.1
110.0,626.2,627.1,583.7,612.3,24.8
110.25,627.5,655.3,595.6,626.1,29.9
110.5,628.7,642.0,583.2,618.0,30.8
110.75,622.1,631.4,602.1,618.5,15.0
111.0,596.8,648.8,591.0,612.2,31.8
111.25,610.5,648.1,601.2,619.9,24.8
111.5,620.6,655.6,600.3,625.5,27.9
111.75,627.1,652.2,585.6,621.6,33.6
112.0,618.6,656.6,605.2,626.8,26.7
112.25,592.4,645.1,591.3,609.6,30.8
112.5,620.7,633.9,577.2,610.6,29.7
112.75,600.5,631.7,588.7,607.0,22.2
113.0,593.4,641.2,596.8,610.5,26.7
113.25,599.3,643.9,612.1,618.4,22.9
113.5,612.6,653.2,585.0,616.9,34.3
113.75,600.3,630.3,600.4,610.3,17.3
114.0,592.5,613.0,597.5,601.0,10.6
114.25,584.2,626.9,600.9,604.0,21.5
114.5,600.4,634.7,580.7,605.3,27.3
114.75,592.4,655.8,580.0,609.4,40.7
115.0,584.8,649.3,598.2,610.8,34.0
115.25,585.4,657.5,597.4,613.5,38.6
115.5,572.9,620.9,610.1,601.3,25.2
115.75,595.2,632.4,594.2,607.3,21.8
116.0,578.6,627.5,581.4,595.8,27.4
116.25,573.7,651.2,592.5,605.8,40.4
116.5,558.9,648.3,591.0,599.4,45.3
116.75,563.1,622.8,597.5,594.5,30.0
117.0,589.0,630.1,588.9,602.6,23.8
117.25,578.4,611.0,601.6,597.0,16.8
117.5,575.4,635.4,587.4,599.4,31.7
117.75,551.0,627.5,592.7,590.4,38.3
118.0,568.3,624.4,573.2,588.6,31.1
118.25,567.5,634.7,577.8,593.3,36.2
118.5,578.0,630.3,579.0,595.8,29.9
118.75,567.3,624.2,563.6,585.0,34.0
119.0,563.6,623.3,574.9,587.3,31.7
119.25,542.3,619.1,573.9,578.4,38.6
119.5,561.9,612.4,564.8,579.7,28.4
119.75,554.2,624.1,582.1,586.8,35.2
120.0,547.6,601.2,582.0,576.9,27.2
120.25,548.1,605.4,580.8,578.1,28.7
120.5,558.5,624.3,563.9,582.3,36.5
120.75,530.1,626.7,583.3,580.0,48.4
121.0,539.9,601.6,563.5,568.3,31.1
121.25,547.0,616.3,550.7,571.3,39.0
121.5,535.0,622.3,553.4,570.2,46.0
121.75,543.2,610.1,567.4,573.6,33.9
122.0,536.1,618.1,563.3,572.5,41.8
122.25,536.7,620.0,575.3,577.4,41.7
122.5,530.6,637.1,562.4,576.7,54.7
122.75,529.8,599.9,572.8,567.5,35.4
123.0,526.1,612.7,572.0,570.3,43.4
123.25,537.1,601.1,545.4,561.2,34.8
123.5,525.8,588.9,552.0,555.6,31.7
123.75,514.5,628.2,553.9,565.5,57.7
124.0,512.6,607.6,552.6,557.6,47.7
124.25,516.2,610.5,550.9,559.2,47.7
124.5,516.4,583.8,560.0,553.4,34.2
124.75,507.4,608.3,527.1,547.6,53.5
125.0,508.5,617.9,550.5,559.0,55.2
125.25,526.0,601.6,555.9,561.2,38.1
125.5,511.6,602.2,537.0,550.3,46.7
125.75,504.3,604.0,561.4,556.6,50.0
126.0,507.6,603.7,534.2,548.5,49.6
126.25,502.0,614.6,563.8,560.1,56.4
126.5,514.9,595.5,534.0,548.1,42.1
126.75,504.2,617.5,543.7,555.1,57.5
127.0,502.1,610.8,529.5,547.4,56.5
127.25,505.9,611.0,532.9,550.0,54.6
127.5,496.3,602.5,542.4,547.1,53.2
127.75,497.8,611.5,546.2,551.8,57.0
128.0,496.9,608.8,532.1,546.0,57.2
128.25,494.0,615.6,543.1,550.9,61.2
128.5,479.2,593.8,536.6,536.5,57.3
128.75,486.6,606.1,537.2,543.3,60.0
129.0,494.7,614.8,544.1,551.2,60.4
129.25,492.9,620.8,541.4,551.7,64.6
129.5,485.9,604.5,542.8,544.4,59.3
129.75,475.2,608.7,539.8,541.2,66.8
130.0,483.2,610.4,535.0,542.9,64.0
130.25,494.5,602.4,530.5,542.5,54.9
130.5,488.5,592.7,555.1,545.4,52.8
130.75,489.7,615.7,554.3,553.2,63.0
131.0,488.6,607.8,543.4,546.6,59.7
131.25,486.6,593.0,535.4,538.4,53.3
131.5,488.1,593.0,533.0,538.0,52.6
131.75,476.2,598.7,549.1,541.3,61.6
132.0,484.8,592.8,543.4,540.4,54.1
132.25,478.8,594.9,546.4,540.0,58.3
132.5,480.5,593.4,534.3,536.0,56.5
132.75,473.3,596.4,555.3,541.7,62.7
133.0,477.2,617.5,533.5,542.8,70.6
133.25,470.7,594.1,548.7,537.8,62.4
133.5,472.9,583.3,531.9,529.3,55.2
133.75,488.7,603.0,536.6,542.7,57.4
134.0,480.7,581.4,531.9,531.4,50.3
134.25,474.9,607.8,529.9,537.6,66.8
134.5,476.3,589.2,526.8,530.8,56.6
134.75,486.0,582.3,530.4,532.9,48.2
135.0,469.0,584.4,524.6,526.0,57.7
135.25,472.3,580.0,531.5,527.9,53.9
135.5,468.3,594.3,527.9,530.2,63.0
135.75,483.6,606.9,518.3,536.3,63.6
136.0,474.4,583.1,537.7,531.7,54.6
136.25,479.3,593.8,533.2,535.4,57.3
136.5,480.2,571.4,537.8,529.8,46.2
136.75,476.1,596.6,523.9,532.2,60.7
137.0,477.6,592.5,536.4,535.5,57.4
137.25,469.6,585.6,528.9,528.0,58.0
137.5,471.2,597.4,532.3,533.6,63.1
137.75,465.7,592.6,528.9,529.1,63.4
138.0,464.9,590.4,524.6,526.6,62.8
138.25,471.8,596.2,531.6,533.2,62.2
138.5,477.2,584.0,525.7,529.0,53.5
138.75,459.9,586.7,535.9,527.5,63.8
139.0,477.0,570.4,517.2,521.6,46.9
139.25,472.0,598.3,521.8,530.7,63.6
139.5,469.0,583.2,532.2,528.1,57.2
139.75,461.3,583.4,551.3,532.0,63.3
140.0,464.8,578.3,540.6,527.9,57.8
140.25,468.2,578.6,528.1,525.0,55.3
140.5,466.6,593.6,533.3,531.2,63.5
140.75,464.8,578.3,536.8,526.7,57.4
141.0,478.7,563.3,520.9,521.0,42.3
141.25,461.9,580.0,526.0,522.6,59.1
141.5,466.6,596.1,545.2,536.0,65.3
141.75,469.7,585.4,525.7,526.9,57.9
142.0,465.0,562.5,520.2,515.9,48.9
142.25,483.1,572.5,537.9,531.2,45.1
142.5,477.9,582.4,551.8,537.4,53.7
142.75,468.5,588.5,545.1,534.0,60.7
143.0,459.2,558.3,528.5,515.3,50.8
143.25,454.0,573.2,535.2,520.8,60.9
143.5,463.7,585.1,545.3,531.4,61.8
143.75,470.2,594.7,546.6,537.2,62.8
144.0,469.7,592.2,523.6,528.5,61.4
144.25,469.1,587.6,545.1,533.9,60.1
144.5,468.2,578.8,532.7,526.6,55.5
144.75,459.7,598.7,528.0,528.8,69.5
145.0,462.9,567.8,533.4,521.4,53.4
145.25,471.1,574.5,551.1,532.2,54.2
145.5,483.3,579.8,532.3,531.8,48.2
145.75,471.8,580.4,532.9,528.3,54.4
146.0,474.3,573.1,538.6,528.7,50.2
146.25,471.1,566.8,527.9,522.0,48.1
146.5,478.3,581.9,541.4,533.9,52.2
146.75,465.9,592.8,538.3,532.3,63.6
147.0,464.1,571.3,564.9,533.4,60.1
147.25,454.2,579.5,528.4,520.7,63.0
147.5,468.3,564.2,533.5,522.0,49.0
147.75,479.1,568.4,549.6,532.4,47.1
148.0,478.5,571.9,553.7,534.7,49.5
148.25,474.0,581.5,562.0,539.2,57.3
148.5,463.8,567.9,547.2,526.3,55.1
148.75,482.3,595.9,542.5,540.2,56.8
149.0,464.3,577.8,547.7,529.9,58.8
149.25,485.6,567.1,545.9,532.9,42.3
149.5,471.4,592.1,561.6,541.7,62.8
149.75,466.3,581.7,543.5,530.5,58.8
150.0,472.1,568.7,560.3,533.7,53.5
150.25,460.9,555.3,524.8,513.7,48.2
150.5,462.6,574.3,528.0,521.6,56.1
150.75,464.8,580.6,550.6,532.0,60.1
151.0,469.7,561.8,541.1,524.2,48.3
151.25,465.1,587.9,549.1,534.0,62.8
151.5,462.7,573.1,542.9,526.2,57.1
151.75,469.9,569.3,546.8,528.7,52.1
152.0,471.0,563.4,544.9,526.4,48.9
152.25,485.6,567.4,557.5,536.8,44.6
152.5,477.6,582.9,546.5,535.7,53.5
152.75,474.5,578.2,529.9,527.5,51.9
153.0,469.1,592.4,535.4,532.3,61.7
153.25,475.0,571.1,529.5,525.2,48.2
153.5,466.8,572.5,557.2,532.1,57.1
153.75,467.8,580.4,544.0,530.7,57.5
154.0,469.4,589.5,548.9,535.9,61.0
154.25,461.1,574.7,548.1,528.0,59.4
154.5,477.3,588.2,537.7,534.4,55.6
154.75,479.9,562.5,542.2,528.2,43.1
155.0,468.4,583.7,538.6,530.2,58.1
155.25,463.9,574.3,549.2,529.2,57.9
155.5,477.2,584.4,522.0,527.9,53.8
155.75,469.3,592.8,530.4,530.8,61.7
156.0,482.1,561.6,529.1,524.3,40.0
156.25,471.1,564.9,546.9,527.7,49.8
156.5,472.3,585.7,548.6,535.5,57.8
156.75,489.5,584.3,539.0,537.6,47.4
157.0,470.2,557.1,524.5,517.3,43.9
157.25,487.5,583.8,532.7,534.6,48.2
157.5,480.6,572.7,535.1,529.4,46.3
157.75,484.6,567.7,544.2,532.2,42.9
158.0,469.8,591.0,538.4,533.1,60.8
158.25,464.0,587.3,544.4,531.9,62.6
158.5,470.8,577.7,542.5,530.3,54.5
158.75,480.9,582.0,528.6,530.5,50.6
159.0,465.1,567.8,549.7,527.5,54.8
159.25,473.3,580.7,541.0,531.7,54.3
159.5,476.0,588.0,541.2,535.1,56.2
159.75,464.4,591.0,534.7,530.0,63.5
160.0,463.8,585.6,561.7,537.1,64.5
160.25,493.8,560.9,549.5,534.8,35.9
160.5,472.5,585.2,555.6,537.8,58.4
160.75,486.1,579.5,555.6,540.4,48.5
161.0,471.2,592.4,542.0,535.2,60.9
161.25,478.5,579.4,556.6,538.2,52.9
161.5,482.8,566.5,557.0,535.4,45.8
161.75,489.3,579.9,551.5,540.2,46.3
162.0,486.3,586.6,553.1,542.0,51.1
162.25,483.0,582.2,559.9,541.7,52.1
162.5,484.7,581.3,525.8,530.6,48.5
162.75,500.5,582.6,561.0,548.1,42.6
163.0,482.3,565.1,544.7,530.7,43.2
163.25,486.5,584.1,558.6,543.1,50.6
163.5,493.5,581.4,559.5,544.8,45.8
163.75,493.3,575.7,562.0,543.7,44.1
164.0,482.7,555.3,574.0,537.3,48.2
164.25,500.0,575.9,545.2,540.4,38.2
164.5,491.5,583.0,546.0,540.2,46.0
164.75,497.1,575.4,567.1,546.5,43.0
165.0,507.9,570.0,557.6,545.2,32.9
165.25,495.3,568.3,561.7,541.8,40.4
165.5,494.7,577.6,555.3,542.5,42.9
165.75,487.2,566.5,568.2,540.6,46.2
166.0,483.0,587.2,562.6,544.3,54.5
166.25,492.4,567.7,542.5,534.2,38.3
166.5,491.6,568.4,563.8,541.3,43.1
166.75,478.9,578.3,557.6,538.3,52.5
167.0,514.3,562.6,573.4,550.1,31.5
167.25,496.0,575.9,554.6,542.2,41.4
167.5,481.5,570.3,565.3,539.0,49.9
167.75,503.4,566.2,581.1,550.3,41.2
168.0,482.1,573.0,584.7,546.6,56.2
168.25,504.9,578.9,577.4,553.7,42.3
168.5,486.0,574.5,573.3,544.6,50.7
168.75,498.4,572.7,573.4,548.2,43.1
169.0,490.2,567.4,581.0,546.2,49.0
169.25,510.0,580.3,572.9,554.4,38.6
169.5,497.9,571.9,593.0,554.3,50.0
169.75,494.6,560.3,576.1,543.6,43.2
170.0,500.0,588.8,564.5,551.1,45.9
170.25,500.5,573.2,586.3,553.3,46.2
170.5,503.1,580.1,591.5,558.3,48.1
170.75,503.9,579.9,565.2,549.7,40.3
171.0,503.1,578.6,585.8,555.9,45.8
171.25,500.8,591.4,583.5,558.5,50.2
171.5,524.8,590.6,570.0,561.8,33.7
171.75,496.6,587.1,590.0,557.9,53.1
172.0,505.4,600.1,583.6,563.0,50.6
172.25,512.7,591.3,576.5,560.1,41.8
172.5,498.4,595.5,593.4,562.4,55.5
172.75,506.2,594.6,577.9,559.6,47.0
173.0,508.5,572.9,577.9,553.1,38.7
173.25,508.1,606.9,580.1,565.0,51.1
173.5,505.7,606.1,565.6,559.1,50.5
173.75,503.9,612.2,580.5,565.5,55.6
174.0,503.4,593.7,580.8,559.3,48.8
174.25,502.6,597.8,585.9,562.1,51.9
174.5,505.1,596.0,570.5,557.2,46.9
174.75,505.1,598.5,585.9,563.2,50.7
175.0,506.0,622.5,571.9,566.8,58.4
175.25,489.1,617.8,608.1,571.7,71.7
175.5,503.0,620.1,586.8,570.0,60.4
175.75,497.4,608.1,596.2,567.3,60.8
176.0,505.0,585.5,573.9,554.8,43.5
176.25,496.4,617.4,586.8,566.9,62.9
176.5,495.3,608.3,579.5,561.0,58.7
176.75,493.4,594.9,574.8,554.3,53.8
177.0,481.8,615.3,588.4,561.8,70.6
177.25,501.1,600.0,582.4,561.2,52.8
177.5,497.4,599.5,572.8,556.6,52.9
177.75,498.9,615.9,575.8,563.5,59.4
178.0,510.8,608.1,587.6,568.8,51.3
178.25,507.7,602.3,570.2,560.0,48.1
178.5,488.9,624.9,566.7,560.2,68.2
178.75,489.0,598.9,591.3,559.7,61.4
179.0,498.8,586.2,587.6,557.5,50.8
179.25,489.3,588.4,571.1,549.6,52.9
179.5,494.6,593.6,589.4,559.2,56.0
179.75,499.2,598.5,588.6,562.1,54.7
180.0,503.6,601.2,565.1,556.6,49.4
180.25,505.0,603.6,569.1,559.2,50.0
180.5,509.9,596.5,592.4,566.3,48.8
180.75,509.9,608.9,581.0,566.6,51.1
181.0,516.1,598.3,602.7,572.4,48.8
181.25,510.0,603.4,607.0,573.5,55.0
181.5,516.9,592.0,594.1,567.7,44.0
181.75,505.9,573.1,593.5,557.5,45.8
182.0,521.7,594.7,589.7,568.7,40.8
182.25,513.4,595.2,597.7,568.8,48.0
182.5,514.2,597.6,596.5,569.5,47.8
182.75,513.9,582.4,574.2,556.8,37.4
183.0,508.1,584.3,606.5,566.3,51.6
183.25,526.4,611.3,610.8,582.8,48.9
183.5,522.7,587.4,590.5,566.9,38.3
183.75,506.8,589.1,612.0,569.3,55.3
184.0,524.0,580.4,609.0,571.2,43.2
184.25,523.1,592.8,607.8,574.6,45.2
184.5,524.4,583.1,608.9,572.2,43.3
184.75,529.5,579.1,622.6,577.0,46.6
185.0,520.1,587.9,599.1,569.0,42.7
185.25,517.1,592.9,624.0,578.0,55.0
185.5,515.8,602.0,626.9,581.6,58.3
185.75,518.7,609.1,615.6,581.1,54.2
186.0,530.8,590.0,614.3,578.4,42.9
186.25,521.8,598.1,640.8,586.9,60.3
186.5,526.9,590.6,634.0,583.8,53.8
186.75,530.8,586.6,627.9,581.8,48.7
187.0,517.1,602.3,635.8,585.0,61.2
187.25,531.6,600.1,640.0,590.5,54.8
187.5,527.5,600.3,646.1,591.3,59.8
187.75,522.0,605.3,635.3,587.5,58.7
188.0,517.1,595.8,644.7,585.9,64.4
188.25,516.7,600.4,659.5,592.2,71.7
188.5,524.3,588.8,671.4,594.8,73.7
188.75,529.8,594.6,659.4,594.6,64.8
189.0,524.7,586.0,660.4,590.4,67.9
189.25,521.4,590.3,682.8,598.2,81.0
189.5,531.2,605.7,671.1,602.7,70.0
189.75,524.5,592.3,653.2,590.0,64.3
190.0,536.1,593.3,692.9,607.5,79.3
190.25,539.3,608.5,660.4,602.7,60.7
190.5,534.7,618.1,668.1,607.0,67.4
190.75,521.6,610.4,670.9,601.0,75.1
191.0,524.3,613.2,712.4,616.6,94.1
191.25,516.8,633.5,703.5,617.9,94.4
191.5,524.0,633.0,669.3,608.8,75.7
191.75,520.9,622.5,707.5,617.0,93.4
192.0,524.8,624.1,704.1,617.7,89.9
192.25,519.8,628.1,713.8,620.5,97.2
192.5,530.4,630.3,721.5,627.4,95.6
192.75,530.1,632.5,733.5,632.0,101.7
193.0,528.4,651.9,727.1,635.8,100.3
193.25,505.7,633.2,733.7,624.2,114.2
193.5,525.8,665.8,742.9,644.8,110.1
193.75,522.6,661.2,764.9,649.6,121.6
194.0,538.6,633.1,747.3,639.6,104.5
194.25,539.4,656.9,745.2,647.2,103.3
194.5,539.2,656.0,768.1,654.5,114.5
194.75,540.8,650.4,768.0,653.1,113.6
195.0,536.3,666.7,765.5,656.1,115.0
195.25,539.2,668.2,785.8,664.4,123.4
195.5,546.3,653.1,783.1,660.8,118.6
195.75,555.0,672.2,761.2,662.8,103.4
196.0,544.2,674.5,785.2,668.0,120.7
196.25,554.5,641.7,786.7,660.9,117.3
196.5,552.2,665.9,791.5,669.9,119.7
196.75,554.9,671.6,808.0,678.2,126.7
197.0,567.2,671.6,760.4,666.4,96.7
197.25,556.7,679.9,799.3,678.6,121.3
197.5,561.4,653.9,780.3,665.2,109.9
197.75,577.2,686.4,803.2,688.9,113.0
198.0,585.1,685.4,819.2,696.6,117.5
198.25,582.1,672.3,812.9,689.1,116.3
198.5,583.8,670.3,842.1,698.7,131.5
198.75,576.7,680.8,836.6,698.0,130.8
199.0,579.2,689.8,815.4,694.8,118.2
199.25,594.5,700.4,836.4,710.4,121.3
199.5,605.6,686.9,814.7,702.4,105.4
199.75,600.7,682.3,821.9,701.6,111.9
200.0,605.2,696.1,826.2,709.2,111.1
200.25,616.8,676.4,851.3,714.8,121.8
200.5,617.5,694.6,824.8,712.3,104.8
200.75,610.2,678.8,819.8,702.9,106.8
201.0,630.9,698.8,844.0,724.5,108.8
201.25,618.8,704.2,837.7,720.2,110.3
201.5,627.1,685.2,868.4,726.9,126.0
201.75,631.5,711.5,841.7,728.2,106.1
202.0,623.3,702.2,848.6,724.7,114.3
202.25,615.2,704.3,844.4,721.3,115.6
202.5,634.8,716.3,820.5,723.9,93.1
202.75,637.4,723.8,864.8,742.0,114.8
203.0,641.9,718.9,848.2,736.3,104.2
203.25,652.6,722.4,864.7,746.6,108.1
203.5,656.4,702.5,857.3,738.8,105.3
203.75,649.0,719.6,834.8,734.5,93.8
204.0,659.0,717.0,853.4,743.1,99.8
204.25,635.4,728.0,856.6,740.0,111.1
204.5,638.0,725.0,840.3,734.5,101.5
204.75,645.4,739.1,875.7,753.4,115.8
205.0,651.5,724.7,880.0,752.1,116.7
205.25,644.0,720.4,867.7,744.1,113.7
205.5,634.5,754.2,835.1,741.3,100.9
205.75,641.8,714.1,833.5,729.8,96.8
206.0,658.0,752.3,864.7,758.3,103.5
206.25,652.9,746.0,858.0,752.3,102.7
206.5,628.5,730.8,860.1,739.8,116.1
206.75,670.6,722.3,844.2,745.7,89.1
207.0,667.3,779.0,848.3,764.9,91.3
207.25,669.8,765.4,880.2,771.8,105.3
207.5,669.2,774.6,847.5,763.8,89.6
207.75,677.2,742.6,825.3,748.4,74.2
208.0,662.3,765.4,830.9,752.9,85.0
208.25,684.0,755.9,831.3,757.1,73.7
208.5,675.9,733.3,853.4,754.2,90.5
208.75,673.6,763.6,849.8,762.3,88.1
209.0,699.5,779.2,812.9,763.8,58.2
209.25,696.3,763.2,836.3,765.3,70.0
209.5,705.5,761.8,826.5,764.6,60.5
209.75,698.9,783.9,836.2,773.0,69.3
210.0,714.2,776.3,839.7,776.7,62.7
210.25,705.4,766.1,837.7,769.7,66.2
210.5,714.6,784.6,830.4,776.5,58.3
210.75,715.3,790.9,833.8,780.0,60.0
211.0,739.2,802.6,827.8,789.9,45.7
211.25,705.4,827.9,803.0,778.7,64.7
211.5,745.3,804.8,829.0,793.0,43.0
211.75,721.3,784.2,820.8,775.5,50.3
212.0,722.2,856.5,813.3,797.3,68.6
212.25,741.0,821.4,817.4,793.2,45.3
212.5,718.7,838.2,829.5,795.5,66.6
212.75,755.5,812.5,782.2,783.4,28.5
213.0,760.1,825.9,817.1,801.0,35.7
213.25,744.3,829.8,789.5,787.9,42.8
213.5,753.0,864.2,811.3,809.5,55.6
213.75,763.3,790.7,782.1,778.7,14.0
214.0,768.3,845.1,794.6,802.6,39.0
214.25,792.9,834.0,781.5,802.8,27.6
214.5,831.3,848.4,790.8,823.5,29.6
214.75,787.4,850.2,791.5,809.7,35.1
215.0,790.2,841.9,787.0,806.4,30.8
215.25,787.8,843.9,777.2,803.0,35.8
215.5,850.3,826.0,774.2,816.8,38.9
215.75,832.5,877.3,772.8,827.5,52.4
216.0,765.6,858.0,747.5,790.4,59.3
216.25,806.3,840.6,764.8,803.9,38.0
216.5,811.0,846.5,736.6,798.0,56.1
216.75,846.9,861.4,757.3,821.9,56.4
217.0,804.2,844.1,763.1,803.8,40.5
217.25,860.2,862.1,753.4,825.2,62.2
217.5,857.0,858.8,739.1,818.3,68.6
217.75,816.2,864.8,727.0,802.7,69.9
218.0,836.9,877.0,725.4,813.1,78.5
218.25,888.0,852.8,713.7,818.2,92.2
218.5,887.2,854.0,702.4,814.5,98.5
218.75,836.9,847.3,710.4,798.2,76.2
219.0,839.2,873.2,700.1,804.2,91.8
219.25,842.1,889.4,722.7,818.0,85.9
219.5,839.4,894.1,690.9,808.2,105.2
219.75,855.5,899.9,691.9,815.8,109.5
220.0,855.0,906.2,677.4,812.9,120.0
220.25,813.3,873.4,689.2,792.0,93.9
220.5,861.4,858.8,681.7,800.6,103.0
220.75,844.2,881.8,683.4,803.1,105.4
221.0,860.9,885.2,689.4,811.8,106.7
221.25,828.7,885.6,669.7,794.7,111.9
221.5,829.9,883.0,650.6,787.8,121.8
221.75,861.9,874.5,680.3,805.6,108.6
222.0,865.1,870.7,659.0,798.3,120.6
222.25,836.3,853.6,667.6,785.8,102.7
222.5,839.5,882.0,661.2,794.2,117.1
222.75,879.7,857.9,644.5,794.0,130.0
223.0,854.5,853.1,639.6,782.4,123.7
223.25,861.0,861.2,634.8,785.7,130.7
223.5,849.6,855.3,635.0,780.0,125.6
223.75,878.1,844.2,622.5,781.6,138.8
224.0,841.0,836.5,614.5,764.0,129.5
224.25,911.8,846.3,606.8,788.3,160.6
224.5,863.7,848.6,611.2,774.5,141.6
224.75,864.6,837.5,603.5,768.5,143.6
225.0,875.5,822.2,592.1,763.3,150.6
225.25,893.2,824.4,607.5,775.0,149.1
225.5,847.7,801.0,604.0,750.9,129.4
225.75,866.6,851.5,600.8,773.0,149.3
226.0,838.3,829.2,603.5,757.0,133.0
226.25,873.5,828.0,594.7,765.4,149.6
226.5,838.8,822.2,587.9,749.6,140.3
226.75,872.7,808.9,587.6,756.4,149.6
227.0,863.4,815.8,581.7,753.7,150.8
227.25,877.9,829.6,581.3,762.9,159.2
227.5,880.6,810.4,571.2,754.1,162.2
227.75,872.1,806.9,569.1,749.4,159.5
228.0,837.6,793.4,566.7,732.6,145.3
228.25,847.4,797.3,576.4,740.4,144.2
228.5,838.8,794.8,563.9,732.5,147.7
228.75,838.1,801.4,546.7,728.7,158.7
229.0,832.6,791.6,551.1,725.1,152.1
229.25,850.8,798.6,559.3,736.2,155.5
229.5,839.8,773.7,547.8,720.4,153.1
229.75,850.6,769.6,539.7,720.0,161.3
230.0,833.8,784.4,533.6,717.3,161.0
230.25,832.6,775.5,528.7,712.3,161.5
230.5,815.2,772.0,540.1,709.1,147.9
230.75,839.7,743.9,525.1,702.9,161.3
231.0,829.0,735.9,519.8,694.9,158.7
231.25,794.5,797.8,518.7,703.7,160.2
231.5,801.0,752.3,518.0,690.5,151.3
231.75,836.0,749.9,518.3,701.4,164.3
232.0,821.4,740.0,508.4,689.9,162.4
232.25,797.9,746.4,494.9,679.7,162.2
232.5,814.2,726.8,517.5,686.2,152.5
232.75,800.5,729.2,494.1,674.6,160.3
233.0,773.2,735.4,490.8,666.5,153.3
233.25,774.3,729.6,511.2,671.7,140.8
233.5,789.6,731.0,499.6,673.4,153.3
233.75,783.6,716.5,498.6,666.3,149.0
234.0,779.3,717.4,485.6,660.8,154.8
234.25,772.8,724.4,480.3,659.2,156.8
234.5,777.8,723.5,485.9,662.4,155.3
234.75,771.3,704.7,481.7,652.5,151.7
235.0,771.1,722.0,473.3,655.5,159.6
235.25,775.5,707.1,471.1,651.2,159.7
235.5,742.3,704.8,475.2,640.8,144.6
235.75,742.9,691.3,470.7,635.0,144.6
236.0,750.0,689.7,475.2,638.3,144.4
236.25,737.2,685.9,462.0,628.4,146.3
236.5,732.7,686.1,466.3,628.3,142.3
236.75,737.8,686.8,475.1,633.2,139.3
237.0,729.8,680.3,458.5,622.9,144.5
237.25,724.7,697.9,463.0,628.5,144.0
237.5,707.1,682.0,464.3,617.8,133.5
237.75,713.6,670.6,457.6,613.9,137.1
238.0,718.2,649.6,452.8,606.9,137.8
238.25,714.6,658.5,456.8,610.0,135.6
238.5,711.6,659.7,455.5,608.9,135.4
238.75,688.6,662.9,450.9,600.8,130.5
239.0,706.7,655.0,449.8,603.8,135.9
239.25,698.5,646.2,451.5,598.7,130.2
239.5,698.1,638.6,440.0,592.2,135.1
239.75,685.9,628.4,450.7,588.3,122.6
240.0,687.2,636.4,443.2,589.0,128.7
240.25,686.3,623.8,440.3,583.5,127.9
240.5,674.4,611.9,432.8,573.0,125.4
240.75,678.9,620.4,437.8,579.1,125.8
241.0,699.5,608.6,438.4,582.2,132.5
241.25,683.7,608.3,441.9,578.0,123.7
241.5,665.8,597.1,433.0,565.3,119.6
241.75,684.9,596.4,429.3,570.2,129.8
242.0,652.9,580.7,439.1,557.6,108.8
242.25,667.3,590.6,435.4,564.4,118.1
242.5,669.5,584.8,424.2,559.5,124.6
242.75,659.4,588.0,425.5,557.6,119.9
243.0,672.3,565.9,425.2,554.5,123.9
243.25,667.3,574.0,428.1,556.5,120.6
243.5,676.7,574.1,427.7,559.5,125.2
243.75,647.2,564.6,419.2,543.6,115.4
244.0,659.3,549.9,424.6,544.6,117.4
244.25,649.2,567.8,421.4,546.1,115.5
244.5,660.7,564.5,420.2,548.5,121.0
244.75,648.9,552.4,425.4,542.2,112.1
245.0,654.6,543.6,410.2,536.1,122.4
245.25,657.1,545.9,420.0,541.0,118.6
245.5,652.3,547.6,416.0,538.6,118.4
245.75,661.5,533.9,411.6,535.7,125.0
246.0,650.1,544.9,400.0,531.7,125.6
246.25,661.5,526.0,408.9,532.1,126.4
246.5,652.5,523.7,403.8,526.7,124.4
246.75,658.5,527.1,407.4,531.0,125.6
247.0,633.1,523.6,402.1,519.6,115.6
247.25,649.8,509.0,403.6,520.8,123.5
247.5,640.6,513.8,399.6,518.0,120.6
247.75,659.7,503.9,402.9,522.2,129.4
248.0,633.4,494.3,397.2,508.3,118.7
248.25,635.6,498.0,384.8,506.1,125.6
248.5,645.0,494.6,398.3,512.6,124.3
248.75,633.4,489.1,396.7,506.4,119.3
249.0,645.9,494.2,386.1,508.7,130.5
249.25,629.9,478.9,386.0,498.3,123.1
249.5,635.1,486.9,387.0,503.0,124.8
249.75,622.3,470.9,385.8,493.0,119.8
250.0,625.8,479.7,385.0,496.8,121.3
250.25,631.5,472.9,384.8,496.4,125.0
250.5,619.9,479.0,385.5,494.8,118.0
250.75,617.7,473.3,385.6,492.2,117.2
251.0,619.2,465.3,381.2,488.6,120.7
251.25,608.4,475.2,379.5,487.7,115.0
251.5,600.1,461.9,372.5,478.2,114.7
251.75,601.8,451.8,372.5,475.4,116.5
252.0,591.0,456.5,372.1,473.2,110.4
252.25,595.5,451.2,370.0,472.3,114.2
252.5,585.6,460.8,368.9,471.8,108.8
252.75,588.2,449.3,362.1,466.5,114.1
253.0,579.1,446.4,366.7,464.1,107.3
253.25,572.5,451.2,359.5,461.1,106.8
253.5,563.9,446.6,358.0,456.2,103.3
253.75,575.1,443.7,359.8,459.5,108.5
254.0,565.1,438.5,357.5,453.7,104.6
254.25,557.0,436.1,358.9,450.7,99.8
254.5,557.8,429.5,354.4,447.2,102.8
254.75,556.8,436.1,351.8,448.2,103.1
255.0,551.7,426.5,345.9,441.4,103.7
255.25,550.7,420.4,348.2,439.8,102.7
255.5,540.6,427.0,342.5,436.7,99.4
255.75,541.9,423.4,340.8,435.4,101.1
256.0,530.7,420.7,341.6,431.0,95.0
256.25,533.5,423.3,346.2,434.3,94.1
256.5,522.0,414.6,339.1,425.2,91.9
256.75,525.5,408.3,336.2,423.3,95.5
257.0,515.2,406.3,337.0,419.5,89.8
257.25,508.5,405.3,328.3,414.0,90.4
257.5,516.3,405.6,327.1,416.3,95.1
257.75,514.6,403.5,324.6,414.2,95.5
258.0,500.4,409.0,323.6,411.0,88.4
258.25,490.8,391.5,322.6,401.6,84.6
258.5,485.1,388.5,320.7,398.1,82.6
258.75,484.5,390.3,319.3,398.0,82.9
259.0,475.1,386.7,318.9,393.5,78.3
259.25,472.9,389.0,314.6,392.2,79.2
259.5,484.3,388.5,308.3,393.7,88.1
259.75,462.5,381.7,312.7,385.6,74.9
260.0,464.1,374.3,317.0,385.1,74.2
260.25,449.4,386.2,315.0,383.5,67.3
260.5,454.5,377.5,306.2,379.4,74.2
260.75,450.7,379.0,307.7,379.2,71.5
261.0,447.5,370.3,308.0,375.2,69.9
261.25,434.0,372.4,306.3,370.9,63.9
261.5,444.6,371.3,293.4,369.8,75.6
261.75,438.8,363.8,298.1,366.9,70.4
262.0,431.2,364.6,298.4,364.7,66.4
262.25,430.4,359.4,298.9,362.9,65.8
262.5,429.0,364.3,293.9,362.4,67.6
262.75,427.4,354.4,294.8,358.9,66.4
263.0,419.5,352.4,289.0,353.6,65.3
263.25,426.4,351.7,286.3,354.8,70.1
263.5,416.4,339.5,289.6,348.5,63.9
263.75,418.8,346.4,284.0,349.7,67.4
264.0,401.5,344.6,282.4,342.8,59.6
264.25,409.3,350.2,274.3,344.6,67.7
264.5,398.8,345.2,274.1,339.4,62.5
264.75,396.2,337.3,277.2,336.9,59.5
265.0,401.7,337.9,272.8,337.4,64.5
265.25,392.6,338.6,269.6,333.6,61.6
265.5,391.7,334.5,268.0,331.4,61.9
265.75,389.9,335.0,264.3,329.7,63.0
266.0,380.0,330.1,265.4,325.2,57.4
266.25,381.0,333.1,262.8,325.6,59.5
266.5,372.8,329.5,261.1,321.1,56.3
266.75,373.0,324.4,261.9,319.8,55.7
267.0,368.9,322.8,253.6,315.1,58.0
267.25,369.5,319.2,256.2,315.0,56.8
267.5,362.1,319.8,253.8,311.9,54.6
267.75,373.2,316.9,251.7,313.9,60.8
268.0,365.8,313.3,248.8,309.3,58.6
268.25,356.8,313.1,251.5,307.2,52.9
268.5,362.6,317.3,248.7,309.5,57.3
268.75,356.3,306.6,245.3,302.7,55.6
269.0,353.2,311.6,245.1,303.3,54.5
269.25,350.2,305.7,240.1,298.7,55.4
269.5,346.3,304.5,241.5,297.4,52.7
269.75,351.3,306.2,236.7,298.1,57.7
270.0,350.6,300.7,237.9,296.4,56.5
270.25,345.0,297.8,235.4,292.7,55.0
270.5,341.6,300.1,241.5,294.4,50.3
270.75,337.4,299.9,237.9,291.7,50.2
271.0,340.0,296.3,232.9,289.7,53.8
271.25,342.3,299.2,232.7,291.4,55.2
271.5,336.3,290.5,231.4,286.1,52.6
271.75,338.4,291.1,229.5,286.4,54.6
272.0,331.6,288.3,229.6,283.1,51.2
272.25,331.2,290.6,226.7,282.8,52.7
272.5,326.0,291.9,226.4,281.4,50.6
272.75,323.8,285.5,223.6,277.6,50.6
273.0,325.5,286.8,221.8,278.0,52.4
273.25,326.4,282.4,225.9,278.2,50.4
273.5,320.6,283.9,220.4,275.0,50.7
273.75,318.4,278.3,220.7,272.5,49.1
274.0,320.5,279.9,221.6,274.0,49.7
274.25,314.5,279.5,215.8,269.9,50.0
274.5,313.5,275.9,217.1,268.8,48.6
274.75,307.4,275.1,216.6,266.4,46.0
275.0,312.2,273.8,214.1,266.7,49.4
275.25,312.3,271.5,210.4,264.7,51.3
275.5,309.5,268.9,214.6,264.3,47.6
275.75,300.1,272.7,206.5,259.8,48.1
276.0,303.0,268.6,203.8,258.5,50.3
276.25,297.4,266.7,206.9,257.0,46.0
276.5,296.5,267.8,207.6,257.3,45.3
276.75,295.9,263.1,204.1,254.4,46.5
277.0,294.2,258.0,204.5,252.2,45.1
277.25,286.9,259.8,200.0,248.9,44.4
277.5,284.8,259.5,203.1,249.1,41.8
277.75,287.1,261.9,198.8,249.3,45.5
278.0,282.9,256.7,195.8,245.1,44.7
278.25,281.9,251.6,198.1,243.9,42.4
278.5,279.6,255.1,193.7,242.8,44.3
278.75,277.4,250.3,193.5,240.4,42.8
279.0,277.6,251.7,193.1,240.8,43.3
279.25,276.6,246.8,189.6,237.6,44.2
279.5,275.1,243.5,185.1,234.5,45.7
279.75,269.1,244.2,185.6,233.0,42.8
280.0,269.0,242.9,185.9,232.6,42.5
280.25,268.4,238.2,186.1,230.9,41.6
280.5,266.2,236.7,181.5,228.1,43.0
280.75,260.0,236.7,183.7,226.8,39.1
281.0,263.9,232.3,184.4,226.9,40.0
281.25,265.1,230.3,182.0,225.8,41.7
281.5,259.1,231.0,178.8,222.9,40.7
281.75,255.0,232.1,180.9,222.7,38.0
282.0,257.0,229.3,179.8,222.0,39.1
282.25,256.6,225.7,178.9,220.4,39.1
282.5,251.2,220.0,177.8,216.3,36.8
282.75,251.2,223.7,174.1,216.4,39.1
283.0,250.1,220.8,172.2,214.4,39.3
283.25,251.4,216.6,169.8,212.6,41.0
283.5,250.0,216.3,169.8,212.0,40.3
283.75,245.0,214.2,166.3,208.5,39.6
284.0,245.2,210.7,169.2,208.4,38.0
284.25,244.0,207.5,165.0,205.5,39.5
284.5,243.6,209.8,164.2,205.8,39.9
284.75,241.8,205.5,160.9,202.7,40.5
285.0,241.5,209.0,160.1,203.5,41.0
285.25,240.0,204.4,156.2,200.2,42.1
285.5,240.2,202.4,153.3,198.7,43.6
285.75,237.7,202.4,151.9,197.3,43.1
286.0,234.9,199.3,150.2,194.8,42.5
286.25,233.4,199.4,147.2,193.4,43.4
286.5,231.2,198.3,145.4,191.6,43.3
286.75,234.0,194.8,141.7,190.2,46.3
287.0,234.9,193.1,142.4,190.1,46.3
287.25,226.5,192.1,139.0,185.9,44.1
287.5,227.7,191.7,138.4,186.0,44.9
287.75,224.5,187.7,137.4,183.2,43.7
288.0,223.0,186.0,135.9,181.6,43.7
288.25,222.3,185.5,133.0,180.3,44.9
288.5,223.0,184.5,130.1,179.2,46.7
288.75,223.5,179.7,127.9,177.0,47.8
289.0,216.6,179.2,124.5,173.4,46.3
289.25,217.2,176.4,124.5,172.7,46.5
289.5,216.7,171.5,121.2,169.8,47.8
289.75,218.8,170.7,120.4,170.0,49.2
290.0,214.1,168.1,117.0,166.4,48.6
290.25,216.2,166.3,115.1,165.9,50.5
290.5,209.4,163.7,114.0,162.4,47.7
290.75,207.8,161.7,112.0,160.5,47.9
291.0,208.3,159.3,110.1,159.2,49.1
291.25,207.0,156.9,107.0,156.9,50.0
291.5,206.0,153.0,104.5,154.5,50.8
291.75,207.4,150.3,102.1,153.3,52.7
292.0,204.1,149.1,100.9,151.3,51.6
292.25,202.4,147.5,98.2,149.4,52.1
292.5,201.3,141.8,96.2,146.5,52.7
292.75,202.0,141.7,93.9,145.9,54.2
293.0,198.7,138.4,93.3,143.5,52.9
293.25,198.6,138.5,89.7,142.2,54.5
293.5,195.7,135.0,88.2,139.6,53.9
293.75,194.5,134.7,87.9,139.0,53.5
294.0,195.0,131.8,85.4,137.4,55.0
294.25,194.0,127.8,82.2,134.7,56.2
294.5,191.8,126.2,82.1,133.4,55.2
294.75,192.8,124.4,81.1,132.8,56.3
295.0,187.5,121.6,79.5,129.6,54.4
295.25,186.9,120.4,77.4,128.2,55.2
295.5,187.9,118.4,78.7,128.4,55.3
295.75,187.2,116.4,76.1,126.6,56.3
296.0,185.1,116.5,73.6,125.0,56.2
296.25,184.7,114.2,72.6,123.9,56.7
296.5,181.7,110.9,71.4,121.4,55.9
296.75,179.3,109.9,70.7,120.0,55.0
297.0,180.0,109.5,68.6,119.3,56.3
297.25,178.2,106.0,68.4,117.6,55.8
297.5,175.3,105.6,68.2,116.4,54.3
297.75,173.1,101.8,65.2,113.4,54.9
298.0,177.2,102.5,64.2,114.6,57.4
298.25,172.9,101.2,64.1,112.8,55.3
298.5,172.1,98.6,64.0,111.6,55.2
298.75,169.4,97.0,63.5,110.0,54.1
299.0,167.8,95.7,61.7,108.4,54.2
299.25,166.1,94.8,61.7,107.5,53.4
299.5,164.4,93.9,61.4,106.5,52.7
299.75,161.5,92.5,61.0,105.0,51.4
300.0,158.3,91.4,60.1,103.3,50.2
300.25,155.7,90.0,58.6,101.4,49.5
300.5,154.2,87.6,57.6,99.8,49.4
300.75,151.1,86.5,57.9,98.5,47.7
301.0,148.8,84.6,57.0,96.8,47.1
301.25,144.9,84.6,57.1,95.5,44.9
301.5,143.0,83.9,56.8,94.5,44.1
301.75,139.2,81.7,55.9,92.3,42.7
302.0,137.8,82.8,55.3,92.0,42.0
302.25,139.0,79.8,54.9,91.2,43.2
302.5,133.0,79.8,54.1,89.0,40.3
302.75,131.9,77.6,54.1,87.9,39.9
303.0,131.9,77.2,53.1,87.4,40.4
303.25,128.3,76.2,52.5,85.7,38.8
303.5,126.0,74.0,53.0,84.4,37.6
303.75,125.5,74.7,52.9,84.4,37.3
304.0,123.8,73.9,52.7,83.5,36.5
304.25,120.8,72.1,52.3,81.8,35.3
304.5,120.9,71.7,52.5,81.7,35.2
304.75,118.2,69.9,51.9,80.0,34.3
305.0,118.2,71.4,51.7,80.4,34.1
305.25,115.2,68.0,51.3,78.2,33.2
305.5,113.5,68.0,50.9,77.5,32.3
305.75,112.0,68.3,50.5,76.9,31.7
306.0,111.2,67.8,50.7,76.6,31.2
306.25,108.9,66.1,50.4,75.1,30.3
306.5,109.3,66.5,50.3,75.4,30.5
306.75,106.3,64.5,50.0,73.6,29.2
307.0,105.3,63.9,50.0,73.1,28.7
307.25,102.9,64.4,50.2,72.5,27.2
307.5,100.4,63.8,49.8,71.3,26.1
307.75,100.3,61.9,49.9,70.7,26.4
308.0,99.1,62.2,49.9,70.4,25.6
308.25,97.1,61.7,49.0,69.3,25.0
308.5,96.9,61.5,49.0,69.1,24.8
308.75,94.3,60.3,,77.3,24.0
309.0,93.3,60.6,,76.9,23.1
309.25,90.9,61.1,,76.0,21.1
309.5,89.5,60.7,,75.1,20.4
309.75,89.8,60.2,,75.0,21.0
310.0,88.8,59.9,,74.4,20.4
310.25,86.2,59.3,,72.7,19.0
310.5,85.3,59.6,,72.5,18.2
310.75,84.5,58.5,,71.5,18.4
311.0,81.7,59.6,,70.6,15.6
311.25,81.9,58.4,,70.1,16.7
311.5,81.0,58.7,,69.9,15.8
311.75,79.4,58.6,,69.0,14.7
312.0,78.8,58.7,,68.8,14.2
312.25,79.2,58.3,,68.7,14.8
312.5,78.0,56.8,,67.4,15.0
312.75,76.8,,,76.8,
313.0,75.5,,,75.5,
313.25,74.9,,,74.9,
313.5,73.8,,,73.8,
313.75,72.9,,,72.9,
314.0,72.2,,,72.2,
314.25,71.0,,,71.0,
314.5,70.3,,,70.3,
314.75,70.6,,,70.6,
315.0,68.1,,,68.1,
315.25,68.4,,,68.4,
315.5,66.6,,,66.6,
315.75,66.3,,,66.3,
316.0,64.9,,,64.9,
316.25,64.0,,,64.0,
316.5,63.9,,,63.9,
316.75,64.4,,,64.4,
317.0,62.1,,,62.1,
317.25,61.5,,,61.5,
317.5,61.0,,,61.0,
317.75,60.7,,,60.7,
318.0,60.9,,,60.9,
318.25,59.4,,,59.4,
318.5,59.9,,,59.9,
318.75,58.5,,,58.5,
319.0,58.8,,,58.8,
319.25,57.7,,,57.7,
319.5,57.8,,,57.8,
319.75,57.3,,,57.3,
320.0,57.2,,,57.2,
320.25,56.4,,,56.4,
320.5,55.9,,,55.9,
320.75,54.9,,,54.9,
321.0,55.4,,,55.4,
321.25,54.2,,,54.2,
321.5,54.7,,,54.7,
321.75,54.5,,,54.5,
322.0,53.9,,,53.9,
322.25,53.2,,,53.2,
322.5,53.1,,,53.1,
322.75,52.3,,,52.3,
323.0,52.4,,,52.4,
323.25,52.0,,,52.0,
323.5,51.3,,,51.3,