File: 01_Data/PET/Cone/PET_HRRPUA_25.csv
Time after Ignition,PET_R1,PET_R2,PET_R3,PET_R4,PET_R5,Mean,Std. Dev.
0.0,34.9,40.6,10.6,16.1,17.2,23.9,13.1
0.75,39.2,43.4,14.5,22.9,21.1,28.2,12.4
1.5,42.9,45.6,21.4,31.8,26.3,33.6,10.4
2.25,47.2,49.0,30.2,44.5,29.8,40.1,9.4
3.0,51.6,53.0,39.0,53.0,37.9,46.9,7.8
3.75,56.2,60.0,50.6,67.7,47.4,56.4,8.0
4.5,62.3,65.9,58.6,82.3,59.8,65.8,9.7
5.25,68.3,69.0,71.0,97.4,73.6,75.8,12.2
6.0,75.8,76.3,82.5,115.0,95.4,89.0,16.5
6.75,81.4,80.3,96.5,136.3,119.1,102.7,24.5
7.5,88.8,85.0,111.3,157.5,141.0,116.7,31.9
8.25,95.4,90.3,120.0,181.1,161.1,129.6,40.2
9.0,98.9,94.8,133.0,200.1,179.5,141.3,47.3
9.75,104.8,100.4,148.6,222.0,192.3,153.6,53.4
10.5,110.7,109.0,166.7,232.4,214.0,166.5,57.0
11.25,116.8,111.3,179.6,253.0,227.1,177.6,63.7
12.0,125.0,118.5,196.5,274.4,253.4,193.6,71.5
12.75,130.4,121.3,204.6,283.7,272.0,202.4,76.2
13.5,143.1,124.8,212.9,298.8,296.4,215.2,82.1
14.25,157.2,129.0,222.8,312.8,310.2,226.4,84.8
15.0,174.8,131.4,240.0,332.1,323.7,240.4,88.8
15.75,178.2,140.3,251.4,350.4,344.3,252.9,95.0
16.5,189.2,140.6,263.0,363.7,365.3,264.3,101.3
17.25,202.5,148.7,268.1,371.5,372.9,272.7,100.2
18.0,209.8,153.2,284.0,383.6,390.5,284.2,104.7
18.75,219.5,160.7,288.5,405.5,418.5,298.5,113.1
19.5,231.1,165.5,302.8,403.8,429.8,306.6,112.1
20.25,235.8,171.0,304.5,411.2,448.7,314.2,116.5
21.0,247.3,173.1,322.5,425.0,457.7,325.1,119.1
21.75,259.0,179.5,334.1,436.3,470.1,335.8,120.9
22.5,263.4,182.0,339.9,447.2,488.0,344.1,126.7
23.25,265.4,185.8,351.8,457.4,506.8,353.5,132.5
24.0,277.4,190.5,354.2,462.4,521.5,361.2,134.3
24.75,277.3,196.7,369.6,483.6,546.8,374.8,143.8
25.5,287.9,201.0,366.4,501.4,581.2,387.6,154.6
26.25,291.6,206.7,382.6,498.9,591.8,394.3,154.8
27.0,298.9,211.7,374.3,530.4,657.4,414.5,179.3
27.75,308.8,216.3,388.4,560.0,675.9,429.9,186.7
28.5,307.4,219.4,389.9,583.6,714.2,442.9,202.8
29.25,315.2,226.9,402.3,613.1,739.4,459.4,212.2
30.0,314.9,226.0,407.6,650.5,778.1,475.4,231.7
30.75,314.4,237.1,417.1,661.2,794.6,484.9,235.6
31.5,316.7,242.9,420.8,698.9,795.2,494.9,241.1
32.25,327.8,249.0,427.5,718.9,853.8,515.4,259.7
33.0,331.4,255.3,457.9,717.5,823.4,517.1,245.2
33.75,325.0,257.9,463.7,723.1,851.3,524.2,255.3
34.5,341.5,261.6,464.0,748.6,850.2,533.2,256.0
35.25,331.9,272.0,463.7,790.2,861.2,543.8,267.7
36.0,339.1,265.6,480.3,787.4,831.7,540.8,257.6
36.75,340.9,272.0,501.6,780.1,808.7,540.6,246.4
37.5,342.3,277.8,503.4,771.8,832.6,545.6,249.2
38.25,338.2,276.5,545.8,743.1,828.4,546.4,242.1
39.0,343.8,290.8,547.0,760.4,819.2,552.3,237.9
39.75,344.0,298.4,557.9,754.3,814.2,553.8,233.1
40.5,335.8,291.5,590.5,757.5,794.9,554.0,233.1
41.25,352.5,297.5,588.6,746.3,791.7,555.3,224.2
42.0,360.7,310.6,600.4,731.5,797.1,560.1,217.5
42.75,358.1,307.9,621.2,735.3,748.2,554.1,208.6
43.5,358.5,312.7,625.4,713.5,737.8,549.6,200.4
44.25,363.0,328.2,611.4,724.7,737.4,552.9,195.9
45.0,358.6,334.9,613.7,725.0,709.2,548.3,189.0
45.75,370.1,336.4,582.9,686.8,714.3,538.1,176.1
46.5,367.5,341.8,604.7,701.4,683.5,539.8,173.1
47.25,375.0,346.6,583.5,685.8,699.9,538.2,168.3
48.0,373.6,351.1,605.2,689.8,679.2,539.8,165.4
48.75,384.1,367.1,596.7,676.2,653.5,535.5,149.0
49.5,388.2,373.9,597.5,697.2,655.0,542.4,151.5
50.25,401.2,405.2,595.5,675.6,647.2,544.9,132.5
51.0,401.3,390.0,573.2,666.5,635.3,533.3,130.1
51.75,410.9,415.3,579.6,648.4,632.1,537.3,116.2
52.5,411.4,433.6,582.3,648.6,615.9,538.4,108.6
53.25,413.0,446.5,569.2,649.1,614.3,538.4,103.9
54.0,419.8,466.2,579.1,615.4,595.4,535.2,86.7
54.75,422.9,474.1,570.3,617.2,593.8,535.7,83.3
55.5,441.5,468.9,583.8,621.7,565.4,536.2,77.4
56.25,440.2,490.9,555.2,612.1,557.0,531.1,66.5
57.0,460.5,486.5,564.8,600.9,548.7,532.3,57.6
57.75,468.9,488.1,542.6,593.2,542.2,527.0,49.4
58.5,508.1,533.1,559.8,594.2,533.3,545.7,32.7
59.25,505.0,517.2,533.8,586.1,516.8,531.8,32.1
60.0,522.1,510.4,527.7,591.7,516.5,533.7,33.1
60.75,529.0,495.8,551.6,584.9,495.9,531.4,38.1
61.5,528.5,494.5,526.1,572.9,508.5,526.1,29.6
62.25,571.8,501.9,517.4,578.8,490.7,532.1,40.6
63.0,565.7,505.1,515.9,576.6,485.8,529.8,39.4
63.75,562.5,499.7,521.6,572.6,476.5,526.6,40.8
64.5,590.5,490.9,515.1,564.6,472.1,526.6,49.8
65.25,585.0,483.8,515.3,554.9,457.9,519.4,51.6
66.0,585.5,473.7,516.2,547.4,455.5,515.7,53.1
66.75,578.8,481.7,493.7,534.7,440.7,505.9,52.7
67.5,604.8,476.0,504.6,535.8,429.0,510.0,65.9
68.25,594.1,455.3,501.7,533.2,427.3,502.3,65.6
69.0,606.9,462.6,486.7,520.7,416.0,498.6,71.6
69.75,591.7,462.5,486.8,517.6,414.9,494.7,66.0
70.5,575.2,460.9,479.0,511.9,406.1,486.6,62.6
71.25,580.5,442.4,467.6,504.8,392.1,477.5,70.7
72.0,588.5,445.0,459.7,495.8,391.3,476.1,73.2
72.75,562.7,443.8,462.4,489.9,387.0,469.1,64.5
73.5,584.5,440.1,464.8,489.7,381.8,472.2,74.5
74.25,560.3,437.3,451.4,485.0,384.0,463.6,65.2
75.0,573.1,455.3,464.5,472.2,371.2,467.3,71.8
75.75,562.6,452.5,458.0,478.0,378.8,466.0,65.8
76.5,554.3,451.9,450.3,463.7,376.0,459.3,63.5
77.25,561.1,459.4,458.9,469.8,363.1,462.5,70.1
78.0,545.3,456.4,460.7,462.0,355.9,456.1,67.2
78.75,550.5,456.9,460.5,453.4,349.3,454.1,71.3
79.5,536.8,451.4,441.8,459.1,352.2,448.3,65.6
80.25,545.0,454.6,449.5,455.4,344.9,449.9,70.9
81.0,540.6,445.2,439.5,447.7,342.5,443.1,70.1
81.75,535.8,448.4,432.8,446.7,343.0,441.3,68.4
82.5,535.3,441.3,440.2,438.0,344.5,439.9,67.5
83.25,513.0,443.0,439.7,436.8,340.1,434.5,61.6
84.0,518.7,445.6,433.0,425.5,339.0,432.4,64.0
84.75,526.6,442.2,430.2,422.9,344.6,433.3,64.7
85.5,522.0,440.1,432.4,424.6,335.6,430.9,66.2
86.25,495.7,445.6,428.7,422.0,339.9,426.4,56.3
87.0,500.9,428.7,419.8,420.2,344.9,422.9,55.3
87.75,486.5,432.3,421.3,419.8,345.2,421.0,50.4
88.5,488.3,423.1,419.7,418.8,343.1,418.6,51.4
89.25,477.4,434.7,413.4,415.4,339.9,416.1,49.8
90.0,458.0,429.8,403.8,409.2,332.0,406.6,46.8
90.75,456.1,420.7,402.1,410.0,340.5,405.9,42.0
91.5,458.3,426.7,396.4,401.5,339.7,404.5,43.8
92.25,464.8,425.0,393.3,402.3,343.1,405.7,44.6
93.0,461.7,427.3,402.9,396.6,334.0,404.5,47.0
93.75,457.7,425.5,404.2,394.5,334.4,403.3,45.5
94.5,448.0,419.8,391.3,395.4,342.6,399.4,39.0
95.25,443.9,428.2,394.1,390.5,335.4,398.4,41.8
96.0,439.1,425.2,390.7,383.2,339.7,395.6,39.0
96.75,447.0,413.2,400.7,388.0,335.0,396.8,40.9
97.5,451.3,422.3,393.0,384.8,339.4,398.1,42.0
98.25,449.3,423.0,396.5,382.2,339.0,398.0,41.8
99.0,447.6,431.6,382.9,374.8,342.8,396.0,43.0
99.75,447.8,430.7,390.7,377.9,339.4,397.3,43.1
100.5,435.0,433.1,393.2,369.8,340.0,394.2,40.9
101.25,440.5,434.7,388.1,374.4,346.2,396.8,40.3
102.0,438.9,437.0,390.7,373.4,338.0,395.6,43.1
102.75,441.0,441.4,384.5,371.9,337.8,395.3,45.2
103.5,429.9,465.4,389.3,368.4,344.8,399.6,48.3
104.25,425.3,454.8,383.1,366.2,347.6,395.4,43.9
105.0,421.2,457.2,392.6,362.5,342.2,395.1,45.8
105.75,418.1,449.8,388.8,366.0,352.1,395.0,39.5
106.5,404.7,460.1,383.5,357.9,348.7,391.0,44.4
107.25,392.7,460.3,376.1,362.3,350.9,388.4,43.1
108.0,392.1,459.2,384.6,363.8,352.9,390.5,41.5
108.75,379.6,459.6,379.7,359.3,351.9,386.0,42.9
109.5,379.0,448.6,378.8,358.6,357.5,384.5,37.3
110.25,371.2,463.6,380.4,354.4,352.9,384.5,45.7
111.0,367.5,454.6,386.7,356.2,351.9,383.4,42.0
111.75,352.4,460.1,380.8,362.8,356.1,382.4,44.8
112.5,352.9,448.5,377.6,360.6,355.3,379.0,40.0
113.25,348.1,461.1,387.9,358.6,355.8,382.3,46.6
114.0,352.2,443.3,392.5,359.8,356.7,380.9,38.3
114.75,340.4,449.8,388.6,361.7,358.2,379.8,42.8
115.5,338.8,450.7,389.3,355.2,364.0,379.6,43.8
116.25,331.9,442.1,380.4,353.8,358.6,373.4,42.1
117.0,329.3,436.6,379.2,353.8,357.6,371.3,40.6
117.75,320.2,443.1,384.5,354.0,358.9,372.1,45.8
118.5,317.3,431.9,377.1,354.2,361.3,368.4,41.7
119.25,318.8,427.8,373.8,357.5,361.0,367.8,39.3
120.0,315.1,433.0,369.3,354.9,355.4,365.5,42.8
120.75,315.9,433.7,364.9,354.4,361.5,366.1,42.5
121.5,309.0,424.2,363.1,350.9,356.4,360.7,41.3
122.25,313.5,430.0,360.4,349.9,356.9,362.1,42.3
123.0,310.9,431.4,355.9,350.8,359.8,361.8,43.6
123.75,303.0,427.0,358.4,349.7,355.6,358.7,44.3
124.5,304.4,425.4,352.2,345.9,353.5,356.3,43.6
125.25,299.3,416.2,355.2,350.2,352.0,354.6,41.5
126.0,299.3,422.8,348.0,344.2,356.2,354.1,44.3
126.75,296.8,417.2,341.8,342.2,354.3,350.4,43.3
127.5,296.1,423.5,346.1,344.4,346.8,351.4,45.7
128.25,297.5,418.5,340.7,341.3,352.0,350.0,43.6
129.0,295.1,416.9,340.1,340.6,353.4,349.2,43.8
129.75,301.0,419.3,332.2,340.5,348.7,348.3,43.6
130.5,297.1,413.7,329.0,343.5,347.6,346.2,42.6
131.25,297.7,416.7,329.6,342.6,350.7,347.5,43.7
132.0,300.8,421.5,324.4,342.8,346.7,347.2,45.3
132.75,307.9,412.8,324.3,340.7,347.5,346.6,40.0
133.5,303.9,411.3,320.2,344.4,341.6,344.3,40.9
134.25,303.2,405.4,309.6,338.4,337.8,338.9,40.5
135.0,307.0,402.2,310.6,342.7,339.0,340.3,38.2
135.75,305.5,394.3,309.1,349.0,337.2,339.0,36.0
136.5,315.6,397.0,306.2,346.1,336.8,340.3,35.5
137.25,312.2,393.1,308.9,342.0,329.9,337.2,34.0
138.0,312.4,394.0,301.1,339.3,326.5,334.6,36.2
138.75,321.6,404.6,302.5,338.7,325.5,338.6,39.1
139.5,314.9,390.7,298.8,343.7,323.1,334.2,35.5
140.25,316.3,394.5,291.9,347.0,318.5,333.6,39.2
141.0,323.4,384.6,291.1,348.4,313.8,332.3,35.7
141.75,319.3,385.9,290.0,338.4,311.0,328.9,36.3
142.5,320.3,374.0,281.7,345.6,305.6,325.5,35.7
143.25,315.5,378.5,283.2,342.2,302.9,324.5,37.0
144.0,317.2,376.2,279.5,341.6,300.3,323.0,37.5
144.75,324.3,367.8,281.4,344.8,293.5,322.4,35.7
145.5,319.8,372.1,280.4,345.5,300.2,323.6,36.3
146.25,325.5,369.6,277.6,342.8,290.7,321.2,37.6
147.0,321.4,356.9,277.0,341.1,294.7,318.2,32.7
147.75,324.8,369.6,278.0,338.3,291.9,320.5,36.6
148.5,319.2,356.3,269.1,337.6,292.6,314.9,34.8
149.25,325.1,349.7,278.4,333.5,296.1,316.5,28.9
150.0,321.3,355.3,269.4,329.7,287.6,312.7,34.2
150.75,330.9,348.4,272.5,329.8,285.2,313.3,32.7
151.5,330.6,347.7,269.5,329.4,280.2,311.5,34.4
152.25,329.0,346.6,264.8,326.1,273.3,308.0,36.5
153.0,330.7,336.9,264.8,321.3,272.6,305.3,33.9
153.75,328.7,343.1,261.1,324.8,268.2,305.2,37.7
154.5,323.8,337.2,265.7,323.2,268.3,303.6,33.9
155.25,327.7,331.6,266.4,321.0,265.7,302.5,33.4
156.0,330.6,322.3,264.3,315.6,259.3,298.4,33.9
156.75,323.6,327.3,260.7,315.5,257.7,297.0,34.8
157.5,323.3,326.6,261.6,309.8,252.9,294.9,35.0
158.25,323.6,326.0,258.3,311.1,249.3,293.7,36.9
159.0,317.9,321.4,264.0,309.8,247.1,292.0,34.1
159.75,307.7,323.4,262.1,308.7,244.1,289.2,34.1
160.5,317.9,322.2,256.6,302.8,243.2,288.6,36.3
161.25,305.5,321.5,259.4,301.3,240.7,285.7,34.0
162.0,307.0,316.2,258.5,304.6,236.9,284.6,34.8
162.75,308.7,312.4,253.5,300.9,237.6,282.6,34.6
163.5,302.8,317.4,258.6,299.6,237.6,283.2,33.6
164.25,306.4,303.3,260.4,302.1,233.2,281.1,32.8
165.0,305.6,308.0,255.0,300.7,234.1,280.7,33.9
165.75,307.1,308.1,255.5,299.9,227.3,279.6,36.4
166.5,302.9,302.6,258.1,298.9,229.8,278.5,33.1
167.25,303.4,299.1,260.2,297.5,228.4,277.7,32.6
168.0,308.6,299.9,252.0,296.7,227.0,276.8,35.5
168.75,297.9,295.8,249.7,297.2,225.2,273.2,33.8
169.5,304.5,303.3,248.6,302.0,221.4,275.9,38.6
170.25,300.3,300.4,252.2,298.6,221.1,274.5,36.3
171.0,296.5,295.6,252.2,295.2,218.7,271.6,35.1
171.75,309.1,291.4,250.4,304.2,219.3,274.9,38.7
172.5,305.4,294.2,248.7,299.1,217.3,272.9,38.3
173.25,305.8,298.7,250.6,302.0,220.8,275.6,38.0
174.0,303.0,286.7,248.0,305.8,219.6,272.6,37.6
174.75,312.2,296.0,244.7,302.4,218.1,274.7,41.0
175.5,298.8,288.4,246.7,304.3,219.4,271.5,36.9
176.25,312.7,289.9,247.8,304.2,217.8,274.5,40.3
177.0,311.4,284.9,249.8,308.5,218.1,274.5,40.1
177.75,308.3,281.7,250.9,302.4,217.5,272.2,37.9
178.5,319.0,286.2,242.5,311.0,218.7,275.5,43.5
179.25,320.8,284.7,248.2,308.7,220.5,276.6,41.8
180.0,326.5,283.8,246.5,312.1,219.4,277.7,44.7
180.75,322.1,287.5,250.1,313.8,220.7,278.8,42.9
181.5,324.9,279.2,249.5,316.6,217.2,277.5,45.3
182.25,328.1,278.7,250.1,313.9,214.6,277.1,46.4
183.0,328.8,282.1,252.9,314.6,220.7,279.8,44.2
183.75,327.3,278.0,251.0,317.4,219.9,278.7,44.9
184.5,320.0,281.6,256.8,314.7,221.2,278.9,41.2
185.25,316.4,272.8,257.7,314.5,222.0,276.7,39.9
186.0,320.3,275.0,257.2,319.8,220.4,278.5,42.7
186.75,317.4,275.0,259.5,318.7,215.4,277.2,43.2
187.5,324.2,274.2,258.7,323.2,218.8,279.8,44.9
188.25,318.7,274.7,256.6,320.4,216.8,277.5,43.8
189.0,315.5,277.6,256.4,322.0,216.3,277.6,43.6
189.75,311.9,269.3,269.9,326.0,215.6,278.5,43.3
190.5,317.2,277.2,260.4,326.7,222.8,280.8,42.5
191.25,319.9,272.1,266.8,321.2,223.5,280.7,41.0
192.0,324.5,275.7,259.6,332.9,220.3,282.6,46.8
192.75,319.5,274.5,270.8,333.3,219.9,283.6,44.9
193.5,314.9,266.5,264.0,334.4,224.5,280.9,43.8
194.25,309.8,273.9,265.5,332.5,221.5,280.6,42.8
195.0,315.8,268.1,267.3,338.1,224.0,282.7,44.9
195.75,314.1,272.8,265.7,340.7,225.4,283.7,44.7
196.5,313.0,261.4,263.9,339.6,226.9,281.0,44.9
197.25,308.1,267.9,269.6,346.0,225.6,283.4,45.5
198.0,305.3,270.0,267.4,342.1,227.7,282.5,43.2
198.75,305.5,272.3,270.7,343.3,231.3,284.6,42.0
199.5,300.0,271.7,270.1,338.7,228.6,281.8,40.7
200.25,303.9,279.1,273.6,348.0,226.1,286.2,44.6
201.0,298.3,272.5,266.5,344.5,229.2,282.2,42.7
201.75,300.2,274.1,272.5,346.1,230.1,284.6,42.6
202.5,301.6,266.0,270.4,346.6,233.2,283.6,42.8
203.25,299.4,274.2,271.6,349.1,232.9,285.4,42.8
204.0,298.4,275.7,276.6,353.5,229.5,286.7,45.0
204.75,305.0,274.0,272.6,347.7,232.1,286.3,43.0
205.5,304.9,271.8,269.2,346.7,235.4,285.6,42.1
206.25,314.9,274.5,270.9,349.3,231.0,288.1,45.3
207.0,325.5,268.9,270.8,347.7,234.0,289.4,46.2
207.75,327.8,268.5,267.0,353.1,233.0,289.9,49.1
208.5,333.8,274.0,267.1,350.6,233.6,291.8,48.8
209.25,346.6,277.8,267.3,359.7,234.3,297.1,53.8
210.0,355.1,285.5,264.4,360.3,236.6,300.4,55.2
210.75,358.8,282.1,273.6,364.2,235.6,302.9,56.3
211.5,390.0,279.8,266.5,370.7,234.7,308.3,68.1
212.25,385.3,285.9,265.3,377.9,235.7,310.0,67.8
213.0,420.4,290.2,265.6,373.5,231.8,316.3,78.3
213.75,424.6,281.5,264.3,372.9,233.8,315.4,80.1
214.5,441.9,289.2,259.9,374.8,232.1,319.6,86.8
215.25,448.5,287.1,260.7,371.4,232.4,320.0,88.6
216.0,460.6,285.2,263.3,374.5,227.2,322.2,94.6
216.75,464.6,291.2,258.8,376.7,231.3,324.5,95.5
217.5,475.2,289.6,256.3,380.7,230.1,326.4,100.8
218.25,481.1,292.9,256.3,367.0,229.4,325.3,101.3
219.0,483.3,299.5,256.5,370.3,229.6,327.8,101.9
219.75,487.0,294.7,254.7,363.7,229.4,325.9,103.4
220.5,498.2,299.4,251.6,360.0,227.7,327.4,108.1
221.25,500.5,295.2,251.3,362.0,225.9,327.0,109.9
222.0,500.5,305.3,254.5,362.3,221.1,328.8,109.9
222.75,500.9,314.4,255.4,361.3,220.2,330.4,109.6
223.5,496.4,308.7,247.9,362.6,216.6,326.4,110.4
224.25,503.7,311.3,252.2,355.5,215.8,327.7,112.1
225.0,500.5,310.3,252.3,358.6,211.3,326.6,112.2
225.75,497.6,314.9,253.1,352.8,207.5,325.2,111.4
226.5,500.2,319.0,247.7,358.5,206.6,326.4,113.9
227.25,487.3,313.5,246.1,361.7,200.5,321.8,111.2
228.0,489.5,319.1,246.1,360.6,196.9,322.4,112.9
228.75,471.8,326.9,243.0,356.4,196.4,318.9,106.8
229.5,461.3,325.7,243.4,351.3,191.2,314.6,104.0
230.25,458.9,331.3,237.5,350.3,188.8,313.4,105.1
231.0,453.2,338.2,240.5,343.4,189.1,312.9,102.3
231.75,435.4,335.0,241.2,345.7,186.1,308.7,97.1
232.5,428.4,336.9,243.5,340.2,186.3,307.1,94.0
233.25,426.7,339.1,239.9,334.3,183.4,304.7,94.7
234.0,403.7,339.8,236.6,334.0,182.7,299.4,88.4
234.75,403.3,344.6,233.7,333.8,177.3,298.5,91.2
235.5,401.9,348.5,236.6,322.1,178.0,297.4,89.6
236.25,399.6,350.6,234.6,322.0,177.0,296.8,89.9
237.0,389.7,360.1,233.2,316.7,175.4,295.0,89.2
237.75,393.8,366.3,230.7,319.3,172.7,296.6,92.9
238.5,394.1,372.3,233.3,317.7,173.6,298.2,93.3
239.25,392.3,362.0,238.2,316.7,171.2,296.1,90.8
240.0,395.0,358.1,236.1,313.8,172.4,295.1,90.6
240.75,408.0,376.7,237.8,315.3,169.5,301.5,98.3
241.5,401.2,372.4,239.1,318.8,173.4,301.0,94.3
242.25,399.9,361.5,240.3,323.0,172.8,299.5,92.2
243.0,406.1,364.9,236.2,317.1,173.8,299.6,94.6
243.75,411.4,364.6,234.9,314.6,174.0,299.9,96.1
244.5,411.7,369.6,240.6,305.6,173.1,300.1,96.1
245.25,426.4,368.1,242.6,302.2,173.9,302.6,99.7
246.0,430.7,371.7,244.7,297.9,174.0,303.8,101.3
246.75,421.4,359.8,245.6,287.9,172.2,297.4,97.1
247.5,439.0,364.5,242.8,287.0,173.0,301.3,103.7
248.25,448.0,366.9,249.4,281.6,172.1,303.6,106.7
249.0,441.9,365.5,249.9,282.2,170.5,302.0,104.9
249.75,453.1,363.3,254.8,280.2,169.1,304.1,108.3
250.5,465.8,373.8,251.8,272.6,168.9,306.6,115.1
251.25,458.9,367.4,258.2,267.8,164.8,303.4,112.7
252.0,473.1,373.5,258.1,265.8,166.4,307.4,118.2
252.75,484.7,369.7,265.2,262.7,164.3,309.3,122.0
253.5,493.4,376.5,262.9,260.6,161.7,311.0,127.2
254.25,504.9,377.9,272.4,259.2,157.9,314.5,132.0
255.0,534.0,397.5,276.3,254.1,158.9,324.1,144.8
255.75,541.0,395.3,284.6,254.3,155.4,326.1,147.5
256.5,551.6,396.3,289.4,247.0,151.9,327.2,153.1
257.25,561.5,412.5,300.3,247.4,151.0,334.5,158.2
258.0,567.6,431.6,305.2,247.1,147.4,339.8,163.7
258.75,605.0,434.9,314.6,248.0,145.5,349.6,177.3
259.5,613.4,457.1,322.2,245.8,140.4,355.8,184.6
260.25,641.8,463.8,322.2,245.1,137.8,362.1,196.3
261.0,643.0,483.5,328.8,245.6,136.9,367.6,199.3
261.75,693.7,504.5,331.6,242.3,136.3,381.7,220.6
262.5,675.3,507.3,343.3,241.3,134.7,380.4,214.6
263.25,709.9,515.1,336.8,241.2,130.7,386.7,229.2
264.0,688.3,527.5,355.4,236.9,128.5,387.3,224.1
264.75,686.2,532.8,350.5,234.5,127.5,386.3,225.1
265.5,711.0,539.5,357.0,235.5,126.7,394.0,234.3
266.25,706.0,538.1,362.4,234.3,125.2,393.2,232.8
267.0,702.9,544.3,364.4,232.4,123.7,393.5,233.5
267.75,716.2,542.1,362.2,230.0,121.7,394.4,238.6
268.5,704.1,538.3,369.0,234.0,120.9,393.3,233.3
269.25,675.1,540.9,365.7,226.6,120.4,385.8,225.8
270.0,663.9,550.7,357.2,227.2,120.6,383.9,224.0
270.75,665.8,536.6,369.2,228.5,118.6,383.7,222.2
271.5,666.6,534.4,362.2,227.4,118.2,381.8,222.5
272.25,660.4,518.5,370.0,221.1,118.5,377.7,218.8
273.0,648.6,518.5,362.2,213.6,118.7,372.3,216.4
273.75,645.6,489.0,371.9,213.9,117.0,367.5,211.2
274.5,626.8,489.2,368.3,211.7,116.7,362.5,205.6
275.25,617.1,485.5,347.7,208.8,116.5,355.1,202.5
276.0,617.6,478.6,354.4,205.5,117.6,354.8,201.8
276.75,610.7,461.6,367.6,204.6,115.7,352.0,198.0
277.5,615.4,452.0,362.5,203.5,116.4,350.0,198.1
278.25,597.1,447.9,370.5,201.3,114.7,346.3,192.7
279.0,597.5,439.3,358.3,202.7,115.1,342.6,191.0
279.75,596.1,429.3,359.4,200.2,115.6,340.1,189.6
280.5,588.9,428.3,363.4,199.0,114.2,338.8,187.9
281.25,581.6,427.1,359.0,196.1,113.7,335.5,185.8
282.0,574.3,406.4,356.4,194.7,113.3,329.0,181.3
282.75,574.0,398.7,360.6,195.2,113.3,328.4,180.5
283.5,578.4,393.0,367.2,193.7,114.9,329.4,181.6
284.25,582.8,379.3,353.2,191.9,113.2,324.1,182.2
285.0,571.0,374.7,344.7,191.8,113.8,319.2,177.2
285.75,567.5,371.2,338.9,191.3,113.4,316.5,175.7
286.5,550.2,364.8,338.5,190.1,110.6,310.8,170.0
287.25,564.0,354.7,334.7,189.3,112.5,311.0,173.7
288.0,548.2,355.7,331.0,187.8,110.8,306.7,168.7
288.75,525.5,345.0,325.6,187.2,111.3,298.9,159.6
289.5,532.7,337.2,326.0,186.2,110.8,298.6,162.0
290.25,507.2,340.4,317.8,183.7,109.3,291.7,153.7
291.0,480.2,330.7,321.8,185.6,108.7,285.4,143.6
291.75,459.2,328.4,318.6,185.0,109.1,280.1,136.2
292.5,444.0,321.1,308.8,182.9,106.8,272.7,130.9
293.25,431.1,312.3,308.8,182.3,106.7,268.2,126.1
294.0,421.3,306.3,308.3,182.1,106.6,264.9,122.4
294.75,395.2,303.4,299.5,180.5,105.1,256.7,114.0
295.5,396.1,296.8,294.8,181.7,105.6,255.0,112.8
296.25,386.3,288.9,292.8,179.2,105.3,250.5,109.4
297.0,371.4,291.4,292.7,179.3,105.8,248.1,105.0
297.75,369.0,285.8,286.0,180.4,105.8,245.4,102.8
298.5,356.3,278.9,286.0,179.3,104.9,241.1,98.8
299.25,352.6,276.2,278.4,180.8,104.3,238.5,96.6
300.0,342.9,275.8,274.2,180.5,104.7,235.6,93.3
300.75,321.7,272.9,268.4,181.3,104.0,229.7,86.6
301.5,323.8,272.6,264.3,180.5,102.8,228.8,87.2
302.25,314.2,267.7,264.2,180.7,102.6,225.9,84.0
303.0,307.3,267.7,261.1,178.2,102.1,223.3,82.4
303.75,295.8,264.4,257.3,181.4,100.5,219.9,78.8
304.5,285.6,262.2,253.3,177.9,101.1,216.0,75.9
305.25,287.4,262.2,251.9,178.7,100.3,216.1,76.3
306.0,280.1,254.3,247.9,179.8,100.9,212.6,72.6
306.75,276.7,258.4,241.2,176.4,100.8,210.7,72.2
307.5,269.0,254.3,240.3,176.8,99.0,207.9,70.3
308.25,265.6,251.5,238.8,178.7,98.5,206.6,68.9
309.0,262.7,249.8,238.1,178.4,99.9,205.8,67.4
309.75,257.0,250.2,234.1,179.3,98.8,203.9,66.2
310.5,256.5,248.3,231.6,178.5,97.8,202.5,65.9
311.25,238.5,249.0,233.4,179.8,96.2,199.4,63.6
312.0,236.4,247.7,226.6,178.3,95.6,196.9,62.5
312.75,230.4,248.0,223.9,179.0,94.9,195.3,61.6
313.5,229.5,242.7,227.5,181.5,93.7,195.0,61.2
314.25,222.5,240.4,225.0,181.4,91.5,192.2,60.4
315.0,223.2,238.3,219.8,181.6,91.1,190.8,59.5
315.75,221.8,237.3,219.7,181.0,89.8,189.9,59.7
316.5,212.5,230.5,215.0,183.0,90.2,186.2,56.4
317.25,214.0,228.1,213.2,182.1,89.1,185.3,56.3
318.0,206.0,228.7,212.2,183.0,88.7,183.7,55.6
318.75,203.0,226.4,207.0,182.3,88.4,181.4,54.3
319.5,203.9,226.3,205.2,181.6,87.9,181.0,54.4
320.25,198.9,224.1,199.7,182.3,86.6,178.3,53.4
321.0,199.5,223.5,197.3,178.7,87.8,177.4,52.5
321.75,192.5,224.0,193.3,182.3,87.3,175.9,51.9
322.5,191.9,223.2,192.7,181.0,86.1,175.0,52.1
323.25,191.2,213.4,191.3,180.8,85.8,172.5,49.9
324.0,187.5,215.0,188.7,180.5,86.1,171.6,49.5
324.75,187.2,213.4,188.1,180.8,87.0,171.3,48.8
325.5,180.7,214.3,186.0,181.0,85.4,169.5,49.0
326.25,184.6,211.6,186.3,179.8,86.2,169.7,48.3
327.0,179.9,209.3,183.4,180.8,85.7,167.8,47.5
327.75,178.4,209.7,182.5,181.8,85.8,167.6,47.5
328.5,176.4,207.7,182.0,181.5,85.6,166.6,46.9
329.25,175.1,207.7,182.3,182.2,85.1,166.5,47.2
330.0,172.8,207.8,182.1,179.2,84.9,165.4,46.9
330.75,172.4,210.0,178.7,180.7,84.2,165.2,47.5
331.5,171.6,204.0,178.5,180.5,84.6,163.9,45.9
332.25,168.5,202.9,180.6,182.0,84.9,163.8,45.8
333.0,168.1,202.6,177.2,179.2,84.4,162.3,45.4
333.75,163.4,197.7,177.1,181.0,83.5,160.5,44.8
334.5,165.6,198.0,175.7,180.6,83.3,160.6,44.8
335.25,163.7,199.9,174.1,179.9,84.1,160.3,44.6
336.0,164.8,194.0,174.3,181.5,83.8,159.7,43.7
336.75,163.0,194.1,174.9,179.2,83.1,158.9,43.8
337.5,161.8,191.3,172.6,181.3,83.0,158.0,43.3
338.25,160.8,192.0,173.4,180.5,84.8,158.3,42.6
339.0,161.1,191.4,175.7,181.2,82.7,158.4,43.7
339.75,158.8,185.7,176.2,179.4,83.4,156.7,42.2
340.5,158.9,187.0,175.4,180.2,82.8,156.8,42.7
341.25,157.2,187.1,175.3,180.9,81.8,156.5,43.2
342.0,156.5,187.3,174.4,183.1,81.6,156.6,43.6
342.75,153.6,184.2,176.6,182.2,82.6,155.8,42.7
343.5,152.8,180.8,176.5,179.2,81.8,154.2,42.1
344.25,150.0,175.7,176.0,184.2,81.1,153.4,42.4
345.0,151.4,175.3,177.5,181.8,79.9,153.2,42.7
345.75,148.4,171.7,173.3,178.4,80.4,150.4,40.8
346.5,147.0,169.6,175.3,181.8,80.2,150.8,41.6
347.25,148.9,167.3,172.7,182.6,80.2,150.3,41.1
348.0,147.6,166.4,173.3,182.6,80.1,150.0,41.1
348.75,146.7,164.6,170.4,180.5,80.6,148.6,39.9
349.5,145.6,162.1,172.0,181.4,78.4,147.9,41.1
350.25,141.7,160.0,169.5,181.7,78.4,146.3,40.6
351.0,142.6,157.0,168.6,180.1,77.3,145.1,40.4
351.75,143.4,154.7,168.8,180.0,77.6,144.9,40.1
352.5,139.1,153.0,167.5,180.4,77.2,143.4,40.1
353.25,138.3,152.6,168.1,179.8,76.7,143.1,40.3
354.0,138.1,147.7,165.3,178.6,76.2,141.2,39.6
354.75,139.3,147.7,166.7,179.8,75.8,141.8,40.2
355.5,135.7,145.5,169.0,177.4,75.4,140.6,40.2
356.25,135.0,141.7,166.2,174.5,75.5,138.6,38.9
357.0,133.9,139.5,166.0,171.0,75.1,137.1,38.2
357.75,132.6,138.3,165.4,171.7,74.6,136.5,38.5
358.5,133.6,135.2,165.5,168.9,74.0,135.4,38.1
359.25,131.4,131.7,164.7,168.5,73.6,134.0,38.0
360.0,130.8,132.4,166.9,165.5,73.8,133.9,37.8
360.75,130.6,132.0,165.0,160.8,73.9,132.4,36.4
361.5,129.0,128.1,162.1,161.1,74.7,131.0,35.6
362.25,127.7,125.2,165.6,160.9,73.9,130.7,36.7
363.0,127.6,124.0,162.3,156.1,74.0,128.8,35.0
363.75,127.7,122.0,161.7,156.3,73.4,128.2,35.2
364.5,125.2,120.7,164.3,155.9,72.8,127.8,36.1
365.25,125.7,117.4,163.0,151.9,72.7,126.1,35.2
366.0,123.3,114.1,164.1,154.3,72.0,125.6,36.5
366.75,125.9,111.9,162.2,152.3,71.5,124.7,35.9
367.5,123.6,110.5,161.1,151.9,72.2,123.8,35.4
368.25,124.2,110.0,160.8,149.8,70.1,123.0,35.8
369.0,122.6,109.7,161.9,150.2,70.6,123.0,36.0
369.75,124.3,106.4,159.2,147.4,69.0,121.3,35.6
370.5,120.7,105.7,160.0,146.7,69.7,120.6,35.5
371.25,122.7,104.8,160.1,144.8,68.8,120.3,35.6
372.0,120.2,102.7,156.2,144.1,68.6,118.4,34.7
372.75,120.0,100.8,158.0,143.6,68.1,118.1,35.5
373.5,120.9,99.1,157.3,142.5,67.6,117.5,35.5
374.25,120.2,98.8,156.2,144.2,66.5,117.2,35.9
375.0,118.5,95.9,154.7,142.2,67.5,115.7,35.2
375.75,120.9,95.0,154.9,141.2,67.4,115.9,35.3
376.5,119.0,93.4,153.8,140.1,66.3,114.5,35.3
377.25,118.4,92.8,152.7,136.5,67.4,113.5,34.1
378.0,117.6,90.7,151.5,136.2,66.8,112.5,34.2
378.75,120.5,90.0,155.9,135.3,66.5,113.6,35.6
379.5,119.4,87.9,155.1,133.4,65.5,112.2,35.7
380.25,120.3,88.2,153.2,132.6,66.7,112.2,34.7
381.0,119.2,87.2,154.5,132.7,65.2,111.7,35.7
381.75,117.4,85.4,154.0,131.1,65.2,110.6,35.5
382.5,119.1,85.1,152.8,130.6,65.7,110.6,35.1
383.25,118.0,86.2,153.0,129.7,65.5,110.5,34.8
384.0,118.3,83.9,154.2,127.5,65.3,109.8,35.4
384.75,117.2,82.3,152.1,126.0,64.4,108.4,35.0
385.5,118.7,80.9,153.1,125.6,64.4,108.5,35.7
386.25,118.4,79.6,153.3,124.8,64.2,108.1,35.9
387.0,116.3,78.1,150.9,123.6,64.0,106.6,35.3
387.75,116.9,78.1,150.5,121.9,64.3,106.3,34.9
388.5,118.0,77.2,149.3,120.6,63.9,105.8,34.7
389.25,115.9,76.2,151.2,119.3,63.4,105.2,35.4
390.0,115.3,74.9,149.2,118.0,63.2,104.1,34.9
390.75,115.7,73.4,147.1,117.3,62.1,103.1,34.9
391.5,115.4,74.2,146.2,114.5,62.0,102.4,34.1
392.25,113.6,73.2,145.0,113.2,61.2,101.2,33.9
393.0,113.8,71.1,147.4,113.1,61.0,101.3,35.2
393.75,114.1,70.1,144.8,111.6,61.0,100.3,34.5
394.5,112.0,69.5,145.4,111.3,60.4,99.7,34.8
395.25,114.8,69.1,145.4,111.7,59.3,100.1,35.5
396.0,112.1,69.1,142.8,108.7,58.5,98.2,34.4
396.75,111.7,68.0,144.8,109.1,57.9,98.3,35.4
397.5,112.2,66.8,142.9,107.2,56.6,97.1,35.3
398.25,112.3,66.2,144.3,107.0,57.8,97.5,35.6
399.0,112.8,64.7,143.0,105.4,56.5,96.5,35.8
399.75,113.8,64.9,141.9,104.9,55.9,96.3,35.6
400.5,112.2,63.5,143.8,103.5,55.5,95.7,36.4
401.25,111.1,63.1,140.7,103.3,55.4,94.7,35.4
402.0,111.4,63.1,140.3,101.9,55.2,94.4,35.3
402.75,110.4,62.7,139.8,100.8,54.8,93.7,35.1
403.5,110.1,62.6,141.1,99.4,54.8,93.6,35.4
404.25,110.1,62.2,139.6,99.5,53.6,93.0,35.4
405.0,110.2,61.5,136.7,99.6,54.2,92.5,34.4
405.75,108.1,60.9,135.8,98.7,53.4,91.4,34.2
406.5,109.5,59.7,136.2,97.9,52.8,91.2,34.9
407.25,107.5,58.8,134.7,97.7,51.8,90.1,34.6
408.0,105.3,57.3,134.7,96.6,51.4,89.1,34.7
408.75,104.9,56.1,135.4,95.1,51.3,88.5,35.2
409.5,105.2,56.0,133.3,96.6,51.0,88.4,34.7
410.25,105.8,54.9,130.4,94.2,49.9,87.0,34.3
411.0,104.2,53.3,131.3,95.1,50.0,86.8,34.8
411.75,102.4,54.1,129.1,93.2,49.8,85.7,33.6
412.5,101.0,51.9,129.8,94.0,49.0,85.1,34.4
413.25,100.6,52.2,125.5,93.0,49.0,84.1,32.9
414.0,100.8,51.3,126.9,92.1,48.5,83.9,33.6
414.75,100.5,50.2,125.4,90.9,48.7,83.2,33.3
415.5,100.2,48.9,125.3,89.2,49.2,82.5,33.3
416.25,99.4,48.8,123.2,90.2,49.4,82.2,32.5
417.0,100.9,48.2,123.9,90.1,49.2,82.5,33.1
417.75,98.7,46.8,125.1,89.0,49.5,81.8,33.5
418.5,98.4,46.1,123.8,88.8,49.7,81.4,33.1
419.25,96.7,45.4,123.2,87.0,50.4,80.6,32.7
420.0,95.9,44.8,122.6,87.6,50.7,80.3,32.5
420.75,95.0,44.0,122.5,85.5,51.0,79.6,32.4
421.5,92.2,44.8,120.1,85.1,51.3,78.7,31.0
422.25,91.4,43.8,119.3,84.2,51.2,78.0,30.9
423.0,89.6,43.6,120.7,83.6,51.9,77.9,31.1
423.75,90.3,42.8,119.2,83.3,51.4,77.4,30.9
424.5,87.4,42.4,118.9,84.0,51.8,76.9,30.6
425.25,87.8,42.7,120.2,81.9,52.2,76.9,30.8
426.0,87.6,41.5,118.2,81.7,52.0,76.2,30.5
426.75,85.9,41.3,117.0,80.5,51.8,75.3,29.9
427.5,85.5,41.6,117.1,80.4,52.1,75.4,29.8
428.25,86.2,41.0,115.9,80.0,51.7,75.0,29.7
429.0,85.7,41.3,116.7,78.8,51.7,74.8,29.8
429.75,86.9,40.4,116.0,79.4,51.2,74.8,30.0
430.5,85.1,40.4,117.0,78.1,51.4,74.4,30.1
431.25,87.3,39.6,116.2,76.9,50.9,74.2,30.3
432.0,86.2,38.9,114.8,76.1,50.6,73.3,30.0
432.75,86.0,39.0,115.5,75.9,50.9,73.4,30.1
433.5,85.2,38.8,113.9,75.1,50.2,72.6,29.7
434.25,86.6,38.7,116.5,74.3,50.8,73.4,30.6
435.0,86.9,37.5,114.1,73.4,50.8,72.5,30.2
435.75,87.3,37.5,113.9,72.2,50.8,72.4,30.1
436.5,86.7,37.0,112.4,72.2,49.9,71.7,29.8
437.25,87.0,37.4,111.1,71.0,49.2,71.2,29.4
438.0,86.3,36.7,112.0,71.7,49.1,71.2,29.9
438.75,84.5,36.9,110.5,70.9,48.9,70.3,29.1
439.5,85.9,35.9,113.1,70.0,49.0,70.8,30.5
440.25,85.4,35.4,113.3,69.7,48.7,70.5,30.7
441.0,82.8,35.6,112.6,69.2,47.8,69.6,30.2
441.75,83.3,34.7,112.7,69.0,47.7,69.5,30.6
442.5,83.0,35.0,110.8,67.9,47.5,68.8,29.8
443.25,81.2,34.2,110.5,67.9,46.9,68.1,29.9
444.0,83.3,33.9,110.6,67.3,45.7,68.1,30.5
444.75,82.7,33.9,107.6,66.3,45.2,67.1,29.5
445.5,80.7,33.2,109.0,66.6,44.1,66.7,30.1
446.25,80.3,33.8,107.4,66.5,44.0,66.4,29.3
447.0,81.8,34.0,110.8,66.2,43.6,67.3,30.7
447.75,82.1,34.0,110.8,66.5,42.9,67.3,30.9
448.5,81.0,33.9,107.5,66.2,42.6,66.2,29.7
449.25,82.1,33.9,108.5,66.2,41.9,66.5,30.3
450.0,82.5,34.0,107.3,65.6,41.6,66.2,30.0
450.75,82.9,33.6,108.7,66.4,41.4,66.6,30.6
451.5,81.4,34.1,106.2,65.5,41.3,65.7,29.5
452.25,81.0,33.3,105.2,66.2,40.9,65.3,29.4
453.0,83.0,33.2,103.8,64.7,41.1,65.2,29.2
453.75,82.3,32.6,106.0,64.7,40.5,65.2,30.1
454.5,82.1,31.8,104.3,64.8,40.4,64.7,29.8
455.25,81.5,31.5,105.3,65.1,40.2,64.7,30.2
456.0,81.8,30.5,103.5,64.2,39.3,63.9,30.0
456.75,82.1,30.5,103.6,64.4,39.2,64.0,30.1
457.5,80.3,29.7,102.8,64.0,39.0,63.2,29.9
458.25,80.4,29.7,102.5,63.6,38.9,63.0,29.8
459.0,81.0,29.2,102.7,63.6,38.8,63.0,30.1
459.75,79.9,29.1,101.7,62.8,38.8,62.4,29.7
460.5,78.8,29.1,100.7,62.1,38.3,61.8,29.3
461.25,77.1,28.3,101.4,62.2,38.0,61.4,29.6
462.0,76.3,28.3,98.9,62.9,38.2,60.9,28.6
462.75,74.9,27.8,98.7,62.4,37.5,60.3,28.6
463.5,75.3,27.3,101.6,63.2,37.5,61.0,29.8
464.25,74.4,27.1,98.7,62.5,37.8,60.1,28.7
465.0,73.2,26.1,98.2,62.8,37.4,59.6,28.7
465.75,71.2,26.1,96.7,61.6,37.5,58.6,27.9
466.5,71.7,25.7,97.2,62.0,37.6,58.8,28.3
467.25,71.7,25.3,96.9,62.4,38.0,58.9,28.2
468.0,72.5,25.5,95.8,62.4,38.1,58.9,27.8
468.75,70.9,25.1,95.3,62.2,37.5,58.2,27.8
469.5,70.8,25.0,94.9,61.0,38.0,57.9,27.5
470.25,71.1,24.4,94.3,61.1,37.6,57.7,27.6
471.0,70.0,24.3,96.8,60.8,37.5,57.9,28.3
471.75,70.9,24.2,95.4,61.1,37.3,57.8,28.1
472.5,70.4,23.9,94.5,61.3,37.2,57.4,27.8
473.25,70.9,23.9,94.7,60.5,36.9,57.4,28.0
474.0,69.9,23.4,94.7,60.5,36.7,57.0,28.0
474.75,69.6,22.7,94.3,60.2,36.1,56.6,28.2
475.5,69.3,21.9,94.1,58.4,36.0,55.9,28.3
476.25,68.6,21.4,94.2,58.9,36.1,55.8,28.4
477.0,69.1,21.0,94.7,58.3,36.0,55.8,28.7
477.75,68.4,20.6,95.5,57.5,36.1,55.6,29.0
478.5,67.1,20.5,93.2,57.5,36.0,54.9,28.1
479.25,68.4,20.4,93.5,57.6,35.8,55.1,28.4
480.0,67.7,19.9,93.8,56.9,35.3,54.7,28.7
480.75,66.1,19.3,93.6,56.1,35.8,54.2,28.5
481.5,66.6,18.9,94.3,55.9,35.3,54.2,29.0
482.25,65.6,18.5,94.0,55.3,34.6,53.6,29.0
483.0,63.7,18.1,92.8,55.3,34.2,52.8,28.6
483.75,63.2,17.8,93.8,54.6,34.1,52.7,29.0
484.5,63.3,17.2,92.4,54.3,34.0,52.2,28.7
485.25,61.1,17.1,93.6,54.8,33.8,52.1,29.0
486.0,60.3,17.0,92.2,54.0,34.1,51.5,28.5
486.75,60.4,17.1,93.0,54.9,33.8,51.8,28.8
487.5,58.8,16.6,90.6,54.5,33.2,50.8,28.0
488.25,59.6,16.5,91.2,55.5,33.3,51.2,28.3
489.0,56.9,16.5,90.4,55.5,33.3,50.5,27.9
489.75,56.0,,92.1,55.8,33.3,59.3,24.3
490.5,56.0,,91.2,56.3,33.3,59.2,23.9
491.25,54.4,,91.8,56.2,32.8,58.8,24.5
492.0,52.3,,90.4,56.3,32.3,57.8,24.1
492.75,51.3,,91.4,56.6,32.2,57.9,24.7
493.5,50.1,,91.1,56.6,31.3,57.3,25.0
494.25,48.8,,89.4,56.4,31.6,56.6,24.3
495.0,47.2,,90.0,55.9,31.7,56.2,24.7
495.75,45.2,,89.4,55.5,31.3,55.3,24.8
496.5,42.9,,90.0,56.0,31.1,55.0,25.5
497.25,41.1,,89.4,54.5,30.9,54.0,25.5
498.0,38.9,,89.8,54.2,30.7,53.4,26.2
498.75,38.2,,90.9,53.7,30.4,53.3,26.9
499.5,36.5,,90.0,53.0,30.1,52.4,26.9
500.25,34.5,,92.3,52.7,30.0,52.4,28.4
501.0,33.3,,91.5,52.4,29.9,51.8,28.3
501.75,31.4,,91.3,51.8,29.0,50.9,28.8
502.5,30.3,,90.1,50.9,29.2,50.1,28.5
503.25,29.1,,88.7,51.1,29.3,49.5,28.1
504.0,28.4,,90.5,51.7,29.3,50.0,29.1
504.75,27.3,,89.3,50.5,29.5,49.2,28.7
505.5,26.5,,89.1,50.2,29.5,48.8,28.8
506.25,25.7,,89.1,50.5,29.4,48.7,29.1
507.0,25.0,,89.7,49.7,29.8,48.6,29.4
507.75,24.0,,88.5,50.2,29.6,48.1,29.2
508.5,23.4,,88.7,49.6,29.7,47.9,29.5
509.25,22.3,,87.9,49.6,29.9,47.4,29.3
510.0,21.1,,88.8,49.1,29.6,47.2,30.1
510.75,19.9,,86.9,48.9,30.2,46.5,29.5
511.5,18.6,,86.4,47.9,29.4,45.6,29.8
512.25,17.4,,87.2,48.1,29.0,45.4,30.6
513.0,16.7,,87.2,47.8,28.6,45.1,30.9
513.75,15.7,,85.9,48.1,28.4,44.5,30.6
514.5,15.1,,86.7,48.1,28.7,44.6,31.1
515.25,14.1,,86.0,48.0,28.2,44.1,31.2
516.0,13.2,,87.8,47.1,27.7,44.0,32.4
516.75,12.4,,86.1,47.3,27.3,43.3,31.9
517.5,11.6,,85.6,47.1,27.4,42.9,32.0
518.25,10.9,,85.6,46.9,27.1,42.6,32.2
519.0,10.5,,88.0,47.0,26.8,43.1,33.4
519.75,10.0,,87.6,47.3,26.4,42.8,33.5
520.5,9.8,,87.8,46.7,26.2,42.6,33.7
521.25,9.4,,86.7,46.7,26.0,42.2,33.4
522.0,9.3,,86.6,46.5,26.0,42.1,33.3
522.75,9.3,,87.4,46.6,25.8,42.3,33.7
523.5,8.8,,87.4,45.9,25.8,42.0,33.9
524.25,8.5,,86.8,45.5,25.9,41.7,33.7
525.0,8.6,,87.9,45.2,25.9,41.9,34.1
525.75,8.6,,87.2,45.0,25.9,41.7,33.8
526.5,8.7,,86.1,45.2,25.4,41.3,33.4
527.25,8.8,,87.3,44.7,25.4,41.5,33.8
528.0,8.9,,87.7,44.8,25.7,41.8,34.0
528.75,8.9,,87.8,44.6,25.6,41.7,34.0
529.5,9.3,,88.8,44.7,25.3,42.0,34.4
530.25,9.4,,86.0,45.0,25.4,41.5,33.1
531.0,9.7,,87.0,44.8,25.5,41.7,33.4
531.75,10.1,,87.4,45.1,25.2,41.9,33.5
532.5,10.4,,85.5,44.7,24.7,41.3,32.6
533.25,10.6,,87.1,44.6,25.1,41.9,33.2
534.0,10.8,,87.3,44.5,24.8,41.8,33.3
534.75,11.0,,86.4,44.1,24.9,41.6,32.8
535.5,11.1,,84.3,43.5,25.4,41.1,31.7
536.25,11.2,,85.5,43.7,26.0,41.6,32.1
537.0,11.2,,86.7,42.7,26.3,41.7,32.6
537.75,11.0,,84.2,42.5,26.1,40.9,31.6
538.5,10.8,,84.2,41.6,26.4,40.7,31.6
539.25,10.7,,82.9,42.3,26.5,40.6,31.0
540.0,10.3,,83.8,41.9,26.7,40.7,31.5
540.75,10.0,,83.0,41.2,27.0,40.3,31.2
541.5,9.7,,82.4,41.5,26.9,40.2,31.0
542.25,9.4,,81.9,41.0,26.8,39.8,30.9
543.0,9.1,,82.3,40.8,26.7,39.7,31.2
543.75,8.8,,81.7,40.9,26.6,39.5,31.0
544.5,8.6,,81.5,41.2,26.6,39.5,31.0
545.25,8.6,,81.4,40.3,26.6,39.2,31.0
546.0,8.5,,80.4,40.0,26.8,38.9,30.5
546.75,8.3,,81.1,40.0,26.9,39.1,30.9
547.5,8.3,,80.1,39.7,26.6,38.7,30.5
548.25,8.5,,80.2,39.3,26.4,38.6,30.5
549.0,8.3,,78.2,38.6,26.0,37.8,29.7
549.75,8.2,,79.8,39.2,25.4,38.2,30.5
550.5,8.3,,79.5,39.0,25.6,38.1,30.3
551.25,8.1,,79.2,38.7,25.7,37.9,30.2
552.0,7.4,,79.9,38.2,25.4,37.7,30.8
552.75,7.1,,79.8,37.7,25.4,37.5,30.9
553.5,6.7,,79.7,37.8,25.2,37.3,31.0
554.25,6.5,,80.9,37.7,25.4,37.6,31.6
555.0,6.3,,81.1,37.7,25.5,37.6,31.7
555.75,6.1,,82.7,37.5,25.5,38.0,32.5
556.5,6.0,,80.4,37.1,25.3,37.2,31.5
557.25,6.0,,80.9,37.4,24.9,37.3,31.8
558.0,6.0,,80.2,36.9,24.9,37.0,31.5
558.75,5.9,,81.3,37.6,24.9,37.4,32.0
559.5,5.9,,80.8,37.4,25.0,37.2,31.8
560.25,5.9,,80.2,37.2,24.7,37.0,31.6
561.0,5.7,,81.8,37.7,24.5,37.4,32.4
561.75,5.8,,82.4,37.3,24.3,37.5,32.6
562.5,5.7,,82.6,37.3,23.7,37.3,32.8
563.25,5.9,,80.0,37.4,23.9,36.8,31.6
564.0,5.9,,80.3,37.3,23.6,36.8,31.7
564.75,5.6,,79.7,37.4,23.6,36.6,31.6
565.5,5.5,,79.7,37.0,23.5,36.4,31.6
566.25,5.7,,81.0,37.1,23.6,36.9,32.1
567.0,5.4,,79.6,37.4,23.4,36.5,31.6
567.75,5.2,,80.3,37.1,23.0,36.4,32.0
568.5,5.1,,79.3,37.5,23.5,36.3,31.6