File: 01_Data/PET/Cone/PET_HRRPUA_75.csv
Time after Ignition,PET_R1,PET_R2,PET_R3,Mean,Std. Dev.
0.0,148.6,17.5,58.7,74.9,67.0
0.25,160.2,21.8,66.8,82.9,70.6
0.5,168.1,26.1,72.5,88.9,72.4
0.75,182.8,29.4,84.2,98.8,77.7
1.0,190.7,33.1,83.3,102.4,80.5
1.25,203.8,35.7,86.5,108.7,86.2
1.5,216.0,41.6,98.1,118.5,89.0
1.75,219.3,47.5,104.5,123.8,87.5
2.0,229.4,52.7,110.5,130.9,90.1
2.25,237.6,56.9,118.5,137.7,91.9
2.5,246.8,61.5,128.1,145.4,93.9
2.75,254.4,63.7,135.7,151.3,96.3
3.0,264.0,67.3,141.2,157.5,99.3
3.25,271.9,73.4,148.1,164.5,100.3
3.5,277.3,79.2,160.6,172.3,99.6
3.75,291.6,87.6,169.6,182.9,102.7
4.0,298.0,92.6,180.8,190.5,103.1
4.25,310.5,100.2,187.6,199.4,105.7
4.5,321.2,107.6,200.6,209.8,107.1
4.75,315.0,113.9,208.5,212.5,100.6
5.0,330.4,124.5,224.7,226.5,102.9
5.25,343.8,131.4,230.5,235.2,106.3
5.5,343.4,141.3,231.3,238.7,101.2
5.75,361.0,147.5,246.9,251.8,106.8
6.0,356.9,156.1,252.4,255.1,100.4
6.25,376.5,161.8,259.3,265.9,107.5
6.5,378.5,167.8,260.8,269.0,105.6
6.75,383.1,177.8,268.7,276.5,102.9
7.0,404.2,182.0,283.9,290.0,111.2
7.25,417.3,190.5,289.6,299.1,113.7
7.5,421.6,211.0,300.8,311.1,105.7
7.75,444.0,207.6,301.1,317.6,119.1
8.0,431.3,213.6,317.6,320.8,108.8
8.25,446.9,225.2,324.0,332.0,111.0
8.5,455.2,228.0,325.9,336.4,114.0
8.75,480.2,239.6,334.5,351.4,121.2
9.0,464.8,244.8,344.2,351.3,110.1
9.25,483.6,252.6,360.4,365.5,115.6
9.5,511.8,257.8,367.4,379.0,127.4
9.75,507.9,265.0,389.5,387.4,121.5
10.0,531.3,269.8,364.1,388.4,132.4
10.25,525.6,280.4,393.1,399.7,122.7
10.5,527.8,290.0,399.3,405.7,119.0
10.75,546.0,288.8,406.2,413.7,128.7
11.0,550.5,299.8,406.7,419.0,125.8
11.25,543.9,298.3,437.3,426.5,123.2
11.5,556.7,312.7,441.6,437.0,122.0
11.75,565.3,312.4,450.4,442.7,126.6
12.0,561.3,326.0,456.6,448.0,117.9
12.25,580.6,340.9,472.6,464.7,120.0
12.5,573.9,339.4,477.2,463.5,117.9
12.75,577.2,349.0,468.8,465.0,114.1
13.0,596.7,367.5,496.5,486.9,114.9
13.25,612.3,371.7,515.8,499.9,121.1
13.5,600.5,379.2,513.2,497.6,111.4
13.75,624.7,381.6,516.9,507.8,121.8
14.0,637.0,394.9,537.4,523.1,121.7
14.25,603.2,396.7,518.5,506.1,103.8
14.5,611.8,404.8,552.9,523.1,106.6
14.75,623.9,424.5,555.5,534.6,101.3
15.0,636.2,418.0,556.5,536.9,110.4
15.25,635.2,422.0,564.3,540.5,108.6
15.5,642.5,444.2,552.7,546.5,99.3
15.75,649.5,454.6,569.6,557.9,98.0
16.0,657.9,445.5,603.9,569.1,110.4
16.25,659.4,446.8,608.1,571.4,110.9
16.5,662.2,444.4,591.2,565.9,111.1
16.75,641.1,464.1,614.6,573.3,95.5
17.0,652.9,474.8,620.7,582.8,94.9
17.25,667.2,469.1,605.4,580.5,101.4
17.5,682.4,499.3,612.3,598.0,92.4
17.75,674.2,504.3,633.4,604.0,88.7
18.0,688.1,513.0,640.7,613.9,90.6
18.25,696.9,509.5,626.9,611.1,94.7
18.5,670.3,504.5,637.1,604.0,87.7
18.75,658.8,506.5,628.9,598.1,80.7
19.0,682.2,532.2,659.3,624.6,80.8
19.25,683.2,544.7,654.8,627.6,73.2
19.5,687.0,530.4,655.4,624.3,82.8
19.75,686.8,541.6,674.5,634.3,80.5
20.0,701.1,555.7,622.6,626.5,72.8
20.25,693.1,555.3,656.3,634.9,71.4
20.5,670.3,552.4,651.9,624.8,63.4
20.75,693.4,564.5,654.3,637.4,66.1
21.0,666.6,554.7,666.8,629.4,64.7
21.25,692.4,565.6,676.3,644.8,69.0
21.5,716.8,576.6,671.1,654.8,71.5
21.75,691.3,579.0,663.8,644.7,58.5
22.0,706.8,591.8,666.4,655.0,58.3
22.25,710.1,589.4,661.9,653.8,60.8
22.5,705.5,577.9,662.1,648.5,64.9
22.75,704.2,596.0,674.0,658.1,55.8
23.0,713.6,581.8,676.4,657.3,67.9
23.25,704.7,606.8,689.1,666.9,52.6
23.5,697.6,610.7,671.0,659.8,44.5
23.75,697.7,619.7,678.6,665.3,40.7
24.0,700.0,595.6,658.4,651.3,52.6
24.25,687.4,613.3,685.8,662.2,42.4
24.5,696.9,615.4,678.9,663.8,42.8
24.75,677.0,619.0,665.2,653.7,30.6
25.0,701.2,604.8,673.0,659.7,49.6
25.25,699.0,626.4,677.9,667.8,37.3
25.5,695.7,641.4,680.3,672.5,28.0
25.75,682.9,615.8,663.2,654.0,34.5
26.0,678.0,621.2,681.0,660.1,33.7
26.25,689.4,597.4,670.8,652.5,48.6
26.5,707.6,646.6,679.8,678.0,30.5
26.75,680.8,617.4,651.4,649.9,31.7
27.0,709.3,631.8,661.8,667.6,39.1
27.25,688.7,658.8,655.6,667.7,18.2
27.5,680.1,635.0,656.0,657.0,22.6
27.75,684.5,612.1,649.9,648.8,36.2
28.0,701.6,656.2,652.7,670.2,27.3
28.25,690.5,612.8,665.0,656.1,39.6
28.5,683.8,621.4,671.6,658.9,33.0
28.75,668.9,628.7,681.3,659.6,27.5
29.0,690.3,618.5,654.4,654.4,35.9
29.25,673.5,638.2,641.0,650.9,19.6
29.5,680.8,641.2,667.7,663.2,20.2
29.75,687.4,646.5,674.0,669.3,20.8
30.0,662.4,621.7,654.5,646.2,21.5
30.25,677.3,629.0,650.2,652.2,24.2
30.5,691.4,638.3,654.5,661.4,27.2
30.75,654.6,643.5,662.5,653.5,9.6
31.0,689.6,635.0,658.4,661.0,27.4
31.25,692.7,668.2,661.3,674.0,16.5
31.5,647.8,634.2,662.0,648.0,13.9
31.75,676.5,636.5,644.9,652.6,21.1
32.0,680.2,649.9,626.8,652.3,26.8
32.25,687.7,638.6,648.6,658.3,25.9
32.5,645.9,640.9,647.8,644.9,3.6
32.75,664.0,628.8,644.0,645.6,17.6
33.0,640.9,636.9,622.7,633.5,9.5
33.25,681.2,644.4,660.2,661.9,18.4
33.5,659.9,630.0,652.2,647.4,15.5
33.75,663.4,634.8,638.2,645.4,15.6
34.0,663.1,640.6,653.0,652.2,11.3
34.25,663.5,641.2,645.0,649.9,11.9
34.5,668.3,626.0,645.6,646.6,21.2
34.75,649.7,634.1,638.5,640.8,8.0
35.0,672.6,628.6,626.7,642.7,26.0
35.25,642.4,620.1,620.7,627.7,12.7
35.5,632.0,625.4,631.4,629.6,3.7
35.75,661.3,645.4,629.6,645.4,15.9
36.0,652.1,652.0,639.4,647.8,7.3
36.25,666.0,643.1,654.3,654.5,11.5
36.5,672.7,625.6,631.3,643.2,25.7
36.75,663.2,631.7,628.3,641.1,19.3
37.0,641.1,627.5,633.3,634.0,6.8
37.25,663.5,651.5,617.3,644.1,24.0
37.5,664.8,631.7,624.0,640.2,21.7
37.75,642.1,637.3,634.0,637.8,4.1
38.0,649.9,626.8,626.6,634.4,13.3
38.25,651.9,639.9,626.5,639.4,12.7
38.5,650.6,633.0,628.7,637.4,11.6
38.75,646.0,628.7,625.4,633.3,11.1
39.0,633.5,630.6,612.5,625.5,11.4
39.25,634.8,637.3,619.9,630.7,9.4
39.5,658.8,635.3,626.8,640.3,16.6
39.75,656.9,637.0,619.7,637.9,18.6
40.0,646.6,638.7,607.9,631.1,20.4
40.25,640.5,614.2,606.5,620.4,17.8
40.5,631.0,650.0,620.5,633.9,15.0
40.75,633.7,642.1,602.0,625.9,21.2
41.0,634.2,630.4,611.9,625.5,11.9
41.25,615.5,646.5,623.7,628.5,16.1
41.5,645.6,657.3,615.2,639.4,21.8
41.75,634.3,613.4,616.5,621.4,11.3
42.0,647.2,643.8,614.6,635.2,17.9
42.25,646.8,647.7,621.3,638.6,15.0
42.5,636.2,630.8,607.2,624.7,15.4
42.75,643.8,625.6,610.2,626.5,16.8
43.0,650.3,636.7,614.9,634.0,17.8
43.25,629.8,637.7,628.3,631.9,5.0
43.5,648.3,642.2,612.0,634.2,19.5
43.75,643.6,622.9,617.3,627.9,13.8
44.0,636.6,656.4,602.3,631.8,27.4
44.25,644.0,656.2,620.3,640.2,18.2
44.5,640.7,622.1,605.4,622.7,17.7
44.75,631.0,640.4,624.7,632.0,7.9
45.0,634.5,632.1,618.5,628.4,8.6
45.25,632.8,659.7,633.1,641.9,15.5
45.5,629.0,658.4,617.1,634.8,21.3
45.75,627.4,627.7,595.2,616.8,18.7
46.0,625.0,653.1,608.8,629.0,22.4
46.25,640.8,642.6,615.0,632.8,15.4
46.5,636.9,637.7,608.6,627.7,16.6
46.75,644.8,652.8,614.6,637.4,20.2
47.0,638.6,645.9,623.4,636.0,11.5
47.25,645.6,640.2,613.8,633.2,17.0
47.5,634.2,644.9,621.6,633.6,11.7
47.75,627.3,636.6,631.8,631.9,4.6
48.0,634.9,644.2,606.7,628.6,19.5
48.25,637.7,628.0,614.5,626.7,11.6
48.5,654.1,633.8,620.8,636.2,16.8
48.75,641.0,656.8,621.3,639.7,17.8
49.0,637.7,633.0,609.5,626.7,15.1
49.25,624.6,636.2,619.2,626.7,8.7
49.5,639.9,643.6,606.0,629.8,20.7
49.75,639.1,641.4,616.7,632.4,13.7
50.0,628.3,634.6,593.9,618.9,21.9
50.25,635.8,653.1,619.0,635.9,17.0
50.5,669.8,639.3,615.9,641.6,27.0
50.75,623.8,641.0,623.6,629.5,9.9
51.0,645.2,654.7,601.0,633.6,28.6
51.25,637.8,641.3,612.6,630.6,15.7
51.5,633.3,644.2,615.6,631.1,14.4
51.75,648.7,624.5,590.8,621.3,29.1
52.0,633.9,644.5,611.2,629.9,17.0
52.25,625.0,631.1,600.8,619.0,16.0
52.5,638.0,660.8,601.1,633.3,30.2
52.75,651.3,619.4,588.2,619.6,31.5
53.0,638.2,627.2,621.3,628.9,8.6
53.25,652.8,635.8,594.2,627.6,30.2
53.5,633.8,657.8,613.4,635.0,22.2
53.75,636.5,634.5,618.7,629.9,9.7
54.0,663.1,641.3,614.1,639.5,24.5
54.25,669.5,656.5,631.2,652.4,19.5
54.5,650.7,623.1,582.0,618.6,34.6
54.75,662.1,637.4,589.3,629.6,37.0
55.0,640.7,639.6,612.8,631.0,15.8
55.25,660.6,651.7,597.0,636.4,34.5
55.5,645.9,632.4,626.7,635.0,9.9
55.75,622.0,653.7,578.5,618.1,37.7
56.0,647.2,636.0,597.0,626.8,26.4
56.25,657.7,645.5,614.5,639.2,22.2
56.5,665.2,636.3,600.9,634.1,32.2
56.75,631.8,636.6,604.9,624.4,17.0
57.0,661.9,630.4,596.0,629.5,33.0
57.25,651.7,643.9,601.2,632.3,27.2
57.5,656.0,636.1,617.7,636.6,19.2
57.75,662.8,615.8,610.8,629.8,28.7
58.0,660.8,649.6,587.3,632.6,39.6
58.25,648.0,654.1,581.9,628.0,40.0
58.5,656.1,629.9,596.8,627.6,29.7
58.75,647.7,631.4,612.6,630.6,17.6
59.0,669.3,655.5,606.0,643.6,33.3
59.25,668.2,635.9,603.0,635.7,32.6
59.5,666.9,627.4,593.3,629.2,36.9
59.75,644.7,624.4,606.5,625.2,19.1
60.0,673.5,640.5,604.2,639.4,34.6
60.25,673.2,648.3,618.3,646.6,27.5
60.5,657.2,632.3,596.4,628.6,30.6
60.75,673.7,647.2,595.0,638.7,40.0
61.0,669.1,648.4,616.9,644.8,26.3
61.25,650.8,647.3,606.7,634.9,24.5
61.5,647.1,643.8,611.7,634.2,19.5
61.75,661.6,644.1,616.3,640.7,22.9
62.0,656.0,648.7,623.4,642.7,17.1
62.25,664.1,627.1,610.2,633.8,27.6
62.5,642.9,642.9,622.1,636.0,12.0
62.75,657.0,636.6,635.3,643.0,12.2
63.0,645.4,634.6,604.6,628.2,21.2
63.25,650.3,614.6,624.5,629.8,18.5
63.5,655.6,633.0,601.2,629.9,27.3
63.75,659.6,640.2,627.8,642.5,16.0
64.0,649.2,639.3,610.8,633.1,20.0
64.25,642.9,637.2,634.6,638.3,4.3
64.5,631.9,647.0,612.8,630.6,17.1
64.75,639.5,625.2,632.4,632.4,7.1
65.0,633.8,652.8,625.1,637.2,14.2
65.25,648.3,629.6,612.3,630.1,18.0
65.5,631.8,627.5,612.3,623.9,10.2
65.75,644.1,624.2,614.6,627.6,15.1
66.0,652.5,621.7,634.7,636.3,15.4
66.25,643.0,626.4,614.3,627.9,14.4
66.5,628.0,636.5,632.7,632.4,4.3
66.75,647.7,609.5,632.1,629.8,19.2
67.0,632.1,638.0,631.0,633.7,3.8
67.25,629.0,614.0,642.5,628.5,14.2
67.5,613.8,619.5,637.7,623.7,12.5
67.75,644.7,622.5,637.4,634.9,11.3
68.0,626.8,626.7,633.6,629.0,4.0
68.25,644.6,619.8,653.2,639.2,17.3
68.5,654.6,616.7,632.9,634.7,19.0
68.75,623.2,626.6,655.8,635.2,17.9
69.0,614.3,604.3,640.6,619.7,18.7
69.25,628.7,626.5,653.5,636.3,15.0
69.5,622.3,621.6,658.7,634.2,21.2
69.75,637.8,625.9,670.0,644.6,22.8
70.0,644.6,604.0,660.0,636.2,29.0
70.25,630.0,618.7,667.0,638.6,25.2
70.5,637.8,605.8,650.0,631.2,22.8
70.75,632.5,609.4,682.1,641.3,37.2
71.0,627.0,625.1,646.4,632.8,11.8
71.25,635.8,627.4,654.0,639.1,13.6
71.5,635.8,612.2,674.3,640.8,31.4
71.75,633.0,618.8,671.3,641.0,27.2
72.0,645.4,624.2,672.2,647.3,24.1
72.25,630.1,601.0,678.9,636.7,39.3
72.5,620.0,614.1,692.4,642.2,43.6
72.75,634.3,607.9,673.2,638.5,32.8
73.0,630.1,603.6,687.6,640.4,42.9
73.25,656.9,612.8,689.3,653.0,38.4
73.5,633.0,608.0,689.1,643.4,41.5
73.75,627.0,610.1,678.6,638.5,35.7
74.0,652.7,616.8,698.5,656.0,40.9
74.25,630.9,617.9,678.5,642.5,31.9
74.5,630.5,594.2,698.9,641.2,53.2
74.75,629.4,608.3,688.9,642.2,41.8
75.0,607.8,632.1,687.0,642.3,40.6
75.25,622.9,609.2,668.0,633.3,30.8
75.5,612.8,609.9,690.1,637.6,45.5
75.75,606.1,603.9,685.2,631.7,46.3
76.0,636.8,601.9,709.8,649.5,55.1
76.25,646.7,601.7,678.8,642.4,38.7
76.5,621.0,598.4,676.8,632.0,40.3
76.75,626.3,607.6,692.3,642.1,44.5
77.0,612.1,588.3,691.6,630.7,54.1
77.25,612.7,600.5,674.0,629.1,39.4
77.5,613.0,592.9,695.2,633.7,54.2
77.75,619.0,601.8,685.9,635.6,44.4
78.0,617.2,583.5,691.4,630.7,55.2
78.25,618.2,604.1,693.0,638.4,47.8
78.5,621.8,601.5,694.4,639.3,48.9
78.75,598.6,612.5,701.1,637.4,55.6
79.0,603.2,617.6,683.5,634.8,42.8
79.25,591.9,600.3,680.2,624.1,48.7
79.5,590.4,607.0,683.2,626.9,49.5
79.75,588.7,620.5,697.9,635.7,56.2
80.0,585.2,591.4,680.8,619.1,53.5
80.25,580.1,600.2,704.6,628.3,66.8
80.5,560.3,612.7,688.9,620.6,64.7
80.75,573.2,599.1,670.9,614.4,50.6
81.0,556.4,588.7,703.4,616.2,77.2
81.25,553.5,616.9,693.7,621.4,70.3
81.5,564.1,600.8,673.7,612.9,55.8
81.75,535.0,602.1,689.8,609.0,77.6
82.0,539.1,605.3,692.3,612.2,76.8
82.25,528.5,593.6,719.4,613.9,97.0
82.5,529.8,592.4,703.8,608.7,88.1
82.75,521.5,602.8,680.7,601.7,79.6
83.0,533.5,598.6,674.7,602.2,70.7
83.25,517.0,579.3,690.9,595.7,88.1
83.5,519.1,594.1,689.1,600.8,85.2
83.75,520.2,602.9,688.1,603.7,83.9
84.0,516.8,605.9,710.2,611.0,96.8
84.25,516.5,599.3,693.5,603.1,88.6
84.5,507.6,612.7,705.9,608.7,99.2
84.75,498.8,589.0,675.5,587.8,88.4
85.0,500.6,586.3,688.5,591.8,94.1
85.25,499.3,598.0,666.0,587.8,83.8
85.5,495.5,605.4,668.0,589.6,87.3
85.75,504.1,601.2,672.4,592.6,84.5
86.0,512.9,589.7,666.3,589.6,76.7
86.25,502.7,597.3,669.9,590.0,83.8
86.5,511.1,585.2,655.1,583.8,72.0
86.75,496.0,583.7,661.3,580.4,82.7
87.0,491.8,612.0,657.1,587.0,85.4
87.25,502.0,590.4,664.9,585.8,81.5
87.5,516.5,602.3,652.2,590.3,68.6
87.75,492.9,592.0,657.1,580.7,82.7
88.0,499.1,597.6,642.7,579.8,73.4
88.25,506.4,591.7,648.9,582.3,71.7
88.5,493.9,598.8,624.6,572.4,69.2
88.75,504.1,591.1,635.4,576.9,66.8
89.0,502.6,581.9,648.1,577.5,72.9
89.25,499.9,577.2,630.6,569.2,65.7
89.5,495.8,572.8,634.5,567.7,69.5
89.75,499.9,567.1,628.4,565.1,64.3
90.0,523.7,546.5,612.4,560.8,46.0
90.25,510.0,579.1,622.5,570.5,56.7
90.5,511.3,566.0,617.3,564.9,53.0
90.75,511.5,559.6,648.6,573.2,69.6
91.0,508.9,555.1,634.6,566.2,63.6
91.25,518.7,546.8,635.8,567.1,61.1
91.5,508.8,559.8,646.9,571.8,69.8
91.75,506.0,557.7,630.5,564.7,62.6
92.0,523.3,552.4,608.6,561.5,43.3
92.25,509.5,550.3,670.3,576.7,83.6
92.5,527.9,548.9,636.6,571.1,57.7
92.75,524.4,545.5,630.2,566.7,56.0
93.0,508.1,560.7,644.3,571.0,68.7
93.25,519.8,551.5,641.3,570.9,63.0
93.5,533.1,535.5,642.9,570.5,62.7
93.75,518.5,537.8,691.2,582.5,94.6
94.0,515.9,555.0,642.9,571.3,65.1
94.25,518.6,549.1,623.6,563.7,54.0
94.5,549.2,557.0,640.5,582.2,50.6
94.75,531.3,542.9,651.4,575.2,66.2
95.0,524.0,532.4,620.0,558.8,53.2
95.25,525.8,536.5,651.0,571.1,69.4
95.5,523.1,549.0,643.3,571.8,63.3
95.75,518.8,540.4,636.6,565.3,62.7
96.0,535.3,559.7,656.9,584.0,64.3
96.25,511.6,547.5,655.0,571.4,74.6
96.5,521.4,567.0,630.2,572.9,54.7
96.75,538.4,528.9,630.9,566.1,56.4
97.0,528.4,570.3,630.0,576.2,51.0
97.25,522.6,570.2,637.8,576.9,57.9
97.5,535.6,551.9,646.3,577.9,59.8
97.75,541.8,550.6,654.8,582.4,62.8
98.0,531.3,574.7,655.3,587.1,62.9
98.25,539.9,564.1,617.2,573.8,39.5
98.5,542.6,566.1,626.9,578.5,43.5
98.75,543.1,559.6,630.1,577.6,46.2
99.0,546.1,590.3,626.8,587.7,40.4
99.25,545.1,578.2,636.9,586.8,46.5
99.5,531.9,569.8,643.3,581.7,56.6
99.75,526.2,584.0,603.7,571.3,40.3
100.0,535.0,586.7,652.0,591.2,58.6
100.25,543.2,584.2,624.7,584.0,40.7
100.5,547.8,571.9,618.5,579.4,35.9
100.75,540.3,609.8,632.7,594.3,48.1
101.0,533.8,594.5,628.1,585.5,47.8
101.25,546.9,577.8,641.4,588.7,48.2
101.5,557.2,599.4,647.8,601.5,45.3
101.75,553.8,589.3,620.7,587.9,33.5
102.0,547.3,581.0,617.1,581.8,34.9
102.25,534.5,572.8,627.0,578.1,46.5
102.5,531.9,595.4,638.2,588.5,53.5
102.75,551.8,609.9,614.5,592.1,35.0
103.0,550.2,570.0,631.5,583.9,42.4
103.25,559.6,612.8,649.2,607.2,45.1
103.5,547.9,585.5,630.6,588.0,41.4
103.75,539.5,605.1,637.0,593.9,49.7
104.0,540.0,588.4,615.3,581.2,38.2
104.25,569.8,602.2,628.0,600.0,29.2
104.5,537.7,584.6,619.2,580.5,40.9
104.75,554.3,579.9,632.3,588.8,39.8
105.0,551.8,574.0,622.5,582.8,36.1
105.25,549.5,596.1,627.6,591.1,39.3
105.5,536.7,593.6,621.5,583.9,43.2
105.75,548.0,576.9,625.8,583.6,39.3
106.0,546.5,595.0,619.8,587.1,37.3
106.25,542.0,571.2,616.3,576.5,37.4
106.5,549.0,587.0,613.1,583.1,32.2
106.75,547.8,591.5,599.6,579.7,27.8
107.0,555.7,587.6,601.1,581.5,23.3
107.25,544.2,576.9,602.9,574.7,29.4
107.5,538.2,591.8,611.4,580.5,37.9
107.75,554.6,591.7,589.5,578.6,20.8
108.0,542.4,581.6,598.1,574.0,28.6
108.25,529.6,584.5,598.9,571.0,36.6
108.5,546.4,588.4,591.8,575.6,25.3
108.75,547.0,585.5,606.3,579.6,30.1
109.0,538.8,576.1,603.6,572.8,32.5
109.25,559.1,581.7,593.0,577.9,17.3
109.5,552.9,587.5,600.8,580.4,24.7
109.75,546.3,588.4,596.9,577.2,27.1
110.0,539.8,590.8,584.7,571.8,27.9
110.25,557.6,567.0,586.7,570.5,14.9
110.5,537.5,585.4,581.5,568.1,26.6
110.75,539.4,582.1,570.1,563.9,22.0
111.0,553.6,589.3,584.1,575.7,19.3
111.25,552.7,566.9,587.3,569.0,17.4
111.5,543.6,571.1,579.1,564.6,18.6
111.75,535.9,568.0,586.6,563.5,25.7
112.0,543.1,566.0,575.7,561.6,16.7
112.25,553.6,573.4,573.2,566.7,11.4
112.5,551.1,568.9,589.3,569.8,19.1
112.75,546.1,572.4,586.8,568.5,20.6
113.0,558.7,565.1,589.0,570.9,16.0
113.25,547.1,574.6,564.6,562.1,13.9
113.5,539.7,557.7,578.2,558.5,19.3
113.75,558.5,566.9,571.3,565.6,6.5
114.0,552.4,566.0,582.1,566.8,14.9
114.25,551.3,554.3,575.8,560.5,13.4
114.5,548.1,562.9,574.5,561.8,13.3
114.75,540.2,570.8,565.2,558.8,16.3
115.0,552.7,548.9,577.9,559.8,15.7
115.25,534.3,581.8,568.7,561.6,24.6
115.5,544.0,564.4,570.6,559.7,13.9
115.75,535.0,547.9,563.2,548.7,14.1
116.0,540.3,551.3,561.8,551.1,10.8
116.25,538.8,560.3,571.0,556.7,16.4
116.5,543.2,568.1,557.6,556.3,12.5
116.75,535.6,550.9,568.8,551.8,16.6
117.0,534.2,548.2,556.2,546.2,11.2
117.25,544.1,545.7,557.7,549.2,7.5
117.5,540.4,544.2,559.7,548.1,10.2
117.75,527.7,557.7,548.9,544.8,15.5
118.0,525.2,534.6,562.4,540.7,19.3
118.25,528.7,548.0,556.8,544.5,14.4
118.5,521.6,543.0,550.2,538.3,14.9
118.75,509.8,547.8,546.9,534.8,21.7
119.0,528.1,538.6,557.4,541.4,14.8
119.25,520.3,552.1,542.1,538.2,16.3
119.5,531.1,545.6,551.3,542.7,10.4
119.75,502.6,552.7,550.6,535.3,28.3
120.0,516.4,555.9,551.5,541.3,21.7
120.25,505.4,530.9,548.8,528.4,21.8
120.5,509.5,541.2,553.7,534.8,22.8
120.75,512.3,547.8,558.7,539.6,24.3
121.0,513.1,530.6,548.7,530.8,17.8
121.25,500.5,545.8,540.5,528.9,24.8
121.5,501.8,538.9,533.1,524.6,20.0
121.75,510.4,535.1,544.3,529.9,17.6
122.0,507.9,539.6,541.2,529.6,18.7
122.25,496.5,535.8,533.8,522.0,22.1
122.5,492.4,525.2,533.0,516.9,21.5
122.75,507.4,541.1,532.8,527.1,17.5
123.0,497.0,545.0,521.3,521.1,24.0
123.25,495.9,529.8,549.3,525.0,27.0
123.5,494.1,537.9,537.5,523.2,25.2
123.75,502.4,519.9,525.7,516.0,12.1
124.0,496.5,522.0,527.2,515.2,16.4
124.25,499.0,515.3,521.8,512.0,11.8
124.5,490.2,518.3,536.6,515.0,23.3
124.75,495.3,510.6,520.7,508.8,12.8
125.0,501.9,518.4,522.0,514.1,10.7
125.25,491.2,505.1,531.3,509.2,20.4
125.5,497.7,509.5,526.7,511.3,14.6
125.75,509.3,513.7,517.9,513.6,4.3
126.0,492.3,512.3,516.5,507.0,12.9
126.25,489.8,511.1,518.6,506.5,14.9
126.5,503.8,492.3,511.5,502.5,9.7
126.75,500.1,519.0,516.7,511.9,10.3
127.0,495.8,493.2,519.9,503.0,14.7
127.25,501.5,491.4,502.2,498.4,6.0
127.5,502.8,505.6,507.8,505.4,2.5
127.75,500.6,491.7,523.6,505.3,16.5
128.0,478.3,509.8,517.3,501.8,20.7
128.25,493.6,497.7,503.2,498.2,4.9
128.5,498.9,502.0,505.4,502.1,3.3
128.75,501.3,492.9,513.7,502.6,10.5
129.0,492.2,492.9,510.6,498.6,10.4
129.25,505.3,488.9,510.2,501.5,11.2
129.5,487.8,492.2,514.8,498.3,14.5
129.75,486.8,501.9,509.2,499.3,11.4
130.0,488.6,499.0,498.2,495.3,5.8
130.25,495.5,504.1,496.7,498.8,4.7
130.5,500.2,493.2,493.1,495.5,4.0
130.75,504.7,495.5,499.4,499.9,4.6
131.0,488.5,493.8,513.9,498.7,13.4
131.25,494.6,494.6,502.9,497.4,4.8
131.5,492.9,496.6,494.7,494.7,1.9
131.75,493.2,493.3,507.4,498.0,8.2
132.0,503.8,502.6,499.3,501.9,2.3
132.25,515.2,496.7,506.2,506.0,9.3
132.5,492.1,489.3,506.2,495.9,9.0
132.75,496.0,499.9,485.6,493.8,7.4
133.0,498.9,491.3,495.3,495.2,3.8
133.25,505.8,492.1,496.3,498.1,7.0
133.5,502.9,495.3,485.4,494.6,8.8
133.75,505.9,481.8,497.2,495.0,12.2
134.0,497.5,491.9,496.7,495.4,3.0
134.25,498.1,488.9,499.4,495.5,5.7
134.5,506.7,496.3,499.1,500.7,5.4
134.75,512.4,492.8,485.3,496.8,14.0
135.0,498.5,494.7,503.2,498.8,4.2
135.25,496.2,494.1,492.9,494.4,1.7
135.5,493.3,486.1,501.3,493.6,7.6
135.75,497.0,499.3,506.0,500.8,4.7
136.0,508.7,485.2,498.4,497.4,11.8
136.25,510.5,488.0,490.3,496.3,12.4
136.5,521.9,493.1,505.2,506.7,14.5
136.75,505.0,509.1,504.8,506.3,2.4
137.0,508.2,494.5,511.9,504.9,9.2
137.25,511.1,507.4,515.0,511.1,3.8
137.5,509.6,506.4,499.4,505.1,5.2
137.75,509.8,491.4,506.2,502.5,9.7
138.0,504.0,505.3,509.9,506.4,3.1
138.25,518.4,498.4,507.6,508.1,10.0
138.5,516.9,502.9,500.3,506.7,8.9
138.75,505.3,488.9,516.6,503.6,13.9
139.0,508.0,497.3,524.1,509.8,13.5
139.25,512.9,495.6,518.7,509.0,12.0
139.5,511.0,493.7,517.7,507.5,12.4
139.75,503.3,488.1,517.9,503.1,14.9
140.0,517.4,499.8,519.8,512.3,10.9
140.25,510.9,490.3,513.7,505.0,12.8
140.5,522.8,504.3,520.6,515.9,10.1
140.75,506.2,501.2,529.3,512.2,15.0
141.0,518.5,495.6,503.4,505.8,11.6
141.25,511.1,485.4,522.6,506.4,19.1
141.5,506.2,495.3,522.3,507.9,13.5
141.75,507.8,514.5,528.0,516.8,10.3
142.0,507.0,489.7,525.9,507.5,18.1
142.25,515.3,502.5,528.9,515.5,13.2
142.5,515.7,504.7,541.3,520.6,18.8
142.75,516.6,512.7,552.1,527.1,21.7
143.0,512.0,492.2,541.2,515.1,24.7
143.25,498.1,507.0,559.7,521.6,33.3
143.5,508.2,489.5,552.2,516.6,32.2
143.75,510.8,509.9,541.7,520.8,18.1
144.0,507.8,514.4,556.7,526.3,26.5
144.25,513.8,504.8,555.8,524.8,27.2
144.5,509.2,493.4,554.9,519.2,32.0
144.75,521.5,506.6,553.9,527.3,24.2
145.0,494.0,508.9,549.9,517.6,29.0
145.25,523.8,508.2,545.0,525.7,18.5
145.5,534.8,504.6,565.5,535.0,30.4
145.75,515.5,505.3,561.9,527.6,30.2
146.0,505.6,502.6,570.9,526.4,38.6
146.25,516.3,511.3,571.7,533.1,33.5
146.5,514.1,509.3,572.0,531.8,34.9
146.75,508.2,493.4,585.4,529.0,49.4
147.0,517.5,505.9,577.0,533.5,38.1
147.25,525.8,509.2,561.7,532.2,26.8
147.5,507.6,495.3,569.1,524.0,39.5
147.75,506.4,498.0,560.7,521.7,34.0
148.0,516.3,498.4,586.7,533.8,46.7
148.25,523.5,504.9,591.9,540.1,45.8
148.5,505.3,497.0,580.3,527.5,45.9
148.75,517.8,515.8,588.0,540.5,41.1
149.0,519.8,510.7,590.2,540.2,43.5
149.25,521.6,511.4,593.8,542.3,44.9
149.5,507.7,499.7,573.9,527.1,40.7
149.75,513.7,497.4,591.8,534.3,50.4
150.0,507.2,497.5,597.1,533.9,54.9
150.25,514.1,501.0,596.4,537.2,51.7
150.5,520.4,514.2,595.7,543.5,45.4
150.75,517.8,518.0,587.9,541.2,40.4
151.0,514.5,518.7,599.2,544.1,47.7
151.25,501.7,506.6,609.1,539.1,60.6
151.5,499.3,510.5,601.9,537.2,56.3
151.75,500.6,501.9,606.4,536.3,60.7
152.0,518.7,515.6,613.3,549.2,55.5
152.25,499.4,501.1,599.1,533.2,57.1
152.5,514.8,511.2,607.1,544.4,54.3
152.75,513.0,514.4,600.5,542.6,50.1
153.0,509.4,500.7,610.6,540.2,61.1
153.25,514.0,513.5,608.2,545.2,54.6
153.5,496.8,512.0,611.3,540.1,62.2
153.75,508.3,491.9,617.6,539.2,68.3
154.0,504.9,503.7,615.9,541.5,64.5
154.25,493.7,506.1,613.1,537.6,65.7
154.5,498.3,518.9,607.5,541.6,58.1
154.75,512.0,511.9,600.5,541.5,51.1
155.0,506.1,522.2,606.9,545.1,54.1
155.25,496.0,513.9,613.2,541.0,63.2
155.5,500.2,518.2,625.3,547.9,67.6
155.75,495.5,515.5,603.0,538.0,57.2
156.0,504.3,520.6,616.3,547.1,60.5
156.25,501.3,505.3,615.4,540.7,64.8
156.5,499.2,522.3,612.3,544.6,59.7
156.75,484.6,511.8,607.3,534.5,64.4
157.0,500.3,510.6,617.6,542.8,64.9
157.25,494.5,518.4,628.2,547.0,71.3
157.5,506.0,532.4,616.8,551.7,57.9
157.75,488.8,527.8,621.3,546.0,68.1
158.0,501.2,522.9,617.2,547.1,61.7
158.25,482.9,519.7,615.5,539.4,68.5
158.5,491.6,530.8,622.9,548.4,67.4
158.75,503.9,512.6,638.2,551.6,75.1
159.0,489.0,516.5,634.2,546.6,77.2
159.25,495.2,508.3,615.3,539.6,65.9
159.5,504.4,510.9,604.9,540.1,56.2
159.75,495.9,523.7,618.4,546.0,64.2
160.0,485.3,510.3,630.4,542.0,77.5
160.25,493.8,523.7,628.4,548.6,70.7
160.5,484.8,524.3,601.7,536.9,59.5
160.75,486.2,518.7,611.8,538.9,65.2
161.0,486.3,515.1,610.9,537.4,65.2
161.25,478.3,530.6,613.6,540.8,68.2
161.5,470.7,518.4,643.5,544.2,89.2
161.75,475.4,534.3,612.9,540.9,69.0
162.0,486.5,527.0,619.6,544.4,68.2
162.25,472.3,518.6,629.3,540.0,80.7
162.5,477.0,531.6,631.0,546.5,78.1
162.75,469.0,524.7,643.1,545.6,88.9
163.0,476.1,529.7,637.0,547.6,81.9
163.25,463.6,524.8,643.4,543.9,91.4
163.5,458.9,514.8,650.6,541.4,98.6
163.75,476.2,521.9,622.3,540.1,74.7
164.0,471.9,520.2,626.5,539.5,79.1
164.25,470.3,514.0,636.3,540.2,86.0
164.5,468.7,516.4,644.9,543.3,91.1
164.75,471.9,524.6,639.4,545.3,85.6
165.0,467.7,519.9,638.2,542.0,87.4
165.25,468.1,517.6,640.9,542.2,89.0
165.5,473.8,525.0,652.9,550.6,92.3
165.75,460.3,522.5,635.8,539.5,89.0
166.0,462.2,525.7,637.1,541.7,88.5
166.25,476.3,518.7,648.0,547.6,89.4
166.5,461.5,515.7,645.4,540.9,94.5
166.75,472.9,532.0,651.5,552.1,91.0
167.0,470.8,516.7,637.1,541.5,85.8
167.25,463.2,534.4,638.5,545.4,88.2
167.5,456.7,527.1,654.5,546.1,100.3
167.75,475.9,516.6,662.0,551.5,97.9
168.0,473.0,529.1,655.7,552.6,93.6
168.25,457.8,536.2,660.0,551.3,101.9
168.5,462.2,511.7,663.1,545.7,104.7
168.75,460.4,525.5,652.5,546.1,97.7
169.0,454.6,525.4,673.6,551.2,111.8
169.25,470.4,524.9,670.0,555.1,103.2
169.5,466.6,522.8,654.9,548.1,96.7
169.75,462.3,513.4,673.1,549.6,110.0
170.0,466.9,524.2,669.3,553.5,104.3
170.25,466.0,539.8,674.1,560.0,105.5
170.5,463.1,527.7,671.0,553.9,106.4
170.75,483.8,535.8,665.7,561.8,93.7
171.0,482.5,522.5,649.2,551.4,87.1
171.25,467.7,520.4,657.6,548.5,98.0
171.5,465.3,527.2,682.4,558.3,111.8
171.75,459.2,537.9,675.2,557.4,109.3
172.0,467.6,518.8,679.3,555.2,110.4
172.25,465.9,528.3,674.3,556.2,106.9
172.5,471.5,522.4,696.4,563.5,117.9
172.75,471.3,522.3,677.9,557.1,107.6
173.0,462.2,525.2,676.9,554.8,110.4
173.25,474.0,523.0,675.0,557.3,104.8
173.5,471.5,527.5,659.2,552.7,96.3
173.75,465.1,539.3,677.9,560.8,108.0
174.0,477.2,523.5,658.6,553.1,94.3
174.25,467.2,529.3,683.8,560.1,111.5
174.5,469.5,532.5,670.9,557.6,103.0
174.75,470.2,537.7,679.3,562.4,106.7
175.0,487.9,522.7,660.7,557.1,91.4
175.25,465.7,523.2,651.7,546.9,95.3
175.5,473.0,522.7,657.2,550.9,95.3
175.75,476.0,526.3,663.2,555.2,96.9
176.0,465.3,520.1,647.0,544.1,93.2
176.25,474.1,527.0,662.1,554.4,96.9
176.5,470.6,521.8,678.8,557.0,108.5
176.75,485.3,520.0,666.9,557.4,96.4
177.0,483.2,519.4,642.8,548.5,83.7
177.25,480.5,524.7,655.7,553.6,91.1
177.5,488.5,518.0,636.8,547.7,78.5
177.75,485.2,513.1,662.8,553.7,95.5
178.0,484.2,523.8,649.3,552.4,86.2
178.25,483.7,522.5,647.6,551.3,85.6
178.5,476.7,507.8,645.0,543.2,89.6
178.75,472.8,519.4,639.2,543.8,85.9
179.0,479.3,518.6,637.8,545.2,82.5
179.25,481.7,531.9,648.8,554.1,85.7
179.5,477.9,538.7,629.8,548.8,76.5
179.75,482.0,526.9,637.0,548.7,79.8
180.0,470.2,503.4,631.9,535.2,85.4
180.25,494.0,534.6,627.4,552.0,68.4
180.5,488.4,537.2,630.3,551.9,72.1
180.75,486.3,535.2,631.0,550.8,73.6
181.0,482.8,518.0,621.7,540.8,72.2
181.25,480.6,520.4,622.4,541.1,73.1
181.5,484.2,512.0,620.2,538.8,71.9
181.75,484.5,522.3,639.4,548.7,80.8
182.0,496.6,518.5,619.8,545.0,65.7
182.25,499.9,528.4,604.8,544.4,54.2
182.5,480.8,510.5,618.0,536.5,72.2
182.75,474.1,516.8,604.9,531.9,66.7
183.0,492.7,525.0,599.8,539.2,55.0
183.25,480.0,520.5,625.6,542.0,75.2
183.5,492.5,516.8,601.9,537.1,57.5
183.75,485.0,529.0,615.0,543.0,66.1
184.0,494.4,527.2,612.9,544.8,61.2
184.25,496.2,533.5,611.2,547.0,58.7
184.5,490.4,516.3,605.0,537.2,60.1
184.75,502.9,511.4,596.7,537.0,51.9
185.0,487.8,519.2,608.7,538.6,62.7
185.25,492.7,520.4,607.9,540.3,60.1
185.5,490.3,537.9,601.9,543.4,56.0
185.75,496.3,527.7,608.9,544.3,58.1
186.0,493.3,522.6,613.4,543.1,62.6
186.25,499.1,513.4,602.0,538.1,55.7
186.5,496.2,524.7,610.1,543.7,59.3
186.75,484.6,530.6,616.9,544.0,67.2
187.0,502.4,532.1,616.5,550.3,59.2
187.25,508.4,527.3,619.6,551.8,59.5
187.5,504.8,526.9,603.4,545.0,51.8
187.75,514.0,532.4,617.6,554.6,55.3
188.0,513.6,524.9,611.1,549.9,53.3
188.25,511.9,535.7,626.3,558.0,60.3
188.5,514.8,530.2,624.3,556.4,59.2
188.75,509.1,522.3,593.5,541.6,45.4
189.0,508.7,535.4,618.3,554.1,57.1
189.25,506.2,526.2,602.9,545.1,51.0
189.5,523.6,529.2,603.7,552.2,44.7
189.75,493.2,515.4,625.8,544.8,71.0
190.0,517.8,546.3,620.0,561.4,52.7
190.25,519.1,517.1,616.6,551.0,56.9
190.5,517.9,529.3,613.9,553.7,52.4
190.75,534.1,539.6,618.6,564.1,47.3
191.0,521.1,547.7,607.7,558.8,44.4
191.25,520.6,532.4,613.5,555.5,50.5
191.5,527.2,522.7,619.0,556.3,54.4
191.75,522.8,520.3,618.3,553.8,55.9
192.0,532.6,536.6,600.8,556.7,38.3
192.25,519.3,538.7,644.6,567.6,67.5
192.5,532.2,538.1,616.9,562.4,47.3
192.75,531.6,537.0,627.9,565.5,54.1
193.0,522.4,532.4,640.1,565.0,65.2
193.25,540.0,534.9,616.4,563.8,45.7
193.5,546.8,527.9,627.4,567.4,52.8
193.75,529.0,531.2,627.9,562.7,56.5
194.0,541.8,531.5,631.2,568.2,54.8
194.25,539.5,544.3,625.3,569.7,48.2
194.5,556.0,512.8,624.7,564.5,56.4
194.75,540.8,522.2,641.7,568.2,64.3
195.0,547.3,525.9,626.0,566.4,52.7
195.25,548.9,542.0,627.9,573.0,47.7
195.5,553.1,531.1,626.5,570.2,50.0
195.75,560.0,531.0,618.2,569.8,44.4
196.0,561.0,526.7,644.8,577.5,60.7
196.25,553.9,516.7,655.9,575.5,72.1
196.5,553.6,526.4,644.3,574.8,61.8
196.75,567.9,534.4,649.0,583.8,58.9
197.0,567.3,518.7,652.0,579.3,67.5
197.25,559.9,516.1,650.2,575.4,68.4
197.5,551.3,527.0,666.7,581.6,74.6
197.75,569.0,520.5,648.3,579.3,64.5
198.0,565.1,528.7,650.3,581.4,62.4
198.25,581.9,526.6,649.5,586.0,61.6
198.5,568.3,525.4,671.6,588.4,75.1
198.75,581.7,534.9,668.0,594.9,67.5
199.0,590.6,528.2,684.0,600.9,78.4
199.25,578.5,527.6,681.6,595.9,78.4
199.5,587.5,538.5,668.7,598.2,65.8
199.75,585.5,537.4,666.1,596.3,65.0
200.0,584.9,519.9,676.9,593.9,78.9
200.25,591.7,529.8,685.1,602.2,78.2
200.5,592.0,528.1,674.6,598.2,73.4
200.75,593.2,510.3,672.4,592.0,81.1
201.0,589.9,519.4,685.0,598.1,83.1
201.25,602.4,519.7,696.6,606.2,88.5
201.5,598.2,544.3,704.9,615.8,81.8
201.75,587.2,536.9,679.9,601.4,72.5
202.0,613.8,534.9,686.7,611.8,75.9
202.25,599.5,536.6,695.1,610.4,79.8
202.5,614.4,540.6,688.7,614.6,74.1
202.75,581.0,546.9,698.4,608.8,79.4
203.0,616.6,548.2,701.6,622.1,76.8
203.25,633.9,562.7,702.8,633.1,70.0
203.5,619.9,544.5,706.8,623.7,81.2
203.75,595.2,550.5,699.4,615.0,76.4
204.0,616.8,561.3,696.2,624.8,67.8
204.25,610.3,567.3,723.2,633.6,80.5
204.5,632.9,537.9,691.4,620.8,77.5
204.75,607.1,574.7,719.5,633.8,76.0
205.0,626.9,561.5,718.1,635.5,78.6
205.25,622.0,575.1,710.3,635.8,68.7
205.5,635.6,586.4,713.3,645.1,64.0
205.75,634.1,574.6,720.8,643.2,73.5
206.0,629.4,552.9,719.2,633.8,83.3
206.25,633.8,579.6,705.9,639.8,63.3
206.5,625.7,584.3,717.5,642.5,68.2
206.75,639.6,575.1,748.7,654.5,87.8
207.0,658.9,576.9,762.0,665.9,92.7
207.25,645.5,583.3,726.2,651.6,71.7
207.5,649.2,576.1,732.3,652.5,78.2
207.75,640.6,562.9,754.6,652.7,96.4
208.0,641.0,588.3,746.6,658.7,80.6
208.25,635.2,584.3,756.4,658.6,88.4
208.5,643.2,575.1,760.8,659.7,94.0
208.75,649.4,580.4,755.2,661.7,88.0
209.0,631.2,588.6,729.4,649.7,72.2
209.25,635.3,592.2,765.6,664.4,90.3
209.5,632.5,593.0,781.4,669.0,99.3
209.75,640.5,595.9,772.6,669.7,91.9
210.0,641.3,619.0,779.9,680.1,87.2
210.25,635.1,608.6,786.5,676.7,96.0
210.5,647.2,606.9,782.1,678.7,91.8
210.75,660.9,611.6,796.5,689.7,95.7
211.0,616.3,596.7,788.6,667.2,105.6
211.25,631.9,616.6,781.3,676.6,91.0
211.5,648.3,613.4,784.7,682.1,90.5
211.75,615.0,615.9,782.2,671.1,96.3
212.0,624.1,626.0,770.2,673.4,83.8
212.25,621.1,618.7,790.9,676.9,98.7
212.5,624.8,630.3,763.6,672.9,78.6
212.75,631.7,631.6,752.1,671.8,69.5
213.0,625.5,629.6,772.7,675.9,83.8
213.25,623.6,635.1,781.9,680.2,88.2
213.5,626.1,654.0,780.2,686.8,82.1
213.75,624.2,659.5,771.4,685.0,76.8
214.0,623.9,650.4,780.3,684.9,83.7
214.25,620.0,637.2,781.4,679.5,88.6
214.5,613.3,678.8,758.0,683.3,72.5
214.75,621.6,660.0,784.1,688.6,84.9
215.0,629.0,667.6,765.8,687.5,70.5
215.25,608.1,667.3,778.8,684.7,86.7
215.5,621.8,712.1,763.7,699.2,71.8
215.75,623.3,695.8,776.3,698.5,76.6
216.0,614.8,683.7,770.9,689.8,78.2
216.25,610.7,723.2,771.8,701.9,82.7
216.5,618.6,709.8,777.8,702.0,79.9
216.75,614.1,710.4,754.8,693.1,71.9
217.0,611.3,732.0,756.0,699.8,77.6
217.25,620.6,738.9,747.8,702.4,71.0
217.5,611.4,704.7,748.0,688.0,69.8
217.75,624.1,761.7,751.0,712.3,76.5
218.0,614.0,736.8,733.7,694.8,70.0
218.25,597.0,784.7,725.6,702.4,96.0
218.5,616.5,761.4,719.9,699.3,74.6
218.75,605.1,775.7,725.5,702.1,87.7
219.0,606.4,720.3,719.1,681.9,65.4
219.25,593.8,752.7,699.4,682.0,80.9
219.5,600.2,762.4,699.3,687.3,81.8
219.75,590.8,782.2,695.2,689.4,95.8
220.0,599.6,781.9,686.8,689.4,91.1
220.25,595.9,755.8,671.4,674.4,80.0
220.5,589.4,774.2,662.9,675.5,93.0
220.75,605.3,766.1,681.8,684.4,80.5
221.0,603.7,773.2,662.0,679.6,86.1
221.25,591.7,790.1,650.3,677.3,101.9
221.5,603.9,771.8,637.0,670.9,88.9
221.75,586.6,785.7,652.5,674.9,101.4
222.0,589.8,791.9,645.1,675.6,104.5
222.25,604.4,787.6,643.1,678.4,96.5
222.5,595.3,793.2,616.0,668.2,108.8
222.75,599.5,760.7,612.9,657.7,89.4
223.0,623.8,805.7,611.0,680.2,108.9
223.25,589.5,778.5,636.2,668.1,98.5
223.5,597.1,788.7,613.3,666.4,106.3
223.75,596.6,817.5,596.4,670.2,127.6
224.0,598.7,801.9,599.0,666.5,117.2
224.25,598.4,819.4,602.5,673.4,126.4
224.5,597.7,804.5,605.0,669.1,117.3
224.75,591.7,822.9,589.1,667.9,134.2
225.0,614.7,813.4,579.8,669.3,126.0
225.25,605.4,817.3,592.6,671.8,126.2
225.5,611.8,814.8,575.4,667.3,129.0
225.75,593.0,803.4,589.0,661.8,122.6
226.0,595.9,796.8,568.3,653.7,124.7
226.25,605.0,803.0,571.4,659.8,125.1
226.5,602.3,787.4,572.6,654.1,116.4
226.75,604.1,831.8,560.3,665.4,145.7
227.0,610.3,810.1,559.3,659.9,132.6
227.25,610.4,806.3,550.5,655.7,133.8
227.5,602.5,798.2,548.9,649.9,131.2
227.75,589.9,780.1,551.0,640.3,122.6
228.0,595.1,790.9,545.7,643.9,129.7
228.25,592.8,778.1,543.2,638.0,123.8
228.5,604.5,807.9,536.5,649.6,141.2
228.75,590.9,768.3,535.1,631.4,121.7
229.0,584.8,803.2,520.7,636.2,148.1
229.25,587.6,781.1,536.5,635.1,129.0
229.5,590.9,795.4,514.6,633.6,145.2
229.75,589.4,755.1,518.8,621.1,121.3
230.0,574.8,776.3,520.0,623.7,135.0
230.25,582.6,774.5,508.1,621.7,137.4
230.5,575.9,780.2,512.6,622.9,139.8
230.75,571.8,786.5,511.1,623.2,144.7
231.0,572.1,752.4,504.2,609.6,128.3
231.25,559.2,764.1,494.5,605.9,140.8
231.5,569.1,763.4,487.7,606.8,141.7
231.75,559.5,757.7,488.4,601.9,139.5
232.0,559.9,783.6,492.5,612.0,152.4
232.25,561.4,761.4,486.4,603.1,142.1
232.5,582.0,753.1,490.9,608.7,133.1
232.75,557.6,775.1,475.9,602.8,154.7
233.0,564.2,776.5,475.6,605.5,154.6
233.25,554.2,748.4,470.0,590.9,142.8
233.5,578.8,744.3,471.1,598.1,137.6
233.75,570.5,761.3,471.9,601.2,147.1
234.0,563.2,763.6,461.5,596.1,153.7
234.25,557.2,761.0,459.2,592.5,154.0
234.5,549.7,733.6,469.5,584.3,135.4
234.75,570.5,741.6,455.6,589.2,143.9
235.0,556.9,762.2,457.8,592.3,155.3
235.25,552.3,738.4,442.9,577.9,149.4
235.5,554.9,727.4,448.9,577.1,140.5
235.75,564.5,751.3,444.9,586.9,154.4
236.0,556.0,733.3,442.4,577.2,146.6
236.25,547.7,732.1,444.9,574.9,145.5
236.5,554.6,736.2,452.1,581.0,143.9
236.75,554.6,751.1,443.9,583.2,155.6
237.0,561.0,747.3,447.0,585.1,151.6
237.25,557.7,738.2,433.1,576.3,153.4
237.5,566.0,727.2,438.0,577.1,144.9
237.75,568.4,736.3,437.2,580.6,149.9
238.0,551.5,726.5,430.6,569.5,148.8
238.25,555.2,712.9,429.2,565.7,142.2
238.5,562.2,716.2,431.6,570.0,142.5
238.75,562.3,715.8,427.1,568.4,144.4
239.0,557.6,711.3,422.9,563.9,144.3
239.25,560.2,701.2,423.9,561.8,138.7
239.5,550.7,694.2,418.7,554.6,137.8
239.75,554.9,697.1,416.4,556.1,140.3
240.0,561.2,671.7,413.3,548.7,129.6
240.25,549.6,672.8,422.5,548.3,125.2
240.5,556.4,680.6,407.0,548.0,137.0
240.75,563.1,666.3,407.8,545.8,130.1
241.0,565.1,662.3,403.1,543.5,130.9
241.25,564.2,669.0,408.0,547.0,131.3
241.5,567.3,649.4,401.7,539.4,126.2
241.75,552.0,636.7,400.8,529.8,119.5
242.0,564.4,651.0,397.1,537.5,129.1
242.25,548.6,653.2,396.4,532.7,129.1
242.5,545.1,643.7,395.2,528.0,125.1
242.75,557.1,649.3,394.8,533.7,128.9
243.0,555.0,628.1,387.6,523.6,123.3
243.25,558.5,633.9,390.2,527.5,124.8
243.5,553.3,631.5,390.4,525.1,123.0
243.75,544.5,628.3,388.2,520.3,121.9
244.0,543.3,627.5,375.6,515.5,128.3
244.25,537.6,625.1,383.2,515.3,122.5
244.5,529.1,622.9,383.9,512.0,120.4
244.75,521.2,596.9,383.8,500.6,108.0
245.0,520.3,616.7,377.0,504.6,120.6
245.25,511.1,633.4,377.1,507.2,128.2
245.5,504.4,607.0,373.4,494.9,117.1
245.75,514.2,611.3,374.2,499.9,119.2
246.0,505.8,604.6,375.6,495.3,114.9
246.25,497.6,592.4,368.1,486.0,112.6
246.5,504.4,593.2,367.5,488.4,113.7
246.75,493.4,590.8,368.6,484.3,111.4
247.0,479.6,583.1,370.4,477.7,106.4
247.25,476.6,584.7,359.7,473.6,112.5
247.5,489.1,573.6,366.8,476.5,104.0
247.75,479.7,579.1,363.5,474.1,107.9
248.0,475.3,577.5,357.1,469.9,110.3
248.25,475.3,570.7,363.7,469.9,103.6
248.5,467.7,567.2,359.8,464.9,103.8
248.75,465.0,557.4,354.5,459.0,101.6
249.0,457.3,565.6,355.5,459.5,105.1
249.25,464.4,549.1,348.9,454.1,100.5
249.5,465.0,543.8,355.0,454.6,94.8
249.75,452.5,530.3,353.5,445.4,88.6
250.0,454.3,532.6,351.1,446.0,91.0
250.25,446.1,532.8,343.2,440.7,94.9
250.5,445.7,530.6,351.4,442.6,89.6
250.75,437.2,522.0,345.5,434.9,88.2
251.0,441.1,520.0,348.2,436.4,86.0
251.25,436.2,514.2,341.0,430.5,86.7
251.5,431.4,518.5,340.0,429.9,89.2
251.75,434.9,528.0,337.4,433.4,95.3
252.0,436.0,494.6,349.9,426.8,72.8
252.25,430.9,502.2,341.5,424.9,80.5
252.5,432.8,508.0,338.9,426.6,84.7
252.75,426.9,506.8,335.8,423.1,85.5
253.0,425.6,500.1,338.3,421.3,81.0
253.25,420.2,513.4,333.6,422.4,89.9
253.5,423.9,497.8,330.3,417.3,83.9
253.75,416.8,489.9,330.5,412.4,79.8
254.0,412.0,480.1,330.2,407.4,75.1
254.25,417.3,490.1,322.9,410.1,83.8
254.5,409.3,483.5,318.6,403.8,82.6
254.75,406.0,479.1,326.0,403.7,76.6
255.0,404.2,483.5,318.4,402.0,82.6
255.25,411.4,472.3,318.0,400.6,77.7
255.5,400.9,469.0,317.8,395.9,75.7
255.75,407.5,466.0,317.6,397.0,74.7
256.0,405.2,461.9,313.3,393.4,75.0
256.25,394.9,456.6,312.9,388.1,72.1
256.5,398.9,457.3,310.1,388.8,74.1
256.75,402.4,456.7,309.1,389.4,74.7
257.0,389.1,454.8,308.7,384.2,73.2
257.25,385.8,461.7,309.3,385.6,76.2
257.5,388.4,455.0,306.4,383.3,74.4
257.75,389.6,442.4,300.6,377.5,71.7
258.0,383.2,434.7,302.6,373.5,66.6
258.25,387.8,438.8,298.1,374.9,71.2
258.5,374.8,435.8,302.0,370.8,67.0
258.75,376.4,442.3,295.9,371.5,73.3
259.0,373.5,436.2,291.3,367.0,72.7
259.25,376.7,431.8,293.9,367.5,69.4
259.5,379.7,429.4,297.6,368.9,66.5
259.75,368.8,430.4,292.0,363.7,69.3
260.0,370.7,418.1,291.4,360.0,64.0
260.25,371.1,421.7,286.8,359.8,68.1
260.5,364.7,422.6,290.1,359.2,66.4
260.75,370.0,408.3,285.1,354.4,63.0
261.0,356.3,410.4,285.6,350.8,62.6
261.25,355.7,414.3,284.8,351.6,64.8
261.5,361.1,409.7,283.6,351.5,63.6
261.75,363.6,413.7,282.7,353.3,66.1
262.0,353.1,400.8,282.6,345.5,59.5
262.25,353.3,400.1,279.7,344.4,60.7
262.5,358.5,400.7,280.0,346.4,61.2
262.75,351.0,388.7,279.1,339.6,55.7
263.0,352.5,387.9,276.2,338.9,57.1
263.25,349.1,381.7,274.2,335.0,55.1
263.5,347.0,384.2,276.5,335.9,54.7
263.75,345.3,377.6,275.8,332.9,52.0
264.0,340.5,376.0,273.0,329.9,52.3
264.25,352.9,370.1,271.4,331.5,52.7
264.5,341.8,365.6,272.9,326.7,48.2
264.75,345.1,368.7,265.4,326.4,54.1
265.0,343.3,365.6,270.9,326.6,49.5
265.25,344.1,366.8,269.2,326.7,51.1
265.5,338.0,368.8,265.8,324.2,52.8
265.75,337.4,358.7,266.2,320.7,48.4
266.0,337.3,352.9,265.9,318.7,46.4
266.25,336.0,356.7,260.2,317.6,50.8
266.5,331.8,356.1,266.2,318.0,46.5
266.75,328.2,353.2,263.7,315.0,46.2
267.0,332.1,349.9,259.6,313.9,47.8
267.25,330.1,345.1,258.3,311.2,46.4
267.5,321.8,343.8,259.6,308.4,43.7
267.75,321.7,346.8,261.4,310.0,43.9
268.0,324.1,338.9,256.5,306.5,43.9
268.25,318.3,336.1,261.6,305.3,38.9
268.5,317.1,339.9,258.0,305.0,42.3
268.75,322.9,334.1,254.0,303.7,43.4
269.0,318.0,328.1,254.2,300.1,40.1
269.25,311.3,328.7,250.1,296.7,41.3
269.5,312.1,323.6,250.9,295.5,39.1
269.75,311.5,325.3,245.6,294.2,42.6
270.0,305.0,324.7,247.9,292.5,39.9
270.25,306.2,323.7,246.6,292.1,40.4
270.5,308.7,316.4,243.1,289.4,40.2
270.75,302.5,319.3,242.5,288.1,40.3
271.0,303.5,319.0,240.7,287.7,41.4
271.25,303.1,311.3,239.0,284.5,39.6
271.5,298.8,316.8,239.9,285.2,40.2
271.75,298.1,316.0,237.6,283.9,41.1
272.0,301.3,310.7,240.3,284.1,38.2
272.25,294.9,310.3,235.2,280.1,39.7
272.5,298.9,309.6,230.3,279.6,43.0
272.75,296.0,307.9,234.3,279.4,39.5
273.0,297.7,302.6,227.0,275.7,42.3
273.25,293.7,304.7,230.4,276.3,40.1
273.5,294.3,294.0,231.2,273.2,36.4
273.75,290.7,301.4,227.3,273.1,40.1
274.0,286.3,303.7,224.2,271.4,41.8
274.25,290.3,299.7,225.0,271.6,40.7
274.5,289.1,295.9,225.9,270.3,38.6
274.75,287.9,298.2,219.4,268.5,42.8
275.0,282.8,289.2,223.9,265.3,36.0
275.25,284.4,292.2,216.9,264.5,41.4
275.5,286.1,288.8,217.1,264.0,40.6
275.75,283.2,293.4,218.1,264.9,40.8
276.0,285.0,281.7,214.5,260.4,39.8
276.25,284.4,283.1,212.9,260.1,40.9
276.5,279.6,282.1,214.9,258.9,38.1
276.75,288.4,284.1,212.4,261.6,42.7
277.0,281.7,283.0,209.1,257.9,42.3
277.25,281.1,277.8,211.9,256.9,39.0
277.5,278.0,274.9,209.3,254.0,38.8
277.75,277.9,271.9,210.8,253.5,37.1
278.0,274.9,271.3,206.5,250.9,38.5
278.25,277.9,276.0,202.7,252.2,42.9
278.5,274.9,264.8,204.9,248.2,37.8
278.75,275.9,268.2,207.1,250.4,37.7
279.0,268.9,268.0,203.2,246.7,37.7
279.25,274.3,264.4,200.4,246.4,40.1
279.5,269.4,265.8,200.1,245.1,39.0
279.75,268.1,267.9,198.9,245.0,39.9
280.0,264.1,259.8,195.3,239.7,38.5
280.25,263.2,259.7,196.3,239.7,37.7
280.5,263.0,256.2,195.8,238.3,37.0
280.75,264.5,254.6,192.4,237.2,39.1
281.0,263.1,258.8,191.5,237.8,40.1
281.25,264.8,251.2,189.3,235.1,40.2
281.5,258.9,256.0,189.7,234.8,39.2
281.75,262.3,251.2,185.6,233.0,41.5
282.0,261.5,250.4,189.7,233.9,38.6
282.25,260.1,250.8,186.1,232.3,40.3
282.5,260.4,245.6,180.3,228.8,42.6
282.75,253.9,246.6,182.7,227.8,39.2
283.0,260.2,243.7,181.3,228.4,41.6
283.25,257.3,242.8,178.3,226.1,42.1
283.5,256.0,239.1,176.8,224.0,41.7
283.75,253.3,244.2,173.8,223.8,43.5
284.0,253.8,238.9,174.7,222.5,42.0
284.25,255.8,242.4,171.7,223.3,45.1
284.5,247.6,237.2,172.9,219.2,40.5
284.75,249.7,237.1,171.1,219.3,42.2
285.0,251.1,230.6,171.4,217.7,41.4
285.25,254.5,232.9,166.3,217.9,46.0
285.5,249.1,230.2,165.7,215.0,43.7
285.75,251.2,227.4,167.3,215.3,43.2
286.0,250.4,226.2,167.3,214.7,42.7
286.25,245.8,225.4,164.8,212.0,42.1
286.5,245.0,223.4,164.2,210.9,41.8
286.75,245.3,223.9,164.5,211.2,41.8
287.0,246.0,223.2,161.8,210.3,43.6
287.25,248.8,219.7,160.9,209.8,44.8
287.5,242.5,222.2,162.2,208.9,41.7
287.75,241.7,218.6,160.8,207.0,41.7
288.0,236.3,221.8,157.6,205.2,41.9
288.25,241.2,216.8,157.1,205.0,43.3
288.5,240.1,217.2,157.7,205.0,42.5
288.75,240.2,217.1,158.3,205.2,42.2
289.0,237.7,211.5,153.7,201.0,43.0
289.25,233.9,212.9,152.8,199.9,42.1
289.5,235.1,211.2,153.7,200.0,41.8
289.75,235.4,210.2,152.8,199.5,42.3
290.0,232.1,208.1,151.2,197.2,41.5
290.25,230.9,213.4,148.2,197.5,43.6
290.5,232.2,207.4,148.5,196.0,43.0
290.75,232.0,206.8,146.3,195.0,44.0
291.0,227.9,205.2,145.1,192.8,42.8
291.25,229.7,206.5,145.8,194.0,43.3
291.5,224.5,201.6,145.2,190.5,40.8
291.75,223.9,201.9,142.7,189.5,42.0
292.0,224.1,200.8,141.6,188.8,42.5
292.25,221.9,200.5,140.1,187.5,42.4
292.5,220.4,197.0,138.9,185.4,41.9
292.75,220.0,199.7,138.0,185.9,42.7
293.0,217.9,194.4,137.1,183.1,41.5
293.25,216.8,196.2,133.3,182.1,43.5
293.5,210.8,194.5,131.9,179.1,41.6
293.75,216.0,192.2,130.7,179.6,44.0
294.0,214.0,186.8,127.7,176.2,44.1
294.25,210.1,190.2,128.3,176.2,42.7
294.5,211.2,188.3,127.5,175.7,43.2
294.75,207.6,186.8,127.7,174.0,41.4
295.0,206.9,183.7,125.5,172.0,41.9
295.25,207.3,185.4,123.4,172.0,43.5
295.5,204.5,184.6,122.3,170.5,42.9
295.75,202.3,181.5,121.1,168.3,42.2
296.0,204.2,181.4,118.5,168.0,44.4
296.25,202.0,178.9,119.1,166.7,42.8
296.5,202.3,179.8,118.3,166.8,43.5
296.75,202.1,175.5,113.4,163.7,45.5
297.0,202.8,173.6,114.8,163.7,44.8
297.25,199.4,173.6,112.5,161.8,44.6
297.5,197.1,170.9,112.0,160.0,43.6
297.75,195.6,168.7,109.6,158.0,44.0
298.0,196.1,167.4,109.4,157.6,44.1
298.25,198.7,163.0,108.2,156.6,45.6
298.5,192.0,161.9,106.1,153.3,43.6
298.75,192.9,160.6,105.7,153.1,44.0
299.0,189.4,157.4,103.2,150.0,43.6
299.25,187.2,156.0,102.7,148.6,42.7
299.5,188.5,153.1,103.9,148.5,42.5
299.75,188.4,152.7,99.1,146.7,45.0
300.0,185.7,153.2,99.3,146.1,43.6
300.25,184.1,146.5,97.8,142.8,43.3
300.5,183.3,147.3,97.4,142.7,43.2
300.75,182.0,147.8,95.2,141.7,43.7
301.0,184.2,145.2,93.6,141.0,45.5
301.25,178.1,142.1,91.6,137.3,43.4
301.5,182.3,141.6,91.0,138.3,45.7
301.75,179.8,138.6,89.7,136.0,45.1
302.0,178.8,136.4,89.2,134.8,44.8
302.25,176.7,135.9,88.4,133.7,44.2
302.5,175.5,133.0,87.6,132.0,44.0
302.75,175.8,132.8,86.8,131.8,44.5
303.0,177.0,128.4,85.1,130.2,45.9
303.25,172.5,129.0,83.8,128.4,44.4
303.5,174.0,125.7,83.5,127.8,45.3
303.75,172.4,125.5,82.8,126.9,44.8
304.0,171.8,123.6,81.5,125.6,45.2
304.25,169.5,122.6,81.6,124.6,44.0
304.5,168.9,122.2,80.6,123.9,44.2
304.75,169.5,118.2,80.6,122.7,44.6
305.0,166.3,118.1,79.1,121.1,43.7
305.25,166.3,117.9,79.9,121.4,43.3
305.5,162.9,114.0,79.7,118.9,41.8
305.75,163.4,114.5,78.9,118.9,42.5
306.0,162.6,111.6,77.8,117.3,42.7
306.25,159.2,109.5,77.5,115.4,41.2
306.5,155.2,108.8,77.5,113.9,39.1
306.75,153.6,108.9,76.6,113.0,38.7
307.0,154.5,108.6,76.7,113.3,39.1
307.25,151.4,105.8,77.0,111.4,37.5
307.5,147.9,106.1,76.7,110.2,35.8
307.75,148.2,104.7,74.7,109.2,36.9
308.0,144.4,104.5,75.8,108.2,34.5
308.25,146.0,103.8,74.1,108.0,36.1
308.5,145.3,101.4,74.7,107.2,35.6
308.75,143.4,101.1,74.3,106.3,34.8
309.0,143.7,98.6,74.1,105.5,35.3
309.25,141.5,99.8,73.2,104.8,34.4
309.5,137.4,98.4,74.4,103.4,31.8
309.75,137.1,97.8,72.7,102.5,32.5
310.0,134.9,96.6,73.7,101.7,30.9
310.25,135.9,95.6,72.6,101.4,32.0
310.5,131.1,94.9,72.0,99.3,29.8
310.75,131.3,93.9,71.9,99.0,30.0
311.0,129.9,92.9,71.6,98.1,29.5
311.25,128.3,92.3,70.9,97.1,29.0
311.5,126.3,91.5,71.7,96.5,27.6
311.75,125.2,92.5,72.1,96.6,26.8
312.0,123.2,91.4,71.4,95.3,26.1
312.25,124.4,90.0,71.2,95.2,27.0
312.5,119.0,90.4,71.1,93.5,24.1
312.75,117.3,88.3,71.8,92.5,23.0
313.0,115.3,88.2,70.3,91.3,22.6
313.25,112.9,88.5,70.7,90.7,21.2
313.5,111.9,88.3,70.4,90.2,20.8
313.75,108.8,87.9,70.4,89.0,19.2
314.0,106.8,87.5,70.8,88.4,18.0
314.25,106.3,87.1,70.7,88.0,17.8
314.5,103.6,86.4,69.7,86.6,16.9
314.75,101.7,,70.3,86.0,22.2
315.0,99.6,,70.9,85.2,20.3
315.25,97.6,,69.1,83.3,20.1
315.5,96.4,,70.1,83.3,18.6
315.75,96.9,,69.4,83.2,19.5
316.0,95.0,,69.4,82.2,18.1
316.25,92.2,,68.2,80.2,17.0
316.5,93.7,,68.6,81.1,17.7
316.75,90.4,,68.3,79.3,15.7
317.0,89.8,,67.6,78.7,15.7
317.25,89.0,,68.4,78.7,14.5
317.5,87.5,,68.4,78.0,13.5
317.75,87.5,,69.1,78.3,13.0
318.0,87.6,,68.2,77.9,13.8
318.25,84.7,,69.0,76.9,11.1
318.5,82.8,,67.5,75.2,10.8
318.75,84.1,,69.3,76.7,10.5
319.0,81.9,,68.4,75.1,9.5
319.25,82.2,,67.6,74.9,10.3
319.5,81.2,,67.7,74.5,9.6
319.75,80.5,,68.7,74.6,8.3
320.0,80.3,,69.4,74.9,7.7
320.25,79.5,,68.8,74.2,7.6
320.5,78.8,,67.8,73.3,7.8
320.75,78.1,,68.2,73.2,7.0
321.0,77.5,,69.0,73.2,6.0
321.25,77.6,,68.8,73.2,6.3
321.5,76.1,,69.1,72.6,5.0
321.75,76.3,,68.0,72.1,5.9
322.0,75.3,,69.3,72.3,4.3
322.25,74.4,,68.4,71.4,4.2
322.5,74.7,,68.2,71.5,4.6
322.75,74.2,,69.4,71.8,3.4
323.0,74.2,,69.3,71.8,3.5
323.25,72.6,,68.1,70.3,3.2
323.5,73.7,,69.1,71.4,3.3
323.75,72.8,,69.0,70.9,2.7
324.0,74.3,,68.5,71.4,4.1
324.25,72.4,,67.4,69.9,3.5
324.5,71.0,,66.9,69.0,2.9
324.75,72.5,,67.4,69.9,3.5
325.0,71.2,,67.7,69.4,2.5
325.25,71.3,,67.7,69.5,2.5
325.5,71.0,,67.9,69.5,2.2
325.75,70.3,,67.5,68.9,2.0
326.0,70.8,,68.4,69.6,1.7
326.25,70.4,,67.0,68.7,2.4
326.5,70.1,,67.1,68.6,2.1
326.75,69.1,,67.0,68.1,1.5
327.0,69.1,,67.5,68.3,1.2
327.25,68.4,,68.7,68.5,0.2
327.5,69.6,,,69.6,
327.75,68.7,,,68.7,
328.0,68.4,,,68.4,
328.25,69.3,,,69.3,
328.5,69.2,,,69.2,
328.75,68.8,,,68.8,
329.0,67.5,,,67.5,
329.25,67.6,,,67.6,
329.5,66.7,,,66.7,
329.75,67.8,,,67.8,
330.0,68.6,,,68.6,
330.25,67.0,,,67.0,
330.5,66.1,,,66.1,
330.75,66.4,,,66.4,
331.0,66.8,,,66.8,
331.25,67.2,,,67.2,
331.5,66.0,,,66.0,
331.75,66.0,,,66.0,
332.0,66.3,,,66.3,
332.25,66.1,,,66.1,
332.5,65.1,,,65.1,
332.75,65.8,,,65.8,
333.0,65.1,,,65.1,
333.25,65.7,,,65.7,
333.5,65.6,,,65.6,
333.75,63.8,,,63.8,
334.0,65.2,,,65.2,
334.25,65.0,,,65.0,
334.5,65.0,,,65.0,
334.75,65.2,,,65.2,
335.0,64.5,,,64.5,
335.25,64.6,,,64.6,
335.5,63.7,,,63.7,
335.75,64.2,,,64.2,
336.0,64.4,,,64.4,
336.25,63.3,,,63.3,
336.5,63.6,,,63.6,
336.75,63.2,,,63.2,
337.0,62.8,,,62.8,
337.25,63.1,,,63.1,
337.5,62.6,,,62.6,
337.75,62.3,,,62.3,
338.0,63.3,,,63.3,
338.25,62.7,,,62.7,
338.5,62.9,,,62.9,
338.75,61.7,,,61.7,
339.0,62.4,,,62.4,
339.25,62.2,,,62.2,
339.5,62.3,,,62.3,
339.75,62.1,,,62.1,
340.0,61.0,,,61.0,
340.25,60.9,,,60.9,
340.5,61.5,,,61.5,
340.75,60.4,,,60.4,