File: 01_Data/Red_Accent_Chair/Furniture_Calorimeter/Red_Accent_Chair_R3.csv
Time (s),Convective HRR,TCPlume1,TCPlume2,TCPlume3,DPPlume1,DPPlume2,DPPlume3,HF1,HF2,HF3,HF4,HF5,HF6,RAD2,RAD1,Load Cell,Heat Release Rate,Total Heat Released
-119,0.0,-7.00764,-6.84051,8.23116,0.0914678,0.0948441,-0.00670195,0.640542,-0.249218,-0.116329,-1.81143,0.0535646,0.0606093,0.779224,3.8402,20.4434,0.73985,0.0
-114,0.0,-6.53267,-6.83471,7.93075,-0.00727658,-0.0418693,-0.0446797,-0.161821,0.649477,0.697975,0.775294,0.428517,-0.0808124,0.613177,2.88169,20.4849,0.0,0.0
-109,0.0,-7.19745,-7.06938,7.81596,-0.0148723,-0.0418693,-0.143422,-0.161821,0.649477,-0.930634,0.775294,0.0535646,-0.0808124,0.613177,2.88169,20.4641,0.0,0.0
-104,0.0,-7.28152,-6.99695,8.1929,-0.022468,-0.117821,-0.0674663,0.640542,-0.249218,-0.930634,-0.0869489,0.428517,-0.0808124,0.447131,3.8402,20.2772,0.0,0.0
-99,0.0,-7.04676,-7.23169,8.23116,-0.0148723,0.0416778,-0.0370841,0.640542,0.649477,-0.930634,-0.0869489,0.0535646,-0.0808124,0.447131,3.8402,20.2772,0.0,0.0
-94,0.0,-6.65572,-6.91872,8.38419,-0.0452552,-0.0646548,-0.0598708,-0.161821,0.649477,0.697975,-0.949192,-0.321388,0.0606093,0.613177,1.92317,20.1319,0.0,0.0
-89,0.0,-7.13081,-6.92453,8.11071,-0.0148723,-0.0114885,0.0692535,-0.161821,0.649477,0.697975,-0.949192,-0.69634,-0.0808124,0.447131,4.79872,20.4434,0.0,0.0
-84,0.0,-6.66152,-6.88542,7.99592,0.0382978,0.125225,-0.00670195,0.640542,-1.14791,-0.930634,-0.0869489,0.0535646,0.343453,0.447131,2.88169,20.2772,0.0,0.0
-79,0.0,-7.41055,-6.93033,7.91372,0.0458935,-0.0570597,0.00848914,0.640542,-1.14791,-1.74494,-0.0869489,0.0535646,-0.222234,0.613177,2.88169,20.2772,0.0,0.0
-74,0.0,-7.29313,-7.04768,8.21981,0.0838721,-0.07225,-0.00670195,-0.161821,-0.249218,-0.116329,-0.0869489,-0.321388,0.0606093,0.447131,3.8402,20.4641,0.0,0.0
-69,0.0,-7.80795,-6.81881,8.71145,0.0231063,0.0340826,-0.00670195,0.640542,0.649477,0.697975,-0.0869489,-0.321388,0.0606093,0.779224,4.79872,20.298,0.0,0.0
-64,0.0,-6.94103,-7.24331,8.29633,-0.00727658,0.0872489,0.0236802,-0.161821,-0.249218,-0.116329,0.775294,-0.321388,-0.0808124,0.779224,3.8402,20.3188,0.0,0.0
-59,0.0,-7.02506,-7.01436,8.29065,0.00791487,0.0188922,-0.0294886,0.640542,0.649477,-0.930634,-0.949192,0.428517,0.202031,0.945271,3.8402,20.2772,0.0,0.0
-54,0.0,-7.02506,-7.05348,8.06109,0.0534892,0.0264874,0.061658,-0.964185,1.54817,-0.930634,-0.0869489,0.428517,0.202031,0.613177,2.88169,20.4641,0.0,0.0
-49,0.0,-6.86861,-7.13173,7.83152,0.030702,0.0720586,0.0388713,-0.161821,0.649477,0.697975,-0.0869489,0.0535646,-0.0808124,0.447131,3.8402,20.4849,0.0,0.0
-44,0.0,-7.38303,-7.17666,7.78758,0.030702,-0.0418693,-0.0978485,-0.964185,-0.249218,-0.116329,-0.949192,0.0535646,0.0606093,0.447131,1.92317,20.4434,0.0,0.0
-39,0.0,-7.42217,-7.29406,8.01716,0.0610849,0.049273,0.0236802,-0.161821,0.649477,0.697975,-0.949192,0.0535646,-0.0808124,0.613177,1.92317,20.4641,0.0,0.0
-34,0.0,-7.89211,-7.3332,8.39975,-0.0680424,0.0568682,-0.0826574,0.640542,0.649477,-0.116329,-0.949192,-0.321388,0.202031,0.613177,3.8402,20.2772,1.64872,0.0
-29,0.0,-7.46713,-7.37815,8.12626,0.0914678,-0.00389333,0.076849,-0.161821,-0.249218,-0.930634,-0.949192,0.0535646,-0.0808124,0.613177,2.88169,20.1111,4.59958,0.0
-24,0.0,-7.23229,-7.49559,8.2793,0.0231063,0.0340826,0.114827,0.640542,0.649477,0.697975,-0.949192,0.0535646,0.0606093,0.779224,3.8402,20.298,3.0965,0.0
-19,0.0,-6.72962,-7.38396,8.23536,0.0686807,0.0340826,0.0160847,-0.964185,-1.14791,-0.116329,-0.0869489,0.428517,0.0606093,0.613177,3.8402,20.4641,6.59818,0.0
-14,0.0,-7.46132,-7.25492,7.90237,0.0155106,-0.0266789,0.076849,-0.161821,-0.249218,-0.930634,-0.949192,0.428517,0.0606093,0.779224,3.8402,20.2565,5.78042,0.0
-9,0.0,-7.90955,-7.15495,8.07665,0.0382978,0.102439,0.0540624,-0.161821,-0.249218,-0.116329,0.775294,0.0535646,0.0606093,0.613177,3.8402,20.4434,9.38173,0.0
-4,0.0,-7.27142,-7.14334,7.70537,-0.0300637,-0.0798452,-0.0978485,0.640542,-2.04661,-0.930634,0.775294,0.428517,-0.0808124,0.613177,4.79872,20.2772,15.2757,0.0
1,0.0,-7.74705,-7.30568,7.77622,-0.00727658,-0.0570597,-0.0598708,-0.161821,-1.14791,-0.116329,-0.949192,0.0535646,0.0606093,0.447131,2.88169,20.4849,25.226,0.0226742
6,0.0,-7.40046,-7.27235,8.03839,-0.0680424,0.0340826,-0.0142975,-0.161821,0.649477,1.51228,-0.0869489,0.0535646,-0.0808124,0.779224,2.88169,20.4434,27.261,0.149243
11,0.0,-7.37294,-7.3231,8.10355,-0.022468,0.00370186,-0.00670195,0.640542,0.649477,-0.116329,0.775294,-0.321388,0.0606093,0.613177,2.88169,20.2772,26.0256,0.279122
16,0.0,-7.88782,-7.36806,8.13613,-0.0300637,0.049273,-0.0142975,-0.161821,0.649477,-0.116329,-0.0869489,0.0535646,0.0606093,0.779224,2.88169,20.4226,28.9587,0.40779
21,0.0,-7.24972,-7.12164,8.30052,-0.0148723,0.0188922,0.0160847,-0.964185,-0.249218,-0.116329,0.775294,-0.321388,0.0606093,0.779224,3.8402,20.4226,29.5077,0.552845
26,0.0,-7.4396,-7.03759,8.11491,0.000319148,0.0644634,0.0540624,1.44291,-0.249218,0.697975,-0.0869489,0.0535646,-0.0808124,0.613177,3.8402,20.4018,34.2977,0.710646
31,0.0,-7.13814,-7.08832,7.95051,0.0155106,0.0188922,0.00848914,-0.161821,0.649477,-0.116329,0.775294,0.0535646,-0.0808124,0.613177,2.88169,20.2772,35.4795,0.905188
36,0.0,-7.10482,-7.21151,7.83004,-0.0756381,-0.00389333,-0.0446797,-0.161821,-0.249218,0.697975,-0.0869489,0.0535646,-0.0808124,0.447131,2.88169,20.2772,40.6223,1.08844
41,0.0,-7.71951,-7.16076,8.14749,0.0990636,-0.0798452,-0.0598708,-0.964185,-0.249218,-0.116329,-0.0869489,0.428517,-0.0808124,0.779224,1.92317,20.298,34.4853,1.25426
46,0.0,-8.55422,-6.66395,9.24543,-0.0300637,-0.0494645,0.0160847,0.640542,-1.14791,1.51228,0.775294,0.803469,-0.0808124,0.613177,3.8402,20.4641,34.218,1.42323
51,0.0,-7.99955,-7.44053,7.98877,0.0762764,0.011297,0.122422,-0.964185,-0.249218,-0.116329,-0.949192,0.428517,0.0606093,0.779224,3.8402,20.298,34.13,1.58869
56,0.0,-7.2222,-7.21151,8.17439,0.0534892,0.185986,0.0160847,1.44291,0.649477,-0.116329,0.775294,0.0535646,-0.0808124,0.613177,3.8402,20.4641,38.4482,1.77194
61,0.0,-7.38456,-7.02169,8.05393,-0.0756381,-0.0266789,-0.0142975,-0.161821,-0.249218,0.697975,1.63754,0.0535646,0.0606093,0.779224,1.92317,20.298,48.2454,1.98254
66,0.0,-6.48503,-7.21732,7.82436,-0.022468,-0.0798452,-0.0826574,-0.161821,0.649477,0.697975,0.775294,-0.321388,0.202031,0.779224,3.8402,20.2772,43.6585,2.19632
71,0.0,-7.54696,-7.34054,7.85694,0.0155106,-0.0342741,-0.0370841,-0.161821,1.54817,-0.116329,0.775294,0.803469,-0.0808124,0.613177,1.92317,20.4434,43.7905,2.40535
76,0.0,-7.81529,-7.25645,8.24523,0.030702,-0.0266789,0.0312758,0.640542,-0.249218,0.697975,-0.0869489,0.0535646,0.343453,0.945271,3.8402,20.298,40.6361,2.62775
81,0.0,-7.16137,-7.46378,8.1191,-0.0452552,-0.0646548,-0.0142975,0.640542,0.649477,0.697975,0.775294,0.0535646,0.0606093,0.779224,4.79872,20.4434,46.2139,2.85133
86,0.0,-6.33455,-7.184,8.39259,0.00791487,-0.0342741,-0.0370841,1.44291,1.54817,-0.930634,-0.0869489,0.0535646,-0.0808124,0.779224,1.92317,20.298,58.0577,3.10543
91,0.0,-6.13926,-6.24572,8.43084,0.934593,0.0568682,-0.0522752,2.24527,-0.249218,0.697975,0.775294,0.0535646,0.0606093,0.613177,2.88169,20.4434,45.6956,3.35056
96,0.85629,-4.97493,-5.82204,8.27214,0.273765,-0.0266789,0.0388713,0.640542,0.649477,0.697975,0.775294,0.0535646,0.0606093,0.779224,3.8402,20.2772,52.7452,3.60683
101,4.16087,-5.56543,-6.02301,8.2282,-0.0300637,-0.0418693,0.0692535,0.640542,-0.249218,-0.116329,1.63754,0.0535646,0.202031,0.779224,2.88169,20.1319,57.7481,3.89612
106,7.09074,-5.72147,-6.1792,8.64901,0.0458935,0.0796538,-0.0370841,0.640542,0.649477,-0.116329,-0.0869489,0.0535646,0.0606093,0.779224,3.8402,20.298,58.474,4.19311
111,9.01926,-5.52063,-6.13435,8.73119,0.0458935,-0.0190837,0.0236802,1.44291,0.649477,-0.116329,0.775294,-0.321388,0.202031,0.613177,3.8402,20.4226,67.5376,4.49962
116,11.6061,-4.9028,-6.06205,8.87851,0.0610849,0.0416778,0.130018,2.24527,2.44687,-0.930634,-0.0869489,0.803469,0.0606093,0.945271,3.8402,20.1319,71.6642,4.85352
121,13.0551,-5.29247,-5.55472,9.14624,0.661147,0.246748,-0.00670195,2.24527,0.649477,-0.116329,0.775294,0.428517,0.202031,0.779224,5.75724,20.2772,81.0963,5.22908
126,11.9413,-4.63602,-5.5215,8.79634,0.121851,0.0340826,0.000893594,1.44291,0.649477,-0.116329,0.775294,0.0535646,0.0606093,0.613177,5.75724,20.1319,73.7854,5.60516
131,12.2165,-5.07599,-5.49408,8.86148,0.000319148,1.08981,-0.0142975,0.640542,0.649477,0.697975,0.775294,0.428517,0.343453,0.779224,4.79872,20.0903,71.0124,5.96577
136,14.8193,-4.75859,-5.33232,9.36434,0.0686807,-0.0646548,-0.0294886,0.640542,0.649477,-0.116329,-0.0869489,0.803469,0.0606093,0.779224,3.8402,20.2772,86.9437,6.36246
141,19.6913,-4.6418,-5.68333,9.40258,-0.0148723,-0.0266789,0.000893594,2.24527,0.649477,0.697975,-0.0869489,0.0535646,0.202031,0.945271,2.88169,20.1111,99.5715,6.80651
146,23.0172,-3.792,-5.57209,9.66457,0.250978,0.0416778,0.22876,1.44291,1.54817,-0.116329,-0.949192,0.428517,0.0606093,0.945271,4.79872,20.2772,109.865,7.32266
151,23.0912,-3.01575,-4.01445,10.1616,0.0458935,0.14801,0.1604,2.24527,1.54817,0.697975,-0.0869489,0.803469,0.343453,0.779224,1.92317,20.1319,138.277,7.93926
156,28.5142,-2.82768,-3.08833,10.1559,1.0941,0.163201,-0.0826574,2.24527,0.649477,-0.116329,1.63754,0.803469,0.202031,0.945271,5.75724,20.0696,187.97,8.71369
161,35.3186,-1.39665,-3.16591,9.81184,0.228191,0.163201,0.114827,3.04763,0.649477,0.697975,0.775294,0.803469,0.343453,0.779224,5.75724,19.945,225.403,9.78221
166,44.7586,2.36312,1.03385,11.1878,1.21563,0.246748,-0.0142975,3.85,0.649477,1.51228,-0.0869489,1.17842,0.202031,0.945271,5.75724,19.9242,274.9,11.0968
171,60.0745,5.03742,3.55514,11.8697,0.752296,1.38603,-0.166208,3.85,0.649477,2.32658,0.775294,0.428517,0.484875,0.945271,5.75724,20.0903,318.843,12.6219
176,80.6789,7.28404,4.99862,13.1946,0.0610849,1.9025,0.851595,3.04763,2.44687,1.51228,1.63754,1.17842,0.90914,1.11132,4.79872,19.9657,312.012,14.1636
181,91.2844,10.66,9.79208,14.8841,2.47653,0.368271,0.266738,4.65236,1.54817,1.51228,2.49978,1.17842,0.767718,1.44341,6.71575,19.945,326.219,15.7632
186,120.638,16.6856,14.2969,17.3217,1.65619,1.78857,0.304715,3.04763,4.24426,1.51228,1.63754,1.17842,0.90914,1.44341,8.63279,19.7996,334.189,17.4434
191,149.178,21.5856,15.4021,18.8808,0.699126,0.565746,-0.226973,4.65236,3.34556,1.51228,0.775294,1.17842,0.767718,1.60946,7.67427,19.6542,387.204,19.2994
196,153.857,21.7638,16.4571,20.2749,2.46893,3.71015,-0.0294886,6.25709,1.54817,1.51228,3.36202,1.55337,0.90914,1.60946,7.67427,19.6127,434.488,21.3422
201,153.408,20.6375,17.1534,24.0003,3.61588,4.46967,0.373075,7.05945,1.54817,2.32658,1.63754,1.55337,1.19198,1.7755,8.63279,19.4673,419.972,23.4432
206,150.278,24.9807,18.397,26.3325,0.433275,2.58607,1.93016,7.05945,3.34556,2.32658,3.36202,1.55337,1.33341,1.7755,9.5913,19.2804,505.674,25.887
211,182.168,27.3645,23.7877,31.1598,2.49172,0.983481,0.479413,9.46654,3.34556,2.32658,1.63754,2.30328,1.19198,1.94155,8.63279,19.4673,412.291,28.0529
216,203.952,27.095,23.8577,32.4688,2.56008,0.915125,2.30994,9.46654,5.14295,3.14089,3.36202,2.30328,1.61625,2.27365,13.4254,19.2804,384.535,29.9798
221,208.002,34.1565,33.6058,38.1912,2.00559,1.56072,4.96078,9.46654,4.24426,3.95519,3.36202,2.30328,1.33341,1.94155,10.5498,19.1351,414.255,31.9719
226,257.765,32.0563,30.1138,36.8835,0.805466,0.725245,0.167996,7.05945,4.24426,3.95519,2.49978,2.30328,1.19198,1.94155,9.5913,18.969,449.454,34.1493
231,213.636,29.6454,26.416,35.4939,2.04357,0.710054,0.72247,9.46654,3.34556,3.95519,3.36202,1.92833,1.05056,1.7755,11.5083,18.8236,439.637,36.3717
236,199.561,27.6982,23.7064,35.8418,0.942189,0.672079,0.524986,9.46654,4.24426,3.95519,2.49978,1.92833,1.33341,2.1076,11.5083,18.7613,440.293,38.6511
241,222.468,29.9896,24.306,37.743,0.402892,0.178391,0.760448,9.46654,3.34556,3.95519,1.63754,2.30328,1.75767,2.27365,12.4669,18.6367,469.998,40.9813
246,230.914,32.4955,28.8984,42.5777,1.43591,0.451818,3.38851,10.2689,4.24426,4.7695,2.49978,2.67823,1.61625,2.27365,15.3424,18.6159,585.568,43.5306
251,230.879,34.2203,33.5947,47.5522,4.32988,4.17346,2.0365,11.8736,4.24426,3.95519,4.22427,2.67823,1.75767,2.27365,12.4669,18.4913,521.696,46.256
256,230.971,40.1608,42.2945,56.2714,1.96002,2.062,2.13524,12.676,6.04165,4.7695,4.22427,3.05318,1.89909,2.43969,15.3424,18.346,522.475,48.818
261,230.489,47.9553,53.1423,65.9374,4.36026,1.15817,2.61376,13.4784,4.24426,3.95519,5.08651,3.05318,2.04051,2.27365,13.4254,18.2629,516.238,51.356
266,292.721,51.0679,53.4798,68.145,1.19285,5.6925,0.79083,13.4784,4.24426,4.7695,3.36202,3.05318,2.18194,2.27365,15.3424,17.9307,477.068,53.9058
271,263.611,52.9772,57.8911,71.2158,2.65882,2.92025,2.553,14.2807,4.24426,5.5838,3.36202,3.42814,2.46478,2.77179,15.3424,17.993,495.168,56.4129
276,268.501,56.5645,61.3596,77.0209,2.57527,7.55332,6.59383,15.8854,4.24426,4.7695,3.36202,3.42814,2.18194,2.93783,17.2594,17.8268,498.593,58.9527
281,265.594,60.2336,65.8295,82.1452,1.10929,1.35565,2.68212,13.4784,5.14295,5.5838,2.49978,2.67823,2.18194,2.27365,13.4254,17.6192,541.737,61.6534
286,258.528,58.4257,63.4742,82.1031,5.59077,0.877149,1.36809,15.0831,4.24426,6.39811,4.22427,3.05318,2.18194,2.60574,16.3009,17.5153,536.817,64.5247
291,272.18,57.1428,62.5981,82.8791,2.97784,4.95577,3.80626,16.6878,5.14295,6.39811,4.22427,3.05318,2.04051,2.60574,19.1765,17.3077,568.211,67.312
296,285.938,64.6058,74.3384,92.8729,2.93986,2.12276,5.83427,15.0831,5.14295,5.5838,4.22427,3.42814,2.04051,2.77179,14.3839,17.1208,631.797,70.279
301,299.458,67.2851,77.9311,95.8922,8.46955,14.4877,1.54279,15.8854,5.14295,7.21241,5.08651,3.42814,2.18194,2.60574,15.3424,16.9754,606.914,73.3895
306,301.117,70.1828,79.5078,99.764,5.65154,5.82162,0.912359,15.8854,6.04165,6.39811,4.22427,3.42814,2.46478,2.93783,16.3009,16.9546,671.218,76.6512
311,340.766,76.3733,89.6319,108.154,3.35763,5.40388,8.3408,18.2925,6.04165,6.39811,5.08651,3.80309,2.32336,2.77179,19.1765,16.6639,773.553,80.354
316,379.043,79.0863,90.9551,112.644,2.14991,0.991076,1.89218,20.6996,6.94035,8.02671,5.94875,4.55299,3.03047,3.43597,21.0935,16.477,927.245,84.5218
321,367.918,81.171,94.2972,117.849,2.86391,2.67721,3.54042,25.5138,8.73774,9.65532,6.81099,5.67785,3.45473,3.76807,24.9276,16.5393,972.418,89.1782
326,403.088,92.9592,101.745,125.02,3.64627,2.43416,6.00897,25.5138,9.63643,10.4696,8.53548,6.0528,4.02042,4.43225,25.8861,16.1032,1129.03,94.4266
331,451.032,98.3049,110.857,131.287,6.22122,1.59869,5.34816,27.1185,10.5351,12.0982,8.53548,6.42776,4.30326,4.5983,26.8446,15.7917,973.829,99.6273
336,525.812,103.172,121.758,147.235,14.5461,11.3585,9.34341,30.328,9.63643,10.4696,7.67324,6.80271,4.72753,4.93039,28.7616,15.6671,941.898,104.602
341,541.81,127.842,144.42,161.854,3.28927,3.93801,9.67002,29.5256,12.3325,12.0982,9.39772,7.17766,4.72753,4.76435,27.8031,15.3141,959.212,109.473
346,635.227,129.261,150.017,170.956,2.47653,10.956,4.60379,28.7233,10.5351,11.2839,7.67324,6.80271,4.44468,4.43225,27.8031,15.148,967.199,114.223
351,554.214,124.36,145.857,173.022,2.66642,1.28729,4.10249,28.7233,10.5351,10.4696,8.53548,6.42776,4.16184,4.5983,27.8031,14.8365,1020.43,119.113
356,560.777,121.365,148.994,183.401,6.19843,2.39619,3.37332,30.328,11.4338,11.2839,10.26,6.80271,4.30326,4.5983,29.7202,14.4627,1032.92,124.016
361,580.475,118.679,147.744,188.481,9.29748,8.79893,6.85208,30.328,9.63643,10.4696,8.53548,6.0528,4.02042,4.26621,28.7616,14.2966,1046.88,128.934
366,598.158,116.662,140.217,188.666,5.31733,6.39126,8.66741,30.328,11.4338,12.9125,10.26,5.67785,3.879,4.26621,29.7202,13.9851,1034.4,134.181
371,618.21,128.399,152.975,208.246,10.6875,14.6928,12.1917,35.1422,11.4338,13.7268,10.26,6.42776,4.16184,4.26621,31.6372,13.6528,1040.1,139.394
376,619.946,144.891,173.833,227.471,6.76051,1.93288,7.21666,34.3398,11.4338,11.2839,9.39772,6.80271,4.44468,4.76435,32.5957,13.3206,1009.33,144.579
381,618.296,137.111,168.869,231.969,5.09705,5.87478,10.7258,35.9445,12.3325,12.0982,8.53548,7.55261,4.86895,5.09644,32.5957,13.1752,941.764,149.455
386,612.688,136.821,175.097,245.63,3.7678,12.2851,7.74075,36.7469,12.3325,12.9125,10.26,6.80271,4.86895,4.93039,33.5542,12.9883,989.475,154.268
391,620.148,138.592,180.059,256.36,9.2747,3.38356,7.4901,38.3516,12.3325,12.9125,10.26,7.17766,4.86895,4.93039,34.5127,12.6353,933.79,158.805
396,611.22,137.45,181.499,265.24,3.08418,13.394,12.8905,37.5493,12.3325,12.9125,11.1222,7.55261,4.72753,4.93039,36.4298,12.3653,810.888,163.225
401,571.649,139.227,184.979,274.438,6.74532,11.8066,5.68996,37.5493,12.3325,11.2839,9.39772,6.0528,4.30326,4.76435,35.4713,12.1577,771.98,167.297
406,597.486,136.062,178.985,271.39,7.44413,9.323,7.74835,34.3398,9.63643,12.0982,11.1222,6.0528,3.45473,4.26621,28.7616,11.95,834.282,171.419
411,577.987,127.237,169.409,266.662,6.4263,10.9788,7.17868,30.328,7.83904,10.4696,11.1222,4.92795,3.59615,3.60202,27.8031,11.6385,756.164,175.392
416,522.363,122.785,163.085,263.978,4.17037,15.5662,5.56843,35.9445,8.73774,12.0982,11.9845,5.67785,3.73758,3.76807,30.6787,11.6593,709.535,179.063
421,501.486,116.705,158.444,264.537,2.45374,10.0749,5.89504,35.1422,6.94035,11.2839,11.9845,5.3029,3.59615,3.93411,29.7202,11.3063,634.286,182.429
426,534.911,109.137,145.863,255.13,0.402892,11.8978,3.14545,30.328,6.94035,9.65532,11.1222,4.17804,3.17189,3.10388,24.9276,11.1194,583.33,185.532
431,513.386,105.533,142.601,249.457,3.46397,8.5255,6.51787,23.9091,5.14295,8.02671,9.39772,3.80309,2.6062,2.93783,20.135,10.7871,478.769,188.264
436,486.767,98.705,132.322,238.211,3.17533,3.94561,5.08231,21.502,6.04165,6.39811,7.67324,3.05318,2.46478,2.43969,18.218,10.6833,436.106,190.642
441,446.803,92.7017,124.188,229.142,3.18293,10.4623,2.97075,19.0949,5.14295,6.39811,8.53548,2.67823,2.04051,2.1076,17.2594,10.6417,410.079,192.799
446,410.732,84.2837,114.746,219.468,2.67401,4.1051,3.76069,17.4902,2.44687,5.5838,6.81099,2.67823,1.89909,2.27365,14.3839,10.4964,422.479,194.953
451,348.672,77.8343,106.625,210.918,2.75757,7.76599,5.00636,15.0831,4.24426,5.5838,6.81099,1.92833,1.89909,2.1076,15.3424,10.3095,334.541,196.681
456,336.98,69.5539,96.0333,200.709,2.79555,7.06723,6.95841,12.676,1.54817,3.14089,5.94875,1.92833,1.61625,2.1076,12.4669,10.3303,305.317,198.295
461,311.154,65.1823,89.8102,191.58,2.73478,4.27979,3.32015,12.676,2.44687,3.95519,5.08651,1.55337,1.19198,1.94155,10.5498,10.1434,305.217,199.866
466,321.022,61.7299,85.5498,184.438,1.96002,1.15817,4.20123,10.2689,2.44687,3.95519,3.36202,1.17842,1.33341,1.44341,10.5498,9.998,287.615,201.371
471,266.782,57.9786,81.6606,179.435,7.23904,4.91019,5.1127,8.66418,1.54817,3.95519,4.22427,1.55337,1.05056,1.60946,8.63279,9.97723,267.113,202.719
476,246.297,55.2216,79.319,173.905,3.28167,5.48743,3.51763,7.86181,2.44687,3.14089,4.22427,1.17842,0.90914,1.60946,8.63279,10.0395,230.806,203.955
481,249.423,53.267,72.8665,166.887,3.64627,0.915125,2.10486,8.66418,1.54817,2.32658,2.49978,1.17842,0.90914,1.27736,9.5913,9.85264,211.694,205.075
486,239.044,50.6449,68.8327,160.642,1.08651,0.672079,1.65672,7.86181,1.54817,1.51228,3.36202,0.803469,0.90914,1.11132,7.67427,9.66574,241.946,206.175
491,232.472,46.2453,64.4712,153.654,0.661147,2.6924,0.395862,7.05945,2.44687,3.95519,1.63754,1.17842,0.767718,1.44341,7.67427,9.66574,200.337,207.294
496,203.361,44.5963,60.8912,147.192,1.32957,3.29242,1.15542,6.25709,1.54817,1.51228,2.49978,1.17842,0.767718,1.44341,8.63279,9.66574,194.624,208.267
501,185.962,42.1285,57.8598,142.071,2.24865,3.39116,2.49223,7.05945,2.44687,3.14089,2.49978,1.17842,0.626296,1.44341,5.75724,9.45808,179.935,209.205
506,220.522,39.5907,54.981,137.236,1.6334,2.03921,5.02155,5.45472,2.44687,1.51228,3.36202,0.428517,0.626296,1.27736,6.71575,9.52038,185.372,210.106
511,179.41,35.4559,52.4095,133.633,0.889019,1.64426,3.68473,7.05945,1.54817,0.697975,2.49978,0.803469,0.484875,0.945271,5.75724,9.45808,197.535,211.046
516,169.689,33.1971,47.6653,127.465,3.50195,1.424,1.84661,7.05945,2.44687,1.51228,1.63754,1.17842,0.626296,0.945271,6.71575,9.33348,192.414,211.994
521,160.845,32.3079,45.1553,123.097,1.34476,1.73541,0.699684,5.45472,1.54817,2.32658,0.775294,0.803469,0.626296,1.44341,6.71575,9.31272,194.727,212.952
526,156.591,30.1233,42.7353,118.387,0.911806,1.98605,0.350289,4.65236,2.44687,1.51228,2.49978,0.803469,0.626296,1.11132,6.71575,9.12582,176.799,213.947
531,155.947,28.5369,41.4649,115.03,0.926997,2.25947,3.905,5.45472,1.54817,1.51228,3.36202,0.803469,0.626296,1.27736,5.75724,9.14659,186.202,214.864
536,146.079,29.2635,39.0913,110.581,0.250978,2.20631,1.24656,5.45472,2.44687,2.32658,1.63754,0.803469,0.484875,1.11132,8.63279,9.16736,210.546,215.866
541,148.164,27.0348,38.4142,107.535,0.737104,1.73541,1.77066,6.25709,1.54817,2.32658,3.36202,0.803469,0.626296,1.27736,6.71575,9.04276,204.338,216.926
546,131.589,26.2424,36.8082,104.425,2.30182,0.140415,0.783235,4.65236,1.54817,2.32658,2.49978,0.428517,0.767718,1.11132,6.71575,9.00123,202.02,217.979
551,140.616,25.1416,34.9323,101.684,0.980167,2.69999,3.85184,4.65236,1.54817,1.51228,2.49978,0.803469,0.484875,1.27736,7.67427,8.95969,200.156,218.999
556,151.954,25.746,33.8834,98.4726,0.463658,1.46198,3.35812,5.45472,-1.14791,0.697975,1.63754,1.17842,0.484875,1.27736,6.71575,9.00123,205.506,220.013
561,146.639,24.8883,33.7072,95.6452,2.08155,2.95064,2.56059,6.25709,2.44687,1.51228,1.63754,0.803469,0.626296,0.945271,5.75724,8.81433,195.646,221.011
566,143.829,24.5369,34.333,93.6089,2.08914,1.96326,2.35551,5.45472,1.54817,1.51228,1.63754,0.428517,0.484875,0.945271,5.75724,8.81433,221.688,222.037
571,139.813,23.3755,33.5197,90.6399,0.699126,0.155606,0.107231,6.25709,1.54817,2.32658,1.63754,1.17842,0.626296,0.779224,6.71575,8.66897,204.246,223.1
576,143.548,22.2774,31.8314,88.1038,1.70936,0.960696,0.289524,4.65236,1.54817,2.32658,0.775294,0.428517,0.484875,0.945271,5.75724,8.68974,212.298,224.11
581,131.635,19.9319,29.3934,85.832,0.813062,0.0568682,0.403458,5.45472,1.54817,1.51228,2.49978,0.803469,0.767718,0.945271,5.75724,8.66897,201.353,225.143
586,152.035,20.6206,27.7417,83.121,0.653551,1.08981,0.335098,4.65236,1.54817,0.697975,3.36202,1.17842,0.343453,0.779224,5.75724,8.52361,207.023,226.146
591,140.856,20.1483,27.1971,81.1967,1.11689,1.105,0.730066,4.65236,3.34556,1.51228,0.775294,1.55337,0.767718,1.11132,4.79872,8.50284,194.891,227.145
596,145.384,20.4955,27.7682,79.8449,1.1017,1.60629,1.98333,5.45472,1.54817,2.32658,0.775294,0.428517,0.767718,1.44341,7.67427,8.50284,213.764,228.149
601,137.114,19.7041,27.0574,77.5764,0.311744,0.170796,0.259142,6.25709,1.54817,2.32658,0.775294,0.803469,0.484875,1.11132,6.71575,8.35748,212.519,229.191
606,136.377,18.8305,25.3965,75.4128,2.77276,0.641698,1.48962,5.45472,0.649477,2.32658,0.775294,1.17842,0.626296,1.11132,5.75724,8.33671,231.948,230.314
611,123.48,19.2807,25.0508,73.5372,0.972572,0.421437,1.12503,5.45472,0.649477,1.51228,1.63754,1.17842,0.626296,0.945271,5.75724,8.31595,204.28,231.378
616,131.551,17.9183,23.9978,72.149,1.22323,0.74803,2.7201,5.45472,2.44687,0.697975,1.63754,1.17842,0.484875,0.779224,5.75724,8.14982,204.599,232.422
621,127.01,18.7982,26.1574,72.5212,2.45374,3.9608,2.0289,5.45472,1.54817,1.51228,1.63754,1.17842,0.484875,1.27736,5.75724,8.14982,207.957,233.413
626,137.093,21.1516,28.0056,72.1545,1.84608,2.08478,0.950337,4.65236,0.649477,0.697975,0.775294,0.428517,0.484875,0.945271,4.79872,8.25365,190.071,234.392
631,126.928,20.3058,26.7123,70.7498,0.463658,0.839173,0.980719,6.25709,1.54817,1.51228,1.63754,1.17842,0.626296,0.945271,6.71575,7.98369,212.896,235.388
636,130.304,19.8883,26.75,69.4659,1.6258,0.467008,2.08207,4.65236,0.649477,2.32658,0.775294,0.428517,0.626296,1.11132,5.75724,7.96292,215.115,236.437
641,131.584,17.6902,24.0734,67.6,0.228191,-0.07225,1.50481,5.45472,-0.249218,1.51228,2.49978,0.803469,0.626296,1.11132,7.67427,7.98369,228.183,237.507
646,116.885,19.1837,23.0251,65.592,0.987763,-0.07225,0.22876,3.85,0.649477,2.32658,1.63754,1.17842,0.484875,0.945271,5.75724,8.02522,251.427,238.673
651,123.769,18.5378,23.0251,64.3802,1.12449,2.02402,2.07448,4.65236,0.649477,2.32658,1.63754,1.17842,0.484875,1.11132,4.79872,7.83832,220.134,239.832
656,123.115,18,22.3757,63.3462,0.820657,0.163201,0.517391,5.45472,-0.249218,2.32658,1.63754,0.803469,0.626296,0.945271,7.67427,7.83832,207.131,240.923
661,131.868,17.7339,22.7545,63.0155,1.79291,2.19112,2.27956,4.65236,0.649477,1.51228,0.775294,1.17842,0.767718,1.11132,5.75724,7.87986,203.245,241.989
666,147.301,17.4676,22.6408,61.6189,0.995359,2.59366,1.48202,3.85,1.54817,1.51228,1.63754,1.17842,0.626296,1.27736,5.75724,7.85909,204.058,243.012
671,134.121,19.1514,24.6197,61.7768,4.33748,0.618912,2.02131,5.45472,1.54817,2.32658,0.775294,0.803469,0.484875,1.27736,5.75724,7.6722,196.624,244.018
676,128.209,17.4676,23.9656,60.81,0.934593,0.573341,0.79083,3.85,1.54817,1.51228,1.63754,0.428517,0.767718,0.779224,4.79872,7.6722,194.337,244.998
681,132.759,17.9564,22.8624,59.5907,2.1651,2.43416,0.289524,3.04763,-0.249218,2.32658,1.63754,0.803469,0.767718,1.11132,5.75724,7.6722,206.57,246.047
686,129.008,17.3592,21.9646,58.3135,0.759891,2.60126,0.0540624,4.65236,2.44687,1.51228,1.63754,0.803469,0.626296,1.11132,7.67427,7.65143,230.45,247.162
691,113.653,18.4295,22.4627,58.6134,1.82329,1.5835,3.5784,3.85,1.54817,1.51228,1.63754,0.428517,0.484875,0.779224,6.71575,7.4853,186.085,248.152
696,109.754,18.7982,23.0574,57.9767,0.433275,1.34046,0.957932,3.85,0.649477,1.51228,0.775294,0.803469,0.626296,0.945271,4.79872,7.3607,184.673,249.062
701,116.767,17.6578,21.087,56.9087,1.38274,1.1126,4.79368,4.65236,1.54817,0.697975,-0.0869489,1.17842,0.484875,0.945271,5.75724,7.52683,181.31,249.974
706,124.312,16.8322,20.2257,55.6298,0.828253,0.953101,0.965528,3.85,0.649477,1.51228,1.63754,0.0535646,0.343453,0.945271,5.75724,7.50607,189.373,250.878
711,101.951,15.3797,20.4478,55.2188,2.05116,1.92528,0.897168,4.65236,-0.249218,0.697975,1.63754,0.428517,0.343453,0.945271,4.79872,7.33994,202.57,251.853
716,103.445,16.5164,20.2144,54.07,0.516828,1.01386,0.061658,3.04763,0.649477,1.51228,1.63754,0.428517,0.343453,0.779224,4.79872,7.31917,175.038,252.823
721,102.271,15.951,19.3469,52.9314,0.964976,3.8013,0.676897,3.85,0.649477,0.697975,-0.0869489,0.0535646,0.484875,1.27736,5.75724,7.33994,187.913,253.763
726,109.269,16.4135,20.3016,53.0476,2.1651,1.84174,1.59596,3.85,0.649477,1.51228,-0.0869489,0.428517,0.484875,0.945271,5.75724,7.3607,219.914,254.735
731,110.472,17.4902,21.375,52.8001,1.67138,1.37843,3.34293,5.45472,-0.249218,1.51228,1.63754,0.803469,0.484875,0.945271,5.75724,7.17381,183.956,255.717
736,92.3903,16.5601,21.2822,52.636,1.83848,2.69999,0.783235,3.04763,0.649477,2.32658,0.775294,0.803469,0.484875,0.779224,6.71575,7.15304,155.946,256.558
741,97.5491,16.8322,21.3258,51.9028,1.44351,1.22653,1.92257,3.85,1.54817,0.697975,1.63754,0.0535646,0.626296,0.945271,2.88169,7.21534,168.441,257.378
746,112.453,15.2654,20.296,50.6407,1.13208,2.74557,0.198378,3.85,-0.249218,1.51228,1.63754,0.428517,0.484875,1.11132,5.75724,7.19458,161.651,258.195
751,106.197,15.6195,18.6363,49.135,1.41312,0.0720586,0.137613,3.85,0.649477,2.32658,-0.0869489,0.428517,0.484875,0.945271,4.79872,7.02845,158.876,258.982
756,90.4372,13.1035,16.5826,47.8391,0.266169,0.0644634,0.43384,3.85,0.649477,1.51228,1.63754,0.803469,0.484875,1.11132,4.79872,7.04921,183.803,259.816
761,96.0297,10.7633,14.4762,46.9016,0.030702,0.451818,1.23897,3.85,1.54817,1.51228,1.63754,0.428517,0.484875,0.945271,5.75724,7.02845,179.825,260.702
766,93.63,10.7251,15.6574,46.9758,0.653551,0.558151,1.42886,3.04763,2.44687,0.697975,0.775294,0.803469,0.484875,0.779224,5.75724,7.00768,190.147,261.647
771,90.4946,12.2201,15.5869,45.9058,0.964976,1.00627,0.456626,4.65236,2.44687,2.32658,1.63754,0.803469,0.343453,1.11132,5.75724,7.02845,171.549,262.495
776,100.608,15.3853,18.3646,46.3139,0.90421,0.504984,1.60355,3.85,0.649477,1.51228,-0.949192,0.803469,0.343453,0.945271,6.71575,6.88308,171.047,263.34
781,99.3565,16.4192,20.3072,46.616,0.972572,3.11013,1.46683,3.85,1.54817,1.51228,1.63754,0.428517,0.484875,0.779224,6.71575,6.82079,174.084,264.2
786,105.097,16.3698,19.9544,45.418,1.59542,2.20631,0.950337,3.85,0.649477,1.51228,1.63754,0.803469,0.343453,0.945271,4.79872,6.82079,174.279,265.058
791,98.1898,16.6038,19.3905,44.6067,0.889019,0.634103,0.281929,3.04763,0.649477,0.697975,1.63754,0.428517,0.484875,0.945271,4.79872,6.84155,156.674,265.876
796,99.8931,15.4672,17.6098,43.4605,0.0534892,0.0644634,0.1604,3.85,-0.249218,0.697975,0.775294,0.803469,0.343453,0.945271,5.75724,6.65466,152.816,266.664
801,97.4243,13.9808,17.1534,42.9772,0.410488,0.983481,0.411053,2.24527,2.44687,0.697975,0.775294,0.428517,0.343453,0.779224,5.75724,6.65466,155.498,267.427
806,97.9741,14.0246,15.3316,41.122,-0.144,0.011297,0.350289,3.85,-1.14791,1.51228,0.775294,0.803469,0.626296,0.945271,3.8402,6.65466,191.019,268.251
811,88.2264,13.0272,13.5724,39.8868,0.00791487,0.0416778,0.175591,3.04763,2.44687,0.697975,0.775294,0.428517,0.484875,0.779224,5.75724,6.67542,176.162,269.143
816,87.3981,11.3151,12.5479,39.1091,0.752296,1.23412,0.281929,3.85,0.649477,0.697975,0.775294,0.803469,0.767718,0.945271,4.79872,6.48853,175.08,270.025
821,88.1861,11.8822,13.8393,39.0663,0.387701,1.60629,0.471817,3.04763,1.54817,1.51228,0.775294,0.803469,0.343453,0.945271,4.79872,6.50929,172.79,270.905
826,106.714,10.9982,13.4904,38.6502,-0.0376595,0.185986,0.494604,3.04763,0.649477,-0.116329,1.63754,0.803469,0.343453,0.779224,3.8402,6.48853,176.166,271.747
831,97.8993,12.2965,13.8718,38.2396,0.37251,0.573341,0.0920401,3.04763,1.54817,0.697975,0.775294,0.428517,0.484875,1.11132,5.75724,6.50929,182.185,272.602
836,102.577,11.4565,13.2234,38.0529,0.433275,1.72021,0.327502,3.04763,2.44687,1.51228,0.775294,1.55337,0.484875,0.945271,4.79872,6.36393,166.935,273.475
841,106.144,11.4622,13.5342,38.2825,0.311744,0.049273,2.72769,3.04763,3.34556,0.697975,0.775294,0.803469,0.484875,1.11132,4.79872,6.34317,165.275,274.286
846,106.825,12.9128,15.0973,39.2901,0.562403,0.0720586,0.175591,4.65236,0.649477,-0.116329,1.63754,0.428517,0.343453,0.945271,5.75724,6.34317,187.317,275.18
851,105.448,11.0916,14.0032,39.1519,0.00791487,0.33789,0.411053,4.65236,-0.249218,0.697975,0.775294,0.428517,0.202031,1.27736,4.79872,6.34317,172.881,276.056
856,91.3602,11.2444,13.0878,38.2562,-0.0680424,1.45438,0.752853,3.04763,-1.14791,0.697975,0.775294,0.0535646,0.767718,1.27736,4.79872,6.36393,172.481,276.895
861,88.1049,10.851,13.6105,38.1331,0.106659,0.383461,0.289524,3.85,-0.249218,1.51228,1.63754,0.803469,0.767718,0.945271,4.79872,6.17704,175.049,277.77
866,95.9875,10.2015,12.8857,37.7223,0.980167,1.69743,0.426244,3.04763,-0.249218,1.51228,0.775294,0.0535646,0.484875,0.945271,7.67427,6.17704,191.611,278.674
871,95.4858,11.0095,13.8831,37.2047,1.54985,-0.0114885,0.973123,3.85,1.54817,2.32658,1.63754,0.428517,0.343453,0.945271,5.75724,6.11474,190.792,279.591
876,93.5115,9.28417,14.1063,37.797,2.04357,0.930315,3.60878,3.04763,0.649477,1.51228,0.775294,0.428517,0.202031,0.779224,5.75724,6.15627,209.58,280.56
881,94.7787,13.2943,15.2878,39.0289,2.09674,0.467008,3.11507,3.04763,2.44687,3.14089,0.775294,1.17842,0.626296,0.945271,6.71575,6.1978,212.434,281.576
886,103.296,13.0329,15.2554,38.5493,0.547211,4.08991,1.04908,3.85,1.54817,1.51228,0.775294,0.428517,0.343453,0.779224,5.75724,6.03167,212.644,282.629
891,101.722,14.564,17.5451,40.6433,1.48149,2.15314,1.33011,3.85,1.54817,0.697975,0.775294,0.428517,0.626296,0.945271,3.8402,5.67865,194.315,283.666
896,104.786,13.9159,17.8113,40.8295,0.433275,1.73541,-0.0446797,3.04763,1.54817,0.697975,2.49978,0.428517,0.343453,0.779224,5.75724,5.67865,195.875,284.644
901,100.121,13.5726,16.099,40.8668,0.509233,1.08981,3.45687,3.04763,1.54817,1.51228,0.775294,0.803469,0.343453,1.11132,4.79872,5.49175,179.821,285.54
906,99.7079,14.667,16.9631,40.8185,0.0990636,1.37084,0.1604,3.04763,0.649477,1.51228,-0.0869489,0.428517,0.343453,0.945271,4.79872,5.49175,172.86,286.401
911,92.6932,13.8015,16.2893,40.0097,0.250978,0.193582,1.04148,3.04763,1.54817,0.697975,1.63754,0.428517,0.343453,1.11132,3.8402,5.53329,167.593,287.222
916,104.231,12.5806,15.8324,39.7487,0.926997,0.360676,0.190782,3.04763,0.649477,1.51228,2.49978,0.803469,0.343453,0.779224,5.75724,5.47099,163.19,288.021
921,96.1158,11.6319,14.8475,38.3364,0.0686807,0.13282,0.205973,3.85,1.54817,1.51228,0.775294,1.17842,0.343453,0.447131,4.79872,5.30486,165.708,288.82
926,98.8994,11.9317,13.4693,37.2477,0.873827,1.64426,1.57317,3.85,1.54817,1.51228,1.63754,0.0535646,0.484875,1.11132,3.8402,5.49175,167.94,289.692
931,92.8994,12.7658,14.6456,38.064,0.395297,0.239153,1.04148,1.44291,1.54817,1.51228,1.63754,0.803469,0.202031,0.945271,3.8402,5.32563,129.443,290.421
936,94.7943,10.8624,13.8125,37.9575,0.47885,0.702459,2.69731,3.85,1.54817,0.697975,-0.0869489,0.803469,0.202031,0.945271,4.79872,5.34639,136.528,291.082
941,90.5037,10.7152,13.6656,37.7763,0.577594,0.254343,0.350289,3.04763,0.649477,1.51228,1.63754,0.0535646,0.484875,0.779224,5.75724,5.18026,140.768,291.743
946,97.3552,9.63389,13.9594,37.7278,0.418084,0.710054,0.585751,3.04763,0.649477,2.32658,1.63754,0.428517,0.343453,1.11132,4.79872,5.38792,160.93,292.467
951,76.1796,9.75424,12.2863,36.7243,0.144638,0.740435,0.395862,2.24527,-0.249218,2.32658,-0.0869489,0.428517,0.343453,0.779224,3.8402,5.20103,188.413,293.297
956,82.0194,10.6714,13.4311,36.9113,1.67897,0.907529,3.66954,1.44291,1.54817,0.697975,-0.0869489,0.428517,0.343453,0.945271,2.88169,5.18026,182.661,294.244
961,81.9961,12.0081,14.6894,36.8365,1.00295,1.60629,0.236356,3.04763,-0.249218,0.697975,1.63754,0.428517,0.343453,1.11132,4.79872,5.20103,168.912,295.125
966,89.4074,14.2971,18.9136,39.7487,3.16774,1.59869,0.107231,3.04763,0.649477,0.697975,-0.0869489,0.803469,0.484875,1.11132,3.8402,5.18026,185.922,295.999
971,96.0328,13.7252,17.5451,39.2266,2.86391,0.831577,4.19363,2.24527,0.649477,1.51228,0.775294,0.803469,0.202031,0.945271,5.75724,5.20103,175.405,296.895
976,91.7385,17.4142,20.3888,40.1533,2.21827,1.41641,0.145209,3.04763,-0.249218,1.51228,0.775294,0.428517,0.484875,1.11132,5.75724,5.20103,183.779,297.785
981,85.115,15.8594,19.5593,39.6741,0.714317,0.603722,3.44168,3.85,0.649477,1.51228,-0.0869489,0.803469,0.343453,1.11132,3.8402,4.99337,171.304,298.661
986,94.8719,15.8594,20.9255,42.021,2.06636,0.489794,1.54279,1.44291,1.54817,0.697975,0.775294,0.428517,0.484875,0.945271,5.75724,5.05567,169.2,299.526
991,89.3354,15.3642,21.3806,43.0254,3.72982,4.53043,1.71749,3.04763,0.649477,1.51228,1.63754,0.803469,0.484875,0.613177,3.8402,5.01413,178.432,300.397
996,86.5819,14.8745,19.0332,41.8405,0.31934,0.0568682,0.0464669,3.85,1.54817,0.697975,0.775294,0.428517,0.484875,0.613177,4.79872,5.05567,170.503,301.272
1001,79.0025,13.071,16.3217,40.3396,0.159829,0.991076,0.487009,3.04763,0.649477,1.51228,-0.0869489,0.803469,0.202031,0.945271,3.8402,4.86877,158.751,302.115
1006,76.3584,11.8497,15.4458,39.3329,0.311744,0.0416778,-0.492817,3.04763,-1.14791,1.51228,1.63754,0.428517,0.202031,0.945271,4.79872,4.88954,162.891,302.985
1011,85.4836,11.0916,14.9181,38.6295,0.63836,0.246748,0.335098,1.44291,-0.249218,-0.116329,1.63754,0.428517,0.343453,0.613177,4.79872,4.84801,151.203,303.797
1016,76.363,12.0081,14.6894,38.4802,1.34476,1.49995,2.34032,3.04763,0.649477,2.32658,0.775294,0.803469,0.343453,0.779224,4.79872,4.88954,147.338,304.547
1021,72.0269,11.2387,14.9124,38.512,0.326935,0.603722,0.243951,3.04763,-0.249218,0.697975,-0.0869489,0.428517,0.484875,0.945271,4.79872,4.82724,155.944,305.288
1026,76.6785,9.91847,12.832,37.2961,-0.0756381,-0.0570597,1.14782,3.04763,0.649477,0.697975,-0.949192,0.428517,0.484875,0.945271,2.88169,4.86877,157.023,306.051
1031,74.0408,9.75424,13.3548,37.4719,1.04853,0.92272,0.919955,2.24527,1.54817,-0.930634,-0.949192,0.428517,0.202031,0.779224,1.92317,4.88954,146.506,306.813
1036,75.2532,10.0218,13.6218,37.6587,1.15487,0.558151,0.912359,3.04763,1.54817,1.51228,1.63754,0.803469,0.484875,0.779224,2.88169,4.70264,149.252,307.574
1041,76.5794,11.3533,14.2263,38.1387,1.17766,0.0340826,0.540177,3.85,0.649477,1.51228,0.775294,0.0535646,0.202031,0.779224,2.88169,4.68188,143.002,308.289
1046,80.126,10.4747,13.578,38.2507,1.04853,-0.0950356,1.62634,3.04763,-0.249218,-0.930634,1.63754,0.803469,0.484875,1.11132,4.79872,4.70264,151.094,308.996
1051,77.5865,10.977,14.6132,38.3682,0.813062,0.953101,0.593346,3.04763,-1.14791,0.697975,-0.0869489,0.428517,0.202031,0.945271,3.8402,4.72341,140.198,309.699
1056,75.9824,12.2696,15.6744,39.221,1.96761,1.67464,3.65435,2.24527,0.649477,1.51228,0.775294,0.428517,0.484875,0.779224,2.88169,4.70264,121.46,310.36
1061,74.8766,11.9374,15.4953,39.3067,0.106659,0.353081,1.74027,1.44291,-1.14791,2.32658,-0.0869489,0.428517,0.343453,0.447131,4.79872,4.68188,119.246,310.975
1066,83.4529,10.9388,14.232,38.1815,0.228191,0.391057,0.175591,3.04763,1.54817,0.697975,-0.949192,1.17842,0.484875,0.945271,4.79872,4.70264,115.969,311.57
1071,78.5347,9.67779,12.5154,37.3598,1.12449,0.877149,0.919955,1.44291,1.54817,1.51228,-0.0869489,0.428517,0.0606093,0.945271,3.8402,4.49498,104.277,312.112
1076,68.813,9.21906,11.2936,36.3878,0.42568,0.634103,0.395862,3.04763,-1.14791,0.697975,0.775294,0.428517,0.343453,0.779224,3.8402,4.49498,103.21,312.646
1081,70.3612,8.18659,10.4913,35.7144,-0.0452552,0.170796,0.000893594,1.44291,2.44687,0.697975,0.775294,0.0535646,0.202031,0.945271,4.79872,4.49498,109.254,313.173
1086,69.763,7.91885,9.84166,35.3775,0.623168,0.778411,1.97574,3.04763,0.649477,0.697975,-0.0869489,0.803469,0.202031,1.11132,3.8402,4.51575,121.1,313.752
1091,60.3492,8.25741,10.8677,35.0724,0.805466,0.558151,0.608537,2.24527,0.649477,0.697975,-0.0869489,0.803469,-0.0808124,0.945271,3.8402,4.53651,123.484,314.356
1096,55.1445,7.72191,10.2946,33.9485,-0.00727658,0.0796538,0.646515,2.24527,2.44687,-0.930634,-0.949192,0.0535646,0.202031,0.779224,5.75724,4.53651,133.999,314.979
1101,55.6045,7.34503,10.1092,33.6541,0.212999,0.223962,0.130018,0.640542,0.649477,1.51228,0.775294,0.428517,0.343453,0.779224,3.8402,4.51575,130.812,315.618
1106,61.7343,6.50323,9.76521,33.3916,0.182617,0.801197,1.23897,2.24527,0.649477,1.51228,0.775294,0.803469,0.202031,0.945271,3.8402,4.51575,129.228,316.268
1111,59.1422,7.07721,9.42118,32.5662,0.569998,-0.0342741,0.183187,2.24527,1.54817,0.697975,-0.949192,-0.321388,0.343453,0.779224,5.75724,4.51575,141.953,316.932
1116,61.5873,6.46496,9.23002,32.3034,1.40553,0.71765,1.30733,1.44291,1.54817,1.51228,0.775294,0.428517,0.202031,0.945271,4.79872,4.53651,140.064,317.639
1121,59.7424,7.41586,9.18611,31.9975,0.683934,0.155606,0.114827,2.24527,0.649477,1.51228,-0.949192,0.428517,0.202031,0.779224,3.8402,4.39115,131.956,318.296
1126,57.7968,6.38843,7.85327,31.4772,0.0231063,0.0416778,0.130018,2.24527,-0.249218,-0.116329,0.775294,1.17842,0.202031,0.945271,4.79872,4.34962,152.562,318.977
1131,58.8788,5.39331,7.12637,30.6878,0.030702,-0.0190837,-0.0370841,3.04763,0.649477,0.697975,0.775294,0.803469,0.343453,0.779224,3.8402,4.32885,146.488,319.697
1136,58.8856,4.69858,6.20227,29.93,0.0534892,0.00370186,0.114827,3.85,0.649477,-0.116329,0.775294,0.803469,0.343453,0.779224,3.8402,4.32885,135.521,320.401
1141,54.6901,4.1626,5.32192,29.2901,0.37251,0.0188922,0.0692535,0.640542,1.54817,0.697975,2.49978,0.428517,0.0606093,0.945271,3.8402,4.32885,134.02,321.075
1146,66.0697,2.39572,5.12483,29.3598,0.349722,-0.0114885,0.213569,3.04763,-0.249218,0.697975,-0.0869489,0.803469,0.0606093,0.945271,3.8402,4.16272,131.95,321.739
1151,63.0148,3.05229,4.13514,28.1977,-0.0756381,-0.00389333,0.167996,3.04763,0.649477,1.51228,-0.949192,0.428517,0.484875,0.447131,2.88169,4.34962,141.606,322.395
1156,55.9103,2.40141,3.71398,27.5568,-0.0452552,0.0720586,0.130018,2.24527,1.54817,-0.116329,0.775294,0.428517,0.202031,0.613177,3.8402,4.32885,138.79,323.068
1161,52.4685,3.21113,4.40882,27.3738,0.152234,-0.0494645,-0.0674663,2.24527,0.649477,0.697975,0.775294,0.428517,0.767718,0.779224,4.79872,4.20426,133.372,323.709
1166,53.5392,3.55571,4.40882,27.7132,0.31934,1.12019,1.20859,1.44291,0.649477,-0.116329,0.775294,0.428517,0.202031,0.945271,4.79872,4.20426,131.907,324.373
1171,54.7928,3.36428,5.02136,28.1656,0.288957,-0.0646548,0.0388713,3.04763,-0.249218,-0.116329,-0.0869489,0.428517,0.343453,0.779224,3.8402,4.20426,106.157,324.945
1176,54.9987,3.31462,4.20602,27.3626,0.106659,-0.0190837,0.0844446,1.44291,0.649477,-0.116329,-0.0869489,0.428517,0.0606093,0.945271,5.75724,4.18349,115.215,325.505
1181,51.9933,2.91051,3.68706,27.0776,0.144638,0.193582,0.205973,2.24527,-0.249218,0.697975,-0.949192,0.803469,0.0606093,0.779224,3.8402,4.20426,103.89,326.076
1186,52.6627,3.20544,4.13514,26.9532,0.547211,0.11763,0.114827,2.24527,0.649477,-0.930634,-0.949192,0.428517,0.343453,0.945271,3.8402,4.16272,105.592,326.588
1191,43.5827,3.93289,4.40314,26.9532,0.410488,0.315105,0.130018,2.24527,0.649477,0.697975,0.775294,1.17842,0.343453,1.11132,3.8402,4.18349,99.8478,327.101
1196,45.6601,2.89914,3.98199,26.236,0.129446,-0.140607,0.000893594,2.24527,0.649477,0.697975,-0.0869489,0.0535646,0.484875,0.779224,1.92317,4.16272,97.5196,327.584
1201,45.1212,2.86654,3.64309,25.7129,0.0231063,-0.0494645,0.532582,-0.161821,0.649477,0.697975,-0.0869489,0.428517,0.343453,0.945271,4.79872,4.16272,90.3229,328.078
1206,49.1742,1.31803,4.50662,26.2626,0.364914,0.664483,1.64153,3.04763,1.54817,0.697975,0.775294,0.0535646,0.0606093,0.779224,4.79872,4.14196,116.974,328.61
1211,44.8838,3.12318,4.35916,25.8528,0.554807,-0.0114885,0.350289,3.04763,-0.249218,-0.116329,0.775294,0.428517,0.343453,0.945271,5.75724,4.18349,109.426,329.156
1216,45.1872,2.16031,3.70261,25.7716,0.0534892,0.13282,1.17061,2.24527,-1.14791,0.697975,-0.0869489,0.428517,0.202031,0.613177,3.8402,3.9966,107.782,329.683
1221,43.32,2.70202,4.66544,25.9283,0.349722,0.33789,0.836404,-0.161821,-1.14791,1.51228,0.775294,0.0535646,0.0606093,0.613177,5.75724,4.03813,114.091,330.244
1226,56.977,3.32599,5.05964,25.7507,0.342127,0.125225,0.342693,2.24527,-0.249218,-0.116329,0.775294,0.428517,0.0606093,0.613177,3.8402,3.9966,110.607,330.827
1231,50.5981,3.59969,4.91219,25.8318,0.790274,0.74803,-0.0750619,2.24527,1.54817,0.697975,0.775294,0.428517,0.343453,0.779224,3.8402,4.03813,111.302,331.373
1236,46.8422,4.08035,4.93342,25.7017,0.752296,0.140415,0.122422,3.04763,0.649477,2.32658,1.63754,-0.321388,0.202031,1.11132,1.92317,4.01736,106.884,331.916
1241,47.5083,2.77859,4.70372,26.3059,0.342127,2.16833,0.669302,2.24527,-0.249218,-0.116329,-0.0869489,0.428517,-0.0808124,0.779224,3.8402,4.01736,107.076,332.482
1246,43.669,3.43517,5.97263,26.6513,0.501637,0.998672,0.0692535,1.44291,0.649477,1.51228,2.49978,0.428517,0.202031,0.779224,3.8402,4.05889,104.891,333.07
1251,45.1829,3.88892,5.04827,25.8905,0.31934,0.102439,0.183187,1.44291,0.649477,0.697975,-0.949192,0.428517,0.202031,0.779224,4.79872,4.01736,100.742,333.58
1256,42.9088,3.96549,4.89514,25.6261,1.61061,0.345485,0.464222,2.24527,0.649477,-0.116329,1.63754,0.428517,0.343453,0.779224,4.79872,4.01736,117.454,334.134
1261,41.9628,3.42948,4.20602,25.2104,0.197808,0.375866,0.198378,3.04763,0.649477,0.697975,-0.0869489,0.428517,0.0606093,0.945271,4.79872,4.01736,120.984,334.732
1266,44.4579,3.15578,3.85576,25.0158,0.159829,0.178391,0.768044,1.44291,0.649477,-0.116329,-0.0869489,0.0535646,0.0606093,1.11132,3.8402,4.03813,115.973,335.357
1271,47.2297,2.82257,4.78598,25.4428,0.699126,0.611317,0.183187,0.640542,-1.14791,-0.116329,1.63754,0.0535646,0.202031,0.945271,4.79872,3.9966,106.511,335.933
1276,50.0782,3.76838,5.23399,25.7338,1.66378,3.61142,0.524986,0.640542,1.54817,0.697975,0.775294,0.428517,0.343453,0.779224,3.8402,3.9966,99.6937,336.451
1281,49.8756,5.11399,7.07674,26.9853,2.26384,2.12276,2.00612,2.24527,1.54817,0.697975,2.49978,0.428517,0.202031,0.779224,3.8402,4.03813,87.087,336.929
1286,50.1058,4.95518,7.37715,26.9043,0.645956,0.315105,0.145209,3.04763,0.649477,0.697975,0.775294,0.428517,0.343453,0.945271,4.79872,3.85123,103.921,337.408
1291,48.2726,4.57236,6.57361,26.3003,0.0914678,0.0264874,0.0920401,1.44291,0.649477,1.51228,0.775294,0.428517,0.202031,1.11132,2.88169,3.85123,96.8456,337.888
1296,48.2947,3.88892,5.54591,26.0038,1.11689,0.763221,0.335098,1.44291,-0.249218,1.51228,0.775294,0.428517,0.343453,0.779224,3.8402,3.83047,91.8603,338.362
1301,45.5654,2.58147,4.62147,25.3182,0.0231063,0.102439,0.175591,2.24527,1.54817,1.51228,-0.0869489,0.803469,0.343453,0.779224,2.88169,3.85123,93.7407,338.822
1306,54.0744,2.15462,4.65407,24.7456,0.326935,0.239153,0.0388713,2.24527,0.649477,0.697975,0.775294,0.428517,0.202031,0.945271,4.79872,3.83047,88.0453,339.27
1311,48.5645,2.07805,4.00322,24.2539,0.90421,-0.07225,0.000893594,2.24527,0.649477,0.697975,0.775294,0.0535646,0.343453,0.779224,3.8402,3.872,80.9599,339.685
1316,44.649,1.77745,3.97062,23.6541,0.0382978,0.0264874,-0.0294886,0.640542,1.54817,-0.116329,-0.0869489,0.428517,0.0606093,0.779224,3.8402,3.85123,83.133,340.092
1321,47.2133,1.78882,3.75227,23.6654,1.03334,0.307509,0.388266,2.24527,1.54817,0.697975,-0.0869489,0.0535646,0.202031,0.779224,3.8402,3.83047,78.5464,340.508
1326,46.8009,1.64553,3.53239,23.4859,-0.0376595,0.565746,0.0996357,1.44291,0.649477,0.697975,0.775294,0.803469,0.202031,0.779224,3.8402,3.872,89.7175,340.941
1331,41.0793,1.69519,3.69692,23.4971,0.228191,0.00370186,0.889572,2.24527,-0.249218,-0.116329,0.775294,0.0535646,-0.0808124,0.945271,2.88169,3.85123,80.5229,341.369
1336,43.9903,1.81573,3.24315,23.2756,-0.00727658,-0.0190837,-0.0370841,1.44291,0.649477,0.697975,-0.949192,0.0535646,0.202031,0.945271,4.79872,3.872,84.0893,341.776
1341,41.305,1.8923,3.08999,22.7833,0.00791487,-0.0114885,-0.454839,3.04763,0.649477,0.697975,0.775294,0.803469,0.202031,0.613177,3.8402,3.6851,84.6588,342.196
1346,46.3304,1.42719,2.70142,22.6261,0.0686807,0.0264874,0.175591,2.24527,0.649477,0.697975,-0.0869489,0.803469,0.343453,0.613177,2.88169,3.6851,92.8475,342.658
1351,38.3203,1.45979,2.61915,22.2795,-0.0528509,0.049273,0.813617,1.44291,-0.249218,-0.116329,-0.0869489,-0.69634,0.202031,0.613177,3.8402,3.70587,104.352,343.125
1356,38.7705,1.07127,2.99636,22.1602,0.0914678,0.277129,0.175591,2.24527,-0.249218,-0.116329,0.775294,0.0535646,0.202031,0.613177,3.8402,3.70587,95.9452,343.62
1361,35.366,0.92951,2.81629,22.2093,0.0686807,0.193582,0.0160847,1.44291,0.649477,0.697975,-0.0869489,0.803469,-0.0808124,0.613177,2.88169,3.66434,98.2619,344.115
1366,37.9955,0.852947,2.24196,21.6407,0.0990636,0.216367,0.137613,0.640542,-0.249218,-0.116329,0.775294,-0.321388,0.202031,0.613177,4.79872,3.70587,96.0056,344.613
1371,40.9234,0.70551,1.94134,21.2671,0.167425,0.0796538,-0.0598708,0.640542,0.649477,0.697975,0.775294,0.428517,0.343453,0.779224,5.75724,3.7474,98.6152,345.102
1376,37.1681,0.431869,1.66764,20.8442,0.00791487,-0.0190837,0.107231,2.24527,0.649477,0.697975,1.63754,0.428517,0.484875,0.945271,3.8402,3.66434,98.0002,345.576
1381,35.5643,0.579299,1.96825,21.1041,0.31934,0.246748,0.190782,3.04763,-0.249218,0.697975,1.63754,0.0535646,0.202031,0.779224,3.8402,3.6851,98.5379,346.049
1386,38.5528,0.732419,2.61915,21.1421,0.342127,0.54296,1.41367,0.640542,-0.249218,-0.116329,-0.0869489,0.0535646,0.202031,0.613177,3.8402,3.6851,88.1364,346.516
1391,36.7773,1.23009,3.11691,21.3697,0.167425,0.573341,0.243951,1.44291,-0.249218,-0.116329,0.775294,0.0535646,0.343453,0.613177,3.8402,3.66434,80.3909,346.974
1396,38.9126,1.07695,2.58087,21.0662,0.0610849,0.368271,0.449031,1.44291,1.54817,0.697975,-0.0869489,0.428517,0.0606093,0.779224,3.8402,3.6851,79.365,347.361
1401,39.3004,1.80436,3.49979,21.7109,0.896615,2.16074,1.06427,2.24527,1.54817,0.697975,1.63754,0.803469,0.0606093,0.613177,5.75724,3.70587,67.4604,347.706
1406,37.302,2.45523,3.04033,21.2179,0.0610849,0.0948441,0.403458,2.24527,0.649477,0.697975,-0.949192,0.0535646,0.343453,0.779224,3.8402,3.66434,71.1107,348.053
1411,35.6531,1.7221,2.42202,21.0985,0.175021,0.0796538,1.20099,0.640542,-1.14791,0.697975,0.775294,0.428517,0.202031,0.613177,3.8402,3.49821,56.7855,348.344
1416,35.8449,0.584985,1.85908,20.5406,0.0610849,-0.00389333,0.0236802,1.44291,1.54817,1.51228,0.775294,0.0535646,0.202031,0.945271,3.8402,3.64357,56.2603,348.616
1421,35.6668,0.426184,1.31738,20.6109,0.000319148,0.0720586,-0.0674663,1.44291,0.649477,-0.116329,-0.949192,0.0535646,0.202031,0.945271,4.79872,3.6851,63.7813,348.931
1426,37.7961,-0.417682,1.08767,20.6868,-0.0148723,0.11763,-0.0294886,1.44291,-0.249218,-0.930634,0.775294,0.428517,0.0606093,0.613177,3.8402,3.66434,60.9847,349.225
1431,29.7502,-0.808353,1.00542,20.3016,0.31934,0.0872489,0.1604,0.640542,0.649477,1.51228,0.775294,0.428517,0.202031,0.945271,3.8402,3.6851,64.1371,349.542
1436,29.1214,-0.154234,1.00542,19.922,0.220595,0.0720586,0.145209,1.44291,0.649477,-0.116329,1.63754,-0.69634,0.0606093,0.779224,4.79872,3.53974,67.2373,349.864
1441,32.9498,0.0320473,0.96145,19.6885,0.0990636,0.0948441,-0.0370841,3.04763,-0.249218,-0.116329,-0.0869489,0.803469,0.0606093,0.613177,3.8402,3.51897,67.7696,350.187
1446,32.1344,-0.225401,0.819692,19.3579,-0.0452552,-0.0494645,0.0236802,1.44291,0.649477,0.697975,0.775294,0.0535646,0.0606093,0.613177,3.8402,3.70587,85.3017,350.554
1451,32.6765,-0.0446649,0.655193,19.0046,0.197808,0.0416778,0.395862,1.44291,0.649477,0.697975,-0.0869489,0.428517,0.343453,0.779224,3.8402,3.49821,72.7373,350.937
1456,32.542,0.261702,0.578631,18.9666,0.410488,0.125225,0.0540624,1.44291,-1.14791,-0.116329,1.63754,0.803469,0.202031,0.945271,3.8402,3.66434,87.0392,351.343
1461,30.8388,0.458776,0.507757,18.9343,0.0914678,0.011297,0.988315,0.640542,-0.249218,-0.930634,-0.0869489,0.428517,0.0606093,0.447131,2.88169,3.53974,86.5806,351.762
1466,41.8837,1.17474,1.22375,19.227,0.433275,0.0872489,0.137613,1.44291,-0.249218,-0.116329,0.775294,0.428517,0.202031,0.945271,4.79872,3.53974,90.5476,352.188
1471,32.891,0.529648,0.616912,18.9286,-0.00727658,0.00370186,0.0540624,1.44291,-0.249218,-0.116329,0.775294,-0.321388,0.343453,0.447131,3.8402,3.51897,0.0,352.218
1476,31.8359,0.0206758,0.261024,18.8413,-0.00727658,0.0188922,0.076849,3.04763,-0.249218,1.51228,-0.0869489,0.428517,0.343453,0.613177,4.79872,3.51897,0.0,352.218
1481,29.4237,0.294293,0.343267,18.6189,0.0155106,-0.0266789,-0.00670195,0.640542,-0.249218,-0.116329,-0.949192,0.428517,0.0606093,0.779224,3.8402,3.51897,0.0,352.218