File: 01_Data/Red_Accent_Chair/Furniture_Calorimeter/Red_Accent_Chair_R1.csv
Time (s),Convective HRR,TCPlume1,TCPlume2,TCPlume3,DPPlume1,DPPlume2,DPPlume3,HF1,HF2,HF3,HF4,HF5,HF6,RAD2,RAD1,Load Cell,Heat Release Rate,Total Heat Released
-120,0.0,-9.24685,-8.21615,9.25829,0.0365105,0.0781858,-0.0421266,1.35525,0.792967,-0.0752718,0.0797031,-0.642776,-0.028522,0.613177,3.8402,20.1111,0.0,0.0
-115,0.75407,-9.88121,-8.02592,9.71155,-0.085021,0.085781,-0.0497221,-0.249474,-1.00442,-0.889576,0.941946,0.107129,-0.028522,0.447131,1.92317,20.0696,0.0,0.0
-110,0.48119,-8.94431,-8.18844,9.3618,-0.0774253,-0.0813132,-0.0117444,-0.249474,0.792967,-0.0752718,0.941946,-0.267823,-0.169944,0.779224,4.79872,20.1319,0.0,0.0
-105,1.47792,-8.4066,-8.31755,8.96814,0.0137234,0.00982907,-0.0801043,1.35525,-1.00442,-0.0752718,-0.78254,0.107129,-0.169944,0.613177,2.88169,20.1319,0.0,0.0
-100,1.52728,-8.72613,-8.3233,8.84779,-0.0090638,-0.0433373,-0.034531,0.552889,-0.105729,0.739033,-0.78254,0.482082,0.1129,0.447131,1.92317,20.3188,0.0,0.0
-95,2.12838,-8.37889,-8.40748,8.95693,-0.0242553,0.00223388,-0.0573176,0.552889,0.792967,-0.0752718,0.0797031,0.482082,-0.028522,0.613177,2.88169,20.1111,0.0,0.0
-90,0.0,-8.8496,-8.44669,8.88043,-0.0622339,0.0326146,0.0110423,0.552889,-0.105729,-0.0752718,-0.78254,0.107129,-0.169944,0.779224,1.92317,20.1111,0.0,0.0
-85,0.0,-8.65918,-8.49166,9.02781,-0.031851,-0.00536131,0.0262334,-0.249474,-0.105729,-0.889576,0.0797031,0.107129,-0.169944,0.613177,3.8402,20.1111,0.0,0.0
-80,0.28144,-8.61995,-8.49166,9.02781,0.00612764,0.0781858,-0.0649132,-1.05184,-1.90312,-0.0752718,0.941946,-0.642776,0.1129,0.613177,3.8402,20.0903,0.0,0.0
-75,1.12093,-8.38464,-8.49166,8.87482,0.0896806,0.00223388,-0.0193399,-1.05184,-1.00442,-0.889576,0.941946,0.107129,-0.169944,0.613177,2.88169,20.1111,0.0,0.0
-70,0.0,-8.35693,-8.42474,8.9401,-0.00146808,0.0705906,-0.0117444,0.552889,0.792967,1.55334,0.941946,-0.267823,-0.311366,0.945271,3.8402,20.0903,0.0,0.0
-65,0.0,-9.80942,-7.87599,9.47551,-0.0470424,0.085781,0.0566155,-0.249474,0.792967,-0.0752718,-0.78254,0.107129,0.1129,0.779224,3.8402,19.945,0.0,0.0
-60,0.0,-8.72719,-8.16755,9.19099,0.0441063,-0.0205517,0.00344672,-1.05184,0.792967,-0.0752718,-0.78254,0.482082,0.1129,0.613177,2.88169,19.945,0.0,0.0
-55,0.0,-8.49183,-8.32436,8.96152,0.0213191,-0.0357421,-0.0269355,-1.8542,-1.00442,0.739033,0.941946,-0.267823,0.1129,0.613177,3.8402,20.2772,0.0,0.0
-50,0.0,-8.63722,-8.39127,8.70499,0.0365105,-0.13448,-0.0573176,-0.249474,0.792967,0.739033,-0.78254,-0.267823,-0.169944,0.447131,3.8402,20.0903,0.0,0.0
-45,0.0,-8.6822,-8.35782,8.62288,-0.0090638,-0.111694,0.0338289,-0.249474,-0.105729,0.739033,0.0797031,-0.267823,0.1129,0.447131,2.88169,20.2565,0.0,0.0
-40,0.0,-8.57028,-8.48121,8.42599,-0.0926168,-0.0889084,-0.0649132,0.552889,0.792967,-0.0752718,-0.78254,0.482082,-0.028522,0.447131,1.92317,20.2772,0.0,0.0
-35,0.0,-8.25657,-8.40278,8.42599,-0.0242553,-0.0281469,-0.0952954,-0.249474,2.59036,0.739033,0.0797031,-0.267823,-0.028522,0.613177,3.8402,19.9657,0.0,0.0
-30,0.0,-7.88193,-8.2632,8.40916,0.0668934,0.00982907,0.0110423,-1.05184,-0.105729,0.739033,0.0797031,-0.267823,0.1129,0.281084,1.92317,20.2772,0.0,0.0
-25,0.0,-7.84275,-8.2632,8.56218,-0.0166595,-0.0205517,-0.110486,1.35525,-1.00442,-0.889576,0.0797031,0.482082,0.254322,0.613177,0.964651,20.1319,0.0,0.0
-20,0.0,-7.96029,-8.2632,8.56218,-0.0622339,0.0174243,-0.0876998,0.552889,-1.00442,-0.889576,-0.78254,0.107129,0.1129,0.613177,3.8402,20.1111,0.0,0.0
-15,0.0,-8.12279,-8.38658,8.51831,0.051702,0.0629954,0.0945933,0.552889,-1.00442,0.739033,-0.78254,0.107129,0.1129,0.447131,4.79872,20.0903,0.0,0.0
-10,0.0,-9.3783,-8.03378,8.78608,0.0137234,-0.16486,0.0718066,-0.249474,0.792967,0.739033,-0.78254,-0.642776,0.1129,0.613177,3.8402,20.298,0.0,0.0
-5,0.0,-8.75597,-7.64777,8.93346,-0.0166595,0.0781858,0.140167,-0.249474,-0.105729,-0.0752718,0.941946,0.107129,-0.028522,0.613177,3.8402,20.2772,0.0,0.0
0,0.0,-9.97348,-7.88279,8.97171,-0.0090638,0.0402098,0.0718066,0.552889,-1.00442,-0.0752718,0.0797031,0.107129,-0.028522,0.613177,2.88169,20.2772,0.0,0.0
5,0.14185,-8.84597,-7.93347,8.65449,0.0365105,0.00982907,-0.0876998,-0.249474,0.792967,0.739033,0.0797031,-0.267823,-0.169944,0.613177,2.88169,20.298,0.0,0.0
10,0.0,-8.53212,-8.01184,8.8075,0.0365105,0.00223388,-0.0497221,1.35525,-0.105729,-0.0752718,0.941946,-0.267823,0.1129,0.945271,2.88169,20.1111,0.0,0.0
15,0.0,-9.00295,-7.77677,8.92224,0.0820849,-0.0433373,-0.00414883,-1.05184,-0.105729,0.739033,0.0797031,0.107129,-0.028522,0.613177,2.88169,19.945,0.0,0.0
20,0.0,-7.91642,-8.18012,8.52851,0.0137234,-0.0205517,-0.0725087,-0.249474,-1.00442,-0.889576,0.941946,-0.267823,-0.169944,0.779224,0.964651,19.945,0.0,0.0
25,0.0,-7.60882,-8.06828,8.5994,0.0213191,-0.0357421,0.155358,0.552889,-0.105729,-0.0752718,0.0797031,-0.267823,0.1129,0.281084,2.88169,19.9657,0.0,0.0
30,0.0,-7.72056,-8.10172,8.56676,0.0365105,0.0250194,0.0414244,-1.05184,-1.00442,-0.889576,-0.78254,-0.267823,0.254322,0.281084,3.8402,20.3188,0.0,0.0
35,0.0,-7.99479,-8.14092,8.49025,0.00612764,0.00982907,-0.0952954,1.35525,1.69166,-0.0752718,0.0797031,0.482082,0.1129,0.447131,1.92317,20.2772,0.0,0.0
40,0.0,-8.63359,-8.38765,8.44077,-0.0470424,0.00223388,0.0338289,-0.249474,-1.00442,-1.70388,0.941946,-0.267823,-0.028522,0.447131,2.88169,20.2565,0.0,0.0
45,0.0,-8.5609,-8.39341,8.66468,0.051702,-0.0509324,-0.0193399,1.35525,-0.105729,-0.0752718,0.0797031,0.107129,0.1129,0.613177,3.8402,20.1111,0.0,0.0
50,0.0,-8.44324,-8.23658,8.81769,-0.0698296,-0.0585276,-0.0649132,-0.249474,1.69166,-0.889576,0.0797031,0.107129,0.1129,0.613177,3.8402,20.0696,0.0,0.0
55,0.0,-9.31236,-7.96798,9.34751,0.0213191,-0.0813132,-0.0269355,-0.249474,-0.105729,-0.0752718,-0.78254,0.482082,-0.169944,0.779224,2.88169,20.0903,0.0,0.0
60,0.0,-8.7628,-8.39916,8.77382,-0.00146808,0.00223388,0.0110423,-1.05184,0.792967,-0.0752718,0.0797031,-0.267823,-0.169944,0.613177,2.88169,20.1319,0.0,0.0
65,0.0,-7.78272,-8.24233,9.07981,-0.0090638,-0.073718,0.261695,-1.05184,-0.105729,-0.889576,0.0797031,-0.267823,-0.028522,0.779224,3.8402,20.1111,0.0,0.0
70,0.0,-7.73781,-7.84469,9.2384,0.051702,0.047805,-0.0269355,0.552889,-0.105729,-0.0752718,-0.78254,-0.267823,-0.028522,0.945271,2.88169,20.0903,0.0,0.0
75,0.43096,-8.21951,-7.46456,9.18893,0.0896806,0.100971,-0.0269355,-0.249474,-0.105729,0.739033,0.0797031,0.107129,0.254322,0.613177,2.88169,20.1319,0.0,0.0
80,0.0,-7.99011,-7.54861,9.14507,0.0972763,0.100971,0.0262334,0.552889,0.792967,0.739033,0.0797031,0.107129,-0.028522,0.779224,3.8402,19.9657,4.12484,0.0171226
85,2.347,-6.97798,-7.59351,9.02472,0.112468,0.00223388,0.0794022,0.552889,-0.105729,0.739033,0.0797031,0.857034,-0.028522,0.613177,3.8402,20.0903,5.02282,0.03721663
90,3.07092,-7.1402,-7.52095,8.98086,-0.0166595,-0.0433373,0.0338289,0.552889,-1.00442,-0.0752718,0.941946,0.107129,0.254322,0.613177,2.88169,20.1111,4.87455,0.0714687
95,6.43346,-7.73888,-7.64992,8.96964,-0.0546381,0.0174243,0.162953,-0.249474,0.792967,-0.0752718,0.941946,0.482082,0.254322,0.779224,4.79872,20.1111,1.96183,0.0892379
100,8.48045,-7.39224,-7.69483,8.92578,-0.031851,-0.233217,-0.110486,-0.249474,0.792967,-0.889576,-0.78254,-0.267823,-0.028522,0.613177,4.79872,20.1319,1.48143,0.0945146
105,9.65562,-7.0677,-7.48755,9.05174,-0.0166595,-0.0585276,-0.0193399,1.35525,0.792967,-0.0752718,0.0797031,0.482082,0.1129,0.945271,3.8402,20.0903,9.13012,0.12901
110,10.3354,-7.54308,-7.37585,9.31384,-0.0166595,-0.00536131,0.0262334,1.35525,0.792967,2.36764,0.0797031,0.107129,0.1129,0.613177,3.8402,20.1319,24.8561,0.19312
115,13.8654,-6.37548,-7.18592,9.26998,0.0744892,-0.00536131,-0.0876998,1.35525,1.69166,-0.0752718,0.0797031,-0.267823,0.1129,0.613177,2.88169,19.9865,44.0475,0.36361
120,15.2411,-4.62053,-5.54505,9.46119,1.09232,0.0402098,-0.0725087,1.35525,1.69166,0.739033,0.941946,0.482082,0.1129,0.447131,3.8402,20.1319,57.107,0.618339
125,17.9137,-4.5152,-5.82962,9.83233,0.537828,0.678206,0.595899,1.35525,-0.105729,-0.0752718,0.941946,0.107129,0.1129,0.945271,4.79872,20.0073,74.2014,0.959308
130,21.8339,-1.6457,-4.50453,9.90879,0.674551,0.222494,-0.0269355,2.15762,0.792967,-0.0752718,1.80419,0.857034,0.254322,0.779224,4.79872,20.1734,87.412,1.35985
135,24.2621,-1.68999,-4.89959,9.94141,-0.0242553,-0.0661228,-0.118082,1.35525,-0.105729,0.739033,0.941946,1.23199,0.395743,0.779224,4.79872,20.1526,95.6385,1.80573
140,32.833,-2.35301,-4.98322,10.2416,-0.0546381,-0.0509324,-0.163655,2.15762,0.792967,-0.0752718,0.0797031,0.107129,0.537165,0.779224,3.8402,19.9657,105.682,2.28327
145,35.5213,-2.90666,-4.25504,10.6508,0.0820849,0.123757,-0.0725087,1.35525,0.792967,0.739033,0.941946,0.107129,0.395743,0.945271,5.75724,19.945,156.664,2.90699
150,40.1261,-2.81776,-4.24362,10.6238,0.560615,-0.0585276,-0.118082,0.552889,-0.105729,3.18195,0.0797031,0.107129,0.254322,0.779224,3.8402,19.7788,173.251,3.70342
155,47.8265,-1.70701,-3.24501,11.4532,0.104872,0.427564,0.155358,2.15762,-0.105729,-0.889576,0.0797031,0.107129,0.254322,1.11132,3.8402,19.9657,229.358,4.75117
160,58.7464,2.13195,0.534684,14.5447,0.355531,1.10354,0.32246,3.76234,0.792967,2.36764,0.941946,0.482082,0.678587,0.779224,6.71575,19.9657,299.318,6.08278
165,82.7729,4.08459,4.28678,17.4015,0.302361,2.85043,1.26431,3.76234,1.69166,1.55334,0.941946,0.857034,0.537165,0.779224,6.71575,19.7373,346.856,7.65552
170,98.391,7.82399,7.68184,19.4813,0.803679,1.36177,0.527539,5.36707,-0.105729,1.55334,1.80419,1.23199,0.678587,1.44341,6.71575,19.7788,325.512,9.35507
175,116.973,11.4934,9.21162,21.2653,1.80631,-0.210431,0.74781,4.56471,1.69166,3.18195,4.39092,1.60694,1.24427,1.7755,7.67427,19.5919,333.833,11.0986
180,139.953,15.4602,9.70859,22.5163,0.355531,-0.0661228,0.550326,5.36707,2.59036,3.18195,2.66643,1.23199,1.24427,1.60946,8.63279,19.405,366.683,12.8709
185,174.776,17.0916,14.513,26.9724,1.70757,2.49346,2.00867,5.36707,3.48905,2.36764,1.80419,0.857034,1.24427,1.44341,7.67427,19.2597,378.818,14.734
190,170.592,17.6566,14.4312,28.4751,0.264382,-0.0433373,0.0338289,5.36707,3.48905,3.18195,0.941946,1.98189,1.24427,1.7755,9.5913,19.3012,383.427,16.6252
195,170.938,20.24,17.5917,30.9966,6.4549,0.579468,2.35807,6.16943,4.38775,3.18195,3.52867,1.98189,1.3857,1.94155,9.5913,19.1143,412.694,18.6011
200,200.695,25.0762,21.378,33.2761,3.23431,1.4833,0.413606,6.9718,3.48905,3.18195,3.52867,1.98189,1.52712,1.60946,9.5913,19.3012,447.412,20.7561
205,200.341,27.1093,25.2331,38.2104,2.23927,0.951633,4.40127,8.57652,4.38775,3.99625,2.66643,2.35684,1.3857,2.1076,11.5083,18.969,458.15,23.0677
210,205.475,25.945,27.5786,39.4847,2.02659,3.72388,0.512348,10.1813,4.38775,4.81055,2.66643,3.10675,1.66854,2.27365,9.5913,18.7821,479.516,25.4619
215,221.713,35.7861,38.9355,46.359,1.75314,1.85546,0.687046,10.9836,4.38775,4.81055,2.66643,2.35684,1.66854,2.1076,11.5083,18.969,521.795,28.0034
220,238.42,38.5026,41.2723,47.2008,4.04705,2.52384,2.32768,10.1813,4.38775,4.81055,5.25316,2.35684,1.80996,2.1076,13.4254,18.7821,600.369,30.8164
225,243.973,44.458,50.8407,55.5902,7.32081,2.03774,6.08748,13.3907,4.38775,4.81055,3.52867,2.7318,2.37565,2.43969,14.3839,18.5952,716.308,34.1204
230,257.138,51.0876,56.8907,60.8549,4.86739,4.04287,1.97829,12.5883,5.28644,4.81055,4.39092,3.4817,2.37565,2.60574,15.3424,18.3044,739.888,37.7897
235,266.79,55.0679,59.4249,64.1204,0.370722,3.0631,5.1988,14.9954,6.18514,4.81055,5.25316,4.23161,2.65849,2.93783,16.3009,18.2837,800.076,41.713
240,314.396,54.5886,63.1741,70.1399,7.77655,2.66815,7.45468,17.4025,6.18514,7.25347,6.1154,4.23161,2.94134,3.26993,19.1765,17.8891,929.948,46.0479
245,389.34,68.8454,73.7713,80.5134,2.41397,1.36937,0.39082,15.7978,6.18514,7.25347,6.1154,3.85665,3.22418,3.60202,17.2594,17.9722,999.825,50.8263
250,399.523,82.5274,83.2004,84.7387,2.03419,6.2151,6.97616,19.0073,7.98253,8.06777,5.25316,4.98151,3.50702,3.76807,19.1765,17.6192,1048.15,56.0493
255,433.563,90.9985,97.0846,92.4083,3.88754,3.23778,4.07466,22.2167,9.77992,8.88208,6.97765,5.73142,4.21413,4.26621,23.9691,17.4738,1224.35,61.6664
260,492.173,97.7716,108.021,106.58,1.33538,9.89117,2.67708,23.8214,9.77992,11.325,8.70213,6.85627,5.20408,5.26249,28.7616,17.1208,1223.22,67.713
265,537.526,98.5459,113.736,120.671,5.3915,8.4253,6.52802,27.0309,10.6786,11.325,10.4266,7.98113,5.48693,5.59458,28.7616,16.7885,1347.81,74.4906
270,553.233,107.409,128.551,136.793,5.78647,4.42263,0.109784,31.0427,13.3747,13.7679,11.2889,8.73103,6.19404,6.25877,31.6372,16.4355,1192.59,80.6898
275,658.466,126.663,144.327,161.76,0.963189,3.0479,3.6645,32.6474,15.1721,15.3965,12.1511,8.73103,6.05261,6.09272,32.5957,16.2901,1203.76,86.6212
280,657.057,124.257,151.283,174.977,8.08798,4.52897,10.2878,35.0545,14.2734,14.5822,12.1511,9.10599,6.19404,6.09272,32.5957,15.9579,1223.92,92.727
285,740.515,141.878,178.803,198.913,11.3238,11.4026,5.35831,34.2522,16.0708,15.3965,11.2889,9.10599,6.19404,6.25877,34.5127,15.4595,1234.55,98.9483
290,658.882,147.971,181.367,203.153,2.11014,2.70612,4.83421,31.8451,12.476,12.1393,9.56437,7.23122,6.05261,5.92667,29.7202,15.3141,1165.47,105.025
295,674.205,146.608,174.954,209.099,4.71548,4.08845,6.27737,33.4498,12.476,12.9536,11.2889,8.73103,5.91119,5.76063,34.5127,15.0234,1154.78,110.889
300,684.699,150.049,190.029,235.271,8.48296,17.4104,8.52565,39.0663,15.1721,16.2108,13.0133,9.48094,6.47688,6.42481,37.3883,14.6704,1135.11,116.678
305,691.329,151.121,191.758,253.041,3.05201,2.70612,14.8224,36.6592,12.476,13.7679,11.2889,8.73103,5.76977,5.59458,35.4713,14.3381,1242.31,122.658
310,666.434,146.83,183.347,253.667,4.73826,7.30881,1.87195,36.6592,13.3747,13.7679,13.0133,8.35608,5.91119,6.09272,34.5127,14.1512,1122.69,128.425
315,678.59,144.058,178.41,261.549,7.67021,7.24045,7.9332,36.6592,14.2734,14.5822,11.2889,7.98113,5.62835,5.76063,35.4713,13.819,1090.98,133.962
320,669.324,153.38,201.853,294.534,4.55597,8.40251,5.79125,37.4616,15.1721,15.3965,11.2889,7.23122,5.76977,5.76063,36.4298,13.4452,1059.83,139.122
325,760.658,160.892,209.881,313.935,7.5107,8.94937,10.6448,39.0663,14.2734,15.3965,12.1511,7.98113,5.76977,5.92667,38.3468,13.1337,942.726,143.964
330,704.86,169.08,238.949,352.578,1.51008,9.72408,8.36614,42.2758,15.1721,13.7679,12.1511,8.73103,6.05261,6.09272,39.3053,12.9676,925.657,148.588
335,678.282,164.889,239.062,367.417,6.73594,8.70632,9.14089,39.8687,13.3747,15.3965,13.0133,8.35608,5.76977,5.59458,38.3468,12.6561,832.547,153.195
340,685.36,153.976,228.523,363.565,13.9215,17.1826,8.80668,43.0782,15.1721,17.0251,13.8756,7.98113,5.62835,5.42853,37.3883,12.4899,843.087,157.302
345,621.429,150.633,224.465,363.596,9.48559,13.59,9.42192,40.6711,11.5773,13.7679,12.1511,6.85627,4.77982,5.09644,36.4298,12.1577,766.0,161.384
350,611.29,144.052,208.168,347.042,11.3389,9.38229,2.82139,36.6592,11.5773,12.9536,12.1511,6.85627,4.6384,4.76435,34.5127,11.9915,689.666,165.021
355,560.764,141.937,203.214,340.808,6.0903,2.93398,5.35071,38.264,9.77992,12.9536,12.1511,6.10637,4.35555,4.5983,33.5542,11.5139,673.637,168.425
360,582.997,133.766,188.605,328.363,2.77857,11.5621,6.5584,35.8569,9.77992,11.325,12.1511,5.73142,4.07271,4.26621,32.5957,11.6385,574.334,171.72
365,535.071,131.087,184.813,323.598,5.50543,9.95193,10.1587,34.2522,8.88123,11.325,10.4266,5.35646,3.78987,4.10016,31.6372,11.4516,519.698,174.6
370,487.155,126.218,177.565,312.211,6.69796,1.29342,9.14848,27.0309,6.18514,8.88208,9.56437,4.23161,3.08276,3.26993,23.9691,11.3063,505.425,177.114
375,491.238,117.671,167.082,302.667,2.45195,7.6278,7.22681,24.6238,6.18514,8.06777,6.97765,3.85665,2.79991,2.77179,21.0935,11.1401,415.624,179.409
380,446.053,110.194,153.954,290.354,4.18378,6.51131,5.22159,21.4143,4.38775,6.43916,8.70213,3.4817,2.51707,2.43969,20.135,10.974,337.105,181.254
385,409.292,98.4027,141.089,275.773,7.19928,7.02019,5.04689,18.2049,4.38775,6.43916,6.97765,2.35684,1.95138,2.1076,17.2594,10.8286,339.727,183.024
390,410.341,95.3704,133.619,263.367,2.39878,6.04041,8.15347,15.7978,2.59036,4.81055,6.1154,2.7318,1.95138,2.43969,14.3839,10.8286,268.834,184.506
395,364.738,85.1098,121.585,250.414,5.36871,7.76452,3.48221,13.3907,4.38775,5.62486,5.25316,1.23199,1.52712,2.1076,12.4669,10.6417,227.292,185.773
400,317.027,79.1783,111.729,237.405,4.22935,3.59476,4.60635,11.786,3.48905,3.99625,5.25316,1.60694,1.80996,1.7755,11.5083,10.4756,220.151,186.898
405,335.04,71.364,101.431,225.411,2.35321,1.40734,4.10504,10.9836,3.48905,3.18195,4.39092,1.98189,1.24427,1.60946,8.63279,10.4756,189.069,187.933
410,292.072,63.5909,93.5484,215.013,4.27492,2.44788,2.08463,10.1813,3.48905,1.55334,5.25316,1.60694,1.24427,1.60946,9.5913,10.351,166.214,188.834
415,246.682,56.9188,84.1264,203.533,0.507445,4.24794,3.64171,9.37889,2.59036,3.18195,3.52867,0.857034,0.96143,1.27736,8.63279,10.351,155.275,189.666
420,244.814,53.9498,77.1744,194.316,1.38095,1.04277,2.61631,8.57652,1.69166,2.36764,3.52867,0.857034,1.10285,1.27736,8.63279,10.351,132.422,190.383
425,217.693,48.7612,71.5856,185.592,2.15572,3.0555,2.4644,8.57652,1.69166,2.36764,3.52867,1.60694,0.820009,1.11132,8.63279,10.1641,123.154,191.038
430,211.325,45.4318,67.8868,177.654,0.841657,4.52137,3.42144,7.77416,3.48905,2.36764,2.66643,1.23199,0.96143,1.11132,7.67427,10.1434,106.759,191.617
435,206.671,41.344,64.4368,171.814,2.26965,4.58213,1.40103,7.77416,1.69166,2.36764,1.80419,1.23199,0.96143,1.11132,8.63279,10.1018,111.837,192.157
440,184.171,38.6925,60.3162,164.794,2.20129,2.84283,1.75802,6.16943,2.59036,3.18195,2.66643,1.60694,0.678587,1.11132,7.67427,9.998,113.531,192.737
445,185.199,37.4287,57.1203,158.139,1.53287,1.09594,3.36827,6.16943,2.59036,1.55334,3.52867,1.23199,0.820009,1.11132,6.71575,10.0188,117.627,193.301
450,167.496,34.5487,52.9177,152.024,2.98365,0.868085,3.05686,6.9718,1.69166,3.18195,2.66643,1.60694,0.820009,0.945271,6.71575,9.9357,116.64,193.872
455,167.829,33.1301,51.0766,146.421,1.88227,2.7441,2.11501,6.9718,2.59036,3.18195,1.80419,0.857034,0.678587,1.27736,6.71575,9.8734,121.511,194.496
460,168.473,31.5914,49.2279,140.94,1.22144,1.11873,2.38085,6.9718,2.59036,2.36764,0.941946,1.60694,0.820009,0.945271,6.71575,9.83187,127.156,195.145
465,176.799,29.7495,46.1536,135.511,0.970785,1.96939,2.24413,4.56471,1.69166,0.739033,2.66643,0.857034,0.678587,1.11132,5.75724,9.83187,134.338,195.791
470,160.447,29.0776,44.8235,130.629,0.750509,3.2074,4.36329,5.36707,2.59036,1.55334,2.66643,0.857034,0.678587,1.44341,6.71575,9.66574,134.876,196.499
475,154.547,27.441,43.1356,126.038,3.05201,1.80989,2.9733,6.16943,0.792967,2.36764,2.66643,0.857034,0.678587,1.11132,5.75724,9.68651,145.35,197.196
480,148.958,27.635,42.0627,121.742,1.6544,0.928847,2.73025,5.36707,2.59036,2.36764,0.941946,1.23199,0.820009,1.27736,6.71575,9.64498,133.02,197.887
485,156.665,25.1708,38.4374,117.255,0.135255,0.442755,3.42144,5.36707,1.69166,1.55334,1.80419,1.23199,0.537165,1.44341,5.75724,9.52038,133.892,198.56
490,151.24,23.9777,37.7072,113.401,0.644168,1.74913,3.11002,6.16943,1.69166,1.55334,1.80419,0.857034,0.395743,1.11132,5.75724,9.49961,133.224,199.21
495,153.559,21.9221,35.0789,109.899,0.120063,0.306041,0.694641,5.36707,2.59036,3.18195,0.941946,0.107129,0.678587,1.11132,5.75724,9.29195,151.056,199.961
500,145.141,20.1776,32.5678,106.044,0.00612764,0.541492,0.124975,6.16943,1.69166,0.739033,1.80419,0.857034,0.537165,0.945271,6.71575,9.35425,149.104,200.726
505,145.043,19.961,31.8657,102.356,1.73036,0.154138,0.740215,5.36707,-0.105729,1.55334,0.941946,0.857034,0.537165,1.27736,5.75724,9.31272,153.446,201.535
510,136.28,20.9854,31.5653,99.513,1.41134,3.40488,0.474371,4.56471,1.69166,1.55334,1.80419,-0.267823,0.537165,1.11132,6.71575,9.33348,129.778,202.209
515,143.754,21.397,30.7331,96.668,1.92785,0.419969,0.740215,4.56471,0.792967,0.739033,0.941946,0.857034,0.678587,0.945271,9.5913,9.16736,137.397,202.843
520,141.777,20.4923,29.3093,93.8372,1.17587,1.08075,0.922508,4.56471,1.69166,2.36764,2.66643,0.857034,0.678587,0.945271,6.71575,9.16736,145.956,203.553
525,158.575,19.272,27.3824,91.8446,0.530233,1.62001,1.50736,6.16943,1.69166,0.739033,1.80419,0.482082,0.537165,1.11132,5.75724,9.00123,127.758,204.241
530,136.418,19.234,29.0026,90.5206,1.13789,2.46308,1.55294,5.36707,1.69166,0.739033,2.66643,0.857034,0.678587,0.945271,7.67427,9.04276,130.246,204.857
535,132.873,20.7579,29.3846,87.8798,0.575807,0.161733,0.519944,4.56471,1.69166,1.55334,0.941946,0.482082,0.678587,1.11132,8.63279,8.98046,114.69,205.472
540,143.065,19.7276,28.2117,85.634,0.796083,1.33139,1.39343,5.36707,2.59036,2.36764,1.80419,0.482082,0.678587,1.27736,7.67427,8.98046,107.833,206.038
545,133.904,19.234,27.9856,83.9086,0.302361,5.61508,1.72764,5.36707,0.792967,1.55334,1.80419,0.482082,0.678587,0.779224,4.79872,8.79357,143.498,206.689
550,134.133,18.7021,27.307,81.5601,1.24423,0.928847,2.14539,5.36707,2.59036,0.739033,1.80419,0.857034,0.537165,1.11132,5.75724,8.8351,121.93,207.315
555,127.566,19.4563,27.4523,80.2341,0.340339,2.03015,1.87955,5.36707,1.69166,1.55334,1.80419,0.857034,0.678587,0.945271,5.75724,8.8351,121.941,207.907
560,126.788,22.5227,32.7499,81.6227,3.39382,1.4833,0.922508,3.76234,0.792967,1.55334,1.80419,0.482082,0.678587,1.11132,6.71575,8.66897,129.315,208.524
565,164.617,22.6419,31.9297,79.9773,1.55566,3.35171,2.44162,4.56471,-0.105729,2.36764,1.80419,0.857034,0.678587,0.945271,5.75724,8.6482,114.322,209.118
570,151.914,22.4525,31.7795,79.0236,0.697338,1.28582,2.08463,5.36707,0.792967,1.55334,2.66643,1.60694,0.678587,0.779224,6.71575,8.66897,137.8,209.741
575,141.464,22.5227,30.91,77.5879,0.682147,2.68334,2.19856,4.56471,3.48905,2.36764,1.80419,0.857034,0.678587,1.27736,5.75724,8.48207,126.216,210.398
580,149.285,20.8605,29.1853,76.7132,3.11278,6.04041,3.91515,5.36707,0.792967,2.36764,2.66643,0.857034,0.395743,1.11132,7.67427,8.50284,113.504,210.977
585,133.477,22.0455,30.8508,76.506,1.35087,1.98257,1.38464,3.49454,2.75051,1.93376,1.86867,0.71981,0.366027,1.03918,7.0255,8.48466,114.303,211.547
590,149.455,23.0962,29.5617,74.4396,1.57844,3.32893,2.53276,3.76234,2.59036,2.36764,1.80419,1.23199,0.537165,1.11132,6.71575,8.48207,114.562,212.119
595,140.37,22.0034,28.7767,72.7214,1.305,2.52384,1.05163,5.36707,1.69166,1.55334,1.80419,0.482082,0.678587,0.779224,6.71575,8.27441,122.753,212.719
600,136.269,19.4998,26.5525,71.5478,0.727721,2.08332,1.49217,6.16943,1.69166,1.55334,0.941946,0.857034,0.820009,1.11132,6.71575,8.33671,129.931,213.355
605,136.263,19.5702,25.4143,69.7451,0.158042,0.936442,2.2973,5.36707,0.792967,1.55334,0.941946,1.23199,0.678587,0.945271,5.75724,8.33671,137.706,214.026
610,123.762,18.5389,25.5221,69.4462,1.36576,1.7871,2.85178,4.56471,2.59036,0.739033,0.941946,0.482082,0.537165,0.779224,6.71575,8.19135,140.197,214.711
615,128.041,19.1089,24.3883,68.3455,0.788487,0.146542,2.10741,4.56471,1.69166,1.55334,1.80419,0.857034,0.537165,0.945271,6.71575,8.17058,137.804,215.419
620,130.722,18.9949,24.6151,66.5471,2.11014,1.19468,1.46179,4.56471,0.792967,2.36764,2.66643,0.857034,0.678587,0.779224,6.71575,8.14982,121.553,216.061
625,132.479,19.3803,24.8475,65.5246,1.88227,4.19478,0.770597,4.56471,0.792967,3.18195,0.0797031,0.482082,0.678587,0.945271,6.71575,8.19135,138.634,216.711
630,131.873,19.8304,24.8419,64.7113,1.96582,1.0048,1.05923,3.76234,1.69166,0.739033,1.80419,0.857034,0.678587,1.11132,5.75724,8.00445,136.814,217.397
635,135.283,18.4629,23.1019,62.5071,0.742913,0.138947,1.14278,3.76234,1.69166,2.36764,1.80419,0.857034,0.678587,1.11132,5.75724,8.00445,122.099,218.066
640,123.241,16.0282,20.9799,60.9999,0.39351,2.2656,2.35807,4.56471,0.792967,1.55334,0.941946,0.482082,0.537165,0.945271,4.79872,8.00445,125.692,218.68
645,137.661,16.0282,20.9799,60.0437,1.60123,0.8453,0.922508,5.36707,0.792967,1.55334,0.941946,1.23199,0.395743,0.945271,6.71575,7.81756,138.466,219.31
650,138.667,15.457,19.006,58.5718,1.98861,0.65542,0.383224,4.56471,0.792967,1.55334,0.941946,0.482082,0.254322,1.11132,5.75724,7.83832,144.626,220.02
655,127.173,14.733,18.7021,57.3936,2.28484,2.82764,0.368033,6.16943,0.792967,1.55334,1.80419,0.482082,0.820009,1.11132,5.75724,7.69296,140.749,220.713
660,129.379,15.8322,20.2155,56.6514,1.84429,1.27823,3.17838,4.56471,0.792967,1.55334,1.80419,0.482082,0.395743,1.27736,7.67427,7.85909,139.023,221.397
665,122.179,15.5656,20.2155,56.0987,0.773296,0.814919,0.61109,4.56471,0.792967,1.55334,0.0797031,0.857034,0.395743,0.945271,6.71575,7.65143,128.365,222.064
670,116.699,14.0087,18.9301,54.7769,1.41134,2.22003,1.57572,5.36707,0.792967,1.55334,1.80419,0.107129,0.537165,0.945271,7.67427,7.85909,116.122,222.668
675,116.384,12.7937,18.1756,53.4542,0.71253,1.30101,1.59092,5.36707,-0.105729,0.739033,2.66643,0.482082,0.395743,0.779224,5.75724,7.6722,122.1,223.284
680,118.416,12.7555,16.9965,52.2727,0.910019,0.807324,0.147762,4.56471,2.59036,2.36764,0.0797031,0.857034,0.537165,0.945271,6.71575,7.65143,123.869,223.896
685,117.592,11.9371,15.7235,51.4067,0.796083,0.731372,1.55294,5.36707,-0.105729,1.55334,0.941946,1.23199,0.395743,1.11132,5.75724,7.52683,127.516,224.531
690,108.327,13.431,17.4419,50.9686,1.305,2.50105,1.90233,5.36707,2.59036,-0.0752718,0.941946,0.482082,0.537165,0.945271,5.75724,7.52683,121.719,225.163
695,109.38,13.3929,16.757,50.3771,1.22904,1.27823,0.861743,3.76234,0.792967,0.739033,0.941946,0.482082,0.678587,0.779224,6.71575,7.50607,121.572,225.796
700,107.591,13.164,17.1375,50.6359,0.910019,0.579468,1.21873,3.76234,0.792967,2.36764,1.80419,0.857034,0.254322,0.945271,4.79872,7.29841,123.832,226.421
705,113.381,12.6949,16.7839,49.6634,0.530233,2.15927,0.345246,3.76234,0.792967,2.36764,1.80419,0.482082,0.537165,0.945271,4.79872,7.31917,121.144,227.038
710,104.089,15.2172,17.9307,49.5948,0.689743,2.88081,1.12759,5.36707,1.69166,-0.0752718,1.80419,0.482082,0.678587,0.945271,4.79872,7.423,123.323,227.674
715,106.326,13.818,16.5723,48.7175,0.401105,0.23009,0.269291,3.76234,1.69166,1.55334,0.941946,0.482082,0.537165,0.779224,4.79872,7.33994,127.499,228.3
720,111.328,12.9676,15.4568,47.5214,0.256787,1.50608,0.383224,3.76234,-1.00442,1.55334,2.66643,0.482082,0.395743,0.945271,4.79872,7.17381,123.965,228.921
725,108.495,12.128,15.2663,47.5214,1.85948,1.36177,1.85676,4.56471,0.792967,2.36764,0.941946,0.857034,0.537165,1.11132,5.75724,7.33994,120.897,229.538
730,116.266,12.6736,16.2678,47.9028,2.05697,2.12889,2.76823,2.95998,-0.105729,0.739033,1.80419,0.857034,0.678587,1.27736,6.71575,7.23611,111.902,230.107
735,115.267,13.017,16.2678,47.5693,1.13789,1.1567,1.52256,4.56471,1.69166,1.55334,0.0797031,0.857034,0.537165,0.945271,6.71575,7.00768,100.787,230.614
740,113.54,12.5097,15.1901,46.5947,0.780891,1.19468,1.30988,4.56471,1.69166,1.55334,1.80419,0.482082,0.678587,0.945271,3.8402,7.04921,91.2057,231.1
745,116.219,12.4715,14.466,45.89,0.575807,1.1643,1.29469,2.95998,-0.105729,1.55334,0.941946,0.482082,0.254322,0.945271,5.75724,6.98691,99.9151,231.603
750,111.733,12.0572,14.0141,45.3018,0.932806,1.30861,2.05424,4.56471,0.792967,0.739033,0.941946,0.482082,0.395743,0.945271,5.75724,6.98691,75.2632,232.015
755,105.777,12.2099,13.8616,44.7078,0.188425,1.36177,0.299673,3.76234,-0.105729,0.739033,0.941946,0.482082,0.395743,0.779224,5.75724,7.17381,72.3711,232.37
760,102.24,10.3003,11.9919,43.5189,0.188425,0.169328,0.459179,4.56471,0.792967,0.739033,1.80419,0.107129,0.395743,0.945271,4.79872,7.02845,76.0418,232.731
765,114.446,8.84211,10.4202,42.4351,0.439084,0.427564,1.39343,4.56471,0.792967,2.36764,2.66643,-0.267823,0.254322,0.945271,4.79872,6.98691,97.7523,233.16
770,91.8227,7.72736,9.57381,41.4248,0.431488,0.784538,0.899721,2.95998,1.69166,0.739033,0.0797031,0.482082,0.395743,0.945271,3.8402,6.98691,82.2334,233.625
775,91.4057,8.57443,11.1843,41.5047,0.644168,0.116162,1.09721,3.76234,0.792967,1.55334,1.80419,0.857034,0.395743,0.945271,5.75724,6.84155,79.765,234.033
780,89.754,8.91296,12.2861,41.462,1.59363,0.43516,0.732619,3.76234,2.59036,2.36764,0.941946,-0.267823,0.395743,0.945271,4.79872,7.04921,96.4977,234.468
785,101.435,9.35038,12.1502,41.0688,0.196021,-0.00536131,0.11738,3.76234,1.69166,2.36764,0.941946,0.107129,0.537165,0.945271,3.8402,6.69619,109.874,234.973
790,90.9684,8.52495,11.2113,39.295,1.13789,0.169328,0.102189,3.76234,0.792967,-0.0752718,0.941946,0.107129,0.395743,0.945271,5.75724,6.86232,99.4198,235.505
795,90.4739,9.72141,11.1079,39.0075,2.05697,1.82508,1.20354,2.95998,-0.105729,1.55334,0.941946,0.482082,0.537165,0.945271,3.8402,6.67542,94.2341,235.99
800,94.2292,10.7858,11.4079,39.6362,0.416297,2.95676,0.717428,2.15762,0.792967,2.36764,0.941946,0.482082,0.395743,0.945271,4.79872,6.65466,91.8924,236.454
805,103.558,11.0644,12.679,39.4234,1.91265,1.33899,2.8062,2.95998,1.69166,1.55334,1.80419,0.482082,0.395743,0.779224,5.75724,6.67542,85.5293,236.897
810,98.7202,11.0093,13.4634,40.1526,2.12533,0.663015,1.34786,2.95998,-0.105729,0.739033,0.941946,0.857034,0.537165,0.779224,4.79872,6.67542,102.379,237.377
815,86.015,10.7037,13.12,39.668,0.97838,1.03518,1.4466,2.95998,0.792967,2.36764,0.941946,0.482082,0.395743,1.11132,5.75724,6.65466,116.706,237.949
820,85.4767,11.4677,14.493,40.2272,0.628977,0.23009,0.54273,2.95998,1.69166,1.55334,1.80419,0.482082,0.395743,0.779224,3.8402,6.48853,144.692,238.596
825,79.9203,12.8094,16.4033,41.2758,1.92025,4.85556,4.14302,3.76234,1.69166,1.55334,1.80419,0.857034,0.678587,0.945271,3.8402,6.48853,140.816,239.348
830,85.0385,12.989,17.6097,42.5675,3.37863,0.989608,1.64408,3.76234,0.792967,-0.0752718,2.66643,0.857034,0.537165,0.779224,3.8402,6.50929,133.326,240.022
835,89.7749,12.7768,15.952,40.9461,0.135255,0.00223388,1.12759,2.95998,0.792967,0.739033,1.80419,0.857034,0.678587,0.945271,5.75724,6.36393,175.211,240.794
840,106.129,11.9259,14.9884,40.2645,0.264382,1.13392,0.922508,4.56471,1.69166,0.739033,0.941946,0.482082,0.678587,0.945271,5.75724,6.50929,178.167,241.68
845,100.745,13.5174,17.8323,42.8968,1.13029,3.78464,9.24723,4.56471,1.69166,0.739033,0.0797031,0.857034,0.395743,1.11132,4.79872,6.36393,145.304,242.485
850,96.6529,14.3676,18.6417,43.2423,0.0668934,0.116162,-0.163655,4.56471,2.59036,0.739033,1.80419,0.482082,0.678587,1.11132,5.75724,6.50929,150.392,243.239
855,117.858,13.5612,15.6305,41.5627,0.644168,0.0250194,0.155358,4.56471,-0.105729,-0.0752718,0.0797031,0.857034,0.537165,1.27736,5.75724,6.36393,164.719,244.058
860,114.192,12.8307,15.0153,41.1849,0.492254,0.176923,0.299673,3.76234,0.792967,1.55334,0.941946,0.107129,0.678587,0.945271,5.75724,6.36393,175.905,244.915
865,105.029,11.4239,13.2289,39.8116,0.887232,1.25544,0.261695,4.56471,0.792967,0.739033,0.0797031,0.857034,0.820009,1.11132,3.8402,6.1978,196.853,245.857
870,101.736,10.3981,11.8223,38.4741,1.63921,0.723777,0.406011,4.56471,0.792967,1.55334,0.941946,0.857034,0.537165,1.11132,5.75724,6.15627,160.148,246.777
875,104.616,10.6217,13.5722,38.6925,2.30004,1.55925,1.97829,4.56471,0.792967,0.739033,0.941946,0.857034,0.820009,0.945271,4.79872,6.15627,169.124,247.619
880,120.258,13.7575,16.7402,39.2577,1.57085,0.951633,0.102189,5.36707,1.69166,0.739033,1.80419,0.482082,0.678587,1.11132,8.63279,6.01091,155.067,248.419
885,135.021,12.3076,14.3024,38.026,0.325148,0.047805,0.193335,3.76234,2.59036,0.739033,2.66643,0.482082,0.537165,1.11132,6.71575,5.99014,154.092,249.205
890,114.442,11.3419,12.7272,37.081,0.628977,0.047805,0.0945933,2.95998,1.69166,1.55334,0.0797031,0.857034,0.537165,1.27736,4.79872,5.99014,145.031,249.975
895,121.151,9.13113,10.6327,36.0769,0.651764,-0.0965036,0.178144,2.95998,1.69166,0.739033,0.941946,1.60694,0.537165,1.11132,4.79872,5.99014,143.195,250.718
900,112.161,9.27355,10.114,35.8554,-0.230996,1.8416,0.891123,3.35697,0.724556,0.725247,-0.259176,0.78235,0.692384,0.936917,5.14384,5.85247,143.934,251.443
905,113.181,8.51371,9.51873,35.0608,0.127659,-0.0585276,0.0718066,2.15762,0.792967,1.55334,0.941946,0.482082,0.537165,1.27736,7.67427,5.82401,154.616,252.206
910,104.761,7.90176,9.05995,34.9859,0.484658,0.237685,0.208526,4.56471,0.792967,2.36764,0.941946,0.857034,0.537165,1.27736,6.71575,5.84478,143.261,252.931
915,106.235,7.97263,8.67195,34.4185,0.165638,0.138947,1.23393,3.76234,1.69166,0.739033,0.0797031,0.857034,0.395743,0.945271,4.79872,5.88631,136.046,253.648
920,106.841,7.36056,8.82491,34.5309,0.0137234,-0.104099,4.56837,3.76234,0.792967,0.739033,0.0797031,0.482082,0.537165,0.945271,5.75724,5.82401,129.324,254.31
925,113.286,7.75437,9.83015,35.291,0.165638,1.20227,1.36305,3.76234,1.69166,1.55334,0.941946,1.23199,0.395743,0.779224,5.75724,5.72018,129.01,254.956
930,98.4834,8.39898,9.93919,35.5849,0.104872,0.237685,1.72004,2.95998,2.59036,1.55334,0.941946,0.857034,0.678587,1.11132,5.75724,5.72018,143.723,255.625
935,95.5096,10.1463,12.6397,36.6214,2.04938,2.51624,0.702237,2.95998,1.69166,1.55334,0.941946,0.857034,0.678587,1.11132,5.75724,5.67865,127.025,256.299
940,94.7482,10.4633,12.9562,36.5202,1.55566,1.70356,1.55294,2.15762,0.792967,1.55334,0.941946,0.482082,0.537165,0.945271,3.8402,5.65788,128.239,256.948
945,93.1958,12.4435,15.8478,37.4119,1.41134,0.404779,0.0642111,3.76234,0.792967,2.36764,0.0797031,0.482082,0.537165,0.945271,5.75724,5.49175,134.159,257.591
950,104.885,11.7069,14.2362,37.0272,0.423892,1.1643,1.01365,2.15762,1.69166,0.739033,0.0797031,0.107129,0.395743,1.11132,5.75724,5.55405,134.959,258.252
955,93.4547,10.4902,12.945,35.761,0.309957,0.625039,0.39082,2.95998,1.69166,0.739033,0.941946,0.857034,0.395743,1.11132,5.75724,5.67865,127.558,258.881
960,93.6826,10.1845,13.4791,35.9481,0.226404,0.814919,0.497157,1.35525,1.69166,-0.0752718,0.941946,0.482082,0.537165,1.11132,4.79872,5.32563,138.042,259.508
965,105.958,10.1789,11.9088,35.531,0.431488,0.146542,1.65168,2.15762,0.792967,-0.0752718,0.941946,0.857034,0.537165,0.945271,5.75724,5.51252,115.972,260.129
970,104.834,9.30543,11.3416,34.8625,1.76074,0.587063,0.00344672,3.76234,1.69166,1.55334,0.0797031,0.857034,0.537165,1.27736,3.8402,5.36716,115.046,260.675
975,95.7021,8.23475,10.3101,34.3755,0.370722,0.868085,1.43141,1.35525,0.792967,0.739033,0.941946,1.23199,0.537165,0.779224,4.79872,5.36716,116.743,261.258
980,105.187,6.96108,9.99316,34.0647,0.180829,-0.0129565,0.276886,2.95998,0.792967,1.55334,-0.78254,0.857034,0.395743,0.945271,5.75724,5.36716,123.236,261.829
985,93.6331,6.15184,8.26702,33.1968,0.142851,0.290851,0.459179,2.15762,0.792967,1.55334,1.80419,0.857034,0.537165,0.945271,3.8402,5.36716,139.551,262.487
990,84.114,5.16792,7.47496,33.0953,0.0592977,0.0629954,0.170549,2.95998,0.792967,0.739033,-0.78254,0.107129,0.537165,0.945271,4.79872,5.38792,118.413,263.111
995,81.2755,5.32104,7.13061,32.2696,0.727721,1.29342,2.02386,1.35525,1.69166,1.55334,0.941946,0.857034,0.395743,0.779224,5.75724,5.32563,98.597,263.665
1000,83.6065,6.96108,8.27264,33.0147,0.97838,0.64023,3.36068,2.95998,2.59036,0.739033,1.80419,0.482082,0.537165,0.945271,4.79872,5.36716,100.023,264.184
1005,88.0238,6.80803,9.99316,34.1022,0.788487,0.146542,3.39866,2.15762,0.792967,1.55334,0.0797031,0.482082,0.395743,0.779224,3.8402,5.34639,109.333,264.717
1010,71.5508,7.75888,10.5225,35.1456,-0.0546381,2.09851,1.00606,2.95998,0.792967,0.739033,0.941946,0.107129,0.395743,0.945271,5.75724,5.18026,117.703,265.292
1015,68.0229,7.72625,12.3613,36.3112,2.69501,0.966823,0.140167,3.76234,1.69166,0.739033,0.0797031,0.857034,0.395743,1.11132,4.79872,5.13873,112.102,265.868
1020,72.3649,8.94447,12.3939,35.8942,0.302361,-0.271193,0.618686,2.95998,0.792967,1.55334,2.66643,0.857034,0.395743,0.945271,3.8402,5.18026,105.089,266.419
1025,76.8941,6.0753,12.6229,36.6797,0.7657,0.594659,2.25932,2.95998,1.69166,0.739033,-0.78254,0.482082,0.395743,0.779224,5.75724,5.2218,124.822,266.992
1030,75.1578,8.33262,11.6685,35.4826,0.385914,0.161733,0.823766,2.15762,0.792967,-0.0752718,1.80419,0.857034,0.254322,0.779224,5.75724,5.01413,114.216,267.568
1035,69.7601,7.4911,11.0956,34.8086,0.0820849,0.769348,0.421202,1.35525,-0.105729,1.55334,0.941946,0.482082,0.537165,0.945271,3.8402,5.18026,104.474,268.11
1040,72.4837,6.56995,9.96155,33.8268,0.207969,0.943561,0.0876717,2.48734,0.0619216,-0.310012,-0.166787,0.16393,0.511541,0.612541,4.05774,5.15374,110.789,268.661
1045,82.9707,6.40848,9.02061,33.0732,0.461871,0.0554002,0.0794022,2.95998,-0.105729,-0.0752718,0.941946,0.482082,0.537165,1.11132,4.79872,5.07643,109.6,269.221
1050,77.8521,5.61038,7.99365,32.3282,0.856849,1.14151,2.1302,2.95998,1.69166,0.739033,0.941946,0.857034,0.1129,0.779224,3.8402,5.0349,111.731,269.767
1055,73.9272,5.96048,8.61122,32.5589,0.583403,1.52127,0.216122,2.95998,0.792967,0.739033,1.80419,0.482082,0.254322,0.945271,5.75724,5.01413,127.204,270.344
1060,71.7483,5.15104,8.14665,32.6285,1.32778,0.442755,0.208526,2.15762,1.69166,1.55334,0.941946,0.482082,0.1129,0.779224,4.79872,4.99337,119.389,270.946
1065,70.5938,5.42462,7.88452,32.5965,0.735317,0.131352,2.54036,2.95998,0.792967,1.55334,0.0797031,0.107129,0.254322,0.613177,3.8402,5.01413,105.775,271.549
1070,67.1808,6.2115,9.05322,32.7676,1.14549,1.08075,2.16058,2.15762,-0.105729,0.739033,-0.78254,0.482082,0.395743,0.945271,4.79872,5.0349,83.3449,272.003
1075,70.8238,5.5282,8.48525,32.5103,0.628977,0.0250194,0.360437,2.95998,0.792967,0.739033,0.0797031,0.482082,0.395743,0.779224,4.79872,5.01413,91.3188,272.426
1080,70.6564,5.18369,7.72025,32.4353,0.158042,2.00736,1.67447,1.35525,-0.105729,1.55334,0.941946,0.107129,0.395743,0.779224,3.8402,4.86877,107.786,272.913
1085,62.802,4.59822,7.59424,32.6494,0.773296,0.890871,0.428797,1.35525,0.792967,0.739033,0.0797031,0.482082,0.537165,0.779224,3.8402,4.99337,107.292,273.456
1090,60.4917,5.13416,7.67075,32.762,0.340339,0.700991,0.155358,2.95998,1.69166,-0.0752718,-0.78254,0.107129,0.395743,0.779224,4.79872,4.82724,107.261,273.973
1095,63.7053,4.29195,6.63768,32.199,0.834062,1.11113,1.1124,2.15762,0.792967,-0.0752718,0.0797031,0.107129,0.254322,0.945271,3.8402,4.86877,109.161,274.504
1100,68.2213,4.21538,5.83397,31.6356,0.196021,1.33139,0.67945,2.95998,1.69166,1.55334,0.941946,-0.267823,0.1129,0.945271,4.79872,4.86877,111.296,275.045
1105,66.727,3.64109,5.4512,30.4704,0.104872,0.0933762,0.231313,1.35525,0.792967,1.55334,-0.78254,0.482082,0.254322,1.11132,5.75724,4.84801,122.686,275.624
1110,68.3659,3.63546,5.44557,30.6529,0.317552,0.222494,0.527539,2.95998,0.792967,0.739033,-0.78254,0.482082,0.254322,0.779224,3.8402,4.82724,112.704,276.191
1115,67.0989,3.02287,5.52213,30.3897,1.00117,1.05797,1.2795,1.35525,0.792967,-0.0752718,1.80419,0.107129,0.254322,0.613177,2.88169,4.84801,109.847,276.746
1120,66.2301,2.78751,5.5165,30.1584,0.211212,0.085781,0.04902,2.15762,-0.105729,-0.0752718,-0.78254,0.107129,0.254322,0.613177,4.79872,4.64034,104.394,277.293
1125,75.908,3.37308,4.99183,29.0027,0.00612764,0.0326146,0.147762,2.15762,1.69166,1.55334,0.0797031,0.857034,-0.028522,0.613177,3.8402,4.66111,95.2275,277.79
1130,67.4586,3.18165,4.03472,28.2869,-0.00146808,-0.0205517,-0.0497221,1.35525,0.792967,0.739033,1.80419,0.482082,0.254322,0.613177,3.8402,4.72341,98.3302,278.289
1135,69.2983,2.18054,3.3782,27.7159,0.241595,0.192114,0.170549,2.95998,1.69166,-0.0752718,0.941946,0.482082,0.395743,0.779224,2.88169,4.68188,98.3935,278.781
1140,66.5044,1.60062,2.98969,27.4841,0.522637,0.852895,0.489562,1.35525,0.792967,1.55334,0.941946,0.107129,0.254322,0.613177,3.8402,4.68188,95.2211,279.274
1145,65.1099,2.28977,3.83203,28.3135,1.54806,1.7947,0.550326,1.35525,0.792967,1.55334,0.941946,0.482082,0.254322,0.945271,5.75724,4.68188,93.6308,279.779
1150,61.6136,2.62873,5.6257,29.8143,0.492254,1.04277,2.35807,2.15762,1.69166,0.739033,-0.78254,0.857034,0.395743,0.779224,2.88169,4.64034,93.0138,280.244
1155,59.4348,3.46543,6.07938,29.9216,1.25183,0.913657,0.436393,2.15762,-0.105729,-0.0752718,-0.78254,0.482082,0.1129,0.779224,4.79872,4.70264,89.8375,280.696
1160,60.8646,3.82126,5.28682,29.6316,0.150446,0.336422,0.557922,2.95998,0.792967,0.739033,1.80419,0.107129,0.254322,0.779224,2.88169,4.68188,79.6342,281.098
1165,61.7264,2.89111,4.43335,28.6038,0.0441063,0.0554002,0.00344672,1.35525,0.792967,-0.889576,0.0797031,0.482082,0.254322,0.779224,4.79872,4.68188,71.5008,281.474
1170,58.1054,1.90128,3.55838,27.931,0.0441063,0.290851,0.0869977,1.35525,0.792967,1.55334,0.941946,0.107129,0.254322,1.11132,2.88169,4.70264,84.1462,281.864
1175,53.597,2.3168,3.36131,27.2467,0.598594,-0.0129565,0.170549,3.76234,-0.105729,0.739033,0.0797031,0.107129,0.395743,0.779224,3.8402,4.55728,87.1907,282.276
1180,54.1118,1.27745,2.55162,26.5996,0.0668934,-0.00536131,0.0945933,2.15762,-0.105729,0.739033,0.0797031,0.107129,0.254322,0.945271,4.79872,4.55728,83.1839,282.699
1185,47.4306,1.12995,2.48067,26.492,0.158042,-0.0585276,0.330055,1.35525,0.792967,0.739033,0.0797031,-0.267823,0.254322,0.779224,3.8402,4.51575,89.3796,283.122
1190,51.5567,0.932909,2.13044,26.4487,0.226404,-0.00536131,0.0945933,0.552889,0.792967,-0.0752718,0.941946,0.482082,0.537165,0.779224,3.8402,4.49498,82.0297,283.56
1195,53.0458,0.965561,1.89509,26.1788,0.0289148,-0.0357421,-0.0573176,0.552889,-0.105729,-0.0752718,0.941946,0.107129,0.1129,0.779224,2.88169,4.49498,83.2345,283.976
1200,49.5027,0.435267,1.90072,25.9955,-0.0166595,0.587063,0.709832,1.35525,0.792967,-0.0752718,0.941946,0.482082,0.254322,0.779224,1.92317,4.53651,87.169,284.406
1205,53.2634,0.550103,2.16873,25.8067,0.203616,0.0250194,0.292077,1.35525,0.792967,0.739033,0.941946,-0.267823,0.395743,0.779224,3.8402,4.51575,79.2862,284.819
1210,51.0695,0.0907755,2.01558,25.3155,0.180829,0.222494,0.618686,1.35525,0.792967,0.739033,0.0797031,0.857034,0.395743,0.779224,4.79872,4.53651,81.3875,285.218
1215,51.166,1.27745,2.85793,25.6934,0.575807,0.222494,1.09721,1.35525,0.792967,-0.0752718,2.66643,0.107129,0.254322,0.779224,3.8402,4.49498,80.3879,285.602
1220,47.8692,0.615403,2.69351,25.38,0.302361,-0.0889084,0.109784,0.552889,0.792967,0.739033,0.941946,0.107129,0.254322,0.613177,3.8402,4.53651,78.9423,286
1225,46.5041,0.265268,2.41986,25.7145,0.0592977,-0.119289,0.246504,1.35525,1.69166,1.55334,0.0797031,0.107129,-0.028522,0.779224,2.88169,4.49498,85.3101,286.423
1230,46.0415,-1.08593,2.52909,25.9356,0.0365105,-0.0433373,0.519944,-0.249474,0.792967,0.739033,0.941946,0.107129,0.254322,0.779224,2.88169,4.51575,68.8696,286.798
1235,44.123,-0.677957,1.82414,25.5045,0.279574,0.313637,0.854148,2.15762,0.792967,-0.0752718,0.0797031,1.23199,0.1129,0.945271,5.75724,4.37039,69.287,287.134
1240,44.5003,-0.15071,1.27688,25.1154,0.0820849,-0.0281469,0.0262334,2.15762,0.792967,1.55334,0.0797031,0.107129,0.254322,0.945271,3.8402,4.34962,64.4251,287.474
1245,45.8654,-1.11314,1.00889,24.6996,0.0441063,0.366803,1.1048,2.15762,-0.105729,-0.0752718,-0.78254,0.107129,0.254322,0.613177,4.79872,4.51575,67.0528,287.809
1250,37.6887,0.00859673,1.55051,24.8942,0.264382,0.146542,0.0794022,0.552889,1.69166,1.55334,0.941946,0.482082,0.395743,0.613177,5.75724,4.49498,75.3271,288.155
1255,36.3218,0.412748,1.45704,24.8397,0.241595,0.0174243,0.11738,1.35525,0.792967,0.739033,0.941946,0.107129,-0.028522,0.779224,3.8402,4.49498,77.6769,288.523
1260,37.2005,-0.0410858,1.00326,24.3536,0.0668934,0.00982907,-0.0497221,0.552889,0.792967,1.55334,0.0797031,-0.267823,0.254322,0.779224,2.88169,4.32885,74.3294,288.926
1265,37.8248,-0.72779,0.702626,23.9431,0.0441063,0.625039,0.512348,0.552889,0.792967,1.55334,0.941946,0.482082,0.254322,0.613177,2.88169,4.39115,75.9113,289.325
1270,41.8568,-0.189145,1.50659,24.2457,0.294765,1.57444,0.512348,1.35525,-0.105729,0.739033,0.0797031,0.482082,0.254322,0.779224,4.79872,4.34962,63.2984,289.679
1275,40.0777,0.14481,1.07419,23.4399,0.051702,0.0174243,0.0945933,2.15762,0.792967,0.739033,-0.78254,0.107129,0.254322,0.613177,3.8402,4.34962,77.733,290.034
1280,39.9043,-0.310139,0.92669,23.4833,0.515041,0.306041,0.223718,2.15762,-0.105729,-0.0752718,-1.64478,0.107129,0.395743,0.613177,4.79872,4.32885,80.4739,290.423
1285,46.2569,-0.656442,0.735278,23.0669,0.051702,-0.0433373,0.421202,1.35525,1.69166,0.739033,0.941946,0.482082,0.1129,0.779224,3.8402,4.49498,73.6307,290.798
1290,37.662,-1.306,0.549503,23.1103,0.294765,0.290851,0.481966,0.552889,2.59036,0.739033,0.0797031,0.107129,0.1129,0.613177,4.79872,4.37039,66.0204,291.146
1295,39.6166,-1.74774,0.762299,23.3965,0.051702,0.0554002,0.0186378,2.15762,-0.105729,-0.889576,-0.78254,0.482082,0.1129,0.779224,2.88169,4.37039,72.4369,291.485
1300,39.7911,-1.70911,0.22638,22.9421,-0.0090638,0.176923,0.2541,2.15762,0.792967,-0.0752718,0.0797031,0.857034,0.395743,0.613177,4.79872,4.34962,71.3087,291.83
1305,36.8841,-1.35594,0.00234967,22.9856,0.173234,0.154138,0.398415,1.35525,0.792967,0.739033,-0.78254,0.482082,0.1129,0.945271,3.8402,4.16272,70.1431,292.206
1310,36.7042,-1.52737,0.253398,22.7416,0.439084,0.138947,0.398415,0.552889,0.792967,0.739033,0.0797031,0.107129,0.254322,0.779224,2.88169,4.30809,76.117,292.564
1315,36.8609,-1.57166,0.707125,22.5845,0.0744892,0.0629954,-0.125678,1.35525,1.69166,0.739033,0.941946,-0.267823,0.254322,0.779224,3.8402,4.32885,72.5067,292.946
1320,34.8226,-0.673431,0.948081,22.5199,0.0972763,1.30101,1.01365,2.95998,-1.00442,-0.0752718,0.0797031,0.482082,0.254322,0.613177,3.8402,4.18349,68.9678,293.303
1325,34.2404,-1.37296,1.21044,22.931,-0.0394467,0.374398,0.383224,0.552889,0.792967,1.55334,0.941946,0.482082,0.1129,0.779224,2.88169,4.34962,72.9602,293.682
1330,34.9242,-1.95804,1.58766,23.0011,0.287169,1.0048,0.276886,2.15762,0.792967,-0.0752718,1.80419,0.857034,0.1129,0.613177,3.8402,4.20426,72.3671,294.034
1335,35.4833,-1.34005,0.975101,22.3951,0.0365105,0.0250194,0.0566155,0.552889,0.792967,0.739033,0.941946,0.482082,0.395743,0.779224,3.8402,4.34962,74.7437,294.409
1340,34.5626,-1.34005,0.324324,22.4708,0.051702,-0.00536131,0.223718,1.35525,0.792967,0.739033,0.0797031,0.482082,0.1129,0.779224,2.88169,4.39115,69.4876,294.775
1345,36.4307,-1.1415,0.521351,22.3248,0.401105,0.116162,0.0262334,0.552889,-1.00442,0.739033,0.941946,0.482082,0.1129,0.779224,3.8402,4.37039,76.5537,295.16
1350,37.0718,-1.48876,1.09558,22.2112,0.180829,0.161733,0.162953,0.552889,-0.105729,-0.889576,-0.78254,0.857034,0.1129,1.11132,4.79872,4.18349,69.7656,295.53
1355,35.8736,-0.421009,0.471809,21.7831,0.218808,0.65542,0.246504,0.552889,-0.105729,0.739033,0.0797031,0.857034,-0.028522,0.779224,4.79872,4.20426,66.2378,295.876
1360,32.7975,-0.877345,0.209489,21.5611,0.203616,-0.0129565,0.124975,1.35525,0.792967,-0.0752718,0.941946,0.107129,0.395743,0.779224,4.79872,4.16272,76.535,296.227
1365,37.5875,-1.58302,-0.0315453,21.6258,0.211212,-0.142075,0.102189,1.35525,-0.105729,-0.0752718,0.0797031,0.482082,0.254322,0.779224,3.8402,4.18349,62.4714,296.574
1370,32.6566,-1.80912,0.0507514,21.8968,0.44668,0.222494,-0.034531,2.15762,0.792967,-0.889576,-0.78254,0.482082,0.254322,0.779224,4.79872,4.18349,59.9619,296.888
1375,32.489,-3.00912,0.165581,22.0484,0.0365105,0.176923,0.0794022,-0.249474,0.792967,0.739033,-0.78254,0.107129,0.1129,0.613177,4.79872,4.16272,58.7876,297.188
1380,33.1658,-2.1514,-0.943729,20.8025,-0.00146808,0.0326146,-0.034531,0.552889,0.792967,-0.0752718,0.0797031,0.107129,0.537165,0.613177,4.79872,4.20426,62.314,297.484
1385,32.2429,-1.70458,-1.07638,20.7099,0.0668934,-0.157265,0.345246,1.35525,2.59036,-0.889576,0.0797031,0.482082,0.1129,0.779224,5.75724,4.03813,72.4965,297.818
1390,31.8134,-2.09111,-1.46218,20.2544,0.112468,0.00982907,0.132571,2.15762,0.792967,-0.0752718,0.941946,0.482082,-0.028522,0.779224,2.88169,4.18349,66.7143,298.167
1395,28.983,-2.97605,-1.07071,19.9942,0.0441063,-0.0129565,-0.0725087,2.15762,1.69166,-0.0752718,-0.78254,0.107129,0.254322,0.613177,4.79872,3.9966,60.7452,298.48
1400,29.5749,-1.82617,-1.2749,19.5273,-0.031851,-0.13448,0.0414244,1.35525,0.792967,-0.889576,0.0797031,0.482082,-0.028522,0.779224,3.8402,4.16272,65.8741,298.781
1405,32.8061,-2.71046,-1.57802,19.229,-0.0090638,-0.111694,0.990868,2.15762,0.792967,1.55334,0.0797031,-0.267823,0.1129,0.447131,3.8402,4.18349,69.4896,299.11
1410,31.7724,-2.89281,-1.25787,19.5441,0.370722,0.511112,0.216122,0.552889,0.792967,1.55334,1.80419,-0.267823,0.254322,0.945271,4.79872,4.16272,65.3963,299.461
1415,29.4206,-2.67741,-1.46786,19.5273,-0.0394467,0.154138,0.162953,1.35525,0.792967,-0.889576,0.0797031,0.857034,0.395743,0.779224,4.79872,4.18349,63.7756,299.777
1420,30.6566,-3.22016,-1.50647,19.7173,-0.031851,-0.104099,-0.034531,-1.05184,1.69166,-0.889576,0.0797031,0.107129,0.1129,0.447131,2.88169,4.03813,62.3829,300.08
1425,31.8389,-3.02623,-1.62232,19.4134,-0.0090638,0.0174243,0.0186378,1.35525,0.792967,-0.0752718,-0.78254,0.857034,0.1129,0.945271,3.8402,3.97583,83.9678,300.441
1430,30.9644,-2.7549,-2.31824,18.9574,-0.0774253,0.00982907,0.147762,1.35525,1.69166,-0.0752718,0.0797031,-0.267823,0.254322,0.779224,2.88169,4.16272,79.3637,300.837
1435,31.8387,-2.87116,-2.20216,18.9194,0.294765,0.65542,0.124975,-0.249474,0.792967,-0.0752718,0.0797031,0.482082,0.395743,0.613177,4.79872,4.01736,72.0686,301.212
1440,29.7197,-2.06381,-2.32394,19.0279,-0.0166595,0.116162,0.11738,0.552889,-1.00442,-0.0752718,0.941946,0.107129,0.254322,0.779224,5.75724,4.03813,64.5685,301.55
1445,36.7396,-2.14686,-1.94282,18.9463,-0.00146808,-0.0129565,-0.0269355,2.15762,0.792967,-0.0752718,-0.78254,0.107129,0.537165,0.779224,3.8402,4.01736,65.6466,301.863
1450,36.0954,-2.80505,-2.21354,18.7182,0.0137234,0.0250194,0.0718066,0.552889,0.792967,-0.0752718,0.0797031,0.482082,0.395743,0.613177,3.8402,3.9966,62.7433,302.196
1455,34.6465,-3.10949,-2.40135,18.6098,0.0592977,0.0933762,0.178144,0.552889,0.792967,-0.0752718,0.941946,0.482082,0.254322,0.613177,4.79872,4.03813,73.2853,302.52
1460,33.8297,-2.7663,-2.40705,18.4141,-0.00146808,-0.0205517,0.0566155,-0.249474,-0.105729,-0.0752718,0.0797031,0.482082,0.254322,0.613177,4.79872,4.18349,67.2971,302.867
1465,31.9984,-3.03194,-2.36264,18.4197,-0.0090638,0.0554002,-0.0497221,1.35525,0.792967,1.55334,0.941946,0.107129,0.1129,0.779224,3.8402,3.9966,69.5179,303.222
1470,31.1202,-3.22586,-2.5175,18.0775,0.0365105,0.0326146,0.0945933,0.552889,-0.105729,1.55334,-0.78254,0.482082,0.1129,0.945271,1.92317,4.01736,60.6388,303.534
1475,33.3775,-3.31488,-2.68383,18.0283,-0.00146808,0.0402098,0.0338289,0.552889,1.69166,1.55334,0.941946,0.107129,0.1129,0.779224,4.79872,4.18349,0.0,303.554
1480,31.3254,-3.31488,-2.60635,18.1804,0.0896806,-0.0281469,0.0110423,0.552889,-0.105729,-0.0752718,1.80419,0.482082,0.537165,0.613177,4.79872,4.01736,0.0,303.554
1485,32.2583,-3.61972,-2.56192,18.0719,0.196021,0.351613,0.0945933,1.35525,1.69166,0.739033,0.941946,0.482082,0.1129,0.779224,4.79872,3.9966,0.0,303.554
1486,29.6154,-3.3925,-2.60635,18.0663,0.0896806,0.26047,0.140167,2.95998,0.792967,0.739033,0.0797031,0.482082,0.395743,0.613177,4.79872,4.03813,0.0,303.554