File: 01_Data/Red_Accent_Chair/Furniture_Calorimeter/Red_Accent_Chair_R2.csv
Time (s),Convective HRR,TCPlume1,TCPlume2,TCPlume3,DPPlume1,DPPlume2,DPPlume3,HF1,HF2,HF3,HF4,HF5,HF6,RAD2,RAD1,Load Cell,Heat Release Rate,Total Heat Released
-150,0.0,-7.49498,-7.48431,8.8257,0.0635696,0.0461828,-0.0188104,0.516959,-2.04468,0.710467,-0.0462949,-0.666862,0.0569484,0.281084,1.92317,19.945,0.0,0.0
-145,0.0,-7.89819,-7.80918,8.7379,-0.0275791,0.053778,-0.0112149,-0.285404,0.651403,-0.103837,0.815948,0.0830431,-0.0844734,0.779224,3.8402,19.9657,0.0,0.0
-140,0.0,-7.97077,-7.80339,8.7818,0.00280379,0.0613732,-0.0567882,-1.08777,-0.247292,0.710467,-1.77078,-0.291909,0.19837,0.613177,3.8402,19.9657,0.0,0.0
-135,0.0,-7.86481,-7.65829,8.80875,-0.0959406,-0.151292,-0.0719793,1.31932,-0.247292,0.710467,-0.0462949,-0.291909,0.0569484,0.613177,3.8402,19.945,0.0,0.0
-130,0.0,-8.09991,-7.77579,8.46447,0.0331867,0.000611693,0.0115717,-0.285404,0.651403,0.710467,-0.908538,0.0830431,0.0569484,0.779224,3.8402,19.9242,0.0,0.0
-125,0.0,-7.59064,-7.54082,8.34971,-0.0351748,-0.0525546,0.00397619,-0.285404,-0.247292,-0.103837,-0.908538,-0.291909,0.0569484,1.11132,2.88169,19.945,0.0,0.0
-120,0.0,-7.20499,-7.42915,8.45882,-0.0275791,0.0233973,-0.0491926,0.516959,-0.247292,0.710467,0.815948,0.0830431,-0.367317,0.613177,3.8402,19.7581,0.0,0.0
-115,0.0,-8.03311,-7.39579,8.72095,0.0407824,-0.0525546,0.0343584,-1.08777,-1.14599,-0.103837,-0.0462949,0.832948,-0.0844734,0.613177,3.8402,19.9657,0.0,0.0
-110,0.0,-7.64716,-7.44072,8.67704,-0.0275791,0.0309925,-0.0188104,0.516959,0.651403,-0.918142,-0.0462949,0.457996,0.0569484,0.945271,3.8402,19.9865,0.0,0.0
-105,0.0,-7.52391,-7.27837,8.87395,-0.0351748,0.091754,0.0419539,-0.285404,0.651403,-1.73245,-0.0462949,0.0830431,-0.0844734,0.447131,2.88169,20.1111,0.0,0.0
-100,0.0,-7.28904,-7.6307,8.79745,0.025591,0.00820688,0.0875272,1.31932,-0.247292,-0.103837,0.815948,0.0830431,-0.0844734,0.779224,3.8402,19.945,0.0,0.0
-95,0.0,-8.20147,-7.8773,8.70964,-0.0427706,0.0158021,0.0495495,1.31932,-0.247292,-0.103837,1.67819,0.457996,-0.225895,0.613177,2.88169,19.9657,0.0,0.0
-90,0.0,-7.96632,-7.83812,8.78614,-0.0427706,-0.0069835,-0.00361935,-1.08777,-0.247292,0.710467,-0.908538,0.0830431,0.0569484,0.613177,2.88169,19.945,0.0,0.0
-85,0.0,-7.84879,-7.68144,8.70964,0.0331867,-0.0449594,-0.00361935,1.31932,0.651403,-0.103837,-0.0462949,0.0830431,-0.225895,0.613177,1.92317,19.7788,0.0,0.0
-80,0.0,-8.12308,-7.56396,8.59489,0.0103995,-0.0981258,-0.0947659,0.516959,-0.247292,0.710467,0.815948,-0.291909,-0.0844734,0.447131,1.92317,19.7788,0.0,0.0
-75,0.0,-8.12887,-7.64807,8.43622,0.0711653,-0.067745,-0.026406,-0.285404,-1.14599,-0.103837,-0.0462949,-0.291909,-0.0844734,0.779224,2.88169,19.8204,0.0,0.0
-70,0.0,-7.92714,-7.72061,8.3271,-0.0123877,-0.0525546,0.0951227,1.31932,1.5501,-0.918142,0.815948,0.0830431,-0.0844734,0.447131,4.79872,19.7788,0.0,0.0
-65,0.0,-7.54126,-7.56975,8.43622,-0.0123877,-0.067745,0.102718,0.516959,-0.247292,-1.73245,-0.0462949,0.0830431,0.0569484,0.447131,3.8402,19.945,0.0,0.0
-60,0.0,-8.28566,-7.56975,8.51273,0.0863567,-0.0601498,0.0191673,0.516959,-1.14599,0.710467,0.815948,0.0830431,-0.225895,0.613177,2.88169,19.945,0.0,0.0
-55,0.0,-8.05628,-7.65385,8.62184,0.025591,0.0765636,-0.0340015,-0.285404,-0.247292,-0.103837,-0.0462949,-0.291909,0.0569484,0.779224,3.8402,19.9657,0.0,0.0
-50,0.0,-8.09547,-7.8497,8.66009,0.00280379,-0.0069835,0.0419539,-0.285404,-0.247292,-0.103837,-0.908538,-0.666862,0.19837,0.779224,2.88169,19.9657,0.0,0.0
-45,0.0,-8.14045,-7.73797,8.80744,-0.0199834,0.00820688,0.102718,-1.08777,-0.247292,-0.918142,-0.908538,0.0830431,0.19837,0.779224,3.8402,19.9865,0.0,0.0
-40,0.0,-7.91113,-7.62627,8.76354,0.0103995,0.0689684,0.0343584,0.516959,-0.247292,-0.103837,1.67819,0.0830431,-0.0844734,0.779224,3.8402,19.9865,0.0,0.0
-35,0.0,-7.70369,-7.73218,8.85134,-0.00479193,0.0158021,0.00397619,1.31932,1.5501,-0.103837,-0.908538,0.0830431,0.0569484,0.613177,2.88169,19.9865,0.0,0.0
-30,0.0,-8.06786,-8.01801,8.76354,0.078761,-0.0297691,0.0191673,0.516959,0.651403,-0.103837,0.815948,-0.291909,0.19837,0.447131,4.79872,19.9657,4.15876,0.0
-25,0.0,-8.49911,-7.97882,8.64878,-0.0199834,0.0385876,0.00397619,-0.285404,-1.14599,-0.103837,-0.908538,0.0830431,-0.0844734,0.945271,1.92317,19.945,0.0,0.0
-20,0.0,-8.10705,-7.90046,8.84004,0.00280379,0.053778,-0.0415971,-1.08777,1.5501,0.710467,-0.0462949,0.457996,0.0569484,0.779224,2.88169,20.1111,0.0,0.0
-15,0.0,-8.57755,-7.62627,8.84004,-0.0807492,-0.0449594,-0.0340015,-0.285404,0.651403,0.710467,-0.908538,0.457996,-0.225895,0.613177,2.88169,19.945,0.0,0.0
-10,0.0,-8.11864,-7.91204,8.63748,0.0103995,-0.0373643,-0.0719793,-0.285404,1.5501,0.710467,-0.0462949,0.0830431,0.0569484,0.613177,2.88169,20.1319,0.0,0.0
-5,0.0,-8.22464,-7.86128,8.53402,0.0103995,-0.067745,-0.0188104,0.516959,-0.247292,-0.103837,-0.0462949,0.0830431,0.0569484,0.613177,3.8402,19.7581,0.0,0.0
0,0.0,-8.19703,-7.52037,8.48446,0.0103995,-0.0753402,0.0343584,-1.89013,0.651403,-0.103837,-0.908538,-0.291909,-0.0844734,0.447131,2.88169,19.7996,0.0,0.0
5,0.0,-8.01266,-7.57111,8.32013,-0.00479193,-0.0905306,-0.0188104,-0.285404,-1.14599,0.710467,-1.77078,0.0830431,-0.225895,0.613177,2.88169,19.7788,0.0,0.0
10,0.0,-7.96189,-7.55953,8.33144,0.025591,-0.0525546,-0.0491926,-0.285404,0.651403,0.710467,0.815948,0.457996,0.19837,0.613177,2.88169,19.7788,0.0,0.0
15,0.0,-8.05185,-7.53195,8.39665,-0.00479193,-0.113316,0.0267628,0.516959,0.651403,-0.103837,-0.908538,-0.291909,0.0569484,0.779224,2.88169,19.945,0.0,0.0
20,0.0,-7.69347,-7.52616,8.59357,-0.0427706,-0.0145787,-0.0567882,-0.285404,-0.247292,-0.103837,1.67819,0.0830431,-0.367317,0.613177,3.8402,19.7581,0.0,0.0
25,0.0,-7.88932,-7.56532,8.36404,-0.0351748,-0.0145787,-0.0415971,0.516959,-1.14599,-0.103837,-0.908538,0.0830431,0.19837,0.613177,2.88169,19.8204,0.0,0.0
30,0.0,-8.15783,-7.63785,8.63748,-0.0807492,-0.0449594,-0.026406,-0.285404,0.651403,0.710467,-0.0462949,0.832948,-0.0844734,0.779224,2.88169,19.7788,0.0,0.0
35,0.0,-8.15783,-7.75534,8.67573,0.0103995,0.00820688,-0.0340015,1.31932,0.651403,-0.103837,-0.0462949,0.457996,0.0569484,0.447131,4.79872,19.945,0.0,0.0
40,0.0,-8.09104,-7.88445,8.62617,-0.0123877,-0.0753402,0.00397619,-0.285404,2.44879,0.710467,-0.0462949,-0.666862,-0.0844734,0.447131,3.8402,19.9657,0.0,0.0
45,0.0,-8.01845,-7.89024,8.73527,0.00280379,0.0158021,-0.0415971,-0.285404,-0.247292,-0.103837,-0.908538,0.457996,0.0569484,0.447131,3.8402,19.945,0.0,0.0
50,0.0,-7.74421,-7.89024,8.73527,-0.0123877,-0.0145787,0.0343584,-0.285404,0.651403,-0.103837,-0.0462949,-0.666862,0.0569484,0.613177,1.92317,19.8204,0.0,0.0
55,0.0,-8.01845,-8.00779,8.65877,-0.133919,-0.067745,-0.0188104,0.516959,-1.14599,0.710467,-0.0462949,-0.291909,-0.0844734,0.613177,2.88169,19.9657,0.0,0.0
60,0.0,-7.62672,-7.89024,8.81178,0.00280379,-0.128507,0.0115717,-1.08777,0.651403,0.710467,-0.0462949,-0.291909,-0.225895,0.447131,1.92317,19.7581,0.0,0.0
65,0.0,-7.50926,-7.81189,8.77353,0.0331867,-0.0905306,0.0115717,0.516959,-0.247292,-0.103837,-0.0462949,0.457996,0.0569484,0.779224,3.8402,19.9034,0.0,0.0
70,0.0,-7.94588,-7.42608,9.15035,-0.0199834,-0.0601498,-0.0871704,-0.285404,0.651403,-0.103837,-0.0462949,0.457996,0.0569484,0.613177,1.92317,19.9657,0.0,0.0
75,0.67786,-7.98506,-7.38693,8.95912,0.147123,0.312014,0.0115717,-0.285404,1.5501,0.710467,1.67819,-0.291909,-0.0844734,0.447131,3.8402,19.945,8.17203,0.0198273
80,1.05213,-7.59335,-7.26951,9.26508,0.00280379,-0.0525546,0.0115717,-0.285404,-1.14599,1.52477,-0.908538,0.0830431,-0.0844734,0.613177,2.88169,20.0073,17.93,0.0777904
85,2.06054,-7.87331,-7.54932,8.95346,-0.0503663,-0.0221739,-0.00361935,0.516959,0.651403,0.710467,0.815948,0.457996,0.0569484,0.779224,3.8402,19.945,27.2551,0.180392
90,4.11844,-6.84987,-7.70017,8.88262,0.025591,-0.0145787,0.0875272,0.516959,-0.247292,-0.103837,-0.0462949,-0.291909,-0.0844734,0.779224,3.8402,19.7996,33.2908,0.323244
95,6.09828,-7.00631,-7.73933,8.95912,-0.0275791,0.160111,0.0723361,1.31932,-1.14599,-0.103837,0.815948,0.457996,-0.0844734,0.613177,3.8402,19.9657,34.3751,0.489525
100,9.24988,-7.24684,-7.39272,8.87697,0.154718,0.0158021,-0.0188104,2.12169,-0.247292,-0.918142,-0.0462949,0.832948,0.0569484,0.945271,3.8402,19.9657,43.1769,0.677977
105,12.4165,-6.82233,-7.20282,9.06255,0.025591,0.0841588,0.00397619,0.516959,-0.247292,0.710467,0.815948,0.0830431,0.0569484,0.779224,2.88169,19.8204,39.6752,0.877514
110,14.9858,-6.28674,-7.09701,8.97475,0.0939525,-0.0373643,0.0723361,0.516959,-0.247292,1.52477,0.815948,-0.291909,0.19837,0.613177,3.8402,19.9242,39.1186,1.06899
115,14.0519,-5.46135,-6.93475,9.20988,0.0179952,0.0841588,-0.00361935,1.31932,0.651403,-0.103837,0.815948,0.0830431,0.19837,0.779224,3.8402,19.7788,58.1356,1.29484
120,13.8949,-4.37073,-6.42655,9.47757,0.253463,0.843678,0.0115717,1.31932,-0.247292,0.710467,-0.0462949,0.457996,0.0569484,0.613177,2.88169,19.945,71.7594,1.63347
125,16.3461,-3.83217,-5.61244,9.43367,0.0331867,0.0765636,0.0419539,0.516959,1.5501,0.710467,-0.0462949,-0.291909,0.0569484,0.613177,4.79872,19.7788,103.238,2.06116
130,21.3783,-3.59911,-5.88559,9.47191,-0.0199834,-0.0221739,0.0723361,0.516959,-0.247292,1.52477,0.815948,0.457996,0.0569484,0.613177,2.88169,19.945,151.91,2.70373
135,31.567,-4.75994,-5.17776,10.3951,0.025591,-0.0981258,0.110314,0.516959,-0.247292,-0.103837,1.67819,0.0830431,-0.0844734,0.945271,3.8402,19.945,200.841,3.57041
140,43.9768,-5.19998,-4.79969,10.1927,0.025591,0.137325,0.0951227,0.516959,-0.247292,-0.103837,0.815948,0.457996,0.0569484,0.447131,3.8402,19.6127,243.951,4.63998
145,64.6496,-2.82897,-4.64395,9.92508,0.564887,0.0158021,0.110314,0.516959,-0.247292,1.52477,-0.908538,0.832948,0.19837,0.779224,3.8402,19.7788,255.184,5.88362
150,82.5359,-2.76293,-4.53869,10.2196,0.0331867,0.927225,0.520473,0.516959,-0.247292,-0.103837,-0.0462949,0.457996,0.0569484,0.779224,4.79872,19.6335,260.558,7.19094
155,106.502,-2.22086,-3.60563,10.6783,0.0331867,0.0993492,-0.0340015,1.31932,-0.247292,-0.918142,-1.77078,0.0830431,0.0569484,0.613177,5.75724,19.6335,310.854,8.57657
160,129.949,-1.82846,-3.32815,10.531,0.0103995,0.0765636,0.0723361,1.31932,0.651403,-0.103837,1.67819,0.457996,0.0569484,0.945271,5.75724,19.6335,322.429,10.0824
165,134.436,-0.946535,-2.90724,10.2961,-0.0123877,-0.067745,0.20146,2.12169,0.651403,0.710467,0.815948,0.832948,0.481214,1.11132,5.75724,19.6127,361.79,11.8053
170,145.338,2.88655,-1.86211,10.7165,0.511717,0.228467,0.193865,2.12169,1.5501,1.52477,1.67819,0.832948,0.19837,0.945271,3.8402,19.4673,398.907,13.7764
175,169.016,5.55109,-0.667827,11.3919,3.20564,2.0978,-0.0218881,3.05443,3.11599,1.56322,0.177249,0.48248,0.653267,1.11741,4.60529,19.5334,415.53,15.8065
180,174.565,10.9969,6.30447,13.3515,0.959865,1.15508,0.398945,2.92405,1.5501,1.52477,0.815948,0.832948,0.622635,1.27736,5.75724,19.6335,413.113,17.8376
185,198.706,15.7326,8.22315,14.7683,3.57279,0.668988,-0.147935,5.33114,2.44879,1.52477,-0.0462949,1.2079,0.481214,1.27736,7.67427,19.3012,420.698,19.8666
190,209.741,18.3198,10.899,17.3202,1.24091,0.828487,0.710362,3.72641,3.34749,1.52477,-0.0462949,1.58285,0.622635,1.60946,6.71575,19.4673,455.076,21.9658
195,223.053,22.6775,16.804,19.4058,5.10713,5.0666,0.436922,6.1335,2.44879,1.52477,1.67819,1.2079,0.764057,1.60946,7.67427,19.3012,585.305,24.4247
200,227.045,26.2204,19.8716,21.52,2.53978,4.30708,1.88008,5.33114,2.44879,3.15338,1.67819,1.95781,0.905479,1.44341,8.63279,19.322,652.757,27.5091
205,252.537,26.8241,21.3133,25.4946,3.58039,-0.0221739,-0.710005,6.1335,2.44879,2.33908,2.54043,2.33276,1.47117,1.60946,10.5498,18.9482,716.893,30.7849
210,271.365,31.7868,26.5658,29.7126,0.625653,3.07666,1.4927,8.54059,4.24618,4.78199,2.54043,1.95781,1.61259,2.27365,11.5083,18.9067,772.862,34.4699
215,341.816,36.9935,34.2737,35.7172,0.777568,2.01334,2.37379,8.54059,4.24618,3.96768,2.54043,1.95781,1.61259,1.94155,8.63279,18.9067,822.02,38.406
220,370.676,35.4922,36.4014,38.9253,3.44367,2.24119,0.209056,6.93587,5.14488,1.52477,1.67819,2.33276,1.47117,1.94155,8.63279,18.7821,830.025,42.5437
225,410.812,32.2748,36.6313,41.3165,0.268654,0.691774,0.452113,9.34296,4.24618,3.96768,3.40268,2.33276,1.47117,2.27365,12.4669,18.6367,897.998,46.8326
230,438.739,35.1928,36.1397,43.6918,2.87399,1.31458,1.1509,10.9477,4.24618,3.96768,4.26492,2.33276,1.89543,2.27365,13.4254,18.5952,1018.7,51.4439
235,458.775,43.2911,41.4059,46.1106,1.4232,0.684179,0.490091,10.9477,6.04358,4.78199,4.26492,2.70771,1.89543,2.43969,12.4669,18.2629,1240.34,56.7548
240,450.524,46.965,44.1944,47.1117,1.67386,1.67915,0.604024,13.3548,6.04358,5.59629,4.26492,3.45761,2.3197,2.93783,16.3009,18.1383,1010.01,62.1979
245,481.603,55.7474,54.6167,55.8961,4.0969,5.18053,2.6852,14.9595,6.94227,7.2249,5.9894,4.95742,2.60254,3.26993,17.2594,18.1383,1076.68,67.4014
250,546.554,68.0286,70.9751,63.9218,0.997844,5.34003,2.49532,14.9595,6.94227,8.03921,5.12716,4.20752,3.30965,3.60202,17.2594,17.8061,1231.73,73.2995
255,666.239,75.6812,76.1703,70.7011,3.34492,0.52468,-0.0415971,17.3666,8.73966,8.85351,5.12716,4.58247,3.45107,3.43597,19.1765,17.6399,1314.21,79.4035
260,550.357,84.5246,86.3728,81.7825,2.88158,2.12726,0.20146,16.5642,7.84097,8.85351,5.9894,5.70733,3.45107,4.26621,19.1765,17.3077,1328.05,85.6494
265,574.234,84.4146,90.4871,88.3176,2.60814,4.77039,1.74336,18.9713,7.84097,8.03921,5.12716,6.08228,3.73391,4.26621,20.135,17.1,1376.19,92.0542
270,664.304,83.6807,89.5683,88.685,2.3195,1.92219,0.588833,20.576,8.73966,8.85351,7.71389,6.83219,4.01676,4.43225,22.052,16.6639,1321.99,98.7872
275,726.872,90.4999,100.937,98.9086,7.78082,3.88935,1.10533,24.5879,11.4357,10.4821,8.57613,6.83219,4.86529,5.09644,24.9276,16.477,1443.27,105.478
280,757.362,109.623,119.604,113.838,4.24122,0.251253,3.58148,26.995,13.2331,12.925,9.43838,7.95704,5.43098,5.59458,28.7616,16.2486,1278.81,112.535
285,769.177,110.884,125.47,123.271,2.03086,2.65133,10.3035,26.995,13.2331,11.2964,9.43838,7.95704,5.71382,5.76063,26.8446,15.9786,1149.27,118.612
290,736.664,111.282,124.448,129.628,5.93506,1.67915,11.5644,30.2044,14.1318,12.1107,11.1629,8.70695,5.5724,5.76063,32.5957,15.6256,1111.24,124.27
295,801.475,121.829,140.691,153.311,2.53218,10.8921,3.39919,32.6115,12.3344,13.7393,9.43838,8.70695,5.71382,5.76063,32.5957,15.3141,1111.27,129.576
300,731.735,120.069,138.687,157.484,6.96808,6.6464,4.0524,33.4139,13.2331,13.7393,11.1629,7.95704,5.71382,6.09272,32.5957,14.8157,1015.69,134.87
305,693.05,120.778,146.884,174.362,4.17286,2.05891,8.64011,35.0186,13.2331,13.7393,10.3006,8.332,5.99666,5.92667,32.5957,14.4835,1031.59,140.112
310,678.931,144.334,179.529,219.554,9.20882,4.99825,5.37403,36.6233,14.1318,16.1823,12.8873,9.0819,6.27951,5.92667,34.5127,14.3174,978.559,145.15
315,685.362,166.996,221.866,268.045,9.81648,12.7757,12.0657,36.6233,15.9292,16.1823,12.8873,9.0819,5.99666,6.09272,35.4713,13.9851,957.044,149.89
320,634.363,177.561,233.527,280.971,12.1256,7.18566,4.83474,36.6233,14.1318,15.3679,11.1629,8.332,5.71382,6.09272,32.5957,13.819,819.413,154.069
325,650.493,173.249,219.892,286.264,3.70192,8.57558,4.36382,38.228,13.2331,15.3679,12.0251,7.95704,5.5724,5.76063,37.3883,13.2998,766.473,157.919
330,634.299,170.274,221.259,298.809,6.24649,2.28676,6.74882,39.8328,15.0305,14.5536,11.1629,8.332,5.5724,5.59458,34.5127,13.1752,746.641,161.749
335,637.375,168.749,220.689,314.02,13.9637,17.6366,6.40702,37.4257,14.1318,14.5536,11.1629,8.332,5.43098,5.76063,36.4298,12.9883,698.262,165.524
340,564.137,175.004,234.471,343.336,7.59853,9.07686,12.2252,39.8328,15.9292,15.3679,12.8873,8.70695,5.85524,5.76063,37.3883,12.6561,651.569,169.04
345,547.463,171.081,235.383,361.728,9.2544,9.74524,5.90572,39.0304,13.2331,14.5536,11.1629,8.332,5.43098,5.76063,36.4298,12.2823,608.201,172.275
350,528.698,171.576,228.389,357.909,9.05691,6.1831,7.06783,39.0304,14.1318,13.7393,11.1629,7.58209,5.14813,5.42853,36.4298,12.1577,502.883,175.033
355,496.364,159.763,208.789,342.388,4.49188,8.81863,8.53377,36.6233,11.4357,12.925,11.1629,6.83219,4.58245,4.93039,34.5127,11.9915,554.154,177.545
360,475.785,156.576,208.681,339.731,4.76532,4.99065,9.77944,35.0186,11.4357,13.7393,11.1629,6.08228,4.01676,4.43225,30.6787,11.6593,471.384,179.978
365,483.142,139.188,187.765,321.817,10.5457,1.63358,6.81718,32.6115,10.5371,11.2964,11.1629,6.45723,4.15818,4.10016,30.6787,11.327,428.419,182.086
370,407.873,129.871,173.843,306.171,4.71215,13.3074,6.01965,32.6115,10.5371,10.4821,12.0251,5.70733,4.15818,3.93411,30.6787,11.3063,329.856,183.927
375,454.953,125.936,168.504,300.618,4.01335,4.02606,4.78157,33.4139,8.73966,10.4821,11.1629,6.08228,3.87534,4.43225,29.7202,11.1817,300.319,185.507
380,397.452,119.249,163.057,294.946,5.09194,3.91973,4.07519,30.2044,7.84097,12.1107,9.43838,4.58247,3.87534,3.76807,25.8861,10.8286,283.303,186.943
385,380.149,117.225,160.534,289.806,7.94793,6.03119,6.49057,27.7973,6.94227,10.4821,9.43838,4.58247,3.16823,3.26993,23.9691,10.6625,254.805,188.325
390,306.438,111.139,151.619,279.161,7.89476,6.22867,8.154,20.576,6.04358,5.59629,8.57613,3.45761,2.46112,2.93783,19.1765,10.6625,233.387,189.573
395,288.851,101.372,138.278,266.193,1.46118,6.09195,7.25772,18.9713,6.04358,4.78199,8.57613,3.45761,2.46112,2.43969,18.218,10.4549,253.336,190.799
400,276.484,92.6013,127.717,254.685,3.80826,1.89941,11.7847,16.5642,4.24618,7.2249,6.85165,3.08266,2.17827,2.27365,15.3424,10.3303,202.672,191.883
405,242.67,88.668,122.291,245.227,2.83601,4.74001,3.68782,16.5642,5.14488,4.78199,6.85165,2.70771,2.03685,2.27365,15.3424,10.1434,201.681,192.903
410,231.716,83.1929,114.347,234.365,3.19301,5.08179,4.84993,13.3548,4.24618,4.78199,5.12716,2.33276,1.75401,1.94155,14.3839,10.1226,204.569,193.91
415,255.783,75.6446,106.784,224.303,5.11473,3.45642,2.25985,12.5524,3.34749,4.78199,5.12716,1.95781,1.32974,1.94155,12.4669,10.1434,188.317,194.882
420,206.02,67.1685,95.222,212.787,2.38786,3.12223,3.49033,10.1453,3.34749,3.15338,3.40268,1.95781,1.47117,1.94155,11.5083,9.998,181.371,195.812
425,198.743,63.2774,89.1899,203.835,3.5576,6.25905,4.44737,11.75,3.34749,3.15338,4.26492,1.95781,1.0469,1.60946,13.4254,9.83187,190.39,196.722
430,200.537,58.1725,82.991,195.294,2.33469,4.29949,3.52071,10.1453,4.24618,3.15338,5.12716,1.58285,1.18832,1.44341,9.5913,9.8734,201.531,197.686
435,182.59,53.0978,77.8676,187.515,5.1603,1.49686,2.08516,8.54059,4.24618,1.52477,2.54043,1.2079,1.18832,1.44341,10.5498,9.83187,237.385,198.752
440,176.178,49.6935,71.8863,178.916,3.10945,4.39063,1.24205,8.54059,2.44879,2.33908,2.54043,1.58285,1.0469,1.11132,8.63279,9.66574,203.938,199.841
445,183.743,47.319,69.2039,172.498,1.69665,0.881654,1.31801,7.73823,1.5501,2.33908,2.54043,1.2079,1.18832,1.44341,8.63279,9.49961,183.641,200.823
450,179.502,42.6963,64.2661,165.842,2.28912,1.35256,4.96387,8.54059,3.34749,3.15338,2.54043,1.58285,1.18832,1.27736,8.63279,9.47885,171.383,201.711
455,210.181,42.0586,61.9833,159.288,1.31686,3.12223,1.47751,8.54059,4.24618,3.15338,1.67819,0.457996,0.764057,1.44341,7.67427,9.54115,172.901,202.549
460,194.928,40.0852,58.4899,153.284,0.602866,1.25382,2.61684,6.93587,2.44879,1.52477,2.54043,1.2079,0.764057,1.27736,8.63279,9.31272,169.735,203.424
465,187.465,35.3799,52.5561,147.256,-0.0275791,0.0461828,0.581238,6.93587,1.5501,0.710467,1.67819,1.2079,0.764057,1.44341,6.71575,9.31272,181.229,204.326
470,174.945,34.5188,49.5999,141.924,1.21812,1.58801,0.793913,6.93587,1.5501,1.52477,3.40268,0.832948,0.764057,1.27736,6.71575,9.16736,163.193,205.188
475,174.455,32.682,47.1936,137.623,0.671227,3.05388,1.53828,6.93587,1.5501,2.33908,1.67819,1.58285,0.622635,1.27736,8.63279,9.14659,201.39,206.048
480,157.271,32.8752,46.6802,132.999,3.10186,1.68674,2.1763,6.93587,2.44879,0.710467,3.40268,1.2079,0.481214,0.779224,7.67427,9.04276,149.042,206.913
485,161.816,32.9932,47.0563,129.474,2.97273,3.21338,3.32323,6.93587,3.34749,3.15338,2.54043,1.2079,0.622635,1.27736,8.63279,8.98046,154.735,207.655
490,150.633,33.8875,47.3473,125.682,0.38259,1.48927,3.23208,6.1335,1.5501,2.33908,2.54043,1.58285,0.764057,0.945271,5.75724,9.00123,161.112,208.461
495,184.947,32.1302,43.6427,120.828,0.845929,0.380371,0.0343584,6.93587,0.651403,1.52477,2.54043,0.832948,0.764057,1.44341,6.71575,9.02199,164.384,209.272
500,128.741,29.3432,40.3259,117.316,0.967461,0.577846,1.65221,6.93587,0.651403,1.52477,2.54043,0.832948,0.481214,1.11132,6.71575,8.8351,167.522,210.117
505,133.276,28.3321,39.7351,113.451,1.04342,0.927225,1.12052,6.1335,1.5501,3.15338,2.54043,1.58285,0.481214,1.11132,5.75724,8.85586,177.257,210.958
510,134.676,25.3574,37.3523,110.374,0.496526,-0.0069835,2.48012,6.93587,2.44879,1.52477,1.67819,1.2079,0.764057,1.11132,6.71575,8.85586,175.264,211.834
515,137.012,25.5463,36.1189,107.037,0.261058,1.86903,3.33842,5.33114,-0.247292,1.52477,1.67819,1.2079,0.905479,1.11132,7.67427,8.66897,195.323,212.732
520,142.657,25.805,35.2902,104.181,0.823142,0.790511,3.16372,5.33114,1.5501,1.52477,1.67819,0.832948,0.905479,1.11132,6.71575,8.68974,158.501,213.643
525,148.945,23.537,33.3047,101.077,0.0635696,0.995582,1.50789,5.33114,1.5501,1.52477,1.67819,1.2079,0.764057,1.27736,7.67427,8.6482,141.882,214.383
530,147.065,21.7626,31.4338,97.6874,0.27625,0.167706,0.110314,5.33114,0.651403,2.33908,1.67819,0.832948,0.764057,1.27736,7.67427,8.46131,132.058,215.063
535,169.247,19.6818,29.8605,94.6713,0.27625,3.62352,1.73576,6.1335,1.5501,3.15338,2.54043,0.832948,0.622635,0.779224,6.71575,8.48207,143.97,215.757
540,156.71,19.1502,28.4677,92.7939,0.800355,1.48167,0.33818,5.33114,1.5501,1.52477,0.815948,0.832948,0.622635,1.11132,5.75724,8.33671,143.181,216.451
545,148.728,18.9546,28.1984,90.7285,0.694015,0.995582,1.56866,6.1335,2.44879,1.52477,1.67819,1.2079,0.764057,1.11132,6.71575,8.33671,146.005,217.156
550,138.812,20.8906,28.7257,88.8905,3.7399,1.29939,1.84969,5.33114,1.5501,1.52477,2.54043,0.457996,0.622635,0.945271,7.67427,8.33671,133.026,217.857
555,144.132,23.2075,31.3642,87.8671,1.77261,3.183,3.78656,6.1335,2.44879,-0.103837,1.67819,1.2079,0.622635,1.11132,6.71575,8.31595,160.123,218.594
560,137.218,26.1504,32.9728,86.5026,2.8588,4.55773,3.36121,4.52878,2.44879,2.33908,0.815948,0.457996,0.622635,1.44341,5.75724,8.17058,139.547,219.327
565,135.997,27.4332,33.985,85.1072,0.0483781,1.47408,0.54326,4.52878,1.5501,1.52477,1.67819,0.832948,0.481214,0.945271,6.71575,8.00445,155.56,220.096
570,124.794,26.6411,33.3103,83.3454,1.31686,1.08672,1.59904,6.1335,3.34749,2.33908,-0.0462949,0.832948,0.622635,1.27736,7.67427,7.98369,152.487,220.889
575,145.708,24.3047,30.8381,80.6357,0.716802,2.42348,1.72057,4.52878,2.44879,2.33908,0.815948,0.832948,0.622635,1.11132,5.75724,7.98369,165.861,221.695
580,121.722,23.9587,30.4943,79.3098,0.59527,0.380371,0.657193,5.33114,2.44879,1.52477,1.67819,1.2079,0.622635,0.779224,5.75724,8.02522,143.377,222.466
585,126.091,21.3569,28.2849,77.3768,0.868716,2.25638,0.793913,3.72641,1.5501,1.52477,0.815948,0.832948,0.764057,1.11132,6.71575,7.87986,140.485,223.173
590,127.592,19.7254,26.5881,75.5799,0.268654,0.380371,1.24205,5.33114,0.651403,1.52477,2.54043,0.832948,0.481214,0.945271,6.71575,7.83832,136.83,223.829
595,134.472,19.8885,25.5799,74.0873,1.02063,1.78548,2.15352,4.52878,1.5501,2.33908,0.815948,0.832948,0.481214,0.779224,4.79872,7.83832,160.924,224.553
600,123.754,22.3857,27.6121,73.3118,1.10418,0.14492,0.839486,4.52878,0.651403,1.52477,2.54043,0.457996,0.764057,0.945271,6.71575,7.85909,139.994,225.305
605,123.377,21.6222,27.3426,72.2795,3.12465,4.10961,3.2093,5.33114,1.5501,1.52477,0.815948,0.457996,0.481214,1.11132,4.79872,7.65143,139.483,226.031
610,113.415,23.3701,28.2904,70.8912,1.13457,2.11207,1.75855,3.72641,1.5501,1.52477,0.815948,0.457996,0.481214,1.11132,6.71575,7.6722,134.18,226.679
615,132.715,23.4948,28.0755,70.4985,1.59031,3.92732,3.14853,6.1335,1.5501,1.52477,1.67819,0.457996,0.622635,0.945271,6.71575,7.46453,124.024,227.313
620,115.744,25.7141,29.4954,69.2404,0.147123,0.213277,0.285011,2.92405,0.651403,1.52477,-0.0462949,0.832948,0.481214,0.945271,3.8402,7.71373,127.357,227.931
625,120.341,23.9643,28.3923,68.0554,1.12697,0.053778,1.69019,3.72641,1.5501,3.15338,1.67819,0.832948,0.622635,1.11132,6.71575,7.50607,115.358,228.518
630,124.116,22.4993,26.4427,66.4147,0.70161,2.79564,0.763531,3.72641,1.5501,1.52477,1.67819,0.457996,0.481214,0.945271,6.71575,7.5476,123.008,229.105
635,117.468,21.0212,26.3672,65.7539,1.81818,3.07666,2.16871,4.52878,1.5501,0.710467,1.67819,0.832948,0.481214,0.945271,5.75724,7.46453,123.999,229.7
640,111.399,18.9391,23.6519,63.8496,0.200293,1.31458,0.383753,3.72641,1.5501,1.52477,1.67819,0.457996,0.622635,1.11132,6.71575,7.33994,99.682,230.239
645,106.748,18.8195,21.9044,62.3009,1.50676,0.631012,1.06735,2.92405,0.651403,2.33908,0.815948,0.457996,0.622635,0.945271,5.75724,7.31917,99.5683,230.746
650,105.385,17.1522,21.8342,61.8653,0.245867,2.226,0.125505,5.33114,1.5501,2.33908,0.815948,0.457996,0.481214,1.27736,6.71575,7.3607,96.5986,231.24
655,109.675,17.6523,23.5061,61.3193,1.90933,0.646203,1.89527,4.52878,0.651403,1.52477,1.67819,1.2079,0.481214,0.945271,6.71575,7.19458,95.0503,231.707
660,98.4936,17.2283,23.8032,59.8795,2.29671,0.463918,0.0647406,2.92405,0.651403,0.710467,2.54043,1.2079,0.481214,1.11132,4.79872,7.29841,83.8475,232.168
665,96.7931,17.7228,21.2276,57.929,0.671227,-0.143697,0.171078,4.52878,1.5501,0.710467,0.815948,1.2079,0.481214,0.945271,5.75724,7.19458,86.8557,232.592
670,96.6784,17.3481,21.5366,56.8663,0.618057,0.31961,2.26745,4.52878,1.5501,1.52477,2.54043,0.832948,0.339792,1.11132,4.79872,7.19458,98.7452,233.065
675,101.497,15.7001,20.2357,56.1922,0.420569,0.858868,1.94844,5.33114,0.651403,3.15338,-0.0462949,0.832948,0.481214,0.945271,5.75724,7.17381,129.091,233.593
680,90.5771,14.9057,20.0895,55.2024,0.937078,0.34999,2.02439,2.12169,1.5501,1.52477,1.67819,-0.291909,0.622635,0.945271,5.75724,7.02845,122.137,234.216
685,89.5895,13.6914,18.6139,53.7693,1.03582,0.312014,0.642002,4.52878,1.5501,1.52477,1.67819,0.457996,0.764057,0.779224,4.79872,6.98691,96.7221,234.784
690,94.1297,13.163,17.7071,52.7782,1.11178,0.631012,1.62183,4.52878,1.5501,2.33908,1.67819,1.2079,0.622635,0.779224,5.75724,6.98691,91.9848,235.275
695,113.228,15.1343,20.5069,52.8042,1.62829,1.89181,1.21167,3.72641,1.5501,2.33908,0.815948,0.832948,0.481214,0.945271,5.75724,7.00768,71.4253,235.704
700,104.052,15.7932,19.6072,51.3745,0.633249,1.31458,1.01418,3.72641,0.651403,1.52477,0.815948,0.832948,0.339792,0.945271,5.75724,7.02845,85.0732,236.083
705,93.5225,15.8312,19.2654,50.4873,0.207888,0.0689684,0.155887,3.72641,2.44879,2.33908,-0.0462949,0.457996,0.481214,1.11132,5.75724,6.82079,94.0498,236.537
710,93.5311,15.9342,20.3931,50.2915,1.53714,1.36775,1.43194,2.92405,1.5501,2.33908,-0.0462949,1.2079,0.622635,1.27736,5.75724,6.86232,110.725,237.052
715,83.7699,14.797,19.6016,50.3709,1.02063,2.08929,0.444518,3.72641,0.651403,0.710467,1.67819,0.457996,0.481214,1.11132,5.75724,6.82079,141.939,237.633
720,91.2778,16.4348,18.8799,49.5571,1.4384,2.97793,4.12076,4.52878,1.5501,1.52477,0.815948,0.457996,0.622635,1.11132,6.71575,6.69619,100.536,238.207
725,91.2864,16.4841,19.6508,49.3461,1.24091,0.517085,0.961015,5.33114,0.651403,0.710467,0.815948,0.832948,0.622635,1.11132,7.67427,6.67542,89.8876,238.653
730,93.7033,14.574,16.9463,47.9707,0.185101,0.433537,0.467304,2.92405,0.651403,0.710467,-0.0462949,0.832948,0.481214,0.945271,5.75724,6.84155,113.079,239.159
735,118.226,11.5868,14.8025,45.9209,0.291441,0.137325,0.239438,4.52878,1.5501,1.52477,1.67819,0.457996,0.481214,1.11132,5.75724,6.53006,110.278,239.722
740,91.9586,9.95535,13.3648,44.9299,1.6131,0.410752,0.315394,4.52878,1.5501,1.52477,-0.908538,0.832948,0.481214,1.27736,5.75724,6.50929,92.2099,240.236
745,79.3522,9.07049,12.4434,43.7729,1.21812,1.35256,0.209056,4.52878,1.5501,1.52477,-0.0462949,1.2079,0.339792,0.779224,4.79872,6.01091,106.253,240.746
750,84.4971,8.6173,12.5635,42.9978,1.66627,0.638608,1.31801,2.12169,1.5501,1.52477,0.815948,0.0830431,0.481214,1.11132,4.79872,6.15627,119.128,241.323
755,86.9611,9.03226,12.6342,43.1038,0.671227,0.312014,2.54089,3.72641,0.651403,0.710467,1.67819,1.2079,0.622635,0.945271,3.8402,6.03167,143.331,241.962
760,80.9753,9.42022,14.5469,43.258,1.37003,-0.0753402,0.322989,2.92405,0.651403,2.33908,1.67819,0.457996,0.481214,0.613177,4.79872,6.17704,130.754,242.65
765,83.8302,10.0261,12.7868,42.0995,0.109144,0.0385876,0.117909,2.92405,1.5501,1.52477,0.815948,0.457996,0.339792,1.27736,5.75724,5.99014,106.317,243.295
770,88.1926,9.85547,12.4333,41.5904,-0.421801,0.557139,1.94174,4.79592,1.58902,2.5199,1.02692,0.62793,0.424893,0.953422,5.00061,5.97818,102.951,243.814
775,111.03,10.605,13.7081,41.2861,1.23331,0.691774,0.877464,2.92405,0.651403,-0.103837,-0.0462949,0.457996,0.339792,0.945271,4.79872,6.03167,99.7804,244.299
780,96.9344,8.65554,12.2963,40.8019,0.00280379,-0.0069835,0.330585,3.72641,1.5501,0.710467,0.815948,0.832948,0.481214,0.779224,5.75724,6.01091,84.5155,244.761
785,89.7575,9.23473,11.6529,40.8074,0.686419,0.296824,0.74834,2.92405,1.5501,1.52477,-0.0462949,0.457996,0.481214,0.945271,5.75724,5.84478,64.2758,245.13
790,84.5551,8.20792,9.90117,39.8066,0.466143,0.0233973,1.19648,3.72641,0.651403,0.710467,0.815948,0.457996,0.481214,1.11132,4.79872,5.88631,72.7367,245.469
795,82.6703,9.54056,13.0271,40.9191,2.53978,1.29939,1.4927,2.92405,2.44879,0.710467,1.67819,0.457996,0.622635,0.945271,4.79872,5.84478,98.8437,245.896
800,81.077,10.8398,14.0951,40.8074,0.230675,0.866463,0.292607,3.72641,1.5501,-0.103837,-0.0462949,-0.291909,0.339792,1.11132,4.79872,5.0349,75.8082,246.319
805,76.5401,12.2202,13.9863,39.732,1.49916,0.843678,2.23707,3.72641,-0.247292,1.52477,1.67819,0.457996,0.339792,0.779224,3.8402,5.0349,77.4871,246.703
810,78.127,13.0598,15.3203,41.2598,1.71184,4.37544,3.13334,2.12169,-0.247292,-0.103837,0.815948,1.2079,0.481214,0.945271,4.79872,5.0349,80.8895,247.1
815,95.8475,13.6645,17.3324,43.3751,1.06621,2.78045,2.25985,2.12169,0.651403,1.52477,1.67819,0.832948,0.481214,0.945271,4.79872,4.88954,68.5683,247.457
820,81.3658,14.1659,18.6688,44.8295,1.86376,1.07913,3.04219,2.92405,0.651403,1.52477,0.815948,0.832948,0.339792,1.11132,3.8402,4.84801,90.9445,247.856
825,84.0975,14.5034,18.2071,44.3783,0.473739,0.927225,0.801508,2.92405,1.5501,0.710467,-0.0462949,0.457996,0.339792,1.11132,6.71575,4.88954,93.3681,248.319
830,85.6771,12.7221,16.5446,43.9064,0.64844,0.668988,0.998993,2.12169,-0.247292,0.710467,1.67819,-0.291909,0.339792,1.11132,2.88169,5.49175,99.0955,248.81
835,78.2131,12.2202,16.6151,44.5324,1.46878,4.53494,4.9107,1.31932,1.5501,1.52477,0.815948,0.0830431,0.481214,1.11132,4.79872,5.51252,119.683,249.34
840,88.9176,14.0515,19.0107,45.6832,1.65867,2.30195,0.186269,2.12169,0.651403,1.52477,1.67819,0.457996,0.339792,0.945271,3.8402,5.55405,111.883,249.897
845,82.9197,15.3911,20.2314,45.7257,2.55497,0.972796,2.59406,2.12169,0.651403,0.710467,0.815948,0.457996,0.339792,0.779224,4.79872,5.36716,96.1316,250.414
850,85.1586,15.6902,20.9087,46.0542,0.64844,1.19306,1.69778,2.92405,0.651403,1.52477,0.815948,0.457996,0.339792,0.945271,3.8402,5.32563,99.6139,250.89
855,100.142,15.9624,20.4212,45.7257,0.762376,0.517085,1.71297,2.12169,1.5501,-0.103837,1.67819,0.0830431,0.19837,0.945271,5.75724,5.34639,92.4579,251.374
860,86.5708,13.5614,19.5861,45.8741,1.94731,2.78045,2.95105,2.92405,-0.247292,-0.103837,-0.0462949,0.457996,0.622635,0.945271,4.79872,5.34639,91.558,251.849
865,80.0921,12.7984,18.2943,44.9835,0.450951,0.410752,3.60426,2.92405,2.44879,0.710467,1.67819,0.457996,0.339792,0.779224,4.79872,5.36716,95.0067,252.318
870,81.5358,12.1821,18.5928,45.2378,1.71944,1.62598,3.17891,2.92405,1.5501,0.710467,1.67819,0.457996,0.481214,0.613177,4.79872,5.20103,103.128,252.803
875,79.619,14.204,19.9601,45.0893,0.147123,0.433537,0.885059,2.12169,1.5501,1.52477,1.67819,0.0830431,0.339792,0.945271,4.79872,5.32563,104.335,253.309
880,82.2375,12.1821,17.8325,43.0088,0.405377,0.182896,0.535664,2.92405,0.651403,2.33908,1.67819,0.0830431,0.339792,1.11132,4.79872,5.34639,88.3975,253.786
885,74.8252,11.0747,15.6632,42.3765,0.16991,0.175301,0.224247,2.12169,-0.247292,0.710467,0.815948,1.2079,0.339792,0.779224,4.79872,5.01413,93.4169,254.252
890,78.8829,9.89586,14.1445,41.0791,-0.156706,1.15508,0.839486,2.92405,0.651403,1.52477,0.815948,0.457996,0.19837,0.779224,3.8402,5.18026,101.696,254.744
895,84.3563,8.46998,13.3704,40.2857,0.131931,0.304419,1.63702,2.12169,2.44879,1.52477,-0.908538,0.832948,0.622635,0.779224,3.8402,5.05567,98.6657,255.238
900,72.3582,7.51939,11.964,39.2845,0.245867,0.858868,0.831891,1.31932,-1.14599,-0.103837,0.815948,1.2079,0.0569484,0.945271,3.8402,5.18026,87.5659,255.704
905,77.0162,7.14246,11.8169,39.0662,0.823142,0.0309925,0.0343584,2.92405,0.651403,0.710467,-0.0462949,0.0830431,0.339792,0.945271,5.75724,5.0349,95.4498,256.183
910,75.7265,7.5633,12.0842,39.3273,0.078761,1.37534,1.08254,2.12169,2.44879,0.710467,0.815948,0.0830431,0.339792,0.779224,2.88169,5.0349,88.9236,256.658
915,71.7309,7.94583,11.7406,38.7676,0.131931,1.89181,1.52309,2.92405,-0.247292,0.710467,0.815948,0.0830431,0.339792,0.945271,3.8402,5.0349,105.793,257.113
920,63.2571,8.59602,11.0149,37.7969,0.139527,-0.0297691,0.991397,2.92405,1.5501,-0.103837,-0.908538,0.457996,0.339792,0.447131,4.79872,5.01413,98.3054,257.619
925,70.0173,8.55212,12.4985,38.2769,1.81059,0.965201,0.307798,2.92405,-1.14599,-0.103837,-0.0462949,0.0830431,0.481214,0.779224,4.79872,5.05567,89.7457,258.083
930,67.4346,9.39895,12.8476,39.1408,1.26369,3.42604,1.41675,2.92405,0.651403,0.710467,0.815948,0.832948,0.19837,0.945271,5.75724,4.84801,85.0482,258.543
935,82.7674,8.59602,12.962,39.5138,0.868716,1.80067,0.512878,2.12169,1.5501,0.710467,-1.77078,0.832948,0.339792,0.945271,3.8402,4.84801,73.5636,258.954
940,75.7112,8.17533,11.4351,38.0583,0.0331867,-0.189268,0.0419539,0.516959,1.5501,-0.103837,1.67819,0.457996,0.339792,0.945271,4.79872,4.86877,68.8338,259.313
945,75.998,8.25182,11.1677,37.8343,-0.057962,1.48167,0.459709,2.92405,-0.247292,-0.103837,-0.0462949,0.457996,0.339792,1.27736,4.79872,4.86877,69.3993,259.667
950,69.8522,8.29007,11.0149,37.5728,0.633249,1.48927,0.20146,2.92405,1.5501,-0.103837,0.815948,0.0830431,0.0569484,0.779224,3.8402,4.70264,65.1493,259.998
955,65.9678,8.33397,11.6317,37.7277,0.587675,1.1247,0.96861,1.31932,0.651403,1.52477,-0.0462949,0.832948,0.339792,1.11132,4.79872,4.72341,80.5843,260.344
960,65.1702,8.60167,12.128,38.3252,1.19533,1.10191,3.42197,1.31932,0.651403,-0.103837,1.67819,0.0830431,0.481214,0.945271,4.79872,4.70264,62.2884,260.694
965,61.2086,8.86934,12.128,38.2132,-0.0351748,0.691774,0.619215,1.31932,-0.247292,1.52477,0.815948,0.457996,0.339792,1.11132,4.79872,4.74417,65.9667,260.998
970,59.571,8.38352,11.1465,37.552,0.397781,0.836083,0.619215,2.12169,0.651403,0.710467,0.815948,0.0830431,0.339792,0.779224,4.79872,4.55728,87.6673,261.367
975,68.8126,7.91324,9.60669,36.1951,0.147123,0.152515,0.285011,2.12169,0.651403,0.710467,1.67819,0.0830431,0.339792,0.945271,4.79872,4.70264,84.1613,261.791
980,54.0483,6.14753,8.37748,35.7032,0.230675,0.11454,1.21926,1.31932,-0.247292,1.52477,-0.0462949,0.457996,0.339792,0.613177,4.79872,4.51575,90.0966,262.235
985,51.8372,4.80217,7.6068,34.6493,0.147123,0.296824,0.110314,1.31932,1.5501,-0.918142,0.815948,0.0830431,0.339792,0.447131,4.79872,4.53651,79.098,262.678
990,55.7202,4.50157,6.57936,34.0927,-0.0503663,0.585441,0.178674,1.31932,1.5501,0.710467,0.815948,0.0830431,0.339792,0.779224,3.8402,4.72341,74.9262,263.078
995,51.3138,4.31015,6.54109,33.3054,0.154718,0.182896,0.0875272,1.31932,1.5501,0.710467,0.815948,0.457996,0.339792,0.613177,4.79872,4.66111,92.9984,263.476
1000,54.3676,3.05236,6.0875,32.3353,-0.0351748,0.00820688,0.117909,0.516959,0.651403,0.710467,0.815948,0.0830431,0.0569484,1.27736,2.88169,4.47422,81.3178,263.911
1005,48.4954,2.70211,5.69909,31.7664,0.709206,0.342395,0.452113,2.12169,1.5501,1.52477,0.815948,0.457996,0.339792,0.779224,3.8402,4.66111,88.1637,264.337
1010,50.801,3.81244,6.19666,32.0669,0.75478,1.19306,0.512878,0.516959,0.651403,-0.103837,-0.0462949,0.832948,0.19837,0.945271,4.79872,4.53651,72.0899,264.737
1015,59.0123,3.54444,6.08184,31.3532,0.944674,0.220872,0.0723361,2.12169,0.651403,0.710467,0.815948,0.457996,0.0569484,0.447131,3.8402,4.49498,74.2731,265.102
1020,53.7354,3.21117,6.13143,30.9884,0.0331867,0.0841588,1.43953,1.31932,-0.247292,1.52477,-0.0462949,0.457996,0.19837,0.945271,3.8402,4.51575,65.1376,265.456
1025,51.4156,3.2438,6.27886,31.0957,0.0407824,0.236063,0.505282,2.12169,0.651403,-0.103837,-0.0462949,-0.291909,0.19837,0.779224,3.8402,4.49498,60.8355,265.768
1030,48.0747,3.23248,6.4589,31.1973,0.982652,0.668988,0.315394,1.31932,-0.247292,0.710467,1.67819,0.457996,0.19837,0.613177,4.79872,4.34962,56.279,266.06
1035,49.0264,3.89467,6.47021,31.0205,0.481334,0.213277,2.79914,-0.285404,0.651403,2.33908,0.815948,0.0830431,0.19837,0.945271,3.8402,4.32885,55.0204,266.332
1040,50.4787,4.12439,6.92942,31.3587,0.75478,1.39813,1.43953,2.12169,0.651403,0.710467,0.815948,0.0830431,0.19837,0.779224,3.8402,4.51575,46.9466,266.568
1045,48.6127,4.27187,6.80897,31.3156,0.283846,-0.0373643,0.0647406,1.31932,0.651403,1.52477,-0.0462949,0.832948,0.19837,0.945271,4.79872,4.37039,43.3385,266.81
1050,44.5288,3.51181,6.39367,30.8701,0.38259,0.555061,0.368562,2.12169,0.651403,0.710467,-0.0462949,0.0830431,0.19837,0.779224,4.79872,4.32885,36.0053,267.01
1055,47.83,3.70324,5.85785,30.5693,0.420569,0.357586,1.84969,1.31932,0.651403,-0.103837,-0.0462949,0.457996,0.19837,0.779224,4.79872,4.37039,38.502,267.197
1060,38.1384,3.9273,6.6559,30.5638,0.43576,1.2766,0.285011,0.516959,1.5501,1.52477,1.67819,0.832948,0.19837,0.779224,2.88169,4.34962,32.071,267.371
1065,40.697,3.77982,5.89613,29.9298,-0.0503663,0.152515,1.04457,0.516959,0.651403,-0.918142,-0.0462949,0.457996,0.0569484,0.779224,2.88169,4.34962,31.6977,267.532
1070,37.9192,3.99635,5.74127,29.7985,0.354647,-0.449222,-0.102405,2.49752,0.986892,0.52914,0.552291,0.498515,0.265206,0.983491,3.96181,4.36641,34.7643,267.696
1075,42.14,3.23814,4.7038,29.1338,0.0483781,-0.0221739,0.0647406,2.12169,0.651403,-0.103837,-0.908538,0.457996,0.19837,0.447131,4.79872,4.34962,39.9422,267.878
1080,39.5429,2.70777,3.98204,28.6497,-0.0199834,0.122135,0.193865,2.92405,0.651403,-0.103837,0.815948,0.832948,0.19837,0.779224,2.88169,4.37039,37.3831,268.054
1085,38.149,1.90374,3.29286,27.9714,0.0103995,0.00820688,0.209056,2.12169,0.651403,-0.103837,0.815948,0.832948,0.19837,0.779224,2.88169,4.45345,44.515,268.261
1090,35.7184,1.7506,2.94826,27.6321,0.0179952,0.122135,0.0647406,2.12169,-0.247292,0.710467,0.815948,0.457996,0.19837,0.779224,4.79872,4.34962,55.0166,268.508
1095,45.4061,1.58614,2.74549,27.4324,0.359803,0.213277,0.155887,2.92405,0.651403,-0.103837,0.815948,0.0830431,0.19837,0.613177,3.8402,4.32885,55.117,268.784
1100,37.9673,1.36209,2.71287,26.8343,0.0939525,0.053778,0.0799316,2.12169,0.651403,-0.103837,0.815948,0.457996,0.19837,0.779224,3.8402,4.16272,44.689,269.031
1105,35.8658,1.24724,2.2534,26.4191,0.0331867,-0.0069835,0.0875272,1.31932,0.651403,1.52477,0.815948,0.0830431,0.0569484,0.779224,3.8402,4.37039,56.2921,269.281
1110,37.5581,1.16501,2.09459,26.0359,0.27625,0.160111,0.0647406,0.516959,1.5501,1.52477,0.815948,0.457996,0.19837,1.11132,3.8402,4.34962,54.0804,269.554
1115,36.2902,0.870071,1.79961,25.5938,0.0559739,-0.0753402,0.171078,2.12169,0.651403,1.52477,-1.77078,0.0830431,0.481214,0.945271,3.8402,4.37039,72.0354,269.862
1120,31.6269,0.940975,1.6408,25.3615,0.359803,0.312014,0.300202,0.516959,0.651403,1.52477,0.815948,0.832948,0.0569484,0.613177,4.79872,4.20426,74.5359,270.207
1125,31.0301,0.673008,1.79395,25.1726,0.268654,0.798107,0.376158,2.12169,1.5501,-0.103837,1.67819,0.832948,0.19837,0.613177,4.79872,4.18349,61.4,270.525
1130,28.5785,0.32284,2.17117,25.0536,0.959865,0.0841588,0.0495495,1.31932,1.5501,-0.103837,-0.0462949,0.0830431,0.0569484,0.779224,2.88169,4.22502,50.3579,270.811
1135,32.9304,0.0988405,1.56423,24.7567,0.0635696,0.00820688,0.057145,2.12169,-0.247292,1.52477,0.815948,0.457996,0.0569484,0.779224,3.8402,4.18349,43.6783,271.052
1140,32.581,-0.0872,1.11047,24.2328,-0.00479193,0.190491,0.224247,-0.285404,0.651403,0.710467,0.815948,0.0830431,0.339792,0.779224,3.8402,4.16272,43.7173,271.26
1145,32.2444,-0.696963,1.4224,24.1628,0.0179952,0.0461828,1.17369,2.12169,0.651403,-0.103837,0.815948,0.832948,0.0569484,0.945271,2.88169,4.20426,43.8158,271.483
1150,34.255,0.0166318,1.214,23.919,-0.0959406,0.106944,0.057145,1.31932,0.651403,0.710467,0.815948,0.0830431,-0.0844734,0.779224,2.88169,4.18349,34.4026,271.685
1155,35.3405,0.481611,1.3728,23.4704,0.481334,0.182896,0.0191673,1.31932,-0.247292,-0.103837,0.815948,0.457996,0.0569484,0.779224,3.8402,4.18349,31.9791,271.837
1160,34.2373,-0.400448,1.10481,23.5083,0.00280379,0.137325,0.0723361,1.31932,0.651403,1.52477,-0.0462949,0.457996,0.339792,0.779224,4.79872,4.16272,25.3333,271.981
1165,33.8884,-0.109924,1.08783,23.4158,0.0863567,0.0385876,0.67998,1.31932,-0.247292,0.710467,0.815948,0.457996,0.19837,0.779224,4.79872,4.01736,21.4887,272.106
1170,32.2864,-0.989423,1.13177,23.9891,0.185101,1.04115,0.596429,0.516959,-0.247292,0.710467,-0.908538,0.457996,-0.225895,0.779224,3.8402,4.01736,25.9889,272.219
1175,36.317,0.443333,1.48766,24.1516,0.678823,0.623417,1.37117,2.12169,-0.247292,-0.103837,-0.908538,0.457996,0.0569484,0.779224,2.88169,4.18349,28.392,272.349
1180,29.6385,0.208009,2.13288,24.146,0.511717,0.31961,3.027,0.516959,1.5501,0.710467,-0.0462949,0.457996,0.19837,0.779224,3.8402,4.18349,25.5796,272.473
1185,31.1542,0.596448,2.48313,24.8323,0.504122,1.95258,0.61162,2.12169,-0.247292,-0.103837,1.67819,0.457996,0.19837,0.945271,3.8402,4.05889,32.4026,272.618
1190,29.0846,0.820471,3.28154,24.978,0.230675,0.653798,0.239438,0.516959,-0.247292,-0.103837,0.815948,0.457996,0.0569484,0.447131,3.8402,4.16272,28.8311,272.763
1195,33.2334,0.940975,2.78944,24.7945,0.177505,-0.0829354,0.102718,2.12169,-1.14599,1.52477,-0.0462949,0.832948,0.19837,0.945271,3.8402,3.9966,36.1318,272.907
1200,31.4474,0.673008,2.48313,24.492,0.0407824,0.12973,0.193865,0.516959,-1.14599,-0.103837,-0.0462949,0.0830431,0.339792,0.945271,2.88169,4.18349,31.4305,273.074
1205,28.8467,0.437673,2.4009,24.0703,0.496526,0.752535,1.03697,2.12169,-0.247292,0.710467,0.815948,0.457996,0.339792,0.945271,4.79872,4.01736,35.9328,273.232
1210,27.9431,0.169733,2.09459,23.8054,0.914291,0.441133,1.03697,1.31932,-0.247292,0.710467,-0.0462949,0.0830431,0.19837,0.945271,3.8402,4.03813,36.3503,273.408
1215,30.1747,0.0109729,1.97406,23.3078,0.147123,0.0765636,0.193865,2.12169,1.5501,-0.103837,-0.908538,0.0830431,0.19837,0.945271,3.8402,4.03813,43.1094,273.6
1220,25.3712,-0.213862,1.55857,23.0105,0.025591,0.213277,0.0343584,2.92405,0.651403,1.52477,-0.0462949,0.0830431,0.0569484,0.945271,3.8402,4.03813,41.6095,273.809
1225,26.0674,-0.43323,1.07218,22.7565,0.109144,0.236063,0.231843,1.31932,-0.247292,-0.103837,1.67819,0.0830431,0.0569484,0.779224,3.8402,4.01736,47.6723,274.025
1230,26.0453,-1.05512,1.06652,22.3721,0.177505,0.0765636,-0.0415971,2.12169,-0.247292,0.710467,-0.0462949,0.0830431,-0.0844734,0.779224,3.8402,4.01736,51.5633,274.282
1235,25.4002,-0.246622,0.683695,21.9552,0.00280379,0.615822,0.0875272,0.516959,0.651403,0.710467,-0.0462949,0.0830431,0.339792,0.779224,3.8402,4.01736,53.3993,274.538
1240,26.5859,-1.14364,0.404414,21.5269,0.025591,-0.067745,0.0267628,0.516959,-0.247292,-0.103837,-0.0462949,0.457996,0.339792,0.945271,3.8402,4.01736,55.4036,274.816
1245,25.2559,-1.25935,0.098191,21.2235,0.0331867,0.0613732,-0.0188104,-0.285404,0.651403,-0.103837,-0.908538,0.832948,0.0569484,0.779224,4.79872,4.01736,45.937,275.081
1250,24.3828,-1.48519,-0.28005,21.305,0.154718,0.517085,0.171078,1.31932,0.651403,1.52477,-0.0462949,0.0830431,0.19837,0.779224,4.79872,3.9966,45.078,275.314
1255,25.8406,-1.29793,-0.0935385,21.2235,0.0179952,-0.0829354,0.148292,-0.285404,1.5501,-0.103837,-0.0462949,0.457996,0.19837,0.779224,3.8402,4.05889,41.7938,275.524
1260,24.0122,-2.38002,-0.170401,21.3373,-0.0123877,-0.105721,0.0647406,1.31932,1.5501,-0.918142,-0.0462949,0.457996,0.19837,0.779224,3.8402,4.03813,44.1998,275.749
1265,21.7019,-1.56241,-0.626327,20.8118,0.0179952,-0.0297691,0.0875272,1.31932,0.651403,0.710467,-0.0462949,0.0830431,-0.0844734,0.779224,5.75724,4.01736,36.2528,275.953
1270,23.8201,-1.44659,-0.934475,20.66,0.0483781,-0.0221739,0.186269,1.31932,-0.247292,0.710467,0.815948,0.457996,0.339792,0.945271,4.79872,4.01736,34.4581,276.126
1275,23.9741,-1.60103,-0.780361,20.3944,0.177505,0.053778,0.0343584,-0.285404,-0.247292,0.710467,0.815948,0.0830431,0.19837,0.945271,4.79872,3.9966,31.347,276.284
1280,22.8448,-1.87718,-0.593523,20.5785,0.131931,0.0461828,0.239438,2.12169,0.651403,-0.103837,-0.0462949,0.457996,0.19837,0.945271,1.92317,4.01736,32.1928,276.432
1285,22.6698,-1.9545,-0.247285,20.161,0.0483781,0.760131,0.239438,1.31932,0.651403,0.710467,0.815948,0.832948,0.19837,0.613177,2.88169,4.01736,30.2051,276.588
1290,21.8536,-0.252306,-0.28005,20.0907,0.739589,0.433537,0.285011,1.31932,-0.247292,-0.103837,-0.0462949,0.457996,0.19837,0.613177,4.79872,3.872,27.115,276.727
1295,23.9505,-1.38081,-0.714721,19.6617,-0.0351748,0.160111,0.877464,0.516959,-0.247292,-0.103837,-0.0462949,0.0830431,0.19837,0.447131,3.8402,3.872,26.4921,276.854
1300,20.8122,-1.68399,-0.439588,20.0091,0.207888,0.547465,0.0723361,1.31932,0.651403,0.710467,-0.0462949,0.0830431,-0.0844734,0.945271,4.79872,3.83047,19.0848,276.981
1305,20.9416,-2.64534,-0.395429,20.3185,-0.0199834,0.31961,0.247034,2.12169,0.651403,0.710467,0.815948,0.457996,0.19837,0.613177,3.8402,3.9966,15.0405,277.065
1310,24.1788,-1.91584,-0.940172,19.9712,0.101548,0.0233973,0.566047,1.31932,-0.247292,0.710467,0.815948,0.0830431,-0.0844734,0.945271,3.8402,3.83047,14.8519,277.133
1315,21.6693,-2.22522,-0.901636,19.6674,0.306633,0.152515,0.0267628,1.31932,-0.247292,-0.103837,0.815948,0.0830431,0.0569484,0.613177,3.8402,3.85123,27.5415,277.234
1320,22.97,-1.92155,-0.94587,19.6238,0.0179952,0.053778,0.588833,2.12169,0.651403,0.710467,0.815948,0.457996,0.19837,0.779224,2.88169,3.83047,31.1429,277.377
1325,22.4284,-2.18653,-1.05581,19.4015,0.078761,0.714559,0.930633,1.31932,-1.14599,-0.918142,0.815948,0.0830431,0.0569484,0.945271,3.8402,4.03813,37.2722,277.553
1330,20.0946,-1.9545,-0.747539,19.3255,0.131931,0.0309925,0.171078,1.31932,-0.247292,-0.103837,0.815948,0.832948,0.19837,0.945271,4.79872,3.872,32.9222,277.751
1335,25.8971,-2.08193,-0.374025,19.3522,-0.0655577,0.0158021,0.0267628,0.516959,0.651403,1.52477,1.67819,0.0830431,0.19837,0.779224,2.88169,3.89276,38.6967,277.928
1340,23.6724,-0.873813,-0.632019,18.9455,-0.0199834,-0.0981258,0.155887,0.516959,0.651403,0.710467,0.815948,0.0830431,0.0569484,0.613177,2.88169,3.85123,40.3125,278.127
1345,23.9887,-1.72833,-1.1772,18.5218,-0.0655577,-0.0525546,-0.0112149,2.12169,-0.247292,1.52477,1.67819,0.0830431,0.0569484,0.613177,4.79872,3.872,36.3647,278.322
1350,25.2988,-1.84996,-1.3758,18.4782,-0.0351748,-0.0449594,0.0723361,0.516959,-0.247292,1.52477,-0.0462949,0.0830431,0.0569484,0.945271,3.8402,3.83047,31.024,278.501
1355,22.7197,-1.99887,-1.64036,18.4838,-0.0655577,-0.0449594,0.0191673,1.31932,1.5501,0.710467,0.815948,0.457996,0.0569484,0.613177,3.8402,3.85123,26.4607,278.653
1360,22.3539,-1.73404,-1.60745,18.4782,0.0711653,0.00820688,0.254629,1.31932,-0.247292,-0.103837,-0.0462949,0.0830431,0.0569484,0.779224,3.8402,3.83047,25.5718,278.786
1365,20.3904,-2.28108,-1.76768,18.3965,0.0103995,0.091754,0.155887,0.516959,-0.247292,-0.103837,-0.908538,-0.291909,-0.0844734,0.945271,1.92317,3.872,22.8131,278.909
1370,17.4272,-4.01499,-1.33151,18.6358,-0.0351748,0.274039,0.148292,1.31932,0.651403,-0.103837,-0.0462949,0.457996,0.19837,0.779224,2.88169,3.83047,29.4149,279.038
1375,18.5423,-4.94315,-0.478064,19.5154,-0.0123877,-0.0829354,0.0799316,2.12169,-1.14599,0.710467,1.67819,0.457996,0.19837,0.945271,3.8402,3.872,30.0261,279.178
1380,17.3546,-2.55206,-2.03826,18.2444,0.154718,0.34999,0.262225,1.31932,-0.247292,0.710467,0.815948,0.0830431,0.19837,0.779224,3.8402,3.85123,27.3443,279.322
1385,17.0432,-3.2771,-1.1772,18.4458,0.496526,0.0841588,0.0343584,1.31932,0.651403,0.710467,-0.908538,0.0830431,0.19837,0.613177,2.88169,3.872,28.1399,279.478
1390,18.1006,-4.4543,-1.34292,18.2064,0.0331867,0.152515,1.00659,0.516959,1.5501,-0.103837,1.67819,0.0830431,0.0569484,0.779224,3.8402,3.872,22.2764,279.595
1395,19.1053,-4.52637,-1.453,18.4782,-0.0655577,-0.0221739,-0.0188104,-1.08777,0.651403,0.710467,-0.0462949,0.0830431,0.0569484,0.779224,3.8402,3.6851,16.0081,279.697
1400,18.8279,-2.86199,-2.03826,17.788,-0.0503663,-0.0753402,0.0495495,1.31932,0.651403,-0.918142,0.815948,0.0830431,0.19837,0.779224,4.79872,3.872,4.29415,279.758
1405,19.6543,-2.90075,-2.07694,17.5217,0.0179952,-0.0753402,0.216651,0.516959,0.651403,1.52477,0.815948,0.0830431,0.19837,0.613177,4.79872,3.6851,1.78509,279.767
1410,19.0917,-2.70126,-1.56883,17.5274,0.200293,-0.0449594,-0.0415971,0.516959,0.651403,1.52477,1.67819,0.0830431,0.0569484,0.779224,2.88169,3.6851,8.41264,279.794
1415,22.4186,-2.50761,-1.8779,17.1849,-0.0275791,-0.0905306,-0.026406,-1.08777,0.651403,-0.103837,-0.0462949,0.457996,0.19837,0.779224,2.88169,3.6851,4.48524,279.823
1420,23.136,-2.02174,-1.81775,17.2441,-0.0123877,-0.0525546,0.148292,2.12169,-0.247292,0.710467,0.815948,0.457996,0.19837,0.613177,4.79872,3.83047,6.84391,279.831
1425,23.8201,-2.59651,-1.65749,17.44,0.0103995,0.0233973,0.778722,1.31932,-0.247292,0.710467,-0.0462949,0.457996,0.0569484,0.779224,3.8402,3.85123,8.53386,279.869
1430,24.2925,-2.24238,-1.65178,17.2934,-0.103536,0.122135,0.0343584,1.31932,1.5501,-0.103837,-0.908538,0.0830431,-0.0844734,0.447131,4.79872,3.66434,3.70635,279.902
1435,21.3228,-1.77839,-1.76768,17.1412,-0.0199834,0.0841588,0.0419539,0.516959,0.651403,0.710467,-0.0462949,0.0830431,0.19837,0.779224,3.8402,3.6851,21.5819,279.958
1440,17.8714,-2.70699,-2.03826,17.1032,-0.0123877,-0.0449594,0.171078,0.516959,-0.247292,0.710467,0.815948,0.832948,0.0569484,0.613177,5.75724,3.70587,0.0,280.016
1445,16.2742,-2.48606,-1.97237,16.9397,-0.0427706,0.091754,0.178674,2.12169,0.651403,0.710467,-0.0462949,0.457996,0.19837,0.945271,3.8402,3.85123,0.0,280.016
1450,15.0901,-3.53294,-1.23858,17.5485,0.0179952,0.11454,0.125505,0.516959,0.651403,-0.103837,0.815948,0.0830431,-0.0844734,0.613177,3.8402,3.6851,0.0,280.016
1454,18.1136,-2.63524,-1.81204,16.755,-0.0503663,0.091754,0.360967,-0.285404,0.651403,-0.918142,-0.0462949,0.832948,0.19837,0.945271,3.8402,3.6851,0.0,280.016