File: 01_Data/Vinyl_Siding/FTIR/IS/Vinyl_Siding_IS_S_220914_R3.dpt
7497.03,0.74797
7491.25,0.76021
7485.46,0.75061
7479.67,0.74677
7473.89,0.75172
7468.1,0.74315
7462.32,0.74257
7456.53,0.74824
7450.74,0.74137
7444.96,0.73545
7439.17,0.74291
7433.38,0.73990
7427.6,0.74365
7421.81,0.74764
7416.03,0.74522
7410.24,0.73630
7404.45,0.73863
7398.67,0.73335
7392.88,0.72987
7387.09,0.73024
7381.31,0.73705
7375.52,0.72957
7369.74,0.73085
7363.95,0.72071
7358.16,0.71603
7352.38,0.72651
7346.59,0.71865
7340.8,0.71832
7335.02,0.70980
7329.23,0.70122
7323.45,0.70220
7317.66,0.70212
7311.87,0.69248
7306.09,0.68168
7300.3,0.68268
7294.51,0.67942
7288.73,0.67039
7282.94,0.67012
7277.16,0.66258
7271.37,0.65013
7265.58,0.64577
7259.8,0.64279
7254.01,0.63310
7248.22,0.62474
7242.44,0.62460
7236.65,0.62130
7230.87,0.61231
7225.08,0.61533
7219.29,0.61745
7213.51,0.61198
7207.72,0.61012
7201.93,0.60846
7196.15,0.60639
7190.36,0.60788
7184.58,0.61042
7178.79,0.61619
7173,0.60829
7167.22,0.59761
7161.43,0.59238
7155.65,0.59949
7149.86,0.60308
7144.07,0.59778
7138.29,0.58907
7132.5,0.58863
7126.71,0.59331
7120.93,0.58471
7115.14,0.58569
7109.36,0.58878
7103.57,0.58926
7097.78,0.59142
7092,0.57913
7086.21,0.58538
7080.42,0.58189
7074.64,0.57676
7068.85,0.57720
7063.07,0.58329
7057.28,0.58072
7051.49,0.58405
7045.71,0.58156
7039.92,0.58567
7034.13,0.58185
7028.35,0.57703
7022.56,0.57568
7016.78,0.57901
7010.99,0.58030
7005.2,0.57926
6999.42,0.57298
6993.63,0.57067
6987.84,0.57615
6982.06,0.58484
6976.27,0.58934
6970.49,0.59483
6964.7,0.59542
6958.91,0.60251
6953.13,0.60358
6947.34,0.60519
6941.55,0.60481
6935.77,0.60762
6929.98,0.60703
6924.2,0.61505
6918.41,0.60834
6912.62,0.60945
6906.84,0.61518
6901.05,0.61349
6895.26,0.61313
6889.48,0.61845
6883.69,0.62309
6877.91,0.62112
6872.12,0.62501
6866.33,0.62754
6860.55,0.62316
6854.76,0.62480
6848.97,0.62686
6843.19,0.63319
6837.4,0.62743
6831.62,0.63302
6825.83,0.63343
6820.04,0.63184
6814.26,0.63310
6808.47,0.63067
6802.68,0.63125
6796.9,0.62953
6791.11,0.63762
6785.33,0.63416
6779.54,0.63769
6773.75,0.63675
6767.97,0.63633
6762.18,0.63837
6756.39,0.63558
6750.61,0.64002
6744.82,0.63984
6739.04,0.63921
6733.25,0.63828
6727.46,0.64506
6721.68,0.63845
6715.89,0.64283
6710.1,0.64788
6704.32,0.64540
6698.53,0.64537
6692.75,0.64713
6686.96,0.64654
6681.17,0.64761
6675.39,0.65158
6669.6,0.65565
6663.82,0.65062
6658.03,0.65255
6652.24,0.64978
6646.46,0.64598
6640.67,0.65107
6634.88,0.64964
6629.1,0.65543
6623.31,0.65143
6617.53,0.64937
6611.74,0.65649
6605.95,0.65152
6600.17,0.65428
6594.38,0.65483
6588.59,0.65920
6582.81,0.65161
6577.02,0.65840
6571.24,0.65947
6565.45,0.65555
6559.66,0.65556
6553.88,0.65775
6548.09,0.65271
6542.3,0.65350
6536.52,0.65189
6530.73,0.65380
6524.95,0.65157
6519.16,0.65170
6513.37,0.65449
6507.59,0.65862
6501.8,0.65716
6496.01,0.65450
6490.23,0.65625
6484.44,0.65778
6478.66,0.65662
6472.87,0.65615
6467.08,0.65858
6461.3,0.65920
6455.51,0.65999
6449.72,0.66118
6443.94,0.66200
6438.15,0.66158
6432.37,0.66317
6426.58,0.66075
6420.79,0.66367
6415.01,0.66484
6409.22,0.66814
6403.43,0.66400
6397.65,0.66354
6391.86,0.66323
6386.08,0.66518
6380.29,0.67017
6374.5,0.66489
6368.72,0.66137
6362.93,0.66341
6357.14,0.66938
6351.36,0.66202
6345.57,0.66565
6339.79,0.66634
6334,0.66011
6328.21,0.66145
6322.43,0.66111
6316.64,0.66217
6310.85,0.66493
6305.07,0.65919
6299.28,0.66450
6293.5,0.66314
6287.71,0.66198
6281.92,0.66392
6276.14,0.66379
6270.35,0.66390
6264.56,0.66035
6258.78,0.66103
6252.99,0.65891
6247.21,0.65859
6241.42,0.65994
6235.63,0.65976
6229.85,0.65800
6224.06,0.66179
6218.27,0.66253
6212.49,0.65620
6206.7,0.65900
6200.92,0.66051
6195.13,0.65678
6189.34,0.65307
6183.56,0.65258
6177.77,0.65013
6171.98,0.64938
6166.2,0.64768
6160.41,0.64078
6154.63,0.63904
6148.84,0.63450
6143.05,0.63069
6137.27,0.62977
6131.48,0.62882
6125.7,0.62531
6119.91,0.61598
6114.12,0.62022
6108.34,0.61915
6102.55,0.61919
6096.76,0.61850
6090.98,0.61605
6085.19,0.61380
6079.41,0.61237
6073.62,0.61059
6067.83,0.61370
6062.05,0.61364
6056.26,0.61521
6050.47,0.60684
6044.69,0.60124
6038.9,0.59030
6033.12,0.57729
6027.33,0.56651
6021.54,0.55075
6015.76,0.53258
6009.97,0.51580
6004.18,0.49799
5998.4,0.48516
5992.61,0.47246
5986.83,0.45720
5981.04,0.43945
5975.25,0.43324
5969.47,0.42439
5963.68,0.41787
5957.89,0.41500
5952.11,0.41254
5946.32,0.41060
5940.54,0.40715
5934.75,0.40167
5928.96,0.39432
5923.18,0.38048
5917.39,0.37038
5911.6,0.35778
5905.82,0.34441
5900.03,0.33548
5894.25,0.32497
5888.46,0.31862
5882.67,0.31176
5876.89,0.31121
5871.1,0.30687
5865.31,0.30135
5859.53,0.29456
5853.74,0.29387
5847.96,0.28843
5842.17,0.28423
5836.38,0.28503
5830.6,0.28175
5824.81,0.28438
5819.02,0.28265
5813.24,0.28585
5807.45,0.29104
5801.67,0.29437
5795.88,0.30000
5790.09,0.30237
5784.31,0.30657
5778.52,0.31008
5772.73,0.31407
5766.95,0.31478
5761.16,0.31489
5755.38,0.31388
5749.59,0.31086
5743.8,0.30525
5738.02,0.30295
5732.23,0.29845
5726.44,0.29645
5720.66,0.29553
5714.87,0.29700
5709.09,0.29794
5703.3,0.29838
5697.51,0.29860
5691.73,0.30128
5685.94,0.31078
5680.15,0.31829
5674.37,0.32081
5668.58,0.32589
5662.8,0.32639
5657.01,0.33167
5651.22,0.33321
5645.44,0.33592
5639.65,0.33977
5633.87,0.34060
5628.08,0.34273
5622.29,0.34464
5616.51,0.34572
5610.72,0.34718
5604.93,0.34817
5599.15,0.34852
5593.36,0.35110
5587.58,0.35401
5581.79,0.35949
5576,0.35922
5570.22,0.36281
5564.43,0.36617
5558.64,0.36682
5552.86,0.36721
5547.07,0.37060
5541.29,0.37168
5535.5,0.37336
5529.71,0.37475
5523.93,0.37613
5518.14,0.37639
5512.35,0.37510
5506.57,0.37695
5500.78,0.37588
5495,0.37519
5489.21,0.37238
5483.42,0.37324
5477.64,0.37118
5471.85,0.37064
5466.06,0.37083
5460.28,0.36958
5454.49,0.37070
5448.71,0.37252
5442.92,0.37653
5437.13,0.37814
5431.35,0.37901
5425.56,0.38047
5419.77,0.38276
5413.99,0.38192
5408.2,0.38165
5402.42,0.38215
5396.63,0.38195
5390.84,0.38373
5385.06,0.38525
5379.27,0.38474
5373.48,0.38726
5367.7,0.39022
5361.91,0.39288
5356.13,0.39585
5350.34,0.39900
5344.55,0.40150
5338.77,0.40472
5332.98,0.40520
5327.19,0.40510
5321.41,0.40723
5315.62,0.40948
5309.84,0.40935
5304.05,0.40952
5298.26,0.41123
5292.48,0.40965
5286.69,0.40669
5280.9,0.40392
5275.12,0.39873
5269.33,0.39148
5263.55,0.38359
5257.76,0.37918
5251.97,0.37667
5246.19,0.38010
5240.4,0.38226
5234.61,0.38649
5228.83,0.38846
5223.04,0.39246
5217.26,0.39341
5211.47,0.39256
5205.68,0.39241
5199.9,0.39221
5194.11,0.39077
5188.32,0.39102
5182.54,0.38993
5176.75,0.38697
5170.97,0.38477
5165.18,0.38469
5159.39,0.38504
5153.61,0.38098
5147.82,0.37990
5142.03,0.38043
5136.25,0.38228
5130.46,0.38465
5124.68,0.38763
5118.89,0.39041
5113.1,0.39176
5107.32,0.39293
5101.53,0.39544
5095.75,0.39760
5089.96,0.39762
5084.17,0.39887
5078.39,0.40132
5072.6,0.40101
5066.81,0.40088
5061.03,0.40420
5055.24,0.40410
5049.46,0.40476
5043.67,0.40625
5037.88,0.40729
5032.1,0.40822
5026.31,0.40942
5020.52,0.40935
5014.74,0.41055
5008.95,0.41065
5003.17,0.40940
4997.38,0.40826
4991.59,0.40962
4985.81,0.40899
4980.02,0.40863
4974.23,0.40948
4968.45,0.40829
4962.66,0.40891
4956.88,0.40992
4951.09,0.40892
4945.3,0.40959
4939.52,0.40840
4933.73,0.40854
4927.94,0.40768
4922.16,0.40665
4916.37,0.40544
4910.59,0.40416
4904.8,0.40252
4899.01,0.40200
4893.23,0.39989
4887.44,0.39803
4881.65,0.39453
4875.87,0.39271
4870.08,0.39109
4864.3,0.39061
4858.51,0.39101
4852.72,0.39119
4846.94,0.39318
4841.15,0.39381
4835.36,0.39397
4829.58,0.39421
4823.79,0.39510
4818.01,0.39542
4812.22,0.39595
4806.43,0.39548
4800.65,0.39484
4794.86,0.39498
4789.07,0.39358
4783.29,0.39320
4777.5,0.39162
4771.72,0.39036
4765.93,0.38846
4760.14,0.38758
4754.36,0.38787
4748.57,0.38638
4742.78,0.38548
4737,0.38310
4731.21,0.38022
4725.43,0.37589
4719.64,0.37238
4713.85,0.36723
4708.07,0.36309
4702.28,0.35866
4696.49,0.35228
4690.71,0.34311
4684.92,0.32903
4679.14,0.30562
4673.35,0.28535
4667.56,0.27722
4661.78,0.28214
4655.99,0.29402
4650.2,0.30443
4644.42,0.30574
4638.63,0.29826
4632.85,0.28837
4627.06,0.28455
4621.27,0.28590
4615.49,0.28439
4609.7,0.28148
4603.92,0.28716
4598.13,0.30371
4592.34,0.31427
4586.56,0.31768
4580.77,0.30887
4574.98,0.30055
4569.2,0.30718
4563.41,0.32097
4557.63,0.32903
4551.84,0.33324
4546.05,0.33461
4540.27,0.33214
4534.48,0.32998
4528.69,0.32844
4522.91,0.32549
4517.12,0.32190
4511.34,0.31810
4505.55,0.31553
4499.76,0.31263
4493.98,0.30864
4488.19,0.30395
4482.4,0.29690
4476.62,0.28956
4470.83,0.28093
4465.05,0.27182
4459.26,0.26054
4453.47,0.24842
4447.69,0.23724
4441.9,0.22612
4436.11,0.21627
4430.33,0.20617
4424.54,0.19541
4418.76,0.18461
4412.97,0.17487
4407.18,0.16675
4401.4,0.15915
4395.61,0.15313
4389.82,0.14703
4384.04,0.14112
4378.25,0.13605
4372.47,0.13185
4366.68,0.12888
4360.89,0.12638
4355.11,0.12523
4349.32,0.12433
4343.53,0.12553
4337.75,0.12656
4331.96,0.12915
4326.18,0.13100
4320.39,0.13203
4314.6,0.13219
4308.82,0.13321
4303.03,0.13333
4297.24,0.13189
4291.46,0.13035
4285.67,0.12789
4279.89,0.12572
4274.1,0.12478
4268.31,0.12446
4262.53,0.12304
4256.74,0.12188
4250.95,0.12206
4245.17,0.12183
4239.38,0.12275
4233.6,0.12294
4227.81,0.12190
4222.02,0.12251
4216.24,0.12350
4210.45,0.12272
4204.66,0.12340
4198.88,0.12456
4193.09,0.12499
4187.31,0.12606
4181.52,0.12572
4175.73,0.12654
4169.95,0.12636
4164.16,0.12732
4158.37,0.12800
4152.59,0.12834
4146.8,0.12860
4141.02,0.12797
4135.23,0.12813
4129.44,0.12893
4123.66,0.12774
4117.87,0.12676
4112.09,0.12578
4106.3,0.12410
4100.51,0.12279
4094.73,0.12274
4088.94,0.12163
4083.15,0.11841
4077.37,0.11595
4071.58,0.11283
4065.8,0.11037
4060.01,0.10837
4054.22,0.10809
4048.44,0.10799
4042.65,0.10754
4036.86,0.10866
4031.08,0.11090
4025.29,0.11533
4019.51,0.11963
4013.72,0.12328
4007.93,0.12633
4002.15,0.12681
3996.36,0.12847
3990.57,0.13049
3984.79,0.13282
3979,0.13330
3973.22,0.13469
3967.43,0.13576
3961.64,0.13551
3955.86,0.13635
3950.07,0.13698
3944.28,0.13683
3938.5,0.13681
3932.71,0.13693
3926.93,0.13704
3921.14,0.13834
3915.35,0.13856
3909.57,0.13815
3903.78,0.13897
3897.99,0.13863
3892.21,0.13898
3886.42,0.13905
3880.64,0.13927
3874.85,0.13965
3869.06,0.14006
3863.28,0.13951
3857.49,0.13969
3851.7,0.13962
3845.92,0.13864
3840.13,0.13859
3834.35,0.13796
3828.56,0.13820
3822.77,0.13865
3816.99,0.13852
3811.2,0.14049
3805.41,0.14097
3799.63,0.14174
3793.84,0.14312
3788.06,0.14438
3782.27,0.14542
3776.48,0.14609
3770.7,0.14605
3764.91,0.14682
3759.12,0.14776
3753.34,0.14902
3747.55,0.14902
3741.77,0.14896
3735.98,0.14922
3730.19,0.14957
3724.41,0.14885
3718.62,0.14794
3712.83,0.14616
3707.05,0.14062
3701.26,0.13501
3695.48,0.12918
3689.69,0.12247
3683.9,0.11556
3678.12,0.11065
3672.33,0.10673
3666.54,0.10298
3660.76,0.10051
3654.97,0.09894
3649.19,0.09706
3643.4,0.09725
3637.61,0.09817
3631.83,0.09866
3626.04,0.09761
3620.25,0.09679
3614.47,0.09798
3608.68,0.09912
3602.9,0.09908
3597.11,0.09926
3591.32,0.09821
3585.54,0.09788
3579.75,0.09750
3573.97,0.09551
3568.18,0.09461
3562.39,0.09346
3556.61,0.09198
3550.82,0.09037
3545.03,0.09068
3539.25,0.09007
3533.46,0.08979
3527.68,0.08973
3521.89,0.09012
3516.1,0.08934
3510.32,0.08999
3504.53,0.08910
3498.74,0.08985
3492.96,0.08942
3487.17,0.08916
3481.39,0.08923
3475.6,0.08853
3469.81,0.08761
3464.03,0.08657
3458.24,0.08434
3452.45,0.08217
3446.67,0.08128
3440.88,0.08206
3435.1,0.08277
3429.31,0.08330
3423.52,0.08438
3417.74,0.08522
3411.95,0.08533
3406.16,0.08519
3400.38,0.08434
3394.59,0.08371
3388.81,0.08337
3383.02,0.08287
3377.23,0.08124
3371.45,0.08055
3365.66,0.07949
3359.87,0.07857
3354.09,0.07618
3348.3,0.07406
3342.52,0.07241
3336.73,0.07050
3330.94,0.06767
3325.16,0.06489
3319.37,0.06278
3313.58,0.06109
3307.8,0.05945
3302.01,0.05942
3296.23,0.06135
3290.44,0.06373
3284.65,0.06625
3278.87,0.06854
3273.08,0.06983
3267.29,0.07064
3261.51,0.07157
3255.72,0.07335
3249.94,0.07444
3244.15,0.07559
3238.36,0.07679
3232.58,0.07779
3226.79,0.07762
3221,0.07822
3215.22,0.07819
3209.43,0.07814
3203.65,0.07753
3197.86,0.07719
3192.07,0.07804
3186.29,0.07840
3180.5,0.07870
3174.71,0.07948
3168.93,0.07922
3163.14,0.07898
3157.36,0.07925
3151.57,0.08001
3145.78,0.07994
3140,0.07987
3134.21,0.07917
3128.42,0.07779
3122.64,0.07657
3116.85,0.07375
3111.07,0.06975
3105.28,0.06558
3099.49,0.06575
3093.71,0.06445
3087.92,0.06026
3082.14,0.05873
3076.35,0.05944
3070.56,0.05831
3064.78,0.05694
3058.99,0.05602
3053.2,0.05845
3047.42,0.05952
3041.63,0.05842
3035.85,0.05655
3030.06,0.05395
3024.27,0.05512
3018.49,0.05762
3012.7,0.06025
3006.91,0.05899
3001.13,0.05869
2995.34,0.05934
2989.56,0.05801
2983.77,0.05611
2977.98,0.05377
2972.2,0.05165
2966.41,0.05063
2960.62,0.05153
2954.84,0.05247
2949.05,0.05313
2943.27,0.05326
2937.48,0.05422
2931.69,0.05634
2925.91,0.05936
2920.12,0.06042
2914.33,0.05975
2908.55,0.05897
2902.76,0.05853
2896.98,0.05848
2891.19,0.05793
2885.4,0.05715
2879.62,0.05689
2873.83,0.05658
2868.04,0.05710
2862.26,0.05761
2856.47,0.05959
2850.69,0.06169
2844.9,0.06199
2839.11,0.06348
2833.33,0.06540
2827.54,0.06674
2821.75,0.06793
2815.97,0.06842
2810.18,0.06873
2804.4,0.06955
2798.61,0.06987
2792.82,0.07105
2787.04,0.07141
2781.25,0.07174
2775.46,0.07223
2769.68,0.07286
2763.89,0.07338
2758.11,0.07307
2752.32,0.07263
2746.53,0.07310
2740.75,0.07235
2734.96,0.07228
2729.17,0.07248
2723.39,0.07303
2717.6,0.07362
2711.82,0.07357
2706.03,0.07392
2700.24,0.07391
2694.46,0.07393
2688.67,0.07402
2682.88,0.07390
2677.1,0.07347
2671.31,0.07337
2665.53,0.07378
2659.74,0.07385
2653.95,0.07401
2648.17,0.07377
2642.38,0.07434
2636.59,0.07329
2630.81,0.07370
2625.02,0.07357
2619.24,0.07333
2613.45,0.07324
2607.66,0.07251
2601.88,0.07250
2596.09,0.07249
2590.3,0.07276
2584.52,0.07275
2578.73,0.07268
2572.95,0.07272
2567.16,0.07290
2561.37,0.07305
2555.59,0.07298
2549.8,0.07259
2544.02,0.07288
2538.23,0.07272
2532.44,0.07244
2526.66,0.07209
2520.87,0.07151
2515.08,0.07186
2509.3,0.07166
2503.51,0.07221
2497.73,0.07200
2491.94,0.07179
2486.15,0.07235
2480.37,0.07292
2474.58,0.07368
2468.79,0.07365
2463.01,0.07409
2457.22,0.07400
2451.44,0.07420
2445.65,0.07405
2439.86,0.07432
2434.08,0.07426
2428.29,0.07383
2422.5,0.07417
2416.72,0.07416
2410.93,0.07432
2405.15,0.07368
2399.36,0.07361
2393.57,0.07446
2387.79,0.07443
2382,0.07469
2376.21,0.07472
2370.43,0.07422
2364.64,0.07351
2358.86,0.07374
2353.07,0.07301
2347.28,0.07247
2341.5,0.07173
2335.71,0.07225
2329.92,0.07367
2324.14,0.07375
2318.35,0.07385
2312.57,0.07382
2306.78,0.07456
2300.99,0.07470
2295.21,0.07451
2289.42,0.07440
2283.63,0.07418
2277.85,0.07382
2272.06,0.07361
2266.28,0.07284
2260.49,0.07148
2254.7,0.06903
2248.92,0.06262
2243.13,0.05707
2237.34,0.05551
2231.56,0.06001
2225.77,0.07037
2219.99,0.07628
2214.2,0.07798
2208.41,0.07928
2202.63,0.08006
2196.84,0.08053
2191.05,0.07998
2185.27,0.07957
2179.48,0.08085
2173.7,0.08165
2167.91,0.08199
2162.12,0.08200
2156.34,0.08215
2150.55,0.08168
2144.76,0.08081
2138.98,0.08088
2133.19,0.08196
2127.41,0.08332
2121.62,0.08478
2115.83,0.08635
2110.05,0.08725
2104.26,0.08795
2098.47,0.08841
2092.69,0.08852
2086.9,0.08887
2081.12,0.08845
2075.33,0.08822
2069.54,0.08709
2063.76,0.08637
2057.97,0.08583
2052.19,0.08462
2046.4,0.08418
2040.61,0.08302
2034.83,0.08233
2029.04,0.08215
2023.25,0.08192
2017.47,0.08173
2011.68,0.08199
2005.9,0.08150
2000.11,0.08064
1994.32,0.07866
1988.54,0.07709
1982.75,0.07604
1976.96,0.07479
1971.18,0.07299
1965.39,0.07060
1959.61,0.06903
1953.82,0.06862
1948.03,0.06945
1942.25,0.07217
1936.46,0.07568
1930.67,0.07843
1924.89,0.08027
1919.1,0.08039
1913.32,0.07934
1907.53,0.07749
1901.74,0.07498
1895.96,0.07248
1890.17,0.07095
1884.38,0.07034
1878.6,0.07039
1872.81,0.07206
1867.03,0.07559
1861.24,0.07910
1855.45,0.08117
1849.67,0.08125
1843.88,0.07911
1838.09,0.07657
1832.31,0.07286
1826.52,0.06947
1820.74,0.06646
1814.95,0.06387
1809.16,0.06213
1803.38,0.06000
1797.59,0.05858
1791.8,0.05871
1786.02,0.05933
1780.23,0.05941
1774.45,0.05846
1768.66,0.05656
1762.87,0.05434
1757.09,0.05186
1751.3,0.04924
1745.51,0.04639
1739.73,0.04750
1733.94,0.05322
1728.16,0.05774
1722.37,0.05876
1716.58,0.05857
1710.8,0.05782
1705.01,0.05830
1699.22,0.05855
1693.44,0.05767
1687.65,0.05854
1681.87,0.05902
1676.08,0.05939
1670.29,0.05944
1664.51,0.05836
1658.72,0.05813
1652.93,0.05817
1647.15,0.05791
1641.36,0.05798
1635.58,0.05865
1629.79,0.05962
1624,0.05953
1618.22,0.05949
1612.43,0.05862
1606.64,0.05547
1600.86,0.05493
1595.07,0.05756
1589.29,0.05803
1583.5,0.05519
1577.71,0.05693
1571.93,0.05695
1566.14,0.05599
1560.35,0.05516
1554.57,0.05455
1548.78,0.05437
1543,0.05507
1537.21,0.05601
1531.42,0.05755
1525.64,0.05837
1519.85,0.05856
1514.07,0.05844
1508.28,0.05749
1502.49,0.05396
1496.71,0.05050
1490.92,0.05343
1485.13,0.05422
1479.35,0.05318
1473.56,0.05212
1467.78,0.05182
1461.99,0.05098
1456.2,0.05053
1450.42,0.05476
1444.63,0.05576
1438.84,0.05605
1433.06,0.05657
1427.27,0.05657
1421.49,0.05663
1415.7,0.05594
1409.91,0.05557
1404.13,0.05397
1398.34,0.05360
1392.55,0.05344
1386.77,0.05327
1380.98,0.05337
1375.2,0.05342
1369.41,0.05327
1363.62,0.05350
1357.84,0.05340
1352.05,0.05372
1346.26,0.05344
1340.48,0.05325
1334.69,0.05291
1328.91,0.05269
1323.12,0.05264
1317.33,0.05276
1311.55,0.05255
1305.76,0.05241
1299.97,0.05206
1294.19,0.05181
1288.4,0.05186
1282.62,0.05154
1276.83,0.05111
1271.04,0.05157
1265.26,0.05174
1259.47,0.05227
1253.68,0.05268
1247.9,0.05304
1242.11,0.05337
1236.33,0.05361
1230.54,0.05360
1224.75,0.05358
1218.97,0.05343
1213.18,0.05356
1207.39,0.05304
1201.61,0.05221
1195.82,0.05226
1190.04,0.05141
1184.25,0.05087
1178.46,0.05208
1172.68,0.05323
1166.89,0.05504
1161.1,0.05763
1155.32,0.06019
1149.53,0.06098
1143.75,0.06012
1137.96,0.05877
1132.17,0.05731
1126.39,0.05645
1120.6,0.05616
1114.81,0.05592
1109.03,0.05631
1103.24,0.05620
1097.46,0.05588
1091.67,0.05545
1085.88,0.05547
1080.1,0.05435
1074.31,0.05468
1068.52,0.05550
1062.74,0.05591
1056.95,0.05649
1051.17,0.05664
1045.38,0.05622
1039.59,0.05555
1033.81,0.05529
1028.02,0.05572
1022.24,0.05675
1016.45,0.05711
1010.66,0.05648
1004.88,0.05568
999.09,0.05538
993.304,0.05560
987.518,0.05566
981.731,0.05549
975.945,0.05467
970.159,0.05494
964.373,0.05492
958.586,0.05442
952.8,0.05432
947.014,0.05453
941.228,0.05470
935.441,0.05577
929.655,0.05506
923.869,0.05446
918.083,0.05423
912.297,0.05400
906.51,0.05502
900.724,0.05442
894.938,0.05418
889.152,0.05443
883.365,0.05446
877.579,0.05339
871.793,0.05453
866.007,0.05382
860.22,0.05264
854.434,0.05226
848.648,0.05225
842.862,0.05263
837.075,0.05303
831.289,0.05242
825.503,0.05258
819.717,0.05237
813.931,0.05233
808.144,0.05166
802.358,0.05145
796.572,0.05094
790.786,0.05007
784.999,0.04822
779.213,0.04741
773.427,0.04606
767.641,0.04679
761.854,0.05028
756.068,0.05417
750.282,0.05437
744.496,0.05318
738.709,0.05251
732.923,0.05192
727.137,0.05071
721.351,0.04850
715.565,0.04453
709.778,0.04004
703.992,0.05101
698.206,0.07123
692.42,0.06785
686.633,0.06213
680.847,0.05901
675.061,0.05834
669.275,0.05676
663.488,0.05603
657.702,0.05590
651.916,0.05634
646.13,0.05722
640.343,0.05548
634.557,0.05449
628.771,0.05437
622.985,0.05603
617.198,0.05392
611.412,0.05395
605.626,0.05450
599.84,0.05469