File: 01_Data/Vinyl_Siding/FTIR/IS/Vinyl_Siding_IS_T_220914_R2.dpt
7497.03,0.02816
7491.25,0.02419
7485.46,0.01557
7479.67,0.02047
7473.89,0.02129
7468.1,0.02687
7462.32,0.01732
7456.53,0.02562
7450.74,0.02129
7444.96,0.02679
7439.17,0.02478
7433.38,0.01519
7427.6,0.02233
7421.81,0.02154
7416.03,0.02277
7410.24,0.02147
7404.45,0.02250
7398.67,0.01810
7392.88,0.02507
7387.09,0.02830
7381.31,0.02750
7375.52,0.02852
7369.74,0.02857
7363.95,0.03467
7358.16,0.02147
7352.38,0.02092
7346.59,0.02696
7340.8,0.03567
7335.02,0.01606
7329.23,0.02430
7323.45,0.02119
7317.66,0.02463
7311.87,0.02752
7306.09,0.02538
7300.3,0.03217
7294.51,0.02486
7288.73,0.02563
7282.94,0.02353
7277.16,0.02140
7271.37,0.03021
7265.58,0.02338
7259.8,0.02123
7254.01,0.02118
7248.22,0.02825
7242.44,0.03190
7236.65,0.02446
7230.87,0.01995
7225.08,0.01595
7219.29,0.02364
7213.51,0.02990
7207.72,0.01928
7201.93,0.01606
7196.15,0.02735
7190.36,0.02385
7184.58,0.02151
7178.79,0.02131
7173,0.02050
7167.22,0.03169
7161.43,0.02457
7155.65,0.02913
7149.86,0.02992
7144.07,0.02025
7138.29,0.03014
7132.5,0.02568
7126.71,0.02311
7120.93,0.02665
7115.14,0.02301
7109.36,0.02807
7103.57,0.02615
7097.78,0.01977
7092,0.02478
7086.21,0.02115
7080.42,0.02698
7074.64,0.03011
7068.85,0.02689
7063.07,0.02691
7057.28,0.02444
7051.49,0.03027
7045.71,0.02299
7039.92,0.02770
7034.13,0.02410
7028.35,0.02835
7022.56,0.02544
7016.78,0.02422
7010.99,0.02867
7005.2,0.02562
6999.42,0.02217
6993.63,0.02232
6987.84,0.02313
6982.06,0.02226
6976.27,0.02372
6970.49,0.02335
6964.7,0.02568
6958.91,0.02596
6953.13,0.02107
6947.34,0.03083
6941.55,0.02540
6935.77,0.01647
6929.98,0.02126
6924.2,0.02619
6918.41,0.02395
6912.62,0.02901
6906.84,0.02123
6901.05,0.02190
6895.26,0.01950
6889.48,0.02555
6883.69,0.02173
6877.91,0.02125
6872.12,0.02716
6866.33,0.02722
6860.55,0.02164
6854.76,0.02540
6848.97,0.02647
6843.19,0.02654
6837.4,0.02321
6831.62,0.02219
6825.83,0.02307
6820.04,0.02354
6814.26,0.02300
6808.47,0.01811
6802.68,0.01820
6796.9,0.02536
6791.11,0.02155
6785.33,0.01921
6779.54,0.01880
6773.75,0.02390
6767.97,0.01880
6762.18,0.02374
6756.39,0.02247
6750.61,0.02077
6744.82,0.02185
6739.04,0.02085
6733.25,0.02239
6727.46,0.02123
6721.68,0.01647
6715.89,0.02282
6710.1,0.02152
6704.32,0.02600
6698.53,0.02075
6692.75,0.02544
6686.96,0.02316
6681.17,0.02432
6675.39,0.02320
6669.6,0.01919
6663.82,0.02282
6658.03,0.02231
6652.24,0.02042
6646.46,0.02313
6640.67,0.02294
6634.88,0.02198
6629.1,0.02356
6623.31,0.02430
6617.53,0.02259
6611.74,0.02605
6605.95,0.02473
6600.17,0.02484
6594.38,0.01973
6588.59,0.02007
6582.81,0.02303
6577.02,0.01841
6571.24,0.02503
6565.45,0.02672
6559.66,0.02363
6553.88,0.02120
6548.09,0.02056
6542.3,0.02181
6536.52,0.02393
6530.73,0.02193
6524.95,0.02510
6519.16,0.02758
6513.37,0.02215
6507.59,0.02667
6501.8,0.02382
6496.01,0.02146
6490.23,0.02143
6484.44,0.02382
6478.66,0.02121
6472.87,0.02247
6467.08,0.02003
6461.3,0.02252
6455.51,0.02209
6449.72,0.02310
6443.94,0.02058
6438.15,0.02045
6432.37,0.01700
6426.58,0.02347
6420.79,0.02268
6415.01,0.02608
6409.22,0.02416
6403.43,0.02322
6397.65,0.02115
6391.86,0.02311
6386.08,0.02131
6380.29,0.02181
6374.5,0.02037
6368.72,0.02077
6362.93,0.02448
6357.14,0.02262
6351.36,0.02142
6345.57,0.01838
6339.79,0.01762
6334,0.02586
6328.21,0.02168
6322.43,0.02066
6316.64,0.02339
6310.85,0.02289
6305.07,0.02310
6299.28,0.02169
6293.5,0.02537
6287.71,0.02625
6281.92,0.01885
6276.14,0.02366
6270.35,0.02092
6264.56,0.02046
6258.78,0.02272
6252.99,0.02054
6247.21,0.02074
6241.42,0.02385
6235.63,0.02262
6229.85,0.02324
6224.06,0.02114
6218.27,0.02004
6212.49,0.02152
6206.7,0.02106
6200.92,0.02225
6195.13,0.02252
6189.34,0.02264
6183.56,0.02365
6177.77,0.02107
6171.98,0.01968
6166.2,0.02063
6160.41,0.02341
6154.63,0.02228
6148.84,0.02162
6143.05,0.02280
6137.27,0.02424
6131.48,0.02070
6125.7,0.02127
6119.91,0.02070
6114.12,0.02135
6108.34,0.02483
6102.55,0.02002
6096.76,0.01949
6090.98,0.01914
6085.19,0.02146
6079.41,0.02263
6073.62,0.02134
6067.83,0.02219
6062.05,0.02205
6056.26,0.02310
6050.47,0.02066
6044.69,0.02107
6038.9,0.02116
6033.12,0.02182
6027.33,0.02179
6021.54,0.02322
6015.76,0.02194
6009.97,0.02103
6004.18,0.01978
5998.4,0.02031
5992.61,0.02109
5986.83,0.02313
5981.04,0.02100
5975.25,0.01950
5969.47,0.01974
5963.68,0.02350
5957.89,0.02040
5952.11,0.02130
5946.32,0.02297
5940.54,0.02255
5934.75,0.02204
5928.96,0.02021
5923.18,0.02010
5917.39,0.02146
5911.6,0.02278
5905.82,0.01978
5900.03,0.02116
5894.25,0.02136
5888.46,0.02489
5882.67,0.02362
5876.89,0.02388
5871.1,0.02260
5865.31,0.02271
5859.53,0.02320
5853.74,0.02179
5847.96,0.02131
5842.17,0.02245
5836.38,0.02195
5830.6,0.02125
5824.81,0.02209
5819.02,0.02301
5813.24,0.02304
5807.45,0.02191
5801.67,0.02208
5795.88,0.01993
5790.09,0.02170
5784.31,0.02388
5778.52,0.01971
5772.73,0.02001
5766.95,0.02149
5761.16,0.02177
5755.38,0.02321
5749.59,0.02179
5743.8,0.02160
5738.02,0.02226
5732.23,0.02255
5726.44,0.02059
5720.66,0.02124
5714.87,0.02316
5709.09,0.02371
5703.3,0.02263
5697.51,0.02141
5691.73,0.02086
5685.94,0.01912
5680.15,0.02265
5674.37,0.01974
5668.58,0.02115
5662.8,0.02215
5657.01,0.02178
5651.22,0.01860
5645.44,0.02227
5639.65,0.02294
5633.87,0.02303
5628.08,0.02188
5622.29,0.02250
5616.51,0.02013
5610.72,0.01932
5604.93,0.02049
5599.15,0.02320
5593.36,0.02227
5587.58,0.02225
5581.79,0.02157
5576,0.02166
5570.22,0.02244
5564.43,0.02333
5558.64,0.02276
5552.86,0.02285
5547.07,0.02333
5541.29,0.02216
5535.5,0.02236
5529.71,0.02220
5523.93,0.02182
5518.14,0.02194
5512.35,0.02349
5506.57,0.02190
5500.78,0.02293
5495,0.02099
5489.21,0.02415
5483.42,0.02034
5477.64,0.02143
5471.85,0.02162
5466.06,0.02416
5460.28,0.02277
5454.49,0.02271
5448.71,0.02031
5442.92,0.02120
5437.13,0.02137
5431.35,0.02322
5425.56,0.02195
5419.77,0.02085
5413.99,0.02306
5408.2,0.02292
5402.42,0.02203
5396.63,0.02096
5390.84,0.02169
5385.06,0.02213
5379.27,0.02047
5373.48,0.02280
5367.7,0.02200
5361.91,0.02182
5356.13,0.02154
5350.34,0.02303
5344.55,0.02394
5338.77,0.02388
5332.98,0.02237
5327.19,0.02218
5321.41,0.02309
5315.62,0.02214
5309.84,0.02184
5304.05,0.02214
5298.26,0.02198
5292.48,0.02131
5286.69,0.02151
5280.9,0.02171
5275.12,0.02200
5269.33,0.02120
5263.55,0.02267
5257.76,0.02195
5251.97,0.02244
5246.19,0.02395
5240.4,0.02356
5234.61,0.02323
5228.83,0.02116
5223.04,0.02150
5217.26,0.02245
5211.47,0.02285
5205.68,0.02327
5199.9,0.02239
5194.11,0.02111
5188.32,0.02272
5182.54,0.02216
5176.75,0.02208
5170.97,0.02342
5165.18,0.02243
5159.39,0.02240
5153.61,0.02092
5147.82,0.02284
5142.03,0.02300
5136.25,0.02217
5130.46,0.02144
5124.68,0.02207
5118.89,0.02154
5113.1,0.02167
5107.32,0.02192
5101.53,0.02237
5095.75,0.02173
5089.96,0.02272
5084.17,0.02140
5078.39,0.02264
5072.6,0.02247
5066.81,0.02180
5061.03,0.02226
5055.24,0.02210
5049.46,0.02186
5043.67,0.02185
5037.88,0.02134
5032.1,0.02091
5026.31,0.02194
5020.52,0.02153
5014.74,0.02160
5008.95,0.02366
5003.17,0.02220
4997.38,0.02114
4991.59,0.02106
4985.81,0.02187
4980.02,0.02338
4974.23,0.02230
4968.45,0.02069
4962.66,0.02273
4956.88,0.02262
4951.09,0.02385
4945.3,0.02197
4939.52,0.02178
4933.73,0.02114
4927.94,0.02255
4922.16,0.02141
4916.37,0.02201
4910.59,0.02308
4904.8,0.02338
4899.01,0.02267
4893.23,0.02213
4887.44,0.02315
4881.65,0.02305
4875.87,0.02300
4870.08,0.02341
4864.3,0.02352
4858.51,0.02270
4852.72,0.02331
4846.94,0.02411
4841.15,0.02315
4835.36,0.02338
4829.58,0.02325
4823.79,0.02155
4818.01,0.02239
4812.22,0.02287
4806.43,0.02278
4800.65,0.02195
4794.86,0.02285
4789.07,0.02147
4783.29,0.02228
4777.5,0.02230
4771.72,0.02307
4765.93,0.02245
4760.14,0.02230
4754.36,0.02289
4748.57,0.02215
4742.78,0.02200
4737,0.02281
4731.21,0.02205
4725.43,0.02110
4719.64,0.02322
4713.85,0.02335
4708.07,0.02244
4702.28,0.02178
4696.49,0.02290
4690.71,0.02313
4684.92,0.02212
4679.14,0.02270
4673.35,0.02267
4667.56,0.02339
4661.78,0.02280
4655.99,0.02206
4650.2,0.02242
4644.42,0.02117
4638.63,0.02161
4632.85,0.02195
4627.06,0.02232
4621.27,0.02263
4615.49,0.02228
4609.7,0.02163
4603.92,0.02188
4598.13,0.02244
4592.34,0.02134
4586.56,0.02194
4580.77,0.02174
4574.98,0.02191
4569.2,0.02354
4563.41,0.02221
4557.63,0.02177
4551.84,0.02325
4546.05,0.02217
4540.27,0.02265
4534.48,0.02202
4528.69,0.02213
4522.91,0.02223
4517.12,0.02356
4511.34,0.02298
4505.55,0.02281
4499.76,0.02258
4493.98,0.02316
4488.19,0.02204
4482.4,0.02259
4476.62,0.02234
4470.83,0.02305
4465.05,0.02201
4459.26,0.02144
4453.47,0.02217
4447.69,0.02245
4441.9,0.02218
4436.11,0.02188
4430.33,0.02253
4424.54,0.02284
4418.76,0.02271
4412.97,0.02308
4407.18,0.02262
4401.4,0.02354
4395.61,0.02279
4389.82,0.02245
4384.04,0.02232
4378.25,0.02206
4372.47,0.02270
4366.68,0.02247
4360.89,0.02254
4355.11,0.02205
4349.32,0.02197
4343.53,0.02213
4337.75,0.02276
4331.96,0.02206
4326.18,0.02251
4320.39,0.02211
4314.6,0.02254
4308.82,0.02239
4303.03,0.02154
4297.24,0.02233
4291.46,0.02194
4285.67,0.02255
4279.89,0.02279
4274.1,0.02338
4268.31,0.02369
4262.53,0.02325
4256.74,0.02232
4250.95,0.02327
4245.17,0.02334
4239.38,0.02281
4233.6,0.02253
4227.81,0.02209
4222.02,0.02255
4216.24,0.02380
4210.45,0.02301
4204.66,0.02375
4198.88,0.02323
4193.09,0.02341
4187.31,0.02260
4181.52,0.02216
4175.73,0.02225
4169.95,0.02303
4164.16,0.02333
4158.37,0.02272
4152.59,0.02243
4146.8,0.02272
4141.02,0.02297
4135.23,0.02340
4129.44,0.02341
4123.66,0.02240
4117.87,0.02286
4112.09,0.02217
4106.3,0.02297
4100.51,0.02321
4094.73,0.02380
4088.94,0.02305
4083.15,0.02331
4077.37,0.02320
4071.58,0.02231
4065.8,0.02322
4060.01,0.02241
4054.22,0.02302
4048.44,0.02262
4042.65,0.02268
4036.86,0.02305
4031.08,0.02306
4025.29,0.02235
4019.51,0.02267
4013.72,0.02268
4007.93,0.02312
4002.15,0.02246
3996.36,0.02307
3990.57,0.02242
3984.79,0.02228
3979,0.02278
3973.22,0.02324
3967.43,0.02312
3961.64,0.02296
3955.86,0.02286
3950.07,0.02345
3944.28,0.02283
3938.5,0.02282
3932.71,0.02275
3926.93,0.02242
3921.14,0.02238
3915.35,0.02233
3909.57,0.02193
3903.78,0.02277
3897.99,0.02269
3892.21,0.02241
3886.42,0.02298
3880.64,0.02330
3874.85,0.02332
3869.06,0.02291
3863.28,0.02305
3857.49,0.02296
3851.7,0.02276
3845.92,0.02323
3840.13,0.02344
3834.35,0.02291
3828.56,0.02326
3822.77,0.02326
3816.99,0.02353
3811.2,0.02359
3805.41,0.02204
3799.63,0.02287
3793.84,0.02245
3788.06,0.02274
3782.27,0.02292
3776.48,0.02223
3770.7,0.02271
3764.91,0.02268
3759.12,0.02358
3753.34,0.02298
3747.55,0.02311
3741.77,0.02303
3735.98,0.02300
3730.19,0.02316
3724.41,0.02335
3718.62,0.02336
3712.83,0.02287
3707.05,0.02251
3701.26,0.02265
3695.48,0.02276
3689.69,0.02341
3683.9,0.02269
3678.12,0.02255
3672.33,0.02289
3666.54,0.02166
3660.76,0.02220
3654.97,0.02233
3649.19,0.02246
3643.4,0.02202
3637.61,0.02242
3631.83,0.02242
3626.04,0.02169
3620.25,0.02166
3614.47,0.02184
3608.68,0.02205
3602.9,0.02205
3597.11,0.02258
3591.32,0.02143
3585.54,0.02165
3579.75,0.02140
3573.97,0.02239
3568.18,0.02138
3562.39,0.02174
3556.61,0.02141
3550.82,0.02164
3545.03,0.02187
3539.25,0.02080
3533.46,0.02183
3527.68,0.02116
3521.89,0.02074
3516.1,0.02106
3510.32,0.02133
3504.53,0.02147
3498.74,0.02142
3492.96,0.02150
3487.17,0.02160
3481.39,0.02171
3475.6,0.02112
3469.81,0.02080
3464.03,0.02107
3458.24,0.02156
3452.45,0.02184
3446.67,0.02143
3440.88,0.02090
3435.1,0.02028
3429.31,0.02029
3423.52,0.02089
3417.74,0.02089
3411.95,0.02070
3406.16,0.02140
3400.38,0.02094
3394.59,0.02056
3388.81,0.02067
3383.02,0.02061
3377.23,0.02132
3371.45,0.02065
3365.66,0.02073
3359.87,0.02062
3354.09,0.02037
3348.3,0.02095
3342.52,0.02084
3336.73,0.02104
3330.94,0.02109
3325.16,0.02024
3319.37,0.02040
3313.58,0.02074
3307.8,0.02090
3302.01,0.02132
3296.23,0.02126
3290.44,0.02094
3284.65,0.02072
3278.87,0.02103
3273.08,0.02055
3267.29,0.02085
3261.51,0.02073
3255.72,0.02114
3249.94,0.02117
3244.15,0.02082
3238.36,0.02064
3232.58,0.02114
3226.79,0.02075
3221,0.02154
3215.22,0.02128
3209.43,0.02096
3203.65,0.02106
3197.86,0.02079
3192.07,0.02084
3186.29,0.02106
3180.5,0.02162
3174.71,0.02080
3168.93,0.02083
3163.14,0.02127
3157.36,0.02113
3151.57,0.02146
3145.78,0.02048
3140,0.02157
3134.21,0.02143
3128.42,0.02113
3122.64,0.02086
3116.85,0.02141
3111.07,0.02104
3105.28,0.02083
3099.49,0.02160
3093.71,0.02087
3087.92,0.02091
3082.14,0.02107
3076.35,0.02118
3070.56,0.02045
3064.78,0.02114
3058.99,0.02148
3053.2,0.02173
3047.42,0.02110
3041.63,0.02109
3035.85,0.02115
3030.06,0.02081
3024.27,0.02065
3018.49,0.02068
3012.7,0.02058
3006.91,0.02053
3001.13,0.02046
2995.34,0.02066
2989.56,0.02029
2983.77,0.02044
2977.98,0.02006
2972.2,0.02000
2966.41,0.01935
2960.62,0.01961
2954.84,0.01982
2949.05,0.01994
2943.27,0.01969
2937.48,0.01962
2931.69,0.01926
2925.91,0.01977
2920.12,0.02009
2914.33,0.02083
2908.55,0.02059
2902.76,0.02088
2896.98,0.02060
2891.19,0.02051
2885.4,0.02040
2879.62,0.02111
2873.83,0.02043
2868.04,0.02067
2862.26,0.02065
2856.47,0.02094
2850.69,0.02090
2844.9,0.02127
2839.11,0.02134
2833.33,0.02101
2827.54,0.02169
2821.75,0.02150
2815.97,0.02161
2810.18,0.02168
2804.4,0.02216
2798.61,0.02169
2792.82,0.02192
2787.04,0.02178
2781.25,0.02133
2775.46,0.02158
2769.68,0.02198
2763.89,0.02179
2758.11,0.02144
2752.32,0.02141
2746.53,0.02162
2740.75,0.02118
2734.96,0.02161
2729.17,0.02151
2723.39,0.02130
2717.6,0.02191
2711.82,0.02179
2706.03,0.02178
2700.24,0.02157
2694.46,0.02168
2688.67,0.02145
2682.88,0.02151
2677.1,0.02183
2671.31,0.02153
2665.53,0.02186
2659.74,0.02164
2653.95,0.02143
2648.17,0.02191
2642.38,0.02159
2636.59,0.02132
2630.81,0.02182
2625.02,0.02145
2619.24,0.02168
2613.45,0.02147
2607.66,0.02165
2601.88,0.02205
2596.09,0.02149
2590.3,0.02171
2584.52,0.02136
2578.73,0.02118
2572.95,0.02149
2567.16,0.02115
2561.37,0.02140
2555.59,0.02148
2549.8,0.02145
2544.02,0.02156
2538.23,0.02152
2532.44,0.02144
2526.66,0.02171
2520.87,0.02172
2515.08,0.02152
2509.3,0.02176
2503.51,0.02176
2497.73,0.02180
2491.94,0.02140
2486.15,0.02166
2480.37,0.02187
2474.58,0.02203
2468.79,0.02143
2463.01,0.02171
2457.22,0.02175
2451.44,0.02192
2445.65,0.02111
2439.86,0.02100
2434.08,0.02160
2428.29,0.02101
2422.5,0.02134
2416.72,0.02120
2410.93,0.02123
2405.15,0.02142
2399.36,0.02145
2393.57,0.02148
2387.79,0.02145
2382,0.02158
2376.21,0.02169
2370.43,0.02155
2364.64,0.02178
2358.86,0.02112
2353.07,0.02117
2347.28,0.02122
2341.5,0.02147
2335.71,0.02140
2329.92,0.02171
2324.14,0.02168
2318.35,0.02131
2312.57,0.02152
2306.78,0.02125
2300.99,0.02151
2295.21,0.02166
2289.42,0.02125
2283.63,0.02121
2277.85,0.02143
2272.06,0.02138
2266.28,0.02147
2260.49,0.02155
2254.7,0.02103
2248.92,0.02098
2243.13,0.02135
2237.34,0.02104
2231.56,0.02131
2225.77,0.02144
2219.99,0.02145
2214.2,0.02125
2208.41,0.02121
2202.63,0.02125
2196.84,0.02115
2191.05,0.02140
2185.27,0.02148
2179.48,0.02126
2173.7,0.02124
2167.91,0.02139
2162.12,0.02182
2156.34,0.02134
2150.55,0.02122
2144.76,0.02131
2138.98,0.02115
2133.19,0.02081
2127.41,0.02159
2121.62,0.02140
2115.83,0.02140
2110.05,0.02109
2104.26,0.02117
2098.47,0.02133
2092.69,0.02144
2086.9,0.02098
2081.12,0.02111
2075.33,0.02109
2069.54,0.02108
2063.76,0.02139
2057.97,0.02128
2052.19,0.02112
2046.4,0.02085
2040.61,0.02073
2034.83,0.02117
2029.04,0.02123
2023.25,0.02108
2017.47,0.02147
2011.68,0.02139
2005.9,0.02125
2000.11,0.02130
1994.32,0.02118
1988.54,0.02140
1982.75,0.02116
1976.96,0.02116
1971.18,0.02120
1965.39,0.02093
1959.61,0.02115
1953.82,0.02127
1948.03,0.02100
1942.25,0.02106
1936.46,0.02071
1930.67,0.02060
1924.89,0.02053
1919.1,0.02117
1913.32,0.02059
1907.53,0.02095
1901.74,0.02081
1895.96,0.02133
1890.17,0.02101
1884.38,0.02101
1878.6,0.02059
1872.81,0.02093
1867.03,0.02086
1861.24,0.02089
1855.45,0.02042
1849.67,0.02063
1843.88,0.02065
1838.09,0.02031
1832.31,0.02028
1826.52,0.02039
1820.74,0.02040
1814.95,0.02026
1809.16,0.02055
1803.38,0.01990
1797.59,0.02003
1791.8,0.01978
1786.02,0.01951
1780.23,0.01932
1774.45,0.01921
1768.66,0.01868
1762.87,0.01831
1757.09,0.01795
1751.3,0.01772
1745.51,0.01836
1739.73,0.01915
1733.94,0.02049
1728.16,0.02091
1722.37,0.02128
1716.58,0.02141
1710.8,0.02148
1705.01,0.02067
1699.22,0.02032
1693.44,0.01982
1687.65,0.02026
1681.87,0.01936
1676.08,0.01902
1670.29,0.01908
1664.51,0.01883
1658.72,0.01910
1652.93,0.01910
1647.15,0.01910
1641.36,0.01886
1635.58,0.01874
1629.79,0.01873
1624,0.01945
1618.22,0.01952
1612.43,0.01909
1606.64,0.01911
1600.86,0.01910
1595.07,0.01934
1589.29,0.01908
1583.5,0.01893
1577.71,0.01910
1571.93,0.01848
1566.14,0.01895
1560.35,0.01841
1554.57,0.01868
1548.78,0.01808
1543,0.01886
1537.21,0.01872
1531.42,0.01865
1525.64,0.01880
1519.85,0.01889
1514.07,0.01915
1508.28,0.01943
1502.49,0.01890
1496.71,0.01936
1490.92,0.01889
1485.13,0.01863
1479.35,0.01892
1473.56,0.01867
1467.78,0.01864
1461.99,0.01890
1456.2,0.01907
1450.42,0.01895
1444.63,0.01922
1438.84,0.01947
1433.06,0.01901
1427.27,0.01905
1421.49,0.01927
1415.7,0.01905
1409.91,0.01880
1404.13,0.01842
1398.34,0.01860
1392.55,0.01854
1386.77,0.01869
1380.98,0.01865
1375.2,0.01852
1369.41,0.01855
1363.62,0.01864
1357.84,0.01851
1352.05,0.01835
1346.26,0.01819
1340.48,0.01793
1334.69,0.01801
1328.91,0.01810
1323.12,0.01788
1317.33,0.01744
1311.55,0.01729
1305.76,0.01777
1299.97,0.01789
1294.19,0.01792
1288.4,0.01869
1282.62,0.01908
1276.83,0.01913
1271.04,0.01975
1265.26,0.02033
1259.47,0.02044
1253.68,0.02091
1247.9,0.02123
1242.11,0.02032
1236.33,0.02015
1230.54,0.02061
1224.75,0.02009
1218.97,0.01975
1213.18,0.01920
1207.39,0.01923
1201.61,0.01936
1195.82,0.01914
1190.04,0.01908
1184.25,0.01846
1178.46,0.01847
1172.68,0.01839
1166.89,0.01831
1161.1,0.01800
1155.32,0.01780
1149.53,0.01733
1143.75,0.01780
1137.96,0.01835
1132.17,0.01810
1126.39,0.01892
1120.6,0.01923
1114.81,0.01937
1109.03,0.01895
1103.24,0.01872
1097.46,0.01928
1091.67,0.01824
1085.88,0.01895
1080.1,0.01866
1074.31,0.01986
1068.52,0.02049
1062.74,0.02036
1056.95,0.01969
1051.17,0.01979
1045.38,0.02054
1039.59,0.01982
1033.81,0.01957
1028.02,0.01921
1022.24,0.01931
1016.45,0.01975
1010.66,0.02015
1004.88,0.02111
999.09,0.02084
993.304,0.02111
987.518,0.02109
981.731,0.02088
975.945,0.02099
970.159,0.02114
964.373,0.02064
958.586,0.02059
952.8,0.02030
947.014,0.02007
941.228,0.01976
935.441,0.01986
929.655,0.01996
923.869,0.02006
918.083,0.01960
912.297,0.01949
906.51,0.01957
900.724,0.01832
894.938,0.01921
889.152,0.01962
883.365,0.01923
877.579,0.01952
871.793,0.01907
866.007,0.01964
860.22,0.01935
854.434,0.01870
848.648,0.01993
842.862,0.01896
837.075,0.01953
831.289,0.01965
825.503,0.01982
819.717,0.01861
813.931,0.01867
808.144,0.02009
802.358,0.01919
796.572,0.01853
790.786,0.01873
784.999,0.01948
779.213,0.01966
773.427,0.01836
767.641,0.01820
761.854,0.01823
756.068,0.01874
750.282,0.01859
744.496,0.01919
738.709,0.01842
732.923,0.01832
727.137,0.01872
721.351,0.01826
715.565,0.01905
709.778,0.01701
703.992,0.01784
698.206,0.01833
692.42,0.01807
686.633,0.01698
680.847,0.01819
675.061,0.01794
669.275,0.01756
663.488,0.01737
657.702,0.01701
651.916,0.01753
646.13,0.01717
640.343,0.01678
634.557,0.01659
628.771,0.01559
622.985,0.01549
617.198,0.01458
611.412,0.01537
605.626,0.01657
599.84,0.01926