File: 01_Data/Vinyl_Siding/FTIR/IS/Vinyl_Siding_IS_S_220914_R7.dpt
7497.03,0.75657
7491.25,0.75895
7485.46,0.74923
7479.67,0.75506
7473.89,0.76000
7468.1,0.75328
7462.32,0.74862
7456.53,0.75170
7450.74,0.75691
7444.96,0.74884
7439.17,0.74934
7433.38,0.74436
7427.6,0.74588
7421.81,0.73997
7416.03,0.74402
7410.24,0.75010
7404.45,0.74265
7398.67,0.74775
7392.88,0.73822
7387.09,0.73038
7381.31,0.73439
7375.52,0.73878
7369.74,0.72552
7363.95,0.73136
7358.16,0.72913
7352.38,0.72194
7346.59,0.72105
7340.8,0.71953
7335.02,0.71263
7329.23,0.70878
7323.45,0.70615
7317.66,0.69875
7311.87,0.69526
7306.09,0.68885
7300.3,0.69476
7294.51,0.68247
7288.73,0.67216
7282.94,0.67123
7277.16,0.65638
7271.37,0.65433
7265.58,0.65070
7259.8,0.64402
7254.01,0.64668
7248.22,0.63683
7242.44,0.62620
7236.65,0.62700
7230.87,0.62305
7225.08,0.61821
7219.29,0.61214
7213.51,0.61191
7207.72,0.61485
7201.93,0.61297
7196.15,0.61248
7190.36,0.62027
7184.58,0.61680
7178.79,0.61548
7173,0.60495
7167.22,0.60089
7161.43,0.60087
7155.65,0.60095
7149.86,0.60370
7144.07,0.59884
7138.29,0.59653
7132.5,0.59005
7126.71,0.59263
7120.93,0.59123
7115.14,0.59800
7109.36,0.59463
7103.57,0.59378
7097.78,0.59612
7092,0.59611
7086.21,0.59304
7080.42,0.58307
7074.64,0.57666
7068.85,0.58373
7063.07,0.58869
7057.28,0.58800
7051.49,0.58125
7045.71,0.57930
7039.92,0.57854
7034.13,0.57981
7028.35,0.57763
7022.56,0.57683
7016.78,0.57901
7010.99,0.58182
7005.2,0.58198
6999.42,0.57705
6993.63,0.58091
6987.84,0.58237
6982.06,0.59151
6976.27,0.59490
6970.49,0.59928
6964.7,0.59998
6958.91,0.60058
6953.13,0.61094
6947.34,0.61440
6941.55,0.61200
6935.77,0.61274
6929.98,0.60703
6924.2,0.61729
6918.41,0.61961
6912.62,0.61886
6906.84,0.62334
6901.05,0.62160
6895.26,0.62031
6889.48,0.62930
6883.69,0.62489
6877.91,0.62797
6872.12,0.62924
6866.33,0.62874
6860.55,0.62911
6854.76,0.62937
6848.97,0.63604
6843.19,0.63798
6837.4,0.63903
6831.62,0.63896
6825.83,0.63743
6820.04,0.63925
6814.26,0.63939
6808.47,0.63781
6802.68,0.63795
6796.9,0.63890
6791.11,0.63867
6785.33,0.63965
6779.54,0.64434
6773.75,0.64824
6767.97,0.64539
6762.18,0.64554
6756.39,0.64720
6750.61,0.64501
6744.82,0.64469
6739.04,0.63965
6733.25,0.64195
6727.46,0.64931
6721.68,0.65054
6715.89,0.65235
6710.1,0.64957
6704.32,0.64567
6698.53,0.65275
6692.75,0.65560
6686.96,0.65120
6681.17,0.65359
6675.39,0.65304
6669.6,0.65671
6663.82,0.65298
6658.03,0.66125
6652.24,0.65423
6646.46,0.66309
6640.67,0.66177
6634.88,0.65873
6629.1,0.65594
6623.31,0.65875
6617.53,0.65815
6611.74,0.65619
6605.95,0.65752
6600.17,0.65774
6594.38,0.66433
6588.59,0.66150
6582.81,0.66137
6577.02,0.66269
6571.24,0.66154
6565.45,0.66262
6559.66,0.65951
6553.88,0.66054
6548.09,0.66237
6542.3,0.66182
6536.52,0.66150
6530.73,0.66298
6524.95,0.66442
6519.16,0.66447
6513.37,0.65911
6507.59,0.66813
6501.8,0.66544
6496.01,0.66173
6490.23,0.66335
6484.44,0.66282
6478.66,0.66179
6472.87,0.66079
6467.08,0.66512
6461.3,0.66604
6455.51,0.66841
6449.72,0.66754
6443.94,0.66589
6438.15,0.66988
6432.37,0.66993
6426.58,0.67006
6420.79,0.67138
6415.01,0.67065
6409.22,0.67093
6403.43,0.67230
6397.65,0.67690
6391.86,0.66849
6386.08,0.66877
6380.29,0.66851
6374.5,0.67154
6368.72,0.67466
6362.93,0.67428
6357.14,0.67052
6351.36,0.66635
6345.57,0.67217
6339.79,0.66635
6334,0.67025
6328.21,0.67016
6322.43,0.66902
6316.64,0.67065
6310.85,0.66966
6305.07,0.67290
6299.28,0.66614
6293.5,0.66725
6287.71,0.67017
6281.92,0.66631
6276.14,0.66530
6270.35,0.66425
6264.56,0.66960
6258.78,0.66606
6252.99,0.66673
6247.21,0.66480
6241.42,0.66726
6235.63,0.66624
6229.85,0.66506
6224.06,0.66478
6218.27,0.66747
6212.49,0.66524
6206.7,0.66168
6200.92,0.66465
6195.13,0.66248
6189.34,0.66019
6183.56,0.66028
6177.77,0.65820
6171.98,0.65688
6166.2,0.65436
6160.41,0.64804
6154.63,0.64840
6148.84,0.64102
6143.05,0.63773
6137.27,0.63511
6131.48,0.63247
6125.7,0.62470
6119.91,0.62656
6114.12,0.62735
6108.34,0.62627
6102.55,0.62121
6096.76,0.62607
6090.98,0.62218
6085.19,0.61981
6079.41,0.62222
6073.62,0.62297
6067.83,0.62089
6062.05,0.62056
6056.26,0.62283
6050.47,0.61867
6044.69,0.60679
6038.9,0.59720
6033.12,0.58680
6027.33,0.57128
6021.54,0.55509
6015.76,0.53938
6009.97,0.51949
6004.18,0.50441
5998.4,0.48949
5992.61,0.47875
5986.83,0.46213
5981.04,0.44602
5975.25,0.43823
5969.47,0.43060
5963.68,0.42423
5957.89,0.41868
5952.11,0.41576
5946.32,0.41270
5940.54,0.41083
5934.75,0.40455
5928.96,0.39690
5923.18,0.38448
5917.39,0.37373
5911.6,0.36089
5905.82,0.34870
5900.03,0.33999
5894.25,0.33021
5888.46,0.32018
5882.67,0.31599
5876.89,0.31418
5871.1,0.30987
5865.31,0.30537
5859.53,0.29908
5853.74,0.29382
5847.96,0.29157
5842.17,0.28437
5836.38,0.28503
5830.6,0.28408
5824.81,0.28512
5819.02,0.28223
5813.24,0.28732
5807.45,0.29208
5801.67,0.29584
5795.88,0.30141
5790.09,0.30690
5784.31,0.31092
5778.52,0.31395
5772.73,0.31560
5766.95,0.31814
5761.16,0.31903
5755.38,0.31429
5749.59,0.31045
5743.8,0.31002
5738.02,0.30533
5732.23,0.30208
5726.44,0.30174
5720.66,0.29958
5714.87,0.29905
5709.09,0.30015
5703.3,0.30021
5697.51,0.30293
5691.73,0.30851
5685.94,0.31226
5680.15,0.31812
5674.37,0.32281
5668.58,0.32819
5662.8,0.33115
5657.01,0.33367
5651.22,0.33780
5645.44,0.33933
5639.65,0.34051
5633.87,0.34388
5628.08,0.34215
5622.29,0.34649
5616.51,0.34712
5610.72,0.34857
5604.93,0.35057
5599.15,0.35497
5593.36,0.35507
5587.58,0.35737
5581.79,0.36083
5576,0.36425
5570.22,0.36544
5564.43,0.36879
5558.64,0.37242
5552.86,0.37177
5547.07,0.37430
5541.29,0.37552
5535.5,0.37482
5529.71,0.37528
5523.93,0.37836
5518.14,0.37921
5512.35,0.37764
5506.57,0.37905
5500.78,0.37708
5495,0.37775
5489.21,0.37602
5483.42,0.37699
5477.64,0.37625
5471.85,0.37374
5466.06,0.37452
5460.28,0.37395
5454.49,0.37460
5448.71,0.37611
5442.92,0.37703
5437.13,0.38092
5431.35,0.38277
5425.56,0.38456
5419.77,0.38456
5413.99,0.38602
5408.2,0.38684
5402.42,0.38545
5396.63,0.38790
5390.84,0.38837
5385.06,0.38672
5379.27,0.38936
5373.48,0.39181
5367.7,0.39412
5361.91,0.39670
5356.13,0.39955
5350.34,0.40421
5344.55,0.40558
5338.77,0.40634
5332.98,0.40934
5327.19,0.41185
5321.41,0.41375
5315.62,0.41523
5309.84,0.41605
5304.05,0.41571
5298.26,0.41604
5292.48,0.41487
5286.69,0.41492
5280.9,0.41322
5275.12,0.40621
5269.33,0.39968
5263.55,0.39588
5257.76,0.38859
5251.97,0.38694
5246.19,0.38947
5240.4,0.39263
5234.61,0.39757
5228.83,0.39970
5223.04,0.40180
5217.26,0.40007
5211.47,0.40025
5205.68,0.39839
5199.9,0.39861
5194.11,0.39730
5188.32,0.39688
5182.54,0.39502
5176.75,0.39205
5170.97,0.39144
5165.18,0.39118
5159.39,0.39046
5153.61,0.38786
5147.82,0.38672
5142.03,0.38456
5136.25,0.38546
5130.46,0.38992
5124.68,0.39243
5118.89,0.39450
5113.1,0.39825
5107.32,0.40042
5101.53,0.40230
5095.75,0.40275
5089.96,0.40383
5084.17,0.40511
5078.39,0.40573
5072.6,0.40644
5066.81,0.40916
5061.03,0.40764
5055.24,0.40944
5049.46,0.41040
5043.67,0.41157
5037.88,0.41347
5032.1,0.41486
5026.31,0.41455
5020.52,0.41506
5014.74,0.41487
5008.95,0.41453
5003.17,0.41578
4997.38,0.41552
4991.59,0.41574
4985.81,0.41504
4980.02,0.41501
4974.23,0.41313
4968.45,0.41471
4962.66,0.41391
4956.88,0.41351
4951.09,0.41419
4945.3,0.41362
4939.52,0.41282
4933.73,0.41333
4927.94,0.41284
4922.16,0.41110
4916.37,0.40984
4910.59,0.40856
4904.8,0.40786
4899.01,0.40654
4893.23,0.40455
4887.44,0.40138
4881.65,0.40029
4875.87,0.39846
4870.08,0.39578
4864.3,0.39420
4858.51,0.39536
4852.72,0.39714
4846.94,0.39694
4841.15,0.39775
4835.36,0.39890
4829.58,0.39839
4823.79,0.40017
4818.01,0.39946
4812.22,0.39967
4806.43,0.39954
4800.65,0.40159
4794.86,0.40034
4789.07,0.39888
4783.29,0.39651
4777.5,0.39403
4771.72,0.39388
4765.93,0.39386
4760.14,0.39220
4754.36,0.39239
4748.57,0.39045
4742.78,0.39014
4737,0.38665
4731.21,0.38353
4725.43,0.38148
4719.64,0.37610
4713.85,0.37056
4708.07,0.36771
4702.28,0.36245
4696.49,0.35674
4690.71,0.34781
4684.92,0.33247
4679.14,0.31046
4673.35,0.28959
4667.56,0.28040
4661.78,0.28479
4655.99,0.29695
4650.2,0.30764
4644.42,0.30840
4638.63,0.30143
4632.85,0.29240
4627.06,0.28680
4621.27,0.28848
4615.49,0.28732
4609.7,0.28484
4603.92,0.29086
4598.13,0.30636
4592.34,0.31880
4586.56,0.32140
4580.77,0.31317
4574.98,0.30302
4569.2,0.31067
4563.41,0.32397
4557.63,0.33136
4551.84,0.33648
4546.05,0.33807
4540.27,0.33659
4534.48,0.33380
4528.69,0.33286
4522.91,0.32876
4517.12,0.32520
4511.34,0.32300
4505.55,0.31890
4499.76,0.31554
4493.98,0.31217
4488.19,0.30642
4482.4,0.30102
4476.62,0.29249
4470.83,0.28284
4465.05,0.27444
4459.26,0.26327
4453.47,0.25151
4447.69,0.23953
4441.9,0.22824
4436.11,0.21893
4430.33,0.20826
4424.54,0.19794
4418.76,0.18746
4412.97,0.17650
4407.18,0.16831
4401.4,0.16129
4395.61,0.15417
4389.82,0.14733
4384.04,0.14227
4378.25,0.13684
4372.47,0.13350
4366.68,0.12981
4360.89,0.12735
4355.11,0.12661
4349.32,0.12596
4343.53,0.12640
4337.75,0.12824
4331.96,0.12996
4326.18,0.13132
4320.39,0.13329
4314.6,0.13398
4308.82,0.13394
4303.03,0.13381
4297.24,0.13280
4291.46,0.13137
4285.67,0.12887
4279.89,0.12766
4274.1,0.12681
4268.31,0.12428
4262.53,0.12360
4256.74,0.12291
4250.95,0.12245
4245.17,0.12354
4239.38,0.12403
4233.6,0.12395
4227.81,0.12369
4222.02,0.12357
4216.24,0.12360
4210.45,0.12404
4204.66,0.12434
4198.88,0.12582
4193.09,0.12667
4187.31,0.12659
4181.52,0.12647
4175.73,0.12835
4169.95,0.12835
4164.16,0.12845
4158.37,0.12833
4152.59,0.12940
4146.8,0.13071
4141.02,0.12964
4135.23,0.12906
4129.44,0.12944
4123.66,0.12907
4117.87,0.12837
4112.09,0.12640
4106.3,0.12563
4100.51,0.12527
4094.73,0.12422
4088.94,0.12250
4083.15,0.12021
4077.37,0.11708
4071.58,0.11368
4065.8,0.11079
4060.01,0.10968
4054.22,0.10891
4048.44,0.10950
4042.65,0.10888
4036.86,0.10954
4031.08,0.11263
4025.29,0.11606
4019.51,0.12053
4013.72,0.12496
4007.93,0.12675
4002.15,0.12818
3996.36,0.13091
3990.57,0.13222
3984.79,0.13405
3979,0.13517
3973.22,0.13570
3967.43,0.13770
3961.64,0.13782
3955.86,0.13885
3950.07,0.13823
3944.28,0.13912
3938.5,0.13813
3932.71,0.13865
3926.93,0.13996
3921.14,0.13980
3915.35,0.14044
3909.57,0.14048
3903.78,0.14007
3897.99,0.14059
3892.21,0.14113
3886.42,0.14174
3880.64,0.14141
3874.85,0.14161
3869.06,0.14123
3863.28,0.14121
3857.49,0.14092
3851.7,0.14068
3845.92,0.14112
3840.13,0.14004
3834.35,0.13963
3828.56,0.14019
3822.77,0.14014
3816.99,0.14064
3811.2,0.14189
3805.41,0.14235
3799.63,0.14401
3793.84,0.14550
3788.06,0.14686
3782.27,0.14766
3776.48,0.14812
3770.7,0.14864
3764.91,0.14901
3759.12,0.14985
3753.34,0.15145
3747.55,0.15108
3741.77,0.15075
3735.98,0.15239
3730.19,0.15321
3724.41,0.15190
3718.62,0.15143
3712.83,0.14952
3707.05,0.14463
3701.26,0.13810
3695.48,0.13293
3689.69,0.12715
3683.9,0.12111
3678.12,0.11631
3672.33,0.11240
3666.54,0.10966
3660.76,0.10794
3654.97,0.10597
3649.19,0.10407
3643.4,0.10449
3637.61,0.10558
3631.83,0.10524
3626.04,0.10366
3620.25,0.10263
3614.47,0.10381
3608.68,0.10400
3602.9,0.10435
3597.11,0.10368
3591.32,0.10318
3585.54,0.10292
3579.75,0.10258
3573.97,0.10138
3568.18,0.10047
3562.39,0.09898
3556.61,0.09734
3550.82,0.09665
3545.03,0.09525
3539.25,0.09486
3533.46,0.09446
3527.68,0.09441
3521.89,0.09432
3516.1,0.09402
3510.32,0.09388
3504.53,0.09404
3498.74,0.09447
3492.96,0.09319
3487.17,0.09249
3481.39,0.09175
3475.6,0.09187
3469.81,0.09009
3464.03,0.08875
3458.24,0.08646
3452.45,0.08532
3446.67,0.08405
3440.88,0.08363
3435.1,0.08565
3429.31,0.08662
3423.52,0.08682
3417.74,0.08726
3411.95,0.08739
3406.16,0.08684
3400.38,0.08628
3394.59,0.08560
3388.81,0.08525
3383.02,0.08424
3377.23,0.08384
3371.45,0.08227
3365.66,0.08087
3359.87,0.07920
3354.09,0.07771
3348.3,0.07606
3342.52,0.07353
3336.73,0.07117
3330.94,0.06853
3325.16,0.06629
3319.37,0.06396
3313.58,0.06124
3307.8,0.06002
3302.01,0.06023
3296.23,0.06090
3290.44,0.06420
3284.65,0.06666
3278.87,0.06862
3273.08,0.07024
3267.29,0.07157
3261.51,0.07313
3255.72,0.07432
3249.94,0.07588
3244.15,0.07667
3238.36,0.07779
3232.58,0.07786
3226.79,0.07811
3221,0.07888
3215.22,0.07845
3209.43,0.07865
3203.65,0.07918
3197.86,0.07873
3192.07,0.07881
3186.29,0.07895
3180.5,0.07930
3174.71,0.07983
3168.93,0.07961
3163.14,0.07938
3157.36,0.08073
3151.57,0.08058
3145.78,0.08040
3140,0.08035
3134.21,0.07928
3128.42,0.07864
3122.64,0.07770
3116.85,0.07496
3111.07,0.07033
3105.28,0.06670
3099.49,0.06636
3093.71,0.06447
3087.92,0.06030
3082.14,0.05857
3076.35,0.06018
3070.56,0.05840
3064.78,0.05634
3058.99,0.05683
3053.2,0.05851
3047.42,0.06009
3041.63,0.05842
3035.85,0.05617
3030.06,0.05476
3024.27,0.05512
3018.49,0.05824
3012.7,0.06030
3006.91,0.05988
3001.13,0.05924
2995.34,0.05961
2989.56,0.05823
2983.77,0.05650
2977.98,0.05438
2972.2,0.05253
2966.41,0.05128
2960.62,0.05184
2954.84,0.05299
2949.05,0.05292
2943.27,0.05358
2937.48,0.05434
2931.69,0.05612
2925.91,0.05914
2920.12,0.06042
2914.33,0.05986
2908.55,0.05871
2902.76,0.05851
2896.98,0.05794
2891.19,0.05842
2885.4,0.05799
2879.62,0.05665
2873.83,0.05686
2868.04,0.05722
2862.26,0.05826
2856.47,0.05972
2850.69,0.06126
2844.9,0.06261
2839.11,0.06375
2833.33,0.06568
2827.54,0.06692
2821.75,0.06781
2815.97,0.06837
2810.18,0.06907
2804.4,0.06955
2798.61,0.07059
2792.82,0.07107
2787.04,0.07176
2781.25,0.07278
2775.46,0.07281
2769.68,0.07361
2763.89,0.07359
2758.11,0.07285
2752.32,0.07352
2746.53,0.07289
2740.75,0.07256
2734.96,0.07244
2729.17,0.07312
2723.39,0.07332
2717.6,0.07362
2711.82,0.07400
2706.03,0.07452
2700.24,0.07428
2694.46,0.07454
2688.67,0.07399
2682.88,0.07429
2677.1,0.07436
2671.31,0.07439
2665.53,0.07458
2659.74,0.07482
2653.95,0.07477
2648.17,0.07487
2642.38,0.07411
2636.59,0.07384
2630.81,0.07374
2625.02,0.07393
2619.24,0.07443
2613.45,0.07396
2607.66,0.07292
2601.88,0.07313
2596.09,0.07297
2590.3,0.07339
2584.52,0.07320
2578.73,0.07296
2572.95,0.07343
2567.16,0.07355
2561.37,0.07397
2555.59,0.07346
2549.8,0.07353
2544.02,0.07330
2538.23,0.07346
2532.44,0.07307
2526.66,0.07264
2520.87,0.07238
2515.08,0.07185
2509.3,0.07221
2503.51,0.07223
2497.73,0.07258
2491.94,0.07274
2486.15,0.07283
2480.37,0.07330
2474.58,0.07371
2468.79,0.07389
2463.01,0.07420
2457.22,0.07448
2451.44,0.07462
2445.65,0.07446
2439.86,0.07451
2434.08,0.07495
2428.29,0.07473
2422.5,0.07457
2416.72,0.07452
2410.93,0.07438
2405.15,0.07422
2399.36,0.07442
2393.57,0.07498
2387.79,0.07485
2382,0.07529
2376.21,0.07562
2370.43,0.07475
2364.64,0.07426
2358.86,0.07444
2353.07,0.07355
2347.28,0.07268
2341.5,0.07207
2335.71,0.07248
2329.92,0.07408
2324.14,0.07464
2318.35,0.07441
2312.57,0.07430
2306.78,0.07545
2300.99,0.07534
2295.21,0.07470
2289.42,0.07498
2283.63,0.07500
2277.85,0.07453
2272.06,0.07410
2266.28,0.07319
2260.49,0.07181
2254.7,0.06896
2248.92,0.06330
2243.13,0.05698
2237.34,0.05584
2231.56,0.06063
2225.77,0.07136
2219.99,0.07696
2214.2,0.07915
2208.41,0.08021
2202.63,0.08116
2196.84,0.08122
2191.05,0.08088
2185.27,0.08074
2179.48,0.08175
2173.7,0.08267
2167.91,0.08287
2162.12,0.08289
2156.34,0.08300
2150.55,0.08234
2144.76,0.08213
2138.98,0.08179
2133.19,0.08270
2127.41,0.08408
2121.62,0.08591
2115.83,0.08723
2110.05,0.08850
2104.26,0.08877
2098.47,0.08971
2092.69,0.08974
2086.9,0.08978
2081.12,0.08944
2075.33,0.08875
2069.54,0.08819
2063.76,0.08738
2057.97,0.08655
2052.19,0.08620
2046.4,0.08502
2040.61,0.08399
2034.83,0.08318
2029.04,0.08274
2023.25,0.08239
2017.47,0.08249
2011.68,0.08310
2005.9,0.08251
2000.11,0.08154
1994.32,0.07966
1988.54,0.07787
1982.75,0.07674
1976.96,0.07585
1971.18,0.07360
1965.39,0.07101
1959.61,0.06940
1953.82,0.06878
1948.03,0.06967
1942.25,0.07266
1936.46,0.07620
1930.67,0.07961
1924.89,0.08095
1919.1,0.08143
1913.32,0.08053
1907.53,0.07829
1901.74,0.07569
1895.96,0.07362
1890.17,0.07185
1884.38,0.07117
1878.6,0.07077
1872.81,0.07292
1867.03,0.07612
1861.24,0.08005
1855.45,0.08220
1849.67,0.08259
1843.88,0.08041
1838.09,0.07746
1832.31,0.07399
1826.52,0.07050
1820.74,0.06727
1814.95,0.06451
1809.16,0.06227
1803.38,0.06027
1797.59,0.05936
1791.8,0.05918
1786.02,0.05961
1780.23,0.06006
1774.45,0.05863
1768.66,0.05714
1762.87,0.05490
1757.09,0.05213
1751.3,0.04939
1745.51,0.04672
1739.73,0.04796
1733.94,0.05372
1728.16,0.05823
1722.37,0.05970
1716.58,0.05898
1710.8,0.05812
1705.01,0.05837
1699.22,0.05850
1693.44,0.05821
1687.65,0.05864
1681.87,0.05925
1676.08,0.05917
1670.29,0.05943
1664.51,0.05888
1658.72,0.05822
1652.93,0.05832
1647.15,0.05853
1641.36,0.05857
1635.58,0.05882
1629.79,0.06036
1624,0.06007
1618.22,0.06024
1612.43,0.05890
1606.64,0.05539
1600.86,0.05519
1595.07,0.05760
1589.29,0.05833
1583.5,0.05599
1577.71,0.05753
1571.93,0.05785
1566.14,0.05689
1560.35,0.05603
1554.57,0.05493
1548.78,0.05462
1543,0.05562
1537.21,0.05626
1531.42,0.05752
1525.64,0.05867
1519.85,0.05934
1514.07,0.05848
1508.28,0.05770
1502.49,0.05402
1496.71,0.05075
1490.92,0.05373
1485.13,0.05457
1479.35,0.05329
1473.56,0.05241
1467.78,0.05214
1461.99,0.05113
1456.2,0.05029
1450.42,0.05491
1444.63,0.05655
1438.84,0.05653
1433.06,0.05657
1427.27,0.05671
1421.49,0.05657
1415.7,0.05642
1409.91,0.05638
1404.13,0.05461
1398.34,0.05363
1392.55,0.05363
1386.77,0.05363
1380.98,0.05321
1375.2,0.05352
1369.41,0.05360
1363.62,0.05368
1357.84,0.05364
1352.05,0.05390
1346.26,0.05383
1340.48,0.05348
1334.69,0.05341
1328.91,0.05295
1323.12,0.05343
1317.33,0.05336
1311.55,0.05278
1305.76,0.05272
1299.97,0.05253
1294.19,0.05285
1288.4,0.05227
1282.62,0.05182
1276.83,0.05166
1271.04,0.05153
1265.26,0.05202
1259.47,0.05250
1253.68,0.05270
1247.9,0.05331
1242.11,0.05394
1236.33,0.05403
1230.54,0.05381
1224.75,0.05383
1218.97,0.05372
1213.18,0.05352
1207.39,0.05279
1201.61,0.05274
1195.82,0.05274
1190.04,0.05162
1184.25,0.05103
1178.46,0.05166
1172.68,0.05296
1166.89,0.05568
1161.1,0.05766
1155.32,0.06051
1149.53,0.06087
1143.75,0.05987
1137.96,0.05863
1132.17,0.05812
1126.39,0.05711
1120.6,0.05699
1114.81,0.05657
1109.03,0.05691
1103.24,0.05696
1097.46,0.05568
1091.67,0.05606
1085.88,0.05550
1080.1,0.05429
1074.31,0.05423
1068.52,0.05509
1062.74,0.05595
1056.95,0.05708
1051.17,0.05581
1045.38,0.05644
1039.59,0.05542
1033.81,0.05542
1028.02,0.05623
1022.24,0.05648
1016.45,0.05600
1010.66,0.05680
1004.88,0.05606
999.09,0.05628
993.304,0.05652
987.518,0.05570
981.731,0.05531
975.945,0.05520
970.159,0.05468
964.373,0.05510
958.586,0.05540
952.8,0.05516
947.014,0.05425
941.228,0.05506
935.441,0.05506
929.655,0.05439
923.869,0.05444
918.083,0.05439
912.297,0.05359
906.51,0.05399
900.724,0.05427
894.938,0.05453
889.152,0.05396
883.365,0.05398
877.579,0.05433
871.793,0.05382
866.007,0.05359
860.22,0.05286
854.434,0.05269
848.648,0.05298
842.862,0.05217
837.075,0.05234
831.289,0.05277
825.503,0.05279
819.717,0.05279
813.931,0.05226
808.144,0.05223
802.358,0.05186
796.572,0.05092
790.786,0.05015
784.999,0.04810
779.213,0.04726
773.427,0.04608
767.641,0.04685
761.854,0.05016
756.068,0.05468
750.282,0.05493
744.496,0.05408
738.709,0.05310
732.923,0.05239
727.137,0.05024
721.351,0.04818
715.565,0.04390
709.778,0.04058
703.992,0.05042
698.206,0.07148
692.42,0.06762
686.633,0.06119
680.847,0.05861
675.061,0.05835
669.275,0.05666
663.488,0.05653
657.702,0.05503
651.916,0.05501
646.13,0.05471
640.343,0.05543
634.557,0.05460
628.771,0.05396
622.985,0.05239
617.198,0.05292
611.412,0.05382
605.626,0.05535
599.84,0.05215