File: 01_Data/Vinyl_Siding/FTIR/IS/Vinyl_Siding_IS_S_220914_R4.dpt
7497.03,0.74956
7491.25,0.75843
7485.46,0.74827
7479.67,0.74736
7473.89,0.75709
7468.1,0.75821
7462.32,0.74634
7456.53,0.74529
7450.74,0.74952
7444.96,0.74737
7439.17,0.74627
7433.38,0.74451
7427.6,0.73709
7421.81,0.74181
7416.03,0.73722
7410.24,0.74281
7404.45,0.73481
7398.67,0.73006
7392.88,0.73414
7387.09,0.72720
7381.31,0.73017
7375.52,0.72668
7369.74,0.71600
7363.95,0.72327
7358.16,0.72782
7352.38,0.72285
7346.59,0.72122
7340.8,0.71759
7335.02,0.70933
7329.23,0.70297
7323.45,0.70019
7317.66,0.69819
7311.87,0.69619
7306.09,0.68350
7300.3,0.68814
7294.51,0.67464
7288.73,0.67339
7282.94,0.67113
7277.16,0.65849
7271.37,0.65800
7265.58,0.65732
7259.8,0.64272
7254.01,0.64630
7248.22,0.63478
7242.44,0.63357
7236.65,0.62484
7230.87,0.61311
7225.08,0.61992
7219.29,0.62088
7213.51,0.61659
7207.72,0.60960
7201.93,0.61355
7196.15,0.61756
7190.36,0.61685
7184.58,0.60921
7178.79,0.61391
7173,0.59982
7167.22,0.60190
7161.43,0.60217
7155.65,0.60079
7149.86,0.59066
7144.07,0.59311
7138.29,0.59361
7132.5,0.58576
7126.71,0.58561
7120.93,0.58936
7115.14,0.58245
7109.36,0.59397
7103.57,0.58455
7097.78,0.58416
7092,0.58395
7086.21,0.58535
7080.42,0.58434
7074.64,0.57670
7068.85,0.58046
7063.07,0.57585
7057.28,0.57102
7051.49,0.57751
7045.71,0.58551
7039.92,0.57907
7034.13,0.58580
7028.35,0.57518
7022.56,0.57817
7016.78,0.57271
7010.99,0.57195
7005.2,0.57363
6999.42,0.57312
6993.63,0.58026
6987.84,0.58621
6982.06,0.58329
6976.27,0.58826
6970.49,0.59303
6964.7,0.59936
6958.91,0.59819
6953.13,0.60768
6947.34,0.60869
6941.55,0.60349
6935.77,0.60754
6929.98,0.61141
6924.2,0.60716
6918.41,0.61187
6912.62,0.61361
6906.84,0.61441
6901.05,0.61209
6895.26,0.61844
6889.48,0.61637
6883.69,0.61957
6877.91,0.62273
6872.12,0.62206
6866.33,0.62081
6860.55,0.62288
6854.76,0.62653
6848.97,0.62957
6843.19,0.62929
6837.4,0.63192
6831.62,0.63203
6825.83,0.63261
6820.04,0.63293
6814.26,0.63406
6808.47,0.63420
6802.68,0.63259
6796.9,0.63489
6791.11,0.63551
6785.33,0.63622
6779.54,0.63775
6773.75,0.63724
6767.97,0.64256
6762.18,0.63875
6756.39,0.64326
6750.61,0.63680
6744.82,0.63980
6739.04,0.63940
6733.25,0.64161
6727.46,0.64115
6721.68,0.64483
6715.89,0.64351
6710.1,0.65006
6704.32,0.64518
6698.53,0.64543
6692.75,0.64735
6686.96,0.64954
6681.17,0.65056
6675.39,0.65132
6669.6,0.64963
6663.82,0.65190
6658.03,0.64974
6652.24,0.65485
6646.46,0.65059
6640.67,0.65779
6634.88,0.64900
6629.1,0.65757
6623.31,0.65846
6617.53,0.65351
6611.74,0.65242
6605.95,0.65381
6600.17,0.65278
6594.38,0.65363
6588.59,0.65106
6582.81,0.65106
6577.02,0.65594
6571.24,0.65359
6565.45,0.66025
6559.66,0.65576
6553.88,0.65059
6548.09,0.65577
6542.3,0.65300
6536.52,0.65484
6530.73,0.65175
6524.95,0.65450
6519.16,0.65702
6513.37,0.65358
6507.59,0.66352
6501.8,0.65763
6496.01,0.65755
6490.23,0.65733
6484.44,0.66063
6478.66,0.65858
6472.87,0.66214
6467.08,0.65622
6461.3,0.65719
6455.51,0.65919
6449.72,0.65723
6443.94,0.66915
6438.15,0.66141
6432.37,0.66287
6426.58,0.66720
6420.79,0.66501
6415.01,0.66063
6409.22,0.66513
6403.43,0.66834
6397.65,0.66739
6391.86,0.66047
6386.08,0.66932
6380.29,0.66838
6374.5,0.66486
6368.72,0.66367
6362.93,0.66356
6357.14,0.66585
6351.36,0.66287
6345.57,0.66455
6339.79,0.66474
6334,0.66310
6328.21,0.66649
6322.43,0.66531
6316.64,0.66519
6310.85,0.66059
6305.07,0.65986
6299.28,0.66215
6293.5,0.66023
6287.71,0.66288
6281.92,0.66172
6276.14,0.66308
6270.35,0.65960
6264.56,0.65987
6258.78,0.65900
6252.99,0.66133
6247.21,0.66154
6241.42,0.65888
6235.63,0.65994
6229.85,0.66160
6224.06,0.65779
6218.27,0.65913
6212.49,0.65711
6206.7,0.65584
6200.92,0.65783
6195.13,0.65888
6189.34,0.65375
6183.56,0.65512
6177.77,0.65225
6171.98,0.64902
6166.2,0.65023
6160.41,0.64464
6154.63,0.63977
6148.84,0.63620
6143.05,0.63380
6137.27,0.63202
6131.48,0.62642
6125.7,0.62381
6119.91,0.62045
6114.12,0.61898
6108.34,0.61955
6102.55,0.61867
6096.76,0.61918
6090.98,0.61541
6085.19,0.61190
6079.41,0.61099
6073.62,0.61064
6067.83,0.61607
6062.05,0.61559
6056.26,0.61498
6050.47,0.60895
6044.69,0.60613
6038.9,0.59274
6033.12,0.57975
6027.33,0.56609
6021.54,0.55113
6015.76,0.53199
6009.97,0.51685
6004.18,0.50233
5998.4,0.48526
5992.61,0.47013
5986.83,0.45698
5981.04,0.43995
5975.25,0.43108
5969.47,0.42373
5963.68,0.41895
5957.89,0.41741
5952.11,0.41402
5946.32,0.41014
5940.54,0.40933
5934.75,0.40295
5928.96,0.39368
5923.18,0.38162
5917.39,0.37022
5911.6,0.35659
5905.82,0.34780
5900.03,0.33585
5894.25,0.32482
5888.46,0.32091
5882.67,0.31541
5876.89,0.31102
5871.1,0.30672
5865.31,0.30362
5859.53,0.29797
5853.74,0.29318
5847.96,0.28986
5842.17,0.28489
5836.38,0.28368
5830.6,0.28521
5824.81,0.28293
5819.02,0.28604
5813.24,0.28522
5807.45,0.29088
5801.67,0.29461
5795.88,0.29987
5790.09,0.30167
5784.31,0.30715
5778.52,0.31186
5772.73,0.31298
5766.95,0.31648
5761.16,0.31702
5755.38,0.31535
5749.59,0.30916
5743.8,0.30678
5738.02,0.30454
5732.23,0.30096
5726.44,0.29942
5720.66,0.29697
5714.87,0.29790
5709.09,0.29526
5703.3,0.29565
5697.51,0.29716
5691.73,0.30500
5685.94,0.31053
5680.15,0.31536
5674.37,0.32183
5668.58,0.32474
5662.8,0.32663
5657.01,0.32894
5651.22,0.33327
5645.44,0.33550
5639.65,0.33911
5633.87,0.34262
5628.08,0.34199
5622.29,0.34288
5616.51,0.34585
5610.72,0.34673
5604.93,0.34777
5599.15,0.35023
5593.36,0.35211
5587.58,0.35426
5581.79,0.35760
5576,0.36220
5570.22,0.36266
5564.43,0.36674
5558.64,0.36765
5552.86,0.36869
5547.07,0.37015
5541.29,0.37294
5535.5,0.37525
5529.71,0.37401
5523.93,0.37576
5518.14,0.37506
5512.35,0.37674
5506.57,0.37429
5500.78,0.37493
5495,0.37431
5489.21,0.37384
5483.42,0.37183
5477.64,0.37071
5471.85,0.37033
5466.06,0.36928
5460.28,0.37097
5454.49,0.37023
5448.71,0.37317
5442.92,0.37694
5437.13,0.37673
5431.35,0.37811
5425.56,0.38016
5419.77,0.38191
5413.99,0.38345
5408.2,0.38298
5402.42,0.38373
5396.63,0.38355
5390.84,0.38342
5385.06,0.38487
5379.27,0.38692
5373.48,0.38895
5367.7,0.39107
5361.91,0.39293
5356.13,0.39606
5350.34,0.40008
5344.55,0.40120
5338.77,0.40315
5332.98,0.40590
5327.19,0.40758
5321.41,0.40881
5315.62,0.40780
5309.84,0.40928
5304.05,0.41085
5298.26,0.41036
5292.48,0.41128
5286.69,0.40849
5280.9,0.40518
5275.12,0.40001
5269.33,0.39452
5263.55,0.38691
5257.76,0.38172
5251.97,0.38088
5246.19,0.38160
5240.4,0.38394
5234.61,0.38965
5228.83,0.39144
5223.04,0.39117
5217.26,0.39378
5211.47,0.39434
5205.68,0.39356
5199.9,0.39208
5194.11,0.39203
5188.32,0.39006
5182.54,0.39036
5176.75,0.38765
5170.97,0.38652
5165.18,0.38528
5159.39,0.38509
5153.61,0.38280
5147.82,0.38034
5142.03,0.38077
5136.25,0.38229
5130.46,0.38571
5124.68,0.38820
5118.89,0.39052
5113.1,0.39235
5107.32,0.39435
5101.53,0.39609
5095.75,0.39757
5089.96,0.40025
5084.17,0.40029
5078.39,0.40102
5072.6,0.40141
5066.81,0.40286
5061.03,0.40548
5055.24,0.40617
5049.46,0.40630
5043.67,0.40861
5037.88,0.40982
5032.1,0.40969
5026.31,0.40982
5020.52,0.41063
5014.74,0.41095
5008.95,0.41158
5003.17,0.41100
4997.38,0.41023
4991.59,0.40960
4985.81,0.41054
4980.02,0.41018
4974.23,0.41099
4968.45,0.40944
4962.66,0.40914
4956.88,0.40921
4951.09,0.41034
4945.3,0.40928
4939.52,0.40904
4933.73,0.40803
4927.94,0.40758
4922.16,0.40703
4916.37,0.40697
4910.59,0.40539
4904.8,0.40298
4899.01,0.40233
4893.23,0.40050
4887.44,0.39826
4881.65,0.39698
4875.87,0.39391
4870.08,0.39137
4864.3,0.39102
4858.51,0.39217
4852.72,0.39110
4846.94,0.39195
4841.15,0.39279
4835.36,0.39479
4829.58,0.39512
4823.79,0.39466
4818.01,0.39671
4812.22,0.39709
4806.43,0.39651
4800.65,0.39530
4794.86,0.39471
4789.07,0.39396
4783.29,0.39326
4777.5,0.39161
4771.72,0.39142
4765.93,0.38957
4760.14,0.38821
4754.36,0.38855
4748.57,0.38746
4742.78,0.38522
4737,0.38347
4731.21,0.38076
4725.43,0.37788
4719.64,0.37171
4713.85,0.36794
4708.07,0.36397
4702.28,0.35959
4696.49,0.35230
4690.71,0.34386
4684.92,0.32929
4679.14,0.30674
4673.35,0.28661
4667.56,0.27825
4661.78,0.28276
4655.99,0.29478
4650.2,0.30470
4644.42,0.30603
4638.63,0.29857
4632.85,0.28984
4627.06,0.28506
4621.27,0.28510
4615.49,0.28481
4609.7,0.28133
4603.92,0.28902
4598.13,0.30340
4592.34,0.31614
4586.56,0.31848
4580.77,0.30902
4574.98,0.29989
4569.2,0.30690
4563.41,0.32001
4557.63,0.32824
4551.84,0.33337
4546.05,0.33476
4540.27,0.33267
4534.48,0.33057
4528.69,0.32828
4522.91,0.32593
4517.12,0.32302
4511.34,0.31921
4505.55,0.31489
4499.76,0.31305
4493.98,0.30894
4488.19,0.30332
4482.4,0.29737
4476.62,0.29089
4470.83,0.28200
4465.05,0.27250
4459.26,0.26081
4453.47,0.24967
4447.69,0.23860
4441.9,0.22768
4436.11,0.21741
4430.33,0.20639
4424.54,0.19574
4418.76,0.18569
4412.97,0.17527
4407.18,0.16709
4401.4,0.15914
4395.61,0.15298
4389.82,0.14672
4384.04,0.14066
4378.25,0.13551
4372.47,0.13151
4366.68,0.12847
4360.89,0.12607
4355.11,0.12559
4349.32,0.12553
4343.53,0.12594
4337.75,0.12683
4331.96,0.12903
4326.18,0.13089
4320.39,0.13216
4314.6,0.13267
4308.82,0.13333
4303.03,0.13316
4297.24,0.13222
4291.46,0.13045
4285.67,0.12897
4279.89,0.12648
4274.1,0.12511
4268.31,0.12464
4262.53,0.12291
4256.74,0.12198
4250.95,0.12138
4245.17,0.12355
4239.38,0.12371
4233.6,0.12325
4227.81,0.12282
4222.02,0.12259
4216.24,0.12310
4210.45,0.12306
4204.66,0.12363
4198.88,0.12396
4193.09,0.12480
4187.31,0.12608
4181.52,0.12662
4175.73,0.12700
4169.95,0.12673
4164.16,0.12756
4158.37,0.12846
4152.59,0.12837
4146.8,0.12816
4141.02,0.12943
4135.23,0.12864
4129.44,0.12850
4123.66,0.12851
4117.87,0.12651
4112.09,0.12589
4106.3,0.12448
4100.51,0.12408
4094.73,0.12288
4088.94,0.12118
4083.15,0.11855
4077.37,0.11580
4071.58,0.11279
4065.8,0.11027
4060.01,0.10919
4054.22,0.10838
4048.44,0.10802
4042.65,0.10750
4036.86,0.10838
4031.08,0.11153
4025.29,0.11518
4019.51,0.12037
4013.72,0.12416
4007.93,0.12582
4002.15,0.12708
3996.36,0.12899
3990.57,0.13123
3984.79,0.13267
3979,0.13338
3973.22,0.13526
3967.43,0.13643
3961.64,0.13706
3955.86,0.13734
3950.07,0.13730
3944.28,0.13723
3938.5,0.13690
3932.71,0.13684
3926.93,0.13788
3921.14,0.13841
3915.35,0.13848
3909.57,0.13832
3903.78,0.13922
3897.99,0.13867
3892.21,0.13939
3886.42,0.14002
3880.64,0.14024
3874.85,0.13991
3869.06,0.14007
3863.28,0.14048
3857.49,0.14022
3851.7,0.13914
3845.92,0.13926
3840.13,0.13830
3834.35,0.13826
3828.56,0.13875
3822.77,0.13866
3816.99,0.13882
3811.2,0.13990
3805.41,0.14110
3799.63,0.14212
3793.84,0.14454
3788.06,0.14546
3782.27,0.14584
3776.48,0.14613
3770.7,0.14690
3764.91,0.14709
3759.12,0.14825
3753.34,0.14893
3747.55,0.14899
3741.77,0.14985
3735.98,0.15054
3730.19,0.15055
3724.41,0.14978
3718.62,0.14877
3712.83,0.14702
3707.05,0.14178
3701.26,0.13561
3695.48,0.13045
3689.69,0.12341
3683.9,0.11701
3678.12,0.11198
3672.33,0.10758
3666.54,0.10508
3660.76,0.10262
3654.97,0.10050
3649.19,0.09871
3643.4,0.09804
3637.61,0.09961
3631.83,0.10048
3626.04,0.09844
3620.25,0.09857
3614.47,0.09925
3608.68,0.10013
3602.9,0.10033
3597.11,0.09996
3591.32,0.09921
3585.54,0.09939
3579.75,0.09811
3573.97,0.09722
3568.18,0.09550
3562.39,0.09438
3556.61,0.09296
3550.82,0.09193
3545.03,0.09141
3539.25,0.09110
3533.46,0.09096
3527.68,0.09059
3521.89,0.09036
3516.1,0.09107
3510.32,0.09131
3504.53,0.09091
3498.74,0.09060
3492.96,0.08959
3487.17,0.09006
3481.39,0.09028
3475.6,0.08951
3469.81,0.08898
3464.03,0.08669
3458.24,0.08538
3452.45,0.08289
3446.67,0.08178
3440.88,0.08205
3435.1,0.08310
3429.31,0.08457
3423.52,0.08493
3417.74,0.08617
3411.95,0.08565
3406.16,0.08553
3400.38,0.08501
3394.59,0.08487
3388.81,0.08373
3383.02,0.08268
3377.23,0.08163
3371.45,0.08105
3365.66,0.07945
3359.87,0.07806
3354.09,0.07625
3348.3,0.07467
3342.52,0.07248
3336.73,0.07015
3330.94,0.06732
3325.16,0.06547
3319.37,0.06296
3313.58,0.06108
3307.8,0.06044
3302.01,0.05997
3296.23,0.06117
3290.44,0.06379
3284.65,0.06595
3278.87,0.06863
3273.08,0.06929
3267.29,0.07056
3261.51,0.07225
3255.72,0.07387
3249.94,0.07574
3244.15,0.07576
3238.36,0.07711
3232.58,0.07777
3226.79,0.07822
3221,0.07784
3215.22,0.07855
3209.43,0.07813
3203.65,0.07826
3197.86,0.07783
3192.07,0.07846
3186.29,0.07818
3180.5,0.07930
3174.71,0.07934
3168.93,0.07901
3163.14,0.07920
3157.36,0.07984
3151.57,0.07976
3145.78,0.07983
3140,0.07979
3134.21,0.07906
3128.42,0.07823
3122.64,0.07681
3116.85,0.07388
3111.07,0.06922
3105.28,0.06579
3099.49,0.06584
3093.71,0.06398
3087.92,0.05970
3082.14,0.05904
3076.35,0.06051
3070.56,0.05894
3064.78,0.05693
3058.99,0.05691
3053.2,0.05867
3047.42,0.05978
3041.63,0.05829
3035.85,0.05626
3030.06,0.05435
3024.27,0.05499
3018.49,0.05838
3012.7,0.06001
3006.91,0.05899
3001.13,0.05825
2995.34,0.05905
2989.56,0.05797
2983.77,0.05618
2977.98,0.05409
2972.2,0.05230
2966.41,0.05104
2960.62,0.05161
2954.84,0.05250
2949.05,0.05337
2943.27,0.05280
2937.48,0.05411
2931.69,0.05628
2925.91,0.05839
2920.12,0.06050
2914.33,0.05967
2908.55,0.05873
2902.76,0.05861
2896.98,0.05867
2891.19,0.05790
2885.4,0.05754
2879.62,0.05684
2873.83,0.05667
2868.04,0.05702
2862.26,0.05770
2856.47,0.05982
2850.69,0.06165
2844.9,0.06211
2839.11,0.06388
2833.33,0.06572
2827.54,0.06681
2821.75,0.06771
2815.97,0.06862
2810.18,0.06922
2804.4,0.06975
2798.61,0.07015
2792.82,0.07048
2787.04,0.07159
2781.25,0.07261
2775.46,0.07263
2769.68,0.07262
2763.89,0.07269
2758.11,0.07293
2752.32,0.07321
2746.53,0.07302
2740.75,0.07221
2734.96,0.07181
2729.17,0.07274
2723.39,0.07302
2717.6,0.07366
2711.82,0.07388
2706.03,0.07379
2700.24,0.07412
2694.46,0.07375
2688.67,0.07389
2682.88,0.07397
2677.1,0.07385
2671.31,0.07359
2665.53,0.07369
2659.74,0.07417
2653.95,0.07416
2648.17,0.07400
2642.38,0.07353
2636.59,0.07327
2630.81,0.07355
2625.02,0.07404
2619.24,0.07389
2613.45,0.07370
2607.66,0.07255
2601.88,0.07251
2596.09,0.07248
2590.3,0.07291
2584.52,0.07270
2578.73,0.07268
2572.95,0.07318
2567.16,0.07288
2561.37,0.07294
2555.59,0.07281
2549.8,0.07246
2544.02,0.07265
2538.23,0.07257
2532.44,0.07289
2526.66,0.07241
2520.87,0.07220
2515.08,0.07179
2509.3,0.07225
2503.51,0.07168
2497.73,0.07168
2491.94,0.07221
2486.15,0.07235
2480.37,0.07270
2474.58,0.07326
2468.79,0.07358
2463.01,0.07396
2457.22,0.07443
2451.44,0.07416
2445.65,0.07392
2439.86,0.07445
2434.08,0.07433
2428.29,0.07407
2422.5,0.07398
2416.72,0.07389
2410.93,0.07422
2405.15,0.07401
2399.36,0.07429
2393.57,0.07452
2387.79,0.07443
2382,0.07443
2376.21,0.07457
2370.43,0.07491
2364.64,0.07401
2358.86,0.07440
2353.07,0.07356
2347.28,0.07213
2341.5,0.07178
2335.71,0.07245
2329.92,0.07343
2324.14,0.07416
2318.35,0.07426
2312.57,0.07381
2306.78,0.07463
2300.99,0.07474
2295.21,0.07489
2289.42,0.07453
2283.63,0.07411
2277.85,0.07403
2272.06,0.07350
2266.28,0.07303
2260.49,0.07163
2254.7,0.06845
2248.92,0.06268
2243.13,0.05677
2237.34,0.05577
2231.56,0.06028
2225.77,0.07075
2219.99,0.07671
2214.2,0.07827
2208.41,0.07938
2202.63,0.08053
2196.84,0.08052
2191.05,0.08010
2185.27,0.08013
2179.48,0.08124
2173.7,0.08192
2167.91,0.08225
2162.12,0.08235
2156.34,0.08238
2150.55,0.08141
2144.76,0.08126
2138.98,0.08131
2133.19,0.08179
2127.41,0.08365
2121.62,0.08515
2115.83,0.08652
2110.05,0.08728
2104.26,0.08818
2098.47,0.08871
2092.69,0.08909
2086.9,0.08906
2081.12,0.08868
2075.33,0.08807
2069.54,0.08740
2063.76,0.08651
2057.97,0.08578
2052.19,0.08523
2046.4,0.08409
2040.61,0.08279
2034.83,0.08239
2029.04,0.08222
2023.25,0.08237
2017.47,0.08213
2011.68,0.08209
2005.9,0.08179
2000.11,0.08061
1994.32,0.07908
1988.54,0.07700
1982.75,0.07649
1976.96,0.07485
1971.18,0.07294
1965.39,0.07121
1959.61,0.06903
1953.82,0.06865
1948.03,0.06942
1942.25,0.07193
1936.46,0.07557
1930.67,0.07874
1924.89,0.08013
1919.1,0.08071
1913.32,0.07958
1907.53,0.07738
1901.74,0.07515
1895.96,0.07259
1890.17,0.07138
1884.38,0.07077
1878.6,0.07077
1872.81,0.07201
1867.03,0.07544
1861.24,0.07913
1855.45,0.08156
1849.67,0.08135
1843.88,0.07950
1838.09,0.07664
1832.31,0.07329
1826.52,0.06952
1820.74,0.06656
1814.95,0.06437
1809.16,0.06243
1803.38,0.06002
1797.59,0.05876
1791.8,0.05853
1786.02,0.05939
1780.23,0.05958
1774.45,0.05834
1768.66,0.05678
1762.87,0.05419
1757.09,0.05188
1751.3,0.04944
1745.51,0.04672
1739.73,0.04755
1733.94,0.05358
1728.16,0.05825
1722.37,0.05917
1716.58,0.05854
1710.8,0.05832
1705.01,0.05850
1699.22,0.05835
1693.44,0.05824
1687.65,0.05857
1681.87,0.05954
1676.08,0.05971
1670.29,0.05929
1664.51,0.05838
1658.72,0.05795
1652.93,0.05796
1647.15,0.05810
1641.36,0.05805
1635.58,0.05863
1629.79,0.06005
1624,0.05976
1618.22,0.05973
1612.43,0.05864
1606.64,0.05552
1600.86,0.05517
1595.07,0.05739
1589.29,0.05800
1583.5,0.05579
1577.71,0.05709
1571.93,0.05718
1566.14,0.05614
1560.35,0.05569
1554.57,0.05472
1548.78,0.05433
1543,0.05491
1537.21,0.05575
1531.42,0.05758
1525.64,0.05822
1519.85,0.05904
1514.07,0.05829
1508.28,0.05764
1502.49,0.05448
1496.71,0.05045
1490.92,0.05358
1485.13,0.05419
1479.35,0.05304
1473.56,0.05252
1467.78,0.05213
1461.99,0.05104
1456.2,0.05002
1450.42,0.05451
1444.63,0.05622
1438.84,0.05679
1433.06,0.05663
1427.27,0.05659
1421.49,0.05642
1415.7,0.05616
1409.91,0.05577
1404.13,0.05417
1398.34,0.05348
1392.55,0.05342
1386.77,0.05342
1380.98,0.05340
1375.2,0.05374
1369.41,0.05358
1363.62,0.05330
1357.84,0.05350
1352.05,0.05365
1346.26,0.05364
1340.48,0.05346
1334.69,0.05300
1328.91,0.05324
1323.12,0.05280
1317.33,0.05265
1311.55,0.05239
1305.76,0.05263
1299.97,0.05261
1294.19,0.05243
1288.4,0.05190
1282.62,0.05122
1276.83,0.05103
1271.04,0.05158
1265.26,0.05232
1259.47,0.05283
1253.68,0.05306
1247.9,0.05244
1242.11,0.05289
1236.33,0.05382
1230.54,0.05374
1224.75,0.05393
1218.97,0.05333
1213.18,0.05297
1207.39,0.05273
1201.61,0.05223
1195.82,0.05195
1190.04,0.05162
1184.25,0.05131
1178.46,0.05184
1172.68,0.05324
1166.89,0.05559
1161.1,0.05794
1155.32,0.05958
1149.53,0.06074
1143.75,0.05968
1137.96,0.05905
1132.17,0.05693
1126.39,0.05681
1120.6,0.05650
1114.81,0.05684
1109.03,0.05631
1103.24,0.05691
1097.46,0.05578
1091.67,0.05587
1085.88,0.05508
1080.1,0.05476
1074.31,0.05458
1068.52,0.05484
1062.74,0.05582
1056.95,0.05649
1051.17,0.05586
1045.38,0.05610
1039.59,0.05540
1033.81,0.05486
1028.02,0.05593
1022.24,0.05684
1016.45,0.05656
1010.66,0.05698
1004.88,0.05609
999.09,0.05571
993.304,0.05600
987.518,0.05581
981.731,0.05582
975.945,0.05554
970.159,0.05492
964.373,0.05458
958.586,0.05464
952.8,0.05507
947.014,0.05463
941.228,0.05488
935.441,0.05496
929.655,0.05499
923.869,0.05460
918.083,0.05439
912.297,0.05461
906.51,0.05427
900.724,0.05462
894.938,0.05443
889.152,0.05397
883.365,0.05414
877.579,0.05404
871.793,0.05374
866.007,0.05396
860.22,0.05331
854.434,0.05314
848.648,0.05248
842.862,0.05345
837.075,0.05254
831.289,0.05286
825.503,0.05306
819.717,0.05284
813.931,0.05173
808.144,0.05159
802.358,0.05082
796.572,0.05135
790.786,0.04984
784.999,0.04839
779.213,0.04778
773.427,0.04635
767.641,0.04606
761.854,0.05011
756.068,0.05427
750.282,0.05373
744.496,0.05254
738.709,0.05279
732.923,0.05226
727.137,0.05040
721.351,0.04813
715.565,0.04410
709.778,0.04037
703.992,0.05105
698.206,0.07159
692.42,0.06697
686.633,0.06057
680.847,0.05959
675.061,0.05889
669.275,0.05765
663.488,0.05798
657.702,0.05675
651.916,0.05475
646.13,0.05561
640.343,0.05559
634.557,0.05479
628.771,0.05637
622.985,0.05347
617.198,0.05284
611.412,0.05305
605.626,0.05518
599.84,0.05335