File: 01_Data/Vinyl_Siding/FTIR/IS/Vinyl_Siding_IS_S_220914_R2.dpt
7497.03,0.75079
7491.25,0.75614
7485.46,0.75032
7479.67,0.75466
7473.89,0.75126
7468.1,0.75072
7462.32,0.74044
7456.53,0.74000
7450.74,0.74748
7444.96,0.74089
7439.17,0.72785
7433.38,0.73341
7427.6,0.73703
7421.81,0.73881
7416.03,0.73798
7410.24,0.72851
7404.45,0.72893
7398.67,0.73872
7392.88,0.73350
7387.09,0.73222
7381.31,0.73124
7375.52,0.73413
7369.74,0.71661
7363.95,0.72674
7358.16,0.72183
7352.38,0.72893
7346.59,0.72856
7340.8,0.71642
7335.02,0.70479
7329.23,0.70781
7323.45,0.70533
7317.66,0.69921
7311.87,0.70085
7306.09,0.68793
7300.3,0.68308
7294.51,0.68570
7288.73,0.66980
7282.94,0.66190
7277.16,0.65905
7271.37,0.64373
7265.58,0.64303
7259.8,0.64212
7254.01,0.64311
7248.22,0.63141
7242.44,0.62109
7236.65,0.62664
7230.87,0.62643
7225.08,0.61417
7219.29,0.61450
7213.51,0.61284
7207.72,0.60895
7201.93,0.61065
7196.15,0.61878
7190.36,0.61225
7184.58,0.60602
7178.79,0.60891
7173,0.60787
7167.22,0.59714
7161.43,0.59748
7155.65,0.59791
7149.86,0.59563
7144.07,0.59122
7138.29,0.59094
7132.5,0.58903
7126.71,0.58645
7120.93,0.59057
7115.14,0.58602
7109.36,0.58838
7103.57,0.58348
7097.78,0.59309
7092,0.59073
7086.21,0.57981
7080.42,0.57486
7074.64,0.58015
7068.85,0.57351
7063.07,0.57047
7057.28,0.57645
7051.49,0.57578
7045.71,0.57927
7039.92,0.57460
7034.13,0.57682
7028.35,0.57264
7022.56,0.57866
7016.78,0.57724
7010.99,0.57358
7005.2,0.57323
6999.42,0.57529
6993.63,0.57782
6987.84,0.58422
6982.06,0.58075
6976.27,0.59106
6970.49,0.59056
6964.7,0.59456
6958.91,0.59401
6953.13,0.60346
6947.34,0.60360
6941.55,0.60469
6935.77,0.60705
6929.98,0.61581
6924.2,0.60544
6918.41,0.60912
6912.62,0.61146
6906.84,0.61283
6901.05,0.61395
6895.26,0.61716
6889.48,0.61577
6883.69,0.62350
6877.91,0.62381
6872.12,0.61778
6866.33,0.62434
6860.55,0.62432
6854.76,0.62834
6848.97,0.63005
6843.19,0.63144
6837.4,0.63091
6831.62,0.63812
6825.83,0.63399
6820.04,0.62642
6814.26,0.63256
6808.47,0.63209
6802.68,0.63511
6796.9,0.63484
6791.11,0.63552
6785.33,0.63661
6779.54,0.63110
6773.75,0.63539
6767.97,0.63544
6762.18,0.63802
6756.39,0.63816
6750.61,0.64686
6744.82,0.64069
6739.04,0.64177
6733.25,0.64279
6727.46,0.64568
6721.68,0.64382
6715.89,0.64494
6710.1,0.64397
6704.32,0.64754
6698.53,0.64834
6692.75,0.65230
6686.96,0.64843
6681.17,0.65164
6675.39,0.64847
6669.6,0.64774
6663.82,0.65112
6658.03,0.65424
6652.24,0.65222
6646.46,0.65026
6640.67,0.65692
6634.88,0.65418
6629.1,0.64715
6623.31,0.64965
6617.53,0.65844
6611.74,0.65426
6605.95,0.65202
6600.17,0.65128
6594.38,0.65617
6588.59,0.65444
6582.81,0.65600
6577.02,0.65897
6571.24,0.65773
6565.45,0.65478
6559.66,0.65718
6553.88,0.65239
6548.09,0.65329
6542.3,0.65362
6536.52,0.65561
6530.73,0.65810
6524.95,0.65322
6519.16,0.65256
6513.37,0.65630
6507.59,0.65807
6501.8,0.65557
6496.01,0.66065
6490.23,0.65952
6484.44,0.65720
6478.66,0.65796
6472.87,0.65978
6467.08,0.66043
6461.3,0.65957
6455.51,0.66011
6449.72,0.66021
6443.94,0.66296
6438.15,0.66150
6432.37,0.66235
6426.58,0.66430
6420.79,0.66545
6415.01,0.66743
6409.22,0.66485
6403.43,0.66617
6397.65,0.66261
6391.86,0.66826
6386.08,0.66432
6380.29,0.66463
6374.5,0.66340
6368.72,0.66619
6362.93,0.66449
6357.14,0.66474
6351.36,0.66209
6345.57,0.66614
6339.79,0.66492
6334,0.66736
6328.21,0.66370
6322.43,0.66264
6316.64,0.66311
6310.85,0.66226
6305.07,0.65846
6299.28,0.66330
6293.5,0.66076
6287.71,0.66318
6281.92,0.65940
6276.14,0.66227
6270.35,0.66179
6264.56,0.65699
6258.78,0.65952
6252.99,0.65925
6247.21,0.65573
6241.42,0.65913
6235.63,0.65912
6229.85,0.66141
6224.06,0.66080
6218.27,0.65920
6212.49,0.65785
6206.7,0.65464
6200.92,0.65866
6195.13,0.65583
6189.34,0.65493
6183.56,0.65462
6177.77,0.65625
6171.98,0.65317
6166.2,0.64890
6160.41,0.64616
6154.63,0.64027
6148.84,0.63525
6143.05,0.63417
6137.27,0.63161
6131.48,0.62579
6125.7,0.62352
6119.91,0.62177
6114.12,0.62024
6108.34,0.61715
6102.55,0.61991
6096.76,0.61825
6090.98,0.61650
6085.19,0.61403
6079.41,0.61447
6073.62,0.61115
6067.83,0.61308
6062.05,0.61731
6056.26,0.61714
6050.47,0.61035
6044.69,0.60012
6038.9,0.59367
6033.12,0.57864
6027.33,0.56492
6021.54,0.54944
6015.76,0.53556
6009.97,0.51528
6004.18,0.50210
5998.4,0.48683
5992.61,0.47567
5986.83,0.45960
5981.04,0.44200
5975.25,0.43174
5969.47,0.42560
5963.68,0.41941
5957.89,0.41756
5952.11,0.41382
5946.32,0.40965
5940.54,0.40726
5934.75,0.39975
5928.96,0.39446
5923.18,0.38238
5917.39,0.37063
5911.6,0.35497
5905.82,0.34786
5900.03,0.33564
5894.25,0.32732
5888.46,0.32083
5882.67,0.31304
5876.89,0.31134
5871.1,0.31016
5865.31,0.30270
5859.53,0.29711
5853.74,0.29390
5847.96,0.28904
5842.17,0.28693
5836.38,0.28491
5830.6,0.27983
5824.81,0.28200
5819.02,0.28198
5813.24,0.28497
5807.45,0.29115
5801.67,0.29283
5795.88,0.29895
5790.09,0.30439
5784.31,0.30662
5778.52,0.30987
5772.73,0.31458
5766.95,0.31605
5761.16,0.31745
5755.38,0.31416
5749.59,0.31195
5743.8,0.30464
5738.02,0.30334
5732.23,0.30213
5726.44,0.30114
5720.66,0.29994
5714.87,0.29987
5709.09,0.29821
5703.3,0.29938
5697.51,0.29952
5691.73,0.30431
5685.94,0.31073
5680.15,0.31775
5674.37,0.32158
5668.58,0.32324
5662.8,0.32989
5657.01,0.33017
5651.22,0.33488
5645.44,0.33775
5639.65,0.33828
5633.87,0.34013
5628.08,0.34392
5622.29,0.34479
5616.51,0.34645
5610.72,0.34833
5604.93,0.34827
5599.15,0.34946
5593.36,0.34993
5587.58,0.35384
5581.79,0.35654
5576,0.36088
5570.22,0.36515
5564.43,0.36630
5558.64,0.36739
5552.86,0.36873
5547.07,0.37160
5541.29,0.37333
5535.5,0.37327
5529.71,0.37483
5523.93,0.37450
5518.14,0.37614
5512.35,0.37435
5506.57,0.37584
5500.78,0.37443
5495,0.37458
5489.21,0.37229
5483.42,0.37341
5477.64,0.37096
5471.85,0.37124
5466.06,0.36912
5460.28,0.37067
5454.49,0.37165
5448.71,0.37463
5442.92,0.37591
5437.13,0.37847
5431.35,0.37916
5425.56,0.38136
5419.77,0.38136
5413.99,0.38173
5408.2,0.38279
5402.42,0.38344
5396.63,0.38404
5390.84,0.38492
5385.06,0.38623
5379.27,0.38631
5373.48,0.38701
5367.7,0.39024
5361.91,0.39532
5356.13,0.39711
5350.34,0.40035
5344.55,0.40138
5338.77,0.40373
5332.98,0.40465
5327.19,0.40698
5321.41,0.40951
5315.62,0.41085
5309.84,0.41004
5304.05,0.41054
5298.26,0.41112
5292.48,0.40957
5286.69,0.40654
5280.9,0.40346
5275.12,0.39658
5269.33,0.38953
5263.55,0.38195
5257.76,0.37809
5251.97,0.37658
5246.19,0.37822
5240.4,0.38261
5234.61,0.38418
5228.83,0.38749
5223.04,0.39000
5217.26,0.39204
5211.47,0.39271
5205.68,0.39218
5199.9,0.39114
5194.11,0.39180
5188.32,0.39049
5182.54,0.38824
5176.75,0.38680
5170.97,0.38688
5165.18,0.38434
5159.39,0.38419
5153.61,0.38203
5147.82,0.38087
5142.03,0.37773
5136.25,0.38171
5130.46,0.38489
5124.68,0.38766
5118.89,0.38977
5113.1,0.39162
5107.32,0.39478
5101.53,0.39462
5095.75,0.39717
5089.96,0.39875
5084.17,0.39922
5078.39,0.40075
5072.6,0.40176
5066.81,0.40318
5061.03,0.40496
5055.24,0.40531
5049.46,0.40620
5043.67,0.40604
5037.88,0.40824
5032.1,0.40913
5026.31,0.41000
5020.52,0.40967
5014.74,0.41257
5008.95,0.41129
5003.17,0.41128
4997.38,0.40987
4991.59,0.40882
4985.81,0.41026
4980.02,0.40984
4974.23,0.40966
4968.45,0.40965
4962.66,0.40959
4956.88,0.40991
4951.09,0.40983
4945.3,0.41079
4939.52,0.40910
4933.73,0.40829
4927.94,0.40693
4922.16,0.40689
4916.37,0.40695
4910.59,0.40487
4904.8,0.40508
4899.01,0.40143
4893.23,0.40024
4887.44,0.39759
4881.65,0.39595
4875.87,0.39480
4870.08,0.39261
4864.3,0.39143
4858.51,0.39136
4852.72,0.39216
4846.94,0.39320
4841.15,0.39399
4835.36,0.39464
4829.58,0.39607
4823.79,0.39704
4818.01,0.39687
4812.22,0.39721
4806.43,0.39752
4800.65,0.39588
4794.86,0.39518
4789.07,0.39545
4783.29,0.39458
4777.5,0.39249
4771.72,0.39137
4765.93,0.38947
4760.14,0.38959
4754.36,0.38892
4748.57,0.38748
4742.78,0.38630
4737,0.38469
4731.21,0.38145
4725.43,0.37656
4719.64,0.37206
4713.85,0.36683
4708.07,0.36227
4702.28,0.35884
4696.49,0.35460
4690.71,0.34426
4684.92,0.32960
4679.14,0.30712
4673.35,0.28628
4667.56,0.27729
4661.78,0.28324
4655.99,0.29424
4650.2,0.30533
4644.42,0.30594
4638.63,0.29936
4632.85,0.29042
4627.06,0.28422
4621.27,0.28601
4615.49,0.28502
4609.7,0.28188
4603.92,0.28845
4598.13,0.30372
4592.34,0.31685
4586.56,0.31868
4580.77,0.30959
4574.98,0.29934
4569.2,0.30703
4563.41,0.32201
4557.63,0.32941
4551.84,0.33395
4546.05,0.33598
4540.27,0.33259
4534.48,0.33122
4528.69,0.32884
4522.91,0.32656
4517.12,0.32277
4511.34,0.31996
4505.55,0.31606
4499.76,0.31373
4493.98,0.30851
4488.19,0.30426
4482.4,0.29773
4476.62,0.29052
4470.83,0.28277
4465.05,0.27268
4459.26,0.26146
4453.47,0.24927
4447.69,0.23690
4441.9,0.22728
4436.11,0.21707
4430.33,0.20668
4424.54,0.19634
4418.76,0.18547
4412.97,0.17550
4407.18,0.16718
4401.4,0.15956
4395.61,0.15293
4389.82,0.14669
4384.04,0.14099
4378.25,0.13641
4372.47,0.13188
4366.68,0.12973
4360.89,0.12686
4355.11,0.12534
4349.32,0.12604
4343.53,0.12623
4337.75,0.12737
4331.96,0.12941
4326.18,0.13147
4320.39,0.13202
4314.6,0.13330
4308.82,0.13328
4303.03,0.13361
4297.24,0.13189
4291.46,0.13028
4285.67,0.12830
4279.89,0.12684
4274.1,0.12535
4268.31,0.12427
4262.53,0.12355
4256.74,0.12265
4250.95,0.12176
4245.17,0.12150
4239.38,0.12275
4233.6,0.12377
4227.81,0.12293
4222.02,0.12211
4216.24,0.12264
4210.45,0.12273
4204.66,0.12396
4198.88,0.12515
4193.09,0.12600
4187.31,0.12619
4181.52,0.12682
4175.73,0.12668
4169.95,0.12750
4164.16,0.12832
4158.37,0.12774
4152.59,0.12835
4146.8,0.12910
4141.02,0.12864
4135.23,0.12924
4129.44,0.12833
4123.66,0.12800
4117.87,0.12748
4112.09,0.12555
4106.3,0.12437
4100.51,0.12416
4094.73,0.12328
4088.94,0.12154
4083.15,0.11901
4077.37,0.11525
4071.58,0.11284
4065.8,0.10977
4060.01,0.10985
4054.22,0.10798
4048.44,0.10826
4042.65,0.10790
4036.86,0.10876
4031.08,0.11174
4025.29,0.11564
4019.51,0.12001
4013.72,0.12375
4007.93,0.12574
4002.15,0.12687
3996.36,0.12905
3990.57,0.13134
3984.79,0.13259
3979,0.13392
3973.22,0.13448
3967.43,0.13596
3961.64,0.13664
3955.86,0.13704
3950.07,0.13806
3944.28,0.13692
3938.5,0.13691
3932.71,0.13722
3926.93,0.13778
3921.14,0.13850
3915.35,0.13815
3909.57,0.13846
3903.78,0.13863
3897.99,0.13902
3892.21,0.13921
3886.42,0.13908
3880.64,0.14020
3874.85,0.13958
3869.06,0.13995
3863.28,0.13980
3857.49,0.13935
3851.7,0.13865
3845.92,0.13871
3840.13,0.13843
3834.35,0.13863
3828.56,0.13821
3822.77,0.13865
3816.99,0.13894
3811.2,0.14005
3805.41,0.14136
3799.63,0.14268
3793.84,0.14351
3788.06,0.14483
3782.27,0.14541
3776.48,0.14585
3770.7,0.14626
3764.91,0.14698
3759.12,0.14776
3753.34,0.14798
3747.55,0.14868
3741.77,0.14916
3735.98,0.14962
3730.19,0.14930
3724.41,0.14836
3718.62,0.14728
3712.83,0.14614
3707.05,0.13992
3701.26,0.13327
3695.48,0.12797
3689.69,0.12103
3683.9,0.11385
3678.12,0.10921
3672.33,0.10451
3666.54,0.10115
3660.76,0.09828
3654.97,0.09635
3649.19,0.09494
3643.4,0.09461
3637.61,0.09515
3631.83,0.09593
3626.04,0.09535
3620.25,0.09531
3614.47,0.09648
3608.68,0.09778
3602.9,0.09719
3597.11,0.09739
3591.32,0.09747
3585.54,0.09603
3579.75,0.09484
3573.97,0.09435
3568.18,0.09334
3562.39,0.09074
3556.61,0.08978
3550.82,0.08836
3545.03,0.08830
3539.25,0.08768
3533.46,0.08861
3527.68,0.08810
3521.89,0.08771
3516.1,0.08813
3510.32,0.08807
3504.53,0.08819
3498.74,0.08805
3492.96,0.08784
3487.17,0.08808
3481.39,0.08793
3475.6,0.08665
3469.81,0.08638
3464.03,0.08468
3458.24,0.08318
3452.45,0.08162
3446.67,0.08107
3440.88,0.08116
3435.1,0.08165
3429.31,0.08339
3423.52,0.08454
3417.74,0.08442
3411.95,0.08479
3406.16,0.08359
3400.38,0.08392
3394.59,0.08326
3388.81,0.08282
3383.02,0.08248
3377.23,0.08179
3371.45,0.08088
3365.66,0.07850
3359.87,0.07771
3354.09,0.07629
3348.3,0.07438
3342.52,0.07197
3336.73,0.07011
3330.94,0.06803
3325.16,0.06603
3319.37,0.06320
3313.58,0.06073
3307.8,0.05940
3302.01,0.05950
3296.23,0.06180
3290.44,0.06388
3284.65,0.06581
3278.87,0.06781
3273.08,0.06944
3267.29,0.07090
3261.51,0.07228
3255.72,0.07386
3249.94,0.07511
3244.15,0.07564
3238.36,0.07685
3232.58,0.07795
3226.79,0.07830
3221,0.07780
3215.22,0.07768
3209.43,0.07736
3203.65,0.07751
3197.86,0.07745
3192.07,0.07809
3186.29,0.07849
3180.5,0.07837
3174.71,0.07846
3168.93,0.07874
3163.14,0.07913
3157.36,0.07970
3151.57,0.07968
3145.78,0.07925
3140,0.07953
3134.21,0.07914
3128.42,0.07744
3122.64,0.07669
3116.85,0.07452
3111.07,0.06952
3105.28,0.06594
3099.49,0.06560
3093.71,0.06399
3087.92,0.06030
3082.14,0.05933
3076.35,0.06053
3070.56,0.05878
3064.78,0.05692
3058.99,0.05693
3053.2,0.05816
3047.42,0.05966
3041.63,0.05887
3035.85,0.05641
3030.06,0.05497
3024.27,0.05457
3018.49,0.05780
3012.7,0.06012
3006.91,0.05888
3001.13,0.05843
2995.34,0.05901
2989.56,0.05755
2983.77,0.05544
2977.98,0.05359
2972.2,0.05212
2966.41,0.05135
2960.62,0.05144
2954.84,0.05244
2949.05,0.05275
2943.27,0.05343
2937.48,0.05440
2931.69,0.05608
2925.91,0.05910
2920.12,0.06054
2914.33,0.05991
2908.55,0.05934
2902.76,0.05872
2896.98,0.05795
2891.19,0.05798
2885.4,0.05768
2879.62,0.05675
2873.83,0.05696
2868.04,0.05662
2862.26,0.05747
2856.47,0.05977
2850.69,0.06205
2844.9,0.06203
2839.11,0.06398
2833.33,0.06619
2827.54,0.06693
2821.75,0.06798
2815.97,0.06825
2810.18,0.06908
2804.4,0.06987
2798.61,0.07053
2792.82,0.07130
2787.04,0.07111
2781.25,0.07193
2775.46,0.07228
2769.68,0.07293
2763.89,0.07330
2758.11,0.07313
2752.32,0.07322
2746.53,0.07313
2740.75,0.07312
2734.96,0.07242
2729.17,0.07267
2723.39,0.07304
2717.6,0.07370
2711.82,0.07389
2706.03,0.07402
2700.24,0.07405
2694.46,0.07380
2688.67,0.07411
2682.88,0.07430
2677.1,0.07453
2671.31,0.07416
2665.53,0.07408
2659.74,0.07424
2653.95,0.07425
2648.17,0.07472
2642.38,0.07398
2636.59,0.07350
2630.81,0.07308
2625.02,0.07388
2619.24,0.07418
2613.45,0.07326
2607.66,0.07268
2601.88,0.07258
2596.09,0.07305
2590.3,0.07335
2584.52,0.07285
2578.73,0.07279
2572.95,0.07326
2567.16,0.07308
2561.37,0.07343
2555.59,0.07327
2549.8,0.07321
2544.02,0.07330
2538.23,0.07261
2532.44,0.07294
2526.66,0.07248
2520.87,0.07227
2515.08,0.07184
2509.3,0.07236
2503.51,0.07210
2497.73,0.07184
2491.94,0.07246
2486.15,0.07260
2480.37,0.07323
2474.58,0.07353
2468.79,0.07374
2463.01,0.07412
2457.22,0.07429
2451.44,0.07444
2445.65,0.07455
2439.86,0.07423
2434.08,0.07424
2428.29,0.07397
2422.5,0.07414
2416.72,0.07410
2410.93,0.07423
2405.15,0.07413
2399.36,0.07434
2393.57,0.07455
2387.79,0.07485
2382,0.07496
2376.21,0.07475
2370.43,0.07457
2364.64,0.07428
2358.86,0.07360
2353.07,0.07337
2347.28,0.07265
2341.5,0.07224
2335.71,0.07211
2329.92,0.07342
2324.14,0.07440
2318.35,0.07411
2312.57,0.07429
2306.78,0.07476
2300.99,0.07505
2295.21,0.07462
2289.42,0.07458
2283.63,0.07411
2277.85,0.07382
2272.06,0.07321
2266.28,0.07266
2260.49,0.07150
2254.7,0.06899
2248.92,0.06288
2243.13,0.05726
2237.34,0.05574
2231.56,0.06036
2225.77,0.07057
2219.99,0.07661
2214.2,0.07858
2208.41,0.07942
2202.63,0.08041
2196.84,0.08070
2191.05,0.08001
2185.27,0.07981
2179.48,0.08126
2173.7,0.08192
2167.91,0.08227
2162.12,0.08259
2156.34,0.08224
2150.55,0.08183
2144.76,0.08142
2138.98,0.08138
2133.19,0.08185
2127.41,0.08348
2121.62,0.08482
2115.83,0.08634
2110.05,0.08762
2104.26,0.08805
2098.47,0.08891
2092.69,0.08881
2086.9,0.08868
2081.12,0.08851
2075.33,0.08839
2069.54,0.08741
2063.76,0.08632
2057.97,0.08588
2052.19,0.08467
2046.4,0.08396
2040.61,0.08312
2034.83,0.08257
2029.04,0.08232
2023.25,0.08215
2017.47,0.08198
2011.68,0.08216
2005.9,0.08199
2000.11,0.08085
1994.32,0.07880
1988.54,0.07712
1982.75,0.07643
1976.96,0.07498
1971.18,0.07311
1965.39,0.07113
1959.61,0.06904
1953.82,0.06854
1948.03,0.06953
1942.25,0.07207
1936.46,0.07559
1930.67,0.07825
1924.89,0.08018
1919.1,0.08077
1913.32,0.07952
1907.53,0.07778
1901.74,0.07527
1895.96,0.07260
1890.17,0.07151
1884.38,0.07030
1878.6,0.07067
1872.81,0.07230
1867.03,0.07588
1861.24,0.07944
1855.45,0.08147
1849.67,0.08131
1843.88,0.07992
1838.09,0.07670
1832.31,0.07307
1826.52,0.06999
1820.74,0.06660
1814.95,0.06412
1809.16,0.06248
1803.38,0.06023
1797.59,0.05912
1791.8,0.05875
1786.02,0.05945
1780.23,0.05960
1774.45,0.05825
1768.66,0.05673
1762.87,0.05439
1757.09,0.05177
1751.3,0.04939
1745.51,0.04692
1739.73,0.04769
1733.94,0.05331
1728.16,0.05794
1722.37,0.05916
1716.58,0.05856
1710.8,0.05814
1705.01,0.05866
1699.22,0.05902
1693.44,0.05802
1687.65,0.05862
1681.87,0.05923
1676.08,0.05983
1670.29,0.05894
1664.51,0.05865
1658.72,0.05796
1652.93,0.05828
1647.15,0.05805
1641.36,0.05821
1635.58,0.05904
1629.79,0.06020
1624,0.05968
1618.22,0.05949
1612.43,0.05839
1606.64,0.05559
1600.86,0.05524
1595.07,0.05710
1589.29,0.05800
1583.5,0.05592
1577.71,0.05733
1571.93,0.05742
1566.14,0.05619
1560.35,0.05554
1554.57,0.05467
1548.78,0.05456
1543,0.05542
1537.21,0.05605
1531.42,0.05762
1525.64,0.05871
1519.85,0.05907
1514.07,0.05846
1508.28,0.05792
1502.49,0.05431
1496.71,0.05056
1490.92,0.05374
1485.13,0.05432
1479.35,0.05336
1473.56,0.05241
1467.78,0.05195
1461.99,0.05129
1456.2,0.05059
1450.42,0.05499
1444.63,0.05578
1438.84,0.05632
1433.06,0.05612
1427.27,0.05614
1421.49,0.05605
1415.7,0.05598
1409.91,0.05579
1404.13,0.05451
1398.34,0.05342
1392.55,0.05342
1386.77,0.05359
1380.98,0.05310
1375.2,0.05359
1369.41,0.05361
1363.62,0.05332
1357.84,0.05357
1352.05,0.05404
1346.26,0.05354
1340.48,0.05326
1334.69,0.05315
1328.91,0.05259
1323.12,0.05277
1317.33,0.05243
1311.55,0.05261
1305.76,0.05297
1299.97,0.05267
1294.19,0.05242
1288.4,0.05201
1282.62,0.05171
1276.83,0.05122
1271.04,0.05142
1265.26,0.05197
1259.47,0.05237
1253.68,0.05289
1247.9,0.05278
1242.11,0.05335
1236.33,0.05380
1230.54,0.05366
1224.75,0.05352
1218.97,0.05332
1213.18,0.05342
1207.39,0.05305
1201.61,0.05251
1195.82,0.05168
1190.04,0.05140
1184.25,0.05100
1178.46,0.05181
1172.68,0.05338
1166.89,0.05501
1161.1,0.05742
1155.32,0.06029
1149.53,0.06053
1143.75,0.06005
1137.96,0.05881
1132.17,0.05752
1126.39,0.05708
1120.6,0.05627
1114.81,0.05739
1109.03,0.05688
1103.24,0.05600
1097.46,0.05621
1091.67,0.05518
1085.88,0.05531
1080.1,0.05464
1074.31,0.05477
1068.52,0.05574
1062.74,0.05581
1056.95,0.05653
1051.17,0.05620
1045.38,0.05589
1039.59,0.05525
1033.81,0.05538
1028.02,0.05589
1022.24,0.05661
1016.45,0.05667
1010.66,0.05673
1004.88,0.05649
999.09,0.05641
993.304,0.05536
987.518,0.05607
981.731,0.05531
975.945,0.05496
970.159,0.05516
964.373,0.05578
958.586,0.05500
952.8,0.05484
947.014,0.05509
941.228,0.05491
935.441,0.05539
929.655,0.05491
923.869,0.05458
918.083,0.05466
912.297,0.05403
906.51,0.05513
900.724,0.05477
894.938,0.05390
889.152,0.05432
883.365,0.05415
877.579,0.05433
871.793,0.05409
866.007,0.05348
860.22,0.05357
854.434,0.05256
848.648,0.05293
842.862,0.05298
837.075,0.05227
831.289,0.05441
825.503,0.05237
819.717,0.05206
813.931,0.05228
808.144,0.05192
802.358,0.05098
796.572,0.05044
790.786,0.04993
784.999,0.04840
779.213,0.04733
773.427,0.04638
767.641,0.04745
761.854,0.04978
756.068,0.05430
750.282,0.05455
744.496,0.05424
738.709,0.05356
732.923,0.05220
727.137,0.04982
721.351,0.04814
715.565,0.04452
709.778,0.04065
703.992,0.05094
698.206,0.07124
692.42,0.06739
686.633,0.06140
680.847,0.05933
675.061,0.05717
669.275,0.05606
663.488,0.05614
657.702,0.05607
651.916,0.05559
646.13,0.05452
640.343,0.05661
634.557,0.05517
628.771,0.05471
622.985,0.05628
617.198,0.05547
611.412,0.05559
605.626,0.05394
599.84,0.05204