File: 01_Data/Vinyl_Siding/FTIR/IS/Vinyl_Siding_IS_S_220914_R1.dpt
7497.03,0.76554
7491.25,0.75356
7485.46,0.74970
7479.67,0.74491
7473.89,0.74831
7468.1,0.75144
7462.32,0.75019
7456.53,0.75038
7450.74,0.75319
7444.96,0.74992
7439.17,0.75102
7433.38,0.73485
7427.6,0.74429
7421.81,0.74653
7416.03,0.75081
7410.24,0.73846
7404.45,0.73995
7398.67,0.73196
7392.88,0.72966
7387.09,0.73276
7381.31,0.73586
7375.52,0.73503
7369.74,0.73119
7363.95,0.72097
7358.16,0.71932
7352.38,0.72090
7346.59,0.71437
7340.8,0.71385
7335.02,0.71709
7329.23,0.70768
7323.45,0.70449
7317.66,0.70010
7311.87,0.69369
7306.09,0.68681
7300.3,0.69369
7294.51,0.68473
7288.73,0.66670
7282.94,0.66773
7277.16,0.66431
7271.37,0.65055
7265.58,0.64529
7259.8,0.64573
7254.01,0.63548
7248.22,0.63912
7242.44,0.62921
7236.65,0.61933
7230.87,0.62305
7225.08,0.61163
7219.29,0.60080
7213.51,0.61584
7207.72,0.61627
7201.93,0.61472
7196.15,0.61869
7190.36,0.61129
7184.58,0.61393
7178.79,0.60485
7173,0.60607
7167.22,0.60648
7161.43,0.60223
7155.65,0.59891
7149.86,0.59603
7144.07,0.59370
7138.29,0.58562
7132.5,0.58722
7126.71,0.58141
7120.93,0.58316
7115.14,0.58129
7109.36,0.58863
7103.57,0.59401
7097.78,0.58632
7092,0.58379
7086.21,0.57916
7080.42,0.58222
7074.64,0.58883
7068.85,0.58050
7063.07,0.57888
7057.28,0.57855
7051.49,0.58105
7045.71,0.57743
7039.92,0.57577
7034.13,0.57410
7028.35,0.57958
7022.56,0.57563
7016.78,0.57187
7010.99,0.57265
7005.2,0.57290
6999.42,0.57880
6993.63,0.57851
6987.84,0.58166
6982.06,0.58216
6976.27,0.59122
6970.49,0.59128
6964.7,0.59765
6958.91,0.60211
6953.13,0.60404
6947.34,0.60989
6941.55,0.61069
6935.77,0.60846
6929.98,0.60971
6924.2,0.60778
6918.41,0.61067
6912.62,0.60713
6906.84,0.61507
6901.05,0.62389
6895.26,0.62143
6889.48,0.62643
6883.69,0.62279
6877.91,0.62073
6872.12,0.63116
6866.33,0.62993
6860.55,0.63078
6854.76,0.62926
6848.97,0.62875
6843.19,0.62489
6837.4,0.63132
6831.62,0.63028
6825.83,0.63433
6820.04,0.62984
6814.26,0.62913
6808.47,0.63193
6802.68,0.63144
6796.9,0.63712
6791.11,0.63306
6785.33,0.63975
6779.54,0.63850
6773.75,0.64144
6767.97,0.63598
6762.18,0.64030
6756.39,0.64191
6750.61,0.63812
6744.82,0.63491
6739.04,0.64121
6733.25,0.64493
6727.46,0.64597
6721.68,0.64054
6715.89,0.64638
6710.1,0.64719
6704.32,0.64786
6698.53,0.64877
6692.75,0.65035
6686.96,0.65755
6681.17,0.65231
6675.39,0.65264
6669.6,0.65123
6663.82,0.65147
6658.03,0.65599
6652.24,0.64878
6646.46,0.65604
6640.67,0.65392
6634.88,0.65781
6629.1,0.65520
6623.31,0.65455
6617.53,0.65435
6611.74,0.65391
6605.95,0.65455
6600.17,0.65298
6594.38,0.65687
6588.59,0.65592
6582.81,0.65481
6577.02,0.65610
6571.24,0.65946
6565.45,0.65748
6559.66,0.65753
6553.88,0.65598
6548.09,0.65821
6542.3,0.65992
6536.52,0.65953
6530.73,0.65361
6524.95,0.65683
6519.16,0.65246
6513.37,0.65619
6507.59,0.65714
6501.8,0.65806
6496.01,0.65847
6490.23,0.65935
6484.44,0.66238
6478.66,0.66129
6472.87,0.66142
6467.08,0.65814
6461.3,0.66313
6455.51,0.66466
6449.72,0.66256
6443.94,0.66381
6438.15,0.66510
6432.37,0.67054
6426.58,0.66633
6420.79,0.66492
6415.01,0.66742
6409.22,0.66746
6403.43,0.67063
6397.65,0.67128
6391.86,0.66427
6386.08,0.66502
6380.29,0.66341
6374.5,0.66538
6368.72,0.66650
6362.93,0.66572
6357.14,0.66891
6351.36,0.67112
6345.57,0.66897
6339.79,0.66703
6334,0.67115
6328.21,0.66799
6322.43,0.66569
6316.64,0.66870
6310.85,0.66309
6305.07,0.66144
6299.28,0.66620
6293.5,0.66471
6287.71,0.66106
6281.92,0.66246
6276.14,0.66472
6270.35,0.66421
6264.56,0.66158
6258.78,0.65978
6252.99,0.66083
6247.21,0.66250
6241.42,0.66046
6235.63,0.66045
6229.85,0.65862
6224.06,0.66255
6218.27,0.65857
6212.49,0.65707
6206.7,0.65746
6200.92,0.65664
6195.13,0.65389
6189.34,0.66018
6183.56,0.65674
6177.77,0.65296
6171.98,0.65132
6166.2,0.65045
6160.41,0.64463
6154.63,0.63928
6148.84,0.63938
6143.05,0.63267
6137.27,0.63110
6131.48,0.63080
6125.7,0.62397
6119.91,0.62330
6114.12,0.62354
6108.34,0.62349
6102.55,0.62216
6096.76,0.61944
6090.98,0.61889
6085.19,0.61501
6079.41,0.61273
6073.62,0.61290
6067.83,0.61809
6062.05,0.61776
6056.26,0.61737
6050.47,0.61314
6044.69,0.60341
6038.9,0.59330
6033.12,0.57877
6027.33,0.56841
6021.54,0.55258
6015.76,0.53619
6009.97,0.51812
6004.18,0.49891
5998.4,0.48504
5992.61,0.47566
5986.83,0.46026
5981.04,0.44277
5975.25,0.43268
5969.47,0.42729
5963.68,0.42196
5957.89,0.41605
5952.11,0.41254
5946.32,0.40790
5940.54,0.40663
5934.75,0.40147
5928.96,0.39474
5923.18,0.38225
5917.39,0.37080
5911.6,0.35902
5905.82,0.34853
5900.03,0.33597
5894.25,0.32703
5888.46,0.32134
5882.67,0.31339
5876.89,0.31419
5871.1,0.30697
5865.31,0.30288
5859.53,0.29733
5853.74,0.29323
5847.96,0.29084
5842.17,0.28786
5836.38,0.28542
5830.6,0.28212
5824.81,0.28547
5819.02,0.28821
5813.24,0.28583
5807.45,0.29084
5801.67,0.29425
5795.88,0.30161
5790.09,0.30411
5784.31,0.30877
5778.52,0.31264
5772.73,0.31738
5766.95,0.31652
5761.16,0.31871
5755.38,0.31485
5749.59,0.31360
5743.8,0.31019
5738.02,0.30568
5732.23,0.30162
5726.44,0.30091
5720.66,0.29938
5714.87,0.29814
5709.09,0.29865
5703.3,0.29915
5697.51,0.30287
5691.73,0.30647
5685.94,0.31285
5680.15,0.31771
5674.37,0.32167
5668.58,0.32563
5662.8,0.33040
5657.01,0.33161
5651.22,0.33423
5645.44,0.33603
5639.65,0.33951
5633.87,0.34144
5628.08,0.34205
5622.29,0.34557
5616.51,0.34670
5610.72,0.34992
5604.93,0.35077
5599.15,0.35219
5593.36,0.35351
5587.58,0.35428
5581.79,0.35714
5576,0.36051
5570.22,0.36540
5564.43,0.36637
5558.64,0.37010
5552.86,0.36993
5547.07,0.37142
5541.29,0.37389
5535.5,0.37500
5529.71,0.37626
5523.93,0.37575
5518.14,0.37576
5512.35,0.37774
5506.57,0.37760
5500.78,0.37550
5495,0.37439
5489.21,0.37469
5483.42,0.37520
5477.64,0.37456
5471.85,0.37274
5466.06,0.37213
5460.28,0.37287
5454.49,0.37362
5448.71,0.37465
5442.92,0.37735
5437.13,0.37899
5431.35,0.37917
5425.56,0.38065
5419.77,0.38345
5413.99,0.38293
5408.2,0.38431
5402.42,0.38440
5396.63,0.38565
5390.84,0.38503
5385.06,0.38592
5379.27,0.38705
5373.48,0.39011
5367.7,0.39101
5361.91,0.39655
5356.13,0.39788
5350.34,0.39846
5344.55,0.40153
5338.77,0.40442
5332.98,0.40599
5327.19,0.40754
5321.41,0.41091
5315.62,0.41078
5309.84,0.41135
5304.05,0.41149
5298.26,0.41014
5292.48,0.41006
5286.69,0.40700
5280.9,0.40176
5275.12,0.39735
5269.33,0.38833
5263.55,0.38124
5257.76,0.37680
5251.97,0.37383
5246.19,0.37546
5240.4,0.37779
5234.61,0.38285
5228.83,0.38372
5223.04,0.38744
5217.26,0.39004
5211.47,0.39133
5205.68,0.39151
5199.9,0.39178
5194.11,0.39166
5188.32,0.39098
5182.54,0.38806
5176.75,0.38724
5170.97,0.38502
5165.18,0.38397
5159.39,0.38338
5153.61,0.38313
5147.82,0.38062
5142.03,0.38011
5136.25,0.38150
5130.46,0.38347
5124.68,0.38833
5118.89,0.39030
5113.1,0.39299
5107.32,0.39368
5101.53,0.39498
5095.75,0.39707
5089.96,0.39813
5084.17,0.39983
5078.39,0.40073
5072.6,0.40085
5066.81,0.40283
5061.03,0.40354
5055.24,0.40504
5049.46,0.40630
5043.67,0.40761
5037.88,0.40872
5032.1,0.40976
5026.31,0.41001
5020.52,0.41110
5014.74,0.41160
5008.95,0.41207
5003.17,0.41197
4997.38,0.41123
4991.59,0.40856
4985.81,0.40955
4980.02,0.40988
4974.23,0.41000
4968.45,0.40886
4962.66,0.41039
4956.88,0.40931
4951.09,0.40922
4945.3,0.41148
4939.52,0.41087
4933.73,0.40900
4927.94,0.40920
4922.16,0.40812
4916.37,0.40752
4910.59,0.40670
4904.8,0.40545
4899.01,0.40205
4893.23,0.40088
4887.44,0.40010
4881.65,0.39724
4875.87,0.39526
4870.08,0.39259
4864.3,0.39262
4858.51,0.39284
4852.72,0.39407
4846.94,0.39436
4841.15,0.39557
4835.36,0.39593
4829.58,0.39755
4823.79,0.39712
4818.01,0.39792
4812.22,0.39775
4806.43,0.39758
4800.65,0.39757
4794.86,0.39698
4789.07,0.39584
4783.29,0.39440
4777.5,0.39379
4771.72,0.39155
4765.93,0.38988
4760.14,0.38944
4754.36,0.38952
4748.57,0.38898
4742.78,0.38671
4737,0.38446
4731.21,0.38294
4725.43,0.37789
4719.64,0.37385
4713.85,0.36834
4708.07,0.36413
4702.28,0.35969
4696.49,0.35266
4690.71,0.34409
4684.92,0.33009
4679.14,0.30830
4673.35,0.28722
4667.56,0.27853
4661.78,0.28312
4655.99,0.29514
4650.2,0.30480
4644.42,0.30698
4638.63,0.29965
4632.85,0.29076
4627.06,0.28600
4621.27,0.28647
4615.49,0.28497
4609.7,0.28287
4603.92,0.28882
4598.13,0.30491
4592.34,0.31631
4586.56,0.31929
4580.77,0.31063
4574.98,0.30103
4569.2,0.30797
4563.41,0.32202
4557.63,0.32963
4551.84,0.33398
4546.05,0.33592
4540.27,0.33451
4534.48,0.33205
4528.69,0.32960
4522.91,0.32625
4517.12,0.32312
4511.34,0.32015
4505.55,0.31683
4499.76,0.31352
4493.98,0.30990
4488.19,0.30502
4482.4,0.29838
4476.62,0.29043
4470.83,0.28282
4465.05,0.27261
4459.26,0.26185
4453.47,0.25034
4447.69,0.23864
4441.9,0.22707
4436.11,0.21770
4430.33,0.20796
4424.54,0.19647
4418.76,0.18622
4412.97,0.17619
4407.18,0.16746
4401.4,0.16044
4395.61,0.15352
4389.82,0.14682
4384.04,0.14152
4378.25,0.13670
4372.47,0.13283
4366.68,0.12999
4360.89,0.12724
4355.11,0.12623
4349.32,0.12592
4343.53,0.12642
4337.75,0.12661
4331.96,0.12943
4326.18,0.13159
4320.39,0.13276
4314.6,0.13382
4308.82,0.13439
4303.03,0.13431
4297.24,0.13261
4291.46,0.13037
4285.67,0.12843
4279.89,0.12713
4274.1,0.12518
4268.31,0.12464
4262.53,0.12360
4256.74,0.12238
4250.95,0.12214
4245.17,0.12332
4239.38,0.12329
4233.6,0.12332
4227.81,0.12288
4222.02,0.12321
4216.24,0.12300
4210.45,0.12335
4204.66,0.12361
4198.88,0.12464
4193.09,0.12611
4187.31,0.12697
4181.52,0.12702
4175.73,0.12739
4169.95,0.12769
4164.16,0.12766
4158.37,0.12820
4152.59,0.12924
4146.8,0.12897
4141.02,0.12938
4135.23,0.12943
4129.44,0.12808
4123.66,0.12829
4117.87,0.12769
4112.09,0.12679
4106.3,0.12484
4100.51,0.12489
4094.73,0.12335
4088.94,0.12124
4083.15,0.11858
4077.37,0.11643
4071.58,0.11240
4065.8,0.11010
4060.01,0.10903
4054.22,0.10944
4048.44,0.10891
4042.65,0.10805
4036.86,0.10850
4031.08,0.11196
4025.29,0.11553
4019.51,0.12001
4013.72,0.12529
4007.93,0.12640
4002.15,0.12746
3996.36,0.12961
3990.57,0.13081
3984.79,0.13318
3979,0.13370
3973.22,0.13484
3967.43,0.13612
3961.64,0.13726
3955.86,0.13700
3950.07,0.13760
3944.28,0.13658
3938.5,0.13730
3932.71,0.13773
3926.93,0.13811
3921.14,0.13854
3915.35,0.13925
3909.57,0.13942
3903.78,0.13940
3897.99,0.13926
3892.21,0.13958
3886.42,0.14011
3880.64,0.14023
3874.85,0.14013
3869.06,0.14025
3863.28,0.14008
3857.49,0.13992
3851.7,0.13961
3845.92,0.13875
3840.13,0.13925
3834.35,0.13856
3828.56,0.13847
3822.77,0.13876
3816.99,0.13939
3811.2,0.13975
3805.41,0.14142
3799.63,0.14266
3793.84,0.14388
3788.06,0.14483
3782.27,0.14534
3776.48,0.14527
3770.7,0.14600
3764.91,0.14644
3759.12,0.14736
3753.34,0.14820
3747.55,0.14781
3741.77,0.14846
3735.98,0.14912
3730.19,0.14930
3724.41,0.14827
3718.62,0.14724
3712.83,0.14539
3707.05,0.13933
3701.26,0.13272
3695.48,0.12655
3689.69,0.11939
3683.9,0.11131
3678.12,0.10573
3672.33,0.10123
3666.54,0.09811
3660.76,0.09575
3654.97,0.09251
3649.19,0.09088
3643.4,0.09139
3637.61,0.09238
3631.83,0.09359
3626.04,0.09321
3620.25,0.09294
3614.47,0.09331
3608.68,0.09435
3602.9,0.09525
3597.11,0.09496
3591.32,0.09451
3585.54,0.09326
3579.75,0.09342
3573.97,0.09192
3568.18,0.09131
3562.39,0.08964
3556.61,0.08767
3550.82,0.08659
3545.03,0.08622
3539.25,0.08579
3533.46,0.08503
3527.68,0.08581
3521.89,0.08600
3516.1,0.08563
3510.32,0.08656
3504.53,0.08572
3498.74,0.08645
3492.96,0.08638
3487.17,0.08663
3481.39,0.08648
3475.6,0.08571
3469.81,0.08497
3464.03,0.08434
3458.24,0.08238
3452.45,0.08100
3446.67,0.07993
3440.88,0.08083
3435.1,0.08171
3429.31,0.08225
3423.52,0.08320
3417.74,0.08358
3411.95,0.08340
3406.16,0.08383
3400.38,0.08302
3394.59,0.08235
3388.81,0.08201
3383.02,0.08216
3377.23,0.08014
3371.45,0.07965
3365.66,0.07896
3359.87,0.07709
3354.09,0.07590
3348.3,0.07490
3342.52,0.07231
3336.73,0.07073
3330.94,0.06799
3325.16,0.06517
3319.37,0.06363
3313.58,0.06099
3307.8,0.06000
3302.01,0.05946
3296.23,0.06148
3290.44,0.06334
3284.65,0.06622
3278.87,0.06782
3273.08,0.06951
3267.29,0.07051
3261.51,0.07219
3255.72,0.07355
3249.94,0.07437
3244.15,0.07582
3238.36,0.07665
3232.58,0.07736
3226.79,0.07736
3221,0.07801
3215.22,0.07730
3209.43,0.07708
3203.65,0.07681
3197.86,0.07706
3192.07,0.07819
3186.29,0.07850
3180.5,0.07826
3174.71,0.07858
3168.93,0.07900
3163.14,0.07878
3157.36,0.07962
3151.57,0.07973
3145.78,0.07975
3140,0.07904
3134.21,0.07898
3128.42,0.07836
3122.64,0.07706
3116.85,0.07359
3111.07,0.07020
3105.28,0.06620
3099.49,0.06650
3093.71,0.06454
3087.92,0.06095
3082.14,0.05870
3076.35,0.05990
3070.56,0.05885
3064.78,0.05638
3058.99,0.05614
3053.2,0.05854
3047.42,0.05993
3041.63,0.05878
3035.85,0.05642
3030.06,0.05478
3024.27,0.05565
3018.49,0.05799
3012.7,0.06060
3006.91,0.05913
3001.13,0.05841
2995.34,0.05882
2989.56,0.05795
2983.77,0.05632
2977.98,0.05407
2972.2,0.05225
2966.41,0.05142
2960.62,0.05150
2954.84,0.05301
2949.05,0.05299
2943.27,0.05313
2937.48,0.05395
2931.69,0.05661
2925.91,0.05920
2920.12,0.06069
2914.33,0.06001
2908.55,0.05926
2902.76,0.05877
2896.98,0.05900
2891.19,0.05840
2885.4,0.05813
2879.62,0.05706
2873.83,0.05691
2868.04,0.05749
2862.26,0.05800
2856.47,0.06050
2850.69,0.06183
2844.9,0.06207
2839.11,0.06351
2833.33,0.06634
2827.54,0.06753
2821.75,0.06852
2815.97,0.06861
2810.18,0.06965
2804.4,0.06999
2798.61,0.07026
2792.82,0.07137
2787.04,0.07189
2781.25,0.07245
2775.46,0.07291
2769.68,0.07347
2763.89,0.07364
2758.11,0.07354
2752.32,0.07309
2746.53,0.07366
2740.75,0.07245
2734.96,0.07266
2729.17,0.07343
2723.39,0.07334
2717.6,0.07376
2711.82,0.07405
2706.03,0.07409
2700.24,0.07441
2694.46,0.07455
2688.67,0.07456
2682.88,0.07420
2677.1,0.07441
2671.31,0.07367
2665.53,0.07430
2659.74,0.07377
2653.95,0.07487
2648.17,0.07475
2642.38,0.07451
2636.59,0.07375
2630.81,0.07356
2625.02,0.07409
2619.24,0.07385
2613.45,0.07367
2607.66,0.07322
2601.88,0.07294
2596.09,0.07322
2590.3,0.07315
2584.52,0.07302
2578.73,0.07310
2572.95,0.07345
2567.16,0.07327
2561.37,0.07336
2555.59,0.07354
2549.8,0.07294
2544.02,0.07316
2538.23,0.07326
2532.44,0.07288
2526.66,0.07291
2520.87,0.07259
2515.08,0.07212
2509.3,0.07215
2503.51,0.07216
2497.73,0.07228
2491.94,0.07279
2486.15,0.07281
2480.37,0.07314
2474.58,0.07364
2468.79,0.07377
2463.01,0.07411
2457.22,0.07428
2451.44,0.07439
2445.65,0.07447
2439.86,0.07458
2434.08,0.07428
2428.29,0.07458
2422.5,0.07418
2416.72,0.07399
2410.93,0.07446
2405.15,0.07441
2399.36,0.07440
2393.57,0.07426
2387.79,0.07462
2382,0.07511
2376.21,0.07498
2370.43,0.07465
2364.64,0.07427
2358.86,0.07376
2353.07,0.07375
2347.28,0.07278
2341.5,0.07220
2335.71,0.07232
2329.92,0.07363
2324.14,0.07443
2318.35,0.07432
2312.57,0.07408
2306.78,0.07487
2300.99,0.07506
2295.21,0.07499
2289.42,0.07461
2283.63,0.07432
2277.85,0.07382
2272.06,0.07341
2266.28,0.07269
2260.49,0.07207
2254.7,0.06918
2248.92,0.06301
2243.13,0.05673
2237.34,0.05587
2231.56,0.06028
2225.77,0.07087
2219.99,0.07694
2214.2,0.07864
2208.41,0.07931
2202.63,0.08052
2196.84,0.08061
2191.05,0.08045
2185.27,0.07989
2179.48,0.08105
2173.7,0.08205
2167.91,0.08260
2162.12,0.08211
2156.34,0.08244
2150.55,0.08197
2144.76,0.08084
2138.98,0.08105
2133.19,0.08209
2127.41,0.08320
2121.62,0.08499
2115.83,0.08656
2110.05,0.08761
2104.26,0.08808
2098.47,0.08848
2092.69,0.08889
2086.9,0.08904
2081.12,0.08841
2075.33,0.08764
2069.54,0.08739
2063.76,0.08662
2057.97,0.08578
2052.19,0.08521
2046.4,0.08459
2040.61,0.08337
2034.83,0.08238
2029.04,0.08210
2023.25,0.08186
2017.47,0.08206
2011.68,0.08218
2005.9,0.08197
2000.11,0.08106
1994.32,0.07886
1988.54,0.07741
1982.75,0.07646
1976.96,0.07522
1971.18,0.07326
1965.39,0.07099
1959.61,0.06888
1953.82,0.06871
1948.03,0.06965
1942.25,0.07208
1936.46,0.07575
1930.67,0.07849
1924.89,0.08026
1919.1,0.08061
1913.32,0.08000
1907.53,0.07758
1901.74,0.07517
1895.96,0.07298
1890.17,0.07190
1884.38,0.07088
1878.6,0.07072
1872.81,0.07240
1867.03,0.07581
1861.24,0.07954
1855.45,0.08166
1849.67,0.08132
1843.88,0.07941
1838.09,0.07671
1832.31,0.07381
1826.52,0.07017
1820.74,0.06685
1814.95,0.06441
1809.16,0.06235
1803.38,0.06055
1797.59,0.05908
1791.8,0.05919
1786.02,0.05947
1780.23,0.05965
1774.45,0.05871
1768.66,0.05660
1762.87,0.05468
1757.09,0.05229
1751.3,0.04978
1745.51,0.04704
1739.73,0.04795
1733.94,0.05333
1728.16,0.05819
1722.37,0.05972
1716.58,0.05895
1710.8,0.05829
1705.01,0.05829
1699.22,0.05867
1693.44,0.05845
1687.65,0.05871
1681.87,0.05965
1676.08,0.05950
1670.29,0.05946
1664.51,0.05851
1658.72,0.05822
1652.93,0.05814
1647.15,0.05834
1641.36,0.05844
1635.58,0.05925
1629.79,0.06000
1624,0.05949
1618.22,0.05942
1612.43,0.05803
1606.64,0.05583
1600.86,0.05522
1595.07,0.05748
1589.29,0.05807
1583.5,0.05608
1577.71,0.05694
1571.93,0.05713
1566.14,0.05603
1560.35,0.05588
1554.57,0.05467
1548.78,0.05479
1543,0.05561
1537.21,0.05638
1531.42,0.05736
1525.64,0.05875
1519.85,0.05879
1514.07,0.05886
1508.28,0.05789
1502.49,0.05451
1496.71,0.05054
1490.92,0.05399
1485.13,0.05429
1479.35,0.05331
1473.56,0.05217
1467.78,0.05232
1461.99,0.05154
1456.2,0.05078
1450.42,0.05492
1444.63,0.05665
1438.84,0.05656
1433.06,0.05651
1427.27,0.05700
1421.49,0.05656
1415.7,0.05657
1409.91,0.05620
1404.13,0.05491
1398.34,0.05418
1392.55,0.05340
1386.77,0.05350
1380.98,0.05322
1375.2,0.05352
1369.41,0.05342
1363.62,0.05378
1357.84,0.05384
1352.05,0.05405
1346.26,0.05349
1340.48,0.05338
1334.69,0.05315
1328.91,0.05320
1323.12,0.05328
1317.33,0.05309
1311.55,0.05301
1305.76,0.05268
1299.97,0.05293
1294.19,0.05267
1288.4,0.05212
1282.62,0.05145
1276.83,0.05148
1271.04,0.05159
1265.26,0.05225
1259.47,0.05266
1253.68,0.05312
1247.9,0.05287
1242.11,0.05374
1236.33,0.05437
1230.54,0.05397
1224.75,0.05405
1218.97,0.05359
1213.18,0.05303
1207.39,0.05284
1201.61,0.05234
1195.82,0.05249
1190.04,0.05147
1184.25,0.05162
1178.46,0.05206
1172.68,0.05351
1166.89,0.05534
1161.1,0.05798
1155.32,0.06010
1149.53,0.06047
1143.75,0.06029
1137.96,0.05898
1132.17,0.05760
1126.39,0.05676
1120.6,0.05669
1114.81,0.05701
1109.03,0.05678
1103.24,0.05676
1097.46,0.05550
1091.67,0.05506
1085.88,0.05519
1080.1,0.05473
1074.31,0.05459
1068.52,0.05511
1062.74,0.05628
1056.95,0.05612
1051.17,0.05613
1045.38,0.05591
1039.59,0.05603
1033.81,0.05596
1028.02,0.05621
1022.24,0.05725
1016.45,0.05749
1010.66,0.05701
1004.88,0.05577
999.09,0.05644
993.304,0.05558
987.518,0.05574
981.731,0.05549
975.945,0.05542
970.159,0.05526
964.373,0.05471
958.586,0.05496
952.8,0.05505
947.014,0.05535
941.228,0.05538
935.441,0.05582
929.655,0.05513
923.869,0.05447
918.083,0.05459
912.297,0.05418
906.51,0.05486
900.724,0.05473
894.938,0.05468
889.152,0.05355
883.365,0.05363
877.579,0.05427
871.793,0.05438
866.007,0.05403
860.22,0.05337
854.434,0.05286
848.648,0.05272
842.862,0.05271
837.075,0.05340
831.289,0.05349
825.503,0.05278
819.717,0.05248
813.931,0.05178
808.144,0.05161
802.358,0.05086
796.572,0.05031
790.786,0.05011
784.999,0.04902
779.213,0.04722
773.427,0.04685
767.641,0.04663
761.854,0.05016
756.068,0.05431
750.282,0.05478
744.496,0.05277
738.709,0.05330
732.923,0.05282
727.137,0.05145
721.351,0.04818
715.565,0.04347
709.778,0.04063
703.992,0.05085
698.206,0.07134
692.42,0.06720
686.633,0.06149
680.847,0.05836
675.061,0.05816
669.275,0.05679
663.488,0.05600
657.702,0.05654
651.916,0.05564
646.13,0.05510
640.343,0.05555
634.557,0.05570
628.771,0.05670
622.985,0.05512
617.198,0.05467
611.412,0.05391
605.626,0.05456
599.84,0.05350