File: 01_Data/Vinyl_Siding/FTIR/IS/Vinyl_Siding_IS_S_220914_R8.dpt
7497.03,0.74786
7491.25,0.76213
7485.46,0.75345
7479.67,0.75053
7473.89,0.75413
7468.1,0.75555
7462.32,0.74617
7456.53,0.74850
7450.74,0.74040
7444.96,0.73602
7439.17,0.74356
7433.38,0.73776
7427.6,0.74638
7421.81,0.74121
7416.03,0.75070
7410.24,0.73980
7404.45,0.74981
7398.67,0.74355
7392.88,0.73805
7387.09,0.73783
7381.31,0.74215
7375.52,0.73188
7369.74,0.72703
7363.95,0.72656
7358.16,0.72628
7352.38,0.73202
7346.59,0.72269
7340.8,0.71692
7335.02,0.71665
7329.23,0.71089
7323.45,0.69993
7317.66,0.69768
7311.87,0.69706
7306.09,0.68409
7300.3,0.68399
7294.51,0.68331
7288.73,0.67668
7282.94,0.66415
7277.16,0.65567
7271.37,0.65378
7265.58,0.65423
7259.8,0.65393
7254.01,0.64327
7248.22,0.63779
7242.44,0.62921
7236.65,0.63386
7230.87,0.62671
7225.08,0.62160
7219.29,0.61300
7213.51,0.61607
7207.72,0.61027
7201.93,0.61853
7196.15,0.61028
7190.36,0.61536
7184.58,0.60906
7178.79,0.60581
7173,0.60771
7167.22,0.61007
7161.43,0.60983
7155.65,0.59872
7149.86,0.59390
7144.07,0.59379
7138.29,0.59572
7132.5,0.58937
7126.71,0.58732
7120.93,0.58788
7115.14,0.59117
7109.36,0.59585
7103.57,0.58860
7097.78,0.58944
7092,0.59252
7086.21,0.58064
7080.42,0.58233
7074.64,0.58375
7068.85,0.57753
7063.07,0.58597
7057.28,0.57866
7051.49,0.58164
7045.71,0.58601
7039.92,0.58365
7034.13,0.58546
7028.35,0.59021
7022.56,0.57935
7016.78,0.57857
7010.99,0.58282
7005.2,0.57728
6999.42,0.58041
6993.63,0.57513
6987.84,0.58223
6982.06,0.58208
6976.27,0.59149
6970.49,0.59294
6964.7,0.60229
6958.91,0.60239
6953.13,0.59926
6947.34,0.60495
6941.55,0.60599
6935.77,0.60679
6929.98,0.61674
6924.2,0.61450
6918.41,0.60825
6912.62,0.61693
6906.84,0.61636
6901.05,0.61802
6895.26,0.61997
6889.48,0.62494
6883.69,0.62842
6877.91,0.62737
6872.12,0.63292
6866.33,0.62698
6860.55,0.63443
6854.76,0.63426
6848.97,0.63435
6843.19,0.63250
6837.4,0.63868
6831.62,0.63327
6825.83,0.63262
6820.04,0.63912
6814.26,0.63563
6808.47,0.63367
6802.68,0.63374
6796.9,0.63777
6791.11,0.63860
6785.33,0.63413
6779.54,0.64381
6773.75,0.64081
6767.97,0.63525
6762.18,0.64387
6756.39,0.63980
6750.61,0.64421
6744.82,0.64052
6739.04,0.64365
6733.25,0.64616
6727.46,0.64279
6721.68,0.64860
6715.89,0.64859
6710.1,0.64784
6704.32,0.64842
6698.53,0.64818
6692.75,0.65098
6686.96,0.65145
6681.17,0.65425
6675.39,0.65672
6669.6,0.65877
6663.82,0.65407
6658.03,0.65940
6652.24,0.65540
6646.46,0.65428
6640.67,0.65609
6634.88,0.65902
6629.1,0.65988
6623.31,0.66064
6617.53,0.65885
6611.74,0.66186
6605.95,0.65722
6600.17,0.66092
6594.38,0.65528
6588.59,0.65748
6582.81,0.65599
6577.02,0.65432
6571.24,0.65596
6565.45,0.65738
6559.66,0.65658
6553.88,0.65949
6548.09,0.65799
6542.3,0.66214
6536.52,0.65848
6530.73,0.66314
6524.95,0.65868
6519.16,0.66082
6513.37,0.65996
6507.59,0.65988
6501.8,0.66301
6496.01,0.66397
6490.23,0.66008
6484.44,0.65719
6478.66,0.65883
6472.87,0.66594
6467.08,0.66260
6461.3,0.66260
6455.51,0.66234
6449.72,0.66337
6443.94,0.66564
6438.15,0.66853
6432.37,0.67030
6426.58,0.66896
6420.79,0.66933
6415.01,0.67061
6409.22,0.66980
6403.43,0.66873
6397.65,0.66651
6391.86,0.66595
6386.08,0.66719
6380.29,0.67328
6374.5,0.66888
6368.72,0.67128
6362.93,0.66699
6357.14,0.66984
6351.36,0.67044
6345.57,0.66930
6339.79,0.66696
6334,0.67038
6328.21,0.66440
6322.43,0.66766
6316.64,0.66600
6310.85,0.66505
6305.07,0.66563
6299.28,0.66707
6293.5,0.66282
6287.71,0.66412
6281.92,0.66716
6276.14,0.66318
6270.35,0.66174
6264.56,0.66559
6258.78,0.66456
6252.99,0.66495
6247.21,0.66720
6241.42,0.66099
6235.63,0.66282
6229.85,0.66248
6224.06,0.66343
6218.27,0.66382
6212.49,0.66388
6206.7,0.66433
6200.92,0.66245
6195.13,0.65887
6189.34,0.66002
6183.56,0.65383
6177.77,0.65649
6171.98,0.65114
6166.2,0.64852
6160.41,0.64669
6154.63,0.64294
6148.84,0.63947
6143.05,0.63403
6137.27,0.63620
6131.48,0.62522
6125.7,0.62588
6119.91,0.62276
6114.12,0.62347
6108.34,0.62100
6102.55,0.62190
6096.76,0.62288
6090.98,0.62159
6085.19,0.61784
6079.41,0.60990
6073.62,0.61643
6067.83,0.61950
6062.05,0.62037
6056.26,0.61752
6050.47,0.61582
6044.69,0.60592
6038.9,0.59419
6033.12,0.58247
6027.33,0.56827
6021.54,0.55388
6015.76,0.53518
6009.97,0.52154
6004.18,0.50460
5998.4,0.48663
5992.61,0.47336
5986.83,0.45841
5981.04,0.44520
5975.25,0.43116
5969.47,0.42786
5963.68,0.42084
5957.89,0.41973
5952.11,0.41342
5946.32,0.41059
5940.54,0.40932
5934.75,0.40502
5928.96,0.39627
5923.18,0.38308
5917.39,0.37027
5911.6,0.35999
5905.82,0.35024
5900.03,0.33767
5894.25,0.32759
5888.46,0.31972
5882.67,0.31595
5876.89,0.30992
5871.1,0.30916
5865.31,0.30501
5859.53,0.29949
5853.74,0.29372
5847.96,0.29003
5842.17,0.28769
5836.38,0.28357
5830.6,0.27999
5824.81,0.28243
5819.02,0.28277
5813.24,0.28710
5807.45,0.28861
5801.67,0.29622
5795.88,0.30010
5790.09,0.30641
5784.31,0.30724
5778.52,0.31384
5772.73,0.31362
5766.95,0.31517
5761.16,0.31623
5755.38,0.31594
5749.59,0.31146
5743.8,0.31174
5738.02,0.30723
5732.23,0.30202
5726.44,0.30217
5720.66,0.30012
5714.87,0.29916
5709.09,0.29867
5703.3,0.30036
5697.51,0.30086
5691.73,0.30491
5685.94,0.31094
5680.15,0.31548
5674.37,0.31997
5668.58,0.32442
5662.8,0.32797
5657.01,0.33076
5651.22,0.33279
5645.44,0.33723
5639.65,0.34060
5633.87,0.34060
5628.08,0.34133
5622.29,0.34656
5616.51,0.34768
5610.72,0.34850
5604.93,0.34985
5599.15,0.35178
5593.36,0.35343
5587.58,0.35680
5581.79,0.36086
5576,0.36373
5570.22,0.36515
5564.43,0.36909
5558.64,0.37005
5552.86,0.37129
5547.07,0.37234
5541.29,0.37250
5535.5,0.37428
5529.71,0.37587
5523.93,0.37649
5518.14,0.37681
5512.35,0.37792
5506.57,0.37855
5500.78,0.37585
5495,0.37607
5489.21,0.37412
5483.42,0.37361
5477.64,0.37412
5471.85,0.37293
5466.06,0.37316
5460.28,0.37339
5454.49,0.37444
5448.71,0.37656
5442.92,0.37722
5437.13,0.38006
5431.35,0.38163
5425.56,0.38370
5419.77,0.38249
5413.99,0.38441
5408.2,0.38473
5402.42,0.38598
5396.63,0.38494
5390.84,0.38554
5385.06,0.38707
5379.27,0.38653
5373.48,0.39084
5367.7,0.39176
5361.91,0.39502
5356.13,0.39890
5350.34,0.40291
5344.55,0.40469
5338.77,0.40722
5332.98,0.40768
5327.19,0.40882
5321.41,0.41079
5315.62,0.41184
5309.84,0.41295
5304.05,0.41565
5298.26,0.41398
5292.48,0.41451
5286.69,0.41391
5280.9,0.41080
5275.12,0.40583
5269.33,0.39999
5263.55,0.39259
5257.76,0.38969
5251.97,0.38772
5246.19,0.38962
5240.4,0.39239
5234.61,0.39728
5228.83,0.39750
5223.04,0.39825
5217.26,0.39785
5211.47,0.39942
5205.68,0.39677
5199.9,0.39844
5194.11,0.39678
5188.32,0.39468
5182.54,0.39534
5176.75,0.39269
5170.97,0.39067
5165.18,0.39058
5159.39,0.38794
5153.61,0.38487
5147.82,0.38431
5142.03,0.38470
5136.25,0.38543
5130.46,0.38868
5124.68,0.39121
5118.89,0.39402
5113.1,0.39673
5107.32,0.39926
5101.53,0.40052
5095.75,0.40140
5089.96,0.40205
5084.17,0.40412
5078.39,0.40465
5072.6,0.40525
5066.81,0.40475
5061.03,0.40693
5055.24,0.40785
5049.46,0.41025
5043.67,0.41020
5037.88,0.41131
5032.1,0.41270
5026.31,0.41432
5020.52,0.41460
5014.74,0.41363
5008.95,0.41384
5003.17,0.41329
4997.38,0.41285
4991.59,0.41291
4985.81,0.41381
4980.02,0.41343
4974.23,0.41245
4968.45,0.41299
4962.66,0.41330
4956.88,0.41387
4951.09,0.41320
4945.3,0.41307
4939.52,0.41294
4933.73,0.41204
4927.94,0.41077
4922.16,0.40996
4916.37,0.40802
4910.59,0.40704
4904.8,0.40695
4899.01,0.40454
4893.23,0.40302
4887.44,0.40195
4881.65,0.39804
4875.87,0.39463
4870.08,0.39304
4864.3,0.39384
4858.51,0.39326
4852.72,0.39442
4846.94,0.39547
4841.15,0.39600
4835.36,0.39725
4829.58,0.39729
4823.79,0.39949
4818.01,0.39963
4812.22,0.39985
4806.43,0.39850
4800.65,0.39929
4794.86,0.39749
4789.07,0.39647
4783.29,0.39589
4777.5,0.39405
4771.72,0.39261
4765.93,0.39133
4760.14,0.39131
4754.36,0.38919
4748.57,0.38844
4742.78,0.38634
4737,0.38612
4731.21,0.38388
4725.43,0.37932
4719.64,0.37562
4713.85,0.36963
4708.07,0.36537
4702.28,0.36076
4696.49,0.35463
4690.71,0.34645
4684.92,0.33053
4679.14,0.30902
4673.35,0.28703
4667.56,0.27873
4661.78,0.28427
4655.99,0.29680
4650.2,0.30666
4644.42,0.30770
4638.63,0.30055
4632.85,0.29097
4627.06,0.28651
4621.27,0.28782
4615.49,0.28585
4609.7,0.28309
4603.92,0.29043
4598.13,0.30454
4592.34,0.31813
4586.56,0.31958
4580.77,0.31105
4574.98,0.30207
4569.2,0.30942
4563.41,0.32285
4557.63,0.33109
4551.84,0.33571
4546.05,0.33650
4540.27,0.33452
4534.48,0.33337
4528.69,0.33052
4522.91,0.32783
4517.12,0.32534
4511.34,0.32078
4505.55,0.31724
4499.76,0.31496
4493.98,0.31106
4488.19,0.30548
4482.4,0.29819
4476.62,0.29212
4470.83,0.28327
4465.05,0.27370
4459.26,0.26205
4453.47,0.25045
4447.69,0.23887
4441.9,0.22848
4436.11,0.21767
4430.33,0.20741
4424.54,0.19652
4418.76,0.18667
4412.97,0.17692
4407.18,0.16701
4401.4,0.16028
4395.61,0.15440
4389.82,0.14756
4384.04,0.14137
4378.25,0.13629
4372.47,0.13191
4366.68,0.12894
4360.89,0.12803
4355.11,0.12510
4349.32,0.12492
4343.53,0.12654
4337.75,0.12698
4331.96,0.12908
4326.18,0.13142
4320.39,0.13257
4314.6,0.13395
4308.82,0.13431
4303.03,0.13416
4297.24,0.13258
4291.46,0.13071
4285.67,0.12861
4279.89,0.12737
4274.1,0.12583
4268.31,0.12437
4262.53,0.12395
4256.74,0.12273
4250.95,0.12251
4245.17,0.12255
4239.38,0.12292
4233.6,0.12396
4227.81,0.12341
4222.02,0.12389
4216.24,0.12321
4210.45,0.12392
4204.66,0.12445
4198.88,0.12494
4193.09,0.12599
4187.31,0.12640
4181.52,0.12726
4175.73,0.12734
4169.95,0.12769
4164.16,0.12912
4158.37,0.12871
4152.59,0.12879
4146.8,0.12917
4141.02,0.12910
4135.23,0.12890
4129.44,0.12918
4123.66,0.12844
4117.87,0.12722
4112.09,0.12649
4106.3,0.12562
4100.51,0.12474
4094.73,0.12355
4088.94,0.12206
4083.15,0.11948
4077.37,0.11657
4071.58,0.11325
4065.8,0.11126
4060.01,0.10953
4054.22,0.10861
4048.44,0.10907
4042.65,0.10792
4036.86,0.10879
4031.08,0.11262
4025.29,0.11575
4019.51,0.12046
4013.72,0.12452
4007.93,0.12655
4002.15,0.12820
3996.36,0.13012
3990.57,0.13152
3984.79,0.13352
3979,0.13442
3973.22,0.13532
3967.43,0.13624
3961.64,0.13747
3955.86,0.13821
3950.07,0.13774
3944.28,0.13757
3938.5,0.13790
3932.71,0.13791
3926.93,0.13907
3921.14,0.13965
3915.35,0.13953
3909.57,0.13985
3903.78,0.13967
3897.99,0.13931
3892.21,0.14035
3886.42,0.13983
3880.64,0.14097
3874.85,0.14120
3869.06,0.14077
3863.28,0.14111
3857.49,0.14109
3851.7,0.14023
3845.92,0.13958
3840.13,0.13974
3834.35,0.14014
3828.56,0.13984
3822.77,0.13972
3816.99,0.14058
3811.2,0.14065
3805.41,0.14262
3799.63,0.14416
3793.84,0.14529
3788.06,0.14629
3782.27,0.14732
3776.48,0.14758
3770.7,0.14813
3764.91,0.14885
3759.12,0.14968
3753.34,0.15004
3747.55,0.15111
3741.77,0.15150
3735.98,0.15219
3730.19,0.15273
3724.41,0.15211
3718.62,0.15094
3712.83,0.14993
3707.05,0.14452
3701.26,0.13833
3695.48,0.13356
3689.69,0.12757
3683.9,0.12063
3678.12,0.11672
3672.33,0.11326
3666.54,0.11131
3660.76,0.10941
3654.97,0.10630
3649.19,0.10382
3643.4,0.10502
3637.61,0.10674
3631.83,0.10666
3626.04,0.10448
3620.25,0.10355
3614.47,0.10450
3608.68,0.10518
3602.9,0.10410
3597.11,0.10414
3591.32,0.10322
3585.54,0.10280
3579.75,0.10183
3573.97,0.10162
3568.18,0.10040
3562.39,0.09941
3556.61,0.09760
3550.82,0.09735
3545.03,0.09581
3539.25,0.09550
3533.46,0.09487
3527.68,0.09391
3521.89,0.09448
3516.1,0.09429
3510.32,0.09445
3504.53,0.09436
3498.74,0.09410
3492.96,0.09323
3487.17,0.09282
3481.39,0.09272
3475.6,0.09152
3469.81,0.09071
3464.03,0.08885
3458.24,0.08727
3452.45,0.08440
3446.67,0.08375
3440.88,0.08386
3435.1,0.08504
3429.31,0.08611
3423.52,0.08692
3417.74,0.08676
3411.95,0.08735
3406.16,0.08736
3400.38,0.08677
3394.59,0.08601
3388.81,0.08532
3383.02,0.08441
3377.23,0.08416
3371.45,0.08253
3365.66,0.08037
3359.87,0.07887
3354.09,0.07718
3348.3,0.07511
3342.52,0.07270
3336.73,0.07040
3330.94,0.06758
3325.16,0.06496
3319.37,0.06308
3313.58,0.06088
3307.8,0.05898
3302.01,0.05964
3296.23,0.06158
3290.44,0.06366
3284.65,0.06634
3278.87,0.06856
3273.08,0.07016
3267.29,0.07140
3261.51,0.07268
3255.72,0.07359
3249.94,0.07528
3244.15,0.07675
3238.36,0.07827
3232.58,0.07828
3226.79,0.07852
3221,0.07942
3215.22,0.07905
3209.43,0.07842
3203.65,0.07870
3197.86,0.07786
3192.07,0.07876
3186.29,0.07904
3180.5,0.07960
3174.71,0.07969
3168.93,0.08003
3163.14,0.07932
3157.36,0.08055
3151.57,0.08072
3145.78,0.08083
3140,0.08094
3134.21,0.07862
3128.42,0.07836
3122.64,0.07750
3116.85,0.07480
3111.07,0.07030
3105.28,0.06654
3099.49,0.06611
3093.71,0.06464
3087.92,0.05989
3082.14,0.05881
3076.35,0.05977
3070.56,0.05889
3064.78,0.05666
3058.99,0.05672
3053.2,0.05833
3047.42,0.06011
3041.63,0.05923
3035.85,0.05671
3030.06,0.05366
3024.27,0.05529
3018.49,0.05838
3012.7,0.06089
3006.91,0.05932
3001.13,0.05846
2995.34,0.05920
2989.56,0.05797
2983.77,0.05601
2977.98,0.05379
2972.2,0.05269
2966.41,0.05123
2960.62,0.05157
2954.84,0.05253
2949.05,0.05304
2943.27,0.05388
2937.48,0.05447
2931.69,0.05711
2925.91,0.05899
2920.12,0.06023
2914.33,0.06019
2908.55,0.05912
2902.76,0.05828
2896.98,0.05780
2891.19,0.05814
2885.4,0.05761
2879.62,0.05676
2873.83,0.05637
2868.04,0.05687
2862.26,0.05814
2856.47,0.05993
2850.69,0.06146
2844.9,0.06209
2839.11,0.06322
2833.33,0.06532
2827.54,0.06701
2821.75,0.06784
2815.97,0.06839
2810.18,0.06871
2804.4,0.07029
2798.61,0.07046
2792.82,0.07124
2787.04,0.07142
2781.25,0.07243
2775.46,0.07242
2769.68,0.07322
2763.89,0.07355
2758.11,0.07337
2752.32,0.07304
2746.53,0.07327
2740.75,0.07266
2734.96,0.07244
2729.17,0.07260
2723.39,0.07319
2717.6,0.07394
2711.82,0.07394
2706.03,0.07403
2700.24,0.07414
2694.46,0.07383
2688.67,0.07391
2682.88,0.07407
2677.1,0.07413
2671.31,0.07402
2665.53,0.07428
2659.74,0.07424
2653.95,0.07438
2648.17,0.07458
2642.38,0.07398
2636.59,0.07376
2630.81,0.07383
2625.02,0.07408
2619.24,0.07387
2613.45,0.07381
2607.66,0.07333
2601.88,0.07287
2596.09,0.07295
2590.3,0.07303
2584.52,0.07292
2578.73,0.07297
2572.95,0.07331
2567.16,0.07339
2561.37,0.07328
2555.59,0.07334
2549.8,0.07323
2544.02,0.07315
2538.23,0.07319
2532.44,0.07270
2526.66,0.07263
2520.87,0.07203
2515.08,0.07217
2509.3,0.07239
2503.51,0.07214
2497.73,0.07197
2491.94,0.07231
2486.15,0.07285
2480.37,0.07287
2474.58,0.07344
2468.79,0.07390
2463.01,0.07407
2457.22,0.07423
2451.44,0.07442
2445.65,0.07415
2439.86,0.07422
2434.08,0.07435
2428.29,0.07458
2422.5,0.07426
2416.72,0.07375
2410.93,0.07390
2405.15,0.07408
2399.36,0.07454
2393.57,0.07441
2387.79,0.07495
2382,0.07495
2376.21,0.07490
2370.43,0.07488
2364.64,0.07426
2358.86,0.07406
2353.07,0.07363
2347.28,0.07281
2341.5,0.07217
2335.71,0.07263
2329.92,0.07409
2324.14,0.07490
2318.35,0.07465
2312.57,0.07431
2306.78,0.07491
2300.99,0.07525
2295.21,0.07454
2289.42,0.07465
2283.63,0.07450
2277.85,0.07425
2272.06,0.07365
2266.28,0.07278
2260.49,0.07182
2254.7,0.06918
2248.92,0.06319
2243.13,0.05729
2237.34,0.05574
2231.56,0.06011
2225.77,0.07056
2219.99,0.07672
2214.2,0.07832
2208.41,0.07978
2202.63,0.08085
2196.84,0.08113
2191.05,0.08062
2185.27,0.08003
2179.48,0.08111
2173.7,0.08233
2167.91,0.08272
2162.12,0.08304
2156.34,0.08292
2150.55,0.08216
2144.76,0.08143
2138.98,0.08159
2133.19,0.08268
2127.41,0.08400
2121.62,0.08570
2115.83,0.08730
2110.05,0.08837
2104.26,0.08866
2098.47,0.08930
2092.69,0.08975
2086.9,0.08960
2081.12,0.08959
2075.33,0.08879
2069.54,0.08771
2063.76,0.08751
2057.97,0.08639
2052.19,0.08584
2046.4,0.08472
2040.61,0.08349
2034.83,0.08304
2029.04,0.08301
2023.25,0.08259
2017.47,0.08235
2011.68,0.08256
2005.9,0.08229
2000.11,0.08129
1994.32,0.07980
1988.54,0.07770
1982.75,0.07672
1976.96,0.07542
1971.18,0.07347
1965.39,0.07128
1959.61,0.06906
1953.82,0.06901
1948.03,0.06985
1942.25,0.07251
1936.46,0.07614
1930.67,0.07915
1924.89,0.08073
1919.1,0.08116
1913.32,0.07999
1907.53,0.07796
1901.74,0.07539
1895.96,0.07329
1890.17,0.07187
1884.38,0.07089
1878.6,0.07107
1872.81,0.07271
1867.03,0.07591
1861.24,0.07951
1855.45,0.08141
1849.67,0.08175
1843.88,0.07991
1838.09,0.07707
1832.31,0.07377
1826.52,0.06992
1820.74,0.06714
1814.95,0.06436
1809.16,0.06249
1803.38,0.06027
1797.59,0.05906
1791.8,0.05901
1786.02,0.05962
1780.23,0.05957
1774.45,0.05862
1768.66,0.05649
1762.87,0.05432
1757.09,0.05254
1751.3,0.04980
1745.51,0.04720
1739.73,0.04782
1733.94,0.05357
1728.16,0.05806
1722.37,0.05925
1716.58,0.05856
1710.8,0.05819
1705.01,0.05831
1699.22,0.05886
1693.44,0.05840
1687.65,0.05897
1681.87,0.05940
1676.08,0.05932
1670.29,0.05886
1664.51,0.05864
1658.72,0.05800
1652.93,0.05801
1647.15,0.05842
1641.36,0.05852
1635.58,0.05962
1629.79,0.06006
1624,0.05974
1618.22,0.06012
1612.43,0.05865
1606.64,0.05586
1600.86,0.05519
1595.07,0.05766
1589.29,0.05840
1583.5,0.05603
1577.71,0.05695
1571.93,0.05736
1566.14,0.05649
1560.35,0.05569
1554.57,0.05496
1548.78,0.05459
1543,0.05547
1537.21,0.05622
1531.42,0.05757
1525.64,0.05855
1519.85,0.05880
1514.07,0.05842
1508.28,0.05785
1502.49,0.05419
1496.71,0.05045
1490.92,0.05349
1485.13,0.05488
1479.35,0.05344
1473.56,0.05227
1467.78,0.05227
1461.99,0.05171
1456.2,0.05054
1450.42,0.05485
1444.63,0.05639
1438.84,0.05648
1433.06,0.05670
1427.27,0.05652
1421.49,0.05656
1415.7,0.05612
1409.91,0.05572
1404.13,0.05447
1398.34,0.05358
1392.55,0.05355
1386.77,0.05376
1380.98,0.05292
1375.2,0.05348
1369.41,0.05327
1363.62,0.05353
1357.84,0.05396
1352.05,0.05348
1346.26,0.05328
1340.48,0.05341
1334.69,0.05320
1328.91,0.05317
1323.12,0.05296
1317.33,0.05272
1311.55,0.05278
1305.76,0.05304
1299.97,0.05288
1294.19,0.05251
1288.4,0.05202
1282.62,0.05133
1276.83,0.05102
1271.04,0.05153
1265.26,0.05238
1259.47,0.05254
1253.68,0.05268
1247.9,0.05286
1242.11,0.05398
1236.33,0.05374
1230.54,0.05385
1224.75,0.05372
1218.97,0.05381
1213.18,0.05334
1207.39,0.05325
1201.61,0.05254
1195.82,0.05245
1190.04,0.05145
1184.25,0.05151
1178.46,0.05253
1172.68,0.05309
1166.89,0.05570
1161.1,0.05799
1155.32,0.05992
1149.53,0.06076
1143.75,0.06037
1137.96,0.05900
1132.17,0.05753
1126.39,0.05671
1120.6,0.05638
1114.81,0.05667
1109.03,0.05622
1103.24,0.05616
1097.46,0.05655
1091.67,0.05574
1085.88,0.05493
1080.1,0.05434
1074.31,0.05419
1068.52,0.05478
1062.74,0.05611
1056.95,0.05587
1051.17,0.05594
1045.38,0.05597
1039.59,0.05531
1033.81,0.05532
1028.02,0.05587
1022.24,0.05641
1016.45,0.05714
1010.66,0.05627
1004.88,0.05635
999.09,0.05556
993.304,0.05549
987.518,0.05508
981.731,0.05521
975.945,0.05536
970.159,0.05474
964.373,0.05506
958.586,0.05530
952.8,0.05520
947.014,0.05524
941.228,0.05497
935.441,0.05515
929.655,0.05516
923.869,0.05440
918.083,0.05452
912.297,0.05450
906.51,0.05436
900.724,0.05456
894.938,0.05421
889.152,0.05416
883.365,0.05392
877.579,0.05459
871.793,0.05444
866.007,0.05382
860.22,0.05279
854.434,0.05222
848.648,0.05229
842.862,0.05263
837.075,0.05265
831.289,0.05247
825.503,0.05199
819.717,0.05226
813.931,0.05180
808.144,0.05179
802.358,0.05126
796.572,0.05091
790.786,0.05021
784.999,0.04876
779.213,0.04648
773.427,0.04660
767.641,0.04580
761.854,0.04927
756.068,0.05400
750.282,0.05480
744.496,0.05324
738.709,0.05297
732.923,0.05261
727.137,0.05029
721.351,0.04801
715.565,0.04370
709.778,0.04077
703.992,0.05066
698.206,0.07178
692.42,0.06768
686.633,0.06125
680.847,0.05912
675.061,0.05667
669.275,0.05671
663.488,0.05672
657.702,0.05512
651.916,0.05490
646.13,0.05610
640.343,0.05643
634.557,0.05478
628.771,0.05402
622.985,0.05300
617.198,0.05304
611.412,0.05283
605.626,0.05326
599.84,0.05300