File: 01_Data/Vinyl_Siding/FTIR/IS/Vinyl_Siding_IS_T_220914_R1.dpt
7497.03,0.02946
7491.25,0.03090
7485.46,0.03860
7479.67,0.02604
7473.89,0.03226
7468.1,0.02777
7462.32,0.02590
7456.53,0.02561
7450.74,0.02549
7444.96,0.02348
7439.17,0.02291
7433.38,0.02236
7427.6,0.01725
7421.81,0.02605
7416.03,0.02200
7410.24,0.02974
7404.45,0.02525
7398.67,0.02138
7392.88,0.02271
7387.09,0.02142
7381.31,0.03264
7375.52,0.01969
7369.74,0.02672
7363.95,0.02827
7358.16,0.02520
7352.38,0.02590
7346.59,0.02615
7340.8,0.02696
7335.02,0.02054
7329.23,0.02872
7323.45,0.02793
7317.66,0.02553
7311.87,0.02471
7306.09,0.01935
7300.3,0.02101
7294.51,0.02467
7288.73,0.01877
7282.94,0.02290
7277.16,0.02942
7271.37,0.02744
7265.58,0.02962
7259.8,0.02377
7254.01,0.02569
7248.22,0.02964
7242.44,0.03182
7236.65,0.02534
7230.87,0.02814
7225.08,0.02352
7219.29,0.02801
7213.51,0.02340
7207.72,0.02154
7201.93,0.02751
7196.15,0.02779
7190.36,0.02291
7184.58,0.02519
7178.79,0.02282
7173,0.02824
7167.22,0.03004
7161.43,0.02124
7155.65,0.02469
7149.86,0.01810
7144.07,0.01822
7138.29,0.02385
7132.5,0.02690
7126.71,0.02056
7120.93,0.02450
7115.14,0.02092
7109.36,0.02664
7103.57,0.02673
7097.78,0.02226
7092,0.02248
7086.21,0.02410
7080.42,0.02448
7074.64,0.02596
7068.85,0.02358
7063.07,0.01973
7057.28,0.01951
7051.49,0.02171
7045.71,0.03125
7039.92,0.02337
7034.13,0.02697
7028.35,0.02452
7022.56,0.02621
7016.78,0.02643
7010.99,0.02345
7005.2,0.02638
6999.42,0.02150
6993.63,0.02395
6987.84,0.02519
6982.06,0.02500
6976.27,0.02380
6970.49,0.02934
6964.7,0.02950
6958.91,0.02810
6953.13,0.02530
6947.34,0.02332
6941.55,0.01978
6935.77,0.02528
6929.98,0.02388
6924.2,0.02577
6918.41,0.02972
6912.62,0.02650
6906.84,0.01953
6901.05,0.02446
6895.26,0.02248
6889.48,0.02451
6883.69,0.02533
6877.91,0.02714
6872.12,0.02720
6866.33,0.02343
6860.55,0.02230
6854.76,0.02115
6848.97,0.02801
6843.19,0.02792
6837.4,0.02491
6831.62,0.02332
6825.83,0.02523
6820.04,0.02461
6814.26,0.03302
6808.47,0.02398
6802.68,0.02134
6796.9,0.02133
6791.11,0.02214
6785.33,0.01970
6779.54,0.01984
6773.75,0.02404
6767.97,0.02233
6762.18,0.01903
6756.39,0.01735
6750.61,0.02626
6744.82,0.01867
6739.04,0.02230
6733.25,0.02320
6727.46,0.02366
6721.68,0.02197
6715.89,0.02847
6710.1,0.02281
6704.32,0.02277
6698.53,0.01945
6692.75,0.02136
6686.96,0.02455
6681.17,0.02132
6675.39,0.02579
6669.6,0.03080
6663.82,0.02283
6658.03,0.02429
6652.24,0.02149
6646.46,0.02205
6640.67,0.02262
6634.88,0.02050
6629.1,0.02290
6623.31,0.02660
6617.53,0.02169
6611.74,0.01994
6605.95,0.01940
6600.17,0.02195
6594.38,0.02088
6588.59,0.02088
6582.81,0.02132
6577.02,0.02658
6571.24,0.02436
6565.45,0.02057
6559.66,0.02025
6553.88,0.01718
6548.09,0.02117
6542.3,0.02472
6536.52,0.02444
6530.73,0.01951
6524.95,0.02438
6519.16,0.02170
6513.37,0.02393
6507.59,0.01899
6501.8,0.02232
6496.01,0.02237
6490.23,0.02132
6484.44,0.02236
6478.66,0.02130
6472.87,0.02261
6467.08,0.02060
6461.3,0.01706
6455.51,0.02244
6449.72,0.02338
6443.94,0.02244
6438.15,0.02261
6432.37,0.02278
6426.58,0.02302
6420.79,0.02123
6415.01,0.02174
6409.22,0.02001
6403.43,0.01984
6397.65,0.02141
6391.86,0.01962
6386.08,0.02105
6380.29,0.02672
6374.5,0.02413
6368.72,0.02496
6362.93,0.02361
6357.14,0.02025
6351.36,0.01813
6345.57,0.02143
6339.79,0.02139
6334,0.02165
6328.21,0.02136
6322.43,0.02017
6316.64,0.01991
6310.85,0.01756
6305.07,0.01943
6299.28,0.02343
6293.5,0.02410
6287.71,0.02343
6281.92,0.02166
6276.14,0.02397
6270.35,0.02256
6264.56,0.02300
6258.78,0.02221
6252.99,0.02094
6247.21,0.01904
6241.42,0.01941
6235.63,0.02323
6229.85,0.01959
6224.06,0.02293
6218.27,0.02143
6212.49,0.02237
6206.7,0.02214
6200.92,0.01882
6195.13,0.02126
6189.34,0.02212
6183.56,0.02241
6177.77,0.02125
6171.98,0.02488
6166.2,0.02098
6160.41,0.02119
6154.63,0.02051
6148.84,0.02463
6143.05,0.02423
6137.27,0.02022
6131.48,0.02122
6125.7,0.02211
6119.91,0.02321
6114.12,0.02401
6108.34,0.02127
6102.55,0.02217
6096.76,0.02330
6090.98,0.01985
6085.19,0.02556
6079.41,0.02363
6073.62,0.01866
6067.83,0.01918
6062.05,0.02226
6056.26,0.02266
6050.47,0.02385
6044.69,0.02436
6038.9,0.01989
6033.12,0.02007
6027.33,0.02072
6021.54,0.02043
6015.76,0.02411
6009.97,0.02102
6004.18,0.02096
5998.4,0.02318
5992.61,0.02260
5986.83,0.02398
5981.04,0.02097
5975.25,0.02002
5969.47,0.01984
5963.68,0.01946
5957.89,0.02250
5952.11,0.02256
5946.32,0.02039
5940.54,0.02193
5934.75,0.02452
5928.96,0.02497
5923.18,0.02099
5917.39,0.01891
5911.6,0.02234
5905.82,0.02366
5900.03,0.02341
5894.25,0.02077
5888.46,0.02234
5882.67,0.02216
5876.89,0.02090
5871.1,0.02044
5865.31,0.02246
5859.53,0.01932
5853.74,0.02338
5847.96,0.02260
5842.17,0.02408
5836.38,0.02197
5830.6,0.02175
5824.81,0.02107
5819.02,0.01968
5813.24,0.02329
5807.45,0.02204
5801.67,0.02146
5795.88,0.02370
5790.09,0.02217
5784.31,0.02080
5778.52,0.02171
5772.73,0.02131
5766.95,0.02478
5761.16,0.02312
5755.38,0.02272
5749.59,0.02253
5743.8,0.02343
5738.02,0.01988
5732.23,0.02187
5726.44,0.02032
5720.66,0.02168
5714.87,0.02468
5709.09,0.02325
5703.3,0.02214
5697.51,0.02279
5691.73,0.02121
5685.94,0.01887
5680.15,0.02225
5674.37,0.02413
5668.58,0.02055
5662.8,0.02193
5657.01,0.02057
5651.22,0.01989
5645.44,0.02065
5639.65,0.02078
5633.87,0.02174
5628.08,0.02201
5622.29,0.02206
5616.51,0.02140
5610.72,0.02354
5604.93,0.02280
5599.15,0.02080
5593.36,0.02104
5587.58,0.02206
5581.79,0.02312
5576,0.02208
5570.22,0.02171
5564.43,0.02065
5558.64,0.02137
5552.86,0.02130
5547.07,0.02252
5541.29,0.02111
5535.5,0.02319
5529.71,0.02090
5523.93,0.02122
5518.14,0.02324
5512.35,0.02230
5506.57,0.02191
5500.78,0.02143
5495,0.02119
5489.21,0.02212
5483.42,0.02204
5477.64,0.02300
5471.85,0.02284
5466.06,0.02135
5460.28,0.02275
5454.49,0.02238
5448.71,0.02283
5442.92,0.02131
5437.13,0.02235
5431.35,0.02191
5425.56,0.02196
5419.77,0.02223
5413.99,0.02398
5408.2,0.02202
5402.42,0.02143
5396.63,0.02063
5390.84,0.01946
5385.06,0.02142
5379.27,0.02189
5373.48,0.02110
5367.7,0.02231
5361.91,0.02226
5356.13,0.02228
5350.34,0.02134
5344.55,0.02040
5338.77,0.02049
5332.98,0.02134
5327.19,0.02217
5321.41,0.02183
5315.62,0.02294
5309.84,0.02283
5304.05,0.02215
5298.26,0.02128
5292.48,0.02213
5286.69,0.02215
5280.9,0.02084
5275.12,0.02122
5269.33,0.02184
5263.55,0.02199
5257.76,0.02105
5251.97,0.02259
5246.19,0.02154
5240.4,0.02138
5234.61,0.02187
5228.83,0.02190
5223.04,0.02083
5217.26,0.02226
5211.47,0.02154
5205.68,0.02114
5199.9,0.02160
5194.11,0.02250
5188.32,0.02427
5182.54,0.02301
5176.75,0.02101
5170.97,0.02135
5165.18,0.02117
5159.39,0.02253
5153.61,0.02229
5147.82,0.02143
5142.03,0.02281
5136.25,0.02241
5130.46,0.02251
5124.68,0.02289
5118.89,0.02236
5113.1,0.02141
5107.32,0.02253
5101.53,0.02188
5095.75,0.02194
5089.96,0.02332
5084.17,0.02167
5078.39,0.02291
5072.6,0.02197
5066.81,0.02128
5061.03,0.02255
5055.24,0.02139
5049.46,0.02209
5043.67,0.02120
5037.88,0.02198
5032.1,0.02211
5026.31,0.02164
5020.52,0.02037
5014.74,0.02309
5008.95,0.02122
5003.17,0.02116
4997.38,0.02275
4991.59,0.02213
4985.81,0.02226
4980.02,0.02204
4974.23,0.02234
4968.45,0.02191
4962.66,0.02220
4956.88,0.02196
4951.09,0.02209
4945.3,0.02163
4939.52,0.02108
4933.73,0.02210
4927.94,0.02278
4922.16,0.02146
4916.37,0.02156
4910.59,0.02213
4904.8,0.02190
4899.01,0.02242
4893.23,0.02298
4887.44,0.02200
4881.65,0.02259
4875.87,0.02079
4870.08,0.02213
4864.3,0.02318
4858.51,0.02170
4852.72,0.02183
4846.94,0.02137
4841.15,0.02173
4835.36,0.02115
4829.58,0.02046
4823.79,0.02275
4818.01,0.02163
4812.22,0.02133
4806.43,0.02161
4800.65,0.02234
4794.86,0.02158
4789.07,0.02114
4783.29,0.02282
4777.5,0.02209
4771.72,0.02245
4765.93,0.02119
4760.14,0.02181
4754.36,0.02154
4748.57,0.02222
4742.78,0.02213
4737,0.02179
4731.21,0.02165
4725.43,0.02200
4719.64,0.02106
4713.85,0.02159
4708.07,0.02159
4702.28,0.02151
4696.49,0.02212
4690.71,0.02219
4684.92,0.02112
4679.14,0.02160
4673.35,0.02219
4667.56,0.02160
4661.78,0.02257
4655.99,0.02227
4650.2,0.02173
4644.42,0.02205
4638.63,0.02208
4632.85,0.02262
4627.06,0.02289
4621.27,0.02269
4615.49,0.02197
4609.7,0.02159
4603.92,0.02118
4598.13,0.02224
4592.34,0.02253
4586.56,0.02169
4580.77,0.02199
4574.98,0.02243
4569.2,0.02192
4563.41,0.02262
4557.63,0.02191
4551.84,0.02130
4546.05,0.02264
4540.27,0.02210
4534.48,0.02258
4528.69,0.02219
4522.91,0.02243
4517.12,0.02222
4511.34,0.02169
4505.55,0.02181
4499.76,0.02139
4493.98,0.02195
4488.19,0.02153
4482.4,0.02166
4476.62,0.02276
4470.83,0.02229
4465.05,0.02150
4459.26,0.02215
4453.47,0.02209
4447.69,0.02168
4441.9,0.02145
4436.11,0.02235
4430.33,0.02173
4424.54,0.02285
4418.76,0.02317
4412.97,0.02213
4407.18,0.02219
4401.4,0.02233
4395.61,0.02196
4389.82,0.02188
4384.04,0.02295
4378.25,0.02328
4372.47,0.02308
4366.68,0.02248
4360.89,0.02164
4355.11,0.02232
4349.32,0.02263
4343.53,0.02344
4337.75,0.02230
4331.96,0.02238
4326.18,0.02262
4320.39,0.02141
4314.6,0.02234
4308.82,0.02169
4303.03,0.02315
4297.24,0.02210
4291.46,0.02191
4285.67,0.02184
4279.89,0.02210
4274.1,0.02185
4268.31,0.02245
4262.53,0.02211
4256.74,0.02248
4250.95,0.02270
4245.17,0.02200
4239.38,0.02216
4233.6,0.02281
4227.81,0.02269
4222.02,0.02260
4216.24,0.02245
4210.45,0.02321
4204.66,0.02232
4198.88,0.02168
4193.09,0.02247
4187.31,0.02194
4181.52,0.02221
4175.73,0.02175
4169.95,0.02298
4164.16,0.02270
4158.37,0.02173
4152.59,0.02212
4146.8,0.02238
4141.02,0.02248
4135.23,0.02242
4129.44,0.02261
4123.66,0.02320
4117.87,0.02255
4112.09,0.02215
4106.3,0.02186
4100.51,0.02220
4094.73,0.02230
4088.94,0.02251
4083.15,0.02248
4077.37,0.02283
4071.58,0.02262
4065.8,0.02204
4060.01,0.02226
4054.22,0.02190
4048.44,0.02279
4042.65,0.02268
4036.86,0.02280
4031.08,0.02317
4025.29,0.02261
4019.51,0.02249
4013.72,0.02206
4007.93,0.02203
4002.15,0.02193
3996.36,0.02216
3990.57,0.02267
3984.79,0.02265
3979,0.02223
3973.22,0.02294
3967.43,0.02266
3961.64,0.02273
3955.86,0.02225
3950.07,0.02230
3944.28,0.02231
3938.5,0.02270
3932.71,0.02275
3926.93,0.02236
3921.14,0.02181
3915.35,0.02287
3909.57,0.02257
3903.78,0.02252
3897.99,0.02228
3892.21,0.02198
3886.42,0.02280
3880.64,0.02207
3874.85,0.02302
3869.06,0.02210
3863.28,0.02235
3857.49,0.02277
3851.7,0.02245
3845.92,0.02293
3840.13,0.02328
3834.35,0.02245
3828.56,0.02253
3822.77,0.02352
3816.99,0.02301
3811.2,0.02195
3805.41,0.02241
3799.63,0.02218
3793.84,0.02221
3788.06,0.02266
3782.27,0.02247
3776.48,0.02225
3770.7,0.02253
3764.91,0.02249
3759.12,0.02279
3753.34,0.02241
3747.55,0.02328
3741.77,0.02266
3735.98,0.02299
3730.19,0.02276
3724.41,0.02260
3718.62,0.02244
3712.83,0.02216
3707.05,0.02245
3701.26,0.02257
3695.48,0.02177
3689.69,0.02230
3683.9,0.02185
3678.12,0.02275
3672.33,0.02186
3666.54,0.02225
3660.76,0.02241
3654.97,0.02187
3649.19,0.02225
3643.4,0.02139
3637.61,0.02171
3631.83,0.02192
3626.04,0.02164
3620.25,0.02154
3614.47,0.02221
3608.68,0.02179
3602.9,0.02188
3597.11,0.02191
3591.32,0.02167
3585.54,0.02136
3579.75,0.02102
3573.97,0.02175
3568.18,0.02126
3562.39,0.02154
3556.61,0.02154
3550.82,0.02105
3545.03,0.02135
3539.25,0.02142
3533.46,0.02093
3527.68,0.02111
3521.89,0.02059
3516.1,0.02109
3510.32,0.02010
3504.53,0.02100
3498.74,0.02069
3492.96,0.02075
3487.17,0.02086
3481.39,0.02055
3475.6,0.02035
3469.81,0.02085
3464.03,0.01967
3458.24,0.02054
3452.45,0.02041
3446.67,0.02043
3440.88,0.02103
3435.1,0.02132
3429.31,0.02033
3423.52,0.02056
3417.74,0.02064
3411.95,0.02052
3406.16,0.02026
3400.38,0.02014
3394.59,0.01999
3388.81,0.02056
3383.02,0.02101
3377.23,0.02077
3371.45,0.02047
3365.66,0.01989
3359.87,0.01979
3354.09,0.02020
3348.3,0.02058
3342.52,0.02001
3336.73,0.02069
3330.94,0.02054
3325.16,0.02030
3319.37,0.02069
3313.58,0.01978
3307.8,0.02006
3302.01,0.02049
3296.23,0.02015
3290.44,0.02001
3284.65,0.01987
3278.87,0.02004
3273.08,0.02022
3267.29,0.02038
3261.51,0.02054
3255.72,0.02014
3249.94,0.02019
3244.15,0.01995
3238.36,0.02102
3232.58,0.02067
3226.79,0.01981
3221,0.02074
3215.22,0.02045
3209.43,0.02095
3203.65,0.02081
3197.86,0.02058
3192.07,0.02040
3186.29,0.02059
3180.5,0.02056
3174.71,0.02092
3168.93,0.02044
3163.14,0.02059
3157.36,0.02139
3151.57,0.02130
3145.78,0.02069
3140,0.02069
3134.21,0.02088
3128.42,0.02069
3122.64,0.02079
3116.85,0.02038
3111.07,0.02034
3105.28,0.02033
3099.49,0.02054
3093.71,0.02055
3087.92,0.02089
3082.14,0.02047
3076.35,0.02026
3070.56,0.02045
3064.78,0.02046
3058.99,0.02098
3053.2,0.02042
3047.42,0.02044
3041.63,0.02084
3035.85,0.02037
3030.06,0.01994
3024.27,0.02012
3018.49,0.01984
3012.7,0.02013
3006.91,0.02013
3001.13,0.02008
2995.34,0.01968
2989.56,0.02024
2983.77,0.01979
2977.98,0.01949
2972.2,0.01972
2966.41,0.02000
2960.62,0.01951
2954.84,0.01948
2949.05,0.01968
2943.27,0.01967
2937.48,0.01997
2931.69,0.01993
2925.91,0.01979
2920.12,0.02025
2914.33,0.01989
2908.55,0.01992
2902.76,0.02054
2896.98,0.01984
2891.19,0.02016
2885.4,0.02070
2879.62,0.02047
2873.83,0.02041
2868.04,0.02038
2862.26,0.02016
2856.47,0.02027
2850.69,0.02089
2844.9,0.02055
2839.11,0.02097
2833.33,0.02113
2827.54,0.02131
2821.75,0.02156
2815.97,0.02117
2810.18,0.02102
2804.4,0.02139
2798.61,0.02103
2792.82,0.02060
2787.04,0.02084
2781.25,0.02082
2775.46,0.02096
2769.68,0.02090
2763.89,0.02150
2758.11,0.02134
2752.32,0.02116
2746.53,0.02108
2740.75,0.02139
2734.96,0.02087
2729.17,0.02099
2723.39,0.02112
2717.6,0.02076
2711.82,0.02088
2706.03,0.02135
2700.24,0.02097
2694.46,0.02122
2688.67,0.02117
2682.88,0.02123
2677.1,0.02126
2671.31,0.02139
2665.53,0.02113
2659.74,0.02126
2653.95,0.02147
2648.17,0.02111
2642.38,0.02110
2636.59,0.02131
2630.81,0.02099
2625.02,0.02147
2619.24,0.02066
2613.45,0.02098
2607.66,0.02084
2601.88,0.02100
2596.09,0.02127
2590.3,0.02152
2584.52,0.02101
2578.73,0.02095
2572.95,0.02095
2567.16,0.02093
2561.37,0.02146
2555.59,0.02139
2549.8,0.02125
2544.02,0.02059
2538.23,0.02136
2532.44,0.02099
2526.66,0.02076
2520.87,0.02058
2515.08,0.02099
2509.3,0.02136
2503.51,0.02115
2497.73,0.02103
2491.94,0.02131
2486.15,0.02119
2480.37,0.02109
2474.58,0.02110
2468.79,0.02096
2463.01,0.02061
2457.22,0.02084
2451.44,0.02088
2445.65,0.02088
2439.86,0.02075
2434.08,0.02098
2428.29,0.02108
2422.5,0.02092
2416.72,0.02105
2410.93,0.02113
2405.15,0.02102
2399.36,0.02101
2393.57,0.02086
2387.79,0.02068
2382,0.02086
2376.21,0.02104
2370.43,0.02148
2364.64,0.02094
2358.86,0.02115
2353.07,0.02093
2347.28,0.02077
2341.5,0.02130
2335.71,0.02101
2329.92,0.02081
2324.14,0.02093
2318.35,0.02077
2312.57,0.02112
2306.78,0.02070
2300.99,0.02067
2295.21,0.02068
2289.42,0.02068
2283.63,0.02097
2277.85,0.02109
2272.06,0.02102
2266.28,0.02123
2260.49,0.02107
2254.7,0.02088
2248.92,0.02092
2243.13,0.02087
2237.34,0.02064
2231.56,0.02084
2225.77,0.02082
2219.99,0.02071
2214.2,0.02070
2208.41,0.02080
2202.63,0.02086
2196.84,0.02118
2191.05,0.02088
2185.27,0.02102
2179.48,0.02107
2173.7,0.02060
2167.91,0.02065
2162.12,0.02044
2156.34,0.02050
2150.55,0.02059
2144.76,0.02075
2138.98,0.02054
2133.19,0.02080
2127.41,0.02068
2121.62,0.02064
2115.83,0.02068
2110.05,0.02055
2104.26,0.02070
2098.47,0.02058
2092.69,0.02052
2086.9,0.02063
2081.12,0.02093
2075.33,0.02078
2069.54,0.02062
2063.76,0.02088
2057.97,0.02065
2052.19,0.02097
2046.4,0.02069
2040.61,0.02074
2034.83,0.02073
2029.04,0.02059
2023.25,0.02071
2017.47,0.02050
2011.68,0.02075
2005.9,0.02049
2000.11,0.02023
1994.32,0.02041
1988.54,0.02080
1982.75,0.02092
1976.96,0.02056
1971.18,0.02092
1965.39,0.02067
1959.61,0.02054
1953.82,0.02055
1948.03,0.02062
1942.25,0.02041
1936.46,0.02052
1930.67,0.02100
1924.89,0.02060
1919.1,0.02033
1913.32,0.02024
1907.53,0.02003
1901.74,0.02018
1895.96,0.02050
1890.17,0.01996
1884.38,0.02009
1878.6,0.02043
1872.81,0.02011
1867.03,0.01987
1861.24,0.02023
1855.45,0.02001
1849.67,0.02020
1843.88,0.01974
1838.09,0.01989
1832.31,0.01964
1826.52,0.02012
1820.74,0.01986
1814.95,0.01970
1809.16,0.01981
1803.38,0.01938
1797.59,0.01945
1791.8,0.01936
1786.02,0.01934
1780.23,0.01898
1774.45,0.01887
1768.66,0.01883
1762.87,0.01814
1757.09,0.01768
1751.3,0.01729
1745.51,0.01718
1739.73,0.01850
1733.94,0.01959
1728.16,0.02031
1722.37,0.02087
1716.58,0.02084
1710.8,0.02051
1705.01,0.02041
1699.22,0.01964
1693.44,0.01921
1687.65,0.01897
1681.87,0.01906
1676.08,0.01873
1670.29,0.01885
1664.51,0.01854
1658.72,0.01833
1652.93,0.01841
1647.15,0.01868
1641.36,0.01891
1635.58,0.01866
1629.79,0.01859
1624,0.01916
1618.22,0.01872
1612.43,0.01880
1606.64,0.01854
1600.86,0.01909
1595.07,0.01883
1589.29,0.01862
1583.5,0.01834
1577.71,0.01877
1571.93,0.01836
1566.14,0.01817
1560.35,0.01838
1554.57,0.01802
1548.78,0.01830
1543,0.01848
1537.21,0.01905
1531.42,0.01832
1525.64,0.01874
1519.85,0.01866
1514.07,0.01853
1508.28,0.01886
1502.49,0.01848
1496.71,0.01864
1490.92,0.01865
1485.13,0.01875
1479.35,0.01873
1473.56,0.01851
1467.78,0.01838
1461.99,0.01843
1456.2,0.01895
1450.42,0.01859
1444.63,0.01859
1438.84,0.01889
1433.06,0.01887
1427.27,0.01842
1421.49,0.01892
1415.7,0.01861
1409.91,0.01833
1404.13,0.01790
1398.34,0.01847
1392.55,0.01841
1386.77,0.01827
1380.98,0.01797
1375.2,0.01817
1369.41,0.01813
1363.62,0.01806
1357.84,0.01819
1352.05,0.01785
1346.26,0.01756
1340.48,0.01774
1334.69,0.01757
1328.91,0.01747
1323.12,0.01716
1317.33,0.01660
1311.55,0.01699
1305.76,0.01716
1299.97,0.01716
1294.19,0.01812
1288.4,0.01823
1282.62,0.01843
1276.83,0.01931
1271.04,0.01974
1265.26,0.01977
1259.47,0.02025
1253.68,0.02002
1247.9,0.02057
1242.11,0.01994
1236.33,0.01961
1230.54,0.01936
1224.75,0.01951
1218.97,0.01926
1213.18,0.01863
1207.39,0.01890
1201.61,0.01884
1195.82,0.01796
1190.04,0.01837
1184.25,0.01817
1178.46,0.01751
1172.68,0.01748
1166.89,0.01773
1161.1,0.01755
1155.32,0.01766
1149.53,0.01747
1143.75,0.01804
1137.96,0.01814
1132.17,0.01811
1126.39,0.01781
1120.6,0.01849
1114.81,0.01913
1109.03,0.01855
1103.24,0.01886
1097.46,0.01837
1091.67,0.01763
1085.88,0.01804
1080.1,0.01847
1074.31,0.01899
1068.52,0.02027
1062.74,0.01951
1056.95,0.01941
1051.17,0.02016
1045.38,0.01962
1039.59,0.01918
1033.81,0.01969
1028.02,0.01916
1022.24,0.01897
1016.45,0.01896
1010.66,0.02027
1004.88,0.02105
999.09,0.02095
993.304,0.02037
987.518,0.02073
981.731,0.02053
975.945,0.02020
970.159,0.02063
964.373,0.02005
958.586,0.02027
952.8,0.01983
947.014,0.01958
941.228,0.02038
935.441,0.01935
929.655,0.01911
923.869,0.01910
918.083,0.01929
912.297,0.01945
906.51,0.01975
900.724,0.01881
894.938,0.01924
889.152,0.01929
883.365,0.01880
877.579,0.01929
871.793,0.01887
866.007,0.01926
860.22,0.01891
854.434,0.01922
848.648,0.01893
842.862,0.01861
837.075,0.01907
831.289,0.01784
825.503,0.01892
819.717,0.01934
813.931,0.01899
808.144,0.01875
802.358,0.01851
796.572,0.01833
790.786,0.01851
784.999,0.01855
779.213,0.01815
773.427,0.01883
767.641,0.01832
761.854,0.01904
756.068,0.01850
750.282,0.01740
744.496,0.01779
738.709,0.01766
732.923,0.01841
727.137,0.01836
721.351,0.01819
715.565,0.01703
709.778,0.01786
703.992,0.01704
698.206,0.01760
692.42,0.01795
686.633,0.01780
680.847,0.01797
675.061,0.01660
669.275,0.01715
663.488,0.01683
657.702,0.01686
651.916,0.01775
646.13,0.01625
640.343,0.01676
634.557,0.01652
628.771,0.01424
622.985,0.01668
617.198,0.01458
611.412,0.01641
605.626,0.01569
599.84,0.01613