File: 01_Data/Vinyl_Siding/FTIR/IS/Vinyl_Siding_IS_S_220914_R5.dpt
7497.03,0.75193
7491.25,0.75217
7485.46,0.75358
7479.67,0.74813
7473.89,0.75055
7468.1,0.75201
7462.32,0.74291
7456.53,0.75206
7450.74,0.75231
7444.96,0.75649
7439.17,0.74723
7433.38,0.73922
7427.6,0.74309
7421.81,0.75077
7416.03,0.73899
7410.24,0.74133
7404.45,0.74537
7398.67,0.73905
7392.88,0.74014
7387.09,0.72973
7381.31,0.72824
7375.52,0.73661
7369.74,0.73103
7363.95,0.72559
7358.16,0.72265
7352.38,0.72667
7346.59,0.72412
7340.8,0.72256
7335.02,0.70083
7329.23,0.70805
7323.45,0.69973
7317.66,0.69930
7311.87,0.69707
7306.09,0.69247
7300.3,0.69356
7294.51,0.68556
7288.73,0.67433
7282.94,0.66637
7277.16,0.66015
7271.37,0.66379
7265.58,0.64643
7259.8,0.64388
7254.01,0.64276
7248.22,0.62972
7242.44,0.63441
7236.65,0.62317
7230.87,0.61503
7225.08,0.61607
7219.29,0.62099
7213.51,0.61704
7207.72,0.61871
7201.93,0.62146
7196.15,0.61720
7190.36,0.61554
7184.58,0.61088
7178.79,0.60099
7173,0.60322
7167.22,0.60104
7161.43,0.60449
7155.65,0.59020
7149.86,0.59455
7144.07,0.59345
7138.29,0.58851
7132.5,0.59275
7126.71,0.59086
7120.93,0.59290
7115.14,0.59009
7109.36,0.59332
7103.57,0.59283
7097.78,0.59339
7092,0.58778
7086.21,0.58624
7080.42,0.58296
7074.64,0.58323
7068.85,0.57878
7063.07,0.58004
7057.28,0.58038
7051.49,0.57816
7045.71,0.57902
7039.92,0.57878
7034.13,0.58764
7028.35,0.57861
7022.56,0.58544
7016.78,0.57961
7010.99,0.57806
7005.2,0.58134
6999.42,0.57250
6993.63,0.58268
6987.84,0.58729
6982.06,0.58588
6976.27,0.59611
6970.49,0.59372
6964.7,0.60118
6958.91,0.60531
6953.13,0.60029
6947.34,0.60464
6941.55,0.60950
6935.77,0.60976
6929.98,0.60979
6924.2,0.61213
6918.41,0.61328
6912.62,0.61705
6906.84,0.61982
6901.05,0.62235
6895.26,0.62218
6889.48,0.62214
6883.69,0.62083
6877.91,0.62402
6872.12,0.62888
6866.33,0.62282
6860.55,0.63132
6854.76,0.63171
6848.97,0.63143
6843.19,0.62886
6837.4,0.63342
6831.62,0.63281
6825.83,0.63601
6820.04,0.63529
6814.26,0.63814
6808.47,0.63898
6802.68,0.63701
6796.9,0.63946
6791.11,0.63761
6785.33,0.63824
6779.54,0.63896
6773.75,0.63957
6767.97,0.64098
6762.18,0.64248
6756.39,0.64247
6750.61,0.64200
6744.82,0.64418
6739.04,0.64060
6733.25,0.64511
6727.46,0.64609
6721.68,0.65199
6715.89,0.64491
6710.1,0.64415
6704.32,0.65171
6698.53,0.64708
6692.75,0.65029
6686.96,0.65835
6681.17,0.64979
6675.39,0.65232
6669.6,0.65324
6663.82,0.65297
6658.03,0.65413
6652.24,0.65745
6646.46,0.65479
6640.67,0.65526
6634.88,0.65142
6629.1,0.65346
6623.31,0.66086
6617.53,0.65688
6611.74,0.65845
6605.95,0.65763
6600.17,0.65842
6594.38,0.65792
6588.59,0.66070
6582.81,0.65605
6577.02,0.65643
6571.24,0.66005
6565.45,0.65328
6559.66,0.65588
6553.88,0.65868
6548.09,0.66065
6542.3,0.66164
6536.52,0.65686
6530.73,0.66205
6524.95,0.65665
6519.16,0.66414
6513.37,0.65975
6507.59,0.65899
6501.8,0.66485
6496.01,0.66113
6490.23,0.66276
6484.44,0.66068
6478.66,0.65808
6472.87,0.66708
6467.08,0.66290
6461.3,0.66265
6455.51,0.66356
6449.72,0.66549
6443.94,0.66684
6438.15,0.66415
6432.37,0.66325
6426.58,0.66524
6420.79,0.66680
6415.01,0.66603
6409.22,0.67073
6403.43,0.67123
6397.65,0.66747
6391.86,0.66987
6386.08,0.67067
6380.29,0.67075
6374.5,0.66659
6368.72,0.66633
6362.93,0.66794
6357.14,0.66858
6351.36,0.67086
6345.57,0.66621
6339.79,0.66492
6334,0.66454
6328.21,0.66834
6322.43,0.66574
6316.64,0.66382
6310.85,0.66456
6305.07,0.66303
6299.28,0.66736
6293.5,0.66480
6287.71,0.66590
6281.92,0.66655
6276.14,0.66213
6270.35,0.66186
6264.56,0.66379
6258.78,0.66399
6252.99,0.66200
6247.21,0.66495
6241.42,0.66025
6235.63,0.66287
6229.85,0.66123
6224.06,0.66300
6218.27,0.66197
6212.49,0.66395
6206.7,0.66436
6200.92,0.65962
6195.13,0.66248
6189.34,0.65904
6183.56,0.65596
6177.77,0.65581
6171.98,0.65164
6166.2,0.64961
6160.41,0.64733
6154.63,0.64145
6148.84,0.63783
6143.05,0.63613
6137.27,0.63138
6131.48,0.63137
6125.7,0.62669
6119.91,0.62571
6114.12,0.62881
6108.34,0.62665
6102.55,0.62402
6096.76,0.62061
6090.98,0.61962
6085.19,0.61489
6079.41,0.61478
6073.62,0.61659
6067.83,0.61910
6062.05,0.61958
6056.26,0.61526
6050.47,0.61514
6044.69,0.60533
6038.9,0.59832
6033.12,0.58544
6027.33,0.56992
6021.54,0.55006
6015.76,0.53420
6009.97,0.52051
6004.18,0.50295
5998.4,0.48838
5992.61,0.47850
5986.83,0.46114
5981.04,0.44351
5975.25,0.43332
5969.47,0.42621
5963.68,0.42124
5957.89,0.41937
5952.11,0.41246
5946.32,0.41058
5940.54,0.40640
5934.75,0.40233
5928.96,0.39457
5923.18,0.38243
5917.39,0.37043
5911.6,0.35819
5905.82,0.34715
5900.03,0.33670
5894.25,0.32837
5888.46,0.31955
5882.67,0.31438
5876.89,0.31216
5871.1,0.30997
5865.31,0.30411
5859.53,0.29796
5853.74,0.29426
5847.96,0.28934
5842.17,0.28708
5836.38,0.28505
5830.6,0.28359
5824.81,0.28554
5819.02,0.28494
5813.24,0.28657
5807.45,0.29069
5801.67,0.29662
5795.88,0.29859
5790.09,0.30442
5784.31,0.30880
5778.52,0.31295
5772.73,0.31269
5766.95,0.31490
5761.16,0.31704
5755.38,0.31520
5749.59,0.31106
5743.8,0.30735
5738.02,0.30450
5732.23,0.30099
5726.44,0.30177
5720.66,0.30138
5714.87,0.29880
5709.09,0.30029
5703.3,0.29781
5697.51,0.30193
5691.73,0.30734
5685.94,0.31144
5680.15,0.31806
5674.37,0.32243
5668.58,0.32675
5662.8,0.32883
5657.01,0.33131
5651.22,0.33424
5645.44,0.33608
5639.65,0.34121
5633.87,0.34258
5628.08,0.34336
5622.29,0.34361
5616.51,0.34873
5610.72,0.34914
5604.93,0.35131
5599.15,0.34985
5593.36,0.35307
5587.58,0.35512
5581.79,0.35743
5576,0.36197
5570.22,0.36538
5564.43,0.36607
5558.64,0.37013
5552.86,0.37051
5547.07,0.37070
5541.29,0.37401
5535.5,0.37485
5529.71,0.37496
5523.93,0.37588
5518.14,0.37593
5512.35,0.37817
5506.57,0.37856
5500.78,0.37642
5495,0.37590
5489.21,0.37289
5483.42,0.37270
5477.64,0.37390
5471.85,0.37320
5466.06,0.37329
5460.28,0.37465
5454.49,0.37542
5448.71,0.37670
5442.92,0.37793
5437.13,0.37897
5431.35,0.38410
5425.56,0.38291
5419.77,0.38434
5413.99,0.38402
5408.2,0.38412
5402.42,0.38669
5396.63,0.38530
5390.84,0.38722
5385.06,0.38612
5379.27,0.38852
5373.48,0.39204
5367.7,0.39046
5361.91,0.39352
5356.13,0.39724
5350.34,0.40000
5344.55,0.40301
5338.77,0.40442
5332.98,0.40708
5327.19,0.40991
5321.41,0.41160
5315.62,0.41203
5309.84,0.41123
5304.05,0.41340
5298.26,0.41500
5292.48,0.41214
5286.69,0.41258
5280.9,0.40781
5275.12,0.40407
5269.33,0.39633
5263.55,0.38916
5257.76,0.38551
5251.97,0.38432
5246.19,0.38702
5240.4,0.39011
5234.61,0.39332
5228.83,0.39593
5223.04,0.39472
5217.26,0.39688
5211.47,0.39770
5205.68,0.39677
5199.9,0.39691
5194.11,0.39645
5188.32,0.39348
5182.54,0.39287
5176.75,0.39198
5170.97,0.39049
5165.18,0.38888
5159.39,0.38744
5153.61,0.38598
5147.82,0.38508
5142.03,0.38382
5136.25,0.38551
5130.46,0.38771
5124.68,0.38958
5118.89,0.39215
5113.1,0.39649
5107.32,0.39721
5101.53,0.39973
5095.75,0.40090
5089.96,0.40232
5084.17,0.40276
5078.39,0.40341
5072.6,0.40505
5066.81,0.40453
5061.03,0.40745
5055.24,0.40866
5049.46,0.40989
5043.67,0.40957
5037.88,0.40992
5032.1,0.41107
5026.31,0.41261
5020.52,0.41291
5014.74,0.41337
5008.95,0.41410
5003.17,0.41246
4997.38,0.41385
4991.59,0.41187
4985.81,0.41145
4980.02,0.41212
4974.23,0.41300
4968.45,0.41214
4962.66,0.41324
4956.88,0.41373
4951.09,0.41242
4945.3,0.41133
4939.52,0.41038
4933.73,0.41107
4927.94,0.41080
4922.16,0.40943
4916.37,0.40768
4910.59,0.40741
4904.8,0.40612
4899.01,0.40483
4893.23,0.40203
4887.44,0.39944
4881.65,0.39720
4875.87,0.39535
4870.08,0.39313
4864.3,0.39289
4858.51,0.39362
4852.72,0.39530
4846.94,0.39498
4841.15,0.39600
4835.36,0.39783
4829.58,0.39732
4823.79,0.39838
4818.01,0.39795
4812.22,0.39877
4806.43,0.39863
4800.65,0.39846
4794.86,0.39831
4789.07,0.39655
4783.29,0.39655
4777.5,0.39457
4771.72,0.39300
4765.93,0.39105
4760.14,0.38988
4754.36,0.38969
4748.57,0.38988
4742.78,0.38689
4737,0.38499
4731.21,0.38274
4725.43,0.37898
4719.64,0.37480
4713.85,0.36963
4708.07,0.36531
4702.28,0.36134
4696.49,0.35354
4690.71,0.34367
4684.92,0.33067
4679.14,0.30727
4673.35,0.28781
4667.56,0.27861
4661.78,0.28346
4655.99,0.29601
4650.2,0.30630
4644.42,0.30888
4638.63,0.30096
4632.85,0.29099
4627.06,0.28589
4621.27,0.28652
4615.49,0.28545
4609.7,0.28277
4603.92,0.29022
4598.13,0.30418
4592.34,0.31742
4586.56,0.31941
4580.77,0.31242
4574.98,0.30200
4569.2,0.30877
4563.41,0.32252
4557.63,0.33075
4551.84,0.33490
4546.05,0.33640
4540.27,0.33525
4534.48,0.33280
4528.69,0.33092
4522.91,0.32783
4517.12,0.32393
4511.34,0.32123
4505.55,0.31742
4499.76,0.31461
4493.98,0.31064
4488.19,0.30465
4482.4,0.29931
4476.62,0.29242
4470.83,0.28419
4465.05,0.27424
4459.26,0.26290
4453.47,0.25018
4447.69,0.23864
4441.9,0.22820
4436.11,0.21758
4430.33,0.20754
4424.54,0.19689
4418.76,0.18567
4412.97,0.17619
4407.18,0.16625
4401.4,0.16056
4395.61,0.15371
4389.82,0.14778
4384.04,0.14136
4378.25,0.13668
4372.47,0.13261
4366.68,0.13022
4360.89,0.12759
4355.11,0.12603
4349.32,0.12555
4343.53,0.12645
4337.75,0.12632
4331.96,0.12841
4326.18,0.13105
4320.39,0.13254
4314.6,0.13469
4308.82,0.13394
4303.03,0.13390
4297.24,0.13268
4291.46,0.13166
4285.67,0.12962
4279.89,0.12686
4274.1,0.12638
4268.31,0.12474
4262.53,0.12366
4256.74,0.12305
4250.95,0.12242
4245.17,0.12321
4239.38,0.12317
4233.6,0.12328
4227.81,0.12338
4222.02,0.12262
4216.24,0.12374
4210.45,0.12282
4204.66,0.12374
4198.88,0.12529
4193.09,0.12597
4187.31,0.12654
4181.52,0.12721
4175.73,0.12636
4169.95,0.12757
4164.16,0.12821
4158.37,0.12848
4152.59,0.12921
4146.8,0.12912
4141.02,0.12900
4135.23,0.12901
4129.44,0.12879
4123.66,0.12796
4117.87,0.12745
4112.09,0.12588
4106.3,0.12467
4100.51,0.12477
4094.73,0.12301
4088.94,0.12138
4083.15,0.11882
4077.37,0.11607
4071.58,0.11245
4065.8,0.11020
4060.01,0.10929
4054.22,0.10859
4048.44,0.10892
4042.65,0.10748
4036.86,0.10884
4031.08,0.11208
4025.29,0.11602
4019.51,0.12100
4013.72,0.12505
4007.93,0.12666
4002.15,0.12780
3996.36,0.12969
3990.57,0.13182
3984.79,0.13325
3979,0.13422
3973.22,0.13569
3967.43,0.13647
3961.64,0.13722
3955.86,0.13806
3950.07,0.13821
3944.28,0.13813
3938.5,0.13759
3932.71,0.13839
3926.93,0.13821
3921.14,0.13890
3915.35,0.13946
3909.57,0.13957
3903.78,0.14001
3897.99,0.14013
3892.21,0.14045
3886.42,0.14116
3880.64,0.14071
3874.85,0.14069
3869.06,0.14073
3863.28,0.14038
3857.49,0.14051
3851.7,0.14008
3845.92,0.13917
3840.13,0.13940
3834.35,0.13960
3828.56,0.13949
3822.77,0.13950
3816.99,0.14000
3811.2,0.14153
3805.41,0.14235
3799.63,0.14351
3793.84,0.14407
3788.06,0.14579
3782.27,0.14677
3776.48,0.14769
3770.7,0.14856
3764.91,0.14837
3759.12,0.14951
3753.34,0.15041
3747.55,0.15045
3741.77,0.15001
3735.98,0.15167
3730.19,0.15124
3724.41,0.15113
3718.62,0.14996
3712.83,0.14796
3707.05,0.14287
3701.26,0.13722
3695.48,0.13132
3689.69,0.12524
3683.9,0.11867
3678.12,0.11396
3672.33,0.11028
3666.54,0.10763
3660.76,0.10472
3654.97,0.10295
3649.19,0.10099
3643.4,0.10126
3637.61,0.10251
3631.83,0.10238
3626.04,0.10122
3620.25,0.10109
3614.47,0.10119
3608.68,0.10157
3602.9,0.10195
3597.11,0.10169
3591.32,0.10141
3585.54,0.10010
3579.75,0.09980
3573.97,0.09906
3568.18,0.09809
3562.39,0.09681
3556.61,0.09498
3550.82,0.09490
3545.03,0.09336
3539.25,0.09327
3533.46,0.09216
3527.68,0.09240
3521.89,0.09255
3516.1,0.09153
3510.32,0.09208
3504.53,0.09241
3498.74,0.09253
3492.96,0.09177
3487.17,0.09187
3481.39,0.09127
3475.6,0.09034
3469.81,0.08883
3464.03,0.08785
3458.24,0.08567
3452.45,0.08371
3446.67,0.08355
3440.88,0.08291
3435.1,0.08410
3429.31,0.08497
3423.52,0.08598
3417.74,0.08713
3411.95,0.08649
3406.16,0.08633
3400.38,0.08628
3394.59,0.08546
3388.81,0.08446
3383.02,0.08374
3377.23,0.08317
3371.45,0.08169
3365.66,0.08039
3359.87,0.07870
3354.09,0.07702
3348.3,0.07546
3342.52,0.07332
3336.73,0.07022
3330.94,0.06815
3325.16,0.06546
3319.37,0.06303
3313.58,0.06128
3307.8,0.06002
3302.01,0.05902
3296.23,0.06166
3290.44,0.06422
3284.65,0.06648
3278.87,0.06859
3273.08,0.06912
3267.29,0.07099
3261.51,0.07204
3255.72,0.07403
3249.94,0.07537
3244.15,0.07663
3238.36,0.07782
3232.58,0.07841
3226.79,0.07894
3221,0.07891
3215.22,0.07844
3209.43,0.07820
3203.65,0.07796
3197.86,0.07784
3192.07,0.07880
3186.29,0.07880
3180.5,0.07935
3174.71,0.07996
3168.93,0.08009
3163.14,0.07958
3157.36,0.08027
3151.57,0.08067
3145.78,0.07978
3140,0.07992
3134.21,0.07918
3128.42,0.07848
3122.64,0.07721
3116.85,0.07405
3111.07,0.07004
3105.28,0.06651
3099.49,0.06614
3093.71,0.06460
3087.92,0.06055
3082.14,0.05879
3076.35,0.05978
3070.56,0.05912
3064.78,0.05663
3058.99,0.05675
3053.2,0.05855
3047.42,0.06022
3041.63,0.05914
3035.85,0.05694
3030.06,0.05463
3024.27,0.05532
3018.49,0.05890
3012.7,0.06033
3006.91,0.05931
3001.13,0.05847
2995.34,0.05945
2989.56,0.05838
2983.77,0.05608
2977.98,0.05381
2972.2,0.05235
2966.41,0.05154
2960.62,0.05216
2954.84,0.05240
2949.05,0.05270
2943.27,0.05304
2937.48,0.05464
2931.69,0.05589
2925.91,0.05879
2920.12,0.06072
2914.33,0.06056
2908.55,0.05890
2902.76,0.05815
2896.98,0.05845
2891.19,0.05781
2885.4,0.05804
2879.62,0.05692
2873.83,0.05655
2868.04,0.05720
2862.26,0.05791
2856.47,0.06012
2850.69,0.06179
2844.9,0.06192
2839.11,0.06404
2833.33,0.06550
2827.54,0.06665
2821.75,0.06746
2815.97,0.06854
2810.18,0.06934
2804.4,0.07010
2798.61,0.07030
2792.82,0.07100
2787.04,0.07185
2781.25,0.07250
2775.46,0.07292
2769.68,0.07308
2763.89,0.07351
2758.11,0.07362
2752.32,0.07290
2746.53,0.07289
2740.75,0.07300
2734.96,0.07262
2729.17,0.07294
2723.39,0.07311
2717.6,0.07351
2711.82,0.07400
2706.03,0.07399
2700.24,0.07465
2694.46,0.07421
2688.67,0.07447
2682.88,0.07446
2677.1,0.07411
2671.31,0.07414
2665.53,0.07402
2659.74,0.07436
2653.95,0.07454
2648.17,0.07455
2642.38,0.07408
2636.59,0.07336
2630.81,0.07375
2625.02,0.07397
2619.24,0.07410
2613.45,0.07347
2607.66,0.07305
2601.88,0.07287
2596.09,0.07309
2590.3,0.07315
2584.52,0.07294
2578.73,0.07302
2572.95,0.07300
2567.16,0.07311
2561.37,0.07330
2555.59,0.07304
2549.8,0.07299
2544.02,0.07296
2538.23,0.07280
2532.44,0.07248
2526.66,0.07188
2520.87,0.07197
2515.08,0.07222
2509.3,0.07217
2503.51,0.07195
2497.73,0.07211
2491.94,0.07243
2486.15,0.07267
2480.37,0.07278
2474.58,0.07349
2468.79,0.07410
2463.01,0.07465
2457.22,0.07452
2451.44,0.07458
2445.65,0.07462
2439.86,0.07439
2434.08,0.07453
2428.29,0.07446
2422.5,0.07399
2416.72,0.07423
2410.93,0.07423
2405.15,0.07422
2399.36,0.07431
2393.57,0.07487
2387.79,0.07517
2382,0.07507
2376.21,0.07501
2370.43,0.07499
2364.64,0.07442
2358.86,0.07415
2353.07,0.07344
2347.28,0.07252
2341.5,0.07187
2335.71,0.07282
2329.92,0.07402
2324.14,0.07467
2318.35,0.07439
2312.57,0.07419
2306.78,0.07507
2300.99,0.07509
2295.21,0.07502
2289.42,0.07455
2283.63,0.07478
2277.85,0.07440
2272.06,0.07379
2266.28,0.07296
2260.49,0.07215
2254.7,0.06912
2248.92,0.06299
2243.13,0.05690
2237.34,0.05560
2231.56,0.06009
2225.77,0.07083
2219.99,0.07683
2214.2,0.07853
2208.41,0.07950
2202.63,0.08056
2196.84,0.08093
2191.05,0.08063
2185.27,0.08056
2179.48,0.08103
2173.7,0.08189
2167.91,0.08264
2162.12,0.08259
2156.34,0.08278
2150.55,0.08198
2144.76,0.08127
2138.98,0.08131
2133.19,0.08241
2127.41,0.08341
2121.62,0.08511
2115.83,0.08677
2110.05,0.08814
2104.26,0.08875
2098.47,0.08918
2092.69,0.08940
2086.9,0.08933
2081.12,0.08914
2075.33,0.08837
2069.54,0.08741
2063.76,0.08702
2057.97,0.08664
2052.19,0.08548
2046.4,0.08419
2040.61,0.08389
2034.83,0.08274
2029.04,0.08290
2023.25,0.08255
2017.47,0.08238
2011.68,0.08260
2005.9,0.08244
2000.11,0.08111
1994.32,0.07956
1988.54,0.07728
1982.75,0.07658
1976.96,0.07554
1971.18,0.07337
1965.39,0.07128
1959.61,0.06919
1953.82,0.06866
1948.03,0.06964
1942.25,0.07240
1936.46,0.07588
1930.67,0.07882
1924.89,0.08056
1919.1,0.08079
1913.32,0.07991
1907.53,0.07783
1901.74,0.07528
1895.96,0.07337
1890.17,0.07165
1884.38,0.07081
1878.6,0.07105
1872.81,0.07217
1867.03,0.07577
1861.24,0.07993
1855.45,0.08158
1849.67,0.08161
1843.88,0.07957
1838.09,0.07712
1832.31,0.07374
1826.52,0.07002
1820.74,0.06666
1814.95,0.06464
1809.16,0.06254
1803.38,0.06052
1797.59,0.05924
1791.8,0.05860
1786.02,0.05932
1780.23,0.05981
1774.45,0.05851
1768.66,0.05706
1762.87,0.05483
1757.09,0.05231
1751.3,0.04955
1745.51,0.04702
1739.73,0.04789
1733.94,0.05350
1728.16,0.05806
1722.37,0.05947
1716.58,0.05886
1710.8,0.05814
1705.01,0.05828
1699.22,0.05873
1693.44,0.05813
1687.65,0.05851
1681.87,0.05953
1676.08,0.05980
1670.29,0.05936
1664.51,0.05822
1658.72,0.05801
1652.93,0.05789
1647.15,0.05804
1641.36,0.05823
1635.58,0.05887
1629.79,0.06000
1624,0.06021
1618.22,0.06008
1612.43,0.05861
1606.64,0.05586
1600.86,0.05551
1595.07,0.05695
1589.29,0.05814
1583.5,0.05607
1577.71,0.05741
1571.93,0.05783
1566.14,0.05615
1560.35,0.05563
1554.57,0.05486
1548.78,0.05401
1543,0.05534
1537.21,0.05656
1531.42,0.05763
1525.64,0.05887
1519.85,0.05914
1514.07,0.05842
1508.28,0.05751
1502.49,0.05461
1496.71,0.05083
1490.92,0.05373
1485.13,0.05447
1479.35,0.05340
1473.56,0.05273
1467.78,0.05209
1461.99,0.05143
1456.2,0.05073
1450.42,0.05489
1444.63,0.05650
1438.84,0.05660
1433.06,0.05641
1427.27,0.05671
1421.49,0.05610
1415.7,0.05601
1409.91,0.05591
1404.13,0.05425
1398.34,0.05358
1392.55,0.05351
1386.77,0.05349
1380.98,0.05317
1375.2,0.05336
1369.41,0.05371
1363.62,0.05349
1357.84,0.05354
1352.05,0.05395
1346.26,0.05357
1340.48,0.05336
1334.69,0.05327
1328.91,0.05319
1323.12,0.05295
1317.33,0.05251
1311.55,0.05278
1305.76,0.05260
1299.97,0.05278
1294.19,0.05259
1288.4,0.05215
1282.62,0.05175
1276.83,0.05130
1271.04,0.05163
1265.26,0.05197
1259.47,0.05270
1253.68,0.05278
1247.9,0.05306
1242.11,0.05331
1236.33,0.05364
1230.54,0.05407
1224.75,0.05353
1218.97,0.05358
1213.18,0.05368
1207.39,0.05362
1201.61,0.05226
1195.82,0.05201
1190.04,0.05178
1184.25,0.05112
1178.46,0.05195
1172.68,0.05312
1166.89,0.05580
1161.1,0.05799
1155.32,0.06011
1149.53,0.06102
1143.75,0.05988
1137.96,0.05850
1132.17,0.05758
1126.39,0.05662
1120.6,0.05622
1114.81,0.05677
1109.03,0.05642
1103.24,0.05663
1097.46,0.05500
1091.67,0.05577
1085.88,0.05516
1080.1,0.05476
1074.31,0.05490
1068.52,0.05526
1062.74,0.05587
1056.95,0.05637
1051.17,0.05585
1045.38,0.05563
1039.59,0.05584
1033.81,0.05491
1028.02,0.05565
1022.24,0.05641
1016.45,0.05660
1010.66,0.05708
1004.88,0.05673
999.09,0.05682
993.304,0.05623
987.518,0.05621
981.731,0.05561
975.945,0.05503
970.159,0.05579
964.373,0.05463
958.586,0.05509
952.8,0.05546
947.014,0.05480
941.228,0.05519
935.441,0.05525
929.655,0.05445
923.869,0.05409
918.083,0.05426
912.297,0.05370
906.51,0.05473
900.724,0.05489
894.938,0.05435
889.152,0.05436
883.365,0.05392
877.579,0.05308
871.793,0.05416
866.007,0.05383
860.22,0.05333
854.434,0.05228
848.648,0.05242
842.862,0.05259
837.075,0.05319
831.289,0.05283
825.503,0.05216
819.717,0.05175
813.931,0.05170
808.144,0.05158
802.358,0.05064
796.572,0.05020
790.786,0.04939
784.999,0.04856
779.213,0.04740
773.427,0.04666
767.641,0.04610
761.854,0.04999
756.068,0.05418
750.282,0.05422
744.496,0.05394
738.709,0.05225
732.923,0.05269
727.137,0.05040
721.351,0.04835
715.565,0.04420
709.778,0.03943
703.992,0.05126
698.206,0.07096
692.42,0.06700
686.633,0.06127
680.847,0.05861
675.061,0.05796
669.275,0.05639
663.488,0.05751
657.702,0.05694
651.916,0.05484
646.13,0.05386
640.343,0.05524
634.557,0.05470
628.771,0.05591
622.985,0.05235
617.198,0.05440
611.412,0.05514
605.626,0.05307
599.84,0.05671