File: 01_Data/Vinyl_Siding/FTIR/IS/Vinyl_Siding_IS_S_220914_R6.dpt
7497.03,0.75621
7491.25,0.75983
7485.46,0.75508
7479.67,0.75061
7473.89,0.74921
7468.1,0.75132
7462.32,0.75248
7456.53,0.75007
7450.74,0.74003
7444.96,0.75315
7439.17,0.74509
7433.38,0.74737
7427.6,0.74374
7421.81,0.73722
7416.03,0.74273
7410.24,0.73702
7404.45,0.74348
7398.67,0.74735
7392.88,0.73871
7387.09,0.73464
7381.31,0.72744
7375.52,0.73621
7369.74,0.72234
7363.95,0.72141
7358.16,0.72395
7352.38,0.72202
7346.59,0.72213
7340.8,0.72225
7335.02,0.72019
7329.23,0.70091
7323.45,0.71470
7317.66,0.69811
7311.87,0.69486
7306.09,0.70181
7300.3,0.69103
7294.51,0.67995
7288.73,0.67052
7282.94,0.65926
7277.16,0.66287
7271.37,0.65013
7265.58,0.65288
7259.8,0.65028
7254.01,0.63953
7248.22,0.63888
7242.44,0.63798
7236.65,0.62411
7230.87,0.61402
7225.08,0.61626
7219.29,0.61177
7213.51,0.62232
7207.72,0.62233
7201.93,0.61573
7196.15,0.61573
7190.36,0.61643
7184.58,0.60777
7178.79,0.60853
7173,0.60416
7167.22,0.60507
7161.43,0.60358
7155.65,0.60373
7149.86,0.59941
7144.07,0.59224
7138.29,0.59514
7132.5,0.59443
7126.71,0.59328
7120.93,0.59184
7115.14,0.59164
7109.36,0.59450
7103.57,0.59420
7097.78,0.58482
7092,0.58286
7086.21,0.58456
7080.42,0.58160
7074.64,0.58314
7068.85,0.58033
7063.07,0.58309
7057.28,0.58344
7051.49,0.58404
7045.71,0.58433
7039.92,0.57511
7034.13,0.57593
7028.35,0.58083
7022.56,0.57820
7016.78,0.57473
7010.99,0.57935
7005.2,0.58098
6999.42,0.57804
6993.63,0.57999
6987.84,0.58263
6982.06,0.59461
6976.27,0.59307
6970.49,0.59387
6964.7,0.59822
6958.91,0.60602
6953.13,0.60151
6947.34,0.60360
6941.55,0.60464
6935.77,0.61385
6929.98,0.61160
6924.2,0.61814
6918.41,0.61292
6912.62,0.61646
6906.84,0.61310
6901.05,0.61398
6895.26,0.62262
6889.48,0.62284
6883.69,0.62148
6877.91,0.62710
6872.12,0.62756
6866.33,0.62740
6860.55,0.63164
6854.76,0.62949
6848.97,0.63258
6843.19,0.63427
6837.4,0.63133
6831.62,0.63322
6825.83,0.63105
6820.04,0.64046
6814.26,0.63301
6808.47,0.63341
6802.68,0.63617
6796.9,0.63860
6791.11,0.63583
6785.33,0.63774
6779.54,0.63203
6773.75,0.64421
6767.97,0.64449
6762.18,0.64260
6756.39,0.64494
6750.61,0.64209
6744.82,0.63847
6739.04,0.64304
6733.25,0.64563
6727.46,0.64128
6721.68,0.64401
6715.89,0.64653
6710.1,0.64571
6704.32,0.64123
6698.53,0.64903
6692.75,0.65329
6686.96,0.64458
6681.17,0.64971
6675.39,0.65260
6669.6,0.65136
6663.82,0.65234
6658.03,0.65414
6652.24,0.66128
6646.46,0.65483
6640.67,0.65858
6634.88,0.65370
6629.1,0.65313
6623.31,0.65569
6617.53,0.65388
6611.74,0.65885
6605.95,0.65751
6600.17,0.65476
6594.38,0.65885
6588.59,0.65585
6582.81,0.65805
6577.02,0.65778
6571.24,0.65887
6565.45,0.65862
6559.66,0.65838
6553.88,0.65613
6548.09,0.65432
6542.3,0.65432
6536.52,0.65730
6530.73,0.65758
6524.95,0.66112
6519.16,0.65844
6513.37,0.65794
6507.59,0.65892
6501.8,0.65646
6496.01,0.65539
6490.23,0.65942
6484.44,0.66520
6478.66,0.66399
6472.87,0.65863
6467.08,0.66215
6461.3,0.66338
6455.51,0.66703
6449.72,0.66656
6443.94,0.66532
6438.15,0.66378
6432.37,0.66505
6426.58,0.66437
6420.79,0.66960
6415.01,0.67429
6409.22,0.67088
6403.43,0.66651
6397.65,0.66785
6391.86,0.66441
6386.08,0.66715
6380.29,0.66293
6374.5,0.66816
6368.72,0.66755
6362.93,0.66555
6357.14,0.66580
6351.36,0.66518
6345.57,0.66420
6339.79,0.66738
6334,0.66560
6328.21,0.66228
6322.43,0.66421
6316.64,0.66580
6310.85,0.66046
6305.07,0.66278
6299.28,0.66290
6293.5,0.66222
6287.71,0.66944
6281.92,0.66380
6276.14,0.65890
6270.35,0.65921
6264.56,0.66188
6258.78,0.66036
6252.99,0.66397
6247.21,0.66234
6241.42,0.66124
6235.63,0.66172
6229.85,0.66172
6224.06,0.66145
6218.27,0.66526
6212.49,0.66209
6206.7,0.65918
6200.92,0.65849
6195.13,0.65960
6189.34,0.65784
6183.56,0.65983
6177.77,0.65420
6171.98,0.65163
6166.2,0.64730
6160.41,0.64306
6154.63,0.64276
6148.84,0.63619
6143.05,0.63399
6137.27,0.63145
6131.48,0.63135
6125.7,0.62889
6119.91,0.62402
6114.12,0.62288
6108.34,0.62139
6102.55,0.62235
6096.76,0.62034
6090.98,0.61779
6085.19,0.61214
6079.41,0.61207
6073.62,0.61196
6067.83,0.61710
6062.05,0.61485
6056.26,0.61485
6050.47,0.61139
6044.69,0.60562
6038.9,0.59327
6033.12,0.58539
6027.33,0.56894
6021.54,0.55102
6015.76,0.53488
6009.97,0.51813
6004.18,0.50374
5998.4,0.48516
5992.61,0.47460
5986.83,0.46026
5981.04,0.44638
5975.25,0.43397
5969.47,0.42514
5963.68,0.42105
5957.89,0.41841
5952.11,0.41420
5946.32,0.41046
5940.54,0.40828
5934.75,0.40036
5928.96,0.39578
5923.18,0.38239
5917.39,0.36873
5911.6,0.35836
5905.82,0.34927
5900.03,0.33663
5894.25,0.32928
5888.46,0.31982
5882.67,0.31402
5876.89,0.31017
5871.1,0.30677
5865.31,0.30343
5859.53,0.29966
5853.74,0.29271
5847.96,0.28989
5842.17,0.28557
5836.38,0.28387
5830.6,0.28189
5824.81,0.28376
5819.02,0.28437
5813.24,0.28535
5807.45,0.28965
5801.67,0.29262
5795.88,0.29987
5790.09,0.30431
5784.31,0.30838
5778.52,0.31103
5772.73,0.31470
5766.95,0.31679
5761.16,0.31829
5755.38,0.31450
5749.59,0.30984
5743.8,0.30878
5738.02,0.30456
5732.23,0.30053
5726.44,0.30034
5720.66,0.29993
5714.87,0.29899
5709.09,0.29902
5703.3,0.29835
5697.51,0.30044
5691.73,0.30449
5685.94,0.31180
5680.15,0.31661
5674.37,0.32162
5668.58,0.32646
5662.8,0.33110
5657.01,0.33273
5651.22,0.33550
5645.44,0.33867
5639.65,0.33922
5633.87,0.34064
5628.08,0.34308
5622.29,0.34511
5616.51,0.34718
5610.72,0.34889
5604.93,0.34988
5599.15,0.35246
5593.36,0.35251
5587.58,0.35476
5581.79,0.35743
5576,0.36257
5570.22,0.36620
5564.43,0.36502
5558.64,0.36759
5552.86,0.37045
5547.07,0.37319
5541.29,0.37042
5535.5,0.37473
5529.71,0.37355
5523.93,0.37596
5518.14,0.37522
5512.35,0.37583
5506.57,0.37635
5500.78,0.37546
5495,0.37509
5489.21,0.37385
5483.42,0.37318
5477.64,0.37338
5471.85,0.37268
5466.06,0.37263
5460.28,0.37207
5454.49,0.37233
5448.71,0.37428
5442.92,0.37769
5437.13,0.37880
5431.35,0.37903
5425.56,0.38265
5419.77,0.38314
5413.99,0.38360
5408.2,0.38408
5402.42,0.38464
5396.63,0.38573
5390.84,0.38643
5385.06,0.38459
5379.27,0.38825
5373.48,0.38992
5367.7,0.39160
5361.91,0.39525
5356.13,0.39775
5350.34,0.39960
5344.55,0.40334
5338.77,0.40465
5332.98,0.40664
5327.19,0.40903
5321.41,0.41015
5315.62,0.41127
5309.84,0.41002
5304.05,0.41423
5298.26,0.41365
5292.48,0.41371
5286.69,0.41333
5280.9,0.40905
5275.12,0.40358
5269.33,0.39817
5263.55,0.39158
5257.76,0.38715
5251.97,0.38554
5246.19,0.38796
5240.4,0.39205
5234.61,0.39313
5228.83,0.39635
5223.04,0.39532
5217.26,0.39835
5211.47,0.39900
5205.68,0.39701
5199.9,0.39594
5194.11,0.39416
5188.32,0.39282
5182.54,0.39176
5176.75,0.39169
5170.97,0.38901
5165.18,0.38759
5159.39,0.38576
5153.61,0.38453
5147.82,0.38388
5142.03,0.38314
5136.25,0.38441
5130.46,0.38750
5124.68,0.39072
5118.89,0.39454
5113.1,0.39575
5107.32,0.39790
5101.53,0.39870
5095.75,0.40016
5089.96,0.40169
5084.17,0.40228
5078.39,0.40379
5072.6,0.40429
5066.81,0.40619
5061.03,0.40665
5055.24,0.40707
5049.46,0.40981
5043.67,0.41052
5037.88,0.41068
5032.1,0.41122
5026.31,0.41202
5020.52,0.41331
5014.74,0.41298
5008.95,0.41229
5003.17,0.41321
4997.38,0.41360
4991.59,0.41289
4985.81,0.41199
4980.02,0.41120
4974.23,0.41096
4968.45,0.41143
4962.66,0.41122
4956.88,0.41249
4951.09,0.41111
4945.3,0.41018
4939.52,0.41093
4933.73,0.41028
4927.94,0.41041
4922.16,0.40945
4916.37,0.40726
4910.59,0.40700
4904.8,0.40524
4899.01,0.40195
4893.23,0.40103
4887.44,0.40073
4881.65,0.39760
4875.87,0.39467
4870.08,0.39239
4864.3,0.39225
4858.51,0.39255
4852.72,0.39413
4846.94,0.39384
4841.15,0.39475
4835.36,0.39628
4829.58,0.39666
4823.79,0.39710
4818.01,0.39817
4812.22,0.39873
4806.43,0.39835
4800.65,0.39704
4794.86,0.39647
4789.07,0.39785
4783.29,0.39586
4777.5,0.39477
4771.72,0.39270
4765.93,0.38963
4760.14,0.39056
4754.36,0.38936
4748.57,0.38822
4742.78,0.38696
4737,0.38479
4731.21,0.38161
4725.43,0.37857
4719.64,0.37462
4713.85,0.36915
4708.07,0.36428
4702.28,0.35877
4696.49,0.35299
4690.71,0.34541
4684.92,0.32975
4679.14,0.30822
4673.35,0.28699
4667.56,0.27673
4661.78,0.28338
4655.99,0.29525
4650.2,0.30594
4644.42,0.30741
4638.63,0.30046
4632.85,0.29010
4627.06,0.28496
4621.27,0.28718
4615.49,0.28564
4609.7,0.28292
4603.92,0.28962
4598.13,0.30440
4592.34,0.31674
4586.56,0.31874
4580.77,0.31069
4574.98,0.30044
4569.2,0.30832
4563.41,0.32153
4557.63,0.32882
4551.84,0.33504
4546.05,0.33608
4540.27,0.33495
4534.48,0.33220
4528.69,0.33087
4522.91,0.32822
4517.12,0.32433
4511.34,0.32058
4505.55,0.31691
4499.76,0.31445
4493.98,0.31046
4488.19,0.30515
4482.4,0.29818
4476.62,0.29111
4470.83,0.28301
4465.05,0.27319
4459.26,0.26271
4453.47,0.25111
4447.69,0.23862
4441.9,0.22725
4436.11,0.21734
4430.33,0.20688
4424.54,0.19567
4418.76,0.18553
4412.97,0.17513
4407.18,0.16623
4401.4,0.15874
4395.61,0.15255
4389.82,0.14691
4384.04,0.14165
4378.25,0.13591
4372.47,0.13230
4366.68,0.12972
4360.89,0.12731
4355.11,0.12659
4349.32,0.12591
4343.53,0.12647
4337.75,0.12778
4331.96,0.12842
4326.18,0.13035
4320.39,0.13360
4314.6,0.13390
4308.82,0.13355
4303.03,0.13267
4297.24,0.13273
4291.46,0.13144
4285.67,0.12849
4279.89,0.12724
4274.1,0.12562
4268.31,0.12400
4262.53,0.12332
4256.74,0.12204
4250.95,0.12216
4245.17,0.12282
4239.38,0.12394
4233.6,0.12305
4227.81,0.12336
4222.02,0.12298
4216.24,0.12326
4210.45,0.12323
4204.66,0.12396
4198.88,0.12483
4193.09,0.12587
4187.31,0.12654
4181.52,0.12628
4175.73,0.12695
4169.95,0.12783
4164.16,0.12767
4158.37,0.12856
4152.59,0.12888
4146.8,0.12920
4141.02,0.12873
4135.23,0.12960
4129.44,0.12813
4123.66,0.12808
4117.87,0.12700
4112.09,0.12598
4106.3,0.12466
4100.51,0.12409
4094.73,0.12339
4088.94,0.12214
4083.15,0.12000
4077.37,0.11695
4071.58,0.11278
4065.8,0.11000
4060.01,0.10853
4054.22,0.10809
4048.44,0.10909
4042.65,0.10795
4036.86,0.10858
4031.08,0.11171
4025.29,0.11541
4019.51,0.12099
4013.72,0.12466
4007.93,0.12681
4002.15,0.12779
3996.36,0.12940
3990.57,0.13141
3984.79,0.13332
3979,0.13448
3973.22,0.13503
3967.43,0.13620
3961.64,0.13718
3955.86,0.13780
3950.07,0.13770
3944.28,0.13754
3938.5,0.13814
3932.71,0.13854
3926.93,0.13828
3921.14,0.13913
3915.35,0.13964
3909.57,0.13959
3903.78,0.13942
3897.99,0.13991
3892.21,0.13994
3886.42,0.14034
3880.64,0.14095
3874.85,0.14052
3869.06,0.14119
3863.28,0.14084
3857.49,0.14078
3851.7,0.14039
3845.92,0.13936
3840.13,0.13974
3834.35,0.13911
3828.56,0.13893
3822.77,0.13924
3816.99,0.14022
3811.2,0.14080
3805.41,0.14169
3799.63,0.14334
3793.84,0.14458
3788.06,0.14570
3782.27,0.14656
3776.48,0.14717
3770.7,0.14805
3764.91,0.14814
3759.12,0.14895
3753.34,0.15010
3747.55,0.15095
3741.77,0.15032
3735.98,0.15127
3730.19,0.15208
3724.41,0.15073
3718.62,0.15057
3712.83,0.14921
3707.05,0.14344
3701.26,0.13725
3695.48,0.13182
3689.69,0.12659
3683.9,0.11929
3678.12,0.11509
3672.33,0.11134
3666.54,0.10891
3660.76,0.10722
3654.97,0.10402
3649.19,0.10297
3643.4,0.10269
3637.61,0.10388
3631.83,0.10344
3626.04,0.10277
3620.25,0.10156
3614.47,0.10284
3608.68,0.10293
3602.9,0.10311
3597.11,0.10285
3591.32,0.10235
3585.54,0.10148
3579.75,0.10145
3573.97,0.10021
3568.18,0.09883
3562.39,0.09768
3556.61,0.09642
3550.82,0.09523
3545.03,0.09467
3539.25,0.09410
3533.46,0.09315
3527.68,0.09342
3521.89,0.09335
3516.1,0.09334
3510.32,0.09267
3504.53,0.09283
3498.74,0.09292
3492.96,0.09258
3487.17,0.09190
3481.39,0.09164
3475.6,0.09095
3469.81,0.08979
3464.03,0.08773
3458.24,0.08579
3452.45,0.08418
3446.67,0.08168
3440.88,0.08306
3435.1,0.08407
3429.31,0.08532
3423.52,0.08619
3417.74,0.08724
3411.95,0.08713
3406.16,0.08661
3400.38,0.08640
3394.59,0.08581
3388.81,0.08506
3383.02,0.08442
3377.23,0.08237
3371.45,0.08131
3365.66,0.08039
3359.87,0.07888
3354.09,0.07693
3348.3,0.07470
3342.52,0.07334
3336.73,0.07098
3330.94,0.06842
3325.16,0.06630
3319.37,0.06300
3313.58,0.06107
3307.8,0.05970
3302.01,0.05974
3296.23,0.06145
3290.44,0.06376
3284.65,0.06598
3278.87,0.06842
3273.08,0.06937
3267.29,0.07106
3261.51,0.07219
3255.72,0.07417
3249.94,0.07570
3244.15,0.07708
3238.36,0.07776
3232.58,0.07772
3226.79,0.07885
3221,0.07861
3215.22,0.07850
3209.43,0.07882
3203.65,0.07844
3197.86,0.07811
3192.07,0.07906
3186.29,0.07849
3180.5,0.07926
3174.71,0.07874
3168.93,0.07980
3163.14,0.07912
3157.36,0.08024
3151.57,0.08060
3145.78,0.08054
3140,0.07894
3134.21,0.07864
3128.42,0.07853
3122.64,0.07753
3116.85,0.07409
3111.07,0.06965
3105.28,0.06624
3099.49,0.06588
3093.71,0.06518
3087.92,0.06017
3082.14,0.05884
3076.35,0.05985
3070.56,0.05874
3064.78,0.05708
3058.99,0.05689
3053.2,0.05899
3047.42,0.06001
3041.63,0.05896
3035.85,0.05645
3030.06,0.05465
3024.27,0.05516
3018.49,0.05804
3012.7,0.06043
3006.91,0.05941
3001.13,0.05875
2995.34,0.05895
2989.56,0.05823
2983.77,0.05631
2977.98,0.05348
2972.2,0.05233
2966.41,0.05168
2960.62,0.05191
2954.84,0.05266
2949.05,0.05270
2943.27,0.05303
2937.48,0.05430
2931.69,0.05656
2925.91,0.05879
2920.12,0.06015
2914.33,0.05995
2908.55,0.05895
2902.76,0.05835
2896.98,0.05853
2891.19,0.05835
2885.4,0.05789
2879.62,0.05669
2873.83,0.05625
2868.04,0.05658
2862.26,0.05777
2856.47,0.05995
2850.69,0.06170
2844.9,0.06253
2839.11,0.06383
2833.33,0.06537
2827.54,0.06695
2821.75,0.06753
2815.97,0.06826
2810.18,0.06874
2804.4,0.06995
2798.61,0.07044
2792.82,0.07067
2787.04,0.07144
2781.25,0.07229
2775.46,0.07260
2769.68,0.07299
2763.89,0.07321
2758.11,0.07325
2752.32,0.07356
2746.53,0.07270
2740.75,0.07244
2734.96,0.07253
2729.17,0.07275
2723.39,0.07349
2717.6,0.07344
2711.82,0.07411
2706.03,0.07431
2700.24,0.07403
2694.46,0.07409
2688.67,0.07376
2682.88,0.07381
2677.1,0.07444
2671.31,0.07374
2665.53,0.07405
2659.74,0.07459
2653.95,0.07430
2648.17,0.07412
2642.38,0.07395
2636.59,0.07348
2630.81,0.07393
2625.02,0.07389
2619.24,0.07363
2613.45,0.07314
2607.66,0.07268
2601.88,0.07302
2596.09,0.07326
2590.3,0.07310
2584.52,0.07297
2578.73,0.07265
2572.95,0.07318
2567.16,0.07299
2561.37,0.07330
2555.59,0.07324
2549.8,0.07286
2544.02,0.07308
2538.23,0.07307
2532.44,0.07277
2526.66,0.07214
2520.87,0.07213
2515.08,0.07194
2509.3,0.07185
2503.51,0.07213
2497.73,0.07191
2491.94,0.07229
2486.15,0.07264
2480.37,0.07268
2474.58,0.07341
2468.79,0.07390
2463.01,0.07434
2457.22,0.07433
2451.44,0.07396
2445.65,0.07429
2439.86,0.07463
2434.08,0.07407
2428.29,0.07415
2422.5,0.07404
2416.72,0.07389
2410.93,0.07425
2405.15,0.07446
2399.36,0.07433
2393.57,0.07474
2387.79,0.07474
2382,0.07481
2376.21,0.07477
2370.43,0.07478
2364.64,0.07436
2358.86,0.07408
2353.07,0.07386
2347.28,0.07278
2341.5,0.07218
2335.71,0.07233
2329.92,0.07373
2324.14,0.07453
2318.35,0.07399
2312.57,0.07437
2306.78,0.07530
2300.99,0.07478
2295.21,0.07448
2289.42,0.07435
2283.63,0.07436
2277.85,0.07414
2272.06,0.07329
2266.28,0.07298
2260.49,0.07158
2254.7,0.06888
2248.92,0.06275
2243.13,0.05661
2237.34,0.05598
2231.56,0.06004
2225.77,0.07075
2219.99,0.07659
2214.2,0.07886
2208.41,0.07966
2202.63,0.08067
2196.84,0.08128
2191.05,0.08065
2185.27,0.08014
2179.48,0.08117
2173.7,0.08207
2167.91,0.08229
2162.12,0.08278
2156.34,0.08256
2150.55,0.08205
2144.76,0.08170
2138.98,0.08168
2133.19,0.08232
2127.41,0.08353
2121.62,0.08518
2115.83,0.08657
2110.05,0.08779
2104.26,0.08865
2098.47,0.08955
2092.69,0.08934
2086.9,0.08906
2081.12,0.08864
2075.33,0.08845
2069.54,0.08785
2063.76,0.08676
2057.97,0.08587
2052.19,0.08557
2046.4,0.08453
2040.61,0.08398
2034.83,0.08309
2029.04,0.08248
2023.25,0.08233
2017.47,0.08185
2011.68,0.08254
2005.9,0.08259
2000.11,0.08140
1994.32,0.07961
1988.54,0.07771
1982.75,0.07667
1976.96,0.07522
1971.18,0.07328
1965.39,0.07112
1959.61,0.06926
1953.82,0.06872
1948.03,0.06958
1942.25,0.07209
1936.46,0.07606
1930.67,0.07883
1924.89,0.08078
1919.1,0.08084
1913.32,0.08020
1907.53,0.07768
1901.74,0.07528
1895.96,0.07295
1890.17,0.07131
1884.38,0.07059
1878.6,0.07091
1872.81,0.07233
1867.03,0.07547
1861.24,0.07953
1855.45,0.08184
1849.67,0.08175
1843.88,0.07958
1838.09,0.07692
1832.31,0.07352
1826.52,0.07009
1820.74,0.06695
1814.95,0.06431
1809.16,0.06229
1803.38,0.06056
1797.59,0.05912
1791.8,0.05898
1786.02,0.05946
1780.23,0.05971
1774.45,0.05841
1768.66,0.05666
1762.87,0.05434
1757.09,0.05223
1751.3,0.04964
1745.51,0.04687
1739.73,0.04794
1733.94,0.05333
1728.16,0.05816
1722.37,0.05941
1716.58,0.05869
1710.8,0.05860
1705.01,0.05836
1699.22,0.05832
1693.44,0.05822
1687.65,0.05885
1681.87,0.05945
1676.08,0.05940
1670.29,0.05904
1664.51,0.05843
1658.72,0.05812
1652.93,0.05818
1647.15,0.05765
1641.36,0.05814
1635.58,0.05888
1629.79,0.06001
1624,0.05997
1618.22,0.06005
1612.43,0.05882
1606.64,0.05592
1600.86,0.05505
1595.07,0.05747
1589.29,0.05819
1583.5,0.05588
1577.71,0.05706
1571.93,0.05725
1566.14,0.05624
1560.35,0.05542
1554.57,0.05461
1548.78,0.05451
1543,0.05537
1537.21,0.05586
1531.42,0.05775
1525.64,0.05848
1519.85,0.05891
1514.07,0.05838
1508.28,0.05720
1502.49,0.05424
1496.71,0.05049
1490.92,0.05364
1485.13,0.05471
1479.35,0.05370
1473.56,0.05234
1467.78,0.05198
1461.99,0.05149
1456.2,0.05058
1450.42,0.05458
1444.63,0.05623
1438.84,0.05631
1433.06,0.05643
1427.27,0.05672
1421.49,0.05659
1415.7,0.05657
1409.91,0.05579
1404.13,0.05440
1398.34,0.05346
1392.55,0.05378
1386.77,0.05310
1380.98,0.05309
1375.2,0.05347
1369.41,0.05359
1363.62,0.05356
1357.84,0.05339
1352.05,0.05339
1346.26,0.05344
1340.48,0.05328
1334.69,0.05292
1328.91,0.05309
1323.12,0.05311
1317.33,0.05284
1311.55,0.05267
1305.76,0.05255
1299.97,0.05221
1294.19,0.05209
1288.4,0.05210
1282.62,0.05130
1276.83,0.05126
1271.04,0.05147
1265.26,0.05214
1259.47,0.05243
1253.68,0.05244
1247.9,0.05286
1242.11,0.05345
1236.33,0.05360
1230.54,0.05351
1224.75,0.05352
1218.97,0.05366
1213.18,0.05345
1207.39,0.05313
1201.61,0.05229
1195.82,0.05223
1190.04,0.05130
1184.25,0.05121
1178.46,0.05159
1172.68,0.05325
1166.89,0.05506
1161.1,0.05752
1155.32,0.06009
1149.53,0.06079
1143.75,0.06002
1137.96,0.05855
1132.17,0.05737
1126.39,0.05706
1120.6,0.05648
1114.81,0.05672
1109.03,0.05674
1103.24,0.05660
1097.46,0.05602
1091.67,0.05535
1085.88,0.05490
1080.1,0.05495
1074.31,0.05468
1068.52,0.05537
1062.74,0.05528
1056.95,0.05650
1051.17,0.05611
1045.38,0.05596
1039.59,0.05494
1033.81,0.05519
1028.02,0.05639
1022.24,0.05651
1016.45,0.05693
1010.66,0.05639
1004.88,0.05607
999.09,0.05582
993.304,0.05576
987.518,0.05602
981.731,0.05520
975.945,0.05483
970.159,0.05469
964.373,0.05525
958.586,0.05477
952.8,0.05516
947.014,0.05461
941.228,0.05443
935.441,0.05460
929.655,0.05471
923.869,0.05459
918.083,0.05455
912.297,0.05462
906.51,0.05509
900.724,0.05446
894.938,0.05475
889.152,0.05431
883.365,0.05341
877.579,0.05364
871.793,0.05380
866.007,0.05387
860.22,0.05293
854.434,0.05227
848.648,0.05309
842.862,0.05302
837.075,0.05276
831.289,0.05290
825.503,0.05282
819.717,0.05206
813.931,0.05138
808.144,0.05134
802.358,0.05130
796.572,0.05078
790.786,0.04936
784.999,0.04844
779.213,0.04763
773.427,0.04672
767.641,0.04681
761.854,0.05077
756.068,0.05367
750.282,0.05402
744.496,0.05376
738.709,0.05321
732.923,0.05260
727.137,0.05106
721.351,0.04853
715.565,0.04363
709.778,0.03912
703.992,0.05061
698.206,0.07219
692.42,0.06717
686.633,0.06084
680.847,0.05874
675.061,0.05775
669.275,0.05698
663.488,0.05647
657.702,0.05643
651.916,0.05620
646.13,0.05579
640.343,0.05540
634.557,0.05572
628.771,0.05452
622.985,0.05572
617.198,0.05455
611.412,0.05533
605.626,0.05521
599.84,0.05379