File: 01_Data/Straw/FTIR/IS/Straw_IS_S_221109_R6.dpt
7497.03,0.84355
7491.25,0.84248
7485.46,0.83798
7479.67,0.85014
7473.89,0.83851
7468.1,0.83974
7462.32,0.83794
7456.53,0.83256
7450.74,0.84026
7444.96,0.84642
7439.17,0.83565
7433.38,0.83190
7427.6,0.83420
7421.81,0.83444
7416.03,0.82806
7410.24,0.82774
7404.45,0.82994
7398.67,0.82957
7392.88,0.81665
7387.09,0.82190
7381.31,0.83474
7375.52,0.81925
7369.74,0.81702
7363.95,0.81834
7358.16,0.81641
7352.38,0.82933
7346.59,0.82810
7340.8,0.82437
7335.02,0.81741
7329.23,0.80871
7323.45,0.81322
7317.66,0.81578
7311.87,0.81333
7306.09,0.80336
7300.3,0.81099
7294.51,0.81822
7288.73,0.81278
7282.94,0.81114
7277.16,0.81679
7271.37,0.81086
7265.58,0.80395
7259.8,0.81644
7254.01,0.81461
7248.22,0.81693
7242.44,0.81074
7236.65,0.81796
7230.87,0.81449
7225.08,0.81655
7219.29,0.81163
7213.51,0.80650
7207.72,0.79941
7201.93,0.80575
7196.15,0.81262
7190.36,0.80597
7184.58,0.80843
7178.79,0.80836
7173,0.80338
7167.22,0.80232
7161.43,0.80458
7155.65,0.80138
7149.86,0.79366
7144.07,0.79553
7138.29,0.79754
7132.5,0.79599
7126.71,0.78889
7120.93,0.78639
7115.14,0.78367
7109.36,0.78397
7103.57,0.77896
7097.78,0.78143
7092,0.77287
7086.21,0.76246
7080.42,0.76609
7074.64,0.76214
7068.85,0.75545
7063.07,0.75081
7057.28,0.74518
7051.49,0.73604
7045.71,0.74312
7039.92,0.73041
7034.13,0.72459
7028.35,0.72596
7022.56,0.72194
7016.78,0.72161
7010.99,0.71101
7005.2,0.71615
6999.42,0.71006
6993.63,0.70720
6987.84,0.70958
6982.06,0.70712
6976.27,0.69437
6970.49,0.69219
6964.7,0.70494
6958.91,0.70024
6953.13,0.69613
6947.34,0.69093
6941.55,0.68676
6935.77,0.69182
6929.98,0.68429
6924.2,0.69388
6918.41,0.68667
6912.62,0.68273
6906.84,0.68665
6901.05,0.68512
6895.26,0.68742
6889.48,0.68641
6883.69,0.68966
6877.91,0.68660
6872.12,0.68455
6866.33,0.68868
6860.55,0.68621
6854.76,0.67975
6848.97,0.68133
6843.19,0.68913
6837.4,0.69314
6831.62,0.69147
6825.83,0.68173
6820.04,0.68941
6814.26,0.68177
6808.47,0.67932
6802.68,0.68680
6796.9,0.68155
6791.11,0.68479
6785.33,0.68308
6779.54,0.68593
6773.75,0.69079
6767.97,0.68061
6762.18,0.68315
6756.39,0.68344
6750.61,0.68719
6744.82,0.68869
6739.04,0.69008
6733.25,0.68680
6727.46,0.68057
6721.68,0.67799
6715.89,0.68731
6710.1,0.69055
6704.32,0.68687
6698.53,0.68637
6692.75,0.68590
6686.96,0.69125
6681.17,0.69026
6675.39,0.69396
6669.6,0.69068
6663.82,0.69359
6658.03,0.69149
6652.24,0.69115
6646.46,0.69375
6640.67,0.69717
6634.88,0.69393
6629.1,0.69800
6623.31,0.69763
6617.53,0.70354
6611.74,0.69955
6605.95,0.70165
6600.17,0.70538
6594.38,0.69759
6588.59,0.70867
6582.81,0.70136
6577.02,0.70591
6571.24,0.70758
6565.45,0.70757
6559.66,0.71009
6553.88,0.71046
6548.09,0.70821
6542.3,0.70786
6536.52,0.71104
6530.73,0.71009
6524.95,0.70820
6519.16,0.71595
6513.37,0.71847
6507.59,0.71364
6501.8,0.71264
6496.01,0.71810
6490.23,0.71488
6484.44,0.71262
6478.66,0.71876
6472.87,0.71948
6467.08,0.71566
6461.3,0.71522
6455.51,0.72112
6449.72,0.72021
6443.94,0.71623
6438.15,0.71931
6432.37,0.71841
6426.58,0.72144
6420.79,0.71897
6415.01,0.71962
6409.22,0.72115
6403.43,0.72662
6397.65,0.72660
6391.86,0.71770
6386.08,0.72170
6380.29,0.72245
6374.5,0.72415
6368.72,0.72215
6362.93,0.72370
6357.14,0.72634
6351.36,0.72538
6345.57,0.72678
6339.79,0.72696
6334,0.72403
6328.21,0.72603
6322.43,0.72597
6316.64,0.72461
6310.85,0.72690
6305.07,0.73146
6299.28,0.72963
6293.5,0.73027
6287.71,0.73011
6281.92,0.73266
6276.14,0.73071
6270.35,0.73413
6264.56,0.73352
6258.78,0.73860
6252.99,0.73984
6247.21,0.73692
6241.42,0.74164
6235.63,0.74241
6229.85,0.74389
6224.06,0.73869
6218.27,0.74586
6212.49,0.74945
6206.7,0.75023
6200.92,0.75071
6195.13,0.75289
6189.34,0.75298
6183.56,0.75600
6177.77,0.75662
6171.98,0.75708
6166.2,0.75807
6160.41,0.75917
6154.63,0.76075
6148.84,0.76222
6143.05,0.75783
6137.27,0.75993
6131.48,0.76436
6125.7,0.76391
6119.91,0.76447
6114.12,0.76339
6108.34,0.76646
6102.55,0.76266
6096.76,0.76685
6090.98,0.76852
6085.19,0.76656
6079.41,0.76521
6073.62,0.76687
6067.83,0.76352
6062.05,0.76483
6056.26,0.76762
6050.47,0.76255
6044.69,0.76237
6038.9,0.76579
6033.12,0.76262
6027.33,0.76329
6021.54,0.75974
6015.76,0.76076
6009.97,0.75964
6004.18,0.75943
5998.4,0.75682
5992.61,0.75606
5986.83,0.75530
5981.04,0.75658
5975.25,0.75259
5969.47,0.75239
5963.68,0.75486
5957.89,0.75264
5952.11,0.74991
5946.32,0.74841
5940.54,0.74786
5934.75,0.74745
5928.96,0.74915
5923.18,0.75334
5917.39,0.75053
5911.6,0.75004
5905.82,0.74735
5900.03,0.74632
5894.25,0.74457
5888.46,0.74219
5882.67,0.74361
5876.89,0.74310
5871.1,0.74381
5865.31,0.74403
5859.53,0.74608
5853.74,0.74344
5847.96,0.74182
5842.17,0.74117
5836.38,0.74152
5830.6,0.73985
5824.81,0.73617
5819.02,0.73662
5813.24,0.73607
5807.45,0.73364
5801.67,0.73406
5795.88,0.73416
5790.09,0.73429
5784.31,0.73671
5778.52,0.73783
5772.73,0.73828
5766.95,0.74083
5761.16,0.74079
5755.38,0.73955
5749.59,0.74321
5743.8,0.74290
5738.02,0.74279
5732.23,0.74135
5726.44,0.74328
5720.66,0.74160
5714.87,0.74326
5709.09,0.74071
5703.3,0.74272
5697.51,0.74237
5691.73,0.74185
5685.94,0.74193
5680.15,0.74174
5674.37,0.74007
5668.58,0.74034
5662.8,0.74172
5657.01,0.73913
5651.22,0.73851
5645.44,0.73967
5639.65,0.74124
5633.87,0.73980
5628.08,0.73966
5622.29,0.74183
5616.51,0.74418
5610.72,0.74107
5604.93,0.74091
5599.15,0.74065
5593.36,0.74178
5587.58,0.74006
5581.79,0.74118
5576,0.74086
5570.22,0.74046
5564.43,0.74223
5558.64,0.74298
5552.86,0.74170
5547.07,0.74480
5541.29,0.74449
5535.5,0.74527
5529.71,0.74665
5523.93,0.74513
5518.14,0.74648
5512.35,0.74540
5506.57,0.74406
5500.78,0.74445
5495,0.74855
5489.21,0.74674
5483.42,0.74842
5477.64,0.74762
5471.85,0.74851
5466.06,0.74855
5460.28,0.75161
5454.49,0.74964
5448.71,0.75173
5442.92,0.75244
5437.13,0.75398
5431.35,0.75552
5425.56,0.75737
5419.77,0.75797
5413.99,0.75621
5408.2,0.75816
5402.42,0.75797
5396.63,0.75873
5390.84,0.76008
5385.06,0.76206
5379.27,0.75936
5373.48,0.76101
5367.7,0.75996
5361.91,0.76076
5356.13,0.76096
5350.34,0.76025
5344.55,0.76049
5338.77,0.75937
5332.98,0.75819
5327.19,0.75714
5321.41,0.75334
5315.62,0.75052
5309.84,0.74726
5304.05,0.74399
5298.26,0.73840
5292.48,0.73265
5286.69,0.72568
5280.9,0.71695
5275.12,0.70944
5269.33,0.69850
5263.55,0.68865
5257.76,0.67805
5251.97,0.67031
5246.19,0.65942
5240.4,0.65249
5234.61,0.64545
5228.83,0.64161
5223.04,0.63657
5217.26,0.63320
5211.47,0.63128
5205.68,0.62882
5199.9,0.62702
5194.11,0.62639
5188.32,0.62804
5182.54,0.63034
5176.75,0.63076
5170.97,0.63187
5165.18,0.63617
5159.39,0.63878
5153.61,0.64333
5147.82,0.64617
5142.03,0.64851
5136.25,0.65223
5130.46,0.65620
5124.68,0.65778
5118.89,0.66133
5113.1,0.66435
5107.32,0.66765
5101.53,0.66991
5095.75,0.67177
5089.96,0.67429
5084.17,0.67608
5078.39,0.68098
5072.6,0.68271
5066.81,0.68453
5061.03,0.68475
5055.24,0.68783
5049.46,0.69013
5043.67,0.69143
5037.88,0.69200
5032.1,0.69467
5026.31,0.69603
5020.52,0.69577
5014.74,0.69687
5008.95,0.69512
5003.17,0.69599
4997.38,0.69565
4991.59,0.69380
4985.81,0.69169
4980.02,0.69007
4974.23,0.68788
4968.45,0.68554
4962.66,0.68038
4956.88,0.67802
4951.09,0.67389
4945.3,0.66684
4939.52,0.66176
4933.73,0.65447
4927.94,0.64940
4922.16,0.64376
4916.37,0.63812
4910.59,0.63162
4904.8,0.62520
4899.01,0.61911
4893.23,0.61166
4887.44,0.60532
4881.65,0.59954
4875.87,0.59397
4870.08,0.58886
4864.3,0.58472
4858.51,0.57939
4852.72,0.57377
4846.94,0.57030
4841.15,0.56509
4835.36,0.56123
4829.58,0.55880
4823.79,0.55424
4818.01,0.55075
4812.22,0.54977
4806.43,0.54737
4800.65,0.54621
4794.86,0.54552
4789.07,0.54307
4783.29,0.54271
4777.5,0.54280
4771.72,0.54255
4765.93,0.54042
4760.14,0.54104
4754.36,0.54108
4748.57,0.54098
4742.78,0.54197
4737,0.54169
4731.21,0.54261
4725.43,0.54312
4719.64,0.54349
4713.85,0.54414
4708.07,0.54585
4702.28,0.54627
4696.49,0.54850
4690.71,0.55201
4684.92,0.55160
4679.14,0.55430
4673.35,0.55542
4667.56,0.55772
4661.78,0.56143
4655.99,0.56365
4650.2,0.56644
4644.42,0.56852
4638.63,0.57124
4632.85,0.57307
4627.06,0.57539
4621.27,0.57781
4615.49,0.57951
4609.7,0.58166
4603.92,0.58516
4598.13,0.58790
4592.34,0.58996
4586.56,0.59194
4580.77,0.59226
4574.98,0.59438
4569.2,0.59562
4563.41,0.59680
4557.63,0.59997
4551.84,0.60147
4546.05,0.60195
4540.27,0.60348
4534.48,0.60363
4528.69,0.60530
4522.91,0.60569
4517.12,0.60630
4511.34,0.60591
4505.55,0.60452
4499.76,0.60236
4493.98,0.60023
4488.19,0.59604
4482.4,0.59158
4476.62,0.58584
4470.83,0.57913
4465.05,0.57288
4459.26,0.56495
4453.47,0.55652
4447.69,0.54971
4441.9,0.54086
4436.11,0.53272
4430.33,0.52625
4424.54,0.51923
4418.76,0.51519
4412.97,0.51009
4407.18,0.50690
4401.4,0.50521
4395.61,0.50370
4389.82,0.50442
4384.04,0.50625
4378.25,0.50910
4372.47,0.51191
4366.68,0.51444
4360.89,0.51504
4355.11,0.51384
4349.32,0.51338
4343.53,0.51006
4337.75,0.50803
4331.96,0.50503
4326.18,0.50191
4320.39,0.49903
4314.6,0.49791
4308.82,0.49413
4303.03,0.49171
4297.24,0.49084
4291.46,0.48947
4285.67,0.48787
4279.89,0.48732
4274.1,0.48791
4268.31,0.48898
4262.53,0.49000
4256.74,0.49044
4250.95,0.49141
4245.17,0.49251
4239.38,0.49439
4233.6,0.49499
4227.81,0.49617
4222.02,0.49720
4216.24,0.49751
4210.45,0.49841
4204.66,0.49879
4198.88,0.49916
4193.09,0.50043
4187.31,0.49948
4181.52,0.50148
4175.73,0.50275
4169.95,0.50347
4164.16,0.50515
4158.37,0.50410
4152.59,0.50313
4146.8,0.50072
4141.02,0.49729
4135.23,0.49523
4129.44,0.49107
4123.66,0.48590
4117.87,0.48193
4112.09,0.47655
4106.3,0.47062
4100.51,0.46523
4094.73,0.45939
4088.94,0.45358
4083.15,0.44715
4077.37,0.44029
4071.58,0.43338
4065.8,0.42714
4060.01,0.42054
4054.22,0.41413
4048.44,0.40777
4042.65,0.40203
4036.86,0.39765
4031.08,0.39341
4025.29,0.39004
4019.51,0.38879
4013.72,0.38750
4007.93,0.38802
4002.15,0.38972
3996.36,0.39128
3990.57,0.39368
3984.79,0.39675
3979,0.39911
3973.22,0.40147
3967.43,0.40394
3961.64,0.40753
3955.86,0.41017
3950.07,0.41356
3944.28,0.41691
3938.5,0.42016
3932.71,0.42351
3926.93,0.42595
3921.14,0.42957
3915.35,0.43304
3909.57,0.43626
3903.78,0.44045
3897.99,0.44326
3892.21,0.44630
3886.42,0.45001
3880.64,0.45289
3874.85,0.45568
3869.06,0.45986
3863.28,0.46395
3857.49,0.46718
3851.7,0.47258
3845.92,0.47503
3840.13,0.47826
3834.35,0.48087
3828.56,0.48199
3822.77,0.48386
3816.99,0.48415
3811.2,0.48408
3805.41,0.48466
3799.63,0.48534
3793.84,0.48492
3788.06,0.48427
3782.27,0.48339
3776.48,0.48256
3770.7,0.48071
3764.91,0.48055
3759.12,0.47919
3753.34,0.47723
3747.55,0.47524
3741.77,0.47182
3735.98,0.46871
3730.19,0.46303
3724.41,0.45756
3718.62,0.45074
3712.83,0.44328
3707.05,0.43283
3701.26,0.42192
3695.48,0.40756
3689.69,0.39126
3683.9,0.36772
3678.12,0.34603
3672.33,0.31923
3666.54,0.29133
3660.76,0.26656
3654.97,0.24348
3649.19,0.22354
3643.4,0.20423
3637.61,0.18847
3631.83,0.17497
3626.04,0.16105
3620.25,0.14962
3614.47,0.13876
3608.68,0.12917
3602.9,0.11976
3597.11,0.11164
3591.32,0.10474
3585.54,0.09760
3579.75,0.09204
3573.97,0.08754
3568.18,0.08361
3562.39,0.07896
3556.61,0.07556
3550.82,0.07327
3545.03,0.06975
3539.25,0.06724
3533.46,0.06434
3527.68,0.06329
3521.89,0.06180
3516.1,0.05881
3510.32,0.05762
3504.53,0.05578
3498.74,0.05476
3492.96,0.05325
3487.17,0.05232
3481.39,0.05090
3475.6,0.04957
3469.81,0.04835
3464.03,0.04758
3458.24,0.04658
3452.45,0.04702
3446.67,0.04642
3440.88,0.04601
3435.1,0.04628
3429.31,0.04566
3423.52,0.04557
3417.74,0.04571
3411.95,0.04513
3406.16,0.04528
3400.38,0.04681
3394.59,0.04698
3388.81,0.04583
3383.02,0.04616
3377.23,0.04701
3371.45,0.04677
3365.66,0.04741
3359.87,0.04756
3354.09,0.04798
3348.3,0.04818
3342.52,0.04836
3336.73,0.04926
3330.94,0.05039
3325.16,0.05111
3319.37,0.05218
3313.58,0.05300
3307.8,0.05407
3302.01,0.05443
3296.23,0.05571
3290.44,0.05648
3284.65,0.05725
3278.87,0.05892
3273.08,0.06020
3267.29,0.06153
3261.51,0.06305
3255.72,0.06532
3249.94,0.06713
3244.15,0.06786
3238.36,0.07000
3232.58,0.07190
3226.79,0.07426
3221,0.07584
3215.22,0.07712
3209.43,0.07974
3203.65,0.08203
3197.86,0.08360
3192.07,0.08536
3186.29,0.08732
3180.5,0.08947
3174.71,0.09092
3168.93,0.09274
3163.14,0.09534
3157.36,0.09760
3151.57,0.09949
3145.78,0.10112
3140,0.10319
3134.21,0.10607
3128.42,0.10789
3122.64,0.10993
3116.85,0.11232
3111.07,0.11409
3105.28,0.11649
3099.49,0.11863
3093.71,0.12045
3087.92,0.12197
3082.14,0.12419
3076.35,0.12667
3070.56,0.12893
3064.78,0.13082
3058.99,0.13276
3053.2,0.13501
3047.42,0.13705
3041.63,0.13893
3035.85,0.13995
3030.06,0.14036
3024.27,0.14013
3018.49,0.13936
3012.7,0.13772
3006.91,0.13531
3001.13,0.13340
2995.34,0.13097
2989.56,0.12694
2983.77,0.12215
2977.98,0.11664
2972.2,0.11050
2966.41,0.10529
2960.62,0.10149
2954.84,0.09738
2949.05,0.09235
2943.27,0.08910
2937.48,0.08838
2931.69,0.08805
2925.91,0.08775
2920.12,0.08838
2914.33,0.08969
2908.55,0.08783
2902.76,0.08788
2896.98,0.08825
2891.19,0.08913
2885.4,0.09014
2879.62,0.09127
2873.83,0.09298
2868.04,0.09485
2862.26,0.09737
2856.47,0.10067
2850.69,0.10436
2844.9,0.11155
2839.11,0.11788
2833.33,0.12443
2827.54,0.13143
2821.75,0.13723
2815.97,0.14282
2810.18,0.14683
2804.4,0.15083
2798.61,0.15471
2792.82,0.15798
2787.04,0.15964
2781.25,0.16165
2775.46,0.16371
2769.68,0.16534
2763.89,0.16644
2758.11,0.16772
2752.32,0.16908
2746.53,0.16990
2740.75,0.17085
2734.96,0.17163
2729.17,0.17318
2723.39,0.17444
2717.6,0.17646
2711.82,0.17900
2706.03,0.18158
2700.24,0.18459
2694.46,0.18707
2688.67,0.18891
2682.88,0.19147
2677.1,0.19426
2671.31,0.19693
2665.53,0.19949
2659.74,0.20159
2653.95,0.20345
2648.17,0.20591
2642.38,0.20868
2636.59,0.21087
2630.81,0.21379
2625.02,0.21661
2619.24,0.21943
2613.45,0.22182
2607.66,0.22433
2601.88,0.22693
2596.09,0.22905
2590.3,0.23128
2584.52,0.23299
2578.73,0.23453
2572.95,0.23595
2567.16,0.23626
2561.37,0.23800
2555.59,0.23895
2549.8,0.23967
2544.02,0.24087
2538.23,0.24226
2532.44,0.24433
2526.66,0.24591
2520.87,0.24755
2515.08,0.24947
2509.3,0.25186
2503.51,0.25496
2497.73,0.25780
2491.94,0.26088
2486.15,0.26377
2480.37,0.26610
2474.58,0.26945
2468.79,0.27200
2463.01,0.27467
2457.22,0.27754
2451.44,0.28069
2445.65,0.28432
2439.86,0.28791
2434.08,0.29133
2428.29,0.29507
2422.5,0.29911
2416.72,0.30336
2410.93,0.30730
2405.15,0.31153
2399.36,0.31534
2393.57,0.31859
2387.79,0.32173
2382,0.32465
2376.21,0.32745
2370.43,0.33046
2364.64,0.33303
2358.86,0.33566
2353.07,0.33856
2347.28,0.34153
2341.5,0.34470
2335.71,0.34613
2329.92,0.34799
2324.14,0.34995
2318.35,0.35125
2312.57,0.35212
2306.78,0.35257
2300.99,0.35229
2295.21,0.35176
2289.42,0.35145
2283.63,0.35099
2277.85,0.35096
2272.06,0.35005
2266.28,0.34865
2260.49,0.34698
2254.7,0.34594
2248.92,0.34508
2243.13,0.34466
2237.34,0.34472
2231.56,0.34466
2225.77,0.34505
2219.99,0.34587
2214.2,0.34571
2208.41,0.34550
2202.63,0.34448
2196.84,0.34279
2191.05,0.33963
2185.27,0.33640
2179.48,0.33181
2173.7,0.32689
2167.91,0.32249
2162.12,0.31909
2156.34,0.31634
2150.55,0.31408
2144.76,0.31326
2138.98,0.31217
2133.19,0.31253
2127.41,0.31353
2121.62,0.31482
2115.83,0.31732
2110.05,0.32001
2104.26,0.32287
2098.47,0.32522
2092.69,0.32815
2086.9,0.33022
2081.12,0.33149
2075.33,0.33172
2069.54,0.33149
2063.76,0.33170
2057.97,0.33200
2052.19,0.33298
2046.4,0.33457
2040.61,0.33663
2034.83,0.33946
2029.04,0.34326
2023.25,0.34752
2017.47,0.35246
2011.68,0.35723
2005.9,0.36188
2000.11,0.36517
1994.32,0.36880
1988.54,0.37166
1982.75,0.37305
1976.96,0.37414
1971.18,0.37514
1965.39,0.37576
1959.61,0.37646
1953.82,0.37725
1948.03,0.37998
1942.25,0.38317
1936.46,0.38639
1930.67,0.38971
1924.89,0.39317
1919.1,0.39626
1913.32,0.39714
1907.53,0.39812
1901.74,0.39838
1895.96,0.39822
1890.17,0.39772
1884.38,0.39809
1878.6,0.39706
1872.81,0.39563
1867.03,0.39402
1861.24,0.39144
1855.45,0.38876
1849.67,0.38595
1843.88,0.38278
1838.09,0.37834
1832.31,0.37405
1826.52,0.36880
1820.74,0.36181
1814.95,0.35434
1809.16,0.34570
1803.38,0.33496
1797.59,0.32243
1791.8,0.30795
1786.02,0.29051
1780.23,0.27035
1774.45,0.24685
1768.66,0.21413
1762.87,0.18119
1757.09,0.15218
1751.3,0.12969
1745.51,0.11256
1739.73,0.10532
1733.94,0.10463
1728.16,0.10636
1722.37,0.11101
1716.58,0.11710
1710.8,0.12208
1705.01,0.12663
1699.22,0.13030
1693.44,0.13045
1687.65,0.12931
1681.87,0.12564
1676.08,0.11866
1670.29,0.10798
1664.51,0.09472
1658.72,0.08589
1652.93,0.08620
1647.15,0.08927
1641.36,0.09112
1635.58,0.08987
1629.79,0.08684
1624,0.08308
1618.22,0.08070
1612.43,0.07838
1606.64,0.07661
1600.86,0.07553
1595.07,0.07619
1589.29,0.07995
1583.5,0.08779
1577.71,0.09640
1571.93,0.10508
1566.14,0.11331
1560.35,0.12019
1554.57,0.12480
1548.78,0.12753
1543,0.12949
1537.21,0.12725
1531.42,0.11928
1525.64,0.10478
1519.85,0.08480
1514.07,0.07439
1508.28,0.07325
1502.49,0.07359
1496.71,0.07656
1490.92,0.08229
1485.13,0.08510
1479.35,0.07967
1473.56,0.06893
1467.78,0.05994
1461.99,0.05872
1456.2,0.05866
1450.42,0.05868
1444.63,0.05947
1438.84,0.05713
1433.06,0.05402
1427.27,0.05273
1421.49,0.05518
1415.7,0.05866
1409.91,0.06025
1404.13,0.06013
1398.34,0.05783
1392.55,0.05476
1386.77,0.05097
1380.98,0.04750
1375.2,0.04625
1369.41,0.04712
1363.62,0.04884
1357.84,0.05071
1352.05,0.05253
1346.26,0.05254
1340.48,0.05131
1334.69,0.05071
1328.91,0.05048
1323.12,0.04992
1317.33,0.05069
1311.55,0.05227
1305.76,0.05395
1299.97,0.05541
1294.19,0.05436
1288.4,0.05221
1282.62,0.04936
1276.83,0.04757
1271.04,0.04485
1265.26,0.04426
1259.47,0.04446
1253.68,0.04523
1247.9,0.04643
1242.11,0.04813
1236.33,0.05014
1230.54,0.05212
1224.75,0.05424
1218.97,0.05592
1213.18,0.05546
1207.39,0.05483
1201.61,0.05403
1195.82,0.05400
1190.04,0.05264
1184.25,0.04897
1178.46,0.04596
1172.68,0.04525
1166.89,0.04835
1161.1,0.05166
1155.32,0.05356
1149.53,0.05369
1143.75,0.05367
1137.96,0.05138
1132.17,0.05095
1126.39,0.05279
1120.6,0.05595
1114.81,0.06029
1109.03,0.06477
1103.24,0.06821
1097.46,0.07028
1091.67,0.07055
1085.88,0.07112
1080.1,0.07080
1074.31,0.07253
1068.52,0.07171
1062.74,0.07308
1056.95,0.07725
1051.17,0.08172
1045.38,0.08472
1039.59,0.08674
1033.81,0.08802
1028.02,0.08707
1022.24,0.08491
1016.45,0.08369
1010.66,0.08211
1004.88,0.08184
999.09,0.08298
993.304,0.08413
987.518,0.08929
981.731,0.09632
975.945,0.10240
970.159,0.10689
964.373,0.11444
958.586,0.12516
952.8,0.13699
947.014,0.14728
941.228,0.15459
935.441,0.15835
929.655,0.15992
923.869,0.16076
918.083,0.15910
912.297,0.15238
906.51,0.14358
900.724,0.13254
894.938,0.13551
889.152,0.15226
883.365,0.16707
877.579,0.17197
871.793,0.17524
866.007,0.17583
860.22,0.17383
854.434,0.17055
848.648,0.16420
842.862,0.15957
837.075,0.15898
831.289,0.16401
825.503,0.16756
819.717,0.16762
813.931,0.16913
808.144,0.17091
802.358,0.17119
796.572,0.17048
790.786,0.16914
784.999,0.16638
779.213,0.16280
773.427,0.15803
767.641,0.15438
761.854,0.14955
756.068,0.14468
750.282,0.13941
744.496,0.13495
738.709,0.13172
732.923,0.12838
727.137,0.12472
721.351,0.12156
715.565,0.11962
709.778,0.11793
703.992,0.11733
698.206,0.11504
692.42,0.11340
686.633,0.10962
680.847,0.10467
675.061,0.10079
669.275,0.09974
663.488,0.10167
657.702,0.10452
651.916,0.10395
646.13,0.10311
640.343,0.10307
634.557,0.10266
628.771,0.10153
622.985,0.10084
617.198,0.10382
611.412,0.10483
605.626,0.10862
599.84,0.11355