File: 01_Data/Straw/FTIR/IS/Straw_IS_S_221109_R2.dpt
7497.03,0.83995
7491.25,0.84651
7485.46,0.83375
7479.67,0.83601
7473.89,0.82883
7468.1,0.83521
7462.32,0.83354
7456.53,0.82225
7450.74,0.82673
7444.96,0.82838
7439.17,0.83575
7433.38,0.83298
7427.6,0.82561
7421.81,0.83292
7416.03,0.82390
7410.24,0.82155
7404.45,0.83427
7398.67,0.82943
7392.88,0.82547
7387.09,0.83085
7381.31,0.82602
7375.52,0.82617
7369.74,0.80819
7363.95,0.81875
7358.16,0.81649
7352.38,0.82612
7346.59,0.81776
7340.8,0.81877
7335.02,0.82634
7329.23,0.81034
7323.45,0.81610
7317.66,0.81203
7311.87,0.81684
7306.09,0.82130
7300.3,0.82856
7294.51,0.81720
7288.73,0.81052
7282.94,0.81014
7277.16,0.79963
7271.37,0.80673
7265.58,0.80363
7259.8,0.82076
7254.01,0.81187
7248.22,0.81804
7242.44,0.81167
7236.65,0.80705
7230.87,0.81246
7225.08,0.80965
7219.29,0.80856
7213.51,0.81932
7207.72,0.80533
7201.93,0.80635
7196.15,0.80451
7190.36,0.80207
7184.58,0.80616
7178.79,0.80510
7173,0.80579
7167.22,0.80597
7161.43,0.80162
7155.65,0.79486
7149.86,0.80064
7144.07,0.79072
7138.29,0.79254
7132.5,0.79324
7126.71,0.79093
7120.93,0.78645
7115.14,0.78330
7109.36,0.78935
7103.57,0.77989
7097.78,0.77240
7092,0.77092
7086.21,0.76644
7080.42,0.76776
7074.64,0.76254
7068.85,0.75977
7063.07,0.74751
7057.28,0.74246
7051.49,0.74314
7045.71,0.73482
7039.92,0.73340
7034.13,0.73275
7028.35,0.72234
7022.56,0.72751
7016.78,0.71781
7010.99,0.71555
7005.2,0.70734
6999.42,0.71161
6993.63,0.70853
6987.84,0.70624
6982.06,0.69244
6976.27,0.69675
6970.49,0.69864
6964.7,0.68970
6958.91,0.69470
6953.13,0.69370
6947.34,0.69626
6941.55,0.69169
6935.77,0.69265
6929.98,0.68529
6924.2,0.68989
6918.41,0.68197
6912.62,0.68851
6906.84,0.68368
6901.05,0.68494
6895.26,0.68357
6889.48,0.68554
6883.69,0.68919
6877.91,0.68043
6872.12,0.68892
6866.33,0.68529
6860.55,0.68075
6854.76,0.68709
6848.97,0.68486
6843.19,0.68475
6837.4,0.68454
6831.62,0.68096
6825.83,0.68553
6820.04,0.67823
6814.26,0.68149
6808.47,0.68815
6802.68,0.67848
6796.9,0.68773
6791.11,0.68813
6785.33,0.68440
6779.54,0.68158
6773.75,0.68404
6767.97,0.68157
6762.18,0.68198
6756.39,0.68154
6750.61,0.68064
6744.82,0.68134
6739.04,0.68002
6733.25,0.68760
6727.46,0.68912
6721.68,0.68800
6715.89,0.68735
6710.1,0.68753
6704.32,0.68317
6698.53,0.68360
6692.75,0.69486
6686.96,0.68973
6681.17,0.68729
6675.39,0.68839
6669.6,0.69185
6663.82,0.69375
6658.03,0.69124
6652.24,0.69156
6646.46,0.69501
6640.67,0.69073
6634.88,0.69207
6629.1,0.69543
6623.31,0.69908
6617.53,0.69802
6611.74,0.69741
6605.95,0.70260
6600.17,0.69979
6594.38,0.70244
6588.59,0.70506
6582.81,0.70155
6577.02,0.70415
6571.24,0.71010
6565.45,0.70643
6559.66,0.71153
6553.88,0.70904
6548.09,0.71212
6542.3,0.71033
6536.52,0.71098
6530.73,0.71373
6524.95,0.70928
6519.16,0.71071
6513.37,0.72020
6507.59,0.71241
6501.8,0.71378
6496.01,0.71009
6490.23,0.71522
6484.44,0.71268
6478.66,0.71389
6472.87,0.71368
6467.08,0.71408
6461.3,0.71610
6455.51,0.71795
6449.72,0.71467
6443.94,0.71645
6438.15,0.71592
6432.37,0.71486
6426.58,0.71881
6420.79,0.71950
6415.01,0.72115
6409.22,0.72046
6403.43,0.71648
6397.65,0.71905
6391.86,0.71501
6386.08,0.72175
6380.29,0.71986
6374.5,0.72292
6368.72,0.72354
6362.93,0.72358
6357.14,0.72173
6351.36,0.72168
6345.57,0.72378
6339.79,0.72496
6334,0.72464
6328.21,0.72037
6322.43,0.72312
6316.64,0.73057
6310.85,0.72490
6305.07,0.72537
6299.28,0.72935
6293.5,0.72747
6287.71,0.73026
6281.92,0.72423
6276.14,0.72692
6270.35,0.73135
6264.56,0.73567
6258.78,0.73739
6252.99,0.73241
6247.21,0.73927
6241.42,0.73819
6235.63,0.74126
6229.85,0.74223
6224.06,0.74097
6218.27,0.74538
6212.49,0.74920
6206.7,0.74712
6200.92,0.74758
6195.13,0.75164
6189.34,0.75361
6183.56,0.75304
6177.77,0.75377
6171.98,0.75250
6166.2,0.75727
6160.41,0.75855
6154.63,0.75500
6148.84,0.75798
6143.05,0.76174
6137.27,0.75997
6131.48,0.76163
6125.7,0.76166
6119.91,0.76342
6114.12,0.76129
6108.34,0.76357
6102.55,0.76606
6096.76,0.76277
6090.98,0.76330
6085.19,0.76330
6079.41,0.76489
6073.62,0.76614
6067.83,0.76544
6062.05,0.76450
6056.26,0.76221
6050.47,0.76206
6044.69,0.75943
6038.9,0.76190
6033.12,0.76245
6027.33,0.76141
6021.54,0.75894
6015.76,0.75732
6009.97,0.75628
6004.18,0.75751
5998.4,0.75451
5992.61,0.75528
5986.83,0.75574
5981.04,0.75431
5975.25,0.74854
5969.47,0.75109
5963.68,0.74969
5957.89,0.74846
5952.11,0.75035
5946.32,0.75299
5940.54,0.75134
5934.75,0.74734
5928.96,0.75079
5923.18,0.75107
5917.39,0.74706
5911.6,0.74384
5905.82,0.74462
5900.03,0.74323
5894.25,0.74121
5888.46,0.74324
5882.67,0.74583
5876.89,0.74206
5871.1,0.74126
5865.31,0.74062
5859.53,0.74396
5853.74,0.74385
5847.96,0.74203
5842.17,0.73976
5836.38,0.73746
5830.6,0.73795
5824.81,0.73670
5819.02,0.73949
5813.24,0.73436
5807.45,0.73331
5801.67,0.73261
5795.88,0.73123
5790.09,0.73415
5784.31,0.73527
5778.52,0.73610
5772.73,0.73462
5766.95,0.73854
5761.16,0.73752
5755.38,0.74098
5749.59,0.73903
5743.8,0.74089
5738.02,0.73873
5732.23,0.74100
5726.44,0.74211
5720.66,0.74007
5714.87,0.73945
5709.09,0.74166
5703.3,0.74097
5697.51,0.73942
5691.73,0.74145
5685.94,0.74109
5680.15,0.73937
5674.37,0.74001
5668.58,0.73774
5662.8,0.73849
5657.01,0.73989
5651.22,0.73838
5645.44,0.73817
5639.65,0.73792
5633.87,0.73871
5628.08,0.73925
5622.29,0.73916
5616.51,0.73837
5610.72,0.73836
5604.93,0.73582
5599.15,0.73882
5593.36,0.73802
5587.58,0.74026
5581.79,0.73916
5576,0.73824
5570.22,0.74032
5564.43,0.74216
5558.64,0.73939
5552.86,0.74180
5547.07,0.74414
5541.29,0.74287
5535.5,0.74190
5529.71,0.74033
5523.93,0.74431
5518.14,0.74494
5512.35,0.74358
5506.57,0.74356
5500.78,0.74381
5495,0.74438
5489.21,0.74571
5483.42,0.74445
5477.64,0.74526
5471.85,0.74660
5466.06,0.74578
5460.28,0.74885
5454.49,0.74826
5448.71,0.75039
5442.92,0.75108
5437.13,0.75231
5431.35,0.75302
5425.56,0.75395
5419.77,0.75189
5413.99,0.75452
5408.2,0.75635
5402.42,0.75479
5396.63,0.75830
5390.84,0.75884
5385.06,0.75915
5379.27,0.75965
5373.48,0.75950
5367.7,0.75768
5361.91,0.75776
5356.13,0.75742
5350.34,0.75687
5344.55,0.75637
5338.77,0.75569
5332.98,0.75227
5327.19,0.75147
5321.41,0.74956
5315.62,0.74678
5309.84,0.74111
5304.05,0.73964
5298.26,0.73356
5292.48,0.72600
5286.69,0.71982
5280.9,0.70967
5275.12,0.69961
5269.33,0.68859
5263.55,0.67764
5257.76,0.66636
5251.97,0.65772
5246.19,0.64839
5240.4,0.64080
5234.61,0.63303
5228.83,0.62682
5223.04,0.62280
5217.26,0.61871
5211.47,0.61449
5205.68,0.61333
5199.9,0.61309
5194.11,0.61243
5188.32,0.61105
5182.54,0.61398
5176.75,0.61840
5170.97,0.61993
5165.18,0.62209
5159.39,0.62441
5153.61,0.62675
5147.82,0.63169
5142.03,0.63553
5136.25,0.63882
5130.46,0.64115
5124.68,0.64421
5118.89,0.64763
5113.1,0.65192
5107.32,0.65463
5101.53,0.65688
5095.75,0.66138
5089.96,0.66387
5084.17,0.66608
5078.39,0.66905
5072.6,0.67134
5066.81,0.67322
5061.03,0.67483
5055.24,0.67735
5049.46,0.68059
5043.67,0.68256
5037.88,0.68386
5032.1,0.68505
5026.31,0.68658
5020.52,0.68716
5014.74,0.68864
5008.95,0.68955
5003.17,0.68869
4997.38,0.68839
4991.59,0.68731
4985.81,0.68800
4980.02,0.68384
4974.23,0.68185
4968.45,0.67971
4962.66,0.67631
4956.88,0.67222
4951.09,0.66801
4945.3,0.66455
4939.52,0.65839
4933.73,0.65340
4927.94,0.64670
4922.16,0.64033
4916.37,0.63433
4910.59,0.63007
4904.8,0.62267
4899.01,0.61654
4893.23,0.61017
4887.44,0.60392
4881.65,0.59796
4875.87,0.59250
4870.08,0.58807
4864.3,0.58238
4858.51,0.57771
4852.72,0.57298
4846.94,0.56854
4841.15,0.56472
4835.36,0.56002
4829.58,0.55647
4823.79,0.55338
4818.01,0.55073
4812.22,0.54728
4806.43,0.54539
4800.65,0.54467
4794.86,0.54305
4789.07,0.54280
4783.29,0.54141
4777.5,0.54126
4771.72,0.54018
4765.93,0.53862
4760.14,0.54009
4754.36,0.54097
4748.57,0.53970
4742.78,0.54132
4737,0.54059
4731.21,0.54120
4725.43,0.54244
4719.64,0.54322
4713.85,0.54420
4708.07,0.54466
4702.28,0.54560
4696.49,0.54847
4690.71,0.54905
4684.92,0.55063
4679.14,0.55274
4673.35,0.55406
4667.56,0.55778
4661.78,0.55974
4655.99,0.56223
4650.2,0.56504
4644.42,0.56697
4638.63,0.56988
4632.85,0.57149
4627.06,0.57445
4621.27,0.57568
4615.49,0.57873
4609.7,0.58081
4603.92,0.58299
4598.13,0.58637
4592.34,0.58758
4586.56,0.58900
4580.77,0.59134
4574.98,0.59212
4569.2,0.59444
4563.41,0.59537
4557.63,0.59822
4551.84,0.59910
4546.05,0.59969
4540.27,0.60233
4534.48,0.60196
4528.69,0.60426
4522.91,0.60399
4517.12,0.60417
4511.34,0.60526
4505.55,0.60332
4499.76,0.60221
4493.98,0.59895
4488.19,0.59494
4482.4,0.59094
4476.62,0.58504
4470.83,0.57773
4465.05,0.57145
4459.26,0.56370
4453.47,0.55549
4447.69,0.54774
4441.9,0.53905
4436.11,0.53192
4430.33,0.52584
4424.54,0.51945
4418.76,0.51399
4412.97,0.51016
4407.18,0.50673
4401.4,0.50461
4395.61,0.50401
4389.82,0.50449
4384.04,0.50592
4378.25,0.50825
4372.47,0.51111
4366.68,0.51449
4360.89,0.51446
4355.11,0.51374
4349.32,0.51150
4343.53,0.50920
4337.75,0.50715
4331.96,0.50366
4326.18,0.50020
4320.39,0.49815
4314.6,0.49633
4308.82,0.49415
4303.03,0.49143
4297.24,0.48939
4291.46,0.48841
4285.67,0.48729
4279.89,0.48715
4274.1,0.48802
4268.31,0.48895
4262.53,0.48874
4256.74,0.48999
4250.95,0.49076
4245.17,0.49221
4239.38,0.49346
4233.6,0.49535
4227.81,0.49531
4222.02,0.49579
4216.24,0.49641
4210.45,0.49717
4204.66,0.49701
4198.88,0.49728
4193.09,0.49802
4187.31,0.49901
4181.52,0.49902
4175.73,0.50022
4169.95,0.50221
4164.16,0.50349
4158.37,0.50216
4152.59,0.50059
4146.8,0.49886
4141.02,0.49607
4135.23,0.49270
4129.44,0.48959
4123.66,0.48437
4117.87,0.47938
4112.09,0.47507
4106.3,0.46908
4100.51,0.46397
4094.73,0.45717
4088.94,0.45067
4083.15,0.44528
4077.37,0.43869
4071.58,0.43214
4065.8,0.42558
4060.01,0.41911
4054.22,0.41245
4048.44,0.40643
4042.65,0.40060
4036.86,0.39630
4031.08,0.39209
4025.29,0.38919
4019.51,0.38682
4013.72,0.38658
4007.93,0.38666
4002.15,0.38756
3996.36,0.38999
3990.57,0.39146
3984.79,0.39376
3979,0.39627
3973.22,0.39887
3967.43,0.40180
3961.64,0.40516
3955.86,0.40847
3950.07,0.41114
3944.28,0.41460
3938.5,0.41792
3932.71,0.42132
3926.93,0.42499
3921.14,0.42731
3915.35,0.43109
3909.57,0.43399
3903.78,0.43785
3897.99,0.44183
3892.21,0.44410
3886.42,0.44808
3880.64,0.45054
3874.85,0.45327
3869.06,0.45754
3863.28,0.46070
3857.49,0.46421
3851.7,0.46981
3845.92,0.47135
3840.13,0.47480
3834.35,0.47795
3828.56,0.47887
3822.77,0.47996
3816.99,0.48093
3811.2,0.48024
3805.41,0.48087
3799.63,0.48082
3793.84,0.47984
3788.06,0.47940
3782.27,0.47853
3776.48,0.47795
3770.7,0.47608
3764.91,0.47477
3759.12,0.47247
3753.34,0.47055
3747.55,0.46793
3741.77,0.46517
3735.98,0.46208
3730.19,0.45621
3724.41,0.44926
3718.62,0.44267
3712.83,0.43547
3707.05,0.42480
3701.26,0.41231
3695.48,0.39717
3689.69,0.37990
3683.9,0.35684
3678.12,0.33314
3672.33,0.30595
3666.54,0.27726
3660.76,0.25291
3654.97,0.23004
3649.19,0.21034
3643.4,0.19207
3637.61,0.17674
3631.83,0.16420
3626.04,0.15012
3620.25,0.14083
3614.47,0.13126
3608.68,0.12191
3602.9,0.11353
3597.11,0.10633
3591.32,0.09976
3585.54,0.09447
3579.75,0.08915
3573.97,0.08421
3568.18,0.08048
3562.39,0.07700
3556.61,0.07413
3550.82,0.07151
3545.03,0.06842
3539.25,0.06572
3533.46,0.06376
3527.68,0.06257
3521.89,0.05994
3516.1,0.05801
3510.32,0.05706
3504.53,0.05511
3498.74,0.05415
3492.96,0.05251
3487.17,0.05161
3481.39,0.05084
3475.6,0.04955
3469.81,0.04839
3464.03,0.04770
3458.24,0.04697
3452.45,0.04647
3446.67,0.04608
3440.88,0.04568
3435.1,0.04494
3429.31,0.04616
3423.52,0.04524
3417.74,0.04465
3411.95,0.04546
3406.16,0.04589
3400.38,0.04531
3394.59,0.04545
3388.81,0.04644
3383.02,0.04693
3377.23,0.04718
3371.45,0.04748
3365.66,0.04641
3359.87,0.04692
3354.09,0.04732
3348.3,0.04777
3342.52,0.04780
3336.73,0.04915
3330.94,0.04972
3325.16,0.05063
3319.37,0.05167
3313.58,0.05255
3307.8,0.05287
3302.01,0.05457
3296.23,0.05476
3290.44,0.05613
3284.65,0.05753
3278.87,0.05811
3273.08,0.05900
3267.29,0.06032
3261.51,0.06231
3255.72,0.06397
3249.94,0.06534
3244.15,0.06787
3238.36,0.06963
3232.58,0.07098
3226.79,0.07298
3221,0.07389
3215.22,0.07595
3209.43,0.07754
3203.65,0.07955
3197.86,0.08160
3192.07,0.08326
3186.29,0.08507
3180.5,0.08775
3174.71,0.08927
3168.93,0.09096
3163.14,0.09381
3157.36,0.09476
3151.57,0.09749
3145.78,0.09969
3140,0.10126
3134.21,0.10397
3128.42,0.10578
3122.64,0.10763
3116.85,0.11034
3111.07,0.11171
3105.28,0.11409
3099.49,0.11617
3093.71,0.11834
3087.92,0.11984
3082.14,0.12240
3076.35,0.12393
3070.56,0.12589
3064.78,0.12778
3058.99,0.13054
3053.2,0.13258
3047.42,0.13434
3041.63,0.13596
3035.85,0.13723
3030.06,0.13726
3024.27,0.13712
3018.49,0.13703
3012.7,0.13502
3006.91,0.13308
3001.13,0.13192
2995.34,0.12904
2989.56,0.12592
2983.77,0.12071
2977.98,0.11490
2972.2,0.10903
2966.41,0.10467
2960.62,0.10101
2954.84,0.09668
2949.05,0.09257
2943.27,0.08898
2937.48,0.08770
2931.69,0.08801
2925.91,0.08852
2920.12,0.08891
2914.33,0.08985
2908.55,0.08879
2902.76,0.08778
2896.98,0.08740
2891.19,0.08875
2885.4,0.09027
2879.62,0.09173
2873.83,0.09274
2868.04,0.09480
2862.26,0.09717
2856.47,0.10101
2850.69,0.10440
2844.9,0.11142
2839.11,0.11770
2833.33,0.12420
2827.54,0.13054
2821.75,0.13688
2815.97,0.14217
2810.18,0.14617
2804.4,0.15019
2798.61,0.15372
2792.82,0.15669
2787.04,0.15967
2781.25,0.16120
2775.46,0.16285
2769.68,0.16421
2763.89,0.16614
2758.11,0.16744
2752.32,0.16830
2746.53,0.16859
2740.75,0.16898
2734.96,0.16989
2729.17,0.17157
2723.39,0.17339
2717.6,0.17567
2711.82,0.17822
2706.03,0.18049
2700.24,0.18322
2694.46,0.18601
2688.67,0.18815
2682.88,0.19066
2677.1,0.19340
2671.31,0.19604
2665.53,0.19846
2659.74,0.20057
2653.95,0.20278
2648.17,0.20499
2642.38,0.20749
2636.59,0.21014
2630.81,0.21279
2625.02,0.21581
2619.24,0.21845
2613.45,0.22106
2607.66,0.22367
2601.88,0.22600
2596.09,0.22871
2590.3,0.23045
2584.52,0.23265
2578.73,0.23384
2572.95,0.23479
2567.16,0.23596
2561.37,0.23666
2555.59,0.23796
2549.8,0.23926
2544.02,0.24054
2538.23,0.24179
2532.44,0.24347
2526.66,0.24539
2520.87,0.24682
2515.08,0.24832
2509.3,0.25033
2503.51,0.25348
2497.73,0.25668
2491.94,0.25948
2486.15,0.26265
2480.37,0.26545
2474.58,0.26826
2468.79,0.27085
2463.01,0.27354
2457.22,0.27664
2451.44,0.27980
2445.65,0.28333
2439.86,0.28669
2434.08,0.29038
2428.29,0.29420
2422.5,0.29807
2416.72,0.30238
2410.93,0.30640
2405.15,0.31024
2399.36,0.31413
2393.57,0.31737
2387.79,0.32064
2382,0.32349
2376.21,0.32624
2370.43,0.32884
2364.64,0.33171
2358.86,0.33482
2353.07,0.33723
2347.28,0.34018
2341.5,0.34252
2335.71,0.34443
2329.92,0.34619
2324.14,0.34799
2318.35,0.34915
2312.57,0.35013
2306.78,0.35003
2300.99,0.34961
2295.21,0.34937
2289.42,0.34894
2283.63,0.34853
2277.85,0.34842
2272.06,0.34736
2266.28,0.34553
2260.49,0.34432
2254.7,0.34345
2248.92,0.34214
2243.13,0.34169
2237.34,0.34140
2231.56,0.34130
2225.77,0.34194
2219.99,0.34207
2214.2,0.34219
2208.41,0.34170
2202.63,0.34090
2196.84,0.33877
2191.05,0.33611
2185.27,0.33223
2179.48,0.32784
2173.7,0.32315
2167.91,0.31861
2162.12,0.31495
2156.34,0.31246
2150.55,0.30994
2144.76,0.30899
2138.98,0.30827
2133.19,0.30800
2127.41,0.30920
2121.62,0.31106
2115.83,0.31343
2110.05,0.31583
2104.26,0.31858
2098.47,0.32127
2092.69,0.32394
2086.9,0.32596
2081.12,0.32707
2075.33,0.32754
2069.54,0.32721
2063.76,0.32791
2057.97,0.32805
2052.19,0.32907
2046.4,0.33057
2040.61,0.33286
2034.83,0.33571
2029.04,0.33926
2023.25,0.34345
2017.47,0.34856
2011.68,0.35349
2005.9,0.35768
2000.11,0.36110
1994.32,0.36460
1988.54,0.36748
1982.75,0.36920
1976.96,0.37022
1971.18,0.37078
1965.39,0.37140
1959.61,0.37291
1953.82,0.37370
1948.03,0.37617
1942.25,0.37931
1936.46,0.38277
1930.67,0.38629
1924.89,0.38956
1919.1,0.39243
1913.32,0.39367
1907.53,0.39455
1901.74,0.39436
1895.96,0.39475
1890.17,0.39454
1884.38,0.39439
1878.6,0.39392
1872.81,0.39220
1867.03,0.39107
1861.24,0.38840
1855.45,0.38561
1849.67,0.38300
1843.88,0.37981
1838.09,0.37541
1832.31,0.37148
1826.52,0.36578
1820.74,0.35885
1814.95,0.35172
1809.16,0.34311
1803.38,0.33272
1797.59,0.32017
1791.8,0.30583
1786.02,0.28912
1780.23,0.26958
1774.45,0.24666
1768.66,0.21458
1762.87,0.18199
1757.09,0.15302
1751.3,0.13006
1745.51,0.11310
1739.73,0.10487
1733.94,0.10386
1728.16,0.10583
1722.37,0.11024
1716.58,0.11643
1710.8,0.12119
1705.01,0.12533
1699.22,0.12843
1693.44,0.12874
1687.65,0.12767
1681.87,0.12360
1676.08,0.11665
1670.29,0.10593
1664.51,0.09335
1658.72,0.08383
1652.93,0.08427
1647.15,0.08791
1641.36,0.08951
1635.58,0.08861
1629.79,0.08586
1624,0.08284
1618.22,0.07994
1612.43,0.07831
1606.64,0.07655
1600.86,0.07570
1595.07,0.07588
1589.29,0.08002
1583.5,0.08763
1577.71,0.09631
1571.93,0.10519
1566.14,0.11292
1560.35,0.11944
1554.57,0.12417
1548.78,0.12642
1543,0.12803
1537.21,0.12636
1531.42,0.11830
1525.64,0.10461
1519.85,0.08430
1514.07,0.07398
1508.28,0.07375
1502.49,0.07405
1496.71,0.07669
1490.92,0.08250
1485.13,0.08529
1479.35,0.07967
1473.56,0.06889
1467.78,0.06014
1461.99,0.05871
1456.2,0.05875
1450.42,0.05887
1444.63,0.05949
1438.84,0.05750
1433.06,0.05406
1427.27,0.05326
1421.49,0.05561
1415.7,0.05892
1409.91,0.06074
1404.13,0.06019
1398.34,0.05854
1392.55,0.05486
1386.77,0.05107
1380.98,0.04755
1375.2,0.04703
1369.41,0.04771
1363.62,0.04941
1357.84,0.05127
1352.05,0.05288
1346.26,0.05239
1340.48,0.05155
1334.69,0.05103
1328.91,0.05076
1323.12,0.05028
1317.33,0.05064
1311.55,0.05221
1305.76,0.05441
1299.97,0.05550
1294.19,0.05469
1288.4,0.05254
1282.62,0.04952
1276.83,0.04737
1271.04,0.04532
1265.26,0.04412
1259.47,0.04476
1253.68,0.04525
1247.9,0.04653
1242.11,0.04794
1236.33,0.05015
1230.54,0.05198
1224.75,0.05420
1218.97,0.05569
1213.18,0.05592
1207.39,0.05475
1201.61,0.05424
1195.82,0.05451
1190.04,0.05230
1184.25,0.04852
1178.46,0.04547
1172.68,0.04550
1166.89,0.04860
1161.1,0.05162
1155.32,0.05298
1149.53,0.05397
1143.75,0.05278
1137.96,0.05130
1132.17,0.05053
1126.39,0.05274
1120.6,0.05631
1114.81,0.05999
1109.03,0.06465
1103.24,0.06765
1097.46,0.06951
1091.67,0.07007
1085.88,0.07032
1080.1,0.07105
1074.31,0.07135
1068.52,0.07179
1062.74,0.07305
1056.95,0.07667
1051.17,0.08179
1045.38,0.08456
1039.59,0.08608
1033.81,0.08765
1028.02,0.08689
1022.24,0.08518
1016.45,0.08361
1010.66,0.08204
1004.88,0.08236
999.09,0.08302
993.304,0.08488
987.518,0.08915
981.731,0.09590
975.945,0.10192
970.159,0.10633
964.373,0.11372
958.586,0.12419
952.8,0.13647
947.014,0.14606
941.228,0.15287
935.441,0.15697
929.655,0.15815
923.869,0.15916
918.083,0.15763
912.297,0.15129
906.51,0.14144
900.724,0.13170
894.938,0.13517
889.152,0.15146
883.365,0.16515
877.579,0.16978
871.793,0.17201
866.007,0.17227
860.22,0.17071
854.434,0.16671
848.648,0.16213
842.862,0.15682
837.075,0.15624
831.289,0.16097
825.503,0.16386
819.717,0.16431
813.931,0.16514
808.144,0.16660
802.358,0.16685
796.572,0.16766
790.786,0.16428
784.999,0.16182
779.213,0.15788
773.427,0.15349
767.641,0.14910
761.854,0.14671
756.068,0.14203
750.282,0.13662
744.496,0.13169
738.709,0.12920
732.923,0.12597
727.137,0.12241
721.351,0.11864
715.565,0.11677
709.778,0.11585
703.992,0.11356
698.206,0.11281
692.42,0.11191
686.633,0.10832
680.847,0.10357
675.061,0.09860
669.275,0.09787
663.488,0.09926
657.702,0.10157
651.916,0.10259
646.13,0.10241
640.343,0.10282
634.557,0.10117
628.771,0.09963
622.985,0.10077
617.198,0.10147
611.412,0.10351
605.626,0.11038
599.84,0.11255