File: 01_Data/Straw/FTIR/IS/Straw_IS_S_221109_R8.dpt
7497.03,0.85133
7491.25,0.84296
7485.46,0.84006
7479.67,0.82842
7473.89,0.82625
7468.1,0.83235
7462.32,0.83191
7456.53,0.83037
7450.74,0.83524
7444.96,0.83751
7439.17,0.83706
7433.38,0.84348
7427.6,0.82049
7421.81,0.83287
7416.03,0.82881
7410.24,0.83455
7404.45,0.82157
7398.67,0.82383
7392.88,0.82868
7387.09,0.82605
7381.31,0.81885
7375.52,0.82733
7369.74,0.82372
7363.95,0.82514
7358.16,0.82160
7352.38,0.81644
7346.59,0.81602
7340.8,0.81486
7335.02,0.81340
7329.23,0.81592
7323.45,0.82211
7317.66,0.81679
7311.87,0.81571
7306.09,0.82020
7300.3,0.81398
7294.51,0.80497
7288.73,0.82154
7282.94,0.82005
7277.16,0.80467
7271.37,0.80863
7265.58,0.80185
7259.8,0.80581
7254.01,0.80961
7248.22,0.80475
7242.44,0.80885
7236.65,0.81078
7230.87,0.80530
7225.08,0.80648
7219.29,0.80826
7213.51,0.80498
7207.72,0.80726
7201.93,0.80172
7196.15,0.81129
7190.36,0.80246
7184.58,0.80414
7178.79,0.79714
7173,0.80584
7167.22,0.80160
7161.43,0.79654
7155.65,0.79176
7149.86,0.80752
7144.07,0.80484
7138.29,0.78693
7132.5,0.79044
7126.71,0.78862
7120.93,0.79013
7115.14,0.78894
7109.36,0.79109
7103.57,0.78498
7097.78,0.77555
7092,0.77669
7086.21,0.77004
7080.42,0.76073
7074.64,0.76103
7068.85,0.75237
7063.07,0.74855
7057.28,0.74321
7051.49,0.74349
7045.71,0.73859
7039.92,0.73352
7034.13,0.72737
7028.35,0.72120
7022.56,0.71587
7016.78,0.71993
7010.99,0.70942
7005.2,0.71153
6999.42,0.70599
6993.63,0.70790
6987.84,0.70320
6982.06,0.70660
6976.27,0.70290
6970.49,0.70129
6964.7,0.69608
6958.91,0.68925
6953.13,0.69230
6947.34,0.69345
6941.55,0.69119
6935.77,0.69376
6929.98,0.69024
6924.2,0.69056
6918.41,0.68926
6912.62,0.69208
6906.84,0.68767
6901.05,0.68776
6895.26,0.69306
6889.48,0.69245
6883.69,0.68637
6877.91,0.68532
6872.12,0.68961
6866.33,0.69177
6860.55,0.68829
6854.76,0.68725
6848.97,0.68709
6843.19,0.68108
6837.4,0.67938
6831.62,0.68805
6825.83,0.69119
6820.04,0.68706
6814.26,0.68776
6808.47,0.68540
6802.68,0.68684
6796.9,0.68813
6791.11,0.68602
6785.33,0.68273
6779.54,0.67884
6773.75,0.68253
6767.97,0.68196
6762.18,0.68224
6756.39,0.68499
6750.61,0.67644
6744.82,0.69111
6739.04,0.68860
6733.25,0.69061
6727.46,0.68759
6721.68,0.69085
6715.89,0.68730
6710.1,0.68702
6704.32,0.68628
6698.53,0.68596
6692.75,0.68643
6686.96,0.69130
6681.17,0.69275
6675.39,0.69130
6669.6,0.69100
6663.82,0.69378
6658.03,0.69727
6652.24,0.69341
6646.46,0.69053
6640.67,0.69386
6634.88,0.69687
6629.1,0.69768
6623.31,0.70060
6617.53,0.70119
6611.74,0.69530
6605.95,0.70198
6600.17,0.70271
6594.38,0.70200
6588.59,0.70380
6582.81,0.70574
6577.02,0.70822
6571.24,0.70680
6565.45,0.71139
6559.66,0.70528
6553.88,0.70926
6548.09,0.71027
6542.3,0.71301
6536.52,0.71372
6530.73,0.71424
6524.95,0.71086
6519.16,0.71720
6513.37,0.71856
6507.59,0.71420
6501.8,0.71501
6496.01,0.71955
6490.23,0.71863
6484.44,0.71707
6478.66,0.71350
6472.87,0.71590
6467.08,0.72028
6461.3,0.71740
6455.51,0.72027
6449.72,0.71865
6443.94,0.72040
6438.15,0.72300
6432.37,0.71774
6426.58,0.72329
6420.79,0.71888
6415.01,0.72065
6409.22,0.72221
6403.43,0.71891
6397.65,0.71677
6391.86,0.72282
6386.08,0.72306
6380.29,0.72103
6374.5,0.71891
6368.72,0.72186
6362.93,0.72511
6357.14,0.72506
6351.36,0.72340
6345.57,0.72166
6339.79,0.72657
6334,0.72423
6328.21,0.72672
6322.43,0.72544
6316.64,0.73047
6310.85,0.72841
6305.07,0.72586
6299.28,0.73160
6293.5,0.73085
6287.71,0.73203
6281.92,0.73368
6276.14,0.73147
6270.35,0.73131
6264.56,0.73380
6258.78,0.73616
6252.99,0.73871
6247.21,0.74008
6241.42,0.73930
6235.63,0.74224
6229.85,0.74339
6224.06,0.74296
6218.27,0.74770
6212.49,0.75116
6206.7,0.75242
6200.92,0.74969
6195.13,0.75490
6189.34,0.75381
6183.56,0.75163
6177.77,0.75536
6171.98,0.75703
6166.2,0.75751
6160.41,0.76268
6154.63,0.76189
6148.84,0.76063
6143.05,0.76053
6137.27,0.76576
6131.48,0.76451
6125.7,0.76366
6119.91,0.76172
6114.12,0.76318
6108.34,0.76502
6102.55,0.76689
6096.76,0.76278
6090.98,0.76722
6085.19,0.76635
6079.41,0.76848
6073.62,0.76702
6067.83,0.76742
6062.05,0.76689
6056.26,0.76476
6050.47,0.76554
6044.69,0.76482
6038.9,0.76347
6033.12,0.76371
6027.33,0.75559
6021.54,0.76094
6015.76,0.75754
6009.97,0.75553
6004.18,0.75501
5998.4,0.75587
5992.61,0.75511
5986.83,0.75278
5981.04,0.75409
5975.25,0.75179
5969.47,0.75464
5963.68,0.75237
5957.89,0.75150
5952.11,0.75120
5946.32,0.74864
5940.54,0.74998
5934.75,0.75007
5928.96,0.75124
5923.18,0.74909
5917.39,0.74961
5911.6,0.74723
5905.82,0.74802
5900.03,0.74638
5894.25,0.74563
5888.46,0.74328
5882.67,0.74128
5876.89,0.74136
5871.1,0.74260
5865.31,0.74252
5859.53,0.73987
5853.74,0.74288
5847.96,0.74024
5842.17,0.74245
5836.38,0.74288
5830.6,0.73765
5824.81,0.73575
5819.02,0.73316
5813.24,0.73543
5807.45,0.73351
5801.67,0.73441
5795.88,0.73612
5790.09,0.73508
5784.31,0.73919
5778.52,0.73611
5772.73,0.73819
5766.95,0.74010
5761.16,0.73998
5755.38,0.73993
5749.59,0.74115
5743.8,0.74233
5738.02,0.74392
5732.23,0.74118
5726.44,0.74215
5720.66,0.74107
5714.87,0.74327
5709.09,0.74264
5703.3,0.74051
5697.51,0.74180
5691.73,0.74142
5685.94,0.74041
5680.15,0.73998
5674.37,0.74178
5668.58,0.74083
5662.8,0.73947
5657.01,0.74123
5651.22,0.73930
5645.44,0.74141
5639.65,0.73980
5633.87,0.73774
5628.08,0.74225
5622.29,0.74086
5616.51,0.74307
5610.72,0.74114
5604.93,0.74109
5599.15,0.74088
5593.36,0.73977
5587.58,0.74094
5581.79,0.74102
5576,0.74128
5570.22,0.74220
5564.43,0.74346
5558.64,0.74514
5552.86,0.74255
5547.07,0.74404
5541.29,0.74464
5535.5,0.74494
5529.71,0.74606
5523.93,0.74490
5518.14,0.74289
5512.35,0.74726
5506.57,0.74629
5500.78,0.74658
5495,0.74667
5489.21,0.74861
5483.42,0.74712
5477.64,0.74669
5471.85,0.74601
5466.06,0.75024
5460.28,0.74910
5454.49,0.75114
5448.71,0.75222
5442.92,0.75427
5437.13,0.75438
5431.35,0.75572
5425.56,0.75586
5419.77,0.75566
5413.99,0.75587
5408.2,0.75730
5402.42,0.75896
5396.63,0.76114
5390.84,0.75882
5385.06,0.76000
5379.27,0.76204
5373.48,0.76040
5367.7,0.76195
5361.91,0.76055
5356.13,0.76126
5350.34,0.76040
5344.55,0.76071
5338.77,0.76029
5332.98,0.75677
5327.19,0.75594
5321.41,0.75412
5315.62,0.75239
5309.84,0.74737
5304.05,0.74422
5298.26,0.73861
5292.48,0.73331
5286.69,0.72678
5280.9,0.71915
5275.12,0.70988
5269.33,0.70162
5263.55,0.69174
5257.76,0.68046
5251.97,0.67363
5246.19,0.66359
5240.4,0.65632
5234.61,0.64932
5228.83,0.64464
5223.04,0.64060
5217.26,0.63674
5211.47,0.63497
5205.68,0.63513
5199.9,0.63174
5194.11,0.63064
5188.32,0.63225
5182.54,0.63496
5176.75,0.63613
5170.97,0.63852
5165.18,0.64062
5159.39,0.64308
5153.61,0.64630
5147.82,0.64799
5142.03,0.65285
5136.25,0.65523
5130.46,0.65988
5124.68,0.66271
5118.89,0.66413
5113.1,0.66797
5107.32,0.66957
5101.53,0.67369
5095.75,0.67569
5089.96,0.67756
5084.17,0.67938
5078.39,0.68231
5072.6,0.68438
5066.81,0.68612
5061.03,0.68861
5055.24,0.69150
5049.46,0.69281
5043.67,0.69327
5037.88,0.69320
5032.1,0.69664
5026.31,0.69636
5020.52,0.69730
5014.74,0.69884
5008.95,0.69795
5003.17,0.69723
4997.38,0.69478
4991.59,0.69555
4985.81,0.69348
4980.02,0.69123
4974.23,0.68908
4968.45,0.68482
4962.66,0.68288
4956.88,0.67736
4951.09,0.67273
4945.3,0.66838
4939.52,0.66188
4933.73,0.65560
4927.94,0.64904
4922.16,0.64361
4916.37,0.63734
4910.59,0.63170
4904.8,0.62489
4899.01,0.61839
4893.23,0.61262
4887.44,0.60531
4881.65,0.60027
4875.87,0.59391
4870.08,0.58737
4864.3,0.58360
4858.51,0.57966
4852.72,0.57326
4846.94,0.56981
4841.15,0.56577
4835.36,0.56154
4829.58,0.55778
4823.79,0.55480
4818.01,0.55140
4812.22,0.54926
4806.43,0.54691
4800.65,0.54553
4794.86,0.54470
4789.07,0.54241
4783.29,0.54263
4777.5,0.54112
4771.72,0.54063
4765.93,0.53998
4760.14,0.54072
4754.36,0.54099
4748.57,0.54163
4742.78,0.54123
4737,0.54130
4731.21,0.54222
4725.43,0.54277
4719.64,0.54282
4713.85,0.54540
4708.07,0.54621
4702.28,0.54715
4696.49,0.54836
4690.71,0.55081
4684.92,0.55171
4679.14,0.55372
4673.35,0.55518
4667.56,0.55863
4661.78,0.56093
4655.99,0.56335
4650.2,0.56544
4644.42,0.56837
4638.63,0.57053
4632.85,0.57321
4627.06,0.57622
4621.27,0.57883
4615.49,0.58068
4609.7,0.58272
4603.92,0.58418
4598.13,0.58648
4592.34,0.58922
4586.56,0.59051
4580.77,0.59318
4574.98,0.59429
4569.2,0.59558
4563.41,0.59764
4557.63,0.59946
4551.84,0.60073
4546.05,0.60127
4540.27,0.60337
4534.48,0.60502
4528.69,0.60480
4522.91,0.60631
4517.12,0.60630
4511.34,0.60472
4505.55,0.60464
4499.76,0.60382
4493.98,0.60064
4488.19,0.59627
4482.4,0.59288
4476.62,0.58585
4470.83,0.57891
4465.05,0.57250
4459.26,0.56481
4453.47,0.55729
4447.69,0.54815
4441.9,0.53993
4436.11,0.53267
4430.33,0.52604
4424.54,0.51966
4418.76,0.51423
4412.97,0.51093
4407.18,0.50694
4401.4,0.50427
4395.61,0.50374
4389.82,0.50481
4384.04,0.50653
4378.25,0.50826
4372.47,0.51080
4366.68,0.51389
4360.89,0.51460
4355.11,0.51395
4349.32,0.51206
4343.53,0.50965
4337.75,0.50773
4331.96,0.50493
4326.18,0.50119
4320.39,0.49845
4314.6,0.49705
4308.82,0.49529
4303.03,0.49220
4297.24,0.48927
4291.46,0.48820
4285.67,0.48751
4279.89,0.48692
4274.1,0.48837
4268.31,0.48906
4262.53,0.49069
4256.74,0.49105
4250.95,0.49178
4245.17,0.49401
4239.38,0.49466
4233.6,0.49539
4227.81,0.49586
4222.02,0.49719
4216.24,0.49732
4210.45,0.49774
4204.66,0.49898
4198.88,0.49866
4193.09,0.49905
4187.31,0.49948
4181.52,0.50166
4175.73,0.50303
4169.95,0.50373
4164.16,0.50514
4158.37,0.50421
4152.59,0.50303
4146.8,0.50092
4141.02,0.49797
4135.23,0.49496
4129.44,0.49218
4123.66,0.48766
4117.87,0.48212
4112.09,0.47734
4106.3,0.47171
4100.51,0.46574
4094.73,0.45947
4088.94,0.45346
4083.15,0.44703
4077.37,0.44076
4071.58,0.43389
4065.8,0.42690
4060.01,0.42101
4054.22,0.41430
4048.44,0.40837
4042.65,0.40261
4036.86,0.39760
4031.08,0.39448
4025.29,0.39065
4019.51,0.38842
4013.72,0.38785
4007.93,0.38898
4002.15,0.38997
3996.36,0.39197
3990.57,0.39378
3984.79,0.39643
3979,0.39831
3973.22,0.40179
3967.43,0.40375
3961.64,0.40752
3955.86,0.41053
3950.07,0.41405
3944.28,0.41747
3938.5,0.42044
3932.71,0.42460
3926.93,0.42761
3921.14,0.43045
3915.35,0.43324
3909.57,0.43694
3903.78,0.44046
3897.99,0.44389
3892.21,0.44787
3886.42,0.45066
3880.64,0.45306
3874.85,0.45633
3869.06,0.46124
3863.28,0.46445
3857.49,0.46793
3851.7,0.47381
3845.92,0.47526
3840.13,0.47945
3834.35,0.48228
3828.56,0.48318
3822.77,0.48380
3816.99,0.48509
3811.2,0.48566
3805.41,0.48580
3799.63,0.48693
3793.84,0.48611
3788.06,0.48556
3782.27,0.48476
3776.48,0.48390
3770.7,0.48327
3764.91,0.48118
3759.12,0.48032
3753.34,0.47853
3747.55,0.47635
3741.77,0.47326
3735.98,0.47061
3730.19,0.46539
3724.41,0.45981
3718.62,0.45264
3712.83,0.44521
3707.05,0.43605
3701.26,0.42498
3695.48,0.41006
3689.69,0.39445
3683.9,0.37199
3678.12,0.34982
3672.33,0.32392
3666.54,0.29621
3660.76,0.27114
3654.97,0.24732
3649.19,0.22783
3643.4,0.20860
3637.61,0.19216
3631.83,0.17859
3626.04,0.16468
3620.25,0.15233
3614.47,0.14123
3608.68,0.13101
3602.9,0.12199
3597.11,0.11309
3591.32,0.10571
3585.54,0.09972
3579.75,0.09382
3573.97,0.08895
3568.18,0.08402
3562.39,0.07996
3556.61,0.07686
3550.82,0.07330
3545.03,0.07077
3539.25,0.06820
3533.46,0.06490
3527.68,0.06250
3521.89,0.06077
3516.1,0.05946
3510.32,0.05786
3504.53,0.05639
3498.74,0.05460
3492.96,0.05394
3487.17,0.05199
3481.39,0.05054
3475.6,0.04987
3469.81,0.04939
3464.03,0.04806
3458.24,0.04756
3452.45,0.04675
3446.67,0.04657
3440.88,0.04641
3435.1,0.04607
3429.31,0.04535
3423.52,0.04596
3417.74,0.04575
3411.95,0.04580
3406.16,0.04641
3400.38,0.04597
3394.59,0.04654
3388.81,0.04697
3383.02,0.04661
3377.23,0.04680
3371.45,0.04706
3365.66,0.04712
3359.87,0.04747
3354.09,0.04772
3348.3,0.04875
3342.52,0.04848
3336.73,0.04921
3330.94,0.05004
3325.16,0.05168
3319.37,0.05218
3313.58,0.05317
3307.8,0.05405
3302.01,0.05499
3296.23,0.05598
3290.44,0.05665
3284.65,0.05756
3278.87,0.05935
3273.08,0.06007
3267.29,0.06176
3261.51,0.06388
3255.72,0.06480
3249.94,0.06640
3244.15,0.06882
3238.36,0.07101
3232.58,0.07221
3226.79,0.07436
3221,0.07669
3215.22,0.07792
3209.43,0.07974
3203.65,0.08158
3197.86,0.08411
3192.07,0.08583
3186.29,0.08858
3180.5,0.08977
3174.71,0.09183
3168.93,0.09392
3163.14,0.09571
3157.36,0.09773
3151.57,0.09990
3145.78,0.10217
3140,0.10498
3134.21,0.10768
3128.42,0.10904
3122.64,0.11130
3116.85,0.11408
3111.07,0.11553
3105.28,0.11708
3099.49,0.11920
3093.71,0.12208
3087.92,0.12314
3082.14,0.12505
3076.35,0.12735
3070.56,0.12915
3064.78,0.13208
3058.99,0.13408
3053.2,0.13630
3047.42,0.13826
3041.63,0.13972
3035.85,0.14024
3030.06,0.14105
3024.27,0.14089
3018.49,0.14005
3012.7,0.13805
3006.91,0.13542
3001.13,0.13381
2995.34,0.13115
2989.56,0.12762
2983.77,0.12193
2977.98,0.11652
2972.2,0.11015
2966.41,0.10573
2960.62,0.10157
2954.84,0.09697
2949.05,0.09277
2943.27,0.08930
2937.48,0.08788
2931.69,0.08785
2925.91,0.08817
2920.12,0.08891
2914.33,0.08964
2908.55,0.08843
2902.76,0.08783
2896.98,0.08773
2891.19,0.08914
2885.4,0.09014
2879.62,0.09113
2873.83,0.09267
2868.04,0.09438
2862.26,0.09752
2856.47,0.10038
2850.69,0.10410
2844.9,0.11190
2839.11,0.11814
2833.33,0.12455
2827.54,0.13121
2821.75,0.13695
2815.97,0.14280
2810.18,0.14746
2804.4,0.15134
2798.61,0.15512
2792.82,0.15799
2787.04,0.16040
2781.25,0.16173
2775.46,0.16382
2769.68,0.16506
2763.89,0.16679
2758.11,0.16835
2752.32,0.16914
2746.53,0.16980
2740.75,0.17103
2734.96,0.17186
2729.17,0.17313
2723.39,0.17457
2717.6,0.17660
2711.82,0.17891
2706.03,0.18191
2700.24,0.18477
2694.46,0.18711
2688.67,0.18927
2682.88,0.19193
2677.1,0.19458
2671.31,0.19726
2665.53,0.19975
2659.74,0.20201
2653.95,0.20401
2648.17,0.20652
2642.38,0.20836
2636.59,0.21145
2630.81,0.21408
2625.02,0.21697
2619.24,0.21946
2613.45,0.22189
2607.66,0.22487
2601.88,0.22715
2596.09,0.22912
2590.3,0.23154
2584.52,0.23349
2578.73,0.23444
2572.95,0.23607
2567.16,0.23695
2561.37,0.23799
2555.59,0.23896
2549.8,0.23977
2544.02,0.24090
2538.23,0.24224
2532.44,0.24463
2526.66,0.24649
2520.87,0.24773
2515.08,0.24962
2509.3,0.25219
2503.51,0.25462
2497.73,0.25800
2491.94,0.26065
2486.15,0.26328
2480.37,0.26607
2474.58,0.26896
2468.79,0.27156
2463.01,0.27439
2457.22,0.27736
2451.44,0.28092
2445.65,0.28452
2439.86,0.28783
2434.08,0.29147
2428.29,0.29510
2422.5,0.29892
2416.72,0.30321
2410.93,0.30702
2405.15,0.31133
2399.36,0.31527
2393.57,0.31890
2387.79,0.32208
2382,0.32489
2376.21,0.32784
2370.43,0.33135
2364.64,0.33364
2358.86,0.33630
2353.07,0.33909
2347.28,0.34205
2341.5,0.34516
2335.71,0.34731
2329.92,0.34883
2324.14,0.35043
2318.35,0.35154
2312.57,0.35263
2306.78,0.35313
2300.99,0.35235
2295.21,0.35216
2289.42,0.35228
2283.63,0.35204
2277.85,0.35171
2272.06,0.35085
2266.28,0.34947
2260.49,0.34799
2254.7,0.34679
2248.92,0.34610
2243.13,0.34544
2237.34,0.34552
2231.56,0.34582
2225.77,0.34591
2219.99,0.34662
2214.2,0.34663
2208.41,0.34637
2202.63,0.34594
2196.84,0.34402
2191.05,0.34063
2185.27,0.33706
2179.48,0.33272
2173.7,0.32851
2167.91,0.32376
2162.12,0.32012
2156.34,0.31752
2150.55,0.31521
2144.76,0.31387
2138.98,0.31322
2133.19,0.31317
2127.41,0.31446
2121.62,0.31623
2115.83,0.31829
2110.05,0.32107
2104.26,0.32364
2098.47,0.32685
2092.69,0.32971
2086.9,0.33168
2081.12,0.33252
2075.33,0.33285
2069.54,0.33288
2063.76,0.33318
2057.97,0.33358
2052.19,0.33430
2046.4,0.33579
2040.61,0.33806
2034.83,0.34091
2029.04,0.34437
2023.25,0.34918
2017.47,0.35398
2011.68,0.35865
2005.9,0.36314
2000.11,0.36678
1994.32,0.36935
1988.54,0.37251
1982.75,0.37396
1976.96,0.37513
1971.18,0.37627
1965.39,0.37686
1959.61,0.37739
1953.82,0.37837
1948.03,0.38064
1942.25,0.38386
1936.46,0.38739
1930.67,0.39076
1924.89,0.39428
1919.1,0.39659
1913.32,0.39819
1907.53,0.39928
1901.74,0.39940
1895.96,0.39915
1890.17,0.39922
1884.38,0.39876
1878.6,0.39810
1872.81,0.39668
1867.03,0.39525
1861.24,0.39238
1855.45,0.38995
1849.67,0.38672
1843.88,0.38362
1838.09,0.37940
1832.31,0.37462
1826.52,0.36961
1820.74,0.36281
1814.95,0.35524
1809.16,0.34613
1803.38,0.33597
1797.59,0.32275
1791.8,0.30791
1786.02,0.29014
1780.23,0.27037
1774.45,0.24663
1768.66,0.21434
1762.87,0.18095
1757.09,0.15189
1751.3,0.12924
1745.51,0.11269
1739.73,0.10534
1733.94,0.10446
1728.16,0.10687
1722.37,0.11152
1716.58,0.11692
1710.8,0.12186
1705.01,0.12682
1699.22,0.13015
1693.44,0.13109
1687.65,0.13032
1681.87,0.12637
1676.08,0.11930
1670.29,0.10854
1664.51,0.09558
1658.72,0.08589
1652.93,0.08639
1647.15,0.09038
1641.36,0.09128
1635.58,0.09023
1629.79,0.08699
1624,0.08397
1618.22,0.08116
1612.43,0.07897
1606.64,0.07667
1600.86,0.07559
1595.07,0.07597
1589.29,0.08009
1583.5,0.08776
1577.71,0.09625
1571.93,0.10541
1566.14,0.11353
1560.35,0.12079
1554.57,0.12511
1548.78,0.12760
1543,0.12955
1537.21,0.12700
1531.42,0.11903
1525.64,0.10447
1519.85,0.08425
1514.07,0.07402
1508.28,0.07357
1502.49,0.07350
1496.71,0.07642
1490.92,0.08232
1485.13,0.08483
1479.35,0.07970
1473.56,0.06941
1467.78,0.05969
1461.99,0.05824
1456.2,0.05848
1450.42,0.05929
1444.63,0.05939
1438.84,0.05739
1433.06,0.05381
1427.27,0.05308
1421.49,0.05493
1415.7,0.05866
1409.91,0.06033
1404.13,0.05998
1398.34,0.05786
1392.55,0.05500
1386.77,0.05109
1380.98,0.04774
1375.2,0.04656
1369.41,0.04768
1363.62,0.04915
1357.84,0.05076
1352.05,0.05204
1346.26,0.05223
1340.48,0.05130
1334.69,0.05050
1328.91,0.05007
1323.12,0.04954
1317.33,0.05023
1311.55,0.05235
1305.76,0.05414
1299.97,0.05502
1294.19,0.05457
1288.4,0.05220
1282.62,0.04960
1276.83,0.04755
1271.04,0.04550
1265.26,0.04430
1259.47,0.04453
1253.68,0.04525
1247.9,0.04655
1242.11,0.04820
1236.33,0.04987
1230.54,0.05250
1224.75,0.05440
1218.97,0.05597
1213.18,0.05585
1207.39,0.05471
1201.61,0.05421
1195.82,0.05426
1190.04,0.05269
1184.25,0.04884
1178.46,0.04621
1172.68,0.04560
1166.89,0.04870
1161.1,0.05188
1155.32,0.05318
1149.53,0.05382
1143.75,0.05345
1137.96,0.05157
1132.17,0.05087
1126.39,0.05328
1120.6,0.05612
1114.81,0.06034
1109.03,0.06525
1103.24,0.06791
1097.46,0.06999
1091.67,0.07074
1085.88,0.07107
1080.1,0.07184
1074.31,0.07226
1068.52,0.07224
1062.74,0.07344
1056.95,0.07720
1051.17,0.08159
1045.38,0.08394
1039.59,0.08665
1033.81,0.08787
1028.02,0.08750
1022.24,0.08604
1016.45,0.08328
1010.66,0.08319
1004.88,0.08285
999.09,0.08338
993.304,0.08445
987.518,0.08875
981.731,0.09645
975.945,0.10194
970.159,0.10758
964.373,0.11498
958.586,0.12529
952.8,0.13692
947.014,0.14728
941.228,0.15484
935.441,0.15822
929.655,0.16062
923.869,0.16095
918.083,0.15909
912.297,0.15341
906.51,0.14328
900.724,0.13362
894.938,0.13614
889.152,0.15269
883.365,0.16766
877.579,0.17301
871.793,0.17553
866.007,0.17636
860.22,0.17432
854.434,0.17080
848.648,0.16582
842.862,0.16068
837.075,0.15999
831.289,0.16523
825.503,0.16731
819.717,0.16946
813.931,0.16996
808.144,0.17255
802.358,0.17355
796.572,0.17265
790.786,0.17029
784.999,0.16709
779.213,0.16460
773.427,0.15875
767.641,0.15496
761.854,0.15076
756.068,0.14643
750.282,0.14109
744.496,0.13666
738.709,0.13364
732.923,0.12909
727.137,0.12502
721.351,0.12250
715.565,0.12047
709.778,0.11951
703.992,0.11702
698.206,0.11601
692.42,0.11406
686.633,0.11075
680.847,0.10528
675.061,0.10228
669.275,0.10057
663.488,0.10230
657.702,0.10410
651.916,0.10334
646.13,0.10349
640.343,0.10275
634.557,0.10235
628.771,0.10152
622.985,0.10079
617.198,0.10467
611.412,0.10737
605.626,0.10958
599.84,0.11316