File: 01_Data/Straw/FTIR/IS/Straw_IS_S_221109_R3.dpt
7497.03,0.83159
7491.25,0.83716
7485.46,0.84597
7479.67,0.84236
7473.89,0.83016
7468.1,0.83747
7462.32,0.83329
7456.53,0.82448
7450.74,0.82911
7444.96,0.83829
7439.17,0.82870
7433.38,0.83857
7427.6,0.83731
7421.81,0.82520
7416.03,0.82367
7410.24,0.83006
7404.45,0.82573
7398.67,0.82331
7392.88,0.82862
7387.09,0.82608
7381.31,0.82766
7375.52,0.82687
7369.74,0.82378
7363.95,0.83025
7358.16,0.81896
7352.38,0.82650
7346.59,0.82077
7340.8,0.81101
7335.02,0.81235
7329.23,0.81068
7323.45,0.81083
7317.66,0.81808
7311.87,0.81033
7306.09,0.81783
7300.3,0.81470
7294.51,0.81368
7288.73,0.80868
7282.94,0.80422
7277.16,0.81121
7271.37,0.80567
7265.58,0.80481
7259.8,0.80753
7254.01,0.81653
7248.22,0.81528
7242.44,0.81386
7236.65,0.81316
7230.87,0.81716
7225.08,0.80481
7219.29,0.80528
7213.51,0.81337
7207.72,0.81854
7201.93,0.80977
7196.15,0.81050
7190.36,0.80600
7184.58,0.80653
7178.79,0.80716
7173,0.80297
7167.22,0.80546
7161.43,0.79521
7155.65,0.79361
7149.86,0.79375
7144.07,0.79664
7138.29,0.79959
7132.5,0.78794
7126.71,0.78530
7120.93,0.78344
7115.14,0.78831
7109.36,0.77843
7103.57,0.77795
7097.78,0.78246
7092,0.77718
7086.21,0.76151
7080.42,0.76304
7074.64,0.74984
7068.85,0.75640
7063.07,0.74640
7057.28,0.74493
7051.49,0.74147
7045.71,0.74390
7039.92,0.73257
7034.13,0.72711
7028.35,0.71970
7022.56,0.71825
7016.78,0.72193
7010.99,0.71189
7005.2,0.71362
6999.42,0.70252
6993.63,0.70018
6987.84,0.70469
6982.06,0.69686
6976.27,0.69820
6970.49,0.69704
6964.7,0.69025
6958.91,0.69156
6953.13,0.69389
6947.34,0.69240
6941.55,0.69339
6935.77,0.69506
6929.98,0.68791
6924.2,0.68879
6918.41,0.69495
6912.62,0.68549
6906.84,0.69224
6901.05,0.68850
6895.26,0.68282
6889.48,0.68757
6883.69,0.67865
6877.91,0.68203
6872.12,0.68554
6866.33,0.68374
6860.55,0.68848
6854.76,0.68627
6848.97,0.68794
6843.19,0.68257
6837.4,0.68680
6831.62,0.68598
6825.83,0.67717
6820.04,0.68874
6814.26,0.68445
6808.47,0.68440
6802.68,0.68492
6796.9,0.68418
6791.11,0.68046
6785.33,0.67832
6779.54,0.68511
6773.75,0.68113
6767.97,0.68028
6762.18,0.68142
6756.39,0.68273
6750.61,0.68136
6744.82,0.68357
6739.04,0.68437
6733.25,0.68219
6727.46,0.68373
6721.68,0.68521
6715.89,0.68709
6710.1,0.68845
6704.32,0.68520
6698.53,0.68947
6692.75,0.68387
6686.96,0.68595
6681.17,0.68702
6675.39,0.68809
6669.6,0.68456
6663.82,0.69288
6658.03,0.69390
6652.24,0.69334
6646.46,0.69249
6640.67,0.69679
6634.88,0.69089
6629.1,0.69149
6623.31,0.69524
6617.53,0.69343
6611.74,0.69492
6605.95,0.70386
6600.17,0.70466
6594.38,0.70706
6588.59,0.70547
6582.81,0.70208
6577.02,0.70903
6571.24,0.70833
6565.45,0.70660
6559.66,0.70900
6553.88,0.70593
6548.09,0.70792
6542.3,0.70879
6536.52,0.71084
6530.73,0.71309
6524.95,0.71136
6519.16,0.70723
6513.37,0.71560
6507.59,0.71477
6501.8,0.71521
6496.01,0.71679
6490.23,0.71185
6484.44,0.71369
6478.66,0.71706
6472.87,0.71496
6467.08,0.71898
6461.3,0.71568
6455.51,0.72116
6449.72,0.71694
6443.94,0.72071
6438.15,0.72207
6432.37,0.71965
6426.58,0.71582
6420.79,0.72076
6415.01,0.72188
6409.22,0.72331
6403.43,0.72433
6397.65,0.72092
6391.86,0.72332
6386.08,0.72535
6380.29,0.72210
6374.5,0.72305
6368.72,0.72387
6362.93,0.72619
6357.14,0.72525
6351.36,0.71693
6345.57,0.72439
6339.79,0.72902
6334,0.72514
6328.21,0.72300
6322.43,0.72606
6316.64,0.72442
6310.85,0.72389
6305.07,0.72147
6299.28,0.73073
6293.5,0.72636
6287.71,0.72870
6281.92,0.72791
6276.14,0.73107
6270.35,0.73373
6264.56,0.73109
6258.78,0.73615
6252.99,0.73747
6247.21,0.74191
6241.42,0.74079
6235.63,0.74108
6229.85,0.74032
6224.06,0.74485
6218.27,0.74654
6212.49,0.74900
6206.7,0.74955
6200.92,0.74857
6195.13,0.74648
6189.34,0.75352
6183.56,0.75744
6177.77,0.75942
6171.98,0.75522
6166.2,0.75674
6160.41,0.75835
6154.63,0.75903
6148.84,0.75897
6143.05,0.75683
6137.27,0.76320
6131.48,0.76250
6125.7,0.75875
6119.91,0.76000
6114.12,0.76312
6108.34,0.76432
6102.55,0.76396
6096.76,0.76440
6090.98,0.76610
6085.19,0.76721
6079.41,0.76400
6073.62,0.76384
6067.83,0.76355
6062.05,0.76267
6056.26,0.76193
6050.47,0.76407
6044.69,0.76273
6038.9,0.76130
6033.12,0.76153
6027.33,0.76361
6021.54,0.76070
6015.76,0.75895
6009.97,0.75829
6004.18,0.75671
5998.4,0.75668
5992.61,0.75422
5986.83,0.75539
5981.04,0.75310
5975.25,0.75626
5969.47,0.75233
5963.68,0.75333
5957.89,0.75214
5952.11,0.75321
5946.32,0.75121
5940.54,0.74912
5934.75,0.74896
5928.96,0.75115
5923.18,0.74859
5917.39,0.74979
5911.6,0.74646
5905.82,0.74721
5900.03,0.74736
5894.25,0.74607
5888.46,0.74521
5882.67,0.74339
5876.89,0.74414
5871.1,0.74173
5865.31,0.74318
5859.53,0.74292
5853.74,0.74274
5847.96,0.74335
5842.17,0.74073
5836.38,0.74129
5830.6,0.74235
5824.81,0.74030
5819.02,0.73523
5813.24,0.73417
5807.45,0.73294
5801.67,0.73325
5795.88,0.73411
5790.09,0.73388
5784.31,0.73379
5778.52,0.73636
5772.73,0.73862
5766.95,0.73790
5761.16,0.73917
5755.38,0.74093
5749.59,0.74425
5743.8,0.74367
5738.02,0.74461
5732.23,0.74575
5726.44,0.74343
5720.66,0.74409
5714.87,0.74280
5709.09,0.74200
5703.3,0.74353
5697.51,0.74310
5691.73,0.73884
5685.94,0.73927
5680.15,0.74083
5674.37,0.74120
5668.58,0.74147
5662.8,0.73815
5657.01,0.73918
5651.22,0.74005
5645.44,0.74059
5639.65,0.74077
5633.87,0.74143
5628.08,0.74021
5622.29,0.74135
5616.51,0.74026
5610.72,0.74050
5604.93,0.74093
5599.15,0.74029
5593.36,0.74021
5587.58,0.73965
5581.79,0.74197
5576,0.74095
5570.22,0.74319
5564.43,0.74251
5558.64,0.74440
5552.86,0.74485
5547.07,0.74543
5541.29,0.74715
5535.5,0.74646
5529.71,0.74532
5523.93,0.74560
5518.14,0.74714
5512.35,0.74659
5506.57,0.74687
5500.78,0.74481
5495,0.74516
5489.21,0.74598
5483.42,0.74841
5477.64,0.74623
5471.85,0.74652
5466.06,0.75071
5460.28,0.75093
5454.49,0.74958
5448.71,0.75177
5442.92,0.75330
5437.13,0.75429
5431.35,0.75439
5425.56,0.75669
5419.77,0.75496
5413.99,0.75834
5408.2,0.75940
5402.42,0.75927
5396.63,0.76007
5390.84,0.75764
5385.06,0.75974
5379.27,0.75984
5373.48,0.76204
5367.7,0.76196
5361.91,0.76147
5356.13,0.75979
5350.34,0.75981
5344.55,0.75782
5338.77,0.75739
5332.98,0.75747
5327.19,0.75561
5321.41,0.75261
5315.62,0.74888
5309.84,0.74638
5304.05,0.74181
5298.26,0.73547
5292.48,0.72776
5286.69,0.72079
5280.9,0.71422
5275.12,0.70028
5269.33,0.69314
5263.55,0.68397
5257.76,0.67190
5251.97,0.65995
5246.19,0.65170
5240.4,0.64577
5234.61,0.63712
5228.83,0.63183
5223.04,0.62836
5217.26,0.62345
5211.47,0.61993
5205.68,0.61840
5199.9,0.61726
5194.11,0.61762
5188.32,0.61865
5182.54,0.61856
5176.75,0.62348
5170.97,0.62412
5165.18,0.62691
5159.39,0.62896
5153.61,0.63201
5147.82,0.63660
5142.03,0.63943
5136.25,0.64284
5130.46,0.64626
5124.68,0.64954
5118.89,0.65336
5113.1,0.65555
5107.32,0.65933
5101.53,0.66216
5095.75,0.66485
5089.96,0.66587
5084.17,0.66983
5078.39,0.67341
5072.6,0.67454
5066.81,0.67774
5061.03,0.68078
5055.24,0.68280
5049.46,0.68270
5043.67,0.68520
5037.88,0.68670
5032.1,0.68944
5026.31,0.69078
5020.52,0.69148
5014.74,0.69164
5008.95,0.69248
5003.17,0.69093
4997.38,0.69123
4991.59,0.69162
4985.81,0.68930
4980.02,0.68663
4974.23,0.68460
4968.45,0.68397
4962.66,0.68073
4956.88,0.67495
4951.09,0.67124
4945.3,0.66808
4939.52,0.66061
4933.73,0.65460
4927.94,0.64972
4922.16,0.64371
4916.37,0.63582
4910.59,0.62822
4904.8,0.62479
4899.01,0.61840
4893.23,0.61233
4887.44,0.60623
4881.65,0.60011
4875.87,0.59436
4870.08,0.58905
4864.3,0.58384
4858.51,0.57832
4852.72,0.57575
4846.94,0.57026
4841.15,0.56482
4835.36,0.56103
4829.58,0.55872
4823.79,0.55473
4818.01,0.55223
4812.22,0.54983
4806.43,0.54835
4800.65,0.54637
4794.86,0.54456
4789.07,0.54459
4783.29,0.54377
4777.5,0.54279
4771.72,0.54200
4765.93,0.54246
4760.14,0.54135
4754.36,0.54090
4748.57,0.54125
4742.78,0.54152
4737,0.54046
4731.21,0.54143
4725.43,0.54378
4719.64,0.54478
4713.85,0.54571
4708.07,0.54557
4702.28,0.54752
4696.49,0.54866
4690.71,0.55014
4684.92,0.55249
4679.14,0.55432
4673.35,0.55621
4667.56,0.55875
4661.78,0.56229
4655.99,0.56369
4650.2,0.56585
4644.42,0.56979
4638.63,0.57030
4632.85,0.57304
4627.06,0.57552
4621.27,0.57807
4615.49,0.57987
4609.7,0.58240
4603.92,0.58472
4598.13,0.58621
4592.34,0.58963
4586.56,0.59099
4580.77,0.59209
4574.98,0.59401
4569.2,0.59548
4563.41,0.59693
4557.63,0.59906
4551.84,0.60031
4546.05,0.60236
4540.27,0.60295
4534.48,0.60459
4528.69,0.60599
4522.91,0.60665
4517.12,0.60621
4511.34,0.60556
4505.55,0.60464
4499.76,0.60358
4493.98,0.60128
4488.19,0.59718
4482.4,0.59125
4476.62,0.58655
4470.83,0.58022
4465.05,0.57256
4459.26,0.56462
4453.47,0.55599
4447.69,0.54801
4441.9,0.54049
4436.11,0.53313
4430.33,0.52593
4424.54,0.52083
4418.76,0.51528
4412.97,0.51158
4407.18,0.50811
4401.4,0.50622
4395.61,0.50450
4389.82,0.50531
4384.04,0.50712
4378.25,0.50976
4372.47,0.51244
4366.68,0.51444
4360.89,0.51565
4355.11,0.51569
4349.32,0.51334
4343.53,0.51112
4337.75,0.50797
4331.96,0.50561
4326.18,0.50184
4320.39,0.49883
4314.6,0.49715
4308.82,0.49576
4303.03,0.49252
4297.24,0.49036
4291.46,0.48914
4285.67,0.48831
4279.89,0.48774
4274.1,0.48844
4268.31,0.48950
4262.53,0.49048
4256.74,0.49175
4250.95,0.49279
4245.17,0.49385
4239.38,0.49461
4233.6,0.49578
4227.81,0.49673
4222.02,0.49706
4216.24,0.49746
4210.45,0.49852
4204.66,0.49846
4198.88,0.49932
4193.09,0.49868
4187.31,0.49974
4181.52,0.50150
4175.73,0.50201
4169.95,0.50387
4164.16,0.50465
4158.37,0.50401
4152.59,0.50289
4146.8,0.49995
4141.02,0.49769
4135.23,0.49436
4129.44,0.49056
4123.66,0.48566
4117.87,0.48161
4112.09,0.47658
4106.3,0.47177
4100.51,0.46529
4094.73,0.45825
4088.94,0.45324
4083.15,0.44686
4077.37,0.43971
4071.58,0.43295
4065.8,0.42678
4060.01,0.41966
4054.22,0.41295
4048.44,0.40784
4042.65,0.40249
4036.86,0.39764
4031.08,0.39370
4025.29,0.38999
4019.51,0.38789
4013.72,0.38743
4007.93,0.38817
4002.15,0.38943
3996.36,0.39109
3990.57,0.39293
3984.79,0.39576
3979,0.39754
3973.22,0.40051
3967.43,0.40345
3961.64,0.40612
3955.86,0.40971
3950.07,0.41296
3944.28,0.41660
3938.5,0.41973
3932.71,0.42221
3926.93,0.42531
3921.14,0.42933
3915.35,0.43290
3909.57,0.43529
3903.78,0.44016
3897.99,0.44243
3892.21,0.44546
3886.42,0.44964
3880.64,0.45185
3874.85,0.45475
3869.06,0.45876
3863.28,0.46292
3857.49,0.46649
3851.7,0.47090
3845.92,0.47340
3840.13,0.47657
3834.35,0.47875
3828.56,0.48065
3822.77,0.48175
3816.99,0.48215
3811.2,0.48223
3805.41,0.48316
3799.63,0.48268
3793.84,0.48224
3788.06,0.48156
3782.27,0.48070
3776.48,0.47936
3770.7,0.47831
3764.91,0.47731
3759.12,0.47574
3753.34,0.47330
3747.55,0.47087
3741.77,0.46788
3735.98,0.46422
3730.19,0.45839
3724.41,0.45253
3718.62,0.44613
3712.83,0.43788
3707.05,0.42743
3701.26,0.41606
3695.48,0.40056
3689.69,0.38332
3683.9,0.36125
3678.12,0.33618
3672.33,0.30961
3666.54,0.28126
3660.76,0.25651
3654.97,0.23359
3649.19,0.21347
3643.4,0.19509
3637.61,0.18002
3631.83,0.16647
3626.04,0.15311
3620.25,0.14288
3614.47,0.13260
3608.68,0.12357
3602.9,0.11444
3597.11,0.10754
3591.32,0.10095
3585.54,0.09433
3579.75,0.08974
3573.97,0.08521
3568.18,0.08116
3562.39,0.07703
3556.61,0.07480
3550.82,0.07145
3545.03,0.06881
3539.25,0.06627
3533.46,0.06387
3527.68,0.06231
3521.89,0.05996
3516.1,0.05777
3510.32,0.05686
3504.53,0.05522
3498.74,0.05425
3492.96,0.05213
3487.17,0.05119
3481.39,0.05066
3475.6,0.05075
3469.81,0.04880
3464.03,0.04743
3458.24,0.04698
3452.45,0.04656
3446.67,0.04583
3440.88,0.04528
3435.1,0.04514
3429.31,0.04521
3423.52,0.04470
3417.74,0.04470
3411.95,0.04491
3406.16,0.04535
3400.38,0.04547
3394.59,0.04607
3388.81,0.04599
3383.02,0.04614
3377.23,0.04635
3371.45,0.04638
3365.66,0.04656
3359.87,0.04730
3354.09,0.04763
3348.3,0.04809
3342.52,0.04834
3336.73,0.04846
3330.94,0.04939
3325.16,0.05108
3319.37,0.05192
3313.58,0.05293
3307.8,0.05295
3302.01,0.05452
3296.23,0.05479
3290.44,0.05633
3284.65,0.05670
3278.87,0.05741
3273.08,0.05974
3267.29,0.06095
3261.51,0.06198
3255.72,0.06404
3249.94,0.06534
3244.15,0.06786
3238.36,0.06980
3232.58,0.07160
3226.79,0.07249
3221,0.07431
3215.22,0.07651
3209.43,0.07805
3203.65,0.08003
3197.86,0.08164
3192.07,0.08397
3186.29,0.08579
3180.5,0.08780
3174.71,0.08939
3168.93,0.09178
3163.14,0.09375
3157.36,0.09596
3151.57,0.09806
3145.78,0.10097
3140,0.10188
3134.21,0.10422
3128.42,0.10642
3122.64,0.10864
3116.85,0.11061
3111.07,0.11277
3105.28,0.11486
3099.49,0.11687
3093.71,0.11872
3087.92,0.12060
3082.14,0.12291
3076.35,0.12409
3070.56,0.12641
3064.78,0.12912
3058.99,0.13137
3053.2,0.13349
3047.42,0.13509
3041.63,0.13694
3035.85,0.13838
3030.06,0.13892
3024.27,0.13850
3018.49,0.13797
3012.7,0.13623
3006.91,0.13417
3001.13,0.13215
2995.34,0.13009
2989.56,0.12637
2983.77,0.12176
2977.98,0.11606
2972.2,0.11038
2966.41,0.10504
2960.62,0.10131
2954.84,0.09687
2949.05,0.09239
2943.27,0.08880
2937.48,0.08794
2931.69,0.08794
2925.91,0.08819
2920.12,0.08896
2914.33,0.08978
2908.55,0.08880
2902.76,0.08782
2896.98,0.08804
2891.19,0.08885
2885.4,0.09014
2879.62,0.09159
2873.83,0.09260
2868.04,0.09484
2862.26,0.09783
2856.47,0.10095
2850.69,0.10419
2844.9,0.11161
2839.11,0.11815
2833.33,0.12488
2827.54,0.13130
2821.75,0.13695
2815.97,0.14247
2810.18,0.14681
2804.4,0.15070
2798.61,0.15419
2792.82,0.15728
2787.04,0.15960
2781.25,0.16171
2775.46,0.16355
2769.68,0.16508
2763.89,0.16640
2758.11,0.16743
2752.32,0.16860
2746.53,0.16933
2740.75,0.16988
2734.96,0.17106
2729.17,0.17219
2723.39,0.17407
2717.6,0.17555
2711.82,0.17834
2706.03,0.18153
2700.24,0.18389
2694.46,0.18687
2688.67,0.18899
2682.88,0.19140
2677.1,0.19419
2671.31,0.19669
2665.53,0.19888
2659.74,0.20142
2653.95,0.20361
2648.17,0.20543
2642.38,0.20815
2636.59,0.21053
2630.81,0.21381
2625.02,0.21674
2619.24,0.21890
2613.45,0.22152
2607.66,0.22430
2601.88,0.22627
2596.09,0.22881
2590.3,0.23101
2584.52,0.23293
2578.73,0.23487
2572.95,0.23579
2567.16,0.23671
2561.37,0.23741
2555.59,0.23852
2549.8,0.23972
2544.02,0.24112
2538.23,0.24246
2532.44,0.24397
2526.66,0.24545
2520.87,0.24776
2515.08,0.24919
2509.3,0.25179
2503.51,0.25459
2497.73,0.25776
2491.94,0.26090
2486.15,0.26362
2480.37,0.26661
2474.58,0.26951
2468.79,0.27164
2463.01,0.27455
2457.22,0.27761
2451.44,0.28066
2445.65,0.28443
2439.86,0.28778
2434.08,0.29133
2428.29,0.29533
2422.5,0.29929
2416.72,0.30280
2410.93,0.30721
2405.15,0.31108
2399.36,0.31499
2393.57,0.31858
2387.79,0.32160
2382,0.32490
2376.21,0.32763
2370.43,0.33043
2364.64,0.33317
2358.86,0.33573
2353.07,0.33824
2347.28,0.34143
2341.5,0.34409
2335.71,0.34564
2329.92,0.34735
2324.14,0.34918
2318.35,0.35013
2312.57,0.35158
2306.78,0.35135
2300.99,0.35127
2295.21,0.35103
2289.42,0.35047
2283.63,0.35032
2277.85,0.34985
2272.06,0.34863
2266.28,0.34760
2260.49,0.34604
2254.7,0.34437
2248.92,0.34338
2243.13,0.34310
2237.34,0.34292
2231.56,0.34289
2225.77,0.34357
2219.99,0.34410
2214.2,0.34406
2208.41,0.34380
2202.63,0.34244
2196.84,0.34026
2191.05,0.33801
2185.27,0.33403
2179.48,0.32962
2173.7,0.32513
2167.91,0.32031
2162.12,0.31676
2156.34,0.31372
2150.55,0.31155
2144.76,0.31054
2138.98,0.30963
2133.19,0.31013
2127.41,0.31113
2121.62,0.31226
2115.83,0.31491
2110.05,0.31779
2104.26,0.32026
2098.47,0.32292
2092.69,0.32563
2086.9,0.32762
2081.12,0.32870
2075.33,0.32943
2069.54,0.32929
2063.76,0.32921
2057.97,0.32932
2052.19,0.33052
2046.4,0.33214
2040.61,0.33450
2034.83,0.33761
2029.04,0.34144
2023.25,0.34550
2017.47,0.35044
2011.68,0.35556
2005.9,0.35940
2000.11,0.36335
1994.32,0.36623
1988.54,0.36901
1982.75,0.37066
1976.96,0.37202
1971.18,0.37245
1965.39,0.37332
1959.61,0.37427
1953.82,0.37559
1948.03,0.37760
1942.25,0.38123
1936.46,0.38470
1930.67,0.38805
1924.89,0.39136
1919.1,0.39403
1913.32,0.39541
1907.53,0.39629
1901.74,0.39640
1895.96,0.39667
1890.17,0.39649
1884.38,0.39633
1878.6,0.39566
1872.81,0.39404
1867.03,0.39253
1861.24,0.38998
1855.45,0.38737
1849.67,0.38467
1843.88,0.38167
1838.09,0.37704
1832.31,0.37274
1826.52,0.36738
1820.74,0.36047
1814.95,0.35304
1809.16,0.34446
1803.38,0.33414
1797.59,0.32167
1791.8,0.30692
1786.02,0.29019
1780.23,0.27025
1774.45,0.24723
1768.66,0.21515
1762.87,0.18265
1757.09,0.15316
1751.3,0.13041
1745.51,0.11300
1739.73,0.10496
1733.94,0.10400
1728.16,0.10645
1722.37,0.11066
1716.58,0.11643
1710.8,0.12142
1705.01,0.12574
1699.22,0.12943
1693.44,0.12919
1687.65,0.12831
1681.87,0.12435
1676.08,0.11760
1670.29,0.10652
1664.51,0.09402
1658.72,0.08488
1652.93,0.08547
1647.15,0.08877
1641.36,0.08991
1635.58,0.08906
1629.79,0.08602
1624,0.08294
1618.22,0.08004
1612.43,0.07855
1606.64,0.07659
1600.86,0.07573
1595.07,0.07644
1589.29,0.08023
1583.5,0.08783
1577.71,0.09680
1571.93,0.10538
1566.14,0.11309
1560.35,0.11965
1554.57,0.12456
1548.78,0.12693
1543,0.12897
1537.21,0.12672
1531.42,0.11884
1525.64,0.10427
1519.85,0.08464
1514.07,0.07439
1508.28,0.07372
1502.49,0.07406
1496.71,0.07688
1490.92,0.08271
1485.13,0.08527
1479.35,0.07961
1473.56,0.06901
1467.78,0.06040
1461.99,0.05863
1456.2,0.05850
1450.42,0.05949
1444.63,0.05931
1438.84,0.05732
1433.06,0.05433
1427.27,0.05333
1421.49,0.05516
1415.7,0.05871
1409.91,0.06084
1404.13,0.06034
1398.34,0.05817
1392.55,0.05463
1386.77,0.05106
1380.98,0.04783
1375.2,0.04677
1369.41,0.04768
1363.62,0.04902
1357.84,0.05080
1352.05,0.05248
1346.26,0.05269
1340.48,0.05142
1334.69,0.05092
1328.91,0.05049
1323.12,0.05016
1317.33,0.05091
1311.55,0.05245
1305.76,0.05394
1299.97,0.05545
1294.19,0.05460
1288.4,0.05224
1282.62,0.04909
1276.83,0.04746
1271.04,0.04515
1265.26,0.04414
1259.47,0.04437
1253.68,0.04510
1247.9,0.04612
1242.11,0.04810
1236.33,0.04985
1230.54,0.05239
1224.75,0.05466
1218.97,0.05552
1213.18,0.05586
1207.39,0.05444
1201.61,0.05370
1195.82,0.05387
1190.04,0.05216
1184.25,0.04874
1178.46,0.04562
1172.68,0.04501
1166.89,0.04820
1161.1,0.05121
1155.32,0.05324
1149.53,0.05332
1143.75,0.05303
1137.96,0.05093
1132.17,0.05079
1126.39,0.05283
1120.6,0.05622
1114.81,0.05985
1109.03,0.06439
1103.24,0.06799
1097.46,0.06903
1091.67,0.07016
1085.88,0.07026
1080.1,0.07077
1074.31,0.07250
1068.52,0.07191
1062.74,0.07228
1056.95,0.07645
1051.17,0.08125
1045.38,0.08391
1039.59,0.08669
1033.81,0.08796
1028.02,0.08696
1022.24,0.08554
1016.45,0.08411
1010.66,0.08299
1004.88,0.08209
999.09,0.08274
993.304,0.08417
987.518,0.08880
981.731,0.09614
975.945,0.10181
970.159,0.10664
964.373,0.11379
958.586,0.12436
952.8,0.13604
947.014,0.14622
941.228,0.15376
935.441,0.15781
929.655,0.15962
923.869,0.15959
918.083,0.15720
912.297,0.15202
906.51,0.14236
900.724,0.13174
894.938,0.13482
889.152,0.15139
883.365,0.16595
877.579,0.17093
871.793,0.17239
866.007,0.17353
860.22,0.17191
854.434,0.16844
848.648,0.16314
842.862,0.15844
837.075,0.15824
831.289,0.16135
825.503,0.16434
819.717,0.16605
813.931,0.16617
808.144,0.16803
802.358,0.16784
796.572,0.16819
790.786,0.16647
784.999,0.16341
779.213,0.15941
773.427,0.15440
767.641,0.15022
761.854,0.14650
756.068,0.14243
750.282,0.13796
744.496,0.13269
738.709,0.12940
732.923,0.12603
727.137,0.12208
721.351,0.11976
715.565,0.11830
709.778,0.11678
703.992,0.11519
698.206,0.11322
692.42,0.11232
686.633,0.10831
680.847,0.10300
675.061,0.09929
669.275,0.09860
663.488,0.10106
657.702,0.10234
651.916,0.10293
646.13,0.10263
640.343,0.10294
634.557,0.10146
628.771,0.09826
622.985,0.09941
617.198,0.10141
611.412,0.10406
605.626,0.10699
599.84,0.11146