File: 01_Data/Straw/FTIR/IS/Straw_IS_T_221109_R6.dpt
7497.03,0.02697
7491.25,0.02312
7485.46,0.02056
7479.67,0.02164
7473.89,0.02832
7468.1,0.02092
7462.32,0.02247
7456.53,0.01787
7450.74,0.01122
7444.96,0.02099
7439.17,0.03476
7433.38,0.02802
7427.6,0.02566
7421.81,0.02886
7416.03,0.02480
7410.24,0.02311
7404.45,0.02933
7398.67,0.02443
7392.88,0.02210
7387.09,0.02238
7381.31,0.02117
7375.52,0.03099
7369.74,0.02311
7363.95,0.02697
7358.16,0.03025
7352.38,0.02850
7346.59,0.02584
7340.8,0.02139
7335.02,0.03060
7329.23,0.01858
7323.45,0.02705
7317.66,0.02797
7311.87,0.02563
7306.09,0.02771
7300.3,0.02486
7294.51,0.02132
7288.73,0.02004
7282.94,0.02473
7277.16,0.02752
7271.37,0.02819
7265.58,0.02178
7259.8,0.02567
7254.01,0.02948
7248.22,0.02253
7242.44,0.02283
7236.65,0.01596
7230.87,0.02272
7225.08,0.02409
7219.29,0.02621
7213.51,0.03198
7207.72,0.03250
7201.93,0.01876
7196.15,0.02629
7190.36,0.03135
7184.58,0.02378
7178.79,0.02087
7173,0.01476
7167.22,0.02103
7161.43,0.02306
7155.65,0.02311
7149.86,0.02486
7144.07,0.02749
7138.29,0.02081
7132.5,0.02204
7126.71,0.02293
7120.93,0.02674
7115.14,0.02106
7109.36,0.02827
7103.57,0.01586
7097.78,0.02434
7092,0.02294
7086.21,0.02079
7080.42,0.02372
7074.64,0.02604
7068.85,0.02374
7063.07,0.01515
7057.28,0.02402
7051.49,0.02388
7045.71,0.01998
7039.92,0.02404
7034.13,0.01806
7028.35,0.02565
7022.56,0.02353
7016.78,0.02717
7010.99,0.02590
7005.2,0.02408
6999.42,0.02375
6993.63,0.02499
6987.84,0.02263
6982.06,0.02130
6976.27,0.01770
6970.49,0.02389
6964.7,0.02962
6958.91,0.03044
6953.13,0.02126
6947.34,0.02261
6941.55,0.02107
6935.77,0.02749
6929.98,0.02189
6924.2,0.02283
6918.41,0.02783
6912.62,0.02347
6906.84,0.02121
6901.05,0.02460
6895.26,0.01884
6889.48,0.02839
6883.69,0.02006
6877.91,0.01719
6872.12,0.02459
6866.33,0.01853
6860.55,0.02484
6854.76,0.02193
6848.97,0.02781
6843.19,0.02914
6837.4,0.02146
6831.62,0.01960
6825.83,0.02226
6820.04,0.02277
6814.26,0.01904
6808.47,0.02191
6802.68,0.02280
6796.9,0.02668
6791.11,0.02202
6785.33,0.01815
6779.54,0.01834
6773.75,0.01993
6767.97,0.02010
6762.18,0.01902
6756.39,0.02349
6750.61,0.02509
6744.82,0.01883
6739.04,0.02587
6733.25,0.02391
6727.46,0.02618
6721.68,0.02472
6715.89,0.02336
6710.1,0.02238
6704.32,0.02719
6698.53,0.02387
6692.75,0.02056
6686.96,0.02650
6681.17,0.02483
6675.39,0.01889
6669.6,0.02077
6663.82,0.02054
6658.03,0.02384
6652.24,0.02534
6646.46,0.02632
6640.67,0.02340
6634.88,0.02090
6629.1,0.01866
6623.31,0.02316
6617.53,0.02693
6611.74,0.02274
6605.95,0.01742
6600.17,0.01860
6594.38,0.02017
6588.59,0.02244
6582.81,0.02300
6577.02,0.02173
6571.24,0.02339
6565.45,0.01861
6559.66,0.02172
6553.88,0.02428
6548.09,0.02431
6542.3,0.02301
6536.52,0.02353
6530.73,0.02422
6524.95,0.01938
6519.16,0.02238
6513.37,0.02316
6507.59,0.02428
6501.8,0.02224
6496.01,0.02059
6490.23,0.01991
6484.44,0.02163
6478.66,0.02276
6472.87,0.02258
6467.08,0.02288
6461.3,0.02513
6455.51,0.02035
6449.72,0.01988
6443.94,0.01765
6438.15,0.01965
6432.37,0.02068
6426.58,0.02328
6420.79,0.02364
6415.01,0.02147
6409.22,0.02372
6403.43,0.02315
6397.65,0.02421
6391.86,0.02289
6386.08,0.02401
6380.29,0.02397
6374.5,0.02148
6368.72,0.02181
6362.93,0.02028
6357.14,0.02335
6351.36,0.01958
6345.57,0.02214
6339.79,0.01956
6334,0.01950
6328.21,0.02284
6322.43,0.01924
6316.64,0.02134
6310.85,0.02159
6305.07,0.02168
6299.28,0.01929
6293.5,0.01858
6287.71,0.02022
6281.92,0.02442
6276.14,0.02205
6270.35,0.02629
6264.56,0.02275
6258.78,0.02038
6252.99,0.02196
6247.21,0.02231
6241.42,0.01928
6235.63,0.02136
6229.85,0.01811
6224.06,0.02079
6218.27,0.02247
6212.49,0.02265
6206.7,0.02289
6200.92,0.02329
6195.13,0.02530
6189.34,0.02210
6183.56,0.02270
6177.77,0.02408
6171.98,0.02482
6166.2,0.02440
6160.41,0.02222
6154.63,0.01975
6148.84,0.02395
6143.05,0.02418
6137.27,0.02127
6131.48,0.01935
6125.7,0.02307
6119.91,0.01952
6114.12,0.02424
6108.34,0.02204
6102.55,0.02383
6096.76,0.02026
6090.98,0.02177
6085.19,0.02161
6079.41,0.02043
6073.62,0.01904
6067.83,0.02159
6062.05,0.02015
6056.26,0.01860
6050.47,0.02266
6044.69,0.02112
6038.9,0.02220
6033.12,0.02049
6027.33,0.02527
6021.54,0.01958
6015.76,0.01874
6009.97,0.02120
6004.18,0.02163
5998.4,0.02152
5992.61,0.02081
5986.83,0.02255
5981.04,0.02264
5975.25,0.02562
5969.47,0.02062
5963.68,0.02590
5957.89,0.01971
5952.11,0.02129
5946.32,0.02122
5940.54,0.02005
5934.75,0.01957
5928.96,0.02189
5923.18,0.02186
5917.39,0.02008
5911.6,0.02065
5905.82,0.02230
5900.03,0.01889
5894.25,0.01903
5888.46,0.02151
5882.67,0.02193
5876.89,0.02310
5871.1,0.02101
5865.31,0.02007
5859.53,0.01927
5853.74,0.02163
5847.96,0.02316
5842.17,0.01985
5836.38,0.02146
5830.6,0.01829
5824.81,0.01914
5819.02,0.02051
5813.24,0.02044
5807.45,0.02094
5801.67,0.02233
5795.88,0.02043
5790.09,0.02127
5784.31,0.02411
5778.52,0.02243
5772.73,0.02213
5766.95,0.02012
5761.16,0.01953
5755.38,0.02115
5749.59,0.02173
5743.8,0.02360
5738.02,0.02449
5732.23,0.02167
5726.44,0.01965
5720.66,0.02103
5714.87,0.01872
5709.09,0.01973
5703.3,0.02172
5697.51,0.02050
5691.73,0.01978
5685.94,0.01839
5680.15,0.02136
5674.37,0.02085
5668.58,0.02189
5662.8,0.02124
5657.01,0.02176
5651.22,0.02095
5645.44,0.02161
5639.65,0.02308
5633.87,0.02236
5628.08,0.02169
5622.29,0.01983
5616.51,0.02203
5610.72,0.02188
5604.93,0.02175
5599.15,0.02050
5593.36,0.02188
5587.58,0.02268
5581.79,0.02042
5576,0.01864
5570.22,0.01964
5564.43,0.01992
5558.64,0.02116
5552.86,0.02209
5547.07,0.02131
5541.29,0.02134
5535.5,0.02133
5529.71,0.02235
5523.93,0.02291
5518.14,0.02207
5512.35,0.02352
5506.57,0.02119
5500.78,0.02215
5495,0.02064
5489.21,0.02121
5483.42,0.02126
5477.64,0.02159
5471.85,0.02325
5466.06,0.02293
5460.28,0.02138
5454.49,0.02217
5448.71,0.02244
5442.92,0.02207
5437.13,0.01947
5431.35,0.02104
5425.56,0.02252
5419.77,0.02052
5413.99,0.02215
5408.2,0.02097
5402.42,0.02213
5396.63,0.02308
5390.84,0.02004
5385.06,0.02253
5379.27,0.02202
5373.48,0.02182
5367.7,0.02059
5361.91,0.02074
5356.13,0.02118
5350.34,0.02037
5344.55,0.02089
5338.77,0.02179
5332.98,0.02258
5327.19,0.02234
5321.41,0.02244
5315.62,0.02310
5309.84,0.02201
5304.05,0.02160
5298.26,0.02171
5292.48,0.02128
5286.69,0.02214
5280.9,0.02332
5275.12,0.02262
5269.33,0.02113
5263.55,0.02210
5257.76,0.02193
5251.97,0.02203
5246.19,0.02147
5240.4,0.02194
5234.61,0.02078
5228.83,0.02270
5223.04,0.02339
5217.26,0.02090
5211.47,0.01974
5205.68,0.02147
5199.9,0.02190
5194.11,0.02129
5188.32,0.02082
5182.54,0.02061
5176.75,0.02109
5170.97,0.02211
5165.18,0.02174
5159.39,0.02044
5153.61,0.02171
5147.82,0.02156
5142.03,0.02149
5136.25,0.02280
5130.46,0.02284
5124.68,0.02184
5118.89,0.02332
5113.1,0.02178
5107.32,0.02205
5101.53,0.02143
5095.75,0.02138
5089.96,0.02241
5084.17,0.02262
5078.39,0.02185
5072.6,0.02118
5066.81,0.02206
5061.03,0.02191
5055.24,0.02178
5049.46,0.02295
5043.67,0.02082
5037.88,0.02281
5032.1,0.02237
5026.31,0.02233
5020.52,0.02071
5014.74,0.02092
5008.95,0.02072
5003.17,0.02081
4997.38,0.02165
4991.59,0.02172
4985.81,0.02207
4980.02,0.02227
4974.23,0.02250
4968.45,0.02152
4962.66,0.02278
4956.88,0.02164
4951.09,0.02217
4945.3,0.02141
4939.52,0.02236
4933.73,0.02222
4927.94,0.02191
4922.16,0.02291
4916.37,0.02178
4910.59,0.02175
4904.8,0.02224
4899.01,0.02139
4893.23,0.02120
4887.44,0.02178
4881.65,0.02202
4875.87,0.02345
4870.08,0.02195
4864.3,0.02200
4858.51,0.02151
4852.72,0.02222
4846.94,0.02138
4841.15,0.02215
4835.36,0.02130
4829.58,0.02201
4823.79,0.02135
4818.01,0.02293
4812.22,0.02187
4806.43,0.02207
4800.65,0.02275
4794.86,0.02199
4789.07,0.02245
4783.29,0.02203
4777.5,0.02118
4771.72,0.02264
4765.93,0.02128
4760.14,0.02223
4754.36,0.02077
4748.57,0.02097
4742.78,0.02140
4737,0.02184
4731.21,0.02240
4725.43,0.02152
4719.64,0.02246
4713.85,0.02197
4708.07,0.02231
4702.28,0.02273
4696.49,0.02166
4690.71,0.02233
4684.92,0.02264
4679.14,0.02218
4673.35,0.02243
4667.56,0.02185
4661.78,0.02130
4655.99,0.02250
4650.2,0.02165
4644.42,0.02213
4638.63,0.02213
4632.85,0.02181
4627.06,0.02248
4621.27,0.02257
4615.49,0.02227
4609.7,0.02176
4603.92,0.02310
4598.13,0.02266
4592.34,0.02275
4586.56,0.02149
4580.77,0.02171
4574.98,0.02244
4569.2,0.02238
4563.41,0.02199
4557.63,0.02223
4551.84,0.02199
4546.05,0.02168
4540.27,0.02177
4534.48,0.02173
4528.69,0.02159
4522.91,0.02250
4517.12,0.02180
4511.34,0.02152
4505.55,0.02210
4499.76,0.02205
4493.98,0.02215
4488.19,0.02266
4482.4,0.02239
4476.62,0.02240
4470.83,0.02170
4465.05,0.02095
4459.26,0.02180
4453.47,0.02186
4447.69,0.02185
4441.9,0.02146
4436.11,0.02182
4430.33,0.02214
4424.54,0.02169
4418.76,0.02118
4412.97,0.02199
4407.18,0.02226
4401.4,0.02185
4395.61,0.02261
4389.82,0.02145
4384.04,0.02207
4378.25,0.02295
4372.47,0.02164
4366.68,0.02206
4360.89,0.02186
4355.11,0.02243
4349.32,0.02238
4343.53,0.02172
4337.75,0.02234
4331.96,0.02193
4326.18,0.02192
4320.39,0.02231
4314.6,0.02204
4308.82,0.02269
4303.03,0.02178
4297.24,0.02341
4291.46,0.02211
4285.67,0.02184
4279.89,0.02240
4274.1,0.02210
4268.31,0.02194
4262.53,0.02276
4256.74,0.02264
4250.95,0.02200
4245.17,0.02197
4239.38,0.02199
4233.6,0.02252
4227.81,0.02283
4222.02,0.02277
4216.24,0.02266
4210.45,0.02194
4204.66,0.02245
4198.88,0.02194
4193.09,0.02176
4187.31,0.02235
4181.52,0.02276
4175.73,0.02301
4169.95,0.02253
4164.16,0.02253
4158.37,0.02192
4152.59,0.02193
4146.8,0.02190
4141.02,0.02169
4135.23,0.02233
4129.44,0.02225
4123.66,0.02186
4117.87,0.02258
4112.09,0.02266
4106.3,0.02176
4100.51,0.02228
4094.73,0.02243
4088.94,0.02303
4083.15,0.02306
4077.37,0.02229
4071.58,0.02301
4065.8,0.02229
4060.01,0.02168
4054.22,0.02271
4048.44,0.02246
4042.65,0.02208
4036.86,0.02236
4031.08,0.02186
4025.29,0.02229
4019.51,0.02265
4013.72,0.02203
4007.93,0.02255
4002.15,0.02232
3996.36,0.02273
3990.57,0.02245
3984.79,0.02205
3979,0.02236
3973.22,0.02198
3967.43,0.02208
3961.64,0.02192
3955.86,0.02275
3950.07,0.02234
3944.28,0.02236
3938.5,0.02291
3932.71,0.02229
3926.93,0.02250
3921.14,0.02256
3915.35,0.02249
3909.57,0.02254
3903.78,0.02307
3897.99,0.02232
3892.21,0.02227
3886.42,0.02234
3880.64,0.02215
3874.85,0.02261
3869.06,0.02246
3863.28,0.02250
3857.49,0.02276
3851.7,0.02290
3845.92,0.02206
3840.13,0.02205
3834.35,0.02239
3828.56,0.02259
3822.77,0.02274
3816.99,0.02269
3811.2,0.02262
3805.41,0.02240
3799.63,0.02294
3793.84,0.02195
3788.06,0.02257
3782.27,0.02314
3776.48,0.02269
3770.7,0.02169
3764.91,0.02209
3759.12,0.02254
3753.34,0.02271
3747.55,0.02237
3741.77,0.02271
3735.98,0.02277
3730.19,0.02151
3724.41,0.02210
3718.62,0.02236
3712.83,0.02217
3707.05,0.02223
3701.26,0.02203
3695.48,0.02278
3689.69,0.02200
3683.9,0.02229
3678.12,0.02219
3672.33,0.02252
3666.54,0.02271
3660.76,0.02171
3654.97,0.02163
3649.19,0.02269
3643.4,0.02171
3637.61,0.02201
3631.83,0.02145
3626.04,0.02098
3620.25,0.02102
3614.47,0.02133
3608.68,0.02156
3602.9,0.02135
3597.11,0.02118
3591.32,0.02178
3585.54,0.02159
3579.75,0.02110
3573.97,0.02124
3568.18,0.02107
3562.39,0.02122
3556.61,0.02118
3550.82,0.02063
3545.03,0.02080
3539.25,0.02029
3533.46,0.02073
3527.68,0.02156
3521.89,0.02072
3516.1,0.02097
3510.32,0.02140
3504.53,0.02094
3498.74,0.02086
3492.96,0.02115
3487.17,0.02107
3481.39,0.02101
3475.6,0.02070
3469.81,0.02064
3464.03,0.02024
3458.24,0.02011
3452.45,0.02045
3446.67,0.02060
3440.88,0.02060
3435.1,0.01984
3429.31,0.02067
3423.52,0.02086
3417.74,0.02071
3411.95,0.02035
3406.16,0.02069
3400.38,0.02115
3394.59,0.01985
3388.81,0.02003
3383.02,0.02030
3377.23,0.02000
3371.45,0.02084
3365.66,0.02088
3359.87,0.02059
3354.09,0.02020
3348.3,0.02000
3342.52,0.02015
3336.73,0.02005
3330.94,0.01960
3325.16,0.02034
3319.37,0.02005
3313.58,0.02088
3307.8,0.01946
3302.01,0.01991
3296.23,0.02084
3290.44,0.02063
3284.65,0.02040
3278.87,0.02017
3273.08,0.02056
3267.29,0.02005
3261.51,0.01986
3255.72,0.02015
3249.94,0.02007
3244.15,0.02069
3238.36,0.02097
3232.58,0.02060
3226.79,0.02024
3221,0.02096
3215.22,0.02157
3209.43,0.02040
3203.65,0.02081
3197.86,0.02138
3192.07,0.02047
3186.29,0.02060
3180.5,0.02074
3174.71,0.02078
3168.93,0.02100
3163.14,0.02089
3157.36,0.02102
3151.57,0.02069
3145.78,0.02070
3140,0.02068
3134.21,0.02055
3128.42,0.02133
3122.64,0.02132
3116.85,0.02039
3111.07,0.02080
3105.28,0.02065
3099.49,0.02069
3093.71,0.02029
3087.92,0.02072
3082.14,0.02061
3076.35,0.01982
3070.56,0.02037
3064.78,0.02088
3058.99,0.02051
3053.2,0.02068
3047.42,0.02082
3041.63,0.02125
3035.85,0.02046
3030.06,0.02072
3024.27,0.02081
3018.49,0.02111
3012.7,0.02100
3006.91,0.02034
3001.13,0.02006
2995.34,0.02039
2989.56,0.02056
2983.77,0.02017
2977.98,0.01941
2972.2,0.01979
2966.41,0.01942
2960.62,0.01971
2954.84,0.01910
2949.05,0.01962
2943.27,0.01957
2937.48,0.01990
2931.69,0.02036
2925.91,0.02034
2920.12,0.01995
2914.33,0.02043
2908.55,0.01997
2902.76,0.01956
2896.98,0.02031
2891.19,0.02108
2885.4,0.02017
2879.62,0.02018
2873.83,0.02011
2868.04,0.02017
2862.26,0.02062
2856.47,0.02039
2850.69,0.02058
2844.9,0.02096
2839.11,0.02142
2833.33,0.02159
2827.54,0.02100
2821.75,0.02101
2815.97,0.02108
2810.18,0.02135
2804.4,0.02122
2798.61,0.02106
2792.82,0.02096
2787.04,0.02098
2781.25,0.02113
2775.46,0.02145
2769.68,0.02133
2763.89,0.02140
2758.11,0.02098
2752.32,0.02119
2746.53,0.02076
2740.75,0.02125
2734.96,0.02138
2729.17,0.02157
2723.39,0.02144
2717.6,0.02132
2711.82,0.02134
2706.03,0.02154
2700.24,0.02158
2694.46,0.02128
2688.67,0.02117
2682.88,0.02164
2677.1,0.02140
2671.31,0.02158
2665.53,0.02121
2659.74,0.02127
2653.95,0.02110
2648.17,0.02125
2642.38,0.02115
2636.59,0.02100
2630.81,0.02124
2625.02,0.02140
2619.24,0.02153
2613.45,0.02131
2607.66,0.02131
2601.88,0.02117
2596.09,0.02130
2590.3,0.02138
2584.52,0.02109
2578.73,0.02172
2572.95,0.02123
2567.16,0.02119
2561.37,0.02138
2555.59,0.02157
2549.8,0.02117
2544.02,0.02082
2538.23,0.02123
2532.44,0.02168
2526.66,0.02124
2520.87,0.02123
2515.08,0.02129
2509.3,0.02134
2503.51,0.02112
2497.73,0.02138
2491.94,0.02111
2486.15,0.02104
2480.37,0.02161
2474.58,0.02113
2468.79,0.02124
2463.01,0.02150
2457.22,0.02153
2451.44,0.02141
2445.65,0.02076
2439.86,0.02149
2434.08,0.02160
2428.29,0.02137
2422.5,0.02132
2416.72,0.02126
2410.93,0.02163
2405.15,0.02118
2399.36,0.02159
2393.57,0.02148
2387.79,0.02091
2382,0.02130
2376.21,0.02111
2370.43,0.02135
2364.64,0.02165
2358.86,0.02098
2353.07,0.02111
2347.28,0.02120
2341.5,0.02140
2335.71,0.02145
2329.92,0.02102
2324.14,0.02108
2318.35,0.02105
2312.57,0.02113
2306.78,0.02110
2300.99,0.02125
2295.21,0.02092
2289.42,0.02122
2283.63,0.02120
2277.85,0.02095
2272.06,0.02086
2266.28,0.02108
2260.49,0.02110
2254.7,0.02119
2248.92,0.02158
2243.13,0.02135
2237.34,0.02076
2231.56,0.02105
2225.77,0.02084
2219.99,0.02145
2214.2,0.02113
2208.41,0.02100
2202.63,0.02115
2196.84,0.02091
2191.05,0.02114
2185.27,0.02106
2179.48,0.02139
2173.7,0.02100
2167.91,0.02159
2162.12,0.02147
2156.34,0.02171
2150.55,0.02094
2144.76,0.02099
2138.98,0.02104
2133.19,0.02130
2127.41,0.02134
2121.62,0.02100
2115.83,0.02082
2110.05,0.02103
2104.26,0.02104
2098.47,0.02106
2092.69,0.02093
2086.9,0.02077
2081.12,0.02147
2075.33,0.02107
2069.54,0.02072
2063.76,0.02139
2057.97,0.02117
2052.19,0.02099
2046.4,0.02089
2040.61,0.02118
2034.83,0.02124
2029.04,0.02127
2023.25,0.02076
2017.47,0.02087
2011.68,0.02094
2005.9,0.02097
2000.11,0.02120
1994.32,0.02072
1988.54,0.02074
1982.75,0.02120
1976.96,0.02097
1971.18,0.02076
1965.39,0.02100
1959.61,0.02090
1953.82,0.02100
1948.03,0.02089
1942.25,0.02101
1936.46,0.02136
1930.67,0.02069
1924.89,0.02072
1919.1,0.02069
1913.32,0.02091
1907.53,0.02067
1901.74,0.02082
1895.96,0.02048
1890.17,0.02086
1884.38,0.02098
1878.6,0.02088
1872.81,0.02087
1867.03,0.02067
1861.24,0.02074
1855.45,0.02063
1849.67,0.02057
1843.88,0.02061
1838.09,0.02024
1832.31,0.02042
1826.52,0.02045
1820.74,0.02007
1814.95,0.02036
1809.16,0.02008
1803.38,0.02025
1797.59,0.02017
1791.8,0.01990
1786.02,0.01936
1780.23,0.01924
1774.45,0.01905
1768.66,0.01872
1762.87,0.01842
1757.09,0.01802
1751.3,0.01770
1745.51,0.01788
1739.73,0.01874
1733.94,0.01948
1728.16,0.02041
1722.37,0.02088
1716.58,0.02071
1710.8,0.02048
1705.01,0.02045
1699.22,0.02076
1693.44,0.01997
1687.65,0.01951
1681.87,0.01906
1676.08,0.01899
1670.29,0.01903
1664.51,0.01884
1658.72,0.01850
1652.93,0.01837
1647.15,0.01823
1641.36,0.01858
1635.58,0.01861
1629.79,0.01870
1624,0.01890
1618.22,0.01871
1612.43,0.01883
1606.64,0.01906
1600.86,0.01889
1595.07,0.01907
1589.29,0.01860
1583.5,0.01844
1577.71,0.01815
1571.93,0.01825
1566.14,0.01836
1560.35,0.01854
1554.57,0.01831
1548.78,0.01827
1543,0.01834
1537.21,0.01868
1531.42,0.01868
1525.64,0.01869
1519.85,0.01849
1514.07,0.01826
1508.28,0.01909
1502.49,0.01900
1496.71,0.01915
1490.92,0.01903
1485.13,0.01907
1479.35,0.01887
1473.56,0.01859
1467.78,0.01863
1461.99,0.01843
1456.2,0.01896
1450.42,0.01913
1444.63,0.01869
1438.84,0.01884
1433.06,0.01882
1427.27,0.01884
1421.49,0.01861
1415.7,0.01859
1409.91,0.01847
1404.13,0.01844
1398.34,0.01865
1392.55,0.01846
1386.77,0.01821
1380.98,0.01781
1375.2,0.01818
1369.41,0.01827
1363.62,0.01857
1357.84,0.01797
1352.05,0.01803
1346.26,0.01817
1340.48,0.01757
1334.69,0.01766
1328.91,0.01759
1323.12,0.01715
1317.33,0.01703
1311.55,0.01676
1305.76,0.01729
1299.97,0.01746
1294.19,0.01788
1288.4,0.01847
1282.62,0.01851
1276.83,0.01890
1271.04,0.01924
1265.26,0.01962
1259.47,0.01981
1253.68,0.02024
1247.9,0.02013
1242.11,0.01986
1236.33,0.01972
1230.54,0.01949
1224.75,0.01929
1218.97,0.01925
1213.18,0.01937
1207.39,0.01847
1201.61,0.01864
1195.82,0.01856
1190.04,0.01848
1184.25,0.01812
1178.46,0.01780
1172.68,0.01786
1166.89,0.01802
1161.1,0.01742
1155.32,0.01715
1149.53,0.01752
1143.75,0.01802
1137.96,0.01867
1132.17,0.01821
1126.39,0.01866
1120.6,0.01832
1114.81,0.01947
1109.03,0.01957
1103.24,0.01853
1097.46,0.01871
1091.67,0.01815
1085.88,0.01857
1080.1,0.01911
1074.31,0.01926
1068.52,0.01956
1062.74,0.02008
1056.95,0.01952
1051.17,0.01949
1045.38,0.01936
1039.59,0.02006
1033.81,0.01942
1028.02,0.01939
1022.24,0.01924
1016.45,0.01935
1010.66,0.02081
1004.88,0.02089
999.09,0.02088
993.304,0.02099
987.518,0.02123
981.731,0.02047
975.945,0.02050
970.159,0.02028
964.373,0.02047
958.586,0.01966
952.8,0.01998
947.014,0.02005
941.228,0.01981
935.441,0.01920
929.655,0.01973
923.869,0.01914
918.083,0.01959
912.297,0.01928
906.51,0.01903
900.724,0.01974
894.938,0.01886
889.152,0.01963
883.365,0.01950
877.579,0.01865
871.793,0.01857
866.007,0.01842
860.22,0.01914
854.434,0.01932
848.648,0.01924
842.862,0.01969
837.075,0.01922
831.289,0.01920
825.503,0.01903
819.717,0.01945
813.931,0.01916
808.144,0.01901
802.358,0.01914
796.572,0.01852
790.786,0.01851
784.999,0.01903
779.213,0.01867
773.427,0.01911
767.641,0.01885
761.854,0.01876
756.068,0.01736
750.282,0.01823
744.496,0.01743
738.709,0.01777
732.923,0.01820
727.137,0.01873
721.351,0.01831
715.565,0.01819
709.778,0.01860
703.992,0.01778
698.206,0.01746
692.42,0.01731
686.633,0.01798
680.847,0.01872
675.061,0.01770
669.275,0.01843
663.488,0.01750
657.702,0.01611
651.916,0.01780
646.13,0.01736
640.343,0.01762
634.557,0.01656
628.771,0.01580
622.985,0.01627
617.198,0.01642
611.412,0.01479
605.626,0.01452
599.84,0.01494