File: 01_Data/Straw/FTIR/IS/Straw_IS_S_221109_R5.dpt
7497.03,0.83331
7491.25,0.83956
7485.46,0.84165
7479.67,0.84374
7473.89,0.83593
7468.1,0.83948
7462.32,0.83787
7456.53,0.83599
7450.74,0.83870
7444.96,0.83721
7439.17,0.82776
7433.38,0.83123
7427.6,0.84274
7421.81,0.84287
7416.03,0.81851
7410.24,0.82665
7404.45,0.82622
7398.67,0.81872
7392.88,0.82546
7387.09,0.83639
7381.31,0.83331
7375.52,0.82385
7369.74,0.81541
7363.95,0.81367
7358.16,0.82420
7352.38,0.82563
7346.59,0.81598
7340.8,0.82305
7335.02,0.81937
7329.23,0.81288
7323.45,0.81337
7317.66,0.81163
7311.87,0.81149
7306.09,0.81151
7300.3,0.81834
7294.51,0.81835
7288.73,0.80504
7282.94,0.81492
7277.16,0.80428
7271.37,0.80769
7265.58,0.81654
7259.8,0.81555
7254.01,0.81050
7248.22,0.81323
7242.44,0.82105
7236.65,0.81870
7230.87,0.81966
7225.08,0.80340
7219.29,0.80694
7213.51,0.80507
7207.72,0.80445
7201.93,0.80425
7196.15,0.80736
7190.36,0.80692
7184.58,0.80940
7178.79,0.80047
7173,0.81068
7167.22,0.80657
7161.43,0.80534
7155.65,0.80302
7149.86,0.79898
7144.07,0.79921
7138.29,0.79387
7132.5,0.79685
7126.71,0.79033
7120.93,0.79068
7115.14,0.78445
7109.36,0.77970
7103.57,0.77234
7097.78,0.77979
7092,0.77379
7086.21,0.77444
7080.42,0.77214
7074.64,0.76623
7068.85,0.75832
7063.07,0.75073
7057.28,0.74910
7051.49,0.74594
7045.71,0.73354
7039.92,0.73349
7034.13,0.73248
7028.35,0.72529
7022.56,0.72466
7016.78,0.72242
7010.99,0.72113
7005.2,0.71699
6999.42,0.70844
6993.63,0.69958
6987.84,0.69584
6982.06,0.69926
6976.27,0.70319
6970.49,0.69878
6964.7,0.69025
6958.91,0.69527
6953.13,0.69599
6947.34,0.69621
6941.55,0.69771
6935.77,0.69916
6929.98,0.68988
6924.2,0.68628
6918.41,0.68408
6912.62,0.68303
6906.84,0.69173
6901.05,0.67882
6895.26,0.69117
6889.48,0.68653
6883.69,0.68827
6877.91,0.68874
6872.12,0.68458
6866.33,0.68422
6860.55,0.68940
6854.76,0.68737
6848.97,0.68349
6843.19,0.67914
6837.4,0.68302
6831.62,0.69088
6825.83,0.68811
6820.04,0.68828
6814.26,0.68981
6808.47,0.68486
6802.68,0.68553
6796.9,0.68272
6791.11,0.68295
6785.33,0.68546
6779.54,0.68168
6773.75,0.68037
6767.97,0.68085
6762.18,0.68233
6756.39,0.68278
6750.61,0.68283
6744.82,0.68785
6739.04,0.68629
6733.25,0.68337
6727.46,0.68736
6721.68,0.68667
6715.89,0.69389
6710.1,0.68961
6704.32,0.68878
6698.53,0.68592
6692.75,0.68637
6686.96,0.69226
6681.17,0.69141
6675.39,0.69120
6669.6,0.69302
6663.82,0.69648
6658.03,0.69399
6652.24,0.69621
6646.46,0.69600
6640.67,0.69574
6634.88,0.69372
6629.1,0.69546
6623.31,0.69947
6617.53,0.69560
6611.74,0.69926
6605.95,0.70242
6600.17,0.70513
6594.38,0.70316
6588.59,0.70204
6582.81,0.70515
6577.02,0.71115
6571.24,0.70155
6565.45,0.71059
6559.66,0.70679
6553.88,0.71381
6548.09,0.71608
6542.3,0.71443
6536.52,0.70970
6530.73,0.71333
6524.95,0.71600
6519.16,0.71580
6513.37,0.71304
6507.59,0.71892
6501.8,0.71545
6496.01,0.71143
6490.23,0.71607
6484.44,0.71854
6478.66,0.71485
6472.87,0.71734
6467.08,0.71294
6461.3,0.71594
6455.51,0.71613
6449.72,0.71562
6443.94,0.71692
6438.15,0.71780
6432.37,0.71912
6426.58,0.72008
6420.79,0.71569
6415.01,0.71703
6409.22,0.71973
6403.43,0.72153
6397.65,0.72171
6391.86,0.72422
6386.08,0.72308
6380.29,0.72034
6374.5,0.72331
6368.72,0.72609
6362.93,0.72579
6357.14,0.72347
6351.36,0.72899
6345.57,0.72745
6339.79,0.72727
6334,0.73214
6328.21,0.72617
6322.43,0.72748
6316.64,0.72570
6310.85,0.72526
6305.07,0.73281
6299.28,0.72598
6293.5,0.73030
6287.71,0.72977
6281.92,0.73775
6276.14,0.73281
6270.35,0.73553
6264.56,0.73577
6258.78,0.73520
6252.99,0.73752
6247.21,0.73928
6241.42,0.74061
6235.63,0.74391
6229.85,0.74429
6224.06,0.74288
6218.27,0.74396
6212.49,0.74974
6206.7,0.75030
6200.92,0.75242
6195.13,0.75032
6189.34,0.75352
6183.56,0.75815
6177.77,0.75520
6171.98,0.75831
6166.2,0.76107
6160.41,0.76067
6154.63,0.76065
6148.84,0.76231
6143.05,0.76250
6137.27,0.76541
6131.48,0.76310
6125.7,0.76744
6119.91,0.76516
6114.12,0.76099
6108.34,0.76424
6102.55,0.76536
6096.76,0.76710
6090.98,0.76738
6085.19,0.76484
6079.41,0.76749
6073.62,0.76717
6067.83,0.76675
6062.05,0.76230
6056.26,0.76378
6050.47,0.76285
6044.69,0.76247
6038.9,0.76286
6033.12,0.76083
6027.33,0.76295
6021.54,0.76504
6015.76,0.76555
6009.97,0.75969
6004.18,0.75830
5998.4,0.75622
5992.61,0.75666
5986.83,0.75414
5981.04,0.75342
5975.25,0.75383
5969.47,0.75423
5963.68,0.75492
5957.89,0.75100
5952.11,0.75160
5946.32,0.75116
5940.54,0.74703
5934.75,0.75110
5928.96,0.75192
5923.18,0.74984
5917.39,0.74729
5911.6,0.75055
5905.82,0.74954
5900.03,0.74563
5894.25,0.74597
5888.46,0.74646
5882.67,0.74595
5876.89,0.74062
5871.1,0.74402
5865.31,0.74273
5859.53,0.74570
5853.74,0.74415
5847.96,0.74530
5842.17,0.74172
5836.38,0.73947
5830.6,0.73668
5824.81,0.73639
5819.02,0.73872
5813.24,0.73532
5807.45,0.73510
5801.67,0.73202
5795.88,0.73554
5790.09,0.73444
5784.31,0.73563
5778.52,0.73812
5772.73,0.74043
5766.95,0.74179
5761.16,0.74261
5755.38,0.74491
5749.59,0.74378
5743.8,0.74208
5738.02,0.74245
5732.23,0.74277
5726.44,0.74327
5720.66,0.74244
5714.87,0.74145
5709.09,0.74303
5703.3,0.74203
5697.51,0.74183
5691.73,0.74184
5685.94,0.74180
5680.15,0.74164
5674.37,0.74262
5668.58,0.74245
5662.8,0.74108
5657.01,0.74293
5651.22,0.73993
5645.44,0.74120
5639.65,0.73986
5633.87,0.73908
5628.08,0.74119
5622.29,0.74056
5616.51,0.74276
5610.72,0.74185
5604.93,0.73975
5599.15,0.74116
5593.36,0.74163
5587.58,0.74013
5581.79,0.74120
5576,0.74491
5570.22,0.74509
5564.43,0.74480
5558.64,0.74327
5552.86,0.74410
5547.07,0.74465
5541.29,0.74606
5535.5,0.74813
5529.71,0.74599
5523.93,0.74650
5518.14,0.74743
5512.35,0.74509
5506.57,0.74706
5500.78,0.74578
5495,0.74637
5489.21,0.74755
5483.42,0.74771
5477.64,0.74966
5471.85,0.75009
5466.06,0.74914
5460.28,0.75258
5454.49,0.75048
5448.71,0.75216
5442.92,0.75380
5437.13,0.75330
5431.35,0.75466
5425.56,0.75524
5419.77,0.75608
5413.99,0.75832
5408.2,0.75729
5402.42,0.75903
5396.63,0.76215
5390.84,0.76050
5385.06,0.75996
5379.27,0.75886
5373.48,0.75994
5367.7,0.75891
5361.91,0.76023
5356.13,0.76038
5350.34,0.76147
5344.55,0.76100
5338.77,0.76057
5332.98,0.75880
5327.19,0.75644
5321.41,0.75615
5315.62,0.75059
5309.84,0.74799
5304.05,0.74301
5298.26,0.73900
5292.48,0.73163
5286.69,0.72411
5280.9,0.71756
5275.12,0.70760
5269.33,0.69759
5263.55,0.68782
5257.76,0.67714
5251.97,0.66848
5246.19,0.65979
5240.4,0.65148
5234.61,0.64507
5228.83,0.64106
5223.04,0.63559
5217.26,0.63144
5211.47,0.63005
5205.68,0.62924
5199.9,0.62742
5194.11,0.62605
5188.32,0.62583
5182.54,0.62836
5176.75,0.63078
5170.97,0.63338
5165.18,0.63350
5159.39,0.63776
5153.61,0.64078
5147.82,0.64404
5142.03,0.64829
5136.25,0.65143
5130.46,0.65493
5124.68,0.65729
5118.89,0.65845
5113.1,0.66293
5107.32,0.66637
5101.53,0.66807
5095.75,0.67111
5089.96,0.67363
5084.17,0.67613
5078.39,0.67941
5072.6,0.68140
5066.81,0.68413
5061.03,0.68561
5055.24,0.68744
5049.46,0.69069
5043.67,0.69092
5037.88,0.69273
5032.1,0.69299
5026.31,0.69559
5020.52,0.69647
5014.74,0.69707
5008.95,0.69589
5003.17,0.69513
4997.38,0.69467
4991.59,0.69254
4985.81,0.69249
4980.02,0.69080
4974.23,0.68814
4968.45,0.68490
4962.66,0.68230
4956.88,0.67800
4951.09,0.67308
4945.3,0.66789
4939.52,0.66342
4933.73,0.65646
4927.94,0.65071
4922.16,0.64325
4916.37,0.63794
4910.59,0.63242
4904.8,0.62489
4899.01,0.61937
4893.23,0.61186
4887.44,0.60700
4881.65,0.60010
4875.87,0.59412
4870.08,0.58948
4864.3,0.58375
4858.51,0.57789
4852.72,0.57471
4846.94,0.57044
4841.15,0.56641
4835.36,0.56312
4829.58,0.55848
4823.79,0.55527
4818.01,0.55209
4812.22,0.55037
4806.43,0.54781
4800.65,0.54633
4794.86,0.54446
4789.07,0.54402
4783.29,0.54319
4777.5,0.54324
4771.72,0.54299
4765.93,0.54053
4760.14,0.54154
4754.36,0.54046
4748.57,0.54161
4742.78,0.54279
4737,0.54221
4731.21,0.54354
4725.43,0.54353
4719.64,0.54413
4713.85,0.54627
4708.07,0.54673
4702.28,0.54901
4696.49,0.54971
4690.71,0.55038
4684.92,0.55244
4679.14,0.55411
4673.35,0.55551
4667.56,0.55863
4661.78,0.56218
4655.99,0.56344
4650.2,0.56664
4644.42,0.56895
4638.63,0.57129
4632.85,0.57323
4627.06,0.57674
4621.27,0.57809
4615.49,0.58146
4609.7,0.58475
4603.92,0.58566
4598.13,0.58852
4592.34,0.58928
4586.56,0.59156
4580.77,0.59280
4574.98,0.59461
4569.2,0.59710
4563.41,0.59753
4557.63,0.59911
4551.84,0.60107
4546.05,0.60285
4540.27,0.60512
4534.48,0.60476
4528.69,0.60636
4522.91,0.60637
4517.12,0.60769
4511.34,0.60639
4505.55,0.60561
4499.76,0.60428
4493.98,0.60051
4488.19,0.59624
4482.4,0.59182
4476.62,0.58710
4470.83,0.57939
4465.05,0.57320
4459.26,0.56468
4453.47,0.55725
4447.69,0.54843
4441.9,0.54055
4436.11,0.53292
4430.33,0.52630
4424.54,0.52047
4418.76,0.51644
4412.97,0.51103
4407.18,0.50819
4401.4,0.50609
4395.61,0.50485
4389.82,0.50547
4384.04,0.50812
4378.25,0.50895
4372.47,0.51170
4366.68,0.51428
4360.89,0.51562
4355.11,0.51536
4349.32,0.51320
4343.53,0.51013
4337.75,0.50815
4331.96,0.50471
4326.18,0.50170
4320.39,0.49851
4314.6,0.49693
4308.82,0.49502
4303.03,0.49275
4297.24,0.49063
4291.46,0.48896
4285.67,0.48853
4279.89,0.48832
4274.1,0.48758
4268.31,0.48855
4262.53,0.48954
4256.74,0.49129
4250.95,0.49213
4245.17,0.49363
4239.38,0.49450
4233.6,0.49595
4227.81,0.49659
4222.02,0.49705
4216.24,0.49758
4210.45,0.49813
4204.66,0.49983
4198.88,0.49944
4193.09,0.50003
4187.31,0.50006
4181.52,0.50141
4175.73,0.50314
4169.95,0.50418
4164.16,0.50457
4158.37,0.50461
4152.59,0.50301
4146.8,0.50099
4141.02,0.49874
4135.23,0.49536
4129.44,0.49120
4123.66,0.48681
4117.87,0.48239
4112.09,0.47719
4106.3,0.47166
4100.51,0.46555
4094.73,0.45964
4088.94,0.45406
4083.15,0.44752
4077.37,0.44099
4071.58,0.43372
4065.8,0.42664
4060.01,0.42087
4054.22,0.41391
4048.44,0.40810
4042.65,0.40337
4036.86,0.39798
4031.08,0.39386
4025.29,0.39082
4019.51,0.38841
4013.72,0.38863
4007.93,0.38837
4002.15,0.38966
3996.36,0.39179
3990.57,0.39438
3984.79,0.39609
3979,0.39872
3973.22,0.40120
3967.43,0.40358
3961.64,0.40756
3955.86,0.41033
3950.07,0.41348
3944.28,0.41651
3938.5,0.42019
3932.71,0.42333
3926.93,0.42649
3921.14,0.42987
3915.35,0.43326
3909.57,0.43710
3903.78,0.44018
3897.99,0.44438
3892.21,0.44684
3886.42,0.45087
3880.64,0.45344
3874.85,0.45649
3869.06,0.46092
3863.28,0.46429
3857.49,0.46730
3851.7,0.47307
3845.92,0.47480
3840.13,0.47879
3834.35,0.48178
3828.56,0.48228
3822.77,0.48406
3816.99,0.48485
3811.2,0.48407
3805.41,0.48481
3799.63,0.48523
3793.84,0.48392
3788.06,0.48408
3782.27,0.48366
3776.48,0.48302
3770.7,0.48148
3764.91,0.48006
3759.12,0.47836
3753.34,0.47654
3747.55,0.47592
3741.77,0.47187
3735.98,0.46796
3730.19,0.46294
3724.41,0.45711
3718.62,0.44986
3712.83,0.44247
3707.05,0.43223
3701.26,0.42093
3695.48,0.40644
3689.69,0.38926
3683.9,0.36766
3678.12,0.34441
3672.33,0.31733
3666.54,0.28967
3660.76,0.26469
3654.97,0.24211
3649.19,0.22100
3643.4,0.20238
3637.61,0.18626
3631.83,0.17279
3626.04,0.15926
3620.25,0.14837
3614.47,0.13803
3608.68,0.12740
3602.9,0.11843
3597.11,0.11122
3591.32,0.10430
3585.54,0.09704
3579.75,0.09188
3573.97,0.08764
3568.18,0.08273
3562.39,0.07890
3556.61,0.07632
3550.82,0.07263
3545.03,0.06898
3539.25,0.06708
3533.46,0.06469
3527.68,0.06358
3521.89,0.06063
3516.1,0.05912
3510.32,0.05731
3504.53,0.05530
3498.74,0.05422
3492.96,0.05278
3487.17,0.05197
3481.39,0.05113
3475.6,0.04951
3469.81,0.04859
3464.03,0.04803
3458.24,0.04673
3452.45,0.04692
3446.67,0.04613
3440.88,0.04591
3435.1,0.04583
3429.31,0.04573
3423.52,0.04568
3417.74,0.04529
3411.95,0.04497
3406.16,0.04562
3400.38,0.04598
3394.59,0.04560
3388.81,0.04627
3383.02,0.04619
3377.23,0.04669
3371.45,0.04684
3365.66,0.04785
3359.87,0.04805
3354.09,0.04794
3348.3,0.04794
3342.52,0.04848
3336.73,0.04919
3330.94,0.05035
3325.16,0.05013
3319.37,0.05209
3313.58,0.05206
3307.8,0.05408
3302.01,0.05434
3296.23,0.05517
3290.44,0.05604
3284.65,0.05786
3278.87,0.05886
3273.08,0.05979
3267.29,0.06103
3261.51,0.06274
3255.72,0.06456
3249.94,0.06636
3244.15,0.06821
3238.36,0.07034
3232.58,0.07154
3226.79,0.07353
3221,0.07588
3215.22,0.07690
3209.43,0.08011
3203.65,0.08126
3197.86,0.08272
3192.07,0.08455
3186.29,0.08748
3180.5,0.08884
3174.71,0.09122
3168.93,0.09276
3163.14,0.09512
3157.36,0.09753
3151.57,0.09899
3145.78,0.10179
3140,0.10399
3134.21,0.10537
3128.42,0.10768
3122.64,0.11001
3116.85,0.11200
3111.07,0.11410
3105.28,0.11633
3099.49,0.11838
3093.71,0.12025
3087.92,0.12193
3082.14,0.12457
3076.35,0.12613
3070.56,0.12842
3064.78,0.13020
3058.99,0.13282
3053.2,0.13532
3047.42,0.13733
3041.63,0.13879
3035.85,0.13910
3030.06,0.13997
3024.27,0.13959
3018.49,0.13853
3012.7,0.13757
3006.91,0.13522
3001.13,0.13288
2995.34,0.13040
2989.56,0.12730
2983.77,0.12190
2977.98,0.11578
2972.2,0.10995
2966.41,0.10525
2960.62,0.10127
2954.84,0.09718
2949.05,0.09256
2943.27,0.08885
2937.48,0.08733
2931.69,0.08841
2925.91,0.08803
2920.12,0.08825
2914.33,0.08919
2908.55,0.08819
2902.76,0.08798
2896.98,0.08789
2891.19,0.08889
2885.4,0.09045
2879.62,0.09108
2873.83,0.09300
2868.04,0.09453
2862.26,0.09751
2856.47,0.10045
2850.69,0.10401
2844.9,0.11195
2839.11,0.11803
2833.33,0.12456
2827.54,0.13130
2821.75,0.13725
2815.97,0.14206
2810.18,0.14704
2804.4,0.15125
2798.61,0.15497
2792.82,0.15774
2787.04,0.16025
2781.25,0.16170
2775.46,0.16361
2769.68,0.16535
2763.89,0.16715
2758.11,0.16843
2752.32,0.16925
2746.53,0.16970
2740.75,0.17076
2734.96,0.17147
2729.17,0.17309
2723.39,0.17446
2717.6,0.17629
2711.82,0.17877
2706.03,0.18161
2700.24,0.18463
2694.46,0.18701
2688.67,0.18933
2682.88,0.19198
2677.1,0.19442
2671.31,0.19742
2665.53,0.19958
2659.74,0.20177
2653.95,0.20395
2648.17,0.20584
2642.38,0.20856
2636.59,0.21111
2630.81,0.21386
2625.02,0.21719
2619.24,0.22015
2613.45,0.22226
2607.66,0.22442
2601.88,0.22671
2596.09,0.22895
2590.3,0.23142
2584.52,0.23348
2578.73,0.23517
2572.95,0.23645
2567.16,0.23691
2561.37,0.23800
2555.59,0.23882
2549.8,0.23995
2544.02,0.24098
2538.23,0.24300
2532.44,0.24464
2526.66,0.24664
2520.87,0.24813
2515.08,0.24970
2509.3,0.25193
2503.51,0.25448
2497.73,0.25770
2491.94,0.26060
2486.15,0.26372
2480.37,0.26654
2474.58,0.26927
2468.79,0.27226
2463.01,0.27468
2457.22,0.27797
2451.44,0.28091
2445.65,0.28445
2439.86,0.28779
2434.08,0.29150
2428.29,0.29528
2422.5,0.29984
2416.72,0.30327
2410.93,0.30742
2405.15,0.31114
2399.36,0.31530
2393.57,0.31905
2387.79,0.32230
2382,0.32514
2376.21,0.32799
2370.43,0.33065
2364.64,0.33371
2358.86,0.33627
2353.07,0.33882
2347.28,0.34204
2341.5,0.34477
2335.71,0.34642
2329.92,0.34802
2324.14,0.34948
2318.35,0.35179
2312.57,0.35239
2306.78,0.35222
2300.99,0.35192
2295.21,0.35157
2289.42,0.35158
2283.63,0.35187
2277.85,0.35121
2272.06,0.35038
2266.28,0.34902
2260.49,0.34724
2254.7,0.34623
2248.92,0.34495
2243.13,0.34484
2237.34,0.34433
2231.56,0.34458
2225.77,0.34525
2219.99,0.34582
2214.2,0.34617
2208.41,0.34562
2202.63,0.34445
2196.84,0.34264
2191.05,0.34009
2185.27,0.33598
2179.48,0.33130
2173.7,0.32704
2167.91,0.32235
2162.12,0.31872
2156.34,0.31625
2150.55,0.31393
2144.76,0.31268
2138.98,0.31183
2133.19,0.31178
2127.41,0.31297
2121.62,0.31508
2115.83,0.31747
2110.05,0.31988
2104.26,0.32237
2098.47,0.32500
2092.69,0.32787
2086.9,0.32998
2081.12,0.33126
2075.33,0.33142
2069.54,0.33136
2063.76,0.33149
2057.97,0.33218
2052.19,0.33312
2046.4,0.33432
2040.61,0.33651
2034.83,0.33961
2029.04,0.34314
2023.25,0.34746
2017.47,0.35218
2011.68,0.35782
2005.9,0.36166
2000.11,0.36529
1994.32,0.36837
1988.54,0.37132
1982.75,0.37315
1976.96,0.37428
1971.18,0.37462
1965.39,0.37568
1959.61,0.37647
1953.82,0.37774
1948.03,0.37973
1942.25,0.38279
1936.46,0.38663
1930.67,0.39009
1924.89,0.39327
1919.1,0.39567
1913.32,0.39755
1907.53,0.39858
1901.74,0.39823
1895.96,0.39815
1890.17,0.39850
1884.38,0.39820
1878.6,0.39701
1872.81,0.39586
1867.03,0.39420
1861.24,0.39159
1855.45,0.38888
1849.67,0.38592
1843.88,0.38307
1838.09,0.37877
1832.31,0.37419
1826.52,0.36900
1820.74,0.36212
1814.95,0.35470
1809.16,0.34611
1803.38,0.33524
1797.59,0.32230
1791.8,0.30789
1786.02,0.29053
1780.23,0.27039
1774.45,0.24669
1768.66,0.21434
1762.87,0.18166
1757.09,0.15255
1751.3,0.12994
1745.51,0.11300
1739.73,0.10522
1733.94,0.10478
1728.16,0.10700
1722.37,0.11132
1716.58,0.11696
1710.8,0.12176
1705.01,0.12662
1699.22,0.13016
1693.44,0.13035
1687.65,0.12943
1681.87,0.12531
1676.08,0.11825
1670.29,0.10726
1664.51,0.09507
1658.72,0.08604
1652.93,0.08557
1647.15,0.08916
1641.36,0.09078
1635.58,0.08999
1629.79,0.08713
1624,0.08368
1618.22,0.08055
1612.43,0.07878
1606.64,0.07650
1600.86,0.07594
1595.07,0.07601
1589.29,0.07985
1583.5,0.08795
1577.71,0.09673
1571.93,0.10547
1566.14,0.11332
1560.35,0.12012
1554.57,0.12501
1548.78,0.12749
1543,0.12923
1537.21,0.12724
1531.42,0.11930
1525.64,0.10432
1519.85,0.08494
1514.07,0.07433
1508.28,0.07374
1502.49,0.07382
1496.71,0.07685
1490.92,0.08261
1485.13,0.08518
1479.35,0.07984
1473.56,0.06911
1467.78,0.05993
1461.99,0.05865
1456.2,0.05860
1450.42,0.05918
1444.63,0.05980
1438.84,0.05789
1433.06,0.05413
1427.27,0.05296
1421.49,0.05499
1415.7,0.05843
1409.91,0.06036
1404.13,0.06001
1398.34,0.05832
1392.55,0.05464
1386.77,0.05107
1380.98,0.04769
1375.2,0.04656
1369.41,0.04752
1363.62,0.04910
1357.84,0.05085
1352.05,0.05240
1346.26,0.05273
1340.48,0.05121
1334.69,0.05077
1328.91,0.05044
1323.12,0.05035
1317.33,0.05093
1311.55,0.05238
1305.76,0.05395
1299.97,0.05541
1294.19,0.05466
1288.4,0.05214
1282.62,0.04970
1276.83,0.04791
1271.04,0.04558
1265.26,0.04434
1259.47,0.04460
1253.68,0.04519
1247.9,0.04655
1242.11,0.04800
1236.33,0.04989
1230.54,0.05221
1224.75,0.05429
1218.97,0.05605
1213.18,0.05600
1207.39,0.05476
1201.61,0.05410
1195.82,0.05456
1190.04,0.05271
1184.25,0.04869
1178.46,0.04584
1172.68,0.04519
1166.89,0.04833
1161.1,0.05130
1155.32,0.05384
1149.53,0.05408
1143.75,0.05359
1137.96,0.05141
1132.17,0.05028
1126.39,0.05273
1120.6,0.05604
1114.81,0.05971
1109.03,0.06501
1103.24,0.06821
1097.46,0.06982
1091.67,0.07122
1085.88,0.07180
1080.1,0.07213
1074.31,0.07204
1068.52,0.07247
1062.74,0.07396
1056.95,0.07691
1051.17,0.08144
1045.38,0.08448
1039.59,0.08651
1033.81,0.08805
1028.02,0.08724
1022.24,0.08500
1016.45,0.08372
1010.66,0.08311
1004.88,0.08210
999.09,0.08307
993.304,0.08434
987.518,0.08885
981.731,0.09610
975.945,0.10218
970.159,0.10772
964.373,0.11469
958.586,0.12411
952.8,0.13663
947.014,0.14699
941.228,0.15430
935.441,0.15773
929.655,0.15940
923.869,0.16041
918.083,0.15848
912.297,0.15248
906.51,0.14329
900.724,0.13215
894.938,0.13603
889.152,0.15243
883.365,0.16663
877.579,0.17214
871.793,0.17422
866.007,0.17489
860.22,0.17461
854.434,0.17010
848.648,0.16486
842.862,0.15892
837.075,0.15947
831.289,0.16313
825.503,0.16669
819.717,0.16740
813.931,0.16865
808.144,0.16977
802.358,0.17158
796.572,0.17064
790.786,0.16911
784.999,0.16560
779.213,0.16210
773.427,0.15685
767.641,0.15399
761.854,0.14962
756.068,0.14514
750.282,0.13966
744.496,0.13541
738.709,0.13164
732.923,0.12815
727.137,0.12530
721.351,0.12104
715.565,0.11963
709.778,0.11750
703.992,0.11618
698.206,0.11447
692.42,0.11213
686.633,0.10914
680.847,0.10330
675.061,0.10053
669.275,0.09999
663.488,0.10109
657.702,0.10185
651.916,0.10419
646.13,0.10207
640.343,0.10242
634.557,0.10032
628.771,0.10170
622.985,0.09831
617.198,0.10145
611.412,0.10487
605.626,0.10878
599.84,0.11015