File: 01_Data/Straw/FTIR/IS/Straw_IS_T_221109_R2.dpt
7497.03,0.02096
7491.25,0.02475
7485.46,0.02809
7479.67,0.01605
7473.89,0.02232
7468.1,0.02814
7462.32,0.02685
7456.53,0.02830
7450.74,0.02905
7444.96,0.02359
7439.17,0.02650
7433.38,0.02320
7427.6,0.02849
7421.81,0.02665
7416.03,0.02580
7410.24,0.02417
7404.45,0.01661
7398.67,0.02716
7392.88,0.02594
7387.09,0.01764
7381.31,0.02491
7375.52,0.02577
7369.74,0.02296
7363.95,0.02128
7358.16,0.01768
7352.38,0.02310
7346.59,0.01903
7340.8,0.01209
7335.02,0.01748
7329.23,0.01464
7323.45,0.02474
7317.66,0.02134
7311.87,0.02457
7306.09,0.02466
7300.3,0.01928
7294.51,0.01725
7288.73,0.02881
7282.94,0.02250
7277.16,0.02328
7271.37,0.02607
7265.58,0.02055
7259.8,0.02242
7254.01,0.02411
7248.22,0.02170
7242.44,0.02193
7236.65,0.02240
7230.87,0.02256
7225.08,0.01873
7219.29,0.02256
7213.51,0.01717
7207.72,0.02872
7201.93,0.02750
7196.15,0.02260
7190.36,0.01899
7184.58,0.02153
7178.79,0.02047
7173,0.02431
7167.22,0.03008
7161.43,0.02384
7155.65,0.02624
7149.86,0.02222
7144.07,0.02278
7138.29,0.02841
7132.5,0.02564
7126.71,0.02112
7120.93,0.02662
7115.14,0.02509
7109.36,0.03259
7103.57,0.02497
7097.78,0.02165
7092,0.02798
7086.21,0.01488
7080.42,0.02300
7074.64,0.02331
7068.85,0.02348
7063.07,0.02320
7057.28,0.01968
7051.49,0.01850
7045.71,0.02532
7039.92,0.02168
7034.13,0.03155
7028.35,0.02604
7022.56,0.02381
7016.78,0.02597
7010.99,0.02055
7005.2,0.02558
6999.42,0.02284
6993.63,0.02200
6987.84,0.02367
6982.06,0.02306
6976.27,0.01843
6970.49,0.01859
6964.7,0.02240
6958.91,0.02968
6953.13,0.02637
6947.34,0.02298
6941.55,0.01987
6935.77,0.03168
6929.98,0.02532
6924.2,0.01785
6918.41,0.02165
6912.62,0.01951
6906.84,0.02770
6901.05,0.02438
6895.26,0.02111
6889.48,0.02575
6883.69,0.02362
6877.91,0.02223
6872.12,0.02505
6866.33,0.03107
6860.55,0.02480
6854.76,0.02498
6848.97,0.02067
6843.19,0.02117
6837.4,0.01882
6831.62,0.01743
6825.83,0.02715
6820.04,0.01960
6814.26,0.02412
6808.47,0.02432
6802.68,0.01864
6796.9,0.03101
6791.11,0.02557
6785.33,0.02337
6779.54,0.02466
6773.75,0.01858
6767.97,0.01907
6762.18,0.02656
6756.39,0.01966
6750.61,0.02476
6744.82,0.02170
6739.04,0.02276
6733.25,0.02049
6727.46,0.02274
6721.68,0.01824
6715.89,0.02590
6710.1,0.02449
6704.32,0.02652
6698.53,0.02142
6692.75,0.02426
6686.96,0.02084
6681.17,0.02159
6675.39,0.02015
6669.6,0.02424
6663.82,0.02327
6658.03,0.02452
6652.24,0.02078
6646.46,0.01852
6640.67,0.01767
6634.88,0.02311
6629.1,0.02463
6623.31,0.02577
6617.53,0.02642
6611.74,0.01904
6605.95,0.01958
6600.17,0.02211
6594.38,0.02563
6588.59,0.02117
6582.81,0.02170
6577.02,0.02400
6571.24,0.02076
6565.45,0.01740
6559.66,0.02070
6553.88,0.02571
6548.09,0.02162
6542.3,0.01774
6536.52,0.01973
6530.73,0.01856
6524.95,0.02015
6519.16,0.02201
6513.37,0.02189
6507.59,0.01894
6501.8,0.02306
6496.01,0.02648
6490.23,0.02301
6484.44,0.02198
6478.66,0.02062
6472.87,0.01916
6467.08,0.02102
6461.3,0.01944
6455.51,0.02402
6449.72,0.02170
6443.94,0.02235
6438.15,0.02167
6432.37,0.02592
6426.58,0.02496
6420.79,0.02468
6415.01,0.02215
6409.22,0.02116
6403.43,0.02627
6397.65,0.02083
6391.86,0.02098
6386.08,0.02208
6380.29,0.02570
6374.5,0.02232
6368.72,0.01857
6362.93,0.02219
6357.14,0.01995
6351.36,0.02173
6345.57,0.01940
6339.79,0.02218
6334,0.01995
6328.21,0.02261
6322.43,0.01800
6316.64,0.02290
6310.85,0.02295
6305.07,0.02039
6299.28,0.02260
6293.5,0.01756
6287.71,0.02096
6281.92,0.02500
6276.14,0.02196
6270.35,0.02359
6264.56,0.02047
6258.78,0.02425
6252.99,0.01820
6247.21,0.01703
6241.42,0.02069
6235.63,0.02317
6229.85,0.02139
6224.06,0.02510
6218.27,0.02182
6212.49,0.01857
6206.7,0.02334
6200.92,0.02462
6195.13,0.02673
6189.34,0.02102
6183.56,0.02225
6177.77,0.02350
6171.98,0.02501
6166.2,0.02058
6160.41,0.01993
6154.63,0.02269
6148.84,0.02232
6143.05,0.02117
6137.27,0.02171
6131.48,0.01824
6125.7,0.02022
6119.91,0.02444
6114.12,0.02406
6108.34,0.02615
6102.55,0.02183
6096.76,0.02587
6090.98,0.02249
6085.19,0.02005
6079.41,0.02321
6073.62,0.02156
6067.83,0.02055
6062.05,0.02100
6056.26,0.02124
6050.47,0.02369
6044.69,0.02296
6038.9,0.02001
6033.12,0.02235
6027.33,0.02123
6021.54,0.02001
6015.76,0.02052
6009.97,0.02055
6004.18,0.02025
5998.4,0.01905
5992.61,0.01860
5986.83,0.02096
5981.04,0.02226
5975.25,0.02329
5969.47,0.01923
5963.68,0.02092
5957.89,0.02137
5952.11,0.02185
5946.32,0.02067
5940.54,0.01997
5934.75,0.01916
5928.96,0.02205
5923.18,0.02029
5917.39,0.02360
5911.6,0.02086
5905.82,0.02128
5900.03,0.02291
5894.25,0.02127
5888.46,0.02162
5882.67,0.02442
5876.89,0.02257
5871.1,0.02366
5865.31,0.01950
5859.53,0.02005
5853.74,0.02264
5847.96,0.02505
5842.17,0.02245
5836.38,0.02065
5830.6,0.02289
5824.81,0.02143
5819.02,0.02248
5813.24,0.02196
5807.45,0.02018
5801.67,0.02132
5795.88,0.02084
5790.09,0.02278
5784.31,0.02204
5778.52,0.02192
5772.73,0.01969
5766.95,0.02001
5761.16,0.02172
5755.38,0.01921
5749.59,0.02271
5743.8,0.02029
5738.02,0.02228
5732.23,0.02228
5726.44,0.02156
5720.66,0.02024
5714.87,0.02185
5709.09,0.02191
5703.3,0.02306
5697.51,0.01960
5691.73,0.02301
5685.94,0.02259
5680.15,0.02186
5674.37,0.02191
5668.58,0.02116
5662.8,0.02120
5657.01,0.02210
5651.22,0.02258
5645.44,0.02098
5639.65,0.02307
5633.87,0.02239
5628.08,0.02240
5622.29,0.02135
5616.51,0.01952
5610.72,0.02113
5604.93,0.02079
5599.15,0.02219
5593.36,0.01806
5587.58,0.02193
5581.79,0.02073
5576,0.02046
5570.22,0.02090
5564.43,0.02400
5558.64,0.02108
5552.86,0.02249
5547.07,0.02094
5541.29,0.02084
5535.5,0.02190
5529.71,0.02193
5523.93,0.02091
5518.14,0.02226
5512.35,0.02191
5506.57,0.02150
5500.78,0.02287
5495,0.02376
5489.21,0.02198
5483.42,0.02351
5477.64,0.02283
5471.85,0.02334
5466.06,0.02372
5460.28,0.02163
5454.49,0.02234
5448.71,0.02239
5442.92,0.02272
5437.13,0.02252
5431.35,0.02119
5425.56,0.02116
5419.77,0.02089
5413.99,0.02044
5408.2,0.02144
5402.42,0.02126
5396.63,0.02130
5390.84,0.02183
5385.06,0.02109
5379.27,0.02102
5373.48,0.02139
5367.7,0.02087
5361.91,0.01975
5356.13,0.02170
5350.34,0.02090
5344.55,0.02198
5338.77,0.02248
5332.98,0.02081
5327.19,0.02111
5321.41,0.02155
5315.62,0.02192
5309.84,0.01975
5304.05,0.02093
5298.26,0.02182
5292.48,0.02145
5286.69,0.02226
5280.9,0.02161
5275.12,0.02188
5269.33,0.02156
5263.55,0.02281
5257.76,0.02178
5251.97,0.02241
5246.19,0.02309
5240.4,0.02322
5234.61,0.02155
5228.83,0.02100
5223.04,0.02105
5217.26,0.02123
5211.47,0.02199
5205.68,0.02198
5199.9,0.02178
5194.11,0.02142
5188.32,0.02183
5182.54,0.02325
5176.75,0.02258
5170.97,0.02258
5165.18,0.02214
5159.39,0.02050
5153.61,0.02268
5147.82,0.02170
5142.03,0.02136
5136.25,0.02222
5130.46,0.02121
5124.68,0.02111
5118.89,0.02355
5113.1,0.02256
5107.32,0.02352
5101.53,0.02176
5095.75,0.02244
5089.96,0.02300
5084.17,0.02240
5078.39,0.02148
5072.6,0.02143
5066.81,0.02169
5061.03,0.02201
5055.24,0.02172
5049.46,0.02300
5043.67,0.02025
5037.88,0.01943
5032.1,0.02066
5026.31,0.02214
5020.52,0.02147
5014.74,0.02290
5008.95,0.02183
5003.17,0.02027
4997.38,0.02165
4991.59,0.02214
4985.81,0.02271
4980.02,0.02206
4974.23,0.02224
4968.45,0.02081
4962.66,0.02112
4956.88,0.02235
4951.09,0.02165
4945.3,0.02205
4939.52,0.02206
4933.73,0.02244
4927.94,0.02246
4922.16,0.02138
4916.37,0.02211
4910.59,0.02171
4904.8,0.02126
4899.01,0.02128
4893.23,0.02170
4887.44,0.02214
4881.65,0.02076
4875.87,0.02250
4870.08,0.02295
4864.3,0.02097
4858.51,0.02096
4852.72,0.02286
4846.94,0.02174
4841.15,0.02160
4835.36,0.02222
4829.58,0.02127
4823.79,0.02216
4818.01,0.02229
4812.22,0.02225
4806.43,0.02174
4800.65,0.02257
4794.86,0.02168
4789.07,0.02330
4783.29,0.02227
4777.5,0.02120
4771.72,0.02115
4765.93,0.02252
4760.14,0.02125
4754.36,0.02248
4748.57,0.02146
4742.78,0.02305
4737,0.02162
4731.21,0.02205
4725.43,0.02109
4719.64,0.02217
4713.85,0.02211
4708.07,0.02352
4702.28,0.02302
4696.49,0.02337
4690.71,0.02194
4684.92,0.02191
4679.14,0.02267
4673.35,0.02128
4667.56,0.02247
4661.78,0.02210
4655.99,0.02270
4650.2,0.02305
4644.42,0.02266
4638.63,0.02280
4632.85,0.02167
4627.06,0.02202
4621.27,0.02093
4615.49,0.02200
4609.7,0.02165
4603.92,0.02263
4598.13,0.02201
4592.34,0.02234
4586.56,0.02148
4580.77,0.02075
4574.98,0.02203
4569.2,0.02209
4563.41,0.02206
4557.63,0.02240
4551.84,0.02182
4546.05,0.02235
4540.27,0.02238
4534.48,0.02249
4528.69,0.02218
4522.91,0.02182
4517.12,0.02320
4511.34,0.02249
4505.55,0.02254
4499.76,0.02120
4493.98,0.02245
4488.19,0.02170
4482.4,0.02250
4476.62,0.02164
4470.83,0.02191
4465.05,0.02191
4459.26,0.02176
4453.47,0.02241
4447.69,0.02171
4441.9,0.02267
4436.11,0.02180
4430.33,0.02206
4424.54,0.02275
4418.76,0.02285
4412.97,0.02216
4407.18,0.02252
4401.4,0.02190
4395.61,0.02274
4389.82,0.02206
4384.04,0.02208
4378.25,0.02170
4372.47,0.02166
4366.68,0.02256
4360.89,0.02310
4355.11,0.02255
4349.32,0.02230
4343.53,0.02181
4337.75,0.02260
4331.96,0.02200
4326.18,0.02184
4320.39,0.02324
4314.6,0.02232
4308.82,0.02197
4303.03,0.02248
4297.24,0.02271
4291.46,0.02208
4285.67,0.02235
4279.89,0.02333
4274.1,0.02243
4268.31,0.02255
4262.53,0.02218
4256.74,0.02309
4250.95,0.02214
4245.17,0.02212
4239.38,0.02235
4233.6,0.02198
4227.81,0.02253
4222.02,0.02173
4216.24,0.02189
4210.45,0.02247
4204.66,0.02227
4198.88,0.02176
4193.09,0.02170
4187.31,0.02275
4181.52,0.02290
4175.73,0.02172
4169.95,0.02153
4164.16,0.02206
4158.37,0.02278
4152.59,0.02249
4146.8,0.02274
4141.02,0.02223
4135.23,0.02238
4129.44,0.02248
4123.66,0.02289
4117.87,0.02244
4112.09,0.02269
4106.3,0.02293
4100.51,0.02288
4094.73,0.02165
4088.94,0.02189
4083.15,0.02217
4077.37,0.02190
4071.58,0.02314
4065.8,0.02210
4060.01,0.02227
4054.22,0.02159
4048.44,0.02250
4042.65,0.02236
4036.86,0.02262
4031.08,0.02274
4025.29,0.02266
4019.51,0.02235
4013.72,0.02265
4007.93,0.02216
4002.15,0.02302
3996.36,0.02265
3990.57,0.02244
3984.79,0.02263
3979,0.02245
3973.22,0.02242
3967.43,0.02244
3961.64,0.02329
3955.86,0.02274
3950.07,0.02275
3944.28,0.02271
3938.5,0.02193
3932.71,0.02264
3926.93,0.02242
3921.14,0.02277
3915.35,0.02313
3909.57,0.02332
3903.78,0.02307
3897.99,0.02162
3892.21,0.02236
3886.42,0.02236
3880.64,0.02290
3874.85,0.02335
3869.06,0.02205
3863.28,0.02222
3857.49,0.02212
3851.7,0.02247
3845.92,0.02346
3840.13,0.02276
3834.35,0.02294
3828.56,0.02294
3822.77,0.02293
3816.99,0.02185
3811.2,0.02270
3805.41,0.02294
3799.63,0.02314
3793.84,0.02248
3788.06,0.02264
3782.27,0.02251
3776.48,0.02247
3770.7,0.02248
3764.91,0.02301
3759.12,0.02268
3753.34,0.02310
3747.55,0.02315
3741.77,0.02300
3735.98,0.02273
3730.19,0.02275
3724.41,0.02229
3718.62,0.02219
3712.83,0.02290
3707.05,0.02236
3701.26,0.02220
3695.48,0.02283
3689.69,0.02237
3683.9,0.02275
3678.12,0.02269
3672.33,0.02296
3666.54,0.02235
3660.76,0.02253
3654.97,0.02248
3649.19,0.02188
3643.4,0.02251
3637.61,0.02206
3631.83,0.02226
3626.04,0.02217
3620.25,0.02214
3614.47,0.02226
3608.68,0.02131
3602.9,0.02255
3597.11,0.02185
3591.32,0.02220
3585.54,0.02204
3579.75,0.02168
3573.97,0.02088
3568.18,0.02154
3562.39,0.02160
3556.61,0.02194
3550.82,0.02125
3545.03,0.02130
3539.25,0.02110
3533.46,0.02091
3527.68,0.02125
3521.89,0.02142
3516.1,0.02107
3510.32,0.02107
3504.53,0.02122
3498.74,0.02073
3492.96,0.02123
3487.17,0.02034
3481.39,0.02082
3475.6,0.02075
3469.81,0.02089
3464.03,0.02110
3458.24,0.02064
3452.45,0.02087
3446.67,0.02086
3440.88,0.02096
3435.1,0.02074
3429.31,0.02030
3423.52,0.02016
3417.74,0.02044
3411.95,0.02056
3406.16,0.02053
3400.38,0.01999
3394.59,0.02010
3388.81,0.02061
3383.02,0.02085
3377.23,0.02031
3371.45,0.02049
3365.66,0.02007
3359.87,0.02011
3354.09,0.01974
3348.3,0.02039
3342.52,0.02007
3336.73,0.02025
3330.94,0.02097
3325.16,0.02106
3319.37,0.02091
3313.58,0.02083
3307.8,0.02059
3302.01,0.02097
3296.23,0.02062
3290.44,0.01998
3284.65,0.02018
3278.87,0.02033
3273.08,0.02068
3267.29,0.02031
3261.51,0.02035
3255.72,0.02092
3249.94,0.02095
3244.15,0.02043
3238.36,0.02100
3232.58,0.02096
3226.79,0.02128
3221,0.02156
3215.22,0.02072
3209.43,0.02100
3203.65,0.02097
3197.86,0.02069
3192.07,0.02075
3186.29,0.02102
3180.5,0.02082
3174.71,0.02053
3168.93,0.02042
3163.14,0.02090
3157.36,0.02181
3151.57,0.02092
3145.78,0.02121
3140,0.02073
3134.21,0.02118
3128.42,0.02142
3122.64,0.02138
3116.85,0.02112
3111.07,0.02154
3105.28,0.02112
3099.49,0.02090
3093.71,0.02086
3087.92,0.02112
3082.14,0.02043
3076.35,0.02119
3070.56,0.02093
3064.78,0.02068
3058.99,0.02088
3053.2,0.02087
3047.42,0.02055
3041.63,0.02021
3035.85,0.02055
3030.06,0.02055
3024.27,0.02020
3018.49,0.02090
3012.7,0.02060
3006.91,0.02078
3001.13,0.02011
2995.34,0.02037
2989.56,0.02001
2983.77,0.02006
2977.98,0.01992
2972.2,0.02007
2966.41,0.01946
2960.62,0.02017
2954.84,0.01986
2949.05,0.01998
2943.27,0.01978
2937.48,0.01965
2931.69,0.01975
2925.91,0.02003
2920.12,0.01991
2914.33,0.01997
2908.55,0.02050
2902.76,0.02084
2896.98,0.02107
2891.19,0.02096
2885.4,0.02122
2879.62,0.02104
2873.83,0.02042
2868.04,0.02088
2862.26,0.02058
2856.47,0.02096
2850.69,0.02054
2844.9,0.02090
2839.11,0.02132
2833.33,0.02146
2827.54,0.02179
2821.75,0.02207
2815.97,0.02152
2810.18,0.02117
2804.4,0.02146
2798.61,0.02205
2792.82,0.02175
2787.04,0.02160
2781.25,0.02157
2775.46,0.02128
2769.68,0.02134
2763.89,0.02174
2758.11,0.02165
2752.32,0.02146
2746.53,0.02163
2740.75,0.02154
2734.96,0.02148
2729.17,0.02128
2723.39,0.02112
2717.6,0.02138
2711.82,0.02136
2706.03,0.02155
2700.24,0.02200
2694.46,0.02139
2688.67,0.02173
2682.88,0.02152
2677.1,0.02167
2671.31,0.02182
2665.53,0.02157
2659.74,0.02195
2653.95,0.02135
2648.17,0.02153
2642.38,0.02183
2636.59,0.02155
2630.81,0.02151
2625.02,0.02136
2619.24,0.02127
2613.45,0.02145
2607.66,0.02177
2601.88,0.02137
2596.09,0.02154
2590.3,0.02175
2584.52,0.02199
2578.73,0.02170
2572.95,0.02195
2567.16,0.02152
2561.37,0.02175
2555.59,0.02134
2549.8,0.02159
2544.02,0.02162
2538.23,0.02138
2532.44,0.02141
2526.66,0.02135
2520.87,0.02117
2515.08,0.02159
2509.3,0.02160
2503.51,0.02125
2497.73,0.02172
2491.94,0.02140
2486.15,0.02133
2480.37,0.02149
2474.58,0.02158
2468.79,0.02182
2463.01,0.02137
2457.22,0.02137
2451.44,0.02120
2445.65,0.02134
2439.86,0.02121
2434.08,0.02160
2428.29,0.02153
2422.5,0.02158
2416.72,0.02147
2410.93,0.02155
2405.15,0.02142
2399.36,0.02118
2393.57,0.02097
2387.79,0.02141
2382,0.02130
2376.21,0.02107
2370.43,0.02190
2364.64,0.02150
2358.86,0.02177
2353.07,0.02172
2347.28,0.02144
2341.5,0.02165
2335.71,0.02154
2329.92,0.02182
2324.14,0.02165
2318.35,0.02195
2312.57,0.02134
2306.78,0.02173
2300.99,0.02156
2295.21,0.02170
2289.42,0.02145
2283.63,0.02122
2277.85,0.02127
2272.06,0.02118
2266.28,0.02102
2260.49,0.02112
2254.7,0.02150
2248.92,0.02152
2243.13,0.02121
2237.34,0.02145
2231.56,0.02148
2225.77,0.02123
2219.99,0.02164
2214.2,0.02126
2208.41,0.02140
2202.63,0.02148
2196.84,0.02107
2191.05,0.02158
2185.27,0.02138
2179.48,0.02129
2173.7,0.02094
2167.91,0.02148
2162.12,0.02101
2156.34,0.02152
2150.55,0.02137
2144.76,0.02126
2138.98,0.02148
2133.19,0.02149
2127.41,0.02146
2121.62,0.02107
2115.83,0.02132
2110.05,0.02123
2104.26,0.02123
2098.47,0.02142
2092.69,0.02122
2086.9,0.02139
2081.12,0.02146
2075.33,0.02135
2069.54,0.02130
2063.76,0.02111
2057.97,0.02125
2052.19,0.02131
2046.4,0.02170
2040.61,0.02119
2034.83,0.02124
2029.04,0.02128
2023.25,0.02104
2017.47,0.02100
2011.68,0.02146
2005.9,0.02137
2000.11,0.02130
1994.32,0.02128
1988.54,0.02113
1982.75,0.02146
1976.96,0.02109
1971.18,0.02110
1965.39,0.02104
1959.61,0.02130
1953.82,0.02133
1948.03,0.02083
1942.25,0.02114
1936.46,0.02121
1930.67,0.02103
1924.89,0.02104
1919.1,0.02098
1913.32,0.02100
1907.53,0.02090
1901.74,0.02099
1895.96,0.02103
1890.17,0.02089
1884.38,0.02088
1878.6,0.02110
1872.81,0.02069
1867.03,0.02075
1861.24,0.02068
1855.45,0.02096
1849.67,0.02093
1843.88,0.02068
1838.09,0.02049
1832.31,0.02087
1826.52,0.02076
1820.74,0.02064
1814.95,0.02035
1809.16,0.02023
1803.38,0.02038
1797.59,0.01987
1791.8,0.01968
1786.02,0.01946
1780.23,0.01950
1774.45,0.01943
1768.66,0.01909
1762.87,0.01865
1757.09,0.01806
1751.3,0.01756
1745.51,0.01799
1739.73,0.01932
1733.94,0.01989
1728.16,0.02068
1722.37,0.02113
1716.58,0.02105
1710.8,0.02074
1705.01,0.02051
1699.22,0.02030
1693.44,0.01991
1687.65,0.01920
1681.87,0.01912
1676.08,0.01900
1670.29,0.01932
1664.51,0.01860
1658.72,0.01881
1652.93,0.01923
1647.15,0.01874
1641.36,0.01891
1635.58,0.01866
1629.79,0.01895
1624,0.01899
1618.22,0.01914
1612.43,0.01909
1606.64,0.01895
1600.86,0.01915
1595.07,0.01904
1589.29,0.01889
1583.5,0.01883
1577.71,0.01914
1571.93,0.01844
1566.14,0.01860
1560.35,0.01907
1554.57,0.01809
1548.78,0.01847
1543,0.01892
1537.21,0.01906
1531.42,0.01870
1525.64,0.01861
1519.85,0.01907
1514.07,0.01896
1508.28,0.01919
1502.49,0.01891
1496.71,0.01898
1490.92,0.01909
1485.13,0.01891
1479.35,0.01911
1473.56,0.01849
1467.78,0.01873
1461.99,0.01896
1456.2,0.01868
1450.42,0.01899
1444.63,0.01934
1438.84,0.01915
1433.06,0.01884
1427.27,0.01862
1421.49,0.01895
1415.7,0.01875
1409.91,0.01857
1404.13,0.01812
1398.34,0.01837
1392.55,0.01834
1386.77,0.01860
1380.98,0.01822
1375.2,0.01839
1369.41,0.01852
1363.62,0.01860
1357.84,0.01841
1352.05,0.01853
1346.26,0.01820
1340.48,0.01826
1334.69,0.01810
1328.91,0.01792
1323.12,0.01754
1317.33,0.01773
1311.55,0.01725
1305.76,0.01732
1299.97,0.01776
1294.19,0.01798
1288.4,0.01816
1282.62,0.01920
1276.83,0.01896
1271.04,0.01932
1265.26,0.02008
1259.47,0.02048
1253.68,0.02080
1247.9,0.02041
1242.11,0.02027
1236.33,0.02008
1230.54,0.01998
1224.75,0.01964
1218.97,0.01938
1213.18,0.01930
1207.39,0.01864
1201.61,0.01904
1195.82,0.01878
1190.04,0.01892
1184.25,0.01852
1178.46,0.01820
1172.68,0.01825
1166.89,0.01810
1161.1,0.01785
1155.32,0.01781
1149.53,0.01776
1143.75,0.01831
1137.96,0.01838
1132.17,0.01840
1126.39,0.01811
1120.6,0.01952
1114.81,0.01882
1109.03,0.01867
1103.24,0.01794
1097.46,0.01849
1091.67,0.01814
1085.88,0.01844
1080.1,0.01859
1074.31,0.01929
1068.52,0.02015
1062.74,0.02047
1056.95,0.02003
1051.17,0.01963
1045.38,0.01953
1039.59,0.01985
1033.81,0.01975
1028.02,0.01987
1022.24,0.01975
1016.45,0.01969
1010.66,0.02050
1004.88,0.02119
999.09,0.02084
993.304,0.02208
987.518,0.02116
981.731,0.02110
975.945,0.02113
970.159,0.02018
964.373,0.01972
958.586,0.02003
952.8,0.01997
947.014,0.02020
941.228,0.02055
935.441,0.01956
929.655,0.01933
923.869,0.01949
918.083,0.02043
912.297,0.01924
906.51,0.01926
900.724,0.01974
894.938,0.01933
889.152,0.01917
883.365,0.01937
877.579,0.01962
871.793,0.01926
866.007,0.01920
860.22,0.01918
854.434,0.01872
848.648,0.01929
842.862,0.01891
837.075,0.01844
831.289,0.01913
825.503,0.01910
819.717,0.01947
813.931,0.01833
808.144,0.01881
802.358,0.02013
796.572,0.01892
790.786,0.01849
784.999,0.01888
779.213,0.01876
773.427,0.01782
767.641,0.01823
761.854,0.01883
756.068,0.01797
750.282,0.01805
744.496,0.01781
738.709,0.01918
732.923,0.01916
727.137,0.01892
721.351,0.01825
715.565,0.01821
709.778,0.01814
703.992,0.01877
698.206,0.01810
692.42,0.01767
686.633,0.01819
680.847,0.01817
675.061,0.01790
669.275,0.01890
663.488,0.01758
657.702,0.01699
651.916,0.01631
646.13,0.01693
640.343,0.01645
634.557,0.01665
628.771,0.01556
622.985,0.01543
617.198,0.01552
611.412,0.01597
605.626,0.01636
599.84,0.01613