File: 01_Data/Straw/FTIR/IS/Straw_IS_S_221109_R7.dpt
7497.03,0.85843
7491.25,0.85257
7485.46,0.83580
7479.67,0.83085
7473.89,0.84485
7468.1,0.83086
7462.32,0.84428
7456.53,0.82432
7450.74,0.83063
7444.96,0.83252
7439.17,0.82870
7433.38,0.82057
7427.6,0.83159
7421.81,0.83003
7416.03,0.82305
7410.24,0.82392
7404.45,0.82955
7398.67,0.81473
7392.88,0.81754
7387.09,0.81893
7381.31,0.82576
7375.52,0.82402
7369.74,0.81738
7363.95,0.81591
7358.16,0.81371
7352.38,0.82099
7346.59,0.81938
7340.8,0.81506
7335.02,0.81045
7329.23,0.79944
7323.45,0.81568
7317.66,0.80869
7311.87,0.81568
7306.09,0.80994
7300.3,0.81584
7294.51,0.81525
7288.73,0.81556
7282.94,0.81406
7277.16,0.81288
7271.37,0.81510
7265.58,0.80753
7259.8,0.80993
7254.01,0.79640
7248.22,0.80506
7242.44,0.81000
7236.65,0.81708
7230.87,0.81159
7225.08,0.80486
7219.29,0.80884
7213.51,0.81209
7207.72,0.80878
7201.93,0.80625
7196.15,0.81631
7190.36,0.81157
7184.58,0.80900
7178.79,0.80687
7173,0.80735
7167.22,0.79723
7161.43,0.80096
7155.65,0.80187
7149.86,0.79465
7144.07,0.78985
7138.29,0.79937
7132.5,0.79387
7126.71,0.79397
7120.93,0.78188
7115.14,0.78181
7109.36,0.77958
7103.57,0.77332
7097.78,0.77344
7092,0.75812
7086.21,0.77740
7080.42,0.76859
7074.64,0.75667
7068.85,0.75307
7063.07,0.74963
7057.28,0.74179
7051.49,0.74515
7045.71,0.73901
7039.92,0.73516
7034.13,0.72476
7028.35,0.72234
7022.56,0.72362
7016.78,0.71702
7010.99,0.72196
7005.2,0.71132
6999.42,0.70936
6993.63,0.70529
6987.84,0.70338
6982.06,0.70348
6976.27,0.70033
6970.49,0.70008
6964.7,0.69356
6958.91,0.69142
6953.13,0.68803
6947.34,0.69323
6941.55,0.69573
6935.77,0.69292
6929.98,0.69147
6924.2,0.68568
6918.41,0.69381
6912.62,0.68694
6906.84,0.69264
6901.05,0.68922
6895.26,0.68613
6889.48,0.68845
6883.69,0.68318
6877.91,0.67904
6872.12,0.68517
6866.33,0.68372
6860.55,0.68617
6854.76,0.68757
6848.97,0.67871
6843.19,0.68592
6837.4,0.68628
6831.62,0.68581
6825.83,0.68365
6820.04,0.68460
6814.26,0.68411
6808.47,0.68264
6802.68,0.67783
6796.9,0.67768
6791.11,0.68417
6785.33,0.68208
6779.54,0.68970
6773.75,0.68797
6767.97,0.69391
6762.18,0.68092
6756.39,0.68618
6750.61,0.68489
6744.82,0.68363
6739.04,0.68558
6733.25,0.68839
6727.46,0.68752
6721.68,0.69080
6715.89,0.68761
6710.1,0.68498
6704.32,0.68538
6698.53,0.68938
6692.75,0.69089
6686.96,0.69046
6681.17,0.69066
6675.39,0.69064
6669.6,0.68799
6663.82,0.68858
6658.03,0.69271
6652.24,0.69647
6646.46,0.69616
6640.67,0.69870
6634.88,0.70205
6629.1,0.70692
6623.31,0.69965
6617.53,0.69646
6611.74,0.69565
6605.95,0.69712
6600.17,0.70369
6594.38,0.70282
6588.59,0.70501
6582.81,0.70455
6577.02,0.70446
6571.24,0.70956
6565.45,0.70093
6559.66,0.70741
6553.88,0.70912
6548.09,0.71049
6542.3,0.70989
6536.52,0.70776
6530.73,0.71326
6524.95,0.71814
6519.16,0.71579
6513.37,0.71388
6507.59,0.71266
6501.8,0.71065
6496.01,0.71586
6490.23,0.71418
6484.44,0.71787
6478.66,0.71635
6472.87,0.71676
6467.08,0.71601
6461.3,0.72214
6455.51,0.72413
6449.72,0.71855
6443.94,0.71898
6438.15,0.72117
6432.37,0.71899
6426.58,0.71693
6420.79,0.72405
6415.01,0.72276
6409.22,0.72194
6403.43,0.72433
6397.65,0.72175
6391.86,0.72128
6386.08,0.72233
6380.29,0.72237
6374.5,0.72191
6368.72,0.72521
6362.93,0.72259
6357.14,0.71893
6351.36,0.72559
6345.57,0.72111
6339.79,0.72349
6334,0.72629
6328.21,0.73037
6322.43,0.72597
6316.64,0.72617
6310.85,0.72852
6305.07,0.72592
6299.28,0.73154
6293.5,0.73109
6287.71,0.73126
6281.92,0.73353
6276.14,0.73034
6270.35,0.73050
6264.56,0.73640
6258.78,0.73676
6252.99,0.74147
6247.21,0.73902
6241.42,0.74313
6235.63,0.74463
6229.85,0.74280
6224.06,0.74787
6218.27,0.74938
6212.49,0.74964
6206.7,0.74801
6200.92,0.74948
6195.13,0.75175
6189.34,0.75261
6183.56,0.75135
6177.77,0.75443
6171.98,0.75804
6166.2,0.75846
6160.41,0.75755
6154.63,0.76034
6148.84,0.76341
6143.05,0.76138
6137.27,0.76333
6131.48,0.76427
6125.7,0.76304
6119.91,0.76311
6114.12,0.76617
6108.34,0.76242
6102.55,0.76646
6096.76,0.76908
6090.98,0.76683
6085.19,0.76822
6079.41,0.76638
6073.62,0.76900
6067.83,0.76791
6062.05,0.76846
6056.26,0.76528
6050.47,0.76453
6044.69,0.76289
6038.9,0.76089
6033.12,0.76169
6027.33,0.76443
6021.54,0.76034
6015.76,0.75926
6009.97,0.75926
6004.18,0.75639
5998.4,0.75474
5992.61,0.75643
5986.83,0.75688
5981.04,0.75746
5975.25,0.75367
5969.47,0.75419
5963.68,0.75647
5957.89,0.75337
5952.11,0.75119
5946.32,0.75071
5940.54,0.74927
5934.75,0.75046
5928.96,0.75083
5923.18,0.75274
5917.39,0.75145
5911.6,0.74765
5905.82,0.74711
5900.03,0.74450
5894.25,0.74644
5888.46,0.74787
5882.67,0.74282
5876.89,0.74243
5871.1,0.74155
5865.31,0.73958
5859.53,0.74310
5853.74,0.74149
5847.96,0.74538
5842.17,0.74249
5836.38,0.74205
5830.6,0.74094
5824.81,0.73805
5819.02,0.73609
5813.24,0.73690
5807.45,0.73363
5801.67,0.73365
5795.88,0.73214
5790.09,0.73564
5784.31,0.73646
5778.52,0.73577
5772.73,0.74087
5766.95,0.74025
5761.16,0.74071
5755.38,0.74218
5749.59,0.74328
5743.8,0.74209
5738.02,0.74533
5732.23,0.74477
5726.44,0.74285
5720.66,0.74363
5714.87,0.74371
5709.09,0.74389
5703.3,0.74574
5697.51,0.74354
5691.73,0.74187
5685.94,0.74253
5680.15,0.74023
5674.37,0.74166
5668.58,0.74203
5662.8,0.74296
5657.01,0.74067
5651.22,0.74359
5645.44,0.74142
5639.65,0.74096
5633.87,0.74029
5628.08,0.73935
5622.29,0.73895
5616.51,0.74172
5610.72,0.73999
5604.93,0.74143
5599.15,0.74045
5593.36,0.74214
5587.58,0.74057
5581.79,0.74171
5576,0.74261
5570.22,0.74384
5564.43,0.74234
5558.64,0.74351
5552.86,0.74365
5547.07,0.74475
5541.29,0.74355
5535.5,0.74325
5529.71,0.74604
5523.93,0.74666
5518.14,0.74531
5512.35,0.74574
5506.57,0.74650
5500.78,0.74646
5495,0.74692
5489.21,0.74872
5483.42,0.74720
5477.64,0.75004
5471.85,0.74902
5466.06,0.74937
5460.28,0.75098
5454.49,0.75145
5448.71,0.75000
5442.92,0.75264
5437.13,0.75513
5431.35,0.75524
5425.56,0.75628
5419.77,0.75797
5413.99,0.75826
5408.2,0.75715
5402.42,0.75901
5396.63,0.76020
5390.84,0.76312
5385.06,0.76276
5379.27,0.76217
5373.48,0.75922
5367.7,0.76047
5361.91,0.76088
5356.13,0.76242
5350.34,0.76098
5344.55,0.75837
5338.77,0.75913
5332.98,0.75875
5327.19,0.75606
5321.41,0.75579
5315.62,0.75179
5309.84,0.74710
5304.05,0.74334
5298.26,0.73913
5292.48,0.73424
5286.69,0.72512
5280.9,0.71801
5275.12,0.71022
5269.33,0.70024
5263.55,0.69058
5257.76,0.68046
5251.97,0.67004
5246.19,0.66279
5240.4,0.65568
5234.61,0.64901
5228.83,0.64339
5223.04,0.63800
5217.26,0.63415
5211.47,0.63290
5205.68,0.63068
5199.9,0.63025
5194.11,0.62930
5188.32,0.62961
5182.54,0.63094
5176.75,0.63467
5170.97,0.63447
5165.18,0.63707
5159.39,0.63915
5153.61,0.64422
5147.82,0.64628
5142.03,0.64940
5136.25,0.65301
5130.46,0.65604
5124.68,0.65947
5118.89,0.66190
5113.1,0.66523
5107.32,0.66957
5101.53,0.67014
5095.75,0.67291
5089.96,0.67668
5084.17,0.67875
5078.39,0.68178
5072.6,0.68429
5066.81,0.68572
5061.03,0.68767
5055.24,0.68921
5049.46,0.69093
5043.67,0.69332
5037.88,0.69324
5032.1,0.69619
5026.31,0.69535
5020.52,0.69669
5014.74,0.69642
5008.95,0.69675
5003.17,0.69632
4997.38,0.69624
4991.59,0.69488
4985.81,0.69374
4980.02,0.69203
4974.23,0.68911
4968.45,0.68549
4962.66,0.68358
4956.88,0.67957
4951.09,0.67343
4945.3,0.66743
4939.52,0.66270
4933.73,0.65631
4927.94,0.64980
4922.16,0.64476
4916.37,0.63713
4910.59,0.63076
4904.8,0.62402
4899.01,0.61800
4893.23,0.61206
4887.44,0.60635
4881.65,0.59954
4875.87,0.59478
4870.08,0.58913
4864.3,0.58438
4858.51,0.57951
4852.72,0.57482
4846.94,0.57034
4841.15,0.56769
4835.36,0.56191
4829.58,0.55716
4823.79,0.55561
4818.01,0.55158
4812.22,0.54949
4806.43,0.54800
4800.65,0.54612
4794.86,0.54568
4789.07,0.54388
4783.29,0.54397
4777.5,0.54158
4771.72,0.54043
4765.93,0.54118
4760.14,0.54074
4754.36,0.54110
4748.57,0.54133
4742.78,0.54168
4737,0.54225
4731.21,0.54309
4725.43,0.54347
4719.64,0.54432
4713.85,0.54561
4708.07,0.54582
4702.28,0.54752
4696.49,0.54946
4690.71,0.55008
4684.92,0.55198
4679.14,0.55502
4673.35,0.55624
4667.56,0.55904
4661.78,0.56075
4655.99,0.56371
4650.2,0.56639
4644.42,0.56883
4638.63,0.57079
4632.85,0.57388
4627.06,0.57541
4621.27,0.57728
4615.49,0.58066
4609.7,0.58278
4603.92,0.58469
4598.13,0.58670
4592.34,0.58947
4586.56,0.59161
4580.77,0.59251
4574.98,0.59470
4569.2,0.59607
4563.41,0.59719
4557.63,0.59953
4551.84,0.60010
4546.05,0.60236
4540.27,0.60431
4534.48,0.60507
4528.69,0.60522
4522.91,0.60664
4517.12,0.60678
4511.34,0.60596
4505.55,0.60617
4499.76,0.60366
4493.98,0.60136
4488.19,0.59769
4482.4,0.59184
4476.62,0.58676
4470.83,0.57957
4465.05,0.57247
4459.26,0.56474
4453.47,0.55741
4447.69,0.54822
4441.9,0.54015
4436.11,0.53242
4430.33,0.52643
4424.54,0.52035
4418.76,0.51514
4412.97,0.51072
4407.18,0.50794
4401.4,0.50535
4395.61,0.50487
4389.82,0.50496
4384.04,0.50677
4378.25,0.50894
4372.47,0.51209
4366.68,0.51439
4360.89,0.51574
4355.11,0.51510
4349.32,0.51278
4343.53,0.51044
4337.75,0.50738
4331.96,0.50498
4326.18,0.50129
4320.39,0.49940
4314.6,0.49648
4308.82,0.49517
4303.03,0.49244
4297.24,0.49105
4291.46,0.48897
4285.67,0.48684
4279.89,0.48753
4274.1,0.48822
4268.31,0.48884
4262.53,0.48992
4256.74,0.49105
4250.95,0.49228
4245.17,0.49377
4239.38,0.49518
4233.6,0.49619
4227.81,0.49685
4222.02,0.49690
4216.24,0.49742
4210.45,0.49760
4204.66,0.49906
4198.88,0.49925
4193.09,0.50003
4187.31,0.50029
4181.52,0.50247
4175.73,0.50323
4169.95,0.50384
4164.16,0.50515
4158.37,0.50395
4152.59,0.50293
4146.8,0.50190
4141.02,0.49919
4135.23,0.49574
4129.44,0.49109
4123.66,0.48775
4117.87,0.48279
4112.09,0.47726
4106.3,0.47191
4100.51,0.46602
4094.73,0.46009
4088.94,0.45417
4083.15,0.44779
4077.37,0.44161
4071.58,0.43439
4065.8,0.42716
4060.01,0.42060
4054.22,0.41379
4048.44,0.40831
4042.65,0.40304
4036.86,0.39843
4031.08,0.39361
4025.29,0.39042
4019.51,0.38908
4013.72,0.38821
4007.93,0.38885
4002.15,0.39042
3996.36,0.39153
3990.57,0.39382
3984.79,0.39643
3979,0.39925
3973.22,0.40136
3967.43,0.40413
3961.64,0.40758
3955.86,0.41102
3950.07,0.41362
3944.28,0.41718
3938.5,0.42018
3932.71,0.42407
3926.93,0.42743
3921.14,0.43034
3915.35,0.43431
3909.57,0.43728
3903.78,0.44055
3897.99,0.44425
3892.21,0.44756
3886.42,0.45013
3880.64,0.45406
3874.85,0.45623
3869.06,0.46054
3863.28,0.46385
3857.49,0.46762
3851.7,0.47320
3845.92,0.47580
3840.13,0.47822
3834.35,0.48163
3828.56,0.48265
3822.77,0.48450
3816.99,0.48566
3811.2,0.48448
3805.41,0.48612
3799.63,0.48659
3793.84,0.48544
3788.06,0.48503
3782.27,0.48473
3776.48,0.48363
3770.7,0.48280
3764.91,0.48140
3759.12,0.47941
3753.34,0.47780
3747.55,0.47559
3741.77,0.47339
3735.98,0.47017
3730.19,0.46430
3724.41,0.45847
3718.62,0.45191
3712.83,0.44505
3707.05,0.43481
3701.26,0.42308
3695.48,0.40920
3689.69,0.39179
3683.9,0.37018
3678.12,0.34744
3672.33,0.32092
3666.54,0.29323
3660.76,0.26802
3654.97,0.24557
3649.19,0.22575
3643.4,0.20669
3637.61,0.19015
3631.83,0.17644
3626.04,0.16195
3620.25,0.15065
3614.47,0.13945
3608.68,0.12999
3602.9,0.12014
3597.11,0.11230
3591.32,0.10549
3585.54,0.09863
3579.75,0.09271
3573.97,0.08831
3568.18,0.08411
3562.39,0.08003
3556.61,0.07585
3550.82,0.07291
3545.03,0.06969
3539.25,0.06655
3533.46,0.06499
3527.68,0.06283
3521.89,0.06114
3516.1,0.05946
3510.32,0.05701
3504.53,0.05642
3498.74,0.05459
3492.96,0.05272
3487.17,0.05238
3481.39,0.05130
3475.6,0.05064
3469.81,0.04873
3464.03,0.04843
3458.24,0.04788
3452.45,0.04689
3446.67,0.04714
3440.88,0.04598
3435.1,0.04554
3429.31,0.04520
3423.52,0.04552
3417.74,0.04532
3411.95,0.04573
3406.16,0.04518
3400.38,0.04535
3394.59,0.04581
3388.81,0.04611
3383.02,0.04719
3377.23,0.04670
3371.45,0.04736
3365.66,0.04714
3359.87,0.04719
3354.09,0.04784
3348.3,0.04855
3342.52,0.04890
3336.73,0.04956
3330.94,0.05018
3325.16,0.05133
3319.37,0.05171
3313.58,0.05310
3307.8,0.05398
3302.01,0.05466
3296.23,0.05579
3290.44,0.05734
3284.65,0.05745
3278.87,0.05961
3273.08,0.06019
3267.29,0.06135
3261.51,0.06346
3255.72,0.06471
3249.94,0.06663
3244.15,0.06836
3238.36,0.07117
3232.58,0.07192
3226.79,0.07439
3221,0.07528
3215.22,0.07805
3209.43,0.08009
3203.65,0.08132
3197.86,0.08313
3192.07,0.08597
3186.29,0.08700
3180.5,0.08901
3174.71,0.09180
3168.93,0.09335
3163.14,0.09550
3157.36,0.09766
3151.57,0.10011
3145.78,0.10205
3140,0.10347
3134.21,0.10637
3128.42,0.10881
3122.64,0.11118
3116.85,0.11218
3111.07,0.11474
3105.28,0.11721
3099.49,0.11872
3093.71,0.12047
3087.92,0.12322
3082.14,0.12479
3076.35,0.12657
3070.56,0.12854
3064.78,0.13086
3058.99,0.13356
3053.2,0.13603
3047.42,0.13710
3041.63,0.13954
3035.85,0.14017
3030.06,0.14081
3024.27,0.14053
3018.49,0.13980
3012.7,0.13785
3006.91,0.13539
3001.13,0.13293
2995.34,0.13048
2989.56,0.12740
2983.77,0.12195
2977.98,0.11607
2972.2,0.11032
2966.41,0.10548
2960.62,0.10065
2954.84,0.09672
2949.05,0.09268
2943.27,0.08906
2937.48,0.08786
2931.69,0.08767
2925.91,0.08810
2920.12,0.08890
2914.33,0.08955
2908.55,0.08853
2902.76,0.08799
2896.98,0.08842
2891.19,0.08894
2885.4,0.09029
2879.62,0.09158
2873.83,0.09268
2868.04,0.09492
2862.26,0.09805
2856.47,0.10018
2850.69,0.10437
2844.9,0.11164
2839.11,0.11824
2833.33,0.12452
2827.54,0.13109
2821.75,0.13764
2815.97,0.14307
2810.18,0.14767
2804.4,0.15138
2798.61,0.15549
2792.82,0.15773
2787.04,0.16064
2781.25,0.16221
2775.46,0.16364
2769.68,0.16543
2763.89,0.16671
2758.11,0.16832
2752.32,0.16894
2746.53,0.17007
2740.75,0.17054
2734.96,0.17222
2729.17,0.17274
2723.39,0.17452
2717.6,0.17683
2711.82,0.17937
2706.03,0.18177
2700.24,0.18456
2694.46,0.18740
2688.67,0.18963
2682.88,0.19210
2677.1,0.19478
2671.31,0.19744
2665.53,0.19970
2659.74,0.20216
2653.95,0.20408
2648.17,0.20643
2642.38,0.20860
2636.59,0.21108
2630.81,0.21370
2625.02,0.21660
2619.24,0.21965
2613.45,0.22212
2607.66,0.22469
2601.88,0.22690
2596.09,0.22921
2590.3,0.23171
2584.52,0.23368
2578.73,0.23494
2572.95,0.23621
2567.16,0.23676
2561.37,0.23826
2555.59,0.23939
2549.8,0.24027
2544.02,0.24148
2538.23,0.24296
2532.44,0.24464
2526.66,0.24631
2520.87,0.24819
2515.08,0.24962
2509.3,0.25218
2503.51,0.25469
2497.73,0.25833
2491.94,0.26093
2486.15,0.26383
2480.37,0.26645
2474.58,0.26913
2468.79,0.27198
2463.01,0.27481
2457.22,0.27793
2451.44,0.28085
2445.65,0.28456
2439.86,0.28780
2434.08,0.29169
2428.29,0.29554
2422.5,0.29953
2416.72,0.30360
2410.93,0.30783
2405.15,0.31150
2399.36,0.31575
2393.57,0.31914
2387.79,0.32232
2382,0.32525
2376.21,0.32804
2370.43,0.33107
2364.64,0.33389
2358.86,0.33627
2353.07,0.33923
2347.28,0.34167
2341.5,0.34494
2335.71,0.34698
2329.92,0.34869
2324.14,0.35043
2318.35,0.35140
2312.57,0.35268
2306.78,0.35272
2300.99,0.35267
2295.21,0.35198
2289.42,0.35203
2283.63,0.35193
2277.85,0.35131
2272.06,0.35069
2266.28,0.34920
2260.49,0.34792
2254.7,0.34667
2248.92,0.34590
2243.13,0.34510
2237.34,0.34521
2231.56,0.34539
2225.77,0.34557
2219.99,0.34627
2214.2,0.34662
2208.41,0.34587
2202.63,0.34513
2196.84,0.34350
2191.05,0.34064
2185.27,0.33700
2179.48,0.33266
2173.7,0.32747
2167.91,0.32333
2162.12,0.31988
2156.34,0.31709
2150.55,0.31504
2144.76,0.31390
2138.98,0.31292
2133.19,0.31304
2127.41,0.31394
2121.62,0.31572
2115.83,0.31826
2110.05,0.32089
2104.26,0.32367
2098.47,0.32624
2092.69,0.32876
2086.9,0.33109
2081.12,0.33167
2075.33,0.33216
2069.54,0.33214
2063.76,0.33223
2057.97,0.33281
2052.19,0.33405
2046.4,0.33538
2040.61,0.33769
2034.83,0.34005
2029.04,0.34384
2023.25,0.34817
2017.47,0.35332
2011.68,0.35808
2005.9,0.36232
2000.11,0.36626
1994.32,0.36918
1988.54,0.37187
1982.75,0.37409
1976.96,0.37501
1971.18,0.37565
1965.39,0.37643
1959.61,0.37700
1953.82,0.37829
1948.03,0.38050
1942.25,0.38356
1936.46,0.38734
1930.67,0.39103
1924.89,0.39369
1919.1,0.39634
1913.32,0.39803
1907.53,0.39908
1901.74,0.39888
1895.96,0.39912
1890.17,0.39884
1884.38,0.39849
1878.6,0.39791
1872.81,0.39639
1867.03,0.39499
1861.24,0.39237
1855.45,0.38972
1849.67,0.38677
1843.88,0.38383
1838.09,0.37909
1832.31,0.37475
1826.52,0.36945
1820.74,0.36229
1814.95,0.35509
1809.16,0.34598
1803.38,0.33571
1797.59,0.32275
1791.8,0.30783
1786.02,0.29048
1780.23,0.27079
1774.45,0.24705
1768.66,0.21433
1762.87,0.18143
1757.09,0.15249
1751.3,0.12987
1745.51,0.11285
1739.73,0.10551
1733.94,0.10500
1728.16,0.10660
1722.37,0.11115
1716.58,0.11724
1710.8,0.12223
1705.01,0.12632
1699.22,0.12984
1693.44,0.13025
1687.65,0.13008
1681.87,0.12599
1676.08,0.11888
1670.29,0.10797
1664.51,0.09509
1658.72,0.08579
1652.93,0.08644
1647.15,0.09014
1641.36,0.09136
1635.58,0.08997
1629.79,0.08698
1624,0.08345
1618.22,0.08085
1612.43,0.07846
1606.64,0.07651
1600.86,0.07598
1595.07,0.07593
1589.29,0.07980
1583.5,0.08774
1577.71,0.09655
1571.93,0.10532
1566.14,0.11319
1560.35,0.11996
1554.57,0.12544
1548.78,0.12746
1543,0.12931
1537.21,0.12762
1531.42,0.11898
1525.64,0.10455
1519.85,0.08433
1514.07,0.07416
1508.28,0.07317
1502.49,0.07372
1496.71,0.07656
1490.92,0.08259
1485.13,0.08534
1479.35,0.07978
1473.56,0.06889
1467.78,0.05977
1461.99,0.05830
1456.2,0.05899
1450.42,0.05905
1444.63,0.05914
1438.84,0.05734
1433.06,0.05427
1427.27,0.05304
1421.49,0.05507
1415.7,0.05800
1409.91,0.06057
1404.13,0.05993
1398.34,0.05826
1392.55,0.05478
1386.77,0.05110
1380.98,0.04753
1375.2,0.04641
1369.41,0.04735
1363.62,0.04885
1357.84,0.05084
1352.05,0.05252
1346.26,0.05236
1340.48,0.05133
1334.69,0.05059
1328.91,0.05060
1323.12,0.04989
1317.33,0.05053
1311.55,0.05236
1305.76,0.05437
1299.97,0.05542
1294.19,0.05478
1288.4,0.05189
1282.62,0.04958
1276.83,0.04741
1271.04,0.04509
1265.26,0.04440
1259.47,0.04436
1253.68,0.04518
1247.9,0.04679
1242.11,0.04806
1236.33,0.05056
1230.54,0.05204
1224.75,0.05433
1218.97,0.05564
1213.18,0.05603
1207.39,0.05479
1201.61,0.05457
1195.82,0.05447
1190.04,0.05235
1184.25,0.04879
1178.46,0.04587
1172.68,0.04549
1166.89,0.04815
1161.1,0.05190
1155.32,0.05378
1149.53,0.05357
1143.75,0.05285
1137.96,0.05164
1132.17,0.05077
1126.39,0.05230
1120.6,0.05636
1114.81,0.06100
1109.03,0.06495
1103.24,0.06865
1097.46,0.06970
1091.67,0.07070
1085.88,0.07080
1080.1,0.07140
1074.31,0.07241
1068.52,0.07264
1062.74,0.07279
1056.95,0.07717
1051.17,0.08098
1045.38,0.08426
1039.59,0.08662
1033.81,0.08777
1028.02,0.08739
1022.24,0.08475
1016.45,0.08368
1010.66,0.08262
1004.88,0.08220
999.09,0.08332
993.304,0.08474
987.518,0.08895
981.731,0.09604
975.945,0.10212
970.159,0.10766
964.373,0.11526
958.586,0.12473
952.8,0.13640
947.014,0.14771
941.228,0.15443
935.441,0.15836
929.655,0.16022
923.869,0.16069
918.083,0.15895
912.297,0.15336
906.51,0.14379
900.724,0.13302
894.938,0.13658
889.152,0.15266
883.365,0.16790
877.579,0.17391
871.793,0.17517
866.007,0.17535
860.22,0.17414
854.434,0.17107
848.648,0.16441
842.862,0.16048
837.075,0.15991
831.289,0.16429
825.503,0.16718
819.717,0.16880
813.931,0.17010
808.144,0.17128
802.358,0.17244
796.572,0.17182
790.786,0.16999
784.999,0.16702
779.213,0.16285
773.427,0.15757
767.641,0.15389
761.854,0.15004
756.068,0.14543
750.282,0.14080
744.496,0.13470
738.709,0.13181
732.923,0.12820
727.137,0.12567
721.351,0.12157
715.565,0.12121
709.778,0.11790
703.992,0.11642
698.206,0.11506
692.42,0.11348
686.633,0.11088
680.847,0.10490
675.061,0.10042
669.275,0.10071
663.488,0.10199
657.702,0.10206
651.916,0.10251
646.13,0.10270
640.343,0.10202
634.557,0.10251
628.771,0.09910
622.985,0.09940
617.198,0.10146
611.412,0.10495
605.626,0.10826
599.84,0.11093