File: 01_Data/Straw/FTIR/IS/Straw_IS_S_221109_R1.dpt
7497.03,0.84261
7491.25,0.84189
7485.46,0.83173
7479.67,0.84316
7473.89,0.85500
7468.1,0.83299
7462.32,0.83846
7456.53,0.82954
7450.74,0.83107
7444.96,0.83451
7439.17,0.82985
7433.38,0.82919
7427.6,0.83463
7421.81,0.83233
7416.03,0.82813
7410.24,0.82167
7404.45,0.83893
7398.67,0.82820
7392.88,0.82970
7387.09,0.82538
7381.31,0.83175
7375.52,0.83236
7369.74,0.82008
7363.95,0.81368
7358.16,0.81525
7352.38,0.82123
7346.59,0.81376
7340.8,0.82288
7335.02,0.82310
7329.23,0.81019
7323.45,0.80570
7317.66,0.80840
7311.87,0.81780
7306.09,0.80932
7300.3,0.82006
7294.51,0.81359
7288.73,0.81394
7282.94,0.80952
7277.16,0.80649
7271.37,0.81274
7265.58,0.80594
7259.8,0.81176
7254.01,0.81886
7248.22,0.80804
7242.44,0.81732
7236.65,0.81822
7230.87,0.80618
7225.08,0.82150
7219.29,0.81138
7213.51,0.81610
7207.72,0.81056
7201.93,0.79812
7196.15,0.80175
7190.36,0.79998
7184.58,0.79469
7178.79,0.80377
7173,0.81020
7167.22,0.80244
7161.43,0.80887
7155.65,0.80572
7149.86,0.79702
7144.07,0.79323
7138.29,0.78981
7132.5,0.79236
7126.71,0.79410
7120.93,0.78390
7115.14,0.78956
7109.36,0.79136
7103.57,0.77997
7097.78,0.77950
7092,0.76838
7086.21,0.76898
7080.42,0.75906
7074.64,0.75511
7068.85,0.75183
7063.07,0.75129
7057.28,0.74216
7051.49,0.74350
7045.71,0.73120
7039.92,0.73324
7034.13,0.72866
7028.35,0.72281
7022.56,0.72168
7016.78,0.71639
7010.99,0.72009
7005.2,0.70999
6999.42,0.70092
6993.63,0.70293
6987.84,0.70716
6982.06,0.70126
6976.27,0.69749
6970.49,0.68993
6964.7,0.69296
6958.91,0.69158
6953.13,0.69242
6947.34,0.69394
6941.55,0.69638
6935.77,0.69427
6929.98,0.69310
6924.2,0.68731
6918.41,0.68522
6912.62,0.68542
6906.84,0.68589
6901.05,0.68226
6895.26,0.68215
6889.48,0.69088
6883.69,0.69137
6877.91,0.68612
6872.12,0.68664
6866.33,0.68581
6860.55,0.68926
6854.76,0.68745
6848.97,0.68562
6843.19,0.68598
6837.4,0.68456
6831.62,0.68337
6825.83,0.67856
6820.04,0.68181
6814.26,0.68196
6808.47,0.67993
6802.68,0.68477
6796.9,0.68310
6791.11,0.68341
6785.33,0.68551
6779.54,0.68108
6773.75,0.68399
6767.97,0.68725
6762.18,0.68095
6756.39,0.67968
6750.61,0.68136
6744.82,0.68403
6739.04,0.67987
6733.25,0.68036
6727.46,0.68227
6721.68,0.68259
6715.89,0.68067
6710.1,0.68815
6704.32,0.68898
6698.53,0.68902
6692.75,0.68448
6686.96,0.68277
6681.17,0.68372
6675.39,0.68465
6669.6,0.69099
6663.82,0.69023
6658.03,0.69392
6652.24,0.69110
6646.46,0.69076
6640.67,0.69581
6634.88,0.69767
6629.1,0.69832
6623.31,0.69541
6617.53,0.69178
6611.74,0.69716
6605.95,0.69484
6600.17,0.70316
6594.38,0.69967
6588.59,0.69914
6582.81,0.70214
6577.02,0.70493
6571.24,0.70936
6565.45,0.70530
6559.66,0.70835
6553.88,0.70832
6548.09,0.71360
6542.3,0.71085
6536.52,0.70866
6530.73,0.70932
6524.95,0.70970
6519.16,0.71105
6513.37,0.71581
6507.59,0.71142
6501.8,0.71293
6496.01,0.71514
6490.23,0.71361
6484.44,0.71464
6478.66,0.71257
6472.87,0.71852
6467.08,0.71053
6461.3,0.71577
6455.51,0.72127
6449.72,0.71813
6443.94,0.71581
6438.15,0.71685
6432.37,0.71480
6426.58,0.72291
6420.79,0.71853
6415.01,0.71644
6409.22,0.71571
6403.43,0.71820
6397.65,0.72052
6391.86,0.72420
6386.08,0.72515
6380.29,0.71895
6374.5,0.71948
6368.72,0.71828
6362.93,0.72375
6357.14,0.72436
6351.36,0.72535
6345.57,0.72483
6339.79,0.72699
6334,0.72664
6328.21,0.72426
6322.43,0.72650
6316.64,0.72423
6310.85,0.72506
6305.07,0.72784
6299.28,0.73149
6293.5,0.72995
6287.71,0.72791
6281.92,0.72865
6276.14,0.73317
6270.35,0.73493
6264.56,0.72807
6258.78,0.73677
6252.99,0.73878
6247.21,0.73833
6241.42,0.73561
6235.63,0.73912
6229.85,0.74115
6224.06,0.74264
6218.27,0.74576
6212.49,0.74606
6206.7,0.74790
6200.92,0.74864
6195.13,0.75077
6189.34,0.75118
6183.56,0.75523
6177.77,0.75588
6171.98,0.75599
6166.2,0.75508
6160.41,0.75868
6154.63,0.75718
6148.84,0.75585
6143.05,0.76170
6137.27,0.76173
6131.48,0.75813
6125.7,0.76254
6119.91,0.75906
6114.12,0.75903
6108.34,0.76150
6102.55,0.76380
6096.76,0.76326
6090.98,0.76264
6085.19,0.76457
6079.41,0.76417
6073.62,0.76629
6067.83,0.76792
6062.05,0.76261
6056.26,0.76372
6050.47,0.76021
6044.69,0.76394
6038.9,0.76210
6033.12,0.76019
6027.33,0.75949
6021.54,0.76026
6015.76,0.76118
6009.97,0.75932
6004.18,0.75751
5998.4,0.75654
5992.61,0.75674
5986.83,0.75511
5981.04,0.75481
5975.25,0.75257
5969.47,0.74794
5963.68,0.75013
5957.89,0.75122
5952.11,0.75112
5946.32,0.75038
5940.54,0.75216
5934.75,0.74807
5928.96,0.74772
5923.18,0.74981
5917.39,0.74855
5911.6,0.74622
5905.82,0.74628
5900.03,0.74846
5894.25,0.74440
5888.46,0.74354
5882.67,0.74429
5876.89,0.74203
5871.1,0.74538
5865.31,0.74069
5859.53,0.74179
5853.74,0.73699
5847.96,0.74361
5842.17,0.74286
5836.38,0.74312
5830.6,0.73893
5824.81,0.73685
5819.02,0.73695
5813.24,0.73373
5807.45,0.73477
5801.67,0.73342
5795.88,0.73369
5790.09,0.73407
5784.31,0.73523
5778.52,0.73596
5772.73,0.73625
5766.95,0.73931
5761.16,0.73872
5755.38,0.74244
5749.59,0.74040
5743.8,0.73941
5738.02,0.74192
5732.23,0.74035
5726.44,0.74014
5720.66,0.74257
5714.87,0.74098
5709.09,0.74193
5703.3,0.74291
5697.51,0.74153
5691.73,0.74215
5685.94,0.73812
5680.15,0.74015
5674.37,0.73916
5668.58,0.74069
5662.8,0.73980
5657.01,0.74122
5651.22,0.74077
5645.44,0.74100
5639.65,0.73877
5633.87,0.73981
5628.08,0.73852
5622.29,0.73668
5616.51,0.73889
5610.72,0.73893
5604.93,0.74009
5599.15,0.73831
5593.36,0.73960
5587.58,0.74034
5581.79,0.73958
5576,0.74099
5570.22,0.73979
5564.43,0.74174
5558.64,0.74002
5552.86,0.74177
5547.07,0.74520
5541.29,0.74498
5535.5,0.74338
5529.71,0.74465
5523.93,0.74230
5518.14,0.74457
5512.35,0.74560
5506.57,0.74468
5500.78,0.74496
5495,0.74440
5489.21,0.74393
5483.42,0.74577
5477.64,0.74717
5471.85,0.74599
5466.06,0.74838
5460.28,0.74791
5454.49,0.74941
5448.71,0.75070
5442.92,0.74974
5437.13,0.75215
5431.35,0.75465
5425.56,0.75563
5419.77,0.75479
5413.99,0.75594
5408.2,0.75852
5402.42,0.75638
5396.63,0.75767
5390.84,0.75915
5385.06,0.75889
5379.27,0.75771
5373.48,0.75780
5367.7,0.75772
5361.91,0.75747
5356.13,0.75703
5350.34,0.75738
5344.55,0.75870
5338.77,0.75572
5332.98,0.75353
5327.19,0.75217
5321.41,0.75100
5315.62,0.74754
5309.84,0.74240
5304.05,0.73753
5298.26,0.73111
5292.48,0.72285
5286.69,0.71696
5280.9,0.71082
5275.12,0.70007
5269.33,0.68789
5263.55,0.67677
5257.76,0.66494
5251.97,0.65565
5246.19,0.64586
5240.4,0.63872
5234.61,0.63191
5228.83,0.62494
5223.04,0.62059
5217.26,0.61624
5211.47,0.61342
5205.68,0.61127
5199.9,0.61085
5194.11,0.61001
5188.32,0.61145
5182.54,0.61317
5176.75,0.61481
5170.97,0.61735
5165.18,0.61876
5159.39,0.62265
5153.61,0.62613
5147.82,0.62968
5142.03,0.63311
5136.25,0.63655
5130.46,0.63962
5124.68,0.64575
5118.89,0.64693
5113.1,0.65016
5107.32,0.65157
5101.53,0.65576
5095.75,0.65887
5089.96,0.66222
5084.17,0.66510
5078.39,0.66854
5072.6,0.66853
5066.81,0.67158
5061.03,0.67407
5055.24,0.67753
5049.46,0.67800
5043.67,0.68197
5037.88,0.68208
5032.1,0.68589
5026.31,0.68604
5020.52,0.68632
5014.74,0.68791
5008.95,0.68872
5003.17,0.68795
4997.38,0.68845
4991.59,0.68615
4985.81,0.68547
4980.02,0.68393
4974.23,0.68288
4968.45,0.68042
4962.66,0.67616
4956.88,0.67178
4951.09,0.66808
4945.3,0.66513
4939.52,0.65891
4933.73,0.65226
4927.94,0.64687
4922.16,0.64093
4916.37,0.63460
4910.59,0.62940
4904.8,0.62307
4899.01,0.61543
4893.23,0.61026
4887.44,0.60431
4881.65,0.59783
4875.87,0.59269
4870.08,0.58688
4864.3,0.58317
4858.51,0.57851
4852.72,0.57363
4846.94,0.56917
4841.15,0.56397
4835.36,0.55974
4829.58,0.55708
4823.79,0.55355
4818.01,0.55187
4812.22,0.54842
4806.43,0.54776
4800.65,0.54661
4794.86,0.54415
4789.07,0.54368
4783.29,0.54253
4777.5,0.54210
4771.72,0.54214
4765.93,0.54008
4760.14,0.54055
4754.36,0.54005
4748.57,0.53998
4742.78,0.53917
4737,0.54073
4731.21,0.54131
4725.43,0.54238
4719.64,0.54423
4713.85,0.54447
4708.07,0.54554
4702.28,0.54668
4696.49,0.54693
4690.71,0.54925
4684.92,0.55043
4679.14,0.55299
4673.35,0.55541
4667.56,0.55812
4661.78,0.56004
4655.99,0.56155
4650.2,0.56455
4644.42,0.56737
4638.63,0.56889
4632.85,0.57217
4627.06,0.57387
4621.27,0.57563
4615.49,0.57907
4609.7,0.58125
4603.92,0.58347
4598.13,0.58588
4592.34,0.58765
4586.56,0.59005
4580.77,0.59229
4574.98,0.59271
4569.2,0.59530
4563.41,0.59660
4557.63,0.59776
4551.84,0.59931
4546.05,0.60081
4540.27,0.60120
4534.48,0.60329
4528.69,0.60397
4522.91,0.60468
4517.12,0.60546
4511.34,0.60424
4505.55,0.60294
4499.76,0.60115
4493.98,0.59969
4488.19,0.59598
4482.4,0.59151
4476.62,0.58629
4470.83,0.57912
4465.05,0.57181
4459.26,0.56351
4453.47,0.55454
4447.69,0.54745
4441.9,0.53984
4436.11,0.53278
4430.33,0.52546
4424.54,0.51991
4418.76,0.51401
4412.97,0.51075
4407.18,0.50721
4401.4,0.50505
4395.61,0.50402
4389.82,0.50439
4384.04,0.50729
4378.25,0.50798
4372.47,0.51142
4366.68,0.51371
4360.89,0.51453
4355.11,0.51422
4349.32,0.51227
4343.53,0.50994
4337.75,0.50737
4331.96,0.50369
4326.18,0.50165
4320.39,0.49775
4314.6,0.49700
4308.82,0.49404
4303.03,0.49178
4297.24,0.49033
4291.46,0.48784
4285.67,0.48737
4279.89,0.48700
4274.1,0.48744
4268.31,0.48773
4262.53,0.48925
4256.74,0.49070
4250.95,0.49066
4245.17,0.49217
4239.38,0.49387
4233.6,0.49504
4227.81,0.49622
4222.02,0.49652
4216.24,0.49666
4210.45,0.49694
4204.66,0.49761
4198.88,0.49726
4193.09,0.49819
4187.31,0.49934
4181.52,0.49997
4175.73,0.50138
4169.95,0.50285
4164.16,0.50355
4158.37,0.50155
4152.59,0.50078
4146.8,0.49869
4141.02,0.49564
4135.23,0.49295
4129.44,0.48908
4123.66,0.48507
4117.87,0.48017
4112.09,0.47499
4106.3,0.46879
4100.51,0.46327
4094.73,0.45800
4088.94,0.45122
4083.15,0.44484
4077.37,0.43903
4071.58,0.43211
4065.8,0.42506
4060.01,0.41914
4054.22,0.41298
4048.44,0.40678
4042.65,0.40175
4036.86,0.39625
4031.08,0.39182
4025.29,0.38927
4019.51,0.38682
4013.72,0.38673
4007.93,0.38625
4002.15,0.38767
3996.36,0.39015
3990.57,0.39228
3984.79,0.39390
3979,0.39634
3973.22,0.39930
3967.43,0.40132
3961.64,0.40543
3955.86,0.40804
3950.07,0.41105
3944.28,0.41439
3938.5,0.41707
3932.71,0.42066
3926.93,0.42474
3921.14,0.42729
3915.35,0.43105
3909.57,0.43443
3903.78,0.43746
3897.99,0.44091
3892.21,0.44370
3886.42,0.44703
3880.64,0.44997
3874.85,0.45233
3869.06,0.45780
3863.28,0.46150
3857.49,0.46429
3851.7,0.47047
3845.92,0.47158
3840.13,0.47535
3834.35,0.47745
3828.56,0.47848
3822.77,0.47905
3816.99,0.48115
3811.2,0.47961
3805.41,0.48040
3799.63,0.48121
3793.84,0.47959
3788.06,0.47904
3782.27,0.47809
3776.48,0.47702
3770.7,0.47600
3764.91,0.47397
3759.12,0.47275
3753.34,0.47072
3747.55,0.46845
3741.77,0.46440
3735.98,0.46149
3730.19,0.45528
3724.41,0.44891
3718.62,0.44198
3712.83,0.43318
3707.05,0.42297
3701.26,0.41097
3695.48,0.39615
3689.69,0.37785
3683.9,0.35523
3678.12,0.33148
3672.33,0.30306
3666.54,0.27582
3660.76,0.25116
3654.97,0.22812
3649.19,0.20818
3643.4,0.18954
3637.61,0.17383
3631.83,0.16155
3626.04,0.14966
3620.25,0.13932
3614.47,0.12976
3608.68,0.12024
3602.9,0.11220
3597.11,0.10476
3591.32,0.09853
3585.54,0.09326
3579.75,0.08794
3573.97,0.08421
3568.18,0.08100
3562.39,0.07660
3556.61,0.07399
3550.82,0.07060
3545.03,0.06725
3539.25,0.06498
3533.46,0.06365
3527.68,0.06100
3521.89,0.05958
3516.1,0.05827
3510.32,0.05657
3504.53,0.05525
3498.74,0.05389
3492.96,0.05259
3487.17,0.05168
3481.39,0.05084
3475.6,0.05031
3469.81,0.04825
3464.03,0.04778
3458.24,0.04737
3452.45,0.04703
3446.67,0.04582
3440.88,0.04532
3435.1,0.04541
3429.31,0.04480
3423.52,0.04520
3417.74,0.04511
3411.95,0.04547
3406.16,0.04526
3400.38,0.04532
3394.59,0.04543
3388.81,0.04567
3383.02,0.04618
3377.23,0.04691
3371.45,0.04657
3365.66,0.04698
3359.87,0.04710
3354.09,0.04780
3348.3,0.04777
3342.52,0.04853
3336.73,0.04869
3330.94,0.05055
3325.16,0.05047
3319.37,0.05119
3313.58,0.05245
3307.8,0.05401
3302.01,0.05404
3296.23,0.05435
3290.44,0.05598
3284.65,0.05676
3278.87,0.05864
3273.08,0.05923
3267.29,0.06024
3261.51,0.06273
3255.72,0.06403
3249.94,0.06564
3244.15,0.06755
3238.36,0.06931
3232.58,0.07062
3226.79,0.07254
3221,0.07405
3215.22,0.07640
3209.43,0.07836
3203.65,0.08016
3197.86,0.08209
3192.07,0.08305
3186.29,0.08528
3180.5,0.08731
3174.71,0.08920
3168.93,0.09114
3163.14,0.09312
3157.36,0.09573
3151.57,0.09678
3145.78,0.09937
3140,0.10131
3134.21,0.10326
3128.42,0.10524
3122.64,0.10771
3116.85,0.10939
3111.07,0.11114
3105.28,0.11324
3099.49,0.11522
3093.71,0.11695
3087.92,0.11927
3082.14,0.12077
3076.35,0.12307
3070.56,0.12530
3064.78,0.12757
3058.99,0.12973
3053.2,0.13236
3047.42,0.13393
3041.63,0.13637
3035.85,0.13633
3030.06,0.13737
3024.27,0.13749
3018.49,0.13661
3012.7,0.13505
3006.91,0.13284
3001.13,0.13135
2995.34,0.12895
2989.56,0.12594
2983.77,0.12107
2977.98,0.11543
2972.2,0.10944
2966.41,0.10489
2960.62,0.10118
2954.84,0.09690
2949.05,0.09261
2943.27,0.08940
2937.48,0.08775
2931.69,0.08798
2925.91,0.08781
2920.12,0.08871
2914.33,0.08952
2908.55,0.08852
2902.76,0.08791
2896.98,0.08795
2891.19,0.08901
2885.4,0.09065
2879.62,0.09132
2873.83,0.09215
2868.04,0.09497
2862.26,0.09774
2856.47,0.10013
2850.69,0.10464
2844.9,0.11156
2839.11,0.11796
2833.33,0.12407
2827.54,0.13052
2821.75,0.13670
2815.97,0.14211
2810.18,0.14643
2804.4,0.15053
2798.61,0.15423
2792.82,0.15694
2787.04,0.15912
2781.25,0.16128
2775.46,0.16255
2769.68,0.16405
2763.89,0.16615
2758.11,0.16737
2752.32,0.16799
2746.53,0.16858
2740.75,0.16908
2734.96,0.17029
2729.17,0.17143
2723.39,0.17335
2717.6,0.17555
2711.82,0.17762
2706.03,0.18095
2700.24,0.18352
2694.46,0.18616
2688.67,0.18815
2682.88,0.19064
2677.1,0.19377
2671.31,0.19647
2665.53,0.19887
2659.74,0.20088
2653.95,0.20290
2648.17,0.20503
2642.38,0.20707
2636.59,0.21025
2630.81,0.21298
2625.02,0.21586
2619.24,0.21830
2613.45,0.22088
2607.66,0.22397
2601.88,0.22580
2596.09,0.22818
2590.3,0.23035
2584.52,0.23224
2578.73,0.23380
2572.95,0.23537
2567.16,0.23625
2561.37,0.23661
2555.59,0.23851
2549.8,0.23908
2544.02,0.24000
2538.23,0.24175
2532.44,0.24391
2526.66,0.24501
2520.87,0.24672
2515.08,0.24865
2509.3,0.25081
2503.51,0.25403
2497.73,0.25691
2491.94,0.26010
2486.15,0.26268
2480.37,0.26552
2474.58,0.26845
2468.79,0.27104
2463.01,0.27397
2457.22,0.27664
2451.44,0.28032
2445.65,0.28350
2439.86,0.28720
2434.08,0.29075
2428.29,0.29440
2422.5,0.29853
2416.72,0.30213
2410.93,0.30650
2405.15,0.31035
2399.36,0.31394
2393.57,0.31747
2387.79,0.32069
2382,0.32347
2376.21,0.32635
2370.43,0.32896
2364.64,0.33173
2358.86,0.33438
2353.07,0.33742
2347.28,0.33971
2341.5,0.34267
2335.71,0.34468
2329.92,0.34604
2324.14,0.34741
2318.35,0.34909
2312.57,0.34942
2306.78,0.34966
2300.99,0.34919
2295.21,0.34900
2289.42,0.34909
2283.63,0.34866
2277.85,0.34817
2272.06,0.34686
2266.28,0.34570
2260.49,0.34435
2254.7,0.34262
2248.92,0.34147
2243.13,0.34136
2237.34,0.34076
2231.56,0.34116
2225.77,0.34141
2219.99,0.34172
2214.2,0.34186
2208.41,0.34127
2202.63,0.34038
2196.84,0.33834
2191.05,0.33583
2185.27,0.33163
2179.48,0.32724
2173.7,0.32267
2167.91,0.31821
2162.12,0.31463
2156.34,0.31188
2150.55,0.30974
2144.76,0.30844
2138.98,0.30811
2133.19,0.30791
2127.41,0.30890
2121.62,0.31032
2115.83,0.31257
2110.05,0.31527
2104.26,0.31770
2098.47,0.32067
2092.69,0.32327
2086.9,0.32507
2081.12,0.32631
2075.33,0.32643
2069.54,0.32662
2063.76,0.32686
2057.97,0.32757
2052.19,0.32814
2046.4,0.32977
2040.61,0.33204
2034.83,0.33500
2029.04,0.33853
2023.25,0.34299
2017.47,0.34810
2011.68,0.35278
2005.9,0.35724
2000.11,0.36073
1994.32,0.36376
1988.54,0.36683
1982.75,0.36843
1976.96,0.36967
1971.18,0.37061
1965.39,0.37144
1959.61,0.37210
1953.82,0.37334
1948.03,0.37571
1942.25,0.37904
1936.46,0.38254
1930.67,0.38583
1924.89,0.38939
1919.1,0.39188
1913.32,0.39315
1907.53,0.39401
1901.74,0.39441
1895.96,0.39444
1890.17,0.39439
1884.38,0.39374
1878.6,0.39314
1872.81,0.39187
1867.03,0.39054
1861.24,0.38823
1855.45,0.38523
1849.67,0.38235
1843.88,0.37941
1838.09,0.37492
1832.31,0.37112
1826.52,0.36566
1820.74,0.35916
1814.95,0.35140
1809.16,0.34292
1803.38,0.33285
1797.59,0.32016
1791.8,0.30599
1786.02,0.28914
1780.23,0.26990
1774.45,0.24674
1768.66,0.21495
1762.87,0.18228
1757.09,0.15357
1751.3,0.13019
1745.51,0.11310
1739.73,0.10512
1733.94,0.10431
1728.16,0.10595
1722.37,0.11056
1716.58,0.11640
1710.8,0.12075
1705.01,0.12530
1699.22,0.12829
1693.44,0.12831
1687.65,0.12734
1681.87,0.12306
1676.08,0.11633
1670.29,0.10577
1664.51,0.09295
1658.72,0.08415
1652.93,0.08445
1647.15,0.08753
1641.36,0.08929
1635.58,0.08858
1629.79,0.08570
1624,0.08289
1618.22,0.07998
1612.43,0.07833
1606.64,0.07662
1600.86,0.07541
1595.07,0.07599
1589.29,0.08032
1583.5,0.08780
1577.71,0.09647
1571.93,0.10482
1566.14,0.11255
1560.35,0.11892
1554.57,0.12368
1548.78,0.12651
1543,0.12805
1537.21,0.12613
1531.42,0.11834
1525.64,0.10424
1519.85,0.08461
1514.07,0.07439
1508.28,0.07384
1502.49,0.07451
1496.71,0.07729
1490.92,0.08300
1485.13,0.08545
1479.35,0.07952
1473.56,0.06904
1467.78,0.06014
1461.99,0.05844
1456.2,0.05860
1450.42,0.05930
1444.63,0.05981
1438.84,0.05767
1433.06,0.05446
1427.27,0.05332
1421.49,0.05585
1415.7,0.05876
1409.91,0.06074
1404.13,0.06035
1398.34,0.05841
1392.55,0.05492
1386.77,0.05097
1380.98,0.04768
1375.2,0.04699
1369.41,0.04754
1363.62,0.04906
1357.84,0.05123
1352.05,0.05289
1346.26,0.05274
1340.48,0.05180
1334.69,0.05113
1328.91,0.05041
1323.12,0.04992
1317.33,0.05084
1311.55,0.05269
1305.76,0.05407
1299.97,0.05532
1294.19,0.05453
1288.4,0.05239
1282.62,0.04965
1276.83,0.04754
1271.04,0.04512
1265.26,0.04404
1259.47,0.04471
1253.68,0.04506
1247.9,0.04647
1242.11,0.04804
1236.33,0.04988
1230.54,0.05231
1224.75,0.05429
1218.97,0.05611
1213.18,0.05618
1207.39,0.05507
1201.61,0.05457
1195.82,0.05454
1190.04,0.05230
1184.25,0.04872
1178.46,0.04536
1172.68,0.04476
1166.89,0.04782
1161.1,0.05141
1155.32,0.05278
1149.53,0.05365
1143.75,0.05276
1137.96,0.05094
1132.17,0.05057
1126.39,0.05238
1120.6,0.05586
1114.81,0.05959
1109.03,0.06438
1103.24,0.06793
1097.46,0.06957
1091.67,0.07065
1085.88,0.07103
1080.1,0.07118
1074.31,0.07166
1068.52,0.07135
1062.74,0.07335
1056.95,0.07659
1051.17,0.08152
1045.38,0.08378
1039.59,0.08657
1033.81,0.08791
1028.02,0.08709
1022.24,0.08531
1016.45,0.08377
1010.66,0.08254
1004.88,0.08186
999.09,0.08240
993.304,0.08418
987.518,0.08879
981.731,0.09550
975.945,0.10164
970.159,0.10697
964.373,0.11421
958.586,0.12437
952.8,0.13631
947.014,0.14571
941.228,0.15281
935.441,0.15581
929.655,0.15906
923.869,0.15900
918.083,0.15620
912.297,0.15108
906.51,0.14141
900.724,0.13095
894.938,0.13494
889.152,0.15075
883.365,0.16468
877.579,0.16956
871.793,0.17200
866.007,0.17206
860.22,0.17043
854.434,0.16662
848.648,0.16166
842.862,0.15603
837.075,0.15577
831.289,0.15984
825.503,0.16286
819.717,0.16382
813.931,0.16451
808.144,0.16570
802.358,0.16625
796.572,0.16618
790.786,0.16375
784.999,0.16103
779.213,0.15718
773.427,0.15263
767.641,0.14890
761.854,0.14528
756.068,0.14118
750.282,0.13617
744.496,0.13124
738.709,0.12801
732.923,0.12534
727.137,0.12179
721.351,0.11943
715.565,0.11604
709.778,0.11594
703.992,0.11374
698.206,0.11312
692.42,0.10966
686.633,0.10752
680.847,0.10302
675.061,0.09962
669.275,0.09763
663.488,0.09934
657.702,0.10106
651.916,0.10211
646.13,0.10021
640.343,0.10068
634.557,0.10043
628.771,0.09925
622.985,0.10032
617.198,0.10216
611.412,0.10477
605.626,0.10681
599.84,0.11073