File: 01_Data/Straw/FTIR/IS/Straw_IS_S_221109_R4.dpt
7497.03,0.83970
7491.25,0.84380
7485.46,0.84846
7479.67,0.83351
7473.89,0.82779
7468.1,0.83766
7462.32,0.83042
7456.53,0.84355
7450.74,0.84217
7444.96,0.82378
7439.17,0.81651
7433.38,0.82089
7427.6,0.82514
7421.81,0.82768
7416.03,0.82236
7410.24,0.82414
7404.45,0.82355
7398.67,0.82960
7392.88,0.83075
7387.09,0.82362
7381.31,0.83128
7375.52,0.81566
7369.74,0.81109
7363.95,0.80197
7358.16,0.81521
7352.38,0.82249
7346.59,0.81252
7340.8,0.81650
7335.02,0.81248
7329.23,0.80748
7323.45,0.81599
7317.66,0.81256
7311.87,0.81506
7306.09,0.81420
7300.3,0.80665
7294.51,0.81977
7288.73,0.80848
7282.94,0.82261
7277.16,0.80887
7271.37,0.80501
7265.58,0.81403
7259.8,0.81199
7254.01,0.82079
7248.22,0.81867
7242.44,0.81943
7236.65,0.81275
7230.87,0.79995
7225.08,0.80748
7219.29,0.80765
7213.51,0.80479
7207.72,0.80648
7201.93,0.81105
7196.15,0.80322
7190.36,0.81691
7184.58,0.80496
7178.79,0.80612
7173,0.80507
7167.22,0.80382
7161.43,0.80183
7155.65,0.78961
7149.86,0.79624
7144.07,0.79570
7138.29,0.79219
7132.5,0.79341
7126.71,0.78769
7120.93,0.77750
7115.14,0.78533
7109.36,0.79056
7103.57,0.77854
7097.78,0.77315
7092,0.76960
7086.21,0.76481
7080.42,0.76178
7074.64,0.76143
7068.85,0.75640
7063.07,0.75171
7057.28,0.74617
7051.49,0.73572
7045.71,0.73525
7039.92,0.74028
7034.13,0.72342
7028.35,0.72602
7022.56,0.72898
7016.78,0.72270
7010.99,0.71356
7005.2,0.70842
6999.42,0.70556
6993.63,0.70428
6987.84,0.70567
6982.06,0.70132
6976.27,0.69904
6970.49,0.69635
6964.7,0.69819
6958.91,0.69213
6953.13,0.69677
6947.34,0.69154
6941.55,0.69279
6935.77,0.69347
6929.98,0.69223
6924.2,0.69075
6918.41,0.69215
6912.62,0.69201
6906.84,0.68677
6901.05,0.68970
6895.26,0.69006
6889.48,0.68573
6883.69,0.68967
6877.91,0.68641
6872.12,0.68993
6866.33,0.68048
6860.55,0.68268
6854.76,0.68868
6848.97,0.68687
6843.19,0.69150
6837.4,0.68881
6831.62,0.68423
6825.83,0.68700
6820.04,0.68673
6814.26,0.68660
6808.47,0.68383
6802.68,0.68745
6796.9,0.68135
6791.11,0.67954
6785.33,0.68319
6779.54,0.67711
6773.75,0.68439
6767.97,0.68616
6762.18,0.68252
6756.39,0.68411
6750.61,0.68114
6744.82,0.68436
6739.04,0.68073
6733.25,0.68333
6727.46,0.68720
6721.68,0.68339
6715.89,0.68892
6710.1,0.68073
6704.32,0.68336
6698.53,0.68343
6692.75,0.68923
6686.96,0.68774
6681.17,0.69201
6675.39,0.68855
6669.6,0.69000
6663.82,0.68702
6658.03,0.69105
6652.24,0.69674
6646.46,0.69463
6640.67,0.69252
6634.88,0.69193
6629.1,0.69413
6623.31,0.69359
6617.53,0.70012
6611.74,0.70069
6605.95,0.69693
6600.17,0.70297
6594.38,0.70394
6588.59,0.70254
6582.81,0.70349
6577.02,0.70791
6571.24,0.71202
6565.45,0.71371
6559.66,0.70775
6553.88,0.70588
6548.09,0.70920
6542.3,0.71287
6536.52,0.71184
6530.73,0.70872
6524.95,0.70699
6519.16,0.71927
6513.37,0.71483
6507.59,0.71404
6501.8,0.71604
6496.01,0.71545
6490.23,0.72535
6484.44,0.71733
6478.66,0.71984
6472.87,0.71614
6467.08,0.71373
6461.3,0.71399
6455.51,0.71820
6449.72,0.72282
6443.94,0.72195
6438.15,0.72060
6432.37,0.72059
6426.58,0.71585
6420.79,0.72124
6415.01,0.71894
6409.22,0.72428
6403.43,0.71999
6397.65,0.72151
6391.86,0.71775
6386.08,0.72436
6380.29,0.72406
6374.5,0.72655
6368.72,0.72453
6362.93,0.72261
6357.14,0.72389
6351.36,0.72039
6345.57,0.72538
6339.79,0.72670
6334,0.72689
6328.21,0.72791
6322.43,0.72378
6316.64,0.72386
6310.85,0.72603
6305.07,0.73054
6299.28,0.73201
6293.5,0.73162
6287.71,0.72999
6281.92,0.73331
6276.14,0.73603
6270.35,0.73081
6264.56,0.73171
6258.78,0.73185
6252.99,0.74000
6247.21,0.73952
6241.42,0.74312
6235.63,0.74352
6229.85,0.73918
6224.06,0.74697
6218.27,0.74820
6212.49,0.74733
6206.7,0.74778
6200.92,0.75111
6195.13,0.74540
6189.34,0.75412
6183.56,0.75382
6177.77,0.75695
6171.98,0.75568
6166.2,0.75720
6160.41,0.75991
6154.63,0.75924
6148.84,0.76127
6143.05,0.76222
6137.27,0.76310
6131.48,0.76343
6125.7,0.76246
6119.91,0.76776
6114.12,0.76473
6108.34,0.76590
6102.55,0.76596
6096.76,0.76694
6090.98,0.76637
6085.19,0.76693
6079.41,0.76485
6073.62,0.76699
6067.83,0.76601
6062.05,0.76689
6056.26,0.76478
6050.47,0.76219
6044.69,0.76634
6038.9,0.76266
6033.12,0.76293
6027.33,0.76403
6021.54,0.75941
6015.76,0.75987
6009.97,0.75940
6004.18,0.75545
5998.4,0.75744
5992.61,0.75582
5986.83,0.75685
5981.04,0.75377
5975.25,0.75382
5969.47,0.75548
5963.68,0.75117
5957.89,0.75234
5952.11,0.75038
5946.32,0.74891
5940.54,0.74951
5934.75,0.75093
5928.96,0.75012
5923.18,0.75001
5917.39,0.74965
5911.6,0.75058
5905.82,0.74383
5900.03,0.74500
5894.25,0.74486
5888.46,0.74526
5882.67,0.74446
5876.89,0.74197
5871.1,0.74317
5865.31,0.74407
5859.53,0.74330
5853.74,0.74073
5847.96,0.74251
5842.17,0.74032
5836.38,0.74241
5830.6,0.74105
5824.81,0.73721
5819.02,0.73504
5813.24,0.73354
5807.45,0.73290
5801.67,0.73550
5795.88,0.73500
5790.09,0.73513
5784.31,0.73750
5778.52,0.73726
5772.73,0.73825
5766.95,0.74213
5761.16,0.74424
5755.38,0.74312
5749.59,0.74273
5743.8,0.74335
5738.02,0.74408
5732.23,0.74385
5726.44,0.74258
5720.66,0.74354
5714.87,0.74236
5709.09,0.74065
5703.3,0.74500
5697.51,0.74229
5691.73,0.74496
5685.94,0.74304
5680.15,0.74039
5674.37,0.73957
5668.58,0.74093
5662.8,0.74042
5657.01,0.74185
5651.22,0.73989
5645.44,0.74051
5639.65,0.74339
5633.87,0.74017
5628.08,0.74080
5622.29,0.74050
5616.51,0.73942
5610.72,0.73934
5604.93,0.74305
5599.15,0.74179
5593.36,0.74213
5587.58,0.74054
5581.79,0.74257
5576,0.74017
5570.22,0.74514
5564.43,0.74538
5558.64,0.74206
5552.86,0.74628
5547.07,0.74505
5541.29,0.74497
5535.5,0.74560
5529.71,0.74755
5523.93,0.74661
5518.14,0.74455
5512.35,0.74741
5506.57,0.74780
5500.78,0.74681
5495,0.74784
5489.21,0.74827
5483.42,0.74560
5477.64,0.74658
5471.85,0.75036
5466.06,0.74881
5460.28,0.75029
5454.49,0.75078
5448.71,0.75202
5442.92,0.75149
5437.13,0.75230
5431.35,0.75418
5425.56,0.75579
5419.77,0.75625
5413.99,0.75823
5408.2,0.76005
5402.42,0.75855
5396.63,0.76127
5390.84,0.75903
5385.06,0.76098
5379.27,0.76309
5373.48,0.76116
5367.7,0.76081
5361.91,0.76103
5356.13,0.76059
5350.34,0.76092
5344.55,0.76004
5338.77,0.75899
5332.98,0.75795
5327.19,0.75499
5321.41,0.75254
5315.62,0.74904
5309.84,0.74567
5304.05,0.74339
5298.26,0.73697
5292.48,0.72931
5286.69,0.72465
5280.9,0.71397
5275.12,0.70501
5269.33,0.69397
5263.55,0.68361
5257.76,0.67180
5251.97,0.66409
5246.19,0.65435
5240.4,0.64795
5234.61,0.64077
5228.83,0.63417
5223.04,0.63035
5217.26,0.62564
5211.47,0.62145
5205.68,0.62048
5199.9,0.62045
5194.11,0.62098
5188.32,0.62052
5182.54,0.62264
5176.75,0.62509
5170.97,0.62625
5165.18,0.62837
5159.39,0.63230
5153.61,0.63646
5147.82,0.63930
5142.03,0.64331
5136.25,0.64415
5130.46,0.64891
5124.68,0.65204
5118.89,0.65534
5113.1,0.65856
5107.32,0.66107
5101.53,0.66350
5095.75,0.66660
5089.96,0.67031
5084.17,0.67163
5078.39,0.67483
5072.6,0.67854
5066.81,0.67980
5061.03,0.68261
5055.24,0.68213
5049.46,0.68373
5043.67,0.68733
5037.88,0.68949
5032.1,0.69073
5026.31,0.69174
5020.52,0.69189
5014.74,0.69129
5008.95,0.69297
5003.17,0.69370
4997.38,0.69322
4991.59,0.69284
4985.81,0.69036
4980.02,0.68939
4974.23,0.68733
4968.45,0.68185
4962.66,0.67854
4956.88,0.67531
4951.09,0.67173
4945.3,0.66503
4939.52,0.66150
4933.73,0.65486
4927.94,0.65045
4922.16,0.64365
4916.37,0.63652
4910.59,0.63234
4904.8,0.62506
4899.01,0.61862
4893.23,0.61363
4887.44,0.60685
4881.65,0.60141
4875.87,0.59412
4870.08,0.58898
4864.3,0.58390
4858.51,0.57856
4852.72,0.57450
4846.94,0.57060
4841.15,0.56599
4835.36,0.56141
4829.58,0.55824
4823.79,0.55473
4818.01,0.55070
4812.22,0.54899
4806.43,0.54798
4800.65,0.54731
4794.86,0.54603
4789.07,0.54362
4783.29,0.54302
4777.5,0.54328
4771.72,0.54245
4765.93,0.54223
4760.14,0.54105
4754.36,0.54187
4748.57,0.54201
4742.78,0.54151
4737,0.54110
4731.21,0.54256
4725.43,0.54476
4719.64,0.54446
4713.85,0.54551
4708.07,0.54698
4702.28,0.54780
4696.49,0.54880
4690.71,0.54978
4684.92,0.55128
4679.14,0.55421
4673.35,0.55694
4667.56,0.55917
4661.78,0.56159
4655.99,0.56383
4650.2,0.56755
4644.42,0.56850
4638.63,0.57106
4632.85,0.57321
4627.06,0.57651
4621.27,0.57937
4615.49,0.58015
4609.7,0.58323
4603.92,0.58570
4598.13,0.58703
4592.34,0.58968
4586.56,0.59223
4580.77,0.59263
4574.98,0.59549
4569.2,0.59556
4563.41,0.59796
4557.63,0.59965
4551.84,0.60161
4546.05,0.60233
4540.27,0.60383
4534.48,0.60460
4528.69,0.60568
4522.91,0.60720
4517.12,0.60749
4511.34,0.60667
4505.55,0.60519
4499.76,0.60372
4493.98,0.60103
4488.19,0.59648
4482.4,0.59282
4476.62,0.58709
4470.83,0.57959
4465.05,0.57212
4459.26,0.56432
4453.47,0.55713
4447.69,0.54901
4441.9,0.54022
4436.11,0.53344
4430.33,0.52618
4424.54,0.52068
4418.76,0.51552
4412.97,0.51096
4407.18,0.50872
4401.4,0.50549
4395.61,0.50503
4389.82,0.50534
4384.04,0.50768
4378.25,0.51017
4372.47,0.51193
4366.68,0.51417
4360.89,0.51591
4355.11,0.51472
4349.32,0.51245
4343.53,0.51098
4337.75,0.50909
4331.96,0.50559
4326.18,0.50165
4320.39,0.49935
4314.6,0.49860
4308.82,0.49573
4303.03,0.49338
4297.24,0.49072
4291.46,0.48931
4285.67,0.48795
4279.89,0.48820
4274.1,0.48798
4268.31,0.48996
4262.53,0.49164
4256.74,0.49188
4250.95,0.49199
4245.17,0.49362
4239.38,0.49570
4233.6,0.49594
4227.81,0.49635
4222.02,0.49774
4216.24,0.49765
4210.45,0.49805
4204.66,0.49858
4198.88,0.49973
4193.09,0.49979
4187.31,0.50026
4181.52,0.50131
4175.73,0.50235
4169.95,0.50458
4164.16,0.50497
4158.37,0.50330
4152.59,0.50318
4146.8,0.50024
4141.02,0.49852
4135.23,0.49512
4129.44,0.49129
4123.66,0.48686
4117.87,0.48129
4112.09,0.47593
4106.3,0.47103
4100.51,0.46528
4094.73,0.46016
4088.94,0.45294
4083.15,0.44649
4077.37,0.44051
4071.58,0.43349
4065.8,0.42685
4060.01,0.41979
4054.22,0.41358
4048.44,0.40803
4042.65,0.40226
4036.86,0.39818
4031.08,0.39299
4025.29,0.39060
4019.51,0.38866
4013.72,0.38851
4007.93,0.38824
4002.15,0.38917
3996.36,0.39155
3990.57,0.39391
3984.79,0.39592
3979,0.39795
3973.22,0.40103
3967.43,0.40366
3961.64,0.40703
3955.86,0.41040
3950.07,0.41310
3944.28,0.41660
3938.5,0.41990
3932.71,0.42329
3926.93,0.42640
3921.14,0.42945
3915.35,0.43276
3909.57,0.43581
3903.78,0.44049
3897.99,0.44335
3892.21,0.44626
3886.42,0.44991
3880.64,0.45250
3874.85,0.45564
3869.06,0.45962
3863.28,0.46342
3857.49,0.46669
3851.7,0.47218
3845.92,0.47346
3840.13,0.47800
3834.35,0.48086
3828.56,0.48127
3822.77,0.48225
3816.99,0.48345
3811.2,0.48339
3805.41,0.48351
3799.63,0.48377
3793.84,0.48312
3788.06,0.48207
3782.27,0.48219
3776.48,0.48095
3770.7,0.47993
3764.91,0.47774
3759.12,0.47679
3753.34,0.47430
3747.55,0.47299
3741.77,0.46910
3735.98,0.46550
3730.19,0.45935
3724.41,0.45418
3718.62,0.44727
3712.83,0.43983
3707.05,0.42875
3701.26,0.41722
3695.48,0.40227
3689.69,0.38571
3683.9,0.36208
3678.12,0.33910
3672.33,0.31181
3666.54,0.28385
3660.76,0.25932
3654.97,0.23561
3649.19,0.21614
3643.4,0.19721
3637.61,0.18198
3631.83,0.16820
3626.04,0.15491
3620.25,0.14455
3614.47,0.13398
3608.68,0.12457
3602.9,0.11649
3597.11,0.10859
3591.32,0.10168
3585.54,0.09566
3579.75,0.09149
3573.97,0.08632
3568.18,0.08198
3562.39,0.07784
3556.61,0.07522
3550.82,0.07210
3545.03,0.06875
3539.25,0.06644
3533.46,0.06449
3527.68,0.06184
3521.89,0.05998
3516.1,0.05859
3510.32,0.05658
3504.53,0.05526
3498.74,0.05368
3492.96,0.05246
3487.17,0.05145
3481.39,0.05040
3475.6,0.04984
3469.81,0.04875
3464.03,0.04800
3458.24,0.04712
3452.45,0.04672
3446.67,0.04611
3440.88,0.04574
3435.1,0.04516
3429.31,0.04503
3423.52,0.04569
3417.74,0.04475
3411.95,0.04548
3406.16,0.04533
3400.38,0.04552
3394.59,0.04641
3388.81,0.04624
3383.02,0.04634
3377.23,0.04708
3371.45,0.04712
3365.66,0.04686
3359.87,0.04745
3354.09,0.04706
3348.3,0.04850
3342.52,0.04905
3336.73,0.04919
3330.94,0.04961
3325.16,0.05064
3319.37,0.05140
3313.58,0.05242
3307.8,0.05276
3302.01,0.05367
3296.23,0.05539
3290.44,0.05605
3284.65,0.05699
3278.87,0.05814
3273.08,0.05965
3267.29,0.06121
3261.51,0.06243
3255.72,0.06455
3249.94,0.06583
3244.15,0.06758
3238.36,0.06937
3232.58,0.07156
3226.79,0.07317
3221,0.07426
3215.22,0.07625
3209.43,0.07830
3203.65,0.08087
3197.86,0.08244
3192.07,0.08434
3186.29,0.08619
3180.5,0.08767
3174.71,0.08985
3168.93,0.09244
3163.14,0.09510
3157.36,0.09704
3151.57,0.09876
3145.78,0.10069
3140,0.10289
3134.21,0.10434
3128.42,0.10628
3122.64,0.10912
3116.85,0.11093
3111.07,0.11354
3105.28,0.11570
3099.49,0.11725
3093.71,0.11952
3087.92,0.12142
3082.14,0.12318
3076.35,0.12505
3070.56,0.12676
3064.78,0.13003
3058.99,0.13218
3053.2,0.13421
3047.42,0.13571
3041.63,0.13764
3035.85,0.13877
3030.06,0.13891
3024.27,0.13856
3018.49,0.13758
3012.7,0.13637
3006.91,0.13484
3001.13,0.13236
2995.34,0.12989
2989.56,0.12672
2983.77,0.12162
2977.98,0.11565
2972.2,0.11000
2966.41,0.10531
2960.62,0.10100
2954.84,0.09660
2949.05,0.09303
2943.27,0.08926
2937.48,0.08805
2931.69,0.08776
2925.91,0.08794
2920.12,0.08927
2914.33,0.09017
2908.55,0.08831
2902.76,0.08818
2896.98,0.08814
2891.19,0.08853
2885.4,0.09031
2879.62,0.09176
2873.83,0.09278
2868.04,0.09493
2862.26,0.09773
2856.47,0.10100
2850.69,0.10441
2844.9,0.11142
2839.11,0.11726
2833.33,0.12465
2827.54,0.13121
2821.75,0.13711
2815.97,0.14238
2810.18,0.14707
2804.4,0.15073
2798.61,0.15459
2792.82,0.15749
2787.04,0.16006
2781.25,0.16187
2775.46,0.16335
2769.68,0.16496
2763.89,0.16635
2758.11,0.16785
2752.32,0.16894
2746.53,0.16971
2740.75,0.16989
2734.96,0.17113
2729.17,0.17266
2723.39,0.17412
2717.6,0.17614
2711.82,0.17841
2706.03,0.18144
2700.24,0.18394
2694.46,0.18657
2688.67,0.18911
2682.88,0.19158
2677.1,0.19420
2671.31,0.19702
2665.53,0.19926
2659.74,0.20156
2653.95,0.20370
2648.17,0.20589
2642.38,0.20835
2636.59,0.21073
2630.81,0.21387
2625.02,0.21681
2619.24,0.21913
2613.45,0.22178
2607.66,0.22443
2601.88,0.22672
2596.09,0.22915
2590.3,0.23101
2584.52,0.23332
2578.73,0.23511
2572.95,0.23564
2567.16,0.23670
2561.37,0.23807
2555.59,0.23897
2549.8,0.24036
2544.02,0.24113
2538.23,0.24226
2532.44,0.24450
2526.66,0.24628
2520.87,0.24778
2515.08,0.24940
2509.3,0.25182
2503.51,0.25455
2497.73,0.25774
2491.94,0.26081
2486.15,0.26326
2480.37,0.26633
2474.58,0.26938
2468.79,0.27194
2463.01,0.27477
2457.22,0.27795
2451.44,0.28086
2445.65,0.28458
2439.86,0.28799
2434.08,0.29174
2428.29,0.29527
2422.5,0.29937
2416.72,0.30320
2410.93,0.30744
2405.15,0.31191
2399.36,0.31521
2393.57,0.31856
2387.79,0.32173
2382,0.32479
2376.21,0.32751
2370.43,0.33042
2364.64,0.33386
2358.86,0.33585
2353.07,0.33818
2347.28,0.34153
2341.5,0.34436
2335.71,0.34601
2329.92,0.34796
2324.14,0.34970
2318.35,0.35090
2312.57,0.35191
2306.78,0.35183
2300.99,0.35135
2295.21,0.35119
2289.42,0.35082
2283.63,0.35073
2277.85,0.35028
2272.06,0.34889
2266.28,0.34808
2260.49,0.34640
2254.7,0.34513
2248.92,0.34403
2243.13,0.34323
2237.34,0.34341
2231.56,0.34359
2225.77,0.34405
2219.99,0.34457
2214.2,0.34438
2208.41,0.34440
2202.63,0.34311
2196.84,0.34111
2191.05,0.33829
2185.27,0.33472
2179.48,0.33031
2173.7,0.32562
2167.91,0.32117
2162.12,0.31745
2156.34,0.31483
2150.55,0.31246
2144.76,0.31140
2138.98,0.31056
2133.19,0.31087
2127.41,0.31177
2121.62,0.31414
2115.83,0.31590
2110.05,0.31845
2104.26,0.32113
2098.47,0.32380
2092.69,0.32654
2086.9,0.32872
2081.12,0.32937
2075.33,0.32997
2069.54,0.33001
2063.76,0.33003
2057.97,0.33041
2052.19,0.33150
2046.4,0.33301
2040.61,0.33485
2034.83,0.33795
2029.04,0.34182
2023.25,0.34593
2017.47,0.35081
2011.68,0.35601
2005.9,0.36005
2000.11,0.36387
1994.32,0.36722
1988.54,0.36984
1982.75,0.37169
1976.96,0.37286
1971.18,0.37347
1965.39,0.37461
1959.61,0.37533
1953.82,0.37666
1948.03,0.37848
1942.25,0.38200
1936.46,0.38519
1930.67,0.38886
1924.89,0.39175
1919.1,0.39499
1913.32,0.39607
1907.53,0.39700
1901.74,0.39709
1895.96,0.39719
1890.17,0.39694
1884.38,0.39689
1878.6,0.39618
1872.81,0.39469
1867.03,0.39306
1861.24,0.39072
1855.45,0.38791
1849.67,0.38476
1843.88,0.38209
1838.09,0.37770
1832.31,0.37344
1826.52,0.36800
1820.74,0.36139
1814.95,0.35374
1809.16,0.34471
1803.38,0.33461
1797.59,0.32203
1791.8,0.30756
1786.02,0.29033
1780.23,0.27047
1774.45,0.24673
1768.66,0.21495
1762.87,0.18234
1757.09,0.15309
1751.3,0.13024
1745.51,0.11300
1739.73,0.10536
1733.94,0.10438
1728.16,0.10652
1722.37,0.11070
1716.58,0.11659
1710.8,0.12112
1705.01,0.12590
1699.22,0.12957
1693.44,0.12946
1687.65,0.12823
1681.87,0.12453
1676.08,0.11734
1670.29,0.10685
1664.51,0.09435
1658.72,0.08543
1652.93,0.08549
1647.15,0.08907
1641.36,0.09012
1635.58,0.08903
1629.79,0.08655
1624,0.08337
1618.22,0.08059
1612.43,0.07826
1606.64,0.07709
1600.86,0.07569
1595.07,0.07577
1589.29,0.07992
1583.5,0.08784
1577.71,0.09699
1571.93,0.10555
1566.14,0.11273
1560.35,0.11967
1554.57,0.12464
1548.78,0.12716
1543,0.12916
1537.21,0.12658
1531.42,0.11927
1525.64,0.10430
1519.85,0.08431
1514.07,0.07424
1508.28,0.07350
1502.49,0.07375
1496.71,0.07703
1490.92,0.08281
1485.13,0.08560
1479.35,0.07999
1473.56,0.06915
1467.78,0.06002
1461.99,0.05893
1456.2,0.05870
1450.42,0.05932
1444.63,0.05971
1438.84,0.05691
1433.06,0.05413
1427.27,0.05319
1421.49,0.05539
1415.7,0.05855
1409.91,0.06083
1404.13,0.06008
1398.34,0.05822
1392.55,0.05514
1386.77,0.05094
1380.98,0.04743
1375.2,0.04710
1369.41,0.04759
1363.62,0.04904
1357.84,0.05081
1352.05,0.05256
1346.26,0.05258
1340.48,0.05131
1334.69,0.05051
1328.91,0.05036
1323.12,0.05000
1317.33,0.05055
1311.55,0.05224
1305.76,0.05423
1299.97,0.05521
1294.19,0.05503
1288.4,0.05236
1282.62,0.04940
1276.83,0.04705
1271.04,0.04500
1265.26,0.04413
1259.47,0.04388
1253.68,0.04502
1247.9,0.04636
1242.11,0.04819
1236.33,0.04956
1230.54,0.05232
1224.75,0.05453
1218.97,0.05582
1213.18,0.05598
1207.39,0.05450
1201.61,0.05411
1195.82,0.05436
1190.04,0.05198
1184.25,0.04841
1178.46,0.04554
1172.68,0.04543
1166.89,0.04788
1161.1,0.05125
1155.32,0.05341
1149.53,0.05321
1143.75,0.05283
1137.96,0.05154
1132.17,0.05095
1126.39,0.05254
1120.6,0.05664
1114.81,0.06013
1109.03,0.06456
1103.24,0.06726
1097.46,0.07022
1091.67,0.07071
1085.88,0.07062
1080.1,0.07092
1074.31,0.07185
1068.52,0.07248
1062.74,0.07337
1056.95,0.07715
1051.17,0.08120
1045.38,0.08383
1039.59,0.08647
1033.81,0.08798
1028.02,0.08678
1022.24,0.08473
1016.45,0.08377
1010.66,0.08268
1004.88,0.08254
999.09,0.08310
993.304,0.08381
987.518,0.08852
981.731,0.09615
975.945,0.10153
970.159,0.10750
964.373,0.11437
958.586,0.12478
952.8,0.13604
947.014,0.14723
941.228,0.15418
935.441,0.15747
929.655,0.15987
923.869,0.16009
918.083,0.15833
912.297,0.15214
906.51,0.14255
900.724,0.13156
894.938,0.13587
889.152,0.15211
883.365,0.16672
877.579,0.17181
871.793,0.17380
866.007,0.17373
860.22,0.17293
854.434,0.16759
848.648,0.16312
842.862,0.15872
837.075,0.15842
831.289,0.16196
825.503,0.16529
819.717,0.16625
813.931,0.16708
808.144,0.16859
802.358,0.16882
796.572,0.16896
790.786,0.16648
784.999,0.16360
779.213,0.15997
773.427,0.15523
767.641,0.15120
761.854,0.14775
756.068,0.14304
750.282,0.13833
744.496,0.13323
738.709,0.12951
732.923,0.12659
727.137,0.12337
721.351,0.12119
715.565,0.11883
709.778,0.11705
703.992,0.11483
698.206,0.11397
692.42,0.11083
686.633,0.10804
680.847,0.10358
675.061,0.09829
669.275,0.09967
663.488,0.10165
657.702,0.10213
651.916,0.10403
646.13,0.10235
640.343,0.10248
634.557,0.10018
628.771,0.09895
622.985,0.09811
617.198,0.10232
611.412,0.10311
605.626,0.10569
599.84,0.11052