File: 01_Data/Straw/FTIR/IS/Straw_IS_T_221109_R5.dpt
7497.03,0.02263
7491.25,0.02659
7485.46,0.02166
7479.67,0.03042
7473.89,0.01935
7468.1,0.02266
7462.32,0.02584
7456.53,0.02608
7450.74,0.02643
7444.96,0.02949
7439.17,0.01712
7433.38,0.02337
7427.6,0.02161
7421.81,0.02447
7416.03,0.03470
7410.24,0.02553
7404.45,0.02311
7398.67,0.02317
7392.88,0.02553
7387.09,0.02558
7381.31,0.02351
7375.52,0.02760
7369.74,0.02393
7363.95,0.02492
7358.16,0.02481
7352.38,0.02668
7346.59,0.02192
7340.8,0.02576
7335.02,0.01175
7329.23,0.02620
7323.45,0.03046
7317.66,0.02013
7311.87,0.02341
7306.09,0.02517
7300.3,0.02397
7294.51,0.02705
7288.73,0.02997
7282.94,0.01673
7277.16,0.02157
7271.37,0.02283
7265.58,0.02597
7259.8,0.02145
7254.01,0.02476
7248.22,0.02231
7242.44,0.03141
7236.65,0.01704
7230.87,0.02338
7225.08,0.01476
7219.29,0.01937
7213.51,0.02699
7207.72,0.02731
7201.93,0.02319
7196.15,0.02122
7190.36,0.02497
7184.58,0.02293
7178.79,0.02662
7173,0.03008
7167.22,0.02333
7161.43,0.02813
7155.65,0.02634
7149.86,0.02142
7144.07,0.02659
7138.29,0.02423
7132.5,0.02585
7126.71,0.02164
7120.93,0.01545
7115.14,0.02157
7109.36,0.02560
7103.57,0.02009
7097.78,0.02327
7092,0.02794
7086.21,0.01881
7080.42,0.02246
7074.64,0.02681
7068.85,0.02766
7063.07,0.02727
7057.28,0.02401
7051.49,0.03155
7045.71,0.02530
7039.92,0.02443
7034.13,0.02362
7028.35,0.02521
7022.56,0.02058
7016.78,0.02441
7010.99,0.02779
7005.2,0.02646
6999.42,0.02791
6993.63,0.02437
6987.84,0.02614
6982.06,0.02415
6976.27,0.02238
6970.49,0.02123
6964.7,0.02303
6958.91,0.01772
6953.13,0.02457
6947.34,0.02087
6941.55,0.02112
6935.77,0.02236
6929.98,0.02245
6924.2,0.03185
6918.41,0.02412
6912.62,0.02269
6906.84,0.02435
6901.05,0.01955
6895.26,0.01983
6889.48,0.02251
6883.69,0.02127
6877.91,0.01766
6872.12,0.01788
6866.33,0.02389
6860.55,0.02540
6854.76,0.02640
6848.97,0.02288
6843.19,0.02226
6837.4,0.02660
6831.62,0.02508
6825.83,0.02742
6820.04,0.01609
6814.26,0.02030
6808.47,0.02746
6802.68,0.02144
6796.9,0.02682
6791.11,0.02824
6785.33,0.01881
6779.54,0.02546
6773.75,0.02690
6767.97,0.02167
6762.18,0.02427
6756.39,0.01638
6750.61,0.02306
6744.82,0.02500
6739.04,0.02156
6733.25,0.02366
6727.46,0.02283
6721.68,0.02351
6715.89,0.01736
6710.1,0.02507
6704.32,0.02698
6698.53,0.02379
6692.75,0.01896
6686.96,0.02279
6681.17,0.02464
6675.39,0.02320
6669.6,0.01628
6663.82,0.02241
6658.03,0.02693
6652.24,0.02606
6646.46,0.02251
6640.67,0.02045
6634.88,0.02351
6629.1,0.01712
6623.31,0.01848
6617.53,0.02152
6611.74,0.02555
6605.95,0.01954
6600.17,0.02555
6594.38,0.02602
6588.59,0.02416
6582.81,0.02153
6577.02,0.02431
6571.24,0.02228
6565.45,0.02237
6559.66,0.02126
6553.88,0.02462
6548.09,0.02064
6542.3,0.02323
6536.52,0.02099
6530.73,0.02296
6524.95,0.02569
6519.16,0.02145
6513.37,0.02349
6507.59,0.02236
6501.8,0.02403
6496.01,0.02208
6490.23,0.02316
6484.44,0.02876
6478.66,0.01889
6472.87,0.02066
6467.08,0.02250
6461.3,0.02189
6455.51,0.02595
6449.72,0.02376
6443.94,0.01815
6438.15,0.02433
6432.37,0.02026
6426.58,0.01896
6420.79,0.02142
6415.01,0.02403
6409.22,0.01916
6403.43,0.02285
6397.65,0.02432
6391.86,0.01926
6386.08,0.02168
6380.29,0.02137
6374.5,0.02034
6368.72,0.02196
6362.93,0.02096
6357.14,0.02174
6351.36,0.01176
6345.57,0.01786
6339.79,0.02121
6334,0.01975
6328.21,0.02479
6322.43,0.02343
6316.64,0.02289
6310.85,0.02116
6305.07,0.02182
6299.28,0.02259
6293.5,0.02418
6287.71,0.02176
6281.92,0.02497
6276.14,0.02404
6270.35,0.02406
6264.56,0.02170
6258.78,0.02085
6252.99,0.01937
6247.21,0.02305
6241.42,0.01813
6235.63,0.01898
6229.85,0.01953
6224.06,0.01932
6218.27,0.02009
6212.49,0.02051
6206.7,0.02085
6200.92,0.02284
6195.13,0.02269
6189.34,0.02202
6183.56,0.02328
6177.77,0.02065
6171.98,0.02102
6166.2,0.02070
6160.41,0.02323
6154.63,0.02013
6148.84,0.02118
6143.05,0.02343
6137.27,0.02113
6131.48,0.02285
6125.7,0.02383
6119.91,0.02087
6114.12,0.02246
6108.34,0.02129
6102.55,0.02188
6096.76,0.01869
6090.98,0.01975
6085.19,0.02104
6079.41,0.02401
6073.62,0.02176
6067.83,0.02334
6062.05,0.02199
6056.26,0.02104
6050.47,0.02227
6044.69,0.02199
6038.9,0.02144
6033.12,0.02142
6027.33,0.02552
6021.54,0.02311
6015.76,0.01962
6009.97,0.01923
6004.18,0.02223
5998.4,0.02078
5992.61,0.02080
5986.83,0.02272
5981.04,0.02017
5975.25,0.02078
5969.47,0.01560
5963.68,0.01880
5957.89,0.02345
5952.11,0.01906
5946.32,0.02167
5940.54,0.02164
5934.75,0.02258
5928.96,0.02243
5923.18,0.02187
5917.39,0.02176
5911.6,0.02293
5905.82,0.01960
5900.03,0.02327
5894.25,0.02145
5888.46,0.01956
5882.67,0.01894
5876.89,0.02140
5871.1,0.02232
5865.31,0.02172
5859.53,0.02360
5853.74,0.02077
5847.96,0.02210
5842.17,0.02330
5836.38,0.02253
5830.6,0.02342
5824.81,0.01966
5819.02,0.02197
5813.24,0.02037
5807.45,0.02231
5801.67,0.02085
5795.88,0.02087
5790.09,0.02174
5784.31,0.02134
5778.52,0.02018
5772.73,0.02097
5766.95,0.02024
5761.16,0.02392
5755.38,0.02038
5749.59,0.02105
5743.8,0.02207
5738.02,0.02342
5732.23,0.02017
5726.44,0.02160
5720.66,0.02235
5714.87,0.01908
5709.09,0.02031
5703.3,0.02386
5697.51,0.02097
5691.73,0.02021
5685.94,0.02084
5680.15,0.02366
5674.37,0.02238
5668.58,0.01925
5662.8,0.01923
5657.01,0.02047
5651.22,0.02193
5645.44,0.02023
5639.65,0.02054
5633.87,0.01915
5628.08,0.01999
5622.29,0.02241
5616.51,0.02079
5610.72,0.02302
5604.93,0.02033
5599.15,0.02177
5593.36,0.02138
5587.58,0.02333
5581.79,0.02178
5576,0.02202
5570.22,0.02160
5564.43,0.02086
5558.64,0.02186
5552.86,0.02238
5547.07,0.02113
5541.29,0.02209
5535.5,0.02132
5529.71,0.02118
5523.93,0.01935
5518.14,0.02148
5512.35,0.02183
5506.57,0.02120
5500.78,0.02084
5495,0.02232
5489.21,0.02193
5483.42,0.02285
5477.64,0.02259
5471.85,0.02017
5466.06,0.02241
5460.28,0.02246
5454.49,0.02347
5448.71,0.01959
5442.92,0.02191
5437.13,0.01939
5431.35,0.02170
5425.56,0.02220
5419.77,0.02131
5413.99,0.02216
5408.2,0.02099
5402.42,0.02113
5396.63,0.02177
5390.84,0.02076
5385.06,0.02041
5379.27,0.02092
5373.48,0.02164
5367.7,0.02104
5361.91,0.02196
5356.13,0.02305
5350.34,0.02260
5344.55,0.02186
5338.77,0.02332
5332.98,0.02264
5327.19,0.02263
5321.41,0.02212
5315.62,0.01995
5309.84,0.02160
5304.05,0.02205
5298.26,0.02130
5292.48,0.02165
5286.69,0.02127
5280.9,0.02204
5275.12,0.02295
5269.33,0.02167
5263.55,0.02272
5257.76,0.02291
5251.97,0.02198
5246.19,0.02136
5240.4,0.02248
5234.61,0.02122
5228.83,0.02097
5223.04,0.02118
5217.26,0.02407
5211.47,0.02233
5205.68,0.02212
5199.9,0.02112
5194.11,0.02148
5188.32,0.02154
5182.54,0.02147
5176.75,0.02155
5170.97,0.02220
5165.18,0.02061
5159.39,0.02141
5153.61,0.02133
5147.82,0.02242
5142.03,0.02177
5136.25,0.02195
5130.46,0.02203
5124.68,0.02200
5118.89,0.02162
5113.1,0.02072
5107.32,0.02145
5101.53,0.02111
5095.75,0.02108
5089.96,0.02269
5084.17,0.02174
5078.39,0.02163
5072.6,0.02246
5066.81,0.02191
5061.03,0.02177
5055.24,0.02215
5049.46,0.02178
5043.67,0.02173
5037.88,0.02238
5032.1,0.02186
5026.31,0.02201
5020.52,0.02163
5014.74,0.02131
5008.95,0.02250
5003.17,0.02254
4997.38,0.02061
4991.59,0.02164
4985.81,0.02230
4980.02,0.02199
4974.23,0.02003
4968.45,0.02104
4962.66,0.02300
4956.88,0.02220
4951.09,0.02139
4945.3,0.02271
4939.52,0.02275
4933.73,0.02341
4927.94,0.02214
4922.16,0.02171
4916.37,0.02094
4910.59,0.02086
4904.8,0.02115
4899.01,0.02280
4893.23,0.02172
4887.44,0.02238
4881.65,0.02233
4875.87,0.02134
4870.08,0.02152
4864.3,0.02220
4858.51,0.02205
4852.72,0.02202
4846.94,0.02195
4841.15,0.02287
4835.36,0.02240
4829.58,0.02168
4823.79,0.02174
4818.01,0.02192
4812.22,0.02295
4806.43,0.02285
4800.65,0.02239
4794.86,0.02285
4789.07,0.02215
4783.29,0.02237
4777.5,0.02095
4771.72,0.02263
4765.93,0.02260
4760.14,0.02100
4754.36,0.02153
4748.57,0.02192
4742.78,0.02139
4737,0.02190
4731.21,0.02213
4725.43,0.02281
4719.64,0.02270
4713.85,0.02250
4708.07,0.02222
4702.28,0.02186
4696.49,0.02149
4690.71,0.02255
4684.92,0.02238
4679.14,0.02246
4673.35,0.02056
4667.56,0.02154
4661.78,0.02095
4655.99,0.02017
4650.2,0.02207
4644.42,0.02242
4638.63,0.02258
4632.85,0.02071
4627.06,0.02184
4621.27,0.02283
4615.49,0.02193
4609.7,0.02259
4603.92,0.02184
4598.13,0.02154
4592.34,0.02255
4586.56,0.02200
4580.77,0.02186
4574.98,0.02208
4569.2,0.02199
4563.41,0.02258
4557.63,0.02304
4551.84,0.02236
4546.05,0.02228
4540.27,0.02114
4534.48,0.02326
4528.69,0.02255
4522.91,0.02207
4517.12,0.02128
4511.34,0.02196
4505.55,0.02217
4499.76,0.02298
4493.98,0.02108
4488.19,0.02256
4482.4,0.02232
4476.62,0.02208
4470.83,0.02207
4465.05,0.02273
4459.26,0.02204
4453.47,0.02104
4447.69,0.02154
4441.9,0.02116
4436.11,0.02230
4430.33,0.02216
4424.54,0.02174
4418.76,0.02209
4412.97,0.02210
4407.18,0.02208
4401.4,0.02225
4395.61,0.02286
4389.82,0.02215
4384.04,0.02211
4378.25,0.02258
4372.47,0.02250
4366.68,0.02120
4360.89,0.02233
4355.11,0.02313
4349.32,0.02206
4343.53,0.02305
4337.75,0.02239
4331.96,0.02198
4326.18,0.02203
4320.39,0.02327
4314.6,0.02274
4308.82,0.02218
4303.03,0.02199
4297.24,0.02259
4291.46,0.02261
4285.67,0.02248
4279.89,0.02210
4274.1,0.02188
4268.31,0.02193
4262.53,0.02229
4256.74,0.02234
4250.95,0.02230
4245.17,0.02202
4239.38,0.02159
4233.6,0.02261
4227.81,0.02212
4222.02,0.02176
4216.24,0.02175
4210.45,0.02239
4204.66,0.02293
4198.88,0.02258
4193.09,0.02258
4187.31,0.02211
4181.52,0.02237
4175.73,0.02200
4169.95,0.02329
4164.16,0.02229
4158.37,0.02274
4152.59,0.02264
4146.8,0.02289
4141.02,0.02250
4135.23,0.02263
4129.44,0.02227
4123.66,0.02269
4117.87,0.02264
4112.09,0.02289
4106.3,0.02268
4100.51,0.02211
4094.73,0.02217
4088.94,0.02261
4083.15,0.02257
4077.37,0.02298
4071.58,0.02283
4065.8,0.02254
4060.01,0.02247
4054.22,0.02278
4048.44,0.02212
4042.65,0.02246
4036.86,0.02339
4031.08,0.02276
4025.29,0.02242
4019.51,0.02195
4013.72,0.02180
4007.93,0.02214
4002.15,0.02256
3996.36,0.02256
3990.57,0.02268
3984.79,0.02300
3979,0.02263
3973.22,0.02273
3967.43,0.02236
3961.64,0.02285
3955.86,0.02316
3950.07,0.02267
3944.28,0.02276
3938.5,0.02259
3932.71,0.02332
3926.93,0.02257
3921.14,0.02303
3915.35,0.02233
3909.57,0.02228
3903.78,0.02291
3897.99,0.02232
3892.21,0.02268
3886.42,0.02279
3880.64,0.02357
3874.85,0.02279
3869.06,0.02294
3863.28,0.02311
3857.49,0.02250
3851.7,0.02350
3845.92,0.02344
3840.13,0.02398
3834.35,0.02245
3828.56,0.02287
3822.77,0.02227
3816.99,0.02239
3811.2,0.02238
3805.41,0.02245
3799.63,0.02291
3793.84,0.02238
3788.06,0.02278
3782.27,0.02279
3776.48,0.02267
3770.7,0.02287
3764.91,0.02278
3759.12,0.02221
3753.34,0.02296
3747.55,0.02185
3741.77,0.02193
3735.98,0.02275
3730.19,0.02289
3724.41,0.02271
3718.62,0.02278
3712.83,0.02260
3707.05,0.02258
3701.26,0.02214
3695.48,0.02259
3689.69,0.02232
3683.9,0.02293
3678.12,0.02287
3672.33,0.02238
3666.54,0.02210
3660.76,0.02210
3654.97,0.02195
3649.19,0.02239
3643.4,0.02230
3637.61,0.02201
3631.83,0.02204
3626.04,0.02168
3620.25,0.02215
3614.47,0.02209
3608.68,0.02209
3602.9,0.02203
3597.11,0.02122
3591.32,0.02153
3585.54,0.02189
3579.75,0.02140
3573.97,0.02079
3568.18,0.02125
3562.39,0.02111
3556.61,0.02109
3550.82,0.02160
3545.03,0.02153
3539.25,0.02200
3533.46,0.02136
3527.68,0.02061
3521.89,0.02112
3516.1,0.02102
3510.32,0.02059
3504.53,0.02132
3498.74,0.02105
3492.96,0.02125
3487.17,0.02096
3481.39,0.02072
3475.6,0.02037
3469.81,0.02104
3464.03,0.02038
3458.24,0.02030
3452.45,0.02065
3446.67,0.02133
3440.88,0.02106
3435.1,0.02020
3429.31,0.02062
3423.52,0.02040
3417.74,0.02045
3411.95,0.02067
3406.16,0.02117
3400.38,0.02036
3394.59,0.02024
3388.81,0.02064
3383.02,0.02015
3377.23,0.02014
3371.45,0.02033
3365.66,0.02113
3359.87,0.02010
3354.09,0.02006
3348.3,0.02066
3342.52,0.02023
3336.73,0.02056
3330.94,0.02007
3325.16,0.02101
3319.37,0.02073
3313.58,0.02001
3307.8,0.02045
3302.01,0.02063
3296.23,0.02078
3290.44,0.02086
3284.65,0.02107
3278.87,0.02057
3273.08,0.01996
3267.29,0.02052
3261.51,0.02086
3255.72,0.02102
3249.94,0.02103
3244.15,0.02135
3238.36,0.02108
3232.58,0.02083
3226.79,0.02109
3221,0.02095
3215.22,0.02093
3209.43,0.02133
3203.65,0.02150
3197.86,0.02112
3192.07,0.02072
3186.29,0.02090
3180.5,0.02108
3174.71,0.02173
3168.93,0.02144
3163.14,0.02095
3157.36,0.02115
3151.57,0.02100
3145.78,0.02087
3140,0.02097
3134.21,0.02114
3128.42,0.02110
3122.64,0.02088
3116.85,0.02114
3111.07,0.02097
3105.28,0.02130
3099.49,0.02138
3093.71,0.02115
3087.92,0.02048
3082.14,0.02104
3076.35,0.02124
3070.56,0.02110
3064.78,0.02065
3058.99,0.02116
3053.2,0.02090
3047.42,0.02036
3041.63,0.02075
3035.85,0.02070
3030.06,0.02087
3024.27,0.02066
3018.49,0.02081
3012.7,0.02079
3006.91,0.02086
3001.13,0.02050
2995.34,0.02036
2989.56,0.01998
2983.77,0.01997
2977.98,0.02029
2972.2,0.02010
2966.41,0.01993
2960.62,0.01982
2954.84,0.01957
2949.05,0.01990
2943.27,0.01994
2937.48,0.01987
2931.69,0.01985
2925.91,0.02040
2920.12,0.02104
2914.33,0.02040
2908.55,0.02051
2902.76,0.02061
2896.98,0.02073
2891.19,0.02084
2885.4,0.02082
2879.62,0.02036
2873.83,0.02059
2868.04,0.02087
2862.26,0.02149
2856.47,0.02078
2850.69,0.02132
2844.9,0.02158
2839.11,0.02187
2833.33,0.02194
2827.54,0.02145
2821.75,0.02184
2815.97,0.02164
2810.18,0.02133
2804.4,0.02191
2798.61,0.02125
2792.82,0.02125
2787.04,0.02148
2781.25,0.02128
2775.46,0.02150
2769.68,0.02183
2763.89,0.02208
2758.11,0.02112
2752.32,0.02111
2746.53,0.02109
2740.75,0.02103
2734.96,0.02168
2729.17,0.02176
2723.39,0.02176
2717.6,0.02125
2711.82,0.02189
2706.03,0.02108
2700.24,0.02175
2694.46,0.02230
2688.67,0.02164
2682.88,0.02169
2677.1,0.02125
2671.31,0.02184
2665.53,0.02154
2659.74,0.02176
2653.95,0.02192
2648.17,0.02174
2642.38,0.02163
2636.59,0.02163
2630.81,0.02147
2625.02,0.02155
2619.24,0.02133
2613.45,0.02133
2607.66,0.02164
2601.88,0.02147
2596.09,0.02155
2590.3,0.02163
2584.52,0.02207
2578.73,0.02181
2572.95,0.02137
2567.16,0.02182
2561.37,0.02138
2555.59,0.02139
2549.8,0.02167
2544.02,0.02170
2538.23,0.02168
2532.44,0.02155
2526.66,0.02169
2520.87,0.02155
2515.08,0.02142
2509.3,0.02202
2503.51,0.02154
2497.73,0.02141
2491.94,0.02173
2486.15,0.02174
2480.37,0.02178
2474.58,0.02195
2468.79,0.02156
2463.01,0.02153
2457.22,0.02108
2451.44,0.02159
2445.65,0.02163
2439.86,0.02144
2434.08,0.02122
2428.29,0.02161
2422.5,0.02169
2416.72,0.02157
2410.93,0.02136
2405.15,0.02137
2399.36,0.02138
2393.57,0.02142
2387.79,0.02170
2382,0.02180
2376.21,0.02181
2370.43,0.02190
2364.64,0.02176
2358.86,0.02156
2353.07,0.02146
2347.28,0.02133
2341.5,0.02167
2335.71,0.02149
2329.92,0.02130
2324.14,0.02199
2318.35,0.02194
2312.57,0.02148
2306.78,0.02189
2300.99,0.02185
2295.21,0.02174
2289.42,0.02151
2283.63,0.02118
2277.85,0.02117
2272.06,0.02130
2266.28,0.02137
2260.49,0.02138
2254.7,0.02164
2248.92,0.02127
2243.13,0.02166
2237.34,0.02138
2231.56,0.02149
2225.77,0.02164
2219.99,0.02087
2214.2,0.02096
2208.41,0.02095
2202.63,0.02154
2196.84,0.02144
2191.05,0.02132
2185.27,0.02178
2179.48,0.02126
2173.7,0.02139
2167.91,0.02142
2162.12,0.02152
2156.34,0.02091
2150.55,0.02166
2144.76,0.02132
2138.98,0.02097
2133.19,0.02107
2127.41,0.02135
2121.62,0.02156
2115.83,0.02139
2110.05,0.02151
2104.26,0.02130
2098.47,0.02144
2092.69,0.02124
2086.9,0.02181
2081.12,0.02132
2075.33,0.02147
2069.54,0.02151
2063.76,0.02149
2057.97,0.02133
2052.19,0.02129
2046.4,0.02129
2040.61,0.02132
2034.83,0.02138
2029.04,0.02133
2023.25,0.02101
2017.47,0.02110
2011.68,0.02104
2005.9,0.02105
2000.11,0.02122
1994.32,0.02130
1988.54,0.02127
1982.75,0.02089
1976.96,0.02126
1971.18,0.02121
1965.39,0.02122
1959.61,0.02093
1953.82,0.02140
1948.03,0.02104
1942.25,0.02116
1936.46,0.02134
1930.67,0.02139
1924.89,0.02118
1919.1,0.02129
1913.32,0.02108
1907.53,0.02100
1901.74,0.02102
1895.96,0.02093
1890.17,0.02082
1884.38,0.02140
1878.6,0.02088
1872.81,0.02102
1867.03,0.02068
1861.24,0.02052
1855.45,0.02079
1849.67,0.02070
1843.88,0.02092
1838.09,0.02055
1832.31,0.02064
1826.52,0.02047
1820.74,0.02062
1814.95,0.02027
1809.16,0.02027
1803.38,0.02026
1797.59,0.02010
1791.8,0.01986
1786.02,0.01970
1780.23,0.01934
1774.45,0.01933
1768.66,0.01879
1762.87,0.01850
1757.09,0.01791
1751.3,0.01757
1745.51,0.01796
1739.73,0.01863
1733.94,0.02008
1728.16,0.02045
1722.37,0.02123
1716.58,0.02137
1710.8,0.02053
1705.01,0.02046
1699.22,0.01989
1693.44,0.01964
1687.65,0.01933
1681.87,0.01941
1676.08,0.01892
1670.29,0.01928
1664.51,0.01829
1658.72,0.01871
1652.93,0.01907
1647.15,0.01886
1641.36,0.01898
1635.58,0.01893
1629.79,0.01878
1624,0.01928
1618.22,0.01974
1612.43,0.01934
1606.64,0.01890
1600.86,0.01926
1595.07,0.01920
1589.29,0.01871
1583.5,0.01915
1577.71,0.01903
1571.93,0.01866
1566.14,0.01808
1560.35,0.01839
1554.57,0.01814
1548.78,0.01814
1543,0.01856
1537.21,0.01847
1531.42,0.01883
1525.64,0.01880
1519.85,0.01864
1514.07,0.01888
1508.28,0.01899
1502.49,0.01930
1496.71,0.01952
1490.92,0.01940
1485.13,0.01922
1479.35,0.01893
1473.56,0.01889
1467.78,0.01848
1461.99,0.01851
1456.2,0.01830
1450.42,0.01844
1444.63,0.01881
1438.84,0.01893
1433.06,0.01882
1427.27,0.01914
1421.49,0.01925
1415.7,0.01841
1409.91,0.01875
1404.13,0.01877
1398.34,0.01897
1392.55,0.01847
1386.77,0.01834
1380.98,0.01813
1375.2,0.01863
1369.41,0.01846
1363.62,0.01864
1357.84,0.01852
1352.05,0.01830
1346.26,0.01832
1340.48,0.01806
1334.69,0.01818
1328.91,0.01790
1323.12,0.01777
1317.33,0.01730
1311.55,0.01712
1305.76,0.01731
1299.97,0.01796
1294.19,0.01806
1288.4,0.01830
1282.62,0.01867
1276.83,0.01942
1271.04,0.01983
1265.26,0.02001
1259.47,0.02042
1253.68,0.02066
1247.9,0.02051
1242.11,0.02024
1236.33,0.02022
1230.54,0.01986
1224.75,0.01999
1218.97,0.01935
1213.18,0.01912
1207.39,0.01900
1201.61,0.01893
1195.82,0.01854
1190.04,0.01860
1184.25,0.01867
1178.46,0.01783
1172.68,0.01812
1166.89,0.01855
1161.1,0.01786
1155.32,0.01745
1149.53,0.01757
1143.75,0.01752
1137.96,0.01792
1132.17,0.01773
1126.39,0.01831
1120.6,0.01938
1114.81,0.01890
1109.03,0.01908
1103.24,0.01828
1097.46,0.01827
1091.67,0.01843
1085.88,0.01826
1080.1,0.01964
1074.31,0.01993
1068.52,0.01999
1062.74,0.02022
1056.95,0.01961
1051.17,0.02031
1045.38,0.02015
1039.59,0.01933
1033.81,0.01943
1028.02,0.01922
1022.24,0.01937
1016.45,0.01942
1010.66,0.02005
1004.88,0.02086
999.09,0.02143
993.304,0.02150
987.518,0.02107
981.731,0.02091
975.945,0.02063
970.159,0.02040
964.373,0.02036
958.586,0.02058
952.8,0.02015
947.014,0.01968
941.228,0.02020
935.441,0.01962
929.655,0.01996
923.869,0.02008
918.083,0.01989
912.297,0.01982
906.51,0.01981
900.724,0.01915
894.938,0.01967
889.152,0.01878
883.365,0.01887
877.579,0.01974
871.793,0.01959
866.007,0.01959
860.22,0.01957
854.434,0.01918
848.648,0.01959
842.862,0.01883
837.075,0.01956
831.289,0.01929
825.503,0.01935
819.717,0.01954
813.931,0.01869
808.144,0.01908
802.358,0.01869
796.572,0.01862
790.786,0.01868
784.999,0.01856
779.213,0.01946
773.427,0.01910
767.641,0.01842
761.854,0.01817
756.068,0.01892
750.282,0.01887
744.496,0.01801
738.709,0.01774
732.923,0.01897
727.137,0.01782
721.351,0.01759
715.565,0.01839
709.778,0.01880
703.992,0.01834
698.206,0.01827
692.42,0.01804
686.633,0.01831
680.847,0.01765
675.061,0.01741
669.275,0.01670
663.488,0.01727
657.702,0.01609
651.916,0.01691
646.13,0.01677
640.343,0.01749
634.557,0.01721
628.771,0.01462
622.985,0.01540
617.198,0.01502
611.412,0.01705
605.626,0.01684
599.84,0.01365