File: 01_Data/Gypsum_Wallboard_Paper/MCC/Gypsum_Wallboard_Paper_MCC_30K_min_211001_R2.txt
Sample ID:	C:\MCC\MCC Cal\Test\Gypsum_Wallboard_Paper_211001_R2.txt
Sample Weight (mg):	4.81
Heating Rate (C/s):	0.5
Combustor Temp (C):	900
N2 Flow Rate (cc/min):	80
O2 Flow Rate (cc/min):	20
Calibration File:	C:\MCC\MCC Cal\Coeff1 JN10440_30_210304.txt.txt
T Correction Coefficients:	0	1.024463	0
Time Shift (s):	14
*
Time (s)	Temperature (C)	N2 flow rate (cc/min)	O2 flow rate (cc/min)	Flow Rate (cc/min)	Oxygen (%)	HRR (W/g)	Heating rate (C/s)
0.000	108.918	80.002	19.993	100.581	19.936	0.248	-0.009
2.000	108.908	80.002	19.993	100.577	19.937	0.230	0.013
4.000	108.885	80.003	19.993	100.584	19.938	0.178	0.008
6.000	108.888	80.004	19.993	100.586	19.937	0.185	-0.020
8.000	108.861	80.003	19.995	100.585	19.938	0.165	0.016
10.000	108.914	80.001	19.994	100.592	19.935	0.357	0.024
12.000	108.841	80.001	19.994	100.579	19.935	0.371	0.019
14.000	108.861	80.002	19.994	100.599	19.931	0.584	-0.002
16.000	108.858	80.002	19.995	100.614	19.933	0.456	0.000
18.000	108.837	80.001	19.994	100.620	19.928	0.808	-0.012
20.000	108.893	80.001	19.993	100.633	19.924	1.033	0.036
22.000	108.896	80.000	19.993	100.651	19.924	1.045	0.004
24.000	108.937	80.001	19.993	100.678	19.922	1.213	0.026
26.000	109.018	80.001	19.994	100.692	19.918	1.465	0.061
28.001	109.134	80.003	19.994	100.721	19.915	1.646	0.045
30.000	109.249	80.002	19.995	100.747	19.908	2.090	0.043
32.000	109.397	80.002	19.995	100.736	19.904	2.340	0.054
34.000	109.538	80.003	19.993	100.743	19.901	2.542	0.084
36.000	109.783	80.003	19.994	100.756	19.898	2.734	0.118
38.000	110.034	80.002	19.994	100.763	19.901	2.539	0.117
40.000	110.294	80.003	19.994	100.775	19.897	2.838	0.115
42.001	110.566	80.001	19.994	100.772	19.897	2.835	0.178
44.000	110.828	80.001	19.994	100.772	19.894	3.029	0.137
46.000	111.189	80.001	19.994	100.780	19.893	3.084	0.165
48.001	111.509	80.001	19.995	100.791	19.892	3.179	0.181
50.000	111.918	80.002	19.995	100.792	19.888	3.425	0.207
52.000	112.330	80.000	19.995	100.792	19.887	3.508	0.223
54.000	112.764	80.001	19.994	100.798	19.885	3.584	0.190
56.000	113.199	80.001	19.994	100.802	19.887	3.492	0.228
58.000	113.677	80.003	19.995	100.798	19.889	3.360	0.227
60.000	114.192	80.002	19.995	100.799	19.886	3.552	0.228
62.000	114.687	80.003	19.995	100.801	19.888	3.427	0.266
64.000	115.186	80.002	19.995	100.802	19.890	3.255	0.263
66.000	115.771	80.002	19.994	100.802	19.891	3.202	0.322
68.000	116.278	80.002	19.996	100.803	19.889	3.323	0.280
70.000	116.819	80.002	19.996	100.806	19.889	3.351	0.268
72.000	117.425	80.001	19.996	100.805	19.888	3.404	0.327
74.000	118.080	80.002	19.994	100.812	19.891	3.232	0.303
76.000	118.662	80.001	19.997	100.808	19.892	3.135	0.310
78.000	119.298	80.002	19.996	100.806	19.886	3.540	0.330
80.001	119.940	80.003	19.996	100.803	19.888	3.415	0.346
82.001	120.570	80.002	19.995	100.806	19.883	3.769	0.351
84.001	121.231	80.003	19.995	100.806	19.888	3.413	0.318
86.000	121.947	80.002	19.995	100.806	19.883	3.711	0.336
88.001	122.578	80.005	19.994	100.813	19.886	3.544	0.318
90.000	123.255	80.004	19.995	100.809	19.890	3.304	0.302
92.000	123.981	80.002	19.994	100.806	19.887	3.484	0.345
94.000	124.665	80.002	19.994	100.807	19.887	3.458	0.361
96.000	125.413	80.004	19.995	100.810	19.886	3.567	0.354
98.000	126.154	80.002	19.994	100.826	19.889	3.373	0.389
100.000	126.884	80.000	19.995	100.830	19.888	3.407	0.362
102.000	127.675	80.002	19.994	100.818	19.888	3.428	0.449
104.000	128.459	80.001	19.994	100.826	19.888	3.386	0.367
106.000	129.248	80.001	19.995	100.827	19.886	3.520	0.411
108.000	130.040	80.001	19.994	100.827	19.884	3.650	0.408
110.000	130.859	80.002	19.995	100.834	19.886	3.530	0.397
112.000	131.661	80.000	19.994	100.840	19.885	3.616	0.404
114.001	132.484	80.003	19.995	100.840	19.889	3.380	0.396
116.001	133.310	80.002	19.994	100.832	19.892	3.150	0.407
118.000	134.153	80.003	19.994	100.835	19.886	3.521	0.376
120.000	135.005	80.002	19.994	100.836	19.883	3.750	0.419
122.000	135.835	80.003	19.994	100.827	19.886	3.549	0.385
124.000	136.745	80.001	19.995	100.837	19.884	3.661	0.445
126.000	137.584	80.001	19.994	100.834	19.882	3.830	0.432
128.000	138.496	80.001	19.995	100.838	19.882	3.835	0.470
130.000	139.340	80.002	19.995	100.831	19.886	3.560	0.418
132.000	140.228	80.001	19.994	100.832	19.883	3.757	0.415
134.000	141.122	80.001	19.994	100.835	19.879	4.023	0.453
136.000	141.980	80.001	19.995	100.838	19.883	3.752	0.421
138.001	142.922	79.999	19.994	100.835	19.882	3.817	0.461
140.000	143.783	80.002	19.994	100.833	19.881	3.847	0.420
142.000	144.739	80.001	19.995	100.828	19.881	3.882	0.450
144.001	145.662	80.002	19.996	100.828	19.881	3.901	0.464
146.000	146.569	80.002	19.994	100.836	19.876	4.230	0.483
148.000	147.466	80.003	19.994	100.836	19.879	3.993	0.482
150.001	148.385	80.002	19.994	100.822	19.879	4.017	0.440
152.000	149.324	80.001	19.994	100.810	19.877	4.137	0.448
154.000	150.271	80.002	19.994	100.817	19.880	3.915	0.445
156.000	151.235	80.003	19.994	100.829	19.880	3.962	0.500
158.000	152.158	80.002	19.994	100.827	19.879	3.987	0.471
160.000	153.099	80.002	19.994	100.815	19.877	4.119	0.470
162.000	154.043	80.002	19.994	100.808	19.877	4.109	0.453
164.000	154.922	80.002	19.995	100.811	19.882	3.793	0.421
166.000	155.876	80.003	19.995	100.803	19.879	4.029	0.458
168.000	156.807	80.002	19.994	100.811	19.881	3.869	0.473
170.001	157.836	80.004	19.995	100.806	19.883	3.719	0.516
172.000	158.787	80.004	19.995	100.801	19.881	3.848	0.484
174.000	159.739	80.003	19.994	100.805	19.883	3.765	0.493
176.000	160.740	80.004	19.995	100.803	19.881	3.864	0.491
178.000	161.742	80.004	19.994	100.802	19.886	3.552	0.525
180.000	162.715	80.003	19.996	100.806	19.882	3.799	0.499
182.000	163.646	80.002	19.995	100.800	19.882	3.802	0.457
184.001	164.713	80.001	19.995	100.803	19.880	3.959	0.556
186.000	165.652	80.002	19.995	100.801	19.882	3.819	0.465
188.000	166.687	80.003	19.995	100.807	19.881	3.841	0.477
190.000	167.674	80.003	19.995	100.801	19.884	3.668	0.507
192.000	168.688	80.002	19.995	100.804	19.885	3.638	0.486
194.000	169.661	80.002	19.994	100.807	19.883	3.744	0.492
196.000	170.609	80.002	19.994	100.798	19.880	3.945	0.455
198.000	171.594	80.001	19.994	100.796	19.884	3.654	0.468
200.000	172.626	80.002	19.993	100.800	19.881	3.886	0.508
202.000	173.589	80.000	19.995	100.800	19.877	4.140	0.477
204.000	174.617	80.001	19.994	100.800	19.879	4.016	0.520
206.000	175.618	80.002	19.995	100.798	19.879	4.017	0.510
208.000	176.596	80.001	19.994	100.799	19.878	4.067	0.475
210.000	177.627	80.002	19.994	100.797	19.880	3.967	0.513
212.000	178.599	80.002	19.995	100.795	19.883	3.745	0.493
214.001	179.569	80.002	19.994	100.777	19.881	3.866	0.484
216.000	180.557	80.001	19.996	100.798	19.882	3.828	0.471
218.000	181.576	80.001	19.995	100.780	19.882	3.819	0.494
220.000	182.552	80.002	19.993	100.784	19.883	3.730	0.488
222.000	183.555	80.001	19.993	100.794	19.884	3.685	0.483
224.000	184.555	80.002	19.994	100.780	19.877	4.133	0.517
226.000	185.553	80.002	19.995	100.777	19.883	3.725	0.513
228.001	186.606	80.002	19.994	100.781	19.880	3.917	0.513
230.000	187.601	80.002	19.995	100.771	19.887	3.494	0.512
232.000	188.609	80.003	19.995	100.766	19.883	3.734	0.490
234.000	189.592	80.002	19.994	100.769	19.884	3.672	0.495
236.000	190.595	80.002	19.994	100.767	19.884	3.683	0.518
238.000	191.533	80.003	19.994	100.766	19.886	3.521	0.469
240.001	192.545	80.002	19.995	100.763	19.885	3.637	0.526
242.000	193.532	80.001	19.994	100.764	19.885	3.633	0.507
244.001	194.557	80.002	19.995	100.762	19.883	3.765	0.515
246.000	195.515	80.001	19.995	100.765	19.885	3.582	0.464
248.001	196.511	80.003	19.995	100.763	19.884	3.665	0.489
250.000	197.489	80.003	19.995	100.769	19.885	3.579	0.509
252.000	198.502	80.003	19.995	100.768	19.885	3.623	0.537
254.001	199.444	80.003	19.993	100.763	19.884	3.658	0.465
256.000	200.473	80.004	19.995	100.762	19.881	3.869	0.498
258.000	201.367	80.005	19.993	100.763	19.881	3.873	0.475
260.000	202.394	80.005	19.995	100.762	19.881	3.846	0.510
262.000	203.384	80.003	19.994	100.765	19.880	3.943	0.502
264.000	204.326	80.003	19.994	100.765	19.879	3.970	0.482
266.000	205.326	80.003	19.996	100.769	19.881	3.882	0.530
268.000	206.322	80.001	19.996	100.764	19.884	3.649	0.503
270.000	207.276	80.002	19.996	100.763	19.881	3.878	0.482
272.000	208.254	80.000	19.996	100.763	19.881	3.897	0.535
274.000	209.208	80.001	19.995	100.763	19.879	3.987	0.491
276.000	210.210	80.001	19.995	100.763	19.879	3.972	0.500
278.000	211.197	80.000	19.994	100.761	19.886	3.544	0.526
280.000	212.120	79.999	19.994	100.765	19.882	3.815	0.473
282.000	213.106	80.002	19.994	100.765	19.881	3.891	0.483
284.000	214.086	80.003	19.995	100.766	19.883	3.771	0.512
286.000	215.052	80.002	19.996	100.769	19.879	4.019	0.476
288.000	216.002	80.001	19.993	100.769	19.879	3.977	0.453
290.000	216.993	80.003	19.994	100.768	19.876	4.200	0.468
292.000	217.982	80.002	19.994	100.770	19.875	4.241	0.504
294.000	218.969	80.002	19.994	100.767	19.876	4.177	0.471
296.000	219.940	80.001	19.994	100.764	19.874	4.352	0.517
298.000	220.910	80.001	19.994	100.764	19.873	4.375	0.485
300.000	221.880	80.001	19.994	100.764	19.876	4.183	0.442
302.000	222.808	80.002	19.995	100.767	19.874	4.339	0.455
304.000	223.793	80.000	19.994	100.763	19.871	4.528	0.479
306.000	224.787	79.998	19.994	100.762	19.873	4.390	0.473
308.000	225.774	80.001	19.994	100.764	19.873	4.415	0.486
310.000	226.782	80.002	19.994	100.764	19.872	4.454	0.484
312.000	227.754	80.003	19.994	100.754	19.871	4.536	0.495
314.000	228.756	80.003	19.994	100.758	19.873	4.387	0.507
316.000	229.771	80.003	19.995	100.762	19.869	4.640	0.469
318.000	230.692	80.004	19.996	100.760	19.866	4.846	0.487
320.000	231.735	80.003	19.994	100.762	19.865	4.938	0.491
322.000	232.679	80.003	19.994	100.763	19.862	5.112	0.510
324.000	233.660	80.005	19.995	100.758	19.860	5.220	0.500
326.000	234.575	80.003	19.994	100.761	19.855	5.547	0.455
328.000	235.636	80.003	19.995	100.764	19.853	5.722	0.519
330.000	236.557	80.001	19.996	100.770	19.856	5.495	0.476
332.000	237.658	80.001	19.994	100.771	19.854	5.661	0.455
334.000	238.528	80.002	19.996	100.767	19.852	5.757	0.320
336.000	239.521	80.003	19.995	100.769	19.848	6.026	0.514
338.000	240.419	80.003	19.995	100.779	19.847	6.077	0.462
340.000	241.431	80.003	19.995	100.781	19.843	6.345	0.497
342.000	242.458	80.003	19.995	100.774	19.845	6.216	0.494
344.000	243.523	80.004	19.994	100.779	19.840	6.523	0.533
346.000	244.529	80.005	19.993	100.771	19.843	6.338	0.510
348.000	245.509	80.006	19.994	100.767	19.843	6.341	0.479
350.000	246.613	80.002	19.994	100.769	19.842	6.444	0.525
352.000	247.631	80.001	19.994	100.772	19.833	7.029	0.557
354.000	248.631	80.000	19.995	100.773	19.832	7.100	0.496
356.000	249.722	80.001	19.996	100.775	19.831	7.119	0.531
358.000	250.773	80.001	19.996	100.772	19.833	7.037	0.507
360.000	251.887	80.001	19.995	100.768	19.827	7.410	0.550
362.000	252.905	80.001	19.996	100.780	19.824	7.597	0.549
364.000	253.890	79.999	19.997	100.786	19.819	7.918	0.517
366.000	254.978	80.002	19.995	100.771	19.818	8.021	0.566
368.000	255.997	80.000	19.996	100.770	19.816	8.104	0.538
370.000	257.019	80.001	19.995	100.784	19.812	8.409	0.505
372.000	258.065	80.001	19.995	100.788	19.806	8.782	0.544
374.000	259.079	80.000	19.996	100.770	19.801	9.075	0.473
376.000	260.161	80.001	19.994	100.773	19.795	9.468	0.521
378.000	261.142	80.002	19.995	100.778	19.798	9.310	0.493
380.000	262.120	80.002	19.995	100.782	19.787	10.025	0.509
382.000	263.183	80.000	19.994	100.774	19.782	10.315	0.539
384.000	264.220	80.001	19.994	100.788	19.781	10.403	0.527
386.001	265.234	80.002	19.996	100.778	19.776	10.761	0.495
388.000	266.249	80.002	19.995	100.780	19.768	11.290	0.534
390.001	267.214	80.002	19.995	100.776	19.768	11.255	0.497
392.000	268.258	80.000	19.995	100.785	19.763	11.584	0.487
394.000	269.231	80.003	19.994	100.785	19.760	11.766	0.468
396.000	270.256	80.001	19.994	100.796	19.756	12.040	0.544
398.000	271.283	79.999	19.994	100.799	19.746	12.701	0.509
400.000	272.307	80.003	19.994	100.804	19.743	12.900	0.528
402.000	273.245	80.004	19.995	100.805	19.734	13.494	0.450
404.000	274.274	80.003	19.995	100.803	19.733	13.561	0.512
406.000	275.290	80.001	19.994	100.805	19.728	13.863	0.496
408.000	276.296	80.002	19.993	100.803	19.720	14.418	0.515
410.000	277.267	80.001	19.994	100.807	19.718	14.540	0.476
412.000	278.247	80.001	19.994	100.808	19.711	14.991	0.463
414.000	279.228	80.001	19.994	100.807	19.704	15.417	0.501
416.000	280.190	80.001	19.993	100.806	19.695	16.050	0.492
418.000	281.149	80.001	19.993	100.806	19.687	16.578	0.504
420.000	282.148	80.002	19.995	100.806	19.682	16.916	0.525
422.000	283.072	80.003	19.993	100.808	19.677	17.195	0.479
424.000	284.056	80.003	19.995	100.805	19.672	17.539	0.497
426.000	285.027	80.001	19.993	100.806	19.664	18.052	0.491
428.000	285.959	80.003	19.994	100.802	19.657	18.499	0.467
430.000	286.876	80.002	19.994	100.801	19.645	19.298	0.465
432.000	287.802	80.002	19.994	100.802	19.643	19.416	0.514
434.000	288.738	80.002	19.994	100.808	19.635	19.939	0.476
436.000	289.653	80.001	19.996	100.829	19.625	20.647	0.459
438.000	290.639	80.001	19.994	100.838	19.619	20.998	0.517
440.000	291.605	80.000	19.995	100.843	19.610	21.629	0.503
442.000	292.564	80.001	19.994	100.844	19.600	22.248	0.453
444.000	293.513	80.000	19.994	100.860	19.592	22.798	0.476
446.000	294.492	80.001	19.994	100.865	19.585	23.227	0.528
448.000	295.457	80.002	19.995	100.861	19.580	23.572	0.476
450.000	296.503	79.999	19.994	100.861	19.571	24.146	0.510
452.000	297.495	80.001	19.995	100.873	19.563	24.679	0.544
454.000	298.537	80.001	19.994	100.879	19.554	25.271	0.505
456.000	299.568	80.000	19.995	100.876	19.542	26.093	0.542
458.000	300.587	80.001	19.994	100.878	19.531	26.764	0.500
460.000	301.653	80.000	19.995	100.880	19.521	27.449	0.541
462.000	302.727	80.001	19.995	100.880	19.514	27.924	0.567
464.000	303.742	80.000	19.994	100.888	19.498	28.975	0.523
466.000	304.801	80.002	19.996	100.889	19.491	29.418	0.546
468.000	305.846	80.000	19.996	100.890	19.477	30.323	0.508
470.000	306.917	79.999	19.996	100.911	19.470	30.802	0.513
472.000	308.002	80.001	19.995	100.909	19.459	31.492	0.541
474.000	309.060	80.001	19.994	100.920	19.450	32.079	0.534
476.000	310.164	80.001	19.993	100.918	19.439	32.834	0.555
478.000	311.164	80.001	19.993	100.917	19.428	33.551	0.514
480.000	312.331	80.002	19.994	100.923	19.414	34.422	0.563
482.000	313.402	80.002	19.993	100.922	19.405	35.061	0.537
484.000	314.509	80.002	19.995	100.925	19.389	36.081	0.564
486.000	315.599	80.003	19.994	100.923	19.381	36.615	0.560
488.000	316.696	80.003	19.994	100.935	19.367	37.506	0.551
490.000	317.806	80.003	19.994	100.944	19.356	38.234	0.552
492.000	318.841	80.003	19.995	100.929	19.348	38.790	0.526
494.000	319.903	80.001	19.996	100.937	19.331	39.900	0.526
496.000	320.970	80.001	19.995	100.950	19.320	40.633	0.551
498.000	322.028	80.003	19.994	100.946	19.303	41.713	0.540
500.000	323.167	80.003	19.994	100.956	19.294	42.340	0.566
502.000	324.203	80.004	19.995	100.958	19.283	43.043	0.548
504.000	325.222	80.003	19.993	100.961	19.269	43.943	0.513
506.000	326.302	80.004	19.995	100.974	19.255	44.876	0.514
508.000	327.337	80.003	19.995	100.984	19.242	45.770	0.510
510.000	328.424	80.004	19.995	100.987	19.229	46.603	0.545
512.000	329.465	80.005	19.994	100.987	19.216	47.471	0.523
514.000	330.484	80.005	19.993	100.994	19.203	48.302	0.495
516.000	331.561	80.004	19.994	100.995	19.184	49.534	0.561
518.000	332.589	80.004	19.994	100.997	19.170	50.498	0.527
520.000	333.672	80.002	19.994	100.997	19.151	51.690	0.516
522.000	334.716	80.001	19.994	100.996	19.139	52.491	0.519
524.000	335.762	80.002	19.995	101.001	19.120	53.724	0.514
526.000	336.784	80.001	19.995	101.016	19.105	54.739	0.532
528.000	337.822	80.002	19.996	101.025	19.091	55.643	0.513
530.000	338.887	80.000	19.995	101.035	19.073	56.822	0.523
532.001	339.876	80.001	19.996	101.033	19.054	58.127	0.482
534.000	340.874	80.001	19.996	101.038	19.031	59.616	0.502
536.000	341.904	80.003	19.994	101.039	19.017	60.548	0.516
538.000	342.916	80.002	19.994	101.044	18.998	61.801	0.520
540.000	343.885	80.001	19.994	101.050	18.978	63.069	0.520
542.000	344.880	80.002	19.995	101.058	18.964	63.989	0.484
544.000	345.891	80.003	19.995	101.070	18.947	65.134	0.494
546.000	346.866	80.001	19.994	101.069	18.928	66.339	0.485
548.000	347.869	80.001	19.995	101.075	18.915	67.239	0.480
550.000	348.863	80.001	19.994	101.078	18.896	68.438	0.520
552.000	349.842	80.001	19.994	101.075	18.880	69.525	0.513
554.000	350.787	79.999	19.994	101.078	18.866	70.413	0.439
556.000	351.806	80.001	19.996	101.078	18.853	71.265	0.513
558.000	352.780	80.002	19.997	101.075	18.843	71.882	0.481
560.000	353.776	80.000	19.996	101.074	18.828	72.917	0.528
562.000	354.704	80.001	19.996	101.072	18.817	73.632	0.463
564.000	355.663	80.002	19.994	101.062	18.817	73.633	0.476
566.000	356.624	80.002	19.994	101.040	18.812	73.930	0.463
568.000	357.508	80.003	19.996	101.035	18.813	73.872	0.426
570.000	358.444	80.004	19.994	101.035	18.816	73.614	0.461
572.000	359.349	80.003	19.995	101.031	18.825	73.016	0.459
574.000	360.241	80.003	19.992	101.030	18.834	72.411	0.444
576.000	361.144	80.004	19.995	101.023	18.849	71.417	0.436
578.000	362.074	80.004	19.994	101.003	18.867	70.237	0.447
580.000	363.026	80.002	19.994	100.979	18.884	69.163	0.485
582.000	363.943	80.002	19.993	100.957	18.908	67.537	0.438
584.000	364.840	80.003	19.993	100.955	18.935	65.796	0.410
586.000	365.764	80.004	19.995	100.934	18.964	63.837	0.432
588.000	366.679	80.003	19.995	100.918	19.000	61.484	0.466
590.000	367.668	80.004	19.993	100.916	19.032	59.370	0.478
592.000	368.595	80.005	19.994	100.896	19.075	56.561	0.451
594.000	369.578	80.003	19.994	100.882	19.119	53.696	0.479
596.000	370.557	80.003	19.995	100.859	19.163	50.793	0.461
598.000	371.489	80.005	19.995	100.841	19.208	47.828	0.460
600.000	372.540	80.003	19.993	100.823	19.252	44.972	0.518
602.000	373.497	80.004	19.994	100.803	19.302	41.693	0.502
604.000	374.516	80.003	19.994	100.793	19.349	38.620	0.509
606.000	375.518	80.002	19.994	100.779	19.398	35.415	0.509
608.000	376.563	80.002	19.995	100.769	19.445	32.329	0.497
610.000	377.595	80.001	19.994	100.761	19.487	29.602	0.519
612.000	378.600	80.002	19.995	100.754	19.534	26.520	0.490
614.001	379.648	80.001	19.993	100.734	19.567	24.401	0.525
616.000	380.689	80.000	19.994	100.732	19.606	21.835	0.531
618.000	381.730	80.001	19.994	100.729	19.634	19.992	0.516
620.000	382.760	80.002	19.996	100.729	19.666	17.938	0.536
622.000	383.831	80.002	19.995	100.724	19.695	16.028	0.545
624.001	384.868	80.001	19.995	100.724	19.719	14.469	0.512
626.000	385.891	80.001	19.995	100.722	19.736	13.343	0.511
628.000	386.917	80.002	19.995	100.715	19.750	12.426	0.502
630.000	387.995	80.001	19.994	100.708	19.770	11.097	0.522
632.000	389.010	80.002	19.995	100.718	19.781	10.421	0.530
634.000	390.078	80.002	19.995	100.705	19.791	9.755	0.503
636.000	391.148	80.002	19.995	100.711	19.792	9.666	0.501
638.000	392.153	80.001	19.995	100.699	19.799	9.240	0.505
640.000	393.195	80.001	19.995	100.708	19.801	9.077	0.488
642.000	394.278	80.001	19.996	100.706	19.812	8.395	0.532
644.000	395.279	80.000	19.995	100.710	19.812	8.373	0.522
646.000	396.301	80.003	19.997	100.703	19.811	8.408	0.500
648.000	397.325	80.002	19.995	100.704	19.813	8.280	0.498
650.000	398.361	80.003	19.996	100.700	19.819	7.906	0.506
652.000	399.300	80.004	19.996	100.687	19.818	8.014	0.491
654.000	400.296	80.001	19.994	100.695	19.822	7.739	0.482
656.000	401.320	80.002	19.994	100.685	19.816	8.097	0.535
658.000	402.254	80.002	19.995	100.688	19.821	7.805	0.484
660.000	403.256	80.002	19.995	100.699	19.822	7.751	0.485
662.000	404.236	80.001	19.994	100.700	19.822	7.730	0.479
664.000	405.207	80.003	19.996	100.699	19.828	7.359	0.468
666.000	406.169	80.000	19.992	100.691	19.821	7.792	0.480
668.001	407.133	80.004	19.996	100.700	19.823	7.662	0.479
670.000	408.080	80.004	19.995	100.698	19.826	7.466	0.460
672.000	409.053	80.001	19.994	100.696	19.825	7.527	0.501
674.000	410.025	80.004	19.994	100.693	19.825	7.511	0.470
676.000	410.989	80.004	19.994	100.701	19.828	7.328	0.459
678.000	411.952	80.002	19.995	100.706	19.827	7.366	0.490
680.000	412.905	80.004	19.993	100.701	19.828	7.321	0.475
682.000	413.852	80.005	19.993	100.692	19.828	7.331	0.491
684.000	414.740	80.004	19.993	100.688	19.832	7.075	0.465
686.001	415.713	80.002	19.993	100.687	19.829	7.242	0.475
688.000	416.624	80.001	19.993	100.693	19.834	6.909	0.463
690.000	417.600	80.003	19.994	100.693	19.831	7.141	0.511
692.000	418.538	80.001	19.994	100.685	19.833	6.987	0.477
694.000	419.426	80.003	19.996	100.687	19.841	6.503	0.442
696.000	420.377	80.001	19.995	100.687	19.838	6.667	0.449
698.000	421.317	80.002	19.995	100.687	19.842	6.424	0.481
700.000	422.275	80.002	19.994	100.685	19.839	6.620	0.463
702.000	423.218	80.001	19.995	100.683	19.838	6.687	0.472
704.000	424.177	80.003	19.994	100.684	19.835	6.893	0.485
706.000	425.065	80.003	19.994	100.685	19.834	6.915	0.481
708.000	426.058	80.003	19.994	100.697	19.838	6.694	0.479
710.000	427.015	80.003	19.995	100.688	19.837	6.733	0.520
712.000	427.969	80.002	19.995	100.700	19.839	6.581	0.495
714.000	428.964	80.001	19.994	100.702	19.840	6.536	0.477
716.000	429.939	80.002	19.994	100.708	19.847	6.067	0.477
718.000	430.907	80.001	19.994	100.712	19.842	6.439	0.489
720.001	431.969	80.001	19.994	100.706	19.838	6.650	0.512
722.000	432.991	80.001	19.996	100.710	19.840	6.575	0.515
724.000	434.041	80.001	19.994	100.712	19.846	6.133	0.531
726.000	435.140	79.999	19.993	100.712	19.848	6.011	0.549
728.000	436.179	80.000	19.995	100.712	19.849	5.951	0.536
730.000	437.302	80.001	19.995	100.700	19.849	5.977	0.567
732.000	438.361	80.002	19.995	100.703	19.849	5.970	0.539
734.000	439.442	80.001	19.995	100.711	19.848	6.014	0.538
736.000	440.562	80.001	19.994	100.697	19.849	5.953	0.553
738.000	441.645	80.003	19.993	100.702	19.857	5.457	0.552
740.000	442.730	80.005	19.994	100.691	19.852	5.759	0.549
742.000	443.821	80.003	19.995	100.689	19.854	5.654	0.516
744.000	444.867	80.003	19.994	100.687	19.854	5.624	0.534
746.000	445.928	80.001	19.995	100.689	19.853	5.727	0.541
748.000	447.023	80.001	19.994	100.688	19.851	5.815	0.551
750.000	448.067	80.003	19.995	100.689	19.854	5.659	0.540
752.000	449.160	80.002	19.994	100.699	19.856	5.504	0.567
754.001	450.246	80.003	19.996	100.691	19.861	5.185	0.505
756.000	451.365	80.003	19.995	100.687	19.861	5.179	0.548
758.000	452.465	80.003	19.993	100.684	19.855	5.551	0.556
760.000	453.579	80.005	19.994	100.686	19.859	5.289	0.570
762.000	454.690	80.006	19.993	100.686	19.859	5.330	0.573
764.000	455.782	80.004	19.994	100.684	19.857	5.455	0.543
766.000	456.902	80.007	19.995	100.685	19.854	5.599	0.534
768.000	458.014	80.005	19.995	100.685	19.861	5.191	0.545
770.000	459.125	80.003	19.995	100.681	19.863	5.024	0.539
772.000	460.243	80.001	19.994	100.681	19.862	5.096	0.541
774.000	461.329	80.003	19.994	100.685	19.862	5.108	0.565
776.000	462.387	80.002	19.994	100.685	19.866	4.879	0.522
778.000	463.453	80.001	19.995	100.684	19.865	4.920	0.502
780.000	464.543	80.001	19.993	100.686	19.870	4.614	0.502
782.000	465.663	80.003	19.996	100.684	19.867	4.791	0.524
784.001	466.757	80.003	19.995	100.685	19.872	4.452	0.555
786.000	467.839	80.001	19.995	100.684	19.871	4.491	0.540
788.000	468.921	80.002	19.995	100.685	19.871	4.548	0.564
790.000	470.022	80.002	19.995	100.681	19.873	4.375	0.538
792.000	471.121	80.001	19.994	100.681	19.869	4.651	0.555
794.000	472.218	80.003	19.994	100.686	19.874	4.302	0.548
796.000	473.262	80.003	19.995	100.686	19.874	4.294	0.520
798.000	474.416	80.002	19.994	100.685	19.882	3.831	0.547
800.000	475.540	80.002	19.994	100.680	19.877	4.130	0.554
802.000	476.600	80.002	19.994	100.687	19.880	3.942	0.514
804.000	477.667	80.001	19.993	100.687	19.882	3.803	0.561
806.000	478.706	80.002	19.994	100.686	19.882	3.813	0.488
808.000	479.798	80.001	19.994	100.688	19.879	3.966	0.537
810.000	480.832	80.001	19.994	100.688	19.881	3.856	0.542
812.000	481.967	80.001	19.995	100.686	19.884	3.669	0.565
814.000	482.962	80.002	19.995	100.689	19.881	3.837	0.531
816.000	484.048	80.000	19.995	100.685	19.882	3.776	0.557
818.000	485.075	80.001	19.994	100.674	19.886	3.519	0.518
820.000	486.165	80.003	19.995	100.678	19.885	3.630	0.531
822.000	487.204	80.004	19.994	100.671	19.883	3.734	0.512
824.000	488.246	80.003	19.996	100.660	19.881	3.880	0.515
826.000	489.318	80.005	19.995	100.670	19.885	3.612	0.524
828.000	490.358	80.004	19.992	100.681	19.885	3.584	0.524
830.000	491.343	80.002	19.993	100.668	19.883	3.711	0.476
832.000	492.398	80.003	19.994	100.675	19.886	3.524	0.517
834.000	493.474	80.003	19.994	100.670	19.885	3.632	0.553
836.000	494.510	80.003	19.995	100.666	19.893	3.096	0.520
838.000	495.562	80.003	19.992	100.670	19.896	2.902	0.542
840.001	496.606	80.003	19.995	100.677	19.898	2.763	0.517
842.000	497.688	80.004	19.995	100.667	19.892	3.179	0.533
844.000	498.683	80.004	19.995	100.675	19.893	3.063	0.490
846.000	499.768	80.004	19.993	100.676	19.895	2.927	0.544
848.000	500.774	80.004	19.995	100.676	19.891	3.212	0.548
850.000	501.828	80.004	19.997	100.676	19.896	2.893	0.539
852.000	502.847	80.003	19.995	100.662	19.896	2.918	0.533
854.000	503.854	80.001	19.995	100.661	19.896	2.899	0.529
856.000	504.878	80.002	19.995	100.666	19.894	3.050	0.489
858.000	505.883	80.001	19.995	100.678	19.896	2.890	0.488
860.000	506.921	80.002	19.995	100.676	19.902	2.524	0.533
862.000	507.918	80.001	19.994	100.668	19.898	2.749	0.508
864.000	508.919	80.002	19.994	100.677	19.897	2.812	0.498
866.000	509.924	80.002	19.993	100.677	19.896	2.914	0.502
868.000	510.899	80.002	19.995	100.672	19.895	2.961	0.432
870.000	511.921	80.002	19.995	100.675	19.898	2.765	0.502
872.000	512.922	80.001	19.993	100.670	19.895	2.935	0.491
874.000	513.971	80.002	19.995	100.662	19.901	2.552	0.497
876.000	514.969	80.003	19.997	100.660	19.907	2.156	0.485
878.000	515.989	80.001	19.995	100.655	19.901	2.554	0.512
880.000	516.967	80.004	19.995	100.675	19.904	2.371	0.485
882.000	517.997	80.002	19.994	100.664	19.906	2.253	0.503
884.000	519.035	80.001	19.993	100.667	19.901	2.590	0.523
886.000	520.026	80.002	19.995	100.670	19.904	2.341	0.496
888.000	521.072	80.003	19.995	100.675	19.903	2.441	0.536
890.000	522.058	80.001	19.996	100.672	19.902	2.488	0.503
892.000	523.061	80.003	19.991	100.675	19.903	2.434	0.520
894.000	524.050	80.002	19.994	100.660	19.914	1.731	0.500
896.000	525.056	80.003	19.992	100.660	19.910	1.955	0.485
898.000	526.052	80.001	19.991	100.672	19.907	2.172	0.499
900.000	527.048	80.003	19.995	100.664	19.906	2.242	0.484
902.000	528.008	80.004	19.995	100.658	19.909	2.066	0.487
904.000	529.085	80.004	19.994	100.660	19.907	2.165	0.515
906.000	530.078	80.003	19.994	100.662	19.906	2.212	0.484
908.000	531.149	80.004	19.995	100.663	19.909	2.029	0.547
910.000	532.116	80.002	19.996	100.664	19.912	1.827	0.494
912.000	533.116	80.001	19.996	100.671	19.909	2.038	0.501
914.000	534.069	80.005	19.996	100.661	19.907	2.166	0.481
916.000	535.103	80.002	19.996	100.661	19.912	1.852	0.523
918.000	536.146	80.004	19.996	100.656	19.909	2.021	0.533
920.000	537.065	80.004	19.994	100.660	19.911	1.885	0.470
922.000	538.085	80.003	19.996	100.668	19.910	1.999	0.498
924.000	539.093	80.006	19.994	100.650	19.911	1.936	0.511
926.000	540.068	80.005	19.994	100.659	19.902	2.486	0.495
928.000	541.021	80.005	19.992	100.656	19.907	2.152	0.479
930.000	541.977	80.002	19.994	100.662	19.913	1.757	0.462
932.000	542.956	80.003	19.994	100.661	19.909	2.065	0.471
934.000	543.953	80.002	19.996	100.660	19.910	1.956	0.486
936.000	544.897	80.002	19.995	100.660	19.914	1.716	0.497
938.000	545.890	80.000	19.996	100.657	19.915	1.646	0.487
940.000	546.848	80.000	19.995	100.659	19.909	2.015	0.455
942.000	547.845	80.000	19.994	100.662	19.912	1.834	0.524
944.000	548.812	80.000	19.995	100.663	19.908	2.084	0.495
946.000	549.751	80.000	19.994	100.659	19.905	2.318	0.487
948.000	550.754	80.001	19.993	100.658	19.914	1.741	0.490
950.000	551.741	80.002	19.995	100.660	19.913	1.778	0.490
952.000	552.665	80.001	19.994	100.661	19.914	1.720	0.474
954.000	553.664	80.002	19.996	100.654	19.915	1.662	0.478
956.000	554.608	80.002	19.993	100.662	19.912	1.836	0.474
958.000	555.578	80.001	19.994	100.658	19.912	1.863	0.470
960.000	556.551	80.004	19.994	100.652	19.910	1.984	0.489
962.000	557.549	80.005	19.994	100.659	19.911	1.910	0.488
964.000	558.568	80.004	19.994	100.675	19.910	1.998	0.543
966.000	559.579	80.000	19.994	100.679	19.913	1.782	0.522
968.000	560.635	80.001	19.997	100.683	19.912	1.875	0.549
970.000	561.699	80.000	19.995	100.681	19.910	2.003	0.543
972.000	562.732	80.003	19.995	100.678	19.912	1.847	0.516
974.000	563.820	80.001	19.995	100.674	19.914	1.697	0.540
976.001	564.874	80.003	19.994	100.669	19.914	1.713	0.543
978.000	565.918	80.003	19.993	100.669	19.910	1.963	0.527
980.000	567.060	80.003	19.991	100.667	19.913	1.776	0.545
982.000	568.174	80.005	19.992	100.665	19.913	1.757	0.566
984.000	569.305	80.003	19.994	100.678	19.911	1.891	0.561
986.000	570.404	80.004	19.994	100.664	19.914	1.727	0.549
988.000	571.522	80.004	19.996	100.680	19.912	1.822	0.561
990.000	572.647	80.004	19.994	100.676	19.911	1.891	0.555
992.000	573.748	80.003	19.994	100.676	19.919	1.363	0.540
994.000	574.952	80.002	19.994	100.672	19.909	2.032	0.590
996.000	576.084	80.002	19.996	100.676	19.912	1.833	0.567
998.000	577.178	80.002	19.996	100.676	19.911	1.896	0.530
1000.000	578.322	80.001	19.995	100.677	19.914	1.697	0.544
1002.000	579.430	80.002	19.996	100.673	19.911	1.889	0.575
1004.000	580.555	80.003	19.994	100.681	19.912	1.875	0.549
1006.000	581.703	80.003	19.997	100.676	19.915	1.658	0.560
1008.000	582.782	80.004	19.996	100.665	19.916	1.609	0.531
1010.000	583.914	80.005	19.996	100.667	19.914	1.683	0.560
1012.000	585.006	80.004	19.996	100.669	19.916	1.611	0.580
1014.000	586.092	80.002	19.995	100.676	19.920	1.337	0.540
1016.000	587.216	80.005	19.996	100.668	19.916	1.572	0.556
1018.000	588.315	80.002	19.994	100.667	19.920	1.316	0.553
1020.000	589.420	80.001	19.994	100.655	19.917	1.507	0.545
1022.000	590.524	80.001	19.997	100.664	19.918	1.451	0.538
1024.000	591.602	80.002	19.995	100.675	19.917	1.504	0.521
1026.000	592.697	80.000	19.995	100.654	19.915	1.621	0.564
1028.000	593.850	79.999	19.998	100.665	19.917	1.495	0.583
1030.000	594.916	80.001	19.997	100.662	19.918	1.424	0.539
1032.000	595.987	79.999	19.995	100.657	19.916	1.554	0.555
1034.000	597.049	80.001	19.994	100.657	19.915	1.623	0.523
1036.000	598.074	80.002	19.996	100.664	19.918	1.449	0.513
1038.000	599.088	80.002	19.997	100.662	19.917	1.519	0.514
1040.000	600.124	80.003	19.993	100.653	19.918	1.438	0.527
1042.000	601.132	80.003	19.995	100.647	19.918	1.445	0.508
1044.000	602.116	80.000	19.996	100.646	19.920	1.319	0.475
1046.000	603.071	80.001	19.995	100.648	19.919	1.412	0.474
1048.000	604.031	80.001	19.995	100.641	19.921	1.229	0.502
1050.000	604.979	80.002	19.998	100.639	19.922	1.180	0.488
1052.000	605.930	80.001	19.994	100.648	19.921	1.268	0.499
1054.000	606.846	80.001	19.995	100.642	19.921	1.273	0.444
1056.000	607.838	80.001	19.997	100.649	19.922	1.175	0.471
1058.000	608.749	80.001	19.995	100.661	19.924	1.085	0.471
1060.000	609.685	80.002	19.996	100.661	19.920	1.323	0.478
1062.000	610.715	80.000	19.993	100.657	19.923	1.136	0.490
1064.000	611.676	80.001	19.994	100.661	19.918	1.437	0.503
1066.000	612.693	80.004	19.995	100.662	19.920	1.347	0.497
1068.000	613.709	80.004	19.994	100.651	19.920	1.338	0.505
1070.000	614.777	80.004	19.996	100.658	19.923	1.154	0.546
1072.000	615.820	80.003	19.995	100.669	19.920	1.301	0.554
1074.000	616.835	80.004	19.994	100.661	19.921	1.271	0.509
1076.000	617.890	80.003	19.994	100.663	19.922	1.206	0.528
1078.000	618.925	80.003	19.993	100.668	19.920	1.328	0.520
1080.000	619.988	80.003	19.993	100.667	19.922	1.162	0.521
1082.001	621.081	80.006	19.992	100.668	19.924	1.057	0.552
1084.000	622.156	80.001	19.994	100.657	19.925	1.016	0.537
1086.000	623.226	80.001	19.994	100.662	19.923	1.138	0.559
1088.000	624.376	80.005	19.994	100.657	19.926	0.936	0.547
1090.001	625.457	80.006	19.995	100.654	19.926	0.948	0.543
1092.000	626.516	80.003	19.994	100.660	19.926	0.902	0.568
1094.000	627.613	80.007	19.994	100.651	19.925	0.969	0.547
1096.000	628.715	80.007	19.994	100.672	19.927	0.878	0.556
1098.000	629.832	80.005	19.995	100.655	19.928	0.830	0.560
1100.000	630.936	80.001	19.996	100.665	19.931	0.631	0.541
1102.000	632.004	80.004	19.996	100.658	19.926	0.911	0.569
1104.000	633.104	80.002	19.995	100.651	19.928	0.816	0.540
1106.000	634.207	80.005	19.995	100.662	19.925	0.972	0.562
1108.000	635.348	80.001	19.996	100.664	19.927	0.883	0.552
1110.000	636.409	80.001	19.995	100.660	19.925	0.983	0.540
1112.000	637.494	80.004	19.995	100.656	19.926	0.948	0.536
1114.001	638.591	80.005	19.995	100.657	19.927	0.844	0.566
1116.000	639.634	80.002	19.996	100.655	19.928	0.795	0.544
1118.000	640.725	80.002	19.995	100.663	19.927	0.863	0.531
1120.000	641.807	80.001	19.995	100.665	19.931	0.586	0.560
1122.000	642.872	80.004	19.994	100.664	19.930	0.696	0.544
1124.001	643.913	80.003	19.997	100.661	19.930	0.668	0.537
1126.000	644.990	80.002	19.996	100.654	19.930	0.695	0.547
1128.000	646.052	80.001	19.996	100.653	19.928	0.823	0.533
1130.000	647.098	80.001	19.994	100.654	19.926	0.960	0.515
1132.000	648.232	80.001	19.997	100.658	19.923	1.157	0.559
1134.000	649.247	80.003	19.996	100.666	19.924	1.032	0.519
1136.000	650.269	80.002	19.995	100.651	19.927	0.849	0.504
1138.000	651.291	79.999	19.995	100.661	19.926	0.946	0.501
1140.000	652.321	80.001	19.993	100.661	19.926	0.930	0.534
1142.000	653.332	80.002	19.995	100.665	19.927	0.856	0.506
1144.000	654.371	80.003	19.995	100.656	19.925	1.000	0.511
1146.000	655.376	80.003	19.993	100.660	19.933	0.501	0.517
1148.000	656.389	80.002	19.996	100.655	19.929	0.723	0.493
1150.000	657.414	80.005	19.995	100.652	19.936	0.281	0.502
1152.000	658.420	80.003	19.994	100.659	19.934	0.376	0.500
1154.000	659.396	80.004	19.993	100.650	19.929	0.721	0.525
1156.000	660.372	80.003	19.995	100.645	19.932	0.568	0.474
1158.000	661.314	80.002	19.995	100.642	19.932	0.517	0.453
1160.000	662.294	80.003	19.995	100.641	19.932	0.550	0.499
1162.000	663.213	80.004	19.994	100.644	19.932	0.505	0.441
1164.001	664.135	80.004	19.996	100.645	19.934	0.424	0.486
1166.000	664.983	80.004	19.993	100.648	19.935	0.346	0.444
1168.000	665.871	80.006	19.995	100.646	19.935	0.325	0.443
1170.000	666.729	80.004	19.994	100.644	19.940	0.037	0.443
1172.000	667.649	80.004	19.995	100.644	19.933	0.448	0.461
1174.000	668.524	80.004	19.994	100.647	19.936	0.283	0.425
1176.001	669.448	80.005	19.994	100.644	19.935	0.332	0.468
1178.000	670.377	80.003	19.995	100.648	19.935	0.324	0.484
1180.000	671.284	80.003	19.995	100.646	19.932	0.531	0.457
1182.000	672.193	80.002	19.995	100.647	19.934	0.382	0.476
1184.000	673.113	80.002	19.995	100.649	19.938	0.151	0.457
1186.000	674.044	80.000	19.993	100.653	19.939	0.070	0.461
1188.000	674.999	80.003	19.996	100.649	19.936	0.251	0.498
1190.000	675.917	80.002	19.995	100.648	19.933	0.447	0.481
1192.000	676.823	80.002	19.995	100.649	19.935	0.360	0.428
1194.000	677.757	80.002	19.995	100.646	19.937	0.181	0.475
1196.000	678.669	80.004	19.996	100.645	19.935	0.329	0.472
1198.000	679.565	80.003	19.994	100.647	19.935	0.346	0.441
1200.000	680.499	80.003	19.995	100.647	19.942	-0.093	0.447
1202.000	681.432	80.002	19.995	100.648	19.940	0.028	0.477
1204.000	682.304	80.001	19.993	100.647	19.935	0.331	0.451
1206.000	683.274	80.005	19.993	100.652	19.940	-0.004	0.461
1208.000	684.250	80.000	19.994	100.655	19.940	0.033	0.473
1210.000	685.206	80.001	19.994	100.658	19.939	0.076	0.489
1212.000	686.197	80.003	19.996	100.659	19.940	-0.004	0.507
1214.000	687.192	80.001	19.994	100.646	19.938	0.164	0.471
1216.000	688.180	80.000	19.996	100.653	19.936	0.278	0.499
1218.000	689.166	80.002	19.994	100.650	19.936	0.250	0.496
1220.000	690.182	79.999	19.998	100.647	19.938	0.158	0.561
1222.000	691.198	80.002	19.995	100.646	19.938	0.113	0.518
1224.000	692.127	80.002	19.994	100.650	19.936	0.280	0.468
1226.000	693.111	80.005	19.996	100.645	19.943	-0.179	0.466
1228.000	694.159	80.004	19.995	100.653	19.941	-0.044	0.500
1230.000	695.168	80.005	19.994	100.647	19.943	-0.213	0.510
1232.000	696.145	80.005	19.994	100.654	19.940	0.023	0.501
1234.000	697.201	80.006	19.996	100.645	19.940	-0.014	0.539
1236.001	698.184	80.002	19.995	100.647	19.939	0.077	0.498
1238.000	699.216	80.003	19.994	100.647	19.938	0.167	0.469
1240.000	700.296	80.005	19.994	100.646	19.939	0.069	0.518
1242.000	701.360	80.004	19.995	100.646	19.941	-0.035	0.527
1244.000	702.433	80.003	19.994	100.650	19.938	0.130	0.529
1246.000	703.493	80.005	19.995	100.651	19.940	-0.005	0.538
1248.000	704.521	80.003	19.994	100.650	19.941	-0.032	0.501
1250.000	705.591	80.007	19.994	100.648	19.943	-0.209	0.527
1252.000	706.623	80.003	19.994	100.647	19.941	-0.033	0.547
1254.000	707.674	80.007	19.995	100.649	19.941	-0.058	0.515
1256.000	708.704	80.004	19.992	100.648	19.944	-0.236	0.533
1258.000	709.750	80.005	19.994	100.648	19.941	-0.070	0.510
1260.000	710.835	80.005	19.992	100.647	19.942	-0.091	0.530
1262.000	711.890	80.003	19.995	100.649	19.944	-0.244	0.536
1264.000	713.006	80.002	19.993	100.657	19.943	-0.204	0.557
1266.000	714.032	80.002	19.994	100.655	19.945	-0.290	0.535
1268.000	715.140	80.001	19.994	100.663	19.943	-0.176	0.558
1270.000	716.250	80.001	19.995	100.656	19.937	0.185	0.524
1272.000	717.334	80.002	19.993	100.651	19.940	0.009	0.546
1274.000	718.352	80.001	19.995	100.650	19.947	-0.417	0.534
1276.000	719.417	80.003	19.994	100.649	19.944	-0.232	0.542
1278.000	720.445	80.003	19.995	100.647	19.942	-0.141	0.497
1280.000	721.470	80.004	19.995	100.645	19.946	-0.345	0.520
1282.000	722.481	80.001	19.996	100.642	19.945	-0.295	0.504
1284.000	723.503	80.001	19.994	100.643	19.943	-0.185	0.506
1286.000	724.489	80.001	19.996	100.643	19.944	-0.267	0.510
1288.000	725.576	80.002	19.996	100.644	19.945	-0.325	0.530
1290.000	726.586	80.002	19.994	100.646	19.947	-0.411	0.532
1292.000	727.572	80.000	19.994	100.645	19.947	-0.450	0.515
1294.000	728.627	80.003	19.994	100.646	19.946	-0.357	0.521
1296.000	729.669	80.001	19.995	100.645	19.939	0.062	0.505
1298.000	730.637	80.000	19.996	100.643	19.945	-0.292	0.489
1300.000	731.674	80.003	19.997	100.646	19.946	-0.371	0.507
1302.000	732.664	80.002	19.995	100.646	19.947	-0.452	0.504
1304.000	733.709	80.004	19.996	100.644	19.946	-0.382	0.519
1306.000	734.652	80.003	19.997	100.645	19.945	-0.339	0.510
1308.000	735.672	80.004	19.995	100.641	19.943	-0.213	0.497
1310.000	736.624	80.004	19.996	100.643	19.944	-0.276	0.512
1312.000	737.638	80.002	19.996	100.642	19.942	-0.116	0.533
1314.000	738.623	80.003	19.996	100.645	19.946	-0.396	0.503
1316.000	739.578	80.002	19.992	100.645	19.942	-0.127	0.479
1318.000	740.540	80.005	19.996	100.634	19.948	-0.482	0.460
1320.000	741.455	80.004	19.996	100.647	19.945	-0.297	0.462
1322.000	742.434	80.003	19.996	100.648	19.946	-0.362	0.476
1324.000	743.391	80.003	19.995	100.648	19.946	-0.373	0.484
1325.000	743.865	80.003	19.993	100.648	19.948	-0.520	0.472