File: 01_Data/Gypsum_Wallboard_Paper/MCC/Gypsum_Wallboard_Paper_MCC_30K_min_211001_R3.txt
Sample ID:	C:\MCC\MCC Cal\Test\Gypsum_Wallboard_Paper_211001_R3.txt
Sample Weight (mg):	4.55
Heating Rate (C/s):	0.5
Combustor Temp (C):	900
N2 Flow Rate (cc/min):	80
O2 Flow Rate (cc/min):	20
Calibration File:	C:\MCC\MCC Cal\Coeff1 JN10440_30_210304.txt.txt
T Correction Coefficients:	0	1.024463	0
Time Shift (s):	14
*
Time (s)	Temperature (C)	N2 flow rate (cc/min)	O2 flow rate (cc/min)	Flow Rate (cc/min)	Oxygen (%)	HRR (W/g)	Heating rate (C/s)
0.000	109.722	80.001	19.997	100.563	20.081	-0.492	-0.007
2.000	109.727	80.001	19.996	100.570	20.083	-0.641	0.002
4.000	109.757	80.003	19.996	100.564	20.079	-0.379	0.083
6.000	109.704	80.001	19.995	100.552	20.075	-0.130	-0.019
8.000	109.704	80.001	19.995	100.550	20.077	-0.271	-0.002
10.000	109.717	80.002	19.994	100.558	20.075	-0.110	-0.001
12.000	109.699	80.001	19.995	100.567	20.070	0.266	-0.000
14.001	109.701	80.000	19.994	100.572	20.072	0.084	0.004
16.000	109.707	80.000	19.994	100.568	20.069	0.288	0.011
18.000	109.668	80.000	19.993	100.568	20.070	0.208	-0.004
20.000	109.675	80.000	19.994	100.596	20.071	0.179	0.023
22.000	109.704	80.001	19.994	100.609	20.064	0.679	0.028
24.000	109.701	79.999	19.994	100.631	20.064	0.639	0.010
26.000	109.736	80.000	19.994	100.638	20.064	0.651	-0.010
28.000	109.809	80.000	19.995	100.646	20.061	0.836	0.033
30.000	109.912	79.999	19.995	100.671	20.056	1.193	0.039
32.000	110.010	80.001	19.995	100.678	20.056	1.182	0.083
34.000	110.143	80.000	19.995	100.647	20.053	1.424	0.059
36.000	110.308	79.998	19.995	100.639	20.056	1.177	0.074
38.000	110.433	80.000	19.995	100.654	20.059	1.023	0.110
40.000	110.633	79.999	19.995	100.647	20.057	1.155	0.100
42.000	110.786	80.000	19.994	100.649	20.057	1.122	0.062
44.000	110.936	79.999	19.994	100.658	20.055	1.272	0.079
46.000	111.132	79.999	19.994	100.657	20.054	1.323	0.100
48.000	111.340	80.000	19.995	100.679	20.048	1.775	0.113
50.000	111.553	79.998	19.995	100.710	20.043	2.073	0.106
52.000	111.796	79.999	19.994	100.729	20.042	2.140	0.136
54.000	112.121	79.999	19.995	100.730	20.041	2.248	0.142
56.000	112.389	80.000	19.994	100.737	20.039	2.395	0.156
58.000	112.663	79.999	19.995	100.733	20.040	2.312	0.147
60.000	112.984	80.001	19.995	100.735	20.039	2.393	0.156
62.000	113.316	80.001	19.995	100.759	20.035	2.671	0.191
64.000	113.716	80.001	19.995	100.768	20.036	2.591	0.147
66.000	114.103	80.001	19.996	100.768	20.035	2.634	0.183
68.000	114.506	80.000	19.996	100.776	20.034	2.732	0.203
70.000	114.958	79.999	19.996	100.769	20.031	2.946	0.197
72.001	115.454	79.999	19.996	100.766	20.032	2.885	0.231
74.000	115.981	79.999	19.996	100.773	20.031	2.941	0.262
76.000	116.532	79.999	19.996	100.770	20.031	2.904	0.299
78.000	117.038	80.000	19.995	100.776	20.034	2.712	0.277
80.000	117.613	80.001	19.993	100.765	20.032	2.839	0.296
82.000	118.173	80.001	19.995	100.771	20.035	2.679	0.303
84.000	118.725	80.002	19.995	100.770	20.028	3.131	0.261
86.000	119.337	80.002	19.995	100.783	20.033	2.800	0.287
88.000	119.943	80.002	19.996	100.785	20.029	3.055	0.317
90.000	120.596	80.003	19.996	100.798	20.028	3.176	0.316
92.000	121.273	80.001	19.996	100.790	20.025	3.368	0.342
94.000	121.923	80.002	19.995	100.799	20.028	3.169	0.321
96.001	122.627	79.999	19.995	100.801	20.027	3.206	0.355
98.000	123.276	79.997	19.995	100.801	20.029	3.098	0.327
100.000	123.999	80.000	19.994	100.803	20.028	3.156	0.369
102.000	124.648	79.998	19.995	100.805	20.030	3.039	0.359
104.000	125.445	79.998	19.994	100.806	20.023	3.506	0.368
106.000	126.186	79.999	19.996	100.812	20.025	3.369	0.364
108.000	126.913	80.000	19.994	100.806	20.026	3.309	0.352
110.000	127.724	79.999	19.993	100.807	20.026	3.281	0.395
112.000	128.510	80.000	19.995	100.809	20.029	3.106	0.377
114.000	129.365	79.999	19.994	100.818	20.030	3.018	0.423
116.000	130.214	79.999	19.995	100.833	20.028	3.175	0.414
118.000	131.012	80.000	19.994	100.820	20.029	3.087	0.418
120.000	131.869	79.999	19.994	100.821	20.026	3.262	0.405
122.000	132.726	80.000	19.995	100.827	20.027	3.242	0.433
124.001	133.592	79.998	19.995	100.828	20.021	3.610	0.452
126.000	134.494	80.001	19.994	100.820	20.025	3.378	0.413
128.000	135.413	79.999	19.996	100.828	20.028	3.134	0.444
130.000	136.335	79.999	19.996	100.813	20.028	3.160	0.481
132.000	137.199	79.999	19.995	100.815	20.025	3.346	0.464
134.000	138.147	79.999	19.994	100.813	20.025	3.346	0.451
136.000	139.029	79.998	19.995	100.818	20.024	3.422	0.459
138.000	139.923	80.000	19.995	100.812	20.025	3.347	0.457
140.000	140.886	79.999	19.994	100.821	20.025	3.338	0.478
142.000	141.853	80.001	19.995	100.808	20.021	3.617	0.511
144.000	142.860	80.001	19.995	100.817	20.025	3.345	0.502
146.000	143.773	80.000	19.995	100.806	20.027	3.198	0.455
148.000	144.788	80.001	19.994	100.802	20.026	3.290	0.494
150.000	145.743	79.999	19.994	100.806	20.026	3.293	0.466
152.000	146.699	79.999	19.996	100.809	20.023	3.513	0.452
154.000	147.666	79.999	19.996	100.805	20.022	3.558	0.463
156.000	148.687	80.000	19.996	100.802	20.023	3.496	0.498
158.000	149.766	79.999	19.996	100.802	20.022	3.556	0.554
160.000	150.731	79.999	19.995	100.807	20.024	3.453	0.509
162.000	151.684	80.000	19.995	100.802	20.024	3.422	0.474
164.000	152.704	79.999	19.995	100.805	20.020	3.664	0.473
166.000	153.655	80.001	19.994	100.804	20.023	3.511	0.486
168.000	154.662	80.001	19.994	100.800	20.024	3.437	0.496
170.000	155.658	80.001	19.993	100.802	20.024	3.405	0.483
172.000	156.659	80.002	19.994	100.802	20.024	3.448	0.519
174.000	157.652	80.001	19.994	100.802	20.022	3.561	0.514
176.000	158.686	80.001	19.994	100.802	20.025	3.327	0.485
178.000	159.668	80.000	19.995	100.801	20.026	3.304	0.486
180.000	160.693	79.999	19.994	100.800	20.025	3.336	0.542
182.000	161.748	79.999	19.994	100.803	20.030	3.013	0.544
184.000	162.767	79.998	19.995	100.797	20.022	3.554	0.542
186.000	163.751	80.000	19.994	100.804	20.026	3.304	0.488
188.000	164.755	80.000	19.994	100.802	20.026	3.311	0.508
190.000	165.760	79.999	19.995	100.798	20.027	3.177	0.516
192.000	166.814	80.000	19.995	100.783	20.026	3.263	0.480
194.000	167.838	80.000	19.995	100.793	20.026	3.293	0.508
196.000	168.844	80.002	19.995	100.795	20.028	3.122	0.509
198.000	169.844	80.001	19.995	100.793	20.027	3.233	0.520
200.000	170.865	80.001	19.994	100.788	20.027	3.200	0.484
202.000	171.848	80.000	19.995	100.782	20.023	3.460	0.508
204.000	172.885	80.000	19.995	100.789	20.026	3.300	0.515
206.000	173.862	80.000	19.994	100.791	20.031	2.965	0.490
208.000	174.935	80.000	19.995	100.783	20.028	3.116	0.510
210.000	175.901	80.000	19.995	100.786	20.030	3.000	0.523
212.000	176.897	80.000	19.995	100.776	20.026	3.274	0.496
214.000	177.881	79.999	19.994	100.773	20.029	3.059	0.466
216.000	178.900	79.999	19.995	100.772	20.028	3.121	0.497
218.000	179.903	80.000	19.995	100.772	20.031	2.948	0.502
220.000	180.902	79.999	19.994	100.778	20.029	3.056	0.493
222.000	181.963	80.000	19.995	100.776	20.030	3.007	0.514
224.000	182.974	80.001	19.995	100.769	20.029	3.086	0.488
226.000	183.914	80.000	19.996	100.765	20.030	3.018	0.453
228.000	184.943	79.999	19.997	100.767	20.028	3.115	0.502
230.000	185.968	80.000	19.995	100.765	20.028	3.134	0.517
232.000	186.947	79.999	19.995	100.764	20.028	3.169	0.527
234.000	187.964	80.001	19.995	100.769	20.024	3.411	0.483
236.000	188.949	80.000	19.996	100.765	20.028	3.145	0.487
238.000	189.934	80.001	19.996	100.765	20.028	3.156	0.507
240.000	190.917	80.000	19.995	100.766	20.029	3.106	0.483
242.000	191.911	80.000	19.994	100.766	20.027	3.208	0.501
244.000	192.942	79.999	19.994	100.767	20.026	3.294	0.530
246.000	193.871	80.000	19.993	100.767	20.030	3.013	0.503
248.000	194.851	80.000	19.995	100.766	20.031	2.916	0.506
250.000	195.841	80.001	19.994	100.764	20.031	2.951	0.524
252.000	196.809	80.002	19.995	100.765	20.026	3.312	0.510
254.000	197.771	80.001	19.995	100.763	20.032	2.890	0.479
256.000	198.772	80.001	19.996	100.765	20.031	2.912	0.518
258.000	199.746	80.000	19.996	100.761	20.029	3.106	0.466
260.000	200.719	79.999	19.995	100.760	20.028	3.112	0.480
262.000	201.727	80.000	19.995	100.761	20.027	3.193	0.505
264.000	202.709	79.999	19.995	100.762	20.028	3.163	0.482
266.000	203.704	80.000	19.995	100.761	20.026	3.264	0.454
268.000	204.656	79.999	19.995	100.760	20.030	2.974	0.457
270.000	205.646	80.001	19.995	100.763	20.025	3.331	0.499
272.000	206.634	79.998	19.994	100.763	20.026	3.297	0.497
274.000	207.609	79.999	19.995	100.763	20.026	3.273	0.466
276.000	208.595	79.999	19.994	100.756	20.027	3.212	0.513
278.000	209.595	80.001	19.995	100.763	20.026	3.264	0.506
280.000	210.545	80.000	19.995	100.757	20.023	3.474	0.475
282.000	211.596	80.000	19.994	100.758	20.021	3.595	0.517
284.000	212.559	80.000	19.994	100.759	20.019	3.746	0.477
286.000	213.526	80.002	19.995	100.761	20.020	3.686	0.480
288.000	214.540	80.001	19.995	100.756	20.020	3.681	0.481
290.000	215.507	79.999	19.994	100.758	20.021	3.616	0.484
292.000	216.502	79.998	19.995	100.762	20.018	3.843	0.516
294.000	217.439	79.999	19.995	100.763	20.017	3.878	0.467
296.000	218.421	79.999	19.994	100.760	20.015	4.027	0.477
298.000	219.435	80.000	19.994	100.763	20.014	4.117	0.488
300.000	220.421	80.000	19.994	100.761	20.013	4.189	0.509
302.000	221.353	79.999	19.994	100.765	20.010	4.385	0.503
304.000	222.364	80.000	19.994	100.757	20.008	4.492	0.491
306.000	223.307	80.000	19.994	100.762	20.012	4.249	0.461
308.000	224.289	80.000	19.995	100.767	20.008	4.504	0.481
310.001	225.257	80.000	19.994	100.766	20.012	4.260	0.483
312.000	226.236	79.998	19.996	100.766	20.009	4.438	0.484
314.000	227.236	80.000	19.995	100.766	20.010	4.366	0.499
316.000	228.228	80.000	19.996	100.764	20.012	4.276	0.514
318.001	229.253	80.000	19.995	100.766	20.009	4.436	0.502
320.000	230.283	80.000	19.994	100.765	20.007	4.606	0.499
322.000	231.285	80.001	19.995	100.764	20.003	4.866	0.500
324.000	232.234	80.002	19.996	100.763	20.003	4.835	0.479
326.000	233.255	80.001	19.996	100.761	20.003	4.890	0.515
328.000	234.227	80.000	19.995	100.759	20.000	5.043	0.524
330.000	235.266	80.001	19.995	100.756	19.999	5.164	0.523
332.000	236.218	80.002	19.995	100.756	19.997	5.304	0.485
334.000	237.219	80.003	19.995	100.761	19.997	5.272	0.508
336.000	238.191	80.002	19.994	100.759	19.994	5.493	0.502
338.000	239.205	80.001	19.994	100.761	19.992	5.622	0.539
340.001	240.170	80.000	19.995	100.760	19.995	5.402	0.472
342.000	241.158	80.000	19.995	100.761	19.992	5.616	0.503
344.000	242.188	80.001	19.996	100.761	19.993	5.572	0.544
346.000	243.199	79.999	19.995	100.756	19.988	5.907	0.486
348.000	244.206	79.999	19.995	100.760	19.989	5.860	0.512
350.000	245.191	79.998	19.996	100.758	19.985	6.085	0.509
352.000	246.161	79.999	19.996	100.754	19.979	6.521	0.491
354.000	247.206	79.999	19.995	100.757	19.975	6.807	0.516
356.000	248.161	79.999	19.994	100.761	19.974	6.873	0.482
358.000	249.210	80.000	19.994	100.758	19.974	6.886	0.498
360.000	250.201	79.999	19.993	100.758	19.968	7.275	0.504
362.000	251.221	80.001	19.993	100.762	19.969	7.247	0.547
364.000	252.230	80.000	19.994	100.763	19.963	7.634	0.526
366.000	253.199	80.000	19.994	100.762	19.955	8.160	0.483
368.000	254.145	80.000	19.994	100.765	19.955	8.204	0.467
370.000	255.134	79.999	19.994	100.765	19.951	8.476	0.474
372.000	256.175	80.001	19.995	100.766	19.948	8.671	0.493
374.000	257.122	79.999	19.995	100.766	19.946	8.801	0.504
376.000	258.090	79.998	19.995	100.765	19.943	8.984	0.485
378.000	259.102	79.998	19.995	100.768	19.944	8.980	0.484
380.000	260.110	79.999	19.994	100.773	19.937	9.438	0.469
382.000	261.048	79.998	19.994	100.774	19.937	9.419	0.485
384.000	262.033	79.999	19.994	100.771	19.933	9.709	0.475
386.000	263.067	80.000	19.995	100.772	19.923	10.425	0.506
388.000	264.074	80.000	19.995	100.775	19.927	10.121	0.530
390.000	265.039	80.000	19.995	100.771	19.921	10.568	0.496
392.000	266.012	80.001	19.994	100.767	19.918	10.732	0.501
394.000	267.053	80.001	19.994	100.780	19.910	11.299	0.524
396.000	268.042	80.002	19.994	100.786	19.907	11.536	0.492
398.000	269.085	80.001	19.995	100.775	19.898	12.098	0.524
400.000	270.069	80.000	19.995	100.791	19.894	12.372	0.494
402.000	271.109	80.001	19.995	100.791	19.892	12.542	0.579
404.000	272.108	79.999	19.994	100.798	19.885	13.001	0.486
406.000	273.108	80.001	19.995	100.791	19.883	13.199	0.480
408.000	274.062	80.000	19.993	100.794	19.879	13.447	0.486
410.000	275.047	80.002	19.995	100.797	19.874	13.793	0.509
412.000	276.057	80.001	19.994	100.794	19.868	14.236	0.521
414.000	277.007	80.002	19.995	100.801	19.860	14.778	0.488
416.000	278.055	80.001	19.993	100.796	19.853	15.268	0.511
418.000	279.047	80.003	19.994	100.800	19.847	15.625	0.473
420.000	280.027	80.002	19.994	100.802	19.842	16.012	0.491
422.000	280.991	80.002	19.994	100.799	19.835	16.474	0.487
424.000	281.964	80.001	19.995	100.800	19.829	16.892	0.488
426.000	282.885	79.999	19.995	100.805	19.822	17.350	0.469
428.000	283.921	79.999	19.995	100.804	19.813	17.974	0.492
430.000	284.786	79.998	19.995	100.804	19.810	18.203	0.452
432.000	285.738	80.000	19.994	100.803	19.803	18.704	0.458
434.000	286.688	80.000	19.994	100.805	19.794	19.349	0.490
436.000	287.636	79.999	19.994	100.810	19.792	19.474	0.470
438.000	288.598	79.998	19.995	100.813	19.778	20.417	0.488
440.000	289.540	79.999	19.995	100.811	19.774	20.678	0.461
442.000	290.459	79.998	19.994	100.815	19.765	21.333	0.490
444.000	291.413	79.998	19.995	100.820	19.759	21.756	0.443
446.000	292.435	80.000	19.995	100.818	19.752	22.219	0.470
448.000	293.351	79.999	19.996	100.830	19.747	22.579	0.469
450.000	294.333	79.999	19.996	100.839	19.731	23.680	0.516
452.000	295.241	80.001	19.994	100.842	19.727	23.986	0.450
454.000	296.221	80.000	19.995	100.840	19.717	24.650	0.488
456.000	297.165	80.000	19.995	100.840	19.715	24.756	0.467
458.000	298.166	80.000	19.994	100.837	19.702	25.701	0.502
460.000	299.126	80.001	19.995	100.842	19.692	26.391	0.486
462.000	300.081	79.999	19.994	100.847	19.688	26.658	0.487
464.000	301.014	80.001	19.993	100.850	19.677	27.425	0.449
466.000	302.008	80.000	19.995	100.848	19.672	27.762	0.509
468.000	303.000	80.001	19.994	100.851	19.663	28.381	0.466
470.000	303.955	80.001	19.995	100.862	19.658	28.763	0.454
472.001	304.908	80.001	19.995	100.861	19.648	29.400	0.468
474.000	305.924	80.001	19.995	100.865	19.636	30.249	0.534
476.000	306.895	80.002	19.994	100.869	19.630	30.709	0.517
478.000	307.929	80.002	19.994	100.875	19.619	31.421	0.490
480.000	308.913	80.001	19.994	100.880	19.608	32.192	0.506
482.000	309.896	80.001	19.994	100.873	19.601	32.716	0.497
484.000	310.950	80.000	19.995	100.876	19.597	32.965	0.513
486.000	311.895	80.000	19.994	100.882	19.586	33.716	0.511
488.000	312.881	80.001	19.995	100.886	19.574	34.521	0.465
490.000	313.887	80.001	19.993	100.883	19.566	35.089	0.504
492.000	314.899	80.001	19.995	100.884	19.555	35.901	0.515
494.000	315.885	80.001	19.994	100.887	19.550	36.190	0.500
496.000	316.912	80.002	19.994	100.898	19.536	37.190	0.508
498.000	317.909	80.003	19.995	100.890	19.525	37.989	0.532
500.000	318.905	80.001	19.995	100.902	19.513	38.768	0.491
502.000	319.866	80.001	19.994	100.908	19.502	39.563	0.470
504.000	320.888	80.001	19.994	100.917	19.488	40.503	0.516
506.000	321.881	80.000	19.995	100.909	19.481	40.974	0.502
508.000	322.888	80.000	19.995	100.919	19.466	42.060	0.491
510.000	323.842	80.000	19.996	100.922	19.456	42.762	0.461
512.000	324.817	80.000	19.994	100.922	19.442	43.729	0.451
514.000	325.806	80.000	19.996	100.923	19.436	44.124	0.490
516.000	326.784	79.999	19.994	100.929	19.424	44.968	0.488
518.000	327.800	80.000	19.995	100.934	19.413	45.708	0.463
520.000	328.772	80.000	19.995	100.932	19.402	46.517	0.499
522.000	329.688	80.001	19.995	100.951	19.390	47.302	0.508
524.000	330.755	80.001	19.994	100.953	19.377	48.243	0.520
526.000	331.606	80.001	19.994	100.954	19.362	49.287	0.570
528.000	332.531	80.000	19.996	100.958	19.351	50.060	0.473
530.000	333.726	80.000	19.996	100.960	19.332	51.328	0.373
532.000	334.981	79.999	19.996	100.960	19.317	52.415	0.550
534.000	335.830	80.000	19.995	100.970	19.302	53.433	0.577
536.000	336.717	80.000	19.997	100.980	19.287	54.478	0.514
538.000	337.800	79.998	19.996	100.987	19.269	55.706	0.506
540.000	338.795	80.000	19.996	100.991	19.255	56.673	0.520
542.000	339.737	79.999	19.996	100.996	19.236	57.997	0.458
544.000	340.755	79.999	19.995	101.003	19.223	58.957	0.480
546.000	341.794	80.001	19.995	101.010	19.207	60.007	0.497
548.000	342.793	80.001	19.995	101.023	19.191	61.110	0.496
550.000	343.798	80.000	19.996	101.022	19.176	62.201	0.494
552.000	344.807	80.001	19.995	101.027	19.153	63.799	0.481
554.000	345.807	80.003	19.994	101.034	19.136	64.973	0.532
556.000	346.852	80.001	19.993	101.037	19.119	66.153	0.486
558.001	347.896	80.001	19.994	101.039	19.097	67.627	0.509
560.000	348.925	80.000	19.994	101.039	19.080	68.801	0.514
562.000	349.990	80.001	19.995	101.038	19.065	69.845	0.558
564.000	350.994	80.000	19.994	101.044	19.048	71.020	0.504
566.000	351.981	80.001	19.995	101.041	19.034	72.018	0.474
568.000	352.979	80.000	19.995	101.043	19.023	72.761	0.528
570.000	353.947	80.001	19.996	101.042	19.011	73.606	0.481
572.000	354.969	80.000	19.997	101.040	19.001	74.290	0.494
574.000	355.978	80.001	19.995	101.040	18.997	74.532	0.503
576.000	357.034	80.002	19.997	101.039	18.990	75.027	0.546
578.001	358.039	80.001	19.995	101.035	18.983	75.505	0.518
580.000	359.021	80.003	19.993	101.032	18.987	75.232	0.493
582.000	360.039	80.003	19.994	101.014	18.991	74.918	0.500
584.000	361.069	80.003	19.996	100.998	18.998	74.432	0.531
586.000	362.061	80.002	19.994	100.997	19.009	73.669	0.479
588.000	363.129	80.001	19.994	100.989	19.027	72.377	0.518
590.000	364.122	80.002	19.995	100.963	19.048	70.908	0.525
592.000	365.130	80.001	19.995	100.951	19.070	69.390	0.507
594.000	366.145	80.000	19.995	100.937	19.100	67.280	0.531
596.000	367.158	80.000	19.993	100.915	19.132	65.098	0.502
598.000	368.184	80.000	19.995	100.893	19.167	62.621	0.515
600.000	369.232	80.000	19.996	100.872	19.206	59.955	0.530
602.000	370.221	80.000	19.995	100.845	19.249	56.965	0.513
604.000	371.265	80.001	19.996	100.823	19.291	54.032	0.506
606.000	372.272	79.998	19.995	100.802	19.342	50.489	0.503
608.000	373.250	80.001	19.995	100.779	19.387	47.428	0.484
610.000	374.303	80.001	19.995	100.765	19.438	43.888	0.517
612.000	375.346	80.002	19.996	100.756	19.483	40.754	0.524
614.000	376.371	80.000	19.996	100.738	19.533	37.316	0.518
616.000	377.439	80.001	19.994	100.727	19.578	34.179	0.550
618.000	378.445	80.000	19.995	100.726	19.621	31.227	0.514
620.000	379.494	80.001	19.995	100.724	19.664	28.255	0.489
622.000	380.524	80.000	19.997	100.705	19.707	25.325	0.489
624.000	381.528	79.999	19.996	100.693	19.739	23.071	0.514
626.000	382.559	79.998	19.996	100.691	19.775	20.620	0.515
628.000	383.620	79.999	19.996	100.688	19.804	18.594	0.498
630.000	384.700	79.999	19.995	100.689	19.830	16.829	0.539
632.000	385.688	79.999	19.996	100.690	19.853	15.230	0.526
634.000	386.759	80.000	19.997	100.688	19.869	14.108	0.566
636.000	387.789	80.000	19.996	100.685	19.887	12.888	0.564
638.000	388.784	80.002	19.994	100.687	19.899	12.055	0.497
640.000	389.862	80.001	19.994	100.687	19.912	11.118	0.534
642.000	390.928	80.001	19.993	100.688	19.921	10.508	0.527
644.000	391.944	80.001	19.994	100.686	19.926	10.168	0.517
646.000	392.944	80.001	19.994	100.688	19.931	9.865	0.485
648.000	394.016	80.000	19.995	100.687	19.936	9.506	0.538
650.000	395.049	80.002	19.994	100.684	19.937	9.402	0.516
652.000	396.053	80.000	19.994	100.685	19.945	8.847	0.488
654.000	397.082	80.001	19.994	100.685	19.945	8.857	0.527
656.000	398.099	80.001	19.995	100.687	19.948	8.647	0.509
658.000	399.144	80.003	19.995	100.686	19.951	8.473	0.536
660.000	400.167	80.003	19.994	100.686	19.950	8.518	0.498
662.000	401.194	80.002	19.995	100.684	19.954	8.236	0.525
664.000	402.215	80.002	19.995	100.684	19.953	8.332	0.543
666.000	403.264	80.002	19.995	100.684	19.952	8.370	0.533
668.000	404.305	80.002	19.993	100.685	19.950	8.548	0.531
670.000	405.307	80.002	19.993	100.680	19.952	8.381	0.529
672.000	406.341	80.002	19.994	100.685	19.953	8.325	0.521
674.000	407.380	80.001	19.995	100.685	19.952	8.401	0.527
676.000	408.408	80.001	19.994	100.685	19.953	8.322	0.492
678.000	409.431	80.001	19.994	100.687	19.950	8.554	0.515
680.001	410.450	80.001	19.995	100.686	19.949	8.591	0.501
682.000	411.472	80.001	19.995	100.688	19.951	8.422	0.493
684.000	412.506	79.999	19.994	100.687	19.955	8.149	0.516
686.000	413.499	80.000	19.995	100.688	19.953	8.322	0.487
688.000	414.547	80.000	19.995	100.688	19.956	8.106	0.533
690.000	415.515	80.001	19.995	100.688	19.953	8.284	0.499
692.000	416.543	80.001	19.996	100.688	19.958	7.974	0.500
694.000	417.565	80.000	19.996	100.688	19.958	7.946	0.515
696.000	418.571	80.000	19.995	100.690	19.957	8.045	0.531
698.000	419.605	79.999	19.996	100.688	19.955	8.145	0.521
700.000	420.636	79.998	19.994	100.686	19.958	7.951	0.527
702.000	421.658	80.000	19.995	100.688	19.955	8.187	0.519
704.000	422.681	79.999	19.994	100.687	19.956	8.109	0.509
706.000	423.658	79.998	19.996	100.689	19.955	8.152	0.503
708.000	424.668	80.000	19.995	100.686	19.959	7.910	0.504
710.000	425.685	79.998	19.995	100.685	19.961	7.774	0.529
712.000	426.686	80.000	19.995	100.686	19.959	7.875	0.474
714.000	427.737	79.999	19.995	100.683	19.960	7.854	0.514
716.000	428.697	79.998	19.997	100.685	19.963	7.646	0.489
718.000	429.722	79.999	19.995	100.685	19.960	7.814	0.494
720.000	430.702	80.001	19.996	100.684	19.963	7.633	0.540
722.000	431.794	80.001	19.997	100.679	19.961	7.741	0.557
724.000	432.800	80.001	19.996	100.681	19.963	7.629	0.496
726.000	433.803	80.001	19.997	100.683	19.963	7.624	0.491
728.000	434.816	80.001	19.995	100.683	19.966	7.429	0.502
730.000	435.799	80.000	19.997	100.684	19.967	7.330	0.455
732.000	436.807	80.001	19.996	100.685	19.969	7.181	0.510
734.000	437.839	80.000	19.994	100.682	19.971	7.068	0.497
736.000	438.841	80.001	19.996	100.685	19.973	6.904	0.512
738.000	439.825	80.002	19.994	100.684	19.972	6.978	0.523
740.000	440.840	80.001	19.995	100.685	19.978	6.617	0.511
742.000	441.839	80.002	19.995	100.684	19.976	6.699	0.481
744.000	442.827	80.002	19.993	100.687	19.976	6.757	0.475
746.000	443.830	80.001	19.994	100.683	19.977	6.673	0.473
748.000	444.863	80.002	19.995	100.673	19.981	6.400	0.510
750.000	445.874	80.002	19.994	100.672	19.983	6.253	0.497
752.000	446.850	80.002	19.994	100.673	19.983	6.212	0.486
754.000	447.851	80.001	19.995	100.669	19.982	6.305	0.530
756.000	448.854	80.001	19.995	100.680	19.986	6.064	0.516
758.000	449.806	80.000	19.994	100.673	19.986	6.048	0.502
760.000	450.791	79.999	19.995	100.679	19.985	6.130	0.480
762.000	451.792	79.999	19.994	100.684	19.987	5.980	0.521
764.000	452.769	80.001	19.996	100.675	19.987	5.937	0.489
766.000	453.776	80.000	19.996	100.684	19.990	5.793	0.490
768.000	454.734	79.999	19.994	100.673	19.987	5.959	0.481
770.000	455.759	80.000	19.995	100.682	19.990	5.749	0.500
772.000	456.704	79.999	19.995	100.675	19.992	5.606	0.457
774.000	457.723	80.001	19.995	100.682	19.993	5.528	0.495
776.000	458.695	80.000	19.994	100.681	19.992	5.609	0.500
778.001	459.709	79.999	19.995	100.666	19.993	5.577	0.499
780.000	460.652	80.001	19.995	100.678	19.992	5.618	0.462
782.000	461.659	80.000	19.995	100.673	19.993	5.527	0.471
784.000	462.686	79.999	19.996	100.682	19.992	5.637	0.477
786.000	463.706	80.000	19.995	100.675	19.996	5.317	0.527
788.000	464.633	80.000	19.995	100.659	19.996	5.377	0.501
790.000	465.638	79.999	19.996	100.660	20.000	5.090	0.465
792.000	466.638	79.999	19.996	100.671	20.000	5.075	0.487
794.000	467.648	80.000	19.995	100.657	20.001	4.977	0.501
796.000	468.606	80.001	19.994	100.665	19.998	5.201	0.501
798.000	469.571	80.001	19.995	100.672	20.001	5.026	0.496
800.000	470.562	80.001	19.995	100.666	20.002	4.962	0.491
802.000	471.557	80.002	19.994	100.654	20.004	4.794	0.478
804.000	472.521	80.002	19.995	100.661	20.002	4.902	0.468
806.000	473.521	80.000	19.995	100.657	20.002	4.939	0.525
808.000	474.513	80.001	19.996	100.657	20.001	4.972	0.515
810.000	475.482	80.001	19.995	100.652	20.002	4.913	0.475
812.000	476.473	79.999	19.995	100.670	19.998	5.214	0.490
814.000	477.483	80.001	19.996	100.684	20.003	4.853	0.523
816.000	478.481	80.000	19.996	100.681	20.002	4.924	0.506
818.000	479.494	80.000	19.996	100.680	20.004	4.829	0.461
820.000	480.520	80.000	19.996	100.678	19.999	5.137	0.496
822.000	481.550	80.001	19.996	100.682	20.001	4.979	0.548
824.000	482.588	80.001	19.995	100.679	20.000	5.043	0.523
826.000	483.628	80.001	19.995	100.686	19.998	5.191	0.511
828.000	484.717	80.002	19.994	100.682	19.999	5.126	0.524
830.000	485.829	80.002	19.994	100.676	19.999	5.112	0.558
832.000	486.903	80.003	19.994	100.674	19.995	5.435	0.534
834.000	487.984	80.003	19.993	100.672	20.000	5.056	0.495
836.000	489.057	80.001	19.995	100.670	19.997	5.273	0.558
838.000	490.151	79.999	19.994	100.675	19.999	5.115	0.542
840.000	491.215	80.000	19.995	100.680	20.005	4.723	0.521
842.001	492.332	80.001	19.996	100.686	20.005	4.708	0.558
844.000	493.473	79.999	19.994	100.674	20.005	4.756	0.547
846.000	494.546	79.999	19.996	100.675	20.004	4.806	0.539
848.000	495.748	80.000	19.995	100.670	20.004	4.806	0.575
850.000	496.839	80.001	19.994	100.682	20.004	4.768	0.568
852.000	497.933	80.000	19.996	100.678	20.004	4.782	0.563
854.000	499.134	80.000	19.994	100.675	20.002	4.921	0.609
856.000	500.223	80.001	19.995	100.675	20.006	4.635	0.562
858.000	501.351	80.000	19.994	100.673	20.002	4.929	0.551
860.000	502.446	80.000	19.994	100.667	20.005	4.694	0.553
862.000	503.563	80.000	19.995	100.654	20.008	4.510	0.562
864.000	504.620	80.002	19.994	100.673	20.008	4.545	0.534
866.000	505.759	80.000	19.995	100.659	20.007	4.568	0.562
868.001	506.855	79.999	19.995	100.673	20.006	4.677	0.549
870.000	507.992	80.000	19.996	100.666	20.007	4.557	0.572
872.000	509.066	80.001	19.995	100.656	20.007	4.615	0.533
874.000	510.172	80.002	19.995	100.649	20.007	4.599	0.543
876.000	511.243	79.999	19.996	100.660	20.006	4.623	0.561
878.000	512.297	79.999	19.996	100.660	20.005	4.709	0.516
880.000	513.353	80.001	19.995	100.655	20.007	4.599	0.527
882.001	514.404	80.000	19.995	100.672	20.006	4.623	0.518
884.001	515.485	80.000	19.995	100.664	20.012	4.275	0.516
886.000	516.551	80.001	19.996	100.655	20.014	4.125	0.520
888.000	517.561	80.002	19.995	100.652	20.017	3.872	0.521
890.000	518.559	79.999	19.995	100.653	20.017	3.919	0.464
892.000	519.579	80.000	19.995	100.655	20.014	4.131	0.480
894.000	520.637	80.002	19.995	100.650	20.013	4.142	0.531
896.000	521.628	80.000	19.996	100.652	20.012	4.220	0.509
898.000	522.627	79.999	19.994	100.658	20.013	4.166	0.510
900.000	523.632	80.000	19.996	100.670	20.011	4.290	0.496
902.000	524.691	79.999	19.996	100.663	20.011	4.286	0.539
904.000	525.720	80.000	19.995	100.658	20.010	4.367	0.536
906.000	526.654	80.001	19.996	100.662	20.009	4.454	0.479
908.000	527.654	80.001	19.995	100.654	20.014	4.084	0.513
910.000	528.643	80.001	19.995	100.653	20.012	4.249	0.508
912.000	529.647	80.001	19.996	100.649	20.014	4.110	0.472
914.000	530.652	80.002	19.995	100.646	20.014	4.088	0.515
916.000	531.616	80.001	19.996	100.652	20.011	4.308	0.515
918.000	532.610	79.999	19.994	100.648	20.012	4.274	0.486
920.000	533.585	79.999	19.995	100.650	20.012	4.214	0.514
922.000	534.574	79.999	19.994	100.654	20.012	4.218	0.500
924.000	535.641	79.999	19.995	100.665	20.012	4.268	0.530
926.000	536.597	80.000	19.994	100.666	20.016	3.982	0.510
928.000	537.543	79.999	19.995	100.667	20.016	4.000	0.495
930.000	538.524	79.998	19.996	100.660	20.015	4.043	0.498
932.000	539.519	80.000	19.995	100.650	20.017	3.930	0.488
934.000	540.518	80.000	19.994	100.661	20.015	4.032	0.499
936.000	541.509	80.000	19.995	100.655	20.016	3.986	0.473
938.000	542.512	80.001	19.994	100.653	20.016	3.992	0.488
940.000	543.500	80.000	19.995	100.651	20.015	4.049	0.515
942.000	544.452	80.000	19.995	100.660	20.017	3.869	0.462
944.000	545.443	80.001	19.994	100.666	20.015	4.066	0.473
946.000	546.450	79.999	19.993	100.656	20.013	4.203	0.515
948.000	547.459	80.000	19.995	100.663	20.014	4.123	0.506
950.000	548.492	79.999	19.995	100.667	20.014	4.107	0.505
952.000	549.470	79.999	19.995	100.664	20.011	4.308	0.527
954.000	550.473	79.999	19.996	100.666	20.012	4.257	0.499
956.000	551.470	79.999	19.994	100.659	20.012	4.224	0.494
958.000	552.475	80.000	19.994	100.659	20.014	4.112	0.505
960.000	553.474	80.000	19.995	100.668	20.013	4.153	0.488
962.000	554.535	80.001	19.995	100.671	20.012	4.226	0.541
964.000	555.501	80.001	19.994	100.665	20.012	4.276	0.491
966.000	556.512	80.002	19.994	100.663	20.015	4.040	0.536
968.000	557.569	80.002	19.994	100.670	20.018	3.826	0.534
970.000	558.569	80.002	19.995	100.660	20.015	4.017	0.514
972.000	559.539	80.001	19.995	100.667	20.015	4.019	0.506
974.000	560.581	80.001	19.995	100.661	20.017	3.912	0.530
976.000	561.622	80.000	19.995	100.657	20.013	4.183	0.518
978.000	562.650	80.001	19.996	100.670	20.016	3.967	0.464
980.000	563.717	80.000	19.995	100.665	20.016	3.932	0.531
982.000	564.679	80.001	19.996	100.655	20.020	3.712	0.516
984.000	565.706	80.002	19.994	100.669	20.014	4.114	0.514
986.000	566.729	80.001	19.995	100.662	20.017	3.919	0.519
988.000	567.731	80.001	19.994	100.664	20.015	4.049	0.489
990.000	568.733	80.002	19.995	100.661	20.012	4.242	0.501
992.000	569.791	80.002	19.994	100.661	20.011	4.341	0.516
994.000	570.806	80.002	19.996	100.660	20.010	4.376	0.509
996.000	571.826	80.004	19.995	100.659	20.013	4.200	0.514
998.000	572.825	80.002	19.995	100.662	20.011	4.315	0.488
1000.000	573.926	80.000	19.996	100.662	20.014	4.121	0.536
1002.000	574.951	79.999	19.995	100.659	20.010	4.410	0.543
1004.000	575.951	79.998	19.998	100.667	20.009	4.422	0.500
1006.000	576.954	79.999	19.996	100.663	20.013	4.168	0.475
1008.000	577.990	79.999	19.998	100.657	20.009	4.453	0.527
1010.000	579.022	79.998	19.995	100.653	20.007	4.579	0.527
1012.000	580.066	79.999	19.995	100.663	20.010	4.410	0.532
1014.000	581.064	80.000	19.995	100.652	20.007	4.607	0.526
1016.000	582.065	79.999	19.995	100.663	20.012	4.213	0.495
1018.000	583.084	80.000	19.996	100.669	20.009	4.455	0.501
1020.000	584.083	80.000	19.994	100.675	20.012	4.220	0.497
1022.000	585.069	79.998	19.995	100.668	20.005	4.707	0.504
1024.000	586.129	79.998	19.995	100.666	20.004	4.770	0.489
1026.000	587.164	79.999	19.995	100.662	20.007	4.613	0.520
1028.000	588.119	80.000	19.996	100.675	20.007	4.579	0.505
1030.000	589.169	79.998	19.996	100.658	20.008	4.520	0.522
1032.000	590.224	79.997	19.994	100.663	20.008	4.507	0.523
1034.000	591.262	79.998	19.995	100.660	20.006	4.674	0.509
1036.000	592.215	80.000	19.995	100.661	20.006	4.681	0.452
1038.000	593.266	79.998	19.996	100.669	20.009	4.417	0.549
1040.001	594.308	80.000	19.996	100.661	20.010	4.408	0.492
1042.000	595.335	79.998	19.996	100.673	20.011	4.298	0.509
1044.000	596.376	80.001	19.995	100.657	20.012	4.271	0.523
1046.001	597.438	80.001	19.995	100.668	20.012	4.277	0.493
1048.000	598.444	80.001	19.996	100.660	20.012	4.231	0.512
1050.000	599.419	80.002	19.995	100.660	20.014	4.108	0.474
1052.000	600.421	80.002	19.995	100.665	20.014	4.121	0.495
1054.000	601.461	80.002	19.994	100.665	20.013	4.175	0.519
1056.000	602.455	80.001	19.995	100.673	20.011	4.340	0.515
1058.001	603.453	80.002	19.995	100.676	20.012	4.221	0.498
1060.000	604.459	80.001	19.995	100.651	20.009	4.455	0.516
1062.000	605.391	80.000	19.994	100.655	20.009	4.474	0.484
1064.000	606.382	80.001	19.995	100.649	20.010	4.407	0.480
1066.000	607.359	80.001	19.996	100.646	20.008	4.530	0.494
1068.000	608.385	80.001	19.995	100.650	20.015	4.047	0.500
1070.000	609.364	80.000	19.995	100.646	20.013	4.187	0.485
1072.000	610.362	80.003	19.996	100.645	20.014	4.127	0.507
1074.000	611.344	80.002	19.996	100.646	20.012	4.266	0.490
1076.000	612.337	80.000	19.993	100.650	20.013	4.195	0.503
1078.000	613.365	80.001	19.995	100.653	20.010	4.368	0.487
1080.001	614.350	80.002	19.994	100.654	20.011	4.311	0.496
1082.000	615.360	80.002	19.996	100.663	20.012	4.224	0.532
1084.000	616.342	80.000	19.994	100.653	20.012	4.272	0.488
1086.000	617.342	79.999	19.997	100.649	20.012	4.224	0.485
1088.000	618.344	79.998	19.994	100.650	20.014	4.099	0.509
1090.000	619.309	80.002	19.995	100.650	20.014	4.129	0.492
1092.000	620.310	79.999	19.994	100.656	20.011	4.279	0.493
1094.000	621.326	79.999	19.995	100.653	20.008	4.500	0.510
1096.000	622.358	79.999	19.996	100.654	20.010	4.409	0.527
1098.000	623.348	80.001	19.996	100.665	20.013	4.175	0.512
1100.001	624.353	80.000	19.996	100.652	20.012	4.211	0.493
1102.000	625.393	79.999	19.996	100.657	20.014	4.121	0.511
1104.001	626.374	79.999	19.996	100.648	20.012	4.270	0.497
1106.000	627.352	80.001	19.996	100.648	20.011	4.320	0.519
1108.000	628.371	80.001	19.997	100.663	20.011	4.298	0.496
1110.000	629.393	80.000	19.995	100.658	20.012	4.231	0.545
1112.001	630.414	80.001	19.996	100.651	20.009	4.480	0.508
1114.000	631.449	80.000	19.996	100.647	20.007	4.555	0.542
1116.000	632.456	80.000	19.994	100.652	20.011	4.296	0.509
1118.000	633.510	79.999	19.994	100.649	20.010	4.366	0.529
1120.000	634.558	80.000	19.995	100.649	20.013	4.197	0.512
1122.000	635.576	80.000	19.994	100.647	20.014	4.091	0.513
1124.000	636.582	80.001	19.995	100.652	20.010	4.389	0.479
1126.000	637.587	80.000	19.994	100.658	20.012	4.249	0.494
1128.000	638.710	80.003	19.994	100.648	20.014	4.134	0.551
1130.000	639.675	80.001	19.995	100.653	20.011	4.328	0.513
1132.001	640.678	80.003	19.996	100.647	20.013	4.166	0.495
1134.000	641.738	80.002	19.996	100.653	20.016	3.978	0.519
1136.001	642.738	80.003	19.995	100.655	20.017	3.900	0.516
1138.001	643.794	80.002	19.995	100.651	20.017	3.870	0.524
1140.000	644.781	80.000	19.996	100.655	20.017	3.919	0.499
1142.000	645.836	80.002	19.995	100.662	20.017	3.874	0.516
1144.000	646.866	80.001	19.995	100.652	20.015	4.058	0.514
1146.000	647.871	80.002	19.994	100.654	20.013	4.147	0.514
1148.000	648.917	80.002	19.995	100.658	20.017	3.892	0.520
1150.000	649.954	80.002	19.996	100.655	20.013	4.145	0.557
1152.000	650.979	80.005	19.994	100.653	20.018	3.859	0.471
1154.000	652.049	80.002	19.995	100.653	20.018	3.837	0.516
1156.000	653.099	80.003	19.994	100.650	20.010	4.388	0.537
1158.000	654.043	80.002	19.995	100.650	20.009	4.454	0.469
1160.001	655.151	80.003	19.995	100.650	20.007	4.593	0.530
1162.000	656.181	80.002	19.995	100.651	20.009	4.428	0.538
1164.000	657.153	80.001	19.996	100.650	20.007	4.597	0.465
1166.000	658.204	80.001	19.996	100.663	20.009	4.459	0.521
1168.000	659.210	80.001	19.998	100.659	20.010	4.402	0.490
1170.000	660.169	80.001	19.998	100.651	20.011	4.287	0.517
1172.001	661.158	80.000	19.996	100.649	20.015	4.037	0.488
1174.000	662.173	80.000	19.995	100.649	20.014	4.134	0.506
1176.000	663.220	80.000	19.994	100.651	20.015	4.058	0.511
1178.000	664.170	79.999	19.994	100.650	20.014	4.104	0.520
1180.000	665.232	80.000	19.994	100.656	20.013	4.190	0.497
1182.001	666.259	80.001	19.995	100.648	20.009	4.458	0.518
1184.000	667.242	80.000	19.995	100.653	20.013	4.140	0.497
1186.000	668.303	80.000	19.996	100.651	20.013	4.160	0.500
1188.000	669.303	80.000	19.995	100.649	20.016	3.937	0.473
1190.000	670.296	80.000	19.996	100.649	20.019	3.749	0.491
1192.000	671.357	79.999	19.996	100.647	20.018	3.814	0.528
1194.000	672.350	80.000	19.996	100.655	20.015	4.011	0.496
1196.000	673.330	79.999	19.996	100.649	20.013	4.190	0.481
1198.000	674.379	80.000	19.996	100.645	20.013	4.180	0.512
1200.001	675.429	80.000	19.996	100.655	20.022	3.565	0.539
1202.000	676.464	79.998	19.996	100.650	20.015	4.011	0.486
1204.000	677.515	80.000	19.995	100.650	20.016	3.967	0.529
1206.000	678.476	79.999	19.995	100.649	20.016	3.985	0.446
1208.000	679.530	80.000	19.996	100.647	20.016	3.967	0.546
1210.000	680.539	80.000	19.995	100.647	20.015	4.019	0.498
1212.000	681.573	80.001	19.994	100.651	20.013	4.164	0.483
1214.001	682.598	80.001	19.996	100.648	20.016	3.995	0.534
1216.000	683.633	80.000	19.994	100.648	20.020	3.712	0.508
1218.001	684.642	80.001	19.995	100.647	20.017	3.922	0.494
1220.000	685.682	80.001	19.995	100.648	20.014	4.076	0.526
1222.001	686.671	80.000	19.994	100.645	20.016	3.954	0.523
1224.000	687.655	80.000	19.995	100.648	20.015	4.009	0.496
1226.000	688.702	80.000	19.995	100.648	20.014	4.106	0.511
1228.000	689.704	79.999	19.996	100.650	20.015	4.015	0.519
1230.000	690.707	80.001	19.996	100.644	20.009	4.446	0.502
1232.000	691.723	80.003	19.995	100.637	20.012	4.229	0.514
1234.000	692.729	80.001	19.995	100.643	20.013	4.148	0.515
1236.000	693.774	80.004	19.995	100.643	20.009	4.446	0.532
1238.000	694.772	80.005	19.993	100.644	20.013	4.150	0.524
1240.000	695.809	80.002	19.994	100.644	20.012	4.234	0.530
1242.000	696.843	80.002	19.994	100.658	20.016	3.963	0.544
1244.000	697.796	80.003	19.995	100.767	20.014	4.111	0.472
1246.000	698.794	80.000	19.995	100.693	20.011	4.319	0.482
1248.000	699.830	80.000	19.995	100.640	20.013	4.143	0.522
1250.000	700.848	80.000	19.996	100.641	20.010	4.385	0.497
1252.000	701.878	80.000	19.996	100.643	20.016	3.970	0.516
1254.000	702.909	79.998	19.996	100.632	20.013	4.163	0.492
1256.000	703.880	80.001	19.996	100.628	20.014	4.115	0.462
1258.000	704.820	80.001	19.996	100.646	20.012	4.251	0.491
1260.000	705.791	80.000	19.994	100.648	20.014	4.137	0.492
1262.000	706.813	80.001	19.995	100.645	20.014	4.135	0.504
1264.000	707.769	80.000	19.995	100.638	20.008	4.494	0.493
1266.000	708.797	79.999	19.997	100.639	20.012	4.231	0.503
1268.001	709.742	80.000	19.996	100.647	20.013	4.172	0.464
1270.000	710.707	80.000	19.995	100.644	20.010	4.397	0.476
1272.000	711.685	80.001	19.995	100.628	20.014	4.128	0.481
1274.000	712.649	79.999	19.996	100.572	20.010	4.371	0.475
1276.001	713.581	79.998	19.995	100.608	20.010	4.407	0.471
1278.000	714.563	79.996	19.994	100.618	20.012	4.266	0.520
1280.000	715.495	79.998	19.996	100.620	20.011	4.307	0.458
1282.000	716.504	79.995	19.995	100.632	20.013	4.199	0.514
1284.001	717.451	79.999	19.995	100.628	20.016	3.978	0.457
1286.000	718.425	79.996	19.996	100.640	20.014	4.100	0.469
1288.000	719.423	79.999	19.997	100.649	20.018	3.847	0.497
1290.001	720.368	80.000	19.996	100.648	20.018	3.834	0.494
1292.000	721.312	80.002	19.995	100.641	20.015	4.007	0.477
1294.000	722.282	80.003	19.994	100.642	20.014	4.099	0.504
1296.000	723.265	80.003	19.995	100.638	20.020	3.710	0.471
1298.001	724.255	80.001	19.995	100.640	20.015	4.041	0.484
1300.000	725.262	80.002	19.994	100.625	20.017	3.915	0.530
1302.000	726.225	80.002	19.996	100.642	20.013	4.143	0.484
1304.000	727.220	80.001	19.994	100.646	20.016	3.992	0.525
1306.000	728.209	80.001	19.995	100.646	20.013	4.149	0.487
1308.000	729.210	80.005	19.996	100.644	20.020	3.675	0.511
1310.000	730.185	80.002	19.996	100.645	20.016	3.973	0.525
1312.000	731.161	80.002	19.994	100.642	20.015	4.058	0.485
1314.000	732.197	80.003	19.995	100.639	20.011	4.320	0.512
1316.000	733.181	80.004	19.994	100.642	20.013	4.160	0.494
1318.000	734.192	80.002	19.994	100.648	20.010	4.385	0.522
1320.001	735.181	80.001	19.995	100.653	20.017	3.891	0.501
1322.000	736.227	80.003	19.995	100.653	20.016	3.933	0.522
1324.000	737.285	80.003	19.995	100.651	20.015	4.011	0.558
1326.000	738.292	80.003	19.995	100.647	20.017	3.894	0.515
1328.000	739.361	80.001	19.995	100.653	20.014	4.104	0.539
1330.000	740.463	79.999	19.995	100.651	20.015	4.045	0.545
1332.000	741.565	80.000	19.994	100.650	20.015	4.022	0.541
1334.001	742.619	79.999	19.994	100.648	20.017	3.895	0.532
1335.001	743.152	80.001	19.994	100.650	20.018	3.808	0.547