File: 01_Data/Gypsum_Wallboard_Paper/MCC/Gypsum_Wallboard_Paper_MCC_30K_min_211001_R1.txt
Sample ID:	C:\MCC\MCC Cal\Test\Gypsum_Wallboard_Paper_211001_R1.txt
Sample Weight (mg):	4.69
Heating Rate (C/s):	0.5
Combustor Temp (C):	900
N2 Flow Rate (cc/min):	80
O2 Flow Rate (cc/min):	20
Calibration File:	C:\MCC\MCC Cal\Coeff1 JN10440_30_210304.txt.txt
T Correction Coefficients:	0	1.024463	0
Time Shift (s):	14
*
Time (s)	Temperature (C)	N2 flow rate (cc/min)	O2 flow rate (cc/min)	Flow Rate (cc/min)	Oxygen (%)	HRR (W/g)	Heating rate (C/s)
0.000	106.427	79.999	19.996	100.530	20.094	-0.265	-0.019
2.000	106.448	79.998	19.994	100.529	20.095	-0.321	-0.010
4.000	106.486	80.001	19.997	100.532	20.093	-0.195	0.044
6.000	106.454	80.001	19.995	100.533	20.093	-0.177	0.010
8.000	106.476	80.001	19.996	100.527	20.092	-0.074	0.041
10.000	106.449	80.002	19.996	100.529	20.091	-0.063	0.003
12.000	106.487	80.000	19.994	100.528	20.091	-0.038	-0.013
14.000	106.493	80.002	19.994	100.533	20.094	-0.250	0.007
16.000	106.455	80.001	19.995	100.534	20.097	-0.424	-0.000
18.000	106.482	80.001	19.996	100.533	20.092	-0.081	0.011
20.000	106.441	80.000	19.995	100.533	20.092	-0.072	-0.026
22.000	106.453	80.001	19.995	100.537	20.090	0.047	-0.003
24.000	106.479	80.001	19.995	100.558	20.087	0.209	0.004
26.000	106.508	80.000	19.994	100.588	20.085	0.361	-0.021
28.000	106.559	79.999	19.994	100.624	20.077	0.892	0.042
30.000	106.631	79.999	19.995	100.650	20.075	1.038	0.025
32.000	106.730	80.000	19.995	100.681	20.074	1.119	0.056
34.000	106.859	80.001	19.994	100.720	20.065	1.675	0.073
36.000	107.026	80.000	19.994	100.730	20.064	1.758	0.107
38.000	107.240	80.000	19.995	100.739	20.058	2.177	0.120
40.001	107.444	79.999	19.995	100.746	20.055	2.348	0.101
42.001	107.698	80.000	19.994	100.733	20.055	2.404	0.117
44.000	107.991	80.000	19.995	100.734	20.052	2.597	0.146
46.000	108.372	80.001	19.995	100.731	20.052	2.586	0.217
48.001	108.721	79.998	19.996	100.733	20.052	2.572	0.176
50.000	109.086	79.999	19.995	100.729	20.054	2.419	0.217
52.000	109.483	79.998	19.996	100.726	20.052	2.549	0.212
54.000	109.829	79.998	19.995	100.730	20.053	2.506	0.158
56.000	110.241	79.999	19.997	100.730	20.054	2.450	0.176
58.000	110.691	79.999	19.995	100.731	20.055	2.369	0.232
60.001	111.152	79.999	19.995	100.743	20.050	2.685	0.256
62.000	111.599	80.001	19.995	100.756	20.047	2.907	0.224
64.000	112.073	80.001	19.995	100.749	20.052	2.588	0.251
66.000	112.577	80.001	19.995	100.756	20.047	2.889	0.278
68.000	113.091	80.000	19.996	100.766	20.048	2.836	0.253
70.000	113.643	80.002	19.994	100.770	20.046	2.989	0.270
72.000	114.196	80.000	19.996	100.773	20.042	3.237	0.262
74.000	114.751	80.000	19.994	100.785	20.044	3.116	0.277
76.001	115.327	79.999	19.995	100.792	20.044	3.083	0.282
78.000	115.978	79.999	19.995	100.793	20.043	3.182	0.323
80.000	116.640	80.000	19.995	100.805	20.040	3.399	0.336
82.000	117.300	80.000	19.995	100.804	20.036	3.621	0.369
84.000	117.950	79.999	19.996	100.804	20.035	3.695	0.312
86.000	118.685	80.000	19.996	100.802	20.034	3.782	0.357
88.000	119.351	80.000	19.996	100.802	20.037	3.601	0.383
90.000	120.112	80.001	19.995	100.804	20.037	3.593	0.378
92.000	120.831	80.001	19.995	100.807	20.041	3.340	0.383
94.000	121.641	80.003	19.994	100.802	20.040	3.404	0.368
96.001	122.381	80.002	19.993	100.796	20.037	3.554	0.404
98.000	123.163	80.001	19.994	100.801	20.045	3.075	0.411
100.000	123.926	80.000	19.994	100.808	20.042	3.271	0.391
102.000	124.801	79.999	19.994	100.808	20.040	3.379	0.410
104.000	125.655	79.998	19.995	100.809	20.043	3.155	0.428
106.001	126.504	79.999	19.995	100.762	20.040	3.379	0.419
108.000	127.330	79.998	19.995	100.845	20.043	3.210	0.425
110.000	128.216	80.001	19.995	100.815	20.044	3.108	0.442
112.000	129.130	79.999	19.995	100.809	20.040	3.410	0.465
114.000	129.978	80.000	19.994	100.810	20.040	3.397	0.444
116.000	130.817	79.998	19.995	100.810	20.046	3.007	0.448
118.000	131.763	79.998	19.995	100.810	20.042	3.271	0.477
120.000	132.652	80.000	19.996	100.808	20.047	2.946	0.453
122.000	133.570	80.000	19.995	100.804	20.045	3.029	0.456
124.000	134.526	80.000	19.995	100.790	20.046	2.998	0.477
126.000	135.376	80.000	19.995	100.802	20.047	2.916	0.451
128.000	136.332	80.000	19.994	100.797	20.044	3.121	0.445
130.000	137.262	80.001	19.996	100.798	20.043	3.170	0.475
132.000	138.189	79.998	19.995	100.801	20.043	3.193	0.465
134.000	139.150	79.999	19.994	100.800	20.044	3.138	0.453
136.000	140.089	79.999	19.994	100.794	20.045	3.043	0.483
138.000	141.045	80.000	19.995	100.791	20.044	3.122	0.454
140.000	141.992	79.999	19.996	100.801	20.045	3.023	0.464
142.000	142.930	80.000	19.995	100.794	20.051	2.627	0.456
144.000	143.912	80.000	19.996	100.782	20.049	2.763	0.452
146.001	144.900	80.001	19.996	100.784	20.050	2.725	0.477
148.000	145.873	80.001	19.996	100.780	20.051	2.627	0.489
150.000	146.785	80.001	19.995	100.783	20.045	3.021	0.479
152.000	147.775	80.000	19.995	100.771	20.051	2.640	0.499
154.000	148.772	79.999	19.995	100.778	20.051	2.658	0.482
156.000	149.788	80.001	19.996	100.780	20.051	2.616	0.506
158.000	150.714	80.000	19.994	100.783	20.051	2.627	0.476
160.000	151.738	80.001	19.994	100.782	20.049	2.791	0.518
162.000	152.699	80.001	19.996	100.770	20.055	2.353	0.477
164.000	153.659	79.999	19.994	100.770	20.053	2.500	0.448
166.000	154.607	80.000	19.995	100.767	20.053	2.537	0.470
168.000	155.553	80.000	19.995	100.770	20.054	2.441	0.476
170.000	156.526	80.000	19.995	100.768	20.054	2.412	0.478
172.000	157.447	80.000	19.995	100.766	20.052	2.591	0.462
174.000	158.395	80.001	19.995	100.763	20.057	2.224	0.490
176.000	159.371	80.002	19.996	100.765	20.054	2.441	0.486
178.000	160.331	80.000	19.994	100.765	20.055	2.399	0.513
180.000	161.249	80.001	19.996	100.767	20.054	2.446	0.479
182.000	162.167	79.999	19.995	100.766	20.053	2.506	0.433
184.000	163.072	79.998	19.997	100.763	20.056	2.279	0.448
186.000	164.007	79.999	19.995	100.759	20.057	2.244	0.443
188.000	165.008	80.000	19.995	100.752	20.052	2.589	0.487
190.000	165.963	80.000	19.993	100.762	20.051	2.636	0.458
192.000	166.881	79.999	19.995	100.762	20.055	2.383	0.460
194.000	167.848	79.999	19.996	100.767	20.054	2.448	0.461
196.000	168.794	80.000	19.996	100.759	20.053	2.492	0.447
198.000	169.756	80.000	19.994	100.750	20.056	2.333	0.497
200.000	170.688	80.002	19.995	100.753	20.056	2.327	0.495
202.000	171.599	80.000	19.994	100.754	20.053	2.482	0.431
204.000	172.551	79.999	19.994	100.751	20.053	2.522	0.472
206.000	173.473	80.000	19.995	100.768	20.051	2.652	0.446
208.000	174.436	80.000	19.996	100.769	20.052	2.594	0.469
210.000	175.398	80.000	19.996	100.763	20.052	2.548	0.512
212.000	176.289	80.001	19.995	100.764	20.051	2.649	0.431
214.000	177.264	79.999	19.994	100.753	20.049	2.786	0.459
216.000	178.172	79.999	19.994	100.760	20.050	2.715	0.455
218.000	179.143	79.998	19.995	100.758	20.052	2.596	0.472
220.000	180.063	80.001	19.995	100.767	20.053	2.488	0.463
222.000	181.027	79.999	19.994	100.769	20.050	2.677	0.505
224.000	181.985	80.000	19.995	100.771	20.050	2.710	0.477
226.000	182.942	80.001	19.993	100.770	20.051	2.629	0.506
228.000	183.887	80.002	19.995	100.769	20.051	2.641	0.482
230.000	184.876	80.000	19.994	100.764	20.052	2.555	0.507
232.000	185.857	79.999	19.995	100.760	20.054	2.434	0.510
234.000	186.848	80.001	19.995	100.765	20.049	2.780	0.463
236.000	187.838	80.000	19.994	100.769	20.049	2.791	0.488
238.000	188.769	80.000	19.995	100.767	20.047	2.892	0.497
240.000	189.750	79.999	19.995	100.767	20.046	2.952	0.465
242.000	190.743	80.000	19.995	100.764	20.044	3.139	0.498
244.000	191.724	80.001	19.995	100.769	20.047	2.881	0.478
246.001	192.739	79.999	19.995	100.769	20.044	3.089	0.517
248.000	193.637	80.002	19.995	100.766	20.050	2.710	0.446
250.000	194.609	80.001	19.995	100.762	20.050	2.704	0.463
252.000	195.620	80.002	19.995	100.758	20.054	2.475	0.505
254.000	196.537	80.001	19.995	100.754	20.054	2.428	0.463
256.000	197.518	80.001	19.994	100.742	20.051	2.652	0.479
258.000	198.524	80.004	19.995	100.756	20.047	2.897	0.519
260.000	199.473	80.001	19.996	100.764	20.050	2.677	0.493
262.000	200.501	80.001	19.994	100.745	20.050	2.693	0.463
264.000	201.456	80.000	19.995	100.745	20.048	2.821	0.478
266.000	202.474	80.000	19.996	100.745	20.050	2.713	0.468
268.000	203.484	79.999	19.996	100.741	20.046	2.971	0.446
270.000	204.454	79.998	19.995	100.737	20.045	3.043	0.461
272.000	205.414	79.998	19.997	100.739	20.045	3.026	0.495
274.000	206.340	80.000	19.995	100.737	20.051	2.645	0.466
276.000	207.350	79.999	19.997	100.742	20.052	2.545	0.504
278.000	208.333	79.999	19.996	100.734	20.051	2.666	0.486
280.000	209.318	80.000	19.994	100.735	20.050	2.693	0.477
282.000	210.261	79.999	19.995	100.743	20.047	2.905	0.485
284.000	211.226	79.999	19.994	100.758	20.052	2.567	0.478
286.000	212.252	80.000	19.994	100.758	20.050	2.702	0.522
288.000	213.188	79.999	19.995	100.751	20.051	2.641	0.455
290.000	214.259	80.001	19.995	100.753	20.049	2.744	0.542
292.000	215.215	80.000	19.994	100.751	20.048	2.860	0.465
294.000	216.227	80.000	19.995	100.754	20.046	2.965	0.483
296.000	217.197	79.998	19.995	100.750	20.046	2.956	0.472
298.000	218.218	80.000	19.994	100.748	20.045	3.028	0.505
300.000	219.161	79.999	19.995	100.748	20.042	3.217	0.479
302.000	220.231	79.999	19.994	100.752	20.044	3.110	0.537
304.000	221.202	79.998	19.994	100.762	20.042	3.278	0.502
306.000	222.240	80.000	19.995	100.767	20.045	3.049	0.494
308.000	223.260	80.001	19.994	100.763	20.040	3.390	0.500
310.000	224.279	80.001	19.993	100.761	20.038	3.526	0.511
312.000	225.310	80.001	19.994	100.757	20.039	3.437	0.529
314.000	226.265	80.001	19.994	100.751	20.036	3.616	0.480
316.000	227.262	80.002	19.994	100.754	20.038	3.544	0.489
318.000	228.303	80.000	19.995	100.755	20.036	3.662	0.518
320.000	229.367	80.002	19.994	100.759	20.032	3.917	0.507
322.000	230.396	80.003	19.995	100.764	20.038	3.505	0.518
324.000	231.373	80.001	19.995	100.748	20.036	3.663	0.507
326.000	232.424	79.999	19.995	100.757	20.037	3.566	0.521
328.000	233.416	80.002	19.995	100.755	20.035	3.684	0.504
330.000	234.483	80.001	19.995	100.742	20.031	3.998	0.542
332.000	235.484	80.003	19.995	100.741	20.029	4.113	0.486
334.000	236.478	80.002	19.995	100.736	20.030	4.075	0.488
336.000	237.580	80.002	19.994	100.748	20.030	4.037	0.588
338.000	238.547	80.003	19.995	100.733	20.024	4.442	0.486
340.000	239.576	80.002	19.995	100.732	20.026	4.343	0.501
342.000	240.553	80.002	19.994	100.728	20.023	4.504	0.508
344.000	241.530	80.002	19.995	100.727	20.021	4.675	0.498
346.000	242.538	79.999	19.994	100.728	20.020	4.688	0.523
348.000	243.493	80.000	19.994	100.740	20.016	4.990	0.486
350.000	244.514	80.000	19.995	100.742	20.013	5.201	0.483
352.000	245.496	79.998	19.995	100.737	20.010	5.366	0.516
354.000	246.538	79.999	19.996	100.742	20.010	5.377	0.503
356.000	247.502	79.999	19.997	100.745	20.006	5.626	0.479
358.000	248.463	79.999	19.995	100.763	20.008	5.548	0.514
360.000	249.469	79.999	19.996	100.751	20.003	5.877	0.502
362.000	250.465	79.999	19.996	100.745	19.999	6.147	0.493
364.000	251.433	79.999	19.996	100.743	20.000	6.073	0.470
366.000	252.417	80.000	19.996	100.736	19.999	6.131	0.485
368.000	253.414	79.998	19.994	100.737	19.993	6.564	0.489
370.000	254.350	79.999	19.995	100.735	19.994	6.478	0.470
372.000	255.379	79.999	19.995	100.740	19.990	6.745	0.520
374.000	256.346	79.999	19.994	100.766	19.989	6.819	0.481
376.000	257.324	79.999	19.995	100.759	19.981	7.306	0.458
378.000	258.343	79.999	19.996	100.765	19.975	7.747	0.524
380.000	259.329	79.999	19.996	100.764	19.971	8.011	0.491
382.000	260.293	79.998	19.996	100.763	19.971	7.989	0.483
384.000	261.311	79.998	19.995	100.760	19.967	8.292	0.491
386.000	262.326	79.999	19.995	100.753	19.964	8.453	0.502
388.000	263.305	80.000	19.996	100.768	19.963	8.536	0.471
390.000	264.265	80.001	19.995	100.768	19.958	8.859	0.504
392.000	265.237	80.000	19.995	100.768	19.955	9.089	0.475
394.000	266.258	80.002	19.995	100.766	19.948	9.526	0.491
396.000	267.263	80.002	19.995	100.767	19.948	9.576	0.507
398.000	268.230	80.001	19.995	100.765	19.938	10.201	0.497
400.000	269.263	80.002	19.995	100.767	19.935	10.414	0.507
402.000	270.319	80.000	19.994	100.767	19.927	10.963	0.552
404.000	271.341	80.001	19.994	100.768	19.924	11.155	0.492
406.000	272.325	80.000	19.995	100.769	19.918	11.561	0.477
408.000	273.269	80.001	19.994	100.769	19.913	11.902	0.448
410.000	274.300	80.001	19.994	100.769	19.906	12.359	0.484
412.000	275.276	80.001	19.994	100.769	19.903	12.554	0.471
414.000	276.220	80.001	19.995	100.771	19.899	12.853	0.485
416.000	277.141	80.001	19.994	100.771	19.889	13.517	0.444
418.000	278.147	80.002	19.994	100.777	19.886	13.737	0.511
420.000	279.131	80.002	19.994	100.790	19.877	14.293	0.498
422.000	280.120	80.002	19.995	100.781	19.869	14.847	0.510
424.000	281.051	80.000	19.995	100.796	19.863	15.245	0.470
426.000	281.999	80.000	19.995	100.787	19.854	15.828	0.455
428.000	283.025	79.999	19.994	100.791	19.849	16.173	0.515
430.000	284.042	79.999	19.996	100.797	19.846	16.419	0.522
432.000	284.975	79.998	19.995	100.802	19.836	17.032	0.482
434.000	285.979	79.999	19.995	100.803	19.830	17.468	0.486
436.000	286.960	79.999	19.995	100.806	19.826	17.767	0.482
438.000	287.939	80.000	19.995	100.806	19.815	18.451	0.506
440.000	288.926	79.999	19.995	100.809	19.807	19.004	0.494
442.000	289.905	79.999	19.996	100.809	19.802	19.346	0.490
444.000	290.907	79.999	19.996	100.809	19.793	19.922	0.509
446.000	291.872	80.000	19.996	100.812	19.785	20.493	0.528
448.000	292.851	80.000	19.995	100.821	19.778	20.988	0.483
450.000	293.859	79.998	19.996	100.813	19.769	21.581	0.502
452.000	294.844	80.000	19.996	100.818	19.761	22.098	0.476
454.000	295.819	79.999	19.997	100.832	19.754	22.582	0.493
456.000	296.806	79.998	19.996	100.817	19.748	22.998	0.510
458.000	297.791	79.998	19.996	100.821	19.736	23.808	0.507
460.001	298.758	79.999	19.995	100.826	19.727	24.368	0.463
462.000	299.726	80.000	19.997	100.838	19.720	24.828	0.500
464.000	300.754	79.999	19.995	100.841	19.711	25.485	0.542
466.001	301.722	79.999	19.995	100.845	19.701	26.144	0.484
468.000	302.740	80.000	19.994	100.859	19.691	26.828	0.513
470.000	303.747	80.000	19.995	100.857	19.683	27.338	0.517
472.000	304.754	80.001	19.995	100.863	19.673	28.042	0.511
474.000	305.804	80.002	19.995	100.871	19.663	28.709	0.525
476.000	306.862	80.001	19.995	100.861	19.651	29.468	0.532
478.000	307.904	80.002	19.995	100.856	19.641	30.127	0.543
480.000	308.885	80.001	19.995	100.866	19.636	30.478	0.506
482.000	309.916	80.000	19.995	100.879	19.626	31.139	0.503
484.000	310.983	79.999	19.995	100.884	19.614	31.996	0.525
486.000	312.030	80.000	19.993	100.886	19.604	32.620	0.547
488.000	312.999	79.999	19.995	100.874	19.593	33.404	0.498
490.000	314.053	80.000	19.996	100.881	19.583	34.045	0.526
492.000	315.029	79.999	19.994	100.885	19.572	34.806	0.505
494.000	316.081	80.001	19.995	100.886	19.559	35.652	0.507
496.000	317.105	80.001	19.994	100.886	19.550	36.256	0.523
498.000	318.146	80.003	19.996	100.887	19.542	36.824	0.508
500.000	319.106	80.002	19.994	100.889	19.532	37.506	0.518
502.000	320.064	80.001	19.993	100.887	19.519	38.340	0.485
504.000	321.124	80.002	19.995	100.900	19.512	38.813	0.515
506.000	322.084	80.001	19.995	100.858	19.499	39.689	0.470
508.000	323.048	80.001	19.995	100.938	19.491	40.220	0.473
510.000	324.034	79.998	19.994	100.911	19.482	40.869	0.508
512.001	325.016	79.999	19.995	100.901	19.472	41.522	0.471
514.000	326.041	80.000	19.995	100.920	19.456	42.578	0.516
516.000	326.983	79.999	19.995	100.920	19.449	43.062	0.459
518.000	328.024	80.000	19.996	100.925	19.432	44.245	0.497
520.000	329.022	80.001	19.997	100.924	19.423	44.848	0.506
522.000	330.016	79.999	19.995	100.925	19.410	45.723	0.495
524.000	331.045	79.999	19.996	100.940	19.400	46.392	0.510
526.000	332.018	79.999	19.995	100.948	19.380	47.729	0.482
528.000	333.048	80.000	19.994	100.962	19.367	48.575	0.502
530.000	334.080	80.001	19.995	100.963	19.352	49.632	0.517
532.000	335.109	80.000	19.995	100.964	19.340	50.400	0.505
534.000	336.121	80.001	19.995	100.963	19.327	51.289	0.497
536.001	337.170	80.000	19.996	100.970	19.311	52.408	0.529
538.000	338.200	80.001	19.996	100.979	19.294	53.532	0.515
540.000	339.171	79.999	19.997	100.999	19.277	54.634	0.526
542.000	340.195	79.998	19.996	101.002	19.257	55.979	0.541
544.000	341.233	79.998	19.997	101.003	19.241	57.110	0.510
546.000	342.266	79.998	19.995	101.006	19.218	58.635	0.519
548.000	343.267	79.998	19.996	101.016	19.205	59.523	0.502
550.000	344.302	79.999	19.997	101.014	19.181	61.153	0.509
552.000	345.361	80.000	19.995	101.016	19.166	62.108	0.555
554.000	346.372	80.000	19.995	101.022	19.149	63.255	0.521
556.000	347.367	80.002	19.995	101.026	19.130	64.586	0.490
558.000	348.327	80.000	19.994	101.021	19.109	65.990	0.492
560.000	349.361	80.001	19.993	101.041	19.087	67.432	0.502
562.000	350.428	80.000	19.995	101.034	19.074	68.301	0.547
564.001	351.390	80.000	19.995	101.037	19.058	69.418	0.463
566.000	352.383	79.999	19.994	101.044	19.045	70.242	0.492
568.000	353.391	80.001	19.994	101.040	19.026	71.529	0.522
570.000	354.348	80.001	19.995	101.039	19.016	72.204	0.492
572.000	355.331	79.999	19.994	101.040	19.008	72.721	0.479
574.000	356.356	80.001	19.995	101.047	19.002	73.140	0.498
576.000	357.324	80.001	19.994	101.044	18.995	73.608	0.493
578.000	358.374	80.001	19.995	101.041	18.988	74.037	0.508
580.000	359.332	80.002	19.995	101.034	18.988	74.056	0.487
582.000	360.370	80.003	19.994	101.015	18.990	73.903	0.491
584.000	361.383	80.002	19.993	101.001	19.005	72.878	0.538
586.000	362.388	80.002	19.995	100.982	19.016	72.124	0.499
588.000	363.384	80.001	19.994	100.971	19.025	71.538	0.502
590.000	364.351	80.000	19.994	100.961	19.042	70.355	0.475
592.000	365.362	80.000	19.995	100.947	19.068	68.591	0.504
594.000	366.412	80.000	19.996	100.928	19.094	66.858	0.508
596.000	367.271	79.999	19.993	100.922	19.121	65.010	0.484
598.000	368.428	80.001	19.993	100.911	19.157	62.607	0.433
600.000	369.538	80.001	19.994	100.884	19.191	60.330	0.377
602.000	370.130	79.998	19.995	100.873	19.232	57.555	0.251
604.000	371.608	79.999	19.995	100.847	19.277	54.515	0.457
606.000	372.424	79.999	19.995	100.829	19.321	51.556	0.616
608.000	373.539	79.998	19.995	100.809	19.369	48.351	0.473
610.000	374.587	80.000	19.995	100.798	19.420	44.896	0.539
612.000	375.679	80.000	19.995	100.791	19.468	41.691	0.603
614.000	376.621	79.999	19.994	100.762	19.520	38.227	0.479
616.000	377.726	79.999	19.995	100.748	19.565	35.202	0.553
618.000	378.789	79.999	19.996	100.731	19.614	31.922	0.520
620.001	379.818	80.001	19.996	100.720	19.659	28.912	0.519
622.000	380.885	79.998	19.996	100.710	19.701	26.086	0.531
624.000	381.946	79.998	19.995	100.700	19.743	23.301	0.533
626.000	382.984	79.999	19.994	100.699	19.781	20.714	0.529
628.000	384.063	80.000	19.995	100.692	19.815	18.435	0.541
630.000	385.059	79.997	19.996	100.691	19.843	16.559	0.517
632.000	386.126	80.000	19.997	100.683	19.869	14.837	0.525
634.000	387.103	79.999	19.995	100.675	19.890	13.452	0.504
636.000	388.098	80.000	19.996	100.674	19.909	12.128	0.480
638.000	389.147	80.000	19.995	100.673	19.922	11.267	0.491
640.000	390.144	80.001	19.995	100.666	19.939	10.137	0.530
642.000	391.141	80.000	19.996	100.674	19.945	9.720	0.492
644.000	392.131	79.999	19.995	100.668	19.952	9.272	0.505
646.000	393.099	80.001	19.995	100.666	19.961	8.688	0.483
648.000	394.166	80.001	19.995	100.669	19.967	8.259	0.490
650.000	395.098	80.001	19.995	100.686	19.972	7.930	0.489
652.000	396.035	79.999	19.994	100.688	19.966	8.323	0.467
654.000	397.094	80.000	19.994	100.689	19.975	7.721	0.497
656.000	398.047	80.001	19.995	100.681	19.976	7.693	0.500
658.000	399.032	80.001	19.996	100.685	19.976	7.689	0.494
660.000	400.056	80.002	19.995	100.681	19.978	7.535	0.495
662.000	401.040	80.003	19.995	100.685	19.977	7.631	0.507
664.000	402.001	80.003	19.996	100.680	19.980	7.369	0.467
666.000	402.981	80.002	19.995	100.669	19.979	7.467	0.458
668.000	404.002	80.003	19.994	100.678	19.980	7.410	0.524
670.000	404.927	80.001	19.995	100.685	19.981	7.314	0.487
672.000	405.904	80.000	19.995	100.689	19.982	7.240	0.496
674.000	406.905	80.000	19.996	100.695	19.984	7.106	0.479
676.000	407.893	79.999	19.994	100.696	19.983	7.195	0.491
678.000	408.947	79.999	19.996	100.693	19.984	7.150	0.504
680.000	409.957	79.998	19.995	100.691	19.986	6.986	0.490
682.000	410.959	80.000	19.995	100.691	19.990	6.760	0.491
684.000	412.064	79.999	19.993	100.690	19.984	7.141	0.524
686.000	413.121	79.999	19.995	100.690	19.987	6.948	0.513
688.000	414.137	79.998	19.996	100.690	19.986	6.998	0.504
690.000	415.143	79.999	19.994	100.692	19.983	7.182	0.503
692.000	416.225	79.999	19.994	100.693	19.984	7.124	0.493
694.000	417.271	80.000	19.994	100.692	19.984	7.135	0.543
696.000	418.361	79.999	19.995	100.694	19.986	6.982	0.527
698.000	419.370	79.999	19.995	100.692	19.990	6.724	0.513
700.000	420.475	80.000	19.996	100.691	19.987	6.958	0.546
702.000	421.480	79.999	19.995	100.690	19.985	7.072	0.512
704.000	422.548	79.999	19.997	100.689	19.985	7.095	0.509
706.000	423.622	79.999	19.996	100.689	19.986	7.009	0.564
708.000	424.693	79.999	19.996	100.689	19.986	7.007	0.567
710.000	425.803	79.999	19.996	100.690	19.989	6.823	0.557
712.000	426.908	79.999	19.995	100.689	19.988	6.832	0.562
714.000	427.992	79.999	19.995	100.690	19.995	6.401	0.551
716.000	429.073	80.000	19.994	100.689	19.994	6.437	0.555
718.000	430.171	80.000	19.995	100.687	19.995	6.408	0.564
720.000	431.290	80.001	19.995	100.688	19.990	6.723	0.588
722.000	432.356	80.000	19.997	100.687	19.996	6.327	0.525
724.000	433.494	80.001	19.995	100.686	19.998	6.208	0.555
726.000	434.609	80.000	19.996	100.685	19.997	6.235	0.559
728.000	435.713	80.000	19.995	100.684	19.997	6.269	0.556
730.000	436.816	80.001	19.996	100.683	19.998	6.166	0.557
732.000	437.854	80.000	19.995	100.684	20.000	6.074	0.520
734.000	438.919	79.999	19.995	100.686	20.000	6.085	0.533
736.000	440.040	79.999	19.996	100.687	20.002	5.907	0.577
738.000	441.102	80.000	19.994	100.683	20.003	5.881	0.504
740.000	442.193	80.002	19.995	100.679	20.004	5.770	0.559
742.000	443.200	80.001	19.995	100.677	20.006	5.666	0.495
744.000	444.283	80.003	19.995	100.683	20.008	5.547	0.530
746.000	445.321	80.003	19.995	100.673	20.010	5.405	0.523
748.000	446.372	80.002	19.994	100.675	20.010	5.390	0.537
750.000	447.388	80.002	19.994	100.674	20.012	5.254	0.517
752.000	448.457	80.001	19.994	100.668	20.009	5.482	0.549
754.000	449.466	80.001	19.994	100.672	20.009	5.461	0.513
756.000	450.441	79.999	19.994	100.686	20.010	5.399	0.473
758.000	451.525	79.999	19.994	100.680	20.014	5.109	0.523
760.001	452.524	80.000	19.995	100.670	20.013	5.174	0.544
762.000	453.542	79.998	19.995	100.669	20.018	4.850	0.516
764.000	454.507	79.999	19.995	100.679	20.016	5.008	0.531
766.000	455.504	80.000	19.994	100.680	20.015	5.044	0.485
768.000	456.475	80.000	19.995	100.658	20.019	4.779	0.489
770.000	457.508	79.999	19.996	100.655	20.023	4.498	0.508
772.000	458.485	80.001	19.995	100.666	20.021	4.644	0.501
774.000	459.465	79.999	19.994	100.659	20.023	4.484	0.487
776.000	460.468	80.000	19.995	100.650	20.021	4.637	0.467
778.000	461.431	80.000	19.995	100.655	20.023	4.522	0.447
780.000	462.407	79.999	19.996	100.663	20.022	4.565	0.499
782.000	463.395	80.000	19.994	100.669	20.024	4.431	0.479
784.000	464.394	79.999	19.995	100.668	20.025	4.350	0.479
786.000	465.380	80.000	19.995	100.661	20.026	4.343	0.484
788.000	466.373	80.001	19.995	100.672	20.026	4.347	0.505
790.000	467.386	79.999	19.996	100.659	20.026	4.282	0.504
792.001	468.409	79.999	19.996	100.666	20.026	4.343	0.528
794.000	469.392	80.000	19.996	100.661	20.028	4.207	0.536
796.000	470.434	79.999	19.995	100.668	20.025	4.409	0.503
798.000	471.410	79.999	19.996	100.670	20.029	4.136	0.503
800.000	472.435	80.001	19.997	100.667	20.031	4.004	0.489
802.000	473.547	80.001	19.995	100.670	20.034	3.755	0.553
804.000	474.567	80.000	19.996	100.674	20.032	3.899	0.501
806.000	475.635	80.001	19.996	100.681	20.033	3.871	0.524
808.000	476.636	80.000	19.996	100.679	20.033	3.844	0.530
810.000	477.724	80.001	19.996	100.673	20.030	4.027	0.531
812.000	478.752	80.000	19.995	100.663	20.031	3.995	0.524
814.000	479.860	80.000	19.995	100.665	20.030	4.071	0.531
816.000	480.929	80.000	19.996	100.665	20.030	4.074	0.532
818.000	481.962	80.000	19.995	100.676	20.029	4.103	0.505
820.000	483.004	80.000	19.995	100.662	20.034	3.789	0.534
822.000	484.028	79.999	19.995	100.659	20.033	3.815	0.502
824.000	485.082	80.001	19.996	100.665	20.031	3.957	0.520
826.000	486.112	80.001	19.997	100.672	20.031	3.950	0.500
828.000	487.144	80.001	19.997	100.661	20.034	3.767	0.557
830.000	488.174	80.003	19.995	100.660	20.030	4.058	0.531
832.000	489.229	80.002	19.997	100.664	20.032	3.879	0.510
834.000	490.264	80.001	19.995	100.659	20.033	3.818	0.514
836.000	491.297	80.002	19.997	100.658	20.034	3.766	0.491
838.000	492.329	80.001	19.997	100.653	20.035	3.734	0.517
840.000	493.392	80.000	19.994	100.661	20.032	3.907	0.529
842.000	494.425	80.001	19.995	100.655	20.036	3.667	0.541
844.000	495.440	80.000	19.995	100.652	20.033	3.835	0.495
846.000	496.484	80.000	19.994	100.660	20.035	3.742	0.497
848.000	497.494	80.000	19.995	100.666	20.039	3.474	0.491
850.000	498.520	79.999	19.997	100.666	20.035	3.708	0.477
852.000	499.532	80.001	19.996	100.662	20.031	3.955	0.491
854.000	500.569	80.002	19.995	100.667	20.031	3.973	0.505
856.000	501.565	80.002	19.996	100.663	20.034	3.789	0.502
858.000	502.589	80.000	19.996	100.662	20.036	3.614	0.500
860.000	503.556	79.999	19.997	100.665	20.035	3.690	0.521
862.000	504.603	80.000	19.995	100.665	20.038	3.481	0.505
864.000	505.630	80.000	19.996	100.661	20.041	3.283	0.511
866.000	506.618	80.000	19.994	100.667	20.042	3.239	0.499
868.000	507.635	80.000	19.994	100.661	20.040	3.389	0.514
870.000	508.629	79.999	19.995	100.669	20.040	3.411	0.517
872.000	509.625	80.000	19.995	100.664	20.036	3.665	0.502
874.000	510.634	79.999	19.994	100.674	20.038	3.508	0.484
876.000	511.677	79.999	19.995	100.660	20.034	3.803	0.512
878.000	512.697	80.001	19.995	100.668	20.039	3.412	0.512
880.001	513.697	80.000	19.995	100.665	20.039	3.432	0.499
882.000	514.705	80.001	19.996	100.673	20.039	3.434	0.491
884.000	515.680	80.000	19.995	100.669	20.041	3.285	0.491
886.000	516.708	80.001	19.996	100.658	20.045	3.014	0.521
888.000	517.734	80.002	19.995	100.659	20.041	3.326	0.540
890.000	518.697	80.002	19.995	100.672	20.041	3.307	0.467
892.000	519.743	80.000	19.995	100.662	20.040	3.371	0.514
894.000	520.800	80.000	19.995	100.664	20.040	3.351	0.552
896.000	521.750	80.001	19.996	100.668	20.042	3.212	0.498
898.000	522.834	80.001	19.995	100.657	20.043	3.196	0.532
900.000	523.851	80.000	19.995	100.654	20.045	3.071	0.482
902.000	524.847	80.002	19.994	100.654	20.043	3.160	0.527
904.000	525.863	80.001	19.995	100.652	20.046	2.998	0.524
906.000	526.861	80.002	19.995	100.654	20.042	3.230	0.505
908.000	527.883	80.003	19.996	100.660	20.042	3.253	0.502
910.000	528.892	80.001	19.995	100.653	20.038	3.535	0.501
912.000	529.905	80.002	19.996	100.652	20.040	3.398	0.527
914.000	530.881	80.002	19.995	100.660	20.041	3.306	0.508
916.000	531.912	80.002	19.996	100.660	20.036	3.641	0.504
918.000	532.910	80.002	19.996	100.659	20.040	3.371	0.526
920.000	533.912	80.000	19.998	100.662	20.041	3.302	0.514
922.000	534.920	79.999	19.995	100.655	20.037	3.564	0.500
924.000	535.905	80.001	19.998	100.666	20.040	3.392	0.493
926.000	536.901	79.998	19.994	100.659	20.037	3.580	0.532
928.000	537.890	80.000	19.994	100.653	20.044	3.142	0.491
930.000	538.837	79.998	19.995	100.658	20.042	3.264	0.499
932.000	539.859	80.001	19.995	100.658	20.042	3.219	0.513
934.000	540.806	80.001	19.994	100.656	20.045	3.052	0.490
936.000	541.776	80.000	19.995	100.660	20.040	3.346	0.489
938.000	542.777	80.000	19.995	100.657	20.044	3.135	0.483
940.000	543.740	79.999	19.994	100.659	20.047	2.916	0.498
942.000	544.727	80.001	19.995	100.654	20.045	3.024	0.500
944.000	545.692	79.999	19.995	100.656	20.046	2.974	0.470
946.000	546.655	80.000	19.994	100.661	20.045	3.032	0.480
948.000	547.681	80.000	19.994	100.669	20.044	3.086	0.531
950.000	548.625	80.000	19.994	100.657	20.040	3.351	0.477
952.000	549.634	80.000	19.995	100.656	20.044	3.117	0.516
954.000	550.633	79.999	19.997	100.661	20.040	3.356	0.475
956.000	551.610	80.000	19.994	100.659	20.041	3.301	0.480
958.000	552.630	80.000	19.995	100.661	20.042	3.220	0.497
960.000	553.633	80.000	19.994	100.661	20.039	3.421	0.514
962.000	554.686	80.000	19.996	100.656	20.038	3.499	0.525
964.000	555.704	80.002	19.995	100.666	20.040	3.356	0.516
966.000	556.688	80.003	19.995	100.665	20.037	3.587	0.497
968.000	557.676	80.003	19.995	100.669	20.035	3.720	0.517
970.000	558.730	80.002	19.994	100.665	20.037	3.585	0.516
972.000	559.762	80.001	19.995	100.657	20.039	3.419	0.523
974.000	560.794	80.001	19.996	100.658	20.039	3.463	0.517
976.000	561.813	79.999	19.994	100.652	20.040	3.403	0.529
978.000	562.840	80.002	19.996	100.659	20.039	3.461	0.498
980.000	563.806	80.001	19.996	100.651	20.039	3.414	0.476
982.000	564.796	80.001	19.996	100.654	20.041	3.338	0.505
984.000	565.832	80.002	19.996	100.655	20.040	3.401	0.537
986.000	566.861	80.000	19.995	100.652	20.035	3.684	0.532
988.000	567.858	80.003	19.995	100.660	20.033	3.869	0.517
990.000	568.898	80.003	19.995	100.656	20.031	3.986	0.516
992.000	569.859	80.003	19.995	100.658	20.035	3.721	0.496
994.000	570.849	80.002	19.995	100.652	20.040	3.387	0.525
996.000	571.874	80.001	19.995	100.653	20.036	3.639	0.482
998.000	572.867	80.002	19.995	100.664	20.035	3.735	0.517
1000.000	573.898	79.999	19.995	100.660	20.035	3.712	0.490
1002.000	574.922	79.999	19.995	100.655	20.034	3.766	0.547
1004.000	575.911	79.999	19.996	100.661	20.030	4.056	0.494
1006.000	576.929	79.999	19.996	100.655	20.034	3.803	0.501
1008.000	577.973	79.998	19.995	100.656	20.034	3.785	0.527
1010.000	578.980	79.999	19.997	100.669	20.031	3.991	0.493
1012.000	579.978	79.999	19.998	100.664	20.036	3.647	0.508
1014.000	580.981	79.998	19.996	100.662	20.037	3.546	0.521
1016.000	581.960	80.000	19.994	100.654	20.034	3.780	0.471
1018.000	582.962	80.000	19.995	100.655	20.038	3.542	0.477
1020.000	583.965	80.000	19.996	100.658	20.033	3.847	0.522
1022.000	585.026	80.000	19.994	100.658	20.032	3.919	0.548
1024.000	586.001	80.000	19.995	100.661	20.034	3.764	0.478
1026.001	587.024	80.001	19.995	100.658	20.038	3.542	0.522
1028.000	587.993	80.000	19.995	100.652	20.039	3.472	0.468
1030.000	588.995	80.000	19.995	100.661	20.039	3.456	0.474
1032.000	590.001	80.000	19.997	100.649	20.033	3.820	0.509
1034.000	591.005	79.999	19.997	100.654	20.036	3.656	0.506
1036.000	591.979	79.999	19.993	100.655	20.035	3.733	0.482
1038.000	593.017	80.000	19.996	100.653	20.036	3.665	0.479
1040.000	594.070	80.001	19.997	100.666	20.030	4.018	0.520
1042.000	595.091	80.000	19.996	100.659	20.034	3.770	0.557
1044.001	596.112	80.001	19.995	100.668	20.033	3.824	0.500
1046.000	597.103	80.002	19.996	100.664	20.033	3.845	0.486
1048.000	598.181	80.001	19.994	100.661	20.034	3.781	0.517
1050.000	599.222	80.003	19.994	100.669	20.030	4.015	0.530
1052.000	600.297	80.003	19.994	100.661	20.032	3.903	0.527
1054.000	601.347	80.001	19.994	100.670	20.033	3.842	0.517
1056.000	602.462	80.002	19.994	100.665	20.036	3.677	0.540
1058.000	603.524	80.001	19.994	100.660	20.035	3.698	0.529
1060.000	604.623	80.000	19.994	100.668	20.036	3.658	0.532
1062.000	605.707	80.002	19.994	100.669	20.034	3.750	0.534
1064.000	606.783	80.001	19.995	100.666	20.036	3.620	0.539
1066.000	607.886	80.001	19.994	100.681	20.034	3.759	0.529
1068.000	609.012	79.999	19.996	100.676	20.034	3.791	0.594
1070.000	610.099	80.002	19.995	100.673	20.034	3.777	0.549
1072.001	611.235	80.002	19.996	100.668	20.034	3.791	0.562
1074.000	612.275	80.003	19.995	100.671	20.036	3.620	0.542
1076.001	613.395	80.002	19.996	100.669	20.035	3.740	0.555
1078.000	614.519	80.003	19.995	100.657	20.039	3.420	0.556
1080.000	615.607	80.001	19.996	100.656	20.035	3.688	0.535
1082.000	616.731	80.002	19.993	100.669	20.034	3.809	0.556
1084.000	617.772	80.000	19.995	100.665	20.033	3.823	0.548
1086.000	618.930	79.999	19.995	100.653	20.034	3.777	0.572
1088.000	619.973	80.002	19.994	100.667	20.034	3.809	0.537
1090.000	621.074	79.999	19.995	100.657	20.034	3.811	0.549
1092.000	622.196	80.000	19.996	100.666	20.035	3.715	0.565
1094.000	623.231	80.000	19.995	100.660	20.034	3.764	0.506
1096.000	624.334	80.000	19.996	100.662	20.033	3.862	0.502
1098.000	625.398	80.000	19.996	100.663	20.032	3.910	0.557
1100.000	626.443	79.999	19.997	100.661	20.033	3.856	0.520
1102.000	627.536	79.999	19.997	100.665	20.033	3.822	0.563
1104.000	628.631	79.999	19.997	100.663	20.030	4.036	0.557
1106.000	629.665	80.000	19.995	100.661	20.032	3.940	0.532
1108.000	630.762	80.001	19.996	100.660	20.033	3.856	0.541
1110.000	631.807	80.001	19.995	100.673	20.032	3.931	0.494
1112.001	632.879	80.000	19.995	100.659	20.034	3.751	0.535
1114.001	633.949	80.000	19.995	100.653	20.036	3.650	0.560
1116.000	635.024	79.999	19.994	100.651	20.035	3.701	0.528
1118.000	636.061	80.000	19.995	100.650	20.030	4.060	0.483
1120.000	637.133	80.000	19.994	100.650	20.030	4.018	0.535
1122.000	638.179	80.000	19.995	100.651	20.033	3.856	0.532
1124.000	639.259	80.000	19.995	100.655	20.029	4.099	0.535
1126.000	640.329	80.000	19.994	100.663	20.026	4.319	0.519
1128.000	641.303	80.001	19.995	100.662	20.028	4.162	0.512
1130.000	642.389	80.001	19.995	100.653	20.026	4.299	0.521
1132.000	643.350	80.002	19.994	100.659	20.024	4.445	0.480
1134.001	644.412	80.001	19.995	100.657	20.026	4.299	0.526
1136.001	645.453	80.001	19.995	100.657	20.024	4.438	0.523
1138.001	646.477	80.001	19.994	100.654	20.026	4.334	0.522
1140.000	647.441	80.000	19.995	100.653	20.027	4.218	0.492
1142.001	648.497	80.001	19.995	100.654	20.027	4.238	0.554
1144.000	649.483	79.999	19.994	100.653	20.028	4.211	0.510
1146.000	650.514	80.001	19.994	100.654	20.029	4.132	0.516
1148.000	651.553	80.001	19.994	100.655	20.025	4.401	0.511
1150.000	652.566	80.001	19.994	100.658	20.025	4.388	0.493
1152.000	653.595	80.001	19.995	100.655	20.029	4.090	0.498
1154.000	654.625	80.002	19.994	100.655	20.027	4.270	0.513
1156.000	655.658	80.004	19.993	100.650	20.027	4.227	0.474
1158.000	656.671	80.003	19.993	100.655	20.028	4.164	0.504
1160.000	657.691	80.003	19.995	100.656	20.029	4.112	0.510
1162.000	658.681	80.003	19.995	100.657	20.025	4.370	0.510
1164.000	659.680	80.001	19.995	100.654	20.027	4.262	0.481
1166.000	660.751	80.001	19.995	100.650	20.027	4.260	0.537
1168.000	661.731	80.002	19.996	100.650	20.030	4.054	0.517
1170.001	662.705	80.000	19.996	100.649	20.029	4.110	0.504
1172.000	663.703	80.002	19.995	100.649	20.025	4.389	0.509
1174.000	664.748	80.000	19.995	100.656	20.027	4.276	0.503
1176.000	665.715	79.999	19.994	100.653	20.027	4.249	0.496
1178.000	666.718	80.000	19.996	100.649	20.031	3.989	0.463
1180.001	667.697	80.001	19.995	100.650	20.027	4.251	0.482
1182.000	668.747	80.002	19.995	100.650	20.027	4.244	0.500
1184.000	669.769	80.001	19.995	100.651	20.027	4.267	0.526
1186.000	670.707	80.003	19.995	100.653	20.025	4.375	0.487
1188.000	671.764	80.001	19.996	100.654	20.024	4.447	0.527
1190.000	672.744	80.001	19.994	100.651	20.027	4.229	0.497
1192.000	673.786	80.001	19.996	100.656	20.024	4.442	0.515
1194.000	674.785	79.999	19.996	100.663	20.026	4.344	0.503
1196.000	675.761	79.999	19.995	100.661	20.025	4.391	0.493
1198.000	676.792	79.999	19.996	100.651	20.024	4.451	0.534
1200.000	677.753	79.998	19.997	100.649	20.027	4.263	0.464
1202.000	678.801	79.997	19.996	100.650	20.029	4.108	0.485
1204.000	679.840	79.999	19.996	100.650	20.030	4.056	0.510
1206.001	680.825	79.999	19.994	100.652	20.027	4.249	0.510
1208.000	681.854	80.000	19.995	100.655	20.029	4.088	0.474
1210.000	682.817	79.999	19.995	100.653	20.024	4.467	0.450
1212.000	683.886	80.001	19.994	100.654	20.023	4.485	0.498
1214.000	684.920	80.002	19.994	100.653	20.028	4.193	0.537
1216.000	685.953	80.002	19.995	100.652	20.028	4.213	0.520
1218.000	686.965	80.002	19.997	100.652	20.027	4.263	0.534
1220.000	687.967	80.002	19.993	100.651	20.024	4.422	0.496
1222.000	688.988	80.002	19.994	100.650	20.025	4.348	0.503
1224.000	689.970	80.002	19.995	100.648	20.024	4.476	0.502
1226.000	691.035	80.002	19.995	100.645	20.022	4.557	0.496
1228.000	691.996	80.001	19.993	100.648	20.019	4.755	0.507
1230.000	693.045	80.001	19.995	100.646	20.020	4.732	0.519
1232.000	694.078	80.001	19.995	100.648	20.019	4.802	0.481
1234.000	695.096	80.002	19.995	100.653	20.024	4.470	0.532
1236.000	696.130	80.003	19.995	100.650	20.022	4.555	0.514
1238.001	697.097	80.004	19.994	100.647	20.027	4.270	0.490
1240.000	698.116	80.004	19.995	100.648	20.026	4.308	0.492
1242.000	699.068	80.004	19.994	100.648	20.029	4.128	0.454
1244.000	700.051	80.004	19.994	100.647	20.026	4.335	0.487
1246.001	701.042	80.003	19.994	100.647	20.025	4.350	0.462
1248.000	702.085	80.002	19.995	100.648	20.026	4.283	0.505
1250.000	703.108	80.002	19.994	100.650	20.021	4.622	0.501
1252.000	704.155	80.002	19.995	100.649	20.022	4.609	0.509
1254.000	705.166	80.001	19.994	100.650	20.025	4.404	0.499
1256.000	706.178	80.001	19.995	100.649	20.023	4.523	0.482
1258.000	707.150	80.001	19.995	100.650	20.024	4.451	0.500
1260.000	708.147	80.001	19.995	100.653	20.021	4.638	0.494
1262.000	709.126	80.001	19.995	100.653	20.024	4.462	0.472
1264.000	710.100	80.000	19.995	100.652	20.022	4.595	0.474
1266.000	711.117	80.001	19.996	100.651	20.025	4.364	0.501
1268.000	712.080	80.001	19.995	100.652	20.021	4.635	0.495
1270.000	713.104	79.999	19.994	100.644	20.021	4.666	0.506
1272.001	714.084	80.001	19.994	100.648	20.024	4.444	0.519
1274.001	715.062	80.001	19.994	100.650	20.022	4.582	0.505
1276.000	716.080	80.001	19.995	100.654	20.024	4.471	0.503
1278.000	717.099	80.000	19.995	100.652	20.020	4.692	0.524
1280.000	718.080	80.001	19.995	100.659	20.020	4.716	0.493
1282.000	719.071	80.001	19.995	100.659	20.020	4.737	0.512
1284.000	720.073	80.001	19.996	100.650	20.022	4.570	0.520
1286.000	721.077	79.998	19.996	100.649	20.020	4.728	0.492
1288.000	722.109	79.999	19.997	100.649	20.027	4.225	0.496
1290.001	723.108	80.002	19.997	100.648	20.022	4.568	0.528
1292.001	724.116	80.001	19.997	100.647	20.022	4.566	0.518
1294.000	725.101	80.001	19.997	100.648	20.020	4.732	0.516
1296.000	726.122	80.003	19.995	100.646	20.023	4.501	0.518
1298.000	727.108	80.003	19.996	100.645	20.023	4.487	0.498
1300.000	728.132	80.003	19.995	100.646	20.016	5.011	0.496
1302.000	729.181	80.002	19.994	100.646	20.016	4.973	0.536
1304.000	730.174	80.003	19.995	100.647	20.018	4.816	0.505
1306.001	731.138	80.002	19.994	100.648	20.019	4.755	0.485
1308.000	732.186	80.002	19.994	100.645	20.019	4.755	0.504
1310.000	733.138	80.003	19.996	100.646	20.018	4.844	0.501
1312.001	734.128	80.002	19.994	100.646	20.021	4.647	0.467
1314.000	735.048	80.001	19.994	100.634	20.021	4.631	0.466
1316.000	735.977	80.003	19.995	100.644	20.019	4.808	0.500
1318.000	736.912	80.004	19.995	100.628	20.018	4.827	0.473
1320.000	737.852	80.001	19.993	100.644	20.015	5.027	0.474
1322.001	738.783	80.004	19.993	100.646	20.015	5.058	0.471
1324.000	739.684	80.003	19.994	100.649	20.015	5.022	0.456
1326.001	740.572	80.003	19.993	100.649	20.017	4.943	0.439
1328.000	741.517	80.002	19.994	100.643	20.018	4.819	0.432
1330.000	742.395	80.002	19.994	100.638	20.010	5.378	0.455
1332.000	743.299	80.002	19.994	100.647	20.020	4.737	0.465
1334.000	744.186	80.002	19.994	100.648	20.013	5.204	0.438