File: 01_Data/Engineered_Wood_Furniture/FTIR/IS/Engineered_Wood_Furniture_IS_S_221005_R5.dpt
7497.03,0.17439
7491.25,0.16972
7485.46,0.17728
7479.67,0.16957
7473.89,0.17148
7468.1,0.17382
7462.32,0.17747
7456.53,0.17754
7450.74,0.17100
7444.96,0.18054
7439.17,0.17501
7433.38,0.16589
7427.6,0.17376
7421.81,0.17759
7416.03,0.16966
7410.24,0.17311
7404.45,0.18085
7398.67,0.17475
7392.88,0.16713
7387.09,0.16971
7381.31,0.17409
7375.52,0.17489
7369.74,0.17670
7363.95,0.17874
7358.16,0.17351
7352.38,0.17656
7346.59,0.16785
7340.8,0.16964
7335.02,0.17409
7329.23,0.17831
7323.45,0.17245
7317.66,0.17315
7311.87,0.16492
7306.09,0.16606
7300.3,0.17662
7294.51,0.16704
7288.73,0.17407
7282.94,0.17449
7277.16,0.17990
7271.37,0.17689
7265.58,0.17276
7259.8,0.17062
7254.01,0.16876
7248.22,0.17896
7242.44,0.16638
7236.65,0.17447
7230.87,0.17139
7225.08,0.17344
7219.29,0.16937
7213.51,0.17708
7207.72,0.17449
7201.93,0.16798
7196.15,0.17272
7190.36,0.16974
7184.58,0.17325
7178.79,0.17228
7173,0.16933
7167.22,0.16399
7161.43,0.17190
7155.65,0.17500
7149.86,0.17093
7144.07,0.17402
7138.29,0.17575
7132.5,0.16804
7126.71,0.17025
7120.93,0.17060
7115.14,0.16442
7109.36,0.16493
7103.57,0.16557
7097.78,0.16271
7092,0.16616
7086.21,0.16964
7080.42,0.16417
7074.64,0.17216
7068.85,0.17144
7063.07,0.16638
7057.28,0.16297
7051.49,0.16123
7045.71,0.16224
7039.92,0.16103
7034.13,0.16652
7028.35,0.16065
7022.56,0.16107
7016.78,0.16654
7010.99,0.16055
7005.2,0.16522
6999.42,0.15928
6993.63,0.16063
6987.84,0.16364
6982.06,0.15848
6976.27,0.15685
6970.49,0.16026
6964.7,0.15542
6958.91,0.16212
6953.13,0.16344
6947.34,0.16403
6941.55,0.15170
6935.77,0.15614
6929.98,0.15691
6924.2,0.15817
6918.41,0.16160
6912.62,0.16189
6906.84,0.16193
6901.05,0.15641
6895.26,0.15393
6889.48,0.15710
6883.69,0.15279
6877.91,0.15736
6872.12,0.15797
6866.33,0.14890
6860.55,0.15719
6854.76,0.15916
6848.97,0.15592
6843.19,0.15513
6837.4,0.15869
6831.62,0.15659
6825.83,0.15804
6820.04,0.15724
6814.26,0.16000
6808.47,0.15515
6802.68,0.15974
6796.9,0.15575
6791.11,0.15395
6785.33,0.15107
6779.54,0.16017
6773.75,0.15517
6767.97,0.15892
6762.18,0.15995
6756.39,0.15933
6750.61,0.15583
6744.82,0.15734
6739.04,0.15859
6733.25,0.16070
6727.46,0.15402
6721.68,0.15355
6715.89,0.15363
6710.1,0.15956
6704.32,0.16131
6698.53,0.15444
6692.75,0.16065
6686.96,0.15829
6681.17,0.15847
6675.39,0.15693
6669.6,0.15734
6663.82,0.15542
6658.03,0.15795
6652.24,0.15689
6646.46,0.15725
6640.67,0.15561
6634.88,0.15859
6629.1,0.16145
6623.31,0.15702
6617.53,0.16264
6611.74,0.16140
6605.95,0.16063
6600.17,0.15602
6594.38,0.15836
6588.59,0.15949
6582.81,0.16006
6577.02,0.16183
6571.24,0.16544
6565.45,0.15975
6559.66,0.15796
6553.88,0.16568
6548.09,0.16313
6542.3,0.16384
6536.52,0.16197
6530.73,0.16304
6524.95,0.16273
6519.16,0.16268
6513.37,0.15915
6507.59,0.16327
6501.8,0.16080
6496.01,0.16489
6490.23,0.16299
6484.44,0.16359
6478.66,0.16018
6472.87,0.16758
6467.08,0.16511
6461.3,0.16253
6455.51,0.16283
6449.72,0.16707
6443.94,0.16472
6438.15,0.16861
6432.37,0.16652
6426.58,0.16613
6420.79,0.16609
6415.01,0.16570
6409.22,0.16840
6403.43,0.16621
6397.65,0.16761
6391.86,0.16316
6386.08,0.16429
6380.29,0.16879
6374.5,0.16931
6368.72,0.16536
6362.93,0.16419
6357.14,0.16272
6351.36,0.16731
6345.57,0.17056
6339.79,0.16951
6334,0.16709
6328.21,0.16632
6322.43,0.16754
6316.64,0.16497
6310.85,0.16546
6305.07,0.17125
6299.28,0.16929
6293.5,0.16775
6287.71,0.16859
6281.92,0.16910
6276.14,0.16659
6270.35,0.16801
6264.56,0.17029
6258.78,0.17102
6252.99,0.17251
6247.21,0.16983
6241.42,0.16570
6235.63,0.16786
6229.85,0.16883
6224.06,0.17204
6218.27,0.17394
6212.49,0.17269
6206.7,0.17396
6200.92,0.17532
6195.13,0.17225
6189.34,0.17424
6183.56,0.17381
6177.77,0.17512
6171.98,0.17587
6166.2,0.17643
6160.41,0.17700
6154.63,0.17382
6148.84,0.17706
6143.05,0.17632
6137.27,0.17449
6131.48,0.17724
6125.7,0.17405
6119.91,0.17613
6114.12,0.17575
6108.34,0.18146
6102.55,0.17729
6096.76,0.17880
6090.98,0.17501
6085.19,0.17643
6079.41,0.17684
6073.62,0.17731
6067.83,0.17654
6062.05,0.17453
6056.26,0.17532
6050.47,0.17606
6044.69,0.17372
6038.9,0.17358
6033.12,0.17364
6027.33,0.17506
6021.54,0.17589
6015.76,0.17502
6009.97,0.17356
6004.18,0.17368
5998.4,0.17516
5992.61,0.17330
5986.83,0.17202
5981.04,0.17270
5975.25,0.17377
5969.47,0.17486
5963.68,0.17447
5957.89,0.17204
5952.11,0.17349
5946.32,0.17385
5940.54,0.17302
5934.75,0.17266
5928.96,0.17243
5923.18,0.17310
5917.39,0.17279
5911.6,0.17221
5905.82,0.17131
5900.03,0.17400
5894.25,0.17304
5888.46,0.17046
5882.67,0.17296
5876.89,0.17329
5871.1,0.17198
5865.31,0.17063
5859.53,0.17246
5853.74,0.16986
5847.96,0.17122
5842.17,0.16932
5836.38,0.17094
5830.6,0.17072
5824.81,0.17147
5819.02,0.16999
5813.24,0.16934
5807.45,0.16941
5801.67,0.17121
5795.88,0.16839
5790.09,0.17005
5784.31,0.16987
5778.52,0.17114
5772.73,0.17344
5766.95,0.17339
5761.16,0.17291
5755.38,0.17398
5749.59,0.17158
5743.8,0.17387
5738.02,0.17346
5732.23,0.17372
5726.44,0.17660
5720.66,0.17435
5714.87,0.17550
5709.09,0.17602
5703.3,0.17462
5697.51,0.17486
5691.73,0.17541
5685.94,0.17368
5680.15,0.17394
5674.37,0.17594
5668.58,0.17494
5662.8,0.17526
5657.01,0.17488
5651.22,0.17612
5645.44,0.17476
5639.65,0.17641
5633.87,0.17500
5628.08,0.17340
5622.29,0.17546
5616.51,0.17628
5610.72,0.17738
5604.93,0.17781
5599.15,0.17504
5593.36,0.17677
5587.58,0.17496
5581.79,0.17420
5576,0.17827
5570.22,0.17939
5564.43,0.17794
5558.64,0.17976
5552.86,0.17952
5547.07,0.17807
5541.29,0.17821
5535.5,0.17897
5529.71,0.17864
5523.93,0.17810
5518.14,0.17950
5512.35,0.17865
5506.57,0.17860
5500.78,0.18071
5495,0.18053
5489.21,0.18086
5483.42,0.18021
5477.64,0.17967
5471.85,0.18098
5466.06,0.17907
5460.28,0.18069
5454.49,0.18069
5448.71,0.18208
5442.92,0.18273
5437.13,0.18292
5431.35,0.18101
5425.56,0.18186
5419.77,0.18435
5413.99,0.18475
5408.2,0.18404
5402.42,0.18326
5396.63,0.18426
5390.84,0.18378
5385.06,0.18493
5379.27,0.18484
5373.48,0.18478
5367.7,0.18402
5361.91,0.18342
5356.13,0.18462
5350.34,0.18295
5344.55,0.18324
5338.77,0.18386
5332.98,0.18419
5327.19,0.18251
5321.41,0.18000
5315.62,0.17920
5309.84,0.17832
5304.05,0.17961
5298.26,0.17681
5292.48,0.17466
5286.69,0.17351
5280.9,0.17052
5275.12,0.16871
5269.33,0.16683
5263.55,0.16320
5257.76,0.16063
5251.97,0.15980
5246.19,0.15723
5240.4,0.15507
5234.61,0.15312
5228.83,0.15295
5223.04,0.15100
5217.26,0.14917
5211.47,0.14885
5205.68,0.14884
5199.9,0.14823
5194.11,0.14748
5188.32,0.14713
5182.54,0.14658
5176.75,0.14630
5170.97,0.14757
5165.18,0.14836
5159.39,0.14849
5153.61,0.14734
5147.82,0.14842
5142.03,0.14960
5136.25,0.15150
5130.46,0.15073
5124.68,0.15122
5118.89,0.15216
5113.1,0.15267
5107.32,0.15308
5101.53,0.15424
5095.75,0.15399
5089.96,0.15587
5084.17,0.15563
5078.39,0.15578
5072.6,0.15732
5066.81,0.15680
5061.03,0.15637
5055.24,0.15704
5049.46,0.15741
5043.67,0.16009
5037.88,0.15975
5032.1,0.16042
5026.31,0.16132
5020.52,0.16106
5014.74,0.16157
5008.95,0.16259
5003.17,0.16214
4997.38,0.16185
4991.59,0.16307
4985.81,0.16248
4980.02,0.16148
4974.23,0.16202
4968.45,0.16175
4962.66,0.16174
4956.88,0.16034
4951.09,0.15967
4945.3,0.15951
4939.52,0.15952
4933.73,0.15805
4927.94,0.15704
4922.16,0.15581
4916.37,0.15480
4910.59,0.15363
4904.8,0.15344
4899.01,0.15211
4893.23,0.15211
4887.44,0.15217
4881.65,0.15029
4875.87,0.14971
4870.08,0.15003
4864.3,0.14974
4858.51,0.14939
4852.72,0.14906
4846.94,0.15002
4841.15,0.14991
4835.36,0.14886
4829.58,0.14857
4823.79,0.14826
4818.01,0.14746
4812.22,0.14854
4806.43,0.14746
4800.65,0.14876
4794.86,0.14713
4789.07,0.14759
4783.29,0.14751
4777.5,0.14805
4771.72,0.14829
4765.93,0.14807
4760.14,0.14790
4754.36,0.14734
4748.57,0.14675
4742.78,0.14874
4737,0.14788
4731.21,0.14702
4725.43,0.14707
4719.64,0.14829
4713.85,0.14739
4708.07,0.14775
4702.28,0.14742
4696.49,0.14701
4690.71,0.14735
4684.92,0.14708
4679.14,0.14766
4673.35,0.14712
4667.56,0.14712
4661.78,0.14719
4655.99,0.14844
4650.2,0.14948
4644.42,0.14939
4638.63,0.14925
4632.85,0.14981
4627.06,0.15094
4621.27,0.15109
4615.49,0.15123
4609.7,0.15219
4603.92,0.15227
4598.13,0.15328
4592.34,0.15370
4586.56,0.15395
4580.77,0.15391
4574.98,0.15306
4569.2,0.15404
4563.41,0.15434
4557.63,0.15474
4551.84,0.15418
4546.05,0.15459
4540.27,0.15577
4534.48,0.15599
4528.69,0.15622
4522.91,0.15493
4517.12,0.15571
4511.34,0.15538
4505.55,0.15563
4499.76,0.15535
4493.98,0.15437
4488.19,0.15353
4482.4,0.15255
4476.62,0.15075
4470.83,0.14883
4465.05,0.14709
4459.26,0.14433
4453.47,0.14241
4447.69,0.14071
4441.9,0.13798
4436.11,0.13667
4430.33,0.13543
4424.54,0.13442
4418.76,0.13405
4412.97,0.13411
4407.18,0.13372
4401.4,0.13434
4395.61,0.13426
4389.82,0.13403
4384.04,0.13403
4378.25,0.13406
4372.47,0.13332
4366.68,0.13348
4360.89,0.13339
4355.11,0.13311
4349.32,0.13234
4343.53,0.13016
4337.75,0.12951
4331.96,0.13005
4326.18,0.12985
4320.39,0.12906
4314.6,0.13010
4308.82,0.13115
4303.03,0.13130
4297.24,0.13085
4291.46,0.13147
4285.67,0.13167
4279.89,0.13048
4274.1,0.13006
4268.31,0.12939
4262.53,0.12884
4256.74,0.12847
4250.95,0.12972
4245.17,0.13024
4239.38,0.13189
4233.6,0.13185
4227.81,0.13287
4222.02,0.13275
4216.24,0.13338
4210.45,0.13396
4204.66,0.13363
4198.88,0.13378
4193.09,0.13330
4187.31,0.13422
4181.52,0.13451
4175.73,0.13441
4169.95,0.13404
4164.16,0.13466
4158.37,0.13352
4152.59,0.13287
4146.8,0.13276
4141.02,0.13247
4135.23,0.13177
4129.44,0.13125
4123.66,0.13048
4117.87,0.12999
4112.09,0.12951
4106.3,0.12880
4100.51,0.12825
4094.73,0.12650
4088.94,0.12632
4083.15,0.12539
4077.37,0.12427
4071.58,0.12348
4065.8,0.12207
4060.01,0.12090
4054.22,0.11971
4048.44,0.11913
4042.65,0.11819
4036.86,0.11785
4031.08,0.11756
4025.29,0.11706
4019.51,0.11685
4013.72,0.11653
4007.93,0.11643
4002.15,0.11691
3996.36,0.11817
3990.57,0.11762
3984.79,0.11751
3979,0.11796
3973.22,0.11772
3967.43,0.11826
3961.64,0.11996
3955.86,0.11981
3950.07,0.11997
3944.28,0.12120
3938.5,0.12150
3932.71,0.12256
3926.93,0.12341
3921.14,0.12369
3915.35,0.12443
3909.57,0.12550
3903.78,0.12698
3897.99,0.12703
3892.21,0.12801
3886.42,0.12894
3880.64,0.12921
3874.85,0.12953
3869.06,0.13004
3863.28,0.13094
3857.49,0.13188
3851.7,0.13276
3845.92,0.13320
3840.13,0.13399
3834.35,0.13434
3828.56,0.13415
3822.77,0.13526
3816.99,0.13431
3811.2,0.13433
3805.41,0.13503
3799.63,0.13462
3793.84,0.13478
3788.06,0.13429
3782.27,0.13381
3776.48,0.13275
3770.7,0.13225
3764.91,0.13170
3759.12,0.13071
3753.34,0.13087
3747.55,0.13073
3741.77,0.12871
3735.98,0.12805
3730.19,0.12679
3724.41,0.12580
3718.62,0.12330
3712.83,0.12190
3707.05,0.11911
3701.26,0.11501
3695.48,0.11124
3689.69,0.10720
3683.9,0.10187
3678.12,0.09017
3672.33,0.08915
3666.54,0.08603
3660.76,0.08225
3654.97,0.07827
3649.19,0.07633
3643.4,0.07304
3637.61,0.07075
3631.83,0.06892
3626.04,0.06709
3620.25,0.06520
3614.47,0.06372
3608.68,0.06179
3602.9,0.06019
3597.11,0.05972
3591.32,0.05862
3585.54,0.05863
3579.75,0.05724
3573.97,0.05597
3568.18,0.05586
3562.39,0.05501
3556.61,0.05460
3550.82,0.05401
3545.03,0.05369
3539.25,0.05325
3533.46,0.05323
3527.68,0.05297
3521.89,0.05250
3516.1,0.05217
3510.32,0.05144
3504.53,0.05118
3498.74,0.05133
3492.96,0.05169
3487.17,0.05147
3481.39,0.05112
3475.6,0.05128
3469.81,0.05168
3464.03,0.05090
3458.24,0.05081
3452.45,0.05141
3446.67,0.05126
3440.88,0.05101
3435.1,0.05135
3429.31,0.05153
3423.52,0.05155
3417.74,0.05186
3411.95,0.05133
3406.16,0.05102
3400.38,0.05093
3394.59,0.05137
3388.81,0.05144
3383.02,0.05155
3377.23,0.05107
3371.45,0.05169
3365.66,0.05169
3359.87,0.05145
3354.09,0.05147
3348.3,0.05125
3342.52,0.05205
3336.73,0.05218
3330.94,0.05207
3325.16,0.05154
3319.37,0.05253
3313.58,0.05196
3307.8,0.05212
3302.01,0.05274
3296.23,0.05262
3290.44,0.05303
3284.65,0.05220
3278.87,0.05284
3273.08,0.05359
3267.29,0.05353
3261.51,0.05317
3255.72,0.05369
3249.94,0.05416
3244.15,0.05436
3238.36,0.05447
3232.58,0.05470
3226.79,0.05471
3221,0.05482
3215.22,0.05591
3209.43,0.05577
3203.65,0.05566
3197.86,0.05603
3192.07,0.05681
3186.29,0.05706
3180.5,0.05729
3174.71,0.05733
3168.93,0.05718
3163.14,0.05759
3157.36,0.05790
3151.57,0.05878
3145.78,0.05842
3140,0.05887
3134.21,0.05955
3128.42,0.05948
3122.64,0.05983
3116.85,0.06011
3111.07,0.05980
3105.28,0.05996
3099.49,0.06021
3093.71,0.06066
3087.92,0.06058
3082.14,0.06047
3076.35,0.06016
3070.56,0.06004
3064.78,0.06046
3058.99,0.06093
3053.2,0.06188
3047.42,0.06144
3041.63,0.06158
3035.85,0.06090
3030.06,0.06090
3024.27,0.06133
3018.49,0.06067
3012.7,0.05955
3006.91,0.05895
3001.13,0.05881
2995.34,0.05732
2989.56,0.05671
2983.77,0.05560
2977.98,0.05454
2972.2,0.05362
2966.41,0.05244
2960.62,0.05287
2954.84,0.05276
2949.05,0.05213
2943.27,0.05177
2937.48,0.05187
2931.69,0.05243
2925.91,0.05357
2920.12,0.05480
2914.33,0.05550
2908.55,0.05538
2902.76,0.05556
2896.98,0.05590
2891.19,0.05565
2885.4,0.05608
2879.62,0.05568
2873.83,0.05569
2868.04,0.05602
2862.26,0.05590
2856.47,0.05640
2850.69,0.05835
2844.9,0.05958
2839.11,0.06099
2833.33,0.06213
2827.54,0.06365
2821.75,0.06531
2815.97,0.06646
2810.18,0.06691
2804.4,0.06843
2798.61,0.06900
2792.82,0.06947
2787.04,0.07021
2781.25,0.07109
2775.46,0.07124
2769.68,0.07191
2763.89,0.07184
2758.11,0.07253
2752.32,0.07231
2746.53,0.07268
2740.75,0.07319
2734.96,0.07305
2729.17,0.07318
2723.39,0.07437
2717.6,0.07475
2711.82,0.07509
2706.03,0.07585
2700.24,0.07641
2694.46,0.07674
2688.67,0.07699
2682.88,0.07693
2677.1,0.07746
2671.31,0.07810
2665.53,0.07833
2659.74,0.07834
2653.95,0.07841
2648.17,0.07903
2642.38,0.07940
2636.59,0.07951
2630.81,0.08075
2625.02,0.08138
2619.24,0.08165
2613.45,0.08202
2607.66,0.08251
2601.88,0.08331
2596.09,0.08335
2590.3,0.08383
2584.52,0.08374
2578.73,0.08392
2572.95,0.08372
2567.16,0.08342
2561.37,0.08288
2555.59,0.08228
2549.8,0.08269
2544.02,0.08391
2538.23,0.08498
2532.44,0.08634
2526.66,0.08709
2520.87,0.08835
2515.08,0.08895
2509.3,0.09009
2503.51,0.09076
2497.73,0.09131
2491.94,0.09196
2486.15,0.09302
2480.37,0.09410
2474.58,0.09522
2468.79,0.09568
2463.01,0.09690
2457.22,0.09640
2451.44,0.09713
2445.65,0.09762
2439.86,0.09797
2434.08,0.09833
2428.29,0.09896
2422.5,0.09950
2416.72,0.09982
2410.93,0.10054
2405.15,0.10132
2399.36,0.10174
2393.57,0.10270
2387.79,0.10323
2382,0.10390
2376.21,0.10455
2370.43,0.10459
2364.64,0.10531
2358.86,0.10606
2353.07,0.10660
2347.28,0.10639
2341.5,0.10671
2335.71,0.10679
2329.92,0.10754
2324.14,0.10815
2318.35,0.10808
2312.57,0.10807
2306.78,0.10839
2300.99,0.10809
2295.21,0.10811
2289.42,0.10825
2283.63,0.10801
2277.85,0.10778
2272.06,0.10738
2266.28,0.10650
2260.49,0.10636
2254.7,0.10548
2248.92,0.10516
2243.13,0.10473
2237.34,0.10448
2231.56,0.10432
2225.77,0.10461
2219.99,0.10419
2214.2,0.10365
2208.41,0.10323
2202.63,0.10283
2196.84,0.10254
2191.05,0.10154
2185.27,0.10105
2179.48,0.09991
2173.7,0.09890
2167.91,0.09752
2162.12,0.09655
2156.34,0.09568
2150.55,0.09490
2144.76,0.09469
2138.98,0.09461
2133.19,0.09460
2127.41,0.09472
2121.62,0.09508
2115.83,0.09536
2110.05,0.09593
2104.26,0.09593
2098.47,0.09647
2092.69,0.09705
2086.9,0.09738
2081.12,0.09725
2075.33,0.09754
2069.54,0.09778
2063.76,0.09774
2057.97,0.09770
2052.19,0.09809
2046.4,0.09827
2040.61,0.09843
2034.83,0.09882
2029.04,0.09945
2023.25,0.09977
2017.47,0.10037
2011.68,0.10096
2005.9,0.10126
2000.11,0.10067
1994.32,0.10027
1988.54,0.10035
1982.75,0.10010
1976.96,0.10021
1971.18,0.10000
1965.39,0.09984
1959.61,0.09913
1953.82,0.09834
1948.03,0.09939
1942.25,0.10108
1936.46,0.10243
1930.67,0.10312
1924.89,0.10368
1919.1,0.10424
1913.32,0.10461
1907.53,0.10489
1901.74,0.10459
1895.96,0.10443
1890.17,0.10379
1884.38,0.10286
1878.6,0.10214
1872.81,0.10114
1867.03,0.09976
1861.24,0.09776
1855.45,0.09570
1849.67,0.09354
1843.88,0.09216
1838.09,0.09064
1832.31,0.08899
1826.52,0.08701
1820.74,0.08468
1814.95,0.08180
1809.16,0.07861
1803.38,0.07481
1797.59,0.07083
1791.8,0.06647
1786.02,0.06237
1780.23,0.05769
1774.45,0.05258
1768.66,0.04706
1762.87,0.04241
1757.09,0.03811
1751.3,0.03612
1745.51,0.03678
1739.73,0.03976
1733.94,0.04443
1728.16,0.04971
1722.37,0.05383
1716.58,0.05632
1710.8,0.05684
1705.01,0.05494
1699.22,0.05260
1693.44,0.04929
1687.65,0.04598
1681.87,0.04231
1676.08,0.04103
1670.29,0.04248
1664.51,0.04740
1658.72,0.05244
1652.93,0.05636
1647.15,0.06085
1641.36,0.06472
1635.58,0.06641
1629.79,0.06576
1624,0.06458
1618.22,0.06300
1612.43,0.06212
1606.64,0.06008
1600.86,0.05824
1595.07,0.05953
1589.29,0.06019
1583.5,0.05878
1577.71,0.05978
1571.93,0.06410
1566.14,0.06562
1560.35,0.06753
1554.57,0.07032
1548.78,0.07311
1543,0.07289
1537.21,0.06696
1531.42,0.06510
1525.64,0.06428
1519.85,0.06250
1514.07,0.06125
1508.28,0.05992
1502.49,0.05860
1496.71,0.05703
1490.92,0.05491
1485.13,0.05542
1479.35,0.05477
1473.56,0.05178
1467.78,0.04886
1461.99,0.04899
1456.2,0.04917
1450.42,0.04976
1444.63,0.05111
1438.84,0.05254
1433.06,0.05254
1427.27,0.05168
1421.49,0.05044
1415.7,0.04946
1409.91,0.04890
1404.13,0.04809
1398.34,0.04740
1392.55,0.04645
1386.77,0.04534
1380.98,0.04442
1375.2,0.04499
1369.41,0.04510
1363.62,0.04503
1357.84,0.04420
1352.05,0.04327
1346.26,0.04183
1340.48,0.04041
1334.69,0.03929
1328.91,0.03772
1323.12,0.03684
1317.33,0.03585
1311.55,0.03481
1305.76,0.03408
1299.97,0.03444
1294.19,0.03763
1288.4,0.04897
1282.62,0.06694
1276.83,0.08154
1271.04,0.07740
1265.26,0.07084
1259.47,0.06926
1253.68,0.06815
1247.9,0.06703
1242.11,0.06526
1236.33,0.06289
1230.54,0.06082
1224.75,0.05815
1218.97,0.05744
1213.18,0.05630
1207.39,0.05513
1201.61,0.05410
1195.82,0.05250
1190.04,0.05145
1184.25,0.04916
1178.46,0.04701
1172.68,0.04642
1166.89,0.04566
1161.1,0.04641
1155.32,0.04551
1149.53,0.04543
1143.75,0.04656
1137.96,0.04850
1132.17,0.04978
1126.39,0.05279
1120.6,0.05596
1114.81,0.05702
1109.03,0.05644
1103.24,0.05458
1097.46,0.05296
1091.67,0.05220
1085.88,0.05167
1080.1,0.05449
1074.31,0.06006
1068.52,0.06689
1062.74,0.06894
1056.95,0.06951
1051.17,0.06829
1045.38,0.06791
1039.59,0.06931
1033.81,0.06915
1028.02,0.06988
1022.24,0.07071
1016.45,0.07145
1010.66,0.06945
1004.88,0.06818
999.09,0.06846
993.304,0.06928
987.518,0.07013
981.731,0.07111
975.945,0.07086
970.159,0.07045
964.373,0.07056
958.586,0.06977
952.8,0.06866
947.014,0.06861
941.228,0.06784
935.441,0.06663
929.655,0.06594
923.869,0.06413
918.083,0.06342
912.297,0.06247
906.51,0.06137
900.724,0.05919
894.938,0.05864
889.152,0.05821
883.365,0.05623
877.579,0.05468
871.793,0.05346
866.007,0.05484
860.22,0.05540
854.434,0.05873
848.648,0.06177
842.862,0.06719
837.075,0.07292
831.289,0.07476
825.503,0.07601
819.717,0.07489
813.931,0.07393
808.144,0.07194
802.358,0.06884
796.572,0.06641
790.786,0.06622
784.999,0.06496
779.213,0.06307
773.427,0.06225
767.641,0.06118
761.854,0.05841
756.068,0.05694
750.282,0.05979
744.496,0.06398
738.709,0.06810
732.923,0.06702
727.137,0.06457
721.351,0.06268
715.565,0.06151
709.778,0.05997
703.992,0.06244
698.206,0.06303
692.42,0.06400
686.633,0.06407
680.847,0.06528
675.061,0.06514
669.275,0.06621
663.488,0.06290
657.702,0.06124
651.916,0.06141
646.13,0.06017
640.343,0.05937
634.557,0.05854
628.771,0.05956
622.985,0.05988
617.198,0.05897
611.412,0.05899
605.626,0.06058
599.84,0.05911