File: 01_Data/Engineered_Wood_Furniture/FTIR/IS/Engineered_Wood_Furniture_IS_S_221005_R8.dpt
7497.03,0.17879
7491.25,0.17815
7485.46,0.17739
7479.67,0.17183
7473.89,0.17979
7468.1,0.17701
7462.32,0.18851
7456.53,0.17711
7450.74,0.17656
7444.96,0.17289
7439.17,0.17871
7433.38,0.17524
7427.6,0.17308
7421.81,0.17744
7416.03,0.18053
7410.24,0.17285
7404.45,0.17950
7398.67,0.17832
7392.88,0.17619
7387.09,0.17334
7381.31,0.17551
7375.52,0.17471
7369.74,0.17382
7363.95,0.17747
7358.16,0.17356
7352.38,0.18062
7346.59,0.17652
7340.8,0.17757
7335.02,0.18050
7329.23,0.18492
7323.45,0.18142
7317.66,0.17054
7311.87,0.18026
7306.09,0.17225
7300.3,0.17389
7294.51,0.17406
7288.73,0.17238
7282.94,0.17427
7277.16,0.16989
7271.37,0.16748
7265.58,0.16251
7259.8,0.17565
7254.01,0.17720
7248.22,0.17674
7242.44,0.17626
7236.65,0.18166
7230.87,0.17411
7225.08,0.16815
7219.29,0.17347
7213.51,0.16825
7207.72,0.17787
7201.93,0.17286
7196.15,0.17256
7190.36,0.17593
7184.58,0.17014
7178.79,0.17131
7173,0.17054
7167.22,0.18048
7161.43,0.17341
7155.65,0.16546
7149.86,0.17151
7144.07,0.16721
7138.29,0.17688
7132.5,0.16597
7126.71,0.17097
7120.93,0.16677
7115.14,0.16849
7109.36,0.17049
7103.57,0.17376
7097.78,0.16554
7092,0.17306
7086.21,0.16168
7080.42,0.16388
7074.64,0.16343
7068.85,0.16491
7063.07,0.16444
7057.28,0.16125
7051.49,0.15839
7045.71,0.16290
7039.92,0.16165
7034.13,0.16625
7028.35,0.16386
7022.56,0.16441
7016.78,0.15766
7010.99,0.15761
7005.2,0.16587
6999.42,0.15802
6993.63,0.16714
6987.84,0.16083
6982.06,0.16278
6976.27,0.16048
6970.49,0.15950
6964.7,0.16110
6958.91,0.16532
6953.13,0.16348
6947.34,0.16153
6941.55,0.16083
6935.77,0.16101
6929.98,0.15869
6924.2,0.15856
6918.41,0.16315
6912.62,0.16021
6906.84,0.15385
6901.05,0.15934
6895.26,0.15744
6889.48,0.15500
6883.69,0.15458
6877.91,0.15762
6872.12,0.15505
6866.33,0.15709
6860.55,0.15898
6854.76,0.15839
6848.97,0.15968
6843.19,0.15271
6837.4,0.16178
6831.62,0.15707
6825.83,0.15218
6820.04,0.15524
6814.26,0.15648
6808.47,0.15790
6802.68,0.15840
6796.9,0.15869
6791.11,0.15842
6785.33,0.15771
6779.54,0.15608
6773.75,0.15423
6767.97,0.15688
6762.18,0.15676
6756.39,0.16066
6750.61,0.15697
6744.82,0.15432
6739.04,0.15345
6733.25,0.15926
6727.46,0.15858
6721.68,0.15725
6715.89,0.15417
6710.1,0.15892
6704.32,0.15947
6698.53,0.15267
6692.75,0.15710
6686.96,0.16014
6681.17,0.15776
6675.39,0.15706
6669.6,0.16063
6663.82,0.15967
6658.03,0.15677
6652.24,0.16031
6646.46,0.15803
6640.67,0.16287
6634.88,0.16216
6629.1,0.15810
6623.31,0.16066
6617.53,0.15753
6611.74,0.15871
6605.95,0.16202
6600.17,0.16116
6594.38,0.16642
6588.59,0.15957
6582.81,0.16134
6577.02,0.16468
6571.24,0.16025
6565.45,0.16162
6559.66,0.16346
6553.88,0.16464
6548.09,0.15918
6542.3,0.16366
6536.52,0.16048
6530.73,0.16290
6524.95,0.16229
6519.16,0.16305
6513.37,0.16664
6507.59,0.16578
6501.8,0.16499
6496.01,0.16264
6490.23,0.16719
6484.44,0.16452
6478.66,0.16629
6472.87,0.16636
6467.08,0.16332
6461.3,0.16573
6455.51,0.16545
6449.72,0.16764
6443.94,0.16662
6438.15,0.16606
6432.37,0.16524
6426.58,0.16744
6420.79,0.16379
6415.01,0.16366
6409.22,0.16469
6403.43,0.16659
6397.65,0.16393
6391.86,0.16495
6386.08,0.16612
6380.29,0.16507
6374.5,0.16510
6368.72,0.16931
6362.93,0.16785
6357.14,0.16758
6351.36,0.16860
6345.57,0.16582
6339.79,0.16721
6334,0.16763
6328.21,0.16881
6322.43,0.16824
6316.64,0.17222
6310.85,0.16971
6305.07,0.16638
6299.28,0.16778
6293.5,0.16828
6287.71,0.16911
6281.92,0.17044
6276.14,0.16882
6270.35,0.17094
6264.56,0.17078
6258.78,0.17017
6252.99,0.16911
6247.21,0.17097
6241.42,0.17375
6235.63,0.17239
6229.85,0.17155
6224.06,0.17111
6218.27,0.17129
6212.49,0.17189
6206.7,0.17240
6200.92,0.17021
6195.13,0.17555
6189.34,0.17367
6183.56,0.17574
6177.77,0.17278
6171.98,0.17071
6166.2,0.17315
6160.41,0.17662
6154.63,0.17522
6148.84,0.17669
6143.05,0.17605
6137.27,0.17381
6131.48,0.17515
6125.7,0.17474
6119.91,0.17781
6114.12,0.17655
6108.34,0.17979
6102.55,0.17911
6096.76,0.17639
6090.98,0.18030
6085.19,0.17699
6079.41,0.17752
6073.62,0.17683
6067.83,0.17477
6062.05,0.17503
6056.26,0.18052
6050.47,0.17546
6044.69,0.17506
6038.9,0.17471
6033.12,0.17418
6027.33,0.17492
6021.54,0.17671
6015.76,0.17410
6009.97,0.17376
6004.18,0.17293
5998.4,0.17275
5992.61,0.17342
5986.83,0.17173
5981.04,0.17347
5975.25,0.17654
5969.47,0.17300
5963.68,0.17383
5957.89,0.17371
5952.11,0.17368
5946.32,0.17220
5940.54,0.17465
5934.75,0.17324
5928.96,0.17528
5923.18,0.17503
5917.39,0.17474
5911.6,0.17350
5905.82,0.17485
5900.03,0.17384
5894.25,0.17360
5888.46,0.16955
5882.67,0.17264
5876.89,0.17370
5871.1,0.17376
5865.31,0.17150
5859.53,0.17254
5853.74,0.17182
5847.96,0.17165
5842.17,0.17176
5836.38,0.17252
5830.6,0.17078
5824.81,0.17051
5819.02,0.17137
5813.24,0.17305
5807.45,0.17126
5801.67,0.17011
5795.88,0.17076
5790.09,0.17109
5784.31,0.16995
5778.52,0.17153
5772.73,0.17244
5766.95,0.17053
5761.16,0.17289
5755.38,0.17151
5749.59,0.17348
5743.8,0.17162
5738.02,0.17179
5732.23,0.17349
5726.44,0.17466
5720.66,0.17286
5714.87,0.17383
5709.09,0.17318
5703.3,0.17585
5697.51,0.17421
5691.73,0.17382
5685.94,0.17327
5680.15,0.17500
5674.37,0.17406
5668.58,0.17562
5662.8,0.17627
5657.01,0.17502
5651.22,0.17295
5645.44,0.17514
5639.65,0.17437
5633.87,0.17471
5628.08,0.17484
5622.29,0.17774
5616.51,0.17472
5610.72,0.17555
5604.93,0.17542
5599.15,0.17711
5593.36,0.17796
5587.58,0.17822
5581.79,0.17782
5576,0.17776
5570.22,0.17659
5564.43,0.17895
5558.64,0.17920
5552.86,0.17774
5547.07,0.18009
5541.29,0.17883
5535.5,0.17812
5529.71,0.17733
5523.93,0.17947
5518.14,0.17879
5512.35,0.18074
5506.57,0.18067
5500.78,0.17846
5495,0.18023
5489.21,0.17987
5483.42,0.18051
5477.64,0.18094
5471.85,0.18228
5466.06,0.18086
5460.28,0.18157
5454.49,0.18277
5448.71,0.18234
5442.92,0.18172
5437.13,0.18125
5431.35,0.18313
5425.56,0.18342
5419.77,0.18380
5413.99,0.18392
5408.2,0.18250
5402.42,0.18367
5396.63,0.18497
5390.84,0.18483
5385.06,0.18437
5379.27,0.18553
5373.48,0.18594
5367.7,0.18291
5361.91,0.18432
5356.13,0.18427
5350.34,0.18252
5344.55,0.18464
5338.77,0.18415
5332.98,0.18451
5327.19,0.18184
5321.41,0.18103
5315.62,0.18050
5309.84,0.17929
5304.05,0.17879
5298.26,0.17605
5292.48,0.17453
5286.69,0.17343
5280.9,0.17020
5275.12,0.16789
5269.33,0.16546
5263.55,0.16491
5257.76,0.16180
5251.97,0.15859
5246.19,0.15714
5240.4,0.15433
5234.61,0.15471
5228.83,0.15309
5223.04,0.15033
5217.26,0.15037
5211.47,0.14972
5205.68,0.14919
5199.9,0.14932
5194.11,0.14819
5188.32,0.14880
5182.54,0.14856
5176.75,0.14900
5170.97,0.14860
5165.18,0.14902
5159.39,0.14890
5153.61,0.15005
5147.82,0.15034
5142.03,0.15140
5136.25,0.15129
5130.46,0.15130
5124.68,0.15293
5118.89,0.15471
5113.1,0.15425
5107.32,0.15471
5101.53,0.15410
5095.75,0.15616
5089.96,0.15428
5084.17,0.15616
5078.39,0.15633
5072.6,0.15671
5066.81,0.15846
5061.03,0.15839
5055.24,0.15895
5049.46,0.15947
5043.67,0.15903
5037.88,0.16039
5032.1,0.16091
5026.31,0.16148
5020.52,0.16186
5014.74,0.16361
5008.95,0.16297
5003.17,0.16266
4997.38,0.16232
4991.59,0.16220
4985.81,0.16240
4980.02,0.16265
4974.23,0.16192
4968.45,0.16178
4962.66,0.16054
4956.88,0.16031
4951.09,0.15994
4945.3,0.15954
4939.52,0.15808
4933.73,0.15797
4927.94,0.15616
4922.16,0.15622
4916.37,0.15540
4910.59,0.15469
4904.8,0.15460
4899.01,0.15375
4893.23,0.15181
4887.44,0.15129
4881.65,0.15151
4875.87,0.15045
4870.08,0.15041
4864.3,0.15042
4858.51,0.15036
4852.72,0.14954
4846.94,0.14852
4841.15,0.14858
4835.36,0.14957
4829.58,0.14852
4823.79,0.14871
4818.01,0.14681
4812.22,0.14752
4806.43,0.14793
4800.65,0.14823
4794.86,0.14731
4789.07,0.14789
4783.29,0.14694
4777.5,0.14773
4771.72,0.14777
4765.93,0.14669
4760.14,0.14725
4754.36,0.14763
4748.57,0.14779
4742.78,0.14876
4737,0.14779
4731.21,0.14615
4725.43,0.14737
4719.64,0.14736
4713.85,0.14785
4708.07,0.14717
4702.28,0.14742
4696.49,0.14664
4690.71,0.14730
4684.92,0.14718
4679.14,0.14728
4673.35,0.14684
4667.56,0.14739
4661.78,0.14831
4655.99,0.14936
4650.2,0.14957
4644.42,0.15032
4638.63,0.14974
4632.85,0.15020
4627.06,0.15036
4621.27,0.15095
4615.49,0.15158
4609.7,0.15245
4603.92,0.15218
4598.13,0.15371
4592.34,0.15418
4586.56,0.15381
4580.77,0.15371
4574.98,0.15406
4569.2,0.15359
4563.41,0.15400
4557.63,0.15507
4551.84,0.15564
4546.05,0.15524
4540.27,0.15557
4534.48,0.15421
4528.69,0.15544
4522.91,0.15583
4517.12,0.15550
4511.34,0.15540
4505.55,0.15602
4499.76,0.15475
4493.98,0.15509
4488.19,0.15368
4482.4,0.15232
4476.62,0.15112
4470.83,0.14905
4465.05,0.14676
4459.26,0.14468
4453.47,0.14223
4447.69,0.13998
4441.9,0.13753
4436.11,0.13699
4430.33,0.13676
4424.54,0.13567
4418.76,0.13475
4412.97,0.13342
4407.18,0.13303
4401.4,0.13371
4395.61,0.13267
4389.82,0.13355
4384.04,0.13364
4378.25,0.13325
4372.47,0.13272
4366.68,0.13385
4360.89,0.13344
4355.11,0.13222
4349.32,0.13170
4343.53,0.13132
4337.75,0.13072
4331.96,0.12921
4326.18,0.12869
4320.39,0.12951
4314.6,0.13066
4308.82,0.13060
4303.03,0.13057
4297.24,0.13125
4291.46,0.13196
4285.67,0.13094
4279.89,0.13035
4274.1,0.13032
4268.31,0.12920
4262.53,0.12917
4256.74,0.12932
4250.95,0.12927
4245.17,0.13044
4239.38,0.13141
4233.6,0.13248
4227.81,0.13286
4222.02,0.13320
4216.24,0.13321
4210.45,0.13387
4204.66,0.13388
4198.88,0.13420
4193.09,0.13360
4187.31,0.13381
4181.52,0.13360
4175.73,0.13458
4169.95,0.13427
4164.16,0.13450
4158.37,0.13426
4152.59,0.13328
4146.8,0.13271
4141.02,0.13221
4135.23,0.13201
4129.44,0.13141
4123.66,0.13111
4117.87,0.13087
4112.09,0.12965
4106.3,0.12795
4100.51,0.12788
4094.73,0.12673
4088.94,0.12592
4083.15,0.12559
4077.37,0.12423
4071.58,0.12304
4065.8,0.12175
4060.01,0.12091
4054.22,0.12012
4048.44,0.11941
4042.65,0.11840
4036.86,0.11810
4031.08,0.11734
4025.29,0.11742
4019.51,0.11658
4013.72,0.11667
4007.93,0.11638
4002.15,0.11700
3996.36,0.11622
3990.57,0.11790
3984.79,0.11779
3979,0.11743
3973.22,0.11786
3967.43,0.11863
3961.64,0.11950
3955.86,0.12009
3950.07,0.12055
3944.28,0.12107
3938.5,0.12179
3932.71,0.12227
3926.93,0.12250
3921.14,0.12414
3915.35,0.12508
3909.57,0.12555
3903.78,0.12693
3897.99,0.12704
3892.21,0.12816
3886.42,0.12875
3880.64,0.12977
3874.85,0.12984
3869.06,0.13077
3863.28,0.13167
3857.49,0.13277
3851.7,0.13302
3845.92,0.13341
3840.13,0.13432
3834.35,0.13438
3828.56,0.13447
3822.77,0.13429
3816.99,0.13409
3811.2,0.13522
3805.41,0.13496
3799.63,0.13446
3793.84,0.13417
3788.06,0.13459
3782.27,0.13406
3776.48,0.13359
3770.7,0.13341
3764.91,0.13221
3759.12,0.13148
3753.34,0.13102
3747.55,0.13026
3741.77,0.12965
3735.98,0.12901
3730.19,0.12755
3724.41,0.12593
3718.62,0.12466
3712.83,0.12150
3707.05,0.11936
3701.26,0.11599
3695.48,0.11124
3689.69,0.10835
3683.9,0.10271
3678.12,0.09116
3672.33,0.08980
3666.54,0.08696
3660.76,0.08290
3654.97,0.07926
3649.19,0.07649
3643.4,0.07308
3637.61,0.07117
3631.83,0.06885
3626.04,0.06689
3620.25,0.06503
3614.47,0.06389
3608.68,0.06180
3602.9,0.06076
3597.11,0.06001
3591.32,0.05920
3585.54,0.05796
3579.75,0.05755
3573.97,0.05668
3568.18,0.05610
3562.39,0.05478
3556.61,0.05465
3550.82,0.05392
3545.03,0.05315
3539.25,0.05222
3533.46,0.05296
3527.68,0.05246
3521.89,0.05279
3516.1,0.05201
3510.32,0.05176
3504.53,0.05169
3498.74,0.05201
3492.96,0.05166
3487.17,0.05174
3481.39,0.05143
3475.6,0.05116
3469.81,0.05113
3464.03,0.05113
3458.24,0.05138
3452.45,0.05131
3446.67,0.05049
3440.88,0.05160
3435.1,0.05166
3429.31,0.05167
3423.52,0.05142
3417.74,0.05116
3411.95,0.05078
3406.16,0.05166
3400.38,0.05131
3394.59,0.05165
3388.81,0.05150
3383.02,0.05114
3377.23,0.05089
3371.45,0.05130
3365.66,0.05167
3359.87,0.05194
3354.09,0.05143
3348.3,0.05160
3342.52,0.05131
3336.73,0.05168
3330.94,0.05219
3325.16,0.05180
3319.37,0.05209
3313.58,0.05207
3307.8,0.05280
3302.01,0.05229
3296.23,0.05250
3290.44,0.05270
3284.65,0.05256
3278.87,0.05275
3273.08,0.05324
3267.29,0.05362
3261.51,0.05371
3255.72,0.05408
3249.94,0.05423
3244.15,0.05423
3238.36,0.05463
3232.58,0.05489
3226.79,0.05536
3221,0.05574
3215.22,0.05531
3209.43,0.05652
3203.65,0.05662
3197.86,0.05637
3192.07,0.05666
3186.29,0.05617
3180.5,0.05714
3174.71,0.05711
3168.93,0.05769
3163.14,0.05735
3157.36,0.05821
3151.57,0.05837
3145.78,0.05944
3140,0.05922
3134.21,0.05892
3128.42,0.05919
3122.64,0.05909
3116.85,0.05958
3111.07,0.05972
3105.28,0.06039
3099.49,0.06050
3093.71,0.06029
3087.92,0.06015
3082.14,0.06025
3076.35,0.06026
3070.56,0.06081
3064.78,0.06112
3058.99,0.06129
3053.2,0.06166
3047.42,0.06120
3041.63,0.06117
3035.85,0.06128
3030.06,0.06118
3024.27,0.06081
3018.49,0.06024
3012.7,0.05922
3006.91,0.05898
3001.13,0.05791
2995.34,0.05705
2989.56,0.05626
2983.77,0.05531
2977.98,0.05460
2972.2,0.05348
2966.41,0.05294
2960.62,0.05241
2954.84,0.05273
2949.05,0.05220
2943.27,0.05161
2937.48,0.05163
2931.69,0.05188
2925.91,0.05323
2920.12,0.05471
2914.33,0.05598
2908.55,0.05573
2902.76,0.05566
2896.98,0.05549
2891.19,0.05587
2885.4,0.05529
2879.62,0.05528
2873.83,0.05554
2868.04,0.05535
2862.26,0.05551
2856.47,0.05571
2850.69,0.05766
2844.9,0.05912
2839.11,0.05989
2833.33,0.06166
2827.54,0.06385
2821.75,0.06500
2815.97,0.06588
2810.18,0.06676
2804.4,0.06782
2798.61,0.06865
2792.82,0.06964
2787.04,0.07083
2781.25,0.07080
2775.46,0.07105
2769.68,0.07186
2763.89,0.07208
2758.11,0.07235
2752.32,0.07241
2746.53,0.07273
2740.75,0.07295
2734.96,0.07316
2729.17,0.07366
2723.39,0.07395
2717.6,0.07400
2711.82,0.07507
2706.03,0.07583
2700.24,0.07577
2694.46,0.07628
2688.67,0.07652
2682.88,0.07693
2677.1,0.07743
2671.31,0.07784
2665.53,0.07803
2659.74,0.07839
2653.95,0.07837
2648.17,0.07864
2642.38,0.07944
2636.59,0.08001
2630.81,0.08022
2625.02,0.08076
2619.24,0.08172
2613.45,0.08187
2607.66,0.08210
2601.88,0.08299
2596.09,0.08307
2590.3,0.08356
2584.52,0.08380
2578.73,0.08389
2572.95,0.08348
2567.16,0.08302
2561.37,0.08220
2555.59,0.08193
2549.8,0.08261
2544.02,0.08372
2538.23,0.08499
2532.44,0.08622
2526.66,0.08731
2520.87,0.08819
2515.08,0.08911
2509.3,0.08972
2503.51,0.09102
2497.73,0.09128
2491.94,0.09221
2486.15,0.09304
2480.37,0.09444
2474.58,0.09509
2468.79,0.09578
2463.01,0.09597
2457.22,0.09666
2451.44,0.09731
2445.65,0.09710
2439.86,0.09791
2434.08,0.09847
2428.29,0.09892
2422.5,0.09932
2416.72,0.10000
2410.93,0.10086
2405.15,0.10151
2399.36,0.10230
2393.57,0.10266
2387.79,0.10336
2382,0.10399
2376.21,0.10426
2370.43,0.10453
2364.64,0.10536
2358.86,0.10616
2353.07,0.10654
2347.28,0.10638
2341.5,0.10684
2335.71,0.10739
2329.92,0.10751
2324.14,0.10811
2318.35,0.10853
2312.57,0.10855
2306.78,0.10854
2300.99,0.10835
2295.21,0.10810
2289.42,0.10807
2283.63,0.10803
2277.85,0.10750
2272.06,0.10726
2266.28,0.10679
2260.49,0.10654
2254.7,0.10577
2248.92,0.10552
2243.13,0.10503
2237.34,0.10485
2231.56,0.10416
2225.77,0.10433
2219.99,0.10417
2214.2,0.10412
2208.41,0.10368
2202.63,0.10334
2196.84,0.10270
2191.05,0.10167
2185.27,0.10082
2179.48,0.10008
2173.7,0.09875
2167.91,0.09820
2162.12,0.09685
2156.34,0.09583
2150.55,0.09531
2144.76,0.09488
2138.98,0.09446
2133.19,0.09469
2127.41,0.09501
2121.62,0.09513
2115.83,0.09544
2110.05,0.09555
2104.26,0.09595
2098.47,0.09666
2092.69,0.09723
2086.9,0.09753
2081.12,0.09798
2075.33,0.09777
2069.54,0.09776
2063.76,0.09780
2057.97,0.09827
2052.19,0.09801
2046.4,0.09853
2040.61,0.09871
2034.83,0.09880
2029.04,0.09948
2023.25,0.10020
2017.47,0.10075
2011.68,0.10112
2005.9,0.10099
2000.11,0.10089
1994.32,0.10082
1988.54,0.10066
1982.75,0.10076
1976.96,0.10056
1971.18,0.10048
1965.39,0.10012
1959.61,0.09925
1953.82,0.09882
1948.03,0.09975
1942.25,0.10118
1936.46,0.10258
1930.67,0.10352
1924.89,0.10423
1919.1,0.10468
1913.32,0.10478
1907.53,0.10528
1901.74,0.10496
1895.96,0.10486
1890.17,0.10380
1884.38,0.10281
1878.6,0.10218
1872.81,0.10112
1867.03,0.09971
1861.24,0.09800
1855.45,0.09559
1849.67,0.09369
1843.88,0.09241
1838.09,0.09064
1832.31,0.08906
1826.52,0.08706
1820.74,0.08440
1814.95,0.08182
1809.16,0.07898
1803.38,0.07529
1797.59,0.07117
1791.8,0.06683
1786.02,0.06227
1780.23,0.05755
1774.45,0.05243
1768.66,0.04706
1762.87,0.04223
1757.09,0.03827
1751.3,0.03580
1745.51,0.03611
1739.73,0.03962
1733.94,0.04440
1728.16,0.04973
1722.37,0.05396
1716.58,0.05634
1710.8,0.05622
1705.01,0.05524
1699.22,0.05247
1693.44,0.04884
1687.65,0.04590
1681.87,0.04221
1676.08,0.04065
1670.29,0.04240
1664.51,0.04715
1658.72,0.05223
1652.93,0.05684
1647.15,0.06073
1641.36,0.06452
1635.58,0.06625
1629.79,0.06552
1624,0.06429
1618.22,0.06296
1612.43,0.06158
1606.64,0.06015
1600.86,0.05828
1595.07,0.05942
1589.29,0.06019
1583.5,0.05878
1577.71,0.05996
1571.93,0.06392
1566.14,0.06562
1560.35,0.06725
1554.57,0.07000
1548.78,0.07275
1543,0.07211
1537.21,0.06652
1531.42,0.06486
1525.64,0.06387
1519.85,0.06297
1514.07,0.06065
1508.28,0.05972
1502.49,0.05825
1496.71,0.05655
1490.92,0.05449
1485.13,0.05548
1479.35,0.05463
1473.56,0.05169
1467.78,0.04881
1461.99,0.04860
1456.2,0.04913
1450.42,0.04935
1444.63,0.05126
1438.84,0.05217
1433.06,0.05252
1427.27,0.05173
1421.49,0.04989
1415.7,0.04943
1409.91,0.04852
1404.13,0.04752
1398.34,0.04706
1392.55,0.04649
1386.77,0.04541
1380.98,0.04457
1375.2,0.04495
1369.41,0.04502
1363.62,0.04521
1357.84,0.04451
1352.05,0.04314
1346.26,0.04195
1340.48,0.04061
1334.69,0.03928
1328.91,0.03780
1323.12,0.03674
1317.33,0.03574
1311.55,0.03472
1305.76,0.03400
1299.97,0.03386
1294.19,0.03793
1288.4,0.04900
1282.62,0.06670
1276.83,0.08131
1271.04,0.07745
1265.26,0.07075
1259.47,0.06891
1253.68,0.06823
1247.9,0.06721
1242.11,0.06537
1236.33,0.06265
1230.54,0.06058
1224.75,0.05873
1218.97,0.05683
1213.18,0.05571
1207.39,0.05470
1201.61,0.05433
1195.82,0.05328
1190.04,0.05119
1184.25,0.04942
1178.46,0.04804
1172.68,0.04625
1166.89,0.04532
1161.1,0.04591
1155.32,0.04554
1149.53,0.04529
1143.75,0.04667
1137.96,0.04812
1132.17,0.04970
1126.39,0.05302
1120.6,0.05554
1114.81,0.05710
1109.03,0.05611
1103.24,0.05415
1097.46,0.05241
1091.67,0.05192
1085.88,0.05138
1080.1,0.05386
1074.31,0.06071
1068.52,0.06662
1062.74,0.06910
1056.95,0.06989
1051.17,0.06938
1045.38,0.06805
1039.59,0.06874
1033.81,0.06966
1028.02,0.07021
1022.24,0.07107
1016.45,0.07108
1010.66,0.06972
1004.88,0.06809
999.09,0.06860
993.304,0.06929
987.518,0.06987
981.731,0.06994
975.945,0.07042
970.159,0.07029
964.373,0.06990
958.586,0.06960
952.8,0.06943
947.014,0.06828
941.228,0.06780
935.441,0.06668
929.655,0.06530
923.869,0.06339
918.083,0.06290
912.297,0.06313
906.51,0.06141
900.724,0.06019
894.938,0.05854
889.152,0.05775
883.365,0.05606
877.579,0.05432
871.793,0.05422
866.007,0.05423
860.22,0.05552
854.434,0.05847
848.648,0.06201
842.862,0.06651
837.075,0.07183
831.289,0.07505
825.503,0.07598
819.717,0.07502
813.931,0.07286
808.144,0.07084
802.358,0.06865
796.572,0.06738
790.786,0.06600
784.999,0.06452
779.213,0.06341
773.427,0.06222
767.641,0.06063
761.854,0.05907
756.068,0.05729
750.282,0.05995
744.496,0.06436
738.709,0.06717
732.923,0.06575
727.137,0.06397
721.351,0.06299
715.565,0.06144
709.778,0.06007
703.992,0.06228
698.206,0.06405
692.42,0.06428
686.633,0.06405
680.847,0.06454
675.061,0.06630
669.275,0.06526
663.488,0.06328
657.702,0.06111
651.916,0.06153
646.13,0.06024
640.343,0.05889
634.557,0.05971
628.771,0.05807
622.985,0.05773
617.198,0.05824
611.412,0.05800
605.626,0.05953
599.84,0.05724