File: 01_Data/Engineered_Wood_Furniture/FTIR/IS/Engineered_Wood_Furniture_IS_S_221005_R2.dpt
7497.03,0.17277
7491.25,0.17906
7485.46,0.18520
7479.67,0.18143
7473.89,0.18459
7468.1,0.17698
7462.32,0.17706
7456.53,0.17546
7450.74,0.17131
7444.96,0.17130
7439.17,0.17698
7433.38,0.16935
7427.6,0.17145
7421.81,0.17148
7416.03,0.17755
7410.24,0.17880
7404.45,0.17972
7398.67,0.17745
7392.88,0.16688
7387.09,0.17437
7381.31,0.16664
7375.52,0.17527
7369.74,0.17442
7363.95,0.17486
7358.16,0.18039
7352.38,0.17740
7346.59,0.17524
7340.8,0.17399
7335.02,0.17761
7329.23,0.18528
7323.45,0.17787
7317.66,0.16511
7311.87,0.17238
7306.09,0.16990
7300.3,0.17167
7294.51,0.16906
7288.73,0.17638
7282.94,0.16350
7277.16,0.17088
7271.37,0.17406
7265.58,0.17583
7259.8,0.17756
7254.01,0.16633
7248.22,0.16767
7242.44,0.17360
7236.65,0.17692
7230.87,0.17449
7225.08,0.17517
7219.29,0.17503
7213.51,0.17609
7207.72,0.17263
7201.93,0.16485
7196.15,0.16915
7190.36,0.17734
7184.58,0.16850
7178.79,0.16946
7173,0.17272
7167.22,0.16979
7161.43,0.17085
7155.65,0.17065
7149.86,0.16610
7144.07,0.16939
7138.29,0.16468
7132.5,0.17400
7126.71,0.17526
7120.93,0.16838
7115.14,0.16529
7109.36,0.16996
7103.57,0.17086
7097.78,0.16451
7092,0.15955
7086.21,0.16421
7080.42,0.16346
7074.64,0.16367
7068.85,0.16348
7063.07,0.17005
7057.28,0.16966
7051.49,0.15735
7045.71,0.15742
7039.92,0.16347
7034.13,0.15991
7028.35,0.16504
7022.56,0.16421
7016.78,0.16389
7010.99,0.16161
7005.2,0.15906
6999.42,0.15797
6993.63,0.15678
6987.84,0.16375
6982.06,0.15739
6976.27,0.15802
6970.49,0.16506
6964.7,0.16080
6958.91,0.15435
6953.13,0.15285
6947.34,0.15366
6941.55,0.15744
6935.77,0.15686
6929.98,0.15385
6924.2,0.15677
6918.41,0.15826
6912.62,0.16081
6906.84,0.14946
6901.05,0.15752
6895.26,0.15535
6889.48,0.15283
6883.69,0.15471
6877.91,0.15578
6872.12,0.15821
6866.33,0.15633
6860.55,0.15725
6854.76,0.16230
6848.97,0.15543
6843.19,0.15425
6837.4,0.14918
6831.62,0.15526
6825.83,0.15444
6820.04,0.15831
6814.26,0.15993
6808.47,0.15621
6802.68,0.15395
6796.9,0.15642
6791.11,0.15681
6785.33,0.15654
6779.54,0.15363
6773.75,0.15651
6767.97,0.15336
6762.18,0.15630
6756.39,0.15639
6750.61,0.15614
6744.82,0.15367
6739.04,0.15968
6733.25,0.15712
6727.46,0.15460
6721.68,0.15306
6715.89,0.15661
6710.1,0.15545
6704.32,0.15549
6698.53,0.15371
6692.75,0.15422
6686.96,0.15564
6681.17,0.15138
6675.39,0.15609
6669.6,0.15607
6663.82,0.15841
6658.03,0.15567
6652.24,0.15697
6646.46,0.15853
6640.67,0.15820
6634.88,0.15645
6629.1,0.15744
6623.31,0.16462
6617.53,0.16232
6611.74,0.15705
6605.95,0.16088
6600.17,0.16407
6594.38,0.16103
6588.59,0.16069
6582.81,0.15886
6577.02,0.15813
6571.24,0.16266
6565.45,0.16183
6559.66,0.16282
6553.88,0.16198
6548.09,0.16719
6542.3,0.15667
6536.52,0.16099
6530.73,0.16150
6524.95,0.16032
6519.16,0.16467
6513.37,0.16113
6507.59,0.15960
6501.8,0.16525
6496.01,0.16490
6490.23,0.15979
6484.44,0.16485
6478.66,0.16213
6472.87,0.16105
6467.08,0.16059
6461.3,0.16349
6455.51,0.16806
6449.72,0.16247
6443.94,0.16489
6438.15,0.16348
6432.37,0.16471
6426.58,0.16580
6420.79,0.16935
6415.01,0.16385
6409.22,0.16494
6403.43,0.16741
6397.65,0.16191
6391.86,0.16208
6386.08,0.16566
6380.29,0.16835
6374.5,0.16683
6368.72,0.16917
6362.93,0.16567
6357.14,0.16609
6351.36,0.16578
6345.57,0.16623
6339.79,0.16367
6334,0.16768
6328.21,0.16792
6322.43,0.17028
6316.64,0.16804
6310.85,0.16833
6305.07,0.16610
6299.28,0.16612
6293.5,0.16761
6287.71,0.16963
6281.92,0.16358
6276.14,0.16841
6270.35,0.17077
6264.56,0.16804
6258.78,0.17087
6252.99,0.17193
6247.21,0.17028
6241.42,0.17184
6235.63,0.17099
6229.85,0.16903
6224.06,0.17192
6218.27,0.16966
6212.49,0.17156
6206.7,0.17150
6200.92,0.17386
6195.13,0.17473
6189.34,0.17475
6183.56,0.17333
6177.77,0.17056
6171.98,0.17328
6166.2,0.17354
6160.41,0.17630
6154.63,0.17367
6148.84,0.17489
6143.05,0.17671
6137.27,0.17343
6131.48,0.17286
6125.7,0.17474
6119.91,0.17737
6114.12,0.17887
6108.34,0.17732
6102.55,0.17421
6096.76,0.17754
6090.98,0.17543
6085.19,0.17386
6079.41,0.17809
6073.62,0.17955
6067.83,0.17693
6062.05,0.17557
6056.26,0.17709
6050.47,0.17158
6044.69,0.17808
6038.9,0.17465
6033.12,0.17540
6027.33,0.17093
6021.54,0.17324
6015.76,0.17345
6009.97,0.17458
6004.18,0.17287
5998.4,0.17437
5992.61,0.17226
5986.83,0.17393
5981.04,0.17386
5975.25,0.17262
5969.47,0.17498
5963.68,0.17346
5957.89,0.17399
5952.11,0.17140
5946.32,0.17579
5940.54,0.17327
5934.75,0.17322
5928.96,0.17355
5923.18,0.17511
5917.39,0.17286
5911.6,0.17113
5905.82,0.17512
5900.03,0.17394
5894.25,0.17375
5888.46,0.17517
5882.67,0.17249
5876.89,0.17452
5871.1,0.17405
5865.31,0.17039
5859.53,0.16834
5853.74,0.17062
5847.96,0.17155
5842.17,0.17190
5836.38,0.17216
5830.6,0.17063
5824.81,0.16889
5819.02,0.17108
5813.24,0.17097
5807.45,0.17257
5801.67,0.16981
5795.88,0.16858
5790.09,0.17064
5784.31,0.17042
5778.52,0.17099
5772.73,0.17324
5766.95,0.17086
5761.16,0.17043
5755.38,0.17275
5749.59,0.17448
5743.8,0.17522
5738.02,0.17403
5732.23,0.17394
5726.44,0.17423
5720.66,0.17506
5714.87,0.17397
5709.09,0.17293
5703.3,0.17455
5697.51,0.17445
5691.73,0.17594
5685.94,0.17445
5680.15,0.17202
5674.37,0.17406
5668.58,0.17059
5662.8,0.17611
5657.01,0.17463
5651.22,0.17594
5645.44,0.17424
5639.65,0.17685
5633.87,0.17739
5628.08,0.17574
5622.29,0.17644
5616.51,0.17671
5610.72,0.17493
5604.93,0.17597
5599.15,0.17497
5593.36,0.17608
5587.58,0.17955
5581.79,0.17768
5576,0.17749
5570.22,0.17489
5564.43,0.17829
5558.64,0.17786
5552.86,0.17809
5547.07,0.17870
5541.29,0.17944
5535.5,0.17826
5529.71,0.17834
5523.93,0.17820
5518.14,0.17891
5512.35,0.17891
5506.57,0.17883
5500.78,0.17894
5495,0.17989
5489.21,0.17971
5483.42,0.18062
5477.64,0.18041
5471.85,0.17979
5466.06,0.18171
5460.28,0.18098
5454.49,0.18247
5448.71,0.18126
5442.92,0.18337
5437.13,0.18269
5431.35,0.18379
5425.56,0.18306
5419.77,0.18417
5413.99,0.18483
5408.2,0.18371
5402.42,0.18290
5396.63,0.18511
5390.84,0.18447
5385.06,0.18441
5379.27,0.18316
5373.48,0.18280
5367.7,0.18349
5361.91,0.18322
5356.13,0.18384
5350.34,0.18429
5344.55,0.18554
5338.77,0.18427
5332.98,0.18264
5327.19,0.18136
5321.41,0.18087
5315.62,0.17921
5309.84,0.17842
5304.05,0.17725
5298.26,0.17517
5292.48,0.17531
5286.69,0.17340
5280.9,0.17015
5275.12,0.16933
5269.33,0.16692
5263.55,0.16266
5257.76,0.15984
5251.97,0.15864
5246.19,0.15786
5240.4,0.15456
5234.61,0.15164
5228.83,0.15091
5223.04,0.15137
5217.26,0.14905
5211.47,0.14836
5205.68,0.14750
5199.9,0.14669
5194.11,0.14778
5188.32,0.14777
5182.54,0.14739
5176.75,0.14638
5170.97,0.14728
5165.18,0.14659
5159.39,0.14761
5153.61,0.14886
5147.82,0.14787
5142.03,0.14838
5136.25,0.15090
5130.46,0.15038
5124.68,0.15141
5118.89,0.15230
5113.1,0.15187
5107.32,0.15278
5101.53,0.15399
5095.75,0.15483
5089.96,0.15593
5084.17,0.15576
5078.39,0.15648
5072.6,0.15623
5066.81,0.15671
5061.03,0.15743
5055.24,0.15793
5049.46,0.15744
5043.67,0.15985
5037.88,0.16001
5032.1,0.15893
5026.31,0.16148
5020.52,0.16099
5014.74,0.16189
5008.95,0.16200
5003.17,0.16365
4997.38,0.16251
4991.59,0.16200
4985.81,0.16128
4980.02,0.16106
4974.23,0.16158
4968.45,0.16063
4962.66,0.16024
4956.88,0.16139
4951.09,0.16019
4945.3,0.15852
4939.52,0.15867
4933.73,0.15702
4927.94,0.15725
4922.16,0.15606
4916.37,0.15565
4910.59,0.15397
4904.8,0.15311
4899.01,0.15311
4893.23,0.15297
4887.44,0.15228
4881.65,0.15159
4875.87,0.15133
4870.08,0.15117
4864.3,0.15060
4858.51,0.14953
4852.72,0.14993
4846.94,0.14890
4841.15,0.14899
4835.36,0.14889
4829.58,0.14810
4823.79,0.14978
4818.01,0.14804
4812.22,0.14849
4806.43,0.14846
4800.65,0.14879
4794.86,0.14771
4789.07,0.14888
4783.29,0.14726
4777.5,0.14728
4771.72,0.14815
4765.93,0.14675
4760.14,0.14675
4754.36,0.14710
4748.57,0.14713
4742.78,0.14820
4737,0.14741
4731.21,0.14795
4725.43,0.14997
4719.64,0.14800
4713.85,0.14790
4708.07,0.14761
4702.28,0.14707
4696.49,0.14760
4690.71,0.14780
4684.92,0.14735
4679.14,0.14751
4673.35,0.14698
4667.56,0.14848
4661.78,0.14839
4655.99,0.14888
4650.2,0.15024
4644.42,0.14922
4638.63,0.15066
4632.85,0.15043
4627.06,0.15129
4621.27,0.15213
4615.49,0.15166
4609.7,0.15163
4603.92,0.15268
4598.13,0.15336
4592.34,0.15380
4586.56,0.15403
4580.77,0.15355
4574.98,0.15409
4569.2,0.15440
4563.41,0.15402
4557.63,0.15469
4551.84,0.15507
4546.05,0.15449
4540.27,0.15559
4534.48,0.15559
4528.69,0.15528
4522.91,0.15478
4517.12,0.15489
4511.34,0.15465
4505.55,0.15553
4499.76,0.15524
4493.98,0.15452
4488.19,0.15378
4482.4,0.15166
4476.62,0.15114
4470.83,0.14893
4465.05,0.14686
4459.26,0.14442
4453.47,0.14281
4447.69,0.14128
4441.9,0.13901
4436.11,0.13745
4430.33,0.13649
4424.54,0.13470
4418.76,0.13566
4412.97,0.13425
4407.18,0.13384
4401.4,0.13356
4395.61,0.13339
4389.82,0.13437
4384.04,0.13359
4378.25,0.13364
4372.47,0.13452
4366.68,0.13399
4360.89,0.13283
4355.11,0.13277
4349.32,0.13146
4343.53,0.13099
4337.75,0.13001
4331.96,0.12940
4326.18,0.12931
4320.39,0.12975
4314.6,0.13074
4308.82,0.13144
4303.03,0.13139
4297.24,0.13127
4291.46,0.13069
4285.67,0.13139
4279.89,0.13097
4274.1,0.13076
4268.31,0.12913
4262.53,0.12959
4256.74,0.12916
4250.95,0.12976
4245.17,0.13134
4239.38,0.13262
4233.6,0.13239
4227.81,0.13389
4222.02,0.13315
4216.24,0.13424
4210.45,0.13442
4204.66,0.13454
4198.88,0.13388
4193.09,0.13378
4187.31,0.13355
4181.52,0.13438
4175.73,0.13476
4169.95,0.13460
4164.16,0.13443
4158.37,0.13390
4152.59,0.13339
4146.8,0.13259
4141.02,0.13260
4135.23,0.13149
4129.44,0.13135
4123.66,0.13131
4117.87,0.13066
4112.09,0.12914
4106.3,0.12868
4100.51,0.12808
4094.73,0.12665
4088.94,0.12696
4083.15,0.12504
4077.37,0.12398
4071.58,0.12294
4065.8,0.12206
4060.01,0.12126
4054.22,0.12095
4048.44,0.11918
4042.65,0.11849
4036.86,0.11801
4031.08,0.11734
4025.29,0.11702
4019.51,0.11671
4013.72,0.11667
4007.93,0.11704
4002.15,0.11702
3996.36,0.11698
3990.57,0.11723
3984.79,0.11796
3979,0.11773
3973.22,0.11795
3967.43,0.11822
3961.64,0.11952
3955.86,0.11974
3950.07,0.12062
3944.28,0.12144
3938.5,0.12181
3932.71,0.12270
3926.93,0.12316
3921.14,0.12412
3915.35,0.12461
3909.57,0.12499
3903.78,0.12666
3897.99,0.12701
3892.21,0.12763
3886.42,0.12877
3880.64,0.12968
3874.85,0.12931
3869.06,0.13075
3863.28,0.13143
3857.49,0.13150
3851.7,0.13280
3845.92,0.13316
3840.13,0.13332
3834.35,0.13384
3828.56,0.13435
3822.77,0.13443
3816.99,0.13417
3811.2,0.13510
3805.41,0.13509
3799.63,0.13440
3793.84,0.13460
3788.06,0.13358
3782.27,0.13378
3776.48,0.13263
3770.7,0.13198
3764.91,0.13178
3759.12,0.13085
3753.34,0.13007
3747.55,0.12984
3741.77,0.12940
3735.98,0.12833
3730.19,0.12687
3724.41,0.12539
3718.62,0.12284
3712.83,0.12062
3707.05,0.11768
3701.26,0.11494
3695.48,0.11145
3689.69,0.10669
3683.9,0.10137
3678.12,0.09079
3672.33,0.08784
3666.54,0.08576
3660.76,0.08129
3654.97,0.07817
3649.19,0.07548
3643.4,0.07293
3637.61,0.07008
3631.83,0.06886
3626.04,0.06675
3620.25,0.06491
3614.47,0.06319
3608.68,0.06130
3602.9,0.06046
3597.11,0.05951
3591.32,0.05870
3585.54,0.05710
3579.75,0.05682
3573.97,0.05625
3568.18,0.05640
3562.39,0.05540
3556.61,0.05456
3550.82,0.05421
3545.03,0.05306
3539.25,0.05290
3533.46,0.05280
3527.68,0.05205
3521.89,0.05236
3516.1,0.05252
3510.32,0.05249
3504.53,0.05227
3498.74,0.05237
3492.96,0.05156
3487.17,0.05115
3481.39,0.05137
3475.6,0.05129
3469.81,0.05165
3464.03,0.05160
3458.24,0.05161
3452.45,0.05118
3446.67,0.05176
3440.88,0.05146
3435.1,0.05146
3429.31,0.05155
3423.52,0.05142
3417.74,0.05136
3411.95,0.05140
3406.16,0.05153
3400.38,0.05189
3394.59,0.05151
3388.81,0.05213
3383.02,0.05207
3377.23,0.05158
3371.45,0.05147
3365.66,0.05119
3359.87,0.05211
3354.09,0.05240
3348.3,0.05172
3342.52,0.05152
3336.73,0.05175
3330.94,0.05231
3325.16,0.05210
3319.37,0.05191
3313.58,0.05279
3307.8,0.05276
3302.01,0.05233
3296.23,0.05206
3290.44,0.05326
3284.65,0.05306
3278.87,0.05328
3273.08,0.05339
3267.29,0.05346
3261.51,0.05395
3255.72,0.05368
3249.94,0.05429
3244.15,0.05451
3238.36,0.05450
3232.58,0.05480
3226.79,0.05502
3221,0.05489
3215.22,0.05522
3209.43,0.05554
3203.65,0.05561
3197.86,0.05680
3192.07,0.05635
3186.29,0.05685
3180.5,0.05692
3174.71,0.05762
3168.93,0.05705
3163.14,0.05783
3157.36,0.05823
3151.57,0.05917
3145.78,0.05912
3140,0.05882
3134.21,0.05892
3128.42,0.05968
3122.64,0.06025
3116.85,0.05946
3111.07,0.05969
3105.28,0.06007
3099.49,0.06080
3093.71,0.06093
3087.92,0.06023
3082.14,0.06026
3076.35,0.06038
3070.56,0.06081
3064.78,0.06143
3058.99,0.06112
3053.2,0.06146
3047.42,0.06172
3041.63,0.06149
3035.85,0.06121
3030.06,0.06099
3024.27,0.06107
3018.49,0.06063
3012.7,0.05966
3006.91,0.05879
3001.13,0.05800
2995.34,0.05719
2989.56,0.05685
2983.77,0.05551
2977.98,0.05491
2972.2,0.05341
2966.41,0.05300
2960.62,0.05210
2954.84,0.05283
2949.05,0.05199
2943.27,0.05192
2937.48,0.05158
2931.69,0.05229
2925.91,0.05383
2920.12,0.05482
2914.33,0.05543
2908.55,0.05549
2902.76,0.05566
2896.98,0.05568
2891.19,0.05642
2885.4,0.05661
2879.62,0.05635
2873.83,0.05579
2868.04,0.05618
2862.26,0.05583
2856.47,0.05643
2850.69,0.05782
2844.9,0.05945
2839.11,0.06093
2833.33,0.06261
2827.54,0.06439
2821.75,0.06522
2815.97,0.06654
2810.18,0.06741
2804.4,0.06810
2798.61,0.06903
2792.82,0.06924
2787.04,0.06997
2781.25,0.07116
2775.46,0.07160
2769.68,0.07195
2763.89,0.07225
2758.11,0.07241
2752.32,0.07271
2746.53,0.07293
2740.75,0.07325
2734.96,0.07364
2729.17,0.07373
2723.39,0.07455
2717.6,0.07460
2711.82,0.07540
2706.03,0.07577
2700.24,0.07664
2694.46,0.07670
2688.67,0.07710
2682.88,0.07730
2677.1,0.07783
2671.31,0.07785
2665.53,0.07805
2659.74,0.07810
2653.95,0.07823
2648.17,0.07914
2642.38,0.07966
2636.59,0.08011
2630.81,0.08074
2625.02,0.08123
2619.24,0.08160
2613.45,0.08211
2607.66,0.08266
2601.88,0.08339
2596.09,0.08340
2590.3,0.08406
2584.52,0.08459
2578.73,0.08365
2572.95,0.08383
2567.16,0.08331
2561.37,0.08278
2555.59,0.08311
2549.8,0.08313
2544.02,0.08429
2538.23,0.08526
2532.44,0.08598
2526.66,0.08729
2520.87,0.08847
2515.08,0.08880
2509.3,0.09030
2503.51,0.09040
2497.73,0.09161
2491.94,0.09237
2486.15,0.09324
2480.37,0.09408
2474.58,0.09484
2468.79,0.09574
2463.01,0.09646
2457.22,0.09645
2451.44,0.09718
2445.65,0.09751
2439.86,0.09799
2434.08,0.09846
2428.29,0.09887
2422.5,0.09979
2416.72,0.10031
2410.93,0.10093
2405.15,0.10144
2399.36,0.10195
2393.57,0.10274
2387.79,0.10295
2382,0.10374
2376.21,0.10400
2370.43,0.10491
2364.64,0.10553
2358.86,0.10613
2353.07,0.10626
2347.28,0.10660
2341.5,0.10667
2335.71,0.10666
2329.92,0.10775
2324.14,0.10841
2318.35,0.10882
2312.57,0.10836
2306.78,0.10796
2300.99,0.10814
2295.21,0.10806
2289.42,0.10814
2283.63,0.10773
2277.85,0.10748
2272.06,0.10706
2266.28,0.10652
2260.49,0.10611
2254.7,0.10530
2248.92,0.10527
2243.13,0.10469
2237.34,0.10432
2231.56,0.10427
2225.77,0.10420
2219.99,0.10431
2214.2,0.10381
2208.41,0.10368
2202.63,0.10272
2196.84,0.10239
2191.05,0.10166
2185.27,0.10067
2179.48,0.10002
2173.7,0.09875
2167.91,0.09759
2162.12,0.09650
2156.34,0.09563
2150.55,0.09528
2144.76,0.09447
2138.98,0.09417
2133.19,0.09436
2127.41,0.09488
2121.62,0.09482
2115.83,0.09515
2110.05,0.09538
2104.26,0.09581
2098.47,0.09605
2092.69,0.09700
2086.9,0.09701
2081.12,0.09719
2075.33,0.09716
2069.54,0.09722
2063.76,0.09730
2057.97,0.09745
2052.19,0.09794
2046.4,0.09807
2040.61,0.09837
2034.83,0.09850
2029.04,0.09866
2023.25,0.09951
2017.47,0.10036
2011.68,0.10070
2005.9,0.10067
2000.11,0.10036
1994.32,0.10038
1988.54,0.10062
1982.75,0.10039
1976.96,0.10064
1971.18,0.10017
1965.39,0.09957
1959.61,0.09898
1953.82,0.09888
1948.03,0.09925
1942.25,0.10058
1936.46,0.10220
1930.67,0.10316
1924.89,0.10366
1919.1,0.10455
1913.32,0.10439
1907.53,0.10474
1901.74,0.10482
1895.96,0.10463
1890.17,0.10379
1884.38,0.10299
1878.6,0.10215
1872.81,0.10087
1867.03,0.09947
1861.24,0.09766
1855.45,0.09529
1849.67,0.09395
1843.88,0.09207
1838.09,0.09066
1832.31,0.08926
1826.52,0.08681
1820.74,0.08440
1814.95,0.08170
1809.16,0.07877
1803.38,0.07513
1797.59,0.07108
1791.8,0.06669
1786.02,0.06230
1780.23,0.05784
1774.45,0.05285
1768.66,0.04723
1762.87,0.04227
1757.09,0.03822
1751.3,0.03611
1745.51,0.03681
1739.73,0.03976
1733.94,0.04446
1728.16,0.04994
1722.37,0.05430
1716.58,0.05630
1710.8,0.05657
1705.01,0.05520
1699.22,0.05313
1693.44,0.04954
1687.65,0.04605
1681.87,0.04204
1676.08,0.04113
1670.29,0.04256
1664.51,0.04735
1658.72,0.05228
1652.93,0.05690
1647.15,0.06108
1641.36,0.06455
1635.58,0.06669
1629.79,0.06634
1624,0.06464
1618.22,0.06345
1612.43,0.06207
1606.64,0.06042
1600.86,0.05814
1595.07,0.05960
1589.29,0.06052
1583.5,0.05859
1577.71,0.06004
1571.93,0.06388
1566.14,0.06600
1560.35,0.06764
1554.57,0.07033
1548.78,0.07301
1543,0.07252
1537.21,0.06711
1531.42,0.06525
1525.64,0.06457
1519.85,0.06286
1514.07,0.06099
1508.28,0.06044
1502.49,0.05852
1496.71,0.05671
1490.92,0.05478
1485.13,0.05534
1479.35,0.05483
1473.56,0.05178
1467.78,0.04882
1461.99,0.04862
1456.2,0.04906
1450.42,0.04982
1444.63,0.05156
1438.84,0.05252
1433.06,0.05276
1427.27,0.05189
1421.49,0.04980
1415.7,0.04970
1409.91,0.04887
1404.13,0.04823
1398.34,0.04738
1392.55,0.04674
1386.77,0.04552
1380.98,0.04466
1375.2,0.04525
1369.41,0.04512
1363.62,0.04488
1357.84,0.04385
1352.05,0.04317
1346.26,0.04207
1340.48,0.04063
1334.69,0.03932
1328.91,0.03811
1323.12,0.03730
1317.33,0.03608
1311.55,0.03468
1305.76,0.03407
1299.97,0.03461
1294.19,0.03828
1288.4,0.04957
1282.62,0.06696
1276.83,0.08174
1271.04,0.07791
1265.26,0.07140
1259.47,0.06928
1253.68,0.06875
1247.9,0.06725
1242.11,0.06523
1236.33,0.06293
1230.54,0.06121
1224.75,0.05901
1218.97,0.05741
1213.18,0.05611
1207.39,0.05524
1201.61,0.05415
1195.82,0.05274
1190.04,0.05139
1184.25,0.04968
1178.46,0.04803
1172.68,0.04665
1166.89,0.04588
1161.1,0.04592
1155.32,0.04562
1149.53,0.04594
1143.75,0.04708
1137.96,0.04897
1132.17,0.05030
1126.39,0.05281
1120.6,0.05542
1114.81,0.05720
1109.03,0.05657
1103.24,0.05478
1097.46,0.05299
1091.67,0.05187
1085.88,0.05116
1080.1,0.05410
1074.31,0.06087
1068.52,0.06674
1062.74,0.06938
1056.95,0.07052
1051.17,0.06945
1045.38,0.06768
1039.59,0.06898
1033.81,0.06940
1028.02,0.06999
1022.24,0.07116
1016.45,0.07080
1010.66,0.06963
1004.88,0.06891
999.09,0.06882
993.304,0.06925
987.518,0.07016
981.731,0.07080
975.945,0.07051
970.159,0.07045
964.373,0.07043
958.586,0.07032
952.8,0.06923
947.014,0.06829
941.228,0.06743
935.441,0.06688
929.655,0.06590
923.869,0.06393
918.083,0.06409
912.297,0.06346
906.51,0.06175
900.724,0.05990
894.938,0.05855
889.152,0.05769
883.365,0.05632
877.579,0.05498
871.793,0.05424
866.007,0.05459
860.22,0.05551
854.434,0.05832
848.648,0.06202
842.862,0.06772
837.075,0.07231
831.289,0.07522
825.503,0.07549
819.717,0.07503
813.931,0.07287
808.144,0.07104
802.358,0.06935
796.572,0.06781
790.786,0.06578
784.999,0.06481
779.213,0.06424
773.427,0.06315
767.641,0.06141
761.854,0.05923
756.068,0.05738
750.282,0.05902
744.496,0.06369
738.709,0.06690
732.923,0.06622
727.137,0.06456
721.351,0.06275
715.565,0.06083
709.778,0.06108
703.992,0.06340
698.206,0.06428
692.42,0.06425
686.633,0.06487
680.847,0.06383
675.061,0.06568
669.275,0.06564
663.488,0.06304
657.702,0.06094
651.916,0.06040
646.13,0.06062
640.343,0.05848
634.557,0.05755
628.771,0.05801
622.985,0.05961
617.198,0.05977
611.412,0.05899
605.626,0.05831
599.84,0.05770