File: 01_Data/Engineered_Wood_Furniture/FTIR/IS/Engineered_Wood_Furniture_IS_S_221005_R7.dpt
7497.03,0.17859
7491.25,0.17211
7485.46,0.17439
7479.67,0.18059
7473.89,0.18554
7468.1,0.17945
7462.32,0.17974
7456.53,0.16954
7450.74,0.16884
7444.96,0.17887
7439.17,0.17837
7433.38,0.18369
7427.6,0.17590
7421.81,0.17760
7416.03,0.17169
7410.24,0.17400
7404.45,0.17356
7398.67,0.17428
7392.88,0.17185
7387.09,0.17883
7381.31,0.17337
7375.52,0.17581
7369.74,0.17591
7363.95,0.17091
7358.16,0.17835
7352.38,0.17326
7346.59,0.17154
7340.8,0.17400
7335.02,0.17053
7329.23,0.16877
7323.45,0.16608
7317.66,0.17526
7311.87,0.17105
7306.09,0.17523
7300.3,0.17223
7294.51,0.17819
7288.73,0.17535
7282.94,0.16986
7277.16,0.18084
7271.37,0.17120
7265.58,0.17412
7259.8,0.17383
7254.01,0.17448
7248.22,0.17122
7242.44,0.17824
7236.65,0.17600
7230.87,0.16866
7225.08,0.17059
7219.29,0.16991
7213.51,0.17105
7207.72,0.16932
7201.93,0.17147
7196.15,0.17193
7190.36,0.16709
7184.58,0.16601
7178.79,0.17535
7173,0.16871
7167.22,0.16993
7161.43,0.16985
7155.65,0.17434
7149.86,0.17215
7144.07,0.16544
7138.29,0.17421
7132.5,0.17656
7126.71,0.17620
7120.93,0.17071
7115.14,0.17113
7109.36,0.16984
7103.57,0.16480
7097.78,0.16983
7092,0.16713
7086.21,0.16837
7080.42,0.16675
7074.64,0.16839
7068.85,0.16463
7063.07,0.15922
7057.28,0.16397
7051.49,0.16228
7045.71,0.15919
7039.92,0.16475
7034.13,0.16549
7028.35,0.16429
7022.56,0.16584
7016.78,0.16321
7010.99,0.16108
7005.2,0.15783
6999.42,0.15356
6993.63,0.16102
6987.84,0.15408
6982.06,0.15483
6976.27,0.16276
6970.49,0.16391
6964.7,0.16337
6958.91,0.15999
6953.13,0.15756
6947.34,0.15550
6941.55,0.15678
6935.77,0.16102
6929.98,0.16112
6924.2,0.15788
6918.41,0.15682
6912.62,0.15272
6906.84,0.15139
6901.05,0.15701
6895.26,0.16212
6889.48,0.15936
6883.69,0.15665
6877.91,0.15765
6872.12,0.15563
6866.33,0.15692
6860.55,0.15396
6854.76,0.15338
6848.97,0.15666
6843.19,0.15738
6837.4,0.15526
6831.62,0.15861
6825.83,0.15751
6820.04,0.15702
6814.26,0.15115
6808.47,0.15722
6802.68,0.15938
6796.9,0.15812
6791.11,0.16075
6785.33,0.15804
6779.54,0.16035
6773.75,0.15729
6767.97,0.15707
6762.18,0.15696
6756.39,0.15967
6750.61,0.15379
6744.82,0.16218
6739.04,0.15311
6733.25,0.15849
6727.46,0.16072
6721.68,0.15783
6715.89,0.15760
6710.1,0.15281
6704.32,0.15677
6698.53,0.15712
6692.75,0.16266
6686.96,0.15920
6681.17,0.16142
6675.39,0.15795
6669.6,0.15759
6663.82,0.16025
6658.03,0.16090
6652.24,0.16048
6646.46,0.16006
6640.67,0.15878
6634.88,0.15798
6629.1,0.16027
6623.31,0.16036
6617.53,0.16201
6611.74,0.16013
6605.95,0.16190
6600.17,0.16419
6594.38,0.15552
6588.59,0.16229
6582.81,0.16034
6577.02,0.16377
6571.24,0.16026
6565.45,0.16520
6559.66,0.16404
6553.88,0.15963
6548.09,0.16218
6542.3,0.16430
6536.52,0.16630
6530.73,0.16464
6524.95,0.16856
6519.16,0.16589
6513.37,0.16263
6507.59,0.16589
6501.8,0.16747
6496.01,0.16078
6490.23,0.16492
6484.44,0.16724
6478.66,0.16798
6472.87,0.16879
6467.08,0.16750
6461.3,0.16555
6455.51,0.16246
6449.72,0.16521
6443.94,0.16474
6438.15,0.16547
6432.37,0.16370
6426.58,0.16779
6420.79,0.16530
6415.01,0.16552
6409.22,0.16654
6403.43,0.16693
6397.65,0.16654
6391.86,0.16880
6386.08,0.16697
6380.29,0.16818
6374.5,0.16775
6368.72,0.16686
6362.93,0.16581
6357.14,0.16601
6351.36,0.16513
6345.57,0.16778
6339.79,0.17278
6334,0.17052
6328.21,0.17107
6322.43,0.16609
6316.64,0.16745
6310.85,0.16846
6305.07,0.16912
6299.28,0.17146
6293.5,0.16757
6287.71,0.16616
6281.92,0.17076
6276.14,0.17081
6270.35,0.16836
6264.56,0.17202
6258.78,0.17204
6252.99,0.17320
6247.21,0.16860
6241.42,0.17424
6235.63,0.17213
6229.85,0.17244
6224.06,0.17310
6218.27,0.16961
6212.49,0.17466
6206.7,0.17443
6200.92,0.17132
6195.13,0.17274
6189.34,0.17709
6183.56,0.17486
6177.77,0.17340
6171.98,0.17620
6166.2,0.17750
6160.41,0.17702
6154.63,0.17317
6148.84,0.17941
6143.05,0.17410
6137.27,0.17516
6131.48,0.17640
6125.7,0.17833
6119.91,0.17790
6114.12,0.17483
6108.34,0.17580
6102.55,0.17920
6096.76,0.17606
6090.98,0.17807
6085.19,0.17818
6079.41,0.17992
6073.62,0.17889
6067.83,0.17749
6062.05,0.17543
6056.26,0.17672
6050.47,0.17531
6044.69,0.17551
6038.9,0.17760
6033.12,0.17597
6027.33,0.17456
6021.54,0.17566
6015.76,0.17434
6009.97,0.17266
6004.18,0.17456
5998.4,0.16996
5992.61,0.17480
5986.83,0.17332
5981.04,0.17461
5975.25,0.17187
5969.47,0.17310
5963.68,0.17407
5957.89,0.17436
5952.11,0.17071
5946.32,0.17421
5940.54,0.17271
5934.75,0.17620
5928.96,0.17456
5923.18,0.17260
5917.39,0.17480
5911.6,0.17486
5905.82,0.17107
5900.03,0.17393
5894.25,0.17378
5888.46,0.17332
5882.67,0.17186
5876.89,0.17093
5871.1,0.17213
5865.31,0.16974
5859.53,0.17543
5853.74,0.17009
5847.96,0.17095
5842.17,0.17420
5836.38,0.17391
5830.6,0.17300
5824.81,0.17238
5819.02,0.17133
5813.24,0.17193
5807.45,0.17091
5801.67,0.17317
5795.88,0.17282
5790.09,0.16956
5784.31,0.17079
5778.52,0.17188
5772.73,0.17541
5766.95,0.17327
5761.16,0.17249
5755.38,0.17384
5749.59,0.17561
5743.8,0.17496
5738.02,0.17512
5732.23,0.17548
5726.44,0.17421
5720.66,0.17577
5714.87,0.17522
5709.09,0.17363
5703.3,0.17502
5697.51,0.17401
5691.73,0.17580
5685.94,0.17329
5680.15,0.17592
5674.37,0.17721
5668.58,0.17545
5662.8,0.17481
5657.01,0.17501
5651.22,0.17733
5645.44,0.17613
5639.65,0.17654
5633.87,0.17815
5628.08,0.17745
5622.29,0.17676
5616.51,0.17713
5610.72,0.17727
5604.93,0.17703
5599.15,0.17682
5593.36,0.17956
5587.58,0.17761
5581.79,0.17831
5576,0.17863
5570.22,0.17807
5564.43,0.17866
5558.64,0.17958
5552.86,0.17862
5547.07,0.18116
5541.29,0.17855
5535.5,0.17941
5529.71,0.18168
5523.93,0.18006
5518.14,0.18146
5512.35,0.17997
5506.57,0.17940
5500.78,0.18070
5495,0.18043
5489.21,0.18247
5483.42,0.18176
5477.64,0.18211
5471.85,0.18186
5466.06,0.18288
5460.28,0.18131
5454.49,0.18209
5448.71,0.18338
5442.92,0.18385
5437.13,0.18388
5431.35,0.18443
5425.56,0.18405
5419.77,0.18441
5413.99,0.18402
5408.2,0.18464
5402.42,0.18403
5396.63,0.18518
5390.84,0.18488
5385.06,0.18570
5379.27,0.18595
5373.48,0.18558
5367.7,0.18538
5361.91,0.18458
5356.13,0.18390
5350.34,0.18462
5344.55,0.18472
5338.77,0.18478
5332.98,0.18366
5327.19,0.18355
5321.41,0.18419
5315.62,0.18375
5309.84,0.18170
5304.05,0.17931
5298.26,0.17874
5292.48,0.17728
5286.69,0.17586
5280.9,0.17192
5275.12,0.16825
5269.33,0.16709
5263.55,0.16476
5257.76,0.16073
5251.97,0.15971
5246.19,0.15720
5240.4,0.15535
5234.61,0.15406
5228.83,0.15268
5223.04,0.15260
5217.26,0.15071
5211.47,0.14963
5205.68,0.14918
5199.9,0.14894
5194.11,0.14949
5188.32,0.14919
5182.54,0.14855
5176.75,0.14812
5170.97,0.14895
5165.18,0.14829
5159.39,0.14960
5153.61,0.15151
5147.82,0.15112
5142.03,0.15224
5136.25,0.15265
5130.46,0.15283
5124.68,0.15261
5118.89,0.15458
5113.1,0.15459
5107.32,0.15510
5101.53,0.15530
5095.75,0.15558
5089.96,0.15581
5084.17,0.15813
5078.39,0.15791
5072.6,0.15737
5066.81,0.15857
5061.03,0.15996
5055.24,0.15996
5049.46,0.16053
5043.67,0.16134
5037.88,0.16225
5032.1,0.16035
5026.31,0.16185
5020.52,0.16231
5014.74,0.16160
5008.95,0.16280
5003.17,0.16325
4997.38,0.16368
4991.59,0.16270
4985.81,0.16430
4980.02,0.16248
4974.23,0.16336
4968.45,0.16211
4962.66,0.16247
4956.88,0.16150
4951.09,0.16039
4945.3,0.16014
4939.52,0.15837
4933.73,0.15798
4927.94,0.15849
4922.16,0.15763
4916.37,0.15649
4910.59,0.15532
4904.8,0.15317
4899.01,0.15379
4893.23,0.15288
4887.44,0.15295
4881.65,0.15210
4875.87,0.15178
4870.08,0.15082
4864.3,0.15187
4858.51,0.14970
4852.72,0.15001
4846.94,0.15098
4841.15,0.15138
4835.36,0.14985
4829.58,0.14915
4823.79,0.14812
4818.01,0.14873
4812.22,0.14914
4806.43,0.14952
4800.65,0.14874
4794.86,0.14896
4789.07,0.14888
4783.29,0.14782
4777.5,0.14879
4771.72,0.14793
4765.93,0.14812
4760.14,0.14776
4754.36,0.14810
4748.57,0.14837
4742.78,0.14945
4737,0.14896
4731.21,0.14872
4725.43,0.14836
4719.64,0.14791
4713.85,0.14874
4708.07,0.14929
4702.28,0.14861
4696.49,0.14705
4690.71,0.14710
4684.92,0.14767
4679.14,0.14834
4673.35,0.14808
4667.56,0.14795
4661.78,0.14881
4655.99,0.14966
4650.2,0.14995
4644.42,0.15006
4638.63,0.15128
4632.85,0.15164
4627.06,0.15157
4621.27,0.15129
4615.49,0.15274
4609.7,0.15385
4603.92,0.15312
4598.13,0.15422
4592.34,0.15391
4586.56,0.15451
4580.77,0.15496
4574.98,0.15473
4569.2,0.15521
4563.41,0.15506
4557.63,0.15625
4551.84,0.15623
4546.05,0.15644
4540.27,0.15672
4534.48,0.15626
4528.69,0.15627
4522.91,0.15710
4517.12,0.15660
4511.34,0.15675
4505.55,0.15733
4499.76,0.15595
4493.98,0.15568
4488.19,0.15415
4482.4,0.15328
4476.62,0.15177
4470.83,0.15039
4465.05,0.14811
4459.26,0.14577
4453.47,0.14457
4447.69,0.14124
4441.9,0.13993
4436.11,0.13738
4430.33,0.13629
4424.54,0.13512
4418.76,0.13493
4412.97,0.13506
4407.18,0.13401
4401.4,0.13428
4395.61,0.13384
4389.82,0.13396
4384.04,0.13472
4378.25,0.13474
4372.47,0.13351
4366.68,0.13393
4360.89,0.13358
4355.11,0.13351
4349.32,0.13178
4343.53,0.13082
4337.75,0.13045
4331.96,0.13033
4326.18,0.12921
4320.39,0.12959
4314.6,0.13101
4308.82,0.13161
4303.03,0.13188
4297.24,0.13202
4291.46,0.13230
4285.67,0.13200
4279.89,0.13077
4274.1,0.13046
4268.31,0.13069
4262.53,0.13045
4256.74,0.12933
4250.95,0.13009
4245.17,0.13138
4239.38,0.13210
4233.6,0.13426
4227.81,0.13399
4222.02,0.13434
4216.24,0.13534
4210.45,0.13436
4204.66,0.13433
4198.88,0.13425
4193.09,0.13464
4187.31,0.13454
4181.52,0.13533
4175.73,0.13513
4169.95,0.13522
4164.16,0.13500
4158.37,0.13407
4152.59,0.13345
4146.8,0.13308
4141.02,0.13309
4135.23,0.13272
4129.44,0.13200
4123.66,0.13158
4117.87,0.13145
4112.09,0.13045
4106.3,0.12948
4100.51,0.12906
4094.73,0.12833
4088.94,0.12709
4083.15,0.12661
4077.37,0.12473
4071.58,0.12359
4065.8,0.12280
4060.01,0.12141
4054.22,0.12028
4048.44,0.11995
4042.65,0.11914
4036.86,0.11875
4031.08,0.11780
4025.29,0.11774
4019.51,0.11766
4013.72,0.11706
4007.93,0.11788
4002.15,0.11772
3996.36,0.11851
3990.57,0.11805
3984.79,0.11825
3979,0.11884
3973.22,0.11962
3967.43,0.11897
3961.64,0.11975
3955.86,0.12063
3950.07,0.12152
3944.28,0.12202
3938.5,0.12262
3932.71,0.12353
3926.93,0.12369
3921.14,0.12498
3915.35,0.12607
3909.57,0.12682
3903.78,0.12748
3897.99,0.12784
3892.21,0.12901
3886.42,0.12935
3880.64,0.12983
3874.85,0.13003
3869.06,0.13130
3863.28,0.13229
3857.49,0.13307
3851.7,0.13340
3845.92,0.13443
3840.13,0.13510
3834.35,0.13505
3828.56,0.13531
3822.77,0.13577
3816.99,0.13540
3811.2,0.13536
3805.41,0.13582
3799.63,0.13609
3793.84,0.13517
3788.06,0.13548
3782.27,0.13499
3776.48,0.13411
3770.7,0.13381
3764.91,0.13317
3759.12,0.13216
3753.34,0.13165
3747.55,0.13116
3741.77,0.13009
3735.98,0.12859
3730.19,0.12756
3724.41,0.12674
3718.62,0.12426
3712.83,0.12209
3707.05,0.11950
3701.26,0.11633
3695.48,0.11318
3689.69,0.10900
3683.9,0.10282
3678.12,0.09164
3672.33,0.09007
3666.54,0.08668
3660.76,0.08272
3654.97,0.07949
3649.19,0.07645
3643.4,0.07401
3637.61,0.07106
3631.83,0.06924
3626.04,0.06750
3620.25,0.06542
3614.47,0.06440
3608.68,0.06294
3602.9,0.06144
3597.11,0.06068
3591.32,0.05919
3585.54,0.05902
3579.75,0.05729
3573.97,0.05658
3568.18,0.05598
3562.39,0.05511
3556.61,0.05459
3550.82,0.05445
3545.03,0.05373
3539.25,0.05331
3533.46,0.05299
3527.68,0.05253
3521.89,0.05280
3516.1,0.05237
3510.32,0.05217
3504.53,0.05194
3498.74,0.05189
3492.96,0.05146
3487.17,0.05150
3481.39,0.05151
3475.6,0.05152
3469.81,0.05220
3464.03,0.05171
3458.24,0.05128
3452.45,0.05167
3446.67,0.05137
3440.88,0.05145
3435.1,0.05154
3429.31,0.05168
3423.52,0.05149
3417.74,0.05119
3411.95,0.05115
3406.16,0.05112
3400.38,0.05205
3394.59,0.05133
3388.81,0.05159
3383.02,0.05166
3377.23,0.05140
3371.45,0.05218
3365.66,0.05217
3359.87,0.05140
3354.09,0.05163
3348.3,0.05148
3342.52,0.05243
3336.73,0.05245
3330.94,0.05202
3325.16,0.05267
3319.37,0.05220
3313.58,0.05221
3307.8,0.05276
3302.01,0.05256
3296.23,0.05251
3290.44,0.05284
3284.65,0.05261
3278.87,0.05324
3273.08,0.05322
3267.29,0.05308
3261.51,0.05423
3255.72,0.05418
3249.94,0.05417
3244.15,0.05421
3238.36,0.05497
3232.58,0.05488
3226.79,0.05548
3221,0.05554
3215.22,0.05599
3209.43,0.05588
3203.65,0.05619
3197.86,0.05617
3192.07,0.05648
3186.29,0.05713
3180.5,0.05740
3174.71,0.05717
3168.93,0.05801
3163.14,0.05778
3157.36,0.05846
3151.57,0.05824
3145.78,0.05908
3140,0.05895
3134.21,0.05935
3128.42,0.05999
3122.64,0.06006
3116.85,0.06024
3111.07,0.06018
3105.28,0.06036
3099.49,0.06073
3093.71,0.06058
3087.92,0.06085
3082.14,0.06049
3076.35,0.06060
3070.56,0.06089
3064.78,0.06100
3058.99,0.06129
3053.2,0.06128
3047.42,0.06185
3041.63,0.06181
3035.85,0.06178
3030.06,0.06086
3024.27,0.06146
3018.49,0.06030
3012.7,0.05982
3006.91,0.05883
3001.13,0.05839
2995.34,0.05795
2989.56,0.05728
2983.77,0.05558
2977.98,0.05476
2972.2,0.05388
2966.41,0.05307
2960.62,0.05307
2954.84,0.05263
2949.05,0.05232
2943.27,0.05107
2937.48,0.05136
2931.69,0.05236
2925.91,0.05369
2920.12,0.05564
2914.33,0.05542
2908.55,0.05558
2902.76,0.05569
2896.98,0.05601
2891.19,0.05644
2885.4,0.05627
2879.62,0.05574
2873.83,0.05572
2868.04,0.05597
2862.26,0.05624
2856.47,0.05636
2850.69,0.05767
2844.9,0.05941
2839.11,0.06078
2833.33,0.06245
2827.54,0.06411
2821.75,0.06545
2815.97,0.06673
2810.18,0.06765
2804.4,0.06812
2798.61,0.06939
2792.82,0.06971
2787.04,0.07012
2781.25,0.07094
2775.46,0.07168
2769.68,0.07174
2763.89,0.07226
2758.11,0.07270
2752.32,0.07326
2746.53,0.07318
2740.75,0.07298
2734.96,0.07329
2729.17,0.07366
2723.39,0.07442
2717.6,0.07489
2711.82,0.07506
2706.03,0.07602
2700.24,0.07650
2694.46,0.07651
2688.67,0.07746
2682.88,0.07751
2677.1,0.07783
2671.31,0.07850
2665.53,0.07853
2659.74,0.07866
2653.95,0.07880
2648.17,0.07896
2642.38,0.07966
2636.59,0.08044
2630.81,0.08080
2625.02,0.08185
2619.24,0.08205
2613.45,0.08205
2607.66,0.08272
2601.88,0.08342
2596.09,0.08365
2590.3,0.08432
2584.52,0.08435
2578.73,0.08435
2572.95,0.08389
2567.16,0.08326
2561.37,0.08291
2555.59,0.08283
2549.8,0.08316
2544.02,0.08390
2538.23,0.08557
2532.44,0.08686
2526.66,0.08780
2520.87,0.08843
2515.08,0.08917
2509.3,0.09034
2503.51,0.09114
2497.73,0.09161
2491.94,0.09278
2486.15,0.09367
2480.37,0.09451
2474.58,0.09552
2468.79,0.09598
2463.01,0.09633
2457.22,0.09700
2451.44,0.09724
2445.65,0.09814
2439.86,0.09813
2434.08,0.09868
2428.29,0.09950
2422.5,0.10021
2416.72,0.10086
2410.93,0.10130
2405.15,0.10217
2399.36,0.10301
2393.57,0.10320
2387.79,0.10370
2382,0.10403
2376.21,0.10498
2370.43,0.10542
2364.64,0.10583
2358.86,0.10632
2353.07,0.10702
2347.28,0.10769
2341.5,0.10776
2335.71,0.10740
2329.92,0.10782
2324.14,0.10883
2318.35,0.10881
2312.57,0.10905
2306.78,0.10918
2300.99,0.10873
2295.21,0.10868
2289.42,0.10847
2283.63,0.10861
2277.85,0.10861
2272.06,0.10822
2266.28,0.10754
2260.49,0.10688
2254.7,0.10613
2248.92,0.10580
2243.13,0.10548
2237.34,0.10536
2231.56,0.10493
2225.77,0.10496
2219.99,0.10485
2214.2,0.10476
2208.41,0.10466
2202.63,0.10382
2196.84,0.10310
2191.05,0.10243
2185.27,0.10180
2179.48,0.10058
2173.7,0.09968
2167.91,0.09856
2162.12,0.09742
2156.34,0.09651
2150.55,0.09575
2144.76,0.09516
2138.98,0.09518
2133.19,0.09514
2127.41,0.09521
2121.62,0.09569
2115.83,0.09580
2110.05,0.09619
2104.26,0.09702
2098.47,0.09745
2092.69,0.09777
2086.9,0.09821
2081.12,0.09844
2075.33,0.09854
2069.54,0.09818
2063.76,0.09856
2057.97,0.09843
2052.19,0.09845
2046.4,0.09890
2040.61,0.09952
2034.83,0.09980
2029.04,0.10031
2023.25,0.10060
2017.47,0.10101
2011.68,0.10169
2005.9,0.10208
2000.11,0.10181
1994.32,0.10122
1988.54,0.10101
1982.75,0.10131
1976.96,0.10106
1971.18,0.10087
1965.39,0.10011
1959.61,0.09917
1953.82,0.09940
1948.03,0.10047
1942.25,0.10168
1936.46,0.10297
1930.67,0.10432
1924.89,0.10446
1919.1,0.10524
1913.32,0.10549
1907.53,0.10590
1901.74,0.10594
1895.96,0.10517
1890.17,0.10468
1884.38,0.10346
1878.6,0.10254
1872.81,0.10195
1867.03,0.10032
1861.24,0.09838
1855.45,0.09609
1849.67,0.09365
1843.88,0.09285
1838.09,0.09086
1832.31,0.08932
1826.52,0.08742
1820.74,0.08488
1814.95,0.08229
1809.16,0.07919
1803.38,0.07544
1797.59,0.07124
1791.8,0.06703
1786.02,0.06281
1780.23,0.05751
1774.45,0.05300
1768.66,0.04732
1762.87,0.04244
1757.09,0.03835
1751.3,0.03601
1745.51,0.03638
1739.73,0.03981
1733.94,0.04452
1728.16,0.04990
1722.37,0.05404
1716.58,0.05660
1710.8,0.05700
1705.01,0.05558
1699.22,0.05289
1693.44,0.04956
1687.65,0.04598
1681.87,0.04211
1676.08,0.04087
1670.29,0.04244
1664.51,0.04746
1658.72,0.05243
1652.93,0.05684
1647.15,0.06106
1641.36,0.06470
1635.58,0.06705
1629.79,0.06614
1624,0.06460
1618.22,0.06368
1612.43,0.06216
1606.64,0.06031
1600.86,0.05831
1595.07,0.05977
1589.29,0.06047
1583.5,0.05895
1577.71,0.06010
1571.93,0.06376
1566.14,0.06583
1560.35,0.06811
1554.57,0.07099
1548.78,0.07334
1543,0.07304
1537.21,0.06734
1531.42,0.06555
1525.64,0.06492
1519.85,0.06300
1514.07,0.06106
1508.28,0.05996
1502.49,0.05894
1496.71,0.05704
1490.92,0.05507
1485.13,0.05576
1479.35,0.05475
1473.56,0.05154
1467.78,0.04880
1461.99,0.04879
1456.2,0.04935
1450.42,0.04988
1444.63,0.05135
1438.84,0.05273
1433.06,0.05273
1427.27,0.05234
1421.49,0.05043
1415.7,0.04950
1409.91,0.04951
1404.13,0.04817
1398.34,0.04760
1392.55,0.04694
1386.77,0.04565
1380.98,0.04487
1375.2,0.04484
1369.41,0.04546
1363.62,0.04513
1357.84,0.04450
1352.05,0.04345
1346.26,0.04246
1340.48,0.04072
1334.69,0.03889
1328.91,0.03800
1323.12,0.03703
1317.33,0.03583
1311.55,0.03444
1305.76,0.03378
1299.97,0.03413
1294.19,0.03780
1288.4,0.04938
1282.62,0.06731
1276.83,0.08180
1271.04,0.07824
1265.26,0.07127
1259.47,0.06941
1253.68,0.06879
1247.9,0.06744
1242.11,0.06544
1236.33,0.06295
1230.54,0.06108
1224.75,0.05907
1218.97,0.05726
1213.18,0.05596
1207.39,0.05501
1201.61,0.05409
1195.82,0.05268
1190.04,0.05106
1184.25,0.04975
1178.46,0.04809
1172.68,0.04597
1166.89,0.04550
1161.1,0.04532
1155.32,0.04611
1149.53,0.04622
1143.75,0.04691
1137.96,0.04900
1132.17,0.05016
1126.39,0.05260
1120.6,0.05506
1114.81,0.05731
1109.03,0.05631
1103.24,0.05453
1097.46,0.05249
1091.67,0.05185
1085.88,0.05165
1080.1,0.05487
1074.31,0.06057
1068.52,0.06614
1062.74,0.06922
1056.95,0.07015
1051.17,0.06962
1045.38,0.06819
1039.59,0.06874
1033.81,0.06996
1028.02,0.07041
1022.24,0.07057
1016.45,0.07132
1010.66,0.07039
1004.88,0.06888
999.09,0.06926
993.304,0.06964
987.518,0.06996
981.731,0.07047
975.945,0.07076
970.159,0.07057
964.373,0.07106
958.586,0.07021
952.8,0.06919
947.014,0.06844
941.228,0.06790
935.441,0.06629
929.655,0.06509
923.869,0.06444
918.083,0.06400
912.297,0.06281
906.51,0.06187
900.724,0.06004
894.938,0.05892
889.152,0.05857
883.365,0.05596
877.579,0.05488
871.793,0.05461
866.007,0.05449
860.22,0.05526
854.434,0.05842
848.648,0.06272
842.862,0.06830
837.075,0.07253
831.289,0.07478
825.503,0.07599
819.717,0.07526
813.931,0.07326
808.144,0.07182
802.358,0.06874
796.572,0.06748
790.786,0.06604
784.999,0.06465
779.213,0.06279
773.427,0.06326
767.641,0.06153
761.854,0.05926
756.068,0.05769
750.282,0.05942
744.496,0.06444
738.709,0.06726
732.923,0.06584
727.137,0.06472
721.351,0.06374
715.565,0.06057
709.778,0.06119
703.992,0.06260
698.206,0.06399
692.42,0.06369
686.633,0.06459
680.847,0.06406
675.061,0.06454
669.275,0.06596
663.488,0.06460
657.702,0.06242
651.916,0.06105
646.13,0.05932
640.343,0.05918
634.557,0.05863
628.771,0.05910
622.985,0.05804
617.198,0.05758
611.412,0.05900
605.626,0.05752
599.84,0.05859