File: 01_Data/Engineered_Wood_Furniture/FTIR/IS/Engineered_Wood_Furniture_IS_T_221005_R3.dpt
7497.03,0.02467
7491.25,0.02750
7485.46,0.01615
7479.67,0.02566
7473.89,0.02929
7468.1,0.02923
7462.32,0.02161
7456.53,0.01443
7450.74,0.01868
7444.96,0.02448
7439.17,0.02645
7433.38,0.02512
7427.6,0.02637
7421.81,0.02731
7416.03,0.03235
7410.24,0.02584
7404.45,0.03238
7398.67,0.02848
7392.88,0.01646
7387.09,0.01846
7381.31,0.02991
7375.52,0.02598
7369.74,0.01998
7363.95,0.02449
7358.16,0.03279
7352.38,0.02381
7346.59,0.02379
7340.8,0.02227
7335.02,0.02887
7329.23,0.02987
7323.45,0.02030
7317.66,0.02951
7311.87,0.02602
7306.09,0.02790
7300.3,0.02310
7294.51,0.02592
7288.73,0.02982
7282.94,0.02872
7277.16,0.02665
7271.37,0.01949
7265.58,0.02113
7259.8,0.02645
7254.01,0.01555
7248.22,0.02231
7242.44,0.02870
7236.65,0.02753
7230.87,0.02874
7225.08,0.02536
7219.29,0.02548
7213.51,0.02453
7207.72,0.02533
7201.93,0.01821
7196.15,0.02998
7190.36,0.02048
7184.58,0.02664
7178.79,0.02041
7173,0.03334
7167.22,0.01855
7161.43,0.02469
7155.65,0.02863
7149.86,0.02748
7144.07,0.02561
7138.29,0.02368
7132.5,0.02235
7126.71,0.01773
7120.93,0.02732
7115.14,0.02171
7109.36,0.02203
7103.57,0.02384
7097.78,0.01362
7092,0.02059
7086.21,0.02221
7080.42,0.01891
7074.64,0.02449
7068.85,0.02567
7063.07,0.02235
7057.28,0.02756
7051.49,0.02589
7045.71,0.02003
7039.92,0.02267
7034.13,0.01365
7028.35,0.01583
7022.56,0.01978
7016.78,0.02487
7010.99,0.02890
7005.2,0.02460
6999.42,0.02303
6993.63,0.02551
6987.84,0.02505
6982.06,0.02661
6976.27,0.02642
6970.49,0.02414
6964.7,0.02569
6958.91,0.02231
6953.13,0.01922
6947.34,0.02425
6941.55,0.02497
6935.77,0.02083
6929.98,0.02676
6924.2,0.01895
6918.41,0.02455
6912.62,0.02333
6906.84,0.01986
6901.05,0.02114
6895.26,0.02459
6889.48,0.02905
6883.69,0.02958
6877.91,0.02392
6872.12,0.02226
6866.33,0.02613
6860.55,0.01998
6854.76,0.02003
6848.97,0.02288
6843.19,0.02487
6837.4,0.02231
6831.62,0.02379
6825.83,0.02059
6820.04,0.02405
6814.26,0.01953
6808.47,0.02481
6802.68,0.02230
6796.9,0.02433
6791.11,0.02342
6785.33,0.02086
6779.54,0.02456
6773.75,0.02152
6767.97,0.02091
6762.18,0.02290
6756.39,0.02306
6750.61,0.02436
6744.82,0.02279
6739.04,0.02092
6733.25,0.01962
6727.46,0.02205
6721.68,0.01998
6715.89,0.02368
6710.1,0.02317
6704.32,0.02211
6698.53,0.02372
6692.75,0.02404
6686.96,0.02475
6681.17,0.02101
6675.39,0.02147
6669.6,0.02383
6663.82,0.01758
6658.03,0.02178
6652.24,0.02065
6646.46,0.02221
6640.67,0.02132
6634.88,0.02557
6629.1,0.02592
6623.31,0.02254
6617.53,0.02111
6611.74,0.02407
6605.95,0.02374
6600.17,0.02063
6594.38,0.01916
6588.59,0.02249
6582.81,0.02228
6577.02,0.02158
6571.24,0.02106
6565.45,0.02148
6559.66,0.01903
6553.88,0.02169
6548.09,0.02489
6542.3,0.02167
6536.52,0.02009
6530.73,0.02177
6524.95,0.02191
6519.16,0.02392
6513.37,0.02286
6507.59,0.02252
6501.8,0.02140
6496.01,0.02058
6490.23,0.02238
6484.44,0.02205
6478.66,0.02033
6472.87,0.01997
6467.08,0.02261
6461.3,0.02455
6455.51,0.02170
6449.72,0.02376
6443.94,0.02667
6438.15,0.02182
6432.37,0.01852
6426.58,0.01967
6420.79,0.02103
6415.01,0.02574
6409.22,0.02008
6403.43,0.02213
6397.65,0.02386
6391.86,0.02027
6386.08,0.02252
6380.29,0.02142
6374.5,0.02364
6368.72,0.02089
6362.93,0.01746
6357.14,0.02266
6351.36,0.02398
6345.57,0.02209
6339.79,0.02260
6334,0.02543
6328.21,0.02136
6322.43,0.02441
6316.64,0.02657
6310.85,0.02178
6305.07,0.02302
6299.28,0.01973
6293.5,0.02414
6287.71,0.02380
6281.92,0.02745
6276.14,0.02096
6270.35,0.02095
6264.56,0.02217
6258.78,0.02183
6252.99,0.02114
6247.21,0.02118
6241.42,0.01949
6235.63,0.02061
6229.85,0.01992
6224.06,0.02216
6218.27,0.02517
6212.49,0.02260
6206.7,0.02336
6200.92,0.02041
6195.13,0.02115
6189.34,0.01999
6183.56,0.02218
6177.77,0.02124
6171.98,0.02220
6166.2,0.02291
6160.41,0.02370
6154.63,0.01960
6148.84,0.02127
6143.05,0.01948
6137.27,0.02187
6131.48,0.02107
6125.7,0.02425
6119.91,0.02257
6114.12,0.02004
6108.34,0.02268
6102.55,0.02077
6096.76,0.01849
6090.98,0.01892
6085.19,0.02224
6079.41,0.02258
6073.62,0.02018
6067.83,0.02026
6062.05,0.02433
6056.26,0.01941
6050.47,0.02156
6044.69,0.02267
6038.9,0.02139
6033.12,0.02191
6027.33,0.02001
6021.54,0.02077
6015.76,0.02375
6009.97,0.02191
6004.18,0.02261
5998.4,0.02114
5992.61,0.02175
5986.83,0.02233
5981.04,0.01992
5975.25,0.01870
5969.47,0.01963
5963.68,0.02081
5957.89,0.01868
5952.11,0.02166
5946.32,0.01998
5940.54,0.02311
5934.75,0.02168
5928.96,0.02305
5923.18,0.02179
5917.39,0.02277
5911.6,0.01942
5905.82,0.02168
5900.03,0.02053
5894.25,0.02149
5888.46,0.02059
5882.67,0.02175
5876.89,0.02181
5871.1,0.02019
5865.31,0.02283
5859.53,0.02211
5853.74,0.01925
5847.96,0.02341
5842.17,0.02367
5836.38,0.01976
5830.6,0.02207
5824.81,0.02339
5819.02,0.02237
5813.24,0.02053
5807.45,0.02110
5801.67,0.02240
5795.88,0.02264
5790.09,0.01899
5784.31,0.02211
5778.52,0.02207
5772.73,0.02295
5766.95,0.02390
5761.16,0.02339
5755.38,0.02025
5749.59,0.02270
5743.8,0.02138
5738.02,0.02345
5732.23,0.02311
5726.44,0.02271
5720.66,0.02209
5714.87,0.02274
5709.09,0.02070
5703.3,0.02182
5697.51,0.02251
5691.73,0.02076
5685.94,0.02256
5680.15,0.02154
5674.37,0.02139
5668.58,0.02134
5662.8,0.02432
5657.01,0.02269
5651.22,0.02133
5645.44,0.02092
5639.65,0.02145
5633.87,0.02149
5628.08,0.02077
5622.29,0.02129
5616.51,0.02119
5610.72,0.02030
5604.93,0.02064
5599.15,0.02280
5593.36,0.02308
5587.58,0.02253
5581.79,0.02174
5576,0.02139
5570.22,0.02282
5564.43,0.02186
5558.64,0.02377
5552.86,0.02173
5547.07,0.02192
5541.29,0.02129
5535.5,0.02147
5529.71,0.02176
5523.93,0.02255
5518.14,0.02086
5512.35,0.02109
5506.57,0.02155
5500.78,0.02006
5495,0.02259
5489.21,0.02297
5483.42,0.02243
5477.64,0.02210
5471.85,0.02234
5466.06,0.02264
5460.28,0.02211
5454.49,0.02125
5448.71,0.02035
5442.92,0.02172
5437.13,0.02200
5431.35,0.02106
5425.56,0.02209
5419.77,0.02144
5413.99,0.02306
5408.2,0.02330
5402.42,0.02040
5396.63,0.02144
5390.84,0.02166
5385.06,0.02376
5379.27,0.02285
5373.48,0.02210
5367.7,0.02281
5361.91,0.02158
5356.13,0.02227
5350.34,0.02169
5344.55,0.02318
5338.77,0.02162
5332.98,0.02272
5327.19,0.02255
5321.41,0.02232
5315.62,0.02195
5309.84,0.02138
5304.05,0.02088
5298.26,0.02048
5292.48,0.02187
5286.69,0.02322
5280.9,0.02266
5275.12,0.02261
5269.33,0.02233
5263.55,0.02189
5257.76,0.02244
5251.97,0.02180
5246.19,0.02134
5240.4,0.02300
5234.61,0.02164
5228.83,0.02173
5223.04,0.02236
5217.26,0.02245
5211.47,0.02264
5205.68,0.02107
5199.9,0.02236
5194.11,0.02280
5188.32,0.02100
5182.54,0.02256
5176.75,0.02170
5170.97,0.02230
5165.18,0.02202
5159.39,0.02243
5153.61,0.02277
5147.82,0.02170
5142.03,0.02144
5136.25,0.02187
5130.46,0.02054
5124.68,0.02215
5118.89,0.02282
5113.1,0.02115
5107.32,0.02217
5101.53,0.02175
5095.75,0.02203
5089.96,0.02202
5084.17,0.02286
5078.39,0.02210
5072.6,0.02197
5066.81,0.02363
5061.03,0.02107
5055.24,0.02144
5049.46,0.02187
5043.67,0.02239
5037.88,0.02308
5032.1,0.02219
5026.31,0.02203
5020.52,0.02151
5014.74,0.02224
5008.95,0.02239
5003.17,0.02205
4997.38,0.02164
4991.59,0.02278
4985.81,0.02225
4980.02,0.02257
4974.23,0.02153
4968.45,0.02242
4962.66,0.02191
4956.88,0.02116
4951.09,0.02198
4945.3,0.02175
4939.52,0.02226
4933.73,0.02232
4927.94,0.02180
4922.16,0.02222
4916.37,0.02229
4910.59,0.02211
4904.8,0.02253
4899.01,0.02191
4893.23,0.02119
4887.44,0.02255
4881.65,0.02288
4875.87,0.02283
4870.08,0.02271
4864.3,0.02198
4858.51,0.02277
4852.72,0.02065
4846.94,0.02159
4841.15,0.02075
4835.36,0.02230
4829.58,0.02199
4823.79,0.02235
4818.01,0.02184
4812.22,0.02171
4806.43,0.02190
4800.65,0.02240
4794.86,0.02307
4789.07,0.02249
4783.29,0.02265
4777.5,0.02288
4771.72,0.02238
4765.93,0.02272
4760.14,0.02269
4754.36,0.02218
4748.57,0.02202
4742.78,0.02216
4737,0.02272
4731.21,0.02209
4725.43,0.02195
4719.64,0.02263
4713.85,0.02221
4708.07,0.02235
4702.28,0.02236
4696.49,0.02167
4690.71,0.02208
4684.92,0.02238
4679.14,0.02149
4673.35,0.02219
4667.56,0.02225
4661.78,0.02204
4655.99,0.02263
4650.2,0.02198
4644.42,0.02289
4638.63,0.02224
4632.85,0.02304
4627.06,0.02261
4621.27,0.02159
4615.49,0.02255
4609.7,0.02168
4603.92,0.02137
4598.13,0.02222
4592.34,0.02191
4586.56,0.02262
4580.77,0.02222
4574.98,0.02266
4569.2,0.02283
4563.41,0.02222
4557.63,0.02246
4551.84,0.02207
4546.05,0.02233
4540.27,0.02224
4534.48,0.02146
4528.69,0.02114
4522.91,0.02231
4517.12,0.02239
4511.34,0.02166
4505.55,0.02256
4499.76,0.02175
4493.98,0.02283
4488.19,0.02304
4482.4,0.02273
4476.62,0.02236
4470.83,0.02258
4465.05,0.02197
4459.26,0.02211
4453.47,0.02316
4447.69,0.02305
4441.9,0.02245
4436.11,0.02241
4430.33,0.02219
4424.54,0.02159
4418.76,0.02193
4412.97,0.02239
4407.18,0.02201
4401.4,0.02210
4395.61,0.02240
4389.82,0.02162
4384.04,0.02241
4378.25,0.02304
4372.47,0.02231
4366.68,0.02203
4360.89,0.02258
4355.11,0.02220
4349.32,0.02312
4343.53,0.02214
4337.75,0.02302
4331.96,0.02238
4326.18,0.02312
4320.39,0.02258
4314.6,0.02186
4308.82,0.02171
4303.03,0.02210
4297.24,0.02266
4291.46,0.02230
4285.67,0.02210
4279.89,0.02238
4274.1,0.02140
4268.31,0.02249
4262.53,0.02244
4256.74,0.02296
4250.95,0.02199
4245.17,0.02210
4239.38,0.02206
4233.6,0.02272
4227.81,0.02279
4222.02,0.02239
4216.24,0.02237
4210.45,0.02219
4204.66,0.02234
4198.88,0.02221
4193.09,0.02273
4187.31,0.02231
4181.52,0.02260
4175.73,0.02223
4169.95,0.02190
4164.16,0.02272
4158.37,0.02262
4152.59,0.02237
4146.8,0.02290
4141.02,0.02246
4135.23,0.02247
4129.44,0.02281
4123.66,0.02288
4117.87,0.02229
4112.09,0.02263
4106.3,0.02322
4100.51,0.02256
4094.73,0.02239
4088.94,0.02239
4083.15,0.02237
4077.37,0.02186
4071.58,0.02237
4065.8,0.02238
4060.01,0.02192
4054.22,0.02248
4048.44,0.02262
4042.65,0.02226
4036.86,0.02306
4031.08,0.02245
4025.29,0.02292
4019.51,0.02239
4013.72,0.02260
4007.93,0.02190
4002.15,0.02280
3996.36,0.02240
3990.57,0.02316
3984.79,0.02305
3979,0.02252
3973.22,0.02212
3967.43,0.02277
3961.64,0.02293
3955.86,0.02244
3950.07,0.02253
3944.28,0.02250
3938.5,0.02301
3932.71,0.02256
3926.93,0.02236
3921.14,0.02240
3915.35,0.02219
3909.57,0.02275
3903.78,0.02336
3897.99,0.02283
3892.21,0.02223
3886.42,0.02250
3880.64,0.02246
3874.85,0.02253
3869.06,0.02278
3863.28,0.02224
3857.49,0.02215
3851.7,0.02147
3845.92,0.02270
3840.13,0.02341
3834.35,0.02307
3828.56,0.02224
3822.77,0.02310
3816.99,0.02271
3811.2,0.02227
3805.41,0.02292
3799.63,0.02248
3793.84,0.02241
3788.06,0.02246
3782.27,0.02250
3776.48,0.02262
3770.7,0.02253
3764.91,0.02248
3759.12,0.02204
3753.34,0.02261
3747.55,0.02302
3741.77,0.02240
3735.98,0.02222
3730.19,0.02256
3724.41,0.02199
3718.62,0.02228
3712.83,0.02246
3707.05,0.02230
3701.26,0.02189
3695.48,0.02272
3689.69,0.02267
3683.9,0.02210
3678.12,0.02286
3672.33,0.02263
3666.54,0.02229
3660.76,0.02183
3654.97,0.02199
3649.19,0.02109
3643.4,0.02210
3637.61,0.02195
3631.83,0.02200
3626.04,0.02156
3620.25,0.02200
3614.47,0.02184
3608.68,0.02238
3602.9,0.02138
3597.11,0.02121
3591.32,0.02179
3585.54,0.02179
3579.75,0.02175
3573.97,0.02138
3568.18,0.02143
3562.39,0.02144
3556.61,0.02166
3550.82,0.02122
3545.03,0.02011
3539.25,0.02053
3533.46,0.02156
3527.68,0.02134
3521.89,0.02078
3516.1,0.02139
3510.32,0.02075
3504.53,0.02109
3498.74,0.02115
3492.96,0.02075
3487.17,0.02105
3481.39,0.02075
3475.6,0.02113
3469.81,0.02069
3464.03,0.02117
3458.24,0.02113
3452.45,0.02046
3446.67,0.02008
3440.88,0.02083
3435.1,0.02045
3429.31,0.02099
3423.52,0.02051
3417.74,0.01993
3411.95,0.02091
3406.16,0.02021
3400.38,0.02031
3394.59,0.02045
3388.81,0.02063
3383.02,0.02048
3377.23,0.02124
3371.45,0.02060
3365.66,0.02100
3359.87,0.02044
3354.09,0.02074
3348.3,0.02077
3342.52,0.02045
3336.73,0.01995
3330.94,0.02074
3325.16,0.02014
3319.37,0.02039
3313.58,0.02084
3307.8,0.02064
3302.01,0.02045
3296.23,0.02035
3290.44,0.01996
3284.65,0.01979
3278.87,0.02061
3273.08,0.01984
3267.29,0.02038
3261.51,0.02052
3255.72,0.02004
3249.94,0.02027
3244.15,0.02065
3238.36,0.02028
3232.58,0.02045
3226.79,0.02113
3221,0.02079
3215.22,0.02078
3209.43,0.02062
3203.65,0.02083
3197.86,0.02069
3192.07,0.02062
3186.29,0.02143
3180.5,0.02072
3174.71,0.02100
3168.93,0.02080
3163.14,0.02074
3157.36,0.02096
3151.57,0.02090
3145.78,0.02088
3140,0.02120
3134.21,0.01999
3128.42,0.02049
3122.64,0.02086
3116.85,0.02052
3111.07,0.02042
3105.28,0.02053
3099.49,0.02036
3093.71,0.02024
3087.92,0.02014
3082.14,0.02111
3076.35,0.02100
3070.56,0.02102
3064.78,0.02022
3058.99,0.02043
3053.2,0.02059
3047.42,0.02072
3041.63,0.02082
3035.85,0.02040
3030.06,0.02089
3024.27,0.02032
3018.49,0.02061
3012.7,0.02043
3006.91,0.02044
3001.13,0.02069
2995.34,0.02038
2989.56,0.02002
2983.77,0.01981
2977.98,0.02048
2972.2,0.01977
2966.41,0.01918
2960.62,0.01974
2954.84,0.01952
2949.05,0.01937
2943.27,0.01939
2937.48,0.01940
2931.69,0.01981
2925.91,0.01982
2920.12,0.02009
2914.33,0.02029
2908.55,0.02070
2902.76,0.02059
2896.98,0.02052
2891.19,0.02029
2885.4,0.02052
2879.62,0.02065
2873.83,0.02055
2868.04,0.02092
2862.26,0.02047
2856.47,0.01995
2850.69,0.02110
2844.9,0.02100
2839.11,0.02086
2833.33,0.02068
2827.54,0.02118
2821.75,0.02113
2815.97,0.02106
2810.18,0.02136
2804.4,0.02145
2798.61,0.02144
2792.82,0.02129
2787.04,0.02105
2781.25,0.02099
2775.46,0.02095
2769.68,0.02146
2763.89,0.02112
2758.11,0.02122
2752.32,0.02105
2746.53,0.02090
2740.75,0.02122
2734.96,0.02093
2729.17,0.02128
2723.39,0.02138
2717.6,0.02170
2711.82,0.02154
2706.03,0.02112
2700.24,0.02118
2694.46,0.02127
2688.67,0.02128
2682.88,0.02134
2677.1,0.02103
2671.31,0.02111
2665.53,0.02133
2659.74,0.02097
2653.95,0.02113
2648.17,0.02106
2642.38,0.02092
2636.59,0.02152
2630.81,0.02128
2625.02,0.02118
2619.24,0.02085
2613.45,0.02167
2607.66,0.02160
2601.88,0.02117
2596.09,0.02104
2590.3,0.02128
2584.52,0.02136
2578.73,0.02089
2572.95,0.02097
2567.16,0.02091
2561.37,0.02108
2555.59,0.02095
2549.8,0.02095
2544.02,0.02120
2538.23,0.02101
2532.44,0.02120
2526.66,0.02135
2520.87,0.02105
2515.08,0.02167
2509.3,0.02125
2503.51,0.02120
2497.73,0.02131
2491.94,0.02125
2486.15,0.02134
2480.37,0.02117
2474.58,0.02127
2468.79,0.02113
2463.01,0.02087
2457.22,0.02153
2451.44,0.02117
2445.65,0.02129
2439.86,0.02131
2434.08,0.02112
2428.29,0.02132
2422.5,0.02101
2416.72,0.02108
2410.93,0.02123
2405.15,0.02147
2399.36,0.02134
2393.57,0.02118
2387.79,0.02083
2382,0.02127
2376.21,0.02149
2370.43,0.02117
2364.64,0.02132
2358.86,0.02160
2353.07,0.02140
2347.28,0.02082
2341.5,0.02108
2335.71,0.02131
2329.92,0.02143
2324.14,0.02109
2318.35,0.02095
2312.57,0.02116
2306.78,0.02115
2300.99,0.02177
2295.21,0.02117
2289.42,0.02098
2283.63,0.02106
2277.85,0.02136
2272.06,0.02147
2266.28,0.02096
2260.49,0.02088
2254.7,0.02108
2248.92,0.02110
2243.13,0.02104
2237.34,0.02153
2231.56,0.02129
2225.77,0.02086
2219.99,0.02099
2214.2,0.02107
2208.41,0.02140
2202.63,0.02105
2196.84,0.02110
2191.05,0.02097
2185.27,0.02102
2179.48,0.02128
2173.7,0.02103
2167.91,0.02103
2162.12,0.02102
2156.34,0.02102
2150.55,0.02094
2144.76,0.02103
2138.98,0.02110
2133.19,0.02109
2127.41,0.02120
2121.62,0.02099
2115.83,0.02076
2110.05,0.02085
2104.26,0.02038
2098.47,0.02087
2092.69,0.02097
2086.9,0.02080
2081.12,0.02088
2075.33,0.02074
2069.54,0.02068
2063.76,0.02072
2057.97,0.02104
2052.19,0.02086
2046.4,0.02117
2040.61,0.02098
2034.83,0.02091
2029.04,0.02078
2023.25,0.02085
2017.47,0.02061
2011.68,0.02075
2005.9,0.02090
2000.11,0.02081
1994.32,0.02116
1988.54,0.02116
1982.75,0.02107
1976.96,0.02114
1971.18,0.02097
1965.39,0.02092
1959.61,0.02083
1953.82,0.02092
1948.03,0.02082
1942.25,0.02057
1936.46,0.02068
1930.67,0.02067
1924.89,0.02053
1919.1,0.02061
1913.32,0.02070
1907.53,0.02032
1901.74,0.02066
1895.96,0.02064
1890.17,0.02046
1884.38,0.02028
1878.6,0.02058
1872.81,0.02061
1867.03,0.02043
1861.24,0.02055
1855.45,0.02026
1849.67,0.02008
1843.88,0.01989
1838.09,0.01997
1832.31,0.02034
1826.52,0.01974
1820.74,0.01994
1814.95,0.02008
1809.16,0.02000
1803.38,0.01962
1797.59,0.01943
1791.8,0.01943
1786.02,0.01895
1780.23,0.01937
1774.45,0.01902
1768.66,0.01864
1762.87,0.01819
1757.09,0.01759
1751.3,0.01738
1745.51,0.01796
1739.73,0.01844
1733.94,0.01986
1728.16,0.02057
1722.37,0.02103
1716.58,0.02091
1710.8,0.02069
1705.01,0.02009
1699.22,0.01955
1693.44,0.01937
1687.65,0.01931
1681.87,0.01923
1676.08,0.01851
1670.29,0.01883
1664.51,0.01862
1658.72,0.01868
1652.93,0.01880
1647.15,0.01890
1641.36,0.01901
1635.58,0.01886
1629.79,0.01855
1624,0.01893
1618.22,0.01899
1612.43,0.01893
1606.64,0.01882
1600.86,0.01884
1595.07,0.01910
1589.29,0.01879
1583.5,0.01867
1577.71,0.01869
1571.93,0.01855
1566.14,0.01856
1560.35,0.01856
1554.57,0.01869
1548.78,0.01834
1543,0.01874
1537.21,0.01837
1531.42,0.01885
1525.64,0.01895
1519.85,0.01863
1514.07,0.01867
1508.28,0.01877
1502.49,0.01840
1496.71,0.01872
1490.92,0.01868
1485.13,0.01896
1479.35,0.01884
1473.56,0.01873
1467.78,0.01858
1461.99,0.01858
1456.2,0.01895
1450.42,0.01880
1444.63,0.01849
1438.84,0.01892
1433.06,0.01872
1427.27,0.01882
1421.49,0.01867
1415.7,0.01821
1409.91,0.01832
1404.13,0.01771
1398.34,0.01834
1392.55,0.01842
1386.77,0.01840
1380.98,0.01784
1375.2,0.01844
1369.41,0.01839
1363.62,0.01838
1357.84,0.01781
1352.05,0.01800
1346.26,0.01811
1340.48,0.01829
1334.69,0.01790
1328.91,0.01759
1323.12,0.01727
1317.33,0.01688
1311.55,0.01723
1305.76,0.01730
1299.97,0.01792
1294.19,0.01798
1288.4,0.01863
1282.62,0.01908
1276.83,0.01925
1271.04,0.01966
1265.26,0.01997
1259.47,0.01991
1253.68,0.02076
1247.9,0.01980
1242.11,0.02003
1236.33,0.01993
1230.54,0.01999
1224.75,0.01930
1218.97,0.01928
1213.18,0.01952
1207.39,0.01884
1201.61,0.01811
1195.82,0.01839
1190.04,0.01797
1184.25,0.01788
1178.46,0.01783
1172.68,0.01765
1166.89,0.01821
1161.1,0.01803
1155.32,0.01767
1149.53,0.01786
1143.75,0.01861
1137.96,0.01818
1132.17,0.01807
1126.39,0.01847
1120.6,0.01882
1114.81,0.01872
1109.03,0.01866
1103.24,0.01835
1097.46,0.01774
1091.67,0.01845
1085.88,0.01894
1080.1,0.01855
1074.31,0.01919
1068.52,0.02037
1062.74,0.01996
1056.95,0.01962
1051.17,0.01972
1045.38,0.01935
1039.59,0.01943
1033.81,0.01933
1028.02,0.01940
1022.24,0.01968
1016.45,0.01919
1010.66,0.02023
1004.88,0.02061
999.09,0.02092
993.304,0.02070
987.518,0.02092
981.731,0.02070
975.945,0.02007
970.159,0.02052
964.373,0.02039
958.586,0.02027
952.8,0.02068
947.014,0.02011
941.228,0.01969
935.441,0.01892
929.655,0.01889
923.869,0.01911
918.083,0.01931
912.297,0.01942
906.51,0.01853
900.724,0.01927
894.938,0.01948
889.152,0.01952
883.365,0.01872
877.579,0.01922
871.793,0.01874
866.007,0.01857
860.22,0.01954
854.434,0.01882
848.648,0.01904
842.862,0.01869
837.075,0.01898
831.289,0.01926
825.503,0.01966
819.717,0.01894
813.931,0.01930
808.144,0.01943
802.358,0.01858
796.572,0.01876
790.786,0.01885
784.999,0.01871
779.213,0.01835
773.427,0.01888
767.641,0.01867
761.854,0.01788
756.068,0.01860
750.282,0.01795
744.496,0.01719
738.709,0.01822
732.923,0.01824
727.137,0.01876
721.351,0.01756
715.565,0.01757
709.778,0.01645
703.992,0.01897
698.206,0.01762
692.42,0.01778
686.633,0.01802
680.847,0.01740
675.061,0.01801
669.275,0.01781
663.488,0.01820
657.702,0.01770
651.916,0.01612
646.13,0.01676
640.343,0.01608
634.557,0.01868
628.771,0.01645
622.985,0.01573
617.198,0.01581
611.412,0.01641
605.626,0.01667
599.84,0.01680