File: 01_Data/Engineered_Wood_Furniture/FTIR/IS/Engineered_Wood_Furniture_IS_S_221005_R6.dpt
7497.03,0.17958
7491.25,0.18214
7485.46,0.17510
7479.67,0.17601
7473.89,0.17798
7468.1,0.16800
7462.32,0.17570
7456.53,0.17840
7450.74,0.17358
7444.96,0.17861
7439.17,0.17792
7433.38,0.17037
7427.6,0.17467
7421.81,0.18203
7416.03,0.18565
7410.24,0.17777
7404.45,0.17193
7398.67,0.17240
7392.88,0.17039
7387.09,0.17585
7381.31,0.17371
7375.52,0.16857
7369.74,0.17364
7363.95,0.17883
7358.16,0.17709
7352.38,0.17731
7346.59,0.17515
7340.8,0.17398
7335.02,0.18459
7329.23,0.17945
7323.45,0.17054
7317.66,0.17781
7311.87,0.17463
7306.09,0.17653
7300.3,0.17071
7294.51,0.17429
7288.73,0.17685
7282.94,0.16123
7277.16,0.16881
7271.37,0.17837
7265.58,0.17557
7259.8,0.17487
7254.01,0.18094
7248.22,0.17398
7242.44,0.16876
7236.65,0.18300
7230.87,0.17516
7225.08,0.17254
7219.29,0.17487
7213.51,0.17653
7207.72,0.17942
7201.93,0.17173
7196.15,0.17311
7190.36,0.17270
7184.58,0.17344
7178.79,0.17502
7173,0.17633
7167.22,0.17072
7161.43,0.16693
7155.65,0.16784
7149.86,0.17330
7144.07,0.17093
7138.29,0.17314
7132.5,0.16773
7126.71,0.17024
7120.93,0.17202
7115.14,0.17014
7109.36,0.16838
7103.57,0.16371
7097.78,0.16879
7092,0.16351
7086.21,0.16474
7080.42,0.16636
7074.64,0.16177
7068.85,0.16327
7063.07,0.17217
7057.28,0.15926
7051.49,0.15978
7045.71,0.16368
7039.92,0.16278
7034.13,0.16115
7028.35,0.15715
7022.56,0.16196
7016.78,0.15883
7010.99,0.15754
7005.2,0.15688
6999.42,0.15414
6993.63,0.15616
6987.84,0.15811
6982.06,0.15651
6976.27,0.15812
6970.49,0.16479
6964.7,0.16171
6958.91,0.16020
6953.13,0.15725
6947.34,0.16047
6941.55,0.15830
6935.77,0.15391
6929.98,0.15287
6924.2,0.15819
6918.41,0.15154
6912.62,0.15596
6906.84,0.15982
6901.05,0.15630
6895.26,0.15371
6889.48,0.15283
6883.69,0.15494
6877.91,0.15488
6872.12,0.15597
6866.33,0.15904
6860.55,0.15528
6854.76,0.15425
6848.97,0.15827
6843.19,0.15831
6837.4,0.14876
6831.62,0.16283
6825.83,0.15914
6820.04,0.16199
6814.26,0.16027
6808.47,0.15421
6802.68,0.15841
6796.9,0.16010
6791.11,0.16123
6785.33,0.15943
6779.54,0.15523
6773.75,0.15699
6767.97,0.16342
6762.18,0.15451
6756.39,0.15622
6750.61,0.15729
6744.82,0.15131
6739.04,0.15593
6733.25,0.15720
6727.46,0.15661
6721.68,0.15541
6715.89,0.15274
6710.1,0.15769
6704.32,0.15933
6698.53,0.15683
6692.75,0.15423
6686.96,0.16021
6681.17,0.16137
6675.39,0.15507
6669.6,0.16213
6663.82,0.15541
6658.03,0.16143
6652.24,0.15225
6646.46,0.15515
6640.67,0.16008
6634.88,0.15631
6629.1,0.15661
6623.31,0.15857
6617.53,0.15681
6611.74,0.15800
6605.95,0.16008
6600.17,0.16462
6594.38,0.16473
6588.59,0.15873
6582.81,0.16304
6577.02,0.15911
6571.24,0.16104
6565.45,0.16130
6559.66,0.16271
6553.88,0.16605
6548.09,0.16280
6542.3,0.15919
6536.52,0.15748
6530.73,0.16320
6524.95,0.16125
6519.16,0.16023
6513.37,0.16605
6507.59,0.16345
6501.8,0.16383
6496.01,0.16656
6490.23,0.16763
6484.44,0.16549
6478.66,0.16316
6472.87,0.16439
6467.08,0.16154
6461.3,0.16694
6455.51,0.16388
6449.72,0.16328
6443.94,0.16444
6438.15,0.16437
6432.37,0.16650
6426.58,0.17010
6420.79,0.16592
6415.01,0.16382
6409.22,0.16680
6403.43,0.16731
6397.65,0.16915
6391.86,0.16533
6386.08,0.16934
6380.29,0.16769
6374.5,0.16649
6368.72,0.16685
6362.93,0.17336
6357.14,0.16932
6351.36,0.16622
6345.57,0.16581
6339.79,0.16416
6334,0.16698
6328.21,0.16800
6322.43,0.16494
6316.64,0.16989
6310.85,0.16912
6305.07,0.17068
6299.28,0.16726
6293.5,0.16768
6287.71,0.16887
6281.92,0.16859
6276.14,0.16816
6270.35,0.17161
6264.56,0.17176
6258.78,0.17205
6252.99,0.17167
6247.21,0.17128
6241.42,0.17162
6235.63,0.17295
6229.85,0.17495
6224.06,0.17574
6218.27,0.17349
6212.49,0.17454
6206.7,0.17536
6200.92,0.17373
6195.13,0.17390
6189.34,0.17664
6183.56,0.17634
6177.77,0.17530
6171.98,0.17325
6166.2,0.17578
6160.41,0.17537
6154.63,0.17516
6148.84,0.17425
6143.05,0.17624
6137.27,0.17468
6131.48,0.17806
6125.7,0.17684
6119.91,0.17765
6114.12,0.17588
6108.34,0.17533
6102.55,0.18057
6096.76,0.17833
6090.98,0.17889
6085.19,0.17737
6079.41,0.17895
6073.62,0.17695
6067.83,0.17665
6062.05,0.17717
6056.26,0.17798
6050.47,0.17656
6044.69,0.17701
6038.9,0.17383
6033.12,0.17223
6027.33,0.17450
6021.54,0.17292
6015.76,0.17478
6009.97,0.17601
6004.18,0.17291
5998.4,0.17456
5992.61,0.17443
5986.83,0.17322
5981.04,0.17450
5975.25,0.17505
5969.47,0.17003
5963.68,0.17188
5957.89,0.17411
5952.11,0.17469
5946.32,0.17514
5940.54,0.17455
5934.75,0.17408
5928.96,0.17671
5923.18,0.17078
5917.39,0.17561
5911.6,0.17362
5905.82,0.17481
5900.03,0.17563
5894.25,0.17498
5888.46,0.17224
5882.67,0.17294
5876.89,0.17498
5871.1,0.17181
5865.31,0.16965
5859.53,0.17002
5853.74,0.17224
5847.96,0.16927
5842.17,0.16949
5836.38,0.17201
5830.6,0.17190
5824.81,0.17101
5819.02,0.17225
5813.24,0.17034
5807.45,0.17162
5801.67,0.17035
5795.88,0.16971
5790.09,0.17225
5784.31,0.17266
5778.52,0.17161
5772.73,0.17296
5766.95,0.17304
5761.16,0.17353
5755.38,0.17336
5749.59,0.17319
5743.8,0.17283
5738.02,0.17605
5732.23,0.17470
5726.44,0.17382
5720.66,0.17678
5714.87,0.17471
5709.09,0.17334
5703.3,0.17726
5697.51,0.17332
5691.73,0.17583
5685.94,0.17370
5680.15,0.17517
5674.37,0.17518
5668.58,0.17713
5662.8,0.17505
5657.01,0.17626
5651.22,0.17715
5645.44,0.17675
5639.65,0.17681
5633.87,0.17714
5628.08,0.17711
5622.29,0.17661
5616.51,0.17529
5610.72,0.17769
5604.93,0.17796
5599.15,0.17833
5593.36,0.17667
5587.58,0.17837
5581.79,0.17798
5576,0.17681
5570.22,0.17748
5564.43,0.17814
5558.64,0.17747
5552.86,0.17911
5547.07,0.17906
5541.29,0.17881
5535.5,0.17968
5529.71,0.18094
5523.93,0.18012
5518.14,0.18034
5512.35,0.17791
5506.57,0.17784
5500.78,0.18103
5495,0.18219
5489.21,0.18013
5483.42,0.18138
5477.64,0.18072
5471.85,0.18224
5466.06,0.18120
5460.28,0.18195
5454.49,0.18223
5448.71,0.18228
5442.92,0.18279
5437.13,0.18408
5431.35,0.18237
5425.56,0.18593
5419.77,0.18310
5413.99,0.18319
5408.2,0.18378
5402.42,0.18652
5396.63,0.18514
5390.84,0.18551
5385.06,0.18425
5379.27,0.18483
5373.48,0.18452
5367.7,0.18702
5361.91,0.18403
5356.13,0.18492
5350.34,0.18427
5344.55,0.18387
5338.77,0.18386
5332.98,0.18315
5327.19,0.18268
5321.41,0.17976
5315.62,0.18109
5309.84,0.17963
5304.05,0.17999
5298.26,0.17591
5292.48,0.17532
5286.69,0.17267
5280.9,0.17074
5275.12,0.16920
5269.33,0.16597
5263.55,0.16419
5257.76,0.16040
5251.97,0.15878
5246.19,0.15708
5240.4,0.15584
5234.61,0.15475
5228.83,0.15343
5223.04,0.15153
5217.26,0.15074
5211.47,0.14847
5205.68,0.14876
5199.9,0.14746
5194.11,0.14748
5188.32,0.14841
5182.54,0.14807
5176.75,0.14745
5170.97,0.14769
5165.18,0.14763
5159.39,0.14979
5153.61,0.14943
5147.82,0.15099
5142.03,0.14942
5136.25,0.15141
5130.46,0.15310
5124.68,0.15317
5118.89,0.15386
5113.1,0.15367
5107.32,0.15327
5101.53,0.15576
5095.75,0.15575
5089.96,0.15543
5084.17,0.15676
5078.39,0.15708
5072.6,0.15711
5066.81,0.15834
5061.03,0.15906
5055.24,0.15881
5049.46,0.16023
5043.67,0.16044
5037.88,0.15990
5032.1,0.16032
5026.31,0.16088
5020.52,0.16212
5014.74,0.16239
5008.95,0.16405
5003.17,0.16277
4997.38,0.16372
4991.59,0.16386
4985.81,0.16252
4980.02,0.16379
4974.23,0.16186
4968.45,0.16209
4962.66,0.16205
4956.88,0.16076
4951.09,0.16038
4945.3,0.15865
4939.52,0.16014
4933.73,0.15797
4927.94,0.15834
4922.16,0.15670
4916.37,0.15537
4910.59,0.15526
4904.8,0.15415
4899.01,0.15420
4893.23,0.15354
4887.44,0.15317
4881.65,0.15222
4875.87,0.15142
4870.08,0.15076
4864.3,0.15014
4858.51,0.15007
4852.72,0.15075
4846.94,0.14932
4841.15,0.14971
4835.36,0.14883
4829.58,0.14825
4823.79,0.14893
4818.01,0.14785
4812.22,0.14857
4806.43,0.14843
4800.65,0.14793
4794.86,0.14762
4789.07,0.14894
4783.29,0.14790
4777.5,0.14771
4771.72,0.14799
4765.93,0.14810
4760.14,0.14835
4754.36,0.14794
4748.57,0.14866
4742.78,0.14905
4737,0.14745
4731.21,0.14760
4725.43,0.14787
4719.64,0.14765
4713.85,0.14805
4708.07,0.14790
4702.28,0.14852
4696.49,0.14820
4690.71,0.14806
4684.92,0.14742
4679.14,0.14741
4673.35,0.14720
4667.56,0.14754
4661.78,0.14843
4655.99,0.14958
4650.2,0.15009
4644.42,0.15100
4638.63,0.15089
4632.85,0.15073
4627.06,0.15196
4621.27,0.14987
4615.49,0.15159
4609.7,0.15279
4603.92,0.15395
4598.13,0.15392
4592.34,0.15392
4586.56,0.15363
4580.77,0.15455
4574.98,0.15415
4569.2,0.15474
4563.41,0.15391
4557.63,0.15516
4551.84,0.15525
4546.05,0.15558
4540.27,0.15448
4534.48,0.15582
4528.69,0.15586
4522.91,0.15495
4517.12,0.15620
4511.34,0.15625
4505.55,0.15584
4499.76,0.15583
4493.98,0.15514
4488.19,0.15393
4482.4,0.15237
4476.62,0.15120
4470.83,0.14839
4465.05,0.14650
4459.26,0.14481
4453.47,0.14268
4447.69,0.14047
4441.9,0.13884
4436.11,0.13751
4430.33,0.13612
4424.54,0.13548
4418.76,0.13478
4412.97,0.13394
4407.18,0.13397
4401.4,0.13292
4395.61,0.13384
4389.82,0.13360
4384.04,0.13332
4378.25,0.13389
4372.47,0.13386
4366.68,0.13352
4360.89,0.13365
4355.11,0.13251
4349.32,0.13165
4343.53,0.13082
4337.75,0.12980
4331.96,0.12940
4326.18,0.12855
4320.39,0.13049
4314.6,0.13096
4308.82,0.13093
4303.03,0.13166
4297.24,0.13137
4291.46,0.13156
4285.67,0.13042
4279.89,0.13031
4274.1,0.13032
4268.31,0.13033
4262.53,0.12956
4256.74,0.12929
4250.95,0.12988
4245.17,0.13160
4239.38,0.13257
4233.6,0.13311
4227.81,0.13335
4222.02,0.13372
4216.24,0.13373
4210.45,0.13390
4204.66,0.13441
4198.88,0.13447
4193.09,0.13445
4187.31,0.13408
4181.52,0.13480
4175.73,0.13474
4169.95,0.13459
4164.16,0.13425
4158.37,0.13417
4152.59,0.13388
4146.8,0.13324
4141.02,0.13314
4135.23,0.13177
4129.44,0.13224
4123.66,0.13154
4117.87,0.13035
4112.09,0.12967
4106.3,0.12829
4100.51,0.12800
4094.73,0.12733
4088.94,0.12632
4083.15,0.12534
4077.37,0.12467
4071.58,0.12331
4065.8,0.12228
4060.01,0.12120
4054.22,0.12090
4048.44,0.11970
4042.65,0.11929
4036.86,0.11866
4031.08,0.11741
4025.29,0.11794
4019.51,0.11745
4013.72,0.11694
4007.93,0.11727
4002.15,0.11760
3996.36,0.11806
3990.57,0.11721
3984.79,0.11751
3979,0.11909
3973.22,0.11875
3967.43,0.11878
3961.64,0.11963
3955.86,0.12018
3950.07,0.12053
3944.28,0.12127
3938.5,0.12241
3932.71,0.12352
3926.93,0.12378
3921.14,0.12474
3915.35,0.12569
3909.57,0.12608
3903.78,0.12682
3897.99,0.12796
3892.21,0.12787
3886.42,0.12854
3880.64,0.12895
3874.85,0.13001
3869.06,0.13080
3863.28,0.13117
3857.49,0.13278
3851.7,0.13332
3845.92,0.13423
3840.13,0.13483
3834.35,0.13502
3828.56,0.13511
3822.77,0.13542
3816.99,0.13517
3811.2,0.13533
3805.41,0.13579
3799.63,0.13501
3793.84,0.13478
3788.06,0.13508
3782.27,0.13450
3776.48,0.13418
3770.7,0.13323
3764.91,0.13216
3759.12,0.13168
3753.34,0.13125
3747.55,0.13089
3741.77,0.12997
3735.98,0.12821
3730.19,0.12694
3724.41,0.12529
3718.62,0.12363
3712.83,0.12267
3707.05,0.11990
3701.26,0.11629
3695.48,0.11214
3689.69,0.10785
3683.9,0.10272
3678.12,0.09123
3672.33,0.08937
3666.54,0.08679
3660.76,0.08270
3654.97,0.07864
3649.19,0.07651
3643.4,0.07337
3637.61,0.07121
3631.83,0.07031
3626.04,0.06691
3620.25,0.06505
3614.47,0.06347
3608.68,0.06195
3602.9,0.06101
3597.11,0.05960
3591.32,0.05844
3585.54,0.05785
3579.75,0.05719
3573.97,0.05572
3568.18,0.05603
3562.39,0.05522
3556.61,0.05528
3550.82,0.05456
3545.03,0.05359
3539.25,0.05361
3533.46,0.05243
3527.68,0.05274
3521.89,0.05216
3516.1,0.05191
3510.32,0.05211
3504.53,0.05228
3498.74,0.05194
3492.96,0.05184
3487.17,0.05167
3481.39,0.05095
3475.6,0.05143
3469.81,0.05140
3464.03,0.05149
3458.24,0.05180
3452.45,0.05103
3446.67,0.05098
3440.88,0.05180
3435.1,0.05123
3429.31,0.05114
3423.52,0.05175
3417.74,0.05230
3411.95,0.05151
3406.16,0.05153
3400.38,0.05112
3394.59,0.05154
3388.81,0.05191
3383.02,0.05121
3377.23,0.05153
3371.45,0.05163
3365.66,0.05151
3359.87,0.05181
3354.09,0.05102
3348.3,0.05205
3342.52,0.05154
3336.73,0.05177
3330.94,0.05194
3325.16,0.05128
3319.37,0.05244
3313.58,0.05314
3307.8,0.05166
3302.01,0.05208
3296.23,0.05263
3290.44,0.05272
3284.65,0.05337
3278.87,0.05295
3273.08,0.05257
3267.29,0.05345
3261.51,0.05372
3255.72,0.05370
3249.94,0.05482
3244.15,0.05480
3238.36,0.05473
3232.58,0.05522
3226.79,0.05547
3221,0.05482
3215.22,0.05537
3209.43,0.05605
3203.65,0.05597
3197.86,0.05601
3192.07,0.05654
3186.29,0.05671
3180.5,0.05680
3174.71,0.05775
3168.93,0.05828
3163.14,0.05818
3157.36,0.05780
3151.57,0.05887
3145.78,0.05825
3140,0.05903
3134.21,0.05939
3128.42,0.05937
3122.64,0.05918
3116.85,0.05997
3111.07,0.06054
3105.28,0.06041
3099.49,0.06014
3093.71,0.06050
3087.92,0.06059
3082.14,0.06013
3076.35,0.06044
3070.56,0.06030
3064.78,0.06112
3058.99,0.06142
3053.2,0.06137
3047.42,0.06143
3041.63,0.06123
3035.85,0.06177
3030.06,0.06097
3024.27,0.06082
3018.49,0.06071
3012.7,0.05965
3006.91,0.05858
3001.13,0.05834
2995.34,0.05785
2989.56,0.05673
2983.77,0.05575
2977.98,0.05470
2972.2,0.05355
2966.41,0.05301
2960.62,0.05226
2954.84,0.05212
2949.05,0.05210
2943.27,0.05185
2937.48,0.05196
2931.69,0.05236
2925.91,0.05374
2920.12,0.05535
2914.33,0.05553
2908.55,0.05524
2902.76,0.05559
2896.98,0.05555
2891.19,0.05567
2885.4,0.05608
2879.62,0.05603
2873.83,0.05595
2868.04,0.05594
2862.26,0.05563
2856.47,0.05572
2850.69,0.05709
2844.9,0.05940
2839.11,0.06105
2833.33,0.06193
2827.54,0.06337
2821.75,0.06496
2815.97,0.06610
2810.18,0.06702
2804.4,0.06825
2798.61,0.06910
2792.82,0.07030
2787.04,0.07041
2781.25,0.07070
2775.46,0.07164
2769.68,0.07163
2763.89,0.07245
2758.11,0.07229
2752.32,0.07237
2746.53,0.07281
2740.75,0.07320
2734.96,0.07316
2729.17,0.07327
2723.39,0.07403
2717.6,0.07453
2711.82,0.07483
2706.03,0.07597
2700.24,0.07648
2694.46,0.07658
2688.67,0.07727
2682.88,0.07745
2677.1,0.07782
2671.31,0.07809
2665.53,0.07835
2659.74,0.07850
2653.95,0.07864
2648.17,0.07872
2642.38,0.07901
2636.59,0.07975
2630.81,0.08070
2625.02,0.08118
2619.24,0.08190
2613.45,0.08189
2607.66,0.08265
2601.88,0.08317
2596.09,0.08315
2590.3,0.08373
2584.52,0.08398
2578.73,0.08377
2572.95,0.08376
2567.16,0.08359
2561.37,0.08278
2555.59,0.08274
2549.8,0.08313
2544.02,0.08424
2538.23,0.08567
2532.44,0.08668
2526.66,0.08789
2520.87,0.08801
2515.08,0.08912
2509.3,0.08970
2503.51,0.09085
2497.73,0.09118
2491.94,0.09262
2486.15,0.09383
2480.37,0.09459
2474.58,0.09536
2468.79,0.09609
2463.01,0.09630
2457.22,0.09685
2451.44,0.09718
2445.65,0.09746
2439.86,0.09834
2434.08,0.09843
2428.29,0.09908
2422.5,0.09922
2416.72,0.10020
2410.93,0.10136
2405.15,0.10181
2399.36,0.10191
2393.57,0.10281
2387.79,0.10334
2382,0.10400
2376.21,0.10457
2370.43,0.10490
2364.64,0.10592
2358.86,0.10624
2353.07,0.10671
2347.28,0.10725
2341.5,0.10716
2335.71,0.10727
2329.92,0.10776
2324.14,0.10886
2318.35,0.10900
2312.57,0.10876
2306.78,0.10897
2300.99,0.10861
2295.21,0.10829
2289.42,0.10848
2283.63,0.10815
2277.85,0.10782
2272.06,0.10720
2266.28,0.10705
2260.49,0.10634
2254.7,0.10584
2248.92,0.10556
2243.13,0.10521
2237.34,0.10483
2231.56,0.10485
2225.77,0.10478
2219.99,0.10430
2214.2,0.10415
2208.41,0.10404
2202.63,0.10349
2196.84,0.10293
2191.05,0.10157
2185.27,0.10128
2179.48,0.10042
2173.7,0.09889
2167.91,0.09809
2162.12,0.09708
2156.34,0.09632
2150.55,0.09532
2144.76,0.09514
2138.98,0.09502
2133.19,0.09476
2127.41,0.09513
2121.62,0.09547
2115.83,0.09556
2110.05,0.09629
2104.26,0.09612
2098.47,0.09706
2092.69,0.09726
2086.9,0.09771
2081.12,0.09809
2075.33,0.09798
2069.54,0.09805
2063.76,0.09792
2057.97,0.09808
2052.19,0.09821
2046.4,0.09900
2040.61,0.09899
2034.83,0.09940
2029.04,0.09953
2023.25,0.09988
2017.47,0.10058
2011.68,0.10088
2005.9,0.10115
2000.11,0.10119
1994.32,0.10108
1988.54,0.10109
1982.75,0.10084
1976.96,0.10061
1971.18,0.10069
1965.39,0.09988
1959.61,0.09932
1953.82,0.09925
1948.03,0.10010
1942.25,0.10158
1936.46,0.10313
1930.67,0.10370
1924.89,0.10415
1919.1,0.10478
1913.32,0.10521
1907.53,0.10530
1901.74,0.10513
1895.96,0.10446
1890.17,0.10397
1884.38,0.10334
1878.6,0.10226
1872.81,0.10144
1867.03,0.09995
1861.24,0.09781
1855.45,0.09550
1849.67,0.09395
1843.88,0.09212
1838.09,0.09052
1832.31,0.08923
1826.52,0.08691
1820.74,0.08426
1814.95,0.08181
1809.16,0.07883
1803.38,0.07524
1797.59,0.07125
1791.8,0.06699
1786.02,0.06213
1780.23,0.05737
1774.45,0.05274
1768.66,0.04644
1762.87,0.04206
1757.09,0.03782
1751.3,0.03599
1745.51,0.03641
1739.73,0.03994
1733.94,0.04438
1728.16,0.04976
1722.37,0.05409
1716.58,0.05661
1710.8,0.05690
1705.01,0.05479
1699.22,0.05274
1693.44,0.04932
1687.65,0.04595
1681.87,0.04212
1676.08,0.04077
1670.29,0.04258
1664.51,0.04743
1658.72,0.05220
1652.93,0.05626
1647.15,0.06102
1641.36,0.06528
1635.58,0.06685
1629.79,0.06611
1624,0.06441
1618.22,0.06322
1612.43,0.06185
1606.64,0.06050
1600.86,0.05829
1595.07,0.05966
1589.29,0.06090
1583.5,0.05898
1577.71,0.05979
1571.93,0.06403
1566.14,0.06557
1560.35,0.06756
1554.57,0.07044
1548.78,0.07329
1543,0.07243
1537.21,0.06697
1531.42,0.06471
1525.64,0.06414
1519.85,0.06291
1514.07,0.06079
1508.28,0.05934
1502.49,0.05882
1496.71,0.05698
1490.92,0.05476
1485.13,0.05568
1479.35,0.05474
1473.56,0.05187
1467.78,0.04921
1461.99,0.04910
1456.2,0.04922
1450.42,0.04977
1444.63,0.05118
1438.84,0.05261
1433.06,0.05261
1427.27,0.05166
1421.49,0.05023
1415.7,0.04945
1409.91,0.04954
1404.13,0.04829
1398.34,0.04772
1392.55,0.04670
1386.77,0.04545
1380.98,0.04478
1375.2,0.04489
1369.41,0.04488
1363.62,0.04485
1357.84,0.04440
1352.05,0.04328
1346.26,0.04187
1340.48,0.04055
1334.69,0.03913
1328.91,0.03794
1323.12,0.03705
1317.33,0.03600
1311.55,0.03472
1305.76,0.03390
1299.97,0.03423
1294.19,0.03790
1288.4,0.04938
1282.62,0.06680
1276.83,0.08154
1271.04,0.07758
1265.26,0.07130
1259.47,0.06908
1253.68,0.06861
1247.9,0.06733
1242.11,0.06511
1236.33,0.06308
1230.54,0.06079
1224.75,0.05940
1218.97,0.05743
1213.18,0.05587
1207.39,0.05494
1201.61,0.05462
1195.82,0.05314
1190.04,0.05126
1184.25,0.04947
1178.46,0.04773
1172.68,0.04582
1166.89,0.04585
1161.1,0.04601
1155.32,0.04556
1149.53,0.04549
1143.75,0.04746
1137.96,0.04833
1132.17,0.05006
1126.39,0.05222
1120.6,0.05570
1114.81,0.05702
1109.03,0.05586
1103.24,0.05463
1097.46,0.05235
1091.67,0.05217
1085.88,0.05149
1080.1,0.05448
1074.31,0.06100
1068.52,0.06585
1062.74,0.06934
1056.95,0.06990
1051.17,0.06925
1045.38,0.06808
1039.59,0.06908
1033.81,0.06955
1028.02,0.07016
1022.24,0.07084
1016.45,0.07111
1010.66,0.06990
1004.88,0.06912
999.09,0.06853
993.304,0.06912
987.518,0.07027
981.731,0.07078
975.945,0.07052
970.159,0.07034
964.373,0.07051
958.586,0.07000
952.8,0.06943
947.014,0.06861
941.228,0.06813
935.441,0.06746
929.655,0.06535
923.869,0.06389
918.083,0.06320
912.297,0.06281
906.51,0.06190
900.724,0.06061
894.938,0.05840
889.152,0.05813
883.365,0.05645
877.579,0.05409
871.793,0.05329
866.007,0.05452
860.22,0.05594
854.434,0.05778
848.648,0.06194
842.862,0.06763
837.075,0.07248
831.289,0.07485
825.503,0.07629
819.717,0.07534
813.931,0.07367
808.144,0.07161
802.358,0.06906
796.572,0.06758
790.786,0.06647
784.999,0.06581
779.213,0.06413
773.427,0.06269
767.641,0.06126
761.854,0.05885
756.068,0.05717
750.282,0.05927
744.496,0.06407
738.709,0.06777
732.923,0.06645
727.137,0.06379
721.351,0.06261
715.565,0.06161
709.778,0.06106
703.992,0.06297
698.206,0.06238
692.42,0.06448
686.633,0.06488
680.847,0.06403
675.061,0.06445
669.275,0.06581
663.488,0.06275
657.702,0.06098
651.916,0.05998
646.13,0.06037
640.343,0.05990
634.557,0.05835
628.771,0.05927
622.985,0.05823
617.198,0.05629
611.412,0.05913
605.626,0.05896
599.84,0.05826