File: 01_Data/Engineered_Wood_Furniture/FTIR/IS/Engineered_Wood_Furniture_IS_S_221005_R1.dpt
7497.03,0.18164
7491.25,0.17928
7485.46,0.18268
7479.67,0.18015
7473.89,0.18354
7468.1,0.16399
7462.32,0.17348
7456.53,0.17929
7450.74,0.17488
7444.96,0.17477
7439.17,0.17659
7433.38,0.17500
7427.6,0.17597
7421.81,0.17486
7416.03,0.16716
7410.24,0.16474
7404.45,0.17299
7398.67,0.17457
7392.88,0.17174
7387.09,0.17284
7381.31,0.17845
7375.52,0.17585
7369.74,0.17490
7363.95,0.16986
7358.16,0.17045
7352.38,0.17982
7346.59,0.17673
7340.8,0.18233
7335.02,0.17513
7329.23,0.17490
7323.45,0.17218
7317.66,0.17281
7311.87,0.17351
7306.09,0.16933
7300.3,0.16771
7294.51,0.17008
7288.73,0.17564
7282.94,0.17611
7277.16,0.16736
7271.37,0.17405
7265.58,0.17428
7259.8,0.17341
7254.01,0.16972
7248.22,0.17341
7242.44,0.17844
7236.65,0.17660
7230.87,0.17183
7225.08,0.16848
7219.29,0.16938
7213.51,0.17295
7207.72,0.17158
7201.93,0.16723
7196.15,0.17255
7190.36,0.16890
7184.58,0.17379
7178.79,0.17081
7173,0.18237
7167.22,0.16322
7161.43,0.17148
7155.65,0.17029
7149.86,0.16795
7144.07,0.17579
7138.29,0.16959
7132.5,0.16805
7126.71,0.16994
7120.93,0.16676
7115.14,0.15932
7109.36,0.16290
7103.57,0.16545
7097.78,0.16944
7092,0.16746
7086.21,0.16802
7080.42,0.16408
7074.64,0.16628
7068.85,0.16396
7063.07,0.16124
7057.28,0.16474
7051.49,0.16758
7045.71,0.16360
7039.92,0.16361
7034.13,0.16271
7028.35,0.16556
7022.56,0.15666
7016.78,0.16409
7010.99,0.15768
7005.2,0.16164
6999.42,0.16056
6993.63,0.15667
6987.84,0.15890
6982.06,0.16086
6976.27,0.15945
6970.49,0.16500
6964.7,0.15964
6958.91,0.15702
6953.13,0.15475
6947.34,0.15806
6941.55,0.15709
6935.77,0.15542
6929.98,0.15838
6924.2,0.15635
6918.41,0.15607
6912.62,0.15989
6906.84,0.16165
6901.05,0.15145
6895.26,0.15542
6889.48,0.15351
6883.69,0.15679
6877.91,0.15840
6872.12,0.15759
6866.33,0.16155
6860.55,0.15993
6854.76,0.15903
6848.97,0.15828
6843.19,0.15572
6837.4,0.15736
6831.62,0.15868
6825.83,0.16174
6820.04,0.15946
6814.26,0.15843
6808.47,0.15663
6802.68,0.15761
6796.9,0.15297
6791.11,0.15754
6785.33,0.15983
6779.54,0.15625
6773.75,0.15700
6767.97,0.15961
6762.18,0.15834
6756.39,0.15520
6750.61,0.15464
6744.82,0.15686
6739.04,0.15361
6733.25,0.16090
6727.46,0.15340
6721.68,0.15636
6715.89,0.15845
6710.1,0.15554
6704.32,0.15547
6698.53,0.15577
6692.75,0.16007
6686.96,0.15738
6681.17,0.15384
6675.39,0.15616
6669.6,0.15859
6663.82,0.16048
6658.03,0.15765
6652.24,0.15978
6646.46,0.16133
6640.67,0.15735
6634.88,0.15967
6629.1,0.15521
6623.31,0.15781
6617.53,0.16097
6611.74,0.16387
6605.95,0.16432
6600.17,0.16269
6594.38,0.16119
6588.59,0.15960
6582.81,0.16664
6577.02,0.15929
6571.24,0.16431
6565.45,0.16270
6559.66,0.16310
6553.88,0.16156
6548.09,0.15548
6542.3,0.16111
6536.52,0.16318
6530.73,0.16315
6524.95,0.16443
6519.16,0.16570
6513.37,0.16191
6507.59,0.16329
6501.8,0.16425
6496.01,0.16225
6490.23,0.16425
6484.44,0.16184
6478.66,0.16142
6472.87,0.16463
6467.08,0.16019
6461.3,0.16180
6455.51,0.16193
6449.72,0.16447
6443.94,0.16475
6438.15,0.16504
6432.37,0.16423
6426.58,0.16533
6420.79,0.16148
6415.01,0.16243
6409.22,0.16834
6403.43,0.16594
6397.65,0.16617
6391.86,0.16559
6386.08,0.16541
6380.29,0.16569
6374.5,0.16658
6368.72,0.16443
6362.93,0.16717
6357.14,0.16717
6351.36,0.16266
6345.57,0.16757
6339.79,0.16950
6334,0.16543
6328.21,0.16640
6322.43,0.16680
6316.64,0.16766
6310.85,0.16583
6305.07,0.17026
6299.28,0.16600
6293.5,0.16768
6287.71,0.16856
6281.92,0.16803
6276.14,0.17072
6270.35,0.17089
6264.56,0.16837
6258.78,0.17239
6252.99,0.17063
6247.21,0.17258
6241.42,0.17019
6235.63,0.17054
6229.85,0.17084
6224.06,0.17447
6218.27,0.17265
6212.49,0.17155
6206.7,0.17159
6200.92,0.17365
6195.13,0.17248
6189.34,0.17289
6183.56,0.16897
6177.77,0.17467
6171.98,0.17055
6166.2,0.17318
6160.41,0.17690
6154.63,0.17448
6148.84,0.17525
6143.05,0.17561
6137.27,0.17745
6131.48,0.17576
6125.7,0.17714
6119.91,0.17640
6114.12,0.17497
6108.34,0.17656
6102.55,0.17442
6096.76,0.17399
6090.98,0.17657
6085.19,0.17605
6079.41,0.17544
6073.62,0.17753
6067.83,0.17715
6062.05,0.17465
6056.26,0.17419
6050.47,0.17414
6044.69,0.17679
6038.9,0.17390
6033.12,0.17317
6027.33,0.17542
6021.54,0.17532
6015.76,0.17060
6009.97,0.17159
6004.18,0.17387
5998.4,0.17384
5992.61,0.17336
5986.83,0.17430
5981.04,0.17176
5975.25,0.17358
5969.47,0.17289
5963.68,0.17227
5957.89,0.17406
5952.11,0.17323
5946.32,0.17579
5940.54,0.17367
5934.75,0.17303
5928.96,0.17171
5923.18,0.17257
5917.39,0.17334
5911.6,0.17268
5905.82,0.17203
5900.03,0.17084
5894.25,0.17230
5888.46,0.17249
5882.67,0.17160
5876.89,0.17137
5871.1,0.17201
5865.31,0.17259
5859.53,0.17141
5853.74,0.17220
5847.96,0.17068
5842.17,0.17000
5836.38,0.16964
5830.6,0.16969
5824.81,0.16992
5819.02,0.17048
5813.24,0.16927
5807.45,0.16923
5801.67,0.17136
5795.88,0.17143
5790.09,0.16944
5784.31,0.17129
5778.52,0.17165
5772.73,0.17303
5766.95,0.17326
5761.16,0.17068
5755.38,0.17124
5749.59,0.17372
5743.8,0.17395
5738.02,0.17375
5732.23,0.17414
5726.44,0.17645
5720.66,0.17432
5714.87,0.17358
5709.09,0.17330
5703.3,0.17456
5697.51,0.17328
5691.73,0.17426
5685.94,0.17343
5680.15,0.17208
5674.37,0.17270
5668.58,0.17435
5662.8,0.17482
5657.01,0.17496
5651.22,0.17484
5645.44,0.17463
5639.65,0.17541
5633.87,0.17616
5628.08,0.17532
5622.29,0.17630
5616.51,0.17764
5610.72,0.17613
5604.93,0.17727
5599.15,0.17676
5593.36,0.17550
5587.58,0.17612
5581.79,0.17693
5576,0.17676
5570.22,0.17589
5564.43,0.17808
5558.64,0.17658
5552.86,0.17741
5547.07,0.17862
5541.29,0.17592
5535.5,0.17706
5529.71,0.17926
5523.93,0.18036
5518.14,0.17944
5512.35,0.17907
5506.57,0.17993
5500.78,0.17916
5495,0.17757
5489.21,0.18012
5483.42,0.18062
5477.64,0.18052
5471.85,0.18060
5466.06,0.17987
5460.28,0.18090
5454.49,0.18096
5448.71,0.18214
5442.92,0.18258
5437.13,0.18188
5431.35,0.18332
5425.56,0.18396
5419.77,0.18395
5413.99,0.18409
5408.2,0.18396
5402.42,0.18312
5396.63,0.18362
5390.84,0.18437
5385.06,0.18319
5379.27,0.18391
5373.48,0.18424
5367.7,0.18361
5361.91,0.18366
5356.13,0.18335
5350.34,0.18270
5344.55,0.18302
5338.77,0.18351
5332.98,0.18362
5327.19,0.18260
5321.41,0.18307
5315.62,0.17933
5309.84,0.17815
5304.05,0.17840
5298.26,0.17681
5292.48,0.17486
5286.69,0.17158
5280.9,0.17006
5275.12,0.16742
5269.33,0.16444
5263.55,0.16271
5257.76,0.15888
5251.97,0.15792
5246.19,0.15542
5240.4,0.15446
5234.61,0.15072
5228.83,0.14924
5223.04,0.14908
5217.26,0.14732
5211.47,0.14619
5205.68,0.14637
5199.9,0.14547
5194.11,0.14456
5188.32,0.14612
5182.54,0.14658
5176.75,0.14525
5170.97,0.14534
5165.18,0.14565
5159.39,0.14714
5153.61,0.14812
5147.82,0.14742
5142.03,0.14864
5136.25,0.14887
5130.46,0.14954
5124.68,0.14997
5118.89,0.14989
5113.1,0.15197
5107.32,0.15200
5101.53,0.15251
5095.75,0.15367
5089.96,0.15382
5084.17,0.15499
5078.39,0.15430
5072.6,0.15546
5066.81,0.15624
5061.03,0.15592
5055.24,0.15678
5049.46,0.15787
5043.67,0.15802
5037.88,0.15870
5032.1,0.15857
5026.31,0.16006
5020.52,0.16094
5014.74,0.16167
5008.95,0.16146
5003.17,0.16068
4997.38,0.16056
4991.59,0.16139
4985.81,0.16083
4980.02,0.16212
4974.23,0.16185
4968.45,0.16144
4962.66,0.16076
4956.88,0.15994
4951.09,0.15956
4945.3,0.15887
4939.52,0.15834
4933.73,0.15710
4927.94,0.15584
4922.16,0.15528
4916.37,0.15472
4910.59,0.15419
4904.8,0.15320
4899.01,0.15288
4893.23,0.15183
4887.44,0.15066
4881.65,0.15106
4875.87,0.15013
4870.08,0.14922
4864.3,0.15000
4858.51,0.14987
4852.72,0.14960
4846.94,0.14905
4841.15,0.14925
4835.36,0.14892
4829.58,0.14807
4823.79,0.14705
4818.01,0.14714
4812.22,0.14774
4806.43,0.14812
4800.65,0.14795
4794.86,0.14781
4789.07,0.14829
4783.29,0.14664
4777.5,0.14762
4771.72,0.14774
4765.93,0.14745
4760.14,0.14712
4754.36,0.14697
4748.57,0.14756
4742.78,0.14778
4737,0.14678
4731.21,0.14625
4725.43,0.14639
4719.64,0.14709
4713.85,0.14759
4708.07,0.14666
4702.28,0.14721
4696.49,0.14696
4690.71,0.14696
4684.92,0.14810
4679.14,0.14699
4673.35,0.14652
4667.56,0.14699
4661.78,0.14727
4655.99,0.14851
4650.2,0.14906
4644.42,0.15079
4638.63,0.15005
4632.85,0.15117
4627.06,0.15104
4621.27,0.15090
4615.49,0.15105
4609.7,0.15221
4603.92,0.15285
4598.13,0.15279
4592.34,0.15302
4586.56,0.15333
4580.77,0.15328
4574.98,0.15362
4569.2,0.15401
4563.41,0.15514
4557.63,0.15423
4551.84,0.15455
4546.05,0.15531
4540.27,0.15390
4534.48,0.15534
4528.69,0.15516
4522.91,0.15512
4517.12,0.15513
4511.34,0.15584
4505.55,0.15468
4499.76,0.15537
4493.98,0.15439
4488.19,0.15321
4482.4,0.15217
4476.62,0.15073
4470.83,0.14851
4465.05,0.14692
4459.26,0.14414
4453.47,0.14279
4447.69,0.14010
4441.9,0.13809
4436.11,0.13685
4430.33,0.13547
4424.54,0.13557
4418.76,0.13465
4412.97,0.13390
4407.18,0.13366
4401.4,0.13352
4395.61,0.13357
4389.82,0.13310
4384.04,0.13357
4378.25,0.13309
4372.47,0.13314
4366.68,0.13295
4360.89,0.13263
4355.11,0.13153
4349.32,0.13167
4343.53,0.13046
4337.75,0.12891
4331.96,0.12842
4326.18,0.12810
4320.39,0.12863
4314.6,0.13049
4308.82,0.13086
4303.03,0.13102
4297.24,0.13020
4291.46,0.13061
4285.67,0.13086
4279.89,0.13078
4274.1,0.12943
4268.31,0.12932
4262.53,0.12972
4256.74,0.12912
4250.95,0.12909
4245.17,0.13080
4239.38,0.13140
4233.6,0.13232
4227.81,0.13315
4222.02,0.13342
4216.24,0.13284
4210.45,0.13340
4204.66,0.13332
4198.88,0.13304
4193.09,0.13365
4187.31,0.13327
4181.52,0.13389
4175.73,0.13437
4169.95,0.13430
4164.16,0.13437
4158.37,0.13373
4152.59,0.13257
4146.8,0.13242
4141.02,0.13172
4135.23,0.13117
4129.44,0.13037
4123.66,0.13019
4117.87,0.12986
4112.09,0.12956
4106.3,0.12794
4100.51,0.12675
4094.73,0.12623
4088.94,0.12595
4083.15,0.12501
4077.37,0.12374
4071.58,0.12262
4065.8,0.12162
4060.01,0.12123
4054.22,0.11987
4048.44,0.11940
4042.65,0.11844
4036.86,0.11773
4031.08,0.11752
4025.29,0.11678
4019.51,0.11638
4013.72,0.11595
4007.93,0.11643
4002.15,0.11668
3996.36,0.11650
3990.57,0.11662
3984.79,0.11747
3979,0.11759
3973.22,0.11812
3967.43,0.11833
3961.64,0.11950
3955.86,0.12010
3950.07,0.12001
3944.28,0.12093
3938.5,0.12222
3932.71,0.12233
3926.93,0.12245
3921.14,0.12291
3915.35,0.12399
3909.57,0.12509
3903.78,0.12630
3897.99,0.12676
3892.21,0.12692
3886.42,0.12818
3880.64,0.12863
3874.85,0.12938
3869.06,0.13007
3863.28,0.13102
3857.49,0.13134
3851.7,0.13247
3845.92,0.13282
3840.13,0.13345
3834.35,0.13381
3828.56,0.13419
3822.77,0.13397
3816.99,0.13427
3811.2,0.13404
3805.41,0.13442
3799.63,0.13357
3793.84,0.13268
3788.06,0.13301
3782.27,0.13290
3776.48,0.13169
3770.7,0.13159
3764.91,0.13094
3759.12,0.13031
3753.34,0.12990
3747.55,0.12913
3741.77,0.12806
3735.98,0.12726
3730.19,0.12627
3724.41,0.12389
3718.62,0.12232
3712.83,0.11989
3707.05,0.11737
3701.26,0.11363
3695.48,0.10968
3689.69,0.10539
3683.9,0.09935
3678.12,0.08908
3672.33,0.08699
3666.54,0.08407
3660.76,0.08013
3654.97,0.07731
3649.19,0.07411
3643.4,0.07060
3637.61,0.06943
3631.83,0.06696
3626.04,0.06555
3620.25,0.06478
3614.47,0.06313
3608.68,0.06100
3602.9,0.05987
3597.11,0.05935
3591.32,0.05826
3585.54,0.05655
3579.75,0.05652
3573.97,0.05586
3568.18,0.05546
3562.39,0.05507
3556.61,0.05407
3550.82,0.05373
3545.03,0.05317
3539.25,0.05306
3533.46,0.05274
3527.68,0.05256
3521.89,0.05229
3516.1,0.05160
3510.32,0.05182
3504.53,0.05182
3498.74,0.05193
3492.96,0.05179
3487.17,0.05120
3481.39,0.05048
3475.6,0.05107
3469.81,0.05086
3464.03,0.05117
3458.24,0.05135
3452.45,0.05041
3446.67,0.05137
3440.88,0.05136
3435.1,0.05114
3429.31,0.05177
3423.52,0.05157
3417.74,0.05125
3411.95,0.05127
3406.16,0.05170
3400.38,0.05170
3394.59,0.05127
3388.81,0.05094
3383.02,0.05081
3377.23,0.05126
3371.45,0.05128
3365.66,0.05105
3359.87,0.05143
3354.09,0.05125
3348.3,0.05164
3342.52,0.05214
3336.73,0.05118
3330.94,0.05165
3325.16,0.05146
3319.37,0.05200
3313.58,0.05195
3307.8,0.05178
3302.01,0.05220
3296.23,0.05266
3290.44,0.05332
3284.65,0.05322
3278.87,0.05284
3273.08,0.05295
3267.29,0.05302
3261.51,0.05331
3255.72,0.05341
3249.94,0.05406
3244.15,0.05365
3238.36,0.05406
3232.58,0.05419
3226.79,0.05466
3221,0.05517
3215.22,0.05555
3209.43,0.05504
3203.65,0.05550
3197.86,0.05527
3192.07,0.05657
3186.29,0.05639
3180.5,0.05636
3174.71,0.05707
3168.93,0.05699
3163.14,0.05729
3157.36,0.05717
3151.57,0.05781
3145.78,0.05823
3140,0.05798
3134.21,0.05891
3128.42,0.05876
3122.64,0.05922
3116.85,0.05976
3111.07,0.05982
3105.28,0.06038
3099.49,0.06018
3093.71,0.05917
3087.92,0.05966
3082.14,0.06007
3076.35,0.06004
3070.56,0.06008
3064.78,0.06079
3058.99,0.06049
3053.2,0.06117
3047.42,0.06114
3041.63,0.06135
3035.85,0.06101
3030.06,0.06070
3024.27,0.06034
3018.49,0.06020
3012.7,0.05973
3006.91,0.05849
3001.13,0.05795
2995.34,0.05710
2989.56,0.05629
2983.77,0.05581
2977.98,0.05454
2972.2,0.05354
2966.41,0.05302
2960.62,0.05262
2954.84,0.05260
2949.05,0.05206
2943.27,0.05181
2937.48,0.05186
2931.69,0.05252
2925.91,0.05363
2920.12,0.05467
2914.33,0.05585
2908.55,0.05545
2902.76,0.05553
2896.98,0.05570
2891.19,0.05548
2885.4,0.05598
2879.62,0.05553
2873.83,0.05571
2868.04,0.05556
2862.26,0.05573
2856.47,0.05595
2850.69,0.05711
2844.9,0.05928
2839.11,0.06040
2833.33,0.06202
2827.54,0.06375
2821.75,0.06487
2815.97,0.06577
2810.18,0.06719
2804.4,0.06812
2798.61,0.06842
2792.82,0.06941
2787.04,0.06997
2781.25,0.07042
2775.46,0.07099
2769.68,0.07193
2763.89,0.07200
2758.11,0.07220
2752.32,0.07226
2746.53,0.07238
2740.75,0.07305
2734.96,0.07313
2729.17,0.07338
2723.39,0.07428
2717.6,0.07441
2711.82,0.07461
2706.03,0.07528
2700.24,0.07589
2694.46,0.07635
2688.67,0.07691
2682.88,0.07713
2677.1,0.07717
2671.31,0.07749
2665.53,0.07789
2659.74,0.07801
2653.95,0.07836
2648.17,0.07887
2642.38,0.07947
2636.59,0.07932
2630.81,0.08035
2625.02,0.08068
2619.24,0.08148
2613.45,0.08179
2607.66,0.08258
2601.88,0.08291
2596.09,0.08322
2590.3,0.08332
2584.52,0.08353
2578.73,0.08371
2572.95,0.08372
2567.16,0.08339
2561.37,0.08272
2555.59,0.08231
2549.8,0.08306
2544.02,0.08409
2538.23,0.08483
2532.44,0.08584
2526.66,0.08691
2520.87,0.08774
2515.08,0.08875
2509.3,0.08918
2503.51,0.09038
2497.73,0.09116
2491.94,0.09221
2486.15,0.09280
2480.37,0.09399
2474.58,0.09524
2468.79,0.09516
2463.01,0.09585
2457.22,0.09635
2451.44,0.09682
2445.65,0.09698
2439.86,0.09767
2434.08,0.09819
2428.29,0.09894
2422.5,0.09935
2416.72,0.09948
2410.93,0.10059
2405.15,0.10142
2399.36,0.10183
2393.57,0.10230
2387.79,0.10269
2382,0.10298
2376.21,0.10360
2370.43,0.10431
2364.64,0.10473
2358.86,0.10533
2353.07,0.10575
2347.28,0.10634
2341.5,0.10607
2335.71,0.10621
2329.92,0.10676
2324.14,0.10710
2318.35,0.10792
2312.57,0.10786
2306.78,0.10783
2300.99,0.10757
2295.21,0.10722
2289.42,0.10724
2283.63,0.10730
2277.85,0.10714
2272.06,0.10660
2266.28,0.10594
2260.49,0.10544
2254.7,0.10525
2248.92,0.10422
2243.13,0.10447
2237.34,0.10391
2231.56,0.10361
2225.77,0.10327
2219.99,0.10316
2214.2,0.10278
2208.41,0.10258
2202.63,0.10211
2196.84,0.10164
2191.05,0.10093
2185.27,0.09995
2179.48,0.09916
2173.7,0.09816
2167.91,0.09707
2162.12,0.09602
2156.34,0.09528
2150.55,0.09423
2144.76,0.09432
2138.98,0.09358
2133.19,0.09390
2127.41,0.09425
2121.62,0.09392
2115.83,0.09427
2110.05,0.09497
2104.26,0.09525
2098.47,0.09575
2092.69,0.09622
2086.9,0.09664
2081.12,0.09664
2075.33,0.09663
2069.54,0.09651
2063.76,0.09644
2057.97,0.09693
2052.19,0.09719
2046.4,0.09745
2040.61,0.09750
2034.83,0.09769
2029.04,0.09835
2023.25,0.09903
2017.47,0.09923
2011.68,0.10010
2005.9,0.09986
2000.11,0.09988
1994.32,0.09986
1988.54,0.09954
1982.75,0.09951
1976.96,0.09997
1971.18,0.09955
1965.39,0.09891
1959.61,0.09792
1953.82,0.09806
1948.03,0.09881
1942.25,0.10035
1936.46,0.10128
1930.67,0.10269
1924.89,0.10325
1919.1,0.10369
1913.32,0.10417
1907.53,0.10398
1901.74,0.10426
1895.96,0.10390
1890.17,0.10287
1884.38,0.10224
1878.6,0.10132
1872.81,0.10033
1867.03,0.09892
1861.24,0.09690
1855.45,0.09499
1849.67,0.09304
1843.88,0.09143
1838.09,0.09054
1832.31,0.08863
1826.52,0.08652
1820.74,0.08413
1814.95,0.08175
1809.16,0.07872
1803.38,0.07509
1797.59,0.07105
1791.8,0.06684
1786.02,0.06239
1780.23,0.05765
1774.45,0.05262
1768.66,0.04719
1762.87,0.04234
1757.09,0.03828
1751.3,0.03604
1745.51,0.03672
1739.73,0.04024
1733.94,0.04474
1728.16,0.04942
1722.37,0.05384
1716.58,0.05647
1710.8,0.05671
1705.01,0.05544
1699.22,0.05312
1693.44,0.04927
1687.65,0.04596
1681.87,0.04160
1676.08,0.04073
1670.29,0.04223
1664.51,0.04698
1658.72,0.05202
1652.93,0.05681
1647.15,0.06086
1641.36,0.06461
1635.58,0.06658
1629.79,0.06625
1624,0.06467
1618.22,0.06300
1612.43,0.06166
1606.64,0.05982
1600.86,0.05830
1595.07,0.05939
1589.29,0.06009
1583.5,0.05873
1577.71,0.06032
1571.93,0.06380
1566.14,0.06544
1560.35,0.06768
1554.57,0.07033
1548.78,0.07286
1543,0.07254
1537.21,0.06699
1531.42,0.06459
1525.64,0.06407
1519.85,0.06238
1514.07,0.06097
1508.28,0.06037
1502.49,0.05873
1496.71,0.05670
1490.92,0.05471
1485.13,0.05536
1479.35,0.05482
1473.56,0.05171
1467.78,0.04884
1461.99,0.04875
1456.2,0.04910
1450.42,0.05000
1444.63,0.05148
1438.84,0.05268
1433.06,0.05255
1427.27,0.05142
1421.49,0.05038
1415.7,0.04928
1409.91,0.04897
1404.13,0.04851
1398.34,0.04764
1392.55,0.04675
1386.77,0.04542
1380.98,0.04449
1375.2,0.04451
1369.41,0.04492
1363.62,0.04516
1357.84,0.04417
1352.05,0.04354
1346.26,0.04197
1340.48,0.04040
1334.69,0.03921
1328.91,0.03770
1323.12,0.03705
1317.33,0.03604
1311.55,0.03496
1305.76,0.03409
1299.97,0.03418
1294.19,0.03843
1288.4,0.04939
1282.62,0.06672
1276.83,0.08136
1271.04,0.07770
1265.26,0.07121
1259.47,0.06898
1253.68,0.06834
1247.9,0.06738
1242.11,0.06497
1236.33,0.06266
1230.54,0.06067
1224.75,0.05893
1218.97,0.05706
1213.18,0.05612
1207.39,0.05482
1201.61,0.05416
1195.82,0.05282
1190.04,0.05116
1184.25,0.04911
1178.46,0.04782
1172.68,0.04600
1166.89,0.04539
1161.1,0.04555
1155.32,0.04562
1149.53,0.04552
1143.75,0.04620
1137.96,0.04831
1132.17,0.05015
1126.39,0.05253
1120.6,0.05540
1114.81,0.05764
1109.03,0.05694
1103.24,0.05498
1097.46,0.05351
1091.67,0.05232
1085.88,0.05171
1080.1,0.05429
1074.31,0.06033
1068.52,0.06646
1062.74,0.06925
1056.95,0.07009
1051.17,0.07005
1045.38,0.06860
1039.59,0.06919
1033.81,0.06980
1028.02,0.06958
1022.24,0.07087
1016.45,0.07113
1010.66,0.06991
1004.88,0.06858
999.09,0.06883
993.304,0.06898
987.518,0.06979
981.731,0.07029
975.945,0.07098
970.159,0.07073
964.373,0.06992
958.586,0.07033
952.8,0.06930
947.014,0.06842
941.228,0.06804
935.441,0.06730
929.655,0.06514
923.869,0.06360
918.083,0.06357
912.297,0.06223
906.51,0.06133
900.724,0.05964
894.938,0.05834
889.152,0.05785
883.365,0.05633
877.579,0.05423
871.793,0.05364
866.007,0.05370
860.22,0.05530
854.434,0.05808
848.648,0.06194
842.862,0.06785
837.075,0.07206
831.289,0.07493
825.503,0.07551
819.717,0.07544
813.931,0.07332
808.144,0.07066
802.358,0.06805
796.572,0.06649
790.786,0.06604
784.999,0.06419
779.213,0.06251
773.427,0.06291
767.641,0.06056
761.854,0.05899
756.068,0.05730
750.282,0.05820
744.496,0.06329
738.709,0.06772
732.923,0.06612
727.137,0.06445
721.351,0.06236
715.565,0.06050
709.778,0.06038
703.992,0.06330
698.206,0.06346
692.42,0.06389
686.633,0.06468
680.847,0.06441
675.061,0.06530
669.275,0.06584
663.488,0.06419
657.702,0.06085
651.916,0.05975
646.13,0.05904
640.343,0.05737
634.557,0.05879
628.771,0.05773
622.985,0.05658
617.198,0.05611
611.412,0.05813
605.626,0.06015
599.84,0.05745