File: 01_Data/Engineered_Wood_Furniture/FTIR/IS/Engineered_Wood_Furniture_IS_S_221005_R3.dpt
7497.03,0.17562
7491.25,0.18259
7485.46,0.17424
7479.67,0.18226
7473.89,0.16351
7468.1,0.17038
7462.32,0.17356
7456.53,0.17361
7450.74,0.17233
7444.96,0.17509
7439.17,0.17407
7433.38,0.17253
7427.6,0.17100
7421.81,0.17667
7416.03,0.17945
7410.24,0.17840
7404.45,0.17424
7398.67,0.17196
7392.88,0.17293
7387.09,0.16429
7381.31,0.18550
7375.52,0.17425
7369.74,0.17186
7363.95,0.17997
7358.16,0.17842
7352.38,0.17143
7346.59,0.17487
7340.8,0.16615
7335.02,0.16787
7329.23,0.17476
7323.45,0.17180
7317.66,0.17907
7311.87,0.18120
7306.09,0.17239
7300.3,0.18137
7294.51,0.17357
7288.73,0.16546
7282.94,0.17295
7277.16,0.17227
7271.37,0.17031
7265.58,0.17672
7259.8,0.17538
7254.01,0.16847
7248.22,0.16716
7242.44,0.17033
7236.65,0.17589
7230.87,0.17025
7225.08,0.17423
7219.29,0.16696
7213.51,0.17230
7207.72,0.16844
7201.93,0.17343
7196.15,0.17765
7190.36,0.16762
7184.58,0.17201
7178.79,0.17029
7173,0.16697
7167.22,0.16128
7161.43,0.17199
7155.65,0.17828
7149.86,0.17331
7144.07,0.16937
7138.29,0.17507
7132.5,0.17388
7126.71,0.16814
7120.93,0.16674
7115.14,0.16386
7109.36,0.16634
7103.57,0.17078
7097.78,0.17250
7092,0.16847
7086.21,0.16245
7080.42,0.16352
7074.64,0.16353
7068.85,0.16702
7063.07,0.16318
7057.28,0.15905
7051.49,0.15924
7045.71,0.16311
7039.92,0.16565
7034.13,0.16090
7028.35,0.16166
7022.56,0.16386
7016.78,0.16317
7010.99,0.15603
7005.2,0.15937
6999.42,0.15952
6993.63,0.16096
6987.84,0.15599
6982.06,0.15472
6976.27,0.15842
6970.49,0.15384
6964.7,0.15567
6958.91,0.16413
6953.13,0.15751
6947.34,0.16489
6941.55,0.15856
6935.77,0.15736
6929.98,0.15791
6924.2,0.15715
6918.41,0.15786
6912.62,0.15410
6906.84,0.16185
6901.05,0.15655
6895.26,0.15948
6889.48,0.16000
6883.69,0.15773
6877.91,0.15591
6872.12,0.15311
6866.33,0.15685
6860.55,0.15478
6854.76,0.15152
6848.97,0.15820
6843.19,0.15274
6837.4,0.15713
6831.62,0.15147
6825.83,0.15039
6820.04,0.15542
6814.26,0.15846
6808.47,0.15924
6802.68,0.15684
6796.9,0.15352
6791.11,0.15605
6785.33,0.15667
6779.54,0.15467
6773.75,0.15874
6767.97,0.15552
6762.18,0.15469
6756.39,0.15306
6750.61,0.15837
6744.82,0.15601
6739.04,0.15490
6733.25,0.15748
6727.46,0.15729
6721.68,0.15537
6715.89,0.15759
6710.1,0.15897
6704.32,0.15562
6698.53,0.15782
6692.75,0.15772
6686.96,0.15601
6681.17,0.15440
6675.39,0.15490
6669.6,0.15944
6663.82,0.15862
6658.03,0.16257
6652.24,0.16044
6646.46,0.15746
6640.67,0.15557
6634.88,0.15785
6629.1,0.16124
6623.31,0.15787
6617.53,0.16367
6611.74,0.16302
6605.95,0.15986
6600.17,0.15844
6594.38,0.15911
6588.59,0.16247
6582.81,0.16010
6577.02,0.15866
6571.24,0.16513
6565.45,0.15996
6559.66,0.16127
6553.88,0.16501
6548.09,0.16180
6542.3,0.16563
6536.52,0.16225
6530.73,0.16295
6524.95,0.16046
6519.16,0.16246
6513.37,0.15997
6507.59,0.16381
6501.8,0.16214
6496.01,0.16267
6490.23,0.16583
6484.44,0.16880
6478.66,0.16430
6472.87,0.16229
6467.08,0.16042
6461.3,0.16632
6455.51,0.16185
6449.72,0.16523
6443.94,0.16639
6438.15,0.16845
6432.37,0.16167
6426.58,0.16274
6420.79,0.16875
6415.01,0.16921
6409.22,0.16361
6403.43,0.16091
6397.65,0.16582
6391.86,0.16566
6386.08,0.16287
6380.29,0.16440
6374.5,0.16456
6368.72,0.16685
6362.93,0.16497
6357.14,0.16880
6351.36,0.16877
6345.57,0.16776
6339.79,0.16873
6334,0.16802
6328.21,0.16783
6322.43,0.16627
6316.64,0.16707
6310.85,0.16858
6305.07,0.17157
6299.28,0.16899
6293.5,0.16704
6287.71,0.16560
6281.92,0.17037
6276.14,0.16466
6270.35,0.16912
6264.56,0.16767
6258.78,0.17066
6252.99,0.16982
6247.21,0.16696
6241.42,0.16868
6235.63,0.17208
6229.85,0.17107
6224.06,0.17186
6218.27,0.17006
6212.49,0.17038
6206.7,0.17316
6200.92,0.17378
6195.13,0.17365
6189.34,0.17421
6183.56,0.17332
6177.77,0.17451
6171.98,0.17300
6166.2,0.17294
6160.41,0.17667
6154.63,0.17619
6148.84,0.17358
6143.05,0.17112
6137.27,0.17733
6131.48,0.17627
6125.7,0.17473
6119.91,0.17605
6114.12,0.17515
6108.34,0.17801
6102.55,0.17761
6096.76,0.17522
6090.98,0.17802
6085.19,0.17752
6079.41,0.17454
6073.62,0.17417
6067.83,0.17697
6062.05,0.17550
6056.26,0.17567
6050.47,0.17462
6044.69,0.17703
6038.9,0.17499
6033.12,0.17257
6027.33,0.17319
6021.54,0.17204
6015.76,0.17302
6009.97,0.17287
6004.18,0.17274
5998.4,0.17190
5992.61,0.17238
5986.83,0.17341
5981.04,0.17111
5975.25,0.17098
5969.47,0.17249
5963.68,0.17511
5957.89,0.17471
5952.11,0.17358
5946.32,0.17346
5940.54,0.17385
5934.75,0.17434
5928.96,0.17336
5923.18,0.17322
5917.39,0.17397
5911.6,0.17341
5905.82,0.17365
5900.03,0.17321
5894.25,0.17054
5888.46,0.16890
5882.67,0.17379
5876.89,0.17147
5871.1,0.17246
5865.31,0.17192
5859.53,0.17162
5853.74,0.17306
5847.96,0.16919
5842.17,0.16935
5836.38,0.16818
5830.6,0.17315
5824.81,0.17159
5819.02,0.16871
5813.24,0.16875
5807.45,0.17057
5801.67,0.17067
5795.88,0.17146
5790.09,0.17026
5784.31,0.16918
5778.52,0.16944
5772.73,0.17122
5766.95,0.17148
5761.16,0.17352
5755.38,0.17319
5749.59,0.17276
5743.8,0.17254
5738.02,0.17393
5732.23,0.17426
5726.44,0.17451
5720.66,0.17307
5714.87,0.17328
5709.09,0.17691
5703.3,0.17618
5697.51,0.17476
5691.73,0.17318
5685.94,0.17290
5680.15,0.17270
5674.37,0.17444
5668.58,0.17401
5662.8,0.17447
5657.01,0.17452
5651.22,0.17340
5645.44,0.17483
5639.65,0.17663
5633.87,0.17676
5628.08,0.17603
5622.29,0.17536
5616.51,0.17784
5610.72,0.17547
5604.93,0.17812
5599.15,0.17751
5593.36,0.17633
5587.58,0.17607
5581.79,0.17668
5576,0.17814
5570.22,0.17578
5564.43,0.17684
5558.64,0.17777
5552.86,0.17771
5547.07,0.17775
5541.29,0.17792
5535.5,0.17849
5529.71,0.17669
5523.93,0.17753
5518.14,0.17867
5512.35,0.17958
5506.57,0.17933
5500.78,0.17918
5495,0.17970
5489.21,0.17968
5483.42,0.17824
5477.64,0.17949
5471.85,0.18074
5466.06,0.18044
5460.28,0.17980
5454.49,0.18132
5448.71,0.18134
5442.92,0.18259
5437.13,0.18257
5431.35,0.18173
5425.56,0.18171
5419.77,0.18402
5413.99,0.18249
5408.2,0.18299
5402.42,0.18399
5396.63,0.18357
5390.84,0.18452
5385.06,0.18371
5379.27,0.18331
5373.48,0.18511
5367.7,0.18403
5361.91,0.18368
5356.13,0.18288
5350.34,0.18301
5344.55,0.18311
5338.77,0.18295
5332.98,0.18195
5327.19,0.18117
5321.41,0.18112
5315.62,0.17881
5309.84,0.17781
5304.05,0.17910
5298.26,0.17673
5292.48,0.17456
5286.69,0.17353
5280.9,0.17074
5275.12,0.16743
5269.33,0.16551
5263.55,0.16245
5257.76,0.15939
5251.97,0.15792
5246.19,0.15472
5240.4,0.15302
5234.61,0.15193
5228.83,0.15178
5223.04,0.15001
5217.26,0.14744
5211.47,0.14677
5205.68,0.14705
5199.9,0.14623
5194.11,0.14809
5188.32,0.14641
5182.54,0.14730
5176.75,0.14681
5170.97,0.14845
5165.18,0.14640
5159.39,0.14723
5153.61,0.14716
5147.82,0.14866
5142.03,0.14985
5136.25,0.14916
5130.46,0.15087
5124.68,0.15029
5118.89,0.15181
5113.1,0.15241
5107.32,0.15253
5101.53,0.15372
5095.75,0.15497
5089.96,0.15462
5084.17,0.15543
5078.39,0.15548
5072.6,0.15548
5066.81,0.15554
5061.03,0.15733
5055.24,0.15763
5049.46,0.15742
5043.67,0.15824
5037.88,0.15851
5032.1,0.16060
5026.31,0.16173
5020.52,0.16063
5014.74,0.16113
5008.95,0.16047
5003.17,0.16069
4997.38,0.16175
4991.59,0.16218
4985.81,0.16234
4980.02,0.16049
4974.23,0.16032
4968.45,0.16043
4962.66,0.16074
4956.88,0.15968
4951.09,0.15999
4945.3,0.15890
4939.52,0.15727
4933.73,0.15820
4927.94,0.15639
4922.16,0.15487
4916.37,0.15475
4910.59,0.15346
4904.8,0.15339
4899.01,0.15196
4893.23,0.15180
4887.44,0.15142
4881.65,0.15148
4875.87,0.15095
4870.08,0.14954
4864.3,0.14917
4858.51,0.14956
4852.72,0.14895
4846.94,0.14855
4841.15,0.14814
4835.36,0.14824
4829.58,0.14801
4823.79,0.14770
4818.01,0.14681
4812.22,0.14735
4806.43,0.14659
4800.65,0.14666
4794.86,0.14661
4789.07,0.14726
4783.29,0.14804
4777.5,0.14775
4771.72,0.14766
4765.93,0.14762
4760.14,0.14765
4754.36,0.14701
4748.57,0.14622
4742.78,0.14744
4737,0.14701
4731.21,0.14749
4725.43,0.14683
4719.64,0.14714
4713.85,0.14781
4708.07,0.14742
4702.28,0.14620
4696.49,0.14713
4690.71,0.14707
4684.92,0.14668
4679.14,0.14626
4673.35,0.14696
4667.56,0.14664
4661.78,0.14782
4655.99,0.14763
4650.2,0.14892
4644.42,0.14983
4638.63,0.14980
4632.85,0.14930
4627.06,0.14950
4621.27,0.14968
4615.49,0.15075
4609.7,0.15164
4603.92,0.15250
4598.13,0.15260
4592.34,0.15218
4586.56,0.15308
4580.77,0.15352
4574.98,0.15408
4569.2,0.15414
4563.41,0.15332
4557.63,0.15393
4551.84,0.15470
4546.05,0.15456
4540.27,0.15480
4534.48,0.15344
4528.69,0.15377
4522.91,0.15498
4517.12,0.15462
4511.34,0.15516
4505.55,0.15550
4499.76,0.15477
4493.98,0.15452
4488.19,0.15331
4482.4,0.15172
4476.62,0.14966
4470.83,0.14772
4465.05,0.14638
4459.26,0.14366
4453.47,0.14183
4447.69,0.13984
4441.9,0.13801
4436.11,0.13690
4430.33,0.13544
4424.54,0.13443
4418.76,0.13388
4412.97,0.13349
4407.18,0.13332
4401.4,0.13377
4395.61,0.13203
4389.82,0.13341
4384.04,0.13322
4378.25,0.13299
4372.47,0.13334
4366.68,0.13233
4360.89,0.13268
4355.11,0.13256
4349.32,0.13138
4343.53,0.13013
4337.75,0.12891
4331.96,0.12861
4326.18,0.12759
4320.39,0.12894
4314.6,0.13075
4308.82,0.13044
4303.03,0.13025
4297.24,0.13098
4291.46,0.13127
4285.67,0.13080
4279.89,0.13034
4274.1,0.12962
4268.31,0.12933
4262.53,0.12931
4256.74,0.12852
4250.95,0.12979
4245.17,0.13066
4239.38,0.13144
4233.6,0.13289
4227.81,0.13222
4222.02,0.13255
4216.24,0.13355
4210.45,0.13331
4204.66,0.13368
4198.88,0.13324
4193.09,0.13368
4187.31,0.13276
4181.52,0.13347
4175.73,0.13397
4169.95,0.13394
4164.16,0.13420
4158.37,0.13367
4152.59,0.13329
4146.8,0.13201
4141.02,0.13146
4135.23,0.13120
4129.44,0.13062
4123.66,0.12975
4117.87,0.12896
4112.09,0.12831
4106.3,0.12737
4100.51,0.12704
4094.73,0.12653
4088.94,0.12546
4083.15,0.12466
4077.37,0.12326
4071.58,0.12238
4065.8,0.12111
4060.01,0.12029
4054.22,0.11997
4048.44,0.11934
4042.65,0.11852
4036.86,0.11731
4031.08,0.11760
4025.29,0.11709
4019.51,0.11598
4013.72,0.11655
4007.93,0.11635
4002.15,0.11616
3996.36,0.11659
3990.57,0.11683
3984.79,0.11734
3979,0.11744
3973.22,0.11759
3967.43,0.11807
3961.64,0.11903
3955.86,0.11918
3950.07,0.11994
3944.28,0.12107
3938.5,0.12145
3932.71,0.12195
3926.93,0.12237
3921.14,0.12365
3915.35,0.12433
3909.57,0.12531
3903.78,0.12591
3897.99,0.12610
3892.21,0.12671
3886.42,0.12818
3880.64,0.12855
3874.85,0.12932
3869.06,0.12981
3863.28,0.13035
3857.49,0.13155
3851.7,0.13166
3845.92,0.13308
3840.13,0.13309
3834.35,0.13321
3828.56,0.13387
3822.77,0.13363
3816.99,0.13347
3811.2,0.13382
3805.41,0.13359
3799.63,0.13397
3793.84,0.13389
3788.06,0.13362
3782.27,0.13346
3776.48,0.13239
3770.7,0.13114
3764.91,0.13128
3759.12,0.13102
3753.34,0.13036
3747.55,0.12966
3741.77,0.12861
3735.98,0.12785
3730.19,0.12652
3724.41,0.12462
3718.62,0.12288
3712.83,0.12110
3707.05,0.11790
3701.26,0.11470
3695.48,0.11141
3689.69,0.10645
3683.9,0.10147
3678.12,0.09029
3672.33,0.08773
3666.54,0.08572
3660.76,0.08173
3654.97,0.07818
3649.19,0.07501
3643.4,0.07217
3637.61,0.07067
3631.83,0.06861
3626.04,0.06670
3620.25,0.06483
3614.47,0.06316
3608.68,0.06189
3602.9,0.06029
3597.11,0.05968
3591.32,0.05854
3585.54,0.05819
3579.75,0.05655
3573.97,0.05636
3568.18,0.05500
3562.39,0.05464
3556.61,0.05460
3550.82,0.05399
3545.03,0.05351
3539.25,0.05274
3533.46,0.05255
3527.68,0.05210
3521.89,0.05160
3516.1,0.05165
3510.32,0.05171
3504.53,0.05163
3498.74,0.05122
3492.96,0.05075
3487.17,0.05137
3481.39,0.05119
3475.6,0.05130
3469.81,0.05107
3464.03,0.05098
3458.24,0.05118
3452.45,0.05080
3446.67,0.05157
3440.88,0.05093
3435.1,0.05123
3429.31,0.05119
3423.52,0.05132
3417.74,0.05137
3411.95,0.05122
3406.16,0.05085
3400.38,0.05131
3394.59,0.05114
3388.81,0.05099
3383.02,0.05124
3377.23,0.05167
3371.45,0.05105
3365.66,0.05165
3359.87,0.05071
3354.09,0.05124
3348.3,0.05157
3342.52,0.05151
3336.73,0.05086
3330.94,0.05170
3325.16,0.05160
3319.37,0.05183
3313.58,0.05230
3307.8,0.05263
3302.01,0.05196
3296.23,0.05214
3290.44,0.05267
3284.65,0.05261
3278.87,0.05279
3273.08,0.05301
3267.29,0.05303
3261.51,0.05398
3255.72,0.05398
3249.94,0.05432
3244.15,0.05445
3238.36,0.05507
3232.58,0.05467
3226.79,0.05485
3221,0.05489
3215.22,0.05530
3209.43,0.05536
3203.65,0.05560
3197.86,0.05564
3192.07,0.05621
3186.29,0.05601
3180.5,0.05692
3174.71,0.05686
3168.93,0.05730
3163.14,0.05798
3157.36,0.05765
3151.57,0.05831
3145.78,0.05831
3140,0.05879
3134.21,0.05889
3128.42,0.05913
3122.64,0.05951
3116.85,0.05998
3111.07,0.05993
3105.28,0.06009
3099.49,0.05992
3093.71,0.05994
3087.92,0.06002
3082.14,0.06005
3076.35,0.06038
3070.56,0.06038
3064.78,0.06053
3058.99,0.06129
3053.2,0.06106
3047.42,0.06139
3041.63,0.06133
3035.85,0.06139
3030.06,0.06091
3024.27,0.06058
3018.49,0.06055
3012.7,0.05963
3006.91,0.05800
3001.13,0.05809
2995.34,0.05697
2989.56,0.05645
2983.77,0.05546
2977.98,0.05388
2972.2,0.05329
2966.41,0.05249
2960.62,0.05260
2954.84,0.05246
2949.05,0.05241
2943.27,0.05184
2937.48,0.05165
2931.69,0.05231
2925.91,0.05310
2920.12,0.05437
2914.33,0.05529
2908.55,0.05559
2902.76,0.05592
2896.98,0.05603
2891.19,0.05572
2885.4,0.05556
2879.62,0.05642
2873.83,0.05540
2868.04,0.05573
2862.26,0.05527
2856.47,0.05584
2850.69,0.05742
2844.9,0.05957
2839.11,0.06024
2833.33,0.06217
2827.54,0.06331
2821.75,0.06518
2815.97,0.06630
2810.18,0.06717
2804.4,0.06863
2798.61,0.06890
2792.82,0.06967
2787.04,0.07050
2781.25,0.07091
2775.46,0.07114
2769.68,0.07178
2763.89,0.07250
2758.11,0.07220
2752.32,0.07259
2746.53,0.07240
2740.75,0.07306
2734.96,0.07260
2729.17,0.07267
2723.39,0.07358
2717.6,0.07402
2711.82,0.07521
2706.03,0.07506
2700.24,0.07576
2694.46,0.07673
2688.67,0.07682
2682.88,0.07718
2677.1,0.07734
2671.31,0.07770
2665.53,0.07768
2659.74,0.07776
2653.95,0.07831
2648.17,0.07866
2642.38,0.07915
2636.59,0.07967
2630.81,0.08021
2625.02,0.08045
2619.24,0.08110
2613.45,0.08171
2607.66,0.08195
2601.88,0.08265
2596.09,0.08322
2590.3,0.08332
2584.52,0.08381
2578.73,0.08377
2572.95,0.08342
2567.16,0.08294
2561.37,0.08246
2555.59,0.08197
2549.8,0.08258
2544.02,0.08377
2538.23,0.08508
2532.44,0.08583
2526.66,0.08666
2520.87,0.08793
2515.08,0.08845
2509.3,0.08973
2503.51,0.09028
2497.73,0.09124
2491.94,0.09188
2486.15,0.09274
2480.37,0.09378
2474.58,0.09431
2468.79,0.09489
2463.01,0.09575
2457.22,0.09655
2451.44,0.09672
2445.65,0.09712
2439.86,0.09772
2434.08,0.09805
2428.29,0.09840
2422.5,0.09915
2416.72,0.09955
2410.93,0.10009
2405.15,0.10130
2399.36,0.10184
2393.57,0.10229
2387.79,0.10256
2382,0.10308
2376.21,0.10377
2370.43,0.10446
2364.64,0.10492
2358.86,0.10594
2353.07,0.10575
2347.28,0.10635
2341.5,0.10615
2335.71,0.10622
2329.92,0.10700
2324.14,0.10756
2318.35,0.10796
2312.57,0.10809
2306.78,0.10791
2300.99,0.10778
2295.21,0.10778
2289.42,0.10738
2283.63,0.10703
2277.85,0.10685
2272.06,0.10671
2266.28,0.10606
2260.49,0.10594
2254.7,0.10535
2248.92,0.10457
2243.13,0.10380
2237.34,0.10372
2231.56,0.10409
2225.77,0.10384
2219.99,0.10378
2214.2,0.10332
2208.41,0.10301
2202.63,0.10258
2196.84,0.10203
2191.05,0.10119
2185.27,0.10034
2179.48,0.09953
2173.7,0.09797
2167.91,0.09686
2162.12,0.09615
2156.34,0.09492
2150.55,0.09443
2144.76,0.09393
2138.98,0.09389
2133.19,0.09418
2127.41,0.09456
2121.62,0.09452
2115.83,0.09490
2110.05,0.09522
2104.26,0.09559
2098.47,0.09610
2092.69,0.09635
2086.9,0.09700
2081.12,0.09731
2075.33,0.09706
2069.54,0.09709
2063.76,0.09680
2057.97,0.09688
2052.19,0.09748
2046.4,0.09774
2040.61,0.09771
2034.83,0.09825
2029.04,0.09835
2023.25,0.09928
2017.47,0.09977
2011.68,0.10042
2005.9,0.10020
2000.11,0.10024
1994.32,0.09983
1988.54,0.09977
1982.75,0.09980
1976.96,0.09995
1971.18,0.09955
1965.39,0.09915
1959.61,0.09837
1953.82,0.09831
1948.03,0.09904
1942.25,0.10043
1936.46,0.10163
1930.67,0.10257
1924.89,0.10337
1919.1,0.10380
1913.32,0.10427
1907.53,0.10451
1901.74,0.10437
1895.96,0.10376
1890.17,0.10342
1884.38,0.10202
1878.6,0.10137
1872.81,0.10064
1867.03,0.09943
1861.24,0.09735
1855.45,0.09530
1849.67,0.09325
1843.88,0.09180
1838.09,0.09009
1832.31,0.08810
1826.52,0.08644
1820.74,0.08415
1814.95,0.08154
1809.16,0.07833
1803.38,0.07507
1797.59,0.07100
1791.8,0.06648
1786.02,0.06208
1780.23,0.05752
1774.45,0.05243
1768.66,0.04698
1762.87,0.04249
1757.09,0.03797
1751.3,0.03528
1745.51,0.03626
1739.73,0.03963
1733.94,0.04460
1728.16,0.04968
1722.37,0.05362
1716.58,0.05645
1710.8,0.05643
1705.01,0.05513
1699.22,0.05214
1693.44,0.04903
1687.65,0.04582
1681.87,0.04199
1676.08,0.04056
1670.29,0.04271
1664.51,0.04702
1658.72,0.05228
1652.93,0.05615
1647.15,0.06066
1641.36,0.06446
1635.58,0.06585
1629.79,0.06547
1624,0.06450
1618.22,0.06287
1612.43,0.06158
1606.64,0.06004
1600.86,0.05825
1595.07,0.05967
1589.29,0.06019
1583.5,0.05834
1577.71,0.05974
1571.93,0.06353
1566.14,0.06545
1560.35,0.06725
1554.57,0.07025
1548.78,0.07288
1543,0.07269
1537.21,0.06695
1531.42,0.06461
1525.64,0.06386
1519.85,0.06259
1514.07,0.06062
1508.28,0.05983
1502.49,0.05807
1496.71,0.05639
1490.92,0.05443
1485.13,0.05509
1479.35,0.05428
1473.56,0.05178
1467.78,0.04900
1461.99,0.04876
1456.2,0.04917
1450.42,0.04990
1444.63,0.05132
1438.84,0.05232
1433.06,0.05265
1427.27,0.05143
1421.49,0.05009
1415.7,0.04887
1409.91,0.04890
1404.13,0.04810
1398.34,0.04728
1392.55,0.04621
1386.77,0.04521
1380.98,0.04445
1375.2,0.04473
1369.41,0.04496
1363.62,0.04483
1357.84,0.04399
1352.05,0.04314
1346.26,0.04186
1340.48,0.04019
1334.69,0.03847
1328.91,0.03770
1323.12,0.03671
1317.33,0.03551
1311.55,0.03449
1305.76,0.03410
1299.97,0.03425
1294.19,0.03769
1288.4,0.04882
1282.62,0.06706
1276.83,0.08135
1271.04,0.07734
1265.26,0.07050
1259.47,0.06864
1253.68,0.06816
1247.9,0.06731
1242.11,0.06491
1236.33,0.06254
1230.54,0.06061
1224.75,0.05880
1218.97,0.05744
1213.18,0.05614
1207.39,0.05493
1201.61,0.05376
1195.82,0.05248
1190.04,0.05081
1184.25,0.04926
1178.46,0.04725
1172.68,0.04609
1166.89,0.04530
1161.1,0.04604
1155.32,0.04574
1149.53,0.04593
1143.75,0.04708
1137.96,0.04833
1132.17,0.04996
1126.39,0.05271
1120.6,0.05524
1114.81,0.05693
1109.03,0.05602
1103.24,0.05432
1097.46,0.05298
1091.67,0.05188
1085.88,0.05143
1080.1,0.05392
1074.31,0.05994
1068.52,0.06632
1062.74,0.06924
1056.95,0.06976
1051.17,0.06915
1045.38,0.06853
1039.59,0.06838
1033.81,0.06922
1028.02,0.06976
1022.24,0.07006
1016.45,0.07028
1010.66,0.06948
1004.88,0.06857
999.09,0.06817
993.304,0.06903
987.518,0.07002
981.731,0.07025
975.945,0.07043
970.159,0.07029
964.373,0.06998
958.586,0.06976
952.8,0.06904
947.014,0.06781
941.228,0.06729
935.441,0.06671
929.655,0.06513
923.869,0.06406
918.083,0.06295
912.297,0.06257
906.51,0.06138
900.724,0.05951
894.938,0.05862
889.152,0.05785
883.365,0.05619
877.579,0.05424
871.793,0.05385
866.007,0.05405
860.22,0.05596
854.434,0.05842
848.648,0.06243
842.862,0.06734
837.075,0.07220
831.289,0.07433
825.503,0.07554
819.717,0.07454
813.931,0.07310
808.144,0.07132
802.358,0.06861
796.572,0.06761
790.786,0.06637
784.999,0.06452
779.213,0.06294
773.427,0.06265
767.641,0.06144
761.854,0.05881
756.068,0.05647
750.282,0.05937
744.496,0.06421
738.709,0.06720
732.923,0.06543
727.137,0.06465
721.351,0.06259
715.565,0.06209
709.778,0.05995
703.992,0.06181
698.206,0.06320
692.42,0.06365
686.633,0.06354
680.847,0.06362
675.061,0.06559
669.275,0.06496
663.488,0.06334
657.702,0.06113
651.916,0.06232
646.13,0.06044
640.343,0.05908
634.557,0.05872
628.771,0.05770
622.985,0.05702
617.198,0.05785
611.412,0.05777
605.626,0.05814
599.84,0.05709