File: 01_Data/Rug_Pad/FTIR/IS/Rug_Pad_IS_T_220908_R4.dpt
7497.03,0.02658
7491.25,0.02672
7485.46,0.02044
7479.67,0.03352
7473.89,0.03343
7468.1,0.01528
7462.32,0.03031
7456.53,0.03083
7450.74,0.03189
7444.96,0.02916
7439.17,0.03282
7433.38,0.02417
7427.6,0.02380
7421.81,0.01827
7416.03,0.01834
7410.24,0.01862
7404.45,0.02545
7398.67,0.02175
7392.88,0.02806
7387.09,0.02818
7381.31,0.02709
7375.52,0.03068
7369.74,0.02312
7363.95,0.02464
7358.16,0.01474
7352.38,0.02654
7346.59,0.02639
7340.8,0.02811
7335.02,0.02761
7329.23,0.02810
7323.45,0.02559
7317.66,0.02072
7311.87,0.02656
7306.09,0.01934
7300.3,0.02208
7294.51,0.03327
7288.73,0.02274
7282.94,0.02658
7277.16,0.02109
7271.37,0.02119
7265.58,0.02216
7259.8,0.02588
7254.01,0.01790
7248.22,0.01943
7242.44,0.01968
7236.65,0.02022
7230.87,0.02080
7225.08,0.02544
7219.29,0.02461
7213.51,0.02740
7207.72,0.02224
7201.93,0.02742
7196.15,0.02817
7190.36,0.02544
7184.58,0.02673
7178.79,0.02703
7173,0.02747
7167.22,0.02549
7161.43,0.02478
7155.65,0.02589
7149.86,0.02679
7144.07,0.02215
7138.29,0.02022
7132.5,0.02516
7126.71,0.02155
7120.93,0.01951
7115.14,0.02711
7109.36,0.02515
7103.57,0.03148
7097.78,0.02908
7092,0.02758
7086.21,0.02157
7080.42,0.02586
7074.64,0.02752
7068.85,0.02512
7063.07,0.02377
7057.28,0.02548
7051.49,0.02654
7045.71,0.02799
7039.92,0.02233
7034.13,0.02308
7028.35,0.02595
7022.56,0.02091
7016.78,0.02286
7010.99,0.02454
7005.2,0.02284
6999.42,0.02194
6993.63,0.02435
6987.84,0.02738
6982.06,0.02430
6976.27,0.02520
6970.49,0.02064
6964.7,0.02239
6958.91,0.02448
6953.13,0.02405
6947.34,0.02309
6941.55,0.01817
6935.77,0.02950
6929.98,0.02929
6924.2,0.02586
6918.41,0.02536
6912.62,0.02423
6906.84,0.02322
6901.05,0.02222
6895.26,0.01909
6889.48,0.01706
6883.69,0.02832
6877.91,0.02213
6872.12,0.02134
6866.33,0.02462
6860.55,0.02461
6854.76,0.02112
6848.97,0.02305
6843.19,0.02662
6837.4,0.02688
6831.62,0.02213
6825.83,0.02107
6820.04,0.02354
6814.26,0.02435
6808.47,0.02355
6802.68,0.02366
6796.9,0.01614
6791.11,0.02284
6785.33,0.02341
6779.54,0.02708
6773.75,0.02193
6767.97,0.02284
6762.18,0.02685
6756.39,0.02607
6750.61,0.02517
6744.82,0.01779
6739.04,0.02233
6733.25,0.02520
6727.46,0.02430
6721.68,0.02432
6715.89,0.02363
6710.1,0.02118
6704.32,0.02559
6698.53,0.02143
6692.75,0.02971
6686.96,0.02776
6681.17,0.02119
6675.39,0.02358
6669.6,0.02381
6663.82,0.02538
6658.03,0.02609
6652.24,0.02260
6646.46,0.02336
6640.67,0.02307
6634.88,0.02187
6629.1,0.02520
6623.31,0.02108
6617.53,0.02148
6611.74,0.02106
6605.95,0.01899
6600.17,0.01892
6594.38,0.01706
6588.59,0.01811
6582.81,0.02138
6577.02,0.02726
6571.24,0.02474
6565.45,0.02890
6559.66,0.02265
6553.88,0.02144
6548.09,0.02505
6542.3,0.02643
6536.52,0.02262
6530.73,0.02369
6524.95,0.01903
6519.16,0.02119
6513.37,0.02285
6507.59,0.02036
6501.8,0.02401
6496.01,0.02119
6490.23,0.02486
6484.44,0.02280
6478.66,0.02497
6472.87,0.02233
6467.08,0.02107
6461.3,0.01987
6455.51,0.02110
6449.72,0.02330
6443.94,0.02447
6438.15,0.02255
6432.37,0.01884
6426.58,0.02514
6420.79,0.02436
6415.01,0.02401
6409.22,0.02299
6403.43,0.02413
6397.65,0.01756
6391.86,0.01893
6386.08,0.02029
6380.29,0.02273
6374.5,0.02239
6368.72,0.02284
6362.93,0.02182
6357.14,0.02108
6351.36,0.01970
6345.57,0.02206
6339.79,0.02424
6334,0.02335
6328.21,0.02337
6322.43,0.02467
6316.64,0.02570
6310.85,0.02293
6305.07,0.01962
6299.28,0.02223
6293.5,0.02472
6287.71,0.02306
6281.92,0.02173
6276.14,0.02145
6270.35,0.02248
6264.56,0.02230
6258.78,0.02698
6252.99,0.02151
6247.21,0.02285
6241.42,0.02154
6235.63,0.02290
6229.85,0.01864
6224.06,0.02336
6218.27,0.02193
6212.49,0.02118
6206.7,0.02355
6200.92,0.02021
6195.13,0.02241
6189.34,0.02038
6183.56,0.02256
6177.77,0.02480
6171.98,0.01989
6166.2,0.02073
6160.41,0.02398
6154.63,0.02001
6148.84,0.02119
6143.05,0.01989
6137.27,0.02420
6131.48,0.02129
6125.7,0.02063
6119.91,0.02084
6114.12,0.02187
6108.34,0.02318
6102.55,0.02088
6096.76,0.01925
6090.98,0.02459
6085.19,0.02236
6079.41,0.02059
6073.62,0.01890
6067.83,0.02471
6062.05,0.02124
6056.26,0.02406
6050.47,0.02326
6044.69,0.01997
6038.9,0.02036
6033.12,0.02313
6027.33,0.02199
6021.54,0.02070
6015.76,0.02265
6009.97,0.02551
6004.18,0.02227
5998.4,0.02309
5992.61,0.02276
5986.83,0.02316
5981.04,0.02280
5975.25,0.02001
5969.47,0.02077
5963.68,0.02241
5957.89,0.02149
5952.11,0.02156
5946.32,0.02025
5940.54,0.01989
5934.75,0.01973
5928.96,0.02272
5923.18,0.02364
5917.39,0.02313
5911.6,0.02068
5905.82,0.02124
5900.03,0.01968
5894.25,0.02175
5888.46,0.02273
5882.67,0.02221
5876.89,0.02207
5871.1,0.02081
5865.31,0.02261
5859.53,0.02018
5853.74,0.02332
5847.96,0.02056
5842.17,0.02131
5836.38,0.02109
5830.6,0.02444
5824.81,0.02117
5819.02,0.02144
5813.24,0.02072
5807.45,0.02168
5801.67,0.01897
5795.88,0.02149
5790.09,0.02348
5784.31,0.02128
5778.52,0.01921
5772.73,0.02279
5766.95,0.02290
5761.16,0.02299
5755.38,0.02136
5749.59,0.02363
5743.8,0.01881
5738.02,0.02095
5732.23,0.02101
5726.44,0.02039
5720.66,0.02189
5714.87,0.02137
5709.09,0.02077
5703.3,0.02146
5697.51,0.02236
5691.73,0.02226
5685.94,0.01925
5680.15,0.02060
5674.37,0.02115
5668.58,0.02241
5662.8,0.02042
5657.01,0.02192
5651.22,0.02229
5645.44,0.02006
5639.65,0.02194
5633.87,0.02104
5628.08,0.02169
5622.29,0.01986
5616.51,0.02074
5610.72,0.02318
5604.93,0.02189
5599.15,0.02257
5593.36,0.02215
5587.58,0.02337
5581.79,0.02421
5576,0.02149
5570.22,0.02004
5564.43,0.02098
5558.64,0.02061
5552.86,0.02238
5547.07,0.02183
5541.29,0.02339
5535.5,0.02255
5529.71,0.02133
5523.93,0.02268
5518.14,0.02116
5512.35,0.02116
5506.57,0.02166
5500.78,0.02068
5495,0.02163
5489.21,0.02166
5483.42,0.02224
5477.64,0.02407
5471.85,0.02230
5466.06,0.02102
5460.28,0.02175
5454.49,0.02257
5448.71,0.02121
5442.92,0.02045
5437.13,0.02111
5431.35,0.02293
5425.56,0.02308
5419.77,0.02223
5413.99,0.02138
5408.2,0.02152
5402.42,0.02094
5396.63,0.02096
5390.84,0.02142
5385.06,0.02164
5379.27,0.02221
5373.48,0.02119
5367.7,0.02198
5361.91,0.02094
5356.13,0.02102
5350.34,0.02189
5344.55,0.02243
5338.77,0.02312
5332.98,0.02203
5327.19,0.02086
5321.41,0.02270
5315.62,0.02302
5309.84,0.02213
5304.05,0.02093
5298.26,0.02326
5292.48,0.02108
5286.69,0.02050
5280.9,0.02319
5275.12,0.02175
5269.33,0.02134
5263.55,0.02145
5257.76,0.02180
5251.97,0.02201
5246.19,0.02153
5240.4,0.02243
5234.61,0.02123
5228.83,0.02172
5223.04,0.02115
5217.26,0.02282
5211.47,0.02254
5205.68,0.02210
5199.9,0.02208
5194.11,0.02255
5188.32,0.02108
5182.54,0.02252
5176.75,0.02118
5170.97,0.02216
5165.18,0.02237
5159.39,0.02230
5153.61,0.02272
5147.82,0.02041
5142.03,0.02216
5136.25,0.02171
5130.46,0.02219
5124.68,0.02224
5118.89,0.02073
5113.1,0.02443
5107.32,0.02271
5101.53,0.02305
5095.75,0.02327
5089.96,0.02259
5084.17,0.02185
5078.39,0.02277
5072.6,0.02269
5066.81,0.02135
5061.03,0.02334
5055.24,0.02180
5049.46,0.02197
5043.67,0.02176
5037.88,0.02240
5032.1,0.02098
5026.31,0.02188
5020.52,0.02296
5014.74,0.02275
5008.95,0.02236
5003.17,0.02262
4997.38,0.02302
4991.59,0.02109
4985.81,0.02248
4980.02,0.02249
4974.23,0.02067
4968.45,0.02271
4962.66,0.02235
4956.88,0.02093
4951.09,0.02156
4945.3,0.02200
4939.52,0.02166
4933.73,0.02207
4927.94,0.02258
4922.16,0.02194
4916.37,0.02223
4910.59,0.02183
4904.8,0.02240
4899.01,0.02299
4893.23,0.02268
4887.44,0.02250
4881.65,0.02093
4875.87,0.02161
4870.08,0.02169
4864.3,0.02257
4858.51,0.02257
4852.72,0.02170
4846.94,0.02171
4841.15,0.02186
4835.36,0.02239
4829.58,0.02204
4823.79,0.02233
4818.01,0.02287
4812.22,0.02307
4806.43,0.02192
4800.65,0.02137
4794.86,0.02197
4789.07,0.02282
4783.29,0.02151
4777.5,0.02272
4771.72,0.02212
4765.93,0.02203
4760.14,0.02109
4754.36,0.02094
4748.57,0.02099
4742.78,0.02128
4737,0.02215
4731.21,0.02147
4725.43,0.02157
4719.64,0.02058
4713.85,0.02194
4708.07,0.02237
4702.28,0.02161
4696.49,0.02267
4690.71,0.02246
4684.92,0.02212
4679.14,0.02280
4673.35,0.02182
4667.56,0.02069
4661.78,0.02144
4655.99,0.02209
4650.2,0.02188
4644.42,0.02235
4638.63,0.02233
4632.85,0.02147
4627.06,0.02167
4621.27,0.02184
4615.49,0.02138
4609.7,0.02202
4603.92,0.02249
4598.13,0.02274
4592.34,0.02166
4586.56,0.02222
4580.77,0.02218
4574.98,0.02231
4569.2,0.02287
4563.41,0.02197
4557.63,0.02217
4551.84,0.02221
4546.05,0.02162
4540.27,0.02191
4534.48,0.02165
4528.69,0.02154
4522.91,0.02208
4517.12,0.02278
4511.34,0.02290
4505.55,0.02142
4499.76,0.02288
4493.98,0.02261
4488.19,0.02253
4482.4,0.02196
4476.62,0.02207
4470.83,0.02205
4465.05,0.02168
4459.26,0.02117
4453.47,0.02190
4447.69,0.02243
4441.9,0.02145
4436.11,0.02203
4430.33,0.02239
4424.54,0.02151
4418.76,0.02310
4412.97,0.02252
4407.18,0.02204
4401.4,0.02224
4395.61,0.02169
4389.82,0.02224
4384.04,0.02211
4378.25,0.02227
4372.47,0.02214
4366.68,0.02135
4360.89,0.02200
4355.11,0.02155
4349.32,0.02142
4343.53,0.02195
4337.75,0.02166
4331.96,0.02243
4326.18,0.02133
4320.39,0.02122
4314.6,0.02186
4308.82,0.02164
4303.03,0.02227
4297.24,0.02215
4291.46,0.02210
4285.67,0.02238
4279.89,0.02277
4274.1,0.02261
4268.31,0.02168
4262.53,0.02268
4256.74,0.02227
4250.95,0.02190
4245.17,0.02152
4239.38,0.02210
4233.6,0.02301
4227.81,0.02126
4222.02,0.02206
4216.24,0.02171
4210.45,0.02204
4204.66,0.02106
4198.88,0.02192
4193.09,0.02217
4187.31,0.02236
4181.52,0.02242
4175.73,0.02147
4169.95,0.02175
4164.16,0.02296
4158.37,0.02296
4152.59,0.02218
4146.8,0.02213
4141.02,0.02301
4135.23,0.02231
4129.44,0.02204
4123.66,0.02179
4117.87,0.02181
4112.09,0.02234
4106.3,0.02231
4100.51,0.02260
4094.73,0.02263
4088.94,0.02278
4083.15,0.02272
4077.37,0.02185
4071.58,0.02228
4065.8,0.02245
4060.01,0.02195
4054.22,0.02228
4048.44,0.02245
4042.65,0.02202
4036.86,0.02203
4031.08,0.02232
4025.29,0.02236
4019.51,0.02259
4013.72,0.02209
4007.93,0.02244
4002.15,0.02249
3996.36,0.02205
3990.57,0.02193
3984.79,0.02265
3979,0.02231
3973.22,0.02222
3967.43,0.02233
3961.64,0.02194
3955.86,0.02189
3950.07,0.02242
3944.28,0.02207
3938.5,0.02214
3932.71,0.02198
3926.93,0.02165
3921.14,0.02172
3915.35,0.02206
3909.57,0.02216
3903.78,0.02226
3897.99,0.02224
3892.21,0.02203
3886.42,0.02202
3880.64,0.02233
3874.85,0.02248
3869.06,0.02184
3863.28,0.02276
3857.49,0.02235
3851.7,0.02193
3845.92,0.02222
3840.13,0.02263
3834.35,0.02242
3828.56,0.02235
3822.77,0.02263
3816.99,0.02217
3811.2,0.02271
3805.41,0.02258
3799.63,0.02186
3793.84,0.02250
3788.06,0.02219
3782.27,0.02233
3776.48,0.02224
3770.7,0.02250
3764.91,0.02246
3759.12,0.02215
3753.34,0.02279
3747.55,0.02222
3741.77,0.02233
3735.98,0.02241
3730.19,0.02195
3724.41,0.02236
3718.62,0.02205
3712.83,0.02239
3707.05,0.02203
3701.26,0.02229
3695.48,0.02236
3689.69,0.02276
3683.9,0.02270
3678.12,0.02212
3672.33,0.02234
3666.54,0.02216
3660.76,0.02238
3654.97,0.02185
3649.19,0.02136
3643.4,0.02145
3637.61,0.02200
3631.83,0.02187
3626.04,0.02166
3620.25,0.02165
3614.47,0.02143
3608.68,0.02118
3602.9,0.02141
3597.11,0.02112
3591.32,0.02198
3585.54,0.02163
3579.75,0.02174
3573.97,0.02098
3568.18,0.02141
3562.39,0.02114
3556.61,0.02085
3550.82,0.02084
3545.03,0.02041
3539.25,0.02081
3533.46,0.02070
3527.68,0.02093
3521.89,0.02142
3516.1,0.02023
3510.32,0.02077
3504.53,0.02145
3498.74,0.02075
3492.96,0.02072
3487.17,0.02033
3481.39,0.02106
3475.6,0.02078
3469.81,0.02069
3464.03,0.02053
3458.24,0.02041
3452.45,0.02027
3446.67,0.02012
3440.88,0.02095
3435.1,0.02086
3429.31,0.02094
3423.52,0.02046
3417.74,0.02062
3411.95,0.02042
3406.16,0.02046
3400.38,0.01995
3394.59,0.02016
3388.81,0.02035
3383.02,0.01979
3377.23,0.01948
3371.45,0.02001
3365.66,0.01987
3359.87,0.02006
3354.09,0.02067
3348.3,0.02020
3342.52,0.02069
3336.73,0.02061
3330.94,0.02065
3325.16,0.02067
3319.37,0.02033
3313.58,0.01963
3307.8,0.02054
3302.01,0.01998
3296.23,0.02001
3290.44,0.02017
3284.65,0.02025
3278.87,0.02063
3273.08,0.02027
3267.29,0.02013
3261.51,0.02055
3255.72,0.02034
3249.94,0.02074
3244.15,0.02103
3238.36,0.02029
3232.58,0.02073
3226.79,0.02055
3221,0.02009
3215.22,0.02036
3209.43,0.02048
3203.65,0.02106
3197.86,0.02036
3192.07,0.02020
3186.29,0.02046
3180.5,0.02049
3174.71,0.02034
3168.93,0.02057
3163.14,0.02057
3157.36,0.02004
3151.57,0.02048
3145.78,0.02076
3140,0.02072
3134.21,0.02085
3128.42,0.02036
3122.64,0.02039
3116.85,0.02034
3111.07,0.02116
3105.28,0.02041
3099.49,0.02032
3093.71,0.02051
3087.92,0.01986
3082.14,0.02004
3076.35,0.02043
3070.56,0.02039
3064.78,0.02031
3058.99,0.02021
3053.2,0.02012
3047.42,0.02042
3041.63,0.02027
3035.85,0.02020
3030.06,0.02016
3024.27,0.02009
3018.49,0.02045
3012.7,0.01991
3006.91,0.02022
3001.13,0.02040
2995.34,0.02029
2989.56,0.01991
2983.77,0.01995
2977.98,0.01936
2972.2,0.01901
2966.41,0.01952
2960.62,0.01920
2954.84,0.01929
2949.05,0.01896
2943.27,0.01899
2937.48,0.01946
2931.69,0.01954
2925.91,0.01967
2920.12,0.01957
2914.33,0.01991
2908.55,0.02006
2902.76,0.02069
2896.98,0.02062
2891.19,0.01984
2885.4,0.02033
2879.62,0.02005
2873.83,0.02027
2868.04,0.02020
2862.26,0.01963
2856.47,0.02080
2850.69,0.02030
2844.9,0.02062
2839.11,0.02116
2833.33,0.02099
2827.54,0.02093
2821.75,0.02068
2815.97,0.02063
2810.18,0.02099
2804.4,0.02094
2798.61,0.02062
2792.82,0.02058
2787.04,0.02027
2781.25,0.02056
2775.46,0.02052
2769.68,0.02063
2763.89,0.02079
2758.11,0.02093
2752.32,0.02007
2746.53,0.02077
2740.75,0.02096
2734.96,0.02101
2729.17,0.02136
2723.39,0.02100
2717.6,0.02077
2711.82,0.02085
2706.03,0.02127
2700.24,0.02075
2694.46,0.02071
2688.67,0.02079
2682.88,0.02107
2677.1,0.02115
2671.31,0.02076
2665.53,0.02105
2659.74,0.02099
2653.95,0.02079
2648.17,0.02103
2642.38,0.02095
2636.59,0.02083
2630.81,0.02076
2625.02,0.02088
2619.24,0.02071
2613.45,0.02094
2607.66,0.02133
2601.88,0.02105
2596.09,0.02118
2590.3,0.02088
2584.52,0.02049
2578.73,0.02043
2572.95,0.02044
2567.16,0.02071
2561.37,0.02100
2555.59,0.02086
2549.8,0.02088
2544.02,0.02100
2538.23,0.02088
2532.44,0.02075
2526.66,0.02062
2520.87,0.02160
2515.08,0.02119
2509.3,0.02069
2503.51,0.02109
2497.73,0.02135
2491.94,0.02094
2486.15,0.02040
2480.37,0.02084
2474.58,0.02085
2468.79,0.02116
2463.01,0.02045
2457.22,0.02052
2451.44,0.02122
2445.65,0.02062
2439.86,0.02077
2434.08,0.02073
2428.29,0.02123
2422.5,0.02102
2416.72,0.02035
2410.93,0.02069
2405.15,0.02087
2399.36,0.02072
2393.57,0.02074
2387.79,0.02056
2382,0.02090
2376.21,0.02078
2370.43,0.02112
2364.64,0.02079
2358.86,0.02082
2353.07,0.02125
2347.28,0.02043
2341.5,0.02115
2335.71,0.02093
2329.92,0.02104
2324.14,0.02112
2318.35,0.02071
2312.57,0.02102
2306.78,0.02067
2300.99,0.02092
2295.21,0.02090
2289.42,0.02069
2283.63,0.02058
2277.85,0.02054
2272.06,0.02009
2266.28,0.02083
2260.49,0.02047
2254.7,0.02060
2248.92,0.02086
2243.13,0.02089
2237.34,0.02041
2231.56,0.02076
2225.77,0.02072
2219.99,0.02084
2214.2,0.02072
2208.41,0.02050
2202.63,0.02077
2196.84,0.02088
2191.05,0.02066
2185.27,0.02073
2179.48,0.02038
2173.7,0.02071
2167.91,0.02053
2162.12,0.02046
2156.34,0.02030
2150.55,0.02047
2144.76,0.02079
2138.98,0.02082
2133.19,0.02058
2127.41,0.02071
2121.62,0.02061
2115.83,0.02024
2110.05,0.02077
2104.26,0.02073
2098.47,0.02041
2092.69,0.02057
2086.9,0.02051
2081.12,0.02069
2075.33,0.02090
2069.54,0.02055
2063.76,0.02060
2057.97,0.02075
2052.19,0.02052
2046.4,0.02039
2040.61,0.02049
2034.83,0.02065
2029.04,0.02043
2023.25,0.02022
2017.47,0.02054
2011.68,0.02054
2005.9,0.02075
2000.11,0.02036
1994.32,0.02089
1988.54,0.02038
1982.75,0.02040
1976.96,0.02023
1971.18,0.02048
1965.39,0.02041
1959.61,0.02070
1953.82,0.02005
1948.03,0.02041
1942.25,0.02056
1936.46,0.02056
1930.67,0.02042
1924.89,0.02025
1919.1,0.02026
1913.32,0.02011
1907.53,0.02052
1901.74,0.02023
1895.96,0.02031
1890.17,0.01991
1884.38,0.02033
1878.6,0.02018
1872.81,0.02023
1867.03,0.02007
1861.24,0.02009
1855.45,0.02004
1849.67,0.01972
1843.88,0.01981
1838.09,0.01990
1832.31,0.01988
1826.52,0.01975
1820.74,0.01938
1814.95,0.01937
1809.16,0.01979
1803.38,0.01930
1797.59,0.01923
1791.8,0.01933
1786.02,0.01927
1780.23,0.01868
1774.45,0.01830
1768.66,0.01832
1762.87,0.01797
1757.09,0.01733
1751.3,0.01730
1745.51,0.01739
1739.73,0.01858
1733.94,0.01945
1728.16,0.02031
1722.37,0.02086
1716.58,0.02102
1710.8,0.02040
1705.01,0.02031
1699.22,0.01948
1693.44,0.01939
1687.65,0.01932
1681.87,0.01872
1676.08,0.01850
1670.29,0.01874
1664.51,0.01843
1658.72,0.01805
1652.93,0.01881
1647.15,0.01829
1641.36,0.01828
1635.58,0.01851
1629.79,0.01838
1624,0.01831
1618.22,0.01867
1612.43,0.01835
1606.64,0.01869
1600.86,0.01869
1595.07,0.01868
1589.29,0.01864
1583.5,0.01852
1577.71,0.01857
1571.93,0.01829
1566.14,0.01835
1560.35,0.01829
1554.57,0.01800
1548.78,0.01799
1543,0.01807
1537.21,0.01771
1531.42,0.01840
1525.64,0.01846
1519.85,0.01821
1514.07,0.01793
1508.28,0.01874
1502.49,0.01865
1496.71,0.01872
1490.92,0.01843
1485.13,0.01823
1479.35,0.01805
1473.56,0.01806
1467.78,0.01791
1461.99,0.01812
1456.2,0.01845
1450.42,0.01845
1444.63,0.01834
1438.84,0.01878
1433.06,0.01877
1427.27,0.01809
1421.49,0.01846
1415.7,0.01822
1409.91,0.01811
1404.13,0.01833
1398.34,0.01799
1392.55,0.01772
1386.77,0.01794
1380.98,0.01827
1375.2,0.01836
1369.41,0.01807
1363.62,0.01811
1357.84,0.01790
1352.05,0.01786
1346.26,0.01752
1340.48,0.01762
1334.69,0.01718
1328.91,0.01749
1323.12,0.01727
1317.33,0.01687
1311.55,0.01683
1305.76,0.01673
1299.97,0.01714
1294.19,0.01746
1288.4,0.01796
1282.62,0.01838
1276.83,0.01902
1271.04,0.01928
1265.26,0.01956
1259.47,0.01972
1253.68,0.02005
1247.9,0.02001
1242.11,0.01955
1236.33,0.01990
1230.54,0.01936
1224.75,0.01934
1218.97,0.01919
1213.18,0.01873
1207.39,0.01882
1201.61,0.01808
1195.82,0.01866
1190.04,0.01830
1184.25,0.01827
1178.46,0.01810
1172.68,0.01780
1166.89,0.01756
1161.1,0.01765
1155.32,0.01748
1149.53,0.01668
1143.75,0.01714
1137.96,0.01761
1132.17,0.01752
1126.39,0.01777
1120.6,0.01906
1114.81,0.01870
1109.03,0.01876
1103.24,0.01863
1097.46,0.01868
1091.67,0.01775
1085.88,0.01753
1080.1,0.01788
1074.31,0.01937
1068.52,0.01996
1062.74,0.01929
1056.95,0.01915
1051.17,0.01923
1045.38,0.01896
1039.59,0.01946
1033.81,0.01921
1028.02,0.01916
1022.24,0.01841
1016.45,0.01955
1010.66,0.01993
1004.88,0.02017
999.09,0.02055
993.304,0.02135
987.518,0.02074
981.731,0.01996
975.945,0.02002
970.159,0.01978
964.373,0.02006
958.586,0.02000
952.8,0.02021
947.014,0.01982
941.228,0.01940
935.441,0.01934
929.655,0.01933
923.869,0.01918
918.083,0.01876
912.297,0.01911
906.51,0.01896
900.724,0.01871
894.938,0.01897
889.152,0.01912
883.365,0.01875
877.579,0.01916
871.793,0.01902
866.007,0.01938
860.22,0.01857
854.434,0.01916
848.648,0.01905
842.862,0.01855
837.075,0.01882
831.289,0.01862
825.503,0.01918
819.717,0.01895
813.931,0.01904
808.144,0.01918
802.358,0.01890
796.572,0.01917
790.786,0.01868
784.999,0.01935
779.213,0.01856
773.427,0.01858
767.641,0.01840
761.854,0.01801
756.068,0.01774
750.282,0.01699
744.496,0.01862
738.709,0.01835
732.923,0.01735
727.137,0.01805
721.351,0.01822
715.565,0.01750
709.778,0.01731
703.992,0.01789
698.206,0.01803
692.42,0.01830
686.633,0.01741
680.847,0.01703
675.061,0.01758
669.275,0.01763
663.488,0.01777
657.702,0.01716
651.916,0.01664
646.13,0.01708
640.343,0.01635
634.557,0.01777
628.771,0.01649
622.985,0.01553
617.198,0.01711
611.412,0.01625
605.626,0.01624
599.84,0.01314