File: 01_Data/Rug_Pad/FTIR/IS/Rug_Pad_IS_S_220908_R1.dpt
7497.03,0.49964
7491.25,0.49573
7485.46,0.51017
7479.67,0.49886
7473.89,0.50906
7468.1,0.50631
7462.32,0.50564
7456.53,0.50853
7450.74,0.50177
7444.96,0.49407
7439.17,0.49275
7433.38,0.49942
7427.6,0.50162
7421.81,0.49931
7416.03,0.49086
7410.24,0.49119
7404.45,0.49913
7398.67,0.49743
7392.88,0.49406
7387.09,0.50359
7381.31,0.49600
7375.52,0.49746
7369.74,0.48972
7363.95,0.49347
7358.16,0.49315
7352.38,0.50122
7346.59,0.49308
7340.8,0.49441
7335.02,0.48573
7329.23,0.48463
7323.45,0.49386
7317.66,0.48168
7311.87,0.48287
7306.09,0.48811
7300.3,0.49090
7294.51,0.48709
7288.73,0.48210
7282.94,0.48407
7277.16,0.48008
7271.37,0.48740
7265.58,0.48470
7259.8,0.48438
7254.01,0.47838
7248.22,0.48016
7242.44,0.47752
7236.65,0.47905
7230.87,0.47878
7225.08,0.47356
7219.29,0.47352
7213.51,0.47126
7207.72,0.46759
7201.93,0.47006
7196.15,0.47069
7190.36,0.47263
7184.58,0.47058
7178.79,0.47619
7173,0.47727
7167.22,0.47289
7161.43,0.46858
7155.65,0.47072
7149.86,0.47460
7144.07,0.47858
7138.29,0.47436
7132.5,0.47113
7126.71,0.47819
7120.93,0.47097
7115.14,0.46709
7109.36,0.47032
7103.57,0.46718
7097.78,0.46993
7092,0.46948
7086.21,0.46534
7080.42,0.46971
7074.64,0.46835
7068.85,0.47103
7063.07,0.46420
7057.28,0.46860
7051.49,0.46889
7045.71,0.46655
7039.92,0.46232
7034.13,0.46273
7028.35,0.46483
7022.56,0.46152
7016.78,0.46708
7010.99,0.46101
7005.2,0.46135
6999.42,0.47812
6993.63,0.46653
6987.84,0.45935
6982.06,0.46553
6976.27,0.46624
6970.49,0.46696
6964.7,0.46331
6958.91,0.46259
6953.13,0.46321
6947.34,0.46673
6941.55,0.46676
6935.77,0.46882
6929.98,0.46744
6924.2,0.46629
6918.41,0.47199
6912.62,0.46054
6906.84,0.46536
6901.05,0.46867
6895.26,0.47538
6889.48,0.47234
6883.69,0.46817
6877.91,0.47069
6872.12,0.47191
6866.33,0.46918
6860.55,0.47262
6854.76,0.47436
6848.97,0.47078
6843.19,0.47033
6837.4,0.47482
6831.62,0.47246
6825.83,0.47118
6820.04,0.47381
6814.26,0.46986
6808.47,0.47531
6802.68,0.47381
6796.9,0.47653
6791.11,0.47939
6785.33,0.47547
6779.54,0.47644
6773.75,0.47612
6767.97,0.48035
6762.18,0.48279
6756.39,0.47948
6750.61,0.48005
6744.82,0.47542
6739.04,0.48043
6733.25,0.47661
6727.46,0.47579
6721.68,0.47572
6715.89,0.48129
6710.1,0.47795
6704.32,0.47683
6698.53,0.47675
6692.75,0.47968
6686.96,0.48105
6681.17,0.48043
6675.39,0.48065
6669.6,0.48353
6663.82,0.48000
6658.03,0.48187
6652.24,0.48525
6646.46,0.48136
6640.67,0.48040
6634.88,0.48069
6629.1,0.48591
6623.31,0.47989
6617.53,0.48529
6611.74,0.48824
6605.95,0.48356
6600.17,0.48791
6594.38,0.48581
6588.59,0.48600
6582.81,0.48687
6577.02,0.48955
6571.24,0.48717
6565.45,0.48631
6559.66,0.48552
6553.88,0.48989
6548.09,0.48736
6542.3,0.49115
6536.52,0.48919
6530.73,0.48595
6524.95,0.48952
6519.16,0.48862
6513.37,0.49189
6507.59,0.48969
6501.8,0.49079
6496.01,0.49068
6490.23,0.48726
6484.44,0.48916
6478.66,0.49134
6472.87,0.48922
6467.08,0.49161
6461.3,0.49252
6455.51,0.49232
6449.72,0.49034
6443.94,0.49253
6438.15,0.48954
6432.37,0.49239
6426.58,0.49404
6420.79,0.49115
6415.01,0.49004
6409.22,0.49306
6403.43,0.49196
6397.65,0.49155
6391.86,0.49232
6386.08,0.48991
6380.29,0.49616
6374.5,0.49225
6368.72,0.49234
6362.93,0.49166
6357.14,0.49185
6351.36,0.49132
6345.57,0.49181
6339.79,0.49006
6334,0.49077
6328.21,0.48908
6322.43,0.49165
6316.64,0.48793
6310.85,0.48995
6305.07,0.49018
6299.28,0.49191
6293.5,0.49393
6287.71,0.48941
6281.92,0.49580
6276.14,0.49335
6270.35,0.49343
6264.56,0.49511
6258.78,0.49360
6252.99,0.49322
6247.21,0.49432
6241.42,0.49720
6235.63,0.49318
6229.85,0.49231
6224.06,0.49274
6218.27,0.49234
6212.49,0.49116
6206.7,0.49407
6200.92,0.49546
6195.13,0.49249
6189.34,0.49211
6183.56,0.49451
6177.77,0.49366
6171.98,0.49091
6166.2,0.49132
6160.41,0.49079
6154.63,0.49136
6148.84,0.48952
6143.05,0.49119
6137.27,0.49273
6131.48,0.49017
6125.7,0.49021
6119.91,0.48611
6114.12,0.48453
6108.34,0.48393
6102.55,0.48459
6096.76,0.48239
6090.98,0.48448
6085.19,0.48478
6079.41,0.48245
6073.62,0.48671
6067.83,0.48360
6062.05,0.48076
6056.26,0.48072
6050.47,0.47999
6044.69,0.47934
6038.9,0.47859
6033.12,0.47413
6027.33,0.47165
6021.54,0.47050
6015.76,0.47023
6009.97,0.46620
6004.18,0.46652
5998.4,0.46768
5992.61,0.46672
5986.83,0.46753
5981.04,0.46299
5975.25,0.45911
5969.47,0.45632
5963.68,0.45768
5957.89,0.45482
5952.11,0.44836
5946.32,0.44587
5940.54,0.44274
5934.75,0.43912
5928.96,0.43591
5923.18,0.43405
5917.39,0.42558
5911.6,0.41979
5905.82,0.41079
5900.03,0.40158
5894.25,0.39415
5888.46,0.38771
5882.67,0.38512
5876.89,0.38332
5871.1,0.38569
5865.31,0.38025
5859.53,0.37942
5853.74,0.36943
5847.96,0.36161
5842.17,0.35316
5836.38,0.34936
5830.6,0.34530
5824.81,0.34735
5819.02,0.35056
5813.24,0.35254
5807.45,0.35276
5801.67,0.35574
5795.88,0.35725
5790.09,0.36361
5784.31,0.36574
5778.52,0.37122
5772.73,0.37383
5766.95,0.37659
5761.16,0.37881
5755.38,0.38130
5749.59,0.38256
5743.8,0.38225
5738.02,0.38125
5732.23,0.37949
5726.44,0.38132
5720.66,0.38035
5714.87,0.38033
5709.09,0.37657
5703.3,0.37638
5697.51,0.37962
5691.73,0.38042
5685.94,0.37971
5680.15,0.38090
5674.37,0.38087
5668.58,0.38367
5662.8,0.38590
5657.01,0.38882
5651.22,0.38905
5645.44,0.39135
5639.65,0.38957
5633.87,0.38968
5628.08,0.38764
5622.29,0.38524
5616.51,0.38508
5610.72,0.38967
5604.93,0.39568
5599.15,0.40086
5593.36,0.40750
5587.58,0.41418
5581.79,0.41777
5576,0.42209
5570.22,0.42420
5564.43,0.42988
5558.64,0.43147
5552.86,0.43441
5547.07,0.43598
5541.29,0.43847
5535.5,0.44087
5529.71,0.43998
5523.93,0.44166
5518.14,0.44137
5512.35,0.44101
5506.57,0.44179
5500.78,0.44196
5495,0.44554
5489.21,0.44336
5483.42,0.44542
5477.64,0.44568
5471.85,0.44363
5466.06,0.44373
5460.28,0.44583
5454.49,0.44444
5448.71,0.44332
5442.92,0.44588
5437.13,0.44432
5431.35,0.44583
5425.56,0.44478
5419.77,0.44572
5413.99,0.44545
5408.2,0.44515
5402.42,0.44546
5396.63,0.44583
5390.84,0.44511
5385.06,0.44471
5379.27,0.44594
5373.48,0.44486
5367.7,0.44786
5361.91,0.44703
5356.13,0.44558
5350.34,0.44690
5344.55,0.44592
5338.77,0.44470
5332.98,0.44550
5327.19,0.44484
5321.41,0.44384
5315.62,0.44148
5309.84,0.44272
5304.05,0.44417
5298.26,0.44358
5292.48,0.44416
5286.69,0.44444
5280.9,0.44191
5275.12,0.44184
5269.33,0.44070
5263.55,0.43785
5257.76,0.43538
5251.97,0.43437
5246.19,0.43088
5240.4,0.42990
5234.61,0.42667
5228.83,0.42586
5223.04,0.42381
5217.26,0.42315
5211.47,0.42199
5205.68,0.42139
5199.9,0.41949
5194.11,0.41938
5188.32,0.41844
5182.54,0.41761
5176.75,0.41847
5170.97,0.41648
5165.18,0.41820
5159.39,0.41957
5153.61,0.41987
5147.82,0.41933
5142.03,0.42010
5136.25,0.42023
5130.46,0.42144
5124.68,0.42207
5118.89,0.42174
5113.1,0.42352
5107.32,0.42303
5101.53,0.42402
5095.75,0.42542
5089.96,0.42613
5084.17,0.42677
5078.39,0.42698
5072.6,0.42874
5066.81,0.42909
5061.03,0.43031
5055.24,0.42950
5049.46,0.42966
5043.67,0.42955
5037.88,0.42988
5032.1,0.43013
5026.31,0.43016
5020.52,0.43052
5014.74,0.43255
5008.95,0.43169
5003.17,0.43220
4997.38,0.43230
4991.59,0.43347
4985.81,0.43191
4980.02,0.43145
4974.23,0.43118
4968.45,0.43044
4962.66,0.42906
4956.88,0.42995
4951.09,0.42937
4945.3,0.42941
4939.52,0.42809
4933.73,0.42629
4927.94,0.42570
4922.16,0.42626
4916.37,0.42571
4910.59,0.42566
4904.8,0.42646
4899.01,0.42533
4893.23,0.42408
4887.44,0.42409
4881.65,0.42430
4875.87,0.42401
4870.08,0.42175
4864.3,0.42098
4858.51,0.42170
4852.72,0.42196
4846.94,0.42079
4841.15,0.42055
4835.36,0.42041
4829.58,0.42021
4823.79,0.41897
4818.01,0.41996
4812.22,0.41931
4806.43,0.41748
4800.65,0.41734
4794.86,0.41644
4789.07,0.41521
4783.29,0.41619
4777.5,0.41469
4771.72,0.41363
4765.93,0.41392
4760.14,0.41487
4754.36,0.41317
4748.57,0.41176
4742.78,0.41217
4737,0.41149
4731.21,0.41000
4725.43,0.40728
4719.64,0.40456
4713.85,0.40244
4708.07,0.39999
4702.28,0.39914
4696.49,0.40016
4690.71,0.39902
4684.92,0.39943
4679.14,0.39846
4673.35,0.39756
4667.56,0.39648
4661.78,0.39374
4655.99,0.39298
4650.2,0.39099
4644.42,0.38774
4638.63,0.38292
4632.85,0.37978
4627.06,0.37789
4621.27,0.37930
4615.49,0.38010
4609.7,0.38000
4603.92,0.37981
4598.13,0.38069
4592.34,0.38275
4586.56,0.38407
4580.77,0.38455
4574.98,0.38518
4569.2,0.38716
4563.41,0.38961
4557.63,0.39040
4551.84,0.39028
4546.05,0.39033
4540.27,0.38908
4534.48,0.38738
4528.69,0.38493
4522.91,0.38242
4517.12,0.38187
4511.34,0.38180
4505.55,0.38282
4499.76,0.38278
4493.98,0.38232
4488.19,0.37998
4482.4,0.37646
4476.62,0.37405
4470.83,0.37131
4465.05,0.36851
4459.26,0.36301
4453.47,0.35833
4447.69,0.35176
4441.9,0.34498
4436.11,0.33744
4430.33,0.32869
4424.54,0.31847
4418.76,0.30741
4412.97,0.29549
4407.18,0.28578
4401.4,0.27825
4395.61,0.27243
4389.82,0.26725
4384.04,0.26203
4378.25,0.25637
4372.47,0.25030
4366.68,0.24577
4360.89,0.23983
4355.11,0.23634
4349.32,0.23218
4343.53,0.22806
4337.75,0.22225
4331.96,0.22028
4326.18,0.22306
4320.39,0.22913
4314.6,0.23531
4308.82,0.23580
4303.03,0.23280
4297.24,0.23021
4291.46,0.22738
4285.67,0.22905
4279.89,0.23238
4274.1,0.23587
4268.31,0.23585
4262.53,0.23560
4256.74,0.23396
4250.95,0.23442
4245.17,0.23626
4239.38,0.23873
4233.6,0.24232
4227.81,0.24433
4222.02,0.24702
4216.24,0.25157
4210.45,0.25597
4204.66,0.25906
4198.88,0.26171
4193.09,0.26250
4187.31,0.26282
4181.52,0.26369
4175.73,0.26415
4169.95,0.26354
4164.16,0.26379
4158.37,0.26463
4152.59,0.26677
4146.8,0.27071
4141.02,0.27429
4135.23,0.27730
4129.44,0.27913
4123.66,0.27976
4117.87,0.28071
4112.09,0.28067
4106.3,0.27951
4100.51,0.27861
4094.73,0.27685
4088.94,0.27597
4083.15,0.27359
4077.37,0.27065
4071.58,0.26197
4065.8,0.25254
4060.01,0.25079
4054.22,0.25758
4048.44,0.26377
4042.65,0.26621
4036.86,0.26707
4031.08,0.26893
4025.29,0.26999
4019.51,0.27141
4013.72,0.27171
4007.93,0.27105
4002.15,0.27076
3996.36,0.26974
3990.57,0.27005
3984.79,0.26936
3979,0.26850
3973.22,0.26757
3967.43,0.26709
3961.64,0.26655
3955.86,0.26647
3950.07,0.26492
3944.28,0.26496
3938.5,0.26697
3932.71,0.27038
3926.93,0.27392
3921.14,0.27701
3915.35,0.27955
3909.57,0.28233
3903.78,0.28448
3897.99,0.28550
3892.21,0.28728
3886.42,0.28906
3880.64,0.29114
3874.85,0.29363
3869.06,0.29625
3863.28,0.29798
3857.49,0.30030
3851.7,0.30184
3845.92,0.30359
3840.13,0.30632
3834.35,0.30746
3828.56,0.30861
3822.77,0.30980
3816.99,0.31077
3811.2,0.31175
3805.41,0.31334
3799.63,0.31363
3793.84,0.31468
3788.06,0.31406
3782.27,0.31355
3776.48,0.31266
3770.7,0.31194
3764.91,0.31133
3759.12,0.31203
3753.34,0.31131
3747.55,0.31100
3741.77,0.30968
3735.98,0.31047
3730.19,0.30853
3724.41,0.30676
3718.62,0.30433
3712.83,0.30158
3707.05,0.29621
3701.26,0.28974
3695.48,0.28262
3689.69,0.27281
3683.9,0.26003
3678.12,0.24669
3672.33,0.23617
3666.54,0.22600
3660.76,0.21650
3654.97,0.20663
3649.19,0.19594
3643.4,0.18441
3637.61,0.17465
3631.83,0.16576
3626.04,0.15495
3620.25,0.14653
3614.47,0.13782
3608.68,0.13069
3602.9,0.12573
3597.11,0.12011
3591.32,0.11537
3585.54,0.11086
3579.75,0.10664
3573.97,0.10226
3568.18,0.09860
3562.39,0.09487
3556.61,0.09216
3550.82,0.08861
3545.03,0.08593
3539.25,0.08466
3533.46,0.08164
3527.68,0.08011
3521.89,0.07783
3516.1,0.07630
3510.32,0.07461
3504.53,0.07452
3498.74,0.07230
3492.96,0.07115
3487.17,0.06965
3481.39,0.06866
3475.6,0.06686
3469.81,0.06591
3464.03,0.06496
3458.24,0.06442
3452.45,0.06326
3446.67,0.06219
3440.88,0.06168
3435.1,0.06042
3429.31,0.05978
3423.52,0.05869
3417.74,0.05864
3411.95,0.05785
3406.16,0.05734
3400.38,0.05790
3394.59,0.05692
3388.81,0.05727
3383.02,0.05622
3377.23,0.05607
3371.45,0.05582
3365.66,0.05601
3359.87,0.05566
3354.09,0.05515
3348.3,0.05518
3342.52,0.05455
3336.73,0.05510
3330.94,0.05440
3325.16,0.05509
3319.37,0.05407
3313.58,0.05397
3307.8,0.05451
3302.01,0.05482
3296.23,0.05483
3290.44,0.05545
3284.65,0.05633
3278.87,0.05575
3273.08,0.05694
3267.29,0.05816
3261.51,0.05889
3255.72,0.05987
3249.94,0.06134
3244.15,0.06177
3238.36,0.06297
3232.58,0.06344
3226.79,0.06495
3221,0.06501
3215.22,0.06701
3209.43,0.06766
3203.65,0.06756
3197.86,0.06842
3192.07,0.06996
3186.29,0.07096
3180.5,0.07216
3174.71,0.07279
3168.93,0.07416
3163.14,0.07436
3157.36,0.07600
3151.57,0.07639
3145.78,0.07738
3140,0.07872
3134.21,0.07929
3128.42,0.07903
3122.64,0.07972
3116.85,0.07969
3111.07,0.07967
3105.28,0.07999
3099.49,0.08005
3093.71,0.07935
3087.92,0.07783
3082.14,0.07761
3076.35,0.07707
3070.56,0.07655
3064.78,0.07498
3058.99,0.07422
3053.2,0.07362
3047.42,0.06977
3041.63,0.06572
3035.85,0.06284
3030.06,0.06022
3024.27,0.06025
3018.49,0.06187
3012.7,0.06113
3006.91,0.05814
3001.13,0.05362
2995.34,0.04909
2989.56,0.04430
2983.77,0.04043
2977.98,0.03780
2972.2,0.03434
2966.41,0.03127
2960.62,0.02958
2954.84,0.02963
2949.05,0.03028
2943.27,0.03038
2937.48,0.02898
2931.69,0.02801
2925.91,0.02835
2920.12,0.02869
2914.33,0.03064
2908.55,0.03228
2902.76,0.03386
2896.98,0.03506
2891.19,0.03630
2885.4,0.03711
2879.62,0.03765
2873.83,0.03742
2868.04,0.03671
2862.26,0.03604
2856.47,0.03394
2850.69,0.03394
2844.9,0.03932
2839.11,0.04675
2833.33,0.05613
2827.54,0.06599
2821.75,0.07463
2815.97,0.08143
2810.18,0.08676
2804.4,0.09202
2798.61,0.09783
2792.82,0.10395
2787.04,0.10930
2781.25,0.11377
2775.46,0.11719
2769.68,0.12030
2763.89,0.12236
2758.11,0.12439
2752.32,0.12597
2746.53,0.12714
2740.75,0.12613
2734.96,0.12176
2729.17,0.11242
2723.39,0.11315
2717.6,0.12804
2711.82,0.13544
2706.03,0.13803
2700.24,0.13925
2694.46,0.13946
2688.67,0.13941
2682.88,0.13967
2677.1,0.14067
2671.31,0.14155
2665.53,0.14154
2659.74,0.14038
2653.95,0.13908
2648.17,0.13726
2642.38,0.13412
2636.59,0.12869
2630.81,0.12257
2625.02,0.11995
2619.24,0.11974
2613.45,0.11948
2607.66,0.11802
2601.88,0.11608
2596.09,0.11304
2590.3,0.10960
2584.52,0.10786
2578.73,0.10701
2572.95,0.10613
2567.16,0.10477
2561.37,0.10255
2555.59,0.09922
2549.8,0.09604
2544.02,0.09337
2538.23,0.08863
2532.44,0.08261
2526.66,0.07688
2520.87,0.07401
2515.08,0.07502
2509.3,0.08027
2503.51,0.08907
2497.73,0.09960
2491.94,0.11072
2486.15,0.12348
2480.37,0.13844
2474.58,0.15230
2468.79,0.16345
2463.01,0.17125
2457.22,0.17795
2451.44,0.18317
2445.65,0.18846
2439.86,0.19275
2434.08,0.19680
2428.29,0.20034
2422.5,0.20308
2416.72,0.20517
2410.93,0.20698
2405.15,0.20970
2399.36,0.21275
2393.57,0.21639
2387.79,0.21948
2382,0.22174
2376.21,0.22480
2370.43,0.22742
2364.64,0.22955
2358.86,0.23046
2353.07,0.23091
2347.28,0.23136
2341.5,0.23210
2335.71,0.23203
2329.92,0.23305
2324.14,0.23360
2318.35,0.23368
2312.57,0.23374
2306.78,0.23505
2300.99,0.23669
2295.21,0.23769
2289.42,0.23723
2283.63,0.23674
2277.85,0.23517
2272.06,0.23349
2266.28,0.23103
2260.49,0.22781
2254.7,0.22081
2248.92,0.20738
2243.13,0.19553
2237.34,0.20346
2231.56,0.22103
2225.77,0.22655
2219.99,0.22623
2214.2,0.22531
2208.41,0.22410
2202.63,0.22331
2196.84,0.22224
2191.05,0.21966
2185.27,0.21847
2179.48,0.21552
2173.7,0.21232
2167.91,0.20941
2162.12,0.20691
2156.34,0.20341
2150.55,0.20014
2144.76,0.19949
2138.98,0.20200
2133.19,0.20653
2127.41,0.21229
2121.62,0.21784
2115.83,0.22213
2110.05,0.22453
2104.26,0.22605
2098.47,0.22613
2092.69,0.22606
2086.9,0.22539
2081.12,0.22413
2075.33,0.22297
2069.54,0.22181
2063.76,0.22098
2057.97,0.21985
2052.19,0.21840
2046.4,0.21731
2040.61,0.21665
2034.83,0.21661
2029.04,0.21814
2023.25,0.22055
2017.47,0.22290
2011.68,0.22504
2005.9,0.22732
2000.11,0.22896
1994.32,0.22963
1988.54,0.22945
1982.75,0.22742
1976.96,0.22450
1971.18,0.22358
1965.39,0.22042
1959.61,0.21685
1953.82,0.22017
1948.03,0.21981
1942.25,0.21881
1936.46,0.21976
1930.67,0.22155
1924.89,0.22168
1919.1,0.22053
1913.32,0.21809
1907.53,0.21484
1901.74,0.21119
1895.96,0.20636
1890.17,0.20205
1884.38,0.19819
1878.6,0.19420
1872.81,0.19028
1867.03,0.18602
1861.24,0.18261
1855.45,0.17879
1849.67,0.17320
1843.88,0.16417
1838.09,0.15171
1832.31,0.13430
1826.52,0.11594
1820.74,0.10486
1814.95,0.09778
1809.16,0.08752
1803.38,0.07007
1797.59,0.06055
1791.8,0.06506
1786.02,0.08070
1780.23,0.09228
1774.45,0.09484
1768.66,0.09045
1762.87,0.08269
1757.09,0.07068
1751.3,0.05743
1745.51,0.04615
1739.73,0.04121
1733.94,0.03992
1728.16,0.03988
1722.37,0.04003
1716.58,0.04157
1710.8,0.04397
1705.01,0.04721
1699.22,0.04965
1693.44,0.04888
1687.65,0.04683
1681.87,0.04392
1676.08,0.04110
1670.29,0.03861
1664.51,0.03622
1658.72,0.03643
1652.93,0.03767
1647.15,0.03783
1641.36,0.03868
1635.58,0.03960
1629.79,0.04010
1624,0.04164
1618.22,0.04270
1612.43,0.04421
1606.64,0.04539
1600.86,0.04592
1595.07,0.04759
1589.29,0.04941
1583.5,0.05087
1577.71,0.05353
1571.93,0.05700
1566.14,0.05899
1560.35,0.06051
1554.57,0.05973
1548.78,0.05902
1543,0.05867
1537.21,0.05859
1531.42,0.06013
1525.64,0.06042
1519.85,0.05868
1514.07,0.05652
1508.28,0.05539
1502.49,0.05226
1496.71,0.04895
1490.92,0.04718
1485.13,0.04486
1479.35,0.04181
1473.56,0.03899
1467.78,0.03644
1461.99,0.03516
1456.2,0.03403
1450.42,0.03337
1444.63,0.03358
1438.84,0.03435
1433.06,0.03515
1427.27,0.03640
1421.49,0.03780
1415.7,0.03753
1409.91,0.03852
1404.13,0.03827
1398.34,0.03843
1392.55,0.03870
1386.77,0.03922
1380.98,0.03820
1375.2,0.03816
1369.41,0.04127
1363.62,0.04374
1357.84,0.04510
1352.05,0.04732
1346.26,0.04934
1340.48,0.05069
1334.69,0.05140
1328.91,0.05124
1323.12,0.05106
1317.33,0.05037
1311.55,0.05019
1305.76,0.05116
1299.97,0.05184
1294.19,0.05264
1288.4,0.05257
1282.62,0.05234
1276.83,0.05202
1271.04,0.05034
1265.26,0.04773
1259.47,0.04621
1253.68,0.04609
1247.9,0.04502
1242.11,0.04402
1236.33,0.04338
1230.54,0.04351
1224.75,0.04331
1218.97,0.04341
1213.18,0.04224
1207.39,0.04118
1201.61,0.04114
1195.82,0.04081
1190.04,0.04074
1184.25,0.04007
1178.46,0.03872
1172.68,0.03763
1166.89,0.03644
1161.1,0.03641
1155.32,0.03752
1149.53,0.03790
1143.75,0.03777
1137.96,0.03742
1132.17,0.03748
1126.39,0.03735
1120.6,0.03895
1114.81,0.04005
1109.03,0.03980
1103.24,0.03824
1097.46,0.03739
1091.67,0.03679
1085.88,0.03658
1080.1,0.03866
1074.31,0.04037
1068.52,0.04201
1062.74,0.04266
1056.95,0.04221
1051.17,0.04139
1045.38,0.04098
1039.59,0.04034
1033.81,0.04120
1028.02,0.04109
1022.24,0.04232
1016.45,0.04288
1010.66,0.04382
1004.88,0.04473
999.09,0.04503
993.304,0.04629
987.518,0.04738
981.731,0.04908
975.945,0.04896
970.159,0.04663
964.373,0.04857
958.586,0.05564
952.8,0.06037
947.014,0.06109
941.228,0.06097
935.441,0.06170
929.655,0.06229
923.869,0.06286
918.083,0.06383
912.297,0.06277
906.51,0.06545
900.724,0.06914
894.938,0.06799
889.152,0.05986
883.365,0.04432
877.579,0.03798
871.793,0.04017
866.007,0.05142
860.22,0.05596
854.434,0.05365
848.648,0.04766
842.862,0.04929
837.075,0.04810
831.289,0.04919
825.503,0.05110
819.717,0.05262
813.931,0.05556
808.144,0.05640
802.358,0.05680
796.572,0.05935
790.786,0.06084
784.999,0.06181
779.213,0.06146
773.427,0.05718
767.641,0.05294
761.854,0.05061
756.068,0.05051
750.282,0.05026
744.496,0.05037
738.709,0.04693
732.923,0.04084
727.137,0.03812
721.351,0.03791
715.565,0.03279
709.778,0.03587
703.992,0.04060
698.206,0.04418
692.42,0.05205
686.633,0.05492
680.847,0.05251
675.061,0.05267
669.275,0.05037
663.488,0.05004
657.702,0.04780
651.916,0.04730
646.13,0.04743
640.343,0.04703
634.557,0.04585
628.771,0.04418
622.985,0.04380
617.198,0.04180
611.412,0.04114
605.626,0.03938
599.84,0.03613