File: 01_Data/Rug_Pad/FTIR/IS/Rug_Pad_IS_S_220908_R8.dpt
7497.03,0.49005
7491.25,0.50045
7485.46,0.49924
7479.67,0.50605
7473.89,0.50897
7468.1,0.50293
7462.32,0.49762
7456.53,0.49838
7450.74,0.50435
7444.96,0.49748
7439.17,0.49531
7433.38,0.49495
7427.6,0.49652
7421.81,0.50495
7416.03,0.49447
7410.24,0.50119
7404.45,0.50447
7398.67,0.50122
7392.88,0.49753
7387.09,0.49235
7381.31,0.50290
7375.52,0.50383
7369.74,0.49348
7363.95,0.49809
7358.16,0.49462
7352.38,0.49510
7346.59,0.49623
7340.8,0.50057
7335.02,0.49314
7329.23,0.49420
7323.45,0.48705
7317.66,0.48940
7311.87,0.49228
7306.09,0.48138
7300.3,0.49339
7294.51,0.48587
7288.73,0.48646
7282.94,0.48713
7277.16,0.49188
7271.37,0.48745
7265.58,0.47728
7259.8,0.48393
7254.01,0.48432
7248.22,0.47863
7242.44,0.47550
7236.65,0.47816
7230.87,0.47639
7225.08,0.47451
7219.29,0.47765
7213.51,0.47610
7207.72,0.47176
7201.93,0.47189
7196.15,0.47588
7190.36,0.47026
7184.58,0.46889
7178.79,0.47726
7173,0.47277
7167.22,0.47378
7161.43,0.47334
7155.65,0.47358
7149.86,0.46864
7144.07,0.47018
7138.29,0.46305
7132.5,0.47599
7126.71,0.47620
7120.93,0.47723
7115.14,0.46956
7109.36,0.47403
7103.57,0.47342
7097.78,0.47379
7092,0.46600
7086.21,0.47071
7080.42,0.47057
7074.64,0.47168
7068.85,0.46935
7063.07,0.46839
7057.28,0.46037
7051.49,0.46805
7045.71,0.47051
7039.92,0.46753
7034.13,0.46896
7028.35,0.46933
7022.56,0.46870
7016.78,0.46545
7010.99,0.46793
7005.2,0.47096
6999.42,0.47323
6993.63,0.46475
6987.84,0.46768
6982.06,0.46903
6976.27,0.46557
6970.49,0.47189
6964.7,0.46575
6958.91,0.46578
6953.13,0.46815
6947.34,0.46834
6941.55,0.47050
6935.77,0.47251
6929.98,0.46802
6924.2,0.47021
6918.41,0.46609
6912.62,0.46628
6906.84,0.46951
6901.05,0.47517
6895.26,0.47193
6889.48,0.47347
6883.69,0.47501
6877.91,0.47527
6872.12,0.47887
6866.33,0.47449
6860.55,0.47325
6854.76,0.47500
6848.97,0.47418
6843.19,0.47254
6837.4,0.47220
6831.62,0.47849
6825.83,0.47892
6820.04,0.47658
6814.26,0.47933
6808.47,0.48089
6802.68,0.48018
6796.9,0.47871
6791.11,0.48235
6785.33,0.47523
6779.54,0.47654
6773.75,0.47938
6767.97,0.48305
6762.18,0.47867
6756.39,0.47737
6750.61,0.48009
6744.82,0.47835
6739.04,0.48049
6733.25,0.47717
6727.46,0.48131
6721.68,0.48482
6715.89,0.48341
6710.1,0.48245
6704.32,0.48178
6698.53,0.48124
6692.75,0.48358
6686.96,0.48432
6681.17,0.48726
6675.39,0.48739
6669.6,0.48417
6663.82,0.49163
6658.03,0.49334
6652.24,0.48692
6646.46,0.48509
6640.67,0.48698
6634.88,0.48848
6629.1,0.48588
6623.31,0.48601
6617.53,0.49056
6611.74,0.48748
6605.95,0.48725
6600.17,0.48858
6594.38,0.48890
6588.59,0.48983
6582.81,0.48778
6577.02,0.48708
6571.24,0.49081
6565.45,0.49028
6559.66,0.49339
6553.88,0.48951
6548.09,0.49165
6542.3,0.49049
6536.52,0.49399
6530.73,0.49027
6524.95,0.49446
6519.16,0.49501
6513.37,0.49362
6507.59,0.49114
6501.8,0.49050
6496.01,0.49517
6490.23,0.49302
6484.44,0.49637
6478.66,0.49604
6472.87,0.49586
6467.08,0.49919
6461.3,0.49270
6455.51,0.49762
6449.72,0.49086
6443.94,0.49632
6438.15,0.49139
6432.37,0.49556
6426.58,0.49606
6420.79,0.49690
6415.01,0.49444
6409.22,0.49566
6403.43,0.49258
6397.65,0.49469
6391.86,0.49845
6386.08,0.49191
6380.29,0.49406
6374.5,0.49329
6368.72,0.49118
6362.93,0.49612
6357.14,0.49622
6351.36,0.49664
6345.57,0.49543
6339.79,0.49307
6334,0.49296
6328.21,0.49754
6322.43,0.49580
6316.64,0.49433
6310.85,0.49519
6305.07,0.49530
6299.28,0.49520
6293.5,0.49459
6287.71,0.49451
6281.92,0.49647
6276.14,0.49501
6270.35,0.49605
6264.56,0.49382
6258.78,0.49472
6252.99,0.49587
6247.21,0.49395
6241.42,0.49542
6235.63,0.49520
6229.85,0.49243
6224.06,0.49505
6218.27,0.49269
6212.49,0.49616
6206.7,0.49845
6200.92,0.49633
6195.13,0.49530
6189.34,0.49662
6183.56,0.49363
6177.77,0.49757
6171.98,0.49891
6166.2,0.49824
6160.41,0.49488
6154.63,0.49618
6148.84,0.49474
6143.05,0.49348
6137.27,0.49479
6131.48,0.49225
6125.7,0.49110
6119.91,0.48999
6114.12,0.48782
6108.34,0.48588
6102.55,0.48655
6096.76,0.48732
6090.98,0.48972
6085.19,0.48771
6079.41,0.48752
6073.62,0.48605
6067.83,0.48334
6062.05,0.48328
6056.26,0.48118
6050.47,0.48153
6044.69,0.48240
6038.9,0.47897
6033.12,0.47607
6027.33,0.47646
6021.54,0.47639
6015.76,0.47210
6009.97,0.47068
6004.18,0.46854
5998.4,0.46911
5992.61,0.46585
5986.83,0.46548
5981.04,0.46511
5975.25,0.46235
5969.47,0.45853
5963.68,0.45510
5957.89,0.45420
5952.11,0.45054
5946.32,0.44637
5940.54,0.44771
5934.75,0.44257
5928.96,0.43702
5923.18,0.43486
5917.39,0.42789
5911.6,0.42007
5905.82,0.41160
5900.03,0.40442
5894.25,0.39608
5888.46,0.38744
5882.67,0.38477
5876.89,0.38783
5871.1,0.38639
5865.31,0.38784
5859.53,0.38153
5853.74,0.36964
5847.96,0.36302
5842.17,0.35573
5836.38,0.35019
5830.6,0.34642
5824.81,0.34574
5819.02,0.34893
5813.24,0.35322
5807.45,0.35220
5801.67,0.35761
5795.88,0.35965
5790.09,0.36328
5784.31,0.36876
5778.52,0.37162
5772.73,0.37730
5766.95,0.38012
5761.16,0.38112
5755.38,0.38196
5749.59,0.38209
5743.8,0.38293
5738.02,0.38409
5732.23,0.38368
5726.44,0.38108
5720.66,0.37897
5714.87,0.37967
5709.09,0.37908
5703.3,0.37833
5697.51,0.37729
5691.73,0.37935
5685.94,0.37942
5680.15,0.38218
5674.37,0.38267
5668.58,0.38538
5662.8,0.38746
5657.01,0.38900
5651.22,0.39126
5645.44,0.39254
5639.65,0.39415
5633.87,0.39076
5628.08,0.38732
5622.29,0.38668
5616.51,0.38685
5610.72,0.39079
5604.93,0.39710
5599.15,0.40201
5593.36,0.40925
5587.58,0.41548
5581.79,0.41885
5576,0.42446
5570.22,0.42828
5564.43,0.43121
5558.64,0.43462
5552.86,0.43606
5547.07,0.43830
5541.29,0.43897
5535.5,0.43932
5529.71,0.44187
5523.93,0.44361
5518.14,0.44278
5512.35,0.44431
5506.57,0.44577
5500.78,0.44482
5495,0.44500
5489.21,0.44576
5483.42,0.44763
5477.64,0.44717
5471.85,0.44685
5466.06,0.44581
5460.28,0.44970
5454.49,0.44748
5448.71,0.44765
5442.92,0.44643
5437.13,0.44743
5431.35,0.44594
5425.56,0.44729
5419.77,0.44637
5413.99,0.44735
5408.2,0.44659
5402.42,0.44751
5396.63,0.44643
5390.84,0.44750
5385.06,0.44744
5379.27,0.44902
5373.48,0.44866
5367.7,0.44664
5361.91,0.44961
5356.13,0.44870
5350.34,0.45027
5344.55,0.44880
5338.77,0.44884
5332.98,0.44866
5327.19,0.44792
5321.41,0.44640
5315.62,0.44699
5309.84,0.44749
5304.05,0.44854
5298.26,0.44877
5292.48,0.45054
5286.69,0.44901
5280.9,0.45013
5275.12,0.44850
5269.33,0.44908
5263.55,0.44595
5257.76,0.44338
5251.97,0.44263
5246.19,0.44260
5240.4,0.44106
5234.61,0.43886
5228.83,0.43836
5223.04,0.43878
5217.26,0.43570
5211.47,0.43578
5205.68,0.43557
5199.9,0.43510
5194.11,0.43495
5188.32,0.43276
5182.54,0.43360
5176.75,0.43368
5170.97,0.43374
5165.18,0.43380
5159.39,0.43380
5153.61,0.43393
5147.82,0.43408
5142.03,0.43494
5136.25,0.43530
5130.46,0.43457
5124.68,0.43533
5118.89,0.43605
5113.1,0.43676
5107.32,0.43580
5101.53,0.43673
5095.75,0.43944
5089.96,0.43850
5084.17,0.43787
5078.39,0.43898
5072.6,0.43864
5066.81,0.43938
5061.03,0.44054
5055.24,0.43977
5049.46,0.44001
5043.67,0.43886
5037.88,0.43946
5032.1,0.43900
5026.31,0.43968
5020.52,0.43977
5014.74,0.43931
5008.95,0.43986
5003.17,0.43932
4997.38,0.43985
4991.59,0.44016
4985.81,0.44009
4980.02,0.43833
4974.23,0.43720
4968.45,0.43699
4962.66,0.43587
4956.88,0.43517
4951.09,0.43469
4945.3,0.43283
4939.52,0.43264
4933.73,0.43238
4927.94,0.43032
4922.16,0.43165
4916.37,0.43063
4910.59,0.42997
4904.8,0.42930
4899.01,0.42895
4893.23,0.42826
4887.44,0.42846
4881.65,0.42710
4875.87,0.42744
4870.08,0.42560
4864.3,0.42543
4858.51,0.42601
4852.72,0.42468
4846.94,0.42415
4841.15,0.42443
4835.36,0.42316
4829.58,0.42352
4823.79,0.42278
4818.01,0.42218
4812.22,0.42097
4806.43,0.42056
4800.65,0.41975
4794.86,0.41987
4789.07,0.41992
4783.29,0.41793
4777.5,0.41720
4771.72,0.41620
4765.93,0.41648
4760.14,0.41670
4754.36,0.41597
4748.57,0.41563
4742.78,0.41465
4737,0.41357
4731.21,0.41223
4725.43,0.40992
4719.64,0.40860
4713.85,0.40582
4708.07,0.40477
4702.28,0.40298
4696.49,0.40257
4690.71,0.40136
4684.92,0.40235
4679.14,0.40191
4673.35,0.40012
4667.56,0.39939
4661.78,0.39692
4655.99,0.39638
4650.2,0.39313
4644.42,0.38950
4638.63,0.38532
4632.85,0.38186
4627.06,0.38096
4621.27,0.38142
4615.49,0.38245
4609.7,0.38195
4603.92,0.38191
4598.13,0.38358
4592.34,0.38488
4586.56,0.38577
4580.77,0.38733
4574.98,0.38833
4569.2,0.38985
4563.41,0.39206
4557.63,0.39320
4551.84,0.39332
4546.05,0.39271
4540.27,0.39211
4534.48,0.38943
4528.69,0.38666
4522.91,0.38462
4517.12,0.38292
4511.34,0.38388
4505.55,0.38473
4499.76,0.38443
4493.98,0.38376
4488.19,0.38140
4482.4,0.37888
4476.62,0.37653
4470.83,0.37302
4465.05,0.37058
4459.26,0.36622
4453.47,0.36002
4447.69,0.35330
4441.9,0.34639
4436.11,0.33818
4430.33,0.32963
4424.54,0.32003
4418.76,0.30840
4412.97,0.29673
4407.18,0.28689
4401.4,0.27900
4395.61,0.27305
4389.82,0.26828
4384.04,0.26225
4378.25,0.25717
4372.47,0.25126
4366.68,0.24600
4360.89,0.24083
4355.11,0.23630
4349.32,0.23313
4343.53,0.22932
4337.75,0.22373
4331.96,0.22155
4326.18,0.22393
4320.39,0.23045
4314.6,0.23618
4308.82,0.23742
4303.03,0.23422
4297.24,0.23028
4291.46,0.22897
4285.67,0.23041
4279.89,0.23307
4274.1,0.23655
4268.31,0.23802
4262.53,0.23643
4256.74,0.23440
4250.95,0.23510
4245.17,0.23660
4239.38,0.24004
4233.6,0.24295
4227.81,0.24574
4222.02,0.24856
4216.24,0.25231
4210.45,0.25656
4204.66,0.26002
4198.88,0.26166
4193.09,0.26374
4187.31,0.26495
4181.52,0.26598
4175.73,0.26553
4169.95,0.26525
4164.16,0.26561
4158.37,0.26635
4152.59,0.26939
4146.8,0.27289
4141.02,0.27650
4135.23,0.27954
4129.44,0.28207
4123.66,0.28292
4117.87,0.28260
4112.09,0.28246
4106.3,0.28230
4100.51,0.28121
4094.73,0.27969
4088.94,0.27844
4083.15,0.27604
4077.37,0.27239
4071.58,0.26423
4065.8,0.25409
4060.01,0.25280
4054.22,0.26037
4048.44,0.26613
4042.65,0.26821
4036.86,0.26976
4031.08,0.27118
4025.29,0.27240
4019.51,0.27391
4013.72,0.27397
4007.93,0.27351
4002.15,0.27324
3996.36,0.27296
3990.57,0.27297
3984.79,0.27226
3979,0.27117
3973.22,0.27034
3967.43,0.26976
3961.64,0.26855
3955.86,0.26887
3950.07,0.26797
3944.28,0.26772
3938.5,0.26986
3932.71,0.27273
3926.93,0.27683
3921.14,0.28003
3915.35,0.28376
3909.57,0.28607
3903.78,0.28707
3897.99,0.28898
3892.21,0.29015
3886.42,0.29179
3880.64,0.29433
3874.85,0.29696
3869.06,0.30021
3863.28,0.30170
3857.49,0.30417
3851.7,0.30517
3845.92,0.30701
3840.13,0.31021
3834.35,0.31150
3828.56,0.31264
3822.77,0.31422
3816.99,0.31518
3811.2,0.31630
3805.41,0.31773
3799.63,0.31855
3793.84,0.31971
3788.06,0.31953
3782.27,0.31921
3776.48,0.31913
3770.7,0.31841
3764.91,0.31722
3759.12,0.31658
3753.34,0.31788
3747.55,0.31759
3741.77,0.31749
3735.98,0.31713
3730.19,0.31635
3724.41,0.31474
3718.62,0.31306
3712.83,0.31038
3707.05,0.30672
3701.26,0.30146
3695.48,0.29495
3689.69,0.28607
3683.9,0.27454
3678.12,0.26195
3672.33,0.25224
3666.54,0.24423
3660.76,0.23714
3654.97,0.22677
3649.19,0.21734
3643.4,0.20647
3637.61,0.19669
3631.83,0.18765
3626.04,0.17517
3620.25,0.16483
3614.47,0.15664
3608.68,0.14820
3602.9,0.14187
3597.11,0.13617
3591.32,0.13049
3585.54,0.12448
3579.75,0.11979
3573.97,0.11541
3568.18,0.11043
3562.39,0.10656
3556.61,0.10263
3550.82,0.09892
3545.03,0.09607
3539.25,0.09344
3533.46,0.09086
3527.68,0.08835
3521.89,0.08652
3516.1,0.08455
3510.32,0.08232
3504.53,0.08057
3498.74,0.07918
3492.96,0.07750
3487.17,0.07606
3481.39,0.07429
3475.6,0.07298
3469.81,0.07146
3464.03,0.07028
3458.24,0.06878
3452.45,0.06769
3446.67,0.06676
3440.88,0.06652
3435.1,0.06503
3429.31,0.06387
3423.52,0.06349
3417.74,0.06283
3411.95,0.06248
3406.16,0.06147
3400.38,0.06151
3394.59,0.06082
3388.81,0.06047
3383.02,0.06005
3377.23,0.05926
3371.45,0.05937
3365.66,0.05927
3359.87,0.05846
3354.09,0.05871
3348.3,0.05880
3342.52,0.05843
3336.73,0.05765
3330.94,0.05787
3325.16,0.05726
3319.37,0.05709
3313.58,0.05698
3307.8,0.05778
3302.01,0.05781
3296.23,0.05749
3290.44,0.05878
3284.65,0.05911
3278.87,0.05983
3273.08,0.05959
3267.29,0.06101
3261.51,0.06177
3255.72,0.06369
3249.94,0.06401
3244.15,0.06518
3238.36,0.06657
3232.58,0.06765
3226.79,0.06864
3221,0.06886
3215.22,0.06989
3209.43,0.06990
3203.65,0.07180
3197.86,0.07257
3192.07,0.07365
3186.29,0.07498
3180.5,0.07628
3174.71,0.07713
3168.93,0.07771
3163.14,0.07959
3157.36,0.08039
3151.57,0.08144
3145.78,0.08150
3140,0.08243
3134.21,0.08324
3128.42,0.08376
3122.64,0.08453
3116.85,0.08475
3111.07,0.08453
3105.28,0.08396
3099.49,0.08441
3093.71,0.08353
3087.92,0.08198
3082.14,0.08052
3076.35,0.08045
3070.56,0.08025
3064.78,0.07849
3058.99,0.07793
3053.2,0.07675
3047.42,0.07293
3041.63,0.06815
3035.85,0.06410
3030.06,0.06175
3024.27,0.06245
3018.49,0.06325
3012.7,0.06250
3006.91,0.05930
3001.13,0.05521
2995.34,0.05000
2989.56,0.04482
2983.77,0.04151
2977.98,0.03827
2972.2,0.03428
2966.41,0.03117
2960.62,0.02979
2954.84,0.02979
2949.05,0.03061
2943.27,0.03040
2937.48,0.02915
2931.69,0.02838
2925.91,0.02820
2920.12,0.02929
2914.33,0.03107
2908.55,0.03242
2902.76,0.03396
2896.98,0.03548
2891.19,0.03682
2885.4,0.03744
2879.62,0.03794
2873.83,0.03768
2868.04,0.03714
2862.26,0.03561
2856.47,0.03367
2850.69,0.03390
2844.9,0.03935
2839.11,0.04757
2833.33,0.05668
2827.54,0.06635
2821.75,0.07533
2815.97,0.08221
2810.18,0.08897
2804.4,0.09361
2798.61,0.09957
2792.82,0.10591
2787.04,0.11127
2781.25,0.11646
2775.46,0.11966
2769.68,0.12221
2763.89,0.12490
2758.11,0.12675
2752.32,0.12838
2746.53,0.12950
2740.75,0.12858
2734.96,0.12417
2729.17,0.11339
2723.39,0.11533
2717.6,0.12997
2711.82,0.13826
2706.03,0.14040
2700.24,0.14163
2694.46,0.14180
2688.67,0.14132
2682.88,0.14223
2677.1,0.14252
2671.31,0.14332
2665.53,0.14310
2659.74,0.14264
2653.95,0.14164
2648.17,0.13889
2642.38,0.13557
2636.59,0.13027
2630.81,0.12445
2625.02,0.12135
2619.24,0.12137
2613.45,0.12035
2607.66,0.11898
2601.88,0.11687
2596.09,0.11415
2590.3,0.11108
2584.52,0.10929
2578.73,0.10771
2572.95,0.10702
2567.16,0.10620
2561.37,0.10344
2555.59,0.09949
2549.8,0.09729
2544.02,0.09444
2538.23,0.08913
2532.44,0.08220
2526.66,0.07734
2520.87,0.07481
2515.08,0.07614
2509.3,0.08057
2503.51,0.08945
2497.73,0.10036
2491.94,0.11139
2486.15,0.12452
2480.37,0.13942
2474.58,0.15386
2468.79,0.16496
2463.01,0.17329
2457.22,0.18045
2451.44,0.18575
2445.65,0.19088
2439.86,0.19531
2434.08,0.19875
2428.29,0.20207
2422.5,0.20512
2416.72,0.20763
2410.93,0.20978
2405.15,0.21178
2399.36,0.21576
2393.57,0.21930
2387.79,0.22272
2382,0.22492
2376.21,0.22690
2370.43,0.22916
2364.64,0.23091
2358.86,0.23223
2353.07,0.23327
2347.28,0.23385
2341.5,0.23399
2335.71,0.23442
2329.92,0.23577
2324.14,0.23662
2318.35,0.23692
2312.57,0.23752
2306.78,0.23946
2300.99,0.24160
2295.21,0.24258
2289.42,0.24269
2283.63,0.24175
2277.85,0.24098
2272.06,0.23940
2266.28,0.23741
2260.49,0.23318
2254.7,0.22583
2248.92,0.21248
2243.13,0.20014
2237.34,0.20870
2231.56,0.22701
2225.77,0.23248
2219.99,0.23276
2214.2,0.23175
2208.41,0.23091
2202.63,0.23015
2196.84,0.22872
2191.05,0.22675
2185.27,0.22475
2179.48,0.22240
2173.7,0.21879
2167.91,0.21567
2162.12,0.21273
2156.34,0.20949
2150.55,0.20586
2144.76,0.20546
2138.98,0.20841
2133.19,0.21279
2127.41,0.21867
2121.62,0.22483
2115.83,0.22973
2110.05,0.23206
2104.26,0.23368
2098.47,0.23379
2092.69,0.23384
2086.9,0.23311
2081.12,0.23202
2075.33,0.23014
2069.54,0.22906
2063.76,0.22788
2057.97,0.22689
2052.19,0.22481
2046.4,0.22351
2040.61,0.22262
2034.83,0.22221
2029.04,0.22357
2023.25,0.22634
2017.47,0.22903
2011.68,0.23100
2005.9,0.23338
2000.11,0.23465
1994.32,0.23500
1988.54,0.23497
1982.75,0.23337
1976.96,0.22956
1971.18,0.22867
1965.39,0.22533
1959.61,0.22186
1953.82,0.22481
1948.03,0.22462
1942.25,0.22316
1936.46,0.22424
1930.67,0.22651
1924.89,0.22641
1919.1,0.22503
1913.32,0.22237
1907.53,0.21876
1901.74,0.21472
1895.96,0.21019
1890.17,0.20544
1884.38,0.20119
1878.6,0.19722
1872.81,0.19345
1867.03,0.18905
1861.24,0.18536
1855.45,0.18146
1849.67,0.17568
1843.88,0.16667
1838.09,0.15355
1832.31,0.13622
1826.52,0.11678
1820.74,0.10581
1814.95,0.09890
1809.16,0.08829
1803.38,0.07055
1797.59,0.06105
1791.8,0.06516
1786.02,0.08106
1780.23,0.09301
1774.45,0.09573
1768.66,0.09104
1762.87,0.08326
1757.09,0.07074
1751.3,0.05698
1745.51,0.04606
1739.73,0.04126
1733.94,0.03994
1728.16,0.03970
1722.37,0.04003
1716.58,0.04216
1710.8,0.04478
1705.01,0.04768
1699.22,0.05010
1693.44,0.04910
1687.65,0.04722
1681.87,0.04453
1676.08,0.04224
1670.29,0.03936
1664.51,0.03717
1658.72,0.03690
1652.93,0.03841
1647.15,0.03886
1641.36,0.03951
1635.58,0.04037
1629.79,0.04172
1624,0.04205
1618.22,0.04408
1612.43,0.04506
1606.64,0.04603
1600.86,0.04684
1595.07,0.04744
1589.29,0.04945
1583.5,0.05160
1577.71,0.05412
1571.93,0.05740
1566.14,0.05955
1560.35,0.06126
1554.57,0.06058
1548.78,0.05987
1543,0.05847
1537.21,0.05898
1531.42,0.06065
1525.64,0.06087
1519.85,0.05895
1514.07,0.05728
1508.28,0.05527
1502.49,0.05249
1496.71,0.04928
1490.92,0.04718
1485.13,0.04469
1479.35,0.04208
1473.56,0.03911
1467.78,0.03653
1461.99,0.03483
1456.2,0.03393
1450.42,0.03345
1444.63,0.03401
1438.84,0.03503
1433.06,0.03564
1427.27,0.03644
1421.49,0.03783
1415.7,0.03819
1409.91,0.03843
1404.13,0.03854
1398.34,0.03870
1392.55,0.03905
1386.77,0.03922
1380.98,0.03830
1375.2,0.03803
1369.41,0.04181
1363.62,0.04376
1357.84,0.04523
1352.05,0.04731
1346.26,0.04967
1340.48,0.05110
1334.69,0.05133
1328.91,0.05145
1323.12,0.05119
1317.33,0.05067
1311.55,0.05078
1305.76,0.05070
1299.97,0.05202
1294.19,0.05265
1288.4,0.05287
1282.62,0.05269
1276.83,0.05217
1271.04,0.05030
1265.26,0.04819
1259.47,0.04680
1253.68,0.04642
1247.9,0.04545
1242.11,0.04420
1236.33,0.04341
1230.54,0.04322
1224.75,0.04373
1218.97,0.04344
1213.18,0.04289
1207.39,0.04174
1201.61,0.04137
1195.82,0.04079
1190.04,0.04068
1184.25,0.03990
1178.46,0.03931
1172.68,0.03775
1166.89,0.03669
1161.1,0.03736
1155.32,0.03785
1149.53,0.03866
1143.75,0.03807
1137.96,0.03743
1132.17,0.03770
1126.39,0.03723
1120.6,0.03899
1114.81,0.03951
1109.03,0.04037
1103.24,0.03960
1097.46,0.03731
1091.67,0.03673
1085.88,0.03728
1080.1,0.03881
1074.31,0.04037
1068.52,0.04223
1062.74,0.04223
1056.95,0.04179
1051.17,0.04096
1045.38,0.04065
1039.59,0.04008
1033.81,0.04129
1028.02,0.04159
1022.24,0.04163
1016.45,0.04243
1010.66,0.04357
1004.88,0.04437
999.09,0.04525
993.304,0.04606
987.518,0.04809
981.731,0.04938
975.945,0.04890
970.159,0.04706
964.373,0.04902
958.586,0.05583
952.8,0.06128
947.014,0.06204
941.228,0.06164
935.441,0.06209
929.655,0.06180
923.869,0.06340
918.083,0.06378
912.297,0.06364
906.51,0.06622
900.724,0.07059
894.938,0.06898
889.152,0.06079
883.365,0.04473
877.579,0.03813
871.793,0.04012
866.007,0.05215
860.22,0.05651
854.434,0.05381
848.648,0.04789
842.862,0.05041
837.075,0.04989
831.289,0.04962
825.503,0.05196
819.717,0.05535
813.931,0.05715
808.144,0.05826
802.358,0.05900
796.572,0.06005
790.786,0.06301
784.999,0.06464
779.213,0.06350
773.427,0.05994
767.641,0.05539
761.854,0.05255
756.068,0.05156
750.282,0.05182
744.496,0.05219
738.709,0.04823
732.923,0.04266
727.137,0.03855
721.351,0.03812
715.565,0.03302
709.778,0.03608
703.992,0.04132
698.206,0.04495
692.42,0.05342
686.633,0.05601
680.847,0.05485
675.061,0.05376
669.275,0.05213
663.488,0.05271
657.702,0.04939
651.916,0.05011
646.13,0.04940
640.343,0.04739
634.557,0.04785
628.771,0.04739
622.985,0.04254
617.198,0.04410
611.412,0.04024
605.626,0.04075
599.84,0.03945