File: 01_Data/Rug_Pad/FTIR/IS/Rug_Pad_IS_S_220908_R7.dpt
7497.03,0.49824
7491.25,0.50727
7485.46,0.51233
7479.67,0.50821
7473.89,0.50598
7468.1,0.50513
7462.32,0.51131
7456.53,0.50707
7450.74,0.49800
7444.96,0.50686
7439.17,0.49899
7433.38,0.49349
7427.6,0.50768
7421.81,0.49612
7416.03,0.49634
7410.24,0.49629
7404.45,0.49347
7398.67,0.50102
7392.88,0.50000
7387.09,0.50499
7381.31,0.50794
7375.52,0.49587
7369.74,0.50196
7363.95,0.50163
7358.16,0.49482
7352.38,0.50098
7346.59,0.49309
7340.8,0.50012
7335.02,0.49470
7329.23,0.49725
7323.45,0.49288
7317.66,0.48838
7311.87,0.49219
7306.09,0.48355
7300.3,0.48657
7294.51,0.49585
7288.73,0.49363
7282.94,0.48258
7277.16,0.48307
7271.37,0.48624
7265.58,0.48290
7259.8,0.49207
7254.01,0.48340
7248.22,0.47897
7242.44,0.48485
7236.65,0.48246
7230.87,0.47746
7225.08,0.47303
7219.29,0.47665
7213.51,0.47122
7207.72,0.47246
7201.93,0.46483
7196.15,0.47555
7190.36,0.47989
7184.58,0.47076
7178.79,0.46922
7173,0.47459
7167.22,0.46523
7161.43,0.47652
7155.65,0.47122
7149.86,0.47684
7144.07,0.47055
7138.29,0.46642
7132.5,0.47221
7126.71,0.46586
7120.93,0.47205
7115.14,0.46785
7109.36,0.46582
7103.57,0.47161
7097.78,0.47488
7092,0.47334
7086.21,0.46844
7080.42,0.46327
7074.64,0.46809
7068.85,0.46570
7063.07,0.47023
7057.28,0.46881
7051.49,0.46433
7045.71,0.46576
7039.92,0.46943
7034.13,0.46275
7028.35,0.46699
7022.56,0.47021
7016.78,0.47272
7010.99,0.46917
7005.2,0.47303
6999.42,0.46818
6993.63,0.46685
6987.84,0.47434
6982.06,0.47221
6976.27,0.46976
6970.49,0.46804
6964.7,0.47156
6958.91,0.47199
6953.13,0.47046
6947.34,0.46774
6941.55,0.46829
6935.77,0.46875
6929.98,0.47580
6924.2,0.47106
6918.41,0.47415
6912.62,0.47143
6906.84,0.47646
6901.05,0.47605
6895.26,0.47600
6889.48,0.47324
6883.69,0.47355
6877.91,0.47575
6872.12,0.47611
6866.33,0.47778
6860.55,0.47381
6854.76,0.47273
6848.97,0.47914
6843.19,0.47401
6837.4,0.47346
6831.62,0.47759
6825.83,0.47875
6820.04,0.47723
6814.26,0.47746
6808.47,0.48060
6802.68,0.47762
6796.9,0.47954
6791.11,0.48337
6785.33,0.48116
6779.54,0.48418
6773.75,0.48241
6767.97,0.48087
6762.18,0.47943
6756.39,0.48027
6750.61,0.48598
6744.82,0.48323
6739.04,0.48103
6733.25,0.48021
6727.46,0.48244
6721.68,0.48267
6715.89,0.48147
6710.1,0.47962
6704.32,0.48169
6698.53,0.47862
6692.75,0.48000
6686.96,0.48716
6681.17,0.48832
6675.39,0.48056
6669.6,0.48409
6663.82,0.48944
6658.03,0.48771
6652.24,0.48890
6646.46,0.48907
6640.67,0.49124
6634.88,0.48924
6629.1,0.48339
6623.31,0.48786
6617.53,0.48908
6611.74,0.48563
6605.95,0.49044
6600.17,0.49187
6594.38,0.49056
6588.59,0.49087
6582.81,0.49601
6577.02,0.49093
6571.24,0.48950
6565.45,0.49175
6559.66,0.49271
6553.88,0.49350
6548.09,0.49324
6542.3,0.49305
6536.52,0.49268
6530.73,0.49499
6524.95,0.48853
6519.16,0.49317
6513.37,0.49027
6507.59,0.49463
6501.8,0.49484
6496.01,0.49061
6490.23,0.49235
6484.44,0.49553
6478.66,0.48985
6472.87,0.49226
6467.08,0.49162
6461.3,0.49141
6455.51,0.49330
6449.72,0.49667
6443.94,0.49343
6438.15,0.49336
6432.37,0.49503
6426.58,0.49105
6420.79,0.49197
6415.01,0.49340
6409.22,0.49217
6403.43,0.49169
6397.65,0.49065
6391.86,0.49155
6386.08,0.49424
6380.29,0.49569
6374.5,0.49410
6368.72,0.48952
6362.93,0.49309
6357.14,0.49313
6351.36,0.49279
6345.57,0.49090
6339.79,0.48939
6334,0.49087
6328.21,0.49396
6322.43,0.49329
6316.64,0.49413
6310.85,0.49390
6305.07,0.49503
6299.28,0.49524
6293.5,0.49136
6287.71,0.49506
6281.92,0.49875
6276.14,0.49487
6270.35,0.49694
6264.56,0.49502
6258.78,0.49537
6252.99,0.49479
6247.21,0.49590
6241.42,0.49975
6235.63,0.49452
6229.85,0.49753
6224.06,0.49449
6218.27,0.49473
6212.49,0.49553
6206.7,0.49276
6200.92,0.49529
6195.13,0.49772
6189.34,0.49781
6183.56,0.49555
6177.77,0.49450
6171.98,0.49764
6166.2,0.49253
6160.41,0.49565
6154.63,0.49611
6148.84,0.49294
6143.05,0.49619
6137.27,0.49371
6131.48,0.49300
6125.7,0.48803
6119.91,0.48813
6114.12,0.48726
6108.34,0.48824
6102.55,0.48355
6096.76,0.48624
6090.98,0.48528
6085.19,0.48500
6079.41,0.48675
6073.62,0.48809
6067.83,0.48512
6062.05,0.48164
6056.26,0.48302
6050.47,0.48016
6044.69,0.47892
6038.9,0.47876
6033.12,0.47662
6027.33,0.47464
6021.54,0.47268
6015.76,0.47214
6009.97,0.47063
6004.18,0.46858
5998.4,0.46869
5992.61,0.46676
5986.83,0.46458
5981.04,0.46393
5975.25,0.45962
5969.47,0.46084
5963.68,0.45789
5957.89,0.45211
5952.11,0.44967
5946.32,0.44821
5940.54,0.44453
5934.75,0.44142
5928.96,0.43803
5923.18,0.43177
5917.39,0.42832
5911.6,0.42432
5905.82,0.41402
5900.03,0.40382
5894.25,0.39587
5888.46,0.38839
5882.67,0.38489
5876.89,0.38686
5871.1,0.39001
5865.31,0.38535
5859.53,0.38143
5853.74,0.37077
5847.96,0.36269
5842.17,0.35632
5836.38,0.34894
5830.6,0.34840
5824.81,0.34830
5819.02,0.35063
5813.24,0.35316
5807.45,0.35307
5801.67,0.35843
5795.88,0.35865
5790.09,0.36597
5784.31,0.36724
5778.52,0.37291
5772.73,0.37484
5766.95,0.37685
5761.16,0.38052
5755.38,0.38327
5749.59,0.38378
5743.8,0.38208
5738.02,0.38154
5732.23,0.38268
5726.44,0.38254
5720.66,0.38038
5714.87,0.38034
5709.09,0.37964
5703.3,0.37940
5697.51,0.38050
5691.73,0.37866
5685.94,0.38082
5680.15,0.37957
5674.37,0.38222
5668.58,0.38425
5662.8,0.38785
5657.01,0.38704
5651.22,0.39182
5645.44,0.39012
5639.65,0.39115
5633.87,0.39003
5628.08,0.38880
5622.29,0.38529
5616.51,0.38659
5610.72,0.39193
5604.93,0.39706
5599.15,0.40308
5593.36,0.40865
5587.58,0.41555
5581.79,0.42141
5576,0.42499
5570.22,0.42841
5564.43,0.43117
5558.64,0.43548
5552.86,0.43572
5547.07,0.43905
5541.29,0.43886
5535.5,0.44044
5529.71,0.44310
5523.93,0.44195
5518.14,0.44427
5512.35,0.44416
5506.57,0.44507
5500.78,0.44477
5495,0.44290
5489.21,0.44512
5483.42,0.44735
5477.64,0.44596
5471.85,0.44702
5466.06,0.44686
5460.28,0.44702
5454.49,0.44851
5448.71,0.44811
5442.92,0.44876
5437.13,0.44762
5431.35,0.44727
5425.56,0.44910
5419.77,0.44836
5413.99,0.44818
5408.2,0.44737
5402.42,0.44755
5396.63,0.44831
5390.84,0.44821
5385.06,0.44915
5379.27,0.44837
5373.48,0.44916
5367.7,0.44725
5361.91,0.44866
5356.13,0.44917
5350.34,0.45112
5344.55,0.45001
5338.77,0.45042
5332.98,0.44731
5327.19,0.44669
5321.41,0.44938
5315.62,0.44896
5309.84,0.44924
5304.05,0.44963
5298.26,0.44867
5292.48,0.45020
5286.69,0.45059
5280.9,0.44884
5275.12,0.44866
5269.33,0.44638
5263.55,0.44509
5257.76,0.44478
5251.97,0.44224
5246.19,0.44028
5240.4,0.44070
5234.61,0.43823
5228.83,0.43863
5223.04,0.43685
5217.26,0.43422
5211.47,0.43528
5205.68,0.43520
5199.9,0.43530
5194.11,0.43330
5188.32,0.43264
5182.54,0.43332
5176.75,0.43301
5170.97,0.43202
5165.18,0.43292
5159.39,0.43248
5153.61,0.43325
5147.82,0.43429
5142.03,0.43355
5136.25,0.43484
5130.46,0.43608
5124.68,0.43503
5118.89,0.43486
5113.1,0.43587
5107.32,0.43523
5101.53,0.43640
5095.75,0.43697
5089.96,0.43720
5084.17,0.43751
5078.39,0.43794
5072.6,0.43832
5066.81,0.43931
5061.03,0.44000
5055.24,0.44003
5049.46,0.44033
5043.67,0.43980
5037.88,0.43923
5032.1,0.43932
5026.31,0.43976
5020.52,0.44018
5014.74,0.43919
5008.95,0.43969
5003.17,0.43983
4997.38,0.43926
4991.59,0.43806
4985.81,0.43869
4980.02,0.43701
4974.23,0.43736
4968.45,0.43601
4962.66,0.43645
4956.88,0.43524
4951.09,0.43448
4945.3,0.43395
4939.52,0.43262
4933.73,0.43301
4927.94,0.42999
4922.16,0.43018
4916.37,0.42971
4910.59,0.43040
4904.8,0.42890
4899.01,0.42912
4893.23,0.42781
4887.44,0.42704
4881.65,0.42663
4875.87,0.42581
4870.08,0.42582
4864.3,0.42531
4858.51,0.42497
4852.72,0.42523
4846.94,0.42499
4841.15,0.42423
4835.36,0.42291
4829.58,0.42309
4823.79,0.42332
4818.01,0.42304
4812.22,0.42261
4806.43,0.42200
4800.65,0.42000
4794.86,0.42030
4789.07,0.41923
4783.29,0.41856
4777.5,0.41830
4771.72,0.41697
4765.93,0.41688
4760.14,0.41653
4754.36,0.41550
4748.57,0.41423
4742.78,0.41402
4737,0.41353
4731.21,0.41163
4725.43,0.40942
4719.64,0.40739
4713.85,0.40565
4708.07,0.40367
4702.28,0.40277
4696.49,0.40159
4690.71,0.40161
4684.92,0.40205
4679.14,0.40175
4673.35,0.40075
4667.56,0.39942
4661.78,0.39748
4655.99,0.39578
4650.2,0.39349
4644.42,0.39012
4638.63,0.38534
4632.85,0.38289
4627.06,0.38115
4621.27,0.38074
4615.49,0.38271
4609.7,0.38152
4603.92,0.38192
4598.13,0.38394
4592.34,0.38554
4586.56,0.38604
4580.77,0.38732
4574.98,0.38769
4569.2,0.38909
4563.41,0.39211
4557.63,0.39297
4551.84,0.39361
4546.05,0.39317
4540.27,0.39135
4534.48,0.38891
4528.69,0.38709
4522.91,0.38390
4517.12,0.38292
4511.34,0.38412
4505.55,0.38501
4499.76,0.38502
4493.98,0.38351
4488.19,0.38168
4482.4,0.37901
4476.62,0.37513
4470.83,0.37291
4465.05,0.37037
4459.26,0.36498
4453.47,0.35959
4447.69,0.35351
4441.9,0.34659
4436.11,0.33955
4430.33,0.33045
4424.54,0.31930
4418.76,0.30906
4412.97,0.29773
4407.18,0.28651
4401.4,0.28012
4395.61,0.27387
4389.82,0.26820
4384.04,0.26228
4378.25,0.25747
4372.47,0.25125
4366.68,0.24728
4360.89,0.24155
4355.11,0.23729
4349.32,0.23277
4343.53,0.22867
4337.75,0.22364
4331.96,0.22130
4326.18,0.22406
4320.39,0.23006
4314.6,0.23612
4308.82,0.23616
4303.03,0.23427
4297.24,0.23047
4291.46,0.22937
4285.67,0.23023
4279.89,0.23358
4274.1,0.23695
4268.31,0.23706
4262.53,0.23618
4256.74,0.23443
4250.95,0.23529
4245.17,0.23789
4239.38,0.24013
4233.6,0.24298
4227.81,0.24577
4222.02,0.24860
4216.24,0.25275
4210.45,0.25656
4204.66,0.25955
4198.88,0.26241
4193.09,0.26371
4187.31,0.26470
4181.52,0.26583
4175.73,0.26525
4169.95,0.26532
4164.16,0.26553
4158.37,0.26673
4152.59,0.26870
4146.8,0.27192
4141.02,0.27599
4135.23,0.27980
4129.44,0.28096
4123.66,0.28216
4117.87,0.28256
4112.09,0.28322
4106.3,0.28240
4100.51,0.28106
4094.73,0.27936
4088.94,0.27829
4083.15,0.27646
4077.37,0.27240
4071.58,0.26361
4065.8,0.25281
4060.01,0.25277
4054.22,0.26024
4048.44,0.26597
4042.65,0.26822
4036.86,0.26893
4031.08,0.27039
4025.29,0.27268
4019.51,0.27397
4013.72,0.27398
4007.93,0.27354
4002.15,0.27299
3996.36,0.27276
3990.57,0.27285
3984.79,0.27157
3979,0.27119
3973.22,0.27102
3967.43,0.26957
3961.64,0.26861
3955.86,0.26800
3950.07,0.26825
3944.28,0.26861
3938.5,0.26954
3932.71,0.27275
3926.93,0.27694
3921.14,0.28043
3915.35,0.28367
3909.57,0.28547
3903.78,0.28764
3897.99,0.28851
3892.21,0.29012
3886.42,0.29201
3880.64,0.29426
3874.85,0.29727
3869.06,0.29985
3863.28,0.30157
3857.49,0.30362
3851.7,0.30490
3845.92,0.30764
3840.13,0.31007
3834.35,0.31139
3828.56,0.31236
3822.77,0.31402
3816.99,0.31475
3811.2,0.31594
3805.41,0.31701
3799.63,0.31793
3793.84,0.31917
3788.06,0.31984
3782.27,0.31971
3776.48,0.31794
3770.7,0.31795
3764.91,0.31764
3759.12,0.31740
3753.34,0.31728
3747.55,0.31848
3741.77,0.31748
3735.98,0.31661
3730.19,0.31587
3724.41,0.31464
3718.62,0.31280
3712.83,0.31043
3707.05,0.30547
3701.26,0.30002
3695.48,0.29381
3689.69,0.28549
3683.9,0.27378
3678.12,0.26059
3672.33,0.25110
3666.54,0.24319
3660.76,0.23579
3654.97,0.22577
3649.19,0.21561
3643.4,0.20548
3637.61,0.19592
3631.83,0.18597
3626.04,0.17392
3620.25,0.16415
3614.47,0.15551
3608.68,0.14734
3602.9,0.14126
3597.11,0.13524
3591.32,0.12955
3585.54,0.12394
3579.75,0.11882
3573.97,0.11427
3568.18,0.11024
3562.39,0.10504
3556.61,0.10193
3550.82,0.09897
3545.03,0.09550
3539.25,0.09323
3533.46,0.09088
3527.68,0.08837
3521.89,0.08613
3516.1,0.08425
3510.32,0.08199
3504.53,0.08063
3498.74,0.07900
3492.96,0.07736
3487.17,0.07502
3481.39,0.07429
3475.6,0.07271
3469.81,0.07136
3464.03,0.07020
3458.24,0.06883
3452.45,0.06807
3446.67,0.06735
3440.88,0.06584
3435.1,0.06448
3429.31,0.06432
3423.52,0.06366
3417.74,0.06329
3411.95,0.06255
3406.16,0.06165
3400.38,0.06082
3394.59,0.06119
3388.81,0.06049
3383.02,0.05999
3377.23,0.06014
3371.45,0.05909
3365.66,0.05815
3359.87,0.05809
3354.09,0.05799
3348.3,0.05807
3342.52,0.05810
3336.73,0.05766
3330.94,0.05749
3325.16,0.05703
3319.37,0.05737
3313.58,0.05673
3307.8,0.05728
3302.01,0.05778
3296.23,0.05794
3290.44,0.05826
3284.65,0.05848
3278.87,0.05979
3273.08,0.05958
3267.29,0.06094
3261.51,0.06253
3255.72,0.06246
3249.94,0.06389
3244.15,0.06510
3238.36,0.06605
3232.58,0.06759
3226.79,0.06808
3221,0.06841
3215.22,0.07035
3209.43,0.07104
3203.65,0.07167
3197.86,0.07232
3192.07,0.07375
3186.29,0.07525
3180.5,0.07552
3174.71,0.07720
3168.93,0.07828
3163.14,0.07891
3157.36,0.08008
3151.57,0.08141
3145.78,0.08193
3140,0.08229
3134.21,0.08315
3128.42,0.08311
3122.64,0.08320
3116.85,0.08387
3111.07,0.08446
3105.28,0.08424
3099.49,0.08444
3093.71,0.08398
3087.92,0.08195
3082.14,0.08087
3076.35,0.07990
3070.56,0.07989
3064.78,0.07861
3058.99,0.07787
3053.2,0.07609
3047.42,0.07256
3041.63,0.06757
3035.85,0.06422
3030.06,0.06154
3024.27,0.06239
3018.49,0.06363
3012.7,0.06213
3006.91,0.05900
3001.13,0.05524
2995.34,0.04997
2989.56,0.04493
2983.77,0.04121
2977.98,0.03880
2972.2,0.03443
2966.41,0.03064
2960.62,0.02985
2954.84,0.03056
2949.05,0.03073
2943.27,0.02986
2937.48,0.02919
2931.69,0.02808
2925.91,0.02771
2920.12,0.02947
2914.33,0.03082
2908.55,0.03234
2902.76,0.03443
2896.98,0.03567
2891.19,0.03690
2885.4,0.03718
2879.62,0.03773
2873.83,0.03733
2868.04,0.03732
2862.26,0.03555
2856.47,0.03381
2850.69,0.03402
2844.9,0.03965
2839.11,0.04724
2833.33,0.05680
2827.54,0.06691
2821.75,0.07563
2815.97,0.08267
2810.18,0.08825
2804.4,0.09354
2798.61,0.09992
2792.82,0.10585
2787.04,0.11120
2781.25,0.11536
2775.46,0.11949
2769.68,0.12231
2763.89,0.12480
2758.11,0.12664
2752.32,0.12839
2746.53,0.12969
2740.75,0.12833
2734.96,0.12336
2729.17,0.11385
2723.39,0.11562
2717.6,0.13005
2711.82,0.13756
2706.03,0.14022
2700.24,0.14150
2694.46,0.14193
2688.67,0.14137
2682.88,0.14133
2677.1,0.14273
2671.31,0.14335
2665.53,0.14305
2659.74,0.14233
2653.95,0.14104
2648.17,0.13884
2642.38,0.13557
2636.59,0.13017
2630.81,0.12403
2625.02,0.12092
2619.24,0.12073
2613.45,0.12005
2607.66,0.11915
2601.88,0.11694
2596.09,0.11455
2590.3,0.11069
2584.52,0.10829
2578.73,0.10752
2572.95,0.10673
2567.16,0.10607
2561.37,0.10328
2555.59,0.09968
2549.8,0.09682
2544.02,0.09444
2538.23,0.08906
2532.44,0.08220
2526.66,0.07685
2520.87,0.07486
2515.08,0.07596
2509.3,0.08025
2503.51,0.08951
2497.73,0.10040
2491.94,0.11138
2486.15,0.12437
2480.37,0.13923
2474.58,0.15407
2468.79,0.16482
2463.01,0.17308
2457.22,0.17938
2451.44,0.18511
2445.65,0.19061
2439.86,0.19483
2434.08,0.19911
2428.29,0.20256
2422.5,0.20537
2416.72,0.20748
2410.93,0.20956
2405.15,0.21213
2399.36,0.21586
2393.57,0.21923
2387.79,0.22224
2382,0.22522
2376.21,0.22711
2370.43,0.22910
2364.64,0.23081
2358.86,0.23199
2353.07,0.23301
2347.28,0.23395
2341.5,0.23394
2335.71,0.23368
2329.92,0.23562
2324.14,0.23657
2318.35,0.23672
2312.57,0.23758
2306.78,0.23931
2300.99,0.24143
2295.21,0.24221
2289.42,0.24242
2283.63,0.24209
2277.85,0.24073
2272.06,0.23893
2266.28,0.23668
2260.49,0.23261
2254.7,0.22573
2248.92,0.21211
2243.13,0.19955
2237.34,0.20830
2231.56,0.22711
2225.77,0.23258
2219.99,0.23259
2214.2,0.23153
2208.41,0.23083
2202.63,0.23016
2196.84,0.22865
2191.05,0.22695
2185.27,0.22445
2179.48,0.22181
2173.7,0.21868
2167.91,0.21531
2162.12,0.21247
2156.34,0.20887
2150.55,0.20540
2144.76,0.20529
2138.98,0.20793
2133.19,0.21225
2127.41,0.21836
2121.62,0.22420
2115.83,0.22888
2110.05,0.23199
2104.26,0.23319
2098.47,0.23352
2092.69,0.23354
2086.9,0.23238
2081.12,0.23138
2075.33,0.22998
2069.54,0.22851
2063.76,0.22743
2057.97,0.22614
2052.19,0.22475
2046.4,0.22315
2040.61,0.22222
2034.83,0.22247
2029.04,0.22344
2023.25,0.22565
2017.47,0.22798
2011.68,0.23046
2005.9,0.23285
2000.11,0.23448
1994.32,0.23515
1988.54,0.23473
1982.75,0.23289
1976.96,0.22924
1971.18,0.22833
1965.39,0.22488
1959.61,0.22151
1953.82,0.22450
1948.03,0.22434
1942.25,0.22344
1936.46,0.22381
1930.67,0.22597
1924.89,0.22648
1919.1,0.22469
1913.32,0.22234
1907.53,0.21889
1901.74,0.21446
1895.96,0.21012
1890.17,0.20534
1884.38,0.20116
1878.6,0.19700
1872.81,0.19331
1867.03,0.18898
1861.24,0.18526
1855.45,0.18158
1849.67,0.17576
1843.88,0.16610
1838.09,0.15318
1832.31,0.13624
1826.52,0.11719
1820.74,0.10563
1814.95,0.09883
1809.16,0.08805
1803.38,0.07051
1797.59,0.06107
1791.8,0.06512
1786.02,0.08126
1780.23,0.09303
1774.45,0.09544
1768.66,0.09110
1762.87,0.08299
1757.09,0.07079
1751.3,0.05690
1745.51,0.04582
1739.73,0.04112
1733.94,0.04027
1728.16,0.03989
1722.37,0.03986
1716.58,0.04184
1710.8,0.04448
1705.01,0.04806
1699.22,0.05015
1693.44,0.04907
1687.65,0.04707
1681.87,0.04440
1676.08,0.04196
1670.29,0.03928
1664.51,0.03710
1658.72,0.03705
1652.93,0.03826
1647.15,0.03928
1641.36,0.03944
1635.58,0.04010
1629.79,0.04110
1624,0.04228
1618.22,0.04352
1612.43,0.04529
1606.64,0.04626
1600.86,0.04657
1595.07,0.04788
1589.29,0.04957
1583.5,0.05152
1577.71,0.05411
1571.93,0.05800
1566.14,0.05990
1560.35,0.06076
1554.57,0.06039
1548.78,0.05951
1543,0.05849
1537.21,0.05888
1531.42,0.06079
1525.64,0.06048
1519.85,0.05894
1514.07,0.05678
1508.28,0.05568
1502.49,0.05267
1496.71,0.04954
1490.92,0.04732
1485.13,0.04512
1479.35,0.04187
1473.56,0.03868
1467.78,0.03612
1461.99,0.03468
1456.2,0.03356
1450.42,0.03387
1444.63,0.03389
1438.84,0.03471
1433.06,0.03556
1427.27,0.03708
1421.49,0.03745
1415.7,0.03809
1409.91,0.03834
1404.13,0.03867
1398.34,0.03816
1392.55,0.03866
1386.77,0.03932
1380.98,0.03871
1375.2,0.03769
1369.41,0.04185
1363.62,0.04379
1357.84,0.04487
1352.05,0.04725
1346.26,0.04972
1340.48,0.05082
1334.69,0.05120
1328.91,0.05155
1323.12,0.05119
1317.33,0.05032
1311.55,0.05036
1305.76,0.05088
1299.97,0.05193
1294.19,0.05291
1288.4,0.05257
1282.62,0.05239
1276.83,0.05218
1271.04,0.05028
1265.26,0.04782
1259.47,0.04687
1253.68,0.04653
1247.9,0.04536
1242.11,0.04429
1236.33,0.04365
1230.54,0.04329
1224.75,0.04330
1218.97,0.04332
1213.18,0.04242
1207.39,0.04102
1201.61,0.04072
1195.82,0.04102
1190.04,0.04075
1184.25,0.04005
1178.46,0.03916
1172.68,0.03797
1166.89,0.03697
1161.1,0.03711
1155.32,0.03767
1149.53,0.03767
1143.75,0.03794
1137.96,0.03721
1132.17,0.03733
1126.39,0.03716
1120.6,0.03851
1114.81,0.04017
1109.03,0.04000
1103.24,0.03885
1097.46,0.03750
1091.67,0.03676
1085.88,0.03618
1080.1,0.03870
1074.31,0.04028
1068.52,0.04155
1062.74,0.04250
1056.95,0.04164
1051.17,0.04076
1045.38,0.03953
1039.59,0.04092
1033.81,0.04060
1028.02,0.04187
1022.24,0.04243
1016.45,0.04325
1010.66,0.04360
1004.88,0.04445
999.09,0.04545
993.304,0.04620
987.518,0.04817
981.731,0.04976
975.945,0.04881
970.159,0.04641
964.373,0.04845
958.586,0.05520
952.8,0.06080
947.014,0.06223
941.228,0.06177
935.441,0.06163
929.655,0.06262
923.869,0.06333
918.083,0.06374
912.297,0.06282
906.51,0.06628
900.724,0.07084
894.938,0.06947
889.152,0.06102
883.365,0.04440
877.579,0.03790
871.793,0.03952
866.007,0.05195
860.22,0.05699
854.434,0.05432
848.648,0.04833
842.862,0.04976
837.075,0.04897
831.289,0.05036
825.503,0.05198
819.717,0.05392
813.931,0.05639
808.144,0.05811
802.358,0.05866
796.572,0.06104
790.786,0.06341
784.999,0.06472
779.213,0.06374
773.427,0.05960
767.641,0.05563
761.854,0.05175
756.068,0.05150
750.282,0.05236
744.496,0.05130
738.709,0.04766
732.923,0.04158
727.137,0.03893
721.351,0.03831
715.565,0.03340
709.778,0.03711
703.992,0.04113
698.206,0.04527
692.42,0.05343
686.633,0.05649
680.847,0.05491
675.061,0.05474
669.275,0.05191
663.488,0.05058
657.702,0.05018
651.916,0.04817
646.13,0.04764
640.343,0.04734
634.557,0.04904
628.771,0.04860
622.985,0.04586
617.198,0.04063
611.412,0.04083
605.626,0.04013
599.84,0.04000