File: 01_Data/Rug_Pad/FTIR/IS/Rug_Pad_IS_S_220908_R2.dpt
7497.03,0.50112
7491.25,0.50120
7485.46,0.50497
7479.67,0.49833
7473.89,0.49317
7468.1,0.50161
7462.32,0.49983
7456.53,0.49780
7450.74,0.50224
7444.96,0.50230
7439.17,0.50136
7433.38,0.50074
7427.6,0.49889
7421.81,0.49742
7416.03,0.49320
7410.24,0.50259
7404.45,0.50629
7398.67,0.49839
7392.88,0.49588
7387.09,0.49602
7381.31,0.49624
7375.52,0.50056
7369.74,0.49787
7363.95,0.49083
7358.16,0.49683
7352.38,0.49860
7346.59,0.49687
7340.8,0.49765
7335.02,0.49374
7329.23,0.49442
7323.45,0.48191
7317.66,0.48617
7311.87,0.48932
7306.09,0.48409
7300.3,0.48871
7294.51,0.48582
7288.73,0.48604
7282.94,0.48039
7277.16,0.47748
7271.37,0.48444
7265.58,0.48823
7259.8,0.48242
7254.01,0.47138
7248.22,0.47395
7242.44,0.47552
7236.65,0.47468
7230.87,0.47677
7225.08,0.47347
7219.29,0.48097
7213.51,0.47540
7207.72,0.47641
7201.93,0.46919
7196.15,0.47687
7190.36,0.46520
7184.58,0.46353
7178.79,0.46976
7173,0.47278
7167.22,0.47388
7161.43,0.47448
7155.65,0.47222
7149.86,0.47842
7144.07,0.47197
7138.29,0.47315
7132.5,0.47388
7126.71,0.47325
7120.93,0.47510
7115.14,0.46855
7109.36,0.46571
7103.57,0.47356
7097.78,0.46576
7092,0.46773
7086.21,0.46840
7080.42,0.46507
7074.64,0.46845
7068.85,0.46549
7063.07,0.46379
7057.28,0.46669
7051.49,0.46836
7045.71,0.46398
7039.92,0.46414
7034.13,0.46807
7028.35,0.47046
7022.56,0.46464
7016.78,0.47140
7010.99,0.46601
7005.2,0.46735
6999.42,0.47295
6993.63,0.47268
6987.84,0.47171
6982.06,0.47200
6976.27,0.47538
6970.49,0.46749
6964.7,0.46320
6958.91,0.46873
6953.13,0.47201
6947.34,0.47370
6941.55,0.46726
6935.77,0.46889
6929.98,0.46723
6924.2,0.46761
6918.41,0.46908
6912.62,0.46979
6906.84,0.47149
6901.05,0.46755
6895.26,0.47306
6889.48,0.47211
6883.69,0.47103
6877.91,0.46909
6872.12,0.47100
6866.33,0.47808
6860.55,0.47128
6854.76,0.47522
6848.97,0.47339
6843.19,0.47077
6837.4,0.47703
6831.62,0.47521
6825.83,0.47294
6820.04,0.47363
6814.26,0.47669
6808.47,0.47725
6802.68,0.47727
6796.9,0.47819
6791.11,0.47674
6785.33,0.47862
6779.54,0.47555
6773.75,0.47903
6767.97,0.47859
6762.18,0.48395
6756.39,0.48363
6750.61,0.48101
6744.82,0.48312
6739.04,0.48786
6733.25,0.47860
6727.46,0.48213
6721.68,0.47967
6715.89,0.48456
6710.1,0.47964
6704.32,0.48274
6698.53,0.48443
6692.75,0.48101
6686.96,0.48038
6681.17,0.47731
6675.39,0.48661
6669.6,0.48315
6663.82,0.48423
6658.03,0.48528
6652.24,0.48867
6646.46,0.48592
6640.67,0.48605
6634.88,0.48798
6629.1,0.48949
6623.31,0.49010
6617.53,0.48441
6611.74,0.48530
6605.95,0.48347
6600.17,0.48702
6594.38,0.49111
6588.59,0.49247
6582.81,0.49070
6577.02,0.49084
6571.24,0.49112
6565.45,0.49137
6559.66,0.49278
6553.88,0.49132
6548.09,0.48912
6542.3,0.49143
6536.52,0.49115
6530.73,0.48806
6524.95,0.49104
6519.16,0.49620
6513.37,0.49441
6507.59,0.49282
6501.8,0.49294
6496.01,0.49130
6490.23,0.49160
6484.44,0.49536
6478.66,0.49527
6472.87,0.49344
6467.08,0.48988
6461.3,0.49561
6455.51,0.49217
6449.72,0.49106
6443.94,0.49070
6438.15,0.49260
6432.37,0.49029
6426.58,0.49124
6420.79,0.49058
6415.01,0.49169
6409.22,0.49414
6403.43,0.49319
6397.65,0.49648
6391.86,0.49256
6386.08,0.49313
6380.29,0.49072
6374.5,0.49281
6368.72,0.49629
6362.93,0.49200
6357.14,0.49376
6351.36,0.49359
6345.57,0.49201
6339.79,0.49316
6334,0.48931
6328.21,0.49222
6322.43,0.49203
6316.64,0.49339
6310.85,0.49477
6305.07,0.49187
6299.28,0.49673
6293.5,0.49341
6287.71,0.49168
6281.92,0.49379
6276.14,0.49453
6270.35,0.49421
6264.56,0.49478
6258.78,0.49533
6252.99,0.49178
6247.21,0.49391
6241.42,0.49405
6235.63,0.49382
6229.85,0.49910
6224.06,0.49873
6218.27,0.49642
6212.49,0.49365
6206.7,0.49424
6200.92,0.49615
6195.13,0.49302
6189.34,0.49604
6183.56,0.49539
6177.77,0.49535
6171.98,0.49415
6166.2,0.49321
6160.41,0.49350
6154.63,0.49431
6148.84,0.49135
6143.05,0.49010
6137.27,0.49061
6131.48,0.48946
6125.7,0.48724
6119.91,0.48796
6114.12,0.48974
6108.34,0.48477
6102.55,0.48568
6096.76,0.48486
6090.98,0.48694
6085.19,0.48793
6079.41,0.48504
6073.62,0.48173
6067.83,0.48441
6062.05,0.48411
6056.26,0.48333
6050.47,0.48091
6044.69,0.48011
6038.9,0.48102
6033.12,0.47830
6027.33,0.47767
6021.54,0.47479
6015.76,0.47156
6009.97,0.47045
6004.18,0.46701
5998.4,0.46911
5992.61,0.46607
5986.83,0.46358
5981.04,0.46415
5975.25,0.46011
5969.47,0.45847
5963.68,0.45393
5957.89,0.45347
5952.11,0.45131
5946.32,0.44949
5940.54,0.44610
5934.75,0.44086
5928.96,0.43565
5923.18,0.43306
5917.39,0.42828
5911.6,0.42120
5905.82,0.41493
5900.03,0.40296
5894.25,0.39468
5888.46,0.38582
5882.67,0.38562
5876.89,0.38641
5871.1,0.38730
5865.31,0.38679
5859.53,0.38006
5853.74,0.37106
5847.96,0.36194
5842.17,0.35528
5836.38,0.35062
5830.6,0.34940
5824.81,0.34952
5819.02,0.34888
5813.24,0.35184
5807.45,0.35249
5801.67,0.35356
5795.88,0.35886
5790.09,0.36144
5784.31,0.36828
5778.52,0.37157
5772.73,0.37887
5766.95,0.38066
5761.16,0.38276
5755.38,0.38034
5749.59,0.38048
5743.8,0.38213
5738.02,0.38185
5732.23,0.38257
5726.44,0.38109
5720.66,0.38092
5714.87,0.38246
5709.09,0.38139
5703.3,0.38026
5697.51,0.37973
5691.73,0.37774
5685.94,0.38163
5680.15,0.38249
5674.37,0.38279
5668.58,0.38364
5662.8,0.38827
5657.01,0.38967
5651.22,0.39078
5645.44,0.39077
5639.65,0.39055
5633.87,0.39144
5628.08,0.38640
5622.29,0.38619
5616.51,0.38731
5610.72,0.38933
5604.93,0.39631
5599.15,0.40307
5593.36,0.40823
5587.58,0.41472
5581.79,0.41908
5576,0.42489
5570.22,0.42943
5564.43,0.43116
5558.64,0.43197
5552.86,0.43542
5547.07,0.43830
5541.29,0.43711
5535.5,0.43933
5529.71,0.44228
5523.93,0.44375
5518.14,0.44155
5512.35,0.44383
5506.57,0.44314
5500.78,0.44400
5495,0.44687
5489.21,0.44485
5483.42,0.44612
5477.64,0.44573
5471.85,0.44538
5466.06,0.44586
5460.28,0.44705
5454.49,0.44669
5448.71,0.44615
5442.92,0.44943
5437.13,0.44671
5431.35,0.44647
5425.56,0.44607
5419.77,0.44662
5413.99,0.44584
5408.2,0.44616
5402.42,0.44720
5396.63,0.44662
5390.84,0.44689
5385.06,0.44728
5379.27,0.44786
5373.48,0.44894
5367.7,0.44774
5361.91,0.44820
5356.13,0.44746
5350.34,0.44912
5344.55,0.44852
5338.77,0.44707
5332.98,0.44619
5327.19,0.44771
5321.41,0.44711
5315.62,0.44509
5309.84,0.44719
5304.05,0.44684
5298.26,0.44713
5292.48,0.44856
5286.69,0.44668
5280.9,0.44653
5275.12,0.44506
5269.33,0.44340
5263.55,0.44172
5257.76,0.43941
5251.97,0.43660
5246.19,0.43475
5240.4,0.43489
5234.61,0.43330
5228.83,0.43033
5223.04,0.42946
5217.26,0.42753
5211.47,0.42651
5205.68,0.42615
5199.9,0.42643
5194.11,0.42486
5188.32,0.42323
5182.54,0.42252
5176.75,0.42175
5170.97,0.42246
5165.18,0.42258
5159.39,0.42361
5153.61,0.42512
5147.82,0.42472
5142.03,0.42617
5136.25,0.42698
5130.46,0.42676
5124.68,0.42691
5118.89,0.42816
5113.1,0.42894
5107.32,0.42915
5101.53,0.43026
5095.75,0.43105
5089.96,0.43106
5084.17,0.43201
5078.39,0.43152
5072.6,0.43303
5066.81,0.43374
5061.03,0.43409
5055.24,0.43330
5049.46,0.43418
5043.67,0.43512
5037.88,0.43463
5032.1,0.43390
5026.31,0.43547
5020.52,0.43506
5014.74,0.43557
5008.95,0.43508
5003.17,0.43515
4997.38,0.43569
4991.59,0.43468
4985.81,0.43553
4980.02,0.43573
4974.23,0.43342
4968.45,0.43316
4962.66,0.43285
4956.88,0.43253
4951.09,0.43135
4945.3,0.43115
4939.52,0.42992
4933.73,0.42993
4927.94,0.42908
4922.16,0.42848
4916.37,0.42774
4910.59,0.42783
4904.8,0.42789
4899.01,0.42710
4893.23,0.42812
4887.44,0.42723
4881.65,0.42609
4875.87,0.42567
4870.08,0.42611
4864.3,0.42400
4858.51,0.42512
4852.72,0.42393
4846.94,0.42393
4841.15,0.42359
4835.36,0.42219
4829.58,0.42310
4823.79,0.42131
4818.01,0.42078
4812.22,0.42044
4806.43,0.41983
4800.65,0.41978
4794.86,0.41922
4789.07,0.41847
4783.29,0.41818
4777.5,0.41701
4771.72,0.41680
4765.93,0.41657
4760.14,0.41519
4754.36,0.41603
4748.57,0.41443
4742.78,0.41531
4737,0.41236
4731.21,0.41177
4725.43,0.40925
4719.64,0.40669
4713.85,0.40499
4708.07,0.40352
4702.28,0.40199
4696.49,0.39996
4690.71,0.40134
4684.92,0.40142
4679.14,0.40145
4673.35,0.40050
4667.56,0.39913
4661.78,0.39610
4655.99,0.39413
4650.2,0.39240
4644.42,0.38926
4638.63,0.38487
4632.85,0.38151
4627.06,0.38012
4621.27,0.38061
4615.49,0.38169
4609.7,0.38142
4603.92,0.38111
4598.13,0.38289
4592.34,0.38335
4586.56,0.38603
4580.77,0.38673
4574.98,0.38674
4569.2,0.38890
4563.41,0.39174
4557.63,0.39196
4551.84,0.39162
4546.05,0.39219
4540.27,0.39128
4534.48,0.38988
4528.69,0.38564
4522.91,0.38323
4517.12,0.38276
4511.34,0.38365
4505.55,0.38397
4499.76,0.38448
4493.98,0.38367
4488.19,0.38128
4482.4,0.37724
4476.62,0.37534
4470.83,0.37348
4465.05,0.37078
4459.26,0.36578
4453.47,0.35966
4447.69,0.35307
4441.9,0.34682
4436.11,0.33938
4430.33,0.32871
4424.54,0.31891
4418.76,0.30819
4412.97,0.29790
4407.18,0.28703
4401.4,0.27918
4395.61,0.27411
4389.82,0.26889
4384.04,0.26329
4378.25,0.25726
4372.47,0.25214
4366.68,0.24667
4360.89,0.24178
4355.11,0.23641
4349.32,0.23326
4343.53,0.22765
4337.75,0.22359
4331.96,0.22066
4326.18,0.22411
4320.39,0.23040
4314.6,0.23668
4308.82,0.23751
4303.03,0.23471
4297.24,0.23064
4291.46,0.22939
4285.67,0.22974
4279.89,0.23266
4274.1,0.23560
4268.31,0.23667
4262.53,0.23623
4256.74,0.23536
4250.95,0.23545
4245.17,0.23716
4239.38,0.24016
4233.6,0.24296
4227.81,0.24601
4222.02,0.24841
4216.24,0.25257
4210.45,0.25657
4204.66,0.25991
4198.88,0.26208
4193.09,0.26330
4187.31,0.26444
4181.52,0.26493
4175.73,0.26510
4169.95,0.26550
4164.16,0.26566
4158.37,0.26617
4152.59,0.26905
4146.8,0.27196
4141.02,0.27542
4135.23,0.27823
4129.44,0.28047
4123.66,0.28129
4117.87,0.28157
4112.09,0.28148
4106.3,0.28076
4100.51,0.27995
4094.73,0.27875
4088.94,0.27744
4083.15,0.27532
4077.37,0.27125
4071.58,0.26341
4065.8,0.25299
4060.01,0.25144
4054.22,0.25859
4048.44,0.26483
4042.65,0.26737
4036.86,0.26856
4031.08,0.27015
4025.29,0.27169
4019.51,0.27291
4013.72,0.27264
4007.93,0.27238
4002.15,0.27236
3996.36,0.27217
3990.57,0.27177
3984.79,0.27132
3979,0.27048
3973.22,0.26894
3967.43,0.26839
3961.64,0.26815
3955.86,0.26727
3950.07,0.26667
3944.28,0.26671
3938.5,0.26837
3932.71,0.27246
3926.93,0.27520
3921.14,0.27892
3915.35,0.28144
3909.57,0.28440
3903.78,0.28608
3897.99,0.28717
3892.21,0.28863
3886.42,0.29024
3880.64,0.29309
3874.85,0.29577
3869.06,0.29755
3863.28,0.30002
3857.49,0.30177
3851.7,0.30374
3845.92,0.30619
3840.13,0.30846
3834.35,0.30950
3828.56,0.31064
3822.77,0.31193
3816.99,0.31251
3811.2,0.31436
3805.41,0.31519
3799.63,0.31605
3793.84,0.31666
3788.06,0.31678
3782.27,0.31616
3776.48,0.31617
3770.7,0.31535
3764.91,0.31441
3759.12,0.31378
3753.34,0.31386
3747.55,0.31341
3741.77,0.31337
3735.98,0.31279
3730.19,0.31189
3724.41,0.30943
3718.62,0.30778
3712.83,0.30539
3707.05,0.30047
3701.26,0.29428
3695.48,0.28707
3689.69,0.27863
3683.9,0.26565
3678.12,0.25234
3672.33,0.24154
3666.54,0.23299
3660.76,0.22378
3654.97,0.21383
3649.19,0.20313
3643.4,0.19243
3637.61,0.18256
3631.83,0.17271
3626.04,0.16208
3620.25,0.15275
3614.47,0.14425
3608.68,0.13658
3602.9,0.13171
3597.11,0.12522
3591.32,0.12024
3585.54,0.11473
3579.75,0.11074
3573.97,0.10662
3568.18,0.10278
3562.39,0.09839
3556.61,0.09560
3550.82,0.09290
3545.03,0.08968
3539.25,0.08706
3533.46,0.08449
3527.68,0.08274
3521.89,0.08117
3516.1,0.07925
3510.32,0.07725
3504.53,0.07595
3498.74,0.07448
3492.96,0.07313
3487.17,0.07177
3481.39,0.07085
3475.6,0.06879
3469.81,0.06792
3464.03,0.06634
3458.24,0.06596
3452.45,0.06507
3446.67,0.06394
3440.88,0.06296
3435.1,0.06211
3429.31,0.06160
3423.52,0.06125
3417.74,0.06004
3411.95,0.06038
3406.16,0.05903
3400.38,0.05867
3394.59,0.05856
3388.81,0.05825
3383.02,0.05770
3377.23,0.05769
3371.45,0.05689
3365.66,0.05662
3359.87,0.05617
3354.09,0.05651
3348.3,0.05588
3342.52,0.05626
3336.73,0.05548
3330.94,0.05647
3325.16,0.05542
3319.37,0.05640
3313.58,0.05524
3307.8,0.05539
3302.01,0.05537
3296.23,0.05592
3290.44,0.05615
3284.65,0.05715
3278.87,0.05746
3273.08,0.05785
3267.29,0.05871
3261.51,0.05903
3255.72,0.06114
3249.94,0.06228
3244.15,0.06322
3238.36,0.06350
3232.58,0.06516
3226.79,0.06621
3221,0.06699
3215.22,0.06802
3209.43,0.06891
3203.65,0.06928
3197.86,0.07031
3192.07,0.07098
3186.29,0.07212
3180.5,0.07293
3174.71,0.07443
3168.93,0.07523
3163.14,0.07617
3157.36,0.07767
3151.57,0.07837
3145.78,0.07908
3140,0.07930
3134.21,0.07997
3128.42,0.08088
3122.64,0.08073
3116.85,0.08074
3111.07,0.08145
3105.28,0.08148
3099.49,0.08176
3093.71,0.08054
3087.92,0.07968
3082.14,0.07871
3076.35,0.07841
3070.56,0.07787
3064.78,0.07690
3058.99,0.07586
3053.2,0.07412
3047.42,0.07138
3041.63,0.06736
3035.85,0.06312
3030.06,0.06090
3024.27,0.06059
3018.49,0.06265
3012.7,0.06129
3006.91,0.05842
3001.13,0.05444
2995.34,0.04967
2989.56,0.04440
2983.77,0.04090
2977.98,0.03780
2972.2,0.03442
2966.41,0.03135
2960.62,0.02975
2954.84,0.02993
2949.05,0.03025
2943.27,0.03014
2937.48,0.02890
2931.69,0.02777
2925.91,0.02801
2920.12,0.02906
2914.33,0.03066
2908.55,0.03256
2902.76,0.03359
2896.98,0.03509
2891.19,0.03664
2885.4,0.03778
2879.62,0.03795
2873.83,0.03787
2868.04,0.03690
2862.26,0.03591
2856.47,0.03408
2850.69,0.03387
2844.9,0.03954
2839.11,0.04727
2833.33,0.05689
2827.54,0.06624
2821.75,0.07521
2815.97,0.08171
2810.18,0.08757
2804.4,0.09296
2798.61,0.09872
2792.82,0.10498
2787.04,0.11004
2781.25,0.11433
2775.46,0.11839
2769.68,0.12131
2763.89,0.12349
2758.11,0.12507
2752.32,0.12694
2746.53,0.12801
2740.75,0.12720
2734.96,0.12281
2729.17,0.11278
2723.39,0.11479
2717.6,0.12900
2711.82,0.13606
2706.03,0.13905
2700.24,0.14001
2694.46,0.14042
2688.67,0.14019
2682.88,0.14080
2677.1,0.14146
2671.31,0.14224
2665.53,0.14223
2659.74,0.14181
2653.95,0.13986
2648.17,0.13787
2642.38,0.13472
2636.59,0.12948
2630.81,0.12365
2625.02,0.12066
2619.24,0.12054
2613.45,0.12005
2607.66,0.11812
2601.88,0.11668
2596.09,0.11377
2590.3,0.11015
2584.52,0.10873
2578.73,0.10748
2572.95,0.10663
2567.16,0.10595
2561.37,0.10289
2555.59,0.09976
2549.8,0.09715
2544.02,0.09416
2538.23,0.08872
2532.44,0.08202
2526.66,0.07713
2520.87,0.07492
2515.08,0.07601
2509.3,0.08036
2503.51,0.08937
2497.73,0.09993
2491.94,0.11135
2486.15,0.12379
2480.37,0.13881
2474.58,0.15309
2468.79,0.16461
2463.01,0.17243
2457.22,0.17887
2451.44,0.18426
2445.65,0.18963
2439.86,0.19409
2434.08,0.19783
2428.29,0.20132
2422.5,0.20394
2416.72,0.20642
2410.93,0.20837
2405.15,0.21109
2399.36,0.21427
2393.57,0.21776
2387.79,0.22090
2382,0.22378
2376.21,0.22536
2370.43,0.22771
2364.64,0.22947
2358.86,0.22977
2353.07,0.23139
2347.28,0.23198
2341.5,0.23190
2335.71,0.23236
2329.92,0.23310
2324.14,0.23349
2318.35,0.23440
2312.57,0.23569
2306.78,0.23703
2300.99,0.23861
2295.21,0.23981
2289.42,0.23964
2283.63,0.23909
2277.85,0.23759
2272.06,0.23626
2266.28,0.23391
2260.49,0.23024
2254.7,0.22289
2248.92,0.20956
2243.13,0.19748
2237.34,0.20633
2231.56,0.22390
2225.77,0.22900
2219.99,0.22900
2214.2,0.22832
2208.41,0.22747
2202.63,0.22622
2196.84,0.22478
2191.05,0.22293
2185.27,0.22115
2179.48,0.21859
2173.7,0.21543
2167.91,0.21216
2162.12,0.20951
2156.34,0.20587
2150.55,0.20296
2144.76,0.20224
2138.98,0.20446
2133.19,0.20889
2127.41,0.21482
2121.62,0.22062
2115.83,0.22531
2110.05,0.22786
2104.26,0.22889
2098.47,0.22932
2092.69,0.22956
2086.9,0.22878
2081.12,0.22695
2075.33,0.22579
2069.54,0.22483
2063.76,0.22440
2057.97,0.22251
2052.19,0.22149
2046.4,0.22043
2040.61,0.21894
2034.83,0.21924
2029.04,0.22046
2023.25,0.22300
2017.47,0.22526
2011.68,0.22754
2005.9,0.22964
2000.11,0.23136
1994.32,0.23213
1988.54,0.23211
1982.75,0.23029
1976.96,0.22700
1971.18,0.22555
1965.39,0.22252
1959.61,0.21892
1953.82,0.22212
1948.03,0.22197
1942.25,0.22103
1936.46,0.22207
1930.67,0.22390
1924.89,0.22395
1919.1,0.22244
1913.32,0.22007
1907.53,0.21659
1901.74,0.21299
1895.96,0.20829
1890.17,0.20386
1884.38,0.19926
1878.6,0.19572
1872.81,0.19195
1867.03,0.18752
1861.24,0.18407
1855.45,0.18061
1849.67,0.17475
1843.88,0.16569
1838.09,0.15283
1832.31,0.13535
1826.52,0.11628
1820.74,0.10528
1814.95,0.09846
1809.16,0.08823
1803.38,0.07035
1797.59,0.06111
1791.8,0.06505
1786.02,0.08057
1780.23,0.09265
1774.45,0.09520
1768.66,0.09090
1762.87,0.08251
1757.09,0.07087
1751.3,0.05736
1745.51,0.04590
1739.73,0.04125
1733.94,0.04033
1728.16,0.03981
1722.37,0.04013
1716.58,0.04129
1710.8,0.04464
1705.01,0.04793
1699.22,0.04959
1693.44,0.04889
1687.65,0.04696
1681.87,0.04387
1676.08,0.04162
1670.29,0.03879
1664.51,0.03643
1658.72,0.03663
1652.93,0.03777
1647.15,0.03845
1641.36,0.03889
1635.58,0.03975
1629.79,0.04046
1624,0.04194
1618.22,0.04323
1612.43,0.04496
1606.64,0.04573
1600.86,0.04638
1595.07,0.04761
1589.29,0.04970
1583.5,0.05146
1577.71,0.05391
1571.93,0.05706
1566.14,0.05933
1560.35,0.06016
1554.57,0.05986
1548.78,0.05935
1543,0.05844
1537.21,0.05877
1531.42,0.06028
1525.64,0.06036
1519.85,0.05872
1514.07,0.05672
1508.28,0.05530
1502.49,0.05237
1496.71,0.04937
1490.92,0.04716
1485.13,0.04476
1479.35,0.04198
1473.56,0.03908
1467.78,0.03628
1461.99,0.03484
1456.2,0.03366
1450.42,0.03317
1444.63,0.03412
1438.84,0.03481
1433.06,0.03557
1427.27,0.03699
1421.49,0.03768
1415.7,0.03817
1409.91,0.03843
1404.13,0.03855
1398.34,0.03865
1392.55,0.03906
1386.77,0.03976
1380.98,0.03867
1375.2,0.03791
1369.41,0.04169
1363.62,0.04372
1357.84,0.04525
1352.05,0.04781
1346.26,0.04967
1340.48,0.05100
1334.69,0.05149
1328.91,0.05144
1323.12,0.05095
1317.33,0.05055
1311.55,0.05060
1305.76,0.05108
1299.97,0.05218
1294.19,0.05301
1288.4,0.05297
1282.62,0.05258
1276.83,0.05217
1271.04,0.05058
1265.26,0.04798
1259.47,0.04705
1253.68,0.04652
1247.9,0.04580
1242.11,0.04402
1236.33,0.04367
1230.54,0.04364
1224.75,0.04369
1218.97,0.04350
1213.18,0.04300
1207.39,0.04149
1201.61,0.04087
1195.82,0.04098
1190.04,0.04061
1184.25,0.03970
1178.46,0.03867
1172.68,0.03781
1166.89,0.03665
1161.1,0.03666
1155.32,0.03743
1149.53,0.03796
1143.75,0.03787
1137.96,0.03754
1132.17,0.03772
1126.39,0.03736
1120.6,0.03808
1114.81,0.04002
1109.03,0.04033
1103.24,0.03942
1097.46,0.03759
1091.67,0.03662
1085.88,0.03699
1080.1,0.03864
1074.31,0.04048
1068.52,0.04189
1062.74,0.04254
1056.95,0.04146
1051.17,0.04095
1045.38,0.04041
1039.59,0.04083
1033.81,0.04051
1028.02,0.04137
1022.24,0.04202
1016.45,0.04315
1010.66,0.04364
1004.88,0.04438
999.09,0.04573
993.304,0.04617
987.518,0.04779
981.731,0.04945
975.945,0.04867
970.159,0.04637
964.373,0.04860
958.586,0.05571
952.8,0.06065
947.014,0.06191
941.228,0.06218
935.441,0.06141
929.655,0.06190
923.869,0.06328
918.083,0.06340
912.297,0.06304
906.51,0.06589
900.724,0.07000
894.938,0.06902
889.152,0.06078
883.365,0.04419
877.579,0.03830
871.793,0.04107
866.007,0.05173
860.22,0.05642
854.434,0.05369
848.648,0.04822
842.862,0.04937
837.075,0.04887
831.289,0.04970
825.503,0.05137
819.717,0.05336
813.931,0.05689
808.144,0.05714
802.358,0.05802
796.572,0.05941
790.786,0.06120
784.999,0.06236
779.213,0.06271
773.427,0.06006
767.641,0.05513
761.854,0.05108
756.068,0.05027
750.282,0.05078
744.496,0.05020
738.709,0.04681
732.923,0.04158
727.137,0.03732
721.351,0.03748
715.565,0.03269
709.778,0.03742
703.992,0.04111
698.206,0.04463
692.42,0.05168
686.633,0.05410
680.847,0.05260
675.061,0.05125
669.275,0.05083
663.488,0.05131
657.702,0.04857
651.916,0.04734
646.13,0.04693
640.343,0.04575
634.557,0.04605
628.771,0.04792
622.985,0.04220
617.198,0.04235
611.412,0.04011
605.626,0.03729
599.84,0.03721