File: 01_Data/Rug_Pad/FTIR/IS/Rug_Pad_IS_T_220908_R5.dpt
7497.03,0.03006
7491.25,0.01153
7485.46,0.02678
7479.67,0.02771
7473.89,0.02977
7468.1,0.02820
7462.32,0.02221
7456.53,0.02354
7450.74,0.02609
7444.96,0.02367
7439.17,0.02490
7433.38,0.02854
7427.6,0.02296
7421.81,0.02705
7416.03,0.02056
7410.24,0.02311
7404.45,0.02868
7398.67,0.02978
7392.88,0.02741
7387.09,0.02604
7381.31,0.02091
7375.52,0.02542
7369.74,0.02556
7363.95,0.02436
7358.16,0.02689
7352.38,0.02260
7346.59,0.02528
7340.8,0.02322
7335.02,0.02364
7329.23,0.02564
7323.45,0.02198
7317.66,0.02379
7311.87,0.02496
7306.09,0.01910
7300.3,0.02089
7294.51,0.02986
7288.73,0.03219
7282.94,0.02651
7277.16,0.02467
7271.37,0.02877
7265.58,0.02931
7259.8,0.02222
7254.01,0.02036
7248.22,0.02465
7242.44,0.02511
7236.65,0.02724
7230.87,0.02469
7225.08,0.02834
7219.29,0.02112
7213.51,0.02029
7207.72,0.01528
7201.93,0.02401
7196.15,0.02339
7190.36,0.03013
7184.58,0.02509
7178.79,0.02531
7173,0.02544
7167.22,0.02283
7161.43,0.02618
7155.65,0.02663
7149.86,0.02825
7144.07,0.02268
7138.29,0.02507
7132.5,0.03215
7126.71,0.02441
7120.93,0.01239
7115.14,0.02737
7109.36,0.03086
7103.57,0.02695
7097.78,0.02253
7092,0.02549
7086.21,0.01810
7080.42,0.02560
7074.64,0.02956
7068.85,0.02915
7063.07,0.02906
7057.28,0.02781
7051.49,0.02633
7045.71,0.02528
7039.92,0.02633
7034.13,0.02411
7028.35,0.02731
7022.56,0.02653
7016.78,0.02025
7010.99,0.02509
7005.2,0.02928
6999.42,0.02054
6993.63,0.01817
6987.84,0.02923
6982.06,0.02499
6976.27,0.02233
6970.49,0.02512
6964.7,0.02385
6958.91,0.02491
6953.13,0.02512
6947.34,0.02187
6941.55,0.02569
6935.77,0.02937
6929.98,0.02824
6924.2,0.02164
6918.41,0.01918
6912.62,0.02554
6906.84,0.02415
6901.05,0.02389
6895.26,0.02330
6889.48,0.02652
6883.69,0.02309
6877.91,0.02288
6872.12,0.02203
6866.33,0.02177
6860.55,0.02026
6854.76,0.02920
6848.97,0.02271
6843.19,0.02528
6837.4,0.02478
6831.62,0.02220
6825.83,0.02394
6820.04,0.02359
6814.26,0.02434
6808.47,0.02829
6802.68,0.02520
6796.9,0.02732
6791.11,0.02468
6785.33,0.02106
6779.54,0.02513
6773.75,0.02507
6767.97,0.02854
6762.18,0.02960
6756.39,0.02408
6750.61,0.02306
6744.82,0.02174
6739.04,0.02132
6733.25,0.02472
6727.46,0.02414
6721.68,0.02949
6715.89,0.01995
6710.1,0.02162
6704.32,0.02194
6698.53,0.02239
6692.75,0.02269
6686.96,0.02408
6681.17,0.02513
6675.39,0.02055
6669.6,0.02288
6663.82,0.02530
6658.03,0.01967
6652.24,0.02010
6646.46,0.01999
6640.67,0.02082
6634.88,0.02165
6629.1,0.02483
6623.31,0.02058
6617.53,0.02038
6611.74,0.02392
6605.95,0.02743
6600.17,0.02729
6594.38,0.02269
6588.59,0.02112
6582.81,0.01942
6577.02,0.02479
6571.24,0.02206
6565.45,0.02349
6559.66,0.02373
6553.88,0.02274
6548.09,0.01571
6542.3,0.02468
6536.52,0.02527
6530.73,0.02115
6524.95,0.02065
6519.16,0.02370
6513.37,0.02714
6507.59,0.02179
6501.8,0.02074
6496.01,0.02161
6490.23,0.02302
6484.44,0.01978
6478.66,0.02310
6472.87,0.02437
6467.08,0.02244
6461.3,0.02078
6455.51,0.02249
6449.72,0.02073
6443.94,0.02406
6438.15,0.02346
6432.37,0.01972
6426.58,0.02308
6420.79,0.01507
6415.01,0.02092
6409.22,0.02026
6403.43,0.02051
6397.65,0.02466
6391.86,0.02094
6386.08,0.02133
6380.29,0.02546
6374.5,0.02272
6368.72,0.02116
6362.93,0.02390
6357.14,0.02446
6351.36,0.02414
6345.57,0.02554
6339.79,0.02234
6334,0.02265
6328.21,0.02219
6322.43,0.02317
6316.64,0.01973
6310.85,0.02371
6305.07,0.02364
6299.28,0.02079
6293.5,0.02082
6287.71,0.02133
6281.92,0.02723
6276.14,0.02477
6270.35,0.02481
6264.56,0.01900
6258.78,0.01724
6252.99,0.02235
6247.21,0.02333
6241.42,0.02204
6235.63,0.02251
6229.85,0.02410
6224.06,0.02018
6218.27,0.01939
6212.49,0.02191
6206.7,0.02142
6200.92,0.02175
6195.13,0.02368
6189.34,0.02356
6183.56,0.02343
6177.77,0.02429
6171.98,0.01952
6166.2,0.02102
6160.41,0.02117
6154.63,0.02224
6148.84,0.01810
6143.05,0.02158
6137.27,0.02288
6131.48,0.02433
6125.7,0.02096
6119.91,0.02197
6114.12,0.02584
6108.34,0.02464
6102.55,0.02286
6096.76,0.02141
6090.98,0.02017
6085.19,0.02388
6079.41,0.02462
6073.62,0.02135
6067.83,0.02301
6062.05,0.01995
6056.26,0.02058
6050.47,0.02092
6044.69,0.02208
6038.9,0.01819
6033.12,0.02240
6027.33,0.02415
6021.54,0.02341
6015.76,0.01866
6009.97,0.02067
6004.18,0.02087
5998.4,0.01836
5992.61,0.01898
5986.83,0.02054
5981.04,0.02266
5975.25,0.02211
5969.47,0.02530
5963.68,0.02055
5957.89,0.02448
5952.11,0.02177
5946.32,0.02335
5940.54,0.02314
5934.75,0.02160
5928.96,0.02326
5923.18,0.02205
5917.39,0.01813
5911.6,0.02269
5905.82,0.01999
5900.03,0.02148
5894.25,0.02269
5888.46,0.02258
5882.67,0.02445
5876.89,0.02054
5871.1,0.02071
5865.31,0.02273
5859.53,0.02201
5853.74,0.02249
5847.96,0.01964
5842.17,0.02260
5836.38,0.02343
5830.6,0.02209
5824.81,0.02316
5819.02,0.02518
5813.24,0.02456
5807.45,0.02465
5801.67,0.02403
5795.88,0.02251
5790.09,0.02199
5784.31,0.02235
5778.52,0.02287
5772.73,0.02076
5766.95,0.02320
5761.16,0.02263
5755.38,0.02491
5749.59,0.02199
5743.8,0.02184
5738.02,0.02150
5732.23,0.02297
5726.44,0.02046
5720.66,0.02189
5714.87,0.02174
5709.09,0.02119
5703.3,0.02171
5697.51,0.02202
5691.73,0.02313
5685.94,0.02424
5680.15,0.02350
5674.37,0.02396
5668.58,0.02136
5662.8,0.02368
5657.01,0.02114
5651.22,0.02231
5645.44,0.02184
5639.65,0.02225
5633.87,0.02232
5628.08,0.02306
5622.29,0.02222
5616.51,0.02019
5610.72,0.02376
5604.93,0.02178
5599.15,0.02160
5593.36,0.02349
5587.58,0.02224
5581.79,0.02105
5576,0.02069
5570.22,0.02330
5564.43,0.02164
5558.64,0.02168
5552.86,0.02208
5547.07,0.02218
5541.29,0.02351
5535.5,0.02268
5529.71,0.02216
5523.93,0.02359
5518.14,0.02222
5512.35,0.02143
5506.57,0.02078
5500.78,0.02291
5495,0.02347
5489.21,0.02222
5483.42,0.02338
5477.64,0.02259
5471.85,0.02256
5466.06,0.02299
5460.28,0.02246
5454.49,0.02408
5448.71,0.02397
5442.92,0.02256
5437.13,0.02377
5431.35,0.02118
5425.56,0.02401
5419.77,0.02250
5413.99,0.02228
5408.2,0.02550
5402.42,0.02238
5396.63,0.02160
5390.84,0.02337
5385.06,0.02248
5379.27,0.02258
5373.48,0.02202
5367.7,0.02286
5361.91,0.02312
5356.13,0.02190
5350.34,0.02139
5344.55,0.02334
5338.77,0.02058
5332.98,0.02170
5327.19,0.02353
5321.41,0.02378
5315.62,0.02264
5309.84,0.02214
5304.05,0.02267
5298.26,0.02234
5292.48,0.02213
5286.69,0.02317
5280.9,0.02206
5275.12,0.02223
5269.33,0.02263
5263.55,0.02087
5257.76,0.02254
5251.97,0.02345
5246.19,0.02350
5240.4,0.02351
5234.61,0.02362
5228.83,0.02177
5223.04,0.02288
5217.26,0.02181
5211.47,0.02307
5205.68,0.02172
5199.9,0.02225
5194.11,0.02271
5188.32,0.02286
5182.54,0.02282
5176.75,0.02180
5170.97,0.02217
5165.18,0.02183
5159.39,0.02129
5153.61,0.02193
5147.82,0.02299
5142.03,0.02289
5136.25,0.02173
5130.46,0.02172
5124.68,0.02144
5118.89,0.02163
5113.1,0.02163
5107.32,0.02246
5101.53,0.02331
5095.75,0.02281
5089.96,0.02275
5084.17,0.02284
5078.39,0.02219
5072.6,0.02304
5066.81,0.02203
5061.03,0.02290
5055.24,0.02312
5049.46,0.02295
5043.67,0.02244
5037.88,0.02222
5032.1,0.02211
5026.31,0.02231
5020.52,0.02250
5014.74,0.02248
5008.95,0.02212
5003.17,0.02288
4997.38,0.02228
4991.59,0.02253
4985.81,0.02328
4980.02,0.02337
4974.23,0.02230
4968.45,0.02245
4962.66,0.02207
4956.88,0.02370
4951.09,0.02315
4945.3,0.02292
4939.52,0.02345
4933.73,0.02299
4927.94,0.02306
4922.16,0.02307
4916.37,0.02181
4910.59,0.02255
4904.8,0.02265
4899.01,0.02191
4893.23,0.02193
4887.44,0.02238
4881.65,0.02188
4875.87,0.02283
4870.08,0.02305
4864.3,0.02237
4858.51,0.02201
4852.72,0.02343
4846.94,0.02333
4841.15,0.02236
4835.36,0.02277
4829.58,0.02294
4823.79,0.02116
4818.01,0.02234
4812.22,0.02258
4806.43,0.02209
4800.65,0.02315
4794.86,0.02248
4789.07,0.02327
4783.29,0.02306
4777.5,0.02214
4771.72,0.02266
4765.93,0.02299
4760.14,0.02267
4754.36,0.02312
4748.57,0.02272
4742.78,0.02331
4737,0.02288
4731.21,0.02227
4725.43,0.02262
4719.64,0.02286
4713.85,0.02227
4708.07,0.02171
4702.28,0.02171
4696.49,0.02272
4690.71,0.02282
4684.92,0.02263
4679.14,0.02351
4673.35,0.02305
4667.56,0.02238
4661.78,0.02314
4655.99,0.02288
4650.2,0.02282
4644.42,0.02284
4638.63,0.02221
4632.85,0.02272
4627.06,0.02335
4621.27,0.02271
4615.49,0.02240
4609.7,0.02214
4603.92,0.02242
4598.13,0.02167
4592.34,0.02345
4586.56,0.02293
4580.77,0.02358
4574.98,0.02217
4569.2,0.02164
4563.41,0.02236
4557.63,0.02295
4551.84,0.02310
4546.05,0.02277
4540.27,0.02240
4534.48,0.02190
4528.69,0.02205
4522.91,0.02306
4517.12,0.02301
4511.34,0.02255
4505.55,0.02275
4499.76,0.02267
4493.98,0.02270
4488.19,0.02214
4482.4,0.02227
4476.62,0.02209
4470.83,0.02277
4465.05,0.02238
4459.26,0.02283
4453.47,0.02267
4447.69,0.02252
4441.9,0.02240
4436.11,0.02327
4430.33,0.02320
4424.54,0.02328
4418.76,0.02280
4412.97,0.02312
4407.18,0.02193
4401.4,0.02308
4395.61,0.02378
4389.82,0.02219
4384.04,0.02219
4378.25,0.02236
4372.47,0.02234
4366.68,0.02196
4360.89,0.02280
4355.11,0.02275
4349.32,0.02323
4343.53,0.02231
4337.75,0.02286
4331.96,0.02284
4326.18,0.02223
4320.39,0.02249
4314.6,0.02232
4308.82,0.02215
4303.03,0.02271
4297.24,0.02283
4291.46,0.02254
4285.67,0.02293
4279.89,0.02321
4274.1,0.02292
4268.31,0.02295
4262.53,0.02257
4256.74,0.02351
4250.95,0.02290
4245.17,0.02225
4239.38,0.02217
4233.6,0.02286
4227.81,0.02202
4222.02,0.02300
4216.24,0.02354
4210.45,0.02349
4204.66,0.02283
4198.88,0.02361
4193.09,0.02378
4187.31,0.02257
4181.52,0.02239
4175.73,0.02300
4169.95,0.02306
4164.16,0.02360
4158.37,0.02332
4152.59,0.02296
4146.8,0.02273
4141.02,0.02259
4135.23,0.02332
4129.44,0.02268
4123.66,0.02300
4117.87,0.02227
4112.09,0.02256
4106.3,0.02316
4100.51,0.02310
4094.73,0.02197
4088.94,0.02279
4083.15,0.02346
4077.37,0.02323
4071.58,0.02290
4065.8,0.02319
4060.01,0.02284
4054.22,0.02246
4048.44,0.02291
4042.65,0.02337
4036.86,0.02220
4031.08,0.02297
4025.29,0.02309
4019.51,0.02332
4013.72,0.02284
4007.93,0.02321
4002.15,0.02285
3996.36,0.02262
3990.57,0.02259
3984.79,0.02245
3979,0.02348
3973.22,0.02406
3967.43,0.02298
3961.64,0.02312
3955.86,0.02307
3950.07,0.02219
3944.28,0.02266
3938.5,0.02282
3932.71,0.02313
3926.93,0.02241
3921.14,0.02273
3915.35,0.02268
3909.57,0.02254
3903.78,0.02330
3897.99,0.02319
3892.21,0.02351
3886.42,0.02276
3880.64,0.02357
3874.85,0.02204
3869.06,0.02294
3863.28,0.02337
3857.49,0.02338
3851.7,0.02232
3845.92,0.02326
3840.13,0.02337
3834.35,0.02316
3828.56,0.02277
3822.77,0.02391
3816.99,0.02376
3811.2,0.02347
3805.41,0.02278
3799.63,0.02263
3793.84,0.02275
3788.06,0.02342
3782.27,0.02304
3776.48,0.02229
3770.7,0.02352
3764.91,0.02305
3759.12,0.02316
3753.34,0.02314
3747.55,0.02330
3741.77,0.02249
3735.98,0.02270
3730.19,0.02254
3724.41,0.02214
3718.62,0.02267
3712.83,0.02275
3707.05,0.02223
3701.26,0.02243
3695.48,0.02267
3689.69,0.02275
3683.9,0.02252
3678.12,0.02202
3672.33,0.02234
3666.54,0.02276
3660.76,0.02310
3654.97,0.02213
3649.19,0.02187
3643.4,0.02200
3637.61,0.02244
3631.83,0.02252
3626.04,0.02261
3620.25,0.02257
3614.47,0.02186
3608.68,0.02239
3602.9,0.02254
3597.11,0.02211
3591.32,0.02246
3585.54,0.02220
3579.75,0.02163
3573.97,0.02198
3568.18,0.02190
3562.39,0.02088
3556.61,0.02161
3550.82,0.02184
3545.03,0.02165
3539.25,0.02157
3533.46,0.02201
3527.68,0.02114
3521.89,0.02156
3516.1,0.02116
3510.32,0.02101
3504.53,0.02169
3498.74,0.02166
3492.96,0.02071
3487.17,0.02094
3481.39,0.02095
3475.6,0.02161
3469.81,0.02097
3464.03,0.02115
3458.24,0.02173
3452.45,0.02122
3446.67,0.02091
3440.88,0.02096
3435.1,0.02172
3429.31,0.02128
3423.52,0.02013
3417.74,0.02087
3411.95,0.02037
3406.16,0.02115
3400.38,0.02118
3394.59,0.02094
3388.81,0.02075
3383.02,0.02074
3377.23,0.02039
3371.45,0.02098
3365.66,0.02058
3359.87,0.02024
3354.09,0.02093
3348.3,0.02080
3342.52,0.02032
3336.73,0.02042
3330.94,0.02012
3325.16,0.02034
3319.37,0.02118
3313.58,0.01998
3307.8,0.02034
3302.01,0.02035
3296.23,0.02052
3290.44,0.02134
3284.65,0.02049
3278.87,0.02057
3273.08,0.01996
3267.29,0.02036
3261.51,0.02039
3255.72,0.02065
3249.94,0.02134
3244.15,0.02079
3238.36,0.02018
3232.58,0.02102
3226.79,0.02092
3221,0.02038
3215.22,0.02051
3209.43,0.02082
3203.65,0.02070
3197.86,0.02131
3192.07,0.02147
3186.29,0.02115
3180.5,0.02134
3174.71,0.02151
3168.93,0.02113
3163.14,0.02076
3157.36,0.02157
3151.57,0.02179
3145.78,0.02142
3140,0.02170
3134.21,0.02101
3128.42,0.02127
3122.64,0.02113
3116.85,0.02104
3111.07,0.02061
3105.28,0.02152
3099.49,0.02106
3093.71,0.02112
3087.92,0.02165
3082.14,0.02126
3076.35,0.02116
3070.56,0.02085
3064.78,0.02086
3058.99,0.02101
3053.2,0.02095
3047.42,0.02083
3041.63,0.02100
3035.85,0.02077
3030.06,0.02139
3024.27,0.02084
3018.49,0.02071
3012.7,0.02034
3006.91,0.02051
3001.13,0.02063
2995.34,0.02035
2989.56,0.02064
2983.77,0.02024
2977.98,0.02036
2972.2,0.01967
2966.41,0.01988
2960.62,0.01981
2954.84,0.01980
2949.05,0.01980
2943.27,0.01998
2937.48,0.01995
2931.69,0.01938
2925.91,0.01996
2920.12,0.02115
2914.33,0.02093
2908.55,0.02087
2902.76,0.02070
2896.98,0.02081
2891.19,0.02090
2885.4,0.02083
2879.62,0.02075
2873.83,0.02043
2868.04,0.02067
2862.26,0.02099
2856.47,0.02074
2850.69,0.02119
2844.9,0.02145
2839.11,0.02189
2833.33,0.02185
2827.54,0.02139
2821.75,0.02175
2815.97,0.02122
2810.18,0.02136
2804.4,0.02154
2798.61,0.02168
2792.82,0.02147
2787.04,0.02146
2781.25,0.02167
2775.46,0.02184
2769.68,0.02149
2763.89,0.02170
2758.11,0.02200
2752.32,0.02112
2746.53,0.02138
2740.75,0.02162
2734.96,0.02218
2729.17,0.02144
2723.39,0.02165
2717.6,0.02145
2711.82,0.02163
2706.03,0.02135
2700.24,0.02152
2694.46,0.02157
2688.67,0.02134
2682.88,0.02147
2677.1,0.02178
2671.31,0.02120
2665.53,0.02206
2659.74,0.02183
2653.95,0.02182
2648.17,0.02115
2642.38,0.02145
2636.59,0.02198
2630.81,0.02162
2625.02,0.02140
2619.24,0.02162
2613.45,0.02172
2607.66,0.02162
2601.88,0.02153
2596.09,0.02185
2590.3,0.02194
2584.52,0.02169
2578.73,0.02128
2572.95,0.02171
2567.16,0.02159
2561.37,0.02197
2555.59,0.02133
2549.8,0.02150
2544.02,0.02187
2538.23,0.02136
2532.44,0.02148
2526.66,0.02152
2520.87,0.02146
2515.08,0.02193
2509.3,0.02147
2503.51,0.02167
2497.73,0.02137
2491.94,0.02188
2486.15,0.02190
2480.37,0.02139
2474.58,0.02140
2468.79,0.02178
2463.01,0.02162
2457.22,0.02145
2451.44,0.02178
2445.65,0.02157
2439.86,0.02165
2434.08,0.02139
2428.29,0.02153
2422.5,0.02200
2416.72,0.02178
2410.93,0.02132
2405.15,0.02201
2399.36,0.02173
2393.57,0.02166
2387.79,0.02150
2382,0.02158
2376.21,0.02126
2370.43,0.02129
2364.64,0.02160
2358.86,0.02179
2353.07,0.02162
2347.28,0.02206
2341.5,0.02128
2335.71,0.02169
2329.92,0.02178
2324.14,0.02145
2318.35,0.02167
2312.57,0.02174
2306.78,0.02180
2300.99,0.02166
2295.21,0.02168
2289.42,0.02122
2283.63,0.02124
2277.85,0.02125
2272.06,0.02165
2266.28,0.02159
2260.49,0.02168
2254.7,0.02166
2248.92,0.02111
2243.13,0.02129
2237.34,0.02129
2231.56,0.02144
2225.77,0.02156
2219.99,0.02123
2214.2,0.02182
2208.41,0.02166
2202.63,0.02133
2196.84,0.02119
2191.05,0.02132
2185.27,0.02101
2179.48,0.02141
2173.7,0.02139
2167.91,0.02140
2162.12,0.02114
2156.34,0.02129
2150.55,0.02130
2144.76,0.02113
2138.98,0.02151
2133.19,0.02148
2127.41,0.02146
2121.62,0.02131
2115.83,0.02135
2110.05,0.02148
2104.26,0.02129
2098.47,0.02119
2092.69,0.02146
2086.9,0.02113
2081.12,0.02120
2075.33,0.02144
2069.54,0.02123
2063.76,0.02161
2057.97,0.02147
2052.19,0.02143
2046.4,0.02134
2040.61,0.02110
2034.83,0.02164
2029.04,0.02119
2023.25,0.02115
2017.47,0.02102
2011.68,0.02116
2005.9,0.02131
2000.11,0.02129
1994.32,0.02159
1988.54,0.02141
1982.75,0.02132
1976.96,0.02121
1971.18,0.02105
1965.39,0.02106
1959.61,0.02118
1953.82,0.02100
1948.03,0.02090
1942.25,0.02103
1936.46,0.02130
1930.67,0.02104
1924.89,0.02122
1919.1,0.02112
1913.32,0.02099
1907.53,0.02090
1901.74,0.02121
1895.96,0.02128
1890.17,0.02075
1884.38,0.02066
1878.6,0.02098
1872.81,0.02070
1867.03,0.02079
1861.24,0.02090
1855.45,0.02078
1849.67,0.02083
1843.88,0.02095
1838.09,0.02041
1832.31,0.02048
1826.52,0.02055
1820.74,0.02030
1814.95,0.02039
1809.16,0.02010
1803.38,0.02006
1797.59,0.01963
1791.8,0.01983
1786.02,0.01961
1780.23,0.01934
1774.45,0.01919
1768.66,0.01879
1762.87,0.01873
1757.09,0.01801
1751.3,0.01747
1745.51,0.01826
1739.73,0.01914
1733.94,0.02018
1728.16,0.02061
1722.37,0.02139
1716.58,0.02125
1710.8,0.02097
1705.01,0.02051
1699.22,0.02029
1693.44,0.01989
1687.65,0.01973
1681.87,0.01935
1676.08,0.01910
1670.29,0.01925
1664.51,0.01898
1658.72,0.01903
1652.93,0.01950
1647.15,0.01907
1641.36,0.01877
1635.58,0.01888
1629.79,0.01879
1624,0.01941
1618.22,0.01937
1612.43,0.01940
1606.64,0.01923
1600.86,0.01908
1595.07,0.01899
1589.29,0.01879
1583.5,0.01870
1577.71,0.01915
1571.93,0.01870
1566.14,0.01892
1560.35,0.01864
1554.57,0.01831
1548.78,0.01857
1543,0.01894
1537.21,0.01855
1531.42,0.01855
1525.64,0.01902
1519.85,0.01872
1514.07,0.01915
1508.28,0.01893
1502.49,0.01917
1496.71,0.01902
1490.92,0.01869
1485.13,0.01900
1479.35,0.01852
1473.56,0.01917
1467.78,0.01879
1461.99,0.01837
1456.2,0.01880
1450.42,0.01907
1444.63,0.01874
1438.84,0.01903
1433.06,0.01891
1427.27,0.01879
1421.49,0.01911
1415.7,0.01899
1409.91,0.01863
1404.13,0.01864
1398.34,0.01882
1392.55,0.01826
1386.77,0.01849
1380.98,0.01828
1375.2,0.01865
1369.41,0.01859
1363.62,0.01830
1357.84,0.01837
1352.05,0.01825
1346.26,0.01824
1340.48,0.01827
1334.69,0.01797
1328.91,0.01771
1323.12,0.01760
1317.33,0.01688
1311.55,0.01728
1305.76,0.01782
1299.97,0.01809
1294.19,0.01827
1288.4,0.01895
1282.62,0.01908
1276.83,0.01947
1271.04,0.01982
1265.26,0.02026
1259.47,0.02018
1253.68,0.02058
1247.9,0.02050
1242.11,0.02061
1236.33,0.02061
1230.54,0.02013
1224.75,0.01992
1218.97,0.01977
1213.18,0.01935
1207.39,0.01939
1201.61,0.01832
1195.82,0.01863
1190.04,0.01839
1184.25,0.01828
1178.46,0.01837
1172.68,0.01816
1166.89,0.01838
1161.1,0.01785
1155.32,0.01777
1149.53,0.01759
1143.75,0.01800
1137.96,0.01852
1132.17,0.01837
1126.39,0.01830
1120.6,0.01899
1114.81,0.01925
1109.03,0.01965
1103.24,0.01850
1097.46,0.01827
1091.67,0.01829
1085.88,0.01889
1080.1,0.01782
1074.31,0.01999
1068.52,0.01974
1062.74,0.01989
1056.95,0.02000
1051.17,0.02001
1045.38,0.01976
1039.59,0.01987
1033.81,0.02013
1028.02,0.01944
1022.24,0.01953
1016.45,0.01922
1010.66,0.02015
1004.88,0.02083
999.09,0.02089
993.304,0.02118
987.518,0.02095
981.731,0.02071
975.945,0.02063
970.159,0.02079
964.373,0.02078
958.586,0.02012
952.8,0.01979
947.014,0.02012
941.228,0.02020
935.441,0.01936
929.655,0.01926
923.869,0.01987
918.083,0.01990
912.297,0.01918
906.51,0.01938
900.724,0.01976
894.938,0.01973
889.152,0.01925
883.365,0.01912
877.579,0.02013
871.793,0.01948
866.007,0.01913
860.22,0.01984
854.434,0.01966
848.648,0.01938
842.862,0.01978
837.075,0.01906
831.289,0.01902
825.503,0.01929
819.717,0.01918
813.931,0.01941
808.144,0.01904
802.358,0.01952
796.572,0.01919
790.786,0.01868
784.999,0.01931
779.213,0.01920
773.427,0.01833
767.641,0.01887
761.854,0.01770
756.068,0.01761
750.282,0.01783
744.496,0.01812
738.709,0.01843
732.923,0.01839
727.137,0.01828
721.351,0.01931
715.565,0.01867
709.778,0.01868
703.992,0.01833
698.206,0.01780
692.42,0.01826
686.633,0.01750
680.847,0.01702
675.061,0.01699
669.275,0.01716
663.488,0.01578
657.702,0.01826
651.916,0.01730
646.13,0.01578
640.343,0.01458
634.557,0.01606
628.771,0.01394
622.985,0.01661
617.198,0.01603
611.412,0.01561
605.626,0.01497
599.84,0.01538