File: 01_Data/Rug_Pad/FTIR/IS/Rug_Pad_IS_S_220908_R4.dpt
7497.03,0.50990
7491.25,0.50246
7485.46,0.49556
7479.67,0.50347
7473.89,0.49952
7468.1,0.50107
7462.32,0.49902
7456.53,0.49872
7450.74,0.50424
7444.96,0.50249
7439.17,0.50170
7433.38,0.50252
7427.6,0.49825
7421.81,0.50219
7416.03,0.49997
7410.24,0.50407
7404.45,0.50407
7398.67,0.50043
7392.88,0.49649
7387.09,0.49370
7381.31,0.49273
7375.52,0.50811
7369.74,0.50079
7363.95,0.49752
7358.16,0.48770
7352.38,0.49379
7346.59,0.49525
7340.8,0.50164
7335.02,0.48916
7329.23,0.49579
7323.45,0.49865
7317.66,0.49008
7311.87,0.47928
7306.09,0.48891
7300.3,0.49227
7294.51,0.48474
7288.73,0.48501
7282.94,0.48444
7277.16,0.47973
7271.37,0.48480
7265.58,0.48187
7259.8,0.49327
7254.01,0.48856
7248.22,0.48330
7242.44,0.47982
7236.65,0.47789
7230.87,0.47324
7225.08,0.47671
7219.29,0.47131
7213.51,0.47154
7207.72,0.47438
7201.93,0.46915
7196.15,0.47005
7190.36,0.47141
7184.58,0.46907
7178.79,0.46536
7173,0.46745
7167.22,0.46885
7161.43,0.46837
7155.65,0.47298
7149.86,0.47418
7144.07,0.46585
7138.29,0.47560
7132.5,0.47646
7126.71,0.47122
7120.93,0.47506
7115.14,0.47413
7109.36,0.47491
7103.57,0.47102
7097.78,0.46973
7092,0.46535
7086.21,0.46930
7080.42,0.47598
7074.64,0.47497
7068.85,0.47379
7063.07,0.46966
7057.28,0.46802
7051.49,0.46649
7045.71,0.46155
7039.92,0.46316
7034.13,0.46946
7028.35,0.46855
7022.56,0.46176
7016.78,0.46819
7010.99,0.47036
7005.2,0.46731
6999.42,0.47087
6993.63,0.47275
6987.84,0.47191
6982.06,0.47020
6976.27,0.46566
6970.49,0.47295
6964.7,0.47216
6958.91,0.46832
6953.13,0.46860
6947.34,0.47090
6941.55,0.47027
6935.77,0.46752
6929.98,0.47419
6924.2,0.47123
6918.41,0.46421
6912.62,0.47082
6906.84,0.46859
6901.05,0.47110
6895.26,0.47427
6889.48,0.46926
6883.69,0.47408
6877.91,0.46953
6872.12,0.47108
6866.33,0.46855
6860.55,0.47214
6854.76,0.47306
6848.97,0.46941
6843.19,0.47400
6837.4,0.47737
6831.62,0.47600
6825.83,0.47955
6820.04,0.48033
6814.26,0.47621
6808.47,0.47980
6802.68,0.47799
6796.9,0.47881
6791.11,0.47970
6785.33,0.47936
6779.54,0.47866
6773.75,0.47598
6767.97,0.48131
6762.18,0.48040
6756.39,0.48405
6750.61,0.48060
6744.82,0.48308
6739.04,0.48158
6733.25,0.47732
6727.46,0.48126
6721.68,0.47868
6715.89,0.48207
6710.1,0.48254
6704.32,0.48714
6698.53,0.49084
6692.75,0.48204
6686.96,0.48392
6681.17,0.48389
6675.39,0.48359
6669.6,0.48125
6663.82,0.48312
6658.03,0.48396
6652.24,0.48833
6646.46,0.48743
6640.67,0.49053
6634.88,0.48882
6629.1,0.49292
6623.31,0.48907
6617.53,0.48720
6611.74,0.48578
6605.95,0.48621
6600.17,0.48559
6594.38,0.49075
6588.59,0.48769
6582.81,0.48569
6577.02,0.48882
6571.24,0.49229
6565.45,0.49065
6559.66,0.49186
6553.88,0.49108
6548.09,0.49129
6542.3,0.49391
6536.52,0.49558
6530.73,0.49949
6524.95,0.49347
6519.16,0.49264
6513.37,0.49534
6507.59,0.49252
6501.8,0.49630
6496.01,0.48956
6490.23,0.49065
6484.44,0.49175
6478.66,0.49154
6472.87,0.49189
6467.08,0.49217
6461.3,0.49045
6455.51,0.48953
6449.72,0.49330
6443.94,0.49728
6438.15,0.49475
6432.37,0.49718
6426.58,0.49319
6420.79,0.49440
6415.01,0.49816
6409.22,0.49557
6403.43,0.49045
6397.65,0.49608
6391.86,0.49606
6386.08,0.49894
6380.29,0.49369
6374.5,0.49087
6368.72,0.49434
6362.93,0.49226
6357.14,0.49712
6351.36,0.48934
6345.57,0.49508
6339.79,0.49611
6334,0.49866
6328.21,0.49573
6322.43,0.49115
6316.64,0.49595
6310.85,0.49648
6305.07,0.49583
6299.28,0.49480
6293.5,0.49529
6287.71,0.49781
6281.92,0.49510
6276.14,0.49599
6270.35,0.49761
6264.56,0.49704
6258.78,0.49391
6252.99,0.49242
6247.21,0.49571
6241.42,0.49513
6235.63,0.49241
6229.85,0.49566
6224.06,0.49577
6218.27,0.49622
6212.49,0.49401
6206.7,0.49728
6200.92,0.49386
6195.13,0.49637
6189.34,0.49329
6183.56,0.49690
6177.77,0.49731
6171.98,0.49498
6166.2,0.49399
6160.41,0.49301
6154.63,0.49436
6148.84,0.49235
6143.05,0.49220
6137.27,0.49104
6131.48,0.49228
6125.7,0.49186
6119.91,0.49027
6114.12,0.48689
6108.34,0.48577
6102.55,0.48765
6096.76,0.48530
6090.98,0.48546
6085.19,0.48767
6079.41,0.48613
6073.62,0.48407
6067.83,0.48727
6062.05,0.48397
6056.26,0.48345
6050.47,0.48234
6044.69,0.47969
6038.9,0.48155
6033.12,0.47859
6027.33,0.47809
6021.54,0.47497
6015.76,0.47261
6009.97,0.47113
6004.18,0.47155
5998.4,0.46779
5992.61,0.46942
5986.83,0.46602
5981.04,0.46413
5975.25,0.46206
5969.47,0.45842
5963.68,0.45467
5957.89,0.45240
5952.11,0.45010
5946.32,0.45126
5940.54,0.44544
5934.75,0.44109
5928.96,0.44013
5923.18,0.43321
5917.39,0.42712
5911.6,0.42020
5905.82,0.41207
5900.03,0.40527
5894.25,0.39567
5888.46,0.38606
5882.67,0.38634
5876.89,0.38641
5871.1,0.38793
5865.31,0.38502
5859.53,0.38153
5853.74,0.37297
5847.96,0.36492
5842.17,0.35769
5836.38,0.35137
5830.6,0.34813
5824.81,0.34862
5819.02,0.35066
5813.24,0.35180
5807.45,0.35415
5801.67,0.35875
5795.88,0.36006
5790.09,0.36377
5784.31,0.36819
5778.52,0.37229
5772.73,0.37734
5766.95,0.38133
5761.16,0.38302
5755.38,0.38253
5749.59,0.38240
5743.8,0.38532
5738.02,0.38377
5732.23,0.38209
5726.44,0.38488
5720.66,0.38250
5714.87,0.37963
5709.09,0.38051
5703.3,0.38211
5697.51,0.38234
5691.73,0.38179
5685.94,0.38173
5680.15,0.38149
5674.37,0.38184
5668.58,0.38457
5662.8,0.38730
5657.01,0.38876
5651.22,0.39380
5645.44,0.39383
5639.65,0.39085
5633.87,0.38999
5628.08,0.38881
5622.29,0.38816
5616.51,0.38898
5610.72,0.39081
5604.93,0.39796
5599.15,0.40381
5593.36,0.40926
5587.58,0.41651
5581.79,0.42109
5576,0.42500
5570.22,0.42852
5564.43,0.43177
5558.64,0.43431
5552.86,0.43400
5547.07,0.43622
5541.29,0.44005
5535.5,0.44052
5529.71,0.44200
5523.93,0.44311
5518.14,0.44186
5512.35,0.44439
5506.57,0.44619
5500.78,0.44526
5495,0.44518
5489.21,0.44698
5483.42,0.44881
5477.64,0.44708
5471.85,0.44785
5466.06,0.44707
5460.28,0.44865
5454.49,0.44777
5448.71,0.44653
5442.92,0.44852
5437.13,0.44762
5431.35,0.44774
5425.56,0.44743
5419.77,0.44779
5413.99,0.44819
5408.2,0.44729
5402.42,0.44918
5396.63,0.44690
5390.84,0.44809
5385.06,0.44787
5379.27,0.45006
5373.48,0.44878
5367.7,0.44792
5361.91,0.44763
5356.13,0.44962
5350.34,0.45012
5344.55,0.44961
5338.77,0.44859
5332.98,0.44751
5327.19,0.44675
5321.41,0.44757
5315.62,0.44698
5309.84,0.44650
5304.05,0.44857
5298.26,0.44953
5292.48,0.44982
5286.69,0.44950
5280.9,0.44773
5275.12,0.44758
5269.33,0.44593
5263.55,0.44465
5257.76,0.44301
5251.97,0.44093
5246.19,0.44000
5240.4,0.43860
5234.61,0.43679
5228.83,0.43473
5223.04,0.43456
5217.26,0.43418
5211.47,0.43192
5205.68,0.43005
5199.9,0.43117
5194.11,0.43080
5188.32,0.42908
5182.54,0.42804
5176.75,0.42965
5170.97,0.42969
5165.18,0.42933
5159.39,0.42998
5153.61,0.43094
5147.82,0.43100
5142.03,0.43084
5136.25,0.43117
5130.46,0.43322
5124.68,0.43390
5118.89,0.43370
5113.1,0.43285
5107.32,0.43308
5101.53,0.43571
5095.75,0.43535
5089.96,0.43597
5084.17,0.43475
5078.39,0.43575
5072.6,0.43700
5066.81,0.43559
5061.03,0.43856
5055.24,0.43827
5049.46,0.43766
5043.67,0.43793
5037.88,0.43831
5032.1,0.43838
5026.31,0.43910
5020.52,0.43873
5014.74,0.43891
5008.95,0.43814
5003.17,0.43926
4997.38,0.43859
4991.59,0.43845
4985.81,0.43758
4980.02,0.43755
4974.23,0.43614
4968.45,0.43618
4962.66,0.43581
4956.88,0.43512
4951.09,0.43266
4945.3,0.43316
4939.52,0.43217
4933.73,0.43249
4927.94,0.43137
4922.16,0.43086
4916.37,0.43054
4910.59,0.42996
4904.8,0.42953
4899.01,0.42823
4893.23,0.42841
4887.44,0.42877
4881.65,0.42680
4875.87,0.42671
4870.08,0.42617
4864.3,0.42585
4858.51,0.42534
4852.72,0.42537
4846.94,0.42496
4841.15,0.42484
4835.36,0.42429
4829.58,0.42349
4823.79,0.42304
4818.01,0.42310
4812.22,0.42305
4806.43,0.42153
4800.65,0.42174
4794.86,0.42003
4789.07,0.41958
4783.29,0.41837
4777.5,0.41815
4771.72,0.41742
4765.93,0.41711
4760.14,0.41614
4754.36,0.41577
4748.57,0.41596
4742.78,0.41513
4737,0.41415
4731.21,0.41381
4725.43,0.41098
4719.64,0.40803
4713.85,0.40516
4708.07,0.40405
4702.28,0.40283
4696.49,0.40211
4690.71,0.40252
4684.92,0.40287
4679.14,0.40251
4673.35,0.40034
4667.56,0.39892
4661.78,0.39861
4655.99,0.39566
4650.2,0.39309
4644.42,0.39094
4638.63,0.38647
4632.85,0.38215
4627.06,0.38093
4621.27,0.38307
4615.49,0.38320
4609.7,0.38247
4603.92,0.38276
4598.13,0.38393
4592.34,0.38464
4586.56,0.38652
4580.77,0.38732
4574.98,0.38793
4569.2,0.38976
4563.41,0.39228
4557.63,0.39316
4551.84,0.39346
4546.05,0.39325
4540.27,0.39244
4534.48,0.38967
4528.69,0.38651
4522.91,0.38437
4517.12,0.38387
4511.34,0.38519
4505.55,0.38507
4499.76,0.38556
4493.98,0.38475
4488.19,0.38208
4482.4,0.37951
4476.62,0.37619
4470.83,0.37469
4465.05,0.37144
4459.26,0.36670
4453.47,0.36084
4447.69,0.35427
4441.9,0.34747
4436.11,0.33995
4430.33,0.33062
4424.54,0.32057
4418.76,0.30907
4412.97,0.29834
4407.18,0.28819
4401.4,0.28018
4395.61,0.27425
4389.82,0.26886
4384.04,0.26349
4378.25,0.25747
4372.47,0.25258
4366.68,0.24684
4360.89,0.24105
4355.11,0.23690
4349.32,0.23351
4343.53,0.22818
4337.75,0.22471
4331.96,0.22193
4326.18,0.22455
4320.39,0.23082
4314.6,0.23664
4308.82,0.23723
4303.03,0.23464
4297.24,0.23123
4291.46,0.22892
4285.67,0.23104
4279.89,0.23413
4274.1,0.23689
4268.31,0.23790
4262.53,0.23619
4256.74,0.23579
4250.95,0.23546
4245.17,0.23809
4239.38,0.24031
4233.6,0.24332
4227.81,0.24615
4222.02,0.24934
4216.24,0.25331
4210.45,0.25722
4204.66,0.26062
4198.88,0.26254
4193.09,0.26362
4187.31,0.26504
4181.52,0.26561
4175.73,0.26577
4169.95,0.26575
4164.16,0.26539
4158.37,0.26714
4152.59,0.27050
4146.8,0.27291
4141.02,0.27628
4135.23,0.27960
4129.44,0.28191
4123.66,0.28296
4117.87,0.28287
4112.09,0.28359
4106.3,0.28216
4100.51,0.28085
4094.73,0.27926
4088.94,0.27808
4083.15,0.27648
4077.37,0.27280
4071.58,0.26484
4065.8,0.25391
4060.01,0.25307
4054.22,0.25956
4048.44,0.26617
4042.65,0.26909
4036.86,0.26949
4031.08,0.27110
4025.29,0.27247
4019.51,0.27371
4013.72,0.27395
4007.93,0.27311
4002.15,0.27290
3996.36,0.27267
3990.57,0.27269
3984.79,0.27176
3979,0.27117
3973.22,0.26986
3967.43,0.27015
3961.64,0.26907
3955.86,0.26850
3950.07,0.26771
3944.28,0.26791
3938.5,0.26982
3932.71,0.27259
3926.93,0.27663
3921.14,0.27962
3915.35,0.28332
3909.57,0.28496
3903.78,0.28790
3897.99,0.28818
3892.21,0.28994
3886.42,0.29205
3880.64,0.29426
3874.85,0.29750
3869.06,0.29954
3863.28,0.30158
3857.49,0.30328
3851.7,0.30429
3845.92,0.30692
3840.13,0.30894
3834.35,0.31077
3828.56,0.31251
3822.77,0.31316
3816.99,0.31476
3811.2,0.31557
3805.41,0.31663
3799.63,0.31820
3793.84,0.31807
3788.06,0.31879
3782.27,0.31810
3776.48,0.31770
3770.7,0.31752
3764.91,0.31637
3759.12,0.31652
3753.34,0.31678
3747.55,0.31662
3741.77,0.31605
3735.98,0.31631
3730.19,0.31432
3724.41,0.31307
3718.62,0.31134
3712.83,0.30878
3707.05,0.30364
3701.26,0.29853
3695.48,0.29134
3689.69,0.28241
3683.9,0.27019
3678.12,0.25782
3672.33,0.24825
3666.54,0.23939
3660.76,0.23076
3654.97,0.22063
3649.19,0.20945
3643.4,0.19969
3637.61,0.18970
3631.83,0.17998
3626.04,0.16906
3620.25,0.15889
3614.47,0.14978
3608.68,0.14283
3602.9,0.13634
3597.11,0.13044
3591.32,0.12545
3585.54,0.11996
3579.75,0.11534
3573.97,0.11149
3568.18,0.10666
3562.39,0.10292
3556.61,0.09865
3550.82,0.09667
3545.03,0.09291
3539.25,0.08988
3533.46,0.08735
3527.68,0.08545
3521.89,0.08418
3516.1,0.08195
3510.32,0.07992
3504.53,0.07808
3498.74,0.07645
3492.96,0.07550
3487.17,0.07349
3481.39,0.07226
3475.6,0.07047
3469.81,0.06986
3464.03,0.06885
3458.24,0.06742
3452.45,0.06665
3446.67,0.06545
3440.88,0.06406
3435.1,0.06362
3429.31,0.06299
3423.52,0.06217
3417.74,0.06123
3411.95,0.06098
3406.16,0.06021
3400.38,0.05968
3394.59,0.05960
3388.81,0.05915
3383.02,0.05894
3377.23,0.05842
3371.45,0.05877
3365.66,0.05836
3359.87,0.05804
3354.09,0.05772
3348.3,0.05633
3342.52,0.05678
3336.73,0.05679
3330.94,0.05597
3325.16,0.05678
3319.37,0.05670
3313.58,0.05622
3307.8,0.05667
3302.01,0.05635
3296.23,0.05681
3290.44,0.05723
3284.65,0.05789
3278.87,0.05821
3273.08,0.05904
3267.29,0.06010
3261.51,0.06139
3255.72,0.06176
3249.94,0.06319
3244.15,0.06426
3238.36,0.06491
3232.58,0.06591
3226.79,0.06692
3221,0.06729
3215.22,0.06871
3209.43,0.06907
3203.65,0.07061
3197.86,0.07149
3192.07,0.07243
3186.29,0.07326
3180.5,0.07428
3174.71,0.07541
3168.93,0.07664
3163.14,0.07771
3157.36,0.07876
3151.57,0.07942
3145.78,0.08045
3140,0.08139
3134.21,0.08186
3128.42,0.08264
3122.64,0.08276
3116.85,0.08271
3111.07,0.08278
3105.28,0.08230
3099.49,0.08329
3093.71,0.08277
3087.92,0.08122
3082.14,0.08009
3076.35,0.07952
3070.56,0.07877
3064.78,0.07790
3058.99,0.07725
3053.2,0.07527
3047.42,0.07115
3041.63,0.06743
3035.85,0.06393
3030.06,0.06142
3024.27,0.06129
3018.49,0.06315
3012.7,0.06202
3006.91,0.05860
3001.13,0.05486
2995.34,0.04930
2989.56,0.04488
2983.77,0.04104
2977.98,0.03785
2972.2,0.03460
2966.41,0.03126
2960.62,0.02951
2954.84,0.03003
2949.05,0.03075
2943.27,0.03053
2937.48,0.02895
2931.69,0.02829
2925.91,0.02801
2920.12,0.02908
2914.33,0.03100
2908.55,0.03224
2902.76,0.03375
2896.98,0.03517
2891.19,0.03671
2885.4,0.03765
2879.62,0.03732
2873.83,0.03759
2868.04,0.03742
2862.26,0.03567
2856.47,0.03393
2850.69,0.03432
2844.9,0.03995
2839.11,0.04779
2833.33,0.05678
2827.54,0.06685
2821.75,0.07505
2815.97,0.08205
2810.18,0.08806
2804.4,0.09344
2798.61,0.09912
2792.82,0.10556
2787.04,0.11100
2781.25,0.11546
2775.46,0.11942
2769.68,0.12209
2763.89,0.12419
2758.11,0.12595
2752.32,0.12789
2746.53,0.12871
2740.75,0.12765
2734.96,0.12368
2729.17,0.11397
2723.39,0.11539
2717.6,0.12972
2711.82,0.13711
2706.03,0.13986
2700.24,0.14107
2694.46,0.14140
2688.67,0.14105
2682.88,0.14150
2677.1,0.14248
2671.31,0.14316
2665.53,0.14279
2659.74,0.14208
2653.95,0.14067
2648.17,0.13892
2642.38,0.13530
2636.59,0.12960
2630.81,0.12416
2625.02,0.12103
2619.24,0.12072
2613.45,0.12061
2607.66,0.11902
2601.88,0.11733
2596.09,0.11466
2590.3,0.11082
2584.52,0.10868
2578.73,0.10765
2572.95,0.10724
2567.16,0.10607
2561.37,0.10374
2555.59,0.09984
2549.8,0.09752
2544.02,0.09453
2538.23,0.08919
2532.44,0.08237
2526.66,0.07708
2520.87,0.07476
2515.08,0.07617
2509.3,0.08091
2503.51,0.08962
2497.73,0.10001
2491.94,0.11168
2486.15,0.12419
2480.37,0.13931
2474.58,0.15359
2468.79,0.16493
2463.01,0.17292
2457.22,0.17948
2451.44,0.18535
2445.65,0.19029
2439.86,0.19462
2434.08,0.19853
2428.29,0.20193
2422.5,0.20542
2416.72,0.20744
2410.93,0.20923
2405.15,0.21198
2399.36,0.21538
2393.57,0.21901
2387.79,0.22231
2382,0.22512
2376.21,0.22699
2370.43,0.22854
2364.64,0.23016
2358.86,0.23185
2353.07,0.23265
2347.28,0.23330
2341.5,0.23355
2335.71,0.23385
2329.92,0.23485
2324.14,0.23535
2318.35,0.23599
2312.57,0.23696
2306.78,0.23871
2300.99,0.24067
2295.21,0.24172
2289.42,0.24155
2283.63,0.24094
2277.85,0.23984
2272.06,0.23841
2266.28,0.23566
2260.49,0.23203
2254.7,0.22503
2248.92,0.21143
2243.13,0.19893
2237.34,0.20727
2231.56,0.22595
2225.77,0.23134
2219.99,0.23088
2214.2,0.23033
2208.41,0.22977
2202.63,0.22858
2196.84,0.22722
2191.05,0.22510
2185.27,0.22324
2179.48,0.22041
2173.7,0.21739
2167.91,0.21412
2162.12,0.21134
2156.34,0.20812
2150.55,0.20449
2144.76,0.20402
2138.98,0.20684
2133.19,0.21119
2127.41,0.21724
2121.62,0.22258
2115.83,0.22776
2110.05,0.23068
2104.26,0.23179
2098.47,0.23200
2092.69,0.23189
2086.9,0.23094
2081.12,0.23045
2075.33,0.22810
2069.54,0.22731
2063.76,0.22637
2057.97,0.22491
2052.19,0.22351
2046.4,0.22227
2040.61,0.22115
2034.83,0.22146
2029.04,0.22242
2023.25,0.22510
2017.47,0.22732
2011.68,0.22947
2005.9,0.23217
2000.11,0.23353
1994.32,0.23390
1988.54,0.23376
1982.75,0.23202
1976.96,0.22877
1971.18,0.22739
1965.39,0.22410
1959.61,0.22107
1953.82,0.22381
1948.03,0.22368
1942.25,0.22249
1936.46,0.22352
1930.67,0.22550
1924.89,0.22526
1919.1,0.22420
1913.32,0.22198
1907.53,0.21785
1901.74,0.21408
1895.96,0.20942
1890.17,0.20512
1884.38,0.20068
1878.6,0.19698
1872.81,0.19311
1867.03,0.18852
1861.24,0.18516
1855.45,0.18151
1849.67,0.17544
1843.88,0.16657
1838.09,0.15331
1832.31,0.13595
1826.52,0.11696
1820.74,0.10562
1814.95,0.09887
1809.16,0.08827
1803.38,0.07087
1797.59,0.06109
1791.8,0.06517
1786.02,0.08074
1780.23,0.09277
1774.45,0.09553
1768.66,0.09117
1762.87,0.08277
1757.09,0.07081
1751.3,0.05704
1745.51,0.04614
1739.73,0.04141
1733.94,0.04068
1728.16,0.04020
1722.37,0.04027
1716.58,0.04201
1710.8,0.04459
1705.01,0.04796
1699.22,0.04914
1693.44,0.04905
1687.65,0.04728
1681.87,0.04463
1676.08,0.04219
1670.29,0.03890
1664.51,0.03687
1658.72,0.03713
1652.93,0.03813
1647.15,0.03915
1641.36,0.03942
1635.58,0.04051
1629.79,0.04102
1624,0.04191
1618.22,0.04335
1612.43,0.04472
1606.64,0.04573
1600.86,0.04656
1595.07,0.04795
1589.29,0.05021
1583.5,0.05189
1577.71,0.05385
1571.93,0.05778
1566.14,0.05998
1560.35,0.06014
1554.57,0.06022
1548.78,0.05958
1543,0.05851
1537.21,0.05885
1531.42,0.06076
1525.64,0.06036
1519.85,0.05837
1514.07,0.05682
1508.28,0.05556
1502.49,0.05232
1496.71,0.04953
1490.92,0.04741
1485.13,0.04464
1479.35,0.04234
1473.56,0.03915
1467.78,0.03628
1461.99,0.03494
1456.2,0.03395
1450.42,0.03343
1444.63,0.03370
1438.84,0.03444
1433.06,0.03533
1427.27,0.03625
1421.49,0.03744
1415.7,0.03834
1409.91,0.03847
1404.13,0.03832
1398.34,0.03819
1392.55,0.03924
1386.77,0.03951
1380.98,0.03812
1375.2,0.03804
1369.41,0.04179
1363.62,0.04361
1357.84,0.04516
1352.05,0.04744
1346.26,0.04975
1340.48,0.05097
1334.69,0.05155
1328.91,0.05136
1323.12,0.05103
1317.33,0.05038
1311.55,0.05069
1305.76,0.05123
1299.97,0.05204
1294.19,0.05304
1288.4,0.05264
1282.62,0.05268
1276.83,0.05205
1271.04,0.05033
1265.26,0.04794
1259.47,0.04630
1253.68,0.04653
1247.9,0.04557
1242.11,0.04394
1236.33,0.04339
1230.54,0.04337
1224.75,0.04342
1218.97,0.04345
1213.18,0.04244
1207.39,0.04134
1201.61,0.04085
1195.82,0.04177
1190.04,0.04030
1184.25,0.03992
1178.46,0.03900
1172.68,0.03795
1166.89,0.03677
1161.1,0.03675
1155.32,0.03741
1149.53,0.03746
1143.75,0.03784
1137.96,0.03735
1132.17,0.03781
1126.39,0.03716
1120.6,0.03835
1114.81,0.04033
1109.03,0.03991
1103.24,0.03936
1097.46,0.03808
1091.67,0.03669
1085.88,0.03670
1080.1,0.03848
1074.31,0.04061
1068.52,0.04137
1062.74,0.04218
1056.95,0.04217
1051.17,0.04159
1045.38,0.04042
1039.59,0.04043
1033.81,0.04098
1028.02,0.04123
1022.24,0.04182
1016.45,0.04266
1010.66,0.04386
1004.88,0.04469
999.09,0.04581
993.304,0.04614
987.518,0.04730
981.731,0.04882
975.945,0.04889
970.159,0.04713
964.373,0.04780
958.586,0.05544
952.8,0.06117
947.014,0.06172
941.228,0.06190
935.441,0.06130
929.655,0.06241
923.869,0.06323
918.083,0.06312
912.297,0.06411
906.51,0.06660
900.724,0.07076
894.938,0.06885
889.152,0.06125
883.365,0.04412
877.579,0.03802
871.793,0.04061
866.007,0.05230
860.22,0.05683
854.434,0.05403
848.648,0.04806
842.862,0.04963
837.075,0.04925
831.289,0.04921
825.503,0.05176
819.717,0.05427
813.931,0.05637
808.144,0.05752
802.358,0.05855
796.572,0.05968
790.786,0.06193
784.999,0.06345
779.213,0.06220
773.427,0.05935
767.641,0.05545
761.854,0.05186
756.068,0.05090
750.282,0.05162
744.496,0.05082
738.709,0.04801
732.923,0.04117
727.137,0.03804
721.351,0.03835
715.565,0.03295
709.778,0.03648
703.992,0.04149
698.206,0.04395
692.42,0.05339
686.633,0.05513
680.847,0.05322
675.061,0.05291
669.275,0.05219
663.488,0.05173
657.702,0.04893
651.916,0.04872
646.13,0.04696
640.343,0.04875
634.557,0.04737
628.771,0.04742
622.985,0.04255
617.198,0.04155
611.412,0.04154
605.626,0.03761
599.84,0.03718