File: 01_Data/Rug_Pad/FTIR/IS/Rug_Pad_IS_S_220908_R5.dpt
7497.03,0.51141
7491.25,0.50706
7485.46,0.50581
7479.67,0.50017
7473.89,0.50812
7468.1,0.50479
7462.32,0.50399
7456.53,0.50283
7450.74,0.50582
7444.96,0.49151
7439.17,0.49007
7433.38,0.49508
7427.6,0.49231
7421.81,0.49767
7416.03,0.50349
7410.24,0.49801
7404.45,0.49949
7398.67,0.50024
7392.88,0.49729
7387.09,0.49416
7381.31,0.49829
7375.52,0.49393
7369.74,0.50451
7363.95,0.49529
7358.16,0.48784
7352.38,0.49463
7346.59,0.49922
7340.8,0.49732
7335.02,0.49195
7329.23,0.50045
7323.45,0.48816
7317.66,0.49393
7311.87,0.49142
7306.09,0.48885
7300.3,0.48849
7294.51,0.48223
7288.73,0.47409
7282.94,0.47676
7277.16,0.48280
7271.37,0.48184
7265.58,0.48596
7259.8,0.48273
7254.01,0.47543
7248.22,0.47775
7242.44,0.48055
7236.65,0.48326
7230.87,0.47271
7225.08,0.48236
7219.29,0.47639
7213.51,0.47643
7207.72,0.46766
7201.93,0.47436
7196.15,0.47421
7190.36,0.47498
7184.58,0.47200
7178.79,0.46640
7173,0.47183
7167.22,0.47352
7161.43,0.46977
7155.65,0.47137
7149.86,0.47041
7144.07,0.47371
7138.29,0.47162
7132.5,0.47633
7126.71,0.47533
7120.93,0.47454
7115.14,0.46500
7109.36,0.46948
7103.57,0.46910
7097.78,0.47456
7092,0.47259
7086.21,0.47111
7080.42,0.46566
7074.64,0.46764
7068.85,0.46149
7063.07,0.46667
7057.28,0.46125
7051.49,0.46741
7045.71,0.46443
7039.92,0.47173
7034.13,0.46565
7028.35,0.46661
7022.56,0.46369
7016.78,0.46673
7010.99,0.47291
7005.2,0.46479
6999.42,0.47177
6993.63,0.47068
6987.84,0.47528
6982.06,0.46929
6976.27,0.47127
6970.49,0.47201
6964.7,0.46847
6958.91,0.47272
6953.13,0.46880
6947.34,0.46730
6941.55,0.46634
6935.77,0.46984
6929.98,0.46967
6924.2,0.47375
6918.41,0.47298
6912.62,0.47129
6906.84,0.47217
6901.05,0.46893
6895.26,0.47570
6889.48,0.47060
6883.69,0.47298
6877.91,0.46665
6872.12,0.46805
6866.33,0.47138
6860.55,0.47969
6854.76,0.47535
6848.97,0.47528
6843.19,0.47911
6837.4,0.48041
6831.62,0.47579
6825.83,0.47243
6820.04,0.47815
6814.26,0.47770
6808.47,0.48177
6802.68,0.47831
6796.9,0.48092
6791.11,0.47322
6785.33,0.48023
6779.54,0.47967
6773.75,0.47979
6767.97,0.48088
6762.18,0.47745
6756.39,0.47474
6750.61,0.47956
6744.82,0.47861
6739.04,0.47813
6733.25,0.48764
6727.46,0.47836
6721.68,0.48352
6715.89,0.48047
6710.1,0.48180
6704.32,0.48560
6698.53,0.48314
6692.75,0.48217
6686.96,0.48534
6681.17,0.48829
6675.39,0.48485
6669.6,0.48351
6663.82,0.48244
6658.03,0.48403
6652.24,0.48560
6646.46,0.48623
6640.67,0.48703
6634.88,0.48443
6629.1,0.48939
6623.31,0.48983
6617.53,0.49025
6611.74,0.49153
6605.95,0.49192
6600.17,0.48758
6594.38,0.48953
6588.59,0.49373
6582.81,0.48658
6577.02,0.49217
6571.24,0.48991
6565.45,0.49720
6559.66,0.49637
6553.88,0.49425
6548.09,0.49363
6542.3,0.49204
6536.52,0.49270
6530.73,0.49150
6524.95,0.49054
6519.16,0.49101
6513.37,0.49389
6507.59,0.49157
6501.8,0.49524
6496.01,0.49239
6490.23,0.49120
6484.44,0.49542
6478.66,0.49079
6472.87,0.49332
6467.08,0.49256
6461.3,0.49279
6455.51,0.49361
6449.72,0.49256
6443.94,0.49376
6438.15,0.49631
6432.37,0.49815
6426.58,0.49666
6420.79,0.49410
6415.01,0.49613
6409.22,0.49266
6403.43,0.49238
6397.65,0.49272
6391.86,0.49141
6386.08,0.49344
6380.29,0.49025
6374.5,0.49437
6368.72,0.49278
6362.93,0.49435
6357.14,0.49142
6351.36,0.49398
6345.57,0.49111
6339.79,0.49491
6334,0.49170
6328.21,0.49237
6322.43,0.49467
6316.64,0.49145
6310.85,0.49488
6305.07,0.49316
6299.28,0.49711
6293.5,0.49382
6287.71,0.49460
6281.92,0.49760
6276.14,0.49549
6270.35,0.49430
6264.56,0.49398
6258.78,0.49528
6252.99,0.49854
6247.21,0.49396
6241.42,0.49274
6235.63,0.49183
6229.85,0.49647
6224.06,0.49549
6218.27,0.49544
6212.49,0.49517
6206.7,0.49232
6200.92,0.49442
6195.13,0.49520
6189.34,0.49185
6183.56,0.49633
6177.77,0.49359
6171.98,0.49726
6166.2,0.49510
6160.41,0.49644
6154.63,0.49676
6148.84,0.49393
6143.05,0.49238
6137.27,0.49324
6131.48,0.49258
6125.7,0.48943
6119.91,0.48922
6114.12,0.48592
6108.34,0.48795
6102.55,0.48501
6096.76,0.48604
6090.98,0.48833
6085.19,0.48698
6079.41,0.48217
6073.62,0.48545
6067.83,0.48329
6062.05,0.48245
6056.26,0.48221
6050.47,0.48236
6044.69,0.47980
6038.9,0.47952
6033.12,0.48148
6027.33,0.47735
6021.54,0.47523
6015.76,0.47229
6009.97,0.47225
6004.18,0.46723
5998.4,0.47053
5992.61,0.46819
5986.83,0.46356
5981.04,0.46257
5975.25,0.46067
5969.47,0.45739
5963.68,0.45546
5957.89,0.45118
5952.11,0.45211
5946.32,0.44750
5940.54,0.44370
5934.75,0.44233
5928.96,0.43895
5923.18,0.43347
5917.39,0.42846
5911.6,0.42077
5905.82,0.41324
5900.03,0.40569
5894.25,0.39597
5888.46,0.38836
5882.67,0.38605
5876.89,0.38877
5871.1,0.38917
5865.31,0.38560
5859.53,0.38293
5853.74,0.37165
5847.96,0.36241
5842.17,0.35536
5836.38,0.35096
5830.6,0.34888
5824.81,0.34808
5819.02,0.35073
5813.24,0.35101
5807.45,0.35358
5801.67,0.35315
5795.88,0.35848
5790.09,0.36419
5784.31,0.36766
5778.52,0.37265
5772.73,0.37666
5766.95,0.37951
5761.16,0.38222
5755.38,0.38161
5749.59,0.38186
5743.8,0.38310
5738.02,0.38255
5732.23,0.38387
5726.44,0.38155
5720.66,0.38102
5714.87,0.38083
5709.09,0.37976
5703.3,0.37950
5697.51,0.37987
5691.73,0.38185
5685.94,0.38170
5680.15,0.38207
5674.37,0.38132
5668.58,0.38380
5662.8,0.38548
5657.01,0.38940
5651.22,0.39068
5645.44,0.39238
5639.65,0.39114
5633.87,0.39050
5628.08,0.38530
5622.29,0.38530
5616.51,0.38848
5610.72,0.39283
5604.93,0.39609
5599.15,0.40179
5593.36,0.41034
5587.58,0.41464
5581.79,0.41881
5576,0.42468
5570.22,0.42957
5564.43,0.43213
5558.64,0.43411
5552.86,0.43626
5547.07,0.43705
5541.29,0.43847
5535.5,0.43976
5529.71,0.44055
5523.93,0.44311
5518.14,0.44251
5512.35,0.44560
5506.57,0.44467
5500.78,0.44522
5495,0.44457
5489.21,0.44652
5483.42,0.44649
5477.64,0.44789
5471.85,0.44814
5466.06,0.44800
5460.28,0.44538
5454.49,0.44747
5448.71,0.44736
5442.92,0.44661
5437.13,0.44823
5431.35,0.44798
5425.56,0.44887
5419.77,0.44774
5413.99,0.44613
5408.2,0.44761
5402.42,0.44822
5396.63,0.44753
5390.84,0.44641
5385.06,0.44778
5379.27,0.44852
5373.48,0.44956
5367.7,0.44872
5361.91,0.45029
5356.13,0.44787
5350.34,0.44794
5344.55,0.44970
5338.77,0.44835
5332.98,0.44669
5327.19,0.44745
5321.41,0.44763
5315.62,0.44865
5309.84,0.44892
5304.05,0.44959
5298.26,0.44934
5292.48,0.44977
5286.69,0.44992
5280.9,0.44938
5275.12,0.44735
5269.33,0.44568
5263.55,0.44469
5257.76,0.44332
5251.97,0.44031
5246.19,0.44119
5240.4,0.43924
5234.61,0.43787
5228.83,0.43661
5223.04,0.43331
5217.26,0.43395
5211.47,0.43272
5205.68,0.43223
5199.9,0.43168
5194.11,0.43080
5188.32,0.43050
5182.54,0.42901
5176.75,0.43096
5170.97,0.43005
5165.18,0.42913
5159.39,0.43089
5153.61,0.43006
5147.82,0.43131
5142.03,0.43221
5136.25,0.43225
5130.46,0.43330
5124.68,0.43277
5118.89,0.43355
5113.1,0.43458
5107.32,0.43526
5101.53,0.43526
5095.75,0.43486
5089.96,0.43523
5084.17,0.43688
5078.39,0.43745
5072.6,0.43722
5066.81,0.43722
5061.03,0.43714
5055.24,0.43844
5049.46,0.43772
5043.67,0.43724
5037.88,0.43939
5032.1,0.43814
5026.31,0.43848
5020.52,0.43827
5014.74,0.43808
5008.95,0.43771
5003.17,0.43878
4997.38,0.43849
4991.59,0.43853
4985.81,0.43775
4980.02,0.43626
4974.23,0.43677
4968.45,0.43568
4962.66,0.43498
4956.88,0.43352
4951.09,0.43369
4945.3,0.43255
4939.52,0.43207
4933.73,0.43041
4927.94,0.43135
4922.16,0.42955
4916.37,0.42947
4910.59,0.42857
4904.8,0.42825
4899.01,0.42929
4893.23,0.42822
4887.44,0.42704
4881.65,0.42656
4875.87,0.42682
4870.08,0.42589
4864.3,0.42546
4858.51,0.42531
4852.72,0.42410
4846.94,0.42427
4841.15,0.42392
4835.36,0.42288
4829.58,0.42316
4823.79,0.42245
4818.01,0.42194
4812.22,0.42128
4806.43,0.42075
4800.65,0.41942
4794.86,0.42003
4789.07,0.41883
4783.29,0.41849
4777.5,0.41705
4771.72,0.41657
4765.93,0.41751
4760.14,0.41721
4754.36,0.41640
4748.57,0.41506
4742.78,0.41419
4737,0.41438
4731.21,0.41230
4725.43,0.40954
4719.64,0.40742
4713.85,0.40588
4708.07,0.40314
4702.28,0.40318
4696.49,0.40154
4690.71,0.40141
4684.92,0.40220
4679.14,0.40159
4673.35,0.39944
4667.56,0.39831
4661.78,0.39751
4655.99,0.39634
4650.2,0.39330
4644.42,0.38988
4638.63,0.38655
4632.85,0.38222
4627.06,0.37965
4621.27,0.38178
4615.49,0.38231
4609.7,0.38211
4603.92,0.38194
4598.13,0.38387
4592.34,0.38531
4586.56,0.38682
4580.77,0.38637
4574.98,0.38699
4569.2,0.38913
4563.41,0.39188
4557.63,0.39381
4551.84,0.39380
4546.05,0.39170
4540.27,0.39129
4534.48,0.38986
4528.69,0.38693
4522.91,0.38402
4517.12,0.38385
4511.34,0.38323
4505.55,0.38423
4499.76,0.38441
4493.98,0.38388
4488.19,0.38110
4482.4,0.37868
4476.62,0.37628
4470.83,0.37347
4465.05,0.37051
4459.26,0.36544
4453.47,0.35972
4447.69,0.35310
4441.9,0.34657
4436.11,0.33934
4430.33,0.32963
4424.54,0.31966
4418.76,0.30888
4412.97,0.29792
4407.18,0.28717
4401.4,0.27912
4395.61,0.27352
4389.82,0.26895
4384.04,0.26276
4378.25,0.25722
4372.47,0.25186
4366.68,0.24535
4360.89,0.24091
4355.11,0.23702
4349.32,0.23217
4343.53,0.22872
4337.75,0.22409
4331.96,0.22132
4326.18,0.22424
4320.39,0.23082
4314.6,0.23606
4308.82,0.23645
4303.03,0.23395
4297.24,0.23070
4291.46,0.22903
4285.67,0.23058
4279.89,0.23328
4274.1,0.23581
4268.31,0.23655
4262.53,0.23586
4256.74,0.23501
4250.95,0.23544
4245.17,0.23784
4239.38,0.23985
4233.6,0.24293
4227.81,0.24634
4222.02,0.24866
4216.24,0.25291
4210.45,0.25691
4204.66,0.25972
4198.88,0.26286
4193.09,0.26348
4187.31,0.26506
4181.52,0.26497
4175.73,0.26467
4169.95,0.26431
4164.16,0.26448
4158.37,0.26699
4152.59,0.26954
4146.8,0.27276
4141.02,0.27628
4135.23,0.27942
4129.44,0.28144
4123.66,0.28214
4117.87,0.28291
4112.09,0.28239
4106.3,0.28209
4100.51,0.28043
4094.73,0.27931
4088.94,0.27805
4083.15,0.27641
4077.37,0.27220
4071.58,0.26436
4065.8,0.25341
4060.01,0.25296
4054.22,0.26070
4048.44,0.26614
4042.65,0.26812
4036.86,0.26925
4031.08,0.27121
4025.29,0.27233
4019.51,0.27346
4013.72,0.27338
4007.93,0.27354
4002.15,0.27308
3996.36,0.27276
3990.57,0.27249
3984.79,0.27142
3979,0.27086
3973.22,0.26956
3967.43,0.26926
3961.64,0.26870
3955.86,0.26795
3950.07,0.26803
3944.28,0.26841
3938.5,0.26945
3932.71,0.27263
3926.93,0.27618
3921.14,0.27969
3915.35,0.28262
3909.57,0.28569
3903.78,0.28757
3897.99,0.28819
3892.21,0.28971
3886.42,0.29222
3880.64,0.29431
3874.85,0.29664
3869.06,0.29937
3863.28,0.30125
3857.49,0.30354
3851.7,0.30435
3845.92,0.30677
3840.13,0.30986
3834.35,0.31050
3828.56,0.31192
3822.77,0.31252
3816.99,0.31426
3811.2,0.31562
3805.41,0.31699
3799.63,0.31772
3793.84,0.31836
3788.06,0.31867
3782.27,0.31862
3776.48,0.31794
3770.7,0.31693
3764.91,0.31637
3759.12,0.31624
3753.34,0.31690
3747.55,0.31698
3741.77,0.31603
3735.98,0.31552
3730.19,0.31453
3724.41,0.31332
3718.62,0.31155
3712.83,0.30950
3707.05,0.30463
3701.26,0.29883
3695.48,0.29212
3689.69,0.28335
3683.9,0.27094
3678.12,0.25899
3672.33,0.24844
3666.54,0.24068
3660.76,0.23272
3654.97,0.22272
3649.19,0.21259
3643.4,0.20068
3637.61,0.19180
3631.83,0.18235
3626.04,0.17077
3620.25,0.16050
3614.47,0.15176
3608.68,0.14454
3602.9,0.13873
3597.11,0.13213
3591.32,0.12614
3585.54,0.12157
3579.75,0.11645
3573.97,0.11255
3568.18,0.10803
3562.39,0.10335
3556.61,0.09986
3550.82,0.09673
3545.03,0.09439
3539.25,0.09121
3533.46,0.08987
3527.68,0.08638
3521.89,0.08441
3516.1,0.08272
3510.32,0.08113
3504.53,0.07972
3498.74,0.07758
3492.96,0.07574
3487.17,0.07380
3481.39,0.07245
3475.6,0.07186
3469.81,0.07058
3464.03,0.06967
3458.24,0.06852
3452.45,0.06667
3446.67,0.06629
3440.88,0.06554
3435.1,0.06406
3429.31,0.06368
3423.52,0.06238
3417.74,0.06202
3411.95,0.06147
3406.16,0.06097
3400.38,0.06055
3394.59,0.06009
3388.81,0.05984
3383.02,0.05971
3377.23,0.05930
3371.45,0.05838
3365.66,0.05808
3359.87,0.05822
3354.09,0.05719
3348.3,0.05783
3342.52,0.05776
3336.73,0.05733
3330.94,0.05713
3325.16,0.05713
3319.37,0.05669
3313.58,0.05639
3307.8,0.05670
3302.01,0.05714
3296.23,0.05723
3290.44,0.05837
3284.65,0.05737
3278.87,0.05839
3273.08,0.05980
3267.29,0.06080
3261.51,0.06173
3255.72,0.06279
3249.94,0.06346
3244.15,0.06525
3238.36,0.06597
3232.58,0.06682
3226.79,0.06682
3221,0.06809
3215.22,0.06895
3209.43,0.07029
3203.65,0.07056
3197.86,0.07174
3192.07,0.07246
3186.29,0.07405
3180.5,0.07461
3174.71,0.07632
3168.93,0.07669
3163.14,0.07776
3157.36,0.07883
3151.57,0.07999
3145.78,0.08054
3140,0.08219
3134.21,0.08228
3128.42,0.08277
3122.64,0.08346
3116.85,0.08421
3111.07,0.08319
3105.28,0.08315
3099.49,0.08290
3093.71,0.08194
3087.92,0.08105
3082.14,0.08002
3076.35,0.08005
3070.56,0.07966
3064.78,0.07808
3058.99,0.07702
3053.2,0.07563
3047.42,0.07195
3041.63,0.06761
3035.85,0.06401
3030.06,0.06164
3024.27,0.06181
3018.49,0.06300
3012.7,0.06210
3006.91,0.05900
3001.13,0.05479
2995.34,0.04979
2989.56,0.04530
2983.77,0.04130
2977.98,0.03791
2972.2,0.03431
2966.41,0.03078
2960.62,0.02958
2954.84,0.03028
2949.05,0.03076
2943.27,0.02990
2937.48,0.02900
2931.69,0.02811
2925.91,0.02792
2920.12,0.02906
2914.33,0.03074
2908.55,0.03191
2902.76,0.03389
2896.98,0.03539
2891.19,0.03617
2885.4,0.03758
2879.62,0.03757
2873.83,0.03808
2868.04,0.03696
2862.26,0.03572
2856.47,0.03384
2850.69,0.03430
2844.9,0.03976
2839.11,0.04755
2833.33,0.05672
2827.54,0.06680
2821.75,0.07524
2815.97,0.08176
2810.18,0.08797
2804.4,0.09331
2798.61,0.09948
2792.82,0.10576
2787.04,0.11096
2781.25,0.11541
2775.46,0.11891
2769.68,0.12160
2763.89,0.12386
2758.11,0.12625
2752.32,0.12782
2746.53,0.12914
2740.75,0.12820
2734.96,0.12357
2729.17,0.11358
2723.39,0.11558
2717.6,0.12983
2711.82,0.13708
2706.03,0.13947
2700.24,0.14120
2694.46,0.14153
2688.67,0.14139
2682.88,0.14200
2677.1,0.14300
2671.31,0.14267
2665.53,0.14261
2659.74,0.14209
2653.95,0.14108
2648.17,0.13883
2642.38,0.13497
2636.59,0.12996
2630.81,0.12451
2625.02,0.12105
2619.24,0.12130
2613.45,0.12018
2607.66,0.11898
2601.88,0.11688
2596.09,0.11400
2590.3,0.11077
2584.52,0.10861
2578.73,0.10749
2572.95,0.10680
2567.16,0.10630
2561.37,0.10300
2555.59,0.09963
2549.8,0.09729
2544.02,0.09392
2538.23,0.08937
2532.44,0.08241
2526.66,0.07708
2520.87,0.07440
2515.08,0.07574
2509.3,0.08084
2503.51,0.08940
2497.73,0.10019
2491.94,0.11178
2486.15,0.12379
2480.37,0.13855
2474.58,0.15370
2468.79,0.16543
2463.01,0.17332
2457.22,0.17956
2451.44,0.18500
2445.65,0.19036
2439.86,0.19467
2434.08,0.19857
2428.29,0.20221
2422.5,0.20493
2416.72,0.20718
2410.93,0.20905
2405.15,0.21200
2399.36,0.21526
2393.57,0.21865
2387.79,0.22187
2382,0.22480
2376.21,0.22664
2370.43,0.22870
2364.64,0.23055
2358.86,0.23176
2353.07,0.23271
2347.28,0.23358
2341.5,0.23344
2335.71,0.23347
2329.92,0.23509
2324.14,0.23529
2318.35,0.23614
2312.57,0.23726
2306.78,0.23856
2300.99,0.24060
2295.21,0.24162
2289.42,0.24171
2283.63,0.24096
2277.85,0.23990
2272.06,0.23801
2266.28,0.23575
2260.49,0.23243
2254.7,0.22515
2248.92,0.21172
2243.13,0.19934
2237.34,0.20758
2231.56,0.22611
2225.77,0.23141
2219.99,0.23119
2214.2,0.23068
2208.41,0.23022
2202.63,0.22883
2196.84,0.22724
2191.05,0.22549
2185.27,0.22319
2179.48,0.22084
2173.7,0.21744
2167.91,0.21476
2162.12,0.21133
2156.34,0.20857
2150.55,0.20508
2144.76,0.20452
2138.98,0.20698
2133.19,0.21147
2127.41,0.21712
2121.62,0.22333
2115.83,0.22829
2110.05,0.23097
2104.26,0.23189
2098.47,0.23252
2092.69,0.23264
2086.9,0.23152
2081.12,0.23009
2075.33,0.22852
2069.54,0.22759
2063.76,0.22686
2057.97,0.22570
2052.19,0.22377
2046.4,0.22212
2040.61,0.22172
2034.83,0.22130
2029.04,0.22269
2023.25,0.22487
2017.47,0.22751
2011.68,0.22991
2005.9,0.23186
2000.11,0.23345
1994.32,0.23428
1988.54,0.23407
1982.75,0.23227
1976.96,0.22894
1971.18,0.22779
1965.39,0.22443
1959.61,0.22062
1953.82,0.22407
1948.03,0.22397
1942.25,0.22248
1936.46,0.22341
1930.67,0.22556
1924.89,0.22567
1919.1,0.22444
1913.32,0.22185
1907.53,0.21829
1901.74,0.21414
1895.96,0.20953
1890.17,0.20528
1884.38,0.20045
1878.6,0.19678
1872.81,0.19303
1867.03,0.18896
1861.24,0.18525
1855.45,0.18136
1849.67,0.17559
1843.88,0.16643
1838.09,0.15347
1832.31,0.13593
1826.52,0.11650
1820.74,0.10548
1814.95,0.09856
1809.16,0.08810
1803.38,0.07040
1797.59,0.06078
1791.8,0.06514
1786.02,0.08102
1780.23,0.09303
1774.45,0.09537
1768.66,0.09069
1762.87,0.08289
1757.09,0.07056
1751.3,0.05703
1745.51,0.04618
1739.73,0.04103
1733.94,0.04011
1728.16,0.03968
1722.37,0.04004
1716.58,0.04195
1710.8,0.04447
1705.01,0.04809
1699.22,0.05026
1693.44,0.04900
1687.65,0.04739
1681.87,0.04448
1676.08,0.04163
1670.29,0.03903
1664.51,0.03710
1658.72,0.03687
1652.93,0.03799
1647.15,0.03890
1641.36,0.03950
1635.58,0.04026
1629.79,0.04101
1624,0.04221
1618.22,0.04373
1612.43,0.04488
1606.64,0.04539
1600.86,0.04649
1595.07,0.04774
1589.29,0.04966
1583.5,0.05144
1577.71,0.05420
1571.93,0.05743
1566.14,0.05968
1560.35,0.06046
1554.57,0.06042
1548.78,0.05958
1543,0.05853
1537.21,0.05872
1531.42,0.06035
1525.64,0.06070
1519.85,0.05864
1514.07,0.05705
1508.28,0.05562
1502.49,0.05229
1496.71,0.04957
1490.92,0.04728
1485.13,0.04451
1479.35,0.04208
1473.56,0.03903
1467.78,0.03621
1461.99,0.03469
1456.2,0.03434
1450.42,0.03345
1444.63,0.03379
1438.84,0.03435
1433.06,0.03558
1427.27,0.03670
1421.49,0.03774
1415.7,0.03803
1409.91,0.03842
1404.13,0.03847
1398.34,0.03914
1392.55,0.03913
1386.77,0.03931
1380.98,0.03830
1375.2,0.03809
1369.41,0.04174
1363.62,0.04365
1357.84,0.04567
1352.05,0.04740
1346.26,0.04934
1340.48,0.05104
1334.69,0.05181
1328.91,0.05161
1323.12,0.05104
1317.33,0.05088
1311.55,0.05031
1305.76,0.05066
1299.97,0.05184
1294.19,0.05317
1288.4,0.05279
1282.62,0.05222
1276.83,0.05192
1271.04,0.05066
1265.26,0.04806
1259.47,0.04643
1253.68,0.04657
1247.9,0.04510
1242.11,0.04413
1236.33,0.04351
1230.54,0.04331
1224.75,0.04352
1218.97,0.04299
1213.18,0.04266
1207.39,0.04148
1201.61,0.04053
1195.82,0.04070
1190.04,0.04020
1184.25,0.03999
1178.46,0.03916
1172.68,0.03805
1166.89,0.03667
1161.1,0.03678
1155.32,0.03758
1149.53,0.03812
1143.75,0.03798
1137.96,0.03758
1132.17,0.03778
1126.39,0.03699
1120.6,0.03871
1114.81,0.04033
1109.03,0.03973
1103.24,0.03955
1097.46,0.03786
1091.67,0.03633
1085.88,0.03679
1080.1,0.03869
1074.31,0.04009
1068.52,0.04148
1062.74,0.04239
1056.95,0.04142
1051.17,0.04061
1045.38,0.04010
1039.59,0.04053
1033.81,0.04076
1028.02,0.04077
1022.24,0.04240
1016.45,0.04295
1010.66,0.04364
1004.88,0.04487
999.09,0.04561
993.304,0.04601
987.518,0.04784
981.731,0.04906
975.945,0.04885
970.159,0.04671
964.373,0.04834
958.586,0.05623
952.8,0.06079
947.014,0.06184
941.228,0.06207
935.441,0.06178
929.655,0.06201
923.869,0.06313
918.083,0.06362
912.297,0.06344
906.51,0.06712
900.724,0.07084
894.938,0.06916
889.152,0.06111
883.365,0.04427
877.579,0.03831
871.793,0.04039
866.007,0.05253
860.22,0.05678
854.434,0.05391
848.648,0.04749
842.862,0.05057
837.075,0.04875
831.289,0.05005
825.503,0.05161
819.717,0.05415
813.931,0.05776
808.144,0.05888
802.358,0.05885
796.572,0.06038
790.786,0.06274
784.999,0.06424
779.213,0.06366
773.427,0.05944
767.641,0.05498
761.854,0.05209
756.068,0.05189
750.282,0.05180
744.496,0.05161
738.709,0.04805
732.923,0.04140
727.137,0.03884
721.351,0.03858
715.565,0.03238
709.778,0.03660
703.992,0.04078
698.206,0.04474
692.42,0.05376
686.633,0.05572
680.847,0.05438
675.061,0.05304
669.275,0.05283
663.488,0.05217
657.702,0.04981
651.916,0.04897
646.13,0.04873
640.343,0.04888
634.557,0.04823
628.771,0.04639
622.985,0.04377
617.198,0.04240
611.412,0.03760
605.626,0.03856
599.84,0.03622