File: 01_Data/Rug_Pad/FTIR/IS/Rug_Pad_IS_S_220908_R6.dpt
7497.03,0.50480
7491.25,0.49996
7485.46,0.49175
7479.67,0.50494
7473.89,0.50987
7468.1,0.51011
7462.32,0.50336
7456.53,0.50769
7450.74,0.49623
7444.96,0.49992
7439.17,0.50252
7433.38,0.49388
7427.6,0.49843
7421.81,0.50418
7416.03,0.49601
7410.24,0.50398
7404.45,0.50207
7398.67,0.50463
7392.88,0.49833
7387.09,0.49644
7381.31,0.50114
7375.52,0.49563
7369.74,0.50147
7363.95,0.49324
7358.16,0.49468
7352.38,0.49906
7346.59,0.48875
7340.8,0.47984
7335.02,0.49080
7329.23,0.48692
7323.45,0.48688
7317.66,0.48377
7311.87,0.48530
7306.09,0.48427
7300.3,0.48982
7294.51,0.48623
7288.73,0.47879
7282.94,0.48021
7277.16,0.48230
7271.37,0.48188
7265.58,0.48252
7259.8,0.48484
7254.01,0.48043
7248.22,0.48079
7242.44,0.47998
7236.65,0.47333
7230.87,0.47845
7225.08,0.47297
7219.29,0.47997
7213.51,0.47276
7207.72,0.46850
7201.93,0.47372
7196.15,0.47057
7190.36,0.47234
7184.58,0.47472
7178.79,0.47064
7173,0.47191
7167.22,0.47042
7161.43,0.47944
7155.65,0.47747
7149.86,0.46906
7144.07,0.46835
7138.29,0.47401
7132.5,0.47494
7126.71,0.47141
7120.93,0.47275
7115.14,0.47189
7109.36,0.46708
7103.57,0.48104
7097.78,0.46992
7092,0.46291
7086.21,0.46657
7080.42,0.47280
7074.64,0.46737
7068.85,0.46958
7063.07,0.47382
7057.28,0.46582
7051.49,0.46493
7045.71,0.46498
7039.92,0.47100
7034.13,0.46792
7028.35,0.46985
7022.56,0.47138
7016.78,0.46727
7010.99,0.46393
7005.2,0.46926
6999.42,0.46631
6993.63,0.46708
6987.84,0.46702
6982.06,0.47156
6976.27,0.47319
6970.49,0.46931
6964.7,0.46749
6958.91,0.46619
6953.13,0.46733
6947.34,0.47002
6941.55,0.46752
6935.77,0.46377
6929.98,0.46405
6924.2,0.46504
6918.41,0.47074
6912.62,0.47373
6906.84,0.46636
6901.05,0.47619
6895.26,0.47636
6889.48,0.47224
6883.69,0.47424
6877.91,0.47221
6872.12,0.47266
6866.33,0.47696
6860.55,0.48079
6854.76,0.47630
6848.97,0.47027
6843.19,0.47277
6837.4,0.47506
6831.62,0.47517
6825.83,0.47783
6820.04,0.47587
6814.26,0.47496
6808.47,0.47455
6802.68,0.47775
6796.9,0.48169
6791.11,0.47536
6785.33,0.47865
6779.54,0.48159
6773.75,0.48246
6767.97,0.47921
6762.18,0.47860
6756.39,0.47913
6750.61,0.47849
6744.82,0.47936
6739.04,0.47808
6733.25,0.48518
6727.46,0.48300
6721.68,0.47946
6715.89,0.48086
6710.1,0.48042
6704.32,0.48202
6698.53,0.48347
6692.75,0.48111
6686.96,0.48146
6681.17,0.48222
6675.39,0.48695
6669.6,0.48899
6663.82,0.49146
6658.03,0.48698
6652.24,0.48220
6646.46,0.48786
6640.67,0.48934
6634.88,0.48681
6629.1,0.48709
6623.31,0.48360
6617.53,0.48713
6611.74,0.48682
6605.95,0.48793
6600.17,0.48836
6594.38,0.49007
6588.59,0.49167
6582.81,0.48935
6577.02,0.49263
6571.24,0.48912
6565.45,0.49182
6559.66,0.49328
6553.88,0.48802
6548.09,0.49362
6542.3,0.49088
6536.52,0.49276
6530.73,0.49191
6524.95,0.49237
6519.16,0.49528
6513.37,0.49353
6507.59,0.49275
6501.8,0.49049
6496.01,0.49622
6490.23,0.49369
6484.44,0.49350
6478.66,0.49315
6472.87,0.49369
6467.08,0.49253
6461.3,0.49848
6455.51,0.49339
6449.72,0.49423
6443.94,0.49751
6438.15,0.49672
6432.37,0.49588
6426.58,0.49439
6420.79,0.49942
6415.01,0.49518
6409.22,0.49274
6403.43,0.49411
6397.65,0.49481
6391.86,0.49374
6386.08,0.49595
6380.29,0.49520
6374.5,0.49377
6368.72,0.49200
6362.93,0.48895
6357.14,0.49074
6351.36,0.48850
6345.57,0.49127
6339.79,0.49279
6334,0.49144
6328.21,0.49404
6322.43,0.49106
6316.64,0.49969
6310.85,0.49437
6305.07,0.49236
6299.28,0.49376
6293.5,0.49600
6287.71,0.49229
6281.92,0.49564
6276.14,0.49710
6270.35,0.49595
6264.56,0.49563
6258.78,0.49629
6252.99,0.49476
6247.21,0.49581
6241.42,0.49299
6235.63,0.49195
6229.85,0.49255
6224.06,0.49673
6218.27,0.49647
6212.49,0.49030
6206.7,0.49580
6200.92,0.49561
6195.13,0.49388
6189.34,0.49357
6183.56,0.49818
6177.77,0.50022
6171.98,0.49858
6166.2,0.49543
6160.41,0.49370
6154.63,0.49519
6148.84,0.49280
6143.05,0.49038
6137.27,0.49113
6131.48,0.49434
6125.7,0.48752
6119.91,0.48747
6114.12,0.48651
6108.34,0.48379
6102.55,0.49016
6096.76,0.48575
6090.98,0.48691
6085.19,0.48688
6079.41,0.48559
6073.62,0.48243
6067.83,0.48390
6062.05,0.48288
6056.26,0.48278
6050.47,0.48101
6044.69,0.48122
6038.9,0.47692
6033.12,0.47553
6027.33,0.47613
6021.54,0.47437
6015.76,0.47355
6009.97,0.47123
6004.18,0.46815
5998.4,0.46773
5992.61,0.46647
5986.83,0.46518
5981.04,0.46210
5975.25,0.46221
5969.47,0.45930
5963.68,0.45751
5957.89,0.45198
5952.11,0.44917
5946.32,0.44775
5940.54,0.44530
5934.75,0.44302
5928.96,0.43543
5923.18,0.43424
5917.39,0.42527
5911.6,0.41726
5905.82,0.41186
5900.03,0.40371
5894.25,0.39399
5888.46,0.38609
5882.67,0.38555
5876.89,0.38674
5871.1,0.38645
5865.31,0.38326
5859.53,0.37998
5853.74,0.37185
5847.96,0.36429
5842.17,0.35689
5836.38,0.34873
5830.6,0.34938
5824.81,0.34830
5819.02,0.34938
5813.24,0.35146
5807.45,0.35328
5801.67,0.35546
5795.88,0.35839
5790.09,0.36534
5784.31,0.36929
5778.52,0.37269
5772.73,0.37584
5766.95,0.37728
5761.16,0.38063
5755.38,0.38166
5749.59,0.38081
5743.8,0.38160
5738.02,0.38308
5732.23,0.38257
5726.44,0.38206
5720.66,0.38041
5714.87,0.38070
5709.09,0.37985
5703.3,0.38063
5697.51,0.37988
5691.73,0.37953
5685.94,0.38101
5680.15,0.38036
5674.37,0.38392
5668.58,0.38281
5662.8,0.38630
5657.01,0.38908
5651.22,0.39073
5645.44,0.38925
5639.65,0.39216
5633.87,0.39173
5628.08,0.38594
5622.29,0.38663
5616.51,0.38631
5610.72,0.39148
5604.93,0.39681
5599.15,0.40259
5593.36,0.40872
5587.58,0.41248
5581.79,0.41960
5576,0.42453
5570.22,0.42777
5564.43,0.43032
5558.64,0.43148
5552.86,0.43524
5547.07,0.43852
5541.29,0.43897
5535.5,0.44048
5529.71,0.44053
5523.93,0.44239
5518.14,0.44338
5512.35,0.44202
5506.57,0.44644
5500.78,0.44477
5495,0.44570
5489.21,0.44621
5483.42,0.44508
5477.64,0.44563
5471.85,0.44689
5466.06,0.44739
5460.28,0.44744
5454.49,0.44702
5448.71,0.44714
5442.92,0.44732
5437.13,0.44727
5431.35,0.44717
5425.56,0.44428
5419.77,0.44701
5413.99,0.44816
5408.2,0.44686
5402.42,0.44586
5396.63,0.44819
5390.84,0.44715
5385.06,0.44714
5379.27,0.44593
5373.48,0.44812
5367.7,0.44909
5361.91,0.44887
5356.13,0.44983
5350.34,0.44725
5344.55,0.44830
5338.77,0.44768
5332.98,0.44731
5327.19,0.44821
5321.41,0.44465
5315.62,0.44679
5309.84,0.44654
5304.05,0.44823
5298.26,0.44983
5292.48,0.44930
5286.69,0.44853
5280.9,0.44890
5275.12,0.44691
5269.33,0.44648
5263.55,0.44539
5257.76,0.44495
5251.97,0.44309
5246.19,0.43995
5240.4,0.43802
5234.61,0.43949
5228.83,0.43713
5223.04,0.43549
5217.26,0.43528
5211.47,0.43558
5205.68,0.43239
5199.9,0.43236
5194.11,0.43106
5188.32,0.43163
5182.54,0.43121
5176.75,0.42980
5170.97,0.43131
5165.18,0.43177
5159.39,0.43140
5153.61,0.43223
5147.82,0.43202
5142.03,0.43184
5136.25,0.43226
5130.46,0.43261
5124.68,0.43400
5118.89,0.43432
5113.1,0.43440
5107.32,0.43464
5101.53,0.43521
5095.75,0.43582
5089.96,0.43695
5084.17,0.43787
5078.39,0.43760
5072.6,0.43854
5066.81,0.43715
5061.03,0.43743
5055.24,0.43911
5049.46,0.43863
5043.67,0.43887
5037.88,0.43944
5032.1,0.43835
5026.31,0.43830
5020.52,0.43840
5014.74,0.43851
5008.95,0.43810
5003.17,0.43851
4997.38,0.43944
4991.59,0.43873
4985.81,0.43829
4980.02,0.43763
4974.23,0.43676
4968.45,0.43687
4962.66,0.43499
4956.88,0.43369
4951.09,0.43284
4945.3,0.43313
4939.52,0.43274
4933.73,0.43127
4927.94,0.42975
4922.16,0.42866
4916.37,0.42918
4910.59,0.42886
4904.8,0.43008
4899.01,0.42893
4893.23,0.42772
4887.44,0.42755
4881.65,0.42657
4875.87,0.42695
4870.08,0.42524
4864.3,0.42563
4858.51,0.42500
4852.72,0.42443
4846.94,0.42413
4841.15,0.42351
4835.36,0.42373
4829.58,0.42366
4823.79,0.42212
4818.01,0.42172
4812.22,0.42102
4806.43,0.42007
4800.65,0.41995
4794.86,0.41976
4789.07,0.41804
4783.29,0.41796
4777.5,0.41671
4771.72,0.41611
4765.93,0.41589
4760.14,0.41606
4754.36,0.41526
4748.57,0.41433
4742.78,0.41396
4737,0.41315
4731.21,0.41220
4725.43,0.40954
4719.64,0.40755
4713.85,0.40545
4708.07,0.40306
4702.28,0.40275
4696.49,0.40159
4690.71,0.40203
4684.92,0.40175
4679.14,0.40178
4673.35,0.39973
4667.56,0.39884
4661.78,0.39789
4655.99,0.39433
4650.2,0.39296
4644.42,0.38883
4638.63,0.38500
4632.85,0.38191
4627.06,0.38070
4621.27,0.38118
4615.49,0.38182
4609.7,0.38166
4603.92,0.38180
4598.13,0.38292
4592.34,0.38481
4586.56,0.38616
4580.77,0.38696
4574.98,0.38792
4569.2,0.38944
4563.41,0.39141
4557.63,0.39193
4551.84,0.39251
4546.05,0.39190
4540.27,0.39127
4534.48,0.38808
4528.69,0.38636
4522.91,0.38439
4517.12,0.38342
4511.34,0.38318
4505.55,0.38517
4499.76,0.38451
4493.98,0.38326
4488.19,0.38124
4482.4,0.37837
4476.62,0.37575
4470.83,0.37413
4465.05,0.36995
4459.26,0.36490
4453.47,0.35847
4447.69,0.35351
4441.9,0.34662
4436.11,0.33834
4430.33,0.33032
4424.54,0.32051
4418.76,0.30883
4412.97,0.29690
4407.18,0.28757
4401.4,0.27848
4395.61,0.27357
4389.82,0.26735
4384.04,0.26178
4378.25,0.25687
4372.47,0.25232
4366.68,0.24602
4360.89,0.24069
4355.11,0.23675
4349.32,0.23325
4343.53,0.22759
4337.75,0.22423
4331.96,0.22071
4326.18,0.22424
4320.39,0.23107
4314.6,0.23622
4308.82,0.23683
4303.03,0.23353
4297.24,0.23101
4291.46,0.22892
4285.67,0.23007
4279.89,0.23288
4274.1,0.23644
4268.31,0.23598
4262.53,0.23572
4256.74,0.23508
4250.95,0.23567
4245.17,0.23718
4239.38,0.23978
4233.6,0.24280
4227.81,0.24546
4222.02,0.24802
4216.24,0.25281
4210.45,0.25644
4204.66,0.25938
4198.88,0.26123
4193.09,0.26370
4187.31,0.26389
4181.52,0.26514
4175.73,0.26539
4169.95,0.26512
4164.16,0.26511
4158.37,0.26711
4152.59,0.26935
4146.8,0.27248
4141.02,0.27646
4135.23,0.27912
4129.44,0.28122
4123.66,0.28113
4117.87,0.28323
4112.09,0.28275
4106.3,0.28123
4100.51,0.28055
4094.73,0.27924
4088.94,0.27813
4083.15,0.27626
4077.37,0.27168
4071.58,0.26372
4065.8,0.25316
4060.01,0.25239
4054.22,0.25969
4048.44,0.26531
4042.65,0.26801
4036.86,0.26936
4031.08,0.27089
4025.29,0.27213
4019.51,0.27372
4013.72,0.27347
4007.93,0.27361
4002.15,0.27276
3996.36,0.27227
3990.57,0.27222
3984.79,0.27145
3979,0.27036
3973.22,0.27030
3967.43,0.26953
3961.64,0.26883
3955.86,0.26736
3950.07,0.26694
3944.28,0.26746
3938.5,0.26939
3932.71,0.27175
3926.93,0.27545
3921.14,0.27980
3915.35,0.28290
3909.57,0.28551
3903.78,0.28764
3897.99,0.28866
3892.21,0.28999
3886.42,0.29227
3880.64,0.29456
3874.85,0.29701
3869.06,0.29959
3863.28,0.30086
3857.49,0.30369
3851.7,0.30475
3845.92,0.30706
3840.13,0.30968
3834.35,0.31065
3828.56,0.31196
3822.77,0.31241
3816.99,0.31400
3811.2,0.31574
3805.41,0.31730
3799.63,0.31810
3793.84,0.31889
3788.06,0.31963
3782.27,0.31905
3776.48,0.31803
3770.7,0.31789
3764.91,0.31672
3759.12,0.31689
3753.34,0.31694
3747.55,0.31684
3741.77,0.31645
3735.98,0.31576
3730.19,0.31513
3724.41,0.31395
3718.62,0.31186
3712.83,0.30983
3707.05,0.30563
3701.26,0.29937
3695.48,0.29304
3689.69,0.28530
3683.9,0.27291
3678.12,0.26066
3672.33,0.25050
3666.54,0.24192
3660.76,0.23434
3654.97,0.22495
3649.19,0.21470
3643.4,0.20391
3637.61,0.19384
3631.83,0.18442
3626.04,0.17308
3620.25,0.16290
3614.47,0.15438
3608.68,0.14551
3602.9,0.13949
3597.11,0.13408
3591.32,0.12856
3585.54,0.12249
3579.75,0.11822
3573.97,0.11369
3568.18,0.10863
3562.39,0.10451
3556.61,0.10123
3550.82,0.09797
3545.03,0.09586
3539.25,0.09242
3533.46,0.08909
3527.68,0.08728
3521.89,0.08616
3516.1,0.08335
3510.32,0.08207
3504.53,0.08027
3498.74,0.07816
3492.96,0.07658
3487.17,0.07493
3481.39,0.07400
3475.6,0.07167
3469.81,0.07075
3464.03,0.06988
3458.24,0.06878
3452.45,0.06733
3446.67,0.06586
3440.88,0.06508
3435.1,0.06456
3429.31,0.06402
3423.52,0.06302
3417.74,0.06300
3411.95,0.06172
3406.16,0.06156
3400.38,0.06144
3394.59,0.06053
3388.81,0.06047
3383.02,0.05986
3377.23,0.05963
3371.45,0.05920
3365.66,0.05846
3359.87,0.05829
3354.09,0.05797
3348.3,0.05775
3342.52,0.05710
3336.73,0.05692
3330.94,0.05709
3325.16,0.05752
3319.37,0.05746
3313.58,0.05723
3307.8,0.05712
3302.01,0.05692
3296.23,0.05809
3290.44,0.05803
3284.65,0.05858
3278.87,0.05932
3273.08,0.06032
3267.29,0.05991
3261.51,0.06134
3255.72,0.06254
3249.94,0.06400
3244.15,0.06509
3238.36,0.06665
3232.58,0.06726
3226.79,0.06764
3221,0.06847
3215.22,0.06950
3209.43,0.07046
3203.65,0.07107
3197.86,0.07208
3192.07,0.07345
3186.29,0.07385
3180.5,0.07482
3174.71,0.07646
3168.93,0.07777
3163.14,0.07865
3157.36,0.07912
3151.57,0.08031
3145.78,0.08099
3140,0.08242
3134.21,0.08304
3128.42,0.08355
3122.64,0.08377
3116.85,0.08402
3111.07,0.08353
3105.28,0.08366
3099.49,0.08362
3093.71,0.08301
3087.92,0.08182
3082.14,0.08144
3076.35,0.08029
3070.56,0.07942
3064.78,0.07851
3058.99,0.07746
3053.2,0.07613
3047.42,0.07226
3041.63,0.06774
3035.85,0.06419
3030.06,0.06156
3024.27,0.06204
3018.49,0.06325
3012.7,0.06225
3006.91,0.05873
3001.13,0.05494
2995.34,0.04963
2989.56,0.04493
2983.77,0.04114
2977.98,0.03797
2972.2,0.03407
2966.41,0.03117
2960.62,0.02975
2954.84,0.03047
2949.05,0.03066
2943.27,0.03011
2937.48,0.02889
2931.69,0.02830
2925.91,0.02812
2920.12,0.02888
2914.33,0.03082
2908.55,0.03210
2902.76,0.03380
2896.98,0.03543
2891.19,0.03621
2885.4,0.03744
2879.62,0.03774
2873.83,0.03764
2868.04,0.03733
2862.26,0.03533
2856.47,0.03384
2850.69,0.03410
2844.9,0.03935
2839.11,0.04753
2833.33,0.05682
2827.54,0.06676
2821.75,0.07537
2815.97,0.08188
2810.18,0.08769
2804.4,0.09327
2798.61,0.09918
2792.82,0.10559
2787.04,0.11091
2781.25,0.11507
2775.46,0.11905
2769.68,0.12141
2763.89,0.12399
2758.11,0.12609
2752.32,0.12818
2746.53,0.12905
2740.75,0.12832
2734.96,0.12356
2729.17,0.11335
2723.39,0.11503
2717.6,0.12991
2711.82,0.13739
2706.03,0.14004
2700.24,0.14144
2694.46,0.14114
2688.67,0.14101
2682.88,0.14176
2677.1,0.14272
2671.31,0.14329
2665.53,0.14304
2659.74,0.14215
2653.95,0.14127
2648.17,0.13844
2642.38,0.13518
2636.59,0.13030
2630.81,0.12455
2625.02,0.12081
2619.24,0.12146
2613.45,0.12037
2607.66,0.11866
2601.88,0.11670
2596.09,0.11396
2590.3,0.11035
2584.52,0.10811
2578.73,0.10751
2572.95,0.10678
2567.16,0.10643
2561.37,0.10302
2555.59,0.09998
2549.8,0.09693
2544.02,0.09420
2538.23,0.08883
2532.44,0.08263
2526.66,0.07744
2520.87,0.07462
2515.08,0.07560
2509.3,0.08056
2503.51,0.08945
2497.73,0.09975
2491.94,0.11127
2486.15,0.12437
2480.37,0.13929
2474.58,0.15366
2468.79,0.16476
2463.01,0.17319
2457.22,0.17953
2451.44,0.18507
2445.65,0.19042
2439.86,0.19448
2434.08,0.19855
2428.29,0.20204
2422.5,0.20492
2416.72,0.20722
2410.93,0.20932
2405.15,0.21169
2399.36,0.21498
2393.57,0.21897
2387.79,0.22187
2382,0.22426
2376.21,0.22690
2370.43,0.22879
2364.64,0.23012
2358.86,0.23122
2353.07,0.23258
2347.28,0.23376
2341.5,0.23321
2335.71,0.23404
2329.92,0.23499
2324.14,0.23555
2318.35,0.23588
2312.57,0.23695
2306.78,0.23915
2300.99,0.24129
2295.21,0.24259
2289.42,0.24199
2283.63,0.24121
2277.85,0.24018
2272.06,0.23853
2266.28,0.23625
2260.49,0.23201
2254.7,0.22523
2248.92,0.21184
2243.13,0.19945
2237.34,0.20763
2231.56,0.22613
2225.77,0.23189
2219.99,0.23199
2214.2,0.23097
2208.41,0.23020
2202.63,0.22950
2196.84,0.22777
2191.05,0.22595
2185.27,0.22368
2179.48,0.22130
2173.7,0.21806
2167.91,0.21486
2162.12,0.21208
2156.34,0.20858
2150.55,0.20546
2144.76,0.20461
2138.98,0.20746
2133.19,0.21201
2127.41,0.21768
2121.62,0.22384
2115.83,0.22885
2110.05,0.23114
2104.26,0.23245
2098.47,0.23307
2092.69,0.23256
2086.9,0.23215
2081.12,0.23078
2075.33,0.22912
2069.54,0.22777
2063.76,0.22708
2057.97,0.22580
2052.19,0.22440
2046.4,0.22276
2040.61,0.22172
2034.83,0.22206
2029.04,0.22325
2023.25,0.22559
2017.47,0.22798
2011.68,0.23013
2005.9,0.23232
2000.11,0.23410
1994.32,0.23508
1988.54,0.23415
1982.75,0.23266
1976.96,0.22937
1971.18,0.22788
1965.39,0.22451
1959.61,0.22082
1953.82,0.22417
1948.03,0.22411
1942.25,0.22250
1936.46,0.22356
1930.67,0.22562
1924.89,0.22570
1919.1,0.22403
1913.32,0.22188
1907.53,0.21834
1901.74,0.21392
1895.96,0.20980
1890.17,0.20505
1884.38,0.20053
1878.6,0.19672
1872.81,0.19300
1867.03,0.18846
1861.24,0.18550
1855.45,0.18124
1849.67,0.17544
1843.88,0.16630
1838.09,0.15316
1832.31,0.13588
1826.52,0.11681
1820.74,0.10539
1814.95,0.09876
1809.16,0.08805
1803.38,0.07069
1797.59,0.06109
1791.8,0.06525
1786.02,0.08118
1780.23,0.09281
1774.45,0.09580
1768.66,0.09076
1762.87,0.08298
1757.09,0.07067
1751.3,0.05711
1745.51,0.04623
1739.73,0.04118
1733.94,0.04012
1728.16,0.03999
1722.37,0.03986
1716.58,0.04175
1710.8,0.04471
1705.01,0.04790
1699.22,0.04958
1693.44,0.04920
1687.65,0.04702
1681.87,0.04446
1676.08,0.04221
1670.29,0.03937
1664.51,0.03712
1658.72,0.03698
1652.93,0.03825
1647.15,0.03880
1641.36,0.03913
1635.58,0.04051
1629.79,0.04123
1624,0.04212
1618.22,0.04369
1612.43,0.04513
1606.64,0.04554
1600.86,0.04640
1595.07,0.04760
1589.29,0.04980
1583.5,0.05132
1577.71,0.05414
1571.93,0.05744
1566.14,0.05986
1560.35,0.06096
1554.57,0.06057
1548.78,0.05965
1543,0.05847
1537.21,0.05876
1531.42,0.06057
1525.64,0.06036
1519.85,0.05919
1514.07,0.05706
1508.28,0.05548
1502.49,0.05233
1496.71,0.04889
1490.92,0.04726
1485.13,0.04486
1479.35,0.04195
1473.56,0.03896
1467.78,0.03623
1461.99,0.03465
1456.2,0.03415
1450.42,0.03372
1444.63,0.03389
1438.84,0.03475
1433.06,0.03546
1427.27,0.03661
1421.49,0.03787
1415.7,0.03810
1409.91,0.03880
1404.13,0.03864
1398.34,0.03863
1392.55,0.03906
1386.77,0.03960
1380.98,0.03816
1375.2,0.03799
1369.41,0.04152
1363.62,0.04333
1357.84,0.04495
1352.05,0.04769
1346.26,0.04964
1340.48,0.05104
1334.69,0.05150
1328.91,0.05148
1323.12,0.05093
1317.33,0.05073
1311.55,0.05075
1305.76,0.05088
1299.97,0.05194
1294.19,0.05328
1288.4,0.05264
1282.62,0.05252
1276.83,0.05188
1271.04,0.05044
1265.26,0.04798
1259.47,0.04657
1253.68,0.04653
1247.9,0.04518
1242.11,0.04425
1236.33,0.04372
1230.54,0.04363
1224.75,0.04355
1218.97,0.04368
1213.18,0.04267
1207.39,0.04136
1201.61,0.04066
1195.82,0.04115
1190.04,0.04099
1184.25,0.04042
1178.46,0.03901
1172.68,0.03762
1166.89,0.03672
1161.1,0.03637
1155.32,0.03707
1149.53,0.03817
1143.75,0.03784
1137.96,0.03730
1132.17,0.03750
1126.39,0.03696
1120.6,0.03872
1114.81,0.03999
1109.03,0.04016
1103.24,0.03900
1097.46,0.03687
1091.67,0.03694
1085.88,0.03740
1080.1,0.03907
1074.31,0.04014
1068.52,0.04157
1062.74,0.04245
1056.95,0.04244
1051.17,0.04092
1045.38,0.04026
1039.59,0.04037
1033.81,0.04147
1028.02,0.04139
1022.24,0.04179
1016.45,0.04287
1010.66,0.04424
1004.88,0.04545
999.09,0.04559
993.304,0.04610
987.518,0.04776
981.731,0.04958
975.945,0.04867
970.159,0.04697
964.373,0.04873
958.586,0.05601
952.8,0.06082
947.014,0.06188
941.228,0.06172
935.441,0.06138
929.655,0.06189
923.869,0.06365
918.083,0.06348
912.297,0.06327
906.51,0.06678
900.724,0.07099
894.938,0.06925
889.152,0.06114
883.365,0.04520
877.579,0.03866
871.793,0.04020
866.007,0.05207
860.22,0.05729
854.434,0.05418
848.648,0.04803
842.862,0.05064
837.075,0.04984
831.289,0.05001
825.503,0.05154
819.717,0.05479
813.931,0.05732
808.144,0.05835
802.358,0.05913
796.572,0.06033
790.786,0.06383
784.999,0.06413
779.213,0.06357
773.427,0.05982
767.641,0.05533
761.854,0.05195
756.068,0.05085
750.282,0.05242
744.496,0.05105
738.709,0.04849
732.923,0.04235
727.137,0.03963
721.351,0.03899
715.565,0.03379
709.778,0.03722
703.992,0.04139
698.206,0.04478
692.42,0.05302
686.633,0.05555
680.847,0.05592
675.061,0.05391
669.275,0.05260
663.488,0.05140
657.702,0.04817
651.916,0.04808
646.13,0.04849
640.343,0.04856
634.557,0.04887
628.771,0.04509
622.985,0.04463
617.198,0.04214
611.412,0.03958
605.626,0.04007
599.84,0.03829