File: 01_Data/Rug_Pad/FTIR/IS/Rug_Pad_IS_S_220908_R3.dpt
7497.03,0.49724
7491.25,0.49995
7485.46,0.50021
7479.67,0.49763
7473.89,0.50496
7468.1,0.51049
7462.32,0.50062
7456.53,0.50090
7450.74,0.49604
7444.96,0.50068
7439.17,0.50961
7433.38,0.49261
7427.6,0.50126
7421.81,0.49166
7416.03,0.48276
7410.24,0.50840
7404.45,0.49110
7398.67,0.49896
7392.88,0.49648
7387.09,0.49786
7381.31,0.50309
7375.52,0.49851
7369.74,0.48979
7363.95,0.49132
7358.16,0.48147
7352.38,0.49519
7346.59,0.49114
7340.8,0.49096
7335.02,0.49086
7329.23,0.48782
7323.45,0.48975
7317.66,0.48201
7311.87,0.48150
7306.09,0.48887
7300.3,0.48370
7294.51,0.48316
7288.73,0.47521
7282.94,0.49201
7277.16,0.48461
7271.37,0.48216
7265.58,0.48341
7259.8,0.48290
7254.01,0.48151
7248.22,0.48210
7242.44,0.47496
7236.65,0.48458
7230.87,0.47474
7225.08,0.48076
7219.29,0.47833
7213.51,0.46916
7207.72,0.47308
7201.93,0.47279
7196.15,0.46897
7190.36,0.47478
7184.58,0.46886
7178.79,0.47196
7173,0.47609
7167.22,0.47200
7161.43,0.47115
7155.65,0.46932
7149.86,0.47073
7144.07,0.47086
7138.29,0.47683
7132.5,0.46979
7126.71,0.46965
7120.93,0.47000
7115.14,0.47460
7109.36,0.46667
7103.57,0.47058
7097.78,0.47381
7092,0.46614
7086.21,0.46617
7080.42,0.46592
7074.64,0.47115
7068.85,0.46669
7063.07,0.46855
7057.28,0.46092
7051.49,0.46575
7045.71,0.46622
7039.92,0.45992
7034.13,0.46279
7028.35,0.46504
7022.56,0.46736
7016.78,0.46834
7010.99,0.47095
7005.2,0.46443
6999.42,0.46744
6993.63,0.46767
6987.84,0.47012
6982.06,0.46004
6976.27,0.46921
6970.49,0.47409
6964.7,0.47032
6958.91,0.46582
6953.13,0.46532
6947.34,0.46849
6941.55,0.46737
6935.77,0.46846
6929.98,0.46812
6924.2,0.46709
6918.41,0.47231
6912.62,0.46797
6906.84,0.47359
6901.05,0.47042
6895.26,0.46847
6889.48,0.47199
6883.69,0.47477
6877.91,0.47445
6872.12,0.47154
6866.33,0.47649
6860.55,0.47874
6854.76,0.47559
6848.97,0.47257
6843.19,0.47675
6837.4,0.47579
6831.62,0.47754
6825.83,0.47788
6820.04,0.47283
6814.26,0.47820
6808.47,0.47823
6802.68,0.47955
6796.9,0.47921
6791.11,0.47834
6785.33,0.47591
6779.54,0.47733
6773.75,0.47794
6767.97,0.48181
6762.18,0.47971
6756.39,0.48289
6750.61,0.47926
6744.82,0.48250
6739.04,0.48368
6733.25,0.47947
6727.46,0.47631
6721.68,0.48221
6715.89,0.48000
6710.1,0.48369
6704.32,0.48020
6698.53,0.48516
6692.75,0.48368
6686.96,0.48416
6681.17,0.48786
6675.39,0.48510
6669.6,0.48274
6663.82,0.48769
6658.03,0.48428
6652.24,0.48637
6646.46,0.48784
6640.67,0.48689
6634.88,0.48695
6629.1,0.48671
6623.31,0.48749
6617.53,0.48739
6611.74,0.48668
6605.95,0.48642
6600.17,0.48797
6594.38,0.48961
6588.59,0.49263
6582.81,0.48820
6577.02,0.49062
6571.24,0.48975
6565.45,0.48206
6559.66,0.49002
6553.88,0.49105
6548.09,0.49568
6542.3,0.48988
6536.52,0.48967
6530.73,0.48873
6524.95,0.48803
6519.16,0.49218
6513.37,0.49196
6507.59,0.48911
6501.8,0.49588
6496.01,0.49413
6490.23,0.49651
6484.44,0.49220
6478.66,0.49044
6472.87,0.49096
6467.08,0.49009
6461.3,0.49345
6455.51,0.49139
6449.72,0.49116
6443.94,0.49320
6438.15,0.49418
6432.37,0.49179
6426.58,0.49137
6420.79,0.49154
6415.01,0.49193
6409.22,0.49627
6403.43,0.49216
6397.65,0.49226
6391.86,0.49299
6386.08,0.48900
6380.29,0.49039
6374.5,0.49435
6368.72,0.49103
6362.93,0.49158
6357.14,0.49264
6351.36,0.49099
6345.57,0.49173
6339.79,0.49375
6334,0.49254
6328.21,0.49460
6322.43,0.49014
6316.64,0.49106
6310.85,0.49341
6305.07,0.49161
6299.28,0.49226
6293.5,0.49275
6287.71,0.49345
6281.92,0.49441
6276.14,0.49596
6270.35,0.49848
6264.56,0.49738
6258.78,0.49064
6252.99,0.49307
6247.21,0.49281
6241.42,0.49431
6235.63,0.49665
6229.85,0.49413
6224.06,0.49375
6218.27,0.49388
6212.49,0.49684
6206.7,0.49649
6200.92,0.49338
6195.13,0.49025
6189.34,0.49403
6183.56,0.49681
6177.77,0.49578
6171.98,0.49471
6166.2,0.49485
6160.41,0.49450
6154.63,0.49493
6148.84,0.48958
6143.05,0.49354
6137.27,0.49073
6131.48,0.49081
6125.7,0.49043
6119.91,0.48784
6114.12,0.48598
6108.34,0.48772
6102.55,0.48524
6096.76,0.48293
6090.98,0.48449
6085.19,0.48634
6079.41,0.48763
6073.62,0.48027
6067.83,0.48253
6062.05,0.48360
6056.26,0.48381
6050.47,0.48059
6044.69,0.47989
6038.9,0.48031
6033.12,0.47800
6027.33,0.47546
6021.54,0.47265
6015.76,0.47192
6009.97,0.47061
6004.18,0.46902
5998.4,0.46629
5992.61,0.46815
5986.83,0.46523
5981.04,0.46326
5975.25,0.45873
5969.47,0.45855
5963.68,0.45693
5957.89,0.45357
5952.11,0.44947
5946.32,0.44755
5940.54,0.44444
5934.75,0.44145
5928.96,0.43940
5923.18,0.43529
5917.39,0.42507
5911.6,0.42013
5905.82,0.41116
5900.03,0.40329
5894.25,0.39624
5888.46,0.38719
5882.67,0.38523
5876.89,0.38371
5871.1,0.38539
5865.31,0.38888
5859.53,0.37875
5853.74,0.37302
5847.96,0.36324
5842.17,0.35431
5836.38,0.34999
5830.6,0.34778
5824.81,0.34868
5819.02,0.34895
5813.24,0.34959
5807.45,0.35345
5801.67,0.35533
5795.88,0.35893
5790.09,0.36448
5784.31,0.36619
5778.52,0.37046
5772.73,0.37521
5766.95,0.37930
5761.16,0.38142
5755.38,0.38158
5749.59,0.38282
5743.8,0.38249
5738.02,0.38017
5732.23,0.38066
5726.44,0.38169
5720.66,0.37977
5714.87,0.37792
5709.09,0.38071
5703.3,0.38052
5697.51,0.37979
5691.73,0.38095
5685.94,0.38233
5680.15,0.38052
5674.37,0.38041
5668.58,0.38380
5662.8,0.38707
5657.01,0.38804
5651.22,0.39295
5645.44,0.39091
5639.65,0.39099
5633.87,0.39093
5628.08,0.38930
5622.29,0.38682
5616.51,0.38600
5610.72,0.39016
5604.93,0.39606
5599.15,0.40202
5593.36,0.40909
5587.58,0.41439
5581.79,0.41996
5576,0.42379
5570.22,0.42755
5564.43,0.43191
5558.64,0.43321
5552.86,0.43486
5547.07,0.43693
5541.29,0.43925
5535.5,0.44065
5529.71,0.44190
5523.93,0.44295
5518.14,0.44278
5512.35,0.44334
5506.57,0.44462
5500.78,0.44473
5495,0.44579
5489.21,0.44613
5483.42,0.44627
5477.64,0.44713
5471.85,0.44543
5466.06,0.44810
5460.28,0.44713
5454.49,0.44703
5448.71,0.44607
5442.92,0.44639
5437.13,0.44750
5431.35,0.44753
5425.56,0.44627
5419.77,0.44798
5413.99,0.44790
5408.2,0.44597
5402.42,0.44664
5396.63,0.44709
5390.84,0.44699
5385.06,0.44760
5379.27,0.44666
5373.48,0.44763
5367.7,0.44829
5361.91,0.44797
5356.13,0.44726
5350.34,0.44809
5344.55,0.44826
5338.77,0.44713
5332.98,0.44525
5327.19,0.44652
5321.41,0.44575
5315.62,0.44660
5309.84,0.44735
5304.05,0.44869
5298.26,0.44805
5292.48,0.44827
5286.69,0.44770
5280.9,0.44728
5275.12,0.44580
5269.33,0.44632
5263.55,0.44187
5257.76,0.43900
5251.97,0.43844
5246.19,0.43734
5240.4,0.43511
5234.61,0.43514
5228.83,0.43335
5223.04,0.43007
5217.26,0.42981
5211.47,0.43010
5205.68,0.42845
5199.9,0.42803
5194.11,0.42731
5188.32,0.42620
5182.54,0.42702
5176.75,0.42721
5170.97,0.42494
5165.18,0.42572
5159.39,0.42646
5153.61,0.42665
5147.82,0.42842
5142.03,0.42888
5136.25,0.42793
5130.46,0.42978
5124.68,0.42867
5118.89,0.43043
5113.1,0.43037
5107.32,0.43052
5101.53,0.43350
5095.75,0.43380
5089.96,0.43192
5084.17,0.43368
5078.39,0.43447
5072.6,0.43468
5066.81,0.43350
5061.03,0.43431
5055.24,0.43637
5049.46,0.43501
5043.67,0.43590
5037.88,0.43641
5032.1,0.43578
5026.31,0.43644
5020.52,0.43607
5014.74,0.43762
5008.95,0.43666
5003.17,0.43698
4997.38,0.43696
4991.59,0.43654
4985.81,0.43471
4980.02,0.43432
4974.23,0.43546
4968.45,0.43432
4962.66,0.43314
4956.88,0.43272
4951.09,0.43161
4945.3,0.43119
4939.52,0.42982
4933.73,0.43045
4927.94,0.42938
4922.16,0.42881
4916.37,0.42801
4910.59,0.42829
4904.8,0.42804
4899.01,0.42858
4893.23,0.42771
4887.44,0.42698
4881.65,0.42629
4875.87,0.42580
4870.08,0.42393
4864.3,0.42422
4858.51,0.42352
4852.72,0.42387
4846.94,0.42416
4841.15,0.42426
4835.36,0.42252
4829.58,0.42237
4823.79,0.42096
4818.01,0.42081
4812.22,0.42028
4806.43,0.41839
4800.65,0.41904
4794.86,0.41954
4789.07,0.41771
4783.29,0.41844
4777.5,0.41674
4771.72,0.41634
4765.93,0.41687
4760.14,0.41536
4754.36,0.41589
4748.57,0.41487
4742.78,0.41438
4737,0.41269
4731.21,0.41158
4725.43,0.40852
4719.64,0.40735
4713.85,0.40435
4708.07,0.40327
4702.28,0.40155
4696.49,0.40141
4690.71,0.40277
4684.92,0.40149
4679.14,0.40091
4673.35,0.39958
4667.56,0.39818
4661.78,0.39609
4655.99,0.39473
4650.2,0.39301
4644.42,0.38876
4638.63,0.38505
4632.85,0.38179
4627.06,0.38138
4621.27,0.38068
4615.49,0.38212
4609.7,0.38143
4603.92,0.38108
4598.13,0.38356
4592.34,0.38449
4586.56,0.38589
4580.77,0.38617
4574.98,0.38756
4569.2,0.38949
4563.41,0.39162
4557.63,0.39200
4551.84,0.39318
4546.05,0.39229
4540.27,0.39082
4534.48,0.38882
4528.69,0.38661
4522.91,0.38417
4517.12,0.38375
4511.34,0.38398
4505.55,0.38462
4499.76,0.38498
4493.98,0.38409
4488.19,0.38068
4482.4,0.37854
4476.62,0.37579
4470.83,0.37335
4465.05,0.37052
4459.26,0.36544
4453.47,0.36040
4447.69,0.35399
4441.9,0.34587
4436.11,0.33834
4430.33,0.33014
4424.54,0.31949
4418.76,0.30899
4412.97,0.29711
4407.18,0.28735
4401.4,0.27916
4395.61,0.27370
4389.82,0.26847
4384.04,0.26279
4378.25,0.25700
4372.47,0.25253
4366.68,0.24580
4360.89,0.24004
4355.11,0.23650
4349.32,0.23296
4343.53,0.22853
4337.75,0.22385
4331.96,0.22131
4326.18,0.22353
4320.39,0.23057
4314.6,0.23650
4308.82,0.23707
4303.03,0.23456
4297.24,0.23073
4291.46,0.22911
4285.67,0.23078
4279.89,0.23339
4274.1,0.23577
4268.31,0.23706
4262.53,0.23654
4256.74,0.23465
4250.95,0.23551
4245.17,0.23712
4239.38,0.23963
4233.6,0.24286
4227.81,0.24584
4222.02,0.24845
4216.24,0.25268
4210.45,0.25657
4204.66,0.25979
4198.88,0.26144
4193.09,0.26308
4187.31,0.26431
4181.52,0.26532
4175.73,0.26568
4169.95,0.26515
4164.16,0.26508
4158.37,0.26618
4152.59,0.26906
4146.8,0.27199
4141.02,0.27546
4135.23,0.27854
4129.44,0.28054
4123.66,0.28178
4117.87,0.28248
4112.09,0.28229
4106.3,0.28133
4100.51,0.27992
4094.73,0.27900
4088.94,0.27774
4083.15,0.27634
4077.37,0.27157
4071.58,0.26324
4065.8,0.25301
4060.01,0.25186
4054.22,0.25971
4048.44,0.26513
4042.65,0.26799
4036.86,0.26942
4031.08,0.27048
4025.29,0.27172
4019.51,0.27305
4013.72,0.27408
4007.93,0.27252
4002.15,0.27211
3996.36,0.27242
3990.57,0.27172
3984.79,0.27119
3979,0.27067
3973.22,0.27001
3967.43,0.26916
3961.64,0.26832
3955.86,0.26682
3950.07,0.26669
3944.28,0.26739
3938.5,0.26882
3932.71,0.27165
3926.93,0.27543
3921.14,0.27888
3915.35,0.28232
3909.57,0.28510
3903.78,0.28638
3897.99,0.28821
3892.21,0.28903
3886.42,0.29125
3880.64,0.29321
3874.85,0.29519
3869.06,0.29792
3863.28,0.29971
3857.49,0.30306
3851.7,0.30355
3845.92,0.30635
3840.13,0.30820
3834.35,0.30934
3828.56,0.31093
3822.77,0.31261
3816.99,0.31361
3811.2,0.31484
3805.41,0.31571
3799.63,0.31602
3793.84,0.31717
3788.06,0.31730
3782.27,0.31663
3776.48,0.31625
3770.7,0.31589
3764.91,0.31549
3759.12,0.31507
3753.34,0.31485
3747.55,0.31475
3741.77,0.31452
3735.98,0.31382
3730.19,0.31282
3724.41,0.31106
3718.62,0.30914
3712.83,0.30700
3707.05,0.30230
3701.26,0.29657
3695.48,0.28936
3689.69,0.28108
3683.9,0.26833
3678.12,0.25566
3672.33,0.24418
3666.54,0.23580
3660.76,0.22798
3654.97,0.21782
3649.19,0.20685
3643.4,0.19625
3637.61,0.18558
3631.83,0.17636
3626.04,0.16549
3620.25,0.15611
3614.47,0.14706
3608.68,0.14000
3602.9,0.13427
3597.11,0.12803
3591.32,0.12298
3585.54,0.11730
3579.75,0.11289
3573.97,0.10918
3568.18,0.10471
3562.39,0.10079
3556.61,0.09747
3550.82,0.09419
3545.03,0.09134
3539.25,0.08898
3533.46,0.08650
3527.68,0.08448
3521.89,0.08209
3516.1,0.08036
3510.32,0.07944
3504.53,0.07702
3498.74,0.07606
3492.96,0.07388
3487.17,0.07289
3481.39,0.07172
3475.6,0.07006
3469.81,0.06864
3464.03,0.06752
3458.24,0.06615
3452.45,0.06541
3446.67,0.06490
3440.88,0.06383
3435.1,0.06306
3429.31,0.06244
3423.52,0.06237
3417.74,0.06105
3411.95,0.06078
3406.16,0.05999
3400.38,0.05982
3394.59,0.05951
3388.81,0.05912
3383.02,0.05856
3377.23,0.05795
3371.45,0.05819
3365.66,0.05763
3359.87,0.05733
3354.09,0.05713
3348.3,0.05663
3342.52,0.05620
3336.73,0.05646
3330.94,0.05648
3325.16,0.05601
3319.37,0.05629
3313.58,0.05618
3307.8,0.05592
3302.01,0.05708
3296.23,0.05670
3290.44,0.05758
3284.65,0.05704
3278.87,0.05769
3273.08,0.05868
3267.29,0.05913
3261.51,0.06073
3255.72,0.06107
3249.94,0.06298
3244.15,0.06414
3238.36,0.06498
3232.58,0.06483
3226.79,0.06657
3221,0.06783
3215.22,0.06791
3209.43,0.06919
3203.65,0.06994
3197.86,0.07109
3192.07,0.07250
3186.29,0.07331
3180.5,0.07349
3174.71,0.07450
3168.93,0.07603
3163.14,0.07698
3157.36,0.07843
3151.57,0.07929
3145.78,0.07974
3140,0.07993
3134.21,0.08121
3128.42,0.08155
3122.64,0.08179
3116.85,0.08225
3111.07,0.08150
3105.28,0.08224
3099.49,0.08215
3093.71,0.08153
3087.92,0.08053
3082.14,0.07925
3076.35,0.07919
3070.56,0.07882
3064.78,0.07642
3058.99,0.07620
3053.2,0.07498
3047.42,0.07155
3041.63,0.06700
3035.85,0.06350
3030.06,0.06118
3024.27,0.06112
3018.49,0.06263
3012.7,0.06152
3006.91,0.05914
3001.13,0.05428
2995.34,0.05006
2989.56,0.04482
2983.77,0.04067
2977.98,0.03820
2972.2,0.03419
2966.41,0.03106
2960.62,0.02992
2954.84,0.03052
2949.05,0.03039
2943.27,0.03032
2937.48,0.02909
2931.69,0.02797
2925.91,0.02858
2920.12,0.02877
2914.33,0.03011
2908.55,0.03177
2902.76,0.03385
2896.98,0.03533
2891.19,0.03685
2885.4,0.03743
2879.62,0.03758
2873.83,0.03722
2868.04,0.03690
2862.26,0.03517
2856.47,0.03389
2850.69,0.03400
2844.9,0.03934
2839.11,0.04771
2833.33,0.05670
2827.54,0.06712
2821.75,0.07521
2815.97,0.08168
2810.18,0.08817
2804.4,0.09337
2798.61,0.09867
2792.82,0.10535
2787.04,0.11049
2781.25,0.11493
2775.46,0.11857
2769.68,0.12118
2763.89,0.12339
2758.11,0.12582
2752.32,0.12734
2746.53,0.12824
2740.75,0.12754
2734.96,0.12293
2729.17,0.11366
2723.39,0.11524
2717.6,0.12919
2711.82,0.13658
2706.03,0.13963
2700.24,0.14036
2694.46,0.14115
2688.67,0.14111
2682.88,0.14125
2677.1,0.14210
2671.31,0.14208
2665.53,0.14204
2659.74,0.14211
2653.95,0.14061
2648.17,0.13829
2642.38,0.13514
2636.59,0.13003
2630.81,0.12406
2625.02,0.12113
2619.24,0.12076
2613.45,0.12027
2607.66,0.11881
2601.88,0.11671
2596.09,0.11369
2590.3,0.11093
2584.52,0.10855
2578.73,0.10740
2572.95,0.10686
2567.16,0.10580
2561.37,0.10310
2555.59,0.09945
2549.8,0.09672
2544.02,0.09432
2538.23,0.08892
2532.44,0.08260
2526.66,0.07681
2520.87,0.07423
2515.08,0.07593
2509.3,0.08022
2503.51,0.08922
2497.73,0.10009
2491.94,0.11162
2486.15,0.12443
2480.37,0.13900
2474.58,0.15333
2468.79,0.16451
2463.01,0.17244
2457.22,0.17882
2451.44,0.18482
2445.65,0.18977
2439.86,0.19426
2434.08,0.19814
2428.29,0.20165
2422.5,0.20418
2416.72,0.20637
2410.93,0.20823
2405.15,0.21122
2399.36,0.21486
2393.57,0.21804
2387.79,0.22142
2382,0.22392
2376.21,0.22644
2370.43,0.22755
2364.64,0.22960
2358.86,0.23098
2353.07,0.23194
2347.28,0.23257
2341.5,0.23207
2335.71,0.23255
2329.92,0.23392
2324.14,0.23462
2318.35,0.23512
2312.57,0.23584
2306.78,0.23761
2300.99,0.23964
2295.21,0.24069
2289.42,0.24057
2283.63,0.24019
2277.85,0.23869
2272.06,0.23692
2266.28,0.23470
2260.49,0.23096
2254.7,0.22383
2248.92,0.21044
2243.13,0.19829
2237.34,0.20632
2231.56,0.22446
2225.77,0.23006
2219.99,0.23014
2214.2,0.22960
2208.41,0.22839
2202.63,0.22715
2196.84,0.22578
2191.05,0.22374
2185.27,0.22212
2179.48,0.21945
2173.7,0.21616
2167.91,0.21313
2162.12,0.21004
2156.34,0.20691
2150.55,0.20357
2144.76,0.20319
2138.98,0.20577
2133.19,0.21018
2127.41,0.21573
2121.62,0.22210
2115.83,0.22651
2110.05,0.22916
2104.26,0.23021
2098.47,0.23063
2092.69,0.23056
2086.9,0.22982
2081.12,0.22813
2075.33,0.22688
2069.54,0.22592
2063.76,0.22491
2057.97,0.22372
2052.19,0.22226
2046.4,0.22090
2040.61,0.21997
2034.83,0.21977
2029.04,0.22139
2023.25,0.22358
2017.47,0.22615
2011.68,0.22843
2005.9,0.23049
2000.11,0.23212
1994.32,0.23276
1988.54,0.23231
1982.75,0.23094
1976.96,0.22751
1971.18,0.22647
1965.39,0.22348
1959.61,0.21984
1953.82,0.22328
1948.03,0.22268
1942.25,0.22127
1936.46,0.22259
1930.67,0.22463
1924.89,0.22480
1919.1,0.22339
1913.32,0.22082
1907.53,0.21762
1901.74,0.21297
1895.96,0.20893
1890.17,0.20402
1884.38,0.19928
1878.6,0.19607
1872.81,0.19219
1867.03,0.18795
1861.24,0.18455
1855.45,0.18066
1849.67,0.17486
1843.88,0.16555
1838.09,0.15284
1832.31,0.13540
1826.52,0.11647
1820.74,0.10524
1814.95,0.09821
1809.16,0.08800
1803.38,0.07043
1797.59,0.06081
1791.8,0.06517
1786.02,0.08103
1780.23,0.09263
1774.45,0.09534
1768.66,0.09064
1762.87,0.08281
1757.09,0.07036
1751.3,0.05697
1745.51,0.04622
1739.73,0.04108
1733.94,0.04039
1728.16,0.04016
1722.37,0.04011
1716.58,0.04114
1710.8,0.04433
1705.01,0.04778
1699.22,0.05000
1693.44,0.04866
1687.65,0.04716
1681.87,0.04425
1676.08,0.04191
1670.29,0.03856
1664.51,0.03640
1658.72,0.03695
1652.93,0.03757
1647.15,0.03847
1641.36,0.03890
1635.58,0.03983
1629.79,0.04076
1624,0.04179
1618.22,0.04358
1612.43,0.04487
1606.64,0.04552
1600.86,0.04623
1595.07,0.04766
1589.29,0.04940
1583.5,0.05143
1577.71,0.05404
1571.93,0.05767
1566.14,0.05949
1560.35,0.06070
1554.57,0.06006
1548.78,0.05923
1543,0.05855
1537.21,0.05849
1531.42,0.06032
1525.64,0.06058
1519.85,0.05881
1514.07,0.05682
1508.28,0.05497
1502.49,0.05200
1496.71,0.04916
1490.92,0.04723
1485.13,0.04474
1479.35,0.04199
1473.56,0.03904
1467.78,0.03650
1461.99,0.03456
1456.2,0.03396
1450.42,0.03324
1444.63,0.03385
1438.84,0.03426
1433.06,0.03559
1427.27,0.03709
1421.49,0.03811
1415.7,0.03794
1409.91,0.03847
1404.13,0.03804
1398.34,0.03825
1392.55,0.03898
1386.77,0.03910
1380.98,0.03835
1375.2,0.03814
1369.41,0.04147
1363.62,0.04352
1357.84,0.04498
1352.05,0.04788
1346.26,0.04963
1340.48,0.05096
1334.69,0.05172
1328.91,0.05137
1323.12,0.05101
1317.33,0.05036
1311.55,0.05042
1305.76,0.05096
1299.97,0.05191
1294.19,0.05293
1288.4,0.05231
1282.62,0.05236
1276.83,0.05209
1271.04,0.05049
1265.26,0.04780
1259.47,0.04623
1253.68,0.04639
1247.9,0.04546
1242.11,0.04418
1236.33,0.04338
1230.54,0.04334
1224.75,0.04384
1218.97,0.04325
1213.18,0.04250
1207.39,0.04095
1201.61,0.04081
1195.82,0.04129
1190.04,0.04057
1184.25,0.03978
1178.46,0.03883
1172.68,0.03814
1166.89,0.03688
1161.1,0.03686
1155.32,0.03711
1149.53,0.03782
1143.75,0.03801
1137.96,0.03758
1132.17,0.03746
1126.39,0.03729
1120.6,0.03878
1114.81,0.04031
1109.03,0.03995
1103.24,0.03920
1097.46,0.03755
1091.67,0.03710
1085.88,0.03669
1080.1,0.03875
1074.31,0.04011
1068.52,0.04227
1062.74,0.04216
1056.95,0.04120
1051.17,0.04074
1045.38,0.04034
1039.59,0.03993
1033.81,0.04068
1028.02,0.04167
1022.24,0.04236
1016.45,0.04230
1010.66,0.04384
1004.88,0.04432
999.09,0.04530
993.304,0.04624
987.518,0.04811
981.731,0.04907
975.945,0.04940
970.159,0.04678
964.373,0.04860
958.586,0.05563
952.8,0.06082
947.014,0.06193
941.228,0.06180
935.441,0.06199
929.655,0.06268
923.869,0.06307
918.083,0.06342
912.297,0.06374
906.51,0.06671
900.724,0.07054
894.938,0.06882
889.152,0.06055
883.365,0.04455
877.579,0.03789
871.793,0.04019
866.007,0.05173
860.22,0.05686
854.434,0.05409
848.648,0.04879
842.862,0.05065
837.075,0.04841
831.289,0.04967
825.503,0.05143
819.717,0.05451
813.931,0.05723
808.144,0.05828
802.358,0.05780
796.572,0.05867
790.786,0.06188
784.999,0.06402
779.213,0.06274
773.427,0.05858
767.641,0.05458
761.854,0.05127
756.068,0.05067
750.282,0.05143
744.496,0.05053
738.709,0.04667
732.923,0.04174
727.137,0.03838
721.351,0.03785
715.565,0.03295
709.778,0.03658
703.992,0.04088
698.206,0.04394
692.42,0.05248
686.633,0.05467
680.847,0.05392
675.061,0.05256
669.275,0.05154
663.488,0.05073
657.702,0.04819
651.916,0.04820
646.13,0.04697
640.343,0.04613
634.557,0.04539
628.771,0.04770
622.985,0.04188
617.198,0.04274
611.412,0.04217
605.626,0.04089
599.84,0.03552