File: 01_Data/OSB/Cone/OSB_HRRPUA_75.csv
Time after Ignition,OSB_R1,OSB_R2,OSB_R3,Mean,Std. Dev.
0.0,6.7,24.5,18.8,16.7,9.1
0.5,8.3,30.7,31.0,23.3,13.0
1.0,17.2,42.9,47.9,36.0,16.4
1.5,24.3,53.8,58.5,45.5,18.5
2.0,35.7,64.2,77.9,59.3,21.6
2.5,48.1,79.3,94.9,74.1,23.8
3.0,62.7,90.5,107.9,87.0,22.8
3.5,79.4,103.3,126.8,103.2,23.7
4.0,98.4,113.2,139.7,117.1,20.9
4.5,121.3,129.7,150.4,133.8,15.0
5.0,139.2,147.7,168.3,151.8,15.0
5.5,159.3,156.8,178.8,165.0,12.0
6.0,177.7,172.9,198.4,183.0,13.6
6.5,198.4,183.9,206.6,196.3,11.5
7.0,210.1,200.8,227.2,212.7,13.4
7.5,223.7,213.4,244.7,227.3,15.9
8.0,236.7,220.4,253.1,236.7,16.4
8.5,244.8,234.3,266.5,248.5,16.4
9.0,260.6,248.7,276.3,261.8,13.8
9.5,265.5,264.1,289.2,272.9,14.1
10.0,276.8,275.1,296.8,282.9,12.1
10.5,294.6,278.2,310.9,294.6,16.3
11.0,281.7,289.8,325.0,298.8,23.0
11.5,301.6,304.0,321.7,309.1,11.0
12.0,304.1,308.1,328.8,313.7,13.3
12.5,309.3,317.7,334.1,320.4,12.6
13.0,315.5,317.5,337.4,323.5,12.1
13.5,318.3,318.3,348.1,328.3,17.2
14.0,326.3,333.8,355.2,338.5,15.0
14.5,321.4,331.3,360.3,337.7,20.2
15.0,330.3,333.6,355.7,339.8,13.8
15.5,333.1,346.5,360.7,346.8,13.8
16.0,339.9,342.2,351.3,344.5,6.1
16.5,341.5,346.6,365.4,351.1,12.6
17.0,341.8,342.4,369.7,351.3,15.9
17.5,342.2,350.7,364.4,352.4,11.2
18.0,342.1,355.7,360.1,352.6,9.4
18.5,347.4,360.9,367.0,358.4,10.1
19.0,359.8,362.6,373.0,365.1,7.0
19.5,356.0,355.5,368.5,360.0,7.3
20.0,353.2,366.9,381.5,367.2,14.2
20.5,352.9,372.4,357.9,361.0,10.1
21.0,353.5,367.9,372.6,364.7,10.0
21.5,346.9,379.8,372.3,366.3,17.2
22.0,345.1,358.1,361.7,355.0,8.8
22.5,355.0,367.2,369.0,363.7,7.6
23.0,350.5,364.5,357.7,357.6,7.0
23.5,358.8,375.5,353.9,362.7,11.3
24.0,349.6,374.9,371.6,365.4,13.7
24.5,350.9,364.9,377.5,364.4,13.3
25.0,345.0,368.8,361.1,358.3,12.1
25.5,341.8,362.7,358.3,354.3,11.0
26.0,353.0,369.1,367.8,363.3,8.9
26.5,341.6,366.2,367.7,358.5,14.7
27.0,336.9,358.2,367.7,354.3,15.8
27.5,346.5,374.4,359.8,360.2,13.9
28.0,338.5,364.3,363.0,355.3,14.6
28.5,339.2,365.7,366.5,357.1,15.5
29.0,335.9,363.6,359.9,353.1,15.0
29.5,335.0,360.1,360.5,351.9,14.6
30.0,336.4,371.5,367.2,358.4,19.2
30.5,341.6,364.3,351.7,352.6,11.4
31.0,339.5,363.5,365.7,356.2,14.5
31.5,344.3,368.6,361.7,358.2,12.5
32.0,332.5,359.1,358.3,350.0,15.1
32.5,347.9,372.4,362.2,360.9,12.3
33.0,338.2,369.7,356.3,354.7,15.8
33.5,337.2,367.9,355.1,353.4,15.4
34.0,336.0,355.3,348.8,346.7,9.8
34.5,327.9,363.7,356.5,349.4,19.0
35.0,336.0,354.1,350.0,346.7,9.5
35.5,337.8,357.8,352.5,349.4,10.4
36.0,329.4,362.3,349.9,347.2,16.6
36.5,330.9,356.6,347.9,345.1,13.1
37.0,326.5,351.7,354.1,344.1,15.3
37.5,325.8,354.4,351.5,343.9,15.8
38.0,335.0,357.2,353.6,348.6,11.9
38.5,337.8,352.9,353.6,348.1,8.9
39.0,329.9,354.6,348.7,344.4,12.9
39.5,328.7,351.6,357.7,346.0,15.3
40.0,327.8,348.7,357.1,344.5,15.1
40.5,321.9,357.9,357.8,345.9,20.7
41.0,325.9,352.6,355.2,344.6,16.2
41.5,327.0,349.7,353.0,343.2,14.1
42.0,325.1,356.2,356.9,346.1,18.2
42.5,322.9,353.1,353.8,343.3,17.6
43.0,319.7,352.0,354.6,342.1,19.5
43.5,320.8,352.4,357.0,343.4,19.7
44.0,321.4,345.3,359.8,342.2,19.4
44.5,319.2,350.9,351.0,340.4,18.4
45.0,315.3,344.8,362.8,340.9,23.9
45.5,316.9,347.5,345.9,336.8,17.3
46.0,315.8,346.9,352.2,338.3,19.7
46.5,315.4,351.9,349.5,338.9,20.4
47.0,318.5,342.7,349.5,336.9,16.3
47.5,319.7,343.5,354.9,339.3,18.0
48.0,319.1,341.4,346.5,335.7,14.6
48.5,309.1,346.7,347.9,334.6,22.1
49.0,317.6,339.0,345.9,334.2,14.7
49.5,318.1,343.6,346.7,336.1,15.7
50.0,313.2,336.9,344.7,331.6,16.4
50.5,319.6,348.9,348.2,338.9,16.7
51.0,315.0,347.5,342.6,335.0,17.6
51.5,311.1,345.6,343.6,333.5,19.4
52.0,306.6,338.7,339.8,328.4,18.8
52.5,311.8,333.8,343.5,329.7,16.3
53.0,315.1,337.2,335.4,329.2,12.3
53.5,308.0,337.7,339.2,328.3,17.6
54.0,296.0,326.1,341.8,321.3,23.3
54.5,310.4,338.6,335.3,328.1,15.4
55.0,306.4,342.0,337.8,328.7,19.5
55.5,304.6,340.6,337.0,327.4,19.8
56.0,308.0,326.0,336.8,323.6,14.6
56.5,310.4,331.5,338.6,326.8,14.7
57.0,301.3,334.5,336.4,324.1,19.7
57.5,304.0,331.4,332.5,322.7,16.1
58.0,297.1,324.5,333.6,318.4,19.0
58.5,302.3,329.2,321.9,317.8,13.9
59.0,307.4,324.9,330.0,320.8,11.9
59.5,300.7,333.8,332.6,322.4,18.8
60.0,296.2,322.7,320.1,313.0,14.6
60.5,297.0,324.8,325.2,315.7,16.1
61.0,294.7,326.1,319.9,313.6,16.6
61.5,296.0,324.1,319.7,313.2,15.1
62.0,300.3,325.5,316.1,314.0,12.8
62.5,298.6,320.6,316.0,311.7,11.6
63.0,296.6,317.1,323.7,312.5,14.1
63.5,296.1,325.6,325.7,315.8,17.0
64.0,289.0,316.2,320.0,308.4,16.9
64.5,292.3,312.4,313.9,306.2,12.1
65.0,293.6,320.1,311.6,308.4,13.5
65.5,288.7,323.9,314.2,308.9,18.2
66.0,286.2,315.8,312.6,304.9,16.3
66.5,286.9,309.2,316.2,304.1,15.3
67.0,290.5,311.6,314.2,305.5,13.0
67.5,289.3,314.9,312.5,305.6,14.2
68.0,290.6,308.6,312.6,303.9,11.7
68.5,280.3,317.0,313.5,303.6,20.3
69.0,288.1,311.2,316.1,305.1,14.9
69.5,286.8,310.1,313.1,303.3,14.4
70.0,282.4,308.8,305.6,298.9,14.5
70.5,283.3,308.4,307.4,299.7,14.2
71.0,290.6,315.9,305.5,304.0,12.7
71.5,277.3,311.8,310.8,300.0,19.7
72.0,284.4,303.3,309.8,299.2,13.2
72.5,282.4,312.0,309.7,301.4,16.4
73.0,279.8,309.1,306.2,298.4,16.1
73.5,279.1,313.4,302.8,298.4,17.6
74.0,278.7,306.3,303.2,296.1,15.1
74.5,283.9,302.3,305.2,297.1,11.6
75.0,275.5,307.2,293.8,292.2,15.9
75.5,275.8,305.2,297.5,292.8,15.3
76.0,279.5,312.9,296.3,296.2,16.7
76.5,274.8,304.1,296.5,291.8,15.2
77.0,276.7,305.9,295.3,292.6,14.8
77.5,275.9,302.1,287.0,288.4,13.2
78.0,280.7,302.2,296.2,293.0,11.1
78.5,273.0,304.9,288.3,288.8,16.0
79.0,270.8,296.0,289.7,285.5,13.1
79.5,275.3,303.3,292.3,290.3,14.1
80.0,276.7,308.3,297.7,294.2,16.1
80.5,274.1,297.5,290.8,287.5,12.1
81.0,279.5,298.5,289.1,289.0,9.5
81.5,275.8,295.9,288.9,286.8,10.2
82.0,273.0,297.9,289.2,286.7,12.7
82.5,272.5,293.9,286.3,284.2,10.9
83.0,276.1,291.4,277.8,281.8,8.4
83.5,269.5,293.1,282.9,281.9,11.8
84.0,269.6,292.6,285.1,282.4,11.7
84.5,265.3,293.6,284.4,281.1,14.5
85.0,274.2,294.9,279.7,282.9,10.8
85.5,275.8,288.3,279.5,281.2,6.5
86.0,272.6,287.8,277.2,279.2,7.8
86.5,267.9,285.3,280.6,277.9,9.0
87.0,268.6,290.8,278.3,279.2,11.1
87.5,266.1,288.3,277.1,277.1,11.1
88.0,266.5,288.0,281.0,278.5,11.0
88.5,272.5,284.1,277.0,277.9,5.8
89.0,272.7,282.7,276.9,277.4,5.0
89.5,263.6,284.0,272.4,273.3,10.2
90.0,263.8,287.7,282.2,277.9,12.5
90.5,268.6,285.2,272.9,275.6,8.6
91.0,263.6,283.9,269.1,272.2,10.5
91.5,264.6,283.0,273.2,273.6,9.2
92.0,261.4,278.2,270.6,270.1,8.4
92.5,263.2,283.1,276.3,274.2,10.1
93.0,265.7,281.6,270.8,272.7,8.1
93.5,258.3,281.0,270.9,270.0,11.4
94.0,261.8,274.5,275.1,270.5,7.5
94.5,260.0,276.9,272.0,269.6,8.7
95.0,260.4,273.9,270.2,268.2,7.0
95.5,260.1,272.6,269.6,267.4,6.5
96.0,260.8,269.8,270.3,267.0,5.4
96.5,261.0,278.7,270.0,269.9,8.8
97.0,257.7,273.5,270.4,267.2,8.3
97.5,258.2,270.4,265.6,264.7,6.1
98.0,254.5,269.6,271.4,265.2,9.3
98.5,255.4,269.2,263.2,262.6,6.9
99.0,251.0,268.2,270.8,263.3,10.8
99.5,258.7,273.6,267.1,266.5,7.4
100.0,256.9,270.2,265.8,264.3,6.7
100.5,249.5,268.6,262.4,260.2,9.7
101.0,257.5,261.7,264.8,261.3,3.7
101.5,248.1,257.9,263.2,256.4,7.7
102.0,253.9,263.5,258.8,258.7,4.8
102.5,249.2,260.7,263.6,257.8,7.6
103.0,248.0,257.0,259.8,254.9,6.2
103.5,246.4,258.1,262.7,255.7,8.4
104.0,250.0,260.5,259.6,256.7,5.8
104.5,247.9,260.3,258.8,255.7,6.8
105.0,244.8,259.2,258.3,254.1,8.1
105.5,242.0,256.7,254.9,251.2,8.1
106.0,241.9,252.7,258.8,251.1,8.6
106.5,245.6,254.0,252.7,250.8,4.5
107.0,245.6,253.5,255.9,251.7,5.4
107.5,241.5,251.3,249.7,247.5,5.2
108.0,242.6,250.6,256.6,249.9,7.0
108.5,236.2,250.7,257.5,248.1,10.9
109.0,233.9,246.2,253.3,244.5,9.8
109.5,237.2,248.8,255.1,247.0,9.1
110.0,239.5,248.4,249.6,245.8,5.5
110.5,234.9,248.6,254.2,245.9,9.9
111.0,230.9,244.7,255.3,243.6,12.3
111.5,230.0,242.2,250.5,240.9,10.3
112.0,230.3,243.1,254.1,242.5,11.9
112.5,230.2,246.1,250.4,242.2,10.7
113.0,229.0,242.5,252.1,241.2,11.6
113.5,225.5,238.8,246.1,236.8,10.4
114.0,227.1,243.7,249.2,240.0,11.5
114.5,225.2,239.9,253.5,239.5,14.1
115.0,225.8,242.4,248.3,238.8,11.7
115.5,225.8,238.6,242.1,235.5,8.6
116.0,224.4,240.4,245.5,236.8,11.0
116.5,224.7,241.0,242.3,236.0,9.8
117.0,221.7,236.3,240.9,233.0,10.0
117.5,222.3,236.2,245.4,234.6,11.6
118.0,229.4,237.0,243.3,236.6,6.9
118.5,225.3,236.7,243.3,235.1,9.1
119.0,223.2,239.5,247.4,236.7,12.3
119.5,223.5,234.0,244.0,233.8,10.3
120.0,218.5,232.5,240.0,230.3,10.9
120.5,216.1,234.0,240.7,230.3,12.7
121.0,217.4,232.4,243.0,230.9,12.9
121.5,219.2,234.4,249.0,234.2,14.9
122.0,217.8,232.4,246.0,232.1,14.1
122.5,222.2,233.9,239.2,231.8,8.7
123.0,215.6,229.2,247.6,230.8,16.1
123.5,213.7,229.3,243.7,228.9,15.0
124.0,215.5,233.3,245.7,231.5,15.2
124.5,214.7,230.3,242.1,229.0,13.8
125.0,213.1,233.4,240.3,228.9,14.1
125.5,211.7,226.6,246.4,228.2,17.4
126.0,208.7,228.5,242.8,226.7,17.1
126.5,213.3,227.0,240.8,227.0,13.8
127.0,209.8,227.6,241.7,226.4,16.0
127.5,207.7,224.4,241.5,224.5,16.9
128.0,208.9,230.7,236.6,225.4,14.6
128.5,206.8,225.6,237.1,223.2,15.3
129.0,205.6,228.0,239.6,224.4,17.3
129.5,210.4,225.1,236.6,224.0,13.2
130.0,209.3,223.6,236.2,223.1,13.4
130.5,206.5,222.9,234.2,221.2,13.9
131.0,204.4,225.5,236.6,222.1,16.3
131.5,208.4,224.2,231.6,221.4,11.9
132.0,204.5,223.7,234.8,221.0,15.3
132.5,208.0,221.4,235.1,221.5,13.5
133.0,200.4,218.9,238.0,219.1,18.8
133.5,203.2,221.0,235.4,219.9,16.2
134.0,203.1,227.9,232.4,221.1,15.8
134.5,202.6,221.4,235.5,219.8,16.5
135.0,203.5,218.7,236.3,219.5,16.4
135.5,204.0,215.7,237.4,219.0,17.0
136.0,203.9,217.2,232.3,217.8,14.2
136.5,200.2,220.2,232.9,217.8,16.5
137.0,206.3,218.4,230.8,218.5,12.2
137.5,206.9,217.2,235.3,219.8,14.4
138.0,203.9,216.6,235.7,218.7,16.0
138.5,200.7,216.2,230.8,215.9,15.0
139.0,202.0,217.1,230.8,216.6,14.4
139.5,201.2,215.7,233.7,216.9,16.2
140.0,200.0,217.1,233.1,216.7,16.6
140.5,203.4,213.1,229.4,215.3,13.1
141.0,200.4,212.2,228.2,213.6,13.9
141.5,198.4,215.8,233.3,215.8,17.5
142.0,201.9,215.6,228.9,215.4,13.5
142.5,199.5,213.7,233.7,215.6,17.2
143.0,202.7,211.1,227.5,213.8,12.6
143.5,196.6,212.2,231.1,213.3,17.3
144.0,200.1,211.7,227.0,213.0,13.5
144.5,197.1,210.4,229.3,212.3,16.1
145.0,196.4,210.5,230.8,212.5,17.3
145.5,196.0,211.5,230.4,212.6,17.3
146.0,196.2,212.8,234.7,214.5,19.3
146.5,197.2,208.8,230.9,212.3,17.1
147.0,197.1,211.8,227.3,212.1,15.1
147.5,195.9,209.9,227.3,211.1,15.8
148.0,196.5,210.0,229.1,211.9,16.4
148.5,197.5,208.6,224.6,210.2,13.7
149.0,193.6,208.7,229.9,210.7,18.2
149.5,198.4,210.6,224.0,211.0,12.8
150.0,192.7,207.7,225.1,208.5,16.2
150.5,193.3,209.2,224.6,209.0,15.6
151.0,195.1,206.8,227.7,209.9,16.5
151.5,189.4,209.1,226.1,208.2,18.4
152.0,192.6,206.3,218.6,205.8,13.0
152.5,193.0,208.6,223.0,208.2,15.0
153.0,193.9,206.4,223.4,207.9,14.8
153.5,193.9,206.2,222.4,207.5,14.3
154.0,192.2,206.2,225.8,208.1,16.9
154.5,192.3,208.2,216.7,205.7,12.4
155.0,191.6,205.6,220.4,205.9,14.4
155.5,193.1,203.1,221.9,206.0,14.6
156.0,190.5,206.7,218.2,205.2,13.9
156.5,190.6,205.3,223.5,206.5,16.5
157.0,187.7,208.3,223.3,206.4,17.9
157.5,189.0,207.1,220.4,205.5,15.7
158.0,189.7,202.0,221.5,204.4,16.0
158.5,188.5,204.2,219.2,204.0,15.4
159.0,193.1,205.5,217.0,205.2,11.9
159.5,190.2,206.9,220.0,205.7,14.9
160.0,190.5,200.9,219.1,203.5,14.4
160.5,192.3,201.7,224.6,206.2,16.6
161.0,187.4,202.8,217.0,202.4,14.8
161.5,193.8,202.4,219.2,205.1,12.9
162.0,192.0,201.9,220.5,204.8,14.4
162.5,190.2,202.9,220.1,204.4,15.0
163.0,190.6,202.9,220.4,204.6,15.0
163.5,188.1,201.4,216.5,202.0,14.2
164.0,189.8,204.0,217.8,203.9,14.0
164.5,192.4,203.4,221.4,205.7,14.6
165.0,190.7,204.2,215.2,203.4,12.3
165.5,188.9,199.9,219.5,202.8,15.5
166.0,191.4,200.7,216.6,202.9,12.8
166.5,190.8,204.3,217.2,204.1,13.2
167.0,191.4,203.0,216.0,203.4,12.3
167.5,191.9,199.0,214.2,201.7,11.4
168.0,188.8,201.1,218.6,202.8,15.0
168.5,193.1,202.3,214.2,203.2,10.6
169.0,190.5,202.2,217.7,203.5,13.6
169.5,186.9,198.8,214.8,200.2,14.0
170.0,194.2,197.7,218.9,203.6,13.4
170.5,187.5,197.8,217.2,200.8,15.1
171.0,191.9,197.7,219.1,202.9,14.3
171.5,192.4,197.8,216.3,202.1,12.5
172.0,189.2,200.8,213.3,201.1,12.1
172.5,188.6,201.0,212.8,200.8,12.1
173.0,190.2,201.1,214.2,201.8,12.0
173.5,193.9,199.1,217.9,203.6,12.7
174.0,189.5,197.5,209.8,198.9,10.2
174.5,188.4,201.1,215.3,201.6,13.5
175.0,192.1,200.4,210.2,200.9,9.0
175.5,191.2,198.8,214.9,201.6,12.1
176.0,189.8,202.2,212.6,201.5,11.4
176.5,186.8,201.1,209.0,199.0,11.2
177.0,188.0,196.5,212.3,198.9,12.3
177.5,184.3,200.3,211.4,198.6,13.6
178.0,188.0,202.7,211.4,200.7,11.8
178.5,188.5,199.0,211.4,199.6,11.5
179.0,185.9,198.4,213.7,199.3,13.9
179.5,184.7,198.9,212.0,198.5,13.7
180.0,184.9,197.9,208.8,197.2,12.0
180.5,186.0,198.7,208.4,197.7,11.2
181.0,184.0,194.3,210.3,196.2,13.3
181.5,184.9,195.2,210.9,197.0,13.1
182.0,181.7,195.5,207.3,194.8,12.8
182.5,185.3,194.6,209.5,196.5,12.2
183.0,181.9,194.0,208.8,194.9,13.5
183.5,186.9,193.8,208.2,196.3,10.8
184.0,181.9,195.8,210.2,196.0,14.2
184.5,182.4,195.2,210.7,196.1,14.2
185.0,184.0,192.9,208.9,195.3,12.6
185.5,180.2,193.8,207.0,193.7,13.4
186.0,186.1,193.4,210.3,196.6,12.5
186.5,184.6,193.4,207.1,195.0,11.4
187.0,182.5,190.3,211.5,194.8,15.0
187.5,183.0,192.3,206.9,194.1,12.1
188.0,183.5,192.0,210.1,195.2,13.6
188.5,184.2,194.3,208.3,195.6,12.1
189.0,182.9,191.4,210.0,194.8,13.9
189.5,182.5,191.6,209.5,194.5,13.7
190.0,183.7,190.8,202.6,192.4,9.6
190.5,184.9,189.8,204.3,193.0,10.1
191.0,181.3,189.8,204.7,191.9,11.9
191.5,184.0,194.7,207.4,195.4,11.7
192.0,182.2,191.5,204.5,192.7,11.2
192.5,180.3,192.3,207.3,193.3,13.6
193.0,179.3,191.9,199.4,190.2,10.1
193.5,184.5,190.6,203.3,192.8,9.6
194.0,181.7,192.9,202.6,192.4,10.5
194.5,181.7,190.9,202.7,191.8,10.5
195.0,184.1,192.4,202.6,193.0,9.2
195.5,179.3,192.2,206.1,192.5,13.4
196.0,179.6,190.6,203.9,191.4,12.1
196.5,179.0,188.7,204.5,190.7,12.9
197.0,181.9,189.1,205.8,192.3,12.3
197.5,184.3,190.6,202.6,192.5,9.3
198.0,177.7,190.5,203.5,190.6,12.9
198.5,181.1,187.4,204.6,191.1,12.1
199.0,179.1,188.9,205.1,191.0,13.1
199.5,176.3,186.1,201.4,187.9,12.7
200.0,179.7,185.0,203.7,189.5,12.6
200.5,177.7,189.7,201.9,189.8,12.1
201.0,179.6,189.6,203.4,190.9,11.9
201.5,180.3,189.6,205.2,191.7,12.6
202.0,181.0,188.9,202.6,190.9,11.0
202.5,181.3,183.8,199.9,188.4,10.1
203.0,179.8,187.4,200.3,189.2,10.4
203.5,179.3,186.4,199.4,188.4,10.2
204.0,182.6,187.7,203.0,191.1,10.6
204.5,180.3,185.7,196.8,187.6,8.4
205.0,180.3,186.4,196.9,187.9,8.4
205.5,183.6,185.9,202.3,190.6,10.2
206.0,180.5,191.2,199.8,190.5,9.7
206.5,180.2,188.7,202.2,190.4,11.1
207.0,177.4,184.7,199.7,187.3,11.4
207.5,178.4,189.2,200.5,189.4,11.1
208.0,179.7,188.8,200.4,189.6,10.4
208.5,177.3,184.8,200.3,187.5,11.8
209.0,178.8,188.5,197.9,188.4,9.5
209.5,176.1,184.8,201.5,187.5,12.9
210.0,178.7,186.8,198.6,188.0,10.0
210.5,174.0,185.1,200.6,186.6,13.3
211.0,176.4,184.0,198.7,186.4,11.3
211.5,173.7,184.5,199.5,185.9,13.0
212.0,174.6,186.5,198.0,186.3,11.7
212.5,177.6,183.0,199.2,186.6,11.3
213.0,179.3,187.0,198.2,188.2,9.5
213.5,176.6,183.2,197.5,185.8,10.7
214.0,177.4,181.7,199.6,186.2,11.8
214.5,176.3,186.2,200.5,187.7,12.2
215.0,176.7,183.4,196.5,185.5,10.1
215.5,177.5,183.5,201.3,187.4,12.4
216.0,177.3,181.3,196.6,185.1,10.2
216.5,180.5,183.9,199.8,188.1,10.3
217.0,176.5,183.2,200.2,186.6,12.2
217.5,175.7,181.1,197.9,184.9,11.5
218.0,176.4,181.3,194.6,184.1,9.4
218.5,176.7,180.6,198.0,185.1,11.3
219.0,176.5,181.9,199.4,185.9,12.0
219.5,178.4,183.3,197.5,186.4,9.9
220.0,178.4,181.1,196.4,185.3,9.7
220.5,179.8,184.5,194.8,186.4,7.7
221.0,180.3,180.9,197.6,186.3,9.8
221.5,178.5,182.9,198.7,186.7,10.6
222.0,182.9,182.0,199.6,188.2,9.9
222.5,179.2,180.4,198.4,186.0,10.8
223.0,182.2,181.9,198.5,187.5,9.5
223.5,180.3,179.0,196.2,185.2,9.6
224.0,182.6,184.5,198.5,188.5,8.7
224.5,180.7,177.7,199.6,186.0,11.8
225.0,179.6,180.3,198.0,186.0,10.4
225.5,178.6,182.6,196.0,185.7,9.1
226.0,180.2,180.1,194.7,185.0,8.4
226.5,180.4,183.3,195.5,186.4,8.0
227.0,178.7,185.8,197.3,187.3,9.4
227.5,180.7,183.7,198.7,187.7,9.7
228.0,177.9,180.2,195.1,184.4,9.4
228.5,178.0,184.0,194.9,185.6,8.5
229.0,180.8,180.6,199.7,187.0,10.9
229.5,178.3,185.2,197.6,187.0,9.8
230.0,176.4,181.9,195.0,184.4,9.6
230.5,181.7,184.8,194.6,187.1,6.7
231.0,176.5,180.8,196.1,184.5,10.3
231.5,178.8,178.5,196.0,184.4,10.0
232.0,177.6,180.8,195.8,184.7,9.7
232.5,179.9,183.9,196.9,186.9,8.9
233.0,178.2,182.1,196.3,185.5,9.5
233.5,178.8,182.0,199.0,186.6,10.9
234.0,174.5,179.7,197.6,184.0,12.1
234.5,179.8,184.6,196.3,186.9,8.5
235.0,177.3,180.8,194.4,184.1,9.0
235.5,177.7,179.8,197.2,184.9,10.7
236.0,177.7,179.3,199.8,185.6,12.3
236.5,176.2,178.3,195.8,183.5,10.8
237.0,182.3,175.5,197.3,185.0,11.1
237.5,182.7,177.8,194.0,184.8,8.3
238.0,178.3,184.6,195.9,186.3,8.9
238.5,179.2,180.6,198.8,186.2,10.9
239.0,180.0,178.9,195.8,184.9,9.5
239.5,180.9,179.3,196.6,185.6,9.6
240.0,181.2,177.2,197.3,185.2,10.6
240.5,180.4,180.8,198.1,186.4,10.1
241.0,180.4,178.6,193.1,184.0,7.9
241.5,176.5,178.4,196.8,183.9,11.2
242.0,180.4,178.2,194.2,184.3,8.7
242.5,175.8,180.8,195.3,184.0,10.1
243.0,183.0,179.6,190.7,184.4,5.7
243.5,178.6,181.5,194.6,184.9,8.5
244.0,175.8,179.2,196.9,184.0,11.3
244.5,181.9,179.2,192.4,184.5,7.0
245.0,177.0,181.2,196.8,185.0,10.4
245.5,182.2,177.9,196.5,185.5,9.7
246.0,178.2,181.2,195.0,184.8,9.0
246.5,177.9,181.3,194.8,184.6,8.9
247.0,172.3,183.0,197.1,184.1,12.4
247.5,176.4,179.4,194.5,183.4,9.7
248.0,180.1,179.9,193.8,184.6,8.0
248.5,176.6,177.2,192.4,182.1,9.0
249.0,180.4,178.7,194.8,184.6,8.8
249.5,178.1,176.1,196.3,183.5,11.2
250.0,174.7,177.9,195.3,182.7,11.1
250.5,175.7,178.1,195.2,183.0,10.6
251.0,174.9,174.7,195.3,181.6,11.8
251.5,178.4,176.4,194.6,183.1,10.0
252.0,177.9,178.7,196.7,184.4,10.6
252.5,175.7,177.0,192.6,181.8,9.4
253.0,175.1,175.2,192.8,181.0,10.2
253.5,174.5,178.3,195.6,182.8,11.2
254.0,173.8,176.7,196.9,182.5,12.6
254.5,176.1,174.6,192.3,181.0,9.8
255.0,175.8,178.0,199.1,184.3,12.8
255.5,176.8,177.9,191.1,181.9,8.0
256.0,177.3,176.2,196.6,183.4,11.5
256.5,176.7,178.1,197.8,184.2,11.8
257.0,179.6,175.7,194.6,183.3,10.0
257.5,174.7,176.4,196.9,182.7,12.3
258.0,175.6,176.6,194.1,182.1,10.4
258.5,175.5,180.2,196.5,184.1,11.0
259.0,175.2,176.5,191.0,180.9,8.8
259.5,178.7,176.5,193.6,182.9,9.3
260.0,176.0,176.6,192.5,181.7,9.4
260.5,175.5,180.0,190.4,182.0,7.6
261.0,176.6,178.7,193.3,182.9,9.1
261.5,177.0,179.7,191.7,182.8,7.8
262.0,175.2,178.2,195.0,182.8,10.6
262.5,174.8,177.4,193.5,181.9,10.1
263.0,175.2,181.5,193.5,183.4,9.3
263.5,179.2,176.8,194.0,183.4,9.3
264.0,175.3,178.2,195.6,183.0,11.0
264.5,177.0,180.0,191.6,182.9,7.7
265.0,174.5,176.5,194.3,181.7,10.9
265.5,177.4,176.2,196.6,183.4,11.4
266.0,176.0,177.7,194.0,182.6,10.0
266.5,174.0,175.9,192.6,180.8,10.2
267.0,176.0,178.4,194.4,183.0,10.0
267.5,174.4,178.0,193.7,182.0,10.2
268.0,173.9,179.4,194.6,182.6,10.7
268.5,173.7,175.7,194.0,181.1,11.2
269.0,172.7,176.1,194.4,181.1,11.7
269.5,172.4,179.1,193.0,181.5,10.5
270.0,174.6,176.6,197.3,182.8,12.6
270.5,176.4,176.6,191.7,181.6,8.8
271.0,177.5,176.9,193.9,182.8,9.7
271.5,177.1,176.5,193.7,182.4,9.8
272.0,175.9,176.0,194.2,182.0,10.5
272.5,173.6,176.6,190.4,180.2,9.0
273.0,176.8,174.1,194.0,181.7,10.8
273.5,173.8,178.6,190.6,181.0,8.6
274.0,173.8,181.1,195.6,183.5,11.1
274.5,172.2,178.0,194.1,181.5,11.3
275.0,175.0,175.3,196.3,182.2,12.2
275.5,177.2,176.6,194.2,182.7,10.0
276.0,176.8,177.3,196.4,183.5,11.1
276.5,176.0,177.8,190.3,181.4,7.8
277.0,174.3,178.1,194.2,182.2,10.6
277.5,175.2,180.4,193.4,183.0,9.4
278.0,173.4,177.4,193.8,181.5,10.8
278.5,174.4,175.9,193.4,181.2,10.6
279.0,174.1,181.4,194.0,183.2,10.1
279.5,176.7,176.1,197.6,183.5,12.3
280.0,177.6,179.4,193.3,183.4,8.6
280.5,175.3,179.8,192.8,182.6,9.1
281.0,174.4,176.1,197.4,182.6,12.8
281.5,175.6,176.4,198.0,183.3,12.7
282.0,177.1,180.4,202.1,186.5,13.6
282.5,173.4,178.8,195.7,182.6,11.6
283.0,177.6,177.5,193.4,182.8,9.1
283.5,177.3,180.4,200.3,186.0,12.5
284.0,178.1,177.6,193.4,183.0,9.0
284.5,175.4,175.5,195.1,182.0,11.4
285.0,174.6,177.9,194.8,182.5,10.8
285.5,175.3,177.9,195.6,182.9,11.0
286.0,175.6,180.3,197.5,184.5,11.6
286.5,174.4,177.6,199.8,184.0,13.8
287.0,176.5,176.2,195.6,182.7,11.1
287.5,173.5,180.3,196.2,183.3,11.6
288.0,172.7,177.0,195.3,181.7,12.0
288.5,177.1,175.9,199.8,184.3,13.5
289.0,174.0,181.0,195.4,183.5,10.9
289.5,172.2,179.8,203.5,185.2,16.3
290.0,173.1,174.0,197.3,181.5,13.7
290.5,171.8,178.1,194.4,181.4,11.7
291.0,175.4,182.0,199.1,185.5,12.2
291.5,173.2,176.3,198.0,182.5,13.5
292.0,174.9,179.3,196.8,183.7,11.6
292.5,173.1,174.7,197.6,181.8,13.7
293.0,179.1,175.6,196.6,183.7,11.2
293.5,173.8,179.1,197.9,183.6,12.7
294.0,174.1,176.3,195.7,182.1,11.9
294.5,174.9,178.3,196.5,183.2,11.6
295.0,173.4,176.9,193.5,181.3,10.7
295.5,172.2,175.8,194.8,180.9,12.2
296.0,173.3,179.8,199.2,184.1,13.5
296.5,173.5,181.7,196.8,184.0,11.8
297.0,173.7,180.5,198.0,184.1,12.5
297.5,171.8,178.3,198.2,182.8,13.7
298.0,173.7,180.3,198.0,184.0,12.6
298.5,173.3,180.5,199.0,184.3,13.3
299.0,170.6,177.9,196.6,181.7,13.4
299.5,171.9,176.2,199.7,182.6,14.9
300.0,175.4,181.0,199.4,185.3,12.5
300.5,175.4,179.5,195.6,183.5,10.7
301.0,173.8,180.3,195.4,183.2,11.1
301.5,176.0,175.4,198.8,183.4,13.3
302.0,174.3,178.9,198.0,183.7,12.6
302.5,178.2,180.8,200.4,186.5,12.1
303.0,174.5,180.0,196.8,183.7,11.6
303.5,171.2,182.1,196.5,183.3,12.7
304.0,177.7,178.8,196.1,184.2,10.3
304.5,173.5,179.2,198.4,183.7,13.0
305.0,176.8,177.4,199.1,184.5,12.7
305.5,175.8,178.2,196.4,183.4,11.3
306.0,173.8,177.6,194.9,182.1,11.3
306.5,173.7,179.9,196.8,183.5,11.9
307.0,176.8,178.9,195.6,183.8,10.3
307.5,174.9,177.2,195.2,182.4,11.1
308.0,177.4,174.5,195.5,182.5,11.4
308.5,177.7,177.6,195.2,183.5,10.2
309.0,177.1,179.0,195.1,183.7,9.9
309.5,177.0,176.7,193.4,182.3,9.5
310.0,176.4,181.8,197.7,185.3,11.0
310.5,173.4,178.9,195.1,182.5,11.3
311.0,176.8,179.7,195.7,184.0,10.2
311.5,178.9,176.7,197.5,184.4,11.4
312.0,177.4,176.8,197.6,183.9,11.8
312.5,174.3,178.2,197.8,183.4,12.6
313.0,174.5,179.6,195.3,183.1,10.9
313.5,175.0,176.3,197.8,183.0,12.8
314.0,174.3,177.6,196.7,182.9,12.1
314.5,180.5,177.5,194.1,184.1,8.9
315.0,175.0,177.9,196.7,183.2,11.8
315.5,175.8,177.3,196.1,183.1,11.3
316.0,177.1,176.9,198.2,184.1,12.2
316.5,174.1,176.9,194.4,181.8,11.0
317.0,177.8,176.3,197.8,183.9,12.0
317.5,175.2,179.6,196.9,183.9,11.5
318.0,179.8,177.7,198.7,185.4,11.6
318.5,179.2,181.1,195.4,185.2,8.9
319.0,178.2,173.9,195.7,182.6,11.5
319.5,176.4,180.2,197.9,184.8,11.5
320.0,177.6,176.4,196.0,183.3,11.0
320.5,176.3,177.6,198.5,184.1,12.4
321.0,176.5,179.0,196.8,184.1,11.1
321.5,178.6,180.2,198.7,185.8,11.2
322.0,177.8,178.1,198.4,184.8,11.8
322.5,175.6,178.1,197.2,183.6,11.8
323.0,174.8,179.1,196.5,183.5,11.5
323.5,179.4,178.3,199.6,185.8,12.0
324.0,176.8,176.1,199.5,184.1,13.3
324.5,176.7,177.9,199.2,184.6,12.7
325.0,179.1,178.8,197.9,185.2,11.0
325.5,176.3,180.6,197.5,184.8,11.2
326.0,178.2,179.5,195.8,184.5,9.8
326.5,179.7,175.8,197.8,184.4,11.7
327.0,177.8,177.5,195.1,183.5,10.1
327.5,178.2,179.3,197.3,184.9,10.7
328.0,178.9,180.0,199.2,186.1,11.4
328.5,177.2,180.1,197.2,184.8,10.8
329.0,176.5,177.0,192.3,181.9,9.0
329.5,174.2,180.5,193.9,182.9,10.1
330.0,176.6,178.5,195.3,183.5,10.3
330.5,178.5,177.2,194.5,183.4,9.6
331.0,176.8,176.9,194.0,182.6,9.9
331.5,176.2,179.0,196.7,184.0,11.1
332.0,177.3,177.3,195.4,183.3,10.4
332.5,176.2,175.6,192.7,181.5,9.7
333.0,180.0,174.6,194.9,183.2,10.5
333.5,177.7,179.5,196.8,184.6,10.6
334.0,181.5,174.0,195.7,183.7,11.0
334.5,176.5,176.0,192.2,181.6,9.2
335.0,178.6,178.7,193.7,183.7,8.7
335.5,175.9,178.9,195.3,183.4,10.5
336.0,178.6,178.4,193.8,183.6,8.9
336.5,178.3,173.8,194.7,182.3,11.0
337.0,179.7,178.5,195.1,184.4,9.2
337.5,179.1,177.8,196.7,184.5,10.6
338.0,175.3,177.4,194.3,182.3,10.4
338.5,179.9,174.3,191.3,181.9,8.7
339.0,178.8,178.1,196.4,184.4,10.3
339.5,178.9,178.1,199.0,185.4,11.8
340.0,180.4,180.0,196.8,185.7,9.6
340.5,181.7,177.0,192.0,183.5,7.7
341.0,178.6,178.7,196.7,184.6,10.4
341.5,178.1,177.2,192.5,182.6,8.6
342.0,178.8,173.7,193.9,182.1,10.5
342.5,179.1,177.1,192.2,182.8,8.2
343.0,178.7,178.0,197.5,184.8,11.1
343.5,180.5,172.7,193.2,182.1,10.3
344.0,184.8,177.9,193.8,185.5,8.0
344.5,178.4,176.0,192.4,182.2,8.8
345.0,180.9,179.5,192.1,184.2,6.9
345.5,178.2,176.1,191.6,182.0,8.5
346.0,176.8,176.3,192.6,181.9,9.3
346.5,180.3,178.3,192.7,183.8,7.8
347.0,177.8,177.3,193.8,183.0,9.4
347.5,176.9,175.8,194.6,182.5,10.6
348.0,177.4,175.3,193.9,182.2,10.2
348.5,179.7,177.1,192.0,182.9,8.0
349.0,178.1,177.6,193.0,182.9,8.8
349.5,178.0,175.2,190.9,181.4,8.3
350.0,178.2,176.6,196.1,183.6,10.8
350.5,178.2,174.3,194.3,182.3,10.6
351.0,177.7,176.5,196.0,183.4,10.9
351.5,177.6,177.4,192.2,182.4,8.5
352.0,181.2,177.3,193.9,184.1,8.7
352.5,177.4,176.6,189.9,181.3,7.4
353.0,178.1,178.6,191.5,182.7,7.6
353.5,175.8,179.3,195.0,183.4,10.2
354.0,179.1,177.8,194.8,183.9,9.4
354.5,180.2,176.3,192.2,182.9,8.3
355.0,177.8,177.1,191.2,182.1,7.9
355.5,178.0,177.5,193.4,183.0,9.0
356.0,177.8,178.0,193.9,183.2,9.2
356.5,178.4,178.0,190.4,182.3,7.0
357.0,179.6,182.3,191.8,184.5,6.4
357.5,178.4,181.9,191.8,184.0,7.0
358.0,180.1,180.6,193.6,184.8,7.7
358.5,179.4,181.1,193.8,184.8,7.9
359.0,176.9,180.2,192.3,183.1,8.1
359.5,180.3,180.4,193.0,184.6,7.3
360.0,180.0,182.4,195.6,186.0,8.4
360.5,180.4,176.8,189.9,182.4,6.8
361.0,176.8,181.7,192.1,183.6,7.8
361.5,182.7,176.9,190.9,183.5,7.0
362.0,179.9,181.7,191.7,184.4,6.3
362.5,182.7,179.1,192.4,184.7,6.8
363.0,180.7,178.5,192.0,183.7,7.2
363.5,176.8,181.9,189.9,182.9,6.6
364.0,180.2,180.8,190.3,183.8,5.6
364.5,182.4,182.6,191.7,185.6,5.3
365.0,177.8,179.5,188.0,181.8,5.4
365.5,181.2,179.2,190.4,183.6,6.0
366.0,180.5,181.5,194.1,185.3,7.6
366.5,181.2,186.4,190.3,186.0,4.6
367.0,178.2,181.3,191.0,183.5,6.7
367.5,176.5,179.9,191.5,182.6,7.9
368.0,179.0,178.7,191.4,183.0,7.3
368.5,179.1,179.0,190.7,182.9,6.7
369.0,180.4,178.1,190.0,182.8,6.3
369.5,174.5,179.9,190.8,181.7,8.3
370.0,177.3,183.7,189.3,183.4,6.0
370.5,178.1,181.1,190.5,183.2,6.5
371.0,177.8,181.2,189.9,183.0,6.2
371.5,176.2,183.2,193.3,184.2,8.6
372.0,175.4,180.6,186.2,180.7,5.4
372.5,176.7,184.4,190.5,183.9,6.9
373.0,176.6,180.7,187.6,181.6,5.6
373.5,176.1,183.8,190.4,183.4,7.2
374.0,179.9,182.9,190.3,184.3,5.4
374.5,179.3,178.8,191.7,183.3,7.3
375.0,178.3,180.9,192.9,184.0,7.8
375.5,178.0,182.2,189.0,183.0,5.6
376.0,177.2,179.9,190.2,182.4,6.9
376.5,177.6,184.9,193.3,185.3,7.8
377.0,176.2,179.6,189.2,181.7,6.7
377.5,179.9,181.6,192.8,184.8,7.0
378.0,179.6,176.1,190.8,182.2,7.7
378.5,179.4,180.2,191.4,183.7,6.7
379.0,178.7,180.4,190.6,183.2,6.4
379.5,180.4,180.3,193.3,184.7,7.5
380.0,180.8,179.5,188.6,183.0,4.9
380.5,178.5,181.3,189.4,183.1,5.6
381.0,175.3,182.4,191.2,182.9,8.0
381.5,180.0,181.2,187.9,183.0,4.3
382.0,181.3,180.0,191.2,184.2,6.2
382.5,176.5,178.6,188.4,181.2,6.3
383.0,183.3,179.4,185.8,182.8,3.2
383.5,178.7,179.9,187.0,181.9,4.5
384.0,179.0,179.4,192.1,183.5,7.5
384.5,178.4,180.6,193.1,184.0,7.9
385.0,180.4,179.7,191.3,183.8,6.5
385.5,180.5,181.4,189.1,183.7,4.8
386.0,180.4,181.2,191.9,184.5,6.5
386.5,178.2,178.8,191.8,182.9,7.7
387.0,180.7,181.5,188.9,183.7,4.5
387.5,181.6,182.7,192.7,185.7,6.2
388.0,178.7,178.8,190.2,182.6,6.6
388.5,179.5,178.8,191.7,183.4,7.3
389.0,181.6,181.2,192.2,185.0,6.2
389.5,177.8,183.6,187.9,183.1,5.1
390.0,179.4,180.2,191.4,183.7,6.7
390.5,180.3,183.3,191.1,184.9,5.6
391.0,180.6,182.4,193.0,185.3,6.7
391.5,178.5,184.4,191.6,184.8,6.5
392.0,178.5,180.2,187.6,182.1,4.8
392.5,180.3,183.0,188.7,184.0,4.3
393.0,177.3,179.5,190.8,182.5,7.3
393.5,178.6,180.5,191.0,183.4,6.7
394.0,178.4,180.8,190.3,183.1,6.3
394.5,181.0,181.4,189.1,183.8,4.5
395.0,174.9,180.9,193.6,183.1,9.6
395.5,179.3,183.6,190.7,184.6,5.8
396.0,181.3,183.0,190.7,185.0,5.0
396.5,178.9,183.0,190.9,184.3,6.1
397.0,183.8,177.7,188.0,183.2,5.2
397.5,181.5,181.0,194.0,185.5,7.4
398.0,178.7,180.9,192.3,184.0,7.3
398.5,179.6,179.0,191.2,183.3,6.9
399.0,177.3,181.7,193.4,184.1,8.3
399.5,178.0,183.0,195.5,185.5,9.0
400.0,179.5,181.5,193.6,184.8,7.6
400.5,178.8,178.7,196.6,184.7,10.3
401.0,178.8,182.5,195.8,185.7,8.9
401.5,181.2,185.0,194.1,186.8,6.6
402.0,181.7,181.5,194.6,186.0,7.5
402.5,179.2,182.3,193.1,184.9,7.3
403.0,178.2,183.0,193.9,185.0,8.0
403.5,179.1,183.5,197.5,186.7,9.6
404.0,182.1,183.6,193.7,186.5,6.3
404.5,179.9,182.9,194.9,185.9,7.9
405.0,179.3,181.6,197.0,186.0,9.6
405.5,182.4,183.2,199.1,188.2,9.4
406.0,180.1,183.4,198.7,187.4,9.9
406.5,180.9,182.5,197.6,187.0,9.2
407.0,182.6,182.4,197.1,187.4,8.4
407.5,181.1,181.3,196.5,186.3,8.9
408.0,180.6,180.8,195.0,185.5,8.3
408.5,181.3,186.9,196.3,188.2,7.5
409.0,178.1,181.9,196.0,185.3,9.4
409.5,181.4,182.6,195.9,186.6,8.0
410.0,180.0,186.2,201.3,189.1,11.0
410.5,179.9,184.6,196.3,186.9,8.4
411.0,183.6,183.8,197.3,188.2,7.9
411.5,182.4,186.7,197.1,188.7,7.5
412.0,182.8,182.4,198.7,188.0,9.3
412.5,181.1,183.2,201.5,188.6,11.2
413.0,178.2,184.8,203.9,189.0,13.4
413.5,181.1,182.2,201.7,188.4,11.6
414.0,186.5,182.0,198.2,188.9,8.4
414.5,181.2,185.6,201.1,189.3,10.5
415.0,181.0,181.5,200.5,187.7,11.1
415.5,183.4,181.5,201.0,188.6,10.7
416.0,183.9,180.3,200.1,188.1,10.5
416.5,177.6,178.9,199.1,185.2,12.1
417.0,183.6,182.3,203.0,189.6,11.6
417.5,183.6,181.2,199.7,188.2,10.1
418.0,183.3,183.2,202.9,189.8,11.3
418.5,183.0,181.1,200.5,188.2,10.7
419.0,183.4,180.7,206.0,190.0,13.9
419.5,182.7,180.3,200.7,187.9,11.1
420.0,180.9,183.9,202.9,189.3,11.9
420.5,179.5,179.2,202.0,186.9,13.1
421.0,178.1,182.8,204.9,188.6,14.3
421.5,183.7,179.5,202.1,188.5,12.0
422.0,179.9,181.7,201.5,187.7,12.0
422.5,181.9,184.2,204.5,190.2,12.4
423.0,183.8,184.3,204.6,190.9,11.9
423.5,180.4,183.9,205.2,189.8,13.4
424.0,179.1,182.3,205.5,188.9,14.4
424.5,179.7,183.6,204.5,189.3,13.3
425.0,179.1,183.8,201.3,188.1,11.7
425.5,180.2,182.6,201.2,188.0,11.5
426.0,180.1,184.6,203.8,189.5,12.6
426.5,183.9,183.5,203.6,190.3,11.5
427.0,181.9,183.4,207.2,190.8,14.2
427.5,182.2,181.0,203.1,188.7,12.4
428.0,178.9,185.9,206.3,190.3,14.2
428.5,179.4,185.0,204.9,189.7,13.4
429.0,186.0,182.9,202.9,190.6,10.8
429.5,183.0,185.6,208.9,192.5,14.3
430.0,181.7,182.2,210.4,191.4,16.4
430.5,181.3,182.9,203.7,189.3,12.5
431.0,179.8,180.6,208.3,189.6,16.2
431.5,179.6,184.6,209.1,191.1,15.8
432.0,182.4,184.0,208.7,191.7,14.8
432.5,180.3,183.4,211.2,191.6,17.0
433.0,181.1,184.1,209.3,191.5,15.5
433.5,180.0,183.1,213.0,192.0,18.2
434.0,180.2,184.5,208.9,191.2,15.5
434.5,180.3,183.3,209.3,191.0,16.0
435.0,177.3,182.2,211.4,190.3,18.4
435.5,179.2,182.8,208.2,190.1,15.8
436.0,179.9,182.5,208.1,190.2,15.6
436.5,176.8,184.0,210.2,190.3,17.6
437.0,182.5,182.1,210.3,191.6,16.2
437.5,180.8,181.0,211.8,191.2,17.8
438.0,179.5,180.6,208.8,189.6,16.6
438.5,181.5,181.3,213.0,191.9,18.2
439.0,182.0,181.3,210.4,191.2,16.6
439.5,182.4,180.7,211.6,191.6,17.4
440.0,177.7,182.1,214.1,191.3,19.9
440.5,179.7,181.1,215.6,192.1,20.3
441.0,180.1,183.6,215.9,193.2,19.8
441.5,183.8,182.4,217.7,194.7,19.9
442.0,178.8,185.8,211.2,192.0,17.0
442.5,180.7,182.3,213.0,192.0,18.2
443.0,180.3,183.5,214.3,192.7,18.8
443.5,182.5,182.8,213.2,192.9,17.6
444.0,180.6,181.3,217.1,193.0,20.9
444.5,181.3,182.8,213.2,192.4,18.0
445.0,181.2,183.5,213.9,192.9,18.2
445.5,182.7,179.9,218.8,193.8,21.7
446.0,181.2,184.2,212.0,192.5,17.0
446.5,180.7,182.8,217.5,193.6,20.7
447.0,180.8,183.4,213.5,192.6,18.2
447.5,180.7,183.2,216.8,193.6,20.2
448.0,180.5,182.7,216.2,193.1,20.0
448.5,181.8,180.8,212.2,191.6,17.8
449.0,181.8,182.4,215.4,193.2,19.2
449.5,185.7,182.9,214.1,194.2,17.3
450.0,181.0,181.0,217.0,193.0,20.8
450.5,180.1,183.1,213.1,192.1,18.3
451.0,182.6,182.5,216.9,194.0,19.9
451.5,182.6,182.6,213.5,192.9,17.8
452.0,182.6,185.1,217.9,195.2,19.7
452.5,181.5,183.4,216.0,193.6,19.4
453.0,179.5,183.5,218.0,193.6,21.1
453.5,181.1,181.8,219.2,194.1,21.8
454.0,182.4,183.5,216.8,194.2,19.5
454.5,179.3,180.2,221.6,193.7,24.2
455.0,184.0,185.0,216.8,195.3,18.7
455.5,184.1,185.7,219.6,196.5,20.0
456.0,181.3,184.9,221.1,195.8,22.0
456.5,182.1,185.0,219.1,195.4,20.5
457.0,185.8,186.4,220.5,197.6,19.9
457.5,179.7,184.0,216.3,193.4,20.0
458.0,181.9,181.8,223.7,195.8,24.1
458.5,183.7,185.4,220.4,196.5,20.7
459.0,183.5,187.8,222.9,198.1,21.6
459.5,179.4,184.3,219.1,194.3,21.6
460.0,182.1,186.7,223.5,197.4,22.7
460.5,180.9,186.4,221.1,196.1,21.8
461.0,183.0,184.6,224.6,197.4,23.6
461.5,184.3,184.4,218.4,195.7,19.7
462.0,181.2,183.3,216.8,193.8,20.0
462.5,180.5,186.1,222.2,196.3,22.6
463.0,180.7,184.9,224.6,196.7,24.2
463.5,182.2,183.9,220.7,195.6,21.7
464.0,185.3,186.6,222.3,198.1,21.0
464.5,182.0,184.8,221.6,196.1,22.1
465.0,182.5,183.2,219.7,195.1,21.3
465.5,181.0,186.6,222.2,196.6,22.4
466.0,185.4,185.6,219.7,196.9,19.7
466.5,182.0,187.1,224.5,197.9,23.2
467.0,183.8,182.5,222.9,196.4,23.0
467.5,182.3,183.3,223.5,196.4,23.5
468.0,184.9,179.7,224.7,196.5,24.6
468.5,180.8,187.7,219.6,196.1,20.7
469.0,185.5,183.7,223.0,197.4,22.2
469.5,185.0,187.0,218.3,196.8,18.6
470.0,182.8,187.3,221.9,197.3,21.4
470.5,180.0,186.7,222.8,196.5,23.0
471.0,183.2,186.8,227.5,199.2,24.6
471.5,182.1,186.4,222.7,197.1,22.3
472.0,181.7,189.6,221.3,197.6,21.0
472.5,179.1,190.4,225.1,198.2,24.0
473.0,182.4,188.6,220.9,197.3,20.6
473.5,184.9,189.0,219.0,197.6,18.6
474.0,181.5,186.3,226.4,198.1,24.6
474.5,180.3,188.4,225.5,198.1,24.1
475.0,188.2,184.0,223.0,198.4,21.4
475.5,186.9,188.1,224.1,199.7,21.1
476.0,185.6,185.7,224.1,198.5,22.2
476.5,183.8,187.7,228.0,199.8,24.5
477.0,183.7,189.3,224.4,199.2,22.1
477.5,184.4,188.0,223.3,198.5,21.5
478.0,185.2,187.3,223.3,198.6,21.4
478.5,185.1,187.2,226.4,199.5,23.3
479.0,186.1,192.2,225.7,201.4,21.3
479.5,182.0,188.1,224.5,198.2,23.0
480.0,183.5,190.3,222.5,198.8,20.8
480.5,183.4,186.7,222.9,197.7,21.9
481.0,182.3,190.7,223.2,198.7,21.6
481.5,180.2,192.5,225.1,199.3,23.2
482.0,180.0,186.7,224.3,197.0,23.9
482.5,183.6,188.2,225.0,198.9,22.7
483.0,180.0,194.4,223.7,199.3,22.3
483.5,184.8,190.5,226.1,200.4,22.4
484.0,183.1,189.7,221.5,198.1,20.5
484.5,183.3,192.8,222.5,199.5,20.4
485.0,182.3,188.4,218.8,196.5,19.5
485.5,186.4,189.3,222.4,199.4,20.0
486.0,185.5,190.1,224.4,200.0,21.2
486.5,181.7,191.6,217.2,196.8,18.3
487.0,182.9,191.6,219.6,198.1,19.2
487.5,184.4,192.1,219.1,198.5,18.2
488.0,186.8,190.7,221.9,199.8,19.3
488.5,186.9,191.5,217.3,198.6,16.4
489.0,187.1,190.8,216.8,198.2,16.2
489.5,186.4,193.0,217.6,199.0,16.4
490.0,183.7,195.4,219.5,199.5,18.2
490.5,186.8,190.2,222.6,199.9,19.7
491.0,186.2,191.4,220.8,199.5,18.7
491.5,183.7,195.0,218.3,199.0,17.6
492.0,185.5,192.0,215.9,197.8,16.0
492.5,179.4,197.8,218.4,198.5,19.5
493.0,183.2,193.1,215.0,197.1,16.3
493.5,187.8,195.7,218.5,200.7,15.9
494.0,186.5,195.6,217.6,199.9,16.0
494.5,186.7,198.8,214.3,199.9,13.8
495.0,185.4,191.8,213.4,196.8,14.7
495.5,185.0,195.9,217.9,199.6,16.8
496.0,188.4,197.6,215.2,200.4,13.6
496.5,186.9,197.7,216.6,200.4,15.1
497.0,189.4,198.0,213.8,200.4,12.4
497.5,187.1,196.4,213.0,198.8,13.1
498.0,187.0,194.8,213.9,198.6,13.9
498.5,185.5,195.8,212.2,197.8,13.5
499.0,184.5,198.5,210.3,197.8,12.9
499.5,186.2,199.5,210.9,198.9,12.3
500.0,186.9,197.1,211.0,198.3,12.1
500.5,187.6,202.9,205.2,198.6,9.6
501.0,186.8,198.6,210.7,198.7,11.9
501.5,189.2,196.5,208.9,198.2,10.0
502.0,188.4,197.0,209.0,198.2,10.3
502.5,190.1,200.4,209.3,200.0,9.6
503.0,193.1,197.2,204.9,198.4,6.0
503.5,189.5,196.3,208.8,198.2,9.8
504.0,186.7,197.6,202.1,195.5,7.9
504.5,187.1,199.4,203.3,196.6,8.5
505.0,189.4,201.1,201.8,197.4,6.9
505.5,193.1,198.5,200.8,197.4,4.0
506.0,191.3,201.3,198.4,197.0,5.2
506.5,190.5,197.3,197.0,194.9,3.9
507.0,189.2,200.3,198.0,195.8,5.9
507.5,190.6,200.5,193.2,194.8,5.1
508.0,187.9,201.8,195.5,195.0,6.9
508.5,186.9,198.0,190.6,191.8,5.6
509.0,191.8,200.2,189.2,193.7,5.8
509.5,186.6,199.4,189.2,191.7,6.8
510.0,193.4,201.1,184.6,193.1,8.3
510.5,194.1,202.2,185.7,194.0,8.2
511.0,192.3,201.8,184.1,192.7,8.9
511.5,193.8,201.8,184.6,193.4,8.6
512.0,190.0,200.2,180.2,190.2,10.0
512.5,192.5,202.7,180.2,191.8,11.3
513.0,192.1,204.0,176.6,190.9,13.7
513.5,192.1,206.3,176.0,191.5,15.1
514.0,193.4,200.7,172.0,188.7,14.9
514.5,194.6,203.3,169.1,189.0,17.8
515.0,195.8,203.0,172.8,190.6,15.7
515.5,192.9,204.9,168.3,188.7,18.6
516.0,193.3,206.8,166.8,188.9,20.4
516.5,190.3,204.8,169.5,188.2,17.7
517.0,190.0,207.2,166.1,187.8,20.6
517.5,196.4,206.8,163.6,188.9,22.5
518.0,193.7,205.0,159.8,186.2,23.5
518.5,193.4,205.0,160.6,186.3,23.0
519.0,193.6,206.8,155.5,185.3,26.6
519.5,189.9,204.8,153.7,182.8,26.3
520.0,191.5,208.1,153.3,184.3,28.1
520.5,191.8,205.0,150.7,182.5,28.3
521.0,193.5,202.6,148.7,181.6,28.9
521.5,195.1,203.0,145.2,181.1,31.3
522.0,191.4,204.9,145.9,180.7,30.9
522.5,191.0,200.3,142.3,177.9,31.1
523.0,194.7,205.9,137.8,179.5,36.5
523.5,193.0,207.8,140.5,180.5,35.4
524.0,193.4,208.3,136.3,179.3,38.0
524.5,192.2,205.2,135.7,177.7,36.9
525.0,188.2,208.8,135.1,177.4,38.0
525.5,194.6,206.3,130.0,177.0,41.1
526.0,194.5,208.4,127.7,176.8,43.2
526.5,191.6,206.4,125.3,174.4,43.2
527.0,188.7,205.2,123.2,172.3,43.4
527.5,193.1,207.0,123.0,174.3,45.0
528.0,191.9,202.2,120.6,171.6,44.4
528.5,192.7,204.4,119.7,172.3,45.9
529.0,190.1,206.8,115.9,170.9,48.4
529.5,191.0,205.1,116.2,170.8,47.8
530.0,188.3,205.7,113.3,169.1,49.1
530.5,194.6,204.7,112.3,170.6,50.7
531.0,191.9,206.8,111.5,170.1,51.3
531.5,188.0,204.6,112.8,168.5,48.9
532.0,191.0,201.7,109.1,167.3,50.7
532.5,192.3,204.7,106.4,167.8,53.5
533.0,191.1,205.4,104.2,166.9,54.8
533.5,192.3,205.0,103.3,166.9,55.4
534.0,191.4,202.6,100.8,164.9,55.8
534.5,191.3,203.4,101.5,165.4,55.7
535.0,189.9,203.2,99.5,164.2,56.4
535.5,190.4,206.0,97.1,164.5,58.9
536.0,192.0,200.6,95.3,162.6,58.5
536.5,188.7,205.8,95.3,163.3,59.5
537.0,186.9,203.9,92.7,161.2,59.9
537.5,188.8,199.1,91.3,159.8,59.5
538.0,192.8,202.7,89.5,161.7,62.7
538.5,190.2,201.4,88.4,160.0,62.3
539.0,191.9,204.6,87.9,161.4,64.0
539.5,190.5,200.2,86.5,159.1,63.0
540.0,191.0,200.5,86.0,159.2,63.5
540.5,193.0,201.4,84.8,159.7,65.0
541.0,189.8,197.5,83.3,156.9,63.8
541.5,192.3,201.8,82.9,159.0,66.1
542.0,189.7,197.9,81.5,156.4,65.0
542.5,188.5,198.8,81.7,156.3,64.8
543.0,190.4,198.3,80.2,156.3,66.0
543.5,188.3,200.8,80.1,156.4,66.4
544.0,189.3,201.6,78.8,156.6,67.6
544.5,190.4,198.6,77.9,155.6,67.4
545.0,190.6,196.3,76.8,154.6,67.4
545.5,186.9,195.3,75.6,152.6,66.8
546.0,191.2,196.8,74.1,154.0,69.3
546.5,192.6,196.1,75.7,154.8,68.5
547.0,188.6,195.2,73.8,152.6,68.3
547.5,192.0,194.1,73.0,153.0,69.3
548.0,188.8,195.1,74.2,152.7,68.0
548.5,187.6,192.6,73.4,151.2,67.4
549.0,188.1,190.4,73.1,150.5,67.0
549.5,190.3,197.8,72.6,153.6,70.2
550.0,186.8,190.6,73.5,150.3,66.5
550.5,191.0,192.0,71.5,151.5,69.3
551.0,188.8,192.1,72.3,151.1,68.2
551.5,186.4,192.0,70.2,149.6,68.8
552.0,186.9,189.5,70.8,149.1,67.8
552.5,183.8,187.8,70.2,147.3,66.8
553.0,184.4,191.1,70.1,148.6,68.0
553.5,183.0,190.1,69.5,147.5,67.7
554.0,185.6,188.1,69.2,147.6,67.9
554.5,184.1,186.5,68.5,146.4,67.4
555.0,187.5,185.5,69.3,147.4,67.6
555.5,183.4,187.9,69.7,147.0,67.0
556.0,184.2,188.5,67.4,146.7,68.7
556.5,185.2,184.8,66.9,145.6,68.2
557.0,185.6,185.2,68.4,146.4,67.5
557.5,184.5,181.9,67.1,144.5,67.1
558.0,183.1,184.6,67.4,145.0,67.2
558.5,181.8,181.3,66.1,143.1,66.7
559.0,184.3,181.9,66.0,144.1,67.6
559.5,181.3,177.9,66.1,141.8,65.5
560.0,183.5,181.7,66.7,144.0,66.9
560.5,178.4,182.0,65.1,141.8,66.5
561.0,184.6,179.7,66.3,143.5,66.9
561.5,181.3,179.4,65.2,142.0,66.5
562.0,182.2,177.6,65.0,141.6,66.3
562.5,180.7,179.6,65.1,141.8,66.5
563.0,178.5,176.2,65.5,140.1,64.6
563.5,182.2,173.7,65.5,140.5,65.1
564.0,178.0,174.0,63.9,138.6,64.7
564.5,178.1,174.7,64.4,139.1,64.7
565.0,178.7,177.4,63.7,140.0,66.0
565.5,173.9,172.1,64.0,136.7,62.9
566.0,173.0,173.9,64.2,137.0,63.1
566.5,172.8,169.2,63.9,135.3,61.9
567.0,174.2,169.0,63.2,135.4,62.6
567.5,168.9,173.0,63.4,135.1,62.1
568.0,171.0,167.6,64.1,134.2,60.8
568.5,167.2,168.2,64.4,133.3,59.7
569.0,168.7,170.9,63.2,134.3,61.6
569.5,170.6,167.4,62.6,133.5,61.5
570.0,169.6,165.0,62.3,132.3,60.7
570.5,165.2,170.5,62.4,132.7,60.9
571.0,164.4,167.4,62.2,131.3,59.9
571.5,165.3,166.3,62.7,131.4,59.6
572.0,165.5,163.1,62.0,130.2,59.1
572.5,167.0,166.6,63.2,132.2,59.8
573.0,165.7,165.7,61.9,131.1,59.9
573.5,164.5,164.3,62.1,130.3,59.0
574.0,163.4,166.0,62.0,130.5,59.3
574.5,158.7,164.9,61.8,128.5,57.8
575.0,162.2,164.5,61.6,129.4,58.8
575.5,161.0,163.9,61.9,128.9,58.1
576.0,156.4,159.1,61.2,125.6,55.7
576.5,156.9,161.1,62.0,126.7,56.1
577.0,153.1,157.8,61.7,124.2,54.2
577.5,153.2,157.3,60.7,123.7,54.6
578.0,153.6,155.6,61.9,123.7,53.5
578.5,148.5,156.6,61.3,122.1,52.9
579.0,148.4,154.6,61.7,121.6,51.9
579.5,145.6,152.8,61.3,119.9,50.9
580.0,145.2,155.0,61.9,120.7,51.1
580.5,144.1,156.9,62.0,121.0,51.5
581.0,145.3,154.0,61.8,120.4,50.9
581.5,143.2,152.8,61.1,119.0,50.4
582.0,139.6,149.3,61.0,116.6,48.4
582.5,139.7,150.8,61.1,117.2,48.9
583.0,136.6,149.5,60.5,115.5,48.1
583.5,137.2,148.6,60.3,115.4,48.0
584.0,136.8,146.9,60.5,114.7,47.3
584.5,135.1,146.5,60.8,114.1,46.6
585.0,130.9,144.1,60.2,111.7,45.1
585.5,132.1,146.1,61.3,113.1,45.5
586.0,128.2,143.9,59.7,110.6,44.8
586.5,128.2,142.7,60.4,110.4,44.0
587.0,125.8,142.1,59.5,109.1,43.7
587.5,124.6,141.7,60.4,108.9,42.9
588.0,121.6,142.6,61.0,108.4,42.4
588.5,123.3,139.2,60.3,107.6,41.7
589.0,120.5,139.4,60.6,106.8,41.1
589.5,121.6,140.4,59.4,107.1,42.4
590.0,118.6,136.4,60.3,105.1,39.8
590.5,118.1,137.6,59.7,105.1,40.6
591.0,115.8,136.5,60.2,104.2,39.5
591.5,114.8,137.1,59.1,103.7,40.2
592.0,112.2,135.8,59.9,102.6,38.9
592.5,110.4,135.0,60.3,101.9,38.1
593.0,109.7,133.8,59.4,101.0,38.0
593.5,108.6,135.7,58.7,101.0,39.1
594.0,105.9,132.0,59.4,99.1,36.8
594.5,106.5,133.5,59.0,99.7,37.7
595.0,104.6,132.9,59.4,98.9,37.1
595.5,105.7,131.4,58.9,98.7,36.8
596.0,103.5,131.4,58.5,97.8,36.8
596.5,103.2,129.0,59.3,97.2,35.2
597.0,101.8,129.3,59.8,97.0,35.0
597.5,99.6,127.5,59.1,95.4,34.4
598.0,99.3,125.9,59.3,94.8,33.5
598.5,97.0,124.0,58.7,93.3,32.8
599.0,94.6,124.8,58.9,92.8,33.0
599.5,93.4,121.0,59.5,91.3,30.8
600.0,91.9,122.5,58.4,90.9,32.1
600.5,90.6,119.8,59.0,89.8,30.4
601.0,90.6,120.7,59.3,90.2,30.7
601.5,89.7,119.2,58.5,89.1,30.3
602.0,88.1,119.5,58.9,88.8,30.3
602.5,86.3,116.7,59.7,87.5,28.6
603.0,85.7,115.3,58.7,86.6,28.3
603.5,86.1,115.2,58.3,86.5,28.5
604.0,85.0,113.6,58.6,85.7,27.5
604.5,84.1,113.0,59.3,85.4,26.9
605.0,84.2,111.7,58.9,84.9,26.4
605.5,81.4,110.6,58.3,83.4,26.2
606.0,81.3,110.6,58.8,83.6,25.9
606.5,79.0,110.6,58.7,82.8,26.1
607.0,79.8,109.5,57.8,82.4,25.9
607.5,78.8,109.3,58.4,82.2,25.6
608.0,76.6,107.6,58.7,81.0,24.7
608.5,76.6,107.1,57.9,80.5,24.8
609.0,75.3,106.6,57.8,79.9,24.7
609.5,74.2,105.6,56.9,78.9,24.7
610.0,72.7,103.4,59.2,78.4,22.7
610.5,71.6,102.6,57.6,77.3,23.0
611.0,71.1,101.3,57.6,76.7,22.4
611.5,71.4,99.7,58.0,76.3,21.3
612.0,70.5,98.3,56.9,75.2,21.1
612.5,70.0,98.6,57.3,75.3,21.2
613.0,68.5,99.0,57.8,75.1,21.4
613.5,67.8,97.6,57.6,74.3,20.8
614.0,68.3,97.6,57.2,74.4,20.9
614.5,67.6,95.3,57.9,73.6,19.4
615.0,67.0,93.6,56.2,72.3,19.2
615.5,67.9,92.3,57.1,72.4,18.0
616.0,67.0,93.1,57.0,72.4,18.6
616.5,65.7,91.2,56.8,71.2,17.9
617.0,66.7,90.7,56.8,71.4,17.4
617.5,66.2,87.5,57.2,70.3,15.5
618.0,64.2,88.4,56.0,69.5,16.8
618.5,65.6,86.9,56.2,69.6,15.7
619.0,64.9,86.8,56.9,69.5,15.5
619.5,65.4,84.9,55.7,68.7,14.9
620.0,64.6,84.4,56.7,68.5,14.3
620.5,65.0,84.2,55.7,68.3,14.5
621.0,63.7,83.7,55.4,67.6,14.6
621.5,63.4,83.2,55.5,67.4,14.3
622.0,63.8,83.5,57.0,68.1,13.8
622.5,64.6,82.0,55.8,67.5,13.3
623.0,63.4,80.8,55.7,66.6,12.9
623.5,63.5,79.5,55.6,66.2,12.2
624.0,62.8,79.0,56.5,66.1,11.6
624.5,63.0,78.1,55.7,65.6,11.4
625.0,63.1,77.2,56.6,65.6,10.5
625.5,61.6,77.1,56.0,64.9,11.0
626.0,62.0,75.8,56.3,64.7,10.0
626.5,61.1,75.4,55.7,64.1,10.2
627.0,62.3,74.7,55.7,64.2,9.6
627.5,62.4,74.8,56.4,64.5,9.4
628.0,62.3,74.2,55.6,64.0,9.4
628.5,61.2,74.6,55.5,63.8,9.8
629.0,60.7,73.6,56.3,63.5,9.0
629.5,60.5,73.4,55.5,63.1,9.2
630.0,62.1,72.0,55.3,63.1,8.4
630.5,62.0,70.6,56.8,63.1,7.0
631.0,61.3,71.7,56.0,63.0,8.0
631.5,62.0,71.1,55.4,62.8,7.9
632.0,61.4,71.4,56.1,63.0,7.7
632.5,61.3,69.8,56.2,62.4,6.9
633.0,61.3,70.0,54.6,62.0,7.7
633.5,60.9,67.7,54.9,61.2,6.4
634.0,62.0,69.0,54.5,61.9,7.3
634.5,60.9,67.4,55.3,61.2,6.1
635.0,62.6,67.5,54.5,61.5,6.5
635.5,61.6,67.1,54.9,61.2,6.1
636.0,61.7,67.4,55.2,61.5,6.1
636.5,63.1,67.3,53.9,61.4,6.9
637.0,62.4,66.2,53.9,60.9,6.3
637.5,62.8,65.4,54.5,60.9,5.7
638.0,62.9,66.3,54.7,61.3,6.0
638.5,61.7,66.1,54.8,60.9,5.7
639.0,62.7,64.6,54.7,60.7,5.2
639.5,62.1,65.0,54.2,60.4,5.6
640.0,61.2,64.9,56.2,60.8,4.4
640.5,61.7,65.4,55.8,61.0,4.9
641.0,60.8,64.4,55.0,60.1,4.7
641.5,60.7,64.5,55.8,60.4,4.4
642.0,61.1,65.1,55.2,60.5,5.0
642.5,59.6,63.6,55.3,59.5,4.2
643.0,59.3,64.1,55.1,59.5,4.5
643.5,59.0,63.9,55.9,59.6,4.0
644.0,59.6,64.1,55.6,59.8,4.3
644.5,59.9,63.7,55.9,59.8,3.9
645.0,58.8,62.9,55.9,59.2,3.5
645.5,58.2,63.1,55.8,59.0,3.7
646.0,58.3,63.5,55.5,59.1,4.1
646.5,59.5,63.0,55.8,59.4,3.6
647.0,59.2,62.8,54.9,58.9,4.0
647.5,59.2,62.7,55.7,59.2,3.5
648.0,58.8,62.5,54.8,58.7,3.9
648.5,58.5,62.7,55.7,59.0,3.5
649.0,58.5,64.1,55.5,59.3,4.4
649.5,57.8,62.5,55.8,58.7,3.5
650.0,57.8,61.6,55.4,58.3,3.1
650.5,57.5,61.9,55.5,58.3,3.3
651.0,57.9,62.5,55.8,58.7,3.4
651.5,57.5,62.0,54.9,58.1,3.6
652.0,57.4,61.9,55.6,58.3,3.3
652.5,57.1,61.6,55.4,58.0,3.2
653.0,57.8,61.9,56.4,58.7,2.9
653.5,57.3,61.8,56.3,58.5,2.9
654.0,57.2,61.2,55.6,58.0,2.9
654.5,57.2,61.0,54.6,57.6,3.2
655.0,57.0,62.5,56.2,58.6,3.4
655.5,56.4,61.2,55.7,57.7,3.0
656.0,56.1,61.0,55.0,57.4,3.2
656.5,56.0,61.2,55.9,57.7,3.0
657.0,56.1,61.4,55.9,57.8,3.1
657.5,56.0,61.1,55.6,57.6,3.0
658.0,56.1,61.3,55.4,57.6,3.2
658.5,56.6,60.8,56.1,57.8,2.6