File: 01_Data/OSB/Cone/OSB_HRRPUA_50.csv
Time after Ignition,OSB_R1,OSB_R2,OSB_R3,Mean,Std. Dev.
0.0,23.9,6.4,8.9,13.1,9.5
0.75,39.2,15.7,15.0,23.3,13.8
1.5,63.3,30.0,25.1,39.5,20.8
2.25,81.9,45.9,41.7,56.5,22.1
3.0,105.5,63.8,61.7,77.0,24.7
3.75,125.5,85.9,81.3,97.6,24.3
4.5,147.9,109.1,104.7,120.6,23.8
5.25,165.3,126.1,126.5,139.3,22.5
6.0,183.8,149.1,139.8,157.5,23.2
6.75,200.6,158.6,156.5,171.9,24.9
7.5,215.1,173.0,171.9,186.7,24.6
8.25,228.6,185.2,184.4,199.4,25.3
9.0,246.5,194.1,191.1,210.6,31.2
9.75,249.5,203.5,200.5,217.8,27.5
10.5,259.5,209.3,205.1,224.6,30.2
11.25,263.9,216.3,215.5,231.9,27.7
12.0,265.5,225.8,224.7,238.7,23.3
12.75,270.2,227.2,228.0,241.8,24.6
13.5,269.4,229.9,235.6,245.0,21.3
14.25,271.9,230.8,242.0,248.2,21.2
15.0,269.0,230.8,244.4,248.1,19.3
15.75,268.6,242.8,246.5,252.7,14.0
16.5,274.4,244.7,246.0,255.0,16.8
17.25,281.5,249.5,257.9,263.0,16.6
18.0,272.9,245.0,257.9,258.6,14.0
18.75,283.8,251.2,259.1,264.7,17.1
19.5,277.1,252.8,264.7,264.8,12.2
20.25,279.5,256.1,268.3,268.0,11.7
21.0,279.3,257.7,264.2,267.1,11.1
21.75,276.5,249.4,269.3,265.1,14.0
22.5,277.0,249.7,270.5,265.7,14.3
23.25,273.2,257.4,264.5,265.0,7.9
24.0,273.4,257.1,272.3,267.6,9.1
24.75,280.0,257.3,265.1,267.5,11.5
25.5,264.3,255.7,268.3,262.7,6.4
26.25,279.5,260.8,269.1,269.8,9.4
27.0,277.4,252.4,268.3,266.0,12.7
27.75,275.9,257.5,273.3,268.9,10.0
28.5,269.8,254.8,271.1,265.3,9.0
29.25,284.1,261.1,270.9,272.0,11.6
30.0,277.3,260.8,276.3,271.4,9.3
30.75,275.1,254.5,275.9,268.5,12.1
31.5,277.0,257.6,269.6,268.0,9.8
32.25,282.0,251.5,271.2,268.2,15.5
33.0,282.0,259.4,269.1,270.2,11.3
33.75,274.5,257.9,264.5,265.6,8.4
34.5,274.0,255.2,272.3,267.2,10.4
35.25,268.7,260.2,270.7,266.5,5.6
36.0,272.0,256.7,273.6,267.4,9.3
36.75,270.2,254.2,270.0,264.8,9.2
37.5,266.3,257.3,267.6,263.7,5.6
38.25,259.9,259.4,270.7,263.3,6.4
39.0,265.9,257.4,266.7,263.3,5.1
39.75,271.1,257.8,273.0,267.3,8.3
40.5,265.6,263.0,271.3,266.6,4.2
41.25,265.9,263.1,266.1,265.1,1.7
42.0,264.2,261.4,271.0,265.5,4.9
42.75,265.4,259.7,271.2,265.4,5.7
43.5,259.0,264.1,273.8,265.6,7.5
44.25,259.1,260.8,272.2,264.0,7.1
45.0,263.3,263.5,270.1,265.6,3.9
45.75,264.0,260.2,268.6,264.3,4.2
46.5,264.1,265.9,271.7,267.3,4.0
47.25,263.0,256.1,269.5,262.9,6.7
48.0,262.5,259.4,272.3,264.7,6.7
48.75,260.6,259.5,267.1,262.4,4.1
49.5,258.0,258.9,268.6,261.8,5.9
50.25,257.0,253.3,262.9,257.7,4.8
51.0,261.1,255.0,264.7,260.2,4.9
51.75,253.8,257.7,265.7,259.1,6.1
52.5,257.0,264.4,262.0,261.1,3.8
53.25,261.4,260.0,259.3,260.2,1.1
54.0,257.5,260.8,264.0,260.8,3.2
54.75,257.6,258.6,259.4,258.5,0.9
55.5,255.7,258.8,262.6,259.0,3.4
56.25,262.0,260.1,262.8,261.7,1.4
57.0,263.9,256.7,258.3,259.6,3.8
57.75,260.9,255.2,259.6,258.6,3.0
58.5,261.7,259.2,259.5,260.1,1.4
59.25,257.4,258.8,258.1,258.1,0.7
60.0,262.9,257.0,256.0,258.6,3.8
60.75,262.6,255.3,257.3,258.4,3.8
61.5,261.0,258.1,254.1,257.8,3.5
62.25,257.8,254.7,253.7,255.4,2.1
63.0,257.8,252.1,259.5,256.4,3.9
63.75,260.3,253.4,253.1,255.6,4.1
64.5,261.5,248.2,253.6,254.4,6.6
65.25,259.5,255.7,251.3,255.5,4.1
66.0,259.9,251.2,252.4,254.5,4.7
66.75,255.1,252.2,250.4,252.6,2.4
67.5,257.3,248.3,251.6,252.4,4.6
68.25,254.4,247.4,250.9,250.9,3.5
69.0,255.5,250.1,247.1,250.9,4.3
69.75,257.8,248.5,247.4,251.3,5.7
70.5,257.2,247.3,247.3,250.6,5.7
71.25,251.3,246.4,242.8,246.8,4.3
72.0,256.2,242.2,247.5,248.6,7.1
72.75,256.1,251.1,249.8,252.3,3.3
73.5,251.4,248.0,241.8,247.1,4.9
74.25,254.5,245.4,243.0,247.6,6.1
75.0,249.2,247.6,244.7,247.2,2.3
75.75,249.4,245.7,242.7,245.9,3.4
76.5,254.5,240.7,242.4,245.9,7.5
77.25,254.2,242.7,239.2,245.4,7.9
78.0,253.4,244.4,243.0,246.9,5.7
78.75,249.0,244.6,235.6,243.0,6.8
79.5,251.6,239.6,238.8,243.4,7.2
80.25,254.2,240.3,241.9,245.5,7.6
81.0,250.0,238.6,233.2,240.6,8.6
81.75,251.9,240.1,232.7,241.6,9.7
82.5,246.5,232.2,232.4,237.0,8.2
83.25,247.6,236.4,237.3,240.5,6.2
84.0,249.1,234.4,235.5,239.6,8.2
84.75,244.2,235.7,232.6,237.5,6.0
85.5,242.5,235.3,233.1,237.0,4.9
86.25,239.4,236.2,229.9,235.2,4.8
87.0,246.2,230.1,225.7,234.0,10.8
87.75,239.3,231.1,222.1,230.8,8.6
88.5,245.9,228.5,224.7,233.0,11.3
89.25,241.7,227.4,227.8,232.3,8.2
90.0,240.4,229.9,224.7,231.7,8.0
90.75,233.9,228.4,223.3,228.6,5.3
91.5,236.0,224.8,221.8,227.5,7.5
92.25,237.6,227.4,220.4,228.5,8.7
93.0,234.2,226.9,218.4,226.5,7.9
93.75,238.1,223.6,224.5,228.7,8.1
94.5,234.4,224.5,222.8,227.2,6.3
95.25,237.1,220.5,223.0,226.9,8.9
96.0,236.0,226.6,221.5,228.0,7.3
96.75,228.4,225.3,219.1,224.3,4.7
97.5,229.8,215.9,216.0,220.6,8.0
98.25,225.9,220.8,215.5,220.7,5.2
99.0,226.2,218.3,219.6,221.4,4.2
99.75,222.9,214.6,211.4,216.3,5.9
100.5,230.0,216.9,210.5,219.2,10.0
101.25,227.8,216.4,218.2,220.8,6.2
102.0,230.3,214.5,210.6,218.5,10.4
102.75,227.5,216.5,214.5,219.5,7.0
103.5,221.0,214.9,214.2,216.7,3.7
104.25,223.2,214.5,214.4,217.4,5.1
105.0,221.5,216.5,213.3,217.1,4.1
105.75,225.8,213.7,212.7,217.4,7.3
106.5,221.6,212.9,214.0,216.1,4.7
107.25,218.9,212.3,212.4,214.5,3.8
108.0,222.1,209.0,209.7,213.6,7.4
108.75,220.0,214.2,211.9,215.3,4.2
109.5,223.6,210.8,208.8,214.4,8.0
110.25,215.5,213.0,208.4,212.3,3.6
111.0,217.3,211.2,206.3,211.6,5.5
111.75,220.3,207.2,210.4,212.6,6.9
112.5,218.7,209.5,206.6,211.6,6.3
113.25,214.0,208.7,204.5,209.1,4.8
114.0,218.8,209.9,203.9,210.9,7.5
114.75,216.0,206.4,207.8,210.1,5.2
115.5,215.2,203.9,204.4,207.9,6.4
116.25,211.6,208.0,202.3,207.3,4.7
117.0,213.6,204.0,203.4,207.0,5.7
117.75,211.7,204.6,202.4,206.2,4.8
118.5,213.0,209.1,199.9,207.3,6.7
119.25,212.9,206.0,198.0,205.6,7.4
120.0,209.7,204.5,197.5,203.9,6.1
120.75,207.8,204.9,199.8,204.2,4.0
121.5,208.2,200.2,197.4,201.9,5.6
122.25,207.7,200.9,196.9,201.8,5.5
123.0,209.1,204.5,194.4,202.7,7.5
123.75,204.2,199.8,192.9,199.0,5.7
124.5,207.4,206.6,194.6,202.9,7.1
125.25,203.0,204.1,193.6,200.2,5.7
126.0,204.2,201.3,196.3,200.6,4.0
126.75,203.2,203.9,192.6,199.9,6.3
127.5,201.4,204.3,193.7,199.8,5.5
128.25,204.6,201.5,193.9,200.0,5.5
129.0,202.7,200.6,187.4,196.9,8.3
129.75,204.9,199.8,191.8,198.8,6.6
130.5,200.1,197.1,189.8,195.7,5.3
131.25,200.1,197.1,185.8,194.3,7.5
132.0,201.8,195.6,190.2,195.9,5.8
132.75,199.3,197.9,187.7,195.0,6.3
133.5,200.0,197.8,191.0,196.2,4.7
134.25,198.9,193.6,183.1,191.9,8.0
135.0,198.4,201.0,186.8,195.4,7.6
135.75,192.2,194.5,181.2,189.3,7.1
136.5,194.3,197.8,184.5,192.2,6.9
137.25,193.0,197.9,183.3,191.4,7.4
138.0,192.2,196.8,181.4,190.1,7.9
138.75,196.3,194.8,183.1,191.4,7.2
139.5,191.2,197.7,180.6,189.8,8.6
140.25,194.1,193.7,180.0,189.3,8.0
141.0,192.1,195.7,181.6,189.8,7.3
141.75,188.4,193.6,181.1,187.7,6.2
142.5,189.1,190.5,178.5,186.1,6.5
143.25,192.5,193.5,181.0,189.0,6.9
144.0,189.8,191.8,176.7,186.1,8.2
144.75,189.9,195.0,181.4,188.8,6.9
145.5,190.2,194.5,179.8,188.2,7.5
146.25,186.4,190.1,182.3,186.3,3.9
147.0,188.6,192.7,177.7,186.3,7.8
147.75,184.7,193.4,176.6,184.9,8.4
148.5,187.2,191.3,180.0,186.2,5.7
149.25,186.1,193.4,179.0,186.2,7.2
150.0,183.1,188.9,180.7,184.2,4.3
150.75,185.8,192.0,179.0,185.6,6.5
151.5,182.8,191.6,180.6,185.0,5.8
152.25,185.0,188.7,175.3,183.0,6.9
153.0,183.6,190.1,173.2,182.3,8.5
153.75,184.2,194.8,174.1,184.4,10.4
154.5,184.4,188.7,176.6,183.3,6.1
155.25,182.8,190.3,174.3,182.5,8.0
156.0,180.9,189.0,175.3,181.7,6.9
156.75,179.3,188.2,173.4,180.3,7.5
157.5,182.8,189.6,175.2,182.5,7.2
158.25,180.0,189.0,175.4,181.5,6.9
159.0,180.3,187.5,175.4,181.1,6.1
159.75,178.7,185.6,172.1,178.8,6.7
160.5,182.0,182.6,172.5,179.0,5.6
161.25,181.2,182.2,171.7,178.4,5.8
162.0,177.9,182.4,172.7,177.7,4.8
162.75,181.4,185.0,172.4,179.6,6.5
163.5,180.6,180.8,172.6,178.0,4.7
164.25,177.0,180.9,170.9,176.3,5.1
165.0,180.5,186.8,172.0,179.8,7.5
165.75,176.6,182.0,172.8,177.1,4.6
166.5,180.9,180.0,175.2,178.7,3.0
167.25,180.0,182.0,170.0,177.4,6.4
168.0,176.3,181.8,168.8,175.6,6.5
168.75,179.6,181.7,173.4,178.2,4.3
169.5,177.9,178.9,170.7,175.9,4.5
170.25,177.1,179.9,171.8,176.3,4.2
171.0,176.9,177.4,170.7,175.0,3.7
171.75,171.1,178.9,172.0,174.0,4.3
172.5,173.7,177.3,170.3,173.8,3.5
173.25,175.4,177.2,166.9,173.2,5.5
174.0,178.8,172.6,166.0,172.5,6.4
174.75,173.3,177.6,168.9,173.3,4.3
175.5,174.5,177.3,166.8,172.8,5.5
176.25,174.2,175.9,165.5,171.9,5.6
177.0,171.8,176.8,167.5,172.0,4.7
177.75,172.4,176.9,166.4,171.9,5.3
178.5,174.4,176.4,162.0,170.9,7.8
179.25,173.7,175.0,163.5,170.8,6.3
180.0,172.4,174.3,164.9,170.6,5.0
180.75,170.2,174.6,167.7,170.8,3.5
181.5,173.8,175.7,165.2,171.6,5.6
182.25,170.6,173.1,162.5,168.7,5.6
183.0,171.1,175.1,163.0,169.8,6.2
183.75,170.7,175.9,165.5,170.7,5.2
184.5,170.6,174.8,164.6,170.0,5.1
185.25,171.0,177.7,161.9,170.2,7.9
186.0,168.8,175.8,166.2,170.3,5.0
186.75,170.3,172.9,164.4,169.2,4.4
187.5,170.9,173.4,162.4,168.9,5.8
188.25,167.0,174.9,160.5,167.5,7.2
189.0,166.1,173.6,161.3,167.0,6.2
189.75,168.7,172.1,163.3,168.0,4.4
190.5,166.9,173.3,164.5,168.2,4.6
191.25,170.2,174.8,160.5,168.5,7.3
192.0,167.7,173.0,161.8,167.5,5.6
192.75,168.1,171.5,162.0,167.2,4.8
193.5,167.7,170.9,160.1,166.2,5.5
194.25,167.0,170.8,158.1,165.3,6.5
195.0,164.5,171.7,159.8,165.4,6.0
195.75,166.4,170.6,160.1,165.7,5.3
196.5,164.4,170.9,158.1,164.5,6.4
197.25,164.2,169.7,157.3,163.7,6.2
198.0,162.9,171.8,159.3,164.7,6.4
198.75,162.7,168.9,160.0,163.9,4.6
199.5,164.7,169.5,160.1,164.7,4.7
200.25,163.7,169.9,157.7,163.8,6.1
201.0,165.0,171.3,159.9,165.4,5.8
201.75,162.7,168.9,160.2,163.9,4.5
202.5,164.0,168.1,159.4,163.8,4.3
203.25,163.3,168.5,160.4,164.1,4.1
204.0,162.6,168.9,155.8,162.4,6.6
204.75,161.3,168.2,160.0,163.2,4.4
205.5,160.6,169.2,158.3,162.7,5.8
206.25,160.8,168.1,157.9,162.2,5.2
207.0,160.1,168.2,154.6,161.0,6.8
207.75,158.4,168.1,156.8,161.1,6.1
208.5,157.8,171.1,157.3,162.1,7.8
209.25,160.6,173.6,154.9,163.0,9.6
210.0,161.3,172.2,156.0,163.2,8.3
210.75,159.1,169.6,154.6,161.1,7.7
211.5,159.6,168.8,152.9,160.5,8.0
212.25,159.6,170.7,153.7,161.3,8.6
213.0,161.3,168.8,152.1,160.8,8.4
213.75,159.4,171.4,151.2,160.7,10.1
214.5,158.4,169.7,152.4,160.1,8.8
215.25,162.4,169.6,154.5,162.2,7.6
216.0,158.2,166.6,155.9,160.2,5.6
216.75,162.5,170.5,150.8,161.3,9.9
217.5,157.6,168.3,153.2,159.7,7.8
218.25,155.5,169.0,151.7,158.7,9.1
219.0,158.8,167.2,152.8,159.6,7.3
219.75,158.7,168.2,152.4,159.8,8.0
220.5,154.2,170.3,151.9,158.8,10.0
221.25,158.1,168.6,151.7,159.5,8.5
222.0,155.6,164.0,148.8,156.1,7.6
222.75,153.3,164.1,152.2,156.5,6.6
223.5,158.0,167.3,148.5,157.9,9.4
224.25,154.1,164.2,150.0,156.1,7.3
225.0,156.4,167.4,149.6,157.8,9.0
225.75,159.9,168.2,145.9,158.0,11.3
226.5,154.5,167.8,147.0,156.4,10.5
227.25,155.1,164.2,147.8,155.7,8.2
228.0,155.2,168.8,147.5,157.2,10.8
228.75,157.0,166.5,150.3,157.9,8.2
229.5,157.7,167.2,147.9,157.6,9.6
230.25,157.2,166.7,144.8,156.2,11.0
231.0,154.5,163.1,148.7,155.4,7.3
231.75,152.6,163.5,147.6,154.6,8.1
232.5,154.3,167.8,147.8,156.6,10.3
233.25,152.0,166.9,147.7,155.5,10.1
234.0,153.6,162.9,146.5,154.3,8.2
234.75,157.0,166.1,148.9,157.3,8.6
235.5,152.8,168.8,145.1,155.6,12.1
236.25,153.6,166.2,145.4,155.1,10.5
237.0,153.8,165.1,144.3,154.4,10.4
237.75,153.7,166.2,145.0,154.9,10.7
238.5,155.1,167.9,145.6,156.2,11.2
239.25,154.0,167.7,144.9,155.5,11.5
240.0,153.3,164.9,145.1,154.4,9.9
240.75,151.9,165.1,145.6,154.2,10.0
241.5,151.1,164.0,143.4,152.8,10.4
242.25,150.6,164.9,144.6,153.4,10.4
243.0,152.4,164.5,148.5,155.1,8.3
243.75,155.6,167.1,144.4,155.7,11.3
244.5,153.2,163.3,141.9,152.8,10.7
245.25,152.4,161.4,143.9,152.5,8.8
246.0,154.7,165.5,144.6,154.9,10.4
246.75,152.1,163.7,141.9,152.5,10.9
247.5,151.3,163.1,140.6,151.7,11.3
248.25,150.5,168.3,144.4,154.4,12.4
249.0,148.8,162.2,146.5,152.5,8.5
249.75,149.0,162.0,144.1,151.7,9.3
250.5,151.4,163.5,143.8,152.9,9.9
251.25,149.0,162.5,144.5,152.0,9.3
252.0,148.0,161.0,141.2,150.0,10.1
252.75,150.8,162.0,146.3,153.0,8.1
253.5,152.5,163.5,144.1,153.4,9.7
254.25,154.8,160.7,141.5,152.3,9.8
255.0,150.3,162.8,142.7,151.9,10.2
255.75,149.6,161.5,144.2,151.8,8.9
256.5,148.1,163.8,144.5,152.2,10.3
257.25,148.3,162.4,141.2,150.6,10.8
258.0,149.5,161.0,143.1,151.2,9.1
258.75,150.1,164.3,141.8,152.1,11.4
259.5,149.0,161.0,140.4,150.1,10.3
260.25,148.2,161.8,143.0,151.0,9.7
261.0,147.6,161.8,141.0,150.1,10.6
261.75,147.5,165.3,139.5,150.8,13.2
262.5,146.8,158.4,141.1,148.7,8.8
263.25,148.9,163.0,140.7,150.8,11.3
264.0,148.9,160.7,141.5,150.4,9.7
264.75,151.7,161.0,137.8,150.2,11.7
265.5,150.7,167.6,141.6,153.3,13.2
266.25,149.2,165.3,142.3,152.3,11.8
267.0,146.7,162.0,139.2,149.3,11.6
267.75,147.7,163.9,140.9,150.8,11.8
268.5,146.1,161.8,138.3,148.7,12.0
269.25,148.0,159.4,138.5,148.6,10.4
270.0,147.4,160.6,139.3,149.1,10.8
270.75,149.3,162.0,138.7,150.0,11.7
271.5,148.1,161.5,135.4,148.3,13.1
272.25,146.8,159.7,136.5,147.7,11.6
273.0,146.2,160.2,137.4,147.9,11.5
273.75,146.8,159.3,138.0,148.1,10.7
274.5,145.5,160.4,136.8,147.6,12.0
275.25,144.6,159.0,136.5,146.7,11.4
276.0,146.9,159.2,135.6,147.3,11.8
276.75,145.4,159.6,136.1,147.0,11.8
277.5,145.4,159.3,137.5,147.4,11.0
278.25,144.8,158.9,141.3,148.3,9.3
279.0,142.7,160.8,138.3,147.2,11.9
279.75,146.8,160.6,137.1,148.2,11.8
280.5,147.5,157.2,138.7,147.8,9.3
281.25,148.3,162.1,138.5,149.7,11.8
282.0,148.0,160.5,137.0,148.5,11.8
282.75,145.6,160.3,139.1,148.3,10.8
283.5,145.9,160.0,135.7,147.2,12.2
284.25,144.8,158.1,136.6,146.5,10.9
285.0,144.9,159.8,137.5,147.4,11.4
285.75,146.5,157.5,137.9,147.3,9.8
286.5,145.4,158.3,139.8,147.8,9.5
287.25,146.9,159.1,137.9,148.0,10.6
288.0,147.0,158.2,139.3,148.2,9.5
288.75,148.2,158.1,138.9,148.4,9.6
289.5,146.7,158.3,136.3,147.1,11.0
290.25,148.7,161.9,139.2,149.9,11.4
291.0,144.1,162.5,138.2,148.3,12.7
291.75,146.6,157.4,136.3,146.8,10.6
292.5,145.5,158.1,137.6,147.1,10.4
293.25,144.8,156.5,138.4,146.6,9.2
294.0,142.7,160.6,136.3,146.5,12.6
294.75,145.9,160.7,135.9,147.5,12.5
295.5,146.6,157.9,134.8,146.4,11.5
296.25,144.0,160.1,135.3,146.4,12.6
297.0,143.0,157.3,137.6,146.0,10.2
297.75,144.9,161.3,136.1,147.4,12.8
298.5,143.2,158.4,136.5,146.0,11.2
299.25,142.9,156.8,136.3,145.3,10.5
300.0,142.3,156.1,135.0,144.5,10.7
300.75,146.0,156.9,135.5,146.1,10.7
301.5,143.6,157.7,137.6,146.3,10.3
302.25,142.7,155.4,134.2,144.1,10.7
303.0,139.3,158.4,136.8,144.8,11.8
303.75,142.1,157.1,134.5,144.6,11.5
304.5,143.6,156.0,135.7,145.1,10.2
305.25,141.8,158.7,136.2,145.6,11.7
306.0,143.2,159.5,139.2,147.3,10.7
306.75,143.6,157.1,134.4,145.0,11.4
307.5,140.0,156.0,136.6,144.2,10.4
308.25,140.8,155.2,134.4,143.5,10.6
309.0,144.9,157.4,136.1,146.1,10.7
309.75,143.5,158.1,133.8,145.1,12.3
310.5,142.9,156.7,135.9,145.1,10.6
311.25,141.9,154.9,135.4,144.1,10.0
312.0,142.3,155.4,133.6,143.7,11.0
312.75,141.4,155.1,134.5,143.7,10.5
313.5,143.8,154.1,133.5,143.8,10.3
314.25,141.9,155.2,133.3,143.4,11.0
315.0,141.9,153.8,133.5,143.1,10.2
315.75,143.8,156.5,132.4,144.2,12.1
316.5,143.1,153.2,132.2,142.8,10.5
317.25,144.4,154.4,135.6,144.8,9.4
318.0,142.8,153.5,134.0,143.5,9.8
318.75,143.6,152.7,134.1,143.4,9.3
319.5,142.2,153.8,133.6,143.2,10.1
320.25,143.4,155.2,134.0,144.2,10.6
321.0,142.8,154.8,134.2,143.9,10.3
321.75,143.2,154.3,133.8,143.7,10.3
322.5,140.5,153.8,132.6,142.3,10.7
323.25,145.1,156.7,134.0,145.3,11.3
324.0,144.7,154.2,134.8,144.5,9.7
324.75,142.9,154.8,132.8,143.5,11.0
325.5,142.2,157.3,133.2,144.2,12.2
326.25,141.0,154.5,133.4,142.9,10.7
327.0,143.0,156.5,130.2,143.2,13.2
327.75,146.9,153.5,133.5,144.6,10.2
328.5,146.5,156.2,131.7,144.8,12.3
329.25,143.6,153.8,134.4,143.9,9.7
330.0,141.6,155.0,132.5,143.0,11.3
330.75,143.1,156.3,131.5,143.6,12.4
331.5,142.9,153.8,132.3,143.0,10.7
332.25,142.6,154.3,131.5,142.8,11.4
333.0,144.2,155.4,133.5,144.4,10.9
333.75,143.4,157.9,133.0,144.8,12.5
334.5,143.1,154.4,131.9,143.1,11.2
335.25,142.6,159.3,133.5,145.2,13.1
336.0,143.6,154.4,133.1,143.7,10.7
336.75,140.9,154.3,134.2,143.1,10.2
337.5,145.2,156.8,131.8,144.6,12.5
338.25,141.9,156.0,135.9,144.6,10.3
339.0,146.7,156.4,132.9,145.3,11.8
339.75,141.5,157.1,132.6,143.7,12.4
340.5,143.5,156.5,134.8,144.9,10.9
341.25,141.4,156.5,134.9,144.3,11.1
342.0,142.1,156.2,134.0,144.1,11.2
342.75,144.0,156.1,131.8,144.0,12.2
343.5,144.2,157.4,132.0,144.6,12.7
344.25,145.2,158.6,132.0,145.3,13.3
345.0,142.8,155.9,135.0,144.6,10.6
345.75,143.0,154.9,135.2,144.4,9.9
346.5,146.1,156.8,132.7,145.2,12.1
347.25,143.3,157.4,135.1,145.2,11.3
348.0,144.8,157.3,134.1,145.4,11.6
348.75,145.5,155.9,135.5,145.6,10.2
349.5,146.4,155.3,135.8,145.8,9.8
350.25,143.4,154.1,135.3,144.3,9.5
351.0,144.0,156.2,134.5,144.9,10.9
351.75,144.4,155.9,134.3,144.9,10.8
352.5,146.8,156.5,133.2,145.5,11.7
353.25,145.1,157.7,133.1,145.3,12.3
354.0,147.3,157.5,133.4,146.0,12.1
354.75,144.2,154.0,132.8,143.7,10.6
355.5,146.3,157.3,135.3,146.3,11.0
356.25,147.8,160.1,133.3,147.1,13.4
357.0,147.4,156.2,133.9,145.8,11.2
357.75,146.6,156.3,133.1,145.3,11.6
358.5,144.7,159.5,134.2,146.1,12.8
359.25,143.4,158.9,131.9,144.8,13.6
360.0,147.2,157.3,132.9,145.8,12.3
360.75,147.1,161.8,132.0,147.0,14.9
361.5,146.5,158.6,131.9,145.7,13.4
362.25,145.6,159.7,134.0,146.4,12.9
363.0,145.0,159.0,133.8,146.0,12.6
363.75,145.9,158.8,134.7,146.4,12.1
364.5,145.8,158.0,136.1,146.6,11.0
365.25,145.5,158.7,135.0,146.4,11.9
366.0,146.0,158.8,135.1,146.6,11.9
366.75,145.5,158.6,136.3,146.8,11.2
367.5,147.5,156.5,133.8,146.0,11.5
368.25,145.8,159.5,133.7,146.3,12.9
369.0,145.7,157.7,133.9,145.8,11.9
369.75,145.1,157.6,134.8,145.8,11.4
370.5,147.7,160.0,132.3,146.7,13.9
371.25,146.7,157.5,132.2,145.5,12.7
372.0,146.9,160.0,136.7,147.9,11.6
372.75,146.9,158.7,135.9,147.1,11.4
373.5,147.3,160.1,133.8,147.1,13.1
374.25,148.4,158.3,134.8,147.2,11.8
375.0,148.7,159.1,134.9,147.6,12.2
375.75,146.3,159.2,135.3,146.9,12.0
376.5,147.5,158.0,135.9,147.1,11.1
377.25,146.4,156.7,134.3,145.8,11.2
378.0,146.6,159.7,139.0,148.4,10.5
378.75,146.5,161.9,134.9,147.7,13.6
379.5,149.4,161.7,134.7,148.6,13.5
380.25,148.9,161.6,136.5,149.0,12.6
381.0,149.0,163.2,137.4,149.9,12.9
381.75,149.7,162.2,136.9,149.6,12.6
382.5,147.4,159.5,134.7,147.2,12.4
383.25,146.8,163.0,136.6,148.8,13.3
384.0,148.3,160.4,136.2,148.3,12.1
384.75,150.8,163.0,140.4,151.4,11.4
385.5,150.4,163.7,140.3,151.5,11.8
386.25,146.7,162.3,138.5,149.1,12.1
387.0,147.2,162.8,142.6,150.8,10.6
387.75,150.2,161.8,140.1,150.7,10.9
388.5,149.0,166.4,140.0,151.8,13.4
389.25,149.5,166.1,137.9,151.2,14.2
390.0,150.5,162.3,138.5,150.4,11.9
390.75,147.1,162.4,139.1,149.5,11.9
391.5,149.4,162.1,139.3,150.3,11.4
392.25,151.1,166.0,137.5,151.5,14.3
393.0,148.8,164.5,139.8,151.1,12.5
393.75,149.8,162.5,141.7,151.3,10.5
394.5,151.2,166.7,141.5,153.1,12.7
395.25,148.7,165.6,138.7,151.0,13.6
396.0,149.3,161.6,139.1,150.0,11.3
396.75,150.0,162.0,140.9,151.0,10.6
397.5,148.9,164.8,139.8,151.2,12.6
398.25,146.9,161.1,140.9,149.6,10.4
399.0,151.4,163.8,142.6,152.6,10.7
399.75,151.2,163.4,142.3,152.3,10.6
400.5,154.3,164.9,143.2,154.1,10.9
401.25,152.4,166.4,142.8,153.9,11.9
402.0,152.3,162.3,147.0,153.9,7.8
402.75,150.4,163.7,143.0,152.4,10.5
403.5,154.9,164.4,143.1,154.2,10.7
404.25,150.5,162.7,143.9,152.3,9.5
405.0,154.1,163.3,145.3,154.2,9.0
405.75,153.8,159.7,145.9,153.1,7.0
406.5,154.1,165.0,145.3,154.8,9.9
407.25,152.3,166.1,144.9,154.4,10.7
408.0,156.6,163.9,145.1,155.2,9.5
408.75,154.2,164.9,144.8,154.6,10.1
409.5,157.4,165.3,143.3,155.3,11.2
410.25,152.5,165.1,145.2,154.2,10.0
411.0,153.3,162.1,144.3,153.2,8.9
411.75,153.8,163.3,143.2,153.4,10.0
412.5,151.7,163.4,141.9,152.3,10.8
413.25,152.5,163.9,143.0,153.1,10.4
414.0,151.9,163.7,146.3,154.0,8.9
414.75,155.6,164.7,144.4,154.9,10.2
415.5,154.3,163.4,143.2,153.6,10.1
416.25,158.1,163.3,143.5,155.0,10.3
417.0,154.8,162.3,144.6,153.9,8.9
417.75,154.3,166.7,145.4,155.5,10.7
418.5,156.5,163.8,144.5,154.9,9.8
419.25,155.9,165.3,146.2,155.8,9.6
420.0,155.9,164.1,146.4,155.5,8.9
420.75,156.5,162.6,145.6,154.9,8.6
421.5,154.5,166.6,147.8,156.3,9.5
422.25,156.3,164.7,146.6,155.9,9.1
423.0,156.4,163.7,147.7,155.9,8.0
423.75,155.0,159.6,145.2,153.3,7.4
424.5,156.4,162.7,147.6,155.5,7.6
425.25,155.7,161.5,146.4,154.5,7.6
426.0,157.7,162.1,150.8,156.8,5.7
426.75,157.2,162.6,148.5,156.1,7.1
427.5,154.6,163.0,149.8,155.8,6.7
428.25,155.2,163.7,151.2,156.7,6.4
429.0,153.6,164.4,147.2,155.1,8.7
429.75,157.2,163.0,152.0,157.4,5.5
430.5,155.0,164.9,153.0,157.6,6.4
431.25,154.4,164.0,151.4,156.6,6.6
432.0,157.3,164.6,149.3,157.1,7.7
432.75,157.5,162.1,152.8,157.4,4.7
433.5,156.7,163.7,151.0,157.1,6.4
434.25,155.5,165.4,149.6,156.8,8.0
435.0,154.6,161.7,152.1,156.1,5.0
435.75,158.6,164.7,153.0,158.7,5.9
436.5,155.3,162.1,152.1,156.5,5.1
437.25,156.0,163.0,152.2,157.1,5.5
438.0,158.5,163.6,152.6,158.2,5.5
438.75,161.0,164.9,154.6,160.2,5.2
439.5,157.4,164.6,152.3,158.1,6.2
440.25,157.6,161.8,154.6,158.0,3.6
441.0,158.8,160.9,153.7,157.8,3.7
441.75,157.4,167.1,152.5,159.0,7.4
442.5,160.4,166.2,157.2,161.3,4.5
443.25,160.5,164.8,159.7,161.7,2.7
444.0,156.1,165.3,155.9,159.1,5.4
444.75,157.3,165.3,158.4,160.3,4.3
445.5,161.2,166.8,157.5,161.9,4.7
446.25,157.7,167.1,156.8,160.5,5.7
447.0,159.7,165.8,155.8,160.5,5.0
447.75,155.5,164.7,156.6,158.9,5.0
448.5,157.8,163.5,157.3,159.5,3.4
449.25,161.1,164.3,156.9,160.8,3.7
450.0,160.7,167.8,159.3,162.6,4.6
450.75,160.5,164.2,156.7,160.5,3.7
451.5,160.3,164.5,160.0,161.6,2.5
452.25,156.6,164.8,159.7,160.4,4.2
453.0,156.4,166.2,159.8,160.8,5.0
453.75,159.9,165.2,160.7,161.9,2.9
454.5,160.3,166.1,161.8,162.7,3.0
455.25,161.5,163.1,159.0,161.2,2.1
456.0,156.8,166.6,158.0,160.5,5.3
456.75,159.7,168.4,161.2,163.1,4.7
457.5,161.1,165.0,160.0,162.0,2.6
458.25,160.7,167.4,163.0,163.7,3.4
459.0,160.2,164.8,161.9,162.3,2.3
459.75,160.0,163.1,161.5,161.5,1.6
460.5,160.6,164.7,160.7,162.0,2.4
461.25,160.7,167.1,161.7,163.2,3.4
462.0,160.6,166.1,161.0,162.6,3.0
462.75,159.0,166.4,162.0,162.5,3.7
463.5,161.2,164.6,165.2,163.7,2.2
464.25,163.5,164.4,161.5,163.2,1.5
465.0,161.6,164.4,164.7,163.6,1.7
465.75,162.0,163.8,165.9,163.9,2.0
466.5,161.4,168.1,161.6,163.7,3.8
467.25,164.3,165.2,166.6,165.4,1.2
468.0,166.2,165.4,167.1,166.2,0.8
468.75,167.0,165.1,163.9,165.3,1.5
469.5,162.6,167.0,166.2,165.3,2.4
470.25,163.9,167.0,164.6,165.2,1.6
471.0,166.7,167.3,163.3,165.8,2.1
471.75,163.8,165.9,167.7,165.8,2.0
472.5,165.9,168.1,165.6,166.5,1.4
473.25,166.3,167.5,165.3,166.3,1.1
474.0,165.9,169.5,165.1,166.9,2.4
474.75,167.6,167.5,167.2,167.4,0.2
475.5,166.3,168.2,169.1,167.9,1.4
476.25,164.6,164.7,167.5,165.6,1.7
477.0,169.6,165.8,171.6,169.0,2.9
477.75,164.5,169.2,170.1,167.9,3.0
478.5,164.5,167.8,171.7,168.0,3.6
479.25,169.0,167.8,171.6,169.5,2.0
480.0,164.4,168.7,172.9,168.7,4.2
480.75,162.5,165.4,171.3,166.4,4.5
481.5,166.0,167.5,171.6,168.4,2.9
482.25,164.2,165.2,173.7,167.7,5.2
483.0,163.8,163.5,172.3,166.5,5.0
483.75,165.7,163.9,170.4,166.7,3.3
484.5,165.6,164.5,173.7,167.9,5.1
485.25,167.8,164.6,173.1,168.5,4.3
486.0,164.6,165.8,175.0,168.5,5.7
486.75,167.0,167.6,171.8,168.8,2.6
487.5,168.5,168.5,170.7,169.2,1.2
488.25,168.2,167.8,173.8,169.9,3.4
489.0,166.9,169.8,175.9,170.8,4.6
489.75,166.5,166.7,170.3,167.8,2.1
490.5,169.3,169.5,173.4,170.8,2.3
491.25,170.3,166.1,173.7,170.0,3.8
492.0,170.0,168.5,173.4,170.6,2.5
492.75,170.9,168.4,172.8,170.7,2.2
493.5,168.2,170.4,174.4,171.0,3.1
494.25,169.6,166.6,176.1,170.8,4.8
495.0,168.2,169.1,174.3,170.5,3.3
495.75,167.8,171.3,174.6,171.3,3.4
496.5,168.5,166.5,174.4,169.8,4.1
497.25,172.2,169.7,173.8,171.9,2.1
498.0,168.6,168.8,175.8,171.1,4.1
498.75,169.4,166.8,176.5,170.9,5.0
499.5,172.4,169.0,174.5,172.0,2.8
500.25,170.0,166.5,175.6,170.7,4.6
501.0,171.7,170.6,173.7,172.0,1.6
501.75,172.7,168.1,173.1,171.3,2.8
502.5,171.9,169.6,176.9,172.8,3.7
503.25,172.0,171.1,180.4,174.5,5.1
504.0,173.1,171.1,178.6,174.3,3.9
504.75,172.0,169.9,177.7,173.2,4.1
505.5,174.7,174.0,179.7,176.1,3.1
506.25,170.4,171.5,178.3,173.4,4.3
507.0,171.2,170.2,179.9,173.7,5.3
507.75,171.9,171.4,182.5,175.3,6.3
508.5,172.9,171.6,181.6,175.3,5.4
509.25,173.5,167.2,184.4,175.0,8.7
510.0,177.3,170.3,182.8,176.8,6.3
510.75,175.3,171.8,183.1,176.7,5.8
511.5,177.3,172.1,181.1,176.9,4.5
512.25,177.2,173.9,181.3,177.5,3.7
513.0,173.6,172.5,180.5,175.5,4.3
513.75,172.9,172.7,182.3,175.9,5.5
514.5,175.1,171.8,184.1,177.0,6.4
515.25,175.0,173.8,179.4,176.1,3.0
516.0,175.8,170.2,179.9,175.3,4.9
516.75,177.5,174.4,184.2,178.7,5.0
517.5,177.1,174.4,178.4,176.6,2.1
518.25,175.7,174.9,180.6,177.1,3.1
519.0,173.7,174.5,183.2,177.2,5.3
519.75,176.9,173.9,182.4,177.7,4.3
520.5,179.7,174.4,181.2,178.4,3.6
521.25,177.6,173.7,184.4,178.6,5.5
522.0,177.0,178.0,180.2,178.4,1.6
522.75,175.7,174.5,184.6,178.3,5.5
523.5,177.8,173.3,186.3,179.1,6.6
524.25,177.6,177.7,182.3,179.2,2.7
525.0,179.5,172.9,181.6,178.0,4.5
525.75,179.8,178.9,184.3,181.0,2.9
526.5,180.5,180.9,183.4,181.6,1.6
527.25,177.3,176.5,183.1,179.0,3.6
528.0,178.8,177.8,182.3,179.6,2.4
528.75,179.4,177.7,182.4,179.8,2.4
529.5,178.7,180.0,181.6,180.1,1.5
530.25,184.3,178.0,186.2,182.8,4.3
531.0,177.8,178.6,181.9,179.4,2.2
531.75,177.5,179.6,184.1,180.4,3.4
532.5,182.7,179.0,188.4,183.4,4.7
533.25,180.0,176.7,188.0,181.6,5.8
534.0,181.9,175.0,185.2,180.7,5.2
534.75,180.6,176.3,184.8,180.6,4.3
535.5,183.0,177.2,183.6,181.3,3.5
536.25,184.2,176.5,186.8,182.5,5.4
537.0,181.5,179.1,184.2,181.6,2.6
537.75,184.8,180.9,185.0,183.6,2.3
538.5,186.0,176.0,184.1,182.0,5.3
539.25,180.7,180.8,191.2,184.2,6.0
540.0,183.8,182.4,186.2,184.1,1.9
540.75,184.9,181.6,190.8,185.8,4.7
541.5,186.5,181.7,189.0,185.7,3.7
542.25,185.3,180.7,188.3,184.7,3.8
543.0,185.4,181.3,190.6,185.8,4.6
543.75,184.1,185.1,191.0,186.7,3.7
544.5,185.5,180.1,190.9,185.5,5.4
545.25,187.1,181.9,190.9,186.6,4.5
546.0,187.5,183.3,190.9,187.2,3.8
546.75,187.4,177.8,188.5,184.6,5.9
547.5,189.2,180.3,190.0,186.5,5.4
548.25,189.8,182.3,190.2,187.4,4.4
549.0,187.8,181.0,191.6,186.8,5.4
549.75,189.1,181.7,191.1,187.3,4.9
550.5,190.0,180.3,193.8,188.0,6.9
551.25,191.9,181.7,196.4,190.0,7.5
552.0,188.9,182.6,193.3,188.3,5.4
552.75,190.7,187.2,195.6,191.2,4.2
553.5,189.1,183.4,194.3,188.9,5.4
554.25,193.0,183.1,192.5,189.5,5.5
555.0,192.5,186.2,195.4,191.4,4.7
555.75,193.1,188.3,197.6,193.0,4.6
556.5,191.8,185.3,196.3,191.1,5.5
557.25,194.9,184.8,194.6,191.4,5.7
558.0,194.8,185.5,198.4,192.9,6.7
558.75,193.0,189.2,196.4,192.9,3.6
559.5,191.7,188.7,195.0,191.8,3.2
560.25,193.9,184.7,199.0,192.5,7.3
561.0,197.6,186.9,199.1,194.6,6.6
561.75,192.4,187.1,196.5,192.0,4.7
562.5,193.7,189.3,203.3,195.4,7.2
563.25,197.7,187.2,202.2,195.7,7.7
564.0,196.5,189.3,202.0,195.9,6.3
564.75,196.3,187.9,202.5,195.6,7.3
565.5,196.6,192.3,199.4,196.1,3.6
566.25,197.8,188.7,201.7,196.0,6.6
567.0,194.3,187.2,200.0,193.8,6.4
567.75,197.6,190.2,202.6,196.8,6.3
568.5,199.4,191.9,205.1,198.8,6.6
569.25,198.9,189.8,203.5,197.4,7.0
570.0,196.5,188.0,204.1,196.2,8.1
570.75,200.5,193.0,202.5,198.7,5.0
571.5,199.4,194.2,208.2,200.6,7.1
572.25,204.0,192.7,205.1,200.6,6.9
573.0,196.2,193.4,206.9,198.8,7.1
573.75,201.7,190.6,208.8,200.4,9.2
574.5,199.8,194.4,207.8,200.7,6.7
575.25,203.2,191.2,205.7,200.0,7.7
576.0,198.3,194.0,208.6,200.3,7.5
576.75,201.6,194.8,205.8,200.7,5.6
577.5,200.5,192.9,209.6,201.0,8.4
578.25,202.1,194.2,206.1,200.8,6.0
579.0,201.4,198.8,210.5,203.6,6.1
579.75,204.8,195.9,211.3,204.0,7.7
580.5,199.2,196.2,205.7,200.4,4.8
581.25,200.4,193.7,206.7,200.2,6.5
582.0,203.0,193.9,212.4,203.1,9.2
582.75,205.7,196.7,212.1,204.8,7.7
583.5,204.4,194.4,207.8,202.2,7.0
584.25,202.3,190.7,213.2,202.1,11.2
585.0,206.3,194.2,213.2,204.6,9.6
585.75,202.7,190.5,212.0,201.7,10.8
586.5,202.2,195.5,212.3,203.3,8.4
587.25,206.4,194.7,216.8,206.0,11.0
588.0,204.6,194.0,217.6,205.4,11.8
588.75,204.7,198.8,213.1,205.5,7.2
589.5,203.0,198.9,212.0,204.7,6.7
590.25,203.4,198.8,208.5,203.6,4.9
591.0,204.8,196.2,212.3,204.4,8.0
591.75,202.8,195.0,211.4,203.0,8.2
592.5,205.0,199.7,212.7,205.8,6.6
593.25,204.0,198.0,211.5,204.5,6.8
594.0,205.5,197.4,214.4,205.8,8.5
594.75,209.1,195.2,208.7,204.3,7.9
595.5,204.6,201.6,209.8,205.4,4.2
596.25,205.6,196.2,211.0,204.3,7.5
597.0,204.3,196.3,213.4,204.7,8.5
597.75,204.8,198.5,212.2,205.2,6.9
598.5,202.4,195.3,212.9,203.5,8.8
599.25,204.5,199.5,216.4,206.8,8.7
600.0,206.1,201.3,210.9,206.1,4.8
600.75,202.3,199.0,210.5,203.9,5.9
601.5,203.1,198.3,209.6,203.7,5.7
602.25,199.8,194.9,212.9,202.5,9.3
603.0,206.8,195.2,212.4,204.8,8.8
603.75,202.3,196.5,209.3,202.7,6.4
604.5,203.4,199.6,211.3,204.8,5.9
605.25,196.7,195.7,209.4,200.6,7.7
606.0,200.3,199.2,208.7,202.8,5.2
606.75,199.6,194.9,212.8,202.4,9.3
607.5,204.2,195.2,208.1,202.5,6.6
608.25,202.2,193.1,209.0,201.4,8.0
609.0,202.7,196.3,212.2,203.7,8.0
609.75,196.2,197.2,207.3,200.2,6.1
610.5,198.6,195.4,208.4,200.8,6.8
611.25,196.6,199.1,208.1,201.3,6.1
612.0,198.4,194.0,205.8,199.4,5.9
612.75,196.0,192.2,209.5,199.2,9.1
613.5,199.0,196.8,208.2,201.3,6.1
614.25,199.8,194.5,204.8,199.7,5.2
615.0,196.6,195.5,210.5,200.8,8.3
615.75,198.2,193.9,209.7,200.6,8.2
616.5,199.4,194.2,205.0,199.5,5.4
617.25,192.5,195.5,205.5,197.8,6.8
618.0,195.9,194.0,207.1,199.0,7.1
618.75,196.3,190.9,205.0,197.4,7.1
619.5,197.8,190.3,207.4,198.5,8.6
620.25,197.2,190.8,204.2,197.4,6.7
621.0,193.2,191.6,205.6,196.8,7.7
621.75,194.8,200.4,202.8,199.3,4.1
622.5,193.1,193.7,204.7,197.1,6.5
623.25,190.7,192.5,203.4,195.5,6.9
624.0,190.9,187.3,204.5,194.2,9.1
624.75,195.2,190.0,202.4,195.9,6.2
625.5,191.0,190.6,202.0,194.5,6.5
626.25,190.8,188.4,199.9,193.0,6.1
627.0,186.9,187.2,200.8,191.6,8.0
627.75,184.0,186.5,202.3,191.0,9.9
628.5,185.6,187.3,197.8,190.2,6.6
629.25,184.0,183.6,196.9,188.2,7.5
630.0,182.3,184.4,200.7,189.1,10.1
630.75,179.9,180.7,197.2,185.9,9.8
631.5,182.8,184.1,198.8,188.6,8.9
632.25,176.7,177.7,195.3,183.2,10.5
633.0,174.6,182.9,194.3,184.0,9.9
633.75,173.9,177.7,193.3,181.7,10.3
634.5,173.0,176.8,189.7,179.8,8.7
635.25,171.9,175.8,191.6,179.8,10.4
636.0,170.0,173.0,189.3,177.4,10.4
636.75,167.8,171.3,192.7,177.2,13.5
637.5,164.6,170.0,189.2,174.6,12.9
638.25,161.3,168.6,189.9,173.3,14.9
639.0,163.2,170.3,187.8,173.8,12.7
639.75,158.5,168.7,186.4,171.2,14.1
640.5,161.6,163.4,184.0,169.7,12.5
641.25,157.9,164.0,185.8,169.2,14.7
642.0,157.8,162.4,186.5,168.9,15.4
642.75,154.0,161.3,182.5,165.9,14.8
643.5,151.3,156.1,182.9,163.4,17.1
644.25,150.0,154.9,184.1,163.0,18.4
645.0,145.3,155.9,181.6,160.9,18.7
645.75,145.0,152.6,176.1,157.9,16.2
646.5,143.0,150.4,177.5,157.0,18.1
647.25,141.4,149.5,177.8,156.3,19.1
648.0,136.7,149.5,174.9,153.7,19.5
648.75,134.6,145.9,173.0,151.2,19.7
649.5,133.1,144.3,172.6,150.0,20.4
650.25,129.9,142.7,172.5,148.4,21.8
651.0,130.6,140.3,168.4,146.5,19.6
651.75,128.3,137.9,167.2,144.5,20.3
652.5,126.9,136.6,168.0,143.9,21.5
653.25,122.0,133.6,162.7,139.5,20.9
654.0,122.0,132.5,166.1,140.2,23.1
654.75,119.1,129.2,160.1,136.1,21.3
655.5,114.0,126.2,159.9,133.4,23.8
656.25,115.5,122.6,157.0,131.7,22.2
657.0,113.0,122.1,159.3,131.4,24.5
657.75,109.4,120.0,155.5,128.3,24.2
658.5,109.2,119.9,150.3,126.5,21.3
659.25,106.9,116.1,150.7,124.6,23.1
660.0,106.0,114.4,149.3,123.2,22.9
660.75,103.8,112.1,148.7,121.5,23.9
661.5,102.0,110.3,146.7,119.7,23.8
662.25,101.3,105.0,145.3,117.2,24.4
663.0,98.1,104.4,141.9,114.8,23.7
663.75,96.8,104.6,139.7,113.7,22.8
664.5,95.7,101.4,137.7,111.6,22.8
665.25,95.1,98.7,135.2,109.6,22.2
666.0,93.1,97.5,132.3,107.6,21.5
666.75,93.0,95.3,130.9,106.4,21.2
667.5,90.7,94.4,128.8,104.6,21.0
668.25,90.9,92.2,125.2,102.8,19.5
669.0,87.1,92.3,124.4,101.3,20.2
669.75,85.7,91.3,119.7,98.9,18.2
670.5,84.9,89.3,118.6,97.6,18.3
671.25,82.0,88.6,116.8,95.8,18.5
672.0,80.7,88.7,114.2,94.6,17.5
672.75,78.8,89.7,111.7,93.4,16.7
673.5,76.3,88.1,110.5,91.6,17.3
674.25,74.5,87.1,109.2,90.3,17.6
675.0,73.9,84.1,108.7,88.9,17.9
675.75,72.3,81.2,106.6,86.7,17.8
676.5,72.6,81.0,106.7,86.8,17.7
677.25,70.1,79.8,105.0,85.0,18.0
678.0,70.1,76.7,103.9,83.5,17.9
678.75,69.1,75.8,103.3,82.7,18.1
679.5,68.2,77.2,101.6,82.3,17.3
680.25,67.5,74.5,102.9,81.6,18.8
681.0,67.7,74.2,100.9,80.9,17.6
681.75,65.5,73.3,100.5,79.8,18.4
682.5,64.8,73.1,99.7,79.2,18.2
683.25,63.5,71.4,100.4,78.4,19.5
684.0,62.8,71.4,99.5,77.9,19.2
684.75,62.8,71.9,96.4,77.0,17.4
685.5,62.6,70.3,96.7,76.5,17.9
686.25,62.5,69.8,96.3,76.2,17.8
687.0,60.8,69.9,95.3,75.3,17.9
687.75,61.4,69.5,95.9,75.6,18.0
688.5,59.5,68.8,93.6,74.0,17.6
689.25,60.7,68.6,93.5,74.3,17.1
690.0,60.4,68.5,92.9,73.9,17.0
690.75,60.1,68.3,92.4,73.6,16.8
691.5,60.4,66.8,90.2,72.5,15.7
692.25,60.1,67.5,88.7,72.1,14.8
693.0,59.6,67.2,90.8,72.5,16.3
693.75,59.4,66.8,89.1,71.8,15.4
694.5,59.9,66.2,88.1,71.4,14.8
695.25,60.1,65.5,89.7,71.7,15.8
696.0,58.4,64.2,88.0,70.2,15.7
696.75,57.8,63.8,86.6,69.4,15.2
697.5,57.2,63.3,87.7,69.4,16.1
698.25,57.0,64.0,87.3,69.4,15.9
699.0,58.1,62.6,85.4,68.7,14.6
699.75,56.7,62.5,88.1,69.1,16.7
700.5,56.4,61.9,85.6,67.9,15.5
701.25,55.9,61.1,85.9,67.6,16.0
702.0,56.0,62.7,85.7,68.1,15.6
702.75,56.3,62.8,85.5,68.2,15.3
703.5,55.6,61.7,85.4,67.6,15.7
704.25,56.2,61.5,87.0,68.2,16.5
705.0,56.4,61.3,84.3,67.3,14.9
705.75,56.3,62.1,82.8,67.1,13.9
706.5,56.6,61.8,83.8,67.4,14.4
707.25,55.5,59.9,82.7,66.0,14.6
708.0,56.0,59.7,81.7,65.8,13.9
708.75,55.6,61.2,82.2,66.3,14.1
709.5,54.9,58.8,81.0,64.9,14.1
710.25,54.8,60.1,80.9,65.3,13.8
711.0,54.5,59.7,81.6,65.2,14.4
711.75,54.2,59.6,80.0,64.6,13.6
712.5,54.3,58.9,80.1,64.4,13.7
713.25,54.8,57.7,79.8,64.1,13.7
714.0,53.9,59.4,80.5,64.6,14.0
714.75,54.8,58.4,,56.6,2.6
715.5,54.1,57.8,,56.0,2.6
716.25,54.3,57.4,,55.9,2.1
717.0,54.3,58.0,,56.1,2.6
717.75,54.1,57.9,,56.0,2.7
718.5,54.9,58.3,,56.6,2.4
719.25,54.0,58.7,,56.4,3.3
720.0,53.7,57.6,,55.6,2.7
720.75,53.7,58.1,,55.9,3.1
721.5,53.2,58.0,,55.6,3.4
722.25,53.8,58.0,,55.9,3.0
723.0,53.6,57.3,,55.4,2.6
723.75,52.8,,,52.8,
724.5,54.0,,,54.0,
725.25,53.0,,,53.0,
726.0,53.6,,,53.6,
726.75,53.3,,,53.3,
727.5,52.8,,,52.8,
728.25,53.7,,,53.7,
729.0,53.6,,,53.6,
729.75,54.6,,,54.6,
730.5,55.1,,,55.1,
731.25,54.5,,,54.5,
732.0,55.8,,,55.8,
732.75,55.7,,,55.7,
733.5,56.4,,,56.4,
734.25,56.1,,,56.1,
735.0,55.8,,,55.8,
735.75,57.0,,,57.0,
736.5,56.6,,,56.6,
737.25,56.7,,,56.7,
738.0,56.2,,,56.2,
738.75,55.7,,,55.7,
739.5,55.2,,,55.2,
740.25,54.8,,,54.8,
741.0,54.1,,,54.1,
741.75,53.5,,,53.5,
742.5,53.5,,,53.5,
743.25,53.0,,,53.0,
744.0,52.6,,,52.6,
744.75,53.6,,,53.6,
745.5,54.4,,,54.4,
746.25,53.6,,,53.6,
747.0,54.9,,,54.9,
747.75,54.2,,,54.2,
748.5,55.9,,,55.9,
749.25,55.0,,,55.0,
750.0,55.1,,,55.1,
750.75,55.4,,,55.4,
751.25,56.0,,,56.0,