File: 01_Data/OSB/Cone/OSB_HRRPUA_25.csv
Time after Ignition,OSB_R1,OSB_R2,OSB_R3,Mean,Std. Dev.
0.0,11.8,13.0,11.3,12.0,0.9
0.75,17.4,19.6,20.4,19.1,1.6
1.5,27.9,26.7,30.7,28.4,2.0
2.25,37.6,34.5,41.3,37.8,3.4
3.0,49.5,46.2,55.0,50.3,4.4
3.75,65.8,57.7,70.9,64.8,6.7
4.5,80.8,71.5,86.0,79.4,7.4
5.25,99.9,84.8,98.7,94.5,8.4
6.0,118.3,96.5,114.5,109.8,11.7
6.75,131.0,107.2,127.3,121.8,12.8
7.5,146.3,115.5,145.0,135.6,17.4
8.25,155.3,126.9,156.1,146.1,16.6
9.0,167.5,134.7,167.3,156.5,18.9
9.75,177.0,143.7,177.0,165.9,19.2
10.5,183.9,152.1,184.2,173.4,18.4
11.25,192.4,156.7,190.3,179.8,20.0
12.0,196.4,167.1,197.9,187.1,17.4
12.75,202.3,168.0,201.1,190.5,19.5
13.5,208.3,173.3,206.5,196.1,19.7
14.25,213.0,177.8,209.9,200.2,19.5
15.0,211.5,180.0,213.8,201.8,18.9
15.75,214.8,183.4,224.0,207.4,21.3
16.5,222.9,181.7,226.0,210.2,24.7
17.25,215.8,185.9,229.9,210.5,22.5
18.0,219.4,188.1,234.7,214.1,23.8
18.75,220.4,190.9,239.4,216.9,24.4
19.5,222.9,188.4,237.1,216.2,25.0
20.25,220.8,195.1,246.3,220.7,25.6
21.0,221.4,192.7,247.5,220.5,27.4
21.75,221.4,192.4,241.6,218.5,24.7
22.5,217.8,197.8,248.6,221.4,25.6
23.25,217.5,195.3,249.1,220.6,27.0
24.0,218.6,198.2,248.9,221.9,25.5
24.75,219.8,197.6,254.1,223.8,28.4
25.5,219.8,199.9,249.3,223.0,24.9
26.25,221.9,200.4,249.6,224.0,24.7
27.0,223.1,204.4,257.1,228.2,26.7
27.75,221.7,196.8,257.4,225.3,30.5
28.5,217.6,204.5,255.2,225.8,26.3
29.25,217.4,202.6,250.4,223.5,24.5
30.0,221.4,203.9,253.8,226.4,25.3
30.75,213.8,204.1,247.9,222.0,23.0
31.5,214.9,207.5,249.5,224.0,22.4
32.25,220.8,202.9,249.8,224.5,23.7
33.0,217.9,203.6,250.8,224.1,24.2
33.75,217.0,204.6,243.8,221.8,20.1
34.5,218.9,197.0,245.5,220.5,24.3
35.25,215.2,200.3,242.8,219.4,21.6
36.0,215.9,197.4,242.7,218.7,22.8
36.75,213.6,201.9,246.4,220.6,23.1
37.5,213.2,199.4,242.8,218.5,22.2
38.25,213.6,196.5,240.0,216.7,21.9
39.0,210.2,196.2,238.6,215.0,21.6
39.75,209.3,193.9,232.7,212.0,19.5
40.5,210.4,191.1,234.5,212.0,21.8
41.25,210.3,194.3,232.9,212.5,19.4
42.0,207.3,188.7,233.3,209.7,22.4
42.75,206.0,187.5,227.0,206.9,19.8
43.5,208.0,183.1,232.6,207.9,24.7
44.25,212.9,187.5,226.9,209.1,20.0
45.0,207.0,187.5,230.9,208.5,21.7
45.75,210.4,185.1,223.3,206.3,19.5
46.5,208.1,183.2,225.1,205.5,21.1
47.25,209.7,185.6,225.3,206.9,20.0
48.0,207.5,184.0,226.5,206.0,21.3
48.75,212.2,185.3,221.8,206.4,18.9
49.5,208.6,184.9,216.9,203.5,16.6
50.25,202.9,183.7,224.0,203.5,20.1
51.0,212.0,182.5,219.8,204.8,19.7
51.75,208.8,183.5,218.1,203.5,17.9
52.5,207.4,179.3,215.3,200.7,18.9
53.25,208.5,180.0,213.6,200.7,18.1
54.0,207.3,183.3,212.0,200.9,15.4
54.75,209.2,178.1,216.2,201.2,20.3
55.5,206.4,178.6,215.5,200.2,19.2
56.25,205.0,173.7,215.9,198.2,21.9
57.0,201.6,172.1,214.9,196.2,21.9
57.75,201.6,178.5,215.9,198.7,18.9
58.5,200.8,175.1,217.0,197.6,21.1
59.25,203.3,172.0,215.1,196.8,22.3
60.0,196.9,171.2,214.3,194.1,21.7
60.75,197.8,171.2,216.8,195.3,22.9
61.5,194.4,172.3,214.9,193.8,21.3
62.25,193.8,169.7,217.6,193.7,24.0
63.0,195.8,171.8,216.7,194.8,22.5
63.75,194.7,169.0,213.0,192.2,22.1
64.5,191.6,169.0,214.3,191.7,22.7
65.25,192.9,164.9,213.5,190.4,24.4
66.0,198.8,166.0,210.2,191.7,22.9
66.75,197.3,168.6,212.6,192.8,22.3
67.5,194.0,167.0,206.9,189.3,20.4
68.25,194.9,164.7,206.3,188.7,21.5
69.0,196.5,162.1,208.7,189.1,24.2
69.75,191.1,161.3,207.2,186.5,23.3
70.5,194.1,163.3,210.4,189.3,23.9
71.25,192.3,159.1,205.6,185.7,24.0
72.0,190.2,159.5,206.1,185.3,23.7
72.75,187.7,161.7,204.8,184.7,21.7
73.5,186.4,159.6,202.6,182.9,21.7
74.25,186.8,159.9,202.1,182.9,21.4
75.0,184.7,158.8,203.3,182.3,22.4
75.75,185.5,157.4,198.0,180.3,20.8
76.5,185.5,158.6,197.5,180.6,19.9
77.25,184.1,157.7,195.2,179.0,19.2
78.0,183.1,154.3,195.6,177.6,21.2
78.75,185.6,159.1,197.9,180.9,19.8
79.5,185.3,156.4,194.0,178.6,19.7
80.25,183.8,155.4,194.1,177.8,20.0
81.0,183.0,153.9,192.9,176.6,20.2
81.75,182.0,154.4,189.5,175.3,18.5
82.5,181.2,157.3,187.2,175.2,15.8
83.25,180.1,154.7,186.9,173.9,16.9
84.0,180.8,152.6,187.5,173.6,18.5
84.75,183.1,153.2,189.2,175.2,19.3
85.5,182.6,150.1,182.7,171.8,18.8
86.25,177.2,149.1,186.8,171.0,19.6
87.0,180.5,148.9,185.5,171.6,19.8
87.75,182.8,149.1,184.1,172.0,19.8
88.5,177.5,147.0,185.4,170.0,20.2
89.25,175.0,149.9,181.2,168.7,16.6
90.0,175.3,149.1,180.7,168.4,16.9
90.75,175.3,148.6,179.5,167.8,16.8
91.5,173.9,145.5,177.4,165.6,17.5
92.25,170.2,148.0,175.2,164.5,14.5
93.0,170.1,147.4,178.3,165.3,16.0
93.75,170.8,150.3,176.0,165.7,13.6
94.5,169.5,148.3,175.6,164.5,14.3
95.25,166.3,145.3,174.8,162.1,15.2
96.0,169.1,147.2,170.4,162.2,13.0
96.75,167.9,148.1,173.6,163.2,13.4
97.5,165.6,144.3,169.9,159.9,13.7
98.25,165.4,144.7,170.6,160.3,13.7
99.0,162.7,145.9,172.3,160.3,13.4
99.75,161.6,143.8,170.1,158.5,13.4
100.5,161.9,141.8,169.9,157.9,14.5
101.25,162.1,144.8,167.5,158.2,11.9
102.0,162.0,141.3,167.7,157.0,13.9
102.75,159.8,140.8,166.1,155.6,13.1
103.5,161.6,140.3,166.1,156.0,13.8
104.25,156.1,140.7,164.4,153.8,12.0
105.0,157.2,140.0,166.6,154.6,13.5
105.75,156.0,140.5,163.3,153.3,11.6
106.5,156.0,139.9,166.3,154.1,13.3
107.25,156.6,140.5,163.6,153.6,11.8
108.0,156.2,139.3,162.2,152.6,11.9
108.75,156.7,140.3,163.9,153.6,12.1
109.5,156.8,138.3,164.4,153.2,13.4
110.25,154.9,138.0,165.5,152.8,13.9
111.0,154.9,136.7,160.9,150.9,12.6
111.75,154.7,135.8,162.6,151.0,13.7
112.5,154.9,134.8,159.2,149.7,13.0
113.25,154.9,137.5,159.7,150.7,11.7
114.0,152.9,135.9,156.8,148.5,11.1
114.75,155.4,134.9,155.5,148.6,11.8
115.5,159.4,135.8,151.9,149.1,12.1
116.25,153.8,132.2,153.3,146.5,12.3
117.0,154.4,135.1,152.3,147.3,10.6
117.75,151.9,133.0,153.4,146.1,11.4
118.5,152.9,132.4,152.3,145.9,11.7
119.25,154.6,133.3,150.5,146.1,11.3
120.0,151.8,130.7,152.4,144.9,12.4
120.75,151.4,131.4,149.6,144.1,11.1
121.5,150.5,133.6,152.6,145.6,10.4
122.25,152.0,131.0,149.9,144.3,11.6
123.0,152.4,128.9,148.8,143.4,12.6
123.75,149.2,130.4,146.5,142.0,10.1
124.5,150.4,128.9,150.2,143.2,12.3
125.25,149.9,126.8,144.3,140.3,12.1
126.0,148.2,127.5,145.1,140.3,11.2
126.75,147.7,125.0,146.9,139.9,12.9
127.5,149.2,127.0,145.7,140.6,11.9
128.25,150.1,126.3,148.1,141.5,13.2
129.0,148.1,126.5,144.4,139.6,11.5
129.75,148.9,124.6,148.1,140.5,13.8
130.5,144.8,125.6,145.3,138.6,11.2
131.25,145.4,125.4,147.0,139.3,12.1
132.0,146.1,125.9,146.9,139.6,11.9
132.75,144.2,124.3,145.0,137.8,11.8
133.5,143.1,126.2,147.9,139.0,11.4
134.25,145.0,122.5,144.1,137.2,12.7
135.0,142.8,124.2,142.6,136.5,10.7
135.75,142.0,124.5,142.1,136.2,10.2
136.5,144.0,124.3,142.9,137.1,11.1
137.25,142.1,122.7,141.4,135.4,11.0
138.0,137.8,123.7,139.9,133.8,8.8
138.75,138.9,121.5,140.9,133.8,10.7
139.5,138.8,124.0,142.3,135.0,9.7
140.25,137.6,121.7,141.6,133.6,10.6
141.0,138.5,119.8,142.0,133.4,12.0
141.75,136.8,121.0,139.8,132.5,10.1
142.5,135.5,122.8,139.7,132.7,8.8
143.25,136.2,120.9,140.8,132.7,10.4
144.0,134.6,120.6,137.7,131.0,9.1
144.75,133.8,119.1,138.3,130.4,10.0
145.5,135.8,119.2,141.6,132.2,11.6
146.25,130.7,118.9,135.7,128.4,8.6
147.0,133.7,118.0,137.0,129.6,10.2
147.75,131.8,120.3,136.4,129.5,8.3
148.5,133.4,118.5,133.4,128.4,8.6
149.25,133.8,119.6,135.9,129.8,8.9
150.0,133.9,116.4,135.6,128.6,10.7
150.75,134.0,116.6,135.9,128.9,10.6
151.5,131.8,117.6,133.8,127.7,8.8
152.25,134.1,120.5,133.5,129.4,7.7
153.0,131.5,116.1,135.2,127.6,10.2
153.75,129.6,115.1,133.8,126.1,9.8
154.5,129.3,114.8,133.7,125.9,9.9
155.25,130.5,115.8,134.5,126.9,9.8
156.0,130.4,114.3,134.4,126.4,10.6
156.75,126.3,113.6,130.9,123.6,9.0
157.5,128.2,113.4,132.3,124.6,9.9
158.25,126.6,114.7,131.6,124.3,8.7
159.0,126.0,113.9,132.4,124.1,9.4
159.75,125.4,111.6,133.5,123.5,11.1
160.5,125.3,113.7,131.9,123.6,9.2
161.25,125.0,111.0,131.2,122.4,10.3
162.0,125.1,112.1,131.3,122.8,9.8
162.75,124.1,112.7,132.5,123.1,9.9
163.5,125.1,110.4,131.5,122.3,10.8
164.25,124.6,112.2,131.7,122.8,9.9
165.0,124.1,109.3,131.0,121.5,11.1
165.75,124.7,110.9,128.9,121.5,9.4
166.5,124.2,110.6,128.8,121.2,9.5
167.25,122.6,111.2,127.9,120.6,8.5
168.0,122.4,110.9,127.9,120.4,8.7
168.75,123.5,110.7,126.9,120.4,8.6
169.5,123.0,111.4,128.8,121.1,8.9
170.25,123.9,109.3,128.0,120.4,9.9
171.0,121.9,108.8,129.8,120.2,10.6
171.75,121.1,110.0,126.1,119.0,8.2
172.5,118.9,108.3,126.8,118.0,9.3
173.25,119.3,108.8,126.6,118.2,8.9
174.0,120.6,107.6,124.9,117.7,9.0
174.75,120.0,107.0,125.9,117.7,9.7
175.5,118.8,106.0,127.3,117.4,10.7
176.25,118.6,106.1,126.8,117.2,10.4
177.0,119.2,107.9,124.1,117.1,8.3
177.75,119.0,107.8,125.0,117.3,8.7
178.5,118.0,105.3,126.1,116.4,10.5
179.25,117.0,104.6,124.8,115.5,10.2
180.0,116.7,105.5,123.9,115.4,9.2
180.75,117.1,105.8,123.7,115.5,9.0
181.5,115.2,103.6,122.4,113.7,9.5
182.25,117.5,102.7,123.6,114.6,10.7
183.0,116.3,103.1,124.0,114.5,10.5
183.75,116.4,102.6,123.2,114.1,10.5
184.5,115.5,103.0,122.6,113.7,9.9
185.25,116.9,104.1,121.5,114.2,9.0
186.0,114.1,104.0,122.0,113.3,9.0
186.75,115.3,102.8,124.4,114.2,10.9
187.5,115.1,102.2,122.9,113.4,10.5
188.25,114.4,103.3,122.4,113.4,9.6
189.0,114.7,100.9,123.0,112.9,11.2
189.75,113.8,101.2,120.4,111.8,9.8
190.5,113.5,100.1,122.1,111.9,11.1
191.25,113.6,99.9,122.6,112.0,11.4
192.0,112.3,100.0,119.3,110.5,9.8
192.75,110.7,99.8,119.0,109.8,9.6
193.5,111.3,98.8,119.8,110.0,10.5
194.25,112.2,100.3,120.8,111.1,10.3
195.0,111.1,98.9,118.9,109.6,10.1
195.75,112.6,98.0,119.6,110.1,11.0
196.5,113.4,98.6,118.4,110.1,10.3
197.25,110.9,99.1,120.1,110.0,10.5
198.0,111.6,97.2,119.8,109.5,11.5
198.75,111.4,96.1,116.9,108.1,10.8
199.5,113.5,97.9,119.3,110.2,11.1
200.25,111.5,96.7,117.5,108.6,10.7
201.0,113.3,96.5,118.5,109.4,11.5
201.75,114.0,96.8,116.6,109.1,10.7
202.5,112.8,97.1,115.3,108.4,9.9
203.25,112.0,97.7,118.0,109.3,10.4
204.0,111.9,96.4,118.2,108.8,11.2
204.75,111.2,96.8,117.4,108.5,10.5
205.5,112.7,96.4,118.2,109.1,11.4
206.25,112.1,95.9,119.8,109.3,12.2
207.0,111.8,96.1,116.6,108.2,10.7
207.75,111.2,95.9,117.1,108.1,11.0
208.5,111.2,95.7,118.4,108.4,11.6
209.25,111.3,97.3,116.7,108.4,10.0
210.0,112.4,95.9,117.3,108.5,11.2
210.75,110.6,95.9,115.2,107.2,10.0
211.5,113.6,95.3,117.6,108.8,11.9
212.25,111.6,95.7,115.7,107.7,10.6
213.0,112.4,93.9,115.2,107.2,11.6
213.75,111.2,95.8,114.4,107.1,10.0
214.5,112.6,94.4,116.6,107.9,11.8
215.25,111.9,93.5,115.5,107.0,11.8
216.0,111.8,93.8,112.3,106.0,10.5
216.75,109.8,93.2,113.9,105.7,11.0
217.5,108.8,93.7,112.7,105.1,10.0
218.25,110.8,92.7,114.4,106.0,11.6
219.0,109.7,92.9,113.0,105.2,10.8
219.75,108.5,92.7,113.3,104.8,10.8
220.5,111.0,92.2,114.7,106.0,12.1
221.25,110.0,92.9,111.4,104.8,10.3
222.0,109.0,93.3,112.7,105.0,10.3
222.75,109.2,93.2,113.6,105.3,10.8
223.5,109.8,92.8,112.9,105.2,10.8
224.25,110.1,93.4,111.0,104.8,9.9
225.0,109.6,92.8,110.5,104.3,10.0
225.75,109.9,92.1,113.5,105.2,11.4
226.5,110.6,91.8,110.5,104.3,10.8
227.25,110.8,90.9,111.9,104.5,11.8
228.0,108.7,91.3,110.3,103.4,10.6
228.75,111.5,90.8,111.1,104.5,11.8
229.5,110.0,91.5,110.8,104.1,10.9
230.25,109.2,89.8,112.1,103.7,12.2
231.0,107.9,90.8,111.6,103.5,11.1
231.75,105.1,90.1,109.4,101.6,10.1
232.5,107.1,89.1,109.3,101.9,11.1
233.25,108.4,88.7,108.6,101.9,11.4
234.0,109.8,88.9,108.9,102.5,11.8
234.75,106.1,87.7,109.1,101.0,11.6
235.5,106.2,89.0,109.0,101.4,10.8
236.25,108.6,88.7,109.6,102.3,11.8
237.0,108.7,90.5,107.4,102.2,10.1
237.75,107.4,89.0,106.9,101.1,10.5
238.5,107.1,89.5,107.6,101.4,10.3
239.25,107.8,88.5,107.7,101.3,11.2
240.0,107.1,89.7,106.7,101.2,10.0
240.75,107.0,89.4,106.6,101.0,10.0
241.5,108.2,90.7,106.1,101.7,9.6
242.25,109.9,89.3,107.2,102.2,11.2
243.0,106.7,88.2,107.5,100.8,10.9
243.75,106.0,89.3,107.3,100.9,10.0
244.5,107.0,90.4,106.0,101.1,9.3
245.25,105.2,90.0,105.5,100.2,8.9
246.0,105.7,90.1,103.9,99.9,8.5
246.75,105.9,89.7,106.4,100.7,9.5
247.5,106.5,88.5,107.4,100.8,10.6
248.25,104.5,89.0,106.6,100.0,9.6
249.0,104.7,89.1,107.7,100.5,9.9
249.75,104.5,89.9,104.8,99.8,8.5
250.5,103.8,89.8,106.7,100.1,9.1
251.25,103.6,89.4,106.6,99.9,9.2
252.0,103.9,88.6,106.0,99.5,9.5
252.75,104.5,87.9,107.0,99.8,10.4
253.5,102.9,87.1,105.4,98.5,9.9
254.25,105.4,88.9,106.3,100.2,9.8
255.0,104.3,88.2,104.7,99.1,9.4
255.75,106.0,88.5,108.1,100.9,10.8
256.5,104.9,88.8,106.4,100.0,9.8
257.25,105.4,87.3,107.4,100.0,11.1
258.0,104.4,86.2,106.9,99.2,11.3
258.75,104.6,87.7,105.2,99.2,9.9
259.5,105.6,87.1,107.0,99.9,11.1
260.25,107.1,85.4,105.3,99.2,12.0
261.0,104.8,86.3,104.0,98.4,10.4
261.75,103.8,86.9,105.9,98.9,10.4
262.5,104.1,84.6,103.9,97.5,11.2
263.25,104.6,85.8,105.5,98.6,11.1
264.0,104.0,86.4,103.7,98.0,10.1
264.75,104.6,85.1,103.8,97.8,11.1
265.5,105.1,84.8,104.4,98.1,11.5
266.25,103.6,84.6,104.6,97.6,11.2
267.0,102.6,84.9,103.0,96.8,10.3
267.75,103.0,84.0,104.0,97.0,11.3
268.5,102.5,83.7,103.1,96.4,11.1
269.25,104.7,85.6,103.3,97.9,10.7
270.0,102.5,84.2,103.7,96.8,10.9
270.75,100.8,86.2,102.3,96.4,8.9
271.5,103.2,84.5,101.3,96.3,10.3
272.25,100.8,85.7,102.5,96.3,9.2
273.0,103.2,84.4,101.8,96.5,10.5
273.75,102.7,84.7,101.8,96.4,10.1
274.5,102.8,85.7,105.0,97.8,10.6
275.25,101.8,85.7,102.6,96.7,9.5
276.0,103.0,85.6,101.0,96.5,9.5
276.75,101.8,87.5,102.3,97.2,8.4
277.5,102.8,85.4,101.0,96.4,9.6
278.25,102.0,84.4,101.4,96.0,10.0
279.0,100.6,84.7,100.7,95.4,9.2
279.75,101.1,84.7,101.1,95.6,9.5
280.5,101.1,84.9,100.4,95.4,9.2
281.25,101.2,86.4,102.0,96.5,8.8
282.0,102.6,84.2,100.1,95.6,10.0
282.75,100.9,84.5,102.5,96.0,10.0
283.5,100.8,84.3,100.6,95.2,9.5
284.25,100.1,83.6,100.7,94.8,9.7
285.0,101.6,81.9,101.7,95.1,11.4
285.75,100.3,83.0,100.5,94.6,10.0
286.5,101.5,83.8,102.4,95.9,10.5
287.25,101.0,82.1,99.6,94.2,10.5
288.0,102.2,82.9,101.2,95.4,10.9
288.75,99.8,82.7,99.5,94.0,9.8
289.5,99.5,83.5,99.3,94.1,9.2
290.25,100.9,81.2,99.2,93.7,10.9
291.0,100.3,81.6,99.5,93.8,10.6
291.75,99.9,81.1,98.6,93.2,10.5
292.5,99.7,81.9,97.9,93.2,9.8
293.25,100.1,81.8,98.7,93.5,10.2
294.0,99.3,81.3,99.2,93.3,10.4
294.75,100.4,81.5,98.8,93.6,10.5
295.5,103.6,80.8,99.3,94.6,12.1
296.25,100.1,80.3,98.1,92.8,10.9
297.0,99.2,80.5,101.1,93.6,11.4
297.75,98.8,79.5,98.2,92.1,11.0
298.5,99.8,78.3,100.3,92.8,12.6
299.25,97.2,78.8,97.5,91.1,10.7
300.0,97.7,79.6,97.8,91.7,10.5
300.75,99.6,79.0,96.8,91.8,11.2
301.5,100.3,79.0,97.8,92.3,11.7
302.25,97.9,79.3,98.3,91.8,10.9
303.0,99.9,76.6,98.0,91.5,12.9
303.75,100.0,78.2,98.1,92.1,12.0
304.5,99.7,77.9,98.6,92.0,12.3
305.25,99.1,77.5,97.7,91.5,12.1
306.0,98.0,76.2,98.8,91.0,12.8
306.75,100.7,76.8,97.9,91.8,13.1
307.5,100.2,77.0,98.9,92.0,13.1
308.25,97.1,77.0,97.1,90.4,11.6
309.0,98.4,76.2,97.7,90.8,12.6
309.75,98.9,78.0,95.9,90.9,11.3
310.5,98.1,77.8,96.0,90.6,11.2
311.25,96.8,76.3,99.5,90.9,12.7
312.0,98.2,77.4,95.5,90.4,11.3
312.75,98.3,76.6,96.9,90.6,12.2
313.5,98.2,77.2,96.9,90.8,11.8
314.25,98.0,77.9,96.4,90.8,11.2
315.0,98.5,76.7,96.8,90.6,12.1
315.75,96.5,75.5,96.7,89.5,12.2
316.5,98.8,75.2,97.1,90.4,13.2
317.25,97.9,76.9,97.9,90.9,12.1
318.0,97.5,76.3,95.1,89.7,11.6
318.75,96.2,75.2,95.8,89.1,12.0
319.5,98.0,77.4,95.7,90.4,11.3
320.25,96.7,76.8,96.5,90.0,11.4
321.0,96.9,76.1,96.1,89.7,11.8
321.75,96.6,74.6,95.3,88.8,12.3
322.5,96.9,74.7,96.5,89.4,12.7
323.25,97.1,74.6,96.8,89.5,12.9
324.0,97.6,75.8,96.4,89.9,12.2
324.75,96.9,74.6,96.4,89.3,12.7
325.5,96.3,73.2,95.3,88.3,13.1
326.25,97.4,72.2,95.1,88.2,13.9
327.0,97.2,73.3,96.4,89.0,13.5
327.75,96.2,74.3,97.0,89.2,12.9
328.5,96.5,74.1,95.1,88.6,12.6
329.25,95.9,73.0,95.7,88.2,13.1
330.0,95.8,74.4,95.8,88.6,12.3
330.75,97.2,74.5,95.3,89.0,12.6
331.5,95.2,73.0,95.8,88.0,13.0
332.25,95.8,73.0,98.0,88.9,13.8
333.0,96.7,73.7,98.5,89.6,13.9
333.75,96.0,72.8,94.9,87.9,13.1
334.5,96.5,74.9,95.7,89.0,12.3
335.25,97.9,74.5,96.5,89.6,13.1
336.0,95.1,74.0,96.5,88.5,12.6
336.75,96.9,74.3,97.0,89.4,13.1
337.5,96.4,74.4,97.3,89.4,13.0
338.25,95.7,73.4,96.8,88.6,13.2
339.0,94.7,73.3,97.4,88.5,13.2
339.75,94.0,73.0,97.2,88.1,13.2
340.5,95.0,73.3,99.1,89.1,13.9
341.25,95.6,73.0,96.5,88.4,13.3
342.0,94.2,74.2,95.8,88.1,12.0
342.75,95.1,74.4,96.3,88.6,12.3
343.5,93.8,73.2,96.3,87.8,12.7
344.25,94.6,73.6,97.3,88.5,13.0
345.0,93.0,73.6,96.1,87.6,12.2
345.75,94.4,75.2,96.4,88.7,11.7
346.5,93.6,74.3,94.8,87.6,11.5
347.25,94.4,74.8,95.0,88.1,11.5
348.0,93.0,74.1,94.9,87.3,11.5
348.75,94.3,73.9,96.8,88.4,12.5
349.5,94.9,73.7,95.3,88.0,12.3
350.25,94.1,74.0,95.7,87.9,12.1
351.0,95.9,72.4,93.8,87.3,13.0
351.75,94.2,73.8,95.7,87.9,12.2
352.5,95.0,73.3,93.8,87.4,12.2
353.25,94.7,73.2,97.4,88.4,13.3
354.0,94.2,73.0,95.0,87.4,12.5
354.75,93.2,73.7,96.7,87.9,12.4
355.5,93.8,72.5,95.4,87.3,12.8
356.25,93.5,72.5,96.6,87.5,13.1
357.0,94.2,71.5,95.5,87.0,13.5
357.75,93.7,73.4,95.0,87.3,12.1
358.5,93.1,71.5,95.8,86.8,13.3
359.25,93.5,72.6,96.0,87.4,12.9
360.0,93.2,72.2,97.7,87.7,13.6
360.75,94.0,72.0,96.3,87.4,13.4
361.5,93.0,72.4,97.7,87.7,13.5
362.25,92.8,71.8,96.6,87.1,13.3
363.0,91.6,72.1,98.8,87.5,13.8
363.75,94.8,71.2,96.3,87.4,14.1
364.5,94.6,71.4,96.3,87.4,13.9
365.25,90.4,71.7,95.3,85.8,12.4
366.0,93.2,70.2,94.7,86.1,13.7
366.75,92.6,69.8,97.7,86.7,14.9
367.5,92.5,71.3,95.9,86.6,13.3
368.25,95.0,69.8,96.2,87.0,14.9
369.0,93.4,70.3,95.1,86.3,13.9
369.75,94.1,70.3,96.8,87.1,14.6
370.5,94.3,69.9,96.1,86.8,14.6
371.25,92.3,70.2,95.7,86.0,13.8
372.0,94.0,70.2,96.2,86.8,14.4
372.75,93.5,71.0,94.8,86.4,13.4
373.5,93.3,70.0,96.3,86.6,14.4
374.25,93.2,70.8,94.9,86.3,13.5
375.0,92.8,71.9,94.6,86.5,12.6
375.75,94.0,70.1,94.5,86.2,14.0
376.5,92.4,70.2,94.4,85.7,13.4
377.25,93.2,69.3,97.5,86.6,15.2
378.0,92.6,68.3,93.9,84.9,14.4
378.75,92.0,69.8,95.2,85.7,13.8
379.5,92.6,69.1,93.9,85.2,14.0
380.25,92.8,69.6,95.1,85.8,14.1
381.0,92.1,69.0,94.4,85.2,14.0
381.75,92.0,70.5,97.0,86.5,14.0
382.5,90.3,70.8,96.5,85.9,13.4
383.25,90.6,70.1,96.2,85.7,13.7
384.0,92.6,70.3,95.5,86.2,13.8
384.75,92.2,69.6,95.2,85.7,14.0
385.5,92.0,70.2,95.4,85.9,13.7
386.25,90.5,70.7,96.4,85.9,13.5
387.0,90.6,70.9,97.8,86.4,13.9
387.75,92.6,69.8,95.6,86.0,14.1
388.5,92.2,70.4,94.2,85.6,13.2
389.25,91.7,69.4,96.3,85.8,14.4
390.0,92.1,69.1,96.1,85.8,14.5
390.75,92.4,69.1,95.5,85.6,14.4
391.5,91.3,68.5,95.7,85.2,14.6
392.25,92.0,69.8,95.5,85.8,13.9
393.0,92.1,69.8,96.8,86.2,14.4
393.75,91.2,68.1,96.2,85.2,15.0
394.5,91.3,66.9,96.6,85.0,15.8
395.25,92.7,68.3,93.7,84.9,14.4
396.0,91.3,66.6,94.8,84.2,15.4
396.75,90.0,67.8,94.1,84.0,14.2
397.5,91.0,67.6,94.7,84.5,14.7
398.25,92.2,68.1,94.8,85.0,14.7
399.0,93.1,66.7,94.5,84.8,15.7
399.75,92.8,67.5,94.0,84.8,15.0
400.5,92.3,68.0,94.8,85.1,14.8
401.25,92.0,68.4,93.7,84.7,14.2
402.0,90.1,66.8,94.1,83.7,14.7
402.75,90.6,68.0,93.2,84.0,13.9
403.5,91.6,67.3,93.9,84.3,14.8
404.25,93.1,67.2,94.6,85.0,15.4
405.0,92.6,66.5,93.3,84.1,15.3
405.75,91.7,68.6,94.6,85.0,14.3
406.5,92.1,67.5,94.8,84.8,15.0
407.25,90.6,66.1,93.4,83.4,15.0
408.0,91.8,66.9,92.8,83.8,14.6
408.75,92.6,67.9,93.8,84.8,14.6
409.5,91.7,67.2,93.9,84.3,14.8
410.25,90.9,67.7,94.7,84.4,14.6
411.0,91.9,67.9,93.8,84.5,14.5
411.75,91.2,67.7,96.3,85.0,15.3
412.5,91.2,68.2,95.4,84.9,14.7
413.25,92.8,66.7,94.0,84.5,15.4
414.0,93.7,68.6,95.6,86.0,15.1
414.75,91.0,67.7,93.2,84.0,14.1
415.5,93.4,67.3,94.2,85.0,15.3
416.25,93.3,67.2,94.2,84.9,15.3
417.0,92.6,67.7,95.8,85.4,15.4
417.75,92.6,67.5,94.6,84.9,15.1
418.5,92.2,67.2,94.2,84.5,15.0
419.25,92.6,67.7,96.0,85.4,15.5
420.0,93.5,67.7,94.7,85.3,15.3
420.75,94.5,66.0,96.3,85.6,17.0
421.5,92.2,66.5,95.3,84.6,15.8
422.25,92.8,67.2,95.2,85.1,15.6
423.0,91.7,66.8,94.5,84.3,15.2
423.75,91.6,65.9,95.1,84.2,16.0
424.5,92.5,67.2,95.4,85.0,15.5
425.25,91.2,66.4,95.6,84.4,15.7
426.0,91.9,67.0,96.7,85.2,15.9
426.75,92.6,65.9,95.6,84.7,16.3
427.5,93.4,67.8,95.3,85.5,15.4
428.25,92.4,66.8,95.6,84.9,15.7
429.0,92.5,66.7,96.6,85.3,16.2
429.75,93.7,66.9,96.0,85.5,16.2
430.5,92.3,66.0,94.2,84.2,15.7
431.25,92.5,66.3,95.0,84.6,15.9
432.0,93.4,66.5,96.9,85.6,16.6
432.75,91.9,65.6,94.3,83.9,15.9
433.5,91.3,65.3,94.1,83.5,15.9
434.25,92.8,65.2,94.9,84.3,16.5
435.0,91.5,65.6,94.9,84.0,16.0
435.75,92.3,64.5,97.1,84.7,17.6
436.5,92.8,65.4,94.8,84.3,16.4
437.25,91.7,65.2,92.3,83.1,15.4
438.0,91.4,64.0,93.5,83.0,16.5
438.75,92.2,64.4,92.9,83.2,16.3
439.5,91.1,65.2,93.0,83.1,15.5
440.25,91.7,64.9,93.0,83.2,15.9
441.0,90.9,63.5,92.6,82.4,16.3
441.75,91.6,64.1,94.4,83.4,16.8
442.5,93.2,63.7,94.9,83.9,17.5
443.25,93.0,64.3,94.5,83.9,17.0
444.0,93.7,63.9,93.7,83.8,17.2
444.75,93.5,64.0,93.7,83.7,17.1
445.5,93.8,63.5,92.9,83.4,17.2
446.25,93.5,63.2,93.6,83.5,17.5
447.0,94.7,63.3,94.1,84.1,18.0
447.75,92.5,63.1,93.9,83.2,17.4
448.5,92.5,63.6,95.5,83.9,17.6
449.25,93.0,63.2,94.0,83.4,17.5
450.0,93.4,63.9,94.1,83.8,17.3
450.75,93.6,63.7,93.7,83.7,17.3
451.5,94.5,64.1,94.9,84.5,17.6
452.25,91.7,64.0,94.3,83.3,16.8
453.0,92.5,63.2,92.9,82.9,17.1
453.75,93.3,63.9,93.5,83.6,17.1
454.5,93.3,63.9,92.8,83.3,16.8
455.25,92.2,65.2,94.4,83.9,16.3
456.0,92.1,64.8,95.7,84.2,16.9
456.75,92.2,64.6,95.3,84.0,16.9
457.5,91.5,65.2,94.2,83.6,16.0
458.25,91.7,64.6,96.3,84.2,17.2
459.0,92.1,65.1,93.9,83.7,16.1
459.75,91.7,65.7,95.6,84.3,16.3
460.5,93.2,65.5,95.6,84.8,16.7
461.25,92.7,64.4,94.0,83.7,16.7
462.0,92.0,64.7,94.8,83.8,16.6
462.75,93.1,64.6,98.6,85.4,18.2
463.5,92.9,65.2,97.1,85.1,17.4
464.25,91.6,64.9,96.4,84.3,17.0
465.0,93.3,65.6,97.2,85.4,17.2
465.75,92.6,64.2,98.2,85.0,18.2
466.5,93.5,66.0,97.9,85.8,17.3
467.25,92.1,65.2,98.1,85.1,17.5
468.0,92.1,65.8,97.1,85.0,16.8
468.75,92.2,65.9,97.3,85.1,16.9
469.5,91.9,64.5,98.6,85.0,18.1
470.25,90.7,64.7,98.4,84.6,17.7
471.0,91.9,65.6,98.0,85.2,17.2
471.75,93.0,65.2,98.2,85.5,17.7
472.5,93.0,64.7,96.8,84.9,17.5
473.25,91.4,66.3,97.5,85.1,16.6
474.0,93.7,64.4,96.9,85.0,17.9
474.75,93.1,65.6,96.9,85.2,17.1
475.5,93.9,65.6,98.4,86.0,17.7
476.25,92.8,64.6,97.8,85.0,17.9
477.0,91.4,65.5,97.1,84.7,16.8
477.75,91.6,66.6,97.9,85.4,16.6
478.5,92.6,65.8,98.1,85.5,17.3
479.25,92.3,65.9,97.2,85.2,16.8
480.0,91.7,65.8,97.9,85.1,17.0
480.75,92.3,66.7,97.6,85.5,16.5
481.5,93.9,65.6,97.8,85.8,17.6
482.25,93.7,65.1,98.4,85.7,18.1
483.0,92.5,64.3,98.2,85.0,18.1
483.75,93.6,66.0,97.3,85.6,17.1
484.5,93.9,64.2,98.6,85.6,18.7
485.25,94.5,64.3,97.6,85.4,18.4
486.0,93.4,65.9,98.0,85.8,17.4
486.75,93.9,65.4,102.2,87.2,19.3
487.5,92.7,65.5,99.4,85.9,18.0
488.25,93.8,65.4,99.4,86.2,18.2
489.0,94.8,65.8,99.2,86.6,18.1
489.75,93.0,64.6,99.2,85.6,18.5
490.5,94.0,65.0,99.8,86.3,18.6
491.25,93.3,64.9,100.5,86.2,18.8
492.0,93.6,65.8,100.0,86.5,18.2
492.75,95.1,65.8,100.0,87.0,18.5
493.5,94.1,65.4,98.4,86.0,17.9
494.25,94.6,65.2,99.4,86.4,18.5
495.0,94.4,65.7,98.9,86.3,18.0
495.75,95.9,66.3,100.6,87.6,18.6
496.5,96.8,66.4,100.0,87.7,18.6
497.25,95.9,65.7,100.9,87.5,19.0
498.0,95.8,66.5,100.3,87.5,18.3
498.75,95.7,66.3,101.7,87.9,18.9
499.5,97.2,66.2,101.9,88.4,19.4
500.25,97.0,66.0,100.7,87.9,19.1
501.0,97.9,66.6,101.4,88.6,19.2
501.75,97.4,65.5,101.9,88.3,19.9
502.5,97.7,65.7,100.4,88.0,19.3
503.25,96.7,66.0,102.4,88.4,19.5
504.0,95.3,65.9,101.2,87.5,18.9
504.75,96.6,65.6,100.4,87.5,19.1
505.5,96.3,65.7,102.3,88.1,19.6
506.25,97.6,65.2,100.6,87.8,19.6
507.0,97.5,65.3,102.7,88.5,20.3
507.75,96.9,65.8,103.2,88.6,20.0
508.5,96.6,65.0,102.2,88.0,20.1
509.25,97.4,66.4,101.8,88.5,19.3
510.0,97.5,67.4,102.5,89.1,19.0
510.75,98.5,66.8,101.7,89.0,19.3
511.5,98.0,66.7,100.5,88.4,18.8
512.25,98.7,66.4,101.4,88.8,19.5
513.0,97.1,66.4,103.4,89.0,19.8
513.75,98.6,66.3,103.4,89.4,20.1
514.5,96.8,66.9,100.8,88.2,18.5
515.25,97.8,66.6,102.6,89.0,19.6
516.0,97.1,67.2,103.5,89.3,19.4
516.75,97.0,66.6,103.2,88.9,19.6
517.5,97.4,66.4,105.5,89.8,20.6
518.25,97.0,66.5,104.0,89.2,20.0
519.0,99.4,65.5,103.5,89.4,20.8
519.75,99.2,66.9,103.1,89.7,19.9
520.5,98.8,65.8,102.9,89.2,20.3
521.25,98.6,66.3,103.2,89.3,20.1
522.0,99.4,66.6,103.5,89.8,20.2
522.75,98.1,67.2,104.7,90.0,20.0
523.5,100.6,67.0,101.9,89.8,19.8
524.25,98.9,66.4,102.3,89.2,19.8
525.0,99.5,66.2,103.6,89.8,20.5
525.75,99.2,66.9,103.8,90.0,20.1
526.5,102.2,66.8,103.2,90.7,20.7
527.25,101.9,66.2,102.2,90.1,20.7
528.0,102.5,64.8,105.2,90.8,22.6
528.75,101.6,65.9,104.2,90.5,21.4
529.5,102.7,66.6,105.9,91.7,21.8
530.25,101.7,65.8,104.4,90.6,21.6
531.0,101.1,65.9,102.6,89.8,20.8
531.75,102.1,65.3,105.1,90.8,22.2
532.5,103.4,65.4,103.7,90.8,22.0
533.25,103.2,65.4,103.4,90.7,21.9
534.0,102.9,65.9,104.1,91.0,21.7
534.75,103.5,66.3,105.3,91.7,22.1
535.5,104.7,65.2,104.7,91.6,22.8
536.25,104.8,66.0,105.5,92.1,22.6
537.0,102.8,65.3,105.7,91.3,22.5
537.75,104.4,65.3,105.1,91.6,22.8
538.5,103.0,65.2,104.6,90.9,22.3
539.25,102.4,65.7,105.3,91.1,22.1
540.0,104.1,64.3,105.4,91.3,23.3
540.75,103.2,66.4,104.2,91.3,21.5
541.5,104.7,64.7,107.8,92.4,24.0
542.25,104.5,65.6,104.1,91.4,22.3
543.0,103.8,65.4,106.2,91.8,22.9
543.75,104.6,63.9,106.6,91.7,24.1
544.5,104.6,64.4,105.7,91.6,23.5
545.25,105.5,65.1,106.3,92.3,23.6
546.0,106.5,63.4,107.0,92.3,25.0
546.75,107.1,64.2,107.3,92.9,24.9
547.5,106.3,64.7,107.1,92.7,24.3
548.25,106.5,64.7,105.6,92.3,23.9
549.0,107.8,65.4,106.3,93.2,24.1
549.75,107.4,65.5,106.1,93.0,23.8
550.5,105.3,66.1,106.3,92.6,22.9
551.25,106.3,65.4,106.6,92.8,23.7
552.0,108.1,65.1,105.9,93.0,24.2
552.75,107.0,65.4,107.6,93.3,24.2
553.5,107.8,65.8,107.8,93.8,24.2
554.25,109.1,65.7,107.1,94.0,24.5
555.0,107.8,65.2,108.8,93.9,24.9
555.75,107.2,65.0,109.7,94.0,25.1
556.5,108.6,65.8,110.1,94.9,25.2
557.25,109.5,65.8,108.5,94.6,24.9
558.0,108.1,66.2,110.6,94.9,24.9
558.75,110.4,65.8,110.5,95.6,25.8
559.5,108.2,66.6,110.1,95.0,24.6
560.25,110.3,66.4,111.2,96.0,25.6
561.0,110.9,66.8,112.0,96.6,25.8
561.75,110.6,67.1,111.3,96.3,25.3
562.5,110.5,66.7,111.8,96.3,25.7
563.25,110.0,66.6,114.1,96.9,26.3
564.0,110.0,67.2,111.7,96.3,25.2
564.75,111.8,65.8,111.1,96.2,26.3
565.5,112.7,66.1,113.5,97.4,27.1
566.25,110.7,66.4,111.4,96.2,25.8
567.0,110.2,66.1,111.7,96.0,25.9
567.75,113.0,66.9,110.8,96.9,26.0
568.5,113.1,66.5,112.3,97.3,26.7
569.25,110.9,66.5,113.7,97.0,26.5
570.0,111.8,67.0,113.7,97.5,26.5
570.75,111.9,66.4,114.1,97.5,26.9
571.5,114.2,67.0,112.3,97.8,26.7
572.25,113.8,67.1,113.6,98.2,26.9
573.0,112.5,67.1,113.8,97.8,26.6
573.75,113.8,66.9,113.1,98.0,26.9
574.5,115.6,66.9,113.4,98.6,27.5
575.25,115.7,67.2,116.6,99.8,28.3
576.0,112.6,68.2,114.3,98.4,26.1
576.75,114.3,66.8,115.4,98.8,27.8
577.5,115.1,67.1,114.7,99.0,27.6
578.25,114.1,67.9,114.5,98.9,26.8
579.0,114.7,67.6,116.7,99.7,27.8
579.75,114.4,66.7,115.3,98.8,27.8
580.5,115.2,66.7,115.4,99.1,28.0
581.25,116.7,67.9,116.7,100.4,28.2
582.0,116.1,67.2,116.8,100.0,28.4
582.75,118.2,66.3,118.4,101.0,30.1
583.5,117.1,65.8,119.8,100.9,30.4
584.25,115.5,66.5,117.1,99.7,28.8
585.0,117.6,67.1,119.9,101.5,29.8
585.75,118.8,66.4,119.9,101.7,30.6
586.5,119.2,66.4,118.5,101.4,30.3
587.25,117.8,66.8,119.7,101.5,30.0
588.0,117.3,67.1,120.4,101.6,29.9
588.75,118.4,67.7,120.4,102.1,29.9
589.5,122.0,68.0,123.4,104.5,31.6
590.25,119.3,70.0,120.6,103.3,28.8
591.0,119.8,69.8,121.6,103.7,29.4
591.75,121.3,71.4,123.1,105.3,29.4
592.5,122.8,71.4,122.5,105.6,29.6
593.25,120.1,71.6,119.8,103.8,27.9
594.0,119.6,70.5,122.1,104.1,29.1
594.75,120.8,70.4,122.6,104.6,29.6
595.5,121.0,70.6,123.6,105.1,29.8
596.25,121.5,71.2,123.6,105.4,29.7
597.0,123.0,71.1,124.8,106.3,30.5
597.75,123.9,71.5,125.4,107.0,30.7
598.5,121.3,70.6,125.7,105.9,30.6
599.25,122.8,70.8,126.6,106.8,31.2
600.0,122.5,69.8,127.6,106.6,32.0
600.75,122.0,68.8,128.3,106.3,32.7
601.5,123.9,69.7,127.5,107.1,32.4
602.25,124.5,69.1,126.0,106.5,32.4
603.0,125.6,69.0,125.8,106.8,32.7
603.75,124.4,68.8,127.3,106.8,33.0
604.5,125.3,70.4,127.0,107.6,32.2
605.25,124.1,70.1,129.0,107.7,32.7
606.0,124.2,69.0,129.5,107.6,33.5
606.75,124.7,69.8,130.0,108.1,33.3
607.5,125.9,69.8,130.8,108.8,33.9
608.25,126.5,70.8,132.4,109.9,34.0
609.0,125.2,71.2,129.9,108.7,32.6
609.75,127.2,70.4,130.7,109.4,33.9
610.5,126.6,69.3,130.1,108.7,34.1
611.25,127.2,69.7,132.3,109.7,34.8
612.0,127.3,70.1,133.0,110.1,34.8
612.75,127.5,70.8,131.7,110.0,34.0
613.5,129.9,70.7,132.5,111.0,34.9
614.25,127.0,71.2,131.4,109.9,33.6
615.0,131.4,71.1,132.4,111.6,35.1
615.75,131.3,69.3,134.2,111.6,36.7
616.5,130.8,69.3,132.3,110.8,35.9
617.25,132.9,70.3,130.5,111.2,35.5
618.0,132.0,69.3,133.9,111.7,36.7
618.75,133.6,69.9,132.5,112.0,36.5
619.5,132.3,70.0,135.0,112.4,36.8
620.25,132.9,69.7,132.3,111.6,36.3
621.0,134.1,70.1,134.1,112.8,37.0
621.75,133.2,69.2,135.0,112.5,37.5
622.5,135.3,69.0,137.4,113.9,38.9
623.25,137.2,70.7,136.0,114.6,38.0
624.0,134.0,70.0,137.9,113.9,38.1
624.75,136.7,69.4,135.1,113.7,38.4
625.5,135.2,70.3,137.0,114.2,38.0
626.25,133.4,70.5,134.7,112.9,36.7
627.0,134.8,71.4,136.9,114.4,37.3
627.75,139.0,70.8,136.1,115.3,38.5
628.5,138.5,70.6,135.6,114.9,38.4
629.25,138.3,70.7,135.6,114.9,38.3
630.0,138.1,70.7,137.4,115.4,38.8
630.75,137.1,70.9,138.9,115.6,38.7
631.5,136.9,71.2,135.8,114.6,37.7
632.25,137.2,71.5,137.7,115.5,38.1
633.0,138.9,71.0,138.8,116.2,39.2
633.75,138.6,69.9,139.3,115.9,39.9
634.5,143.4,71.3,138.6,117.8,40.4
635.25,140.4,71.1,140.3,117.3,40.0
636.0,139.3,71.5,137.7,116.2,38.7
636.75,141.2,70.6,138.6,116.8,40.0
637.5,142.5,71.2,138.6,117.4,40.1
638.25,141.3,71.1,140.2,117.5,40.2
639.0,143.0,71.4,140.7,118.4,40.7
639.75,141.5,71.7,139.6,117.6,39.8
640.5,144.1,71.5,139.8,118.5,40.7
641.25,143.5,70.7,139.1,117.8,40.8
642.0,144.3,71.0,142.4,119.2,41.8
642.75,143.8,71.4,141.6,118.9,41.2
643.5,143.7,70.7,140.4,118.2,41.2
644.25,145.7,69.9,140.6,118.8,42.4
645.0,148.1,71.8,142.4,120.7,42.5
645.75,143.9,71.7,139.9,118.5,40.6
646.5,149.7,71.7,142.8,121.4,43.2
647.25,146.6,71.0,146.6,121.4,43.6
648.0,147.7,72.1,145.6,121.8,43.0
648.75,146.8,71.1,145.3,121.1,43.2
649.5,147.6,71.8,145.5,121.7,43.2
650.25,145.4,73.1,145.4,121.3,41.8
651.0,148.5,72.5,145.8,122.3,43.1
651.75,149.8,75.5,144.8,123.3,41.5
652.5,152.1,73.5,144.0,123.2,43.2
653.25,151.1,74.4,147.9,124.4,43.4
654.0,149.1,74.4,146.1,123.2,42.3
654.75,153.2,74.9,146.1,124.7,43.3
655.5,149.8,73.2,145.9,123.0,43.2
656.25,149.1,74.2,144.0,122.4,41.9
657.0,150.6,74.5,147.5,124.2,43.0
657.75,152.4,75.7,145.9,124.7,42.5
658.5,153.0,75.1,149.1,125.7,43.9
659.25,152.3,74.2,148.7,125.1,44.1
660.0,152.6,73.8,146.3,124.2,43.8
660.75,154.2,73.1,146.2,124.5,44.7
661.5,155.1,74.1,147.1,125.4,44.6
662.25,155.6,75.2,148.9,126.6,44.6
663.0,157.3,74.2,147.2,126.2,45.3
663.75,157.0,76.4,148.0,127.1,44.1
664.5,158.2,74.9,149.5,127.5,45.8
665.25,157.0,75.4,150.3,127.6,45.3
666.0,157.3,74.8,149.6,127.2,45.6
666.75,161.1,74.1,147.6,127.6,46.8
667.5,159.6,74.5,152.6,128.9,47.2
668.25,157.6,75.1,150.2,127.6,45.6
669.0,155.8,75.4,149.9,127.0,44.9
669.75,159.9,75.7,151.8,129.1,46.5
670.5,162.2,73.9,151.2,129.1,48.1
671.25,162.4,76.1,153.2,130.6,47.4
672.0,162.4,74.9,150.4,129.2,47.4
672.75,161.2,75.6,151.2,129.3,46.8
673.5,162.5,75.6,151.5,129.9,47.3
674.25,163.8,75.3,154.8,131.3,48.7
675.0,162.2,76.0,150.4,129.5,46.7
675.75,164.0,77.1,153.1,131.4,47.4
676.5,166.3,75.4,150.5,130.7,48.6
677.25,165.4,75.2,151.4,130.7,48.5
678.0,165.1,75.4,147.2,129.2,47.5
678.75,165.9,74.6,152.4,130.9,49.3
679.5,166.1,76.2,151.6,131.3,48.3
680.25,166.6,75.5,150.8,131.0,48.7
681.0,166.8,75.2,153.7,131.9,49.5
681.75,167.1,75.4,151.6,131.4,49.1
682.5,168.4,76.8,154.3,133.2,49.3
683.25,165.6,77.2,152.5,131.8,47.7
684.0,166.1,76.8,154.5,132.5,48.6
684.75,166.5,77.5,154.1,132.7,48.2
685.5,168.6,76.4,154.6,133.2,49.7
686.25,168.7,76.6,157.6,134.3,50.3
687.0,176.0,76.9,155.2,136.1,52.3
687.75,171.9,76.6,154.5,134.3,50.7
688.5,171.1,77.2,157.9,135.4,50.8
689.25,172.0,76.5,153.6,134.0,50.6
690.0,173.8,78.9,155.5,136.1,50.4
690.75,172.9,79.7,156.4,136.3,49.7
691.5,175.2,77.8,157.4,136.8,51.9
692.25,175.7,78.4,155.7,136.6,51.4
693.0,171.6,77.7,157.5,135.6,50.6
693.75,175.6,76.7,157.4,136.6,52.6
694.5,175.6,77.3,158.2,137.0,52.4
695.25,176.2,77.0,156.3,136.5,52.5
696.0,176.8,78.0,156.4,137.1,52.1
696.75,176.9,79.0,157.8,137.9,51.9
697.5,176.1,79.3,158.0,137.8,51.5
698.25,178.5,78.9,154.8,137.4,52.0
699.0,177.2,79.0,157.1,137.8,51.9
699.75,179.4,78.0,156.7,138.1,53.2
700.5,179.2,78.6,157.9,138.6,53.0
701.25,179.8,78.3,158.8,139.0,53.6
702.0,179.8,78.0,159.2,139.0,53.8
702.75,182.7,78.7,157.2,139.5,54.2
703.5,179.2,78.1,159.1,138.8,53.5
704.25,178.1,78.6,158.6,138.4,52.8
705.0,180.7,78.8,158.0,139.2,53.5
705.75,183.7,80.1,160.7,141.5,54.4
706.5,183.9,79.0,162.9,141.9,55.5
707.25,183.7,78.7,163.5,142.0,55.7
708.0,181.4,80.7,160.8,141.0,53.2
708.75,186.4,79.6,164.0,143.4,56.3
709.5,184.8,79.3,162.9,142.3,55.7
710.25,183.6,80.3,161.1,141.7,54.3
711.0,183.7,79.6,163.2,142.1,55.2
711.75,187.6,78.8,163.3,143.2,57.1
712.5,182.2,80.9,165.4,142.8,54.3
713.25,188.6,80.6,164.4,144.5,56.7
714.0,185.1,82.0,163.7,143.6,54.4
714.75,188.5,81.7,162.1,144.1,55.6
715.5,185.6,82.5,161.8,143.3,54.0
716.25,188.9,81.4,163.6,144.6,56.2
717.0,190.4,81.5,163.1,145.0,56.7
717.75,185.6,81.9,164.0,143.8,54.7
718.5,185.7,82.9,161.7,143.4,53.8
719.25,187.2,81.5,162.2,143.7,55.2
720.0,191.0,83.0,161.1,145.0,55.8
720.75,189.3,82.5,161.0,144.3,55.3
721.5,187.8,82.1,162.3,144.1,55.2
722.25,188.5,82.9,165.8,145.7,55.6
723.0,191.2,82.6,164.2,146.0,56.5
723.75,192.1,82.5,163.1,145.9,56.8
724.5,190.1,84.4,165.2,146.6,55.2
725.25,189.2,83.5,167.0,146.5,55.7
726.0,189.1,83.8,165.4,146.1,55.2
726.75,193.9,85.1,169.5,149.5,57.1
727.5,193.3,85.4,166.6,148.4,56.2
728.25,194.5,84.9,164.2,147.9,56.6
729.0,195.2,86.7,166.1,149.3,56.1
729.75,194.7,84.4,164.9,148.0,57.1
730.5,193.8,85.0,166.1,148.3,56.5
731.25,193.5,86.0,166.1,148.5,55.8
732.0,191.8,86.4,167.5,148.5,55.2
732.75,194.5,86.4,167.7,149.5,56.3
733.5,193.0,86.4,166.9,148.8,55.6
734.25,194.5,86.0,167.5,149.3,56.5
735.0,197.9,85.4,165.5,149.6,57.9
735.75,192.6,86.2,164.7,147.8,55.1
736.5,193.0,86.5,166.0,148.5,55.4
737.25,191.4,86.1,165.9,147.8,54.9
738.0,193.6,87.9,167.4,149.6,55.1
738.75,193.0,85.8,165.3,148.0,55.6
739.5,193.0,88.0,170.1,150.3,55.2
740.25,194.2,87.3,166.8,149.4,55.5
741.0,198.0,86.9,165.9,150.3,57.2
741.75,195.0,85.4,167.2,149.2,57.0
742.5,193.0,87.5,167.3,149.2,55.0
743.25,195.4,87.9,167.0,150.1,55.7
744.0,196.1,89.3,165.4,150.3,55.0
744.75,196.1,88.0,166.9,150.4,55.9
745.5,193.9,88.3,167.2,149.8,54.9
746.25,193.5,89.8,164.6,149.3,53.5
747.0,195.4,88.3,165.6,149.8,55.3
747.75,199.4,88.2,165.2,150.9,56.9
748.5,193.8,90.0,164.2,149.3,53.4
749.25,199.3,89.0,170.4,152.9,57.2
750.0,194.7,89.7,165.3,149.9,54.2
750.75,196.0,88.3,166.0,150.1,55.5
751.5,201.1,90.4,168.8,153.4,56.9
752.25,203.4,90.7,169.8,154.6,57.9
753.0,199.6,89.8,170.5,153.3,56.9
753.75,195.2,89.9,169.1,151.4,54.9
754.5,200.7,90.8,166.4,152.7,56.2
755.25,200.7,91.7,171.4,154.6,56.4
756.0,200.8,90.7,169.1,153.6,56.7
756.75,199.0,91.1,170.0,153.4,55.8
757.5,199.0,91.9,171.7,154.2,55.7
758.25,200.8,91.7,170.3,154.3,56.3
759.0,202.6,93.1,168.7,154.8,56.1
759.75,200.9,92.6,169.0,154.2,55.6
760.5,203.3,94.7,169.5,155.8,55.6
761.25,201.3,93.1,166.7,153.7,55.3
762.0,199.6,95.3,170.8,155.2,53.9
762.75,203.1,94.2,171.4,156.2,56.1
763.5,202.2,93.7,166.7,154.2,55.3
764.25,199.3,94.6,169.3,154.4,53.9
765.0,199.9,95.8,172.7,156.1,54.0
765.75,206.7,96.5,173.2,158.8,56.5
766.5,201.3,96.7,171.0,156.3,53.8
767.25,205.4,96.1,171.2,157.6,55.9
768.0,205.5,97.1,172.7,158.4,55.6
768.75,205.3,95.7,172.6,157.9,56.2
769.5,205.7,97.6,169.5,157.6,55.0
770.25,205.7,98.9,171.6,158.7,54.6
771.0,209.9,97.0,171.9,159.6,57.4
771.75,208.2,97.9,170.9,159.0,56.1
772.5,205.7,97.6,167.0,156.8,54.8
773.25,206.2,98.8,171.4,158.8,54.8
774.0,209.5,99.8,167.9,159.1,55.4
774.75,205.1,98.6,172.5,158.7,54.6
775.5,208.1,98.0,169.1,158.4,55.8
776.25,209.5,99.1,169.6,159.4,55.9
777.0,209.5,98.7,170.3,159.5,56.2
777.75,211.4,101.8,174.9,162.7,55.8
778.5,211.9,100.7,171.0,161.2,56.2
779.25,208.3,99.9,170.1,159.4,55.0
780.0,210.3,100.7,167.9,159.6,55.3
780.75,209.7,101.3,172.2,161.1,55.1
781.5,212.5,100.4,171.7,161.5,56.7
782.25,212.2,101.9,172.5,162.2,55.9
783.0,212.9,102.1,172.3,162.4,56.1
783.75,214.5,103.6,176.3,164.8,56.3
784.5,217.0,102.1,174.4,164.5,58.1
785.25,212.9,102.3,175.5,163.6,56.2
786.0,214.6,103.2,172.8,163.5,56.3
786.75,213.1,103.1,172.2,162.8,55.6
787.5,214.2,103.9,175.3,164.5,55.9
788.25,216.7,104.6,172.2,164.5,56.4
789.0,214.4,104.8,172.5,163.9,55.3
789.75,215.0,105.2,172.7,164.3,55.4
790.5,217.1,104.0,172.0,164.4,57.0
791.25,215.7,105.5,172.1,164.5,55.5
792.0,215.5,105.7,174.1,165.1,55.4
792.75,217.6,107.7,172.6,166.0,55.2
793.5,218.5,107.3,173.5,166.5,55.9
794.25,218.4,106.1,176.1,166.9,56.7
795.0,216.7,108.4,174.5,166.5,54.6
795.75,217.0,109.7,171.6,166.1,53.8
796.5,219.3,107.8,169.4,165.5,55.8
797.25,217.6,108.4,173.7,166.6,54.9
798.0,214.3,110.2,172.1,165.5,52.4
798.75,214.4,110.2,175.6,166.7,52.6
799.5,217.4,112.8,176.3,168.9,52.7
800.25,212.4,111.3,172.3,165.3,50.9
801.0,221.5,112.2,171.3,168.3,54.7
801.75,213.8,111.8,171.2,165.6,51.2
802.5,220.9,110.5,173.3,168.2,55.4
803.25,216.5,112.7,172.6,167.3,52.1
804.0,213.9,111.3,172.9,166.0,51.7
804.75,213.1,111.4,176.3,166.9,51.5
805.5,210.2,109.6,174.2,164.7,51.0
806.25,210.5,112.8,173.3,165.5,49.3
807.0,211.1,112.4,173.7,165.7,49.8
807.75,209.9,114.2,174.5,166.2,48.4
808.5,213.8,113.8,174.6,167.4,50.4
809.25,207.9,113.6,176.9,166.1,48.0
810.0,211.7,113.1,174.3,166.4,49.8
810.75,209.7,116.4,175.7,167.2,47.2
811.5,205.3,112.5,172.1,163.3,47.0
812.25,206.4,115.0,177.1,166.2,46.6
813.0,210.4,115.6,172.0,166.0,47.7
813.75,202.9,115.4,174.2,164.1,44.6
814.5,202.3,116.7,175.5,164.8,43.8
815.25,202.8,115.0,176.7,164.8,45.1
816.0,200.1,118.8,173.9,164.3,41.5
816.75,201.5,116.4,175.7,164.5,43.6
817.5,196.3,117.3,173.3,162.3,40.7
818.25,196.3,121.6,172.6,163.5,38.2
819.0,197.6,117.8,174.4,163.3,41.1
819.75,195.8,119.2,174.8,163.3,39.6
820.5,196.1,120.4,174.4,163.6,39.0
821.25,195.4,118.7,173.2,162.4,39.4
822.0,193.8,120.2,173.8,162.6,38.0
822.75,190.5,120.1,173.8,161.5,36.8
823.5,190.0,118.3,175.0,161.1,37.9
824.25,185.7,121.2,170.7,159.2,33.8
825.0,189.9,119.6,171.7,160.4,36.5
825.75,186.4,120.3,170.2,159.0,34.5
826.5,186.2,119.5,170.9,158.9,35.0
827.25,185.1,120.6,174.1,159.9,34.5
828.0,186.2,123.0,171.4,160.2,33.0
828.75,181.5,123.1,172.1,158.9,31.4
829.5,186.2,122.3,172.6,160.4,33.6
830.25,182.3,124.9,170.5,159.2,30.3
831.0,177.4,125.3,173.0,158.6,28.9
831.75,177.9,124.1,173.8,158.6,30.0
832.5,175.3,127.3,173.3,158.6,27.2
833.25,178.0,124.9,172.4,158.4,29.2
834.0,173.2,127.2,170.3,156.9,25.7
834.75,171.3,126.9,170.5,156.3,25.4
835.5,170.9,126.0,170.8,155.9,25.9
836.25,171.0,125.2,173.1,156.4,27.1
837.0,167.3,127.2,171.0,155.1,24.3
837.75,166.8,127.8,169.5,154.7,23.3
838.5,163.2,126.3,174.5,154.7,25.2
839.25,162.8,128.7,172.3,154.6,22.9
840.0,163.3,128.3,172.5,154.7,23.3
840.75,162.6,131.2,170.2,154.7,20.7
841.5,160.2,127.9,169.3,152.5,21.7
842.25,163.8,131.2,166.7,153.9,19.7
843.0,158.8,130.6,166.2,151.9,18.8
843.75,159.5,132.8,168.3,153.6,18.5
844.5,157.3,131.8,167.4,152.2,18.4
845.25,158.8,132.6,166.7,152.7,17.9
846.0,155.7,133.3,165.1,151.3,16.4
846.75,156.4,132.5,165.0,151.3,16.8
847.5,157.1,132.6,165.9,151.9,17.3
848.25,157.7,135.0,166.7,153.1,16.4
849.0,156.2,134.5,164.5,151.7,15.5
849.75,155.6,135.0,165.3,151.9,15.5
850.5,153.7,136.3,163.3,151.1,13.7
851.25,155.3,136.2,165.2,152.3,14.8
852.0,151.9,136.6,162.6,150.4,13.0
852.75,152.0,136.2,161.2,149.8,12.6
853.5,152.0,137.9,162.0,150.6,12.1
854.25,147.8,133.9,163.3,148.3,14.7
855.0,145.7,137.9,160.2,147.9,11.3
855.75,139.4,137.6,158.8,145.2,11.8
856.5,139.4,137.6,161.1,146.1,13.1
857.25,138.0,137.3,158.0,144.5,11.7
858.0,135.3,139.6,159.1,144.7,12.7
858.75,132.7,138.7,157.8,143.1,13.1
859.5,133.1,141.0,156.5,143.5,11.9
860.25,128.4,141.9,154.8,141.7,13.2
861.0,128.4,144.7,155.5,142.9,13.7
861.75,124.6,143.2,151.7,139.8,13.8
862.5,123.9,144.3,152.4,140.2,14.7
863.25,122.4,144.7,151.0,139.4,15.1
864.0,122.6,145.4,151.6,139.8,15.3
864.75,123.1,145.3,148.8,139.1,14.0
865.5,122.6,145.3,150.6,139.5,14.9
866.25,121.9,146.7,150.2,139.6,15.4
867.0,119.1,145.4,147.5,137.3,15.8
867.75,118.2,143.1,143.5,134.9,14.5
868.5,116.0,147.1,145.0,136.0,17.4
869.25,113.9,145.9,145.5,135.1,18.3
870.0,113.7,147.5,141.6,134.3,18.1
870.75,111.5,145.6,140.4,132.5,18.3
871.5,112.4,148.2,136.7,132.5,18.3
872.25,113.3,147.4,138.3,133.0,17.6
873.0,113.2,146.8,137.7,132.6,17.4
873.75,112.1,148.5,135.0,131.9,18.4
874.5,108.9,151.1,134.9,131.6,21.3
875.25,108.7,145.5,136.7,130.3,19.2
876.0,107.4,146.7,134.4,129.5,20.1
876.75,103.1,150.1,134.2,129.1,23.9
877.5,104.9,149.3,133.2,129.1,22.5
878.25,102.4,152.0,135.8,130.1,25.3
879.0,100.9,153.3,131.8,128.7,26.4
879.75,100.7,149.6,133.1,127.8,24.9
880.5,99.1,151.4,133.2,127.9,26.5
881.25,99.3,150.6,133.4,127.8,26.1
882.0,96.1,151.6,135.0,127.5,28.5
882.75,94.8,152.2,131.0,126.0,29.1
883.5,95.7,152.9,130.9,126.5,28.9
884.25,94.5,152.5,131.0,126.0,29.3
885.0,94.0,154.8,130.3,126.3,30.6
885.75,92.1,154.0,130.5,125.5,31.2
886.5,91.7,156.1,127.6,125.1,32.3
887.25,89.8,157.8,131.0,126.2,34.2
888.0,89.5,156.5,128.0,124.7,33.6
888.75,88.0,156.9,128.4,124.4,34.6
889.5,86.7,155.1,126.0,122.6,34.3
890.25,85.0,156.4,123.9,121.8,35.8
891.0,84.6,156.3,122.8,121.2,35.9
891.75,82.8,156.6,120.8,120.1,36.9
892.5,79.6,156.7,119.4,118.6,38.5
893.25,81.1,159.0,118.4,119.5,39.0
894.0,79.9,159.1,115.7,118.2,39.7
894.75,77.7,159.1,113.4,116.7,40.8
895.5,78.1,159.7,110.7,116.2,41.1
896.25,76.9,161.4,108.6,115.6,42.7
897.0,75.7,163.1,105.5,114.8,44.5
897.75,75.6,161.9,104.2,113.9,43.9
898.5,76.3,161.0,101.2,112.8,43.5
899.25,76.1,162.6,99.4,112.7,44.7
900.0,77.5,161.3,96.3,111.7,44.0
900.75,77.3,161.8,96.3,111.8,44.3
901.5,77.7,160.1,95.8,111.2,43.3
902.25,76.6,160.6,94.4,110.5,44.2
903.0,75.3,161.5,92.4,109.8,45.6
903.75,75.1,163.1,91.4,109.9,46.8
904.5,74.3,166.4,91.4,110.7,49.0
905.25,73.8,165.7,89.7,109.7,49.1
906.0,73.1,164.4,88.1,108.5,49.0
906.75,72.2,163.0,85.8,107.0,49.0
907.5,71.7,166.8,85.2,107.9,51.5
908.25,72.5,169.2,85.9,109.2,52.4
909.0,72.3,165.5,84.1,107.3,50.8
909.75,72.3,165.1,83.9,107.1,50.5
910.5,73.1,166.8,82.7,107.5,51.6
911.25,72.9,165.6,80.4,106.3,51.5
912.0,71.3,166.9,81.0,106.4,52.6
912.75,71.3,171.0,80.5,107.6,55.1
913.5,68.7,171.2,78.8,106.2,56.5
914.25,67.8,170.8,77.1,105.2,57.0
915.0,66.8,171.8,75.8,104.8,58.2
915.75,65.7,169.7,75.4,103.6,57.4
916.5,66.1,175.1,73.2,104.8,61.0
917.25,65.1,172.8,72.3,103.4,60.2
918.0,65.3,172.4,72.0,103.2,60.0
918.75,65.8,173.3,70.4,103.2,60.8
919.5,65.7,172.6,67.8,102.0,61.1
920.25,66.4,172.3,67.5,102.0,60.8
921.0,65.9,174.5,66.9,102.4,62.4
921.75,66.4,176.3,66.6,103.1,63.4
922.5,65.8,172.5,66.6,101.6,61.4
923.25,65.7,176.4,65.2,102.4,64.0
924.0,65.6,179.7,65.7,103.7,65.8
924.75,66.9,174.7,65.8,102.5,62.6
925.5,66.1,178.8,66.3,103.7,65.0
926.25,65.5,178.7,66.4,103.5,65.1
927.0,65.5,179.6,66.6,103.9,65.6
927.75,65.3,180.5,66.6,104.1,66.2
928.5,65.8,181.6,65.8,104.4,66.9
929.25,66.1,181.4,66.0,104.5,66.6
930.0,64.6,181.9,66.6,104.4,67.1
930.75,64.1,183.2,66.7,104.6,68.1
931.5,63.2,184.9,66.5,104.9,69.3
932.25,63.5,182.1,66.2,103.9,67.7
933.0,63.2,182.3,65.3,103.6,68.1
933.75,62.9,184.1,66.2,104.4,69.0
934.5,63.7,185.7,65.1,104.9,70.0
935.25,63.1,186.4,64.5,104.7,70.8
936.0,61.5,185.6,64.2,103.7,70.9
936.5,61.7,185.7,63.7,103.7,71.0