File: 01_Data/PlasticA/FTIR/IS/PlasticA_IS_S_220906_R2.dpt
7497.03,0.70567
7491.25,0.71885
7485.46,0.70673
7479.67,0.70072
7473.89,0.71323
7468.1,0.71772
7462.32,0.70709
7456.53,0.70417
7450.74,0.71289
7444.96,0.70499
7439.17,0.71229
7433.38,0.69885
7427.6,0.70615
7421.81,0.69545
7416.03,0.70181
7410.24,0.69761
7404.45,0.69675
7398.67,0.69371
7392.88,0.69708
7387.09,0.69505
7381.31,0.69726
7375.52,0.69924
7369.74,0.68801
7363.95,0.69417
7358.16,0.69828
7352.38,0.69713
7346.59,0.69634
7340.8,0.68859
7335.02,0.68281
7329.23,0.68055
7323.45,0.67331
7317.66,0.67945
7311.87,0.66985
7306.09,0.67454
7300.3,0.67193
7294.51,0.66756
7288.73,0.66424
7282.94,0.66998
7277.16,0.66133
7271.37,0.65219
7265.58,0.65061
7259.8,0.65382
7254.01,0.65757
7248.22,0.64791
7242.44,0.65224
7236.65,0.64091
7230.87,0.63916
7225.08,0.63030
7219.29,0.64105
7213.51,0.64104
7207.72,0.63781
7201.93,0.62999
7196.15,0.63273
7190.36,0.62491
7184.58,0.62623
7178.79,0.62341
7173,0.62320
7167.22,0.62431
7161.43,0.62302
7155.65,0.62101
7149.86,0.62515
7144.07,0.61537
7138.29,0.62189
7132.5,0.61581
7126.71,0.60597
7120.93,0.60586
7115.14,0.60975
7109.36,0.59754
7103.57,0.60567
7097.78,0.60179
7092,0.59854
7086.21,0.60077
7080.42,0.60092
7074.64,0.59469
7068.85,0.59163
7063.07,0.59486
7057.28,0.60299
7051.49,0.60250
7045.71,0.59868
7039.92,0.60020
7034.13,0.59888
7028.35,0.60426
7022.56,0.59911
7016.78,0.60653
7010.99,0.61182
7005.2,0.60852
6999.42,0.60776
6993.63,0.61563
6987.84,0.61537
6982.06,0.61064
6976.27,0.61351
6970.49,0.61828
6964.7,0.61017
6958.91,0.61648
6953.13,0.61428
6947.34,0.61908
6941.55,0.61491
6935.77,0.62125
6929.98,0.62214
6924.2,0.62394
6918.41,0.62317
6912.62,0.62813
6906.84,0.62573
6901.05,0.63484
6895.26,0.62922
6889.48,0.62984
6883.69,0.63135
6877.91,0.63917
6872.12,0.63757
6866.33,0.63131
6860.55,0.63083
6854.76,0.63295
6848.97,0.64271
6843.19,0.64066
6837.4,0.64040
6831.62,0.63163
6825.83,0.63851
6820.04,0.64276
6814.26,0.63733
6808.47,0.64115
6802.68,0.64026
6796.9,0.64096
6791.11,0.64883
6785.33,0.64435
6779.54,0.64348
6773.75,0.64825
6767.97,0.64203
6762.18,0.64236
6756.39,0.64484
6750.61,0.64907
6744.82,0.64595
6739.04,0.64527
6733.25,0.64686
6727.46,0.64965
6721.68,0.64757
6715.89,0.64826
6710.1,0.65072
6704.32,0.64892
6698.53,0.64930
6692.75,0.65431
6686.96,0.64997
6681.17,0.65363
6675.39,0.64875
6669.6,0.65724
6663.82,0.65554
6658.03,0.65254
6652.24,0.65948
6646.46,0.65529
6640.67,0.65323
6634.88,0.65658
6629.1,0.66045
6623.31,0.65670
6617.53,0.65463
6611.74,0.65337
6605.95,0.65841
6600.17,0.65720
6594.38,0.66083
6588.59,0.66012
6582.81,0.65651
6577.02,0.65919
6571.24,0.65881
6565.45,0.65815
6559.66,0.65724
6553.88,0.65554
6548.09,0.66559
6542.3,0.65942
6536.52,0.66028
6530.73,0.65638
6524.95,0.65783
6519.16,0.65451
6513.37,0.65983
6507.59,0.65643
6501.8,0.66031
6496.01,0.66323
6490.23,0.65973
6484.44,0.65638
6478.66,0.65996
6472.87,0.66197
6467.08,0.65959
6461.3,0.65098
6455.51,0.65896
6449.72,0.65916
6443.94,0.65875
6438.15,0.65937
6432.37,0.65537
6426.58,0.66000
6420.79,0.65869
6415.01,0.65959
6409.22,0.65810
6403.43,0.65540
6397.65,0.65597
6391.86,0.65335
6386.08,0.65601
6380.29,0.65446
6374.5,0.65057
6368.72,0.64979
6362.93,0.65022
6357.14,0.64951
6351.36,0.64685
6345.57,0.65037
6339.79,0.64431
6334,0.64676
6328.21,0.64688
6322.43,0.64523
6316.64,0.64687
6310.85,0.64979
6305.07,0.64460
6299.28,0.64262
6293.5,0.64003
6287.71,0.63981
6281.92,0.64193
6276.14,0.64625
6270.35,0.63943
6264.56,0.63516
6258.78,0.63372
6252.99,0.62922
6247.21,0.62763
6241.42,0.62876
6235.63,0.62385
6229.85,0.62651
6224.06,0.62095
6218.27,0.61792
6212.49,0.61455
6206.7,0.61270
6200.92,0.61053
6195.13,0.60215
6189.34,0.59881
6183.56,0.59353
6177.77,0.58776
6171.98,0.57408
6166.2,0.56398
6160.41,0.55491
6154.63,0.53917
6148.84,0.52302
6143.05,0.51174
6137.27,0.50007
6131.48,0.48493
6125.7,0.47383
6119.91,0.45808
6114.12,0.44936
6108.34,0.44381
6102.55,0.44588
6096.76,0.45652
6090.98,0.46458
6085.19,0.46846
6079.41,0.46906
6073.62,0.46845
6067.83,0.47306
6062.05,0.47899
6056.26,0.47648
6050.47,0.46832
6044.69,0.45726
6038.9,0.43976
6033.12,0.42310
6027.33,0.39966
6021.54,0.37920
6015.76,0.36358
6009.97,0.34231
6004.18,0.32923
5998.4,0.31639
5992.61,0.30531
5986.83,0.29414
5981.04,0.28067
5975.25,0.27105
5969.47,0.26624
5963.68,0.26616
5957.89,0.26351
5952.11,0.26889
5946.32,0.26869
5940.54,0.27566
5934.75,0.28174
5928.96,0.28105
5923.18,0.28333
5917.39,0.28276
5911.6,0.28393
5905.82,0.28589
5900.03,0.28621
5894.25,0.28764
5888.46,0.29013
5882.67,0.29511
5876.89,0.29855
5871.1,0.29689
5865.31,0.29793
5859.53,0.29529
5853.74,0.29603
5847.96,0.30091
5842.17,0.29803
5836.38,0.29811
5830.6,0.29644
5824.81,0.29525
5819.02,0.29644
5813.24,0.29571
5807.45,0.29672
5801.67,0.29507
5795.88,0.29827
5790.09,0.29981
5784.31,0.30514
5778.52,0.31148
5772.73,0.31692
5766.95,0.32653
5761.16,0.33578
5755.38,0.33922
5749.59,0.34489
5743.8,0.34243
5738.02,0.34045
5732.23,0.33497
5726.44,0.32584
5720.66,0.32017
5714.87,0.31270
5709.09,0.30697
5703.3,0.30514
5697.51,0.30363
5691.73,0.30576
5685.94,0.30420
5680.15,0.30603
5674.37,0.30432
5668.58,0.30893
5662.8,0.31314
5657.01,0.31457
5651.22,0.32020
5645.44,0.32230
5639.65,0.32862
5633.87,0.33500
5628.08,0.34041
5622.29,0.34408
5616.51,0.34444
5610.72,0.34557
5604.93,0.34634
5599.15,0.34620
5593.36,0.34909
5587.58,0.35100
5581.79,0.35523
5576,0.35931
5570.22,0.36234
5564.43,0.36332
5558.64,0.36527
5552.86,0.36565
5547.07,0.36565
5541.29,0.36750
5535.5,0.36808
5529.71,0.36941
5523.93,0.36917
5518.14,0.37158
5512.35,0.37182
5506.57,0.36972
5500.78,0.37234
5495,0.37318
5489.21,0.37507
5483.42,0.37699
5477.64,0.37565
5471.85,0.37818
5466.06,0.37809
5460.28,0.37932
5454.49,0.37787
5448.71,0.37807
5442.92,0.37833
5437.13,0.37602
5431.35,0.37520
5425.56,0.37695
5419.77,0.37638
5413.99,0.37761
5408.2,0.37598
5402.42,0.37585
5396.63,0.37532
5390.84,0.37408
5385.06,0.37356
5379.27,0.37469
5373.48,0.37513
5367.7,0.37577
5361.91,0.37770
5356.13,0.37929
5350.34,0.38300
5344.55,0.38451
5338.77,0.38650
5332.98,0.38571
5327.19,0.38761
5321.41,0.38723
5315.62,0.38695
5309.84,0.38644
5304.05,0.38486
5298.26,0.38323
5292.48,0.38140
5286.69,0.37625
5280.9,0.37076
5275.12,0.36368
5269.33,0.35518
5263.55,0.34816
5257.76,0.34367
5251.97,0.34099
5246.19,0.34131
5240.4,0.34154
5234.61,0.34578
5228.83,0.35157
5223.04,0.35762
5217.26,0.36410
5211.47,0.36796
5205.68,0.37217
5199.9,0.37392
5194.11,0.37296
5188.32,0.37345
5182.54,0.37134
5176.75,0.36972
5170.97,0.36730
5165.18,0.36515
5159.39,0.36328
5153.61,0.35937
5147.82,0.35482
5142.03,0.35388
5136.25,0.35587
5130.46,0.36254
5124.68,0.36818
5118.89,0.37376
5113.1,0.37883
5107.32,0.38192
5101.53,0.38297
5095.75,0.38455
5089.96,0.38540
5084.17,0.38659
5078.39,0.38618
5072.6,0.38694
5066.81,0.38847
5061.03,0.38826
5055.24,0.38773
5049.46,0.38860
5043.67,0.38775
5037.88,0.38913
5032.1,0.38785
5026.31,0.38853
5020.52,0.38899
5014.74,0.38878
5008.95,0.38852
5003.17,0.38812
4997.38,0.38632
4991.59,0.38578
4985.81,0.38292
4980.02,0.38358
4974.23,0.38157
4968.45,0.37854
4962.66,0.37759
4956.88,0.37718
4951.09,0.37639
4945.3,0.37614
4939.52,0.37677
4933.73,0.37616
4927.94,0.37631
4922.16,0.37749
4916.37,0.37682
4910.59,0.37622
4904.8,0.37527
4899.01,0.37383
4893.23,0.37091
4887.44,0.36722
4881.65,0.36367
4875.87,0.36259
4870.08,0.36368
4864.3,0.36551
4858.51,0.36647
4852.72,0.36669
4846.94,0.36736
4841.15,0.36726
4835.36,0.36669
4829.58,0.36719
4823.79,0.36715
4818.01,0.36685
4812.22,0.36674
4806.43,0.36704
4800.65,0.36494
4794.86,0.36201
4789.07,0.36000
4783.29,0.35569
4777.5,0.35132
4771.72,0.34663
4765.93,0.34096
4760.14,0.33802
4754.36,0.33662
4748.57,0.33278
4742.78,0.32655
4737,0.31822
4731.21,0.30591
4725.43,0.28997
4719.64,0.27346
4713.85,0.26468
4708.07,0.26432
4702.28,0.26429
4696.49,0.25755
4690.71,0.24572
4684.92,0.22550
4679.14,0.19744
4673.35,0.17606
4667.56,0.16652
4661.78,0.16934
4655.99,0.18147
4650.2,0.19141
4644.42,0.19228
4638.63,0.18540
4632.85,0.17564
4627.06,0.16975
4621.27,0.17057
4615.49,0.16960
4609.7,0.16614
4603.92,0.16894
4598.13,0.18238
4592.34,0.19448
4586.56,0.19926
4580.77,0.18899
4574.98,0.18070
4569.2,0.18921
4563.41,0.20535
4557.63,0.21708
4551.84,0.22834
4546.05,0.23452
4540.27,0.23585
4534.48,0.23469
4528.69,0.23484
4522.91,0.23421
4517.12,0.23186
4511.34,0.22969
4505.55,0.22725
4499.76,0.22734
4493.98,0.22328
4488.19,0.21327
4482.4,0.20370
4476.62,0.20115
4470.83,0.20893
4465.05,0.21567
4459.26,0.21356
4453.47,0.20803
4447.69,0.20262
4441.9,0.19914
4436.11,0.19704
4430.33,0.19442
4424.54,0.18833
4418.76,0.18222
4412.97,0.17432
4407.18,0.16590
4401.4,0.15816
4395.61,0.15200
4389.82,0.14556
4384.04,0.13922
4378.25,0.13284
4372.47,0.12779
4366.68,0.12352
4360.89,0.11989
4355.11,0.11802
4349.32,0.11532
4343.53,0.11455
4337.75,0.11372
4331.96,0.11355
4326.18,0.11462
4320.39,0.11708
4314.6,0.11760
4308.82,0.11852
4303.03,0.11819
4297.24,0.11639
4291.46,0.11496
4285.67,0.11306
4279.89,0.11004
4274.1,0.10972
4268.31,0.10784
4262.53,0.10532
4256.74,0.10333
4250.95,0.10238
4245.17,0.10280
4239.38,0.10382
4233.6,0.10421
4227.81,0.10534
4222.02,0.10530
4216.24,0.10541
4210.45,0.10626
4204.66,0.10670
4198.88,0.10796
4193.09,0.10990
4187.31,0.11042
4181.52,0.11262
4175.73,0.11344
4169.95,0.11567
4164.16,0.11684
4158.37,0.11661
4152.59,0.11643
4146.8,0.11680
4141.02,0.11609
4135.23,0.11620
4129.44,0.11515
4123.66,0.11347
4117.87,0.11313
4112.09,0.11181
4106.3,0.11094
4100.51,0.11052
4094.73,0.10868
4088.94,0.10646
4083.15,0.10297
4077.37,0.09936
4071.58,0.09443
4065.8,0.09198
4060.01,0.08991
4054.22,0.08886
4048.44,0.08854
4042.65,0.08896
4036.86,0.08949
4031.08,0.09255
4025.29,0.09583
4019.51,0.10201
4013.72,0.10758
4007.93,0.11078
4002.15,0.11065
3996.36,0.11339
3990.57,0.11520
3984.79,0.11537
3979,0.11615
3973.22,0.11630
3967.43,0.11782
3961.64,0.11752
3955.86,0.11780
3950.07,0.11796
3944.28,0.11798
3938.5,0.11725
3932.71,0.11742
3926.93,0.11757
3921.14,0.11792
3915.35,0.11857
3909.57,0.11828
3903.78,0.12052
3897.99,0.11957
3892.21,0.12070
3886.42,0.12153
3880.64,0.12175
3874.85,0.12271
3869.06,0.12377
3863.28,0.12440
3857.49,0.12354
3851.7,0.12269
3845.92,0.12137
3840.13,0.12112
3834.35,0.12002
3828.56,0.11903
3822.77,0.11886
3816.99,0.11875
3811.2,0.11849
3805.41,0.11859
3799.63,0.11903
3793.84,0.12025
3788.06,0.12102
3782.27,0.12179
3776.48,0.12222
3770.7,0.12137
3764.91,0.12145
3759.12,0.12279
3753.34,0.12405
3747.55,0.12380
3741.77,0.12258
3735.98,0.12236
3730.19,0.11864
3724.41,0.11532
3718.62,0.11580
3712.83,0.11634
3707.05,0.11233
3701.26,0.10926
3695.48,0.10656
3689.69,0.10313
3683.9,0.09620
3678.12,0.09172
3672.33,0.08776
3666.54,0.08393
3660.76,0.08213
3654.97,0.08060
3649.19,0.07995
3643.4,0.07979
3637.61,0.08096
3631.83,0.08157
3626.04,0.08142
3620.25,0.08216
3614.47,0.08376
3608.68,0.08485
3602.9,0.08547
3597.11,0.08567
3591.32,0.08536
3585.54,0.08405
3579.75,0.08407
3573.97,0.08253
3568.18,0.08187
3562.39,0.07933
3556.61,0.07891
3550.82,0.07812
3545.03,0.07794
3539.25,0.07735
3533.46,0.07751
3527.68,0.07751
3521.89,0.07846
3516.1,0.07844
3510.32,0.07868
3504.53,0.08002
3498.74,0.08080
3492.96,0.08101
3487.17,0.08106
3481.39,0.08149
3475.6,0.08114
3469.81,0.08074
3464.03,0.08205
3458.24,0.08134
3452.45,0.08118
3446.67,0.08185
3440.88,0.08099
3435.1,0.08171
3429.31,0.08146
3423.52,0.08174
3417.74,0.08191
3411.95,0.08199
3406.16,0.08185
3400.38,0.08082
3394.59,0.08130
3388.81,0.08192
3383.02,0.08128
3377.23,0.08155
3371.45,0.08206
3365.66,0.08200
3359.87,0.08180
3354.09,0.08170
3348.3,0.08140
3342.52,0.08095
3336.73,0.08034
3330.94,0.07984
3325.16,0.07931
3319.37,0.07673
3313.58,0.07305
3307.8,0.06914
3302.01,0.06494
3296.23,0.06507
3290.44,0.06873
3284.65,0.07154
3278.87,0.07430
3273.08,0.07554
3267.29,0.07665
3261.51,0.07732
3255.72,0.07819
3249.94,0.07828
3244.15,0.07786
3238.36,0.07785
3232.58,0.07741
3226.79,0.07686
3221,0.07719
3215.22,0.07662
3209.43,0.07657
3203.65,0.07583
3197.86,0.07585
3192.07,0.07579
3186.29,0.07593
3180.5,0.07541
3174.71,0.07558
3168.93,0.07441
3163.14,0.07352
3157.36,0.07396
3151.57,0.07465
3145.78,0.07417
3140,0.07427
3134.21,0.07312
3128.42,0.07173
3122.64,0.07031
3116.85,0.06829
3111.07,0.06517
3105.28,0.06355
3099.49,0.06362
3093.71,0.06279
3087.92,0.06103
3082.14,0.06065
3076.35,0.06022
3070.56,0.06026
3064.78,0.05985
3058.99,0.05996
3053.2,0.06099
3047.42,0.06158
3041.63,0.06046
3035.85,0.05893
3030.06,0.05985
3024.27,0.06011
3018.49,0.06019
3012.7,0.06042
3006.91,0.05975
3001.13,0.05989
2995.34,0.05996
2989.56,0.06003
2983.77,0.05968
2977.98,0.05944
2972.2,0.05869
2966.41,0.05937
2960.62,0.05854
2954.84,0.05820
2949.05,0.05874
2943.27,0.05891
2937.48,0.05912
2931.69,0.06038
2925.91,0.06196
2920.12,0.06243
2914.33,0.06283
2908.55,0.06237
2902.76,0.06195
2896.98,0.06173
2891.19,0.06163
2885.4,0.06169
2879.62,0.06217
2873.83,0.06159
2868.04,0.06198
2862.26,0.06159
2856.47,0.06219
2850.69,0.06341
2844.9,0.06269
2839.11,0.06200
2833.33,0.06268
2827.54,0.06281
2821.75,0.06362
2815.97,0.06425
2810.18,0.06525
2804.4,0.06619
2798.61,0.06624
2792.82,0.06628
2787.04,0.06691
2781.25,0.06688
2775.46,0.06777
2769.68,0.06840
2763.89,0.06899
2758.11,0.06958
2752.32,0.06980
2746.53,0.06994
2740.75,0.06946
2734.96,0.06937
2729.17,0.06947
2723.39,0.06994
2717.6,0.06948
2711.82,0.06937
2706.03,0.06951
2700.24,0.06936
2694.46,0.06901
2688.67,0.06929
2682.88,0.06946
2677.1,0.06836
2671.31,0.06830
2665.53,0.06846
2659.74,0.06914
2653.95,0.06890
2648.17,0.06877
2642.38,0.06882
2636.59,0.06827
2630.81,0.06836
2625.02,0.06927
2619.24,0.06968
2613.45,0.06918
2607.66,0.06906
2601.88,0.06908
2596.09,0.06970
2590.3,0.06983
2584.52,0.06965
2578.73,0.07021
2572.95,0.07026
2567.16,0.07004
2561.37,0.06979
2555.59,0.06975
2549.8,0.06961
2544.02,0.06963
2538.23,0.06977
2532.44,0.06996
2526.66,0.06893
2520.87,0.06882
2515.08,0.06904
2509.3,0.06906
2503.51,0.06967
2497.73,0.06981
2491.94,0.07027
2486.15,0.07055
2480.37,0.07069
2474.58,0.07099
2468.79,0.07100
2463.01,0.07120
2457.22,0.07062
2451.44,0.07094
2445.65,0.07106
2439.86,0.07083
2434.08,0.07061
2428.29,0.07052
2422.5,0.07020
2416.72,0.07003
2410.93,0.06992
2405.15,0.06970
2399.36,0.06939
2393.57,0.06875
2387.79,0.06897
2382,0.06903
2376.21,0.06927
2370.43,0.06926
2364.64,0.07013
2358.86,0.06996
2353.07,0.06864
2347.28,0.06753
2341.5,0.06755
2335.71,0.06750
2329.92,0.06866
2324.14,0.06831
2318.35,0.06742
2312.57,0.06686
2306.78,0.06751
2300.99,0.06777
2295.21,0.06745
2289.42,0.06764
2283.63,0.06724
2277.85,0.06718
2272.06,0.06650
2266.28,0.06568
2260.49,0.06490
2254.7,0.06331
2248.92,0.06170
2243.13,0.06037
2237.34,0.06041
2231.56,0.06172
2225.77,0.06365
2219.99,0.06595
2214.2,0.06692
2208.41,0.06792
2202.63,0.06833
2196.84,0.06812
2191.05,0.06744
2185.27,0.06722
2179.48,0.06810
2173.7,0.06956
2167.91,0.07003
2162.12,0.06985
2156.34,0.06976
2150.55,0.07021
2144.76,0.06985
2138.98,0.07022
2133.19,0.07045
2127.41,0.06959
2121.62,0.06962
2115.83,0.06996
2110.05,0.06980
2104.26,0.06972
2098.47,0.06964
2092.69,0.06894
2086.9,0.06945
2081.12,0.06897
2075.33,0.06875
2069.54,0.06850
2063.76,0.06812
2057.97,0.06824
2052.19,0.06812
2046.4,0.06788
2040.61,0.06758
2034.83,0.06701
2029.04,0.06660
2023.25,0.06652
2017.47,0.06593
2011.68,0.06574
2005.9,0.06536
2000.11,0.06432
1994.32,0.06347
1988.54,0.06263
1982.75,0.06206
1976.96,0.06211
1971.18,0.06131
1965.39,0.06110
1959.61,0.06108
1953.82,0.06096
1948.03,0.06110
1942.25,0.06143
1936.46,0.06185
1930.67,0.06228
1924.89,0.06294
1919.1,0.06272
1913.32,0.06263
1907.53,0.06179
1901.74,0.06115
1895.96,0.06107
1890.17,0.06089
1884.38,0.06076
1878.6,0.06060
1872.81,0.06091
1867.03,0.06156
1861.24,0.06154
1855.45,0.06168
1849.67,0.06201
1843.88,0.06158
1838.09,0.06085
1832.31,0.06084
1826.52,0.06025
1820.74,0.05990
1814.95,0.05984
1809.16,0.05996
1803.38,0.06030
1797.59,0.06023
1791.8,0.06069
1786.02,0.06037
1780.23,0.06053
1774.45,0.06063
1768.66,0.05994
1762.87,0.05988
1757.09,0.05977
1751.3,0.05989
1745.51,0.05972
1739.73,0.05979
1733.94,0.06053
1728.16,0.06059
1722.37,0.06092
1716.58,0.06199
1710.8,0.06117
1705.01,0.06162
1699.22,0.06168
1693.44,0.06043
1687.65,0.06068
1681.87,0.06072
1676.08,0.06040
1670.29,0.06098
1664.51,0.06066
1658.72,0.06035
1652.93,0.06166
1647.15,0.06074
1641.36,0.05978
1635.58,0.06112
1629.79,0.06054
1624,0.06092
1618.22,0.06062
1612.43,0.05940
1606.64,0.05910
1600.86,0.05999
1595.07,0.06059
1589.29,0.06012
1583.5,0.06014
1577.71,0.06061
1571.93,0.05997
1566.14,0.05953
1560.35,0.06035
1554.57,0.05967
1548.78,0.05937
1543,0.06046
1537.21,0.05969
1531.42,0.05940
1525.64,0.05972
1519.85,0.05935
1514.07,0.05878
1508.28,0.05870
1502.49,0.05675
1496.71,0.05651
1490.92,0.06087
1485.13,0.05961
1479.35,0.05879
1473.56,0.05839
1467.78,0.05742
1461.99,0.05625
1456.2,0.05622
1450.42,0.06092
1444.63,0.06201
1438.84,0.06183
1433.06,0.06197
1427.27,0.06122
1421.49,0.06106
1415.7,0.06127
1409.91,0.06068
1404.13,0.06048
1398.34,0.06053
1392.55,0.06034
1386.77,0.06037
1380.98,0.05928
1375.2,0.05998
1369.41,0.06012
1363.62,0.06007
1357.84,0.06013
1352.05,0.06031
1346.26,0.06025
1340.48,0.06008
1334.69,0.05993
1328.91,0.05994
1323.12,0.05973
1317.33,0.06027
1311.55,0.06022
1305.76,0.06017
1299.97,0.06014
1294.19,0.06023
1288.4,0.06007
1282.62,0.06072
1276.83,0.06058
1271.04,0.06039
1265.26,0.06024
1259.47,0.06022
1253.68,0.06039
1247.9,0.06063
1242.11,0.06073
1236.33,0.06028
1230.54,0.05999
1224.75,0.05991
1218.97,0.06051
1213.18,0.06000
1207.39,0.06008
1201.61,0.06020
1195.82,0.06001
1190.04,0.06062
1184.25,0.06078
1178.46,0.06057
1172.68,0.06048
1166.89,0.06053
1161.1,0.06036
1155.32,0.05998
1149.53,0.06072
1143.75,0.06073
1137.96,0.05993
1132.17,0.06037
1126.39,0.05983
1120.6,0.06013
1114.81,0.06042
1109.03,0.05954
1103.24,0.05944
1097.46,0.05954
1091.67,0.05924
1085.88,0.06001
1080.1,0.05916
1074.31,0.05969
1068.52,0.05956
1062.74,0.06007
1056.95,0.06028
1051.17,0.05990
1045.38,0.06023
1039.59,0.06039
1033.81,0.06012
1028.02,0.06021
1022.24,0.06096
1016.45,0.06087
1010.66,0.06067
1004.88,0.05986
999.09,0.05974
993.304,0.05955
987.518,0.05883
981.731,0.05843
975.945,0.05697
970.159,0.05693
964.373,0.05916
958.586,0.06154
952.8,0.06187
947.014,0.06152
941.228,0.06113
935.441,0.06009
929.655,0.06025
923.869,0.05889
918.083,0.05840
912.297,0.05874
906.51,0.06058
900.724,0.06014
894.938,0.06026
889.152,0.05942
883.365,0.05954
877.579,0.06000
871.793,0.05835
866.007,0.05839
860.22,0.05820
854.434,0.05868
848.648,0.05738
842.862,0.05761
837.075,0.05833
831.289,0.05744
825.503,0.05694
819.717,0.05644
813.931,0.05658
808.144,0.05604
802.358,0.05491
796.572,0.05433
790.786,0.05415
784.999,0.05281
779.213,0.05130
773.427,0.05078
767.641,0.05154
761.854,0.05609
756.068,0.05947
750.282,0.05950
744.496,0.05832
738.709,0.05729
732.923,0.05605
727.137,0.05496
721.351,0.05166
715.565,0.04862
709.778,0.04426
703.992,0.05759
698.206,0.08232
692.42,0.07484
686.633,0.06817
680.847,0.06622
675.061,0.06318
669.275,0.06309
663.488,0.06048
657.702,0.06284
651.916,0.06118
646.13,0.06285
640.343,0.06098
634.557,0.06089
628.771,0.06116
622.985,0.05961
617.198,0.05830
611.412,0.05696
605.626,0.06027
599.84,0.06050