File: 01_Data/PlasticA/FTIR/IS/PlasticA_IS_S_220906_R8.dpt
7497.03,0.72094
7491.25,0.71951
7485.46,0.70678
7479.67,0.70247
7473.89,0.70832
7468.1,0.70943
7462.32,0.70134
7456.53,0.70991
7450.74,0.70120
7444.96,0.70319
7439.17,0.70100
7433.38,0.70183
7427.6,0.69359
7421.81,0.69444
7416.03,0.70206
7410.24,0.68748
7404.45,0.69131
7398.67,0.69999
7392.88,0.69589
7387.09,0.70176
7381.31,0.69087
7375.52,0.69991
7369.74,0.69023
7363.95,0.69355
7358.16,0.68899
7352.38,0.69380
7346.59,0.69205
7340.8,0.68878
7335.02,0.67948
7329.23,0.67707
7323.45,0.68241
7317.66,0.68572
7311.87,0.67115
7306.09,0.67093
7300.3,0.67102
7294.51,0.66747
7288.73,0.66229
7282.94,0.66174
7277.16,0.65197
7271.37,0.65030
7265.58,0.64382
7259.8,0.65185
7254.01,0.64998
7248.22,0.64160
7242.44,0.64584
7236.65,0.64527
7230.87,0.63660
7225.08,0.63570
7219.29,0.63172
7213.51,0.63150
7207.72,0.63200
7201.93,0.62944
7196.15,0.62654
7190.36,0.62704
7184.58,0.61596
7178.79,0.62411
7173,0.62157
7167.22,0.63432
7161.43,0.62352
7155.65,0.61553
7149.86,0.61821
7144.07,0.61605
7138.29,0.61512
7132.5,0.61647
7126.71,0.60181
7120.93,0.60844
7115.14,0.60998
7109.36,0.60259
7103.57,0.60419
7097.78,0.60208
7092,0.60775
7086.21,0.60097
7080.42,0.59510
7074.64,0.60057
7068.85,0.59465
7063.07,0.59628
7057.28,0.59677
7051.49,0.59666
7045.71,0.60470
7039.92,0.59403
7034.13,0.59719
7028.35,0.60280
7022.56,0.60189
7016.78,0.60952
7010.99,0.61015
7005.2,0.60883
6999.42,0.60992
6993.63,0.61108
6987.84,0.61159
6982.06,0.60832
6976.27,0.61250
6970.49,0.62135
6964.7,0.61875
6958.91,0.62397
6953.13,0.61485
6947.34,0.62292
6941.55,0.62387
6935.77,0.61773
6929.98,0.62405
6924.2,0.62547
6918.41,0.62846
6912.62,0.62745
6906.84,0.62873
6901.05,0.62808
6895.26,0.63056
6889.48,0.63106
6883.69,0.63243
6877.91,0.63261
6872.12,0.63858
6866.33,0.63322
6860.55,0.63301
6854.76,0.63646
6848.97,0.63891
6843.19,0.63354
6837.4,0.63457
6831.62,0.63903
6825.83,0.64096
6820.04,0.64075
6814.26,0.64161
6808.47,0.63749
6802.68,0.63962
6796.9,0.64190
6791.11,0.64385
6785.33,0.64682
6779.54,0.64798
6773.75,0.64505
6767.97,0.64457
6762.18,0.64363
6756.39,0.64218
6750.61,0.65011
6744.82,0.64208
6739.04,0.64470
6733.25,0.64135
6727.46,0.64586
6721.68,0.64303
6715.89,0.65356
6710.1,0.64876
6704.32,0.64901
6698.53,0.65238
6692.75,0.65348
6686.96,0.64823
6681.17,0.65447
6675.39,0.65233
6669.6,0.65726
6663.82,0.65812
6658.03,0.65032
6652.24,0.65739
6646.46,0.65622
6640.67,0.65653
6634.88,0.65623
6629.1,0.65480
6623.31,0.65750
6617.53,0.65051
6611.74,0.65726
6605.95,0.65325
6600.17,0.65651
6594.38,0.65715
6588.59,0.65522
6582.81,0.65738
6577.02,0.65860
6571.24,0.66176
6565.45,0.65670
6559.66,0.65690
6553.88,0.66084
6548.09,0.66047
6542.3,0.66113
6536.52,0.65742
6530.73,0.65568
6524.95,0.65567
6519.16,0.65937
6513.37,0.65538
6507.59,0.65552
6501.8,0.65931
6496.01,0.65868
6490.23,0.65943
6484.44,0.66162
6478.66,0.65744
6472.87,0.65919
6467.08,0.65622
6461.3,0.66009
6455.51,0.65943
6449.72,0.66271
6443.94,0.65677
6438.15,0.65915
6432.37,0.65902
6426.58,0.65879
6420.79,0.65858
6415.01,0.65655
6409.22,0.65811
6403.43,0.65501
6397.65,0.65718
6391.86,0.65618
6386.08,0.65477
6380.29,0.65259
6374.5,0.65073
6368.72,0.64634
6362.93,0.64894
6357.14,0.64796
6351.36,0.64551
6345.57,0.64379
6339.79,0.64440
6334,0.64627
6328.21,0.64403
6322.43,0.64566
6316.64,0.64381
6310.85,0.64360
6305.07,0.64573
6299.28,0.64296
6293.5,0.64314
6287.71,0.63884
6281.92,0.63834
6276.14,0.63598
6270.35,0.63456
6264.56,0.63487
6258.78,0.63083
6252.99,0.63281
6247.21,0.63032
6241.42,0.62873
6235.63,0.62221
6229.85,0.61880
6224.06,0.61790
6218.27,0.61393
6212.49,0.61368
6206.7,0.61067
6200.92,0.61022
6195.13,0.60164
6189.34,0.59814
6183.56,0.58881
6177.77,0.58580
6171.98,0.57285
6166.2,0.56627
6160.41,0.55090
6154.63,0.53713
6148.84,0.52202
6143.05,0.51096
6137.27,0.50006
6131.48,0.48226
6125.7,0.46776
6119.91,0.45803
6114.12,0.44608
6108.34,0.44194
6102.55,0.44394
6096.76,0.45228
6090.98,0.46346
6085.19,0.46456
6079.41,0.46410
6073.62,0.46632
6067.83,0.47433
6062.05,0.47694
6056.26,0.47703
6050.47,0.47313
6044.69,0.45602
6038.9,0.43948
6033.12,0.42162
6027.33,0.40036
6021.54,0.37899
6015.76,0.35709
6009.97,0.34284
6004.18,0.32516
5998.4,0.31673
5992.61,0.30430
5986.83,0.29145
5981.04,0.27857
5975.25,0.27494
5969.47,0.26783
5963.68,0.26703
5957.89,0.26746
5952.11,0.26601
5946.32,0.26548
5940.54,0.27267
5934.75,0.28012
5928.96,0.28117
5923.18,0.28327
5917.39,0.27940
5911.6,0.28123
5905.82,0.28265
5900.03,0.28447
5894.25,0.28645
5888.46,0.28744
5882.67,0.29280
5876.89,0.29609
5871.1,0.29828
5865.31,0.29793
5859.53,0.29702
5853.74,0.29672
5847.96,0.29729
5842.17,0.29530
5836.38,0.29532
5830.6,0.29705
5824.81,0.29599
5819.02,0.29588
5813.24,0.29248
5807.45,0.29413
5801.67,0.29470
5795.88,0.29582
5790.09,0.29827
5784.31,0.30508
5778.52,0.30876
5772.73,0.31939
5766.95,0.32797
5761.16,0.33404
5755.38,0.34044
5749.59,0.34173
5743.8,0.34215
5738.02,0.33864
5732.23,0.33328
5726.44,0.32596
5720.66,0.31806
5714.87,0.30905
5709.09,0.30367
5703.3,0.30138
5697.51,0.30206
5691.73,0.30200
5685.94,0.30460
5680.15,0.30566
5674.37,0.30675
5668.58,0.30883
5662.8,0.31258
5657.01,0.31521
5651.22,0.32038
5645.44,0.32461
5639.65,0.33039
5633.87,0.33696
5628.08,0.33869
5622.29,0.34116
5616.51,0.34422
5610.72,0.34327
5604.93,0.34633
5599.15,0.34874
5593.36,0.34663
5587.58,0.35193
5581.79,0.35733
5576,0.35936
5570.22,0.36243
5564.43,0.36212
5558.64,0.36505
5552.86,0.36561
5547.07,0.36708
5541.29,0.36674
5535.5,0.36643
5529.71,0.36849
5523.93,0.36874
5518.14,0.36876
5512.35,0.37029
5506.57,0.36839
5500.78,0.37245
5495,0.37460
5489.21,0.37550
5483.42,0.37759
5477.64,0.37593
5471.85,0.37828
5466.06,0.37769
5460.28,0.37631
5454.49,0.37728
5448.71,0.37706
5442.92,0.37886
5437.13,0.37655
5431.35,0.37545
5425.56,0.37558
5419.77,0.37314
5413.99,0.37801
5408.2,0.37564
5402.42,0.37567
5396.63,0.37494
5390.84,0.37306
5385.06,0.37529
5379.27,0.37409
5373.48,0.37515
5367.7,0.37554
5361.91,0.37604
5356.13,0.37969
5350.34,0.38204
5344.55,0.38468
5338.77,0.38397
5332.98,0.38390
5327.19,0.38618
5321.41,0.38787
5315.62,0.38719
5309.84,0.38710
5304.05,0.38725
5298.26,0.38471
5292.48,0.38171
5286.69,0.37861
5280.9,0.37471
5275.12,0.36630
5269.33,0.35947
5263.55,0.35431
5257.76,0.34801
5251.97,0.34622
5246.19,0.34650
5240.4,0.34704
5234.61,0.35035
5228.83,0.35742
5223.04,0.36188
5217.26,0.36428
5211.47,0.37119
5205.68,0.37233
5199.9,0.37428
5194.11,0.37572
5188.32,0.37449
5182.54,0.37304
5176.75,0.37255
5170.97,0.37029
5165.18,0.36530
5159.39,0.36218
5153.61,0.35946
5147.82,0.35642
5142.03,0.35309
5136.25,0.35575
5130.46,0.36308
5124.68,0.36904
5118.89,0.37436
5113.1,0.37902
5107.32,0.38218
5101.53,0.38448
5095.75,0.38374
5089.96,0.38697
5084.17,0.38638
5078.39,0.38774
5072.6,0.38781
5066.81,0.38803
5061.03,0.38799
5055.24,0.38836
5049.46,0.38751
5043.67,0.38806
5037.88,0.38797
5032.1,0.38859
5026.31,0.39025
5020.52,0.39033
5014.74,0.38894
5008.95,0.38848
5003.17,0.38734
4997.38,0.38473
4991.59,0.38566
4985.81,0.38309
4980.02,0.38207
4974.23,0.38059
4968.45,0.37830
4962.66,0.37631
4956.88,0.37660
4951.09,0.37628
4945.3,0.37590
4939.52,0.37521
4933.73,0.37612
4927.94,0.37627
4922.16,0.37749
4916.37,0.37570
4910.59,0.37580
4904.8,0.37536
4899.01,0.37397
4893.23,0.37109
4887.44,0.36864
4881.65,0.36478
4875.87,0.36245
4870.08,0.36280
4864.3,0.36409
4858.51,0.36561
4852.72,0.36622
4846.94,0.36702
4841.15,0.36638
4835.36,0.36560
4829.58,0.36762
4823.79,0.36747
4818.01,0.36683
4812.22,0.36715
4806.43,0.36503
4800.65,0.36403
4794.86,0.36145
4789.07,0.35850
4783.29,0.35522
4777.5,0.35131
4771.72,0.34636
4765.93,0.34130
4760.14,0.33848
4754.36,0.33669
4748.57,0.33268
4742.78,0.32652
4737,0.31768
4731.21,0.30583
4725.43,0.28899
4719.64,0.27314
4713.85,0.26441
4708.07,0.26387
4702.28,0.26246
4696.49,0.25646
4690.71,0.24548
4684.92,0.22358
4679.14,0.19749
4673.35,0.17533
4667.56,0.16733
4661.78,0.17015
4655.99,0.18039
4650.2,0.19047
4644.42,0.19179
4638.63,0.18409
4632.85,0.17498
4627.06,0.16927
4621.27,0.16984
4615.49,0.16933
4609.7,0.16561
4603.92,0.16945
4598.13,0.18181
4592.34,0.19456
4586.56,0.19867
4580.77,0.18902
4574.98,0.18005
4569.2,0.18787
4563.41,0.20563
4557.63,0.21767
4551.84,0.22830
4546.05,0.23438
4540.27,0.23572
4534.48,0.23526
4528.69,0.23579
4522.91,0.23470
4517.12,0.23178
4511.34,0.22950
4505.55,0.22839
4499.76,0.22727
4493.98,0.22281
4488.19,0.21370
4482.4,0.20385
4476.62,0.20119
4470.83,0.20859
4465.05,0.21502
4459.26,0.21381
4453.47,0.20751
4447.69,0.20170
4441.9,0.19943
4436.11,0.19751
4430.33,0.19469
4424.54,0.18889
4418.76,0.18113
4412.97,0.17426
4407.18,0.16581
4401.4,0.15893
4395.61,0.15181
4389.82,0.14525
4384.04,0.13803
4378.25,0.13248
4372.47,0.12787
4366.68,0.12350
4360.89,0.11940
4355.11,0.11751
4349.32,0.11493
4343.53,0.11370
4337.75,0.11379
4331.96,0.11369
4326.18,0.11441
4320.39,0.11591
4314.6,0.11836
4308.82,0.11925
4303.03,0.11768
4297.24,0.11644
4291.46,0.11442
4285.67,0.11432
4279.89,0.11166
4274.1,0.10896
4268.31,0.10682
4262.53,0.10488
4256.74,0.10247
4250.95,0.10287
4245.17,0.10265
4239.38,0.10360
4233.6,0.10387
4227.81,0.10446
4222.02,0.10563
4216.24,0.10623
4210.45,0.10596
4204.66,0.10705
4198.88,0.10819
4193.09,0.11028
4187.31,0.11167
4181.52,0.11273
4175.73,0.11393
4169.95,0.11559
4164.16,0.11568
4158.37,0.11632
4152.59,0.11649
4146.8,0.11636
4141.02,0.11611
4135.23,0.11579
4129.44,0.11461
4123.66,0.11364
4117.87,0.11306
4112.09,0.11219
4106.3,0.11028
4100.51,0.10960
4094.73,0.10880
4088.94,0.10644
4083.15,0.10383
4077.37,0.09927
4071.58,0.09513
4065.8,0.09216
4060.01,0.09002
4054.22,0.08921
4048.44,0.08922
4042.65,0.08828
4036.86,0.08929
4031.08,0.09198
4025.29,0.09577
4019.51,0.10111
4013.72,0.10754
4007.93,0.10937
4002.15,0.11054
3996.36,0.11277
3990.57,0.11471
3984.79,0.11549
3979,0.11555
3973.22,0.11582
3967.43,0.11819
3961.64,0.11784
3955.86,0.11833
3950.07,0.11799
3944.28,0.11710
3938.5,0.11689
3932.71,0.11731
3926.93,0.11770
3921.14,0.11756
3915.35,0.11760
3909.57,0.11836
3903.78,0.11933
3897.99,0.11943
3892.21,0.12094
3886.42,0.12205
3880.64,0.12249
3874.85,0.12245
3869.06,0.12212
3863.28,0.12254
3857.49,0.12233
3851.7,0.12200
3845.92,0.12150
3840.13,0.12094
3834.35,0.11954
3828.56,0.11910
3822.77,0.11870
3816.99,0.11838
3811.2,0.11822
3805.41,0.11879
3799.63,0.11963
3793.84,0.12017
3788.06,0.12161
3782.27,0.12183
3776.48,0.12187
3770.7,0.12248
3764.91,0.12173
3759.12,0.12260
3753.34,0.12398
3747.55,0.12297
3741.77,0.12225
3735.98,0.12187
3730.19,0.11970
3724.41,0.11695
3718.62,0.11599
3712.83,0.11621
3707.05,0.11300
3701.26,0.10990
3695.48,0.10891
3689.69,0.10557
3683.9,0.09952
3678.12,0.09524
3672.33,0.09044
3666.54,0.08698
3660.76,0.08532
3654.97,0.08326
3649.19,0.08212
3643.4,0.08271
3637.61,0.08425
3631.83,0.08458
3626.04,0.08498
3620.25,0.08479
3614.47,0.08579
3608.68,0.08703
3602.9,0.08792
3597.11,0.08838
3591.32,0.08784
3585.54,0.08657
3579.75,0.08599
3573.97,0.08497
3568.18,0.08397
3562.39,0.08179
3556.61,0.08117
3550.82,0.08055
3545.03,0.08047
3539.25,0.07964
3533.46,0.07897
3527.68,0.08011
3521.89,0.08012
3516.1,0.08073
3510.32,0.08184
3504.53,0.08127
3498.74,0.08194
3492.96,0.08206
3487.17,0.08252
3481.39,0.08295
3475.6,0.08276
3469.81,0.08303
3464.03,0.08303
3458.24,0.08292
3452.45,0.08300
3446.67,0.08305
3440.88,0.08213
3435.1,0.08233
3429.31,0.08306
3423.52,0.08212
3417.74,0.08195
3411.95,0.08279
3406.16,0.08166
3400.38,0.08164
3394.59,0.08149
3388.81,0.08171
3383.02,0.08202
3377.23,0.08202
3371.45,0.08251
3365.66,0.08230
3359.87,0.08205
3354.09,0.08138
3348.3,0.08178
3342.52,0.08138
3336.73,0.08085
3330.94,0.08087
3325.16,0.07879
3319.37,0.07712
3313.58,0.07345
3307.8,0.06875
3302.01,0.06489
3296.23,0.06527
3290.44,0.06843
3284.65,0.07165
3278.87,0.07403
3273.08,0.07549
3267.29,0.07735
3261.51,0.07758
3255.72,0.07827
3249.94,0.07861
3244.15,0.07795
3238.36,0.07811
3232.58,0.07797
3226.79,0.07766
3221,0.07735
3215.22,0.07666
3209.43,0.07597
3203.65,0.07624
3197.86,0.07558
3192.07,0.07490
3186.29,0.07549
3180.5,0.07553
3174.71,0.07572
3168.93,0.07476
3163.14,0.07429
3157.36,0.07477
3151.57,0.07453
3145.78,0.07394
3140,0.07416
3134.21,0.07261
3128.42,0.07198
3122.64,0.07032
3116.85,0.06807
3111.07,0.06523
3105.28,0.06350
3099.49,0.06357
3093.71,0.06287
3087.92,0.06095
3082.14,0.06043
3076.35,0.06074
3070.56,0.06002
3064.78,0.05937
3058.99,0.05983
3053.2,0.06073
3047.42,0.06132
3041.63,0.06017
3035.85,0.05893
3030.06,0.05910
3024.27,0.05982
3018.49,0.06017
3012.7,0.05998
3006.91,0.05911
3001.13,0.05936
2995.34,0.06016
2989.56,0.05956
2983.77,0.05945
2977.98,0.05910
2972.2,0.05945
2966.41,0.05878
2960.62,0.05877
2954.84,0.05834
2949.05,0.05846
2943.27,0.05874
2937.48,0.05910
2931.69,0.05981
2925.91,0.06134
2920.12,0.06242
2914.33,0.06225
2908.55,0.06223
2902.76,0.06161
2896.98,0.06211
2891.19,0.06221
2885.4,0.06173
2879.62,0.06162
2873.83,0.06159
2868.04,0.06196
2862.26,0.06165
2856.47,0.06237
2850.69,0.06285
2844.9,0.06255
2839.11,0.06197
2833.33,0.06172
2827.54,0.06243
2821.75,0.06370
2815.97,0.06436
2810.18,0.06501
2804.4,0.06587
2798.61,0.06583
2792.82,0.06628
2787.04,0.06717
2781.25,0.06744
2775.46,0.06769
2769.68,0.06846
2763.89,0.06882
2758.11,0.06904
2752.32,0.06954
2746.53,0.06953
2740.75,0.06966
2734.96,0.06913
2729.17,0.06957
2723.39,0.06893
2717.6,0.06956
2711.82,0.06921
2706.03,0.06913
2700.24,0.06891
2694.46,0.06878
2688.67,0.06906
2682.88,0.06850
2677.1,0.06866
2671.31,0.06824
2665.53,0.06835
2659.74,0.06847
2653.95,0.06880
2648.17,0.06855
2642.38,0.06816
2636.59,0.06836
2630.81,0.06860
2625.02,0.06932
2619.24,0.06948
2613.45,0.06947
2607.66,0.06872
2601.88,0.06905
2596.09,0.06937
2590.3,0.07007
2584.52,0.06919
2578.73,0.06972
2572.95,0.06982
2567.16,0.06962
2561.37,0.06978
2555.59,0.06980
2549.8,0.06941
2544.02,0.06965
2538.23,0.06963
2532.44,0.06931
2526.66,0.06917
2520.87,0.06883
2515.08,0.06894
2509.3,0.06915
2503.51,0.06934
2497.73,0.06962
2491.94,0.06966
2486.15,0.06981
2480.37,0.07044
2474.58,0.07099
2468.79,0.07109
2463.01,0.07124
2457.22,0.07081
2451.44,0.07062
2445.65,0.07060
2439.86,0.07074
2434.08,0.07034
2428.29,0.07019
2422.5,0.07060
2416.72,0.07035
2410.93,0.06998
2405.15,0.06952
2399.36,0.06998
2393.57,0.06960
2387.79,0.06940
2382,0.06873
2376.21,0.06899
2370.43,0.06864
2364.64,0.06821
2358.86,0.06849
2353.07,0.06764
2347.28,0.06689
2341.5,0.06637
2335.71,0.06668
2329.92,0.06784
2324.14,0.06753
2318.35,0.06710
2312.57,0.06680
2306.78,0.06705
2300.99,0.06753
2295.21,0.06757
2289.42,0.06759
2283.63,0.06775
2277.85,0.06709
2272.06,0.06637
2266.28,0.06566
2260.49,0.06494
2254.7,0.06334
2248.92,0.06137
2243.13,0.06001
2237.34,0.06056
2231.56,0.06164
2225.77,0.06363
2219.99,0.06597
2214.2,0.06726
2208.41,0.06790
2202.63,0.06820
2196.84,0.06793
2191.05,0.06762
2185.27,0.06706
2179.48,0.06840
2173.7,0.06944
2167.91,0.06969
2162.12,0.07024
2156.34,0.07022
2150.55,0.06979
2144.76,0.06974
2138.98,0.06989
2133.19,0.06984
2127.41,0.06996
2121.62,0.06948
2115.83,0.06962
2110.05,0.06988
2104.26,0.06967
2098.47,0.06916
2092.69,0.06928
2086.9,0.06927
2081.12,0.06902
2075.33,0.06888
2069.54,0.06823
2063.76,0.06824
2057.97,0.06800
2052.19,0.06817
2046.4,0.06756
2040.61,0.06749
2034.83,0.06711
2029.04,0.06719
2023.25,0.06639
2017.47,0.06589
2011.68,0.06544
2005.9,0.06498
2000.11,0.06435
1994.32,0.06359
1988.54,0.06252
1982.75,0.06205
1976.96,0.06164
1971.18,0.06130
1965.39,0.06150
1959.61,0.06081
1953.82,0.06118
1948.03,0.06106
1942.25,0.06138
1936.46,0.06186
1930.67,0.06239
1924.89,0.06261
1919.1,0.06267
1913.32,0.06226
1907.53,0.06163
1901.74,0.06095
1895.96,0.06086
1890.17,0.06085
1884.38,0.06061
1878.6,0.06042
1872.81,0.06080
1867.03,0.06119
1861.24,0.06158
1855.45,0.06194
1849.67,0.06226
1843.88,0.06168
1838.09,0.06070
1832.31,0.06017
1826.52,0.05993
1820.74,0.05943
1814.95,0.05937
1809.16,0.05954
1803.38,0.05981
1797.59,0.06014
1791.8,0.06057
1786.02,0.06070
1780.23,0.06020
1774.45,0.05996
1768.66,0.05986
1762.87,0.05987
1757.09,0.05923
1751.3,0.05987
1745.51,0.05956
1739.73,0.05926
1733.94,0.06000
1728.16,0.06023
1722.37,0.06081
1716.58,0.06124
1710.8,0.06098
1705.01,0.06155
1699.22,0.06145
1693.44,0.06045
1687.65,0.06024
1681.87,0.06001
1676.08,0.06003
1670.29,0.06019
1664.51,0.06041
1658.72,0.06068
1652.93,0.06058
1647.15,0.06022
1641.36,0.05933
1635.58,0.06090
1629.79,0.06103
1624,0.06078
1618.22,0.06016
1612.43,0.05956
1606.64,0.05926
1600.86,0.05994
1595.07,0.06071
1589.29,0.05996
1583.5,0.06004
1577.71,0.06001
1571.93,0.05982
1566.14,0.05938
1560.35,0.05937
1554.57,0.05909
1548.78,0.05897
1543,0.05953
1537.21,0.05949
1531.42,0.05875
1525.64,0.05889
1519.85,0.05873
1514.07,0.05799
1508.28,0.05782
1502.49,0.05672
1496.71,0.05590
1490.92,0.06016
1485.13,0.06016
1479.35,0.05873
1473.56,0.05844
1467.78,0.05750
1461.99,0.05611
1456.2,0.05555
1450.42,0.06082
1444.63,0.06152
1438.84,0.06173
1433.06,0.06128
1427.27,0.06125
1421.49,0.06116
1415.7,0.06078
1409.91,0.06046
1404.13,0.06063
1398.34,0.06031
1392.55,0.05995
1386.77,0.05988
1380.98,0.05973
1375.2,0.05997
1369.41,0.05957
1363.62,0.05985
1357.84,0.06015
1352.05,0.05980
1346.26,0.05999
1340.48,0.05999
1334.69,0.05983
1328.91,0.05980
1323.12,0.06003
1317.33,0.06007
1311.55,0.06002
1305.76,0.06048
1299.97,0.06007
1294.19,0.06013
1288.4,0.06033
1282.62,0.06020
1276.83,0.06021
1271.04,0.06026
1265.26,0.06050
1259.47,0.06054
1253.68,0.06037
1247.9,0.06029
1242.11,0.06015
1236.33,0.06019
1230.54,0.06049
1224.75,0.05995
1218.97,0.06004
1213.18,0.05960
1207.39,0.06020
1201.61,0.05990
1195.82,0.06010
1190.04,0.06036
1184.25,0.05939
1178.46,0.06061
1172.68,0.06027
1166.89,0.06048
1161.1,0.06051
1155.32,0.06020
1149.53,0.06047
1143.75,0.06034
1137.96,0.06051
1132.17,0.06045
1126.39,0.05993
1120.6,0.06048
1114.81,0.06005
1109.03,0.05968
1103.24,0.05988
1097.46,0.05927
1091.67,0.05936
1085.88,0.05927
1080.1,0.05976
1074.31,0.05954
1068.52,0.05950
1062.74,0.06004
1056.95,0.06020
1051.17,0.06070
1045.38,0.06067
1039.59,0.05992
1033.81,0.05977
1028.02,0.06084
1022.24,0.06141
1016.45,0.06102
1010.66,0.05995
1004.88,0.05962
999.09,0.05852
993.304,0.05897
987.518,0.05890
981.731,0.05864
975.945,0.05770
970.159,0.05671
964.373,0.05921
958.586,0.06183
952.8,0.06161
947.014,0.06160
941.228,0.06127
935.441,0.06081
929.655,0.05989
923.869,0.05924
918.083,0.05806
912.297,0.05833
906.51,0.06072
900.724,0.06044
894.938,0.05986
889.152,0.05983
883.365,0.05904
877.579,0.05862
871.793,0.05853
866.007,0.05912
860.22,0.05853
854.434,0.05852
848.648,0.05799
842.862,0.05785
837.075,0.05767
831.289,0.05797
825.503,0.05642
819.717,0.05615
813.931,0.05596
808.144,0.05583
802.358,0.05612
796.572,0.05434
790.786,0.05381
784.999,0.05227
779.213,0.05098
773.427,0.05120
767.641,0.05055
761.854,0.05552
756.068,0.05933
750.282,0.06021
744.496,0.05869
738.709,0.05757
732.923,0.05563
727.137,0.05400
721.351,0.05136
715.565,0.04845
709.778,0.04429
703.992,0.05636
698.206,0.08090
692.42,0.07509
686.633,0.06672
680.847,0.06453
675.061,0.06362
669.275,0.06299
663.488,0.06205
657.702,0.06322
651.916,0.06193
646.13,0.06045
640.343,0.06099
634.557,0.06101
628.771,0.06079
622.985,0.05951
617.198,0.06156
611.412,0.05993
605.626,0.05940
599.84,0.05932