File: 01_Data/PlasticA/FTIR/IS/PlasticA_IS_S_220906_R7.dpt
7497.03,0.70534
7491.25,0.71429
7485.46,0.70618
7479.67,0.70379
7473.89,0.71898
7468.1,0.71814
7462.32,0.70228
7456.53,0.70254
7450.74,0.70888
7444.96,0.70096
7439.17,0.70448
7433.38,0.70258
7427.6,0.69642
7421.81,0.69082
7416.03,0.69679
7410.24,0.70106
7404.45,0.69430
7398.67,0.69567
7392.88,0.69471
7387.09,0.70077
7381.31,0.70517
7375.52,0.69246
7369.74,0.69432
7363.95,0.68841
7358.16,0.68980
7352.38,0.69317
7346.59,0.69517
7340.8,0.68820
7335.02,0.67548
7329.23,0.67195
7323.45,0.67582
7317.66,0.67689
7311.87,0.68075
7306.09,0.66804
7300.3,0.66179
7294.51,0.65504
7288.73,0.66283
7282.94,0.64917
7277.16,0.65813
7271.37,0.65101
7265.58,0.64464
7259.8,0.64451
7254.01,0.64685
7248.22,0.64304
7242.44,0.64121
7236.65,0.64050
7230.87,0.63879
7225.08,0.63641
7219.29,0.62721
7213.51,0.63340
7207.72,0.62334
7201.93,0.62251
7196.15,0.62380
7190.36,0.61935
7184.58,0.62824
7178.79,0.62597
7173,0.62232
7167.22,0.62175
7161.43,0.62796
7155.65,0.61799
7149.86,0.61895
7144.07,0.61440
7138.29,0.61279
7132.5,0.61565
7126.71,0.60619
7120.93,0.60737
7115.14,0.60843
7109.36,0.59615
7103.57,0.59503
7097.78,0.59929
7092,0.59839
7086.21,0.59914
7080.42,0.59934
7074.64,0.60033
7068.85,0.60167
7063.07,0.59398
7057.28,0.59778
7051.49,0.59718
7045.71,0.59799
7039.92,0.60016
7034.13,0.60563
7028.35,0.60311
7022.56,0.60636
7016.78,0.60825
7010.99,0.60977
7005.2,0.61062
6999.42,0.61220
6993.63,0.61439
6987.84,0.60715
6982.06,0.61464
6976.27,0.61298
6970.49,0.61557
6964.7,0.61079
6958.91,0.61721
6953.13,0.61542
6947.34,0.61512
6941.55,0.61445
6935.77,0.62244
6929.98,0.62515
6924.2,0.61780
6918.41,0.62226
6912.62,0.62389
6906.84,0.62465
6901.05,0.63134
6895.26,0.62722
6889.48,0.62812
6883.69,0.62774
6877.91,0.63260
6872.12,0.63249
6866.33,0.63103
6860.55,0.62735
6854.76,0.63491
6848.97,0.63380
6843.19,0.63989
6837.4,0.63580
6831.62,0.63434
6825.83,0.63625
6820.04,0.63504
6814.26,0.63445
6808.47,0.63352
6802.68,0.63474
6796.9,0.64195
6791.11,0.64204
6785.33,0.64532
6779.54,0.64040
6773.75,0.64144
6767.97,0.64378
6762.18,0.64667
6756.39,0.64277
6750.61,0.64100
6744.82,0.64389
6739.04,0.64607
6733.25,0.64733
6727.46,0.64465
6721.68,0.64581
6715.89,0.64446
6710.1,0.64848
6704.32,0.65100
6698.53,0.64776
6692.75,0.64906
6686.96,0.64911
6681.17,0.65262
6675.39,0.64667
6669.6,0.65958
6663.82,0.65711
6658.03,0.65705
6652.24,0.65654
6646.46,0.65651
6640.67,0.65939
6634.88,0.65820
6629.1,0.65549
6623.31,0.65210
6617.53,0.65144
6611.74,0.65135
6605.95,0.65020
6600.17,0.65695
6594.38,0.66002
6588.59,0.65863
6582.81,0.65906
6577.02,0.65456
6571.24,0.65841
6565.45,0.66116
6559.66,0.65778
6553.88,0.65910
6548.09,0.65516
6542.3,0.65968
6536.52,0.65809
6530.73,0.65467
6524.95,0.65225
6519.16,0.65667
6513.37,0.65821
6507.59,0.65840
6501.8,0.66408
6496.01,0.65946
6490.23,0.65650
6484.44,0.65691
6478.66,0.65695
6472.87,0.65720
6467.08,0.65761
6461.3,0.66108
6455.51,0.65779
6449.72,0.65722
6443.94,0.65938
6438.15,0.65760
6432.37,0.65709
6426.58,0.66171
6420.79,0.65749
6415.01,0.66012
6409.22,0.65730
6403.43,0.65633
6397.65,0.65271
6391.86,0.65394
6386.08,0.65473
6380.29,0.65123
6374.5,0.64904
6368.72,0.64780
6362.93,0.64497
6357.14,0.64562
6351.36,0.64158
6345.57,0.64507
6339.79,0.64608
6334,0.64825
6328.21,0.64433
6322.43,0.64662
6316.64,0.64213
6310.85,0.64330
6305.07,0.64443
6299.28,0.63986
6293.5,0.64071
6287.71,0.63548
6281.92,0.64053
6276.14,0.63753
6270.35,0.63505
6264.56,0.63399
6258.78,0.63369
6252.99,0.63260
6247.21,0.62677
6241.42,0.62690
6235.63,0.62102
6229.85,0.62125
6224.06,0.61889
6218.27,0.61367
6212.49,0.61562
6206.7,0.61249
6200.92,0.60822
6195.13,0.60246
6189.34,0.59398
6183.56,0.59253
6177.77,0.58373
6171.98,0.57478
6166.2,0.56088
6160.41,0.55090
6154.63,0.53848
6148.84,0.52309
6143.05,0.51434
6137.27,0.50093
6131.48,0.48096
6125.7,0.46760
6119.91,0.45640
6114.12,0.44748
6108.34,0.44272
6102.55,0.44541
6096.76,0.45401
6090.98,0.46461
6085.19,0.46608
6079.41,0.46535
6073.62,0.46462
6067.83,0.47373
6062.05,0.47719
6056.26,0.47672
6050.47,0.46903
6044.69,0.45816
6038.9,0.43915
6033.12,0.41867
6027.33,0.40024
6021.54,0.37888
6015.76,0.35989
6009.97,0.34001
6004.18,0.32985
5998.4,0.31369
5992.61,0.30148
5986.83,0.29034
5981.04,0.27924
5975.25,0.27182
5969.47,0.26903
5963.68,0.26581
5957.89,0.26460
5952.11,0.26584
5946.32,0.26793
5940.54,0.27123
5934.75,0.27684
5928.96,0.28274
5923.18,0.28041
5917.39,0.28239
5911.6,0.28417
5905.82,0.28424
5900.03,0.28522
5894.25,0.28583
5888.46,0.28813
5882.67,0.29379
5876.89,0.29696
5871.1,0.29593
5865.31,0.29666
5859.53,0.29814
5853.74,0.29621
5847.96,0.29535
5842.17,0.29378
5836.38,0.29726
5830.6,0.29719
5824.81,0.29595
5819.02,0.29574
5813.24,0.29364
5807.45,0.29492
5801.67,0.29723
5795.88,0.29748
5790.09,0.30105
5784.31,0.30279
5778.52,0.30986
5772.73,0.31913
5766.95,0.32621
5761.16,0.33416
5755.38,0.34073
5749.59,0.34379
5743.8,0.34151
5738.02,0.33952
5732.23,0.33213
5726.44,0.32517
5720.66,0.32065
5714.87,0.31242
5709.09,0.30535
5703.3,0.30190
5697.51,0.30311
5691.73,0.30182
5685.94,0.30296
5680.15,0.30378
5674.37,0.30638
5668.58,0.30841
5662.8,0.30989
5657.01,0.31704
5651.22,0.31937
5645.44,0.32352
5639.65,0.32919
5633.87,0.33358
5628.08,0.33978
5622.29,0.34443
5616.51,0.34566
5610.72,0.34529
5604.93,0.34527
5599.15,0.34493
5593.36,0.34788
5587.58,0.35155
5581.79,0.35602
5576,0.35740
5570.22,0.36103
5564.43,0.36457
5558.64,0.36564
5552.86,0.36397
5547.07,0.36663
5541.29,0.36773
5535.5,0.36795
5529.71,0.36857
5523.93,0.36815
5518.14,0.36594
5512.35,0.36969
5506.57,0.37068
5500.78,0.37029
5495,0.37287
5489.21,0.37531
5483.42,0.37596
5477.64,0.37703
5471.85,0.37663
5466.06,0.37701
5460.28,0.37691
5454.49,0.37544
5448.71,0.37555
5442.92,0.37507
5437.13,0.37614
5431.35,0.37666
5425.56,0.37512
5419.77,0.37519
5413.99,0.37543
5408.2,0.37441
5402.42,0.37560
5396.63,0.37387
5390.84,0.37369
5385.06,0.37305
5379.27,0.37313
5373.48,0.37401
5367.7,0.37638
5361.91,0.37594
5356.13,0.37799
5350.34,0.38001
5344.55,0.38367
5338.77,0.38428
5332.98,0.38448
5327.19,0.38648
5321.41,0.38639
5315.62,0.38706
5309.84,0.38668
5304.05,0.38464
5298.26,0.38420
5292.48,0.38150
5286.69,0.37634
5280.9,0.37174
5275.12,0.36513
5269.33,0.35892
5263.55,0.35328
5257.76,0.34786
5251.97,0.34459
5246.19,0.34439
5240.4,0.34674
5234.61,0.35005
5228.83,0.35401
5223.04,0.36100
5217.26,0.36547
5211.47,0.37129
5205.68,0.37221
5199.9,0.37213
5194.11,0.37543
5188.32,0.37524
5182.54,0.37206
5176.75,0.37096
5170.97,0.36834
5165.18,0.36488
5159.39,0.36196
5153.61,0.35779
5147.82,0.35591
5142.03,0.35143
5136.25,0.35438
5130.46,0.36043
5124.68,0.36807
5118.89,0.37503
5113.1,0.37950
5107.32,0.38192
5101.53,0.38306
5095.75,0.38383
5089.96,0.38521
5084.17,0.38656
5078.39,0.38719
5072.6,0.38801
5066.81,0.38711
5061.03,0.38780
5055.24,0.38835
5049.46,0.38825
5043.67,0.38864
5037.88,0.38770
5032.1,0.38820
5026.31,0.38787
5020.52,0.38832
5014.74,0.38886
5008.95,0.38851
5003.17,0.38701
4997.38,0.38543
4991.59,0.38320
4985.81,0.38060
4980.02,0.38052
4974.23,0.37977
4968.45,0.37768
4962.66,0.37600
4956.88,0.37651
4951.09,0.37725
4945.3,0.37582
4939.52,0.37568
4933.73,0.37588
4927.94,0.37656
4922.16,0.37660
4916.37,0.37558
4910.59,0.37387
4904.8,0.37308
4899.01,0.37286
4893.23,0.37022
4887.44,0.36672
4881.65,0.36467
4875.87,0.36188
4870.08,0.36257
4864.3,0.36417
4858.51,0.36469
4852.72,0.36479
4846.94,0.36576
4841.15,0.36579
4835.36,0.36649
4829.58,0.36566
4823.79,0.36668
4818.01,0.36698
4812.22,0.36700
4806.43,0.36609
4800.65,0.36367
4794.86,0.36173
4789.07,0.35806
4783.29,0.35440
4777.5,0.34959
4771.72,0.34479
4765.93,0.34021
4760.14,0.33748
4754.36,0.33576
4748.57,0.33150
4742.78,0.32592
4737,0.31750
4731.21,0.30385
4725.43,0.28895
4719.64,0.27354
4713.85,0.26459
4708.07,0.26395
4702.28,0.26217
4696.49,0.25703
4690.71,0.24566
4684.92,0.22390
4679.14,0.19711
4673.35,0.17518
4667.56,0.16681
4661.78,0.16887
4655.99,0.17946
4650.2,0.19088
4644.42,0.19190
4638.63,0.18436
4632.85,0.17474
4627.06,0.16958
4621.27,0.17050
4615.49,0.16763
4609.7,0.16521
4603.92,0.16839
4598.13,0.18157
4592.34,0.19393
4586.56,0.19814
4580.77,0.18956
4574.98,0.17932
4569.2,0.18876
4563.41,0.20533
4557.63,0.21762
4551.84,0.22743
4546.05,0.23579
4540.27,0.23558
4534.48,0.23431
4528.69,0.23552
4522.91,0.23377
4517.12,0.23083
4511.34,0.22882
4505.55,0.22697
4499.76,0.22687
4493.98,0.22262
4488.19,0.21353
4482.4,0.20288
4476.62,0.20029
4470.83,0.20728
4465.05,0.21467
4459.26,0.21416
4453.47,0.20864
4447.69,0.20124
4441.9,0.19972
4436.11,0.19753
4430.33,0.19412
4424.54,0.18795
4418.76,0.18127
4412.97,0.17353
4407.18,0.16580
4401.4,0.15860
4395.61,0.15153
4389.82,0.14432
4384.04,0.13877
4378.25,0.13318
4372.47,0.12815
4366.68,0.12279
4360.89,0.11974
4355.11,0.11735
4349.32,0.11561
4343.53,0.11353
4337.75,0.11358
4331.96,0.11349
4326.18,0.11407
4320.39,0.11618
4314.6,0.11853
4308.82,0.11914
4303.03,0.11788
4297.24,0.11658
4291.46,0.11413
4285.67,0.11260
4279.89,0.11134
4274.1,0.10901
4268.31,0.10716
4262.53,0.10499
4256.74,0.10244
4250.95,0.10206
4245.17,0.10284
4239.38,0.10294
4233.6,0.10350
4227.81,0.10415
4222.02,0.10528
4216.24,0.10647
4210.45,0.10640
4204.66,0.10633
4198.88,0.10812
4193.09,0.10989
4187.31,0.11127
4181.52,0.11225
4175.73,0.11389
4169.95,0.11515
4164.16,0.11682
4158.37,0.11685
4152.59,0.11636
4146.8,0.11657
4141.02,0.11631
4135.23,0.11568
4129.44,0.11461
4123.66,0.11306
4117.87,0.11254
4112.09,0.11155
4106.3,0.11066
4100.51,0.11050
4094.73,0.10903
4088.94,0.10636
4083.15,0.10340
4077.37,0.09927
4071.58,0.09553
4065.8,0.09167
4060.01,0.08982
4054.22,0.08903
4048.44,0.08887
4042.65,0.08846
4036.86,0.08864
4031.08,0.09221
4025.29,0.09552
4019.51,0.10168
4013.72,0.10703
4007.93,0.10952
4002.15,0.11065
3996.36,0.11331
3990.57,0.11484
3984.79,0.11543
3979,0.11553
3973.22,0.11605
3967.43,0.11733
3961.64,0.11759
3955.86,0.11828
3950.07,0.11835
3944.28,0.11703
3938.5,0.11654
3932.71,0.11617
3926.93,0.11735
3921.14,0.11767
3915.35,0.11846
3909.57,0.11798
3903.78,0.11951
3897.99,0.11971
3892.21,0.12055
3886.42,0.12208
3880.64,0.12271
3874.85,0.12242
3869.06,0.12290
3863.28,0.12248
3857.49,0.12302
3851.7,0.12230
3845.92,0.12138
3840.13,0.12000
3834.35,0.11966
3828.56,0.11870
3822.77,0.11840
3816.99,0.11787
3811.2,0.11789
3805.41,0.11848
3799.63,0.11937
3793.84,0.12019
3788.06,0.12166
3782.27,0.12193
3776.48,0.12175
3770.7,0.12182
3764.91,0.12148
3759.12,0.12257
3753.34,0.12344
3747.55,0.12389
3741.77,0.12274
3735.98,0.12159
3730.19,0.11931
3724.41,0.11597
3718.62,0.11512
3712.83,0.11599
3707.05,0.11291
3701.26,0.10934
3695.48,0.10824
3689.69,0.10505
3683.9,0.09884
3678.12,0.09416
3672.33,0.09028
3666.54,0.08718
3660.76,0.08484
3654.97,0.08286
3649.19,0.08211
3643.4,0.08188
3637.61,0.08381
3631.83,0.08443
3626.04,0.08382
3620.25,0.08420
3614.47,0.08523
3608.68,0.08689
3602.9,0.08698
3597.11,0.08791
3591.32,0.08717
3585.54,0.08682
3579.75,0.08520
3573.97,0.08442
3568.18,0.08336
3562.39,0.08224
3556.61,0.08092
3550.82,0.08003
3545.03,0.07991
3539.25,0.07927
3533.46,0.07893
3527.68,0.07924
3521.89,0.08014
3516.1,0.08081
3510.32,0.08015
3504.53,0.08094
3498.74,0.08172
3492.96,0.08178
3487.17,0.08179
3481.39,0.08286
3475.6,0.08319
3469.81,0.08346
3464.03,0.08320
3458.24,0.08236
3452.45,0.08223
3446.67,0.08231
3440.88,0.08203
3435.1,0.08266
3429.31,0.08250
3423.52,0.08166
3417.74,0.08246
3411.95,0.08227
3406.16,0.08178
3400.38,0.08206
3394.59,0.08164
3388.81,0.08175
3383.02,0.08150
3377.23,0.08159
3371.45,0.08259
3365.66,0.08220
3359.87,0.08232
3354.09,0.08114
3348.3,0.08173
3342.52,0.08188
3336.73,0.08108
3330.94,0.08003
3325.16,0.07929
3319.37,0.07647
3313.58,0.07332
3307.8,0.06910
3302.01,0.06483
3296.23,0.06513
3290.44,0.06828
3284.65,0.07133
3278.87,0.07375
3273.08,0.07582
3267.29,0.07667
3261.51,0.07785
3255.72,0.07811
3249.94,0.07787
3244.15,0.07791
3238.36,0.07832
3232.58,0.07786
3226.79,0.07713
3221,0.07704
3215.22,0.07731
3209.43,0.07688
3203.65,0.07606
3197.86,0.07535
3192.07,0.07571
3186.29,0.07583
3180.5,0.07632
3174.71,0.07619
3168.93,0.07487
3163.14,0.07382
3157.36,0.07322
3151.57,0.07446
3145.78,0.07436
3140,0.07312
3134.21,0.07307
3128.42,0.07245
3122.64,0.07068
3116.85,0.06829
3111.07,0.06583
3105.28,0.06361
3099.49,0.06334
3093.71,0.06306
3087.92,0.06128
3082.14,0.06055
3076.35,0.06055
3070.56,0.06023
3064.78,0.05989
3058.99,0.05999
3053.2,0.06022
3047.42,0.06059
3041.63,0.06030
3035.85,0.05969
3030.06,0.05894
3024.27,0.05922
3018.49,0.06095
3012.7,0.06000
3006.91,0.05950
3001.13,0.06029
2995.34,0.05926
2989.56,0.05949
2983.77,0.05896
2977.98,0.05911
2972.2,0.05874
2966.41,0.05834
2960.62,0.05836
2954.84,0.05882
2949.05,0.05855
2943.27,0.05809
2937.48,0.05918
2931.69,0.05959
2925.91,0.06088
2920.12,0.06235
2914.33,0.06216
2908.55,0.06163
2902.76,0.06174
2896.98,0.06191
2891.19,0.06204
2885.4,0.06156
2879.62,0.06183
2873.83,0.06123
2868.04,0.06156
2862.26,0.06168
2856.47,0.06204
2850.69,0.06306
2844.9,0.06241
2839.11,0.06199
2833.33,0.06233
2827.54,0.06287
2821.75,0.06390
2815.97,0.06426
2810.18,0.06482
2804.4,0.06541
2798.61,0.06565
2792.82,0.06661
2787.04,0.06705
2781.25,0.06725
2775.46,0.06772
2769.68,0.06827
2763.89,0.06904
2758.11,0.06964
2752.32,0.06929
2746.53,0.06927
2740.75,0.06956
2734.96,0.06957
2729.17,0.06951
2723.39,0.06940
2717.6,0.06918
2711.82,0.06929
2706.03,0.06923
2700.24,0.06922
2694.46,0.06908
2688.67,0.06893
2682.88,0.06833
2677.1,0.06849
2671.31,0.06847
2665.53,0.06863
2659.74,0.06799
2653.95,0.06834
2648.17,0.06850
2642.38,0.06793
2636.59,0.06804
2630.81,0.06825
2625.02,0.06916
2619.24,0.06893
2613.45,0.06952
2607.66,0.06869
2601.88,0.06893
2596.09,0.06926
2590.3,0.06980
2584.52,0.06953
2578.73,0.06955
2572.95,0.06980
2567.16,0.06982
2561.37,0.06998
2555.59,0.06944
2549.8,0.06935
2544.02,0.06975
2538.23,0.06930
2532.44,0.06881
2526.66,0.06920
2520.87,0.06882
2515.08,0.06878
2509.3,0.06926
2503.51,0.06941
2497.73,0.06971
2491.94,0.06979
2486.15,0.06963
2480.37,0.07010
2474.58,0.07094
2468.79,0.07071
2463.01,0.07113
2457.22,0.07057
2451.44,0.07062
2445.65,0.07046
2439.86,0.07021
2434.08,0.07056
2428.29,0.07054
2422.5,0.07043
2416.72,0.06999
2410.93,0.06984
2405.15,0.06971
2399.36,0.06957
2393.57,0.06907
2387.79,0.06859
2382,0.06880
2376.21,0.06880
2370.43,0.06874
2364.64,0.06806
2358.86,0.06814
2353.07,0.06780
2347.28,0.06695
2341.5,0.06640
2335.71,0.06694
2329.92,0.06781
2324.14,0.06762
2318.35,0.06645
2312.57,0.06664
2306.78,0.06710
2300.99,0.06744
2295.21,0.06727
2289.42,0.06745
2283.63,0.06746
2277.85,0.06717
2272.06,0.06655
2266.28,0.06634
2260.49,0.06469
2254.7,0.06317
2248.92,0.06131
2243.13,0.05978
2237.34,0.06005
2231.56,0.06171
2225.77,0.06355
2219.99,0.06596
2214.2,0.06693
2208.41,0.06765
2202.63,0.06773
2196.84,0.06789
2191.05,0.06755
2185.27,0.06687
2179.48,0.06757
2173.7,0.06954
2167.91,0.06983
2162.12,0.06988
2156.34,0.06979
2150.55,0.06939
2144.76,0.06966
2138.98,0.06995
2133.19,0.07003
2127.41,0.06968
2121.62,0.06972
2115.83,0.06938
2110.05,0.06951
2104.26,0.06941
2098.47,0.06918
2092.69,0.06953
2086.9,0.06891
2081.12,0.06873
2075.33,0.06846
2069.54,0.06836
2063.76,0.06795
2057.97,0.06788
2052.19,0.06768
2046.4,0.06750
2040.61,0.06692
2034.83,0.06668
2029.04,0.06663
2023.25,0.06640
2017.47,0.06599
2011.68,0.06543
2005.9,0.06507
2000.11,0.06414
1994.32,0.06356
1988.54,0.06255
1982.75,0.06182
1976.96,0.06157
1971.18,0.06113
1965.39,0.06115
1959.61,0.06094
1953.82,0.06093
1948.03,0.06090
1942.25,0.06137
1936.46,0.06174
1930.67,0.06226
1924.89,0.06287
1919.1,0.06256
1913.32,0.06217
1907.53,0.06197
1901.74,0.06093
1895.96,0.06105
1890.17,0.06067
1884.38,0.06026
1878.6,0.05999
1872.81,0.06044
1867.03,0.06127
1861.24,0.06165
1855.45,0.06185
1849.67,0.06175
1843.88,0.06132
1838.09,0.06098
1832.31,0.06061
1826.52,0.06006
1820.74,0.05983
1814.95,0.05957
1809.16,0.05945
1803.38,0.05993
1797.59,0.06052
1791.8,0.06036
1786.02,0.06051
1780.23,0.06027
1774.45,0.06050
1768.66,0.06031
1762.87,0.05980
1757.09,0.05996
1751.3,0.05963
1745.51,0.05959
1739.73,0.05939
1733.94,0.05977
1728.16,0.05993
1722.37,0.06072
1716.58,0.06167
1710.8,0.06129
1705.01,0.06107
1699.22,0.06095
1693.44,0.06010
1687.65,0.06000
1681.87,0.05986
1676.08,0.06007
1670.29,0.06004
1664.51,0.06025
1658.72,0.06006
1652.93,0.06047
1647.15,0.06040
1641.36,0.05992
1635.58,0.06055
1629.79,0.06035
1624,0.06000
1618.22,0.06006
1612.43,0.05941
1606.64,0.05905
1600.86,0.06020
1595.07,0.06036
1589.29,0.06000
1583.5,0.05994
1577.71,0.05998
1571.93,0.05994
1566.14,0.05925
1560.35,0.05980
1554.57,0.05912
1548.78,0.05910
1543,0.05977
1537.21,0.05920
1531.42,0.05873
1525.64,0.05915
1519.85,0.05863
1514.07,0.05812
1508.28,0.05767
1502.49,0.05658
1496.71,0.05606
1490.92,0.06058
1485.13,0.05941
1479.35,0.05890
1473.56,0.05819
1467.78,0.05738
1461.99,0.05591
1456.2,0.05584
1450.42,0.06040
1444.63,0.06154
1438.84,0.06170
1433.06,0.06148
1427.27,0.06124
1421.49,0.06103
1415.7,0.06061
1409.91,0.06029
1404.13,0.06046
1398.34,0.06009
1392.55,0.05986
1386.77,0.05950
1380.98,0.05968
1375.2,0.05989
1369.41,0.06003
1363.62,0.05981
1357.84,0.05992
1352.05,0.05959
1346.26,0.06004
1340.48,0.06009
1334.69,0.06002
1328.91,0.05928
1323.12,0.05983
1317.33,0.06005
1311.55,0.05979
1305.76,0.05992
1299.97,0.06024
1294.19,0.06029
1288.4,0.06038
1282.62,0.05993
1276.83,0.06031
1271.04,0.06057
1265.26,0.06053
1259.47,0.06050
1253.68,0.06061
1247.9,0.06036
1242.11,0.06011
1236.33,0.06004
1230.54,0.06017
1224.75,0.06009
1218.97,0.06018
1213.18,0.06006
1207.39,0.05997
1201.61,0.06038
1195.82,0.06014
1190.04,0.06069
1184.25,0.06060
1178.46,0.06009
1172.68,0.06008
1166.89,0.06040
1161.1,0.05990
1155.32,0.06003
1149.53,0.05999
1143.75,0.06019
1137.96,0.06026
1132.17,0.06028
1126.39,0.06006
1120.6,0.06059
1114.81,0.06027
1109.03,0.05999
1103.24,0.06008
1097.46,0.05956
1091.67,0.06001
1085.88,0.05966
1080.1,0.05935
1074.31,0.05919
1068.52,0.06008
1062.74,0.06024
1056.95,0.05991
1051.17,0.06030
1045.38,0.05985
1039.59,0.05967
1033.81,0.05939
1028.02,0.06008
1022.24,0.06078
1016.45,0.06070
1010.66,0.06064
1004.88,0.05972
999.09,0.05927
993.304,0.05908
987.518,0.05889
981.731,0.05800
975.945,0.05719
970.159,0.05718
964.373,0.05887
958.586,0.06094
952.8,0.06156
947.014,0.06158
941.228,0.06079
935.441,0.06035
929.655,0.05976
923.869,0.05887
918.083,0.05831
912.297,0.05869
906.51,0.06028
900.724,0.06050
894.938,0.06090
889.152,0.05994
883.365,0.05950
877.579,0.05923
871.793,0.05888
866.007,0.05929
860.22,0.05819
854.434,0.05764
848.648,0.05771
842.862,0.05773
837.075,0.05778
831.289,0.05735
825.503,0.05709
819.717,0.05688
813.931,0.05616
808.144,0.05632
802.358,0.05523
796.572,0.05470
790.786,0.05368
784.999,0.05303
779.213,0.05123
773.427,0.04985
767.641,0.05172
761.854,0.05537
756.068,0.05933
750.282,0.05938
744.496,0.05930
738.709,0.05710
732.923,0.05507
727.137,0.05391
721.351,0.05194
715.565,0.04711
709.778,0.04502
703.992,0.05799
698.206,0.08091
692.42,0.07463
686.633,0.06730
680.847,0.06450
675.061,0.06379
669.275,0.06399
663.488,0.06189
657.702,0.06188
651.916,0.06058
646.13,0.06005
640.343,0.06093
634.557,0.06070
628.771,0.05865
622.985,0.05963
617.198,0.06034
611.412,0.06050
605.626,0.05687
599.84,0.05836