File: 01_Data/PlasticA/FTIR/IS/PlasticA_IS_T_220906_R4.dpt
7497.03,0.02362
7491.25,0.02529
7485.46,0.02728
7479.67,0.02412
7473.89,0.02820
7468.1,0.02617
7462.32,0.02810
7456.53,0.02930
7450.74,0.02348
7444.96,0.03232
7439.17,0.02487
7433.38,0.02722
7427.6,0.02966
7421.81,0.01840
7416.03,0.01427
7410.24,0.01975
7404.45,0.03208
7398.67,0.03328
7392.88,0.02138
7387.09,0.02527
7381.31,0.02879
7375.52,0.02630
7369.74,0.03193
7363.95,0.01533
7358.16,0.02146
7352.38,0.02413
7346.59,0.02138
7340.8,0.01966
7335.02,0.02037
7329.23,0.02491
7323.45,0.02952
7317.66,0.02012
7311.87,0.02511
7306.09,0.02980
7300.3,0.02123
7294.51,0.02215
7288.73,0.02227
7282.94,0.02417
7277.16,0.03288
7271.37,0.03235
7265.58,0.01706
7259.8,0.01811
7254.01,0.02342
7248.22,0.02290
7242.44,0.01797
7236.65,0.02692
7230.87,0.02492
7225.08,0.02061
7219.29,0.02112
7213.51,0.02374
7207.72,0.02374
7201.93,0.02591
7196.15,0.02598
7190.36,0.02616
7184.58,0.01973
7178.79,0.02211
7173,0.03000
7167.22,0.02364
7161.43,0.02415
7155.65,0.02717
7149.86,0.01575
7144.07,0.02531
7138.29,0.03069
7132.5,0.03309
7126.71,0.03075
7120.93,0.02248
7115.14,0.02027
7109.36,0.02284
7103.57,0.02446
7097.78,0.02405
7092,0.01988
7086.21,0.02526
7080.42,0.02298
7074.64,0.01272
7068.85,0.02235
7063.07,0.01890
7057.28,0.02110
7051.49,0.01973
7045.71,0.02252
7039.92,0.02253
7034.13,0.02361
7028.35,0.01815
7022.56,0.02197
7016.78,0.02034
7010.99,0.02078
7005.2,0.02398
6999.42,0.02837
6993.63,0.02464
6987.84,0.02309
6982.06,0.01976
6976.27,0.02297
6970.49,0.02636
6964.7,0.02702
6958.91,0.02849
6953.13,0.02099
6947.34,0.02573
6941.55,0.02294
6935.77,0.02598
6929.98,0.02803
6924.2,0.01978
6918.41,0.02098
6912.62,0.03170
6906.84,0.02729
6901.05,0.02600
6895.26,0.02344
6889.48,0.02498
6883.69,0.02272
6877.91,0.02091
6872.12,0.02370
6866.33,0.02848
6860.55,0.02575
6854.76,0.02513
6848.97,0.02372
6843.19,0.02731
6837.4,0.02441
6831.62,0.02336
6825.83,0.02474
6820.04,0.02359
6814.26,0.02778
6808.47,0.01998
6802.68,0.02460
6796.9,0.02610
6791.11,0.02378
6785.33,0.02809
6779.54,0.02423
6773.75,0.02667
6767.97,0.02252
6762.18,0.02314
6756.39,0.02044
6750.61,0.02152
6744.82,0.02627
6739.04,0.02268
6733.25,0.02805
6727.46,0.02375
6721.68,0.02104
6715.89,0.02058
6710.1,0.02506
6704.32,0.02172
6698.53,0.02691
6692.75,0.02256
6686.96,0.02364
6681.17,0.02389
6675.39,0.02341
6669.6,0.02272
6663.82,0.02471
6658.03,0.02411
6652.24,0.02304
6646.46,0.02418
6640.67,0.02889
6634.88,0.02498
6629.1,0.02595
6623.31,0.02188
6617.53,0.02492
6611.74,0.02668
6605.95,0.02309
6600.17,0.02190
6594.38,0.02341
6588.59,0.02214
6582.81,0.02171
6577.02,0.01851
6571.24,0.01611
6565.45,0.02309
6559.66,0.02295
6553.88,0.02526
6548.09,0.02822
6542.3,0.02244
6536.52,0.02648
6530.73,0.02365
6524.95,0.02435
6519.16,0.02306
6513.37,0.02524
6507.59,0.02070
6501.8,0.02438
6496.01,0.02381
6490.23,0.02550
6484.44,0.02441
6478.66,0.02096
6472.87,0.01955
6467.08,0.02315
6461.3,0.02252
6455.51,0.02222
6449.72,0.02015
6443.94,0.02166
6438.15,0.01979
6432.37,0.02440
6426.58,0.02425
6420.79,0.02241
6415.01,0.02221
6409.22,0.02778
6403.43,0.02166
6397.65,0.02022
6391.86,0.02216
6386.08,0.02265
6380.29,0.02109
6374.5,0.02451
6368.72,0.02462
6362.93,0.02218
6357.14,0.02626
6351.36,0.02343
6345.57,0.02400
6339.79,0.02090
6334,0.02446
6328.21,0.01900
6322.43,0.02277
6316.64,0.02232
6310.85,0.01894
6305.07,0.02143
6299.28,0.02346
6293.5,0.02330
6287.71,0.02210
6281.92,0.02327
6276.14,0.02186
6270.35,0.01886
6264.56,0.02125
6258.78,0.01885
6252.99,0.02341
6247.21,0.02145
6241.42,0.02732
6235.63,0.02199
6229.85,0.02323
6224.06,0.02095
6218.27,0.02036
6212.49,0.02524
6206.7,0.02119
6200.92,0.02582
6195.13,0.02229
6189.34,0.02301
6183.56,0.02298
6177.77,0.02015
6171.98,0.02041
6166.2,0.02529
6160.41,0.02257
6154.63,0.02183
6148.84,0.02038
6143.05,0.02455
6137.27,0.02284
6131.48,0.01870
6125.7,0.02110
6119.91,0.02502
6114.12,0.02112
6108.34,0.02114
6102.55,0.02183
6096.76,0.02285
6090.98,0.02310
6085.19,0.02404
6079.41,0.02251
6073.62,0.02143
6067.83,0.02415
6062.05,0.02173
6056.26,0.01859
6050.47,0.01981
6044.69,0.02245
6038.9,0.02223
6033.12,0.02404
6027.33,0.02376
6021.54,0.02265
6015.76,0.02505
6009.97,0.02018
6004.18,0.02289
5998.4,0.02235
5992.61,0.02132
5986.83,0.02294
5981.04,0.02237
5975.25,0.02211
5969.47,0.01979
5963.68,0.02012
5957.89,0.02034
5952.11,0.02190
5946.32,0.02206
5940.54,0.02152
5934.75,0.02035
5928.96,0.02186
5923.18,0.01997
5917.39,0.02160
5911.6,0.02256
5905.82,0.02195
5900.03,0.02265
5894.25,0.02135
5888.46,0.02246
5882.67,0.01843
5876.89,0.02141
5871.1,0.02091
5865.31,0.02274
5859.53,0.02252
5853.74,0.02245
5847.96,0.02321
5842.17,0.02200
5836.38,0.02021
5830.6,0.02119
5824.81,0.02102
5819.02,0.02172
5813.24,0.02290
5807.45,0.01938
5801.67,0.02011
5795.88,0.02359
5790.09,0.02205
5784.31,0.02326
5778.52,0.02455
5772.73,0.01925
5766.95,0.02269
5761.16,0.02274
5755.38,0.02202
5749.59,0.02230
5743.8,0.02189
5738.02,0.02158
5732.23,0.02032
5726.44,0.02332
5720.66,0.02228
5714.87,0.02066
5709.09,0.02203
5703.3,0.02125
5697.51,0.02303
5691.73,0.02052
5685.94,0.01918
5680.15,0.02109
5674.37,0.02282
5668.58,0.02267
5662.8,0.02231
5657.01,0.02184
5651.22,0.02221
5645.44,0.02296
5639.65,0.02176
5633.87,0.02163
5628.08,0.02121
5622.29,0.02385
5616.51,0.02270
5610.72,0.01923
5604.93,0.02106
5599.15,0.02130
5593.36,0.02343
5587.58,0.02424
5581.79,0.02130
5576,0.02080
5570.22,0.02237
5564.43,0.02202
5558.64,0.02292
5552.86,0.02138
5547.07,0.02185
5541.29,0.02151
5535.5,0.02165
5529.71,0.02309
5523.93,0.02219
5518.14,0.02130
5512.35,0.02169
5506.57,0.02157
5500.78,0.02292
5495,0.02225
5489.21,0.02142
5483.42,0.02220
5477.64,0.02200
5471.85,0.02182
5466.06,0.02217
5460.28,0.02207
5454.49,0.02145
5448.71,0.02079
5442.92,0.01997
5437.13,0.02151
5431.35,0.02264
5425.56,0.02339
5419.77,0.02252
5413.99,0.02237
5408.2,0.02349
5402.42,0.02257
5396.63,0.02054
5390.84,0.02124
5385.06,0.02189
5379.27,0.02248
5373.48,0.02346
5367.7,0.02462
5361.91,0.02130
5356.13,0.02045
5350.34,0.02270
5344.55,0.02228
5338.77,0.02149
5332.98,0.02070
5327.19,0.02242
5321.41,0.02197
5315.62,0.02118
5309.84,0.02150
5304.05,0.02241
5298.26,0.02234
5292.48,0.02188
5286.69,0.02255
5280.9,0.02054
5275.12,0.02215
5269.33,0.02341
5263.55,0.02192
5257.76,0.02238
5251.97,0.02035
5246.19,0.02306
5240.4,0.01988
5234.61,0.02047
5228.83,0.02253
5223.04,0.02154
5217.26,0.02119
5211.47,0.02235
5205.68,0.02296
5199.9,0.02112
5194.11,0.02130
5188.32,0.02231
5182.54,0.02205
5176.75,0.02078
5170.97,0.02265
5165.18,0.02169
5159.39,0.02211
5153.61,0.02278
5147.82,0.02232
5142.03,0.02230
5136.25,0.02177
5130.46,0.02317
5124.68,0.02160
5118.89,0.02125
5113.1,0.02160
5107.32,0.02194
5101.53,0.02301
5095.75,0.02201
5089.96,0.02173
5084.17,0.02193
5078.39,0.02106
5072.6,0.02262
5066.81,0.02121
5061.03,0.02250
5055.24,0.02161
5049.46,0.02175
5043.67,0.02169
5037.88,0.02136
5032.1,0.02156
5026.31,0.02144
5020.52,0.02198
5014.74,0.02173
5008.95,0.02138
5003.17,0.02199
4997.38,0.02222
4991.59,0.02261
4985.81,0.02120
4980.02,0.02208
4974.23,0.02230
4968.45,0.02208
4962.66,0.02248
4956.88,0.02250
4951.09,0.02213
4945.3,0.02280
4939.52,0.02160
4933.73,0.02248
4927.94,0.02221
4922.16,0.02262
4916.37,0.02247
4910.59,0.02099
4904.8,0.02018
4899.01,0.02211
4893.23,0.02191
4887.44,0.02142
4881.65,0.02132
4875.87,0.02274
4870.08,0.02224
4864.3,0.02197
4858.51,0.02207
4852.72,0.02143
4846.94,0.02220
4841.15,0.02219
4835.36,0.02314
4829.58,0.02260
4823.79,0.02150
4818.01,0.02076
4812.22,0.02217
4806.43,0.02201
4800.65,0.02223
4794.86,0.02275
4789.07,0.02162
4783.29,0.02192
4777.5,0.02213
4771.72,0.02162
4765.93,0.02203
4760.14,0.02236
4754.36,0.02290
4748.57,0.02235
4742.78,0.02211
4737,0.02150
4731.21,0.02229
4725.43,0.02237
4719.64,0.02161
4713.85,0.02193
4708.07,0.02261
4702.28,0.02237
4696.49,0.02294
4690.71,0.02210
4684.92,0.02263
4679.14,0.02275
4673.35,0.02351
4667.56,0.02254
4661.78,0.02156
4655.99,0.02126
4650.2,0.02206
4644.42,0.02298
4638.63,0.02163
4632.85,0.02195
4627.06,0.02246
4621.27,0.02272
4615.49,0.02175
4609.7,0.02082
4603.92,0.02229
4598.13,0.02160
4592.34,0.02223
4586.56,0.02267
4580.77,0.02180
4574.98,0.02298
4569.2,0.02317
4563.41,0.02244
4557.63,0.02115
4551.84,0.02283
4546.05,0.02283
4540.27,0.02225
4534.48,0.02302
4528.69,0.02229
4522.91,0.02213
4517.12,0.02204
4511.34,0.02165
4505.55,0.02253
4499.76,0.02260
4493.98,0.02211
4488.19,0.02171
4482.4,0.02273
4476.62,0.02232
4470.83,0.02328
4465.05,0.02259
4459.26,0.02304
4453.47,0.02239
4447.69,0.02258
4441.9,0.02273
4436.11,0.02181
4430.33,0.02286
4424.54,0.02250
4418.76,0.02176
4412.97,0.02300
4407.18,0.02241
4401.4,0.02190
4395.61,0.02274
4389.82,0.02212
4384.04,0.02262
4378.25,0.02278
4372.47,0.02265
4366.68,0.02309
4360.89,0.02236
4355.11,0.02263
4349.32,0.02228
4343.53,0.02224
4337.75,0.02112
4331.96,0.02227
4326.18,0.02180
4320.39,0.02265
4314.6,0.02313
4308.82,0.02272
4303.03,0.02228
4297.24,0.02223
4291.46,0.02272
4285.67,0.02206
4279.89,0.02312
4274.1,0.02275
4268.31,0.02219
4262.53,0.02254
4256.74,0.02318
4250.95,0.02136
4245.17,0.02184
4239.38,0.02268
4233.6,0.02204
4227.81,0.02180
4222.02,0.02163
4216.24,0.02182
4210.45,0.02257
4204.66,0.02253
4198.88,0.02262
4193.09,0.02269
4187.31,0.02269
4181.52,0.02302
4175.73,0.02267
4169.95,0.02189
4164.16,0.02214
4158.37,0.02211
4152.59,0.02242
4146.8,0.02357
4141.02,0.02223
4135.23,0.02240
4129.44,0.02231
4123.66,0.02255
4117.87,0.02255
4112.09,0.02203
4106.3,0.02207
4100.51,0.02172
4094.73,0.02253
4088.94,0.02190
4083.15,0.02238
4077.37,0.02206
4071.58,0.02234
4065.8,0.02220
4060.01,0.02215
4054.22,0.02244
4048.44,0.02273
4042.65,0.02214
4036.86,0.02277
4031.08,0.02228
4025.29,0.02248
4019.51,0.02223
4013.72,0.02244
4007.93,0.02226
4002.15,0.02183
3996.36,0.02190
3990.57,0.02226
3984.79,0.02295
3979,0.02293
3973.22,0.02247
3967.43,0.02255
3961.64,0.02226
3955.86,0.02268
3950.07,0.02243
3944.28,0.02235
3938.5,0.02191
3932.71,0.02249
3926.93,0.02267
3921.14,0.02270
3915.35,0.02269
3909.57,0.02158
3903.78,0.02302
3897.99,0.02217
3892.21,0.02244
3886.42,0.02253
3880.64,0.02294
3874.85,0.02235
3869.06,0.02235
3863.28,0.02251
3857.49,0.02220
3851.7,0.02166
3845.92,0.02231
3840.13,0.02292
3834.35,0.02210
3828.56,0.02204
3822.77,0.02283
3816.99,0.02270
3811.2,0.02262
3805.41,0.02244
3799.63,0.02201
3793.84,0.02243
3788.06,0.02265
3782.27,0.02326
3776.48,0.02244
3770.7,0.02290
3764.91,0.02290
3759.12,0.02261
3753.34,0.02285
3747.55,0.02238
3741.77,0.02227
3735.98,0.02272
3730.19,0.02227
3724.41,0.02241
3718.62,0.02225
3712.83,0.02280
3707.05,0.02225
3701.26,0.02240
3695.48,0.02200
3689.69,0.02263
3683.9,0.02225
3678.12,0.02281
3672.33,0.02239
3666.54,0.02222
3660.76,0.02193
3654.97,0.02176
3649.19,0.02216
3643.4,0.02206
3637.61,0.02216
3631.83,0.02183
3626.04,0.02142
3620.25,0.02229
3614.47,0.02169
3608.68,0.02142
3602.9,0.02137
3597.11,0.02120
3591.32,0.02101
3585.54,0.02084
3579.75,0.02100
3573.97,0.02094
3568.18,0.02117
3562.39,0.02096
3556.61,0.02132
3550.82,0.02103
3545.03,0.02086
3539.25,0.02118
3533.46,0.02152
3527.68,0.02124
3521.89,0.02055
3516.1,0.02039
3510.32,0.02123
3504.53,0.02126
3498.74,0.02106
3492.96,0.02095
3487.17,0.02041
3481.39,0.02091
3475.6,0.02061
3469.81,0.02131
3464.03,0.02077
3458.24,0.02105
3452.45,0.02130
3446.67,0.02092
3440.88,0.02007
3435.1,0.02030
3429.31,0.02046
3423.52,0.02112
3417.74,0.02019
3411.95,0.02013
3406.16,0.02068
3400.38,0.02083
3394.59,0.01990
3388.81,0.02075
3383.02,0.02049
3377.23,0.02075
3371.45,0.02051
3365.66,0.02020
3359.87,0.02068
3354.09,0.02080
3348.3,0.02029
3342.52,0.01996
3336.73,0.02043
3330.94,0.02069
3325.16,0.01992
3319.37,0.02023
3313.58,0.02119
3307.8,0.02102
3302.01,0.02017
3296.23,0.01997
3290.44,0.02049
3284.65,0.02018
3278.87,0.02020
3273.08,0.02009
3267.29,0.02033
3261.51,0.02024
3255.72,0.02027
3249.94,0.02018
3244.15,0.02072
3238.36,0.02083
3232.58,0.02070
3226.79,0.02082
3221,0.02089
3215.22,0.02078
3209.43,0.02049
3203.65,0.02109
3197.86,0.02119
3192.07,0.02068
3186.29,0.02060
3180.5,0.02033
3174.71,0.02041
3168.93,0.02095
3163.14,0.02009
3157.36,0.02057
3151.57,0.02061
3145.78,0.02076
3140,0.02036
3134.21,0.02085
3128.42,0.02054
3122.64,0.02088
3116.85,0.02064
3111.07,0.02052
3105.28,0.02002
3099.49,0.02094
3093.71,0.02079
3087.92,0.02105
3082.14,0.02099
3076.35,0.02033
3070.56,0.02048
3064.78,0.02027
3058.99,0.02079
3053.2,0.02076
3047.42,0.02071
3041.63,0.02031
3035.85,0.02024
3030.06,0.02070
3024.27,0.02044
3018.49,0.02086
3012.7,0.02032
3006.91,0.02049
3001.13,0.02020
2995.34,0.02009
2989.56,0.01980
2983.77,0.02001
2977.98,0.02004
2972.2,0.02022
2966.41,0.01967
2960.62,0.01961
2954.84,0.01966
2949.05,0.01954
2943.27,0.01946
2937.48,0.01984
2931.69,0.01957
2925.91,0.01961
2920.12,0.02020
2914.33,0.02031
2908.55,0.02018
2902.76,0.02015
2896.98,0.02001
2891.19,0.02013
2885.4,0.02060
2879.62,0.02039
2873.83,0.02016
2868.04,0.02022
2862.26,0.02029
2856.47,0.02021
2850.69,0.02018
2844.9,0.02066
2839.11,0.02163
2833.33,0.02102
2827.54,0.02084
2821.75,0.02036
2815.97,0.02121
2810.18,0.02131
2804.4,0.02144
2798.61,0.02094
2792.82,0.02084
2787.04,0.02089
2781.25,0.02125
2775.46,0.02099
2769.68,0.02103
2763.89,0.02070
2758.11,0.02126
2752.32,0.02140
2746.53,0.02079
2740.75,0.02070
2734.96,0.02116
2729.17,0.02108
2723.39,0.02154
2717.6,0.02068
2711.82,0.02101
2706.03,0.02097
2700.24,0.02137
2694.46,0.02104
2688.67,0.02150
2682.88,0.02066
2677.1,0.02090
2671.31,0.02093
2665.53,0.02136
2659.74,0.02125
2653.95,0.02083
2648.17,0.02061
2642.38,0.02117
2636.59,0.02149
2630.81,0.02113
2625.02,0.02116
2619.24,0.02096
2613.45,0.02104
2607.66,0.02121
2601.88,0.02111
2596.09,0.02072
2590.3,0.02062
2584.52,0.02094
2578.73,0.02131
2572.95,0.02142
2567.16,0.02126
2561.37,0.02114
2555.59,0.02077
2549.8,0.02094
2544.02,0.02117
2538.23,0.02103
2532.44,0.02129
2526.66,0.02106
2520.87,0.02117
2515.08,0.02107
2509.3,0.02098
2503.51,0.02140
2497.73,0.02094
2491.94,0.02106
2486.15,0.02133
2480.37,0.02132
2474.58,0.02093
2468.79,0.02095
2463.01,0.02124
2457.22,0.02099
2451.44,0.02118
2445.65,0.02119
2439.86,0.02141
2434.08,0.02055
2428.29,0.02092
2422.5,0.02104
2416.72,0.02146
2410.93,0.02099
2405.15,0.02105
2399.36,0.02116
2393.57,0.02092
2387.79,0.02112
2382,0.02129
2376.21,0.02075
2370.43,0.02091
2364.64,0.02085
2358.86,0.02113
2353.07,0.02137
2347.28,0.02106
2341.5,0.02148
2335.71,0.02130
2329.92,0.02099
2324.14,0.02126
2318.35,0.02116
2312.57,0.02102
2306.78,0.02086
2300.99,0.02109
2295.21,0.02120
2289.42,0.02105
2283.63,0.02116
2277.85,0.02108
2272.06,0.02082
2266.28,0.02090
2260.49,0.02084
2254.7,0.02097
2248.92,0.02107
2243.13,0.02111
2237.34,0.02063
2231.56,0.02111
2225.77,0.02092
2219.99,0.02092
2214.2,0.02091
2208.41,0.02128
2202.63,0.02091
2196.84,0.02061
2191.05,0.02055
2185.27,0.02083
2179.48,0.02060
2173.7,0.02102
2167.91,0.02073
2162.12,0.02057
2156.34,0.02080
2150.55,0.02082
2144.76,0.02107
2138.98,0.02078
2133.19,0.02077
2127.41,0.02056
2121.62,0.02080
2115.83,0.02065
2110.05,0.02050
2104.26,0.02104
2098.47,0.02060
2092.69,0.02085
2086.9,0.02098
2081.12,0.02085
2075.33,0.02042
2069.54,0.02081
2063.76,0.02085
2057.97,0.02060
2052.19,0.02093
2046.4,0.02068
2040.61,0.02077
2034.83,0.02091
2029.04,0.02081
2023.25,0.02071
2017.47,0.02059
2011.68,0.02053
2005.9,0.02080
2000.11,0.02069
1994.32,0.02042
1988.54,0.02029
1982.75,0.02071
1976.96,0.02048
1971.18,0.02043
1965.39,0.02037
1959.61,0.02065
1953.82,0.02057
1948.03,0.02062
1942.25,0.02063
1936.46,0.02039
1930.67,0.02072
1924.89,0.02047
1919.1,0.02058
1913.32,0.02049
1907.53,0.02049
1901.74,0.02049
1895.96,0.02068
1890.17,0.02045
1884.38,0.02050
1878.6,0.02004
1872.81,0.02048
1867.03,0.02039
1861.24,0.02007
1855.45,0.01989
1849.67,0.02016
1843.88,0.02034
1838.09,0.02003
1832.31,0.02029
1826.52,0.01996
1820.74,0.01982
1814.95,0.01980
1809.16,0.01978
1803.38,0.01981
1797.59,0.01949
1791.8,0.01923
1786.02,0.01893
1780.23,0.01870
1774.45,0.01887
1768.66,0.01814
1762.87,0.01811
1757.09,0.01757
1751.3,0.01736
1745.51,0.01766
1739.73,0.01843
1733.94,0.01960
1728.16,0.01998
1722.37,0.02083
1716.58,0.02110
1710.8,0.02029
1705.01,0.02028
1699.22,0.01868
1693.44,0.01911
1687.65,0.01923
1681.87,0.01877
1676.08,0.01856
1670.29,0.01831
1664.51,0.01876
1658.72,0.01831
1652.93,0.01805
1647.15,0.01864
1641.36,0.01828
1635.58,0.01820
1629.79,0.01782
1624,0.01865
1618.22,0.01848
1612.43,0.01831
1606.64,0.01873
1600.86,0.01879
1595.07,0.01888
1589.29,0.01863
1583.5,0.01860
1577.71,0.01849
1571.93,0.01807
1566.14,0.01807
1560.35,0.01855
1554.57,0.01802
1548.78,0.01799
1543,0.01895
1537.21,0.01797
1531.42,0.01831
1525.64,0.01860
1519.85,0.01892
1514.07,0.01888
1508.28,0.01870
1502.49,0.01898
1496.71,0.01872
1490.92,0.01868
1485.13,0.01893
1479.35,0.01844
1473.56,0.01854
1467.78,0.01843
1461.99,0.01868
1456.2,0.01899
1450.42,0.01839
1444.63,0.01888
1438.84,0.01840
1433.06,0.01872
1427.27,0.01844
1421.49,0.01828
1415.7,0.01784
1409.91,0.01855
1404.13,0.01839
1398.34,0.01798
1392.55,0.01777
1386.77,0.01799
1380.98,0.01814
1375.2,0.01820
1369.41,0.01812
1363.62,0.01842
1357.84,0.01804
1352.05,0.01787
1346.26,0.01771
1340.48,0.01782
1334.69,0.01737
1328.91,0.01739
1323.12,0.01723
1317.33,0.01723
1311.55,0.01661
1305.76,0.01706
1299.97,0.01730
1294.19,0.01762
1288.4,0.01811
1282.62,0.01869
1276.83,0.01900
1271.04,0.01874
1265.26,0.01912
1259.47,0.01945
1253.68,0.01975
1247.9,0.02003
1242.11,0.01958
1236.33,0.01941
1230.54,0.01982
1224.75,0.01889
1218.97,0.01897
1213.18,0.01864
1207.39,0.01879
1201.61,0.01825
1195.82,0.01844
1190.04,0.01758
1184.25,0.01785
1178.46,0.01819
1172.68,0.01774
1166.89,0.01798
1161.1,0.01761
1155.32,0.01757
1149.53,0.01780
1143.75,0.01797
1137.96,0.01762
1132.17,0.01796
1126.39,0.01802
1120.6,0.01856
1114.81,0.01912
1109.03,0.01876
1103.24,0.01851
1097.46,0.01803
1091.67,0.01758
1085.88,0.01872
1080.1,0.01842
1074.31,0.01910
1068.52,0.01958
1062.74,0.01973
1056.95,0.01959
1051.17,0.01881
1045.38,0.01934
1039.59,0.01979
1033.81,0.01957
1028.02,0.01909
1022.24,0.01859
1016.45,0.01895
1010.66,0.02016
1004.88,0.02004
999.09,0.02119
993.304,0.02061
987.518,0.02125
981.731,0.02022
975.945,0.02025
970.159,0.01989
964.373,0.01964
958.586,0.01976
952.8,0.01929
947.014,0.01945
941.228,0.01982
935.441,0.01932
929.655,0.01928
923.869,0.01885
918.083,0.01941
912.297,0.01869
906.51,0.01960
900.724,0.01925
894.938,0.01815
889.152,0.01868
883.365,0.01943
877.579,0.01918
871.793,0.01890
866.007,0.01916
860.22,0.01866
854.434,0.01928
848.648,0.01946
842.862,0.01795
837.075,0.01885
831.289,0.01835
825.503,0.01757
819.717,0.01873
813.931,0.01870
808.144,0.01846
802.358,0.01876
796.572,0.01866
790.786,0.01882
784.999,0.01851
779.213,0.01864
773.427,0.01905
767.641,0.01802
761.854,0.01805
756.068,0.01816
750.282,0.01835
744.496,0.01838
738.709,0.01916
732.923,0.01864
727.137,0.01837
721.351,0.01765
715.565,0.01866
709.778,0.01825
703.992,0.01719
698.206,0.01843
692.42,0.01946
686.633,0.01807
680.847,0.01784
675.061,0.01769
669.275,0.01690
663.488,0.01507
657.702,0.01797
651.916,0.01744
646.13,0.01687
640.343,0.01872
634.557,0.01788
628.771,0.01759
622.985,0.01712
617.198,0.01617
611.412,0.01260
605.626,0.01713
599.84,0.01523