File: 01_Data/PlasticA/FTIR/IS/PlasticA_IS_S_220906_R6.dpt
7497.03,0.71052
7491.25,0.71189
7485.46,0.71601
7479.67,0.71222
7473.89,0.71589
7468.1,0.70663
7462.32,0.70320
7456.53,0.70383
7450.74,0.70711
7444.96,0.69546
7439.17,0.69535
7433.38,0.68959
7427.6,0.69255
7421.81,0.70678
7416.03,0.70528
7410.24,0.69800
7404.45,0.70160
7398.67,0.68253
7392.88,0.68765
7387.09,0.69498
7381.31,0.70002
7375.52,0.69777
7369.74,0.69392
7363.95,0.69415
7358.16,0.69023
7352.38,0.68827
7346.59,0.68665
7340.8,0.68733
7335.02,0.68065
7329.23,0.67902
7323.45,0.67754
7317.66,0.67930
7311.87,0.68428
7306.09,0.67127
7300.3,0.67116
7294.51,0.66441
7288.73,0.65219
7282.94,0.65985
7277.16,0.64867
7271.37,0.64297
7265.58,0.64348
7259.8,0.65161
7254.01,0.63796
7248.22,0.64337
7242.44,0.64850
7236.65,0.64061
7230.87,0.63342
7225.08,0.63309
7219.29,0.62977
7213.51,0.63011
7207.72,0.62639
7201.93,0.63062
7196.15,0.62063
7190.36,0.62774
7184.58,0.62893
7178.79,0.61767
7173,0.61805
7167.22,0.61978
7161.43,0.62187
7155.65,0.61151
7149.86,0.61262
7144.07,0.61694
7138.29,0.61070
7132.5,0.61396
7126.71,0.60820
7120.93,0.61228
7115.14,0.59797
7109.36,0.60228
7103.57,0.60722
7097.78,0.59764
7092,0.59167
7086.21,0.59829
7080.42,0.60246
7074.64,0.60105
7068.85,0.59852
7063.07,0.59740
7057.28,0.59641
7051.49,0.59094
7045.71,0.59438
7039.92,0.60446
7034.13,0.59732
7028.35,0.60220
7022.56,0.60511
7016.78,0.60595
7010.99,0.59706
7005.2,0.60193
6999.42,0.60594
6993.63,0.60933
6987.84,0.60477
6982.06,0.60969
6976.27,0.61141
6970.49,0.61759
6964.7,0.61519
6958.91,0.61342
6953.13,0.61657
6947.34,0.61499
6941.55,0.61824
6935.77,0.62242
6929.98,0.61953
6924.2,0.61776
6918.41,0.62580
6912.62,0.62032
6906.84,0.62485
6901.05,0.62683
6895.26,0.62401
6889.48,0.63100
6883.69,0.62906
6877.91,0.63242
6872.12,0.63231
6866.33,0.62920
6860.55,0.62934
6854.76,0.63742
6848.97,0.63481
6843.19,0.64107
6837.4,0.63719
6831.62,0.63874
6825.83,0.63667
6820.04,0.63653
6814.26,0.63773
6808.47,0.64244
6802.68,0.63517
6796.9,0.63548
6791.11,0.63631
6785.33,0.63981
6779.54,0.64559
6773.75,0.64991
6767.97,0.63885
6762.18,0.64187
6756.39,0.64082
6750.61,0.63973
6744.82,0.64373
6739.04,0.64261
6733.25,0.64227
6727.46,0.64775
6721.68,0.64692
6715.89,0.64807
6710.1,0.64725
6704.32,0.64598
6698.53,0.64885
6692.75,0.65242
6686.96,0.64674
6681.17,0.65082
6675.39,0.65212
6669.6,0.65185
6663.82,0.64879
6658.03,0.65227
6652.24,0.65917
6646.46,0.65743
6640.67,0.65350
6634.88,0.65029
6629.1,0.65837
6623.31,0.65411
6617.53,0.65142
6611.74,0.65478
6605.95,0.65725
6600.17,0.65164
6594.38,0.65212
6588.59,0.65675
6582.81,0.65709
6577.02,0.65462
6571.24,0.65518
6565.45,0.66041
6559.66,0.65471
6553.88,0.65818
6548.09,0.65596
6542.3,0.65605
6536.52,0.65574
6530.73,0.65601
6524.95,0.65545
6519.16,0.65209
6513.37,0.65595
6507.59,0.65736
6501.8,0.65612
6496.01,0.65486
6490.23,0.65670
6484.44,0.65525
6478.66,0.65842
6472.87,0.65583
6467.08,0.65790
6461.3,0.65946
6455.51,0.66082
6449.72,0.66025
6443.94,0.65806
6438.15,0.65704
6432.37,0.65931
6426.58,0.65867
6420.79,0.65717
6415.01,0.65705
6409.22,0.65607
6403.43,0.65239
6397.65,0.65575
6391.86,0.65416
6386.08,0.65288
6380.29,0.64832
6374.5,0.64722
6368.72,0.64626
6362.93,0.64541
6357.14,0.64038
6351.36,0.63885
6345.57,0.64744
6339.79,0.64217
6334,0.64230
6328.21,0.64538
6322.43,0.64235
6316.64,0.64249
6310.85,0.64572
6305.07,0.63576
6299.28,0.64248
6293.5,0.63794
6287.71,0.63723
6281.92,0.63635
6276.14,0.63968
6270.35,0.63532
6264.56,0.62847
6258.78,0.62805
6252.99,0.62623
6247.21,0.62991
6241.42,0.62512
6235.63,0.62248
6229.85,0.62056
6224.06,0.61551
6218.27,0.61183
6212.49,0.60922
6206.7,0.60698
6200.92,0.60490
6195.13,0.60105
6189.34,0.59346
6183.56,0.58607
6177.77,0.57983
6171.98,0.57212
6166.2,0.55968
6160.41,0.54938
6154.63,0.53731
6148.84,0.52194
6143.05,0.51046
6137.27,0.49869
6131.48,0.48672
6125.7,0.46663
6119.91,0.45187
6114.12,0.44552
6108.34,0.43887
6102.55,0.44400
6096.76,0.45419
6090.98,0.46286
6085.19,0.46299
6079.41,0.46021
6073.62,0.46187
6067.83,0.47304
6062.05,0.47623
6056.26,0.47424
6050.47,0.46940
6044.69,0.45664
6038.9,0.43676
6033.12,0.41947
6027.33,0.39855
6021.54,0.37902
6015.76,0.35855
6009.97,0.34283
6004.18,0.32700
5998.4,0.31359
5992.61,0.29963
5986.83,0.29237
5981.04,0.27781
5975.25,0.27153
5969.47,0.26825
5963.68,0.26684
5957.89,0.26593
5952.11,0.26490
5946.32,0.26867
5940.54,0.27291
5934.75,0.27784
5928.96,0.27989
5923.18,0.28183
5917.39,0.28454
5911.6,0.28397
5905.82,0.28295
5900.03,0.28536
5894.25,0.28438
5888.46,0.28975
5882.67,0.29198
5876.89,0.29591
5871.1,0.29623
5865.31,0.29740
5859.53,0.29525
5853.74,0.29657
5847.96,0.29574
5842.17,0.29628
5836.38,0.29379
5830.6,0.29452
5824.81,0.29377
5819.02,0.29393
5813.24,0.29351
5807.45,0.29377
5801.67,0.29443
5795.88,0.29650
5790.09,0.29939
5784.31,0.30209
5778.52,0.30925
5772.73,0.31692
5766.95,0.32555
5761.16,0.33538
5755.38,0.34233
5749.59,0.34038
5743.8,0.34229
5738.02,0.33844
5732.23,0.33323
5726.44,0.32390
5720.66,0.31606
5714.87,0.30915
5709.09,0.30608
5703.3,0.30277
5697.51,0.30166
5691.73,0.30241
5685.94,0.30262
5680.15,0.30347
5674.37,0.30506
5668.58,0.30972
5662.8,0.31109
5657.01,0.31344
5651.22,0.31926
5645.44,0.32282
5639.65,0.32867
5633.87,0.33475
5628.08,0.33836
5622.29,0.34030
5616.51,0.34357
5610.72,0.34385
5604.93,0.34560
5599.15,0.34590
5593.36,0.34598
5587.58,0.34932
5581.79,0.35487
5576,0.35826
5570.22,0.36181
5564.43,0.36091
5558.64,0.36373
5552.86,0.36442
5547.07,0.36662
5541.29,0.36597
5535.5,0.36639
5529.71,0.36676
5523.93,0.36760
5518.14,0.36834
5512.35,0.36821
5506.57,0.36879
5500.78,0.37146
5495,0.37226
5489.21,0.37346
5483.42,0.37436
5477.64,0.37651
5471.85,0.37605
5466.06,0.37462
5460.28,0.37663
5454.49,0.37696
5448.71,0.37790
5442.92,0.37641
5437.13,0.37575
5431.35,0.37511
5425.56,0.37570
5419.77,0.37539
5413.99,0.37409
5408.2,0.37393
5402.42,0.37348
5396.63,0.37364
5390.84,0.37374
5385.06,0.37220
5379.27,0.37090
5373.48,0.37256
5367.7,0.37295
5361.91,0.37657
5356.13,0.37866
5350.34,0.37984
5344.55,0.38236
5338.77,0.38318
5332.98,0.38301
5327.19,0.38423
5321.41,0.38532
5315.62,0.38476
5309.84,0.38597
5304.05,0.38303
5298.26,0.38194
5292.48,0.37955
5286.69,0.37595
5280.9,0.37175
5275.12,0.36398
5269.33,0.35787
5263.55,0.35125
5257.76,0.34551
5251.97,0.34269
5246.19,0.34296
5240.4,0.34619
5234.61,0.34878
5228.83,0.35287
5223.04,0.35875
5217.26,0.36365
5211.47,0.36847
5205.68,0.37271
5199.9,0.37263
5194.11,0.37271
5188.32,0.37231
5182.54,0.37138
5176.75,0.36955
5170.97,0.36683
5165.18,0.36418
5159.39,0.36133
5153.61,0.35729
5147.82,0.35438
5142.03,0.35106
5136.25,0.35371
5130.46,0.36121
5124.68,0.36824
5118.89,0.37214
5113.1,0.37782
5107.32,0.37937
5101.53,0.38217
5095.75,0.38364
5089.96,0.38328
5084.17,0.38425
5078.39,0.38665
5072.6,0.38582
5066.81,0.38602
5061.03,0.38729
5055.24,0.38598
5049.46,0.38688
5043.67,0.38800
5037.88,0.38684
5032.1,0.38657
5026.31,0.38689
5020.52,0.38737
5014.74,0.38732
5008.95,0.38757
5003.17,0.38649
4997.38,0.38527
4991.59,0.38336
4985.81,0.38110
4980.02,0.37965
4974.23,0.37939
4968.45,0.37577
4962.66,0.37458
4956.88,0.37477
4951.09,0.37528
4945.3,0.37631
4939.52,0.37569
4933.73,0.37581
4927.94,0.37409
4922.16,0.37368
4916.37,0.37532
4910.59,0.37358
4904.8,0.37378
4899.01,0.37247
4893.23,0.36909
4887.44,0.36666
4881.65,0.36284
4875.87,0.36137
4870.08,0.36176
4864.3,0.36300
4858.51,0.36429
4852.72,0.36488
4846.94,0.36402
4841.15,0.36456
4835.36,0.36475
4829.58,0.36526
4823.79,0.36587
4818.01,0.36545
4812.22,0.36674
4806.43,0.36574
4800.65,0.36294
4794.86,0.36025
4789.07,0.35751
4783.29,0.35425
4777.5,0.34962
4771.72,0.34328
4765.93,0.33994
4760.14,0.33577
4754.36,0.33459
4748.57,0.33142
4742.78,0.32581
4737,0.31721
4731.21,0.30344
4725.43,0.28828
4719.64,0.27168
4713.85,0.26358
4708.07,0.26310
4702.28,0.26308
4696.49,0.25617
4690.71,0.24453
4684.92,0.22362
4679.14,0.19676
4673.35,0.17511
4667.56,0.16562
4661.78,0.16847
4655.99,0.18021
4650.2,0.19082
4644.42,0.19114
4638.63,0.18333
4632.85,0.17411
4627.06,0.16859
4621.27,0.16955
4615.49,0.16704
4609.7,0.16392
4603.92,0.16762
4598.13,0.18179
4592.34,0.19461
4586.56,0.19729
4580.77,0.18829
4574.98,0.18026
4569.2,0.18737
4563.41,0.20545
4557.63,0.21775
4551.84,0.22735
4546.05,0.23434
4540.27,0.23337
4534.48,0.23363
4528.69,0.23539
4522.91,0.23317
4517.12,0.23100
4511.34,0.22827
4505.55,0.22696
4499.76,0.22670
4493.98,0.22259
4488.19,0.21238
4482.4,0.20308
4476.62,0.20022
4470.83,0.20790
4465.05,0.21451
4459.26,0.21273
4453.47,0.20629
4447.69,0.20143
4441.9,0.19932
4436.11,0.19744
4430.33,0.19396
4424.54,0.18744
4418.76,0.18100
4412.97,0.17368
4407.18,0.16651
4401.4,0.15870
4395.61,0.15083
4389.82,0.14429
4384.04,0.13814
4378.25,0.13208
4372.47,0.12729
4366.68,0.12275
4360.89,0.11902
4355.11,0.11663
4349.32,0.11528
4343.53,0.11382
4337.75,0.11306
4331.96,0.11342
4326.18,0.11358
4320.39,0.11533
4314.6,0.11794
4308.82,0.11840
4303.03,0.11785
4297.24,0.11652
4291.46,0.11472
4285.67,0.11281
4279.89,0.11100
4274.1,0.10910
4268.31,0.10762
4262.53,0.10516
4256.74,0.10255
4250.95,0.10136
4245.17,0.10222
4239.38,0.10249
4233.6,0.10405
4227.81,0.10413
4222.02,0.10480
4216.24,0.10547
4210.45,0.10548
4204.66,0.10674
4198.88,0.10763
4193.09,0.10911
4187.31,0.11075
4181.52,0.11160
4175.73,0.11312
4169.95,0.11482
4164.16,0.11587
4158.37,0.11633
4152.59,0.11633
4146.8,0.11674
4141.02,0.11608
4135.23,0.11520
4129.44,0.11388
4123.66,0.11325
4117.87,0.11240
4112.09,0.11098
4106.3,0.11111
4100.51,0.10911
4094.73,0.10826
4088.94,0.10558
4083.15,0.10290
4077.37,0.09883
4071.58,0.09434
4065.8,0.09123
4060.01,0.08958
4054.22,0.08906
4048.44,0.08891
4042.65,0.08803
4036.86,0.08866
4031.08,0.09267
4025.29,0.09593
4019.51,0.10167
4013.72,0.10726
4007.93,0.10951
4002.15,0.11025
3996.36,0.11299
3990.57,0.11515
3984.79,0.11492
3979,0.11568
3973.22,0.11560
3967.43,0.11719
3961.64,0.11808
3955.86,0.11793
3950.07,0.11802
3944.28,0.11690
3938.5,0.11648
3932.71,0.11635
3926.93,0.11675
3921.14,0.11746
3915.35,0.11679
3909.57,0.11791
3903.78,0.11816
3897.99,0.11883
3892.21,0.12070
3886.42,0.12107
3880.64,0.12151
3874.85,0.12226
3869.06,0.12288
3863.28,0.12303
3857.49,0.12267
3851.7,0.12179
3845.92,0.12110
3840.13,0.12000
3834.35,0.11903
3828.56,0.11822
3822.77,0.11817
3816.99,0.11769
3811.2,0.11803
3805.41,0.11793
3799.63,0.11889
3793.84,0.12090
3788.06,0.12142
3782.27,0.12233
3776.48,0.12198
3770.7,0.12110
3764.91,0.12132
3759.12,0.12215
3753.34,0.12328
3747.55,0.12274
3741.77,0.12235
3735.98,0.12125
3730.19,0.11878
3724.41,0.11601
3718.62,0.11532
3712.83,0.11556
3707.05,0.11260
3701.26,0.10943
3695.48,0.10741
3689.69,0.10432
3683.9,0.09785
3678.12,0.09379
3672.33,0.09013
3666.54,0.08696
3660.76,0.08398
3654.97,0.08251
3649.19,0.08162
3643.4,0.08172
3637.61,0.08301
3631.83,0.08403
3626.04,0.08405
3620.25,0.08427
3614.47,0.08484
3608.68,0.08624
3602.9,0.08689
3597.11,0.08743
3591.32,0.08717
3585.54,0.08656
3579.75,0.08439
3573.97,0.08356
3568.18,0.08338
3562.39,0.08191
3556.61,0.08089
3550.82,0.08022
3545.03,0.07861
3539.25,0.07952
3533.46,0.07921
3527.68,0.07938
3521.89,0.08002
3516.1,0.08052
3510.32,0.08046
3504.53,0.08171
3498.74,0.08153
3492.96,0.08158
3487.17,0.08121
3481.39,0.08236
3475.6,0.08285
3469.81,0.08274
3464.03,0.08207
3458.24,0.08292
3452.45,0.08244
3446.67,0.08183
3440.88,0.08235
3435.1,0.08189
3429.31,0.08170
3423.52,0.08239
3417.74,0.08178
3411.95,0.08181
3406.16,0.08195
3400.38,0.08197
3394.59,0.08137
3388.81,0.08137
3383.02,0.08154
3377.23,0.08178
3371.45,0.08112
3365.66,0.08138
3359.87,0.08164
3354.09,0.08179
3348.3,0.08142
3342.52,0.08082
3336.73,0.08066
3330.94,0.08026
3325.16,0.07831
3319.37,0.07698
3313.58,0.07352
3307.8,0.06826
3302.01,0.06406
3296.23,0.06535
3290.44,0.06821
3284.65,0.07164
3278.87,0.07419
3273.08,0.07542
3267.29,0.07695
3261.51,0.07774
3255.72,0.07862
3249.94,0.07825
3244.15,0.07807
3238.36,0.07797
3232.58,0.07766
3226.79,0.07679
3221,0.07688
3215.22,0.07662
3209.43,0.07656
3203.65,0.07590
3197.86,0.07563
3192.07,0.07537
3186.29,0.07601
3180.5,0.07551
3174.71,0.07585
3168.93,0.07444
3163.14,0.07360
3157.36,0.07458
3151.57,0.07443
3145.78,0.07358
3140,0.07309
3134.21,0.07285
3128.42,0.07198
3122.64,0.07033
3116.85,0.06846
3111.07,0.06526
3105.28,0.06357
3099.49,0.06372
3093.71,0.06266
3087.92,0.06073
3082.14,0.06024
3076.35,0.06060
3070.56,0.06014
3064.78,0.06004
3058.99,0.06004
3053.2,0.06091
3047.42,0.06083
3041.63,0.05978
3035.85,0.05932
3030.06,0.05892
3024.27,0.05985
3018.49,0.06000
3012.7,0.06002
3006.91,0.05922
3001.13,0.05957
2995.34,0.06006
2989.56,0.05915
2983.77,0.05927
2977.98,0.05889
2972.2,0.05924
2966.41,0.05853
2960.62,0.05858
2954.84,0.05857
2949.05,0.05813
2943.27,0.05883
2937.48,0.05910
2931.69,0.06047
2925.91,0.06167
2920.12,0.06217
2914.33,0.06235
2908.55,0.06161
2902.76,0.06137
2896.98,0.06123
2891.19,0.06147
2885.4,0.06141
2879.62,0.06174
2873.83,0.06176
2868.04,0.06183
2862.26,0.06166
2856.47,0.06173
2850.69,0.06289
2844.9,0.06243
2839.11,0.06235
2833.33,0.06211
2827.54,0.06250
2821.75,0.06392
2815.97,0.06416
2810.18,0.06483
2804.4,0.06539
2798.61,0.06611
2792.82,0.06623
2787.04,0.06657
2781.25,0.06704
2775.46,0.06815
2769.68,0.06828
2763.89,0.06894
2758.11,0.06939
2752.32,0.06943
2746.53,0.06953
2740.75,0.06931
2734.96,0.06933
2729.17,0.06918
2723.39,0.06924
2717.6,0.06899
2711.82,0.06905
2706.03,0.06900
2700.24,0.06891
2694.46,0.06904
2688.67,0.06901
2682.88,0.06829
2677.1,0.06835
2671.31,0.06824
2665.53,0.06802
2659.74,0.06822
2653.95,0.06855
2648.17,0.06833
2642.38,0.06847
2636.59,0.06790
2630.81,0.06768
2625.02,0.06904
2619.24,0.06863
2613.45,0.06877
2607.66,0.06851
2601.88,0.06872
2596.09,0.06929
2590.3,0.06959
2584.52,0.06932
2578.73,0.06967
2572.95,0.06956
2567.16,0.06972
2561.37,0.06973
2555.59,0.06946
2549.8,0.06927
2544.02,0.06900
2538.23,0.06987
2532.44,0.06943
2526.66,0.06885
2520.87,0.06874
2515.08,0.06898
2509.3,0.06897
2503.51,0.06922
2497.73,0.06911
2491.94,0.06963
2486.15,0.06987
2480.37,0.07056
2474.58,0.07076
2468.79,0.07066
2463.01,0.07085
2457.22,0.07074
2451.44,0.07040
2445.65,0.07034
2439.86,0.07010
2434.08,0.07046
2428.29,0.07031
2422.5,0.06982
2416.72,0.06987
2410.93,0.06943
2405.15,0.06925
2399.36,0.06889
2393.57,0.06965
2387.79,0.06898
2382,0.06860
2376.21,0.06889
2370.43,0.06881
2364.64,0.06861
2358.86,0.06852
2353.07,0.06806
2347.28,0.06659
2341.5,0.06640
2335.71,0.06664
2329.92,0.06774
2324.14,0.06734
2318.35,0.06693
2312.57,0.06688
2306.78,0.06675
2300.99,0.06681
2295.21,0.06716
2289.42,0.06732
2283.63,0.06731
2277.85,0.06684
2272.06,0.06637
2266.28,0.06566
2260.49,0.06487
2254.7,0.06256
2248.92,0.06102
2243.13,0.06000
2237.34,0.06032
2231.56,0.06136
2225.77,0.06336
2219.99,0.06562
2214.2,0.06706
2208.41,0.06714
2202.63,0.06819
2196.84,0.06805
2191.05,0.06726
2185.27,0.06727
2179.48,0.06820
2173.7,0.06923
2167.91,0.06959
2162.12,0.06955
2156.34,0.06980
2150.55,0.06965
2144.76,0.06995
2138.98,0.07001
2133.19,0.06959
2127.41,0.06977
2121.62,0.06925
2115.83,0.06896
2110.05,0.06925
2104.26,0.06938
2098.47,0.06899
2092.69,0.06924
2086.9,0.06893
2081.12,0.06885
2075.33,0.06841
2069.54,0.06841
2063.76,0.06787
2057.97,0.06792
2052.19,0.06783
2046.4,0.06747
2040.61,0.06703
2034.83,0.06669
2029.04,0.06665
2023.25,0.06619
2017.47,0.06579
2011.68,0.06523
2005.9,0.06497
2000.11,0.06389
1994.32,0.06340
1988.54,0.06249
1982.75,0.06203
1976.96,0.06157
1971.18,0.06095
1965.39,0.06082
1959.61,0.06077
1953.82,0.06072
1948.03,0.06106
1942.25,0.06155
1936.46,0.06151
1930.67,0.06224
1924.89,0.06259
1919.1,0.06249
1913.32,0.06193
1907.53,0.06134
1901.74,0.06076
1895.96,0.06087
1890.17,0.06044
1884.38,0.06004
1878.6,0.06000
1872.81,0.06028
1867.03,0.06081
1861.24,0.06126
1855.45,0.06164
1849.67,0.06181
1843.88,0.06131
1838.09,0.06055
1832.31,0.06020
1826.52,0.05997
1820.74,0.05961
1814.95,0.05961
1809.16,0.05962
1803.38,0.05957
1797.59,0.06009
1791.8,0.06034
1786.02,0.05998
1780.23,0.06022
1774.45,0.06023
1768.66,0.05976
1762.87,0.05916
1757.09,0.05904
1751.3,0.05963
1745.51,0.05907
1739.73,0.05945
1733.94,0.06024
1728.16,0.06008
1722.37,0.06030
1716.58,0.06091
1710.8,0.06070
1705.01,0.06121
1699.22,0.06106
1693.44,0.06030
1687.65,0.06014
1681.87,0.05986
1676.08,0.05969
1670.29,0.05993
1664.51,0.06019
1658.72,0.06037
1652.93,0.06083
1647.15,0.06023
1641.36,0.05933
1635.58,0.06031
1629.79,0.06056
1624,0.06029
1618.22,0.06011
1612.43,0.05939
1606.64,0.05926
1600.86,0.06021
1595.07,0.06045
1589.29,0.06006
1583.5,0.05943
1577.71,0.05984
1571.93,0.05975
1566.14,0.05934
1560.35,0.05911
1554.57,0.05874
1548.78,0.05873
1543,0.05919
1537.21,0.05873
1531.42,0.05904
1525.64,0.05895
1519.85,0.05779
1514.07,0.05763
1508.28,0.05789
1502.49,0.05645
1496.71,0.05590
1490.92,0.05985
1485.13,0.05929
1479.35,0.05847
1473.56,0.05843
1467.78,0.05787
1461.99,0.05605
1456.2,0.05553
1450.42,0.06027
1444.63,0.06188
1438.84,0.06160
1433.06,0.06132
1427.27,0.06115
1421.49,0.06106
1415.7,0.06052
1409.91,0.06037
1404.13,0.06016
1398.34,0.06020
1392.55,0.05988
1386.77,0.05971
1380.98,0.05953
1375.2,0.05960
1369.41,0.05967
1363.62,0.06015
1357.84,0.06010
1352.05,0.05963
1346.26,0.05990
1340.48,0.05960
1334.69,0.05944
1328.91,0.05953
1323.12,0.05990
1317.33,0.05982
1311.55,0.05990
1305.76,0.05989
1299.97,0.05988
1294.19,0.05995
1288.4,0.06023
1282.62,0.05986
1276.83,0.06052
1271.04,0.06063
1265.26,0.06073
1259.47,0.06052
1253.68,0.06005
1247.9,0.06037
1242.11,0.06020
1236.33,0.05955
1230.54,0.05979
1224.75,0.06007
1218.97,0.05985
1213.18,0.05988
1207.39,0.06001
1201.61,0.05985
1195.82,0.06024
1190.04,0.05993
1184.25,0.05984
1178.46,0.06035
1172.68,0.05990
1166.89,0.06013
1161.1,0.06010
1155.32,0.06040
1149.53,0.06009
1143.75,0.06000
1137.96,0.06038
1132.17,0.06006
1126.39,0.05974
1120.6,0.05958
1114.81,0.05928
1109.03,0.05914
1103.24,0.06003
1097.46,0.05975
1091.67,0.05956
1085.88,0.05913
1080.1,0.05918
1074.31,0.05970
1068.52,0.06021
1062.74,0.05975
1056.95,0.06005
1051.17,0.06043
1045.38,0.05971
1039.59,0.06033
1033.81,0.05960
1028.02,0.06017
1022.24,0.06081
1016.45,0.06060
1010.66,0.06005
1004.88,0.05938
999.09,0.05909
993.304,0.05932
987.518,0.05833
981.731,0.05826
975.945,0.05797
970.159,0.05681
964.373,0.05893
958.586,0.06175
952.8,0.06149
947.014,0.06145
941.228,0.06099
935.441,0.06019
929.655,0.05995
923.869,0.05925
918.083,0.05814
912.297,0.05814
906.51,0.06029
900.724,0.06014
894.938,0.05986
889.152,0.05892
883.365,0.05963
877.579,0.05944
871.793,0.05903
866.007,0.05874
860.22,0.05827
854.434,0.05780
848.648,0.05762
842.862,0.05800
837.075,0.05811
831.289,0.05732
825.503,0.05688
819.717,0.05687
813.931,0.05649
808.144,0.05569
802.358,0.05622
796.572,0.05466
790.786,0.05419
784.999,0.05300
779.213,0.05107
773.427,0.05043
767.641,0.05131
761.854,0.05554
756.068,0.05942
750.282,0.05917
744.496,0.05795
738.709,0.05678
732.923,0.05596
727.137,0.05353
721.351,0.05169
715.565,0.04812
709.778,0.04410
703.992,0.05802
698.206,0.08147
692.42,0.07436
686.633,0.06810
680.847,0.06489
675.061,0.06451
669.275,0.06393
663.488,0.06241
657.702,0.06128
651.916,0.06179
646.13,0.06163
640.343,0.06037
634.557,0.06208
628.771,0.06059
622.985,0.06075
617.198,0.06203
611.412,0.06042
605.626,0.06123
599.84,0.06074