File: 01_Data/PlasticA/FTIR/IS/PlasticA_IS_S_220906_R4.dpt
7497.03,0.71001
7491.25,0.71111
7485.46,0.70758
7479.67,0.70827
7473.89,0.71028
7468.1,0.69748
7462.32,0.70384
7456.53,0.70287
7450.74,0.70282
7444.96,0.69701
7439.17,0.69669
7433.38,0.69935
7427.6,0.69780
7421.81,0.70079
7416.03,0.70179
7410.24,0.69584
7404.45,0.69542
7398.67,0.68943
7392.88,0.68992
7387.09,0.69313
7381.31,0.69468
7375.52,0.69105
7369.74,0.69514
7363.95,0.68268
7358.16,0.69603
7352.38,0.70833
7346.59,0.68390
7340.8,0.68702
7335.02,0.68473
7329.23,0.67997
7323.45,0.67550
7317.66,0.67527
7311.87,0.67214
7306.09,0.67090
7300.3,0.67114
7294.51,0.67511
7288.73,0.65676
7282.94,0.65897
7277.16,0.65331
7271.37,0.66667
7265.58,0.64808
7259.8,0.65242
7254.01,0.64600
7248.22,0.65153
7242.44,0.62957
7236.65,0.63585
7230.87,0.63695
7225.08,0.63672
7219.29,0.63168
7213.51,0.63035
7207.72,0.62057
7201.93,0.62850
7196.15,0.62587
7190.36,0.62656
7184.58,0.61824
7178.79,0.62179
7173,0.61638
7167.22,0.61465
7161.43,0.62561
7155.65,0.61746
7149.86,0.61779
7144.07,0.61417
7138.29,0.61355
7132.5,0.61256
7126.71,0.60682
7120.93,0.60454
7115.14,0.60237
7109.36,0.59746
7103.57,0.59983
7097.78,0.60230
7092,0.60018
7086.21,0.59382
7080.42,0.59382
7074.64,0.59793
7068.85,0.59833
7063.07,0.59243
7057.28,0.60013
7051.49,0.60183
7045.71,0.60145
7039.92,0.59709
7034.13,0.60590
7028.35,0.60391
7022.56,0.60443
7016.78,0.60516
7010.99,0.60466
7005.2,0.60216
6999.42,0.60860
6993.63,0.60883
6987.84,0.60269
6982.06,0.61406
6976.27,0.61729
6970.49,0.61563
6964.7,0.61559
6958.91,0.61412
6953.13,0.61658
6947.34,0.61617
6941.55,0.61570
6935.77,0.62330
6929.98,0.62072
6924.2,0.62097
6918.41,0.62355
6912.62,0.62410
6906.84,0.62338
6901.05,0.62767
6895.26,0.63467
6889.48,0.62954
6883.69,0.63081
6877.91,0.63682
6872.12,0.63202
6866.33,0.63138
6860.55,0.63989
6854.76,0.63716
6848.97,0.63428
6843.19,0.64210
6837.4,0.64015
6831.62,0.63631
6825.83,0.63744
6820.04,0.63992
6814.26,0.64132
6808.47,0.64487
6802.68,0.64390
6796.9,0.64138
6791.11,0.64192
6785.33,0.64326
6779.54,0.64216
6773.75,0.64175
6767.97,0.64878
6762.18,0.64767
6756.39,0.64752
6750.61,0.64386
6744.82,0.64527
6739.04,0.64629
6733.25,0.64538
6727.46,0.65102
6721.68,0.64804
6715.89,0.64542
6710.1,0.64983
6704.32,0.64928
6698.53,0.65388
6692.75,0.65032
6686.96,0.65003
6681.17,0.65493
6675.39,0.65526
6669.6,0.65846
6663.82,0.65409
6658.03,0.65248
6652.24,0.65239
6646.46,0.65446
6640.67,0.65555
6634.88,0.65669
6629.1,0.65977
6623.31,0.65287
6617.53,0.65358
6611.74,0.64560
6605.95,0.65261
6600.17,0.65339
6594.38,0.65456
6588.59,0.65598
6582.81,0.65832
6577.02,0.65828
6571.24,0.65491
6565.45,0.65520
6559.66,0.65758
6553.88,0.65783
6548.09,0.65697
6542.3,0.65696
6536.52,0.65650
6530.73,0.65914
6524.95,0.65539
6519.16,0.66054
6513.37,0.65959
6507.59,0.65461
6501.8,0.65531
6496.01,0.65663
6490.23,0.65512
6484.44,0.65465
6478.66,0.65938
6472.87,0.65682
6467.08,0.65698
6461.3,0.65493
6455.51,0.66414
6449.72,0.66028
6443.94,0.65874
6438.15,0.65805
6432.37,0.65562
6426.58,0.65485
6420.79,0.66101
6415.01,0.66023
6409.22,0.65337
6403.43,0.65859
6397.65,0.65785
6391.86,0.65599
6386.08,0.65429
6380.29,0.65363
6374.5,0.64718
6368.72,0.64816
6362.93,0.64745
6357.14,0.63990
6351.36,0.64591
6345.57,0.64232
6339.79,0.64259
6334,0.64287
6328.21,0.64675
6322.43,0.64465
6316.64,0.64175
6310.85,0.64215
6305.07,0.63969
6299.28,0.64223
6293.5,0.64074
6287.71,0.63967
6281.92,0.63875
6276.14,0.63976
6270.35,0.63788
6264.56,0.63601
6258.78,0.63403
6252.99,0.63044
6247.21,0.62996
6241.42,0.62836
6235.63,0.62464
6229.85,0.61983
6224.06,0.61768
6218.27,0.61897
6212.49,0.61496
6206.7,0.60956
6200.92,0.60936
6195.13,0.59975
6189.34,0.59454
6183.56,0.59121
6177.77,0.58667
6171.98,0.57418
6166.2,0.55993
6160.41,0.54934
6154.63,0.54077
6148.84,0.52461
6143.05,0.51260
6137.27,0.49718
6131.48,0.47991
6125.7,0.46739
6119.91,0.45470
6114.12,0.44848
6108.34,0.44387
6102.55,0.44360
6096.76,0.45683
6090.98,0.46413
6085.19,0.46646
6079.41,0.46435
6073.62,0.46540
6067.83,0.47287
6062.05,0.47674
6056.26,0.47878
6050.47,0.47084
6044.69,0.45544
6038.9,0.43994
6033.12,0.41744
6027.33,0.39935
6021.54,0.37989
6015.76,0.35682
6009.97,0.34219
6004.18,0.33015
5998.4,0.31238
5992.61,0.30041
5986.83,0.29020
5981.04,0.27728
5975.25,0.26983
5969.47,0.27044
5963.68,0.26703
5957.89,0.26570
5952.11,0.26533
5946.32,0.26723
5940.54,0.27222
5934.75,0.27686
5928.96,0.28259
5923.18,0.28278
5917.39,0.28314
5911.6,0.28424
5905.82,0.28355
5900.03,0.28344
5894.25,0.28674
5888.46,0.28632
5882.67,0.29496
5876.89,0.29704
5871.1,0.29963
5865.31,0.29681
5859.53,0.29786
5853.74,0.29567
5847.96,0.29734
5842.17,0.29569
5836.38,0.29796
5830.6,0.29789
5824.81,0.29660
5819.02,0.29482
5813.24,0.29481
5807.45,0.29422
5801.67,0.29529
5795.88,0.29703
5790.09,0.29917
5784.31,0.30318
5778.52,0.31000
5772.73,0.31780
5766.95,0.32660
5761.16,0.33374
5755.38,0.34112
5749.59,0.34227
5743.8,0.34311
5738.02,0.33671
5732.23,0.33202
5726.44,0.32573
5720.66,0.31807
5714.87,0.31240
5709.09,0.30739
5703.3,0.30265
5697.51,0.30097
5691.73,0.30164
5685.94,0.30303
5680.15,0.30348
5674.37,0.30618
5668.58,0.30965
5662.8,0.31075
5657.01,0.31646
5651.22,0.32117
5645.44,0.32549
5639.65,0.32892
5633.87,0.33453
5628.08,0.34021
5622.29,0.34085
5616.51,0.34445
5610.72,0.34565
5604.93,0.34677
5599.15,0.34843
5593.36,0.34953
5587.58,0.35173
5581.79,0.35508
5576,0.35808
5570.22,0.36188
5564.43,0.36374
5558.64,0.36325
5552.86,0.36426
5547.07,0.36481
5541.29,0.36773
5535.5,0.36834
5529.71,0.36750
5523.93,0.36818
5518.14,0.36867
5512.35,0.36899
5506.57,0.37029
5500.78,0.37113
5495,0.37233
5489.21,0.37418
5483.42,0.37580
5477.64,0.37745
5471.85,0.37781
5466.06,0.37672
5460.28,0.37710
5454.49,0.37687
5448.71,0.37790
5442.92,0.37779
5437.13,0.37681
5431.35,0.37583
5425.56,0.37486
5419.77,0.37580
5413.99,0.37568
5408.2,0.37515
5402.42,0.37377
5396.63,0.37409
5390.84,0.37307
5385.06,0.37325
5379.27,0.37390
5373.48,0.37393
5367.7,0.37466
5361.91,0.37681
5356.13,0.38015
5350.34,0.37981
5344.55,0.38171
5338.77,0.38471
5332.98,0.38425
5327.19,0.38678
5321.41,0.38604
5315.62,0.38640
5309.84,0.38397
5304.05,0.38362
5298.26,0.38270
5292.48,0.38050
5286.69,0.37806
5280.9,0.37080
5275.12,0.36462
5269.33,0.35782
5263.55,0.35189
5257.76,0.34466
5251.97,0.34195
5246.19,0.34326
5240.4,0.34491
5234.61,0.34806
5228.83,0.35467
5223.04,0.35891
5217.26,0.36435
5211.47,0.36828
5205.68,0.37292
5199.9,0.37320
5194.11,0.37490
5188.32,0.37461
5182.54,0.37218
5176.75,0.37262
5170.97,0.36852
5165.18,0.36426
5159.39,0.36162
5153.61,0.35871
5147.82,0.35408
5142.03,0.35298
5136.25,0.35470
5130.46,0.35973
5124.68,0.36717
5118.89,0.37501
5113.1,0.37842
5107.32,0.37926
5101.53,0.38324
5095.75,0.38339
5089.96,0.38368
5084.17,0.38576
5078.39,0.38714
5072.6,0.38693
5066.81,0.38674
5061.03,0.38768
5055.24,0.38844
5049.46,0.38662
5043.67,0.38691
5037.88,0.38859
5032.1,0.38795
5026.31,0.38856
5020.52,0.38812
5014.74,0.38903
5008.95,0.38776
5003.17,0.38675
4997.38,0.38493
4991.59,0.38449
4985.81,0.38287
4980.02,0.38190
4974.23,0.37982
4968.45,0.37871
4962.66,0.37578
4956.88,0.37623
4951.09,0.37536
4945.3,0.37673
4939.52,0.37634
4933.73,0.37628
4927.94,0.37497
4922.16,0.37585
4916.37,0.37511
4910.59,0.37549
4904.8,0.37319
4899.01,0.37303
4893.23,0.37046
4887.44,0.36695
4881.65,0.36514
4875.87,0.36270
4870.08,0.36283
4864.3,0.36385
4858.51,0.36487
4852.72,0.36484
4846.94,0.36527
4841.15,0.36448
4835.36,0.36523
4829.58,0.36488
4823.79,0.36618
4818.01,0.36596
4812.22,0.36676
4806.43,0.36479
4800.65,0.36305
4794.86,0.36129
4789.07,0.35920
4783.29,0.35522
4777.5,0.35037
4771.72,0.34535
4765.93,0.33996
4760.14,0.33660
4754.36,0.33521
4748.57,0.33292
4742.78,0.32627
4737,0.31742
4731.21,0.30418
4725.43,0.28742
4719.64,0.27226
4713.85,0.26436
4708.07,0.26336
4702.28,0.26128
4696.49,0.25708
4690.71,0.24519
4684.92,0.22444
4679.14,0.19640
4673.35,0.17515
4667.56,0.16688
4661.78,0.17047
4655.99,0.18072
4650.2,0.19071
4644.42,0.19235
4638.63,0.18468
4632.85,0.17502
4627.06,0.16924
4621.27,0.16991
4615.49,0.16758
4609.7,0.16482
4603.92,0.16919
4598.13,0.18135
4592.34,0.19444
4586.56,0.19774
4580.77,0.18980
4574.98,0.18105
4569.2,0.18784
4563.41,0.20535
4557.63,0.21699
4551.84,0.22797
4546.05,0.23548
4540.27,0.23545
4534.48,0.23373
4528.69,0.23449
4522.91,0.23420
4517.12,0.23148
4511.34,0.22900
4505.55,0.22654
4499.76,0.22793
4493.98,0.22350
4488.19,0.21281
4482.4,0.20409
4476.62,0.20188
4470.83,0.20817
4465.05,0.21425
4459.26,0.21361
4453.47,0.20722
4447.69,0.20223
4441.9,0.19839
4436.11,0.19746
4430.33,0.19360
4424.54,0.18877
4418.76,0.18111
4412.97,0.17385
4407.18,0.16666
4401.4,0.15914
4395.61,0.15192
4389.82,0.14441
4384.04,0.13913
4378.25,0.13297
4372.47,0.12714
4366.68,0.12279
4360.89,0.12031
4355.11,0.11727
4349.32,0.11608
4343.53,0.11358
4337.75,0.11291
4331.96,0.11326
4326.18,0.11437
4320.39,0.11626
4314.6,0.11863
4308.82,0.11918
4303.03,0.11845
4297.24,0.11674
4291.46,0.11445
4285.67,0.11321
4279.89,0.11105
4274.1,0.10924
4268.31,0.10633
4262.53,0.10425
4256.74,0.10259
4250.95,0.10235
4245.17,0.10272
4239.38,0.10396
4233.6,0.10423
4227.81,0.10457
4222.02,0.10498
4216.24,0.10641
4210.45,0.10645
4204.66,0.10605
4198.88,0.10822
4193.09,0.10957
4187.31,0.11100
4181.52,0.11215
4175.73,0.11386
4169.95,0.11524
4164.16,0.11592
4158.37,0.11646
4152.59,0.11650
4146.8,0.11657
4141.02,0.11575
4135.23,0.11535
4129.44,0.11473
4123.66,0.11380
4117.87,0.11223
4112.09,0.11089
4106.3,0.11086
4100.51,0.11024
4094.73,0.10888
4088.94,0.10635
4083.15,0.10373
4077.37,0.09941
4071.58,0.09548
4065.8,0.09164
4060.01,0.08962
4054.22,0.08856
4048.44,0.08885
4042.65,0.08778
4036.86,0.08859
4031.08,0.09226
4025.29,0.09647
4019.51,0.10158
4013.72,0.10810
4007.93,0.10986
4002.15,0.11080
3996.36,0.11353
3990.57,0.11537
3984.79,0.11601
3979,0.11595
3973.22,0.11588
3967.43,0.11738
3961.64,0.11782
3955.86,0.11791
3950.07,0.11805
3944.28,0.11802
3938.5,0.11711
3932.71,0.11738
3926.93,0.11693
3921.14,0.11725
3915.35,0.11851
3909.57,0.11860
3903.78,0.11854
3897.99,0.11969
3892.21,0.12045
3886.42,0.12132
3880.64,0.12256
3874.85,0.12243
3869.06,0.12248
3863.28,0.12226
3857.49,0.12293
3851.7,0.12231
3845.92,0.12151
3840.13,0.12097
3834.35,0.12032
3828.56,0.11864
3822.77,0.11771
3816.99,0.11880
3811.2,0.11888
3805.41,0.11835
3799.63,0.12018
3793.84,0.12041
3788.06,0.12118
3782.27,0.12214
3776.48,0.12201
3770.7,0.12097
3764.91,0.12101
3759.12,0.12271
3753.34,0.12375
3747.55,0.12408
3741.77,0.12262
3735.98,0.12218
3730.19,0.11886
3724.41,0.11626
3718.62,0.11462
3712.83,0.11572
3707.05,0.11254
3701.26,0.10942
3695.48,0.10676
3689.69,0.10365
3683.9,0.09764
3678.12,0.09298
3672.33,0.08971
3666.54,0.08578
3660.76,0.08327
3654.97,0.08155
3649.19,0.08089
3643.4,0.08101
3637.61,0.08240
3631.83,0.08376
3626.04,0.08264
3620.25,0.08299
3614.47,0.08477
3608.68,0.08561
3602.9,0.08654
3597.11,0.08693
3591.32,0.08569
3585.54,0.08520
3579.75,0.08484
3573.97,0.08356
3568.18,0.08341
3562.39,0.08159
3556.61,0.08099
3550.82,0.07966
3545.03,0.07954
3539.25,0.07838
3533.46,0.07849
3527.68,0.07888
3521.89,0.07887
3516.1,0.08024
3510.32,0.08002
3504.53,0.08061
3498.74,0.08097
3492.96,0.08153
3487.17,0.08142
3481.39,0.08132
3475.6,0.08225
3469.81,0.08237
3464.03,0.08233
3458.24,0.08159
3452.45,0.08243
3446.67,0.08190
3440.88,0.08174
3435.1,0.08277
3429.31,0.08236
3423.52,0.08249
3417.74,0.08220
3411.95,0.08198
3406.16,0.08146
3400.38,0.08150
3394.59,0.08095
3388.81,0.08160
3383.02,0.08195
3377.23,0.08178
3371.45,0.08197
3365.66,0.08214
3359.87,0.08202
3354.09,0.08195
3348.3,0.08170
3342.52,0.08180
3336.73,0.08032
3330.94,0.07986
3325.16,0.07940
3319.37,0.07638
3313.58,0.07365
3307.8,0.06856
3302.01,0.06420
3296.23,0.06469
3290.44,0.06795
3284.65,0.07169
3278.87,0.07376
3273.08,0.07525
3267.29,0.07679
3261.51,0.07797
3255.72,0.07836
3249.94,0.07808
3244.15,0.07859
3238.36,0.07823
3232.58,0.07759
3226.79,0.07787
3221,0.07729
3215.22,0.07642
3209.43,0.07550
3203.65,0.07504
3197.86,0.07575
3192.07,0.07592
3186.29,0.07593
3180.5,0.07587
3174.71,0.07571
3168.93,0.07416
3163.14,0.07411
3157.36,0.07353
3151.57,0.07425
3145.78,0.07404
3140,0.07345
3134.21,0.07301
3128.42,0.07203
3122.64,0.07080
3116.85,0.06885
3111.07,0.06529
3105.28,0.06324
3099.49,0.06293
3093.71,0.06249
3087.92,0.06049
3082.14,0.06013
3076.35,0.06053
3070.56,0.06017
3064.78,0.06049
3058.99,0.05956
3053.2,0.06084
3047.42,0.06067
3041.63,0.06059
3035.85,0.05953
3030.06,0.05928
3024.27,0.06008
3018.49,0.06099
3012.7,0.06041
3006.91,0.05956
3001.13,0.05967
2995.34,0.05992
2989.56,0.05978
2983.77,0.05946
2977.98,0.05855
2972.2,0.05876
2966.41,0.05913
2960.62,0.05822
2954.84,0.05870
2949.05,0.05874
2943.27,0.05903
2937.48,0.05922
2931.69,0.05933
2925.91,0.06146
2920.12,0.06238
2914.33,0.06200
2908.55,0.06173
2902.76,0.06195
2896.98,0.06142
2891.19,0.06155
2885.4,0.06207
2879.62,0.06175
2873.83,0.06132
2868.04,0.06170
2862.26,0.06134
2856.47,0.06235
2850.69,0.06304
2844.9,0.06226
2839.11,0.06249
2833.33,0.06188
2827.54,0.06279
2821.75,0.06326
2815.97,0.06437
2810.18,0.06474
2804.4,0.06552
2798.61,0.06579
2792.82,0.06594
2787.04,0.06663
2781.25,0.06721
2775.46,0.06815
2769.68,0.06846
2763.89,0.06874
2758.11,0.06967
2752.32,0.06946
2746.53,0.06964
2740.75,0.06922
2734.96,0.06924
2729.17,0.06990
2723.39,0.06967
2717.6,0.06919
2711.82,0.06903
2706.03,0.06913
2700.24,0.06939
2694.46,0.06879
2688.67,0.06843
2682.88,0.06857
2677.1,0.06857
2671.31,0.06842
2665.53,0.06832
2659.74,0.06848
2653.95,0.06815
2648.17,0.06822
2642.38,0.06818
2636.59,0.06787
2630.81,0.06813
2625.02,0.06906
2619.24,0.06965
2613.45,0.06902
2607.66,0.06888
2601.88,0.06892
2596.09,0.06963
2590.3,0.06991
2584.52,0.06957
2578.73,0.06943
2572.95,0.06974
2567.16,0.06971
2561.37,0.06974
2555.59,0.06956
2549.8,0.06978
2544.02,0.06973
2538.23,0.06965
2532.44,0.06954
2526.66,0.06948
2520.87,0.06914
2515.08,0.06882
2509.3,0.06884
2503.51,0.06939
2497.73,0.06970
2491.94,0.06989
2486.15,0.06971
2480.37,0.07019
2474.58,0.07087
2468.79,0.07075
2463.01,0.07122
2457.22,0.07080
2451.44,0.07056
2445.65,0.07064
2439.86,0.07047
2434.08,0.07052
2428.29,0.07001
2422.5,0.07048
2416.72,0.07014
2410.93,0.06981
2405.15,0.06952
2399.36,0.06928
2393.57,0.06918
2387.79,0.06917
2382,0.06865
2376.21,0.06899
2370.43,0.06906
2364.64,0.06891
2358.86,0.06877
2353.07,0.06840
2347.28,0.06691
2341.5,0.06640
2335.71,0.06729
2329.92,0.06789
2324.14,0.06806
2318.35,0.06733
2312.57,0.06699
2306.78,0.06723
2300.99,0.06737
2295.21,0.06712
2289.42,0.06759
2283.63,0.06783
2277.85,0.06722
2272.06,0.06648
2266.28,0.06571
2260.49,0.06449
2254.7,0.06306
2248.92,0.06125
2243.13,0.05979
2237.34,0.06044
2231.56,0.06160
2225.77,0.06359
2219.99,0.06568
2214.2,0.06689
2208.41,0.06735
2202.63,0.06783
2196.84,0.06833
2191.05,0.06739
2185.27,0.06698
2179.48,0.06777
2173.7,0.06919
2167.91,0.06945
2162.12,0.06982
2156.34,0.06964
2150.55,0.06987
2144.76,0.06967
2138.98,0.06976
2133.19,0.06965
2127.41,0.06990
2121.62,0.06941
2115.83,0.06948
2110.05,0.06959
2104.26,0.06944
2098.47,0.06905
2092.69,0.06892
2086.9,0.06895
2081.12,0.06862
2075.33,0.06817
2069.54,0.06836
2063.76,0.06842
2057.97,0.06806
2052.19,0.06807
2046.4,0.06766
2040.61,0.06695
2034.83,0.06676
2029.04,0.06662
2023.25,0.06645
2017.47,0.06614
2011.68,0.06522
2005.9,0.06448
2000.11,0.06418
1994.32,0.06335
1988.54,0.06229
1982.75,0.06208
1976.96,0.06165
1971.18,0.06129
1965.39,0.06099
1959.61,0.06101
1953.82,0.06086
1948.03,0.06113
1942.25,0.06125
1936.46,0.06163
1930.67,0.06223
1924.89,0.06260
1919.1,0.06289
1913.32,0.06249
1907.53,0.06181
1901.74,0.06153
1895.96,0.06122
1890.17,0.06086
1884.38,0.06047
1878.6,0.06059
1872.81,0.06064
1867.03,0.06105
1861.24,0.06165
1855.45,0.06179
1849.67,0.06206
1843.88,0.06152
1838.09,0.06052
1832.31,0.06043
1826.52,0.06022
1820.74,0.05988
1814.95,0.05957
1809.16,0.05985
1803.38,0.05988
1797.59,0.06042
1791.8,0.06026
1786.02,0.06053
1780.23,0.06016
1774.45,0.06038
1768.66,0.05996
1762.87,0.05978
1757.09,0.05950
1751.3,0.05972
1745.51,0.05990
1739.73,0.05975
1733.94,0.06018
1728.16,0.06055
1722.37,0.06079
1716.58,0.06100
1710.8,0.06112
1705.01,0.06135
1699.22,0.06152
1693.44,0.06028
1687.65,0.06034
1681.87,0.05992
1676.08,0.06018
1670.29,0.06002
1664.51,0.06033
1658.72,0.06005
1652.93,0.06078
1647.15,0.06019
1641.36,0.05945
1635.58,0.06049
1629.79,0.06066
1624,0.06083
1618.22,0.06018
1612.43,0.05959
1606.64,0.05906
1600.86,0.05961
1595.07,0.05998
1589.29,0.06056
1583.5,0.05963
1577.71,0.06035
1571.93,0.06010
1566.14,0.05948
1560.35,0.05939
1554.57,0.05906
1548.78,0.05948
1543,0.05961
1537.21,0.05962
1531.42,0.05892
1525.64,0.05903
1519.85,0.05854
1514.07,0.05815
1508.28,0.05834
1502.49,0.05645
1496.71,0.05608
1490.92,0.06063
1485.13,0.05935
1479.35,0.05848
1473.56,0.05827
1467.78,0.05731
1461.99,0.05611
1456.2,0.05639
1450.42,0.06050
1444.63,0.06132
1438.84,0.06154
1433.06,0.06149
1427.27,0.06095
1421.49,0.06102
1415.7,0.06083
1409.91,0.06065
1404.13,0.06044
1398.34,0.06026
1392.55,0.05984
1386.77,0.05976
1380.98,0.05954
1375.2,0.05995
1369.41,0.06001
1363.62,0.05980
1357.84,0.05961
1352.05,0.06005
1346.26,0.05996
1340.48,0.05990
1334.69,0.06010
1328.91,0.06007
1323.12,0.05975
1317.33,0.05990
1311.55,0.05990
1305.76,0.06022
1299.97,0.06035
1294.19,0.05955
1288.4,0.06012
1282.62,0.06015
1276.83,0.06024
1271.04,0.06046
1265.26,0.06058
1259.47,0.06036
1253.68,0.06048
1247.9,0.06077
1242.11,0.06038
1236.33,0.06037
1230.54,0.06021
1224.75,0.05993
1218.97,0.05981
1213.18,0.05969
1207.39,0.05994
1201.61,0.06046
1195.82,0.06071
1190.04,0.05986
1184.25,0.06000
1178.46,0.06008
1172.68,0.06001
1166.89,0.06000
1161.1,0.06025
1155.32,0.05983
1149.53,0.06039
1143.75,0.06078
1137.96,0.06041
1132.17,0.05974
1126.39,0.05960
1120.6,0.05987
1114.81,0.05986
1109.03,0.05978
1103.24,0.05930
1097.46,0.05935
1091.67,0.05974
1085.88,0.05960
1080.1,0.05966
1074.31,0.05957
1068.52,0.05954
1062.74,0.06058
1056.95,0.06027
1051.17,0.06022
1045.38,0.06061
1039.59,0.05959
1033.81,0.05880
1028.02,0.05986
1022.24,0.06051
1016.45,0.06063
1010.66,0.06031
1004.88,0.05980
999.09,0.05882
993.304,0.05893
987.518,0.05879
981.731,0.05834
975.945,0.05706
970.159,0.05643
964.373,0.05955
958.586,0.06212
952.8,0.06191
947.014,0.06128
941.228,0.06040
935.441,0.06041
929.655,0.05945
923.869,0.05851
918.083,0.05769
912.297,0.05848
906.51,0.06032
900.724,0.06095
894.938,0.05997
889.152,0.05990
883.365,0.05981
877.579,0.05904
871.793,0.05903
866.007,0.05840
860.22,0.05870
854.434,0.05787
848.648,0.05830
842.862,0.05790
837.075,0.05844
831.289,0.05837
825.503,0.05692
819.717,0.05651
813.931,0.05671
808.144,0.05558
802.358,0.05578
796.572,0.05501
790.786,0.05338
784.999,0.05202
779.213,0.05091
773.427,0.05041
767.641,0.05086
761.854,0.05533
756.068,0.06004
750.282,0.05939
744.496,0.05850
738.709,0.05698
732.923,0.05615
727.137,0.05414
721.351,0.05188
715.565,0.04779
709.778,0.04485
703.992,0.05778
698.206,0.08185
692.42,0.07469
686.633,0.06753
680.847,0.06486
675.061,0.06308
669.275,0.06443
663.488,0.06420
657.702,0.06305
651.916,0.06174
646.13,0.06144
640.343,0.06039
634.557,0.05916
628.771,0.06135
622.985,0.06057
617.198,0.06071
611.412,0.05792
605.626,0.05786
599.84,0.05963