File: 01_Data/PlasticA/FTIR/IS/PlasticA_IS_S_220906_R3.dpt
7497.03,0.70626
7491.25,0.70999
7485.46,0.71200
7479.67,0.70924
7473.89,0.71839
7468.1,0.71051
7462.32,0.71405
7456.53,0.71281
7450.74,0.69438
7444.96,0.70781
7439.17,0.69683
7433.38,0.68953
7427.6,0.70407
7421.81,0.70183
7416.03,0.68682
7410.24,0.69489
7404.45,0.69957
7398.67,0.68835
7392.88,0.69805
7387.09,0.68739
7381.31,0.69984
7375.52,0.70955
7369.74,0.69524
7363.95,0.69265
7358.16,0.69029
7352.38,0.70042
7346.59,0.68685
7340.8,0.67933
7335.02,0.67852
7329.23,0.68295
7323.45,0.67859
7317.66,0.67426
7311.87,0.68160
7306.09,0.68686
7300.3,0.68011
7294.51,0.66196
7288.73,0.65872
7282.94,0.66315
7277.16,0.65810
7271.37,0.65126
7265.58,0.65652
7259.8,0.64843
7254.01,0.64998
7248.22,0.64960
7242.44,0.65232
7236.65,0.63896
7230.87,0.64253
7225.08,0.64224
7219.29,0.64428
7213.51,0.63202
7207.72,0.63412
7201.93,0.63185
7196.15,0.63183
7190.36,0.63454
7184.58,0.62443
7178.79,0.62603
7173,0.62587
7167.22,0.62002
7161.43,0.62147
7155.65,0.62392
7149.86,0.62421
7144.07,0.60979
7138.29,0.61754
7132.5,0.61328
7126.71,0.60414
7120.93,0.61166
7115.14,0.61043
7109.36,0.61480
7103.57,0.61353
7097.78,0.60383
7092,0.60493
7086.21,0.59424
7080.42,0.60300
7074.64,0.59582
7068.85,0.59709
7063.07,0.59626
7057.28,0.60399
7051.49,0.60142
7045.71,0.60441
7039.92,0.60346
7034.13,0.60880
7028.35,0.60316
7022.56,0.60822
7016.78,0.60847
7010.99,0.60988
7005.2,0.61095
6999.42,0.61488
6993.63,0.61208
6987.84,0.61595
6982.06,0.61542
6976.27,0.61340
6970.49,0.61224
6964.7,0.61851
6958.91,0.61181
6953.13,0.61498
6947.34,0.61508
6941.55,0.62215
6935.77,0.62513
6929.98,0.62599
6924.2,0.62566
6918.41,0.63064
6912.62,0.62827
6906.84,0.63037
6901.05,0.63479
6895.26,0.62671
6889.48,0.62537
6883.69,0.63350
6877.91,0.63543
6872.12,0.63429
6866.33,0.63489
6860.55,0.63438
6854.76,0.64037
6848.97,0.63812
6843.19,0.63891
6837.4,0.63371
6831.62,0.63752
6825.83,0.63676
6820.04,0.63932
6814.26,0.63853
6808.47,0.63266
6802.68,0.63356
6796.9,0.64052
6791.11,0.64406
6785.33,0.63944
6779.54,0.64305
6773.75,0.64361
6767.97,0.65147
6762.18,0.64563
6756.39,0.64242
6750.61,0.64387
6744.82,0.64095
6739.04,0.64548
6733.25,0.64837
6727.46,0.64881
6721.68,0.64357
6715.89,0.64605
6710.1,0.64715
6704.32,0.65538
6698.53,0.65370
6692.75,0.65318
6686.96,0.65042
6681.17,0.65179
6675.39,0.65380
6669.6,0.65283
6663.82,0.65614
6658.03,0.65860
6652.24,0.66113
6646.46,0.65628
6640.67,0.65530
6634.88,0.65981
6629.1,0.65673
6623.31,0.65632
6617.53,0.65200
6611.74,0.66032
6605.95,0.65459
6600.17,0.65340
6594.38,0.65940
6588.59,0.65961
6582.81,0.65837
6577.02,0.65386
6571.24,0.66030
6565.45,0.65853
6559.66,0.66060
6553.88,0.65731
6548.09,0.65938
6542.3,0.65987
6536.52,0.66002
6530.73,0.65416
6524.95,0.65791
6519.16,0.65853
6513.37,0.65853
6507.59,0.65894
6501.8,0.65592
6496.01,0.66045
6490.23,0.66214
6484.44,0.65809
6478.66,0.65507
6472.87,0.65746
6467.08,0.66047
6461.3,0.65843
6455.51,0.66080
6449.72,0.65724
6443.94,0.66124
6438.15,0.66103
6432.37,0.65818
6426.58,0.66327
6420.79,0.66067
6415.01,0.65895
6409.22,0.66095
6403.43,0.65807
6397.65,0.65738
6391.86,0.65598
6386.08,0.65414
6380.29,0.65067
6374.5,0.64851
6368.72,0.64932
6362.93,0.64410
6357.14,0.64250
6351.36,0.64118
6345.57,0.64543
6339.79,0.64794
6334,0.64631
6328.21,0.64718
6322.43,0.64592
6316.64,0.64366
6310.85,0.64358
6305.07,0.64358
6299.28,0.63787
6293.5,0.64027
6287.71,0.64022
6281.92,0.63829
6276.14,0.64017
6270.35,0.64038
6264.56,0.63456
6258.78,0.63310
6252.99,0.63017
6247.21,0.63074
6241.42,0.62849
6235.63,0.62420
6229.85,0.61947
6224.06,0.61923
6218.27,0.61628
6212.49,0.61755
6206.7,0.60884
6200.92,0.60715
6195.13,0.60121
6189.34,0.59502
6183.56,0.59281
6177.77,0.58380
6171.98,0.57524
6166.2,0.56522
6160.41,0.55390
6154.63,0.53884
6148.84,0.52651
6143.05,0.51222
6137.27,0.49935
6131.48,0.48270
6125.7,0.46734
6119.91,0.45698
6114.12,0.44350
6108.34,0.44493
6102.55,0.44758
6096.76,0.45342
6090.98,0.46529
6085.19,0.46319
6079.41,0.46362
6073.62,0.46561
6067.83,0.47425
6062.05,0.47746
6056.26,0.47814
6050.47,0.47201
6044.69,0.46057
6038.9,0.44045
6033.12,0.42131
6027.33,0.40063
6021.54,0.37917
6015.76,0.35781
6009.97,0.34166
6004.18,0.32722
5998.4,0.31613
5992.61,0.29999
5986.83,0.29234
5981.04,0.28055
5975.25,0.26973
5969.47,0.26834
5963.68,0.26835
5957.89,0.26784
5952.11,0.26884
5946.32,0.26990
5940.54,0.27275
5934.75,0.27997
5928.96,0.28122
5923.18,0.28330
5917.39,0.28259
5911.6,0.28338
5905.82,0.28563
5900.03,0.28515
5894.25,0.28754
5888.46,0.29046
5882.67,0.29252
5876.89,0.29870
5871.1,0.29720
5865.31,0.29906
5859.53,0.29937
5853.74,0.29850
5847.96,0.29669
5842.17,0.29713
5836.38,0.29761
5830.6,0.29692
5824.81,0.29657
5819.02,0.29422
5813.24,0.29391
5807.45,0.29444
5801.67,0.29372
5795.88,0.29631
5790.09,0.30337
5784.31,0.30609
5778.52,0.31016
5772.73,0.31685
5766.95,0.32738
5761.16,0.33642
5755.38,0.33931
5749.59,0.34326
5743.8,0.34320
5738.02,0.33913
5732.23,0.33319
5726.44,0.32669
5720.66,0.32012
5714.87,0.31291
5709.09,0.30503
5703.3,0.30193
5697.51,0.30352
5691.73,0.30475
5685.94,0.30395
5680.15,0.30476
5674.37,0.30673
5668.58,0.31026
5662.8,0.31263
5657.01,0.31554
5651.22,0.32185
5645.44,0.32483
5639.65,0.32917
5633.87,0.33336
5628.08,0.34169
5622.29,0.34345
5616.51,0.34586
5610.72,0.34446
5604.93,0.34609
5599.15,0.34581
5593.36,0.34742
5587.58,0.35089
5581.79,0.35658
5576,0.36007
5570.22,0.36094
5564.43,0.36316
5558.64,0.36587
5552.86,0.36726
5547.07,0.36611
5541.29,0.36664
5535.5,0.36843
5529.71,0.36940
5523.93,0.36902
5518.14,0.37028
5512.35,0.37075
5506.57,0.37166
5500.78,0.37337
5495,0.37402
5489.21,0.37662
5483.42,0.37774
5477.64,0.37840
5471.85,0.37745
5466.06,0.37889
5460.28,0.37885
5454.49,0.37888
5448.71,0.37665
5442.92,0.37709
5437.13,0.37690
5431.35,0.37692
5425.56,0.37606
5419.77,0.37588
5413.99,0.37620
5408.2,0.37411
5402.42,0.37503
5396.63,0.37466
5390.84,0.37440
5385.06,0.37489
5379.27,0.37469
5373.48,0.37519
5367.7,0.37775
5361.91,0.37547
5356.13,0.37907
5350.34,0.38204
5344.55,0.38337
5338.77,0.38438
5332.98,0.38445
5327.19,0.38548
5321.41,0.38802
5315.62,0.38750
5309.84,0.38541
5304.05,0.38461
5298.26,0.38279
5292.48,0.37959
5286.69,0.37658
5280.9,0.37020
5275.12,0.36426
5269.33,0.35643
5263.55,0.35021
5257.76,0.34462
5251.97,0.34229
5246.19,0.34277
5240.4,0.34458
5234.61,0.34884
5228.83,0.35105
5223.04,0.35757
5217.26,0.36329
5211.47,0.36835
5205.68,0.37110
5199.9,0.37347
5194.11,0.37423
5188.32,0.37460
5182.54,0.37290
5176.75,0.36863
5170.97,0.36865
5165.18,0.36568
5159.39,0.36246
5153.61,0.35875
5147.82,0.35446
5142.03,0.35262
5136.25,0.35467
5130.46,0.36214
5124.68,0.36776
5118.89,0.37445
5113.1,0.37819
5107.32,0.38173
5101.53,0.38413
5095.75,0.38427
5089.96,0.38543
5084.17,0.38711
5078.39,0.38662
5072.6,0.38722
5066.81,0.38864
5061.03,0.38872
5055.24,0.38797
5049.46,0.38779
5043.67,0.38749
5037.88,0.38811
5032.1,0.38749
5026.31,0.38918
5020.52,0.38870
5014.74,0.38931
5008.95,0.38908
5003.17,0.38693
4997.38,0.38647
4991.59,0.38428
4985.81,0.38181
4980.02,0.38103
4974.23,0.38052
4968.45,0.37816
4962.66,0.37702
4956.88,0.37636
4951.09,0.37687
4945.3,0.37535
4939.52,0.37653
4933.73,0.37674
4927.94,0.37761
4922.16,0.37611
4916.37,0.37606
4910.59,0.37583
4904.8,0.37470
4899.01,0.37342
4893.23,0.37069
4887.44,0.36827
4881.65,0.36419
4875.87,0.36353
4870.08,0.36381
4864.3,0.36391
4858.51,0.36610
4852.72,0.36574
4846.94,0.36622
4841.15,0.36649
4835.36,0.36526
4829.58,0.36660
4823.79,0.36718
4818.01,0.36706
4812.22,0.36661
4806.43,0.36536
4800.65,0.36391
4794.86,0.36329
4789.07,0.35765
4783.29,0.35507
4777.5,0.35158
4771.72,0.34608
4765.93,0.34156
4760.14,0.33764
4754.36,0.33566
4748.57,0.33144
4742.78,0.32778
4737,0.31731
4731.21,0.30536
4725.43,0.28875
4719.64,0.27386
4713.85,0.26602
4708.07,0.26362
4702.28,0.26199
4696.49,0.25772
4690.71,0.24529
4684.92,0.22418
4679.14,0.19731
4673.35,0.17566
4667.56,0.16702
4661.78,0.16891
4655.99,0.18080
4650.2,0.19086
4644.42,0.19182
4638.63,0.18474
4632.85,0.17433
4627.06,0.17007
4621.27,0.17081
4615.49,0.16867
4609.7,0.16536
4603.92,0.16930
4598.13,0.18173
4592.34,0.19568
4586.56,0.19804
4580.77,0.18856
4574.98,0.18023
4569.2,0.18790
4563.41,0.20472
4557.63,0.21786
4551.84,0.22845
4546.05,0.23546
4540.27,0.23539
4534.48,0.23448
4528.69,0.23507
4522.91,0.23478
4517.12,0.23136
4511.34,0.22931
4505.55,0.22677
4499.76,0.22726
4493.98,0.22364
4488.19,0.21331
4482.4,0.20383
4476.62,0.20169
4470.83,0.20923
4465.05,0.21444
4459.26,0.21419
4453.47,0.20826
4447.69,0.20180
4441.9,0.19817
4436.11,0.19808
4430.33,0.19471
4424.54,0.18873
4418.76,0.18169
4412.97,0.17499
4407.18,0.16715
4401.4,0.15899
4395.61,0.15165
4389.82,0.14535
4384.04,0.13892
4378.25,0.13318
4372.47,0.12810
4366.68,0.12273
4360.89,0.11940
4355.11,0.11769
4349.32,0.11609
4343.53,0.11419
4337.75,0.11348
4331.96,0.11382
4326.18,0.11391
4320.39,0.11602
4314.6,0.11811
4308.82,0.11862
4303.03,0.11809
4297.24,0.11684
4291.46,0.11512
4285.67,0.11335
4279.89,0.11152
4274.1,0.10960
4268.31,0.10683
4262.53,0.10486
4256.74,0.10392
4250.95,0.10274
4245.17,0.10260
4239.38,0.10331
4233.6,0.10317
4227.81,0.10463
4222.02,0.10483
4216.24,0.10631
4210.45,0.10692
4204.66,0.10702
4198.88,0.10884
4193.09,0.10991
4187.31,0.11117
4181.52,0.11190
4175.73,0.11350
4169.95,0.11503
4164.16,0.11560
4158.37,0.11584
4152.59,0.11681
4146.8,0.11681
4141.02,0.11596
4135.23,0.11522
4129.44,0.11377
4123.66,0.11365
4117.87,0.11268
4112.09,0.11138
4106.3,0.11112
4100.51,0.11046
4094.73,0.10845
4088.94,0.10612
4083.15,0.10338
4077.37,0.09875
4071.58,0.09482
4065.8,0.09146
4060.01,0.08971
4054.22,0.08828
4048.44,0.08909
4042.65,0.08830
4036.86,0.08871
4031.08,0.09239
4025.29,0.09616
4019.51,0.10173
4013.72,0.10777
4007.93,0.11048
4002.15,0.11061
3996.36,0.11337
3990.57,0.11531
3984.79,0.11649
3979,0.11625
3973.22,0.11651
3967.43,0.11659
3961.64,0.11812
3955.86,0.11787
3950.07,0.11852
3944.28,0.11785
3938.5,0.11777
3932.71,0.11790
3926.93,0.11799
3921.14,0.11782
3915.35,0.11811
3909.57,0.11844
3903.78,0.11939
3897.99,0.11960
3892.21,0.12099
3886.42,0.12189
3880.64,0.12197
3874.85,0.12222
3869.06,0.12338
3863.28,0.12327
3857.49,0.12313
3851.7,0.12200
3845.92,0.12117
3840.13,0.12123
3834.35,0.12083
3828.56,0.11846
3822.77,0.11879
3816.99,0.11862
3811.2,0.11905
3805.41,0.11925
3799.63,0.11932
3793.84,0.11988
3788.06,0.12158
3782.27,0.12162
3776.48,0.12106
3770.7,0.12158
3764.91,0.12143
3759.12,0.12255
3753.34,0.12384
3747.55,0.12399
3741.77,0.12285
3735.98,0.12227
3730.19,0.11821
3724.41,0.11598
3718.62,0.11558
3712.83,0.11620
3707.05,0.11189
3701.26,0.10931
3695.48,0.10721
3689.69,0.10403
3683.9,0.09734
3678.12,0.09302
3672.33,0.08873
3666.54,0.08498
3660.76,0.08293
3654.97,0.08215
3649.19,0.08099
3643.4,0.08147
3637.61,0.08147
3631.83,0.08254
3626.04,0.08281
3620.25,0.08351
3614.47,0.08442
3608.68,0.08526
3602.9,0.08605
3597.11,0.08648
3591.32,0.08628
3585.54,0.08626
3579.75,0.08391
3573.97,0.08394
3568.18,0.08270
3562.39,0.08135
3556.61,0.07993
3550.82,0.07914
3545.03,0.07846
3539.25,0.07756
3533.46,0.07818
3527.68,0.07830
3521.89,0.07823
3516.1,0.07884
3510.32,0.08065
3504.53,0.08075
3498.74,0.08024
3492.96,0.08140
3487.17,0.08087
3481.39,0.08120
3475.6,0.08213
3469.81,0.08229
3464.03,0.08238
3458.24,0.08228
3452.45,0.08121
3446.67,0.08150
3440.88,0.08141
3435.1,0.08168
3429.31,0.08219
3423.52,0.08243
3417.74,0.08189
3411.95,0.08160
3406.16,0.08148
3400.38,0.08192
3394.59,0.08129
3388.81,0.08078
3383.02,0.08186
3377.23,0.08109
3371.45,0.08220
3365.66,0.08234
3359.87,0.08172
3354.09,0.08170
3348.3,0.08083
3342.52,0.08071
3336.73,0.08074
3330.94,0.07980
3325.16,0.07884
3319.37,0.07692
3313.58,0.07381
3307.8,0.06866
3302.01,0.06423
3296.23,0.06565
3290.44,0.06809
3284.65,0.07163
3278.87,0.07434
3273.08,0.07591
3267.29,0.07669
3261.51,0.07801
3255.72,0.07812
3249.94,0.07813
3244.15,0.07878
3238.36,0.07854
3232.58,0.07857
3226.79,0.07707
3221,0.07660
3215.22,0.07672
3209.43,0.07621
3203.65,0.07573
3197.86,0.07609
3192.07,0.07652
3186.29,0.07591
3180.5,0.07580
3174.71,0.07604
3168.93,0.07425
3163.14,0.07383
3157.36,0.07447
3151.57,0.07416
3145.78,0.07404
3140,0.07346
3134.21,0.07319
3128.42,0.07184
3122.64,0.07025
3116.85,0.06820
3111.07,0.06542
3105.28,0.06361
3099.49,0.06401
3093.71,0.06275
3087.92,0.06111
3082.14,0.06102
3076.35,0.06091
3070.56,0.06038
3064.78,0.05966
3058.99,0.05981
3053.2,0.06085
3047.42,0.06114
3041.63,0.06021
3035.85,0.06000
3030.06,0.05933
3024.27,0.05975
3018.49,0.06079
3012.7,0.06046
3006.91,0.05966
3001.13,0.05944
2995.34,0.05979
2989.56,0.05931
2983.77,0.05892
2977.98,0.05895
2972.2,0.05920
2966.41,0.05934
2960.62,0.05822
2954.84,0.05899
2949.05,0.05907
2943.27,0.05910
2937.48,0.05914
2931.69,0.06052
2925.91,0.06174
2920.12,0.06263
2914.33,0.06235
2908.55,0.06242
2902.76,0.06206
2896.98,0.06206
2891.19,0.06196
2885.4,0.06177
2879.62,0.06194
2873.83,0.06208
2868.04,0.06211
2862.26,0.06225
2856.47,0.06282
2850.69,0.06336
2844.9,0.06299
2839.11,0.06216
2833.33,0.06212
2827.54,0.06284
2821.75,0.06369
2815.97,0.06450
2810.18,0.06505
2804.4,0.06594
2798.61,0.06619
2792.82,0.06631
2787.04,0.06676
2781.25,0.06794
2775.46,0.06822
2769.68,0.06830
2763.89,0.06865
2758.11,0.06899
2752.32,0.06947
2746.53,0.06936
2740.75,0.07000
2734.96,0.06955
2729.17,0.06914
2723.39,0.06928
2717.6,0.06880
2711.82,0.06905
2706.03,0.06933
2700.24,0.06910
2694.46,0.06900
2688.67,0.06881
2682.88,0.06831
2677.1,0.06850
2671.31,0.06813
2665.53,0.06830
2659.74,0.06818
2653.95,0.06861
2648.17,0.06872
2642.38,0.06853
2636.59,0.06795
2630.81,0.06836
2625.02,0.06944
2619.24,0.06943
2613.45,0.06949
2607.66,0.06911
2601.88,0.06906
2596.09,0.06978
2590.3,0.07010
2584.52,0.06963
2578.73,0.07004
2572.95,0.06975
2567.16,0.07007
2561.37,0.06990
2555.59,0.06952
2549.8,0.06967
2544.02,0.06983
2538.23,0.06947
2532.44,0.06963
2526.66,0.06925
2520.87,0.06892
2515.08,0.06885
2509.3,0.06939
2503.51,0.06957
2497.73,0.06977
2491.94,0.06986
2486.15,0.07011
2480.37,0.07077
2474.58,0.07092
2468.79,0.07101
2463.01,0.07105
2457.22,0.07081
2451.44,0.07074
2445.65,0.07054
2439.86,0.07081
2434.08,0.07045
2428.29,0.07072
2422.5,0.07041
2416.72,0.07024
2410.93,0.06971
2405.15,0.06947
2399.36,0.06931
2393.57,0.06951
2387.79,0.06903
2382,0.06894
2376.21,0.06907
2370.43,0.06991
2364.64,0.06943
2358.86,0.06945
2353.07,0.06841
2347.28,0.06724
2341.5,0.06673
2335.71,0.06741
2329.92,0.06854
2324.14,0.06794
2318.35,0.06716
2312.57,0.06695
2306.78,0.06747
2300.99,0.06764
2295.21,0.06724
2289.42,0.06740
2283.63,0.06751
2277.85,0.06724
2272.06,0.06645
2266.28,0.06552
2260.49,0.06468
2254.7,0.06288
2248.92,0.06159
2243.13,0.06014
2237.34,0.06054
2231.56,0.06152
2225.77,0.06359
2219.99,0.06584
2214.2,0.06716
2208.41,0.06727
2202.63,0.06826
2196.84,0.06830
2191.05,0.06741
2185.27,0.06708
2179.48,0.06836
2173.7,0.06918
2167.91,0.06996
2162.12,0.06993
2156.34,0.06959
2150.55,0.07007
2144.76,0.07020
2138.98,0.07020
2133.19,0.06975
2127.41,0.06977
2121.62,0.06956
2115.83,0.06979
2110.05,0.06908
2104.26,0.06916
2098.47,0.06916
2092.69,0.06910
2086.9,0.06894
2081.12,0.06886
2075.33,0.06886
2069.54,0.06837
2063.76,0.06815
2057.97,0.06824
2052.19,0.06770
2046.4,0.06749
2040.61,0.06725
2034.83,0.06673
2029.04,0.06666
2023.25,0.06641
2017.47,0.06654
2011.68,0.06580
2005.9,0.06475
2000.11,0.06462
1994.32,0.06342
1988.54,0.06274
1982.75,0.06237
1976.96,0.06193
1971.18,0.06143
1965.39,0.06129
1959.61,0.06114
1953.82,0.06118
1948.03,0.06083
1942.25,0.06132
1936.46,0.06165
1930.67,0.06219
1924.89,0.06282
1919.1,0.06300
1913.32,0.06222
1907.53,0.06203
1901.74,0.06130
1895.96,0.06081
1890.17,0.06070
1884.38,0.06054
1878.6,0.06067
1872.81,0.06096
1867.03,0.06086
1861.24,0.06134
1855.45,0.06194
1849.67,0.06196
1843.88,0.06158
1838.09,0.06092
1832.31,0.06030
1826.52,0.06035
1820.74,0.05988
1814.95,0.05994
1809.16,0.05979
1803.38,0.06004
1797.59,0.05986
1791.8,0.06071
1786.02,0.06052
1780.23,0.06026
1774.45,0.06041
1768.66,0.05973
1762.87,0.05963
1757.09,0.05962
1751.3,0.06006
1745.51,0.05999
1739.73,0.05981
1733.94,0.06019
1728.16,0.06037
1722.37,0.06097
1716.58,0.06164
1710.8,0.06128
1705.01,0.06160
1699.22,0.06154
1693.44,0.06084
1687.65,0.06061
1681.87,0.06024
1676.08,0.06019
1670.29,0.06062
1664.51,0.06073
1658.72,0.06059
1652.93,0.06159
1647.15,0.06065
1641.36,0.05983
1635.58,0.06117
1629.79,0.06061
1624,0.06040
1618.22,0.06057
1612.43,0.05955
1606.64,0.05939
1600.86,0.06017
1595.07,0.06023
1589.29,0.06020
1583.5,0.05962
1577.71,0.06032
1571.93,0.06017
1566.14,0.05965
1560.35,0.05984
1554.57,0.05944
1548.78,0.05918
1543,0.05975
1537.21,0.05933
1531.42,0.05901
1525.64,0.05915
1519.85,0.05875
1514.07,0.05828
1508.28,0.05859
1502.49,0.05674
1496.71,0.05636
1490.92,0.06031
1485.13,0.05939
1479.35,0.05862
1473.56,0.05824
1467.78,0.05778
1461.99,0.05627
1456.2,0.05616
1450.42,0.06068
1444.63,0.06176
1438.84,0.06161
1433.06,0.06162
1427.27,0.06122
1421.49,0.06112
1415.7,0.06108
1409.91,0.06061
1404.13,0.06032
1398.34,0.06083
1392.55,0.06018
1386.77,0.05992
1380.98,0.05967
1375.2,0.06016
1369.41,0.06003
1363.62,0.06031
1357.84,0.06019
1352.05,0.05997
1346.26,0.06006
1340.48,0.06046
1334.69,0.05998
1328.91,0.05990
1323.12,0.05996
1317.33,0.06016
1311.55,0.06018
1305.76,0.06007
1299.97,0.06050
1294.19,0.06020
1288.4,0.06049
1282.62,0.06027
1276.83,0.06051
1271.04,0.06056
1265.26,0.06075
1259.47,0.06062
1253.68,0.06030
1247.9,0.06014
1242.11,0.06056
1236.33,0.05978
1230.54,0.06004
1224.75,0.06023
1218.97,0.06006
1213.18,0.06029
1207.39,0.05957
1201.61,0.06012
1195.82,0.05984
1190.04,0.05984
1184.25,0.06015
1178.46,0.06020
1172.68,0.06108
1166.89,0.06054
1161.1,0.06017
1155.32,0.06057
1149.53,0.06074
1143.75,0.06045
1137.96,0.06011
1132.17,0.06021
1126.39,0.05990
1120.6,0.05965
1114.81,0.05950
1109.03,0.06018
1103.24,0.05973
1097.46,0.05972
1091.67,0.05986
1085.88,0.05921
1080.1,0.05941
1074.31,0.05929
1068.52,0.05930
1062.74,0.06007
1056.95,0.05984
1051.17,0.06013
1045.38,0.05988
1039.59,0.05985
1033.81,0.05917
1028.02,0.05993
1022.24,0.06094
1016.45,0.06114
1010.66,0.05981
1004.88,0.05936
999.09,0.05927
993.304,0.05891
987.518,0.05894
981.731,0.05884
975.945,0.05735
970.159,0.05664
964.373,0.05891
958.586,0.06175
952.8,0.06165
947.014,0.06109
941.228,0.06075
935.441,0.06014
929.655,0.06010
923.869,0.05918
918.083,0.05761
912.297,0.05875
906.51,0.06022
900.724,0.06015
894.938,0.06014
889.152,0.05925
883.365,0.05922
877.579,0.05921
871.793,0.05916
866.007,0.05896
860.22,0.05843
854.434,0.05757
848.648,0.05794
842.862,0.05790
837.075,0.05806
831.289,0.05745
825.503,0.05727
819.717,0.05717
813.931,0.05573
808.144,0.05601
802.358,0.05529
796.572,0.05493
790.786,0.05370
784.999,0.05298
779.213,0.05157
773.427,0.05029
767.641,0.05143
761.854,0.05558
756.068,0.05971
750.282,0.05945
744.496,0.05889
738.709,0.05779
732.923,0.05502
727.137,0.05522
721.351,0.05221
715.565,0.04851
709.778,0.04411
703.992,0.05777
698.206,0.08144
692.42,0.07484
686.633,0.06926
680.847,0.06607
675.061,0.06368
669.275,0.06183
663.488,0.06142
657.702,0.06160
651.916,0.06155
646.13,0.06216
640.343,0.06048
634.557,0.06190
628.771,0.05956
622.985,0.06078
617.198,0.05986
611.412,0.05984
605.626,0.05970
599.84,0.05984