File: 01_Data/ABS/FTIR/IS/ABS_IS_T_220906_R2.dpt
7497.03,0.02190
7491.25,0.03148
7485.46,0.02578
7479.67,0.02363
7473.89,0.03352
7468.1,0.03704
7462.32,0.03348
7456.53,0.01992
7450.74,0.02152
7444.96,0.02715
7439.17,0.02625
7433.38,0.03402
7427.6,0.01812
7421.81,0.02863
7416.03,0.02770
7410.24,0.02261
7404.45,0.02567
7398.67,0.01430
7392.88,0.03034
7387.09,0.02329
7381.31,0.02623
7375.52,0.02354
7369.74,0.03132
7363.95,0.02164
7358.16,0.02405
7352.38,0.02702
7346.59,0.02715
7340.8,0.02846
7335.02,0.03116
7329.23,0.01969
7323.45,0.01575
7317.66,0.02415
7311.87,0.02879
7306.09,0.01383
7300.3,0.03067
7294.51,0.02553
7288.73,0.02533
7282.94,0.03058
7277.16,0.01821
7271.37,0.02222
7265.58,0.01853
7259.8,0.02335
7254.01,0.02541
7248.22,0.02157
7242.44,0.02101
7236.65,0.03370
7230.87,0.02366
7225.08,0.02525
7219.29,0.02095
7213.51,0.02545
7207.72,0.03174
7201.93,0.02654
7196.15,0.02441
7190.36,0.02661
7184.58,0.02378
7178.79,0.02135
7173,0.02194
7167.22,0.02337
7161.43,0.02199
7155.65,0.02371
7149.86,0.02482
7144.07,0.02284
7138.29,0.01632
7132.5,0.01952
7126.71,0.02668
7120.93,0.02083
7115.14,0.02148
7109.36,0.02339
7103.57,0.02887
7097.78,0.02857
7092,0.01681
7086.21,0.02358
7080.42,0.02564
7074.64,0.01880
7068.85,0.02033
7063.07,0.02060
7057.28,0.02979
7051.49,0.02311
7045.71,0.03184
7039.92,0.02135
7034.13,0.02103
7028.35,0.02301
7022.56,0.02499
7016.78,0.02227
7010.99,0.02282
7005.2,0.02081
6999.42,0.02633
6993.63,0.02407
6987.84,0.02388
6982.06,0.03013
6976.27,0.02023
6970.49,0.02230
6964.7,0.02259
6958.91,0.02543
6953.13,0.02192
6947.34,0.02609
6941.55,0.02299
6935.77,0.02676
6929.98,0.02154
6924.2,0.02016
6918.41,0.02421
6912.62,0.02129
6906.84,0.02074
6901.05,0.03020
6895.26,0.01991
6889.48,0.02150
6883.69,0.02540
6877.91,0.02858
6872.12,0.02806
6866.33,0.02459
6860.55,0.02682
6854.76,0.02351
6848.97,0.02486
6843.19,0.02240
6837.4,0.02077
6831.62,0.01956
6825.83,0.01883
6820.04,0.02916
6814.26,0.02159
6808.47,0.02296
6802.68,0.02478
6796.9,0.02582
6791.11,0.02404
6785.33,0.02704
6779.54,0.02449
6773.75,0.02218
6767.97,0.02688
6762.18,0.02690
6756.39,0.02353
6750.61,0.02236
6744.82,0.02629
6739.04,0.01917
6733.25,0.02037
6727.46,0.02646
6721.68,0.03071
6715.89,0.02691
6710.1,0.02432
6704.32,0.02516
6698.53,0.02635
6692.75,0.02579
6686.96,0.02358
6681.17,0.02272
6675.39,0.02111
6669.6,0.02702
6663.82,0.01978
6658.03,0.02039
6652.24,0.02219
6646.46,0.02368
6640.67,0.02122
6634.88,0.02044
6629.1,0.01828
6623.31,0.01873
6617.53,0.02285
6611.74,0.02335
6605.95,0.02875
6600.17,0.02223
6594.38,0.02138
6588.59,0.02332
6582.81,0.02040
6577.02,0.01827
6571.24,0.02043
6565.45,0.02375
6559.66,0.02469
6553.88,0.02458
6548.09,0.02472
6542.3,0.01991
6536.52,0.02117
6530.73,0.02501
6524.95,0.02330
6519.16,0.02680
6513.37,0.02658
6507.59,0.01790
6501.8,0.02394
6496.01,0.02067
6490.23,0.02202
6484.44,0.02331
6478.66,0.01996
6472.87,0.02538
6467.08,0.02513
6461.3,0.02331
6455.51,0.02172
6449.72,0.01890
6443.94,0.02250
6438.15,0.02268
6432.37,0.02295
6426.58,0.02123
6420.79,0.02161
6415.01,0.02375
6409.22,0.02305
6403.43,0.02436
6397.65,0.02211
6391.86,0.02318
6386.08,0.02059
6380.29,0.02221
6374.5,0.01968
6368.72,0.02219
6362.93,0.02056
6357.14,0.02722
6351.36,0.02646
6345.57,0.01912
6339.79,0.02252
6334,0.02313
6328.21,0.02066
6322.43,0.02282
6316.64,0.02697
6310.85,0.02451
6305.07,0.02430
6299.28,0.01902
6293.5,0.02193
6287.71,0.02208
6281.92,0.02053
6276.14,0.02431
6270.35,0.02140
6264.56,0.02344
6258.78,0.02678
6252.99,0.02302
6247.21,0.02512
6241.42,0.02447
6235.63,0.02366
6229.85,0.02108
6224.06,0.01997
6218.27,0.02053
6212.49,0.02221
6206.7,0.02101
6200.92,0.02366
6195.13,0.02068
6189.34,0.02458
6183.56,0.02209
6177.77,0.02342
6171.98,0.02011
6166.2,0.02207
6160.41,0.02232
6154.63,0.02580
6148.84,0.02369
6143.05,0.02158
6137.27,0.02140
6131.48,0.02248
6125.7,0.02201
6119.91,0.02190
6114.12,0.02329
6108.34,0.02235
6102.55,0.02075
6096.76,0.02135
6090.98,0.02437
6085.19,0.02223
6079.41,0.02381
6073.62,0.02230
6067.83,0.02384
6062.05,0.02252
6056.26,0.02165
6050.47,0.02156
6044.69,0.02331
6038.9,0.02166
6033.12,0.02002
6027.33,0.02257
6021.54,0.02139
6015.76,0.02157
6009.97,0.02156
6004.18,0.02016
5998.4,0.01918
5992.61,0.02296
5986.83,0.02048
5981.04,0.02003
5975.25,0.02177
5969.47,0.02310
5963.68,0.02202
5957.89,0.01963
5952.11,0.02104
5946.32,0.02310
5940.54,0.01978
5934.75,0.02537
5928.96,0.02194
5923.18,0.02450
5917.39,0.02033
5911.6,0.02309
5905.82,0.02031
5900.03,0.02005
5894.25,0.02292
5888.46,0.02443
5882.67,0.02161
5876.89,0.01993
5871.1,0.01804
5865.31,0.02095
5859.53,0.01839
5853.74,0.02355
5847.96,0.02203
5842.17,0.02273
5836.38,0.02308
5830.6,0.02103
5824.81,0.02056
5819.02,0.02065
5813.24,0.02163
5807.45,0.02033
5801.67,0.02343
5795.88,0.02076
5790.09,0.02092
5784.31,0.02118
5778.52,0.02206
5772.73,0.02175
5766.95,0.02098
5761.16,0.02000
5755.38,0.02098
5749.59,0.02260
5743.8,0.02291
5738.02,0.02019
5732.23,0.02076
5726.44,0.01705
5720.66,0.02212
5714.87,0.02048
5709.09,0.02073
5703.3,0.01967
5697.51,0.02177
5691.73,0.02125
5685.94,0.02256
5680.15,0.02285
5674.37,0.02109
5668.58,0.02120
5662.8,0.02178
5657.01,0.02282
5651.22,0.02140
5645.44,0.02310
5639.65,0.02108
5633.87,0.02145
5628.08,0.02276
5622.29,0.02208
5616.51,0.01890
5610.72,0.02110
5604.93,0.02437
5599.15,0.02188
5593.36,0.02022
5587.58,0.02402
5581.79,0.02176
5576,0.02093
5570.22,0.02239
5564.43,0.02144
5558.64,0.02289
5552.86,0.02203
5547.07,0.02036
5541.29,0.02092
5535.5,0.02148
5529.71,0.02192
5523.93,0.02417
5518.14,0.02252
5512.35,0.02340
5506.57,0.02201
5500.78,0.02105
5495,0.02192
5489.21,0.02245
5483.42,0.02212
5477.64,0.02276
5471.85,0.02360
5466.06,0.02103
5460.28,0.02134
5454.49,0.02140
5448.71,0.02229
5442.92,0.02284
5437.13,0.02219
5431.35,0.02298
5425.56,0.02131
5419.77,0.02150
5413.99,0.02319
5408.2,0.02194
5402.42,0.02057
5396.63,0.02322
5390.84,0.02229
5385.06,0.02101
5379.27,0.02358
5373.48,0.02294
5367.7,0.02203
5361.91,0.02117
5356.13,0.02181
5350.34,0.02090
5344.55,0.02347
5338.77,0.02181
5332.98,0.02205
5327.19,0.02326
5321.41,0.02353
5315.62,0.02418
5309.84,0.02220
5304.05,0.02044
5298.26,0.02107
5292.48,0.02208
5286.69,0.02212
5280.9,0.02193
5275.12,0.02187
5269.33,0.02024
5263.55,0.02275
5257.76,0.02335
5251.97,0.02150
5246.19,0.02278
5240.4,0.02181
5234.61,0.02050
5228.83,0.02240
5223.04,0.02253
5217.26,0.02180
5211.47,0.02262
5205.68,0.02197
5199.9,0.02196
5194.11,0.02099
5188.32,0.02266
5182.54,0.02289
5176.75,0.02245
5170.97,0.02320
5165.18,0.02149
5159.39,0.02124
5153.61,0.02194
5147.82,0.02078
5142.03,0.02443
5136.25,0.02113
5130.46,0.02214
5124.68,0.02158
5118.89,0.02086
5113.1,0.02232
5107.32,0.02274
5101.53,0.02176
5095.75,0.02213
5089.96,0.02201
5084.17,0.02189
5078.39,0.02320
5072.6,0.02247
5066.81,0.02147
5061.03,0.02243
5055.24,0.02211
5049.46,0.02275
5043.67,0.02173
5037.88,0.02197
5032.1,0.02203
5026.31,0.02136
5020.52,0.02222
5014.74,0.02323
5008.95,0.02294
5003.17,0.02126
4997.38,0.02215
4991.59,0.02247
4985.81,0.02389
4980.02,0.02162
4974.23,0.02225
4968.45,0.02309
4962.66,0.02194
4956.88,0.02286
4951.09,0.02135
4945.3,0.02130
4939.52,0.02310
4933.73,0.02291
4927.94,0.02229
4922.16,0.02304
4916.37,0.02302
4910.59,0.02138
4904.8,0.02182
4899.01,0.02186
4893.23,0.02133
4887.44,0.02182
4881.65,0.02183
4875.87,0.02165
4870.08,0.02132
4864.3,0.02361
4858.51,0.02254
4852.72,0.02184
4846.94,0.02177
4841.15,0.02346
4835.36,0.02266
4829.58,0.02167
4823.79,0.02165
4818.01,0.02208
4812.22,0.02237
4806.43,0.02267
4800.65,0.02251
4794.86,0.02229
4789.07,0.02238
4783.29,0.02314
4777.5,0.02285
4771.72,0.02238
4765.93,0.02224
4760.14,0.02305
4754.36,0.02288
4748.57,0.02196
4742.78,0.02196
4737,0.02128
4731.21,0.02260
4725.43,0.02256
4719.64,0.02225
4713.85,0.02158
4708.07,0.02145
4702.28,0.02237
4696.49,0.02278
4690.71,0.02107
4684.92,0.02229
4679.14,0.02269
4673.35,0.02180
4667.56,0.02185
4661.78,0.02256
4655.99,0.02160
4650.2,0.02180
4644.42,0.02261
4638.63,0.02196
4632.85,0.02231
4627.06,0.02175
4621.27,0.02249
4615.49,0.02187
4609.7,0.02238
4603.92,0.02228
4598.13,0.02238
4592.34,0.02206
4586.56,0.02225
4580.77,0.02323
4574.98,0.02290
4569.2,0.02229
4563.41,0.02286
4557.63,0.02246
4551.84,0.02222
4546.05,0.02199
4540.27,0.02163
4534.48,0.02276
4528.69,0.02271
4522.91,0.02313
4517.12,0.02269
4511.34,0.02121
4505.55,0.02301
4499.76,0.02232
4493.98,0.02275
4488.19,0.02263
4482.4,0.02199
4476.62,0.02268
4470.83,0.02255
4465.05,0.02245
4459.26,0.02226
4453.47,0.02247
4447.69,0.02256
4441.9,0.02243
4436.11,0.02293
4430.33,0.02248
4424.54,0.02153
4418.76,0.02220
4412.97,0.02296
4407.18,0.02275
4401.4,0.02259
4395.61,0.02215
4389.82,0.02266
4384.04,0.02131
4378.25,0.02241
4372.47,0.02230
4366.68,0.02202
4360.89,0.02220
4355.11,0.02148
4349.32,0.02205
4343.53,0.02277
4337.75,0.02297
4331.96,0.02291
4326.18,0.02241
4320.39,0.02280
4314.6,0.02194
4308.82,0.02239
4303.03,0.02223
4297.24,0.02153
4291.46,0.02217
4285.67,0.02206
4279.89,0.02238
4274.1,0.02182
4268.31,0.02263
4262.53,0.02283
4256.74,0.02280
4250.95,0.02189
4245.17,0.02249
4239.38,0.02311
4233.6,0.02341
4227.81,0.02218
4222.02,0.02288
4216.24,0.02204
4210.45,0.02183
4204.66,0.02253
4198.88,0.02294
4193.09,0.02274
4187.31,0.02254
4181.52,0.02212
4175.73,0.02253
4169.95,0.02296
4164.16,0.02216
4158.37,0.02210
4152.59,0.02291
4146.8,0.02337
4141.02,0.02172
4135.23,0.02247
4129.44,0.02173
4123.66,0.02276
4117.87,0.02260
4112.09,0.02301
4106.3,0.02248
4100.51,0.02233
4094.73,0.02171
4088.94,0.02227
4083.15,0.02302
4077.37,0.02304
4071.58,0.02281
4065.8,0.02274
4060.01,0.02302
4054.22,0.02228
4048.44,0.02224
4042.65,0.02234
4036.86,0.02317
4031.08,0.02229
4025.29,0.02192
4019.51,0.02266
4013.72,0.02209
4007.93,0.02244
4002.15,0.02241
3996.36,0.02295
3990.57,0.02251
3984.79,0.02214
3979,0.02252
3973.22,0.02247
3967.43,0.02312
3961.64,0.02230
3955.86,0.02240
3950.07,0.02320
3944.28,0.02252
3938.5,0.02264
3932.71,0.02230
3926.93,0.02206
3921.14,0.02208
3915.35,0.02254
3909.57,0.02327
3903.78,0.02288
3897.99,0.02225
3892.21,0.02293
3886.42,0.02279
3880.64,0.02281
3874.85,0.02322
3869.06,0.02238
3863.28,0.02256
3857.49,0.02346
3851.7,0.02259
3845.92,0.02274
3840.13,0.02345
3834.35,0.02208
3828.56,0.02277
3822.77,0.02265
3816.99,0.02215
3811.2,0.02250
3805.41,0.02242
3799.63,0.02231
3793.84,0.02232
3788.06,0.02259
3782.27,0.02249
3776.48,0.02259
3770.7,0.02241
3764.91,0.02304
3759.12,0.02238
3753.34,0.02303
3747.55,0.02314
3741.77,0.02294
3735.98,0.02276
3730.19,0.02205
3724.41,0.02230
3718.62,0.02179
3712.83,0.02285
3707.05,0.02239
3701.26,0.02248
3695.48,0.02259
3689.69,0.02205
3683.9,0.02260
3678.12,0.02174
3672.33,0.02262
3666.54,0.02236
3660.76,0.02247
3654.97,0.02171
3649.19,0.02236
3643.4,0.02262
3637.61,0.02211
3631.83,0.02171
3626.04,0.02077
3620.25,0.02206
3614.47,0.02238
3608.68,0.02213
3602.9,0.02158
3597.11,0.02159
3591.32,0.02164
3585.54,0.02123
3579.75,0.02146
3573.97,0.02106
3568.18,0.02146
3562.39,0.02078
3556.61,0.02151
3550.82,0.02111
3545.03,0.02126
3539.25,0.02096
3533.46,0.02097
3527.68,0.02141
3521.89,0.02063
3516.1,0.02090
3510.32,0.02067
3504.53,0.02113
3498.74,0.02166
3492.96,0.02118
3487.17,0.02121
3481.39,0.02096
3475.6,0.01994
3469.81,0.02092
3464.03,0.02097
3458.24,0.02084
3452.45,0.02065
3446.67,0.02062
3440.88,0.02078
3435.1,0.02068
3429.31,0.02062
3423.52,0.02069
3417.74,0.02063
3411.95,0.02057
3406.16,0.02011
3400.38,0.02010
3394.59,0.01984
3388.81,0.02027
3383.02,0.02028
3377.23,0.02053
3371.45,0.01998
3365.66,0.02025
3359.87,0.01971
3354.09,0.02012
3348.3,0.02081
3342.52,0.02023
3336.73,0.02046
3330.94,0.01993
3325.16,0.01971
3319.37,0.01984
3313.58,0.02010
3307.8,0.02058
3302.01,0.02117
3296.23,0.02094
3290.44,0.02086
3284.65,0.02065
3278.87,0.02049
3273.08,0.02026
3267.29,0.02020
3261.51,0.02015
3255.72,0.02033
3249.94,0.02025
3244.15,0.02012
3238.36,0.02071
3232.58,0.02023
3226.79,0.02089
3221,0.02104
3215.22,0.02068
3209.43,0.02104
3203.65,0.02113
3197.86,0.01980
3192.07,0.02043
3186.29,0.02036
3180.5,0.02082
3174.71,0.02142
3168.93,0.02111
3163.14,0.02083
3157.36,0.02120
3151.57,0.02081
3145.78,0.02063
3140,0.02021
3134.21,0.02084
3128.42,0.02067
3122.64,0.02113
3116.85,0.02094
3111.07,0.02050
3105.28,0.02101
3099.49,0.02073
3093.71,0.02116
3087.92,0.02039
3082.14,0.02064
3076.35,0.02078
3070.56,0.02098
3064.78,0.02090
3058.99,0.02086
3053.2,0.02061
3047.42,0.02076
3041.63,0.01985
3035.85,0.02072
3030.06,0.02026
3024.27,0.02078
3018.49,0.02039
3012.7,0.02106
3006.91,0.02031
3001.13,0.02041
2995.34,0.02014
2989.56,0.01968
2983.77,0.01978
2977.98,0.01949
2972.2,0.01906
2966.41,0.01968
2960.62,0.01953
2954.84,0.01977
2949.05,0.01981
2943.27,0.01995
2937.48,0.01972
2931.69,0.01923
2925.91,0.01998
2920.12,0.02000
2914.33,0.02010
2908.55,0.02052
2902.76,0.02031
2896.98,0.02021
2891.19,0.02047
2885.4,0.02056
2879.62,0.02087
2873.83,0.02036
2868.04,0.02013
2862.26,0.02011
2856.47,0.02058
2850.69,0.02040
2844.9,0.02072
2839.11,0.02133
2833.33,0.02092
2827.54,0.02052
2821.75,0.02086
2815.97,0.02136
2810.18,0.02106
2804.4,0.02097
2798.61,0.02132
2792.82,0.02108
2787.04,0.02138
2781.25,0.02107
2775.46,0.02081
2769.68,0.02108
2763.89,0.02060
2758.11,0.02150
2752.32,0.02112
2746.53,0.02115
2740.75,0.02160
2734.96,0.02109
2729.17,0.02135
2723.39,0.02112
2717.6,0.02121
2711.82,0.02128
2706.03,0.02108
2700.24,0.02107
2694.46,0.02126
2688.67,0.02089
2682.88,0.02132
2677.1,0.02128
2671.31,0.02102
2665.53,0.02159
2659.74,0.02138
2653.95,0.02124
2648.17,0.02120
2642.38,0.02123
2636.59,0.02150
2630.81,0.02131
2625.02,0.02162
2619.24,0.02151
2613.45,0.02112
2607.66,0.02114
2601.88,0.02110
2596.09,0.02092
2590.3,0.02137
2584.52,0.02079
2578.73,0.02108
2572.95,0.02126
2567.16,0.02114
2561.37,0.02137
2555.59,0.02113
2549.8,0.02141
2544.02,0.02121
2538.23,0.02090
2532.44,0.02054
2526.66,0.02107
2520.87,0.02151
2515.08,0.02144
2509.3,0.02102
2503.51,0.02082
2497.73,0.02112
2491.94,0.02144
2486.15,0.02078
2480.37,0.02100
2474.58,0.02085
2468.79,0.02113
2463.01,0.02121
2457.22,0.02104
2451.44,0.02113
2445.65,0.02120
2439.86,0.02114
2434.08,0.02104
2428.29,0.02105
2422.5,0.02093
2416.72,0.02074
2410.93,0.02103
2405.15,0.02104
2399.36,0.02133
2393.57,0.02123
2387.79,0.02132
2382,0.02148
2376.21,0.02157
2370.43,0.02144
2364.64,0.02155
2358.86,0.02139
2353.07,0.02108
2347.28,0.02127
2341.5,0.02093
2335.71,0.02073
2329.92,0.02098
2324.14,0.02132
2318.35,0.02138
2312.57,0.02124
2306.78,0.02093
2300.99,0.02081
2295.21,0.02123
2289.42,0.02094
2283.63,0.02111
2277.85,0.02088
2272.06,0.02081
2266.28,0.02086
2260.49,0.02081
2254.7,0.02099
2248.92,0.02081
2243.13,0.02078
2237.34,0.02065
2231.56,0.02058
2225.77,0.02077
2219.99,0.02087
2214.2,0.02082
2208.41,0.02072
2202.63,0.02079
2196.84,0.02084
2191.05,0.02115
2185.27,0.02090
2179.48,0.02113
2173.7,0.02057
2167.91,0.02095
2162.12,0.02045
2156.34,0.02055
2150.55,0.02068
2144.76,0.02092
2138.98,0.02088
2133.19,0.02084
2127.41,0.02114
2121.62,0.02069
2115.83,0.02069
2110.05,0.02046
2104.26,0.02068
2098.47,0.02061
2092.69,0.02061
2086.9,0.02036
2081.12,0.02080
2075.33,0.02091
2069.54,0.02061
2063.76,0.02080
2057.97,0.02095
2052.19,0.02089
2046.4,0.02094
2040.61,0.02053
2034.83,0.02080
2029.04,0.02083
2023.25,0.02045
2017.47,0.02040
2011.68,0.02063
2005.9,0.02061
2000.11,0.02094
1994.32,0.02057
1988.54,0.02095
1982.75,0.02072
1976.96,0.02076
1971.18,0.02079
1965.39,0.02059
1959.61,0.02057
1953.82,0.02076
1948.03,0.02065
1942.25,0.02070
1936.46,0.02065
1930.67,0.02052
1924.89,0.02099
1919.1,0.02035
1913.32,0.02054
1907.53,0.02055
1901.74,0.02085
1895.96,0.02070
1890.17,0.02078
1884.38,0.02025
1878.6,0.02010
1872.81,0.02039
1867.03,0.02022
1861.24,0.02038
1855.45,0.02047
1849.67,0.02028
1843.88,0.02038
1838.09,0.02007
1832.31,0.02034
1826.52,0.01989
1820.74,0.02010
1814.95,0.01979
1809.16,0.01958
1803.38,0.01958
1797.59,0.01956
1791.8,0.01900
1786.02,0.01918
1780.23,0.01892
1774.45,0.01888
1768.66,0.01853
1762.87,0.01794
1757.09,0.01739
1751.3,0.01743
1745.51,0.01760
1739.73,0.01822
1733.94,0.01959
1728.16,0.02026
1722.37,0.02076
1716.58,0.02069
1710.8,0.02051
1705.01,0.02006
1699.22,0.01979
1693.44,0.01925
1687.65,0.01903
1681.87,0.01868
1676.08,0.01874
1670.29,0.01847
1664.51,0.01849
1658.72,0.01872
1652.93,0.01850
1647.15,0.01838
1641.36,0.01859
1635.58,0.01898
1629.79,0.01877
1624,0.01881
1618.22,0.01878
1612.43,0.01852
1606.64,0.01876
1600.86,0.01866
1595.07,0.01870
1589.29,0.01856
1583.5,0.01816
1577.71,0.01834
1571.93,0.01813
1566.14,0.01759
1560.35,0.01793
1554.57,0.01786
1548.78,0.01854
1543,0.01886
1537.21,0.01816
1531.42,0.01876
1525.64,0.01906
1519.85,0.01896
1514.07,0.01843
1508.28,0.01885
1502.49,0.01888
1496.71,0.01917
1490.92,0.01936
1485.13,0.01893
1479.35,0.01868
1473.56,0.01858
1467.78,0.01868
1461.99,0.01866
1456.2,0.01906
1450.42,0.01875
1444.63,0.01896
1438.84,0.01905
1433.06,0.01859
1427.27,0.01841
1421.49,0.01860
1415.7,0.01845
1409.91,0.01858
1404.13,0.01845
1398.34,0.01837
1392.55,0.01799
1386.77,0.01802
1380.98,0.01804
1375.2,0.01821
1369.41,0.01825
1363.62,0.01826
1357.84,0.01840
1352.05,0.01837
1346.26,0.01763
1340.48,0.01768
1334.69,0.01736
1328.91,0.01701
1323.12,0.01713
1317.33,0.01732
1311.55,0.01720
1305.76,0.01709
1299.97,0.01765
1294.19,0.01805
1288.4,0.01831
1282.62,0.01840
1276.83,0.01914
1271.04,0.01939
1265.26,0.01913
1259.47,0.02006
1253.68,0.02004
1247.9,0.02049
1242.11,0.01987
1236.33,0.01953
1230.54,0.01949
1224.75,0.01903
1218.97,0.01894
1213.18,0.01869
1207.39,0.01867
1201.61,0.01813
1195.82,0.01834
1190.04,0.01835
1184.25,0.01828
1178.46,0.01706
1172.68,0.01772
1166.89,0.01792
1161.1,0.01763
1155.32,0.01700
1149.53,0.01713
1143.75,0.01787
1137.96,0.01786
1132.17,0.01819
1126.39,0.01810
1120.6,0.01882
1114.81,0.01879
1109.03,0.01825
1103.24,0.01844
1097.46,0.01863
1091.67,0.01765
1085.88,0.01790
1080.1,0.01857
1074.31,0.01867
1068.52,0.01908
1062.74,0.01957
1056.95,0.01970
1051.17,0.01983
1045.38,0.01914
1039.59,0.01985
1033.81,0.01970
1028.02,0.01902
1022.24,0.01982
1016.45,0.02006
1010.66,0.01981
1004.88,0.02092
999.09,0.02091
993.304,0.02137
987.518,0.02086
981.731,0.02013
975.945,0.02035
970.159,0.02027
964.373,0.02022
958.586,0.02043
952.8,0.01975
947.014,0.01978
941.228,0.01996
935.441,0.01948
929.655,0.01901
923.869,0.01876
918.083,0.01855
912.297,0.01925
906.51,0.01952
900.724,0.01878
894.938,0.01928
889.152,0.01883
883.365,0.01895
877.579,0.01892
871.793,0.01917
866.007,0.01914
860.22,0.01900
854.434,0.01840
848.648,0.01940
842.862,0.01878
837.075,0.01875
831.289,0.01830
825.503,0.01845
819.717,0.01918
813.931,0.01926
808.144,0.01884
802.358,0.01875
796.572,0.01935
790.786,0.01852
784.999,0.01795
779.213,0.01915
773.427,0.01827
767.641,0.01880
761.854,0.01865
756.068,0.01804
750.282,0.01788
744.496,0.01827
738.709,0.01831
732.923,0.01764
727.137,0.01823
721.351,0.01783
715.565,0.01852
709.778,0.01829
703.992,0.01779
698.206,0.01813
692.42,0.01860
686.633,0.01688
680.847,0.01803
675.061,0.01725
669.275,0.01746
663.488,0.01619
657.702,0.01701
651.916,0.01472
646.13,0.01611
640.343,0.01808
634.557,0.01816
628.771,0.01732
622.985,0.01610
617.198,0.01374
611.412,0.01520
605.626,0.01607
599.84,0.01570