File: 01_Data/ABS/FTIR/IS/ABS_IS_S_220906_R1.dpt
7497.03,0.70838
7491.25,0.71437
7485.46,0.70915
7479.67,0.71469
7473.89,0.71119
7468.1,0.70873
7462.32,0.69598
7456.53,0.70663
7450.74,0.69743
7444.96,0.70563
7439.17,0.69764
7433.38,0.69769
7427.6,0.70332
7421.81,0.69978
7416.03,0.70056
7410.24,0.69101
7404.45,0.70503
7398.67,0.69531
7392.88,0.69589
7387.09,0.68834
7381.31,0.69740
7375.52,0.68841
7369.74,0.67997
7363.95,0.68456
7358.16,0.68500
7352.38,0.69749
7346.59,0.68465
7340.8,0.68833
7335.02,0.67737
7329.23,0.66956
7323.45,0.67845
7317.66,0.66995
7311.87,0.67625
7306.09,0.66895
7300.3,0.67177
7294.51,0.66560
7288.73,0.65585
7282.94,0.65395
7277.16,0.65287
7271.37,0.65156
7265.58,0.65448
7259.8,0.65071
7254.01,0.64952
7248.22,0.64017
7242.44,0.64229
7236.65,0.63359
7230.87,0.64189
7225.08,0.63723
7219.29,0.63429
7213.51,0.62613
7207.72,0.62539
7201.93,0.62395
7196.15,0.62564
7190.36,0.62181
7184.58,0.62423
7178.79,0.62255
7173,0.62211
7167.22,0.62029
7161.43,0.62632
7155.65,0.61290
7149.86,0.61714
7144.07,0.61231
7138.29,0.61611
7132.5,0.60924
7126.71,0.61035
7120.93,0.60100
7115.14,0.59585
7109.36,0.59180
7103.57,0.59126
7097.78,0.59832
7092,0.59985
7086.21,0.59683
7080.42,0.59421
7074.64,0.58649
7068.85,0.59266
7063.07,0.60308
7057.28,0.59949
7051.49,0.59578
7045.71,0.60228
7039.92,0.59840
7034.13,0.59780
7028.35,0.59572
7022.56,0.59652
7016.78,0.59639
7010.99,0.60686
7005.2,0.60561
6999.42,0.61100
6993.63,0.60272
6987.84,0.60830
6982.06,0.60960
6976.27,0.60643
6970.49,0.60516
6964.7,0.61189
6958.91,0.61854
6953.13,0.61221
6947.34,0.61331
6941.55,0.61337
6935.77,0.61575
6929.98,0.61955
6924.2,0.62288
6918.41,0.62294
6912.62,0.62492
6906.84,0.62328
6901.05,0.62311
6895.26,0.62927
6889.48,0.62914
6883.69,0.62941
6877.91,0.62867
6872.12,0.63144
6866.33,0.63680
6860.55,0.63652
6854.76,0.63439
6848.97,0.63493
6843.19,0.63907
6837.4,0.63707
6831.62,0.63560
6825.83,0.63571
6820.04,0.63637
6814.26,0.63871
6808.47,0.63492
6802.68,0.63493
6796.9,0.63337
6791.11,0.63829
6785.33,0.63819
6779.54,0.64242
6773.75,0.63969
6767.97,0.64221
6762.18,0.64108
6756.39,0.64349
6750.61,0.64092
6744.82,0.63980
6739.04,0.63833
6733.25,0.64004
6727.46,0.64012
6721.68,0.64320
6715.89,0.64299
6710.1,0.64568
6704.32,0.64987
6698.53,0.64784
6692.75,0.64824
6686.96,0.65165
6681.17,0.64751
6675.39,0.64498
6669.6,0.65050
6663.82,0.64863
6658.03,0.65051
6652.24,0.65507
6646.46,0.65245
6640.67,0.65016
6634.88,0.65712
6629.1,0.65472
6623.31,0.65169
6617.53,0.65099
6611.74,0.65483
6605.95,0.65382
6600.17,0.65457
6594.38,0.65372
6588.59,0.65198
6582.81,0.65402
6577.02,0.65700
6571.24,0.65837
6565.45,0.65167
6559.66,0.65161
6553.88,0.65072
6548.09,0.65017
6542.3,0.65741
6536.52,0.65670
6530.73,0.65576
6524.95,0.65447
6519.16,0.65163
6513.37,0.65731
6507.59,0.65497
6501.8,0.65261
6496.01,0.65473
6490.23,0.65179
6484.44,0.65793
6478.66,0.65739
6472.87,0.65457
6467.08,0.65646
6461.3,0.65331
6455.51,0.65095
6449.72,0.65666
6443.94,0.65878
6438.15,0.65443
6432.37,0.65351
6426.58,0.65695
6420.79,0.65213
6415.01,0.65334
6409.22,0.65429
6403.43,0.65108
6397.65,0.65176
6391.86,0.65016
6386.08,0.64844
6380.29,0.64714
6374.5,0.64595
6368.72,0.64797
6362.93,0.64136
6357.14,0.64254
6351.36,0.64524
6345.57,0.64243
6339.79,0.63798
6334,0.64001
6328.21,0.63940
6322.43,0.63852
6316.64,0.64106
6310.85,0.63582
6305.07,0.63778
6299.28,0.63700
6293.5,0.63420
6287.71,0.63560
6281.92,0.63947
6276.14,0.63938
6270.35,0.63774
6264.56,0.63609
6258.78,0.63064
6252.99,0.62624
6247.21,0.62444
6241.42,0.62257
6235.63,0.61864
6229.85,0.61816
6224.06,0.61732
6218.27,0.61560
6212.49,0.61232
6206.7,0.60385
6200.92,0.60026
6195.13,0.59690
6189.34,0.59339
6183.56,0.58779
6177.77,0.58109
6171.98,0.57206
6166.2,0.55998
6160.41,0.54649
6154.63,0.53638
6148.84,0.52561
6143.05,0.51213
6137.27,0.49478
6131.48,0.48186
6125.7,0.46971
6119.91,0.45520
6114.12,0.44615
6108.34,0.44527
6102.55,0.44354
6096.76,0.45355
6090.98,0.46033
6085.19,0.46206
6079.41,0.46329
6073.62,0.46002
6067.83,0.47254
6062.05,0.47358
6056.26,0.47545
6050.47,0.46548
6044.69,0.45315
6038.9,0.43887
6033.12,0.42242
6027.33,0.39833
6021.54,0.37726
6015.76,0.35717
6009.97,0.34145
6004.18,0.32778
5998.4,0.31336
5992.61,0.30108
5986.83,0.28834
5981.04,0.27768
5975.25,0.27235
5969.47,0.26566
5963.68,0.26332
5957.89,0.26683
5952.11,0.26520
5946.32,0.26813
5940.54,0.27276
5934.75,0.27851
5928.96,0.28386
5923.18,0.28268
5917.39,0.28070
5911.6,0.28279
5905.82,0.28224
5900.03,0.28354
5894.25,0.28507
5888.46,0.28898
5882.67,0.29096
5876.89,0.29529
5871.1,0.29721
5865.31,0.29745
5859.53,0.29332
5853.74,0.29733
5847.96,0.29499
5842.17,0.29342
5836.38,0.29549
5830.6,0.29276
5824.81,0.29200
5819.02,0.29112
5813.24,0.29200
5807.45,0.29228
5801.67,0.29471
5795.88,0.29510
5790.09,0.29866
5784.31,0.30408
5778.52,0.30712
5772.73,0.31427
5766.95,0.32454
5761.16,0.33415
5755.38,0.34133
5749.59,0.34137
5743.8,0.34014
5738.02,0.33610
5732.23,0.33241
5726.44,0.32512
5720.66,0.31777
5714.87,0.30825
5709.09,0.30242
5703.3,0.30276
5697.51,0.30094
5691.73,0.30021
5685.94,0.30019
5680.15,0.30367
5674.37,0.30527
5668.58,0.30772
5662.8,0.31050
5657.01,0.31541
5651.22,0.31788
5645.44,0.32357
5639.65,0.32805
5633.87,0.33441
5628.08,0.33775
5622.29,0.34074
5616.51,0.34132
5610.72,0.34325
5604.93,0.34418
5599.15,0.34440
5593.36,0.34537
5587.58,0.35086
5581.79,0.35375
5576,0.35661
5570.22,0.36128
5564.43,0.36000
5558.64,0.36084
5552.86,0.36341
5547.07,0.36484
5541.29,0.36491
5535.5,0.36435
5529.71,0.36445
5523.93,0.36627
5518.14,0.36769
5512.35,0.36750
5506.57,0.36770
5500.78,0.36987
5495,0.37273
5489.21,0.37528
5483.42,0.37513
5477.64,0.37482
5471.85,0.37715
5466.06,0.37615
5460.28,0.37712
5454.49,0.37540
5448.71,0.37719
5442.92,0.37649
5437.13,0.37514
5431.35,0.37442
5425.56,0.37573
5419.77,0.37413
5413.99,0.37563
5408.2,0.37347
5402.42,0.37299
5396.63,0.37346
5390.84,0.37160
5385.06,0.37232
5379.27,0.37185
5373.48,0.37313
5367.7,0.37386
5361.91,0.37634
5356.13,0.37497
5350.34,0.37870
5344.55,0.38087
5338.77,0.38172
5332.98,0.38275
5327.19,0.38381
5321.41,0.38309
5315.62,0.38370
5309.84,0.38410
5304.05,0.38286
5298.26,0.37864
5292.48,0.37613
5286.69,0.37208
5280.9,0.36652
5275.12,0.35955
5269.33,0.35064
5263.55,0.34461
5257.76,0.33914
5251.97,0.33529
5246.19,0.33676
5240.4,0.33746
5234.61,0.34012
5228.83,0.34888
5223.04,0.35630
5217.26,0.35976
5211.47,0.36445
5205.68,0.36848
5199.9,0.37104
5194.11,0.37054
5188.32,0.37043
5182.54,0.36977
5176.75,0.36744
5170.97,0.36505
5165.18,0.36158
5159.39,0.35974
5153.61,0.35530
5147.82,0.35130
5142.03,0.35092
5136.25,0.35213
5130.46,0.35827
5124.68,0.36571
5118.89,0.37093
5113.1,0.37430
5107.32,0.37699
5101.53,0.38027
5095.75,0.37925
5089.96,0.38133
5084.17,0.38263
5078.39,0.38337
5072.6,0.38436
5066.81,0.38463
5061.03,0.38493
5055.24,0.38439
5049.46,0.38551
5043.67,0.38417
5037.88,0.38575
5032.1,0.38646
5026.31,0.38555
5020.52,0.38655
5014.74,0.38579
5008.95,0.38581
5003.17,0.38403
4997.38,0.38205
4991.59,0.38167
4985.81,0.38041
4980.02,0.38002
4974.23,0.37785
4968.45,0.37470
4962.66,0.37340
4956.88,0.37310
4951.09,0.37394
4945.3,0.37405
4939.52,0.37421
4933.73,0.37423
4927.94,0.37332
4922.16,0.37342
4916.37,0.37413
4910.59,0.37365
4904.8,0.37353
4899.01,0.37156
4893.23,0.36912
4887.44,0.36504
4881.65,0.36334
4875.87,0.36053
4870.08,0.36033
4864.3,0.36190
4858.51,0.36349
4852.72,0.36371
4846.94,0.36463
4841.15,0.36423
4835.36,0.36367
4829.58,0.36345
4823.79,0.36432
4818.01,0.36509
4812.22,0.36480
4806.43,0.36323
4800.65,0.36100
4794.86,0.35780
4789.07,0.35585
4783.29,0.35281
4777.5,0.34873
4771.72,0.34313
4765.93,0.33938
4760.14,0.33604
4754.36,0.33385
4748.57,0.33033
4742.78,0.32447
4737,0.31666
4731.21,0.30220
4725.43,0.28671
4719.64,0.27176
4713.85,0.26377
4708.07,0.26265
4702.28,0.26147
4696.49,0.25584
4690.71,0.24368
4684.92,0.22227
4679.14,0.19591
4673.35,0.17459
4667.56,0.16629
4661.78,0.16905
4655.99,0.17968
4650.2,0.18989
4644.42,0.19005
4638.63,0.18351
4632.85,0.17331
4627.06,0.16893
4621.27,0.16858
4615.49,0.16655
4609.7,0.16389
4603.92,0.16813
4598.13,0.18139
4592.34,0.19291
4586.56,0.19710
4580.77,0.18908
4574.98,0.17942
4569.2,0.18718
4563.41,0.20425
4557.63,0.21624
4551.84,0.22656
4546.05,0.23385
4540.27,0.23466
4534.48,0.23296
4528.69,0.23290
4522.91,0.23280
4517.12,0.23013
4511.34,0.22871
4505.55,0.22640
4499.76,0.22605
4493.98,0.22196
4488.19,0.21231
4482.4,0.20320
4476.62,0.20121
4470.83,0.20786
4465.05,0.21302
4459.26,0.21176
4453.47,0.20662
4447.69,0.20100
4441.9,0.19810
4436.11,0.19682
4430.33,0.19238
4424.54,0.18689
4418.76,0.18038
4412.97,0.17290
4407.18,0.16561
4401.4,0.15760
4395.61,0.15037
4389.82,0.14475
4384.04,0.13828
4378.25,0.13237
4372.47,0.12759
4366.68,0.12276
4360.89,0.12003
4355.11,0.11632
4349.32,0.11483
4343.53,0.11398
4337.75,0.11276
4331.96,0.11287
4326.18,0.11301
4320.39,0.11615
4314.6,0.11827
4308.82,0.11828
4303.03,0.11738
4297.24,0.11587
4291.46,0.11383
4285.67,0.11227
4279.89,0.11038
4274.1,0.10889
4268.31,0.10652
4262.53,0.10448
4256.74,0.10241
4250.95,0.10199
4245.17,0.10203
4239.38,0.10292
4233.6,0.10354
4227.81,0.10380
4222.02,0.10544
4216.24,0.10532
4210.45,0.10607
4204.66,0.10630
4198.88,0.10790
4193.09,0.10908
4187.31,0.11075
4181.52,0.11148
4175.73,0.11325
4169.95,0.11442
4164.16,0.11581
4158.37,0.11605
4152.59,0.11622
4146.8,0.11631
4141.02,0.11537
4135.23,0.11449
4129.44,0.11396
4123.66,0.11295
4117.87,0.11191
4112.09,0.11096
4106.3,0.11018
4100.51,0.11014
4094.73,0.10808
4088.94,0.10692
4083.15,0.10285
4077.37,0.09953
4071.58,0.09416
4065.8,0.09114
4060.01,0.08959
4054.22,0.08839
4048.44,0.08851
4042.65,0.08762
4036.86,0.08819
4031.08,0.09196
4025.29,0.09553
4019.51,0.10135
4013.72,0.10712
4007.93,0.10905
4002.15,0.11000
3996.36,0.11210
3990.57,0.11454
3984.79,0.11485
3979,0.11520
3973.22,0.11569
3967.43,0.11611
3961.64,0.11707
3955.86,0.11732
3950.07,0.11780
3944.28,0.11759
3938.5,0.11604
3932.71,0.11627
3926.93,0.11654
3921.14,0.11734
3915.35,0.11782
3909.57,0.11737
3903.78,0.11975
3897.99,0.11950
3892.21,0.12023
3886.42,0.12139
3880.64,0.12139
3874.85,0.12178
3869.06,0.12303
3863.28,0.12341
3857.49,0.12269
3851.7,0.12263
3845.92,0.12071
3840.13,0.12146
3834.35,0.11951
3828.56,0.11829
3822.77,0.11822
3816.99,0.11850
3811.2,0.11716
3805.41,0.11860
3799.63,0.11829
3793.84,0.11895
3788.06,0.12070
3782.27,0.12151
3776.48,0.12096
3770.7,0.12106
3764.91,0.12083
3759.12,0.12195
3753.34,0.12357
3747.55,0.12388
3741.77,0.12232
3735.98,0.12230
3730.19,0.11793
3724.41,0.11567
3718.62,0.11468
3712.83,0.11574
3707.05,0.11098
3701.26,0.10786
3695.48,0.10461
3689.69,0.10150
3683.9,0.09491
3678.12,0.09120
3672.33,0.08567
3666.54,0.08264
3660.76,0.08019
3654.97,0.07849
3649.19,0.07837
3643.4,0.07770
3637.61,0.07921
3631.83,0.08065
3626.04,0.08057
3620.25,0.08114
3614.47,0.08232
3608.68,0.08376
3602.9,0.08444
3597.11,0.08490
3591.32,0.08397
3585.54,0.08443
3579.75,0.08218
3573.97,0.08087
3568.18,0.08068
3562.39,0.07821
3556.61,0.07752
3550.82,0.07645
3545.03,0.07659
3539.25,0.07589
3533.46,0.07620
3527.68,0.07673
3521.89,0.07712
3516.1,0.07789
3510.32,0.07795
3504.53,0.07833
3498.74,0.07936
3492.96,0.07986
3487.17,0.07969
3481.39,0.07997
3475.6,0.07990
3469.81,0.08004
3464.03,0.08009
3458.24,0.08060
3452.45,0.08095
3446.67,0.08049
3440.88,0.08006
3435.1,0.08085
3429.31,0.08138
3423.52,0.08094
3417.74,0.08108
3411.95,0.08058
3406.16,0.08060
3400.38,0.07982
3394.59,0.08085
3388.81,0.08060
3383.02,0.08098
3377.23,0.08079
3371.45,0.08098
3365.66,0.08154
3359.87,0.08085
3354.09,0.08038
3348.3,0.08039
3342.52,0.08076
3336.73,0.08006
3330.94,0.07909
3325.16,0.07796
3319.37,0.07631
3313.58,0.07270
3307.8,0.06840
3302.01,0.06428
3296.23,0.06398
3290.44,0.06835
3284.65,0.07135
3278.87,0.07266
3273.08,0.07495
3267.29,0.07563
3261.51,0.07710
3255.72,0.07792
3249.94,0.07772
3244.15,0.07778
3238.36,0.07761
3232.58,0.07785
3226.79,0.07705
3221,0.07689
3215.22,0.07598
3209.43,0.07586
3203.65,0.07557
3197.86,0.07550
3192.07,0.07549
3186.29,0.07522
3180.5,0.07536
3174.71,0.07522
3168.93,0.07455
3163.14,0.07356
3157.36,0.07378
3151.57,0.07412
3145.78,0.07385
3140,0.07301
3134.21,0.07279
3128.42,0.07134
3122.64,0.06998
3116.85,0.06817
3111.07,0.06523
3105.28,0.06334
3099.49,0.06310
3093.71,0.06237
3087.92,0.06073
3082.14,0.06075
3076.35,0.06099
3070.56,0.06023
3064.78,0.05990
3058.99,0.05966
3053.2,0.06059
3047.42,0.06029
3041.63,0.05976
3035.85,0.05851
3030.06,0.05890
3024.27,0.05920
3018.49,0.06040
3012.7,0.05986
3006.91,0.05966
3001.13,0.05969
2995.34,0.05999
2989.56,0.05926
2983.77,0.05890
2977.98,0.05907
2972.2,0.05869
2966.41,0.05852
2960.62,0.05863
2954.84,0.05819
2949.05,0.05822
2943.27,0.05863
2937.48,0.05875
2931.69,0.05995
2925.91,0.06051
2920.12,0.06193
2914.33,0.06224
2908.55,0.06191
2902.76,0.06190
2896.98,0.06172
2891.19,0.06128
2885.4,0.06171
2879.62,0.06188
2873.83,0.06160
2868.04,0.06173
2862.26,0.06154
2856.47,0.06225
2850.69,0.06270
2844.9,0.06248
2839.11,0.06223
2833.33,0.06198
2827.54,0.06277
2821.75,0.06346
2815.97,0.06447
2810.18,0.06487
2804.4,0.06510
2798.61,0.06565
2792.82,0.06645
2787.04,0.06628
2781.25,0.06726
2775.46,0.06703
2769.68,0.06772
2763.89,0.06866
2758.11,0.06893
2752.32,0.06880
2746.53,0.06917
2740.75,0.06912
2734.96,0.06877
2729.17,0.06893
2723.39,0.06913
2717.6,0.06922
2711.82,0.06903
2706.03,0.06874
2700.24,0.06886
2694.46,0.06887
2688.67,0.06833
2682.88,0.06844
2677.1,0.06781
2671.31,0.06840
2665.53,0.06861
2659.74,0.06865
2653.95,0.06822
2648.17,0.06781
2642.38,0.06782
2636.59,0.06778
2630.81,0.06827
2625.02,0.06855
2619.24,0.06871
2613.45,0.06880
2607.66,0.06806
2601.88,0.06841
2596.09,0.06912
2590.3,0.06965
2584.52,0.06931
2578.73,0.06951
2572.95,0.06986
2567.16,0.06977
2561.37,0.06939
2555.59,0.06918
2549.8,0.06945
2544.02,0.06949
2538.23,0.06901
2532.44,0.06948
2526.66,0.06863
2520.87,0.06812
2515.08,0.06873
2509.3,0.06888
2503.51,0.06947
2497.73,0.06961
2491.94,0.06954
2486.15,0.06987
2480.37,0.06981
2474.58,0.07048
2468.79,0.07076
2463.01,0.07042
2457.22,0.07023
2451.44,0.07065
2445.65,0.07016
2439.86,0.07011
2434.08,0.07028
2428.29,0.07050
2422.5,0.07006
2416.72,0.06980
2410.93,0.06952
2405.15,0.06934
2399.36,0.06884
2393.57,0.06883
2387.79,0.06871
2382,0.06860
2376.21,0.06887
2370.43,0.07037
2364.64,0.07069
2358.86,0.07078
2353.07,0.06915
2347.28,0.06738
2341.5,0.06751
2335.71,0.06809
2329.92,0.06858
2324.14,0.06835
2318.35,0.06755
2312.57,0.06688
2306.78,0.06744
2300.99,0.06719
2295.21,0.06751
2289.42,0.06753
2283.63,0.06737
2277.85,0.06693
2272.06,0.06640
2266.28,0.06535
2260.49,0.06445
2254.7,0.06273
2248.92,0.06106
2243.13,0.06017
2237.34,0.06011
2231.56,0.06137
2225.77,0.06315
2219.99,0.06523
2214.2,0.06687
2208.41,0.06746
2202.63,0.06797
2196.84,0.06803
2191.05,0.06699
2185.27,0.06681
2179.48,0.06763
2173.7,0.06884
2167.91,0.06935
2162.12,0.06929
2156.34,0.06983
2150.55,0.06941
2144.76,0.06945
2138.98,0.06981
2133.19,0.06955
2127.41,0.06942
2121.62,0.06943
2115.83,0.06924
2110.05,0.06905
2104.26,0.06902
2098.47,0.06876
2092.69,0.06843
2086.9,0.06854
2081.12,0.06876
2075.33,0.06800
2069.54,0.06773
2063.76,0.06804
2057.97,0.06808
2052.19,0.06737
2046.4,0.06707
2040.61,0.06704
2034.83,0.06650
2029.04,0.06613
2023.25,0.06584
2017.47,0.06552
2011.68,0.06530
2005.9,0.06463
2000.11,0.06397
1994.32,0.06322
1988.54,0.06233
1982.75,0.06199
1976.96,0.06167
1971.18,0.06100
1965.39,0.06102
1959.61,0.06057
1953.82,0.06062
1948.03,0.06051
1942.25,0.06108
1936.46,0.06155
1930.67,0.06180
1924.89,0.06230
1919.1,0.06240
1913.32,0.06208
1907.53,0.06147
1901.74,0.06069
1895.96,0.06065
1890.17,0.06078
1884.38,0.06027
1878.6,0.06051
1872.81,0.06034
1867.03,0.06101
1861.24,0.06120
1855.45,0.06149
1849.67,0.06184
1843.88,0.06149
1838.09,0.06052
1832.31,0.06036
1826.52,0.06015
1820.74,0.05932
1814.95,0.05932
1809.16,0.05968
1803.38,0.05952
1797.59,0.05997
1791.8,0.06039
1786.02,0.06036
1780.23,0.06031
1774.45,0.06039
1768.66,0.06033
1762.87,0.05953
1757.09,0.05957
1751.3,0.06022
1745.51,0.05974
1739.73,0.05970
1733.94,0.06082
1728.16,0.05982
1722.37,0.06057
1716.58,0.06223
1710.8,0.06084
1705.01,0.06152
1699.22,0.06275
1693.44,0.06063
1687.65,0.06066
1681.87,0.06069
1676.08,0.06024
1670.29,0.06101
1664.51,0.06039
1658.72,0.06006
1652.93,0.06140
1647.15,0.06104
1641.36,0.05945
1635.58,0.06116
1629.79,0.06064
1624,0.06065
1618.22,0.06099
1612.43,0.05931
1606.64,0.05884
1600.86,0.05969
1595.07,0.06055
1589.29,0.05984
1583.5,0.05960
1577.71,0.06043
1571.93,0.05955
1566.14,0.05972
1560.35,0.06142
1554.57,0.05934
1548.78,0.05948
1543,0.06062
1537.21,0.05945
1531.42,0.05924
1525.64,0.05956
1519.85,0.05949
1514.07,0.05853
1508.28,0.05925
1502.49,0.05666
1496.71,0.05648
1490.92,0.06076
1485.13,0.05994
1479.35,0.05872
1473.56,0.05845
1467.78,0.05745
1461.99,0.05617
1456.2,0.05646
1450.42,0.06051
1444.63,0.06153
1438.84,0.06154
1433.06,0.06147
1427.27,0.06120
1421.49,0.06155
1415.7,0.06121
1409.91,0.06071
1404.13,0.06036
1398.34,0.06043
1392.55,0.06031
1386.77,0.05953
1380.98,0.05946
1375.2,0.05981
1369.41,0.05934
1363.62,0.06017
1357.84,0.06004
1352.05,0.05977
1346.26,0.05975
1340.48,0.06024
1334.69,0.05974
1328.91,0.05942
1323.12,0.05944
1317.33,0.05958
1311.55,0.05971
1305.76,0.06009
1299.97,0.06025
1294.19,0.05986
1288.4,0.05951
1282.62,0.06016
1276.83,0.06060
1271.04,0.06044
1265.26,0.06009
1259.47,0.05998
1253.68,0.05975
1247.9,0.05991
1242.11,0.05977
1236.33,0.06004
1230.54,0.05962
1224.75,0.05964
1218.97,0.05979
1213.18,0.05944
1207.39,0.05967
1201.61,0.05986
1195.82,0.06027
1190.04,0.06058
1184.25,0.06014
1178.46,0.06047
1172.68,0.06031
1166.89,0.05956
1161.1,0.06033
1155.32,0.06026
1149.53,0.06014
1143.75,0.06017
1137.96,0.05982
1132.17,0.05956
1126.39,0.05988
1120.6,0.05939
1114.81,0.06011
1109.03,0.05957
1103.24,0.05987
1097.46,0.05967
1091.67,0.05899
1085.88,0.05892
1080.1,0.05951
1074.31,0.05915
1068.52,0.05970
1062.74,0.05984
1056.95,0.06011
1051.17,0.06062
1045.38,0.06045
1039.59,0.05986
1033.81,0.06019
1028.02,0.05975
1022.24,0.06051
1016.45,0.06087
1010.66,0.05956
1004.88,0.05988
999.09,0.05871
993.304,0.05866
987.518,0.05880
981.731,0.05840
975.945,0.05769
970.159,0.05649
964.373,0.05913
958.586,0.06160
952.8,0.06187
947.014,0.06140
941.228,0.06032
935.441,0.05953
929.655,0.05961
923.869,0.05910
918.083,0.05775
912.297,0.05845
906.51,0.06064
900.724,0.06106
894.938,0.06009
889.152,0.05957
883.365,0.05980
877.579,0.05887
871.793,0.05905
866.007,0.05892
860.22,0.05869
854.434,0.05783
848.648,0.05729
842.862,0.05838
837.075,0.05842
831.289,0.05696
825.503,0.05700
819.717,0.05661
813.931,0.05591
808.144,0.05555
802.358,0.05547
796.572,0.05525
790.786,0.05400
784.999,0.05257
779.213,0.05202
773.427,0.05024
767.641,0.05107
761.854,0.05575
756.068,0.06022
750.282,0.05955
744.496,0.05893
738.709,0.05632
732.923,0.05631
727.137,0.05398
721.351,0.05239
715.565,0.04843
709.778,0.04421
703.992,0.05835
698.206,0.08125
692.42,0.07544
686.633,0.06825
680.847,0.06465
675.061,0.06380
669.275,0.06357
663.488,0.06375
657.702,0.06368
651.916,0.06239
646.13,0.06211
640.343,0.06017
634.557,0.06131
628.771,0.06054
622.985,0.06007
617.198,0.05925
611.412,0.06010
605.626,0.05904
599.84,0.05938