File: 01_Data/ABS/FTIR/IS/ABS_IS_T_220906_R5.dpt
7497.03,0.02281
7491.25,0.03363
7485.46,0.02395
7479.67,0.03330
7473.89,0.01532
7468.1,0.02367
7462.32,0.03129
7456.53,0.02744
7450.74,0.01972
7444.96,0.02969
7439.17,0.03035
7433.38,0.01924
7427.6,0.02826
7421.81,0.02334
7416.03,0.02436
7410.24,0.02260
7404.45,0.02501
7398.67,0.02143
7392.88,0.02081
7387.09,0.02081
7381.31,0.01063
7375.52,0.02082
7369.74,0.03077
7363.95,0.02282
7358.16,0.02172
7352.38,0.02329
7346.59,0.02675
7340.8,0.02522
7335.02,0.03130
7329.23,0.02838
7323.45,0.03224
7317.66,0.02608
7311.87,0.03040
7306.09,0.03078
7300.3,0.02790
7294.51,0.02053
7288.73,0.02030
7282.94,0.02585
7277.16,0.02047
7271.37,0.03173
7265.58,0.02227
7259.8,0.02163
7254.01,0.02211
7248.22,0.03180
7242.44,0.01711
7236.65,0.02065
7230.87,0.01493
7225.08,0.02413
7219.29,0.02514
7213.51,0.02133
7207.72,0.02514
7201.93,0.02849
7196.15,0.01603
7190.36,0.02086
7184.58,0.02162
7178.79,0.01823
7173,0.02783
7167.22,0.02526
7161.43,0.01801
7155.65,0.02634
7149.86,0.02128
7144.07,0.02544
7138.29,0.02001
7132.5,0.02745
7126.71,0.01759
7120.93,0.02188
7115.14,0.02212
7109.36,0.02411
7103.57,0.02450
7097.78,0.02215
7092,0.01567
7086.21,0.02172
7080.42,0.02334
7074.64,0.02218
7068.85,0.02282
7063.07,0.02251
7057.28,0.03035
7051.49,0.02966
7045.71,0.02788
7039.92,0.02883
7034.13,0.02704
7028.35,0.02227
7022.56,0.02354
7016.78,0.02743
7010.99,0.02468
7005.2,0.01866
6999.42,0.02187
6993.63,0.02798
6987.84,0.02082
6982.06,0.02237
6976.27,0.02702
6970.49,0.02341
6964.7,0.02746
6958.91,0.01929
6953.13,0.02755
6947.34,0.02148
6941.55,0.02372
6935.77,0.02481
6929.98,0.02492
6924.2,0.02610
6918.41,0.02197
6912.62,0.02386
6906.84,0.02544
6901.05,0.02362
6895.26,0.02473
6889.48,0.02943
6883.69,0.02762
6877.91,0.02287
6872.12,0.03270
6866.33,0.02904
6860.55,0.02423
6854.76,0.02067
6848.97,0.02249
6843.19,0.02419
6837.4,0.02563
6831.62,0.02552
6825.83,0.02400
6820.04,0.02120
6814.26,0.02275
6808.47,0.02308
6802.68,0.02552
6796.9,0.02111
6791.11,0.01750
6785.33,0.02130
6779.54,0.02701
6773.75,0.02756
6767.97,0.01948
6762.18,0.02691
6756.39,0.02477
6750.61,0.02464
6744.82,0.02448
6739.04,0.02323
6733.25,0.02077
6727.46,0.01895
6721.68,0.02349
6715.89,0.02220
6710.1,0.01952
6704.32,0.01995
6698.53,0.02097
6692.75,0.02327
6686.96,0.02178
6681.17,0.02383
6675.39,0.02506
6669.6,0.02411
6663.82,0.02101
6658.03,0.02201
6652.24,0.02114
6646.46,0.02112
6640.67,0.02411
6634.88,0.02176
6629.1,0.02079
6623.31,0.02450
6617.53,0.02543
6611.74,0.02030
6605.95,0.02382
6600.17,0.02433
6594.38,0.02138
6588.59,0.01651
6582.81,0.02194
6577.02,0.02419
6571.24,0.02116
6565.45,0.02325
6559.66,0.02391
6553.88,0.02109
6548.09,0.02377
6542.3,0.02252
6536.52,0.02251
6530.73,0.02205
6524.95,0.02336
6519.16,0.02443
6513.37,0.02334
6507.59,0.02094
6501.8,0.02290
6496.01,0.02210
6490.23,0.02594
6484.44,0.02072
6478.66,0.02184
6472.87,0.02209
6467.08,0.02391
6461.3,0.02065
6455.51,0.02489
6449.72,0.02302
6443.94,0.02266
6438.15,0.02010
6432.37,0.02475
6426.58,0.02262
6420.79,0.02326
6415.01,0.02157
6409.22,0.02267
6403.43,0.02402
6397.65,0.02497
6391.86,0.02235
6386.08,0.01908
6380.29,0.02539
6374.5,0.02539
6368.72,0.02331
6362.93,0.02419
6357.14,0.02666
6351.36,0.01980
6345.57,0.02338
6339.79,0.02118
6334,0.02348
6328.21,0.02791
6322.43,0.02141
6316.64,0.02088
6310.85,0.02364
6305.07,0.02158
6299.28,0.02338
6293.5,0.02258
6287.71,0.02066
6281.92,0.02123
6276.14,0.02028
6270.35,0.02138
6264.56,0.02166
6258.78,0.02171
6252.99,0.02306
6247.21,0.02117
6241.42,0.02180
6235.63,0.02393
6229.85,0.02021
6224.06,0.02008
6218.27,0.02162
6212.49,0.02342
6206.7,0.02150
6200.92,0.02371
6195.13,0.01937
6189.34,0.02189
6183.56,0.01936
6177.77,0.02089
6171.98,0.02148
6166.2,0.02425
6160.41,0.01934
6154.63,0.01979
6148.84,0.01997
6143.05,0.02282
6137.27,0.01781
6131.48,0.01986
6125.7,0.02205
6119.91,0.02006
6114.12,0.02236
6108.34,0.01965
6102.55,0.01979
6096.76,0.02214
6090.98,0.01701
6085.19,0.02163
6079.41,0.02258
6073.62,0.02396
6067.83,0.02317
6062.05,0.01929
6056.26,0.02393
6050.47,0.02302
6044.69,0.02036
6038.9,0.02429
6033.12,0.02345
6027.33,0.02247
6021.54,0.02385
6015.76,0.02170
6009.97,0.02225
6004.18,0.02174
5998.4,0.02093
5992.61,0.02058
5986.83,0.02364
5981.04,0.02090
5975.25,0.02128
5969.47,0.02068
5963.68,0.02150
5957.89,0.02060
5952.11,0.02247
5946.32,0.02211
5940.54,0.02068
5934.75,0.02267
5928.96,0.02225
5923.18,0.02211
5917.39,0.02216
5911.6,0.02199
5905.82,0.02054
5900.03,0.02061
5894.25,0.02175
5888.46,0.02172
5882.67,0.02361
5876.89,0.01804
5871.1,0.02071
5865.31,0.02090
5859.53,0.02108
5853.74,0.02153
5847.96,0.02251
5842.17,0.02209
5836.38,0.02315
5830.6,0.02360
5824.81,0.02079
5819.02,0.02093
5813.24,0.02075
5807.45,0.02139
5801.67,0.02172
5795.88,0.02035
5790.09,0.02169
5784.31,0.02162
5778.52,0.02071
5772.73,0.02328
5766.95,0.01986
5761.16,0.02250
5755.38,0.02057
5749.59,0.02242
5743.8,0.02307
5738.02,0.02184
5732.23,0.02086
5726.44,0.02296
5720.66,0.02083
5714.87,0.02113
5709.09,0.02211
5703.3,0.02276
5697.51,0.02328
5691.73,0.02178
5685.94,0.02225
5680.15,0.02181
5674.37,0.02396
5668.58,0.02228
5662.8,0.02286
5657.01,0.02322
5651.22,0.02333
5645.44,0.02265
5639.65,0.02047
5633.87,0.02163
5628.08,0.02215
5622.29,0.02361
5616.51,0.02298
5610.72,0.02254
5604.93,0.02288
5599.15,0.02430
5593.36,0.02172
5587.58,0.02161
5581.79,0.02204
5576,0.02308
5570.22,0.02274
5564.43,0.02233
5558.64,0.02107
5552.86,0.02011
5547.07,0.02226
5541.29,0.02240
5535.5,0.02283
5529.71,0.02244
5523.93,0.02269
5518.14,0.02346
5512.35,0.02311
5506.57,0.02259
5500.78,0.02274
5495,0.02151
5489.21,0.02109
5483.42,0.02170
5477.64,0.02327
5471.85,0.02281
5466.06,0.02197
5460.28,0.02270
5454.49,0.02231
5448.71,0.02131
5442.92,0.02350
5437.13,0.02358
5431.35,0.02068
5425.56,0.02068
5419.77,0.02045
5413.99,0.02280
5408.2,0.02180
5402.42,0.02180
5396.63,0.02309
5390.84,0.02255
5385.06,0.02104
5379.27,0.02106
5373.48,0.02147
5367.7,0.02189
5361.91,0.02286
5356.13,0.02293
5350.34,0.02371
5344.55,0.02214
5338.77,0.02268
5332.98,0.02263
5327.19,0.02269
5321.41,0.02085
5315.62,0.02271
5309.84,0.02292
5304.05,0.02225
5298.26,0.02184
5292.48,0.02245
5286.69,0.02303
5280.9,0.02222
5275.12,0.02214
5269.33,0.02245
5263.55,0.02188
5257.76,0.02164
5251.97,0.02146
5246.19,0.02243
5240.4,0.02144
5234.61,0.02162
5228.83,0.02199
5223.04,0.02248
5217.26,0.02266
5211.47,0.02211
5205.68,0.02083
5199.9,0.02236
5194.11,0.02255
5188.32,0.02125
5182.54,0.02172
5176.75,0.02279
5170.97,0.02240
5165.18,0.02283
5159.39,0.02292
5153.61,0.02196
5147.82,0.02150
5142.03,0.02241
5136.25,0.02236
5130.46,0.02315
5124.68,0.02277
5118.89,0.02221
5113.1,0.02223
5107.32,0.02239
5101.53,0.02083
5095.75,0.02247
5089.96,0.02167
5084.17,0.02342
5078.39,0.02318
5072.6,0.02289
5066.81,0.02159
5061.03,0.02130
5055.24,0.02249
5049.46,0.02246
5043.67,0.02179
5037.88,0.02237
5032.1,0.02325
5026.31,0.02287
5020.52,0.02304
5014.74,0.02279
5008.95,0.02211
5003.17,0.02286
4997.38,0.02204
4991.59,0.02200
4985.81,0.02241
4980.02,0.02313
4974.23,0.02204
4968.45,0.02164
4962.66,0.02241
4956.88,0.02194
4951.09,0.02194
4945.3,0.02207
4939.52,0.02259
4933.73,0.02298
4927.94,0.02267
4922.16,0.02329
4916.37,0.02239
4910.59,0.02194
4904.8,0.02256
4899.01,0.02242
4893.23,0.02150
4887.44,0.02142
4881.65,0.02152
4875.87,0.02295
4870.08,0.02305
4864.3,0.02347
4858.51,0.02186
4852.72,0.02266
4846.94,0.02166
4841.15,0.02257
4835.36,0.02208
4829.58,0.02223
4823.79,0.02288
4818.01,0.02308
4812.22,0.02323
4806.43,0.02373
4800.65,0.02180
4794.86,0.02248
4789.07,0.02200
4783.29,0.02233
4777.5,0.02335
4771.72,0.02263
4765.93,0.02304
4760.14,0.02290
4754.36,0.02269
4748.57,0.02214
4742.78,0.02291
4737,0.02262
4731.21,0.02224
4725.43,0.02288
4719.64,0.02241
4713.85,0.02256
4708.07,0.02223
4702.28,0.02216
4696.49,0.02377
4690.71,0.02200
4684.92,0.02316
4679.14,0.02377
4673.35,0.02373
4667.56,0.02243
4661.78,0.02300
4655.99,0.02214
4650.2,0.02312
4644.42,0.02318
4638.63,0.02343
4632.85,0.02176
4627.06,0.02277
4621.27,0.02292
4615.49,0.02276
4609.7,0.02206
4603.92,0.02203
4598.13,0.02167
4592.34,0.02255
4586.56,0.02314
4580.77,0.02268
4574.98,0.02254
4569.2,0.02318
4563.41,0.02261
4557.63,0.02348
4551.84,0.02313
4546.05,0.02226
4540.27,0.02227
4534.48,0.02232
4528.69,0.02195
4522.91,0.02221
4517.12,0.02311
4511.34,0.02227
4505.55,0.02201
4499.76,0.02342
4493.98,0.02221
4488.19,0.02262
4482.4,0.02218
4476.62,0.02290
4470.83,0.02280
4465.05,0.02270
4459.26,0.02233
4453.47,0.02295
4447.69,0.02254
4441.9,0.02315
4436.11,0.02251
4430.33,0.02286
4424.54,0.02221
4418.76,0.02269
4412.97,0.02418
4407.18,0.02198
4401.4,0.02381
4395.61,0.02267
4389.82,0.02308
4384.04,0.02280
4378.25,0.02317
4372.47,0.02244
4366.68,0.02227
4360.89,0.02235
4355.11,0.02245
4349.32,0.02342
4343.53,0.02277
4337.75,0.02266
4331.96,0.02291
4326.18,0.02263
4320.39,0.02299
4314.6,0.02305
4308.82,0.02267
4303.03,0.02282
4297.24,0.02264
4291.46,0.02298
4285.67,0.02262
4279.89,0.02338
4274.1,0.02281
4268.31,0.02187
4262.53,0.02301
4256.74,0.02263
4250.95,0.02294
4245.17,0.02254
4239.38,0.02231
4233.6,0.02309
4227.81,0.02252
4222.02,0.02288
4216.24,0.02224
4210.45,0.02267
4204.66,0.02241
4198.88,0.02273
4193.09,0.02215
4187.31,0.02253
4181.52,0.02257
4175.73,0.02240
4169.95,0.02302
4164.16,0.02250
4158.37,0.02262
4152.59,0.02299
4146.8,0.02327
4141.02,0.02281
4135.23,0.02279
4129.44,0.02316
4123.66,0.02280
4117.87,0.02293
4112.09,0.02345
4106.3,0.02282
4100.51,0.02209
4094.73,0.02254
4088.94,0.02271
4083.15,0.02241
4077.37,0.02198
4071.58,0.02311
4065.8,0.02330
4060.01,0.02258
4054.22,0.02294
4048.44,0.02312
4042.65,0.02285
4036.86,0.02311
4031.08,0.02225
4025.29,0.02282
4019.51,0.02246
4013.72,0.02279
4007.93,0.02312
4002.15,0.02254
3996.36,0.02313
3990.57,0.02217
3984.79,0.02239
3979,0.02283
3973.22,0.02311
3967.43,0.02275
3961.64,0.02310
3955.86,0.02264
3950.07,0.02272
3944.28,0.02266
3938.5,0.02316
3932.71,0.02216
3926.93,0.02228
3921.14,0.02213
3915.35,0.02250
3909.57,0.02231
3903.78,0.02276
3897.99,0.02229
3892.21,0.02258
3886.42,0.02216
3880.64,0.02241
3874.85,0.02346
3869.06,0.02221
3863.28,0.02264
3857.49,0.02327
3851.7,0.02210
3845.92,0.02295
3840.13,0.02291
3834.35,0.02368
3828.56,0.02291
3822.77,0.02283
3816.99,0.02329
3811.2,0.02352
3805.41,0.02275
3799.63,0.02335
3793.84,0.02279
3788.06,0.02273
3782.27,0.02326
3776.48,0.02330
3770.7,0.02320
3764.91,0.02262
3759.12,0.02328
3753.34,0.02344
3747.55,0.02403
3741.77,0.02253
3735.98,0.02360
3730.19,0.02315
3724.41,0.02283
3718.62,0.02200
3712.83,0.02300
3707.05,0.02319
3701.26,0.02246
3695.48,0.02246
3689.69,0.02257
3683.9,0.02211
3678.12,0.02315
3672.33,0.02242
3666.54,0.02181
3660.76,0.02223
3654.97,0.02255
3649.19,0.02198
3643.4,0.02151
3637.61,0.02239
3631.83,0.02299
3626.04,0.02192
3620.25,0.02199
3614.47,0.02230
3608.68,0.02191
3602.9,0.02187
3597.11,0.02150
3591.32,0.02207
3585.54,0.02208
3579.75,0.02169
3573.97,0.02162
3568.18,0.02152
3562.39,0.02151
3556.61,0.02149
3550.82,0.02140
3545.03,0.02144
3539.25,0.02208
3533.46,0.02179
3527.68,0.02120
3521.89,0.02108
3516.1,0.02145
3510.32,0.02181
3504.53,0.02125
3498.74,0.02097
3492.96,0.02095
3487.17,0.02084
3481.39,0.02098
3475.6,0.02152
3469.81,0.02183
3464.03,0.02037
3458.24,0.02089
3452.45,0.02098
3446.67,0.02082
3440.88,0.02092
3435.1,0.02076
3429.31,0.02073
3423.52,0.02077
3417.74,0.02130
3411.95,0.02115
3406.16,0.02096
3400.38,0.02059
3394.59,0.02039
3388.81,0.02068
3383.02,0.02092
3377.23,0.02138
3371.45,0.02051
3365.66,0.02013
3359.87,0.02065
3354.09,0.02055
3348.3,0.02031
3342.52,0.02087
3336.73,0.02066
3330.94,0.01999
3325.16,0.02035
3319.37,0.02038
3313.58,0.02053
3307.8,0.02097
3302.01,0.02069
3296.23,0.02058
3290.44,0.02006
3284.65,0.02091
3278.87,0.02037
3273.08,0.02074
3267.29,0.02090
3261.51,0.02105
3255.72,0.02066
3249.94,0.02057
3244.15,0.02066
3238.36,0.02059
3232.58,0.02076
3226.79,0.02084
3221,0.02176
3215.22,0.02136
3209.43,0.02154
3203.65,0.02091
3197.86,0.02097
3192.07,0.02188
3186.29,0.02104
3180.5,0.02156
3174.71,0.02131
3168.93,0.02085
3163.14,0.02112
3157.36,0.02137
3151.57,0.02123
3145.78,0.02138
3140,0.02137
3134.21,0.02109
3128.42,0.02137
3122.64,0.02119
3116.85,0.02073
3111.07,0.02118
3105.28,0.02070
3099.49,0.02085
3093.71,0.02109
3087.92,0.02090
3082.14,0.02087
3076.35,0.02114
3070.56,0.02128
3064.78,0.02107
3058.99,0.02055
3053.2,0.02080
3047.42,0.02066
3041.63,0.02094
3035.85,0.02102
3030.06,0.02085
3024.27,0.02051
3018.49,0.02052
3012.7,0.02084
3006.91,0.02117
3001.13,0.02034
2995.34,0.02035
2989.56,0.02031
2983.77,0.01991
2977.98,0.02016
2972.2,0.01993
2966.41,0.01951
2960.62,0.01988
2954.84,0.01956
2949.05,0.01965
2943.27,0.02011
2937.48,0.01957
2931.69,0.01981
2925.91,0.02012
2920.12,0.02022
2914.33,0.02060
2908.55,0.02078
2902.76,0.02078
2896.98,0.02075
2891.19,0.02053
2885.4,0.02077
2879.62,0.02086
2873.83,0.02070
2868.04,0.02049
2862.26,0.02087
2856.47,0.02097
2850.69,0.02094
2844.9,0.02125
2839.11,0.02154
2833.33,0.02135
2827.54,0.02151
2821.75,0.02170
2815.97,0.02152
2810.18,0.02160
2804.4,0.02162
2798.61,0.02144
2792.82,0.02157
2787.04,0.02126
2781.25,0.02147
2775.46,0.02158
2769.68,0.02124
2763.89,0.02126
2758.11,0.02151
2752.32,0.02137
2746.53,0.02120
2740.75,0.02151
2734.96,0.02140
2729.17,0.02138
2723.39,0.02175
2717.6,0.02169
2711.82,0.02130
2706.03,0.02173
2700.24,0.02143
2694.46,0.02167
2688.67,0.02157
2682.88,0.02214
2677.1,0.02201
2671.31,0.02181
2665.53,0.02159
2659.74,0.02115
2653.95,0.02184
2648.17,0.02166
2642.38,0.02129
2636.59,0.02138
2630.81,0.02190
2625.02,0.02136
2619.24,0.02147
2613.45,0.02157
2607.66,0.02154
2601.88,0.02127
2596.09,0.02163
2590.3,0.02145
2584.52,0.02196
2578.73,0.02148
2572.95,0.02171
2567.16,0.02174
2561.37,0.02156
2555.59,0.02150
2549.8,0.02168
2544.02,0.02133
2538.23,0.02156
2532.44,0.02138
2526.66,0.02121
2520.87,0.02143
2515.08,0.02156
2509.3,0.02145
2503.51,0.02125
2497.73,0.02136
2491.94,0.02158
2486.15,0.02139
2480.37,0.02143
2474.58,0.02119
2468.79,0.02162
2463.01,0.02152
2457.22,0.02158
2451.44,0.02128
2445.65,0.02117
2439.86,0.02171
2434.08,0.02187
2428.29,0.02169
2422.5,0.02156
2416.72,0.02155
2410.93,0.02123
2405.15,0.02158
2399.36,0.02155
2393.57,0.02132
2387.79,0.02135
2382,0.02166
2376.21,0.02165
2370.43,0.02209
2364.64,0.02169
2358.86,0.02117
2353.07,0.02172
2347.28,0.02136
2341.5,0.02155
2335.71,0.02155
2329.92,0.02173
2324.14,0.02185
2318.35,0.02157
2312.57,0.02148
2306.78,0.02138
2300.99,0.02116
2295.21,0.02125
2289.42,0.02126
2283.63,0.02149
2277.85,0.02136
2272.06,0.02147
2266.28,0.02123
2260.49,0.02138
2254.7,0.02118
2248.92,0.02129
2243.13,0.02118
2237.34,0.02139
2231.56,0.02148
2225.77,0.02108
2219.99,0.02098
2214.2,0.02110
2208.41,0.02158
2202.63,0.02126
2196.84,0.02134
2191.05,0.02126
2185.27,0.02086
2179.48,0.02115
2173.7,0.02124
2167.91,0.02119
2162.12,0.02109
2156.34,0.02126
2150.55,0.02124
2144.76,0.02130
2138.98,0.02162
2133.19,0.02098
2127.41,0.02100
2121.62,0.02128
2115.83,0.02089
2110.05,0.02125
2104.26,0.02127
2098.47,0.02132
2092.69,0.02116
2086.9,0.02107
2081.12,0.02153
2075.33,0.02151
2069.54,0.02084
2063.76,0.02114
2057.97,0.02105
2052.19,0.02133
2046.4,0.02130
2040.61,0.02119
2034.83,0.02094
2029.04,0.02061
2023.25,0.02110
2017.47,0.02115
2011.68,0.02090
2005.9,0.02089
2000.11,0.02138
1994.32,0.02084
1988.54,0.02129
1982.75,0.02117
1976.96,0.02126
1971.18,0.02111
1965.39,0.02098
1959.61,0.02081
1953.82,0.02112
1948.03,0.02078
1942.25,0.02091
1936.46,0.02116
1930.67,0.02068
1924.89,0.02085
1919.1,0.02084
1913.32,0.02117
1907.53,0.02083
1901.74,0.02035
1895.96,0.02091
1890.17,0.02041
1884.38,0.02065
1878.6,0.02076
1872.81,0.02084
1867.03,0.02059
1861.24,0.02051
1855.45,0.02086
1849.67,0.02066
1843.88,0.02064
1838.09,0.02034
1832.31,0.02039
1826.52,0.02073
1820.74,0.02014
1814.95,0.01984
1809.16,0.02024
1803.38,0.01988
1797.59,0.01980
1791.8,0.01971
1786.02,0.01923
1780.23,0.01932
1774.45,0.01948
1768.66,0.01897
1762.87,0.01817
1757.09,0.01796
1751.3,0.01740
1745.51,0.01802
1739.73,0.01860
1733.94,0.02017
1728.16,0.02060
1722.37,0.02080
1716.58,0.02057
1710.8,0.02062
1705.01,0.02017
1699.22,0.02018
1693.44,0.01967
1687.65,0.01967
1681.87,0.01927
1676.08,0.01894
1670.29,0.01851
1664.51,0.01878
1658.72,0.01863
1652.93,0.01891
1647.15,0.01873
1641.36,0.01859
1635.58,0.01891
1629.79,0.01916
1624,0.01921
1618.22,0.01896
1612.43,0.01889
1606.64,0.01940
1600.86,0.01929
1595.07,0.01907
1589.29,0.01886
1583.5,0.01863
1577.71,0.01860
1571.93,0.01854
1566.14,0.01790
1560.35,0.01834
1554.57,0.01854
1548.78,0.01851
1543,0.01833
1537.21,0.01856
1531.42,0.01881
1525.64,0.01948
1519.85,0.01858
1514.07,0.01872
1508.28,0.01907
1502.49,0.01853
1496.71,0.01872
1490.92,0.01911
1485.13,0.01896
1479.35,0.01902
1473.56,0.01861
1467.78,0.01858
1461.99,0.01855
1456.2,0.01912
1450.42,0.01896
1444.63,0.01901
1438.84,0.01893
1433.06,0.01860
1427.27,0.01863
1421.49,0.01916
1415.7,0.01864
1409.91,0.01869
1404.13,0.01814
1398.34,0.01831
1392.55,0.01845
1386.77,0.01834
1380.98,0.01827
1375.2,0.01831
1369.41,0.01829
1363.62,0.01840
1357.84,0.01834
1352.05,0.01828
1346.26,0.01765
1340.48,0.01805
1334.69,0.01763
1328.91,0.01749
1323.12,0.01740
1317.33,0.01733
1311.55,0.01680
1305.76,0.01730
1299.97,0.01754
1294.19,0.01788
1288.4,0.01850
1282.62,0.01908
1276.83,0.01888
1271.04,0.01961
1265.26,0.02003
1259.47,0.01995
1253.68,0.02021
1247.9,0.02012
1242.11,0.02000
1236.33,0.02003
1230.54,0.01942
1224.75,0.01926
1218.97,0.01923
1213.18,0.01914
1207.39,0.01894
1201.61,0.01828
1195.82,0.01851
1190.04,0.01794
1184.25,0.01785
1178.46,0.01767
1172.68,0.01794
1166.89,0.01779
1161.1,0.01827
1155.32,0.01771
1149.53,0.01789
1143.75,0.01788
1137.96,0.01749
1132.17,0.01780
1126.39,0.01815
1120.6,0.01928
1114.81,0.01889
1109.03,0.01918
1103.24,0.01783
1097.46,0.01814
1091.67,0.01842
1085.88,0.01838
1080.1,0.01821
1074.31,0.01975
1068.52,0.01950
1062.74,0.01931
1056.95,0.01968
1051.17,0.01963
1045.38,0.01904
1039.59,0.01971
1033.81,0.01919
1028.02,0.01867
1022.24,0.01948
1016.45,0.01957
1010.66,0.02009
1004.88,0.02071
999.09,0.02148
993.304,0.02108
987.518,0.02076
981.731,0.02076
975.945,0.02075
970.159,0.02097
964.373,0.02014
958.586,0.01977
952.8,0.02056
947.014,0.02001
941.228,0.01985
935.441,0.02026
929.655,0.01906
923.869,0.01928
918.083,0.01944
912.297,0.01939
906.51,0.01895
900.724,0.01917
894.938,0.01893
889.152,0.01973
883.365,0.01961
877.579,0.01926
871.793,0.01846
866.007,0.01847
860.22,0.01919
854.434,0.01896
848.648,0.01835
842.862,0.01872
837.075,0.01826
831.289,0.01861
825.503,0.01973
819.717,0.01871
813.931,0.01879
808.144,0.01896
802.358,0.01914
796.572,0.01869
790.786,0.01922
784.999,0.01828
779.213,0.01818
773.427,0.01810
767.641,0.01909
761.854,0.01853
756.068,0.01806
750.282,0.01799
744.496,0.01840
738.709,0.01876
732.923,0.01836
727.137,0.01874
721.351,0.01727
715.565,0.01850
709.778,0.01777
703.992,0.01862
698.206,0.01874
692.42,0.01877
686.633,0.01801
680.847,0.01815
675.061,0.01860
669.275,0.01775
663.488,0.01805
657.702,0.01823
651.916,0.01575
646.13,0.01632
640.343,0.01612
634.557,0.01703
628.771,0.01421
622.985,0.01606
617.198,0.01353
611.412,0.01609
605.626,0.01513
599.84,0.01506