File: 01_Data/ABS/FTIR/IS/ABS_IS_T_220906_R8.dpt
7497.03,0.01790
7491.25,0.03017
7485.46,0.02374
7479.67,0.02447
7473.89,0.01904
7468.1,0.02509
7462.32,0.03237
7456.53,0.01937
7450.74,0.02999
7444.96,0.02535
7439.17,0.02655
7433.38,0.02877
7427.6,0.02263
7421.81,0.01494
7416.03,0.03093
7410.24,0.01523
7404.45,0.02334
7398.67,0.02375
7392.88,0.02888
7387.09,0.02300
7381.31,0.03010
7375.52,0.01869
7369.74,0.01934
7363.95,0.02284
7358.16,0.02079
7352.38,0.02994
7346.59,0.02444
7340.8,0.02641
7335.02,0.02997
7329.23,0.02796
7323.45,0.02578
7317.66,0.02785
7311.87,0.01538
7306.09,0.01571
7300.3,0.02099
7294.51,0.02368
7288.73,0.02788
7282.94,0.02031
7277.16,0.02580
7271.37,0.01692
7265.58,0.02213
7259.8,0.03162
7254.01,0.02776
7248.22,0.02159
7242.44,0.02406
7236.65,0.01755
7230.87,0.02638
7225.08,0.01923
7219.29,0.01839
7213.51,0.02938
7207.72,0.02766
7201.93,0.02991
7196.15,0.02332
7190.36,0.02498
7184.58,0.02450
7178.79,0.02329
7173,0.02148
7167.22,0.02565
7161.43,0.02395
7155.65,0.02777
7149.86,0.02276
7144.07,0.02178
7138.29,0.02291
7132.5,0.02771
7126.71,0.02662
7120.93,0.02349
7115.14,0.02001
7109.36,0.02603
7103.57,0.02573
7097.78,0.02474
7092,0.02447
7086.21,0.02992
7080.42,0.03043
7074.64,0.02273
7068.85,0.02551
7063.07,0.02124
7057.28,0.02553
7051.49,0.02307
7045.71,0.03093
7039.92,0.02157
7034.13,0.02709
7028.35,0.02457
7022.56,0.02046
7016.78,0.02988
7010.99,0.01900
7005.2,0.02041
6999.42,0.02780
6993.63,0.02101
6987.84,0.02189
6982.06,0.02503
6976.27,0.02246
6970.49,0.02470
6964.7,0.02318
6958.91,0.02875
6953.13,0.02581
6947.34,0.01950
6941.55,0.02656
6935.77,0.02015
6929.98,0.02681
6924.2,0.02579
6918.41,0.02149
6912.62,0.02279
6906.84,0.01861
6901.05,0.02685
6895.26,0.02140
6889.48,0.02526
6883.69,0.02668
6877.91,0.02928
6872.12,0.02717
6866.33,0.02588
6860.55,0.01864
6854.76,0.02412
6848.97,0.02372
6843.19,0.02161
6837.4,0.02184
6831.62,0.01948
6825.83,0.02455
6820.04,0.02516
6814.26,0.02163
6808.47,0.02130
6802.68,0.02541
6796.9,0.02124
6791.11,0.02319
6785.33,0.02440
6779.54,0.02346
6773.75,0.02557
6767.97,0.02263
6762.18,0.01954
6756.39,0.02161
6750.61,0.02476
6744.82,0.02423
6739.04,0.02504
6733.25,0.02425
6727.46,0.02241
6721.68,0.02823
6715.89,0.02145
6710.1,0.03010
6704.32,0.02200
6698.53,0.02547
6692.75,0.01791
6686.96,0.01900
6681.17,0.02306
6675.39,0.02669
6669.6,0.02656
6663.82,0.01781
6658.03,0.02119
6652.24,0.02716
6646.46,0.02226
6640.67,0.02514
6634.88,0.02136
6629.1,0.02473
6623.31,0.02134
6617.53,0.02718
6611.74,0.02384
6605.95,0.02516
6600.17,0.02237
6594.38,0.02260
6588.59,0.02333
6582.81,0.02124
6577.02,0.02168
6571.24,0.02651
6565.45,0.02277
6559.66,0.02124
6553.88,0.02425
6548.09,0.02196
6542.3,0.02011
6536.52,0.02377
6530.73,0.02749
6524.95,0.02324
6519.16,0.02263
6513.37,0.02101
6507.59,0.01650
6501.8,0.02105
6496.01,0.01973
6490.23,0.01896
6484.44,0.01841
6478.66,0.01883
6472.87,0.01960
6467.08,0.01823
6461.3,0.02458
6455.51,0.02265
6449.72,0.02042
6443.94,0.02166
6438.15,0.02043
6432.37,0.02070
6426.58,0.02146
6420.79,0.02111
6415.01,0.01795
6409.22,0.02222
6403.43,0.02225
6397.65,0.02024
6391.86,0.02456
6386.08,0.02301
6380.29,0.02019
6374.5,0.02003
6368.72,0.02507
6362.93,0.02711
6357.14,0.02447
6351.36,0.02227
6345.57,0.02348
6339.79,0.02166
6334,0.02157
6328.21,0.02152
6322.43,0.02189
6316.64,0.02501
6310.85,0.02087
6305.07,0.02169
6299.28,0.02000
6293.5,0.02293
6287.71,0.02450
6281.92,0.02131
6276.14,0.02034
6270.35,0.02450
6264.56,0.02176
6258.78,0.02312
6252.99,0.02229
6247.21,0.02314
6241.42,0.02259
6235.63,0.02296
6229.85,0.01951
6224.06,0.01766
6218.27,0.02110
6212.49,0.02360
6206.7,0.02102
6200.92,0.02454
6195.13,0.02023
6189.34,0.02067
6183.56,0.02228
6177.77,0.02034
6171.98,0.02409
6166.2,0.02321
6160.41,0.02333
6154.63,0.02178
6148.84,0.02281
6143.05,0.02427
6137.27,0.02490
6131.48,0.02382
6125.7,0.02037
6119.91,0.02023
6114.12,0.02354
6108.34,0.02078
6102.55,0.02209
6096.76,0.02049
6090.98,0.02021
6085.19,0.01997
6079.41,0.02012
6073.62,0.02389
6067.83,0.02107
6062.05,0.01862
6056.26,0.02324
6050.47,0.02022
6044.69,0.02152
6038.9,0.02309
6033.12,0.02135
6027.33,0.02096
6021.54,0.02020
6015.76,0.02002
6009.97,0.01963
6004.18,0.02245
5998.4,0.02237
5992.61,0.02062
5986.83,0.02157
5981.04,0.02530
5975.25,0.01983
5969.47,0.02118
5963.68,0.02018
5957.89,0.02021
5952.11,0.02300
5946.32,0.02224
5940.54,0.02225
5934.75,0.02155
5928.96,0.02067
5923.18,0.02418
5917.39,0.02206
5911.6,0.02329
5905.82,0.02250
5900.03,0.02137
5894.25,0.02235
5888.46,0.01981
5882.67,0.02043
5876.89,0.02201
5871.1,0.02266
5865.31,0.02255
5859.53,0.02167
5853.74,0.02176
5847.96,0.02327
5842.17,0.02108
5836.38,0.02208
5830.6,0.02083
5824.81,0.02290
5819.02,0.02077
5813.24,0.02098
5807.45,0.02303
5801.67,0.02358
5795.88,0.02217
5790.09,0.02393
5784.31,0.02128
5778.52,0.02130
5772.73,0.02163
5766.95,0.02186
5761.16,0.02289
5755.38,0.02059
5749.59,0.02327
5743.8,0.02094
5738.02,0.02177
5732.23,0.02190
5726.44,0.02148
5720.66,0.02159
5714.87,0.02397
5709.09,0.02298
5703.3,0.02060
5697.51,0.02193
5691.73,0.02033
5685.94,0.02091
5680.15,0.01989
5674.37,0.02220
5668.58,0.02096
5662.8,0.02226
5657.01,0.01908
5651.22,0.02169
5645.44,0.02214
5639.65,0.02098
5633.87,0.02282
5628.08,0.02340
5622.29,0.02168
5616.51,0.02351
5610.72,0.02375
5604.93,0.02359
5599.15,0.02158
5593.36,0.02311
5587.58,0.02307
5581.79,0.02273
5576,0.02189
5570.22,0.02164
5564.43,0.02191
5558.64,0.02227
5552.86,0.02135
5547.07,0.01979
5541.29,0.02269
5535.5,0.02057
5529.71,0.02138
5523.93,0.02048
5518.14,0.02181
5512.35,0.02167
5506.57,0.02285
5500.78,0.02302
5495,0.02382
5489.21,0.02294
5483.42,0.02285
5477.64,0.02228
5471.85,0.02209
5466.06,0.02065
5460.28,0.02126
5454.49,0.02434
5448.71,0.02089
5442.92,0.02122
5437.13,0.02259
5431.35,0.02308
5425.56,0.02179
5419.77,0.02148
5413.99,0.02228
5408.2,0.02278
5402.42,0.02249
5396.63,0.02179
5390.84,0.02375
5385.06,0.02279
5379.27,0.02220
5373.48,0.02136
5367.7,0.02134
5361.91,0.02168
5356.13,0.02336
5350.34,0.02236
5344.55,0.02256
5338.77,0.02516
5332.98,0.02093
5327.19,0.02280
5321.41,0.02106
5315.62,0.02149
5309.84,0.02130
5304.05,0.01984
5298.26,0.02190
5292.48,0.02242
5286.69,0.02196
5280.9,0.02255
5275.12,0.02226
5269.33,0.02203
5263.55,0.02106
5257.76,0.02234
5251.97,0.02154
5246.19,0.02190
5240.4,0.02260
5234.61,0.02126
5228.83,0.02391
5223.04,0.02275
5217.26,0.02205
5211.47,0.02168
5205.68,0.02359
5199.9,0.02441
5194.11,0.02274
5188.32,0.02171
5182.54,0.02264
5176.75,0.02245
5170.97,0.02287
5165.18,0.02259
5159.39,0.02169
5153.61,0.02123
5147.82,0.02247
5142.03,0.02153
5136.25,0.02124
5130.46,0.02297
5124.68,0.02112
5118.89,0.02157
5113.1,0.02193
5107.32,0.02249
5101.53,0.02190
5095.75,0.02246
5089.96,0.02175
5084.17,0.02279
5078.39,0.02184
5072.6,0.02285
5066.81,0.02265
5061.03,0.02415
5055.24,0.02240
5049.46,0.02244
5043.67,0.02233
5037.88,0.02078
5032.1,0.02127
5026.31,0.02412
5020.52,0.02238
5014.74,0.02243
5008.95,0.02320
5003.17,0.02131
4997.38,0.02086
4991.59,0.02159
4985.81,0.02213
4980.02,0.02174
4974.23,0.02261
4968.45,0.02222
4962.66,0.02203
4956.88,0.02276
4951.09,0.02245
4945.3,0.02390
4939.52,0.02227
4933.73,0.02294
4927.94,0.02294
4922.16,0.02245
4916.37,0.02236
4910.59,0.02223
4904.8,0.02224
4899.01,0.02188
4893.23,0.02256
4887.44,0.02228
4881.65,0.02211
4875.87,0.02248
4870.08,0.02285
4864.3,0.02242
4858.51,0.02307
4852.72,0.02238
4846.94,0.02270
4841.15,0.02128
4835.36,0.02248
4829.58,0.02082
4823.79,0.02203
4818.01,0.02227
4812.22,0.02233
4806.43,0.02252
4800.65,0.02225
4794.86,0.02314
4789.07,0.02107
4783.29,0.02294
4777.5,0.02277
4771.72,0.02325
4765.93,0.02118
4760.14,0.02299
4754.36,0.02254
4748.57,0.02241
4742.78,0.02220
4737,0.02282
4731.21,0.02261
4725.43,0.02254
4719.64,0.02280
4713.85,0.02279
4708.07,0.02213
4702.28,0.02257
4696.49,0.02232
4690.71,0.02234
4684.92,0.02145
4679.14,0.02208
4673.35,0.02192
4667.56,0.02143
4661.78,0.02181
4655.99,0.02250
4650.2,0.02210
4644.42,0.02125
4638.63,0.02195
4632.85,0.02145
4627.06,0.02246
4621.27,0.02254
4615.49,0.02271
4609.7,0.02128
4603.92,0.02247
4598.13,0.02265
4592.34,0.02187
4586.56,0.02206
4580.77,0.02253
4574.98,0.02188
4569.2,0.02177
4563.41,0.02243
4557.63,0.02218
4551.84,0.02334
4546.05,0.02218
4540.27,0.02216
4534.48,0.02307
4528.69,0.02204
4522.91,0.02182
4517.12,0.02205
4511.34,0.02339
4505.55,0.02180
4499.76,0.02243
4493.98,0.02223
4488.19,0.02243
4482.4,0.02258
4476.62,0.02197
4470.83,0.02238
4465.05,0.02190
4459.26,0.02249
4453.47,0.02215
4447.69,0.02141
4441.9,0.02276
4436.11,0.02297
4430.33,0.02247
4424.54,0.02256
4418.76,0.02303
4412.97,0.02265
4407.18,0.02279
4401.4,0.02239
4395.61,0.02128
4389.82,0.02188
4384.04,0.02246
4378.25,0.02186
4372.47,0.02227
4366.68,0.02298
4360.89,0.02265
4355.11,0.02241
4349.32,0.02206
4343.53,0.02262
4337.75,0.02225
4331.96,0.02265
4326.18,0.02218
4320.39,0.02238
4314.6,0.02206
4308.82,0.02266
4303.03,0.02247
4297.24,0.02198
4291.46,0.02231
4285.67,0.02185
4279.89,0.02226
4274.1,0.02159
4268.31,0.02256
4262.53,0.02293
4256.74,0.02280
4250.95,0.02154
4245.17,0.02161
4239.38,0.02265
4233.6,0.02285
4227.81,0.02239
4222.02,0.02190
4216.24,0.02315
4210.45,0.02238
4204.66,0.02256
4198.88,0.02198
4193.09,0.02274
4187.31,0.02273
4181.52,0.02281
4175.73,0.02215
4169.95,0.02227
4164.16,0.02285
4158.37,0.02273
4152.59,0.02215
4146.8,0.02268
4141.02,0.02185
4135.23,0.02295
4129.44,0.02350
4123.66,0.02202
4117.87,0.02229
4112.09,0.02290
4106.3,0.02240
4100.51,0.02252
4094.73,0.02311
4088.94,0.02200
4083.15,0.02295
4077.37,0.02259
4071.58,0.02249
4065.8,0.02288
4060.01,0.02290
4054.22,0.02318
4048.44,0.02301
4042.65,0.02281
4036.86,0.02215
4031.08,0.02280
4025.29,0.02291
4019.51,0.02221
4013.72,0.02217
4007.93,0.02305
4002.15,0.02242
3996.36,0.02290
3990.57,0.02204
3984.79,0.02247
3979,0.02312
3973.22,0.02323
3967.43,0.02297
3961.64,0.02260
3955.86,0.02241
3950.07,0.02281
3944.28,0.02319
3938.5,0.02288
3932.71,0.02314
3926.93,0.02268
3921.14,0.02269
3915.35,0.02239
3909.57,0.02304
3903.78,0.02334
3897.99,0.02220
3892.21,0.02331
3886.42,0.02289
3880.64,0.02337
3874.85,0.02223
3869.06,0.02296
3863.28,0.02269
3857.49,0.02363
3851.7,0.02228
3845.92,0.02299
3840.13,0.02333
3834.35,0.02304
3828.56,0.02276
3822.77,0.02286
3816.99,0.02292
3811.2,0.02227
3805.41,0.02204
3799.63,0.02292
3793.84,0.02302
3788.06,0.02259
3782.27,0.02295
3776.48,0.02262
3770.7,0.02264
3764.91,0.02260
3759.12,0.02277
3753.34,0.02293
3747.55,0.02292
3741.77,0.02282
3735.98,0.02260
3730.19,0.02267
3724.41,0.02314
3718.62,0.02209
3712.83,0.02281
3707.05,0.02159
3701.26,0.02246
3695.48,0.02295
3689.69,0.02192
3683.9,0.02267
3678.12,0.02339
3672.33,0.02316
3666.54,0.02229
3660.76,0.02195
3654.97,0.02226
3649.19,0.02233
3643.4,0.02251
3637.61,0.02211
3631.83,0.02243
3626.04,0.02216
3620.25,0.02276
3614.47,0.02311
3608.68,0.02180
3602.9,0.02157
3597.11,0.02199
3591.32,0.02161
3585.54,0.02128
3579.75,0.02111
3573.97,0.02147
3568.18,0.02158
3562.39,0.02095
3556.61,0.02130
3550.82,0.02141
3545.03,0.02116
3539.25,0.02165
3533.46,0.02135
3527.68,0.02125
3521.89,0.02142
3516.1,0.02156
3510.32,0.02142
3504.53,0.02126
3498.74,0.02125
3492.96,0.02138
3487.17,0.02150
3481.39,0.02125
3475.6,0.02094
3469.81,0.02138
3464.03,0.02112
3458.24,0.02084
3452.45,0.02098
3446.67,0.02113
3440.88,0.02078
3435.1,0.02128
3429.31,0.02017
3423.52,0.02094
3417.74,0.02045
3411.95,0.02081
3406.16,0.02094
3400.38,0.02032
3394.59,0.02038
3388.81,0.02075
3383.02,0.02096
3377.23,0.02059
3371.45,0.02009
3365.66,0.01957
3359.87,0.02063
3354.09,0.02008
3348.3,0.02023
3342.52,0.02022
3336.73,0.02063
3330.94,0.02058
3325.16,0.02039
3319.37,0.02036
3313.58,0.02005
3307.8,0.02006
3302.01,0.02036
3296.23,0.02110
3290.44,0.02079
3284.65,0.02055
3278.87,0.02048
3273.08,0.02076
3267.29,0.02037
3261.51,0.02083
3255.72,0.02070
3249.94,0.02061
3244.15,0.02144
3238.36,0.02079
3232.58,0.02058
3226.79,0.02039
3221,0.02023
3215.22,0.02092
3209.43,0.02057
3203.65,0.02079
3197.86,0.02086
3192.07,0.02014
3186.29,0.02046
3180.5,0.02081
3174.71,0.02157
3168.93,0.02092
3163.14,0.02131
3157.36,0.02137
3151.57,0.02150
3145.78,0.02103
3140,0.02085
3134.21,0.02131
3128.42,0.02129
3122.64,0.02099
3116.85,0.02082
3111.07,0.02106
3105.28,0.02198
3099.49,0.02092
3093.71,0.02033
3087.92,0.02129
3082.14,0.02020
3076.35,0.02049
3070.56,0.02084
3064.78,0.02073
3058.99,0.02059
3053.2,0.02071
3047.42,0.02149
3041.63,0.02060
3035.85,0.02058
3030.06,0.02053
3024.27,0.02042
3018.49,0.02029
3012.7,0.02029
3006.91,0.02080
3001.13,0.02043
2995.34,0.02045
2989.56,0.02042
2983.77,0.02072
2977.98,0.01978
2972.2,0.01996
2966.41,0.01979
2960.62,0.01917
2954.84,0.01913
2949.05,0.01925
2943.27,0.01929
2937.48,0.01966
2931.69,0.01942
2925.91,0.01991
2920.12,0.02007
2914.33,0.02065
2908.55,0.02093
2902.76,0.02087
2896.98,0.02077
2891.19,0.02093
2885.4,0.02103
2879.62,0.02042
2873.83,0.02072
2868.04,0.02060
2862.26,0.02044
2856.47,0.02084
2850.69,0.02112
2844.9,0.02146
2839.11,0.02126
2833.33,0.02176
2827.54,0.02137
2821.75,0.02081
2815.97,0.02123
2810.18,0.02124
2804.4,0.02192
2798.61,0.02105
2792.82,0.02110
2787.04,0.02123
2781.25,0.02105
2775.46,0.02124
2769.68,0.02131
2763.89,0.02150
2758.11,0.02095
2752.32,0.02136
2746.53,0.02139
2740.75,0.02119
2734.96,0.02135
2729.17,0.02116
2723.39,0.02150
2717.6,0.02067
2711.82,0.02145
2706.03,0.02116
2700.24,0.02154
2694.46,0.02124
2688.67,0.02174
2682.88,0.02180
2677.1,0.02164
2671.31,0.02152
2665.53,0.02099
2659.74,0.02165
2653.95,0.02126
2648.17,0.02153
2642.38,0.02113
2636.59,0.02136
2630.81,0.02123
2625.02,0.02099
2619.24,0.02111
2613.45,0.02147
2607.66,0.02123
2601.88,0.02155
2596.09,0.02167
2590.3,0.02172
2584.52,0.02137
2578.73,0.02134
2572.95,0.02144
2567.16,0.02142
2561.37,0.02116
2555.59,0.02126
2549.8,0.02100
2544.02,0.02076
2538.23,0.02135
2532.44,0.02118
2526.66,0.02150
2520.87,0.02133
2515.08,0.02156
2509.3,0.02127
2503.51,0.02118
2497.73,0.02065
2491.94,0.02114
2486.15,0.02093
2480.37,0.02083
2474.58,0.02136
2468.79,0.02130
2463.01,0.02091
2457.22,0.02080
2451.44,0.02112
2445.65,0.02154
2439.86,0.02133
2434.08,0.02112
2428.29,0.02153
2422.5,0.02124
2416.72,0.02114
2410.93,0.02099
2405.15,0.02101
2399.36,0.02123
2393.57,0.02127
2387.79,0.02124
2382,0.02148
2376.21,0.02174
2370.43,0.02167
2364.64,0.02192
2358.86,0.02136
2353.07,0.02094
2347.28,0.02166
2341.5,0.02096
2335.71,0.02099
2329.92,0.02105
2324.14,0.02181
2318.35,0.02162
2312.57,0.02128
2306.78,0.02131
2300.99,0.02115
2295.21,0.02084
2289.42,0.02116
2283.63,0.02102
2277.85,0.02089
2272.06,0.02138
2266.28,0.02114
2260.49,0.02093
2254.7,0.02132
2248.92,0.02120
2243.13,0.02114
2237.34,0.02127
2231.56,0.02093
2225.77,0.02080
2219.99,0.02115
2214.2,0.02111
2208.41,0.02118
2202.63,0.02118
2196.84,0.02129
2191.05,0.02118
2185.27,0.02101
2179.48,0.02104
2173.7,0.02058
2167.91,0.02099
2162.12,0.02103
2156.34,0.02089
2150.55,0.02100
2144.76,0.02119
2138.98,0.02140
2133.19,0.02106
2127.41,0.02097
2121.62,0.02120
2115.83,0.02123
2110.05,0.02084
2104.26,0.02099
2098.47,0.02059
2092.69,0.02079
2086.9,0.02074
2081.12,0.02093
2075.33,0.02072
2069.54,0.02096
2063.76,0.02049
2057.97,0.02114
2052.19,0.02108
2046.4,0.02075
2040.61,0.02093
2034.83,0.02086
2029.04,0.02060
2023.25,0.02114
2017.47,0.02091
2011.68,0.02067
2005.9,0.02077
2000.11,0.02086
1994.32,0.02067
1988.54,0.02081
1982.75,0.02097
1976.96,0.02106
1971.18,0.02111
1965.39,0.02102
1959.61,0.02097
1953.82,0.02064
1948.03,0.02106
1942.25,0.02089
1936.46,0.02103
1930.67,0.02092
1924.89,0.02112
1919.1,0.02062
1913.32,0.02072
1907.53,0.02086
1901.74,0.02070
1895.96,0.02084
1890.17,0.02076
1884.38,0.02064
1878.6,0.02060
1872.81,0.02074
1867.03,0.02050
1861.24,0.02034
1855.45,0.02039
1849.67,0.02031
1843.88,0.02057
1838.09,0.02012
1832.31,0.02015
1826.52,0.02017
1820.74,0.02027
1814.95,0.01988
1809.16,0.02008
1803.38,0.01972
1797.59,0.01967
1791.8,0.01958
1786.02,0.01924
1780.23,0.01906
1774.45,0.01930
1768.66,0.01860
1762.87,0.01805
1757.09,0.01776
1751.3,0.01779
1745.51,0.01790
1739.73,0.01878
1733.94,0.02016
1728.16,0.02048
1722.37,0.02053
1716.58,0.02140
1710.8,0.02075
1705.01,0.02026
1699.22,0.01950
1693.44,0.01915
1687.65,0.01953
1681.87,0.01918
1676.08,0.01903
1670.29,0.01856
1664.51,0.01858
1658.72,0.01826
1652.93,0.01818
1647.15,0.01892
1641.36,0.01871
1635.58,0.01850
1629.79,0.01851
1624,0.01838
1618.22,0.01919
1612.43,0.01844
1606.64,0.01887
1600.86,0.01923
1595.07,0.01900
1589.29,0.01863
1583.5,0.01846
1577.71,0.01850
1571.93,0.01832
1566.14,0.01842
1560.35,0.01874
1554.57,0.01832
1548.78,0.01874
1543,0.01874
1537.21,0.01808
1531.42,0.01880
1525.64,0.01886
1519.85,0.01897
1514.07,0.01862
1508.28,0.01925
1502.49,0.01867
1496.71,0.01916
1490.92,0.01918
1485.13,0.01853
1479.35,0.01844
1473.56,0.01867
1467.78,0.01842
1461.99,0.01889
1456.2,0.01888
1450.42,0.01914
1444.63,0.01896
1438.84,0.01906
1433.06,0.01937
1427.27,0.01884
1421.49,0.01896
1415.7,0.01824
1409.91,0.01841
1404.13,0.01838
1398.34,0.01799
1392.55,0.01811
1386.77,0.01832
1380.98,0.01802
1375.2,0.01824
1369.41,0.01805
1363.62,0.01839
1357.84,0.01816
1352.05,0.01800
1346.26,0.01797
1340.48,0.01810
1334.69,0.01792
1328.91,0.01765
1323.12,0.01728
1317.33,0.01718
1311.55,0.01684
1305.76,0.01747
1299.97,0.01743
1294.19,0.01799
1288.4,0.01870
1282.62,0.01912
1276.83,0.01951
1271.04,0.01951
1265.26,0.01983
1259.47,0.01993
1253.68,0.02003
1247.9,0.01992
1242.11,0.01990
1236.33,0.01947
1230.54,0.01952
1224.75,0.01942
1218.97,0.01897
1213.18,0.01908
1207.39,0.01889
1201.61,0.01808
1195.82,0.01829
1190.04,0.01821
1184.25,0.01844
1178.46,0.01823
1172.68,0.01760
1166.89,0.01783
1161.1,0.01740
1155.32,0.01739
1149.53,0.01736
1143.75,0.01726
1137.96,0.01768
1132.17,0.01760
1126.39,0.01837
1120.6,0.01861
1114.81,0.01937
1109.03,0.01883
1103.24,0.01805
1097.46,0.01827
1091.67,0.01755
1085.88,0.01812
1080.1,0.01801
1074.31,0.02005
1068.52,0.01907
1062.74,0.01985
1056.95,0.01966
1051.17,0.01919
1045.38,0.01904
1039.59,0.01953
1033.81,0.01985
1028.02,0.01919
1022.24,0.01896
1016.45,0.02008
1010.66,0.02007
1004.88,0.02056
999.09,0.02111
993.304,0.02130
987.518,0.02095
981.731,0.02063
975.945,0.02029
970.159,0.02022
964.373,0.02033
958.586,0.02007
952.8,0.02008
947.014,0.02015
941.228,0.01932
935.441,0.01975
929.655,0.01926
923.869,0.01920
918.083,0.01954
912.297,0.01973
906.51,0.01916
900.724,0.01912
894.938,0.01936
889.152,0.01891
883.365,0.01847
877.579,0.01958
871.793,0.01905
866.007,0.01900
860.22,0.01843
854.434,0.01779
848.648,0.01886
842.862,0.01871
837.075,0.01937
831.289,0.01910
825.503,0.01966
819.717,0.01861
813.931,0.01888
808.144,0.01945
802.358,0.01928
796.572,0.01846
790.786,0.01935
784.999,0.01828
779.213,0.01883
773.427,0.01828
767.641,0.01803
761.854,0.01886
756.068,0.01915
750.282,0.01834
744.496,0.01820
738.709,0.01868
732.923,0.01790
727.137,0.01807
721.351,0.01830
715.565,0.01951
709.778,0.01820
703.992,0.01801
698.206,0.01774
692.42,0.01852
686.633,0.01846
680.847,0.01861
675.061,0.01656
669.275,0.01767
663.488,0.01812
657.702,0.01829
651.916,0.01802
646.13,0.01521
640.343,0.01623
634.557,0.01554
628.771,0.01513
622.985,0.01500
617.198,0.01573
611.412,0.01524
605.626,0.01483
599.84,0.01529