File: 01_Data/ABS/FTIR/IS/ABS_IS_S_220906_R5.dpt
7497.03,0.69552
7491.25,0.70907
7485.46,0.70767
7479.67,0.69991
7473.89,0.70796
7468.1,0.71392
7462.32,0.69866
7456.53,0.69754
7450.74,0.70338
7444.96,0.69789
7439.17,0.68742
7433.38,0.68584
7427.6,0.69343
7421.81,0.69382
7416.03,0.69560
7410.24,0.69369
7404.45,0.69847
7398.67,0.69993
7392.88,0.68741
7387.09,0.68539
7381.31,0.68863
7375.52,0.69164
7369.74,0.68698
7363.95,0.68163
7358.16,0.68675
7352.38,0.68910
7346.59,0.68121
7340.8,0.68196
7335.02,0.68381
7329.23,0.67440
7323.45,0.66887
7317.66,0.66491
7311.87,0.67587
7306.09,0.67141
7300.3,0.66819
7294.51,0.66114
7288.73,0.65613
7282.94,0.64822
7277.16,0.65050
7271.37,0.65346
7265.58,0.64456
7259.8,0.64515
7254.01,0.64926
7248.22,0.64036
7242.44,0.63001
7236.65,0.63528
7230.87,0.63606
7225.08,0.63586
7219.29,0.63527
7213.51,0.63490
7207.72,0.62588
7201.93,0.62292
7196.15,0.61921
7190.36,0.62839
7184.58,0.61585
7178.79,0.62120
7173,0.61269
7167.22,0.61787
7161.43,0.61830
7155.65,0.60882
7149.86,0.61385
7144.07,0.61097
7138.29,0.62068
7132.5,0.61493
7126.71,0.60383
7120.93,0.60096
7115.14,0.60391
7109.36,0.60326
7103.57,0.60148
7097.78,0.59629
7092,0.59765
7086.21,0.59247
7080.42,0.59575
7074.64,0.59674
7068.85,0.58853
7063.07,0.59312
7057.28,0.59213
7051.49,0.59570
7045.71,0.60049
7039.92,0.60417
7034.13,0.59694
7028.35,0.60010
7022.56,0.60503
7016.78,0.60564
7010.99,0.60524
7005.2,0.59828
6999.42,0.60135
6993.63,0.60921
6987.84,0.61069
6982.06,0.60964
6976.27,0.60940
6970.49,0.61025
6964.7,0.60921
6958.91,0.60690
6953.13,0.61302
6947.34,0.61591
6941.55,0.62253
6935.77,0.61459
6929.98,0.62059
6924.2,0.62502
6918.41,0.62273
6912.62,0.62281
6906.84,0.62235
6901.05,0.62333
6895.26,0.62953
6889.48,0.62667
6883.69,0.63209
6877.91,0.62399
6872.12,0.63002
6866.33,0.63615
6860.55,0.63453
6854.76,0.63453
6848.97,0.63658
6843.19,0.63041
6837.4,0.63324
6831.62,0.63030
6825.83,0.63867
6820.04,0.63142
6814.26,0.63245
6808.47,0.62804
6802.68,0.63592
6796.9,0.63466
6791.11,0.63493
6785.33,0.63945
6779.54,0.63702
6773.75,0.63382
6767.97,0.64081
6762.18,0.64476
6756.39,0.63932
6750.61,0.63985
6744.82,0.64165
6739.04,0.63968
6733.25,0.64053
6727.46,0.64317
6721.68,0.64346
6715.89,0.64505
6710.1,0.64223
6704.32,0.64399
6698.53,0.64617
6692.75,0.65074
6686.96,0.64904
6681.17,0.64989
6675.39,0.65035
6669.6,0.64872
6663.82,0.64657
6658.03,0.64700
6652.24,0.65297
6646.46,0.65000
6640.67,0.65218
6634.88,0.65112
6629.1,0.65211
6623.31,0.65291
6617.53,0.65023
6611.74,0.65163
6605.95,0.65193
6600.17,0.65581
6594.38,0.64879
6588.59,0.64666
6582.81,0.65072
6577.02,0.64886
6571.24,0.65230
6565.45,0.65265
6559.66,0.64890
6553.88,0.65469
6548.09,0.65332
6542.3,0.65303
6536.52,0.65220
6530.73,0.65392
6524.95,0.65518
6519.16,0.65087
6513.37,0.65162
6507.59,0.65344
6501.8,0.64952
6496.01,0.65146
6490.23,0.65330
6484.44,0.65166
6478.66,0.64976
6472.87,0.65342
6467.08,0.65715
6461.3,0.65705
6455.51,0.65283
6449.72,0.65339
6443.94,0.65240
6438.15,0.65556
6432.37,0.65054
6426.58,0.65185
6420.79,0.65218
6415.01,0.65350
6409.22,0.65542
6403.43,0.65526
6397.65,0.64985
6391.86,0.65559
6386.08,0.64896
6380.29,0.64878
6374.5,0.65085
6368.72,0.64310
6362.93,0.63806
6357.14,0.64296
6351.36,0.63932
6345.57,0.63696
6339.79,0.64095
6334,0.63798
6328.21,0.64042
6322.43,0.63791
6316.64,0.64120
6310.85,0.63725
6305.07,0.63561
6299.28,0.63985
6293.5,0.63496
6287.71,0.63274
6281.92,0.63482
6276.14,0.63395
6270.35,0.63164
6264.56,0.63301
6258.78,0.62821
6252.99,0.62387
6247.21,0.62529
6241.42,0.62246
6235.63,0.61930
6229.85,0.61274
6224.06,0.61370
6218.27,0.60844
6212.49,0.61083
6206.7,0.60816
6200.92,0.60370
6195.13,0.59674
6189.34,0.59206
6183.56,0.58887
6177.77,0.57947
6171.98,0.56964
6166.2,0.55636
6160.41,0.54491
6154.63,0.53497
6148.84,0.51974
6143.05,0.50607
6137.27,0.49591
6131.48,0.48229
6125.7,0.46572
6119.91,0.45418
6114.12,0.44550
6108.34,0.43761
6102.55,0.44134
6096.76,0.44876
6090.98,0.45539
6085.19,0.45988
6079.41,0.45770
6073.62,0.46232
6067.83,0.46813
6062.05,0.47532
6056.26,0.47195
6050.47,0.46630
6044.69,0.45601
6038.9,0.43995
6033.12,0.41883
6027.33,0.39855
6021.54,0.37831
6015.76,0.35731
6009.97,0.33681
6004.18,0.32464
5998.4,0.31051
5992.61,0.30082
5986.83,0.28750
5981.04,0.27920
5975.25,0.27140
5969.47,0.26671
5963.68,0.26608
5957.89,0.26576
5952.11,0.26546
5946.32,0.26616
5940.54,0.26978
5934.75,0.27723
5928.96,0.28048
5923.18,0.28112
5917.39,0.27873
5911.6,0.28099
5905.82,0.28274
5900.03,0.28249
5894.25,0.28504
5888.46,0.28793
5882.67,0.29154
5876.89,0.29513
5871.1,0.29520
5865.31,0.29445
5859.53,0.29308
5853.74,0.29401
5847.96,0.29375
5842.17,0.29546
5836.38,0.29469
5830.6,0.29366
5824.81,0.29261
5819.02,0.29192
5813.24,0.29130
5807.45,0.29097
5801.67,0.29358
5795.88,0.29627
5790.09,0.29829
5784.31,0.30204
5778.52,0.30880
5772.73,0.31516
5766.95,0.32448
5761.16,0.33240
5755.38,0.33613
5749.59,0.33927
5743.8,0.33966
5738.02,0.33726
5732.23,0.32888
5726.44,0.32359
5720.66,0.31629
5714.87,0.30930
5709.09,0.30376
5703.3,0.29781
5697.51,0.29735
5691.73,0.30183
5685.94,0.30052
5680.15,0.30227
5674.37,0.30435
5668.58,0.30459
5662.8,0.30772
5657.01,0.31192
5651.22,0.31701
5645.44,0.32244
5639.65,0.32741
5633.87,0.33074
5628.08,0.33793
5622.29,0.34031
5616.51,0.33965
5610.72,0.34222
5604.93,0.34269
5599.15,0.34576
5593.36,0.34636
5587.58,0.35016
5581.79,0.35303
5576,0.35616
5570.22,0.35806
5564.43,0.36145
5558.64,0.36021
5552.86,0.36263
5547.07,0.36491
5541.29,0.36529
5535.5,0.36495
5529.71,0.36457
5523.93,0.36638
5518.14,0.36465
5512.35,0.36543
5506.57,0.36711
5500.78,0.36976
5495,0.37138
5489.21,0.37369
5483.42,0.37459
5477.64,0.37435
5471.85,0.37560
5466.06,0.37399
5460.28,0.37365
5454.49,0.37421
5448.71,0.37404
5442.92,0.37392
5437.13,0.37460
5431.35,0.37200
5425.56,0.37331
5419.77,0.37145
5413.99,0.37112
5408.2,0.37219
5402.42,0.37190
5396.63,0.37246
5390.84,0.37319
5385.06,0.37030
5379.27,0.36972
5373.48,0.36964
5367.7,0.37294
5361.91,0.37175
5356.13,0.37694
5350.34,0.37677
5344.55,0.37995
5338.77,0.38139
5332.98,0.38068
5327.19,0.38102
5321.41,0.38206
5315.62,0.38397
5309.84,0.38394
5304.05,0.38191
5298.26,0.37883
5292.48,0.37575
5286.69,0.37395
5280.9,0.36833
5275.12,0.36197
5269.33,0.35521
5263.55,0.34781
5257.76,0.34222
5251.97,0.33887
5246.19,0.34005
5240.4,0.34369
5234.61,0.34661
5228.83,0.35023
5223.04,0.35758
5217.26,0.36180
5211.47,0.36565
5205.68,0.36869
5199.9,0.37009
5194.11,0.37123
5188.32,0.37017
5182.54,0.37062
5176.75,0.36842
5170.97,0.36358
5165.18,0.36309
5159.39,0.35861
5153.61,0.35631
5147.82,0.35292
5142.03,0.34919
5136.25,0.35196
5130.46,0.35880
5124.68,0.36725
5118.89,0.37065
5113.1,0.37653
5107.32,0.37778
5101.53,0.38080
5095.75,0.38167
5089.96,0.38241
5084.17,0.38213
5078.39,0.38231
5072.6,0.38388
5066.81,0.38489
5061.03,0.38372
5055.24,0.38320
5049.46,0.38465
5043.67,0.38554
5037.88,0.38523
5032.1,0.38369
5026.31,0.38544
5020.52,0.38452
5014.74,0.38410
5008.95,0.38358
5003.17,0.38396
4997.38,0.38135
4991.59,0.38020
4985.81,0.37901
4980.02,0.37843
4974.23,0.37667
4968.45,0.37441
4962.66,0.37302
4956.88,0.37231
4951.09,0.37340
4945.3,0.37274
4939.52,0.37263
4933.73,0.37242
4927.94,0.37277
4922.16,0.37277
4916.37,0.37313
4910.59,0.37091
4904.8,0.37114
4899.01,0.37004
4893.23,0.36706
4887.44,0.36388
4881.65,0.36097
4875.87,0.35875
4870.08,0.35996
4864.3,0.36059
4858.51,0.36184
4852.72,0.36127
4846.94,0.36290
4841.15,0.36189
4835.36,0.36127
4829.58,0.36323
4823.79,0.36292
4818.01,0.36294
4812.22,0.36384
4806.43,0.36271
4800.65,0.36071
4794.86,0.35771
4789.07,0.35537
4783.29,0.35214
4777.5,0.34741
4771.72,0.34240
4765.93,0.33636
4760.14,0.33484
4754.36,0.33261
4748.57,0.32977
4742.78,0.32367
4737,0.31433
4731.21,0.30254
4725.43,0.28648
4719.64,0.27131
4713.85,0.26295
4708.07,0.26035
4702.28,0.26042
4696.49,0.25511
4690.71,0.24408
4684.92,0.22327
4679.14,0.19678
4673.35,0.17411
4667.56,0.16462
4661.78,0.16785
4655.99,0.17787
4650.2,0.18913
4644.42,0.19056
4638.63,0.18232
4632.85,0.17332
4627.06,0.16795
4621.27,0.16894
4615.49,0.16746
4609.7,0.16395
4603.92,0.16846
4598.13,0.18057
4592.34,0.19225
4586.56,0.19574
4580.77,0.18786
4574.98,0.17897
4569.2,0.18587
4563.41,0.20379
4557.63,0.21474
4551.84,0.22498
4546.05,0.23272
4540.27,0.23336
4534.48,0.23227
4528.69,0.23252
4522.91,0.23266
4517.12,0.22918
4511.34,0.22700
4505.55,0.22517
4499.76,0.22545
4493.98,0.22212
4488.19,0.21175
4482.4,0.20130
4476.62,0.20003
4470.83,0.20656
4465.05,0.21286
4459.26,0.21273
4453.47,0.20685
4447.69,0.19991
4441.9,0.19710
4436.11,0.19633
4430.33,0.19228
4424.54,0.18659
4418.76,0.17938
4412.97,0.17236
4407.18,0.16493
4401.4,0.15720
4395.61,0.15027
4389.82,0.14315
4384.04,0.13817
4378.25,0.13148
4372.47,0.12711
4366.68,0.12281
4360.89,0.11859
4355.11,0.11595
4349.32,0.11512
4343.53,0.11344
4337.75,0.11278
4331.96,0.11264
4326.18,0.11312
4320.39,0.11563
4314.6,0.11668
4308.82,0.11760
4303.03,0.11715
4297.24,0.11611
4291.46,0.11384
4285.67,0.11264
4279.89,0.11040
4274.1,0.10791
4268.31,0.10598
4262.53,0.10321
4256.74,0.10245
4250.95,0.10178
4245.17,0.10208
4239.38,0.10216
4233.6,0.10291
4227.81,0.10407
4222.02,0.10501
4216.24,0.10589
4210.45,0.10560
4204.66,0.10575
4198.88,0.10836
4193.09,0.10901
4187.31,0.11056
4181.52,0.11194
4175.73,0.11304
4169.95,0.11475
4164.16,0.11525
4158.37,0.11608
4152.59,0.11529
4146.8,0.11561
4141.02,0.11510
4135.23,0.11422
4129.44,0.11265
4123.66,0.11274
4117.87,0.11165
4112.09,0.11078
4106.3,0.11074
4100.51,0.10934
4094.73,0.10827
4088.94,0.10623
4083.15,0.10291
4077.37,0.09902
4071.58,0.09497
4065.8,0.09074
4060.01,0.08914
4054.22,0.08850
4048.44,0.08824
4042.65,0.08731
4036.86,0.08866
4031.08,0.09202
4025.29,0.09574
4019.51,0.10096
4013.72,0.10724
4007.93,0.10940
4002.15,0.11008
3996.36,0.11188
3990.57,0.11473
3984.79,0.11538
3979,0.11517
3973.22,0.11515
3967.43,0.11614
3961.64,0.11751
3955.86,0.11788
3950.07,0.11752
3944.28,0.11693
3938.5,0.11565
3932.71,0.11642
3926.93,0.11626
3921.14,0.11668
3915.35,0.11745
3909.57,0.11704
3903.78,0.11794
3897.99,0.11812
3892.21,0.11949
3886.42,0.12067
3880.64,0.12143
3874.85,0.12178
3869.06,0.12163
3863.28,0.12111
3857.49,0.12128
3851.7,0.12107
3845.92,0.12008
3840.13,0.11947
3834.35,0.11827
3828.56,0.11741
3822.77,0.11726
3816.99,0.11735
3811.2,0.11782
3805.41,0.11795
3799.63,0.11882
3793.84,0.11971
3788.06,0.12123
3782.27,0.12184
3776.48,0.12123
3770.7,0.12168
3764.91,0.12050
3759.12,0.12131
3753.34,0.12263
3747.55,0.12272
3741.77,0.12175
3735.98,0.12104
3730.19,0.11798
3724.41,0.11478
3718.62,0.11466
3712.83,0.11501
3707.05,0.11147
3701.26,0.10843
3695.48,0.10700
3689.69,0.10388
3683.9,0.09748
3678.12,0.09359
3672.33,0.08859
3666.54,0.08636
3660.76,0.08355
3654.97,0.08168
3649.19,0.08143
3643.4,0.08048
3637.61,0.08268
3631.83,0.08349
3626.04,0.08333
3620.25,0.08304
3614.47,0.08501
3608.68,0.08533
3602.9,0.08602
3597.11,0.08623
3591.32,0.08661
3585.54,0.08547
3579.75,0.08393
3573.97,0.08321
3568.18,0.08283
3562.39,0.08125
3556.61,0.08003
3550.82,0.07916
3545.03,0.07871
3539.25,0.07882
3533.46,0.07863
3527.68,0.07879
3521.89,0.07912
3516.1,0.07969
3510.32,0.08031
3504.53,0.08058
3498.74,0.08065
3492.96,0.08055
3487.17,0.08170
3481.39,0.08199
3475.6,0.08208
3469.81,0.08201
3464.03,0.08193
3458.24,0.08170
3452.45,0.08217
3446.67,0.08165
3440.88,0.08166
3435.1,0.08163
3429.31,0.08185
3423.52,0.08176
3417.74,0.08138
3411.95,0.08173
3406.16,0.08170
3400.38,0.08149
3394.59,0.08143
3388.81,0.08090
3383.02,0.08033
3377.23,0.08115
3371.45,0.08204
3365.66,0.08180
3359.87,0.08173
3354.09,0.08138
3348.3,0.08078
3342.52,0.08007
3336.73,0.07987
3330.94,0.07933
3325.16,0.07811
3319.37,0.07656
3313.58,0.07325
3307.8,0.06795
3302.01,0.06433
3296.23,0.06478
3290.44,0.06792
3284.65,0.07062
3278.87,0.07348
3273.08,0.07478
3267.29,0.07612
3261.51,0.07773
3255.72,0.07772
3249.94,0.07738
3244.15,0.07783
3238.36,0.07804
3232.58,0.07743
3226.79,0.07703
3221,0.07689
3215.22,0.07665
3209.43,0.07570
3203.65,0.07512
3197.86,0.07511
3192.07,0.07600
3186.29,0.07552
3180.5,0.07540
3174.71,0.07517
3168.93,0.07423
3163.14,0.07350
3157.36,0.07361
3151.57,0.07327
3145.78,0.07372
3140,0.07348
3134.21,0.07265
3128.42,0.07128
3122.64,0.07025
3116.85,0.06833
3111.07,0.06535
3105.28,0.06325
3099.49,0.06378
3093.71,0.06232
3087.92,0.06068
3082.14,0.06018
3076.35,0.06018
3070.56,0.05997
3064.78,0.05929
3058.99,0.06007
3053.2,0.06028
3047.42,0.06028
3041.63,0.05978
3035.85,0.05892
3030.06,0.05866
3024.27,0.05948
3018.49,0.05974
3012.7,0.05970
3006.91,0.05941
3001.13,0.05897
2995.34,0.05961
2989.56,0.05919
2983.77,0.05945
2977.98,0.05875
2972.2,0.05807
2966.41,0.05794
2960.62,0.05798
2954.84,0.05791
2949.05,0.05817
2943.27,0.05884
2937.48,0.05854
2931.69,0.05911
2925.91,0.06058
2920.12,0.06233
2914.33,0.06211
2908.55,0.06169
2902.76,0.06092
2896.98,0.06148
2891.19,0.06107
2885.4,0.06156
2879.62,0.06203
2873.83,0.06118
2868.04,0.06140
2862.26,0.06122
2856.47,0.06169
2850.69,0.06204
2844.9,0.06187
2839.11,0.06160
2833.33,0.06231
2827.54,0.06261
2821.75,0.06414
2815.97,0.06433
2810.18,0.06494
2804.4,0.06552
2798.61,0.06574
2792.82,0.06617
2787.04,0.06638
2781.25,0.06675
2775.46,0.06749
2769.68,0.06766
2763.89,0.06832
2758.11,0.06907
2752.32,0.06896
2746.53,0.06918
2740.75,0.06890
2734.96,0.06856
2729.17,0.06841
2723.39,0.06851
2717.6,0.06873
2711.82,0.06874
2706.03,0.06892
2700.24,0.06867
2694.46,0.06880
2688.67,0.06825
2682.88,0.06845
2677.1,0.06797
2671.31,0.06770
2665.53,0.06802
2659.74,0.06799
2653.95,0.06784
2648.17,0.06784
2642.38,0.06821
2636.59,0.06750
2630.81,0.06782
2625.02,0.06826
2619.24,0.06884
2613.45,0.06864
2607.66,0.06848
2601.88,0.06864
2596.09,0.06916
2590.3,0.06916
2584.52,0.06884
2578.73,0.06956
2572.95,0.06921
2567.16,0.06900
2561.37,0.06913
2555.59,0.06929
2549.8,0.06891
2544.02,0.06870
2538.23,0.06861
2532.44,0.06885
2526.66,0.06853
2520.87,0.06839
2515.08,0.06849
2509.3,0.06850
2503.51,0.06865
2497.73,0.06922
2491.94,0.06979
2486.15,0.06926
2480.37,0.06960
2474.58,0.07036
2468.79,0.07051
2463.01,0.07044
2457.22,0.07014
2451.44,0.06994
2445.65,0.07006
2439.86,0.06962
2434.08,0.07007
2428.29,0.06954
2422.5,0.07003
2416.72,0.06982
2410.93,0.06940
2405.15,0.06896
2399.36,0.06889
2393.57,0.06889
2387.79,0.06874
2382,0.06869
2376.21,0.06852
2370.43,0.06838
2364.64,0.06829
2358.86,0.06821
2353.07,0.06815
2347.28,0.06681
2341.5,0.06587
2335.71,0.06653
2329.92,0.06712
2324.14,0.06721
2318.35,0.06625
2312.57,0.06629
2306.78,0.06660
2300.99,0.06716
2295.21,0.06717
2289.42,0.06686
2283.63,0.06670
2277.85,0.06646
2272.06,0.06574
2266.28,0.06485
2260.49,0.06458
2254.7,0.06312
2248.92,0.06124
2243.13,0.05967
2237.34,0.06001
2231.56,0.06126
2225.77,0.06284
2219.99,0.06551
2214.2,0.06607
2208.41,0.06688
2202.63,0.06732
2196.84,0.06760
2191.05,0.06693
2185.27,0.06648
2179.48,0.06740
2173.7,0.06855
2167.91,0.06888
2162.12,0.06926
2156.34,0.06898
2150.55,0.06914
2144.76,0.06930
2138.98,0.06948
2133.19,0.06917
2127.41,0.06920
2121.62,0.06899
2115.83,0.06898
2110.05,0.06875
2104.26,0.06856
2098.47,0.06847
2092.69,0.06870
2086.9,0.06824
2081.12,0.06843
2075.33,0.06813
2069.54,0.06791
2063.76,0.06734
2057.97,0.06718
2052.19,0.06726
2046.4,0.06712
2040.61,0.06636
2034.83,0.06649
2029.04,0.06608
2023.25,0.06611
2017.47,0.06552
2011.68,0.06497
2005.9,0.06428
2000.11,0.06393
1994.32,0.06289
1988.54,0.06169
1982.75,0.06184
1976.96,0.06125
1971.18,0.06124
1965.39,0.06089
1959.61,0.06045
1953.82,0.06082
1948.03,0.06038
1942.25,0.06062
1936.46,0.06132
1930.67,0.06173
1924.89,0.06209
1919.1,0.06227
1913.32,0.06195
1907.53,0.06127
1901.74,0.06062
1895.96,0.06018
1890.17,0.06041
1884.38,0.05996
1878.6,0.06008
1872.81,0.06035
1867.03,0.06067
1861.24,0.06082
1855.45,0.06118
1849.67,0.06130
1843.88,0.06106
1838.09,0.06029
1832.31,0.05965
1826.52,0.05972
1820.74,0.05919
1814.95,0.05918
1809.16,0.05939
1803.38,0.05898
1797.59,0.05956
1791.8,0.06031
1786.02,0.05985
1780.23,0.05996
1774.45,0.05963
1768.66,0.05933
1762.87,0.05927
1757.09,0.05941
1751.3,0.05955
1745.51,0.05920
1739.73,0.05924
1733.94,0.05932
1728.16,0.05953
1722.37,0.06016
1716.58,0.06083
1710.8,0.06063
1705.01,0.06120
1699.22,0.06111
1693.44,0.05967
1687.65,0.05995
1681.87,0.05969
1676.08,0.06006
1670.29,0.06026
1664.51,0.05995
1658.72,0.06018
1652.93,0.06049
1647.15,0.06024
1641.36,0.05934
1635.58,0.05997
1629.79,0.06007
1624,0.06021
1618.22,0.05955
1612.43,0.05920
1606.64,0.05879
1600.86,0.06003
1595.07,0.06024
1589.29,0.05963
1583.5,0.05917
1577.71,0.05983
1571.93,0.05965
1566.14,0.05882
1560.35,0.05870
1554.57,0.05834
1548.78,0.05856
1543,0.05894
1537.21,0.05883
1531.42,0.05855
1525.64,0.05840
1519.85,0.05835
1514.07,0.05767
1508.28,0.05752
1502.49,0.05624
1496.71,0.05553
1490.92,0.05985
1485.13,0.05922
1479.35,0.05827
1473.56,0.05793
1467.78,0.05725
1461.99,0.05607
1456.2,0.05579
1450.42,0.06017
1444.63,0.06104
1438.84,0.06156
1433.06,0.06079
1427.27,0.06122
1421.49,0.06066
1415.7,0.06037
1409.91,0.06035
1404.13,0.05989
1398.34,0.06009
1392.55,0.05966
1386.77,0.05955
1380.98,0.05916
1375.2,0.05941
1369.41,0.05966
1363.62,0.05949
1357.84,0.05952
1352.05,0.05972
1346.26,0.05948
1340.48,0.05977
1334.69,0.05947
1328.91,0.05943
1323.12,0.05959
1317.33,0.05977
1311.55,0.05948
1305.76,0.05960
1299.97,0.06001
1294.19,0.05982
1288.4,0.05981
1282.62,0.05998
1276.83,0.06027
1271.04,0.05975
1265.26,0.06007
1259.47,0.06018
1253.68,0.05984
1247.9,0.06005
1242.11,0.06020
1236.33,0.05991
1230.54,0.05991
1224.75,0.06013
1218.97,0.05975
1213.18,0.05979
1207.39,0.05926
1201.61,0.05955
1195.82,0.05967
1190.04,0.05967
1184.25,0.06033
1178.46,0.05992
1172.68,0.05953
1166.89,0.05978
1161.1,0.05973
1155.32,0.05946
1149.53,0.05987
1143.75,0.05997
1137.96,0.05987
1132.17,0.05902
1126.39,0.05977
1120.6,0.06002
1114.81,0.05955
1109.03,0.05964
1103.24,0.05916
1097.46,0.05927
1091.67,0.06009
1085.88,0.05921
1080.1,0.05901
1074.31,0.05977
1068.52,0.06013
1062.74,0.06045
1056.95,0.05986
1051.17,0.05993
1045.38,0.05994
1039.59,0.05936
1033.81,0.05925
1028.02,0.06008
1022.24,0.06001
1016.45,0.06038
1010.66,0.06020
1004.88,0.05982
999.09,0.05879
993.304,0.05850
987.518,0.05864
981.731,0.05849
975.945,0.05732
970.159,0.05642
964.373,0.05893
958.586,0.06143
952.8,0.06154
947.014,0.06121
941.228,0.06044
935.441,0.06059
929.655,0.05971
923.869,0.05856
918.083,0.05817
912.297,0.05840
906.51,0.06029
900.724,0.06057
894.938,0.05999
889.152,0.05935
883.365,0.05975
877.579,0.05945
871.793,0.05879
866.007,0.05826
860.22,0.05774
854.434,0.05773
848.648,0.05743
842.862,0.05783
837.075,0.05705
831.289,0.05724
825.503,0.05653
819.717,0.05597
813.931,0.05607
808.144,0.05557
802.358,0.05502
796.572,0.05482
790.786,0.05314
784.999,0.05236
779.213,0.05135
773.427,0.05151
767.641,0.05115
761.854,0.05484
756.068,0.05972
750.282,0.05891
744.496,0.05836
738.709,0.05779
732.923,0.05548
727.137,0.05386
721.351,0.05109
715.565,0.04708
709.778,0.04305
703.992,0.05763
698.206,0.08203
692.42,0.07492
686.633,0.06759
680.847,0.06476
675.061,0.06411
669.275,0.06359
663.488,0.06183
657.702,0.06250
651.916,0.06188
646.13,0.06170
640.343,0.06127
634.557,0.05914
628.771,0.06144
622.985,0.06184
617.198,0.06131
611.412,0.06179
605.626,0.05898
599.84,0.05893