File: 01_Data/ABS/FTIR/IS/ABS_IS_T_220906_R7.dpt
7497.03,0.02889
7491.25,0.01886
7485.46,0.03665
7479.67,0.02962
7473.89,0.02857
7468.1,0.02799
7462.32,0.01877
7456.53,0.02897
7450.74,0.03229
7444.96,0.02095
7439.17,0.01953
7433.38,0.03284
7427.6,0.03161
7421.81,0.02121
7416.03,0.02309
7410.24,0.02848
7404.45,0.02569
7398.67,0.02488
7392.88,0.01860
7387.09,0.02132
7381.31,0.01811
7375.52,0.02001
7369.74,0.02402
7363.95,0.02558
7358.16,0.02275
7352.38,0.02602
7346.59,0.01795
7340.8,0.02754
7335.02,0.02833
7329.23,0.02192
7323.45,0.01816
7317.66,0.02167
7311.87,0.02500
7306.09,0.02566
7300.3,0.02907
7294.51,0.02875
7288.73,0.03012
7282.94,0.02441
7277.16,0.03097
7271.37,0.02937
7265.58,0.01735
7259.8,0.02686
7254.01,0.02346
7248.22,0.02016
7242.44,0.02457
7236.65,0.02877
7230.87,0.03161
7225.08,0.02490
7219.29,0.01861
7213.51,0.02373
7207.72,0.02126
7201.93,0.02883
7196.15,0.02327
7190.36,0.02937
7184.58,0.01812
7178.79,0.02402
7173,0.01995
7167.22,0.00913
7161.43,0.02271
7155.65,0.02440
7149.86,0.02858
7144.07,0.02312
7138.29,0.02138
7132.5,0.02188
7126.71,0.02437
7120.93,0.02266
7115.14,0.02730
7109.36,0.02762
7103.57,0.02502
7097.78,0.02809
7092,0.02545
7086.21,0.03242
7080.42,0.02308
7074.64,0.02302
7068.85,0.02515
7063.07,0.02688
7057.28,0.03133
7051.49,0.02641
7045.71,0.02449
7039.92,0.02901
7034.13,0.02213
7028.35,0.02181
7022.56,0.02377
7016.78,0.02187
7010.99,0.01636
7005.2,0.02296
6999.42,0.02258
6993.63,0.02618
6987.84,0.03027
6982.06,0.02250
6976.27,0.02654
6970.49,0.02636
6964.7,0.03105
6958.91,0.02697
6953.13,0.01909
6947.34,0.02164
6941.55,0.02413
6935.77,0.02539
6929.98,0.02444
6924.2,0.02979
6918.41,0.02309
6912.62,0.02269
6906.84,0.02285
6901.05,0.01982
6895.26,0.02347
6889.48,0.02123
6883.69,0.02642
6877.91,0.02516
6872.12,0.02734
6866.33,0.01910
6860.55,0.02054
6854.76,0.01958
6848.97,0.02136
6843.19,0.02311
6837.4,0.02449
6831.62,0.02500
6825.83,0.02725
6820.04,0.02445
6814.26,0.02951
6808.47,0.02089
6802.68,0.01955
6796.9,0.02353
6791.11,0.02823
6785.33,0.02225
6779.54,0.02437
6773.75,0.01865
6767.97,0.02583
6762.18,0.02496
6756.39,0.02598
6750.61,0.02495
6744.82,0.02221
6739.04,0.01871
6733.25,0.01851
6727.46,0.02601
6721.68,0.02755
6715.89,0.02200
6710.1,0.02033
6704.32,0.02411
6698.53,0.01964
6692.75,0.02048
6686.96,0.02104
6681.17,0.02156
6675.39,0.02281
6669.6,0.02210
6663.82,0.02833
6658.03,0.02552
6652.24,0.02462
6646.46,0.02339
6640.67,0.02288
6634.88,0.01738
6629.1,0.02284
6623.31,0.02498
6617.53,0.02854
6611.74,0.02595
6605.95,0.02734
6600.17,0.02299
6594.38,0.02227
6588.59,0.02670
6582.81,0.02003
6577.02,0.01826
6571.24,0.01777
6565.45,0.02114
6559.66,0.02336
6553.88,0.02378
6548.09,0.02515
6542.3,0.02377
6536.52,0.01726
6530.73,0.01986
6524.95,0.02144
6519.16,0.01952
6513.37,0.01708
6507.59,0.01698
6501.8,0.02175
6496.01,0.01860
6490.23,0.01958
6484.44,0.01742
6478.66,0.02240
6472.87,0.02409
6467.08,0.02241
6461.3,0.02233
6455.51,0.02724
6449.72,0.02310
6443.94,0.02338
6438.15,0.02375
6432.37,0.02151
6426.58,0.02290
6420.79,0.02103
6415.01,0.02131
6409.22,0.02170
6403.43,0.02392
6397.65,0.02713
6391.86,0.02330
6386.08,0.02301
6380.29,0.02440
6374.5,0.01887
6368.72,0.02004
6362.93,0.02132
6357.14,0.02061
6351.36,0.02182
6345.57,0.02002
6339.79,0.02287
6334,0.02300
6328.21,0.02083
6322.43,0.02156
6316.64,0.02327
6310.85,0.02519
6305.07,0.02367
6299.28,0.02210
6293.5,0.02161
6287.71,0.02327
6281.92,0.02245
6276.14,0.02193
6270.35,0.02162
6264.56,0.02224
6258.78,0.02042
6252.99,0.02578
6247.21,0.02246
6241.42,0.02188
6235.63,0.02286
6229.85,0.02421
6224.06,0.02228
6218.27,0.02222
6212.49,0.01978
6206.7,0.02388
6200.92,0.02630
6195.13,0.02437
6189.34,0.02497
6183.56,0.02240
6177.77,0.02047
6171.98,0.02354
6166.2,0.02307
6160.41,0.02471
6154.63,0.02387
6148.84,0.02434
6143.05,0.02130
6137.27,0.02463
6131.48,0.02114
6125.7,0.02653
6119.91,0.01946
6114.12,0.02406
6108.34,0.02190
6102.55,0.01991
6096.76,0.02092
6090.98,0.02043
6085.19,0.02181
6079.41,0.02263
6073.62,0.02366
6067.83,0.02129
6062.05,0.01901
6056.26,0.01852
6050.47,0.02001
6044.69,0.02099
6038.9,0.01980
6033.12,0.02273
6027.33,0.02378
6021.54,0.02348
6015.76,0.02191
6009.97,0.02464
6004.18,0.02338
5998.4,0.01900
5992.61,0.02039
5986.83,0.02155
5981.04,0.02202
5975.25,0.02087
5969.47,0.01975
5963.68,0.02158
5957.89,0.02260
5952.11,0.01963
5946.32,0.02309
5940.54,0.02187
5934.75,0.02236
5928.96,0.02171
5923.18,0.02305
5917.39,0.02297
5911.6,0.02091
5905.82,0.01802
5900.03,0.02206
5894.25,0.02262
5888.46,0.02157
5882.67,0.02146
5876.89,0.02238
5871.1,0.02151
5865.31,0.02223
5859.53,0.02096
5853.74,0.02248
5847.96,0.01982
5842.17,0.02041
5836.38,0.01955
5830.6,0.02345
5824.81,0.02144
5819.02,0.02171
5813.24,0.02140
5807.45,0.02408
5801.67,0.02014
5795.88,0.02187
5790.09,0.02334
5784.31,0.02332
5778.52,0.02325
5772.73,0.02117
5766.95,0.02132
5761.16,0.02219
5755.38,0.02216
5749.59,0.02312
5743.8,0.02177
5738.02,0.02127
5732.23,0.02166
5726.44,0.02227
5720.66,0.02073
5714.87,0.02190
5709.09,0.02109
5703.3,0.02025
5697.51,0.02100
5691.73,0.02364
5685.94,0.02335
5680.15,0.02204
5674.37,0.02199
5668.58,0.02223
5662.8,0.01925
5657.01,0.02169
5651.22,0.02049
5645.44,0.02224
5639.65,0.02101
5633.87,0.02019
5628.08,0.02087
5622.29,0.02028
5616.51,0.02288
5610.72,0.02209
5604.93,0.02363
5599.15,0.02154
5593.36,0.02359
5587.58,0.02252
5581.79,0.02286
5576,0.01962
5570.22,0.02083
5564.43,0.02311
5558.64,0.02270
5552.86,0.02066
5547.07,0.02085
5541.29,0.01963
5535.5,0.02234
5529.71,0.02198
5523.93,0.02173
5518.14,0.02065
5512.35,0.02254
5506.57,0.02377
5500.78,0.02135
5495,0.02054
5489.21,0.02119
5483.42,0.02259
5477.64,0.02271
5471.85,0.02285
5466.06,0.01968
5460.28,0.02056
5454.49,0.02147
5448.71,0.02116
5442.92,0.02143
5437.13,0.02157
5431.35,0.02125
5425.56,0.01998
5419.77,0.02196
5413.99,0.02359
5408.2,0.02132
5402.42,0.02105
5396.63,0.02237
5390.84,0.01903
5385.06,0.02130
5379.27,0.02218
5373.48,0.02220
5367.7,0.02210
5361.91,0.02137
5356.13,0.02291
5350.34,0.02083
5344.55,0.02203
5338.77,0.02069
5332.98,0.02069
5327.19,0.02027
5321.41,0.02148
5315.62,0.02361
5309.84,0.02303
5304.05,0.02017
5298.26,0.02141
5292.48,0.02161
5286.69,0.02219
5280.9,0.02133
5275.12,0.02235
5269.33,0.02397
5263.55,0.02173
5257.76,0.02210
5251.97,0.02116
5246.19,0.02206
5240.4,0.02319
5234.61,0.02204
5228.83,0.02074
5223.04,0.02291
5217.26,0.02105
5211.47,0.02259
5205.68,0.02169
5199.9,0.02261
5194.11,0.02276
5188.32,0.02212
5182.54,0.02284
5176.75,0.02231
5170.97,0.02231
5165.18,0.02096
5159.39,0.02093
5153.61,0.02077
5147.82,0.02273
5142.03,0.02150
5136.25,0.02155
5130.46,0.02261
5124.68,0.02253
5118.89,0.02122
5113.1,0.02221
5107.32,0.02103
5101.53,0.02295
5095.75,0.02173
5089.96,0.02194
5084.17,0.02253
5078.39,0.02117
5072.6,0.02058
5066.81,0.02311
5061.03,0.02163
5055.24,0.02226
5049.46,0.02112
5043.67,0.02133
5037.88,0.02143
5032.1,0.02121
5026.31,0.02195
5020.52,0.02120
5014.74,0.02224
5008.95,0.02246
5003.17,0.02292
4997.38,0.02301
4991.59,0.02248
4985.81,0.02170
4980.02,0.02237
4974.23,0.02324
4968.45,0.02219
4962.66,0.02233
4956.88,0.02168
4951.09,0.02224
4945.3,0.02165
4939.52,0.02196
4933.73,0.02199
4927.94,0.02238
4922.16,0.02211
4916.37,0.02135
4910.59,0.02127
4904.8,0.02176
4899.01,0.02132
4893.23,0.02172
4887.44,0.02119
4881.65,0.02181
4875.87,0.02249
4870.08,0.02147
4864.3,0.02111
4858.51,0.02209
4852.72,0.02155
4846.94,0.02149
4841.15,0.02233
4835.36,0.02222
4829.58,0.02138
4823.79,0.02139
4818.01,0.02223
4812.22,0.02254
4806.43,0.02119
4800.65,0.02259
4794.86,0.02325
4789.07,0.02298
4783.29,0.02194
4777.5,0.02263
4771.72,0.02347
4765.93,0.02209
4760.14,0.02241
4754.36,0.02329
4748.57,0.02278
4742.78,0.02272
4737,0.02281
4731.21,0.02251
4725.43,0.02247
4719.64,0.02419
4713.85,0.02291
4708.07,0.02241
4702.28,0.02236
4696.49,0.02264
4690.71,0.02229
4684.92,0.02247
4679.14,0.02126
4673.35,0.02211
4667.56,0.02184
4661.78,0.02201
4655.99,0.02296
4650.2,0.02225
4644.42,0.02216
4638.63,0.02227
4632.85,0.02281
4627.06,0.02181
4621.27,0.02206
4615.49,0.02147
4609.7,0.02256
4603.92,0.02222
4598.13,0.02134
4592.34,0.02159
4586.56,0.02322
4580.77,0.02241
4574.98,0.02141
4569.2,0.02148
4563.41,0.02257
4557.63,0.02156
4551.84,0.02196
4546.05,0.02174
4540.27,0.02272
4534.48,0.02219
4528.69,0.02161
4522.91,0.02283
4517.12,0.02252
4511.34,0.02246
4505.55,0.02256
4499.76,0.02249
4493.98,0.02322
4488.19,0.02252
4482.4,0.02120
4476.62,0.02177
4470.83,0.02309
4465.05,0.02285
4459.26,0.02301
4453.47,0.02221
4447.69,0.02284
4441.9,0.02227
4436.11,0.02293
4430.33,0.02248
4424.54,0.02184
4418.76,0.02189
4412.97,0.02312
4407.18,0.02237
4401.4,0.02232
4395.61,0.02233
4389.82,0.02198
4384.04,0.02365
4378.25,0.02243
4372.47,0.02182
4366.68,0.02226
4360.89,0.02312
4355.11,0.02252
4349.32,0.02126
4343.53,0.02183
4337.75,0.02228
4331.96,0.02208
4326.18,0.02265
4320.39,0.02218
4314.6,0.02162
4308.82,0.02175
4303.03,0.02207
4297.24,0.02219
4291.46,0.02215
4285.67,0.02231
4279.89,0.02230
4274.1,0.02230
4268.31,0.02291
4262.53,0.02264
4256.74,0.02264
4250.95,0.02285
4245.17,0.02173
4239.38,0.02182
4233.6,0.02219
4227.81,0.02217
4222.02,0.02197
4216.24,0.02206
4210.45,0.02203
4204.66,0.02226
4198.88,0.02284
4193.09,0.02259
4187.31,0.02292
4181.52,0.02229
4175.73,0.02183
4169.95,0.02186
4164.16,0.02220
4158.37,0.02275
4152.59,0.02172
4146.8,0.02292
4141.02,0.02193
4135.23,0.02287
4129.44,0.02232
4123.66,0.02255
4117.87,0.02262
4112.09,0.02220
4106.3,0.02176
4100.51,0.02284
4094.73,0.02278
4088.94,0.02241
4083.15,0.02240
4077.37,0.02201
4071.58,0.02235
4065.8,0.02206
4060.01,0.02234
4054.22,0.02239
4048.44,0.02294
4042.65,0.02245
4036.86,0.02224
4031.08,0.02275
4025.29,0.02227
4019.51,0.02280
4013.72,0.02261
4007.93,0.02237
4002.15,0.02282
3996.36,0.02208
3990.57,0.02248
3984.79,0.02234
3979,0.02187
3973.22,0.02312
3967.43,0.02278
3961.64,0.02323
3955.86,0.02290
3950.07,0.02228
3944.28,0.02272
3938.5,0.02237
3932.71,0.02239
3926.93,0.02237
3921.14,0.02247
3915.35,0.02159
3909.57,0.02249
3903.78,0.02304
3897.99,0.02263
3892.21,0.02278
3886.42,0.02269
3880.64,0.02292
3874.85,0.02241
3869.06,0.02261
3863.28,0.02174
3857.49,0.02263
3851.7,0.02259
3845.92,0.02245
3840.13,0.02220
3834.35,0.02244
3828.56,0.02239
3822.77,0.02266
3816.99,0.02224
3811.2,0.02285
3805.41,0.02305
3799.63,0.02243
3793.84,0.02246
3788.06,0.02254
3782.27,0.02288
3776.48,0.02263
3770.7,0.02265
3764.91,0.02352
3759.12,0.02333
3753.34,0.02339
3747.55,0.02286
3741.77,0.02281
3735.98,0.02333
3730.19,0.02259
3724.41,0.02270
3718.62,0.02221
3712.83,0.02283
3707.05,0.02189
3701.26,0.02259
3695.48,0.02298
3689.69,0.02217
3683.9,0.02231
3678.12,0.02211
3672.33,0.02203
3666.54,0.02201
3660.76,0.02259
3654.97,0.02210
3649.19,0.02138
3643.4,0.02149
3637.61,0.02207
3631.83,0.02238
3626.04,0.02152
3620.25,0.02173
3614.47,0.02221
3608.68,0.02194
3602.9,0.02143
3597.11,0.02140
3591.32,0.02239
3585.54,0.02099
3579.75,0.02130
3573.97,0.02177
3568.18,0.02132
3562.39,0.02133
3556.61,0.02118
3550.82,0.02107
3545.03,0.02148
3539.25,0.02166
3533.46,0.02185
3527.68,0.02096
3521.89,0.02157
3516.1,0.02090
3510.32,0.02091
3504.53,0.02082
3498.74,0.02099
3492.96,0.02103
3487.17,0.02071
3481.39,0.02079
3475.6,0.02103
3469.81,0.02099
3464.03,0.02097
3458.24,0.02125
3452.45,0.02110
3446.67,0.02079
3440.88,0.02091
3435.1,0.02032
3429.31,0.02062
3423.52,0.02026
3417.74,0.01993
3411.95,0.02092
3406.16,0.02009
3400.38,0.02085
3394.59,0.02030
3388.81,0.02054
3383.02,0.02090
3377.23,0.01998
3371.45,0.02002
3365.66,0.02016
3359.87,0.02042
3354.09,0.02013
3348.3,0.02031
3342.52,0.02032
3336.73,0.02089
3330.94,0.01980
3325.16,0.02043
3319.37,0.02004
3313.58,0.02012
3307.8,0.02039
3302.01,0.02019
3296.23,0.02011
3290.44,0.02000
3284.65,0.02058
3278.87,0.02064
3273.08,0.01987
3267.29,0.02009
3261.51,0.02001
3255.72,0.02036
3249.94,0.02091
3244.15,0.02075
3238.36,0.02068
3232.58,0.02076
3226.79,0.02121
3221,0.02057
3215.22,0.02052
3209.43,0.02102
3203.65,0.02093
3197.86,0.02120
3192.07,0.02122
3186.29,0.02016
3180.5,0.02055
3174.71,0.02032
3168.93,0.02065
3163.14,0.02059
3157.36,0.02094
3151.57,0.02125
3145.78,0.02103
3140,0.02131
3134.21,0.02108
3128.42,0.02067
3122.64,0.02094
3116.85,0.02057
3111.07,0.02034
3105.28,0.02054
3099.49,0.02062
3093.71,0.02123
3087.92,0.02009
3082.14,0.02045
3076.35,0.02043
3070.56,0.02028
3064.78,0.02046
3058.99,0.02081
3053.2,0.02083
3047.42,0.02060
3041.63,0.02060
3035.85,0.02090
3030.06,0.02088
3024.27,0.02024
3018.49,0.02081
3012.7,0.02057
3006.91,0.01990
3001.13,0.02002
2995.34,0.02029
2989.56,0.01939
2983.77,0.01966
2977.98,0.01948
2972.2,0.01961
2966.41,0.01938
2960.62,0.01977
2954.84,0.01964
2949.05,0.01959
2943.27,0.01941
2937.48,0.01980
2931.69,0.01909
2925.91,0.02002
2920.12,0.01990
2914.33,0.01990
2908.55,0.02001
2902.76,0.01980
2896.98,0.02040
2891.19,0.01971
2885.4,0.02056
2879.62,0.02050
2873.83,0.02031
2868.04,0.01992
2862.26,0.02005
2856.47,0.02054
2850.69,0.02068
2844.9,0.02084
2839.11,0.02104
2833.33,0.02090
2827.54,0.02118
2821.75,0.02119
2815.97,0.02124
2810.18,0.02025
2804.4,0.02065
2798.61,0.02097
2792.82,0.02089
2787.04,0.02148
2781.25,0.02122
2775.46,0.02121
2769.68,0.02058
2763.89,0.02119
2758.11,0.02098
2752.32,0.02145
2746.53,0.02136
2740.75,0.02077
2734.96,0.02101
2729.17,0.02084
2723.39,0.02087
2717.6,0.02094
2711.82,0.02104
2706.03,0.02127
2700.24,0.02097
2694.46,0.02068
2688.67,0.02123
2682.88,0.02125
2677.1,0.02107
2671.31,0.02038
2665.53,0.02085
2659.74,0.02155
2653.95,0.02106
2648.17,0.02113
2642.38,0.02082
2636.59,0.02126
2630.81,0.02105
2625.02,0.02110
2619.24,0.02075
2613.45,0.02104
2607.66,0.02110
2601.88,0.02110
2596.09,0.02092
2590.3,0.02098
2584.52,0.02109
2578.73,0.02102
2572.95,0.02089
2567.16,0.02067
2561.37,0.02123
2555.59,0.02123
2549.8,0.02092
2544.02,0.02086
2538.23,0.02142
2532.44,0.02111
2526.66,0.02087
2520.87,0.02134
2515.08,0.02083
2509.3,0.02074
2503.51,0.02136
2497.73,0.02117
2491.94,0.02083
2486.15,0.02080
2480.37,0.02086
2474.58,0.02125
2468.79,0.02084
2463.01,0.02092
2457.22,0.02090
2451.44,0.02086
2445.65,0.02080
2439.86,0.02102
2434.08,0.02079
2428.29,0.02079
2422.5,0.02108
2416.72,0.02087
2410.93,0.02089
2405.15,0.02126
2399.36,0.02101
2393.57,0.02102
2387.79,0.02091
2382,0.02105
2376.21,0.02110
2370.43,0.02124
2364.64,0.02114
2358.86,0.02105
2353.07,0.02111
2347.28,0.02119
2341.5,0.02099
2335.71,0.02133
2329.92,0.02136
2324.14,0.02074
2318.35,0.02089
2312.57,0.02082
2306.78,0.02150
2300.99,0.02120
2295.21,0.02108
2289.42,0.02104
2283.63,0.02076
2277.85,0.02082
2272.06,0.02087
2266.28,0.02094
2260.49,0.02079
2254.7,0.02084
2248.92,0.02055
2243.13,0.02077
2237.34,0.02127
2231.56,0.02131
2225.77,0.02101
2219.99,0.02085
2214.2,0.02077
2208.41,0.02075
2202.63,0.02069
2196.84,0.02079
2191.05,0.02090
2185.27,0.02065
2179.48,0.02079
2173.7,0.02044
2167.91,0.02045
2162.12,0.02049
2156.34,0.02081
2150.55,0.02077
2144.76,0.02084
2138.98,0.02116
2133.19,0.02063
2127.41,0.02046
2121.62,0.02055
2115.83,0.02081
2110.05,0.02076
2104.26,0.02101
2098.47,0.02082
2092.69,0.02063
2086.9,0.02081
2081.12,0.02047
2075.33,0.02084
2069.54,0.02061
2063.76,0.02086
2057.97,0.02072
2052.19,0.02087
2046.4,0.02095
2040.61,0.02092
2034.83,0.02077
2029.04,0.02053
2023.25,0.02062
2017.47,0.02068
2011.68,0.02063
2005.9,0.02054
2000.11,0.02080
1994.32,0.02057
1988.54,0.02063
1982.75,0.02044
1976.96,0.02071
1971.18,0.02069
1965.39,0.02071
1959.61,0.02051
1953.82,0.02078
1948.03,0.02056
1942.25,0.02065
1936.46,0.02071
1930.67,0.02044
1924.89,0.02046
1919.1,0.02067
1913.32,0.02058
1907.53,0.02016
1901.74,0.02022
1895.96,0.02027
1890.17,0.02030
1884.38,0.02012
1878.6,0.02020
1872.81,0.02035
1867.03,0.01991
1861.24,0.01995
1855.45,0.02016
1849.67,0.01991
1843.88,0.02019
1838.09,0.02014
1832.31,0.01975
1826.52,0.01980
1820.74,0.02015
1814.95,0.01976
1809.16,0.01962
1803.38,0.01964
1797.59,0.01955
1791.8,0.01925
1786.02,0.01918
1780.23,0.01856
1774.45,0.01884
1768.66,0.01832
1762.87,0.01764
1757.09,0.01745
1751.3,0.01766
1745.51,0.01752
1739.73,0.01819
1733.94,0.01959
1728.16,0.02048
1722.37,0.02078
1716.58,0.02064
1710.8,0.02051
1705.01,0.02007
1699.22,0.01933
1693.44,0.01898
1687.65,0.01879
1681.87,0.01883
1676.08,0.01883
1670.29,0.01862
1664.51,0.01828
1658.72,0.01844
1652.93,0.01881
1647.15,0.01867
1641.36,0.01834
1635.58,0.01886
1629.79,0.01869
1624,0.01907
1618.22,0.01917
1612.43,0.01879
1606.64,0.01857
1600.86,0.01884
1595.07,0.01872
1589.29,0.01873
1583.5,0.01850
1577.71,0.01824
1571.93,0.01870
1566.14,0.01807
1560.35,0.01837
1554.57,0.01817
1548.78,0.01767
1543,0.01820
1537.21,0.01820
1531.42,0.01842
1525.64,0.01835
1519.85,0.01841
1514.07,0.01859
1508.28,0.01913
1502.49,0.01853
1496.71,0.01854
1490.92,0.01906
1485.13,0.01881
1479.35,0.01813
1473.56,0.01844
1467.78,0.01832
1461.99,0.01858
1456.2,0.01853
1450.42,0.01867
1444.63,0.01849
1438.84,0.01859
1433.06,0.01839
1427.27,0.01839
1421.49,0.01880
1415.7,0.01780
1409.91,0.01837
1404.13,0.01825
1398.34,0.01840
1392.55,0.01812
1386.77,0.01817
1380.98,0.01804
1375.2,0.01804
1369.41,0.01792
1363.62,0.01812
1357.84,0.01818
1352.05,0.01801
1346.26,0.01747
1340.48,0.01728
1334.69,0.01719
1328.91,0.01722
1323.12,0.01706
1317.33,0.01718
1311.55,0.01666
1305.76,0.01678
1299.97,0.01765
1294.19,0.01761
1288.4,0.01852
1282.62,0.01871
1276.83,0.01886
1271.04,0.01933
1265.26,0.01969
1259.47,0.01974
1253.68,0.02022
1247.9,0.01980
1242.11,0.01991
1236.33,0.01937
1230.54,0.01956
1224.75,0.01966
1218.97,0.01876
1213.18,0.01876
1207.39,0.01858
1201.61,0.01838
1195.82,0.01854
1190.04,0.01794
1184.25,0.01821
1178.46,0.01768
1172.68,0.01791
1166.89,0.01776
1161.1,0.01752
1155.32,0.01730
1149.53,0.01721
1143.75,0.01740
1137.96,0.01723
1132.17,0.01736
1126.39,0.01807
1120.6,0.01888
1114.81,0.01828
1109.03,0.01805
1103.24,0.01788
1097.46,0.01830
1091.67,0.01767
1085.88,0.01794
1080.1,0.01949
1074.31,0.01951
1068.52,0.01957
1062.74,0.02028
1056.95,0.01914
1051.17,0.01882
1045.38,0.01930
1039.59,0.01937
1033.81,0.01936
1028.02,0.01939
1022.24,0.01898
1016.45,0.01918
1010.66,0.01944
1004.88,0.02089
999.09,0.02050
993.304,0.02085
987.518,0.02035
981.731,0.02078
975.945,0.02032
970.159,0.02067
964.373,0.02000
958.586,0.01965
952.8,0.01971
947.014,0.01993
941.228,0.01970
935.441,0.01965
929.655,0.01959
923.869,0.01916
918.083,0.01908
912.297,0.01920
906.51,0.01888
900.724,0.01881
894.938,0.01910
889.152,0.01895
883.365,0.01857
877.579,0.01866
871.793,0.01826
866.007,0.01830
860.22,0.01892
854.434,0.01814
848.648,0.01875
842.862,0.01908
837.075,0.01917
831.289,0.01894
825.503,0.01877
819.717,0.01915
813.931,0.01887
808.144,0.01941
802.358,0.01940
796.572,0.01889
790.786,0.01913
784.999,0.01833
779.213,0.01820
773.427,0.01848
767.641,0.01785
761.854,0.01834
756.068,0.01706
750.282,0.01768
744.496,0.01896
738.709,0.01824
732.923,0.01794
727.137,0.01790
721.351,0.01907
715.565,0.01845
709.778,0.01741
703.992,0.01862
698.206,0.01881
692.42,0.01801
686.633,0.01773
680.847,0.01824
675.061,0.01678
669.275,0.01788
663.488,0.01691
657.702,0.01753
651.916,0.01807
646.13,0.01736
640.343,0.01595
634.557,0.01703
628.771,0.01607
622.985,0.01824
617.198,0.01783
611.412,0.01687
605.626,0.01594
599.84,0.01482