File: 01_Data/Polyolefin_Carpet_Low_Pile/MCC/Polyolefin_Carpet_Low_Pile_MCC_30K_min_211008_R3.txt
Sample ID:	C:\MCC\MCC Cal\Test\Carpet_Polyolefin_LowPile_211008_R3.txt
Sample Weight (mg):	4.54
Heating Rate (C/s):	0.5
Combustor Temp (C):	900
N2 Flow Rate (cc/min):	80
O2 Flow Rate (cc/min):	20
Calibration File:	C:\MCC\MCC Cal\Coeff1 JN10440_30_210304.txt.txt
T Correction Coefficients:	0	1.024463	0
Time Shift (s):	14
*
Time (s)	Temperature (C)	N2 flow rate (cc/min)	O2 flow rate (cc/min)	Flow Rate (cc/min)	Oxygen (%)	HRR (W/g)	Heating rate (C/s)
0.000	105.580	79.999	19.996	100.670	20.031	-0.087	0.031
2.000	105.582	79.999	19.997	100.668	20.028	0.119	0.021
4.000	105.533	80.000	19.996	100.667	20.030	-0.006	-0.018
6.000	105.541	79.999	19.997	100.669	20.029	0.021	-0.009
8.000	105.563	79.999	19.997	100.669	20.026	0.230	0.022
10.000	105.580	79.999	19.997	100.679	20.031	-0.066	0.002
12.000	105.548	79.999	19.996	100.709	20.023	0.477	0.012
14.000	105.552	80.000	19.996	100.754	20.022	0.558	-0.006
16.000	105.646	80.000	19.996	100.761	20.015	0.989	0.030
18.000	105.712	79.998	19.998	100.768	20.016	0.918	0.023
20.000	105.810	79.998	19.996	100.774	20.013	1.174	0.059
22.000	105.938	79.998	19.997	100.811	20.008	1.532	0.070
24.000	106.075	79.999	19.997	100.822	20.008	1.534	0.071
26.000	106.303	80.000	19.997	100.849	20.000	2.067	0.140
28.000	106.433	79.998	19.997	100.855	19.998	2.226	0.097
30.000	106.667	80.002	19.997	100.857	20.000	2.049	0.094
32.000	106.954	80.000	19.996	100.846	19.995	2.392	0.162
34.000	107.207	80.000	19.996	100.842	19.996	2.355	0.135
36.000	107.519	79.998	19.996	100.838	19.992	2.592	0.174
38.000	107.823	79.999	19.996	100.859	19.996	2.364	0.165
40.000	108.147	79.997	19.996	100.877	19.996	2.325	0.135
42.001	108.489	79.997	19.995	100.869	19.995	2.381	0.182
44.001	108.880	79.997	19.996	100.877	19.990	2.779	0.194
46.001	109.317	79.999	19.996	100.894	19.986	3.007	0.210
48.001	109.751	79.998	19.996	100.882	19.988	2.866	0.193
50.000	110.205	79.999	19.996	100.898	19.989	2.789	0.230
52.000	110.660	79.999	19.997	100.890	19.989	2.838	0.229
54.000	111.151	79.998	19.996	100.897	19.988	2.875	0.260
56.000	111.685	79.999	19.996	100.901	19.985	3.100	0.271
58.000	112.165	79.999	19.996	100.905	19.981	3.405	0.268
60.000	112.739	79.998	19.995	100.909	19.988	2.909	0.298
62.000	113.291	79.997	19.996	100.903	19.980	3.411	0.306
64.000	113.900	79.996	19.996	100.904	19.984	3.140	0.313
66.001	114.538	79.998	19.996	100.909	19.986	3.053	0.339
68.000	115.161	79.999	19.996	100.918	19.982	3.294	0.310
70.000	115.811	79.999	19.996	100.903	19.985	3.116	0.325
72.000	116.446	79.996	19.996	100.909	19.984	3.138	0.322
74.000	117.111	79.998	19.996	100.907	19.985	3.089	0.360
76.000	117.783	79.997	19.995	100.912	19.987	2.984	0.349
78.000	118.516	79.996	19.996	100.917	19.983	3.214	0.378
80.000	119.229	80.000	19.996	100.916	19.984	3.174	0.361
82.000	119.946	80.001	19.997	100.925	19.984	3.157	0.360
84.000	120.693	79.999	19.997	100.916	19.986	3.040	0.385
86.000	121.478	79.999	19.996	100.925	19.983	3.210	0.396
88.000	122.274	79.998	19.997	100.927	19.984	3.180	0.377
90.000	123.048	79.999	19.996	100.922	19.985	3.117	0.406
92.000	123.846	79.999	19.997	100.918	19.982	3.287	0.402
94.000	124.687	79.998	19.997	100.911	19.981	3.374	0.433
96.000	125.509	79.997	19.996	100.924	19.986	3.042	0.427
98.000	126.351	79.996	19.996	100.934	19.983	3.248	0.442
100.000	127.139	79.998	19.997	100.924	19.987	2.965	0.377
102.000	128.010	80.001	19.996	100.928	19.986	3.027	0.399
104.001	128.855	79.999	19.996	100.926	19.985	3.072	0.443
106.000	129.743	79.999	19.996	100.930	19.983	3.223	0.444
108.000	130.633	80.000	19.997	100.922	19.985	3.106	0.445
110.001	131.483	80.000	19.997	100.936	19.982	3.329	0.443
112.001	132.382	79.999	19.998	100.933	19.979	3.498	0.448
114.000	133.281	80.000	19.998	100.928	19.985	3.069	0.423
116.000	134.175	79.998	19.997	100.930	19.984	3.161	0.419
118.000	135.147	79.997	19.996	100.931	19.989	2.836	0.499
120.000	136.000	79.996	19.996	100.931	19.985	3.123	0.419
122.000	136.921	79.996	19.999	100.921	19.986	2.993	0.420
124.000	137.895	79.997	19.997	100.931	19.986	3.059	0.445
126.001	138.806	79.997	19.997	100.929	19.989	2.842	0.432
128.000	139.757	79.997	19.995	100.926	19.988	2.874	0.450
130.000	140.723	79.998	19.996	100.914	19.987	2.976	0.478
132.000	141.694	79.996	19.996	100.928	19.985	3.092	0.458
134.000	142.626	79.998	19.996	100.930	19.987	2.951	0.472
136.000	143.625	79.998	19.996	100.923	19.987	2.955	0.509
138.000	144.622	79.998	19.996	100.928	19.988	2.887	0.478
140.000	145.623	79.998	19.996	100.914	19.991	2.647	0.503
142.000	146.595	79.998	19.997	100.912	19.985	3.076	0.484
144.000	147.524	79.997	19.996	100.911	19.982	3.286	0.469
146.000	148.599	79.997	19.995	100.906	19.985	3.122	0.528
148.000	149.523	79.999	19.995	100.905	19.990	2.776	0.468
150.000	150.528	79.998	19.998	100.903	19.989	2.804	0.499
152.000	151.527	79.997	19.996	100.909	19.991	2.698	0.489
154.000	152.545	79.997	19.996	100.904	19.991	2.702	0.542
156.000	153.491	79.998	19.996	100.902	19.988	2.921	0.457
158.000	154.471	79.999	19.996	100.905	19.990	2.747	0.472
160.000	155.477	80.000	19.997	100.901	19.994	2.466	0.518
162.000	156.463	80.001	19.996	100.902	19.994	2.478	0.466
164.000	157.450	80.001	19.997	100.908	19.993	2.568	0.484
166.000	158.484	79.999	19.997	100.903	19.997	2.232	0.484
168.000	159.485	80.000	19.996	100.901	19.999	2.157	0.502
170.000	160.450	79.998	19.996	100.902	19.996	2.338	0.498
172.000	161.477	79.998	19.995	100.903	19.997	2.281	0.507
174.000	162.519	80.000	19.996	100.902	20.000	2.044	0.529
176.000	163.469	79.999	19.997	100.902	19.997	2.291	0.488
178.000	164.512	79.997	19.995	100.898	19.993	2.555	0.510
180.000	165.535	79.998	19.997	100.902	19.998	2.164	0.508
182.000	166.518	79.999	19.996	100.901	19.999	2.134	0.524
184.000	167.535	80.000	19.996	100.904	19.999	2.100	0.497
186.000	168.474	79.998	19.997	100.902	20.000	2.027	0.487
188.001	169.507	80.000	19.996	100.899	20.000	2.081	0.526
190.000	170.473	79.999	19.996	100.895	19.998	2.181	0.489
192.001	171.446	80.001	19.995	100.900	20.000	2.023	0.525
194.000	172.450	79.999	19.996	100.887	19.995	2.402	0.495
196.000	173.418	79.998	19.996	100.893	19.998	2.195	0.471
198.000	174.410	79.997	19.995	100.895	20.002	1.927	0.501
200.000	175.426	79.999	19.996	100.894	20.001	1.974	0.535
202.000	176.391	79.999	19.997	100.883	20.000	2.083	0.504
204.000	177.340	79.997	19.997	100.887	20.000	2.055	0.480
206.000	178.333	79.997	19.998	100.888	20.002	1.893	0.493
208.000	179.313	79.997	19.998	100.895	20.004	1.783	0.503
210.000	180.293	79.998	19.998	100.872	20.000	2.036	0.506
212.001	181.264	79.998	19.997	100.880	20.003	1.830	0.494
214.000	182.204	80.000	19.997	100.877	20.000	2.047	0.468
216.000	183.200	79.998	19.996	100.883	20.001	1.966	0.493
218.000	184.156	79.999	19.996	100.874	20.000	2.034	0.482
220.000	185.140	79.997	19.996	100.876	19.998	2.228	0.516
222.000	186.144	79.999	19.996	100.881	19.998	2.213	0.522
224.000	187.154	79.998	19.997	100.881	19.999	2.134	0.495
226.000	188.085	79.998	19.996	100.879	20.003	1.879	0.472
228.000	189.035	79.998	19.996	100.873	20.000	2.081	0.478
230.000	190.023	79.998	19.996	100.869	19.999	2.096	0.492
232.000	190.997	79.998	19.996	100.863	20.005	1.691	0.461
234.000	191.932	79.997	19.997	100.864	20.003	1.866	0.487
236.000	192.914	79.999	19.996	100.866	20.004	1.768	0.475
238.000	193.919	79.997	19.997	100.866	20.006	1.613	0.485
240.001	194.890	80.000	19.996	100.869	20.004	1.762	0.505
242.000	195.803	79.998	19.996	100.866	20.005	1.691	0.402
244.000	196.863	79.999	19.995	100.867	20.003	1.855	0.543
246.000	197.824	80.001	19.996	100.867	20.004	1.794	0.505
248.000	198.783	79.998	19.996	100.864	20.001	1.960	0.486
250.000	199.757	80.000	19.994	100.863	20.006	1.630	0.483
252.000	200.658	79.999	19.996	100.865	20.005	1.702	0.451
254.000	201.695	79.998	19.995	100.867	20.002	1.947	0.495
256.000	202.622	79.999	19.996	100.866	20.000	2.062	0.477
258.000	203.597	79.998	19.995	100.866	20.000	2.047	0.483
260.000	204.583	79.998	19.995	100.868	20.003	1.826	0.518
262.000	205.559	80.000	19.996	100.869	20.005	1.683	0.491
264.000	206.516	80.000	19.996	100.881	20.002	1.896	0.508
266.000	207.489	79.998	19.995	100.870	20.007	1.540	0.497
268.000	208.475	80.001	19.997	100.866	20.004	1.751	0.490
270.000	209.413	80.000	19.997	100.863	20.003	1.817	0.505
272.000	210.418	80.000	19.996	100.860	20.004	1.811	0.488
274.000	211.421	79.999	19.996	100.859	20.003	1.819	0.503
276.000	212.390	80.000	19.997	100.861	20.004	1.811	0.472
278.000	213.356	80.000	19.996	100.866	20.006	1.626	0.484
280.000	214.349	79.998	19.997	100.862	20.008	1.510	0.481
282.000	215.324	79.998	19.997	100.862	20.008	1.527	0.512
284.000	216.315	79.999	19.996	100.863	20.009	1.459	0.463
286.001	217.298	79.999	19.997	100.862	20.009	1.430	0.501
288.000	218.296	79.998	19.996	100.860	20.010	1.395	0.483
290.000	219.265	79.997	19.997	100.857	20.008	1.502	0.491
292.000	220.265	79.999	19.996	100.857	20.009	1.400	0.524
294.000	221.277	79.998	19.997	100.854	20.007	1.566	0.497
296.000	222.308	79.999	19.997	100.853	20.005	1.704	0.501
298.000	223.317	79.997	19.997	100.856	20.008	1.521	0.512
300.000	224.269	79.997	19.997	100.857	20.009	1.427	0.505
302.000	225.301	79.998	19.996	100.857	20.011	1.263	0.492
304.000	226.265	79.998	19.997	100.852	20.008	1.494	0.471
306.000	227.243	79.997	19.997	100.848	20.009	1.436	0.472
308.000	228.170	79.997	19.997	100.857	20.006	1.653	0.481
310.000	229.271	79.999	19.997	100.853	20.005	1.700	0.513
312.001	230.124	79.998	19.995	100.850	20.007	1.549	0.523
314.000	231.204	79.998	19.997	100.851	20.007	1.589	0.661
316.000	232.338	79.997	19.996	100.856	20.007	1.551	0.558
318.000	233.219	79.998	19.996	100.845	20.011	1.306	0.583
320.000	234.210	79.997	19.994	100.857	20.007	1.583	0.478
322.000	235.233	79.999	19.996	100.862	20.008	1.517	0.478
324.000	236.180	79.999	19.997	100.862	20.011	1.264	0.488
326.000	237.183	80.000	19.995	100.855	20.012	1.225	0.480
328.000	238.129	80.000	19.996	100.844	20.012	1.246	0.496
330.000	239.153	80.000	19.997	100.852	20.007	1.557	0.519
332.000	240.141	79.999	19.996	100.842	20.010	1.364	0.494
334.000	241.145	79.999	19.996	100.845	20.010	1.387	0.497
336.000	242.115	79.998	19.996	100.839	20.003	1.820	0.502
338.000	243.160	79.999	19.997	100.834	20.009	1.438	0.517
340.000	244.160	79.998	19.995	100.844	20.014	1.085	0.503
342.001	245.172	79.999	19.996	100.857	20.009	1.438	0.514
344.000	246.142	79.999	19.996	100.839	20.011	1.268	0.493
346.000	247.144	80.001	19.995	100.847	20.008	1.494	0.485
348.000	248.165	80.001	19.995	100.839	20.011	1.317	0.500
350.000	249.138	80.004	19.996	100.834	20.011	1.302	0.516
352.000	250.216	80.001	19.995	100.835	20.008	1.492	0.536
354.000	251.247	80.001	19.996	100.831	20.010	1.368	0.505
356.000	252.260	80.000	19.996	100.832	20.009	1.428	0.505
358.000	253.255	80.000	19.997	100.829	20.012	1.245	0.514
360.000	254.244	79.997	19.997	100.826	20.008	1.466	0.486
362.000	255.253	79.999	19.996	100.835	20.010	1.340	0.509
364.000	256.300	79.997	19.996	100.831	20.010	1.381	0.516
366.000	257.290	79.997	19.996	100.825	20.012	1.221	0.522
368.000	258.305	79.997	19.997	100.829	20.012	1.189	0.499
370.000	259.269	79.998	19.997	100.830	20.011	1.279	0.497
372.000	260.303	79.999	19.996	100.841	20.011	1.308	0.531
374.000	261.283	79.997	19.996	100.828	20.012	1.200	0.487
376.001	262.252	79.998	19.997	100.829	20.014	1.112	0.505
378.000	263.294	79.998	19.996	100.826	20.010	1.374	0.512
380.000	264.280	79.998	19.997	100.827	20.011	1.262	0.541
382.000	265.276	79.998	19.997	100.834	20.012	1.204	0.462
384.000	266.286	79.998	19.997	100.833	20.014	1.053	0.530
386.000	267.253	79.996	19.997	100.828	20.017	0.910	0.506
388.000	268.283	79.996	19.997	100.829	20.014	1.072	0.528
390.000	269.285	79.995	19.996	100.833	20.014	1.055	0.524
392.000	270.218	79.998	19.998	100.829	20.013	1.179	0.498
394.000	271.282	79.996	19.998	100.826	20.012	1.257	0.509
396.000	272.293	79.996	19.997	100.823	20.015	1.002	0.515
398.000	273.260	79.998	19.998	100.824	20.016	0.963	0.473
400.000	274.301	79.998	19.997	100.839	20.012	1.196	0.516
402.000	275.289	79.998	19.997	100.821	20.010	1.368	0.498
404.000	276.268	79.998	19.996	100.820	20.009	1.417	0.487
406.000	277.273	79.998	19.997	100.821	20.008	1.532	0.472
408.000	278.263	79.999	19.996	100.819	20.012	1.217	0.479
410.000	279.250	79.999	19.996	100.821	20.009	1.398	0.498
412.000	280.264	80.000	19.996	100.819	20.015	1.038	0.537
414.000	281.251	79.999	19.995	100.820	20.012	1.215	0.490
416.001	282.208	79.997	19.995	100.822	20.013	1.140	0.473
418.000	283.257	79.999	19.995	100.819	20.011	1.283	0.514
420.000	284.208	79.999	19.997	100.822	20.014	1.059	0.455
422.000	285.188	79.999	19.997	100.815	20.009	1.453	0.500
424.000	286.204	79.999	19.995	100.821	20.010	1.341	0.466
426.000	287.233	80.001	19.997	100.816	20.010	1.349	0.507
428.000	288.206	80.000	19.996	100.808	20.012	1.243	0.501
430.000	289.174	80.000	19.995	100.820	20.012	1.238	0.480
432.000	290.184	80.000	19.996	100.820	20.011	1.320	0.496
434.000	291.181	79.999	19.995	100.817	20.015	0.995	0.493
436.000	292.186	80.002	19.995	100.815	20.013	1.159	0.483
438.000	293.189	79.999	19.995	100.816	20.009	1.418	0.513
440.000	294.161	79.998	19.996	100.817	20.008	1.479	0.491
442.001	295.226	79.999	19.997	100.812	20.012	1.192	0.554
444.000	296.177	79.997	19.998	100.803	20.010	1.375	0.507
446.000	297.136	79.997	19.996	100.814	20.008	1.501	0.496
448.000	298.146	79.995	19.996	100.804	20.008	1.475	0.494
450.000	299.197	79.997	19.997	100.809	20.005	1.709	0.506
452.000	300.118	79.997	19.996	100.815	20.007	1.577	0.487
454.000	301.091	79.996	19.997	100.818	20.006	1.605	0.480
456.000	302.085	79.996	19.996	100.812	20.005	1.714	0.493
458.000	303.097	79.996	19.998	100.812	20.007	1.545	0.466
460.000	304.046	79.998	19.997	100.802	20.005	1.677	0.502
462.000	305.077	79.997	19.997	100.814	20.003	1.846	0.512
464.000	306.098	79.997	19.997	100.808	20.005	1.677	0.501
466.000	307.048	79.997	19.996	100.813	20.002	1.882	0.503
468.000	308.022	79.996	19.996	100.818	20.003	1.871	0.505
470.000	309.033	79.998	19.998	100.820	20.003	1.852	0.522
472.000	310.076	79.996	19.997	100.821	20.002	1.923	0.537
474.000	311.047	79.997	19.998	100.820	20.003	1.865	0.492
476.000	312.089	79.996	19.997	100.818	19.999	2.119	0.501
478.000	313.078	79.996	19.997	100.801	20.002	1.929	0.517
480.000	314.095	79.998	19.997	100.809	19.999	2.130	0.498
482.000	315.123	79.999	19.998	100.810	19.998	2.161	0.515
484.000	316.178	79.999	19.996	100.797	19.996	2.362	0.536
486.000	317.194	79.998	19.997	100.812	19.999	2.095	0.489
488.000	318.221	79.998	19.997	100.809	19.996	2.323	0.543
490.000	319.203	79.997	19.997	100.792	19.994	2.472	0.506
492.001	320.222	79.998	19.996	100.808	19.996	2.321	0.513
494.000	321.254	79.999	19.996	100.814	19.993	2.532	0.503
496.000	322.287	79.997	19.994	100.813	19.990	2.748	0.512
498.000	323.294	79.999	19.996	100.801	19.991	2.701	0.522
500.000	324.300	79.996	19.997	100.809	19.988	2.901	0.498
502.000	325.325	79.998	19.997	100.811	19.985	3.095	0.512
504.000	326.360	79.998	19.997	100.818	19.986	2.989	0.504
506.000	327.379	79.998	19.996	100.796	19.982	3.332	0.531
508.000	328.412	79.999	19.996	100.808	19.984	3.134	0.526
510.000	329.404	80.000	19.996	100.798	19.982	3.311	0.479
512.000	330.431	80.001	19.995	100.804	19.977	3.633	0.510
514.000	331.393	80.000	19.995	100.795	19.979	3.537	0.473
516.000	332.421	79.999	19.996	100.800	19.976	3.691	0.486
518.001	333.431	79.999	19.996	100.799	19.971	4.082	0.492
520.000	334.498	79.997	19.994	100.804	19.965	4.477	0.523
522.000	335.510	79.998	19.996	100.792	19.966	4.415	0.538
524.000	336.495	79.997	19.996	100.794	19.964	4.565	0.487
526.000	337.473	79.997	19.996	100.791	19.957	5.045	0.496
528.000	338.484	79.997	19.996	100.801	19.957	5.066	0.498
530.000	339.510	79.998	19.997	100.800	19.956	5.102	0.497
532.000	340.475	80.000	19.997	100.802	19.956	5.076	0.514
534.000	341.472	80.000	19.996	100.788	19.952	5.387	0.503
536.000	342.453	79.997	19.996	100.784	19.945	5.893	0.503
538.000	343.420	79.997	19.996	100.783	19.948	5.680	0.493
540.000	344.444	79.997	19.997	100.787	19.941	6.111	0.506
542.000	345.451	79.998	19.996	100.785	19.941	6.132	0.508
544.000	346.445	79.998	19.996	100.791	19.935	6.582	0.498
546.000	347.518	79.998	19.997	100.791	19.926	7.149	0.556
548.000	348.447	79.997	19.995	100.783	19.925	7.264	0.497
550.000	349.471	79.998	19.998	100.784	19.921	7.535	0.518
552.000	350.423	79.997	19.998	100.784	19.916	7.858	0.472
554.000	351.450	79.998	19.997	100.783	19.910	8.302	0.502
556.000	352.463	79.998	19.996	100.785	19.908	8.398	0.511
558.000	353.462	79.998	19.996	100.786	19.901	8.927	0.527
560.000	354.420	79.997	19.996	100.786	19.895	9.359	0.470
562.000	355.416	79.998	19.997	100.791	19.894	9.373	0.507
564.000	356.460	79.998	19.996	100.796	19.888	9.809	0.532
566.000	357.413	79.998	19.996	100.788	19.882	10.206	0.490
568.000	358.421	80.000	19.996	100.785	19.873	10.839	0.495
570.000	359.436	79.999	19.996	100.787	19.866	11.324	0.509
572.000	360.422	79.999	19.997	100.787	19.863	11.553	0.484
574.000	361.433	79.998	19.998	100.785	19.854	12.182	0.506
576.001	362.490	79.998	19.996	100.788	19.842	12.985	0.530
578.000	363.499	79.997	19.997	100.787	19.836	13.396	0.511
580.000	364.475	79.997	19.996	100.795	19.830	13.854	0.487
582.000	365.499	79.998	19.997	100.794	19.822	14.383	0.508
584.000	366.500	79.998	19.996	100.784	19.815	14.891	0.504
586.000	367.536	80.000	19.996	100.794	19.801	15.808	0.506
588.000	368.528	80.002	19.995	100.791	19.797	16.121	0.476
590.000	369.538	80.000	19.997	100.784	19.789	16.633	0.495
592.000	370.526	80.000	19.997	100.783	19.780	17.302	0.490
594.000	371.518	80.001	19.995	100.783	19.768	18.136	0.509
596.000	372.564	80.001	19.995	100.783	19.755	19.056	0.507
598.000	373.592	79.998	19.996	100.781	19.746	19.676	0.516
600.000	374.649	79.999	19.996	100.782	19.734	20.501	0.497
602.000	375.628	79.998	19.995	100.783	19.728	20.859	0.504
604.000	376.645	79.999	19.996	100.783	19.715	21.773	0.506
606.000	377.689	79.999	19.996	100.784	19.704	22.586	0.513
608.000	378.699	79.998	19.996	100.783	19.695	23.208	0.524
610.000	379.686	79.997	19.996	100.781	19.679	24.287	0.496
612.000	380.698	79.998	19.996	100.781	19.668	25.018	0.522
614.000	381.721	79.998	19.996	100.783	19.655	25.925	0.521
616.000	382.772	79.999	19.996	100.780	19.646	26.589	0.513
618.000	383.807	79.999	19.996	100.779	19.634	27.379	0.529
620.000	384.802	79.999	19.995	100.782	19.622	28.238	0.498
622.000	385.783	79.999	19.996	100.782	19.606	29.311	0.508
624.000	386.801	79.998	19.996	100.782	19.595	30.080	0.495
626.000	387.818	79.999	19.995	100.778	19.580	31.118	0.466
628.000	388.806	79.999	19.995	100.782	19.568	31.980	0.509
630.000	389.854	79.998	19.995	100.783	19.556	32.829	0.521
632.000	390.844	79.997	19.997	100.782	19.543	33.712	0.519
634.000	391.878	79.996	19.995	100.772	19.526	34.844	0.532
636.000	392.864	79.997	19.996	100.775	19.516	35.557	0.494
638.000	393.879	79.997	19.995	100.777	19.504	36.395	0.511
640.000	394.897	79.998	19.996	100.760	19.491	37.265	0.497
642.000	395.932	79.999	19.996	100.769	19.479	38.138	0.486
644.000	396.946	79.999	19.997	100.765	19.462	39.297	0.537
646.000	397.919	79.999	19.996	100.766	19.452	40.028	0.489
648.000	398.956	80.000	19.997	100.763	19.436	41.110	0.520
650.000	399.934	80.000	19.996	100.747	19.422	42.068	0.491
652.000	400.975	79.999	19.996	100.748	19.407	43.109	0.512
654.000	401.964	79.999	19.996	100.747	19.392	44.133	0.519
656.000	402.949	80.000	19.996	100.747	19.379	45.055	0.490
658.000	404.011	79.999	19.997	100.747	19.362	46.210	0.509
660.000	404.997	79.998	19.997	100.745	19.347	47.270	0.518
662.000	406.012	79.999	19.997	100.744	19.327	48.614	0.526
664.000	407.055	80.000	19.997	100.744	19.313	49.591	0.508
666.000	408.002	79.999	19.997	100.744	19.299	50.606	0.493
668.000	409.058	80.000	19.997	100.741	19.280	51.868	0.504
670.000	410.068	79.999	19.997	100.741	19.263	53.074	0.528
672.000	411.085	80.002	19.996	100.738	19.247	54.204	0.515
674.000	412.055	79.999	19.997	100.739	19.226	55.610	0.472
676.000	413.090	80.000	19.997	100.728	19.204	57.123	0.492
678.000	414.077	80.000	19.996	100.726	19.187	58.337	0.500
680.000	415.087	79.999	19.996	100.737	19.168	59.618	0.481
682.000	416.123	79.997	19.996	100.731	19.149	60.983	0.537
684.000	417.135	79.998	19.996	100.712	19.127	62.462	0.503
686.000	418.175	79.998	19.996	100.709	19.105	64.005	0.522
688.000	419.170	79.998	19.996	100.714	19.086	65.293	0.517
690.000	420.135	79.998	19.996	100.712	19.060	67.083	0.477
692.000	421.197	79.998	19.996	100.710	19.034	68.867	0.510
694.000	422.250	79.999	19.995	100.709	19.013	70.373	0.530
696.000	423.187	79.999	19.996	100.708	18.990	71.911	0.486
698.000	424.226	80.000	19.996	100.707	18.969	73.404	0.503
700.001	425.230	79.998	19.995	100.695	18.939	75.480	0.478
702.000	426.255	79.998	19.996	100.697	18.913	77.257	0.534
704.000	427.239	79.998	19.995	100.698	18.881	79.477	0.519
706.000	428.247	79.999	19.997	100.684	18.855	81.258	0.505
708.000	429.281	79.998	19.996	100.683	18.828	83.100	0.534
710.000	430.271	79.997	19.995	100.678	18.798	85.174	0.467
712.000	431.304	79.997	19.995	100.672	18.767	87.340	0.510
714.000	432.339	79.997	19.996	100.667	18.735	89.498	0.517
716.000	433.362	79.998	19.997	100.669	18.705	91.597	0.505
718.000	434.332	79.998	19.996	100.660	18.676	93.608	0.486
720.000	435.375	79.999	19.996	100.653	18.638	96.242	0.502
722.000	436.375	80.000	19.997	100.638	18.611	98.064	0.477
724.000	437.393	79.998	19.996	100.629	18.574	100.658	0.545
726.000	438.380	79.998	19.996	100.628	18.543	102.772	0.541
728.000	439.374	80.000	19.996	100.626	18.511	104.993	0.526
730.000	440.355	80.000	19.996	100.623	18.477	107.336	0.500
732.001	441.373	79.998	19.995	100.619	18.443	109.683	0.518
734.000	442.368	80.009	20.000	100.619	18.406	112.208	0.504
736.000	443.368	79.998	19.998	100.613	18.370	114.699	0.499
738.000	444.375	80.000	19.997	100.600	18.340	116.738	0.492
740.000	445.394	79.999	19.997	100.593	18.308	118.989	0.555
742.000	446.364	79.999	19.997	100.590	18.276	121.189	0.522
744.000	447.379	80.000	19.997	100.584	18.240	123.655	0.505
746.000	448.376	80.000	19.997	100.558	18.210	125.734	0.518
748.000	449.358	80.001	19.997	100.564	18.179	127.900	0.486
750.000	450.322	80.000	19.996	100.563	18.148	129.947	0.487
752.000	451.354	79.999	19.997	100.555	18.120	131.890	0.510
754.000	452.338	79.998	19.998	100.550	18.098	133.404	0.499
756.000	453.336	79.999	19.997	100.548	18.070	135.335	0.509
758.000	454.304	79.997	19.997	100.546	18.050	136.750	0.482
760.000	455.300	79.997	19.997	100.516	18.031	138.079	0.474
762.000	456.314	79.996	19.997	100.492	18.012	139.382	0.505
764.000	457.288	79.997	19.996	100.521	17.997	140.399	0.493
766.000	458.279	79.998	19.996	100.516	17.984	141.286	0.510
768.000	459.342	79.997	19.996	100.518	17.975	141.863	0.520
770.000	460.286	79.998	19.995	100.515	17.970	142.195	0.505
772.000	461.348	79.997	19.996	100.512	17.969	142.280	0.537
774.000	462.303	79.997	19.996	100.501	17.970	142.188	0.518
776.000	463.332	79.998	19.996	100.494	17.974	141.940	0.495
778.000	464.362	79.998	19.996	100.485	17.986	141.092	0.514
780.000	465.334	79.999	19.996	100.484	18.000	140.115	0.497
782.000	466.313	79.998	19.996	100.476	18.020	138.774	0.473
784.000	467.316	79.997	19.996	100.473	18.046	136.992	0.488
786.000	468.354	79.997	19.995	100.474	18.080	134.608	0.527
788.000	469.357	79.999	19.996	100.472	18.119	131.980	0.486
790.000	470.364	79.996	19.996	100.471	18.163	128.903	0.494
792.000	471.347	79.998	19.996	100.474	18.219	125.028	0.482
794.000	472.370	79.998	19.997	100.471	18.279	120.895	0.493
796.000	473.432	79.999	19.996	100.472	18.346	116.316	0.540
798.000	474.435	80.000	19.996	100.484	18.418	111.307	0.506
800.000	475.500	80.000	19.995	100.492	18.499	105.741	0.530
802.000	476.507	80.000	19.996	100.498	18.586	99.764	0.513
804.000	477.524	80.000	19.996	100.508	18.677	93.476	0.496
806.000	478.576	80.000	19.996	100.510	18.771	87.009	0.532
808.000	479.635	79.999	19.997	100.514	18.872	79.997	0.512
810.001	480.677	79.999	19.996	100.514	18.980	72.567	0.535
812.000	481.705	79.998	19.995	100.521	19.094	64.734	0.520
814.000	482.723	79.998	19.996	100.546	19.211	56.617	0.517
816.000	483.775	79.999	19.997	100.551	19.327	48.643	0.510
818.000	484.828	79.998	19.997	100.563	19.444	40.513	0.500
820.000	485.878	79.999	19.996	100.593	19.562	32.381	0.521
822.000	486.935	79.998	19.996	100.623	19.663	25.350	0.557
824.000	487.949	80.000	19.996	100.659	19.748	19.533	0.531
826.000	489.011	79.999	19.995	100.683	19.821	14.460	0.539
828.000	490.058	80.000	19.996	100.706	19.880	10.371	0.552
830.000	491.054	79.999	19.995	100.707	19.925	7.220	0.481
832.000	492.120	79.998	19.996	100.723	19.963	4.595	0.535
834.000	493.214	79.998	19.996	100.741	19.990	2.730	0.542
836.000	494.289	79.997	19.996	100.743	20.010	1.374	0.517
838.000	495.322	79.998	19.996	100.744	20.024	0.395	0.528
840.000	496.405	79.997	19.996	100.743	20.033	-0.254	0.550
842.000	497.409	79.994	19.996	100.743	20.039	-0.627	0.525
844.000	498.457	79.997	19.998	100.744	20.050	-1.414	0.520
846.000	499.500	79.997	19.997	100.743	20.049	-1.320	0.538
848.000	500.557	79.998	19.997	100.744	20.053	-1.583	0.547
850.000	501.601	79.998	19.996	100.744	20.051	-1.487	0.550
852.000	502.634	79.998	19.996	100.743	20.059	-2.016	0.509
854.000	503.678	79.997	19.997	100.747	20.060	-2.067	0.543
856.000	504.731	80.000	19.997	100.747	20.057	-1.918	0.520
858.000	505.760	79.998	19.996	100.746	20.065	-2.472	0.510
860.000	506.803	79.999	19.996	100.745	20.061	-2.205	0.519
862.000	507.805	79.997	19.996	100.746	20.062	-2.240	0.501
864.000	508.851	79.997	19.996	100.753	20.063	-2.310	0.513
866.000	509.943	79.998	19.998	100.747	20.065	-2.425	0.554
868.000	510.986	79.998	19.996	100.746	20.067	-2.606	0.515
870.000	511.992	79.996	19.997	100.749	20.064	-2.408	0.511
872.000	513.049	79.997	19.997	100.751	20.065	-2.472	0.528
874.001	514.064	79.999	19.997	100.748	20.065	-2.429	0.518
876.000	515.141	79.997	19.996	100.749	20.066	-2.504	0.551
878.000	516.202	79.999	19.997	100.756	20.062	-2.255	0.538
880.000	517.263	79.998	19.996	100.756	20.065	-2.431	0.525
882.000	518.315	79.998	19.995	100.752	20.066	-2.504	0.547
884.000	519.326	79.999	19.996	100.756	20.066	-2.525	0.560
886.000	520.354	79.998	19.996	100.751	20.065	-2.468	0.491
888.000	521.416	79.998	19.996	100.752	20.066	-2.543	0.529
890.000	522.407	79.996	19.995	100.753	20.069	-2.758	0.476
892.000	523.456	80.000	19.995	100.754	20.070	-2.786	0.499
894.000	524.496	79.997	19.996	100.751	20.071	-2.890	0.544
896.000	525.566	79.997	19.995	100.754	20.070	-2.779	0.516
898.000	526.609	79.998	19.996	100.750	20.071	-2.835	0.519
900.000	527.663	79.998	19.997	100.749	20.068	-2.653	0.533
902.000	528.681	80.000	19.996	100.751	20.069	-2.713	0.547
904.000	529.692	80.001	19.997	100.749	20.069	-2.719	0.501
906.000	530.737	80.000	19.996	100.746	20.069	-2.700	0.501
908.000	531.811	80.000	19.996	100.747	20.068	-2.632	0.523
910.000	532.848	79.999	19.996	100.745	20.066	-2.498	0.544
912.000	533.834	79.998	19.997	100.743	20.065	-2.446	0.508
914.000	534.894	79.996	19.997	100.759	20.068	-2.658	0.536
916.000	535.952	79.996	19.996	100.762	20.067	-2.572	0.523
918.000	536.989	79.997	19.997	100.746	20.069	-2.726	0.498
920.000	538.030	79.997	19.998	100.747	20.070	-2.767	0.533
922.000	539.039	79.996	19.997	100.749	20.073	-2.986	0.538
924.000	540.090	79.998	19.998	100.748	20.073	-3.018	0.505
926.000	541.107	79.997	19.997	100.743	20.073	-3.033	0.497
928.000	542.203	79.997	19.997	100.744	20.070	-2.828	0.537
930.000	543.183	79.998	19.997	100.747	20.071	-2.854	0.489
932.000	544.200	79.997	19.997	100.744	20.071	-2.834	0.516
934.000	545.243	79.999	19.997	100.748	20.071	-2.854	0.487
936.000	546.303	79.999	19.996	100.747	20.070	-2.775	0.521
938.000	547.294	79.998	19.996	100.746	20.069	-2.734	0.505
940.000	548.324	79.997	19.996	100.748	20.068	-2.664	0.518
942.000	549.336	79.998	19.997	100.751	20.072	-2.902	0.500
944.000	550.341	79.997	19.996	100.756	20.069	-2.751	0.507
946.001	551.398	79.999	19.995	100.758	20.074	-3.058	0.494
948.000	552.385	79.997	19.996	100.761	20.069	-2.724	0.491
950.000	553.389	79.997	19.995	100.762	20.068	-2.675	0.502
952.000	554.407	79.998	19.996	100.764	20.073	-2.995	0.504
954.000	555.397	79.999	19.996	100.755	20.070	-2.803	0.503
956.000	556.413	79.999	19.996	100.752	20.070	-2.805	0.504
958.000	557.395	79.998	19.996	100.751	20.069	-2.747	0.470
960.000	558.412	80.000	19.995	100.749	20.074	-3.086	0.516
962.000	559.454	79.997	19.996	100.748	20.070	-2.819	0.493
964.000	560.427	79.998	19.996	100.750	20.073	-3.001	0.503
966.000	561.416	79.998	19.995	100.748	20.071	-2.879	0.530
968.000	562.404	79.997	19.995	100.756	20.076	-3.182	0.498
970.000	563.391	80.000	19.995	100.758	20.074	-3.101	0.491
972.000	564.404	79.998	19.996	100.753	20.075	-3.142	0.505
974.000	565.381	79.997	19.995	100.757	20.077	-3.270	0.503
976.000	566.372	79.999	19.996	100.748	20.075	-3.127	0.459
978.000	567.368	80.001	19.996	100.749	20.073	-3.031	0.491
980.000	568.350	80.002	19.995	100.750	20.076	-3.193	0.473
982.000	569.372	80.002	19.996	100.752	20.076	-3.184	0.492
984.000	570.339	79.999	19.996	100.749	20.075	-3.144	0.489
986.000	571.333	80.001	19.995	100.747	20.073	-2.976	0.516
988.000	572.285	79.999	19.997	100.745	20.075	-3.159	0.473
990.000	573.280	79.999	19.996	100.748	20.078	-3.335	0.479
992.000	574.322	79.997	19.997	100.746	20.078	-3.331	0.497
994.000	575.312	79.997	19.996	100.752	20.075	-3.107	0.479
996.000	576.334	79.997	19.997	100.751	20.077	-3.305	0.529
998.000	577.283	79.996	19.997	100.752	20.080	-3.491	0.502
1000.000	578.251	79.999	19.996	100.765	20.075	-3.132	0.479
1002.000	579.273	79.997	19.997	100.765	20.075	-3.132	0.503
1004.000	580.267	79.997	19.997	100.759	20.074	-3.083	0.500
1006.001	581.235	79.998	19.997	100.771	20.074	-3.083	0.482
1008.000	582.242	79.996	19.996	100.778	20.075	-3.128	0.495
1010.000	583.241	79.998	19.998	100.778	20.077	-3.247	0.491
1012.000	584.219	79.996	19.997	100.782	20.077	-3.247	0.535
1014.000	585.196	79.996	19.997	100.780	20.075	-3.173	0.504
1016.000	586.218	79.998	19.997	100.778	20.073	-3.015	0.500
1018.000	587.228	79.995	19.998	100.780	20.075	-3.121	0.503
1020.000	588.230	79.997	19.997	100.779	20.072	-2.940	0.497
1022.000	589.268	79.996	19.997	100.774	20.077	-3.301	0.525
1024.000	590.280	79.995	19.997	100.785	20.073	-2.989	0.502
1026.000	591.301	79.994	19.997	100.780	20.076	-3.181	0.505
1028.000	592.327	79.995	19.996	100.782	20.074	-3.055	0.491
1030.000	593.365	79.996	19.996	100.781	20.073	-2.979	0.520
1032.000	594.422	79.998	19.997	100.785	20.072	-2.902	0.541
1034.001	595.422	79.998	19.996	100.783	20.070	-2.829	0.502
1036.000	596.506	79.999	19.995	100.781	20.072	-2.902	0.527
1038.000	597.501	79.999	19.995	100.780	20.069	-2.735	0.485
1040.000	598.566	79.998	19.996	100.781	20.072	-2.910	0.517
1042.000	599.576	80.000	19.996	100.783	20.073	-3.031	0.471
1044.000	600.660	79.998	19.996	100.783	20.072	-2.949	0.548
1046.000	601.725	79.999	19.996	100.783	20.073	-2.989	0.500
1048.000	602.810	79.998	19.996	100.788	20.072	-2.936	0.552
1050.000	603.937	79.996	19.996	100.796	20.072	-2.948	0.560
1052.000	605.015	79.998	19.996	100.796	20.072	-2.908	0.527
1054.001	606.107	79.999	19.996	100.791	20.072	-2.936	0.544
1056.000	607.249	79.997	19.996	100.793	20.077	-3.294	0.550
1058.000	608.319	79.999	19.997	100.786	20.076	-3.195	0.545
1060.001	609.419	79.999	19.996	100.793	20.072	-2.918	0.539
1062.000	610.551	79.999	19.996	100.795	20.073	-3.012	0.538
1064.000	611.637	80.000	19.997	100.793	20.072	-2.937	0.562
1066.000	612.743	79.999	19.995	100.792	20.073	-3.033	0.561
1068.000	613.835	79.999	19.996	100.799	20.070	-2.822	0.569
1070.000	614.957	79.998	19.996	100.809	20.072	-2.947	0.569
1072.000	616.019	79.998	19.998	100.810	20.072	-2.903	0.544
1074.000	617.128	79.999	19.997	100.817	20.072	-2.954	0.538
1076.000	618.205	79.997	19.996	100.820	20.070	-2.786	0.558
1078.000	619.257	79.995	19.996	100.820	20.071	-2.854	0.517
1080.000	620.353	79.996	19.997	100.827	20.067	-2.611	0.536
1082.001	621.446	79.995	19.996	100.825	20.066	-2.549	0.548
1084.000	622.511	79.996	19.997	100.824	20.071	-2.879	0.524
1086.000	623.606	79.997	19.998	100.824	20.066	-2.515	0.584
1088.000	624.666	79.997	19.997	100.823	20.069	-2.728	0.540
1090.000	625.724	79.998	19.998	100.826	20.071	-2.856	0.529
1092.000	626.781	79.996	19.996	100.826	20.072	-2.954	0.517
1094.000	627.875	79.998	19.996	100.824	20.070	-2.815	0.521
1096.001	628.910	79.998	19.996	100.823	20.067	-2.587	0.497
1098.001	629.979	79.996	19.996	100.823	20.069	-2.704	0.532
1100.000	631.065	79.996	19.997	100.823	20.070	-2.777	0.564
1102.001	632.120	79.996	19.997	100.828	20.068	-2.638	0.522
1104.000	633.158	79.995	19.997	100.826	20.068	-2.668	0.513
1106.000	634.272	79.995	19.997	100.823	20.072	-2.926	0.544
1108.000	635.292	79.996	19.997	100.823	20.070	-2.770	0.529
1110.000	636.354	79.996	19.998	100.821	20.071	-2.849	0.537
1112.000	637.395	79.997	19.998	100.823	20.066	-2.553	0.504
1114.000	638.394	79.998	19.996	100.822	20.067	-2.585	0.506
1116.000	639.454	79.999	19.997	100.822	20.066	-2.517	0.500
1118.000	640.495	79.998	19.997	100.821	20.066	-2.487	0.509
1120.000	641.530	79.999	19.997	100.838	20.064	-2.401	0.523
1122.000	642.569	79.999	19.996	100.834	20.066	-2.527	0.540
1124.000	643.564	79.998	19.996	100.829	20.064	-2.390	0.515
1126.000	644.560	79.998	19.995	100.828	20.063	-2.286	0.498
1128.000	645.574	80.000	19.995	100.826	20.067	-2.584	0.472
1130.000	646.638	79.997	19.996	100.835	20.066	-2.505	0.521
1132.001	647.599	79.999	19.996	100.852	20.068	-2.648	0.504
1134.000	648.594	79.999	19.997	100.860	20.065	-2.433	0.466
1136.000	649.661	79.996	19.996	100.856	20.063	-2.290	0.534
1138.000	650.711	79.999	19.995	100.857	20.063	-2.341	0.534
1140.000	651.721	80.000	19.996	100.858	20.063	-2.330	0.510
1142.001	652.747	80.000	19.995	100.860	20.062	-2.241	0.510
1144.000	653.805	79.999	19.996	100.863	20.060	-2.126	0.536
1146.000	654.773	79.998	19.995	100.856	20.062	-2.230	0.500
1148.000	655.849	79.999	19.995	100.863	20.059	-2.022	0.500
1150.000	656.830	79.997	19.996	100.864	20.063	-2.299	0.503
1152.001	657.848	79.997	19.995	100.865	20.062	-2.247	0.505
1154.000	658.897	79.998	19.995	100.866	20.060	-2.124	0.529
1156.000	659.903	79.998	19.995	100.864	20.059	-2.022	0.491
1158.001	660.899	79.996	19.996	100.865	20.061	-2.204	0.499
1160.000	661.910	79.998	19.995	100.865	20.060	-2.089	0.507
1162.001	662.924	79.998	19.996	100.865	20.057	-1.863	0.510
1164.000	663.904	79.999	19.996	100.868	20.061	-2.196	0.502
1166.000	664.954	79.998	19.996	100.871	20.058	-1.934	0.515
1168.001	665.941	79.997	19.996	100.874	20.060	-2.076	0.498
1170.000	666.975	79.999	19.998	100.887	20.058	-1.976	0.519
1172.000	667.947	79.997	19.996	100.886	20.055	-1.761	0.494
1174.000	668.917	79.997	19.996	100.889	20.059	-2.059	0.454
1176.000	669.959	79.995	19.995	100.896	20.060	-2.080	0.485
1178.001	670.979	79.995	19.997	100.893	20.060	-2.070	0.505
1180.000	671.983	79.997	19.996	100.901	20.055	-1.740	0.480
1182.000	673.006	79.997	19.998	100.899	20.056	-1.808	0.514
1184.000	674.009	79.996	19.998	100.897	20.060	-2.086	0.524
1186.000	675.028	79.996	19.996	100.897	20.055	-1.729	0.504
1188.000	676.092	79.999	19.997	100.906	20.053	-1.614	0.533
1190.000	677.112	79.996	19.997	100.902	20.052	-1.535	0.528
1192.000	678.144	79.999	19.996	100.903	20.057	-1.876	0.517
1194.000	679.137	79.998	19.997	100.911	20.052	-1.533	0.489
1196.000	680.174	79.997	19.997	100.919	20.053	-1.641	0.537
1198.000	681.176	79.999	19.998	100.923	20.053	-1.654	0.530
1200.000	682.202	79.996	19.998	100.913	20.051	-1.481	0.502
1202.000	683.217	79.999	19.996	100.916	20.052	-1.537	0.505
1204.000	684.246	79.999	19.996	100.910	20.045	-1.088	0.494
1206.001	685.252	79.999	19.996	100.926	20.049	-1.313	0.545
1208.000	686.294	79.999	19.997	100.940	20.049	-1.334	0.514
1210.001	687.289	79.999	19.995	100.941	20.049	-1.356	0.496
1212.001	688.344	80.001	19.996	100.943	20.049	-1.315	0.547
1214.000	689.313	79.999	19.995	100.941	20.045	-1.081	0.494
1216.000	690.328	79.998	19.996	100.947	20.045	-1.034	0.485
1218.000	691.377	79.998	19.996	100.949	20.045	-1.051	0.529
1220.000	692.381	80.001	19.996	100.947	20.043	-0.934	0.504
1222.000	693.413	80.000	19.996	100.946	20.044	-1.030	0.522
1224.000	694.445	80.000	19.996	100.963	20.044	-0.970	0.540
1226.000	695.450	80.000	19.998	100.954	20.042	-0.887	0.514
1228.000	696.461	79.997	19.995	100.956	20.043	-0.951	0.503
1230.000	697.514	79.997	19.997	100.954	20.040	-0.726	0.535
1232.000	698.554	79.997	19.997	100.964	20.039	-0.676	0.552
1234.000	699.525	79.996	19.996	100.978	20.044	-0.998	0.512
1236.001	700.538	79.998	19.997	100.978	20.040	-0.696	0.499
1238.000	701.589	79.998	19.996	100.977	20.039	-0.659	0.519
1240.000	702.596	79.996	19.995	100.978	20.039	-0.659	0.505
1242.000	703.622	79.999	19.995	100.980	20.039	-0.636	0.511
1244.000	704.661	80.000	19.997	100.979	20.041	-0.789	0.525
1246.001	705.684	79.998	19.996	100.981	20.037	-0.491	0.513
1248.000	706.665	79.997	19.996	100.988	20.040	-0.698	0.531
1250.000	707.691	80.000	19.997	100.990	20.039	-0.651	0.475
1252.001	708.712	79.999	19.997	101.005	20.039	-0.664	0.504
1254.000	709.772	79.993	19.996	101.001	20.036	-0.468	0.553
1256.001	710.747	79.999	19.995	100.991	20.037	-0.521	0.524
1258.000	711.758	80.000	19.997	101.004	20.036	-0.466	0.536
1260.000	712.768	79.997	19.996	101.012	20.043	-0.910	0.503
1262.000	713.798	79.997	19.997	101.009	20.042	-0.838	0.522
1264.000	714.833	79.997	19.996	101.013	20.040	-0.712	0.513
1266.000	715.895	79.999	19.996	101.012	20.039	-0.644	0.537
1268.001	716.883	79.998	19.996	101.017	20.039	-0.645	0.500
1270.000	717.901	79.996	19.996	101.017	20.040	-0.695	0.491
1272.000	718.909	79.998	19.997	101.018	20.037	-0.527	0.525
1274.000	719.957	79.999	19.996	101.020	20.039	-0.632	0.530
1276.001	720.966	79.999	19.996	101.010	20.038	-0.610	0.515
1278.000	721.993	79.997	19.996	100.992	20.040	-0.734	0.539
1280.000	722.978	79.997	19.997	101.000	20.042	-0.826	0.507
1282.000	723.972	79.994	19.997	101.002	20.043	-0.902	0.474
1284.001	725.022	79.996	19.998	101.009	20.042	-0.845	0.548
1286.000	725.991	79.997	19.997	100.999	20.041	-0.760	0.520
1288.000	726.990	79.997	19.997	100.983	20.047	-1.173	0.490
1290.000	728.021	79.996	19.998	100.977	20.043	-0.939	0.524
1292.000	729.042	80.000	19.997	100.972	20.046	-1.099	0.526
1294.000	730.085	79.997	19.997	100.961	20.052	-1.524	0.535
1296.000	731.089	80.001	19.997	100.942	20.058	-1.933	0.523
1298.000	732.107	80.000	19.996	100.920	20.056	-1.850	0.501
1300.000	733.158	80.002	19.995	100.887	20.059	-2.023	0.530
1302.000	734.213	79.998	19.996	100.856	20.067	-2.599	0.548
1304.000	735.157	80.000	19.995	100.825	20.070	-2.780	0.484
1306.000	736.198	79.999	19.996	100.819	20.070	-2.793	0.473
1308.000	737.246	79.996	19.997	100.815	20.073	-3.015	0.515
1310.000	738.306	79.996	19.996	100.813	20.076	-3.220	0.540
1312.000	739.298	79.998	19.996	100.798	20.075	-3.162	0.473
1314.001	740.332	79.998	19.996	100.784	20.078	-3.326	0.504
1316.000	741.361	79.996	19.997	100.783	20.074	-3.078	0.496
1318.000	742.394	79.995	19.996	100.782	20.077	-3.248	0.510
1320.000	743.397	79.997	19.997	100.777	20.079	-3.384	0.512
1320.500	743.693	79.997	19.998	100.775	20.080	-3.478	0.514