File: 01_Data/Polyolefin_Carpet_Low_Pile/MCC/Polyolefin_Carpet_Low_Pile_MCC_30K_min_211007_R1.txt
Sample ID:	C:\MCC\MCC Cal\Test\Carpet_Polyolefin_LowPile_211007_R1.txt
Sample Weight (mg):	4.38
Heating Rate (C/s):	0.5
Combustor Temp (C):	900
N2 Flow Rate (cc/min):	80
O2 Flow Rate (cc/min):	20
Calibration File:	C:\MCC\MCC Cal\Coeff1 JN10440_30_210304.txt.txt
T Correction Coefficients:	0	1.024463	0
Time Shift (s):	14
*
Time (s)	Temperature (C)	N2 flow rate (cc/min)	O2 flow rate (cc/min)	Flow Rate (cc/min)	Oxygen (%)	HRR (W/g)	Heating rate (C/s)
0.000	106.250	79.997	19.997	100.664	20.267	0.404	0.003
2.000	106.196	79.997	19.996	100.680	20.267	0.420	-0.010
4.000	106.215	79.997	19.998	100.681	20.266	0.492	0.004
6.000	106.246	79.998	19.998	100.688	20.270	0.211	0.028
8.000	106.238	79.997	19.996	100.676	20.270	0.240	0.010
9.999	106.209	79.996	19.996	100.684	20.268	0.358	0.020
11.999	106.201	79.997	19.996	100.684	20.268	0.326	0.000
13.999	106.178	79.995	19.995	100.697	20.269	0.293	-0.013
16.000	106.201	79.996	19.996	100.701	20.269	0.309	-0.007
18.000	106.243	79.996	19.997	100.708	20.267	0.399	0.011
20.000	106.243	79.997	19.997	100.733	20.264	0.614	0.025
22.000	106.321	79.994	19.997	100.739	20.261	0.835	0.042
24.000	106.339	79.997	19.997	100.747	20.256	1.180	0.034
26.000	106.402	79.997	19.996	100.771	20.256	1.247	0.025
28.000	106.491	79.997	19.996	100.774	20.251	1.590	0.052
30.000	106.594	79.998	19.995	100.768	20.253	1.441	0.062
32.000	106.711	79.998	19.996	100.786	20.248	1.786	0.049
33.999	106.822	79.998	19.995	100.787	20.251	1.563	0.070
36.000	106.919	79.997	19.995	100.786	20.247	1.894	0.045
37.999	107.076	79.998	19.995	100.827	20.243	2.182	0.065
40.000	107.275	79.997	19.996	100.846	20.239	2.430	0.094
42.001	107.430	79.998	19.996	100.860	20.240	2.399	0.071
43.999	107.711	79.998	19.996	100.877	20.231	3.017	0.110
45.999	107.975	79.998	19.996	100.872	20.233	2.845	0.117
48.000	108.227	79.997	19.996	100.883	20.229	3.158	0.134
50.000	108.608	80.000	19.997	100.892	20.227	3.324	0.201
51.999	108.931	79.999	19.995	100.895	20.223	3.581	0.183
53.999	109.330	79.999	19.994	100.906	20.222	3.634	0.191
55.999	109.712	79.999	19.996	100.899	20.224	3.513	0.202
57.999	110.118	80.000	19.995	100.894	20.223	3.579	0.186
59.999	110.557	79.999	19.996	100.899	20.221	3.748	0.198
61.999	111.065	79.998	19.995	100.895	20.221	3.709	0.230
63.999	111.564	79.997	19.996	100.918	20.221	3.746	0.256
65.999	112.043	79.996	19.996	100.907	20.224	3.533	0.229
67.999	112.563	79.996	19.995	100.906	20.224	3.539	0.262
69.999	113.132	79.996	19.995	100.914	20.222	3.631	0.277
71.999	113.732	79.997	19.995	100.928	20.221	3.741	0.274
73.999	114.321	79.997	19.995	100.935	20.220	3.803	0.310
75.999	114.943	79.997	19.996	100.932	20.223	3.600	0.287
77.999	115.539	79.997	19.996	100.932	20.220	3.788	0.290
79.999	116.188	79.997	19.995	100.936	20.218	3.944	0.310
81.999	116.852	79.998	19.996	100.935	20.221	3.735	0.303
83.999	117.544	79.998	19.995	100.936	20.220	3.829	0.354
85.999	118.225	79.996	19.997	100.937	20.220	3.831	0.342
88.000	118.898	79.996	19.997	100.937	20.219	3.841	0.339
89.999	119.676	79.997	19.996	100.935	20.216	4.126	0.393
91.999	120.368	79.997	19.995	100.931	20.215	4.175	0.355
93.999	121.132	79.996	19.996	100.940	20.214	4.208	0.406
95.999	121.892	79.997	19.995	100.940	20.215	4.171	0.385
97.999	122.649	79.997	19.996	100.939	20.218	3.952	0.352
99.999	123.413	79.996	19.996	100.938	20.217	3.993	0.362
102.000	124.249	79.997	19.995	100.935	20.218	3.940	0.395
103.999	124.996	79.997	19.997	100.934	20.215	4.181	0.359
105.999	125.817	79.998	19.997	100.936	20.216	4.112	0.383
108.000	126.662	79.997	19.996	100.935	20.215	4.134	0.424
110.001	127.465	79.999	19.996	100.935	20.213	4.336	0.400
111.999	128.350	79.999	19.995	100.934	20.218	3.977	0.432
113.999	129.140	79.999	19.997	100.933	20.221	3.729	0.417
115.999	130.052	79.998	19.997	100.937	20.215	4.191	0.453
117.999	130.893	79.998	19.997	100.934	20.214	4.220	0.437
119.999	131.759	79.999	19.996	100.934	20.216	4.109	0.457
122.000	132.623	80.001	19.995	100.935	20.214	4.248	0.435
123.999	133.535	79.999	19.996	100.937	20.214	4.259	0.465
126.000	134.421	79.998	19.996	100.941	20.217	3.995	0.439
127.999	135.327	80.000	19.995	100.935	20.217	4.036	0.454
130.000	136.244	79.999	19.995	100.936	20.216	4.068	0.449
132.000	137.198	79.998	19.996	100.937	20.212	4.365	0.443
134.000	138.071	80.000	19.994	100.937	20.221	3.745	0.440
136.000	139.016	79.999	19.995	100.936	20.222	3.631	0.488
138.000	139.919	79.998	19.995	100.940	20.209	4.571	0.456
140.000	140.876	79.998	19.995	100.938	20.209	4.561	0.456
142.000	141.829	79.996	19.996	100.941	20.208	4.651	0.454
144.000	142.813	79.997	19.996	100.937	20.211	4.426	0.525
146.000	143.739	79.997	19.995	100.939	20.211	4.483	0.450
148.000	144.759	79.996	19.996	100.939	20.214	4.212	0.512
150.000	145.730	79.997	19.996	100.941	20.212	4.391	0.489
152.000	146.674	79.997	19.996	100.940	20.211	4.418	0.473
154.000	147.649	79.996	19.995	100.938	20.212	4.343	0.469
156.000	148.720	79.997	19.995	100.939	20.214	4.261	0.547
158.000	149.669	79.997	19.995	100.939	20.214	4.261	0.507
160.000	150.678	79.997	19.994	100.939	20.215	4.193	0.521
162.000	151.671	79.997	19.995	100.938	20.211	4.449	0.505
164.000	152.665	79.997	19.995	100.936	20.213	4.328	0.519
166.000	153.640	79.998	19.996	100.931	20.213	4.294	0.475
168.000	154.645	79.996	19.997	100.933	20.217	4.036	0.501
170.000	155.645	79.998	19.997	100.931	20.218	3.978	0.508
172.001	156.657	79.996	19.995	100.936	20.215	4.143	0.507
174.000	157.694	79.998	19.998	100.933	20.215	4.175	0.528
176.000	158.663	79.996	19.997	100.931	20.216	4.120	0.481
178.000	159.703	79.997	19.996	100.929	20.214	4.211	0.500
180.000	160.673	79.998	19.998	100.919	20.216	4.107	0.506
182.000	161.741	79.998	19.995	100.904	20.214	4.246	0.547
184.000	162.739	79.997	19.997	100.920	20.215	4.197	0.500
186.000	163.728	80.000	19.998	100.922	20.215	4.188	0.507
188.000	164.769	79.999	19.996	100.910	20.214	4.242	0.535
190.000	165.775	80.000	19.996	100.899	20.214	4.210	0.511
192.000	166.796	79.998	19.996	100.906	20.213	4.279	0.498
194.000	167.763	79.997	19.996	100.897	20.216	4.113	0.482
196.000	168.786	79.997	19.997	100.905	20.213	4.307	0.500
198.000	169.798	79.996	19.997	100.903	20.215	4.138	0.526
200.000	170.824	79.996	19.997	100.914	20.217	4.039	0.515
202.000	171.795	79.997	19.996	100.906	20.219	3.845	0.501
204.000	172.801	79.996	19.998	100.906	20.222	3.630	0.497
206.000	173.793	79.998	19.995	100.908	20.222	3.643	0.482
208.000	174.837	79.998	19.996	100.898	20.224	3.530	0.525
210.000	175.841	79.999	19.996	100.901	20.225	3.442	0.511
212.000	176.831	79.998	19.996	100.901	20.224	3.536	0.503
214.000	177.790	79.999	19.995	100.901	20.223	3.594	0.500
216.000	178.846	80.000	19.995	100.892	20.223	3.596	0.528
218.000	179.844	79.999	19.995	100.899	20.224	3.518	0.513
220.000	180.864	79.996	19.996	100.900	20.221	3.708	0.520
222.000	181.830	79.996	19.996	100.900	20.222	3.680	0.501
224.000	182.877	79.998	19.996	100.898	20.219	3.851	0.501
226.000	183.839	79.998	19.996	100.897	20.222	3.678	0.497
228.000	184.841	79.998	19.996	100.897	20.223	3.590	0.526
230.000	185.836	79.997	19.995	100.895	20.223	3.604	0.499
232.000	186.812	79.997	19.996	100.893	20.224	3.488	0.498
234.000	187.807	79.997	19.995	100.893	20.225	3.459	0.467
236.000	188.770	79.998	19.996	100.895	20.223	3.586	0.473
238.000	189.778	79.998	19.995	100.892	20.224	3.486	0.473
240.000	190.772	79.997	19.997	100.893	20.225	3.412	0.471
242.000	191.735	79.999	19.995	100.887	20.226	3.354	0.478
244.000	192.724	79.997	19.996	100.890	20.226	3.402	0.492
246.000	193.682	79.998	19.995	100.894	20.224	3.512	0.487
248.000	194.686	79.999	19.994	100.888	20.228	3.230	0.491
250.000	195.659	79.997	19.996	100.883	20.229	3.130	0.508
252.000	196.631	79.996	19.995	100.894	20.224	3.488	0.480
254.000	197.592	79.997	19.996	100.893	20.227	3.279	0.494
256.000	198.577	79.997	19.996	100.886	20.226	3.392	0.474
258.000	199.576	79.997	19.996	100.873	20.222	3.652	0.500
260.000	200.499	79.998	19.996	100.879	20.225	3.408	0.493
262.000	201.498	79.998	19.997	100.874	20.226	3.339	0.487
264.000	202.567	79.998	19.997	100.884	20.226	3.367	0.507
266.000	203.497	79.998	19.997	100.888	20.225	3.465	0.474
268.000	204.424	79.998	19.998	100.873	20.229	3.181	0.447
270.000	205.401	80.000	19.996	100.884	20.223	3.588	0.468
272.000	206.366	79.998	19.996	100.869	20.225	3.463	0.496
274.000	207.341	79.998	19.996	100.887	20.223	3.598	0.503
276.000	208.299	79.998	19.997	100.888	20.226	3.343	0.499
278.000	209.286	79.998	19.997	100.891	20.227	3.279	0.466
280.000	210.237	79.999	19.997	100.879	20.227	3.310	0.470
282.000	211.199	79.998	19.996	100.872	20.227	3.328	0.477
284.000	212.159	79.999	19.996	100.883	20.226	3.341	0.454
286.000	213.189	79.999	19.997	100.870	20.226	3.355	0.471
288.000	214.181	80.000	19.997	100.868	20.224	3.503	0.483
290.000	215.129	80.001	19.997	100.878	20.229	3.173	0.487
292.000	216.107	80.000	19.998	100.872	20.226	3.345	0.463
294.000	217.078	79.998	19.996	100.878	20.228	3.236	0.474
296.000	218.109	79.999	19.996	100.879	20.226	3.364	0.484
298.000	219.088	79.998	19.998	100.876	20.222	3.638	0.508
300.000	220.094	79.998	19.997	100.866	20.224	3.493	0.521
302.000	221.074	79.998	19.997	100.874	20.222	3.660	0.493
304.000	222.039	79.998	19.996	100.884	20.221	3.752	0.516
306.000	223.045	79.997	19.995	100.865	20.222	3.660	0.492
308.000	224.029	79.997	19.996	100.860	20.225	3.448	0.474
310.000	225.033	79.998	19.995	100.864	20.229	3.182	0.482
312.000	226.028	79.998	19.996	100.862	20.223	3.591	0.494
314.000	226.977	79.998	19.996	100.870	20.228	3.245	0.504
316.000	228.010	79.998	19.996	100.868	20.228	3.229	0.515
318.000	229.047	79.998	19.995	100.862	20.227	3.312	0.507
320.000	229.981	79.998	19.996	100.861	20.223	3.597	0.526
322.000	231.040	79.997	19.996	100.871	20.223	3.566	0.503
324.000	231.930	79.997	19.994	100.873	20.228	3.198	0.485
326.000	232.954	79.997	19.995	100.871	20.227	3.333	0.514
328.000	233.964	79.996	19.997	100.859	20.220	3.797	0.545
330.000	234.956	79.997	19.994	100.865	20.225	3.415	0.483
332.000	235.927	79.996	19.996	100.864	20.221	3.734	0.460
334.000	236.991	79.998	19.995	100.869	20.226	3.384	0.527
336.000	237.937	79.996	19.994	100.863	20.223	3.572	0.499
338.000	238.989	79.998	19.995	100.864	20.221	3.699	0.517
340.000	239.947	79.997	19.996	100.859	20.225	3.425	0.471
342.000	240.927	79.998	19.995	100.862	20.229	3.167	0.480
344.000	241.996	79.998	19.995	100.862	20.226	3.337	0.527
346.000	242.954	79.999	19.995	100.861	20.221	3.716	0.491
348.000	243.968	79.998	19.997	100.861	20.231	2.996	0.485
350.000	244.988	79.997	19.997	100.865	20.221	3.740	0.522
352.000	245.953	79.997	19.996	100.860	20.221	3.761	0.511
354.000	246.969	79.998	19.996	100.856	20.222	3.689	0.517
356.000	248.029	79.997	19.996	100.857	20.223	3.562	0.524
358.000	249.040	79.998	19.996	100.856	20.220	3.816	0.517
360.000	250.073	79.997	19.995	100.856	20.218	3.917	0.522
362.000	251.070	79.998	19.996	100.855	20.223	3.585	0.485
364.000	252.078	79.997	19.997	100.856	20.217	3.990	0.511
366.000	253.156	79.998	19.996	100.854	20.222	3.653	0.529
368.000	254.117	80.000	19.996	100.853	20.230	3.076	0.483
370.000	255.171	80.000	19.996	100.852	20.224	3.503	0.508
372.000	256.152	79.998	19.996	100.852	20.233	2.846	0.470
374.000	257.126	79.998	19.996	100.852	20.221	3.759	0.465
376.000	258.151	79.998	19.997	100.853	20.222	3.659	0.498
378.000	259.196	79.995	19.996	100.853	20.219	3.880	0.483
380.000	260.175	79.997	19.996	100.854	20.221	3.746	0.483
382.000	261.122	79.996	19.997	100.854	20.221	3.708	0.445
384.000	262.153	79.995	19.997	100.854	20.218	3.974	0.501
386.000	263.166	79.996	19.997	100.855	20.221	3.732	0.512
388.000	264.223	79.998	19.998	100.847	20.223	3.587	0.512
390.000	265.221	79.997	19.995	100.857	20.227	3.294	0.522
392.000	266.242	79.996	19.996	100.858	20.224	3.525	0.533
394.000	267.218	79.996	19.996	100.857	20.218	3.960	0.517
396.000	268.267	79.998	19.995	100.855	20.224	3.534	0.532
398.000	269.238	79.998	19.996	100.857	20.219	3.857	0.499
400.000	270.258	79.998	19.995	100.857	20.225	3.448	0.544
402.000	271.287	79.996	19.995	100.859	20.224	3.540	0.503
404.000	272.342	79.996	19.996	100.856	20.218	3.945	0.504
406.000	273.321	79.997	19.997	100.854	20.222	3.638	0.485
408.000	274.313	79.997	19.994	100.855	20.222	3.635	0.470
410.000	275.342	79.997	19.996	100.859	20.224	3.542	0.568
412.000	276.289	79.996	19.996	100.843	20.216	4.062	0.483
414.000	277.318	79.996	19.996	100.851	20.218	3.951	0.546
416.000	278.308	79.997	19.996	100.852	20.219	3.893	0.505
418.000	279.270	79.996	19.996	100.838	20.218	3.960	0.497
420.000	280.237	79.998	19.994	100.842	20.217	4.000	0.483
422.000	281.287	79.998	19.994	100.844	20.216	4.052	0.511
424.000	282.223	79.999	19.996	100.850	20.216	4.083	0.508
426.000	283.229	80.000	19.995	100.847	20.217	4.027	0.511
428.000	284.213	79.999	19.995	100.834	20.214	4.238	0.497
430.000	285.185	79.998	19.996	100.840	20.214	4.261	0.501
432.000	286.154	79.998	19.996	100.851	20.217	4.013	0.459
434.000	287.151	79.999	19.996	100.843	20.219	3.904	0.487
436.000	288.134	79.997	19.995	100.843	20.212	4.392	0.493
438.000	289.084	79.999	19.996	100.848	20.214	4.206	0.490
440.000	290.114	79.998	19.996	100.846	20.211	4.469	0.492
442.000	291.113	80.000	19.996	100.845	20.217	4.021	0.492
444.000	292.108	79.999	19.997	100.850	20.231	3.033	0.502
446.000	293.067	79.999	19.996	100.845	20.212	4.392	0.482
448.000	294.058	80.001	19.996	100.835	20.215	4.142	0.512
450.000	295.073	80.000	19.996	100.840	20.209	4.598	0.472
452.000	296.068	80.000	19.996	100.846	20.215	4.171	0.502
454.000	297.025	79.998	19.996	100.845	20.212	4.388	0.423
456.000	298.125	79.999	19.995	100.846	20.212	4.349	0.544
458.000	299.050	79.996	19.995	100.841	20.212	4.361	0.485
460.000	300.087	79.997	19.997	100.838	20.207	4.738	0.510
462.000	301.091	79.998	19.997	100.839	20.212	4.390	0.508
464.000	302.072	79.997	19.997	100.832	20.208	4.633	0.483
466.000	303.099	79.995	19.997	100.844	20.206	4.815	0.522
468.000	304.066	79.996	19.998	100.839	20.206	4.836	0.508
470.000	305.039	79.997	19.997	100.837	20.206	4.777	0.495
472.000	306.063	79.996	19.996	100.834	20.210	4.530	0.512
474.000	307.029	79.996	19.996	100.837	20.204	4.940	0.464
476.000	308.030	79.997	19.997	100.842	20.203	4.992	0.486
478.000	309.027	79.998	19.996	100.844	20.202	5.070	0.499
480.000	310.039	79.998	19.995	100.829	20.202	5.126	0.491
482.000	311.037	79.998	19.996	100.843	20.200	5.221	0.520
484.000	312.087	79.999	19.996	100.849	20.198	5.350	0.514
486.000	313.156	79.998	19.997	100.834	20.200	5.250	0.522
488.000	314.083	79.997	19.996	100.824	20.195	5.591	0.502
490.000	315.074	79.998	19.996	100.845	20.196	5.552	0.491
492.000	316.096	79.997	19.996	100.831	20.193	5.747	0.505
494.000	317.072	79.997	19.996	100.836	20.194	5.657	0.499
496.000	318.064	79.997	19.995	100.835	20.190	5.936	0.485
498.000	319.066	79.999	19.995	100.835	20.193	5.729	0.483
500.000	320.089	79.998	19.996	100.844	20.184	6.407	0.509
502.000	321.018	79.999	19.995	100.840	20.187	6.161	0.506
504.000	322.049	79.999	19.997	100.841	20.187	6.167	0.512
506.000	322.992	79.999	19.995	100.826	20.182	6.552	0.469
508.000	324.021	79.998	19.996	100.836	20.181	6.589	0.492
510.000	325.091	79.999	19.995	100.828	20.179	6.746	0.569
512.000	326.085	79.998	19.996	100.828	20.176	6.973	0.469
514.000	327.086	79.996	19.995	100.828	20.176	6.992	0.482
516.000	328.116	79.999	19.994	100.833	20.187	6.136	0.483
518.000	329.161	79.999	19.995	100.830	20.177	6.914	0.524
520.000	330.101	79.998	19.995	100.827	20.171	7.286	0.452
522.000	331.174	79.999	19.996	100.831	20.173	7.188	0.513
524.000	332.178	80.000	19.996	100.831	20.165	7.743	0.493
526.000	333.178	79.997	19.995	100.834	20.163	7.896	0.488
528.000	334.356	79.998	19.995	100.830	20.165	7.739	0.557
530.000	335.267	79.998	19.996	100.838	20.158	8.228	0.530
532.000	336.296	79.999	19.995	100.836	20.154	8.533	0.535
534.000	337.340	79.998	19.995	100.822	20.150	8.796	0.498
536.000	338.332	79.997	19.995	100.834	20.152	8.648	0.486
538.000	339.384	79.997	19.997	100.823	20.151	8.750	0.504
540.000	340.403	79.997	19.996	100.830	20.155	8.498	0.529
542.000	341.473	79.997	19.994	100.825	20.141	9.461	0.540
544.000	342.452	79.996	19.997	100.839	20.143	9.356	0.515
546.000	343.404	79.998	19.996	100.825	20.136	9.827	0.484
548.000	344.458	79.998	19.994	100.826	20.134	9.993	0.528
550.000	345.514	79.997	19.995	100.836	20.132	10.086	0.517
552.000	346.545	79.996	19.996	100.830	20.127	10.447	0.503
554.000	347.562	79.997	19.996	100.819	20.126	10.536	0.534
556.000	348.832	79.996	19.996	100.825	20.121	10.936	0.712
558.000	349.646	79.996	19.997	100.822	20.119	11.025	0.518
560.000	350.687	79.997	19.996	100.818	20.110	11.667	0.543
562.000	351.686	79.996	19.997	100.820	20.107	11.936	0.513
564.000	352.770	79.996	19.997	100.823	20.101	12.312	0.538
566.000	353.824	79.996	19.997	100.824	20.100	12.422	0.534
568.000	354.889	79.996	19.996	100.822	20.093	12.910	0.511
570.000	355.926	79.997	19.996	100.826	20.091	13.064	0.517
572.000	356.950	79.998	19.995	100.822	20.085	13.519	0.544
574.000	357.956	79.998	19.995	100.824	20.081	13.753	0.495
576.000	358.981	79.997	19.996	100.825	20.072	14.431	0.478
578.000	360.049	79.997	19.996	100.824	20.069	14.621	0.512
580.000	361.077	80.001	19.995	100.827	20.053	15.767	0.538
582.000	362.043	80.000	19.996	100.836	20.046	16.301	0.507
584.000	363.130	80.001	19.996	100.825	20.044	16.457	0.520
586.000	364.108	79.998	19.996	100.822	20.032	17.274	0.512
588.000	365.071	79.998	19.995	100.821	20.026	17.698	0.481
590.000	366.173	79.998	19.995	100.820	20.013	18.637	0.493
592.000	367.109	79.998	19.994	100.826	20.010	18.873	0.497
594.000	368.182	79.998	19.995	100.822	19.990	20.350	0.509
596.000	369.155	79.999	19.995	100.821	19.993	20.089	0.488
598.000	370.207	79.998	19.994	100.820	19.982	20.900	0.484
600.000	371.336	79.999	19.995	100.824	19.972	21.632	0.520
602.000	372.316	80.000	19.995	100.820	19.958	22.597	0.575
604.000	373.491	80.001	19.996	100.826	19.953	22.993	0.547
606.000	374.494	80.000	19.995	100.822	19.943	23.677	0.512
608.000	375.180	80.000	19.995	100.820	19.935	24.273	0.248
610.000	376.446	80.000	19.996	100.818	19.920	25.327	0.627
612.000	377.503	80.000	19.995	100.821	19.911	26.012	0.571
614.000	378.341	79.998	19.996	100.819	19.899	26.881	0.510
616.000	379.470	79.997	19.995	100.820	19.885	27.888	0.510
618.000	380.486	79.996	19.996	100.818	19.875	28.541	0.559
620.000	381.484	79.997	19.996	100.822	19.861	29.579	0.561
622.000	382.482	79.998	19.997	100.822	19.850	30.341	0.483
624.000	383.554	79.997	19.997	100.822	19.833	31.612	0.496
626.000	384.533	79.997	19.996	100.817	19.821	32.460	0.515
628.000	385.509	79.998	19.996	100.817	19.809	33.320	0.489
630.000	386.556	79.997	19.997	100.818	19.797	34.207	0.501
632.000	387.531	79.998	19.995	100.817	19.788	34.832	0.519
634.000	388.570	79.997	19.995	100.818	19.776	35.675	0.555
636.000	389.545	79.997	19.995	100.817	19.762	36.661	0.500
638.000	390.513	79.997	19.995	100.818	19.750	37.569	0.525
640.000	391.557	79.996	19.996	100.820	19.738	38.415	0.500
642.000	392.550	79.996	19.995	100.819	19.725	39.327	0.513
644.000	393.522	79.995	19.997	100.813	19.711	40.378	0.481
646.000	394.573	79.995	19.997	100.812	19.698	41.308	0.539
648.000	395.633	79.996	19.998	100.810	19.687	42.038	0.522
650.000	396.582	79.996	19.997	100.808	19.685	42.193	0.475
652.000	397.632	79.996	19.996	100.809	19.657	44.258	0.527
654.000	398.645	79.997	19.996	100.811	19.644	45.153	0.523
656.000	399.668	79.998	19.996	100.804	19.631	46.116	0.513
658.000	400.610	79.998	19.997	100.801	19.616	47.183	0.486
660.000	401.648	79.998	19.994	100.808	19.602	48.148	0.498
662.000	402.663	79.998	19.995	100.802	19.590	48.992	0.528
664.000	403.630	80.000	19.994	100.813	19.575	50.102	0.479
666.000	404.660	79.998	19.996	100.804	19.559	51.271	0.515
668.000	405.700	79.998	19.995	100.784	19.541	52.544	0.495
670.000	406.708	79.999	19.996	100.786	19.539	52.704	0.518
672.000	407.675	79.999	19.996	100.782	19.525	53.662	0.491
674.000	408.638	79.998	19.996	100.779	19.498	55.610	0.464
676.000	409.693	79.997	19.995	100.779	19.483	56.723	0.504
678.000	410.651	79.998	19.996	100.781	19.467	57.847	0.459
680.000	411.669	80.000	19.995	100.781	19.452	58.943	0.521
682.000	412.659	79.999	19.996	100.777	19.435	60.164	0.468
684.000	413.628	80.001	19.995	100.776	19.413	61.741	0.495
686.000	414.569	80.000	19.995	100.771	19.398	62.821	0.468
688.000	415.591	80.001	19.994	100.775	19.379	64.171	0.496
690.000	416.589	80.000	19.996	100.768	19.361	65.416	0.517
692.000	417.610	79.999	19.995	100.757	19.338	67.119	0.508
694.000	418.593	79.998	19.995	100.760	19.319	68.436	0.508
696.000	419.542	79.997	19.996	100.767	19.302	69.653	0.438
698.000	420.571	79.998	19.996	100.747	19.279	71.337	0.522
700.000	421.558	79.997	19.995	100.745	19.255	73.017	0.472
702.000	422.582	79.997	19.997	100.741	19.235	74.473	0.507
704.000	423.496	79.996	19.996	100.742	19.214	75.988	0.486
706.000	424.498	79.997	19.997	100.741	19.188	77.875	0.486
708.000	425.570	79.996	19.996	100.742	19.167	79.331	0.508
710.000	426.464	79.997	19.997	100.741	19.147	80.783	0.497
712.000	427.450	79.996	19.996	100.740	19.117	82.885	0.502
714.000	428.405	79.997	19.996	100.739	19.093	84.612	0.486
716.000	429.345	79.997	19.996	100.734	19.066	86.563	0.454
718.000	430.331	79.997	19.996	100.732	19.037	88.675	0.488
720.000	431.290	79.996	19.995	100.722	19.010	90.560	0.468
722.000	432.291	79.996	19.995	100.707	18.984	92.442	0.500
724.000	433.298	79.995	19.996	100.708	18.954	94.572	0.488
726.000	434.306	79.996	19.996	100.704	18.924	96.728	0.495
728.000	435.321	79.996	19.995	100.703	18.903	98.284	0.514
730.000	436.307	79.996	19.996	100.704	18.868	100.747	0.493
732.000	437.295	79.996	19.997	100.703	18.832	103.348	0.468
734.000	438.308	79.997	19.996	100.698	18.800	105.634	0.507
736.000	439.322	79.999	19.996	100.697	18.765	108.141	0.502
738.000	440.363	79.999	19.998	100.692	18.734	110.364	0.498
740.000	441.363	79.998	19.996	100.680	18.695	113.095	0.523
742.000	442.328	79.998	19.997	100.669	18.664	115.381	0.491
744.000	443.395	79.998	19.997	100.660	18.623	118.270	0.541
746.000	444.446	79.997	19.997	100.658	18.587	120.851	0.543
748.000	445.482	79.998	19.997	100.658	18.554	123.224	0.513
750.000	446.466	79.997	19.995	100.653	18.518	125.770	0.499
752.000	447.501	79.998	19.996	100.649	18.482	128.364	0.502
754.000	448.571	79.997	19.995	100.635	18.445	131.020	0.527
756.000	449.597	79.999	19.996	100.631	18.415	133.138	0.534
758.000	450.615	80.000	19.996	100.628	18.385	135.286	0.476
760.000	451.652	79.998	19.996	100.621	18.354	137.459	0.528
762.000	452.706	79.999	19.996	100.617	18.326	139.473	0.546
764.000	453.765	79.999	19.995	100.610	18.294	141.770	0.522
766.000	454.819	80.000	19.995	100.615	18.270	143.491	0.540
768.000	455.866	79.999	19.995	100.591	18.245	145.245	0.494
770.000	456.922	79.999	19.996	100.583	18.225	146.709	0.506
772.000	457.980	79.997	19.995	100.583	18.207	147.982	0.521
774.000	459.080	79.998	19.995	100.580	18.190	149.168	0.529
776.000	460.137	79.997	19.997	100.578	18.178	150.044	0.513
778.000	461.197	79.998	19.995	100.557	18.164	151.023	0.518
780.000	462.258	79.997	19.996	100.546	18.158	151.452	0.554
782.000	463.346	79.996	19.993	100.547	18.154	151.735	0.574
784.000	464.377	79.997	19.996	100.547	18.152	151.868	0.524
786.000	465.425	79.998	19.995	100.546	18.157	151.486	0.551
788.000	466.481	79.997	19.995	100.544	18.169	150.664	0.546
790.000	467.554	79.997	19.996	100.537	18.183	149.672	0.518
792.000	468.568	79.997	19.996	100.541	18.207	147.918	0.525
794.000	469.676	79.997	19.996	100.533	18.233	146.040	0.564
796.000	470.675	79.997	19.996	100.514	18.271	143.318	0.528
798.000	471.686	79.998	19.995	100.512	18.311	140.481	0.512
800.000	472.778	79.997	19.996	100.525	18.362	136.841	0.528
802.000	473.778	79.996	19.996	100.512	18.417	132.933	0.530
804.000	474.889	79.996	19.996	100.520	18.483	128.185	0.538
806.000	475.872	79.996	19.996	100.518	18.559	122.771	0.496
808.000	476.929	79.996	19.995	100.533	18.641	116.899	0.496
810.000	477.997	79.998	19.996	100.543	18.726	110.809	0.521
812.000	479.025	79.998	19.996	100.546	18.814	104.483	0.541
814.000	480.052	79.998	19.997	100.550	18.908	97.804	0.507
816.000	481.154	79.999	19.995	100.548	19.015	90.165	0.544
818.000	482.189	79.999	19.996	100.571	19.124	82.349	0.553
820.000	483.245	79.997	19.997	100.574	19.242	73.946	0.550
822.000	484.250	79.998	19.996	100.569	19.361	65.406	0.504
824.000	485.329	79.997	19.996	100.579	19.484	56.579	0.566
826.000	486.361	79.998	19.997	100.595	19.606	47.893	0.524
828.000	487.401	79.997	19.998	100.626	19.725	39.356	0.501
830.000	488.429	79.999	19.995	100.661	19.827	32.007	0.539
832.000	489.507	79.998	19.996	100.696	19.917	25.529	0.561
834.000	490.543	79.998	19.996	100.721	19.991	20.271	0.526
836.000	491.576	79.999	19.995	100.752	20.051	15.938	0.510
838.000	492.620	80.000	19.995	100.767	20.097	12.657	0.563
840.000	493.598	80.001	19.995	100.771	20.131	10.212	0.492
842.000	494.625	79.998	19.996	100.776	20.155	8.455	0.494
844.000	495.672	79.999	19.994	100.781	20.175	7.051	0.533
846.000	496.718	79.999	19.994	100.781	20.187	6.163	0.524
848.000	497.719	79.998	19.995	100.782	20.195	5.596	0.508
850.000	498.784	79.999	19.995	100.782	20.201	5.162	0.526
852.000	499.781	79.996	19.996	100.784	20.209	4.574	0.506
854.000	500.806	79.996	19.996	100.790	20.211	4.441	0.510
856.000	501.814	79.997	19.995	100.798	20.214	4.206	0.533
858.000	502.859	79.998	19.996	100.787	20.217	4.007	0.517
860.000	503.851	79.995	19.996	100.789	20.217	4.033	0.506
862.000	504.893	79.995	19.997	100.788	20.216	4.082	0.504
864.000	505.917	79.998	19.996	100.790	20.221	3.709	0.539
866.000	506.913	79.998	19.996	100.795	20.219	3.892	0.512
868.000	507.929	79.998	19.995	100.791	20.223	3.583	0.473
870.000	508.997	79.999	19.996	100.802	20.222	3.658	0.539
872.000	509.996	79.998	19.996	100.806	20.220	3.785	0.508
874.000	510.989	79.997	19.996	100.812	20.223	3.601	0.506
876.000	511.989	79.996	19.995	100.815	20.227	3.304	0.473
878.000	513.006	79.997	19.995	100.801	20.223	3.607	0.518
880.000	514.027	79.997	19.995	100.801	20.222	3.663	0.491
882.000	515.085	79.998	19.995	100.816	20.219	3.881	0.521
884.000	516.100	79.996	19.997	100.809	20.221	3.756	0.498
886.000	517.132	79.996	19.997	100.806	20.220	3.825	0.515
888.000	518.125	79.996	19.998	100.797	20.222	3.664	0.493
890.000	519.147	79.997	19.996	100.805	20.226	3.382	0.539
892.000	520.170	79.996	19.995	100.807	20.223	3.593	0.524
894.000	521.184	79.997	19.996	100.810	20.225	3.455	0.510
896.000	522.174	79.998	19.996	100.802	20.226	3.345	0.491
898.000	523.192	79.998	19.995	100.803	20.225	3.419	0.510
900.000	524.212	79.998	19.996	100.815	20.225	3.419	0.505
902.000	525.242	79.998	19.994	100.799	20.226	3.389	0.488
904.000	526.297	79.997	19.996	100.813	20.223	3.589	0.540
906.000	527.314	79.997	19.995	100.815	20.228	3.222	0.508
908.000	528.328	79.996	19.996	100.806	20.226	3.378	0.495
910.000	529.380	79.996	19.994	100.791	20.227	3.306	0.496
912.000	530.407	79.996	19.997	100.788	20.224	3.511	0.545
914.000	531.424	79.996	19.996	100.808	20.231	3.039	0.556
916.000	532.448	79.996	19.996	100.812	20.231	3.044	0.512
918.000	533.479	79.997	19.996	100.808	20.228	3.217	0.543
920.000	534.533	79.999	19.996	100.811	20.228	3.202	0.542
922.000	535.546	79.999	19.995	100.809	20.226	3.384	0.507
924.000	536.567	79.998	19.997	100.785	20.228	3.229	0.501
926.000	537.597	79.999	19.995	100.801	20.224	3.492	0.507
928.000	538.639	79.998	19.995	100.794	20.226	3.386	0.486
930.000	539.655	79.998	19.997	100.795	20.229	3.122	0.507
932.000	540.697	79.998	19.996	100.812	20.230	3.053	0.483
934.000	541.722	79.998	19.996	100.796	20.225	3.431	0.499
936.000	542.752	79.998	19.997	100.811	20.227	3.273	0.523
938.000	543.755	79.998	19.995	100.805	20.226	3.401	0.483
940.000	544.770	79.997	19.995	100.806	20.224	3.537	0.486
942.000	545.817	79.998	19.995	100.802	20.228	3.257	0.513
944.000	546.832	79.998	19.997	100.806	20.225	3.462	0.496
946.000	547.861	79.997	19.997	100.814	20.225	3.476	0.484
948.000	548.862	79.997	19.996	100.807	20.223	3.564	0.509
950.000	549.910	79.997	19.997	100.811	20.224	3.494	0.520
952.000	550.921	79.997	19.996	100.808	20.227	3.304	0.498
954.000	551.927	79.996	19.996	100.806	20.226	3.333	0.525
956.000	552.928	79.997	19.996	100.797	20.222	3.648	0.525
958.000	553.998	79.997	19.996	100.806	20.225	3.410	0.540
960.000	555.021	79.997	19.995	100.809	20.225	3.439	0.532
962.000	556.020	79.997	19.995	100.805	20.229	3.174	0.515
964.000	557.028	79.997	19.997	100.818	20.225	3.435	0.486
966.000	558.054	79.999	19.997	100.812	20.228	3.233	0.531
968.000	559.108	79.998	19.996	100.813	20.226	3.349	0.546
970.000	560.121	79.996	19.996	100.819	20.227	3.267	0.523
972.000	561.143	79.998	19.995	100.798	20.225	3.414	0.536
974.000	562.172	79.998	19.995	100.799	20.226	3.404	0.504
976.000	563.188	79.997	19.996	100.815	20.231	3.019	0.519
978.000	564.169	79.999	19.996	100.803	20.229	3.136	0.485
980.000	565.197	79.997	19.996	100.814	20.228	3.239	0.526
982.000	566.222	79.998	19.996	100.814	20.229	3.124	0.509
984.000	567.223	79.998	19.996	100.816	20.228	3.241	0.487
986.000	568.239	79.998	19.996	100.812	20.229	3.124	0.506
988.000	569.266	79.998	19.995	100.813	20.229	3.155	0.510
990.000	570.278	79.998	19.997	100.800	20.226	3.339	0.511
992.000	571.286	79.998	19.995	100.806	20.229	3.189	0.492
994.000	572.288	79.998	19.995	100.812	20.229	3.173	0.494
996.000	573.320	79.998	19.996	100.807	20.227	3.264	0.511
998.000	574.338	80.000	19.996	100.806	20.228	3.233	0.531
1000.000	575.385	80.000	19.995	100.804	20.231	3.001	0.528
1002.000	576.412	79.998	19.996	100.814	20.229	3.122	0.499
1004.000	577.413	79.998	19.996	100.809	20.225	3.440	0.481
1006.000	578.445	79.998	19.997	100.801	20.229	3.157	0.533
1008.000	579.460	79.997	19.996	100.802	20.226	3.396	0.516
1010.000	580.511	79.995	19.997	100.804	20.227	3.304	0.516
1012.000	581.532	79.997	19.996	100.814	20.227	3.312	0.502
1014.000	582.541	79.997	19.997	100.796	20.231	3.042	0.501
1016.000	583.553	79.997	19.995	100.812	20.229	3.158	0.479
1018.000	584.555	79.997	19.997	100.811	20.227	3.310	0.502
1020.000	585.610	79.996	19.995	100.817	20.226	3.390	0.514
1022.000	586.616	79.996	19.996	100.818	20.229	3.144	0.535
1024.000	587.640	79.996	19.997	100.819	20.230	3.060	0.536
1025.999	588.634	79.996	19.995	100.819	20.229	3.156	0.502
1028.000	589.667	79.996	19.996	100.822	20.226	3.396	0.511
1029.999	590.682	79.998	19.996	100.820	20.229	3.122	0.511
1031.999	591.707	79.996	19.997	100.819	20.229	3.138	0.543
1033.999	592.709	79.996	19.996	100.819	20.224	3.514	0.488
1035.999	593.687	79.997	19.996	100.820	20.221	3.723	0.476
1037.999	594.767	79.997	19.996	100.821	20.224	3.490	0.525
1040.000	595.771	79.997	19.997	100.821	20.224	3.488	0.488
1041.999	596.759	79.996	19.996	100.821	20.225	3.433	0.480
1043.999	597.812	79.995	19.997	100.821	20.224	3.480	0.507
1045.999	598.796	79.996	19.996	100.829	20.222	3.664	0.482
1047.999	599.819	79.997	19.996	100.821	20.220	3.797	0.495
1049.999	600.855	79.998	19.995	100.820	20.219	3.850	0.498
1051.999	601.822	80.000	19.996	100.821	20.222	3.688	0.488
1053.999	602.855	79.999	19.996	100.829	20.222	3.688	0.485
1055.999	603.914	79.999	19.996	100.828	20.222	3.630	0.491
1057.999	604.932	79.999	19.996	100.823	20.220	3.803	0.492
1059.999	605.962	79.999	19.996	100.820	20.218	3.969	0.475
1061.999	607.029	79.999	19.996	100.836	20.219	3.860	0.564
1064.000	608.033	79.998	19.997	100.823	20.221	3.751	0.497
1065.999	609.079	79.998	19.996	100.849	20.219	3.851	0.508
1067.999	610.119	79.998	19.997	100.833	20.224	3.543	0.533
1070.000	611.131	79.998	19.996	100.820	20.220	3.771	0.504
1071.999	612.221	79.999	19.996	100.836	20.222	3.673	0.523
1074.000	613.272	80.000	19.998	100.847	20.217	4.011	0.523
1076.000	614.277	80.001	19.996	100.851	20.220	3.765	0.534
1077.999	615.365	80.001	19.996	100.840	20.219	3.898	0.520
1079.999	616.376	80.000	19.996	100.842	20.216	4.113	0.518
1081.999	617.421	80.000	19.995	100.851	20.217	3.996	0.533
1083.999	618.495	79.998	19.996	100.852	20.216	4.086	0.510
1085.999	619.516	79.997	19.996	100.857	20.216	4.094	0.521
1087.999	620.515	79.997	19.997	100.852	20.217	3.990	0.533
1090.000	621.583	79.997	19.997	100.850	20.217	4.039	0.506
1092.000	622.623	79.996	19.997	100.853	20.217	3.984	0.498
1093.999	623.624	79.997	19.996	100.856	20.218	3.951	0.499
1095.999	624.707	79.997	19.997	100.857	20.218	3.910	0.534
1097.999	625.704	79.995	19.997	100.855	20.215	4.170	0.526
1099.999	626.702	79.997	19.997	100.856	20.216	4.090	0.479
1101.999	627.740	79.997	19.997	100.858	20.213	4.338	0.505
1103.999	628.817	79.996	19.997	100.860	20.219	3.908	0.509
1105.999	629.839	79.997	19.995	100.862	20.213	4.297	0.535
1108.000	630.826	79.997	19.995	100.860	20.218	3.922	0.503
1110.000	631.854	79.998	19.996	100.865	20.211	4.439	0.521
1112.000	632.882	79.999	19.996	100.856	20.214	4.266	0.509
1114.000	633.897	79.997	19.997	100.855	20.215	4.170	0.503
1115.999	634.944	79.998	19.996	100.858	20.215	4.189	0.535
1117.999	635.974	79.998	19.996	100.863	20.214	4.227	0.535
1119.999	636.999	79.997	19.995	100.874	20.210	4.549	0.488
1121.999	638.022	79.998	19.997	100.859	20.215	4.153	0.513
1124.000	639.037	79.996	19.997	100.856	20.213	4.337	0.526
1125.999	640.047	79.997	19.996	100.822	20.209	4.593	0.531
1127.999	641.066	79.998	19.996	100.834	20.211	4.464	0.534
1129.999	642.072	79.999	19.996	100.923	20.221	3.760	0.506
1131.999	643.109	79.999	19.996	100.865	20.212	4.349	0.502
1134.001	644.125	79.999	19.994	100.868	20.211	4.430	0.489
1135.999	645.100	79.998	19.994	100.876	20.210	4.551	0.491
1137.999	646.140	79.999	19.994	100.875	20.210	4.537	0.505
1140.000	647.164	79.999	19.996	100.885	20.206	4.798	0.515
1141.999	648.166	79.998	19.995	100.877	20.209	4.622	0.487
1143.999	649.199	79.999	19.995	100.887	20.205	4.905	0.510
1145.999	650.207	79.997	19.993	100.890	20.210	4.541	0.473
1147.999	651.208	79.998	19.996	100.888	20.208	4.653	0.505
1149.999	652.206	79.997	19.996	100.896	20.207	4.772	0.519
1151.999	653.209	79.998	19.996	100.897	20.208	4.633	0.521
1153.999	654.211	80.001	19.996	100.891	20.202	5.076	0.507
1156.000	655.259	79.999	19.996	100.892	20.195	5.586	0.555
1158.000	656.257	79.998	19.995	100.895	20.203	4.996	0.485
1159.999	657.262	79.999	19.996	100.900	20.199	5.322	0.517
1161.999	658.311	79.999	19.995	100.897	20.195	5.589	0.497
1163.999	659.306	79.998	19.996	100.900	20.198	5.417	0.490
1165.999	660.332	79.997	19.995	100.899	20.199	5.286	0.516
1167.999	661.305	79.996	19.995	100.905	20.198	5.374	0.490
1169.999	662.302	79.995	19.996	100.922	20.194	5.687	0.505
1171.999	663.326	79.998	19.996	100.925	20.202	5.087	0.529
1174.000	664.310	79.996	19.996	100.917	20.198	5.369	0.512
1176.000	665.317	79.996	19.995	100.923	20.197	5.453	0.501
1177.999	666.329	79.995	19.996	100.916	20.200	5.224	0.500
1179.999	667.342	79.997	19.995	100.929	20.197	5.475	0.498
1181.999	668.419	79.997	19.997	100.923	20.192	5.809	0.534
1184.000	669.389	79.996	19.996	100.933	20.192	5.817	0.498
1186.000	670.431	79.997	19.997	100.931	20.192	5.837	0.517
1188.000	671.421	79.995	19.996	100.930	20.191	5.888	0.518
1189.999	672.489	79.996	19.997	100.933	20.192	5.798	0.513
1191.999	673.440	79.996	19.998	100.934	20.195	5.592	0.471
1194.001	674.532	79.997	19.996	100.934	20.198	5.357	0.525
1195.999	675.598	79.997	19.996	100.940	20.195	5.593	0.498
1197.999	676.592	79.996	19.996	100.941	20.189	6.049	0.534
1200.000	677.586	79.995	19.995	100.944	20.194	5.648	0.507
1201.999	678.574	79.996	19.997	100.937	20.189	6.032	0.472
1204.000	679.617	79.997	19.996	100.943	20.189	6.009	0.494
1205.999	680.649	79.999	19.996	100.963	20.192	5.843	0.509
1207.999	681.691	79.998	19.997	100.947	20.184	6.359	0.536
1209.999	682.714	79.998	19.996	100.947	20.187	6.207	0.509
1211.999	683.710	79.998	19.994	100.957	20.191	5.917	0.530
1213.999	684.667	79.997	19.995	100.965	20.189	6.023	0.510
1216.000	685.698	79.998	19.996	100.968	20.187	6.161	0.539
1217.999	686.758	79.999	19.995	100.957	20.183	6.452	0.511
1219.999	687.790	79.997	19.996	100.957	20.182	6.540	0.506
1221.999	688.763	79.998	19.996	100.972	20.184	6.374	0.512
1224.000	689.746	79.997	19.995	100.967	20.180	6.682	0.482
1226.000	690.791	79.998	19.995	100.980	20.182	6.533	0.513
1228.000	691.760	79.998	19.997	100.978	20.183	6.465	0.507
1229.999	692.825	79.999	19.994	100.977	20.180	6.672	0.542
1231.999	693.803	79.999	19.995	100.979	20.178	6.816	0.488
1234.000	694.876	79.999	19.995	100.979	20.178	6.834	0.534
1235.999	695.819	80.002	19.995	100.981	20.178	6.859	0.491
1237.999	696.825	80.000	19.995	100.983	20.178	6.852	0.505
1239.999	697.839	79.999	19.995	100.980	20.172	7.260	0.486
1241.999	698.845	79.999	19.995	100.999	20.176	6.958	0.472
1244.000	699.860	79.997	19.994	101.006	20.177	6.917	0.520
1246.000	700.855	79.997	19.996	101.010	20.181	6.609	0.512
1247.999	701.887	79.997	19.996	100.999	20.174	7.150	0.509
1250.000	702.909	79.997	19.995	101.014	20.175	7.066	0.506
1251.999	703.898	79.998	19.997	101.014	20.178	6.827	0.531
1253.999	704.923	79.994	19.996	101.014	20.176	6.998	0.504
1255.999	705.944	79.997	19.998	101.014	20.174	7.118	0.498
1257.999	706.971	79.997	19.996	101.012	20.177	6.882	0.508
1259.999	707.978	79.997	19.996	101.013	20.172	7.264	0.513
1262.000	708.999	79.997	19.996	101.016	20.182	6.568	0.497
1263.999	710.029	79.998	19.997	101.024	20.177	6.911	0.515
1266.000	710.988	79.997	19.996	101.027	20.174	7.111	0.496
1268.000	712.044	79.997	19.995	101.046	20.174	7.143	0.507
1269.999	713.045	79.995	19.996	101.044	20.175	7.031	0.544
1271.999	714.106	79.997	19.996	101.039	20.176	6.972	0.498
1273.999	715.088	79.996	19.997	101.040	20.173	7.156	0.503
1275.999	716.096	79.995	19.998	101.044	20.176	6.953	0.508
1277.999	717.098	79.995	19.996	101.049	20.174	7.131	0.488
1280.000	718.113	79.995	19.997	101.050	20.175	7.061	0.478
1282.000	719.128	79.997	19.996	101.048	20.173	7.188	0.480
1284.000	720.123	79.997	19.997	101.044	20.170	7.380	0.518
1285.999	721.159	79.997	19.995	101.048	20.172	7.283	0.537
1287.999	722.129	79.997	19.995	101.050	20.171	7.338	0.533
1289.999	723.133	79.998	19.996	101.044	20.172	7.275	0.487
1291.999	724.147	79.998	19.996	101.026	20.171	7.353	0.496
1293.999	725.101	79.998	19.996	101.027	20.174	7.090	0.486
1295.999	726.073	79.999	19.996	101.019	20.179	6.787	0.492
1298.000	727.133	79.998	19.995	101.017	20.177	6.928	0.529
1299.999	728.081	79.997	19.995	101.014	20.175	7.001	0.493
1302.000	729.107	79.998	19.996	100.994	20.173	7.183	0.485
1304.000	730.121	79.998	19.996	100.973	20.177	6.860	0.515
1305.999	731.173	79.998	19.995	100.961	20.183	6.467	0.496
1308.000	732.178	79.999	19.996	100.939	20.181	6.566	0.491
1309.999	733.233	79.999	19.995	100.913	20.185	6.348	0.530
1311.999	734.230	79.999	19.997	100.881	20.191	5.883	0.504
1313.999	735.283	80.001	19.997	100.800	20.197	5.431	0.489
1316.000	736.273	80.001	19.995	100.869	20.202	5.071	0.493
1317.999	737.322	80.002	19.997	100.871	20.200	5.225	0.504
1319.999	738.333	80.000	19.996	100.821	20.202	5.084	0.494
1321.999	739.364	80.000	19.996	100.817	20.207	4.758	0.480
1323.999	740.384	79.998	19.995	100.814	20.204	4.914	0.505
1326.000	741.398	79.998	19.996	100.809	20.203	5.022	0.522
1327.999	742.392	79.998	19.996	100.807	20.204	4.953	0.502
1329.999	743.445	79.998	19.996	100.784	20.198	5.383	0.538
1331.999	744.436	79.997	19.996	100.793	20.202	5.115	0.539
1332.999	744.938	79.998	19.995	100.800	20.208	4.648	0.501