File: 01_Data/Polyolefin_Carpet_Low_Pile/MCC/Polyolefin_Carpet_Low_Pile_MCC_30K_min_211008_R2.txt
Sample ID:	C:\MCC\MCC Cal\Test\Carpet_Polyolefin_LowPile_211008_R2.txt
Sample Weight (mg):	4.5
Heating Rate (C/s):	0.5
Combustor Temp (C):	900
N2 Flow Rate (cc/min):	80
O2 Flow Rate (cc/min):	20
Calibration File:	C:\MCC\MCC Cal\Coeff1 JN10440_30_210304.txt.txt
T Correction Coefficients:	0	1.024463	0
Time Shift (s):	14
*
Time (s)	Temperature (C)	N2 flow rate (cc/min)	O2 flow rate (cc/min)	Flow Rate (cc/min)	Oxygen (%)	HRR (W/g)	Heating rate (C/s)
0.000	107.561	80.015	20.004	100.829	20.181	0.036	-0.021
2.000	107.608	80.017	20.000	100.824	20.181	0.040	0.021
4.000	107.603	79.995	19.997	100.807	20.180	0.087	-0.015
6.000	107.602	79.995	19.998	100.814	20.177	0.327	-0.004
8.000	107.619	79.997	19.996	100.803	20.179	0.156	-0.011
9.999	107.569	79.997	19.996	100.812	20.183	-0.126	-0.023
12.000	107.589	79.995	19.996	100.823	20.176	0.417	-0.000
13.999	107.602	79.994	19.997	100.829	20.174	0.552	-0.020
15.999	107.615	79.995	19.996	100.833	20.169	0.860	-0.006
17.999	107.594	79.995	19.996	100.832	20.168	0.918	-0.021
19.999	107.631	79.995	19.997	100.877	20.168	0.958	0.017
21.999	107.670	79.996	19.998	100.920	20.161	1.426	0.035
23.999	107.780	79.995	19.996	100.935	20.161	1.470	0.078
25.999	107.792	79.996	19.996	100.948	20.158	1.641	0.038
27.999	107.916	79.996	19.995	100.963	20.151	2.115	0.076
29.999	108.096	79.997	19.996	100.978	20.153	1.971	0.100
31.999	108.241	79.998	19.996	100.967	20.152	2.078	0.076
33.999	108.471	79.996	19.996	100.954	20.147	2.407	0.095
35.999	108.604	79.995	19.996	100.985	20.148	2.327	0.075
37.999	108.906	79.994	19.998	100.989	20.146	2.483	0.109
39.999	109.176	79.994	19.997	100.998	20.144	2.640	0.152
41.999	109.472	79.993	19.998	101.015	20.139	3.017	0.153
43.999	109.754	79.994	19.998	101.002	20.138	3.087	0.123
46.000	110.174	79.993	19.998	101.014	20.140	2.882	0.184
47.999	110.444	79.994	19.998	101.014	20.138	3.085	0.156
49.999	110.865	79.995	19.997	101.023	20.135	3.270	0.232
51.999	111.273	79.995	19.996	101.024	20.135	3.238	0.198
53.999	111.666	79.994	19.996	101.029	20.130	3.606	0.234
55.999	112.085	79.994	19.997	101.033	20.131	3.554	0.226
57.999	112.532	79.996	19.997	101.026	20.133	3.389	0.232
59.999	113.051	79.995	19.995	101.027	20.132	3.443	0.241
61.999	113.545	79.996	19.996	101.028	20.130	3.620	0.261
63.999	114.049	79.995	19.995	101.027	20.128	3.767	0.257
65.999	114.636	79.994	19.996	101.029	20.130	3.639	0.311
67.999	115.140	79.995	19.995	101.041	20.131	3.580	0.245
69.999	115.704	79.994	19.996	101.052	20.129	3.672	0.273
71.999	116.310	79.995	19.996	101.064	20.127	3.807	0.287
73.999	116.884	79.995	19.997	101.064	20.124	4.009	0.318
76.000	117.477	79.994	19.995	101.066	20.125	3.952	0.291
77.999	118.102	79.995	19.995	101.066	20.122	4.144	0.295
79.999	118.785	79.996	19.997	101.068	20.122	4.194	0.335
81.999	119.459	79.996	19.996	101.071	20.120	4.289	0.335
83.999	120.135	79.997	19.995	101.070	20.125	3.984	0.338
85.999	120.835	79.997	19.996	101.074	20.116	4.563	0.349
87.999	121.514	79.996	19.995	101.070	20.123	4.089	0.373
90.000	122.250	79.997	19.996	101.069	20.122	4.165	0.371
91.999	122.974	79.996	19.994	101.067	20.121	4.277	0.358
93.999	123.713	79.994	19.996	101.067	20.118	4.424	0.365
95.999	124.485	79.996	19.996	101.065	20.118	4.478	0.414
97.999	125.263	79.996	19.995	101.065	20.122	4.152	0.389
99.999	126.031	79.996	19.996	101.057	20.123	4.129	0.368
101.999	126.812	79.996	19.996	101.061	20.118	4.483	0.424
103.999	127.615	79.998	19.996	101.068	20.116	4.583	0.402
105.999	128.431	79.997	19.995	101.065	20.120	4.300	0.396
107.999	129.216	79.998	19.997	101.066	20.120	4.306	0.411
110.000	130.049	79.997	19.996	101.065	20.123	4.131	0.420
111.999	130.905	79.998	19.996	101.062	20.124	4.010	0.442
113.999	131.730	79.997	19.997	101.068	20.123	4.107	0.393
116.001	132.581	79.995	19.995	101.073	20.121	4.261	0.422
117.999	133.388	79.996	19.996	101.071	20.121	4.230	0.433
119.999	134.314	79.994	19.997	101.067	20.123	4.097	0.442
121.999	135.130	80.013	20.003	101.080	20.123	4.118	0.426
124.000	136.037	80.014	20.003	101.099	20.120	4.318	0.433
126.000	136.940	79.993	19.998	101.088	20.122	4.198	0.492
128.001	137.851	79.994	19.996	101.075	20.122	4.190	0.460
130.000	138.780	79.994	19.997	101.079	20.124	4.019	0.442
132.000	139.649	79.993	19.997	101.079	20.122	4.202	0.440
134.000	140.595	79.994	19.997	101.080	20.120	4.295	0.487
136.000	141.543	79.994	19.998	101.071	20.120	4.325	0.473
138.000	142.455	79.994	19.996	101.076	20.124	4.067	0.470
140.000	143.422	79.995	19.997	101.082	20.124	4.031	0.481
142.000	144.407	79.994	19.997	101.077	20.120	4.333	0.468
144.000	145.375	79.995	19.997	101.083	20.123	4.115	0.500
146.000	146.290	79.994	19.997	101.069	20.117	4.509	0.480
148.000	147.261	79.995	19.996	101.083	20.119	4.377	0.488
150.000	148.239	79.994	19.996	101.081	20.115	4.689	0.475
152.000	149.252	79.995	19.996	101.046	20.117	4.523	0.499
154.000	150.242	79.993	19.996	101.007	20.116	4.626	0.513
156.000	151.186	79.995	19.996	101.146	20.119	4.415	0.477
158.000	152.192	79.995	19.996	101.076	20.119	4.354	0.506
160.000	153.179	79.996	19.996	101.069	20.117	4.529	0.503
162.000	154.169	79.997	19.996	101.072	20.118	4.455	0.494
164.000	155.149	79.997	19.995	101.065	20.117	4.510	0.486
166.000	156.179	79.997	19.995	101.065	20.114	4.750	0.533
168.000	157.170	79.996	19.996	101.069	20.119	4.416	0.519
170.000	158.187	79.997	19.996	101.066	20.116	4.620	0.519
172.000	159.168	79.995	19.996	101.064	20.120	4.302	0.523
174.000	160.121	79.997	19.996	101.064	20.117	4.500	0.483
176.000	161.192	79.996	19.995	101.064	20.120	4.346	0.525
178.000	162.144	79.995	19.996	101.063	20.119	4.399	0.483
180.000	163.138	79.995	19.995	101.060	20.119	4.361	0.499
182.000	164.158	79.996	19.996	101.053	20.123	4.113	0.499
184.000	165.143	79.996	19.995	101.058	20.119	4.386	0.480
186.000	166.158	79.997	19.996	101.063	20.118	4.432	0.506
188.000	167.167	79.997	19.996	101.064	20.119	4.388	0.507
190.000	168.161	79.998	19.996	101.065	20.122	4.177	0.486
192.000	169.128	79.998	19.996	101.063	20.118	4.481	0.478
194.000	170.124	79.997	19.995	101.062	20.121	4.270	0.502
196.000	171.170	79.996	19.996	101.065	20.120	4.342	0.521
198.000	172.135	79.995	19.996	101.064	20.120	4.316	0.487
200.000	173.146	79.996	19.997	101.065	20.121	4.227	0.505
202.000	174.102	79.996	19.996	101.067	20.120	4.346	0.468
204.000	175.171	79.994	19.997	101.060	20.122	4.185	0.540
206.000	176.160	79.995	19.996	101.063	20.121	4.244	0.503
208.000	177.120	79.995	19.996	101.062	20.121	4.235	0.518
210.000	178.130	79.994	19.995	101.061	20.123	4.139	0.500
212.000	179.142	79.995	19.996	101.046	20.123	4.105	0.498
214.000	180.107	79.996	19.996	101.059	20.124	4.058	0.481
216.000	181.128	79.994	19.996	101.037	20.120	4.295	0.506
217.999	182.122	79.995	19.996	101.054	20.121	4.222	0.506
219.999	183.109	79.996	19.996	101.047	20.121	4.226	0.513
222.000	184.078	79.995	19.997	101.046	20.119	4.374	0.477
224.000	185.120	79.996	19.997	101.051	20.120	4.338	0.526
225.999	186.130	79.994	19.996	100.994	20.118	4.479	0.516
227.999	187.125	79.993	19.998	101.031	20.119	4.413	0.480
230.000	188.116	79.995	19.997	101.109	20.120	4.334	0.477
231.999	189.104	79.994	19.997	101.052	20.120	4.280	0.495
233.999	190.090	79.994	19.997	101.054	20.121	4.225	0.512
236.000	191.077	79.995	19.996	101.046	20.121	4.280	0.479
238.000	192.051	79.995	19.996	101.053	20.121	4.213	0.485
240.000	193.080	79.996	19.996	101.051	20.122	4.182	0.510
241.999	194.050	79.996	19.997	101.034	20.122	4.171	0.477
243.999	195.033	80.006	19.998	101.034	20.124	4.043	0.501
245.999	196.073	80.014	20.002	101.061	20.126	3.898	0.504
248.000	197.062	80.016	20.004	101.072	20.122	4.158	0.498
249.999	198.076	80.016	20.003	101.064	20.124	4.039	0.503
251.999	199.043	80.014	20.003	101.059	20.125	3.988	0.484
254.000	200.048	80.014	20.003	101.065	20.126	3.898	0.505
255.999	201.036	80.014	20.004	101.066	20.125	3.933	0.498
258.000	202.022	80.014	20.003	101.067	20.124	4.005	0.479
260.000	203.038	80.015	20.003	101.068	20.123	4.127	0.502
262.000	204.016	80.015	20.002	101.066	20.125	3.933	0.494
264.000	205.031	80.015	20.002	101.064	20.124	4.054	0.507
266.000	205.977	80.015	20.002	101.066	20.126	3.894	0.470
268.000	207.036	80.015	20.003	101.066	20.121	4.217	0.524
270.000	208.014	80.016	20.002	101.066	20.124	4.049	0.515
272.000	209.009	80.016	20.002	101.063	20.124	4.061	0.512
274.000	209.972	80.016	20.002	101.062	20.125	3.965	0.484
276.000	210.985	80.015	20.002	101.056	20.123	4.123	0.513
278.000	211.976	80.015	20.002	101.067	20.126	3.872	0.475
280.000	212.973	80.014	20.002	101.068	20.122	4.142	0.506
282.000	213.917	80.013	20.002	101.070	20.123	4.108	0.455
284.000	214.979	80.014	20.003	101.069	20.124	4.056	0.515
286.000	215.949	80.013	20.003	101.066	20.127	3.828	0.474
288.000	216.933	80.013	20.003	101.066	20.125	3.970	0.526
290.000	217.969	80.014	20.004	101.065	20.123	4.079	0.512
292.000	218.959	80.013	20.004	101.060	20.123	4.119	0.518
294.000	219.936	80.014	20.005	101.061	20.121	4.222	0.498
296.000	220.920	80.015	20.003	101.057	20.124	4.007	0.497
298.000	221.933	80.013	20.003	101.053	20.122	4.172	0.490
300.000	222.983	80.015	20.003	101.054	20.125	3.999	0.532
302.000	223.932	80.016	20.002	101.053	20.125	3.993	0.467
304.000	224.935	80.015	20.002	101.059	20.122	4.205	0.511
306.000	225.929	80.014	20.002	101.053	20.125	3.965	0.536
308.000	226.929	80.015	20.003	101.062	20.123	4.085	0.489
310.000	227.976	80.013	20.003	101.055	20.124	4.070	0.511
312.000	228.994	80.014	20.003	101.049	20.122	4.180	0.521
314.000	230.044	80.013	20.004	101.054	20.122	4.172	0.530
316.000	231.011	80.013	20.004	101.054	20.124	4.008	0.462
318.000	231.996	80.014	20.004	101.058	20.124	4.062	0.490
320.000	233.004	80.013	20.004	101.064	20.126	3.867	0.502
322.000	234.049	80.014	20.004	101.056	20.124	4.069	0.515
324.000	235.009	80.014	20.004	101.057	20.125	3.959	0.484
326.000	235.993	80.016	20.004	101.049	20.124	4.062	0.495
328.000	236.974	80.014	20.003	101.049	20.122	4.176	0.512
330.000	238.014	80.015	20.004	101.049	20.122	4.146	0.480
332.000	238.985	80.016	20.003	101.043	20.124	4.056	0.485
334.000	240.018	80.014	20.002	101.047	20.122	4.155	0.476
336.000	240.971	80.013	20.004	101.055	20.122	4.191	0.486
338.000	241.997	80.013	20.002	101.042	20.122	4.195	0.513
340.000	243.018	80.014	20.003	101.057	20.122	4.179	0.507
342.000	243.981	80.013	20.003	101.054	20.120	4.328	0.501
344.000	244.978	80.014	20.002	101.042	20.121	4.273	0.484
346.000	246.007	80.015	20.001	101.050	20.121	4.277	0.495
348.000	247.004	80.015	20.002	101.038	20.120	4.341	0.490
350.000	248.018	80.015	20.003	101.046	20.117	4.503	0.490
352.000	249.020	80.015	20.003	101.035	20.119	4.402	0.508
354.000	250.026	80.017	20.003	101.047	20.120	4.308	0.515
356.000	251.036	80.014	20.004	101.045	20.117	4.518	0.495
358.000	252.054	80.015	20.003	101.045	20.121	4.221	0.524
360.000	252.995	80.014	20.004	101.043	20.123	4.122	0.462
362.000	254.021	80.014	20.004	101.045	20.121	4.263	0.471
364.000	254.998	80.013	20.002	101.027	20.123	4.082	0.522
366.000	256.008	80.013	20.004	101.038	20.119	4.383	0.498
368.000	257.004	80.014	20.003	101.036	20.119	4.385	0.486
370.000	257.957	80.013	20.003	101.028	20.117	4.505	0.501
372.000	259.002	80.013	20.003	101.027	20.118	4.434	0.502
374.000	260.028	80.013	20.002	101.034	20.116	4.584	0.521
376.000	260.993	80.015	20.003	101.042	20.117	4.527	0.499
378.000	262.003	80.013	20.003	101.041	20.118	4.461	0.478
380.000	262.981	80.013	20.003	101.029	20.114	4.742	0.477
382.000	264.004	80.013	20.004	101.029	20.114	4.729	0.493
384.000	265.012	80.013	20.003	101.026	20.114	4.749	0.506
386.000	266.005	80.013	20.003	101.027	20.115	4.648	0.523
388.000	266.960	80.013	20.004	101.033	20.112	4.896	0.512
390.000	267.960	80.012	20.004	101.046	20.113	4.778	0.495
392.000	268.926	80.011	20.004	101.042	20.116	4.623	0.477
394.000	269.947	80.011	20.005	101.035	20.110	4.987	0.457
396.000	270.977	80.012	20.006	101.047	20.113	4.836	0.507
398.000	272.034	80.012	20.004	101.035	20.113	4.801	0.496
400.000	272.992	80.011	20.006	101.049	20.114	4.756	0.498
402.000	273.971	80.013	20.005	101.050	20.113	4.834	0.455
404.000	274.984	80.013	20.004	101.034	20.112	4.884	0.499
406.000	275.965	80.012	20.004	101.031	20.112	4.872	0.495
408.000	277.009	80.012	20.008	101.036	20.111	4.939	0.506
410.000	277.965	80.013	20.005	101.046	20.113	4.773	0.496
412.000	278.958	80.014	20.004	101.028	20.110	5.030	0.483
414.000	279.953	80.014	20.004	101.028	20.110	5.049	0.500
416.000	280.963	80.014	20.004	101.027	20.108	5.135	0.490
418.000	281.946	80.013	20.004	101.026	20.110	5.030	0.503
420.000	282.960	80.014	20.004	101.027	20.107	5.224	0.508
422.000	283.972	80.015	20.003	101.025	20.105	5.344	0.515
424.000	284.981	80.014	20.004	101.025	20.106	5.268	0.478
426.000	285.923	80.014	20.003	101.025	20.107	5.243	0.489
428.000	286.948	80.015	20.003	101.026	20.106	5.283	0.521
430.000	287.933	80.015	20.002	101.027	20.103	5.483	0.497
432.000	288.938	80.017	20.003	101.024	20.104	5.462	0.504
434.000	289.914	80.017	20.003	101.025	20.104	5.443	0.508
436.000	290.899	80.016	20.002	101.025	20.103	5.472	0.488
438.000	291.913	80.016	20.002	101.020	20.099	5.769	0.498
440.000	292.911	80.016	20.002	101.027	20.099	5.798	0.472
442.000	293.938	80.015	20.002	101.024	20.102	5.603	0.507
444.000	294.890	80.013	20.004	101.021	20.101	5.661	0.477
446.000	295.920	80.013	20.004	101.025	20.100	5.687	0.507
448.000	296.932	80.015	20.003	101.021	20.097	5.899	0.539
450.000	297.949	80.013	20.003	101.027	20.099	5.752	0.523
452.000	298.928	80.013	20.003	101.027	20.096	6.026	0.521
454.000	299.933	80.014	20.003	101.028	20.093	6.224	0.504
456.000	300.908	80.013	20.003	101.028	20.094	6.116	0.482
458.000	301.946	80.013	20.003	101.030	20.094	6.133	0.506
460.000	302.963	80.014	20.003	101.029	20.093	6.205	0.510
462.000	303.962	80.015	20.002	101.027	20.094	6.144	0.501
464.000	304.959	80.014	20.003	101.029	20.089	6.493	0.484
466.000	305.940	80.016	20.004	101.029	20.090	6.440	0.512
468.000	306.959	80.014	20.004	101.029	20.090	6.424	0.508
470.000	307.943	80.013	20.003	101.030	20.088	6.573	0.522
472.000	308.941	80.015	20.004	101.029	20.082	6.978	0.526
474.000	309.958	80.014	20.003	101.029	20.083	6.928	0.505
476.000	310.967	80.011	20.000	101.019	20.082	7.009	0.488
478.000	312.003	79.995	19.997	101.003	20.078	7.227	0.525
480.000	313.034	79.994	19.998	100.999	20.079	7.163	0.522
482.000	314.053	79.994	19.998	100.998	20.077	7.323	0.465
484.000	315.074	79.994	19.995	100.992	20.075	7.448	0.557
486.000	316.048	79.995	19.997	100.995	20.074	7.520	0.511
488.000	317.070	79.997	19.995	100.993	20.071	7.736	0.492
490.000	318.068	79.997	19.995	100.990	20.071	7.732	0.511
492.000	319.031	79.997	19.997	100.995	20.074	7.566	0.472
494.000	320.065	79.998	19.996	100.996	20.063	8.335	0.506
496.000	321.144	79.997	19.997	100.990	20.070	7.846	0.543
498.000	322.114	79.996	19.996	100.987	20.065	8.168	0.471
500.000	323.137	79.997	19.996	100.991	20.064	8.227	0.537
502.000	324.095	79.996	19.995	100.987	20.061	8.421	0.519
504.000	325.194	79.995	19.997	100.986	20.061	8.428	0.521
506.000	326.243	79.996	19.997	100.987	20.061	8.432	0.541
508.000	327.101	79.996	19.996	100.986	20.061	8.467	0.752
510.000	328.428	79.996	19.997	100.987	20.059	8.598	0.894
512.000	329.152	79.997	19.997	100.987	20.055	8.859	0.470
514.000	330.179	79.999	19.996	100.986	20.050	9.196	0.532
516.000	331.196	79.997	19.997	100.985	20.049	9.310	0.497
518.000	332.250	80.000	19.999	100.990	20.046	9.472	0.542
520.000	333.236	79.998	19.996	100.991	20.045	9.598	0.489
522.000	334.261	79.995	19.995	100.986	20.038	10.076	0.530
524.000	335.270	79.996	19.994	100.989	20.034	10.302	0.483
526.000	336.266	79.996	19.995	100.989	20.036	10.225	0.511
528.000	337.245	79.994	19.995	100.990	20.031	10.531	0.485
530.000	338.267	79.994	19.996	100.993	20.028	10.725	0.509
532.000	339.249	79.995	19.996	100.992	20.024	11.038	0.489
534.000	340.249	79.995	19.995	100.991	20.022	11.158	0.516
536.000	341.241	79.994	19.996	100.992	20.020	11.305	0.471
538.000	342.265	79.995	19.996	100.999	20.016	11.577	0.547
540.000	343.239	79.995	19.995	100.990	20.013	11.800	0.503
542.000	344.198	79.994	19.995	100.995	20.009	12.052	0.466
544.000	345.185	80.013	20.002	101.008	20.003	12.476	0.475
546.000	346.221	80.015	20.004	101.025	19.999	12.787	0.509
548.000	347.237	80.001	20.001	101.010	20.001	12.621	0.483
550.000	348.216	79.996	19.996	100.993	19.993	13.190	0.490
552.000	349.266	79.997	19.995	100.986	19.987	13.598	0.524
554.000	350.235	79.995	19.995	100.987	19.983	13.912	0.492
556.000	351.213	79.995	19.996	100.987	19.979	14.164	0.494
558.000	352.218	79.996	19.996	100.988	19.973	14.631	0.496
560.000	353.266	79.996	19.995	100.992	19.964	15.225	0.499
562.000	354.323	79.995	19.995	100.986	19.960	15.500	0.504
564.000	355.296	79.996	19.996	100.987	19.952	16.111	0.474
566.000	356.306	79.996	19.996	100.978	19.950	16.249	0.489
568.000	357.306	79.996	19.996	100.987	19.941	16.825	0.513
570.000	358.300	79.996	19.995	100.987	19.934	17.308	0.492
572.000	359.307	79.997	19.996	100.987	19.928	17.761	0.518
574.000	360.297	79.998	19.995	100.989	19.922	18.173	0.505
576.000	361.318	79.998	19.996	100.988	19.913	18.790	0.495
578.000	362.331	79.996	19.998	100.986	19.904	19.452	0.512
580.000	363.341	79.997	19.996	100.988	19.895	20.063	0.508
582.000	364.308	79.997	19.996	100.987	19.891	20.339	0.518
584.000	365.291	79.996	19.995	100.987	19.881	21.078	0.473
586.000	366.337	79.996	19.996	100.988	19.874	21.571	0.499
588.000	367.333	79.997	19.995	100.989	19.862	22.397	0.520
590.000	368.395	79.997	19.995	100.987	19.853	22.988	0.555
592.000	369.380	79.996	19.996	100.987	19.843	23.718	0.516
594.000	370.364	79.996	19.995	100.988	19.832	24.468	0.464
596.000	371.417	79.998	19.995	100.987	19.822	25.209	0.526
598.000	372.422	79.998	19.996	100.987	19.807	26.223	0.535
600.000	373.447	79.996	19.996	100.987	19.802	26.561	0.489
602.000	374.458	79.997	19.996	100.988	19.790	27.449	0.495
604.000	375.445	79.995	19.994	100.984	19.780	28.096	0.505
606.000	376.488	79.996	19.997	100.988	19.771	28.755	0.509
608.000	377.463	79.995	19.995	100.986	19.759	29.622	0.461
610.000	378.421	79.997	19.996	100.979	19.746	30.497	0.480
612.000	379.456	79.995	19.996	100.973	19.738	31.032	0.489
614.000	380.462	79.996	19.998	100.975	19.724	32.046	0.520
616.000	381.506	79.994	19.995	100.981	19.710	33.015	0.507
618.000	382.517	79.996	19.994	100.984	19.700	33.726	0.525
620.000	383.578	79.995	19.995	100.979	19.689	34.485	0.527
622.000	384.541	79.996	19.994	100.977	19.677	35.290	0.506
624.000	385.551	79.997	19.996	100.984	19.665	36.189	0.468
626.000	386.579	79.997	19.996	100.981	19.650	37.210	0.524
628.000	387.566	79.998	19.996	100.978	19.636	38.163	0.506
630.000	388.564	79.997	19.995	100.976	19.627	38.804	0.511
632.000	389.573	79.997	19.996	100.957	19.610	39.995	0.507
634.000	390.589	79.996	19.996	100.961	19.601	40.653	0.502
636.000	391.627	79.996	19.996	100.977	19.584	41.822	0.509
638.000	392.631	79.995	19.995	100.978	19.571	42.778	0.478
640.001	393.654	79.995	19.996	100.966	19.558	43.624	0.484
642.000	394.717	79.996	19.996	100.956	19.543	44.680	0.536
644.000	395.704	79.995	19.996	100.957	19.530	45.573	0.500
646.000	396.715	79.995	19.996	100.958	19.515	46.656	0.500
648.000	397.719	79.995	19.996	100.969	19.508	47.142	0.490
650.000	398.701	79.996	19.995	100.959	19.491	48.339	0.520
652.000	399.752	79.997	19.994	100.953	19.474	49.535	0.523
654.000	400.743	79.998	19.996	100.956	19.458	50.672	0.485
656.000	401.755	79.997	19.994	100.962	19.448	51.359	0.484
658.000	402.752	79.998	19.995	100.959	19.434	52.316	0.521
660.000	403.775	79.996	19.995	100.951	19.413	53.769	0.524
662.000	404.812	79.997	19.997	100.951	19.397	54.884	0.529
664.000	405.748	79.996	19.995	100.951	19.381	56.025	0.464
666.000	406.799	79.997	19.998	100.950	19.361	57.419	0.514
668.000	407.807	79.997	19.997	100.949	19.348	58.294	0.531
670.000	408.759	79.997	19.995	100.949	19.329	59.629	0.467
672.000	409.791	79.996	19.996	100.942	19.309	61.072	0.499
674.000	410.777	79.996	19.995	100.950	19.292	62.239	0.511
676.000	411.775	79.997	19.995	100.933	19.276	63.377	0.496
678.000	412.763	79.997	19.995	100.931	19.252	65.047	0.497
680.000	413.726	79.998	19.995	100.916	19.234	66.302	0.489
682.000	414.749	79.997	19.995	100.916	19.213	67.772	0.519
684.000	415.681	79.997	19.995	100.916	19.192	69.272	0.478
686.000	416.645	79.999	19.996	100.909	19.174	70.506	0.485
688.000	417.641	79.996	19.995	100.912	19.152	72.028	0.486
690.000	418.651	79.997	19.995	100.907	19.131	73.495	0.481
692.001	419.614	79.995	19.996	100.907	19.111	74.898	0.466
694.000	420.609	79.995	19.998	100.913	19.087	76.599	0.488
696.000	421.648	79.994	19.996	100.913	19.063	78.241	0.519
698.000	422.628	79.993	19.996	100.906	19.041	79.801	0.483
700.000	423.644	79.995	19.997	100.905	19.012	81.825	0.503
702.000	424.656	79.996	19.998	100.893	18.986	83.648	0.501
704.000	425.691	79.995	19.996	100.896	18.961	85.368	0.510
706.000	426.728	79.995	19.995	100.886	18.933	87.312	0.496
708.000	427.689	79.996	19.996	100.876	18.905	89.274	0.513
710.000	428.693	79.995	19.995	100.881	18.875	91.402	0.509
712.000	429.730	79.997	19.996	100.870	18.841	93.716	0.519
714.000	430.696	79.995	19.995	100.863	18.814	95.625	0.494
716.000	431.679	79.995	19.994	100.876	18.783	97.820	0.477
718.000	432.738	79.995	19.996	100.872	18.754	99.812	0.505
720.000	433.742	79.994	19.995	100.873	18.721	102.139	0.516
722.000	434.739	79.995	19.996	100.852	18.687	104.458	0.510
724.000	435.741	79.995	19.994	100.843	18.656	106.673	0.501
726.000	436.761	79.996	19.995	100.842	18.621	109.086	0.512
728.000	437.732	79.994	19.996	100.841	18.586	111.540	0.490
730.000	438.759	79.995	19.996	100.835	18.551	113.950	0.540
732.000	439.743	79.996	19.997	100.835	18.516	116.427	0.487
734.000	440.717	79.996	19.995	100.829	18.477	119.109	0.495
736.000	441.730	79.997	19.995	100.818	18.443	121.489	0.495
738.000	442.704	79.998	19.996	100.825	18.402	124.373	0.476
740.000	443.699	79.996	19.995	100.800	18.369	126.643	0.513
742.000	444.666	79.997	19.994	100.794	18.338	128.812	0.463
744.000	445.695	79.998	19.996	100.793	18.304	131.176	0.528
746.000	446.653	79.997	19.994	100.782	18.272	133.418	0.451
748.000	447.613	79.995	19.996	100.790	18.238	135.780	0.484
750.000	448.590	79.999	19.997	100.780	18.208	137.814	0.496
752.000	449.597	79.996	19.996	100.754	18.180	139.793	0.485
754.000	450.554	79.997	19.995	100.757	18.152	141.709	0.475
756.000	451.589	79.997	19.996	100.754	18.125	143.639	0.517
758.000	452.582	79.996	19.995	100.746	18.099	145.427	0.534
760.000	453.552	79.998	19.998	100.738	18.077	146.968	0.510
762.000	454.553	79.999	19.996	100.722	18.057	148.344	0.527
764.000	455.556	79.999	19.996	100.728	18.040	149.525	0.523
766.000	456.582	79.998	19.995	100.718	18.022	150.793	0.510
768.000	457.591	80.000	19.996	100.710	18.008	151.759	0.503
770.000	458.616	79.997	19.994	100.710	17.994	152.707	0.516
772.000	459.672	79.998	19.995	100.711	17.986	153.282	0.526
774.000	460.682	79.996	19.995	100.711	17.975	154.029	0.521
776.000	461.768	79.995	19.995	100.703	17.981	153.616	0.509
778.000	462.872	79.996	19.996	100.699	17.980	153.702	0.539
780.000	463.893	79.995	19.996	100.701	17.989	153.073	0.520
782.000	464.942	79.995	19.996	100.696	18.001	152.209	0.516
784.000	465.991	79.996	19.995	100.676	18.014	151.280	0.539
786.000	467.062	79.994	19.995	100.679	18.037	149.661	0.519
788.000	468.166	79.995	19.996	100.688	18.070	147.436	0.552
790.000	469.283	79.997	19.997	100.676	18.108	144.756	0.570
792.000	470.347	79.996	19.997	100.676	18.149	141.893	0.571
794.000	471.447	79.995	19.996	100.674	18.207	137.835	0.564
796.000	472.487	79.996	19.996	100.675	18.267	133.639	0.555
798.000	473.672	79.996	19.996	100.677	18.338	128.767	0.603
800.000	474.759	79.996	19.997	100.689	18.412	123.539	0.550
802.000	475.855	79.996	19.995	100.687	18.501	117.331	0.563
804.000	476.985	79.995	19.994	100.691	18.591	111.044	0.562
806.000	478.083	79.995	19.996	100.688	18.695	103.810	0.544
808.000	479.203	79.995	19.996	100.705	18.798	96.641	0.563
810.000	480.318	79.997	19.996	100.712	18.912	88.737	0.557
812.000	481.441	79.995	19.995	100.713	19.033	80.281	0.565
814.000	482.509	79.996	19.995	100.716	19.162	71.293	0.544
816.000	483.624	79.997	19.996	100.731	19.293	62.142	0.566
818.000	484.701	79.996	19.995	100.751	19.422	53.173	0.554
820.000	485.858	79.998	19.995	100.767	19.549	44.291	0.556
822.000	486.929	79.998	19.996	100.797	19.660	36.501	0.547
824.000	487.998	79.998	19.995	100.829	19.758	29.678	0.560
826.000	489.069	79.997	19.996	100.867	19.834	24.298	0.542
828.000	490.208	79.997	19.995	100.899	19.901	19.664	0.541
830.000	491.279	79.998	19.995	100.915	19.949	16.295	0.536
832.000	492.360	79.997	19.996	100.919	19.988	13.564	0.518
834.000	493.464	79.997	19.996	100.927	20.012	11.860	0.532
836.000	494.584	79.996	19.995	100.940	20.037	10.129	0.556
838.000	495.691	79.999	19.995	100.941	20.050	9.244	0.544
840.000	496.772	79.997	19.996	100.947	20.060	8.528	0.529
842.000	497.860	79.999	19.996	100.948	20.063	8.283	0.572
844.000	498.895	79.997	19.994	100.948	20.069	7.872	0.543
846.000	499.951	79.999	19.995	100.949	20.075	7.455	0.541
848.000	501.054	79.999	19.994	100.954	20.073	7.623	0.554
850.000	502.157	79.998	19.995	100.950	20.076	7.408	0.546
852.000	503.218	79.998	19.995	100.950	20.080	7.082	0.519
854.000	504.285	79.996	19.996	100.950	20.081	7.067	0.513
856.000	505.325	79.995	19.995	100.951	20.083	6.904	0.528
858.000	506.352	79.996	19.997	100.960	20.082	6.991	0.522
860.000	507.463	79.995	19.996	100.955	20.079	7.168	0.544
862.000	508.461	79.994	19.995	100.953	20.083	6.926	0.501
864.000	509.505	79.996	19.995	100.952	20.081	7.061	0.504
866.000	510.542	79.995	19.996	100.963	20.085	6.773	0.501
868.000	511.570	79.996	19.996	100.959	20.085	6.779	0.492
870.000	512.625	79.994	19.996	100.960	20.078	7.221	0.530
872.000	513.637	79.994	19.996	100.960	20.081	7.074	0.499
874.000	514.680	79.995	19.996	100.949	20.081	7.063	0.493
876.000	515.698	79.997	19.996	100.949	20.075	7.427	0.526
878.000	516.733	79.996	19.997	100.951	20.078	7.253	0.504
880.000	517.746	79.996	19.998	100.947	20.078	7.219	0.494
882.000	518.795	79.996	19.998	100.949	20.081	7.020	0.516
884.000	519.805	79.995	19.996	100.952	20.077	7.292	0.513
886.000	520.791	79.996	19.996	100.959	20.078	7.282	0.513
888.000	521.850	79.994	19.996	100.954	20.076	7.382	0.500
890.000	522.885	79.995	19.996	100.952	20.074	7.554	0.515
892.000	523.829	79.995	19.995	100.951	20.077	7.319	0.449
894.000	524.871	79.996	19.996	100.963	20.076	7.413	0.483
896.000	525.930	79.996	19.996	100.960	20.077	7.320	0.545
898.000	526.932	79.997	19.995	100.965	20.078	7.256	0.524
900.000	527.956	79.998	19.996	100.978	20.081	7.019	0.511
902.000	528.961	79.996	19.995	100.969	20.084	6.817	0.486
904.000	530.008	79.998	19.995	100.961	20.082	6.979	0.513
906.000	530.996	79.997	19.997	100.952	20.078	7.257	0.508
908.000	532.049	79.996	19.995	100.966	20.077	7.303	0.541
910.000	533.097	79.998	19.996	100.961	20.077	7.297	0.509
912.000	534.157	79.996	19.995	100.965	20.082	6.970	0.534
914.000	535.170	79.996	19.996	100.927	20.077	7.305	0.525
916.000	536.223	79.998	19.996	100.993	20.080	7.089	0.501
918.000	537.246	79.996	19.996	100.971	20.079	7.210	0.522
920.000	538.268	79.997	19.996	100.958	20.081	7.071	0.533
922.000	539.266	79.998	19.995	100.960	20.079	7.198	0.464
924.000	540.291	79.998	19.996	100.957	20.079	7.216	0.499
926.000	541.342	79.999	19.996	100.954	20.079	7.201	0.539
928.000	542.360	79.999	19.995	100.956	20.079	7.213	0.524
930.000	543.375	79.998	19.994	100.958	20.079	7.189	0.492
932.000	544.392	79.998	19.995	100.951	20.080	7.114	0.466
934.000	545.398	79.996	19.994	100.959	20.081	7.059	0.518
936.000	546.396	79.997	19.996	100.973	20.081	7.042	0.543
938.000	547.434	79.997	19.995	100.976	20.081	7.054	0.526
940.000	548.480	79.995	19.996	100.958	20.077	7.306	0.539
942.000	549.493	79.995	19.995	100.956	20.081	7.058	0.511
944.000	550.505	79.997	19.997	100.953	20.078	7.270	0.512
946.000	551.501	79.996	19.996	100.967	20.079	7.184	0.479
948.000	552.540	79.997	19.996	100.964	20.079	7.203	0.514
950.000	553.570	79.996	19.996	100.971	20.081	7.040	0.500
952.000	554.607	79.994	19.995	100.968	20.085	6.766	0.504
954.000	555.639	79.995	19.996	100.960	20.081	7.048	0.513
956.000	556.638	79.996	19.996	100.957	20.082	6.942	0.489
958.000	557.641	79.997	19.995	100.974	20.081	7.014	0.522
960.000	558.639	79.996	19.996	100.966	20.080	7.092	0.523
962.000	559.665	79.996	19.996	100.953	20.081	7.046	0.492
964.000	560.713	79.996	19.996	100.970	20.081	7.067	0.504
966.000	561.771	79.995	19.996	100.971	20.081	7.026	0.507
968.000	562.767	79.995	19.995	100.960	20.080	7.081	0.521
970.000	563.763	79.995	19.996	100.958	20.076	7.413	0.462
972.000	564.793	79.994	19.996	100.964	20.077	7.295	0.517
974.000	565.768	79.994	19.997	100.952	20.078	7.267	0.500
976.000	566.823	79.994	19.997	100.940	20.081	7.059	0.511
978.000	567.823	79.996	19.997	101.015	20.078	7.281	0.509
980.000	568.835	79.995	19.997	100.980	20.079	7.159	0.452
982.000	569.844	79.997	19.997	100.977	20.080	7.109	0.510
984.000	570.870	79.996	19.996	100.968	20.075	7.447	0.495
986.000	571.863	79.997	19.997	100.974	20.075	7.491	0.484
988.000	572.908	79.997	19.996	100.972	20.073	7.570	0.508
990.000	573.926	79.998	19.996	100.959	20.072	7.649	0.516
992.000	574.964	79.996	19.995	100.975	20.076	7.400	0.521
994.000	576.005	79.995	19.995	100.974	20.074	7.557	0.510
996.000	577.009	79.996	19.995	100.971	20.077	7.334	0.497
998.000	578.020	79.995	19.994	100.986	20.078	7.267	0.498
1000.000	579.047	79.997	19.996	100.980	20.076	7.383	0.507
1002.000	580.056	79.997	19.996	100.981	20.078	7.282	0.523
1004.000	581.067	79.997	19.996	100.976	20.078	7.246	0.503
1006.000	582.095	79.998	19.996	100.962	20.073	7.588	0.515
1008.000	583.111	79.997	19.995	100.977	20.074	7.553	0.505
1010.000	584.136	79.999	19.994	100.984	20.076	7.402	0.529
1012.000	585.192	79.999	19.994	100.983	20.074	7.510	0.532
1014.000	586.132	79.998	19.995	100.979	20.073	7.602	0.494
1016.000	587.178	79.999	19.997	100.982	20.075	7.463	0.503
1018.000	588.225	79.997	19.996	100.964	20.074	7.522	0.518
1020.000	589.185	79.996	19.996	100.972	20.071	7.731	0.490
1022.000	590.224	79.994	19.996	100.984	20.070	7.821	0.542
1024.000	591.244	79.995	19.995	100.966	20.071	7.730	0.522
1025.999	592.249	79.996	19.996	100.989	20.071	7.732	0.500
1027.999	593.268	79.995	19.996	100.986	20.071	7.775	0.515
1030.000	594.284	79.996	19.995	100.984	20.070	7.800	0.510
1031.999	595.312	79.996	19.995	100.978	20.071	7.739	0.526
1033.999	596.331	79.996	19.996	100.986	20.068	7.951	0.506
1036.000	597.374	79.996	19.995	100.988	20.072	7.646	0.540
1037.999	598.372	79.997	19.996	100.980	20.074	7.557	0.492
1040.000	599.411	79.996	19.995	100.984	20.072	7.681	0.548
1041.999	600.397	79.997	19.996	100.987	20.069	7.883	0.532
1043.999	601.423	79.997	19.997	100.989	20.068	7.963	0.515
1046.000	602.425	79.995	19.996	100.994	20.067	8.045	0.511
1047.999	603.490	79.995	19.996	100.990	20.069	7.866	0.549
1050.000	604.498	79.996	19.996	100.993	20.067	8.004	0.519
1051.999	605.537	79.995	19.996	101.006	20.068	7.988	0.511
1053.999	606.546	79.995	19.996	100.997	20.067	8.002	0.515
1055.999	607.498	79.994	19.996	101.001	20.066	8.123	0.482
1058.000	608.553	79.994	19.996	100.997	20.060	8.496	0.521
1059.999	609.568	79.994	19.996	101.014	20.065	8.177	0.505
1061.999	610.516	79.996	19.996	101.009	20.067	7.999	0.484
1063.999	611.542	79.997	19.996	101.016	20.066	8.062	0.509
1066.000	612.563	79.996	19.996	101.006	20.065	8.176	0.556
1067.999	613.513	79.997	19.996	101.015	20.065	8.166	0.475
1070.001	614.575	79.997	19.996	101.007	20.062	8.369	0.518
1072.000	615.579	79.996	19.995	101.012	20.064	8.205	0.524
1074.000	616.606	79.995	19.998	101.019	20.063	8.318	0.529
1076.000	617.656	79.997	19.997	101.024	20.063	8.291	0.505
1078.000	618.630	79.997	19.997	101.012	20.061	8.472	0.505
1080.000	619.635	79.997	19.996	101.022	20.063	8.289	0.506
1082.000	620.680	79.996	19.995	101.023	20.060	8.485	0.523
1084.000	621.656	79.995	19.996	101.025	20.063	8.317	0.485
1086.000	622.687	79.997	19.995	101.032	20.064	8.230	0.512
1088.000	623.732	79.999	19.996	101.028	20.062	8.348	0.523
1090.000	624.756	79.999	19.995	101.035	20.064	8.251	0.522
1092.000	625.800	79.998	19.995	101.022	20.061	8.470	0.541
1094.000	626.808	79.999	19.995	101.025	20.060	8.485	0.530
1096.000	627.810	79.999	19.995	101.027	20.061	8.440	0.515
1098.000	628.819	79.999	19.995	101.025	20.058	8.678	0.505
1100.000	629.874	79.997	19.995	101.026	20.057	8.759	0.506
1102.000	630.872	79.998	19.997	101.025	20.062	8.384	0.517
1104.000	631.926	79.997	19.997	101.031	20.062	8.346	0.513
1106.000	632.948	79.995	19.995	101.035	20.063	8.317	0.531
1108.000	633.947	79.996	19.996	101.031	20.063	8.311	0.520
1110.000	635.018	79.995	19.996	101.026	20.061	8.461	0.547
1112.000	636.010	79.995	19.995	101.031	20.064	8.220	0.529
1114.000	637.013	79.996	19.994	101.040	20.059	8.555	0.510
1116.000	638.036	79.997	19.996	101.040	20.059	8.563	0.508
1118.000	639.058	79.995	19.996	101.043	20.059	8.577	0.508
1120.000	640.092	79.996	19.995	101.038	20.060	8.494	0.510
1122.000	641.102	79.996	19.995	101.035	20.062	8.377	0.511
1124.000	642.101	79.996	19.994	101.058	20.062	8.370	0.459
1126.000	643.131	79.997	19.997	101.039	20.058	8.651	0.503
1128.000	644.155	79.996	19.996	101.053	20.056	8.786	0.509
1130.000	645.133	79.996	19.996	101.060	20.056	8.810	0.474
1132.000	646.186	79.995	19.998	101.056	20.055	8.856	0.514
1134.000	647.182	79.995	19.998	101.056	20.054	8.952	0.480
1136.000	648.192	79.995	19.996	101.055	20.057	8.764	0.507
1138.000	649.223	79.995	19.997	101.053	20.054	8.940	0.492
1140.000	650.260	79.996	19.997	101.066	20.052	9.093	0.512
1142.000	651.263	79.996	19.996	101.067	20.049	9.274	0.466
1144.000	652.295	79.998	19.996	101.070	20.049	9.298	0.522
1146.000	653.288	79.996	19.996	101.066	20.050	9.198	0.523
1148.000	654.302	79.997	19.997	101.061	20.051	9.174	0.486
1150.000	655.318	79.997	19.996	101.065	20.047	9.434	0.520
1152.000	656.318	79.997	19.996	101.071	20.051	9.185	0.494
1154.000	657.336	79.998	19.997	101.065	20.048	9.333	0.502
1156.000	658.281	79.997	19.996	101.071	20.045	9.581	0.486
1158.000	659.316	79.996	19.996	101.081	20.042	9.809	0.465
1160.000	660.337	79.996	19.996	101.078	20.044	9.679	0.499
1162.000	661.284	79.996	19.997	101.075	20.043	9.729	0.499
1164.000	662.327	79.996	19.996	101.083	20.047	9.437	0.494
1166.000	663.375	79.996	19.998	101.082	20.044	9.624	0.552
1168.000	664.406	79.997	19.996	101.101	20.045	9.561	0.537
1170.000	665.325	79.998	19.996	101.104	20.037	10.133	0.470
1172.000	666.378	79.997	19.995	101.104	20.041	9.865	0.527
1174.000	667.335	79.998	19.995	101.104	20.043	9.686	0.474
1176.000	668.386	79.998	19.994	101.102	20.043	9.730	0.443
1178.000	669.394	79.997	19.996	101.102	20.043	9.686	0.434
1180.000	670.440	79.998	19.997	101.107	20.042	9.791	0.516
1182.000	671.444	79.995	19.996	101.108	20.040	9.963	0.497
1184.000	672.416	79.995	19.995	101.114	20.035	10.274	0.488
1186.000	673.432	79.995	19.995	101.108	20.036	10.223	0.521
1188.000	674.447	79.997	19.996	101.120	20.038	10.040	0.533
1190.000	675.472	79.994	19.996	101.110	20.034	10.335	0.542
1192.000	676.508	79.996	19.996	101.131	20.035	10.285	0.513
1194.000	677.466	79.996	19.996	101.141	20.033	10.448	0.505
1196.000	678.432	79.995	19.997	101.134	20.034	10.375	0.531
1198.000	679.448	79.996	19.997	101.130	20.033	10.449	0.485
1200.000	680.391	79.995	19.996	101.131	20.032	10.499	0.481
1202.001	681.430	79.997	19.997	101.141	20.029	10.735	0.515
1204.000	682.429	79.996	19.994	101.129	20.031	10.593	0.515
1206.000	683.413	79.996	19.996	101.138	20.027	10.856	0.489
1208.000	684.400	79.995	19.996	101.143	20.030	10.663	0.489
1210.000	685.390	79.996	19.997	101.143	20.027	10.868	0.527
1212.000	686.387	79.997	19.995	101.149	20.021	11.233	0.511
1214.000	687.423	79.997	19.996	101.161	20.024	11.075	0.497
1216.000	688.380	79.996	19.996	101.149	20.028	10.758	0.476
1218.000	689.434	79.995	19.995	101.147	20.026	10.929	0.537
1220.000	690.417	79.995	19.996	101.153	20.025	10.986	0.510
1222.000	691.469	79.996	19.996	101.181	20.023	11.142	0.538
1224.000	692.437	79.996	19.997	101.175	20.026	10.915	0.492
1226.000	693.430	79.997	19.995	101.180	20.023	11.117	0.493
1228.000	694.457	79.996	19.997	101.171	20.022	11.227	0.548
1230.000	695.511	79.996	19.996	101.177	20.017	11.539	0.526
1232.000	696.521	79.996	19.996	101.180	20.024	11.077	0.526
1234.000	697.535	79.998	19.997	101.179	20.017	11.521	0.508
1236.000	698.514	79.996	19.996	101.184	20.018	11.493	0.520
1238.000	699.567	79.996	19.996	101.185	20.017	11.562	0.507
1240.000	700.561	79.997	19.997	101.205	20.015	11.681	0.502
1242.000	701.590	79.997	19.996	101.205	20.014	11.740	0.489
1244.000	702.596	79.997	19.996	101.197	20.018	11.486	0.494
1246.000	703.596	79.997	19.997	101.206	20.018	11.479	0.496
1248.000	704.608	79.997	19.996	101.212	20.018	11.478	0.493
1250.000	705.599	79.997	19.997	101.221	20.012	11.897	0.464
1252.000	706.578	79.998	19.996	101.223	20.015	11.672	0.504
1254.000	707.599	79.996	19.997	101.224	20.010	12.009	0.478
1256.000	708.615	79.998	19.997	101.223	20.015	11.660	0.510
1258.000	709.652	79.998	19.998	101.223	20.014	11.757	0.522
1260.000	710.644	79.996	19.997	101.221	20.014	11.739	0.512
1262.000	711.679	79.996	19.996	101.226	20.016	11.613	0.546
1264.000	712.656	79.997	19.996	101.222	20.009	12.142	0.490
1266.000	713.642	79.996	19.996	101.219	20.011	11.963	0.501
1268.000	714.696	79.996	19.996	101.224	20.008	12.162	0.538
1270.000	715.689	79.996	19.996	101.230	20.009	12.133	0.506
1272.000	716.715	79.995	19.994	101.254	20.008	12.154	0.484
1274.001	717.768	79.997	19.998	101.230	20.007	12.221	0.517
1276.000	718.790	79.994	19.996	101.240	20.011	11.969	0.527
1278.000	719.753	79.995	19.996	101.230	20.007	12.247	0.476
1280.000	720.769	79.996	19.995	101.221	20.007	12.275	0.466
1282.000	721.820	79.995	19.995	101.220	20.008	12.169	0.534
1284.001	722.813	79.995	19.996	101.223	20.008	12.183	0.506
1286.000	723.885	79.998	19.996	101.226	20.007	12.274	0.523
1288.000	724.854	79.996	19.996	101.219	20.012	11.869	0.498
1290.000	725.876	79.996	19.996	101.214	20.015	11.657	0.523
1292.000	726.886	79.997	19.997	101.210	20.013	11.824	0.503
1294.000	727.893	79.997	19.996	101.190	20.021	11.244	0.514
1296.000	728.946	79.995	19.996	101.168	20.017	11.502	0.521
1298.000	729.980	79.996	19.997	101.157	20.017	11.526	0.508
1300.000	731.021	79.997	19.996	101.147	20.029	10.724	0.490
1302.000	732.076	79.996	19.996	101.110	20.035	10.295	0.514
1304.000	733.118	79.999	19.997	101.077	20.033	10.432	0.509
1306.000	734.187	79.997	19.995	101.055	20.037	10.113	0.540
1308.000	735.239	79.997	19.996	101.032	20.040	9.947	0.566
1310.000	736.230	79.997	19.996	101.037	20.041	9.865	0.505
1312.000	737.243	79.996	19.995	101.030	20.041	9.849	0.512
1314.000	738.337	79.997	19.996	101.022	20.037	10.095	0.550
1316.000	739.339	79.996	19.995	101.008	20.040	9.910	0.529
1318.000	740.333	79.996	19.997	101.007	20.044	9.657	0.520
1320.000	741.366	79.993	19.995	101.004	20.048	9.327	0.510
1322.000	742.368	79.997	19.996	100.991	20.041	9.863	0.479
1324.000	743.362	79.995	19.996	100.989	20.042	9.790	0.492
1324.500	743.638	79.996	19.997	100.988	20.046	9.506	0.510