File: 01_Data/Asphalt_Shingle/FTIR/IS/Asphalt_Shingle_IS_S_220831_R3.dpt
7497.03,0.05238
7491.25,0.05733
7485.46,0.05613
7479.67,0.05178
7473.89,0.06820
7468.1,0.05852
7462.32,0.05888
7456.53,0.05719
7450.74,0.05011
7444.96,0.05540
7439.17,0.05673
7433.38,0.05344
7427.6,0.04966
7421.81,0.05576
7416.03,0.05300
7410.24,0.05726
7404.45,0.05476
7398.67,0.05233
7392.88,0.05829
7387.09,0.05298
7381.31,0.06062
7375.52,0.05961
7369.74,0.05520
7363.95,0.05414
7358.16,0.05722
7352.38,0.05329
7346.59,0.05410
7340.8,0.06733
7335.02,0.06147
7329.23,0.05366
7323.45,0.05330
7317.66,0.04847
7311.87,0.05360
7306.09,0.05595
7300.3,0.05654
7294.51,0.05956
7288.73,0.05708
7282.94,0.05653
7277.16,0.05212
7271.37,0.05753
7265.58,0.06362
7259.8,0.05721
7254.01,0.06105
7248.22,0.05457
7242.44,0.05994
7236.65,0.06079
7230.87,0.05664
7225.08,0.04780
7219.29,0.05383
7213.51,0.05275
7207.72,0.04696
7201.93,0.05644
7196.15,0.05119
7190.36,0.05730
7184.58,0.05742
7178.79,0.05688
7173,0.05283
7167.22,0.05411
7161.43,0.05964
7155.65,0.05419
7149.86,0.05452
7144.07,0.05390
7138.29,0.06024
7132.5,0.05131
7126.71,0.06129
7120.93,0.05649
7115.14,0.05631
7109.36,0.05272
7103.57,0.05093
7097.78,0.05190
7092,0.05085
7086.21,0.05408
7080.42,0.05202
7074.64,0.05733
7068.85,0.05555
7063.07,0.04815
7057.28,0.05235
7051.49,0.06066
7045.71,0.04742
7039.92,0.05893
7034.13,0.05707
7028.35,0.05632
7022.56,0.05591
7016.78,0.05507
7010.99,0.04962
7005.2,0.05262
6999.42,0.05224
6993.63,0.05964
6987.84,0.06075
6982.06,0.05063
6976.27,0.05542
6970.49,0.05710
6964.7,0.05307
6958.91,0.05424
6953.13,0.05443
6947.34,0.05748
6941.55,0.05531
6935.77,0.05374
6929.98,0.05343
6924.2,0.05904
6918.41,0.05591
6912.62,0.05432
6906.84,0.05875
6901.05,0.05489
6895.26,0.05522
6889.48,0.05348
6883.69,0.05439
6877.91,0.05731
6872.12,0.05977
6866.33,0.05125
6860.55,0.05489
6854.76,0.05477
6848.97,0.05945
6843.19,0.05570
6837.4,0.05595
6831.62,0.05350
6825.83,0.05642
6820.04,0.06261
6814.26,0.06058
6808.47,0.05868
6802.68,0.05351
6796.9,0.05367
6791.11,0.05876
6785.33,0.05307
6779.54,0.05690
6773.75,0.05435
6767.97,0.05694
6762.18,0.05469
6756.39,0.06310
6750.61,0.05855
6744.82,0.05024
6739.04,0.05721
6733.25,0.05449
6727.46,0.05504
6721.68,0.05856
6715.89,0.05877
6710.1,0.05524
6704.32,0.05645
6698.53,0.05473
6692.75,0.05647
6686.96,0.05215
6681.17,0.05071
6675.39,0.05414
6669.6,0.05805
6663.82,0.05712
6658.03,0.05779
6652.24,0.05715
6646.46,0.05966
6640.67,0.06025
6634.88,0.05365
6629.1,0.05700
6623.31,0.05424
6617.53,0.05843
6611.74,0.05593
6605.95,0.05637
6600.17,0.05219
6594.38,0.05621
6588.59,0.05732
6582.81,0.05324
6577.02,0.05584
6571.24,0.05687
6565.45,0.05519
6559.66,0.05866
6553.88,0.05780
6548.09,0.05754
6542.3,0.05556
6536.52,0.05755
6530.73,0.05609
6524.95,0.05682
6519.16,0.06035
6513.37,0.05439
6507.59,0.05884
6501.8,0.05779
6496.01,0.05274
6490.23,0.05697
6484.44,0.05555
6478.66,0.05204
6472.87,0.05670
6467.08,0.05773
6461.3,0.05767
6455.51,0.05507
6449.72,0.05073
6443.94,0.05496
6438.15,0.06017
6432.37,0.05906
6426.58,0.05637
6420.79,0.05482
6415.01,0.05522
6409.22,0.05539
6403.43,0.05918
6397.65,0.05608
6391.86,0.05479
6386.08,0.05971
6380.29,0.06049
6374.5,0.05497
6368.72,0.05796
6362.93,0.05898
6357.14,0.05743
6351.36,0.05707
6345.57,0.05607
6339.79,0.05893
6334,0.05741
6328.21,0.05812
6322.43,0.05571
6316.64,0.05868
6310.85,0.05613
6305.07,0.05744
6299.28,0.05864
6293.5,0.05603
6287.71,0.05572
6281.92,0.05748
6276.14,0.05659
6270.35,0.05674
6264.56,0.06033
6258.78,0.05728
6252.99,0.05585
6247.21,0.05725
6241.42,0.05457
6235.63,0.05660
6229.85,0.05732
6224.06,0.05436
6218.27,0.05382
6212.49,0.05573
6206.7,0.05507
6200.92,0.05770
6195.13,0.05844
6189.34,0.05957
6183.56,0.05716
6177.77,0.05671
6171.98,0.05731
6166.2,0.05738
6160.41,0.05768
6154.63,0.05624
6148.84,0.05625
6143.05,0.06040
6137.27,0.05705
6131.48,0.05815
6125.7,0.05796
6119.91,0.05663
6114.12,0.05634
6108.34,0.05807
6102.55,0.06144
6096.76,0.05928
6090.98,0.05491
6085.19,0.05889
6079.41,0.05818
6073.62,0.05844
6067.83,0.05907
6062.05,0.06023
6056.26,0.05896
6050.47,0.05650
6044.69,0.05825
6038.9,0.05900
6033.12,0.06057
6027.33,0.05909
6021.54,0.05958
6015.76,0.05976
6009.97,0.05761
6004.18,0.05803
5998.4,0.05538
5992.61,0.05696
5986.83,0.05903
5981.04,0.05923
5975.25,0.05730
5969.47,0.06031
5963.68,0.05851
5957.89,0.05570
5952.11,0.06073
5946.32,0.05887
5940.54,0.05940
5934.75,0.05863
5928.96,0.05990
5923.18,0.05850
5917.39,0.06015
5911.6,0.05768
5905.82,0.05854
5900.03,0.05779
5894.25,0.05750
5888.46,0.06021
5882.67,0.05962
5876.89,0.05757
5871.1,0.05778
5865.31,0.06039
5859.53,0.05898
5853.74,0.06146
5847.96,0.06167
5842.17,0.05986
5836.38,0.05889
5830.6,0.06194
5824.81,0.05871
5819.02,0.05978
5813.24,0.05693
5807.45,0.05822
5801.67,0.05686
5795.88,0.06046
5790.09,0.06083
5784.31,0.06117
5778.52,0.05850
5772.73,0.05982
5766.95,0.05754
5761.16,0.05910
5755.38,0.06073
5749.59,0.05980
5743.8,0.05939
5738.02,0.05923
5732.23,0.05931
5726.44,0.06178
5720.66,0.05980
5714.87,0.05938
5709.09,0.06015
5703.3,0.05885
5697.51,0.06065
5691.73,0.05990
5685.94,0.05916
5680.15,0.05995
5674.37,0.06045
5668.58,0.05914
5662.8,0.06149
5657.01,0.06148
5651.22,0.06228
5645.44,0.05998
5639.65,0.06315
5633.87,0.06126
5628.08,0.06148
5622.29,0.06231
5616.51,0.05996
5610.72,0.06371
5604.93,0.06064
5599.15,0.06180
5593.36,0.06116
5587.58,0.06092
5581.79,0.06159
5576,0.06024
5570.22,0.05907
5564.43,0.06111
5558.64,0.06143
5552.86,0.06166
5547.07,0.06201
5541.29,0.06283
5535.5,0.05981
5529.71,0.06185
5523.93,0.06160
5518.14,0.06081
5512.35,0.06202
5506.57,0.06168
5500.78,0.06040
5495,0.06224
5489.21,0.06022
5483.42,0.06318
5477.64,0.06109
5471.85,0.06189
5466.06,0.06180
5460.28,0.06124
5454.49,0.06315
5448.71,0.06130
5442.92,0.06308
5437.13,0.06258
5431.35,0.06290
5425.56,0.06263
5419.77,0.06229
5413.99,0.06300
5408.2,0.06213
5402.42,0.06298
5396.63,0.06306
5390.84,0.06184
5385.06,0.06177
5379.27,0.06135
5373.48,0.06230
5367.7,0.06150
5361.91,0.06358
5356.13,0.06087
5350.34,0.06249
5344.55,0.06121
5338.77,0.06288
5332.98,0.06307
5327.19,0.06135
5321.41,0.06197
5315.62,0.06379
5309.84,0.06181
5304.05,0.06328
5298.26,0.06318
5292.48,0.06106
5286.69,0.06332
5280.9,0.06204
5275.12,0.06217
5269.33,0.06122
5263.55,0.06115
5257.76,0.06250
5251.97,0.06226
5246.19,0.06296
5240.4,0.06231
5234.61,0.06359
5228.83,0.06332
5223.04,0.06322
5217.26,0.06324
5211.47,0.06404
5205.68,0.06318
5199.9,0.06100
5194.11,0.06221
5188.32,0.06377
5182.54,0.06360
5176.75,0.06434
5170.97,0.06319
5165.18,0.06360
5159.39,0.06292
5153.61,0.06287
5147.82,0.06222
5142.03,0.06167
5136.25,0.06226
5130.46,0.06156
5124.68,0.06335
5118.89,0.06281
5113.1,0.06263
5107.32,0.06347
5101.53,0.06358
5095.75,0.06210
5089.96,0.06322
5084.17,0.06357
5078.39,0.06436
5072.6,0.06398
5066.81,0.06342
5061.03,0.06392
5055.24,0.06477
5049.46,0.06357
5043.67,0.06351
5037.88,0.06368
5032.1,0.06474
5026.31,0.06337
5020.52,0.06340
5014.74,0.06427
5008.95,0.06368
5003.17,0.06356
4997.38,0.06477
4991.59,0.06353
4985.81,0.06235
4980.02,0.06401
4974.23,0.06341
4968.45,0.06277
4962.66,0.06411
4956.88,0.06411
4951.09,0.06505
4945.3,0.06399
4939.52,0.06509
4933.73,0.06541
4927.94,0.06476
4922.16,0.06482
4916.37,0.06506
4910.59,0.06445
4904.8,0.06398
4899.01,0.06431
4893.23,0.06396
4887.44,0.06467
4881.65,0.06421
4875.87,0.06471
4870.08,0.06565
4864.3,0.06496
4858.51,0.06516
4852.72,0.06553
4846.94,0.06657
4841.15,0.06536
4835.36,0.06494
4829.58,0.06481
4823.79,0.06558
4818.01,0.06439
4812.22,0.06487
4806.43,0.06424
4800.65,0.06549
4794.86,0.06600
4789.07,0.06569
4783.29,0.06540
4777.5,0.06581
4771.72,0.06637
4765.93,0.06594
4760.14,0.06600
4754.36,0.06483
4748.57,0.06558
4742.78,0.06595
4737,0.06602
4731.21,0.06591
4725.43,0.06548
4719.64,0.06574
4713.85,0.06630
4708.07,0.06602
4702.28,0.06560
4696.49,0.06606
4690.71,0.06630
4684.92,0.06684
4679.14,0.06559
4673.35,0.06490
4667.56,0.06520
4661.78,0.06637
4655.99,0.06653
4650.2,0.06707
4644.42,0.06527
4638.63,0.06569
4632.85,0.06572
4627.06,0.06646
4621.27,0.06591
4615.49,0.06636
4609.7,0.06588
4603.92,0.06641
4598.13,0.06635
4592.34,0.06659
4586.56,0.06566
4580.77,0.06579
4574.98,0.06551
4569.2,0.06552
4563.41,0.06502
4557.63,0.06507
4551.84,0.06516
4546.05,0.06503
4540.27,0.06634
4534.48,0.06569
4528.69,0.06562
4522.91,0.06543
4517.12,0.06518
4511.34,0.06477
4505.55,0.06400
4499.76,0.06433
4493.98,0.06531
4488.19,0.06563
4482.4,0.06505
4476.62,0.06414
4470.83,0.06440
4465.05,0.06427
4459.26,0.06305
4453.47,0.06250
4447.69,0.06135
4441.9,0.06103
4436.11,0.06098
4430.33,0.06138
4424.54,0.06164
4418.76,0.06238
4412.97,0.06216
4407.18,0.06154
4401.4,0.06155
4395.61,0.06203
4389.82,0.06203
4384.04,0.06248
4378.25,0.06187
4372.47,0.06185
4366.68,0.06166
4360.89,0.06094
4355.11,0.06083
4349.32,0.06061
4343.53,0.06051
4337.75,0.05941
4331.96,0.05886
4326.18,0.05911
4320.39,0.05864
4314.6,0.05851
4308.82,0.05878
4303.03,0.05793
4297.24,0.05798
4291.46,0.05749
4285.67,0.05738
4279.89,0.05656
4274.1,0.05695
4268.31,0.05745
4262.53,0.05744
4256.74,0.05727
4250.95,0.05882
4245.17,0.06055
4239.38,0.06060
4233.6,0.06049
4227.81,0.06058
4222.02,0.06117
4216.24,0.06203
4210.45,0.06176
4204.66,0.06218
4198.88,0.06187
4193.09,0.06182
4187.31,0.06325
4181.52,0.06234
4175.73,0.06231
4169.95,0.06228
4164.16,0.06262
4158.37,0.06296
4152.59,0.06322
4146.8,0.06239
4141.02,0.06267
4135.23,0.06326
4129.44,0.06424
4123.66,0.06429
4117.87,0.06361
4112.09,0.06320
4106.3,0.06380
4100.51,0.06393
4094.73,0.06368
4088.94,0.06326
4083.15,0.06318
4077.37,0.06271
4071.58,0.06280
4065.8,0.06249
4060.01,0.06243
4054.22,0.06237
4048.44,0.06225
4042.65,0.06180
4036.86,0.06226
4031.08,0.06191
4025.29,0.06199
4019.51,0.06233
4013.72,0.06094
4007.93,0.06232
4002.15,0.06243
3996.36,0.06124
3990.57,0.06183
3984.79,0.06122
3979,0.06214
3973.22,0.06024
3967.43,0.06212
3961.64,0.06223
3955.86,0.06112
3950.07,0.06188
3944.28,0.06215
3938.5,0.06163
3932.71,0.06162
3926.93,0.06183
3921.14,0.06171
3915.35,0.06179
3909.57,0.06196
3903.78,0.06198
3897.99,0.06186
3892.21,0.06247
3886.42,0.06178
3880.64,0.06201
3874.85,0.06142
3869.06,0.06215
3863.28,0.06230
3857.49,0.06213
3851.7,0.06171
3845.92,0.06226
3840.13,0.06185
3834.35,0.06178
3828.56,0.06210
3822.77,0.06163
3816.99,0.06197
3811.2,0.06159
3805.41,0.06229
3799.63,0.06216
3793.84,0.06232
3788.06,0.06231
3782.27,0.06234
3776.48,0.06171
3770.7,0.06223
3764.91,0.06165
3759.12,0.06158
3753.34,0.06070
3747.55,0.06184
3741.77,0.06097
3735.98,0.05995
3730.19,0.05963
3724.41,0.05907
3718.62,0.05770
3712.83,0.05665
3707.05,0.05393
3701.26,0.05076
3695.48,0.04897
3689.69,0.04767
3683.9,0.04621
3678.12,0.04564
3672.33,0.04459
3666.54,0.04465
3660.76,0.04324
3654.97,0.04360
3649.19,0.04321
3643.4,0.04270
3637.61,0.04239
3631.83,0.04248
3626.04,0.04195
3620.25,0.04152
3614.47,0.04156
3608.68,0.04200
3602.9,0.04209
3597.11,0.04124
3591.32,0.04069
3585.54,0.04013
3579.75,0.04026
3573.97,0.03939
3568.18,0.03971
3562.39,0.03952
3556.61,0.03943
3550.82,0.03977
3545.03,0.03861
3539.25,0.03967
3533.46,0.03974
3527.68,0.03864
3521.89,0.03934
3516.1,0.03956
3510.32,0.03907
3504.53,0.03972
3498.74,0.03854
3492.96,0.03878
3487.17,0.03833
3481.39,0.03921
3475.6,0.03849
3469.81,0.03883
3464.03,0.03915
3458.24,0.03913
3452.45,0.03854
3446.67,0.03821
3440.88,0.03936
3435.1,0.03852
3429.31,0.03815
3423.52,0.03828
3417.74,0.03829
3411.95,0.03893
3406.16,0.03808
3400.38,0.03788
3394.59,0.03795
3388.81,0.03802
3383.02,0.03894
3377.23,0.03833
3371.45,0.03866
3365.66,0.03812
3359.87,0.03889
3354.09,0.03833
3348.3,0.03837
3342.52,0.03847
3336.73,0.03910
3330.94,0.03839
3325.16,0.03803
3319.37,0.03938
3313.58,0.03986
3307.8,0.03971
3302.01,0.03926
3296.23,0.03918
3290.44,0.03924
3284.65,0.03934
3278.87,0.03941
3273.08,0.04019
3267.29,0.03970
3261.51,0.04054
3255.72,0.04064
3249.94,0.04033
3244.15,0.04026
3238.36,0.04107
3232.58,0.04136
3226.79,0.04203
3221,0.04124
3215.22,0.04169
3209.43,0.04172
3203.65,0.04203
3197.86,0.04264
3192.07,0.04230
3186.29,0.04320
3180.5,0.04279
3174.71,0.04290
3168.93,0.04336
3163.14,0.04446
3157.36,0.04380
3151.57,0.04384
3145.78,0.04390
3140,0.04455
3134.21,0.04438
3128.42,0.04511
3122.64,0.04519
3116.85,0.04566
3111.07,0.04521
3105.28,0.04521
3099.49,0.04585
3093.71,0.04597
3087.92,0.04622
3082.14,0.04627
3076.35,0.04625
3070.56,0.04603
3064.78,0.04737
3058.99,0.04716
3053.2,0.04716
3047.42,0.04740
3041.63,0.04726
3035.85,0.04771
3030.06,0.04785
3024.27,0.04809
3018.49,0.04850
3012.7,0.04819
3006.91,0.04819
3001.13,0.04809
2995.34,0.04710
2989.56,0.04732
2983.77,0.04691
2977.98,0.04637
2972.2,0.04506
2966.41,0.04377
2960.62,0.04330
2954.84,0.04345
2949.05,0.04319
2943.27,0.04249
2937.48,0.04176
2931.69,0.04177
2925.91,0.04224
2920.12,0.04351
2914.33,0.04500
2908.55,0.04557
2902.76,0.04615
2896.98,0.04691
2891.19,0.04699
2885.4,0.04762
2879.62,0.04753
2873.83,0.04716
2868.04,0.04703
2862.26,0.04706
2856.47,0.04590
2850.69,0.04677
2844.9,0.04959
2839.11,0.05120
2833.33,0.05277
2827.54,0.05295
2821.75,0.05392
2815.97,0.05418
2810.18,0.05427
2804.4,0.05496
2798.61,0.05543
2792.82,0.05580
2787.04,0.05539
2781.25,0.05609
2775.46,0.05652
2769.68,0.05678
2763.89,0.05690
2758.11,0.05664
2752.32,0.05690
2746.53,0.05679
2740.75,0.05715
2734.96,0.05665
2729.17,0.05678
2723.39,0.05637
2717.6,0.05707
2711.82,0.05757
2706.03,0.05760
2700.24,0.05777
2694.46,0.05782
2688.67,0.05766
2682.88,0.05734
2677.1,0.05797
2671.31,0.05842
2665.53,0.05857
2659.74,0.05822
2653.95,0.05869
2648.17,0.05838
2642.38,0.05846
2636.59,0.05855
2630.81,0.05827
2625.02,0.05874
2619.24,0.05866
2613.45,0.05856
2607.66,0.05840
2601.88,0.05862
2596.09,0.05862
2590.3,0.05898
2584.52,0.05911
2578.73,0.05892
2572.95,0.05841
2567.16,0.05908
2561.37,0.05934
2555.59,0.05907
2549.8,0.05903
2544.02,0.05915
2538.23,0.05935
2532.44,0.05911
2526.66,0.05881
2520.87,0.05839
2515.08,0.05865
2509.3,0.05856
2503.51,0.05903
2497.73,0.05903
2491.94,0.05937
2486.15,0.05962
2480.37,0.05985
2474.58,0.05972
2468.79,0.05988
2463.01,0.06042
2457.22,0.06006
2451.44,0.06004
2445.65,0.05998
2439.86,0.05976
2434.08,0.05975
2428.29,0.06004
2422.5,0.05979
2416.72,0.06013
2410.93,0.05953
2405.15,0.05977
2399.36,0.06013
2393.57,0.05957
2387.79,0.05969
2382,0.05929
2376.21,0.05942
2370.43,0.05924
2364.64,0.05927
2358.86,0.05896
2353.07,0.05882
2347.28,0.05840
2341.5,0.05805
2335.71,0.05808
2329.92,0.05819
2324.14,0.05809
2318.35,0.05812
2312.57,0.05821
2306.78,0.05822
2300.99,0.05812
2295.21,0.05771
2289.42,0.05729
2283.63,0.05743
2277.85,0.05776
2272.06,0.05720
2266.28,0.05702
2260.49,0.05676
2254.7,0.05683
2248.92,0.05671
2243.13,0.05619
2237.34,0.05577
2231.56,0.05539
2225.77,0.05507
2219.99,0.05490
2214.2,0.05460
2208.41,0.05409
2202.63,0.05415
2196.84,0.05375
2191.05,0.05333
2185.27,0.05268
2179.48,0.05230
2173.7,0.05180
2167.91,0.05134
2162.12,0.05088
2156.34,0.05042
2150.55,0.05056
2144.76,0.05023
2138.98,0.05027
2133.19,0.04992
2127.41,0.04953
2121.62,0.04943
2115.83,0.04936
2110.05,0.04912
2104.26,0.04889
2098.47,0.04823
2092.69,0.04813
2086.9,0.04775
2081.12,0.04770
2075.33,0.04744
2069.54,0.04710
2063.76,0.04682
2057.97,0.04674
2052.19,0.04651
2046.4,0.04578
2040.61,0.04594
2034.83,0.04606
2029.04,0.04573
2023.25,0.04544
2017.47,0.04543
2011.68,0.04541
2005.9,0.04527
2000.11,0.04542
1994.32,0.04518
1988.54,0.04540
1982.75,0.04563
1976.96,0.04525
1971.18,0.04529
1965.39,0.04537
1959.61,0.04525
1953.82,0.04504
1948.03,0.04528
1942.25,0.04477
1936.46,0.04497
1930.67,0.04493
1924.89,0.04508
1919.1,0.04452
1913.32,0.04437
1907.53,0.04410
1901.74,0.04412
1895.96,0.04413
1890.17,0.04413
1884.38,0.04426
1878.6,0.04403
1872.81,0.04379
1867.03,0.04387
1861.24,0.04393
1855.45,0.04405
1849.67,0.04389
1843.88,0.04411
1838.09,0.04393
1832.31,0.04390
1826.52,0.04364
1820.74,0.04337
1814.95,0.04322
1809.16,0.04273
1803.38,0.04204
1797.59,0.04130
1791.8,0.04116
1786.02,0.04133
1780.23,0.04113
1774.45,0.04114
1768.66,0.04110
1762.87,0.04068
1757.09,0.04048
1751.3,0.04014
1745.51,0.03992
1739.73,0.04005
1733.94,0.03978
1728.16,0.03975
1722.37,0.03944
1716.58,0.03916
1710.8,0.03919
1705.01,0.03888
1699.22,0.03902
1693.44,0.03872
1687.65,0.03847
1681.87,0.03858
1676.08,0.03835
1670.29,0.03934
1664.51,0.03894
1658.72,0.03958
1652.93,0.03971
1647.15,0.03946
1641.36,0.03963
1635.58,0.03987
1629.79,0.04002
1624,0.04013
1618.22,0.03981
1612.43,0.04004
1606.64,0.04061
1600.86,0.04075
1595.07,0.04120
1589.29,0.04194
1583.5,0.04268
1577.71,0.04357
1571.93,0.04493
1566.14,0.04612
1560.35,0.04748
1554.57,0.04857
1548.78,0.04934
1543,0.04931
1537.21,0.04924
1531.42,0.04811
1525.64,0.04801
1519.85,0.04752
1514.07,0.04699
1508.28,0.04684
1502.49,0.04576
1496.71,0.04554
1490.92,0.04477
1485.13,0.04391
1479.35,0.04332
1473.56,0.04220
1467.78,0.04038
1461.99,0.03986
1456.2,0.03985
1450.42,0.04023
1444.63,0.04023
1438.84,0.04008
1433.06,0.04038
1427.27,0.04022
1421.49,0.04005
1415.7,0.03985
1409.91,0.03982
1404.13,0.03930
1398.34,0.03912
1392.55,0.03858
1386.77,0.03809
1380.98,0.03760
1375.2,0.03784
1369.41,0.03772
1363.62,0.03830
1357.84,0.03833
1352.05,0.03860
1346.26,0.03868
1340.48,0.03795
1334.69,0.03804
1328.91,0.03814
1323.12,0.03768
1317.33,0.03689
1311.55,0.03732
1305.76,0.03713
1299.97,0.03710
1294.19,0.03674
1288.4,0.03675
1282.62,0.03650
1276.83,0.03610
1271.04,0.03555
1265.26,0.03515
1259.47,0.03462
1253.68,0.03402
1247.9,0.03345
1242.11,0.03315
1236.33,0.03404
1230.54,0.03426
1224.75,0.03451
1218.97,0.03540
1213.18,0.03606
1207.39,0.03588
1201.61,0.03581
1195.82,0.03671
1190.04,0.03676
1184.25,0.03656
1178.46,0.03659
1172.68,0.03704
1166.89,0.03778
1161.1,0.03812
1155.32,0.03914
1149.53,0.04074
1143.75,0.04177
1137.96,0.04373
1132.17,0.04495
1126.39,0.04734
1120.6,0.04962
1114.81,0.05218
1109.03,0.05349
1103.24,0.05633
1097.46,0.05846
1091.67,0.06093
1085.88,0.06179
1080.1,0.06227
1074.31,0.06271
1068.52,0.06403
1062.74,0.06431
1056.95,0.06469
1051.17,0.06576
1045.38,0.06703
1039.59,0.06914
1033.81,0.07153
1028.02,0.07112
1022.24,0.06983
1016.45,0.06964
1010.66,0.07298
1004.88,0.07482
999.09,0.07526
993.304,0.07484
987.518,0.07532
981.731,0.07451
975.945,0.07421
970.159,0.07256
964.373,0.07213
958.586,0.07251
952.8,0.07231
947.014,0.07214
941.228,0.07081
935.441,0.06865
929.655,0.06559
923.869,0.06408
918.083,0.06322
912.297,0.06302
906.51,0.06303
900.724,0.06273
894.938,0.06239
889.152,0.06303
883.365,0.06080
877.579,0.05889
871.793,0.05752
866.007,0.05630
860.22,0.05503
854.434,0.05376
848.648,0.05217
842.862,0.05082
837.075,0.05058
831.289,0.04859
825.503,0.04801
819.717,0.04676
813.931,0.04699
808.144,0.04569
802.358,0.04587
796.572,0.04633
790.786,0.04614
784.999,0.04654
779.213,0.04554
773.427,0.04594
767.641,0.04508
761.854,0.04574
756.068,0.04683
750.282,0.04664
744.496,0.04742
738.709,0.04621
732.923,0.04607
727.137,0.04592
721.351,0.04595
715.565,0.04537
709.778,0.04516
703.992,0.04508
698.206,0.04385
692.42,0.04347
686.633,0.04545
680.847,0.04458
675.061,0.04497
669.275,0.04514
663.488,0.04358
657.702,0.04484
651.916,0.04588
646.13,0.04706
640.343,0.04783
634.557,0.04471
628.771,0.04386
622.985,0.04340
617.198,0.04569
611.412,0.04399
605.626,0.04344
599.84,0.04338