File: 01_Data/Asphalt_Shingle/FTIR/IS/Asphalt_Shingle_IS_S_220831_R6.dpt
7497.03,0.06421
7491.25,0.05816
7485.46,0.05977
7479.67,0.06726
7473.89,0.05931
7468.1,0.05794
7462.32,0.05963
7456.53,0.06423
7450.74,0.05544
7444.96,0.06166
7439.17,0.05786
7433.38,0.05294
7427.6,0.06244
7421.81,0.05819
7416.03,0.06115
7410.24,0.05211
7404.45,0.05218
7398.67,0.06089
7392.88,0.05207
7387.09,0.05069
7381.31,0.05678
7375.52,0.05594
7369.74,0.05422
7363.95,0.05231
7358.16,0.05389
7352.38,0.06008
7346.59,0.05615
7340.8,0.06588
7335.02,0.04934
7329.23,0.05731
7323.45,0.05694
7317.66,0.05027
7311.87,0.05234
7306.09,0.05510
7300.3,0.04794
7294.51,0.05005
7288.73,0.05603
7282.94,0.05301
7277.16,0.06171
7271.37,0.04630
7265.58,0.04755
7259.8,0.06088
7254.01,0.05186
7248.22,0.05567
7242.44,0.05601
7236.65,0.05951
7230.87,0.05702
7225.08,0.06189
7219.29,0.05853
7213.51,0.05469
7207.72,0.05259
7201.93,0.05590
7196.15,0.05296
7190.36,0.05237
7184.58,0.05727
7178.79,0.05095
7173,0.05461
7167.22,0.05567
7161.43,0.06028
7155.65,0.05216
7149.86,0.05583
7144.07,0.05421
7138.29,0.05481
7132.5,0.05844
7126.71,0.05710
7120.93,0.05106
7115.14,0.04789
7109.36,0.05271
7103.57,0.05480
7097.78,0.05135
7092,0.05460
7086.21,0.05320
7080.42,0.05942
7074.64,0.05940
7068.85,0.05884
7063.07,0.05811
7057.28,0.05183
7051.49,0.06245
7045.71,0.06103
7039.92,0.06596
7034.13,0.06083
7028.35,0.05633
7022.56,0.05754
7016.78,0.06215
7010.99,0.05471
7005.2,0.05885
6999.42,0.06101
6993.63,0.06078
6987.84,0.05670
6982.06,0.05842
6976.27,0.06204
6970.49,0.05655
6964.7,0.05828
6958.91,0.05743
6953.13,0.05790
6947.34,0.06106
6941.55,0.05805
6935.77,0.05744
6929.98,0.06016
6924.2,0.05613
6918.41,0.05935
6912.62,0.05923
6906.84,0.06008
6901.05,0.05851
6895.26,0.05795
6889.48,0.05318
6883.69,0.05584
6877.91,0.05962
6872.12,0.05767
6866.33,0.05921
6860.55,0.05875
6854.76,0.05618
6848.97,0.05421
6843.19,0.05666
6837.4,0.05753
6831.62,0.05776
6825.83,0.05554
6820.04,0.05616
6814.26,0.05728
6808.47,0.05694
6802.68,0.05637
6796.9,0.05375
6791.11,0.05874
6785.33,0.05814
6779.54,0.05533
6773.75,0.05357
6767.97,0.05718
6762.18,0.05417
6756.39,0.05393
6750.61,0.05556
6744.82,0.05635
6739.04,0.05810
6733.25,0.05768
6727.46,0.05789
6721.68,0.05845
6715.89,0.05552
6710.1,0.05462
6704.32,0.05703
6698.53,0.05976
6692.75,0.05704
6686.96,0.05371
6681.17,0.05676
6675.39,0.05573
6669.6,0.05315
6663.82,0.05976
6658.03,0.05728
6652.24,0.05920
6646.46,0.05552
6640.67,0.05523
6634.88,0.05462
6629.1,0.05339
6623.31,0.05606
6617.53,0.05726
6611.74,0.05846
6605.95,0.05858
6600.17,0.05439
6594.38,0.05799
6588.59,0.05494
6582.81,0.05627
6577.02,0.06078
6571.24,0.05691
6565.45,0.05753
6559.66,0.05646
6553.88,0.05545
6548.09,0.05950
6542.3,0.05592
6536.52,0.05489
6530.73,0.05789
6524.95,0.05499
6519.16,0.05580
6513.37,0.05965
6507.59,0.06468
6501.8,0.05972
6496.01,0.05535
6490.23,0.05461
6484.44,0.05481
6478.66,0.05637
6472.87,0.05615
6467.08,0.05440
6461.3,0.05884
6455.51,0.05696
6449.72,0.05691
6443.94,0.05583
6438.15,0.05335
6432.37,0.05787
6426.58,0.05514
6420.79,0.05918
6415.01,0.05465
6409.22,0.05291
6403.43,0.05443
6397.65,0.05695
6391.86,0.05510
6386.08,0.05855
6380.29,0.05316
6374.5,0.05679
6368.72,0.05719
6362.93,0.05792
6357.14,0.05519
6351.36,0.05655
6345.57,0.05952
6339.79,0.05336
6334,0.06161
6328.21,0.05868
6322.43,0.05739
6316.64,0.06009
6310.85,0.05708
6305.07,0.05419
6299.28,0.05621
6293.5,0.05848
6287.71,0.05958
6281.92,0.05505
6276.14,0.05848
6270.35,0.05613
6264.56,0.05815
6258.78,0.05614
6252.99,0.05853
6247.21,0.05820
6241.42,0.05684
6235.63,0.05835
6229.85,0.05767
6224.06,0.05982
6218.27,0.05915
6212.49,0.05734
6206.7,0.05693
6200.92,0.05811
6195.13,0.05777
6189.34,0.05866
6183.56,0.05932
6177.77,0.05865
6171.98,0.05659
6166.2,0.05585
6160.41,0.05589
6154.63,0.05452
6148.84,0.05622
6143.05,0.05998
6137.27,0.05997
6131.48,0.05679
6125.7,0.06082
6119.91,0.06027
6114.12,0.06060
6108.34,0.05629
6102.55,0.05715
6096.76,0.05767
6090.98,0.05969
6085.19,0.05772
6079.41,0.05710
6073.62,0.05776
6067.83,0.05831
6062.05,0.05980
6056.26,0.06074
6050.47,0.05870
6044.69,0.06016
6038.9,0.06135
6033.12,0.06024
6027.33,0.05694
6021.54,0.05730
6015.76,0.05915
6009.97,0.05885
6004.18,0.05969
5998.4,0.05972
5992.61,0.05818
5986.83,0.05872
5981.04,0.05852
5975.25,0.05731
5969.47,0.05871
5963.68,0.05943
5957.89,0.05841
5952.11,0.05884
5946.32,0.06008
5940.54,0.05889
5934.75,0.05839
5928.96,0.05824
5923.18,0.05745
5917.39,0.05992
5911.6,0.05724
5905.82,0.05775
5900.03,0.05693
5894.25,0.05741
5888.46,0.05939
5882.67,0.05721
5876.89,0.05998
5871.1,0.06194
5865.31,0.06186
5859.53,0.06318
5853.74,0.06137
5847.96,0.05866
5842.17,0.06003
5836.38,0.06130
5830.6,0.05940
5824.81,0.06077
5819.02,0.06029
5813.24,0.05856
5807.45,0.06159
5801.67,0.06049
5795.88,0.05826
5790.09,0.05800
5784.31,0.06016
5778.52,0.05866
5772.73,0.05950
5766.95,0.06010
5761.16,0.05987
5755.38,0.06264
5749.59,0.06066
5743.8,0.05852
5738.02,0.05857
5732.23,0.05985
5726.44,0.06063
5720.66,0.06031
5714.87,0.05829
5709.09,0.05811
5703.3,0.06066
5697.51,0.06079
5691.73,0.05977
5685.94,0.05930
5680.15,0.05986
5674.37,0.05976
5668.58,0.06115
5662.8,0.06375
5657.01,0.06151
5651.22,0.06220
5645.44,0.06221
5639.65,0.06172
5633.87,0.06076
5628.08,0.06251
5622.29,0.06126
5616.51,0.06078
5610.72,0.06073
5604.93,0.06083
5599.15,0.05984
5593.36,0.06129
5587.58,0.06085
5581.79,0.06050
5576,0.06178
5570.22,0.06196
5564.43,0.06186
5558.64,0.06263
5552.86,0.06200
5547.07,0.06238
5541.29,0.06142
5535.5,0.06178
5529.71,0.06155
5523.93,0.06266
5518.14,0.06179
5512.35,0.06254
5506.57,0.06165
5500.78,0.06174
5495,0.06225
5489.21,0.06071
5483.42,0.06015
5477.64,0.06191
5471.85,0.06353
5466.06,0.06301
5460.28,0.06362
5454.49,0.06109
5448.71,0.06043
5442.92,0.06169
5437.13,0.06163
5431.35,0.06255
5425.56,0.06173
5419.77,0.06342
5413.99,0.06166
5408.2,0.06233
5402.42,0.06231
5396.63,0.06393
5390.84,0.06243
5385.06,0.06315
5379.27,0.06221
5373.48,0.06371
5367.7,0.06353
5361.91,0.06211
5356.13,0.06207
5350.34,0.06053
5344.55,0.06202
5338.77,0.06047
5332.98,0.06237
5327.19,0.06095
5321.41,0.06134
5315.62,0.06256
5309.84,0.06172
5304.05,0.06169
5298.26,0.06330
5292.48,0.06281
5286.69,0.06149
5280.9,0.06204
5275.12,0.06261
5269.33,0.06335
5263.55,0.06391
5257.76,0.06214
5251.97,0.06249
5246.19,0.06272
5240.4,0.06285
5234.61,0.06178
5228.83,0.06200
5223.04,0.06299
5217.26,0.06276
5211.47,0.06341
5205.68,0.06276
5199.9,0.06363
5194.11,0.06269
5188.32,0.06214
5182.54,0.06244
5176.75,0.06414
5170.97,0.06290
5165.18,0.06317
5159.39,0.06294
5153.61,0.06404
5147.82,0.06300
5142.03,0.06187
5136.25,0.06311
5130.46,0.06338
5124.68,0.06352
5118.89,0.06248
5113.1,0.06289
5107.32,0.06310
5101.53,0.06246
5095.75,0.06358
5089.96,0.06367
5084.17,0.06373
5078.39,0.06320
5072.6,0.06322
5066.81,0.06352
5061.03,0.06426
5055.24,0.06305
5049.46,0.06506
5043.67,0.06471
5037.88,0.06451
5032.1,0.06267
5026.31,0.06345
5020.52,0.06320
5014.74,0.06373
5008.95,0.06270
5003.17,0.06300
4997.38,0.06277
4991.59,0.06273
4985.81,0.06299
4980.02,0.06494
4974.23,0.06370
4968.45,0.06432
4962.66,0.06289
4956.88,0.06395
4951.09,0.06409
4945.3,0.06391
4939.52,0.06460
4933.73,0.06460
4927.94,0.06530
4922.16,0.06433
4916.37,0.06405
4910.59,0.06479
4904.8,0.06518
4899.01,0.06493
4893.23,0.06499
4887.44,0.06559
4881.65,0.06423
4875.87,0.06544
4870.08,0.06456
4864.3,0.06537
4858.51,0.06434
4852.72,0.06569
4846.94,0.06620
4841.15,0.06470
4835.36,0.06436
4829.58,0.06537
4823.79,0.06517
4818.01,0.06639
4812.22,0.06604
4806.43,0.06517
4800.65,0.06450
4794.86,0.06521
4789.07,0.06703
4783.29,0.06540
4777.5,0.06548
4771.72,0.06554
4765.93,0.06585
4760.14,0.06585
4754.36,0.06539
4748.57,0.06549
4742.78,0.06471
4737,0.06491
4731.21,0.06520
4725.43,0.06466
4719.64,0.06538
4713.85,0.06539
4708.07,0.06619
4702.28,0.06596
4696.49,0.06567
4690.71,0.06679
4684.92,0.06584
4679.14,0.06650
4673.35,0.06521
4667.56,0.06511
4661.78,0.06550
4655.99,0.06535
4650.2,0.06625
4644.42,0.06555
4638.63,0.06564
4632.85,0.06556
4627.06,0.06546
4621.27,0.06540
4615.49,0.06594
4609.7,0.06552
4603.92,0.06578
4598.13,0.06532
4592.34,0.06526
4586.56,0.06553
4580.77,0.06562
4574.98,0.06591
4569.2,0.06611
4563.41,0.06582
4557.63,0.06584
4551.84,0.06608
4546.05,0.06529
4540.27,0.06465
4534.48,0.06536
4528.69,0.06460
4522.91,0.06553
4517.12,0.06588
4511.34,0.06540
4505.55,0.06525
4499.76,0.06554
4493.98,0.06511
4488.19,0.06579
4482.4,0.06460
4476.62,0.06462
4470.83,0.06431
4465.05,0.06411
4459.26,0.06313
4453.47,0.06216
4447.69,0.06171
4441.9,0.06134
4436.11,0.06182
4430.33,0.06127
4424.54,0.06145
4418.76,0.06181
4412.97,0.06197
4407.18,0.06247
4401.4,0.06224
4395.61,0.06189
4389.82,0.06211
4384.04,0.06142
4378.25,0.06181
4372.47,0.06121
4366.68,0.06171
4360.89,0.06101
4355.11,0.06102
4349.32,0.05986
4343.53,0.06026
4337.75,0.06031
4331.96,0.05891
4326.18,0.05864
4320.39,0.05753
4314.6,0.05840
4308.82,0.05790
4303.03,0.05746
4297.24,0.05771
4291.46,0.05667
4285.67,0.05670
4279.89,0.05637
4274.1,0.05713
4268.31,0.05718
4262.53,0.05730
4256.74,0.05792
4250.95,0.05833
4245.17,0.05865
4239.38,0.05922
4233.6,0.06058
4227.81,0.06099
4222.02,0.06124
4216.24,0.06160
4210.45,0.06144
4204.66,0.06103
4198.88,0.06178
4193.09,0.06245
4187.31,0.06190
4181.52,0.06218
4175.73,0.06230
4169.95,0.06255
4164.16,0.06326
4158.37,0.06339
4152.59,0.06352
4146.8,0.06291
4141.02,0.06322
4135.23,0.06345
4129.44,0.06329
4123.66,0.06364
4117.87,0.06414
4112.09,0.06407
4106.3,0.06363
4100.51,0.06385
4094.73,0.06331
4088.94,0.06306
4083.15,0.06297
4077.37,0.06216
4071.58,0.06274
4065.8,0.06238
4060.01,0.06281
4054.22,0.06179
4048.44,0.06271
4042.65,0.06282
4036.86,0.06160
4031.08,0.06184
4025.29,0.06171
4019.51,0.06179
4013.72,0.06204
4007.93,0.06199
4002.15,0.06178
3996.36,0.06145
3990.57,0.06203
3984.79,0.06214
3979,0.06177
3973.22,0.06252
3967.43,0.06176
3961.64,0.06178
3955.86,0.06158
3950.07,0.06178
3944.28,0.06179
3938.5,0.06201
3932.71,0.06157
3926.93,0.06147
3921.14,0.06189
3915.35,0.06171
3909.57,0.06194
3903.78,0.06198
3897.99,0.06153
3892.21,0.06208
3886.42,0.06210
3880.64,0.06173
3874.85,0.06204
3869.06,0.06110
3863.28,0.06157
3857.49,0.06142
3851.7,0.06121
3845.92,0.06150
3840.13,0.06228
3834.35,0.06187
3828.56,0.06225
3822.77,0.06243
3816.99,0.06283
3811.2,0.06225
3805.41,0.06198
3799.63,0.06230
3793.84,0.06192
3788.06,0.06205
3782.27,0.06253
3776.48,0.06179
3770.7,0.06160
3764.91,0.06199
3759.12,0.06196
3753.34,0.06146
3747.55,0.06091
3741.77,0.06054
3735.98,0.06035
3730.19,0.05971
3724.41,0.05898
3718.62,0.05791
3712.83,0.05642
3707.05,0.05424
3701.26,0.05102
3695.48,0.04951
3689.69,0.04802
3683.9,0.04621
3678.12,0.04517
3672.33,0.04378
3666.54,0.04462
3660.76,0.04402
3654.97,0.04380
3649.19,0.04293
3643.4,0.04261
3637.61,0.04296
3631.83,0.04283
3626.04,0.04219
3620.25,0.04137
3614.47,0.04180
3608.68,0.04139
3602.9,0.04151
3597.11,0.04136
3591.32,0.04083
3585.54,0.04092
3579.75,0.04013
3573.97,0.03993
3568.18,0.03981
3562.39,0.03949
3556.61,0.03948
3550.82,0.03952
3545.03,0.03936
3539.25,0.04009
3533.46,0.03967
3527.68,0.03976
3521.89,0.03955
3516.1,0.03942
3510.32,0.03959
3504.53,0.03904
3498.74,0.03857
3492.96,0.03930
3487.17,0.03924
3481.39,0.03841
3475.6,0.03940
3469.81,0.03871
3464.03,0.03914
3458.24,0.03879
3452.45,0.03919
3446.67,0.03851
3440.88,0.03829
3435.1,0.03836
3429.31,0.03850
3423.52,0.03826
3417.74,0.03784
3411.95,0.03839
3406.16,0.03879
3400.38,0.03871
3394.59,0.03870
3388.81,0.03834
3383.02,0.03846
3377.23,0.03820
3371.45,0.03836
3365.66,0.03877
3359.87,0.03863
3354.09,0.03795
3348.3,0.03819
3342.52,0.03897
3336.73,0.03951
3330.94,0.03920
3325.16,0.03904
3319.37,0.03927
3313.58,0.03877
3307.8,0.03977
3302.01,0.03956
3296.23,0.03987
3290.44,0.03954
3284.65,0.03951
3278.87,0.03992
3273.08,0.03983
3267.29,0.03991
3261.51,0.03996
3255.72,0.04017
3249.94,0.04056
3244.15,0.04085
3238.36,0.04084
3232.58,0.04151
3226.79,0.04127
3221,0.04183
3215.22,0.04140
3209.43,0.04220
3203.65,0.04214
3197.86,0.04264
3192.07,0.04274
3186.29,0.04277
3180.5,0.04322
3174.71,0.04300
3168.93,0.04309
3163.14,0.04399
3157.36,0.04405
3151.57,0.04419
3145.78,0.04366
3140,0.04443
3134.21,0.04509
3128.42,0.04504
3122.64,0.04500
3116.85,0.04532
3111.07,0.04558
3105.28,0.04583
3099.49,0.04619
3093.71,0.04676
3087.92,0.04689
3082.14,0.04639
3076.35,0.04666
3070.56,0.04639
3064.78,0.04660
3058.99,0.04659
3053.2,0.04729
3047.42,0.04752
3041.63,0.04762
3035.85,0.04759
3030.06,0.04758
3024.27,0.04751
3018.49,0.04775
3012.7,0.04779
3006.91,0.04734
3001.13,0.04733
2995.34,0.04738
2989.56,0.04725
2983.77,0.04647
2977.98,0.04606
2972.2,0.04527
2966.41,0.04392
2960.62,0.04312
2954.84,0.04297
2949.05,0.04352
2943.27,0.04237
2937.48,0.04224
2931.69,0.04167
2925.91,0.04114
2920.12,0.04311
2914.33,0.04534
2908.55,0.04568
2902.76,0.04594
2896.98,0.04640
2891.19,0.04762
2885.4,0.04771
2879.62,0.04798
2873.83,0.04692
2868.04,0.04736
2862.26,0.04689
2856.47,0.04620
2850.69,0.04660
2844.9,0.04938
2839.11,0.05123
2833.33,0.05208
2827.54,0.05310
2821.75,0.05359
2815.97,0.05386
2810.18,0.05443
2804.4,0.05483
2798.61,0.05472
2792.82,0.05506
2787.04,0.05501
2781.25,0.05596
2775.46,0.05626
2769.68,0.05643
2763.89,0.05671
2758.11,0.05684
2752.32,0.05681
2746.53,0.05684
2740.75,0.05677
2734.96,0.05693
2729.17,0.05676
2723.39,0.05740
2717.6,0.05758
2711.82,0.05708
2706.03,0.05731
2700.24,0.05775
2694.46,0.05757
2688.67,0.05822
2682.88,0.05801
2677.1,0.05796
2671.31,0.05812
2665.53,0.05822
2659.74,0.05869
2653.95,0.05847
2648.17,0.05873
2642.38,0.05840
2636.59,0.05888
2630.81,0.05836
2625.02,0.05876
2619.24,0.05866
2613.45,0.05840
2607.66,0.05855
2601.88,0.05878
2596.09,0.05886
2590.3,0.05912
2584.52,0.05908
2578.73,0.05927
2572.95,0.05882
2567.16,0.05906
2561.37,0.05910
2555.59,0.05918
2549.8,0.05904
2544.02,0.05870
2538.23,0.05930
2532.44,0.05892
2526.66,0.05814
2520.87,0.05831
2515.08,0.05808
2509.3,0.05765
2503.51,0.05851
2497.73,0.05877
2491.94,0.05912
2486.15,0.05924
2480.37,0.05934
2474.58,0.05968
2468.79,0.06001
2463.01,0.06008
2457.22,0.06004
2451.44,0.05997
2445.65,0.06014
2439.86,0.06007
2434.08,0.06041
2428.29,0.06014
2422.5,0.05978
2416.72,0.05970
2410.93,0.05971
2405.15,0.06009
2399.36,0.05960
2393.57,0.06019
2387.79,0.05947
2382,0.05918
2376.21,0.05922
2370.43,0.05939
2364.64,0.05884
2358.86,0.05892
2353.07,0.05863
2347.28,0.05813
2341.5,0.05816
2335.71,0.05849
2329.92,0.05826
2324.14,0.05789
2318.35,0.05807
2312.57,0.05819
2306.78,0.05823
2300.99,0.05802
2295.21,0.05792
2289.42,0.05758
2283.63,0.05762
2277.85,0.05751
2272.06,0.05712
2266.28,0.05678
2260.49,0.05661
2254.7,0.05651
2248.92,0.05623
2243.13,0.05607
2237.34,0.05559
2231.56,0.05547
2225.77,0.05518
2219.99,0.05453
2214.2,0.05469
2208.41,0.05426
2202.63,0.05377
2196.84,0.05340
2191.05,0.05335
2185.27,0.05269
2179.48,0.05221
2173.7,0.05168
2167.91,0.05117
2162.12,0.05111
2156.34,0.05079
2150.55,0.05078
2144.76,0.05018
2138.98,0.05013
2133.19,0.04981
2127.41,0.04962
2121.62,0.04953
2115.83,0.04955
2110.05,0.04917
2104.26,0.04889
2098.47,0.04822
2092.69,0.04790
2086.9,0.04751
2081.12,0.04786
2075.33,0.04755
2069.54,0.04731
2063.76,0.04722
2057.97,0.04711
2052.19,0.04636
2046.4,0.04614
2040.61,0.04546
2034.83,0.04534
2029.04,0.04571
2023.25,0.04556
2017.47,0.04526
2011.68,0.04497
2005.9,0.04499
2000.11,0.04533
1994.32,0.04516
1988.54,0.04524
1982.75,0.04552
1976.96,0.04519
1971.18,0.04506
1965.39,0.04521
1959.61,0.04489
1953.82,0.04539
1948.03,0.04505
1942.25,0.04531
1936.46,0.04480
1930.67,0.04505
1924.89,0.04455
1919.1,0.04432
1913.32,0.04416
1907.53,0.04402
1901.74,0.04402
1895.96,0.04409
1890.17,0.04427
1884.38,0.04427
1878.6,0.04375
1872.81,0.04380
1867.03,0.04377
1861.24,0.04399
1855.45,0.04393
1849.67,0.04377
1843.88,0.04386
1838.09,0.04368
1832.31,0.04349
1826.52,0.04336
1820.74,0.04329
1814.95,0.04278
1809.16,0.04254
1803.38,0.04209
1797.59,0.04090
1791.8,0.04105
1786.02,0.04102
1780.23,0.04091
1774.45,0.04136
1768.66,0.04090
1762.87,0.04065
1757.09,0.04011
1751.3,0.04044
1745.51,0.03974
1739.73,0.03969
1733.94,0.03975
1728.16,0.03948
1722.37,0.03947
1716.58,0.03949
1710.8,0.03907
1705.01,0.03868
1699.22,0.03884
1693.44,0.03857
1687.65,0.03863
1681.87,0.03860
1676.08,0.03850
1670.29,0.03871
1664.51,0.03947
1658.72,0.03925
1652.93,0.03928
1647.15,0.03948
1641.36,0.04007
1635.58,0.03995
1629.79,0.04003
1624,0.03984
1618.22,0.04016
1612.43,0.04011
1606.64,0.04034
1600.86,0.04092
1595.07,0.04131
1589.29,0.04190
1583.5,0.04228
1577.71,0.04359
1571.93,0.04465
1566.14,0.04589
1560.35,0.04751
1554.57,0.04874
1548.78,0.04930
1543,0.04928
1537.21,0.04833
1531.42,0.04849
1525.64,0.04806
1519.85,0.04765
1514.07,0.04666
1508.28,0.04660
1502.49,0.04561
1496.71,0.04533
1490.92,0.04488
1485.13,0.04399
1479.35,0.04300
1473.56,0.04167
1467.78,0.04017
1461.99,0.04002
1456.2,0.04005
1450.42,0.04024
1444.63,0.04011
1438.84,0.04071
1433.06,0.04048
1427.27,0.04017
1421.49,0.04000
1415.7,0.04035
1409.91,0.04030
1404.13,0.03925
1398.34,0.03860
1392.55,0.03845
1386.77,0.03784
1380.98,0.03771
1375.2,0.03744
1369.41,0.03792
1363.62,0.03827
1357.84,0.03830
1352.05,0.03856
1346.26,0.03805
1340.48,0.03790
1334.69,0.03788
1328.91,0.03759
1323.12,0.03746
1317.33,0.03725
1311.55,0.03697
1305.76,0.03701
1299.97,0.03704
1294.19,0.03703
1288.4,0.03645
1282.62,0.03615
1276.83,0.03552
1271.04,0.03538
1265.26,0.03478
1259.47,0.03417
1253.68,0.03372
1247.9,0.03326
1242.11,0.03361
1236.33,0.03384
1230.54,0.03433
1224.75,0.03475
1218.97,0.03549
1213.18,0.03556
1207.39,0.03573
1201.61,0.03634
1195.82,0.03651
1190.04,0.03606
1184.25,0.03693
1178.46,0.03694
1172.68,0.03720
1166.89,0.03715
1161.1,0.03850
1155.32,0.03955
1149.53,0.04129
1143.75,0.04183
1137.96,0.04304
1132.17,0.04518
1126.39,0.04722
1120.6,0.05020
1114.81,0.05170
1109.03,0.05417
1103.24,0.05650
1097.46,0.05855
1091.67,0.06066
1085.88,0.06142
1080.1,0.06247
1074.31,0.06334
1068.52,0.06399
1062.74,0.06431
1056.95,0.06467
1051.17,0.06571
1045.38,0.06710
1039.59,0.06953
1033.81,0.07127
1028.02,0.07108
1022.24,0.06899
1016.45,0.06981
1010.66,0.07238
1004.88,0.07462
999.09,0.07475
993.304,0.07488
987.518,0.07458
981.731,0.07404
975.945,0.07357
970.159,0.07292
964.373,0.07307
958.586,0.07228
952.8,0.07270
947.014,0.07174
941.228,0.07045
935.441,0.06816
929.655,0.06587
923.869,0.06402
918.083,0.06264
912.297,0.06319
906.51,0.06301
900.724,0.06298
894.938,0.06267
889.152,0.06289
883.365,0.06050
877.579,0.05898
871.793,0.05702
866.007,0.05615
860.22,0.05501
854.434,0.05389
848.648,0.05207
842.862,0.05065
837.075,0.05023
831.289,0.04886
825.503,0.04749
819.717,0.04707
813.931,0.04678
808.144,0.04564
802.358,0.04622
796.572,0.04646
790.786,0.04486
784.999,0.04568
779.213,0.04588
773.427,0.04524
767.641,0.04530
761.854,0.04651
756.068,0.04684
750.282,0.04637
744.496,0.04668
738.709,0.04724
732.923,0.04681
727.137,0.04619
721.351,0.04568
715.565,0.04438
709.778,0.04387
703.992,0.04353
698.206,0.04402
692.42,0.04386
686.633,0.04464
680.847,0.04565
675.061,0.04494
669.275,0.04401
663.488,0.04426
657.702,0.04610
651.916,0.04529
646.13,0.04672
640.343,0.04621
634.557,0.04390
628.771,0.04330
622.985,0.04240
617.198,0.04129
611.412,0.04199
605.626,0.04196
599.84,0.04308