File: 01_Data/Asphalt_Shingle/FTIR/IS/Asphalt_Shingle_IS_S_220831_R4.dpt
7497.03,0.06475
7491.25,0.05844
7485.46,0.05698
7479.67,0.05748
7473.89,0.05539
7468.1,0.05442
7462.32,0.05901
7456.53,0.04533
7450.74,0.05784
7444.96,0.05179
7439.17,0.04471
7433.38,0.05523
7427.6,0.05322
7421.81,0.05812
7416.03,0.05652
7410.24,0.05993
7404.45,0.05480
7398.67,0.06045
7392.88,0.05869
7387.09,0.05435
7381.31,0.05377
7375.52,0.05055
7369.74,0.05745
7363.95,0.05771
7358.16,0.05241
7352.38,0.05600
7346.59,0.05334
7340.8,0.05891
7335.02,0.05456
7329.23,0.06227
7323.45,0.05646
7317.66,0.05888
7311.87,0.05816
7306.09,0.06411
7300.3,0.06110
7294.51,0.05783
7288.73,0.06097
7282.94,0.05595
7277.16,0.05813
7271.37,0.05431
7265.58,0.05373
7259.8,0.05860
7254.01,0.06171
7248.22,0.05790
7242.44,0.06400
7236.65,0.05792
7230.87,0.05524
7225.08,0.05524
7219.29,0.05853
7213.51,0.05472
7207.72,0.05015
7201.93,0.05546
7196.15,0.05070
7190.36,0.05524
7184.58,0.05526
7178.79,0.05558
7173,0.06103
7167.22,0.06054
7161.43,0.05330
7155.65,0.05153
7149.86,0.05353
7144.07,0.05419
7138.29,0.05392
7132.5,0.05116
7126.71,0.05456
7120.93,0.06212
7115.14,0.05696
7109.36,0.05948
7103.57,0.05558
7097.78,0.04857
7092,0.05354
7086.21,0.04813
7080.42,0.05559
7074.64,0.05336
7068.85,0.05014
7063.07,0.05153
7057.28,0.05300
7051.49,0.05919
7045.71,0.05887
7039.92,0.06324
7034.13,0.05313
7028.35,0.05677
7022.56,0.05584
7016.78,0.05489
7010.99,0.04997
7005.2,0.05960
6999.42,0.05557
6993.63,0.05527
6987.84,0.05497
6982.06,0.05323
6976.27,0.06065
6970.49,0.05381
6964.7,0.05365
6958.91,0.06541
6953.13,0.05356
6947.34,0.05786
6941.55,0.05943
6935.77,0.05548
6929.98,0.05321
6924.2,0.05553
6918.41,0.05311
6912.62,0.06288
6906.84,0.05054
6901.05,0.06492
6895.26,0.05540
6889.48,0.05318
6883.69,0.05958
6877.91,0.05445
6872.12,0.05759
6866.33,0.05505
6860.55,0.06510
6854.76,0.05643
6848.97,0.06602
6843.19,0.05893
6837.4,0.05622
6831.62,0.05876
6825.83,0.05496
6820.04,0.06208
6814.26,0.05122
6808.47,0.05177
6802.68,0.05527
6796.9,0.05178
6791.11,0.05525
6785.33,0.05359
6779.54,0.05534
6773.75,0.05533
6767.97,0.05618
6762.18,0.05126
6756.39,0.06004
6750.61,0.05721
6744.82,0.06044
6739.04,0.05514
6733.25,0.05748
6727.46,0.05492
6721.68,0.05885
6715.89,0.05691
6710.1,0.05428
6704.32,0.05752
6698.53,0.05604
6692.75,0.05921
6686.96,0.05349
6681.17,0.05762
6675.39,0.05334
6669.6,0.05960
6663.82,0.05628
6658.03,0.05958
6652.24,0.05651
6646.46,0.05433
6640.67,0.05661
6634.88,0.05648
6629.1,0.05683
6623.31,0.05698
6617.53,0.05498
6611.74,0.05767
6605.95,0.05728
6600.17,0.05413
6594.38,0.05994
6588.59,0.05680
6582.81,0.05700
6577.02,0.05641
6571.24,0.05447
6565.45,0.05996
6559.66,0.05527
6553.88,0.05078
6548.09,0.05761
6542.3,0.05560
6536.52,0.05589
6530.73,0.05500
6524.95,0.05848
6519.16,0.05935
6513.37,0.05336
6507.59,0.05062
6501.8,0.05619
6496.01,0.05674
6490.23,0.05606
6484.44,0.05714
6478.66,0.05314
6472.87,0.05391
6467.08,0.05505
6461.3,0.05869
6455.51,0.05838
6449.72,0.05634
6443.94,0.05766
6438.15,0.05541
6432.37,0.05438
6426.58,0.05827
6420.79,0.05697
6415.01,0.05651
6409.22,0.05817
6403.43,0.05713
6397.65,0.05456
6391.86,0.05223
6386.08,0.05729
6380.29,0.05792
6374.5,0.05445
6368.72,0.05472
6362.93,0.06149
6357.14,0.05938
6351.36,0.05563
6345.57,0.05650
6339.79,0.05526
6334,0.05498
6328.21,0.05761
6322.43,0.05791
6316.64,0.05984
6310.85,0.05629
6305.07,0.05985
6299.28,0.05795
6293.5,0.05611
6287.71,0.05579
6281.92,0.05946
6276.14,0.06054
6270.35,0.06009
6264.56,0.05521
6258.78,0.05623
6252.99,0.05788
6247.21,0.05867
6241.42,0.05928
6235.63,0.05927
6229.85,0.05435
6224.06,0.05877
6218.27,0.05739
6212.49,0.05906
6206.7,0.06387
6200.92,0.05996
6195.13,0.05687
6189.34,0.05908
6183.56,0.05733
6177.77,0.05739
6171.98,0.05741
6166.2,0.05824
6160.41,0.05782
6154.63,0.05942
6148.84,0.05978
6143.05,0.05905
6137.27,0.05703
6131.48,0.05706
6125.7,0.05630
6119.91,0.05887
6114.12,0.05760
6108.34,0.05758
6102.55,0.05808
6096.76,0.05747
6090.98,0.06114
6085.19,0.05715
6079.41,0.05740
6073.62,0.05886
6067.83,0.05813
6062.05,0.05659
6056.26,0.05833
6050.47,0.05802
6044.69,0.05917
6038.9,0.05761
6033.12,0.05871
6027.33,0.05813
6021.54,0.05976
6015.76,0.05912
6009.97,0.05764
6004.18,0.05945
5998.4,0.06028
5992.61,0.05957
5986.83,0.05704
5981.04,0.06054
5975.25,0.05854
5969.47,0.05979
5963.68,0.05903
5957.89,0.05843
5952.11,0.05973
5946.32,0.05982
5940.54,0.05774
5934.75,0.05786
5928.96,0.06170
5923.18,0.05901
5917.39,0.05960
5911.6,0.06056
5905.82,0.06009
5900.03,0.05922
5894.25,0.05976
5888.46,0.05882
5882.67,0.05994
5876.89,0.06055
5871.1,0.05780
5865.31,0.05806
5859.53,0.05856
5853.74,0.06057
5847.96,0.05921
5842.17,0.06035
5836.38,0.05841
5830.6,0.05967
5824.81,0.05833
5819.02,0.05905
5813.24,0.06135
5807.45,0.05860
5801.67,0.05816
5795.88,0.06108
5790.09,0.05995
5784.31,0.06212
5778.52,0.06121
5772.73,0.06042
5766.95,0.06155
5761.16,0.05989
5755.38,0.05997
5749.59,0.05861
5743.8,0.06036
5738.02,0.05990
5732.23,0.06202
5726.44,0.06040
5720.66,0.06005
5714.87,0.06195
5709.09,0.06016
5703.3,0.05981
5697.51,0.05871
5691.73,0.06254
5685.94,0.06091
5680.15,0.06002
5674.37,0.06329
5668.58,0.06201
5662.8,0.05963
5657.01,0.06046
5651.22,0.06105
5645.44,0.06343
5639.65,0.05992
5633.87,0.05952
5628.08,0.05949
5622.29,0.06105
5616.51,0.06210
5610.72,0.06159
5604.93,0.06041
5599.15,0.06291
5593.36,0.06205
5587.58,0.06231
5581.79,0.05962
5576,0.06143
5570.22,0.06221
5564.43,0.06228
5558.64,0.06166
5552.86,0.06005
5547.07,0.05975
5541.29,0.06192
5535.5,0.06060
5529.71,0.06154
5523.93,0.06192
5518.14,0.06290
5512.35,0.06222
5506.57,0.06110
5500.78,0.06199
5495,0.06253
5489.21,0.06242
5483.42,0.06249
5477.64,0.06192
5471.85,0.06359
5466.06,0.06232
5460.28,0.06277
5454.49,0.06262
5448.71,0.06120
5442.92,0.06237
5437.13,0.06141
5431.35,0.06050
5425.56,0.06010
5419.77,0.06325
5413.99,0.06160
5408.2,0.06204
5402.42,0.06247
5396.63,0.06459
5390.84,0.06255
5385.06,0.06277
5379.27,0.06391
5373.48,0.06265
5367.7,0.06355
5361.91,0.06304
5356.13,0.06247
5350.34,0.06374
5344.55,0.06370
5338.77,0.06156
5332.98,0.06279
5327.19,0.06456
5321.41,0.06370
5315.62,0.06256
5309.84,0.06370
5304.05,0.06339
5298.26,0.06288
5292.48,0.06207
5286.69,0.06337
5280.9,0.06308
5275.12,0.06319
5269.33,0.06329
5263.55,0.06291
5257.76,0.06189
5251.97,0.06287
5246.19,0.06271
5240.4,0.06284
5234.61,0.06305
5228.83,0.06249
5223.04,0.06329
5217.26,0.06556
5211.47,0.06394
5205.68,0.06430
5199.9,0.06346
5194.11,0.06287
5188.32,0.06217
5182.54,0.06396
5176.75,0.06329
5170.97,0.06340
5165.18,0.06378
5159.39,0.06374
5153.61,0.06278
5147.82,0.06309
5142.03,0.06335
5136.25,0.06309
5130.46,0.06319
5124.68,0.06276
5118.89,0.06434
5113.1,0.06427
5107.32,0.06379
5101.53,0.06390
5095.75,0.06432
5089.96,0.06325
5084.17,0.06401
5078.39,0.06381
5072.6,0.06226
5066.81,0.06360
5061.03,0.06540
5055.24,0.06362
5049.46,0.06564
5043.67,0.06371
5037.88,0.06320
5032.1,0.06371
5026.31,0.06368
5020.52,0.06344
5014.74,0.06392
5008.95,0.06459
5003.17,0.06391
4997.38,0.06531
4991.59,0.06365
4985.81,0.06384
4980.02,0.06377
4974.23,0.06327
4968.45,0.06492
4962.66,0.06404
4956.88,0.06489
4951.09,0.06338
4945.3,0.06392
4939.52,0.06477
4933.73,0.06516
4927.94,0.06512
4922.16,0.06447
4916.37,0.06542
4910.59,0.06422
4904.8,0.06429
4899.01,0.06574
4893.23,0.06514
4887.44,0.06566
4881.65,0.06514
4875.87,0.06467
4870.08,0.06472
4864.3,0.06537
4858.51,0.06610
4852.72,0.06520
4846.94,0.06562
4841.15,0.06528
4835.36,0.06637
4829.58,0.06558
4823.79,0.06575
4818.01,0.06548
4812.22,0.06603
4806.43,0.06513
4800.65,0.06611
4794.86,0.06569
4789.07,0.06556
4783.29,0.06691
4777.5,0.06667
4771.72,0.06656
4765.93,0.06597
4760.14,0.06607
4754.36,0.06670
4748.57,0.06652
4742.78,0.06581
4737,0.06700
4731.21,0.06658
4725.43,0.06510
4719.64,0.06618
4713.85,0.06671
4708.07,0.06607
4702.28,0.06525
4696.49,0.06603
4690.71,0.06712
4684.92,0.06640
4679.14,0.06603
4673.35,0.06720
4667.56,0.06646
4661.78,0.06698
4655.99,0.06669
4650.2,0.06580
4644.42,0.06567
4638.63,0.06607
4632.85,0.06703
4627.06,0.06560
4621.27,0.06710
4615.49,0.06695
4609.7,0.06622
4603.92,0.06618
4598.13,0.06752
4592.34,0.06680
4586.56,0.06620
4580.77,0.06674
4574.98,0.06677
4569.2,0.06530
4563.41,0.06692
4557.63,0.06597
4551.84,0.06624
4546.05,0.06551
4540.27,0.06567
4534.48,0.06611
4528.69,0.06642
4522.91,0.06656
4517.12,0.06534
4511.34,0.06577
4505.55,0.06580
4499.76,0.06600
4493.98,0.06552
4488.19,0.06640
4482.4,0.06418
4476.62,0.06448
4470.83,0.06390
4465.05,0.06339
4459.26,0.06375
4453.47,0.06230
4447.69,0.06277
4441.9,0.06243
4436.11,0.06209
4430.33,0.06177
4424.54,0.06179
4418.76,0.06197
4412.97,0.06308
4407.18,0.06260
4401.4,0.06243
4395.61,0.06288
4389.82,0.06218
4384.04,0.06264
4378.25,0.06240
4372.47,0.06292
4366.68,0.06123
4360.89,0.06156
4355.11,0.06074
4349.32,0.06104
4343.53,0.06033
4337.75,0.06011
4331.96,0.05995
4326.18,0.05951
4320.39,0.05961
4314.6,0.05912
4308.82,0.05950
4303.03,0.05832
4297.24,0.05759
4291.46,0.05747
4285.67,0.05780
4279.89,0.05728
4274.1,0.05804
4268.31,0.05658
4262.53,0.05763
4256.74,0.05800
4250.95,0.05859
4245.17,0.05998
4239.38,0.05976
4233.6,0.06078
4227.81,0.06096
4222.02,0.06139
4216.24,0.06180
4210.45,0.06215
4204.66,0.06264
4198.88,0.06323
4193.09,0.06279
4187.31,0.06230
4181.52,0.06234
4175.73,0.06213
4169.95,0.06280
4164.16,0.06342
4158.37,0.06368
4152.59,0.06367
4146.8,0.06380
4141.02,0.06438
4135.23,0.06416
4129.44,0.06372
4123.66,0.06383
4117.87,0.06426
4112.09,0.06465
4106.3,0.06419
4100.51,0.06404
4094.73,0.06402
4088.94,0.06352
4083.15,0.06385
4077.37,0.06332
4071.58,0.06373
4065.8,0.06376
4060.01,0.06307
4054.22,0.06262
4048.44,0.06302
4042.65,0.06283
4036.86,0.06267
4031.08,0.06312
4025.29,0.06229
4019.51,0.06255
4013.72,0.06208
4007.93,0.06262
4002.15,0.06271
3996.36,0.06195
3990.57,0.06192
3984.79,0.06197
3979,0.06282
3973.22,0.06275
3967.43,0.06257
3961.64,0.06210
3955.86,0.06291
3950.07,0.06277
3944.28,0.06106
3938.5,0.06237
3932.71,0.06294
3926.93,0.06273
3921.14,0.06239
3915.35,0.06231
3909.57,0.06242
3903.78,0.06218
3897.99,0.06206
3892.21,0.06224
3886.42,0.06209
3880.64,0.06247
3874.85,0.06241
3869.06,0.06252
3863.28,0.06215
3857.49,0.06259
3851.7,0.06278
3845.92,0.06216
3840.13,0.06298
3834.35,0.06257
3828.56,0.06255
3822.77,0.06265
3816.99,0.06247
3811.2,0.06241
3805.41,0.06261
3799.63,0.06313
3793.84,0.06288
3788.06,0.06279
3782.27,0.06288
3776.48,0.06270
3770.7,0.06193
3764.91,0.06251
3759.12,0.06269
3753.34,0.06253
3747.55,0.06166
3741.77,0.06115
3735.98,0.06117
3730.19,0.06086
3724.41,0.05956
3718.62,0.05838
3712.83,0.05721
3707.05,0.05451
3701.26,0.05205
3695.48,0.05036
3689.69,0.04855
3683.9,0.04731
3678.12,0.04562
3672.33,0.04439
3666.54,0.04482
3660.76,0.04378
3654.97,0.04382
3649.19,0.04369
3643.4,0.04297
3637.61,0.04274
3631.83,0.04316
3626.04,0.04204
3620.25,0.04198
3614.47,0.04273
3608.68,0.04268
3602.9,0.04202
3597.11,0.04128
3591.32,0.04098
3585.54,0.04078
3579.75,0.04016
3573.97,0.04006
3568.18,0.03977
3562.39,0.03992
3556.61,0.03992
3550.82,0.03943
3545.03,0.04004
3539.25,0.03973
3533.46,0.03960
3527.68,0.03993
3521.89,0.03942
3516.1,0.03901
3510.32,0.03958
3504.53,0.04015
3498.74,0.03841
3492.96,0.03909
3487.17,0.03957
3481.39,0.03930
3475.6,0.03914
3469.81,0.03903
3464.03,0.03853
3458.24,0.03902
3452.45,0.03922
3446.67,0.03913
3440.88,0.03875
3435.1,0.03849
3429.31,0.03855
3423.52,0.03862
3417.74,0.03866
3411.95,0.03778
3406.16,0.03800
3400.38,0.03834
3394.59,0.03786
3388.81,0.03825
3383.02,0.03818
3377.23,0.03791
3371.45,0.03776
3365.66,0.03878
3359.87,0.03869
3354.09,0.03815
3348.3,0.03812
3342.52,0.03934
3336.73,0.03895
3330.94,0.03952
3325.16,0.03990
3319.37,0.03898
3313.58,0.03901
3307.8,0.03985
3302.01,0.03958
3296.23,0.03987
3290.44,0.04040
3284.65,0.03989
3278.87,0.04006
3273.08,0.04012
3267.29,0.04053
3261.51,0.04039
3255.72,0.04073
3249.94,0.04079
3244.15,0.04110
3238.36,0.04096
3232.58,0.04181
3226.79,0.04150
3221,0.04132
3215.22,0.04145
3209.43,0.04207
3203.65,0.04179
3197.86,0.04228
3192.07,0.04315
3186.29,0.04278
3180.5,0.04319
3174.71,0.04356
3168.93,0.04321
3163.14,0.04397
3157.36,0.04443
3151.57,0.04443
3145.78,0.04455
3140,0.04535
3134.21,0.04591
3128.42,0.04520
3122.64,0.04550
3116.85,0.04606
3111.07,0.04590
3105.28,0.04610
3099.49,0.04608
3093.71,0.04664
3087.92,0.04676
3082.14,0.04655
3076.35,0.04686
3070.56,0.04677
3064.78,0.04727
3058.99,0.04762
3053.2,0.04741
3047.42,0.04746
3041.63,0.04777
3035.85,0.04819
3030.06,0.04824
3024.27,0.04829
3018.49,0.04823
3012.7,0.04818
3006.91,0.04829
3001.13,0.04784
2995.34,0.04780
2989.56,0.04744
2983.77,0.04759
2977.98,0.04625
2972.2,0.04554
2966.41,0.04422
2960.62,0.04296
2954.84,0.04299
2949.05,0.04364
2943.27,0.04372
2937.48,0.04245
2931.69,0.04186
2925.91,0.04248
2920.12,0.04346
2914.33,0.04498
2908.55,0.04576
2902.76,0.04621
2896.98,0.04678
2891.19,0.04747
2885.4,0.04790
2879.62,0.04757
2873.83,0.04704
2868.04,0.04717
2862.26,0.04670
2856.47,0.04634
2850.69,0.04714
2844.9,0.04970
2839.11,0.05122
2833.33,0.05299
2827.54,0.05386
2821.75,0.05440
2815.97,0.05472
2810.18,0.05534
2804.4,0.05534
2798.61,0.05589
2792.82,0.05611
2787.04,0.05617
2781.25,0.05668
2775.46,0.05656
2769.68,0.05704
2763.89,0.05694
2758.11,0.05743
2752.32,0.05790
2746.53,0.05783
2740.75,0.05734
2734.96,0.05729
2729.17,0.05759
2723.39,0.05788
2717.6,0.05835
2711.82,0.05817
2706.03,0.05770
2700.24,0.05778
2694.46,0.05835
2688.67,0.05846
2682.88,0.05882
2677.1,0.05845
2671.31,0.05853
2665.53,0.05848
2659.74,0.05933
2653.95,0.05941
2648.17,0.05912
2642.38,0.05958
2636.59,0.05938
2630.81,0.05922
2625.02,0.05907
2619.24,0.05915
2613.45,0.05874
2607.66,0.05972
2601.88,0.05908
2596.09,0.05942
2590.3,0.05935
2584.52,0.05954
2578.73,0.05920
2572.95,0.05963
2567.16,0.05960
2561.37,0.05981
2555.59,0.05986
2549.8,0.05975
2544.02,0.05957
2538.23,0.05962
2532.44,0.05920
2526.66,0.05898
2520.87,0.05910
2515.08,0.05902
2509.3,0.05929
2503.51,0.05911
2497.73,0.05930
2491.94,0.05946
2486.15,0.05983
2480.37,0.06006
2474.58,0.06069
2468.79,0.06021
2463.01,0.06045
2457.22,0.06081
2451.44,0.06059
2445.65,0.06068
2439.86,0.06107
2434.08,0.06072
2428.29,0.06043
2422.5,0.06029
2416.72,0.06037
2410.93,0.06061
2405.15,0.06015
2399.36,0.06020
2393.57,0.06047
2387.79,0.06037
2382,0.05980
2376.21,0.05980
2370.43,0.05975
2364.64,0.05926
2358.86,0.05928
2353.07,0.05901
2347.28,0.05924
2341.5,0.05861
2335.71,0.05872
2329.92,0.05893
2324.14,0.05893
2318.35,0.05861
2312.57,0.05833
2306.78,0.05867
2300.99,0.05848
2295.21,0.05833
2289.42,0.05812
2283.63,0.05807
2277.85,0.05812
2272.06,0.05782
2266.28,0.05768
2260.49,0.05728
2254.7,0.05706
2248.92,0.05646
2243.13,0.05657
2237.34,0.05606
2231.56,0.05576
2225.77,0.05585
2219.99,0.05588
2214.2,0.05501
2208.41,0.05494
2202.63,0.05455
2196.84,0.05422
2191.05,0.05350
2185.27,0.05313
2179.48,0.05279
2173.7,0.05219
2167.91,0.05213
2162.12,0.05193
2156.34,0.05129
2150.55,0.05099
2144.76,0.05052
2138.98,0.05043
2133.19,0.05002
2127.41,0.05017
2121.62,0.05008
2115.83,0.04986
2110.05,0.05006
2104.26,0.04930
2098.47,0.04884
2092.69,0.04832
2086.9,0.04819
2081.12,0.04790
2075.33,0.04787
2069.54,0.04767
2063.76,0.04745
2057.97,0.04701
2052.19,0.04676
2046.4,0.04621
2040.61,0.04630
2034.83,0.04627
2029.04,0.04572
2023.25,0.04586
2017.47,0.04589
2011.68,0.04560
2005.9,0.04567
2000.11,0.04543
1994.32,0.04559
1988.54,0.04577
1982.75,0.04576
1976.96,0.04560
1971.18,0.04559
1965.39,0.04599
1959.61,0.04569
1953.82,0.04598
1948.03,0.04558
1942.25,0.04562
1936.46,0.04538
1930.67,0.04509
1924.89,0.04541
1919.1,0.04513
1913.32,0.04467
1907.53,0.04486
1901.74,0.04454
1895.96,0.04432
1890.17,0.04441
1884.38,0.04454
1878.6,0.04428
1872.81,0.04413
1867.03,0.04387
1861.24,0.04430
1855.45,0.04466
1849.67,0.04455
1843.88,0.04427
1838.09,0.04374
1832.31,0.04392
1826.52,0.04373
1820.74,0.04366
1814.95,0.04318
1809.16,0.04284
1803.38,0.04253
1797.59,0.04153
1791.8,0.04133
1786.02,0.04135
1780.23,0.04115
1774.45,0.04128
1768.66,0.04123
1762.87,0.04089
1757.09,0.04074
1751.3,0.04071
1745.51,0.04011
1739.73,0.04001
1733.94,0.04013
1728.16,0.03996
1722.37,0.03982
1716.58,0.03960
1710.8,0.03937
1705.01,0.03945
1699.22,0.03905
1693.44,0.03892
1687.65,0.03902
1681.87,0.03879
1676.08,0.03904
1670.29,0.03931
1664.51,0.03957
1658.72,0.03949
1652.93,0.03985
1647.15,0.04013
1641.36,0.03993
1635.58,0.04045
1629.79,0.04036
1624,0.04027
1618.22,0.04044
1612.43,0.04033
1606.64,0.04085
1600.86,0.04128
1595.07,0.04150
1589.29,0.04196
1583.5,0.04288
1577.71,0.04414
1571.93,0.04513
1566.14,0.04636
1560.35,0.04815
1554.57,0.04923
1548.78,0.04974
1543,0.04967
1537.21,0.04901
1531.42,0.04914
1525.64,0.04866
1519.85,0.04805
1514.07,0.04728
1508.28,0.04740
1502.49,0.04603
1496.71,0.04612
1490.92,0.04541
1485.13,0.04443
1479.35,0.04356
1473.56,0.04249
1467.78,0.04072
1461.99,0.04026
1456.2,0.04059
1450.42,0.04081
1444.63,0.04078
1438.84,0.04082
1433.06,0.04057
1427.27,0.04043
1421.49,0.04070
1415.7,0.04048
1409.91,0.04025
1404.13,0.03979
1398.34,0.03909
1392.55,0.03862
1386.77,0.03828
1380.98,0.03780
1375.2,0.03766
1369.41,0.03809
1363.62,0.03861
1357.84,0.03846
1352.05,0.03876
1346.26,0.03848
1340.48,0.03842
1334.69,0.03830
1328.91,0.03834
1323.12,0.03770
1317.33,0.03763
1311.55,0.03770
1305.76,0.03739
1299.97,0.03722
1294.19,0.03721
1288.4,0.03667
1282.62,0.03667
1276.83,0.03644
1271.04,0.03611
1265.26,0.03572
1259.47,0.03493
1253.68,0.03442
1247.9,0.03370
1242.11,0.03372
1236.33,0.03467
1230.54,0.03454
1224.75,0.03504
1218.97,0.03600
1213.18,0.03602
1207.39,0.03617
1201.61,0.03619
1195.82,0.03639
1190.04,0.03662
1184.25,0.03685
1178.46,0.03708
1172.68,0.03713
1166.89,0.03740
1161.1,0.03855
1155.32,0.03915
1149.53,0.04125
1143.75,0.04256
1137.96,0.04329
1132.17,0.04501
1126.39,0.04744
1120.6,0.05023
1114.81,0.05172
1109.03,0.05392
1103.24,0.05713
1097.46,0.05905
1091.67,0.06104
1085.88,0.06167
1080.1,0.06329
1074.31,0.06377
1068.52,0.06462
1062.74,0.06443
1056.95,0.06517
1051.17,0.06570
1045.38,0.06752
1039.59,0.07047
1033.81,0.07229
1028.02,0.07201
1022.24,0.07077
1016.45,0.07015
1010.66,0.07305
1004.88,0.07578
999.09,0.07575
993.304,0.07575
987.518,0.07609
981.731,0.07537
975.945,0.07452
970.159,0.07275
964.373,0.07238
958.586,0.07329
952.8,0.07328
947.014,0.07261
941.228,0.07058
935.441,0.06915
929.655,0.06631
923.869,0.06448
918.083,0.06335
912.297,0.06392
906.51,0.06418
900.724,0.06320
894.938,0.06273
889.152,0.06314
883.365,0.06056
877.579,0.05887
871.793,0.05743
866.007,0.05631
860.22,0.05487
854.434,0.05351
848.648,0.05227
842.862,0.05201
837.075,0.05036
831.289,0.04895
825.503,0.04761
819.717,0.04699
813.931,0.04644
808.144,0.04560
802.358,0.04511
796.572,0.04589
790.786,0.04625
784.999,0.04665
779.213,0.04607
773.427,0.04538
767.641,0.04505
761.854,0.04565
756.068,0.04676
750.282,0.04682
744.496,0.04654
738.709,0.04628
732.923,0.04532
727.137,0.04607
721.351,0.04605
715.565,0.04601
709.778,0.04542
703.992,0.04508
698.206,0.04411
692.42,0.04454
686.633,0.04528
680.847,0.04548
675.061,0.04465
669.275,0.04543
663.488,0.04356
657.702,0.04511
651.916,0.04609
646.13,0.04832
640.343,0.04681
634.557,0.04521
628.771,0.04511
622.985,0.04515
617.198,0.04202
611.412,0.04127
605.626,0.04066
599.84,0.04405