File: 01_Data/Asphalt_Shingle/FTIR/IS/Asphalt_Shingle_IS_S_220831_R8.dpt
7497.03,0.05671
7491.25,0.05612
7485.46,0.05879
7479.67,0.05524
7473.89,0.05447
7468.1,0.05411
7462.32,0.05711
7456.53,0.06029
7450.74,0.06008
7444.96,0.06506
7439.17,0.05510
7433.38,0.05798
7427.6,0.05307
7421.81,0.05821
7416.03,0.05608
7410.24,0.06307
7404.45,0.06196
7398.67,0.06219
7392.88,0.06347
7387.09,0.05089
7381.31,0.06131
7375.52,0.05296
7369.74,0.06862
7363.95,0.05659
7358.16,0.05853
7352.38,0.04785
7346.59,0.06164
7340.8,0.05988
7335.02,0.05288
7329.23,0.05288
7323.45,0.04829
7317.66,0.05037
7311.87,0.05550
7306.09,0.05972
7300.3,0.05721
7294.51,0.06339
7288.73,0.05476
7282.94,0.05377
7277.16,0.05945
7271.37,0.05826
7265.58,0.05785
7259.8,0.05511
7254.01,0.05748
7248.22,0.05684
7242.44,0.05522
7236.65,0.05838
7230.87,0.05881
7225.08,0.06085
7219.29,0.05456
7213.51,0.05326
7207.72,0.05613
7201.93,0.05735
7196.15,0.05659
7190.36,0.05990
7184.58,0.05430
7178.79,0.05576
7173,0.05149
7167.22,0.05156
7161.43,0.05762
7155.65,0.05501
7149.86,0.05412
7144.07,0.05056
7138.29,0.05284
7132.5,0.05397
7126.71,0.05546
7120.93,0.06203
7115.14,0.05455
7109.36,0.05591
7103.57,0.05639
7097.78,0.05039
7092,0.05289
7086.21,0.05757
7080.42,0.05869
7074.64,0.05756
7068.85,0.06008
7063.07,0.05830
7057.28,0.05418
7051.49,0.05341
7045.71,0.05337
7039.92,0.05763
7034.13,0.05452
7028.35,0.05720
7022.56,0.05399
7016.78,0.05162
7010.99,0.05228
7005.2,0.05159
6999.42,0.05101
6993.63,0.04871
6987.84,0.05457
6982.06,0.05986
6976.27,0.05225
6970.49,0.05817
6964.7,0.05867
6958.91,0.05573
6953.13,0.05423
6947.34,0.05371
6941.55,0.05597
6935.77,0.05802
6929.98,0.05495
6924.2,0.05964
6918.41,0.05925
6912.62,0.06068
6906.84,0.05600
6901.05,0.05419
6895.26,0.05079
6889.48,0.05203
6883.69,0.05568
6877.91,0.05693
6872.12,0.05697
6866.33,0.05815
6860.55,0.05746
6854.76,0.05424
6848.97,0.05687
6843.19,0.05207
6837.4,0.05567
6831.62,0.05243
6825.83,0.05944
6820.04,0.06133
6814.26,0.05772
6808.47,0.05429
6802.68,0.05570
6796.9,0.05444
6791.11,0.05481
6785.33,0.05860
6779.54,0.05885
6773.75,0.05669
6767.97,0.05584
6762.18,0.05827
6756.39,0.05733
6750.61,0.05679
6744.82,0.05293
6739.04,0.05550
6733.25,0.05743
6727.46,0.05284
6721.68,0.05242
6715.89,0.05501
6710.1,0.05487
6704.32,0.05423
6698.53,0.05501
6692.75,0.05601
6686.96,0.05777
6681.17,0.05643
6675.39,0.05680
6669.6,0.05539
6663.82,0.05808
6658.03,0.05322
6652.24,0.05292
6646.46,0.05511
6640.67,0.05423
6634.88,0.05479
6629.1,0.05517
6623.31,0.05177
6617.53,0.05626
6611.74,0.05615
6605.95,0.05987
6600.17,0.05329
6594.38,0.05500
6588.59,0.05600
6582.81,0.05726
6577.02,0.05745
6571.24,0.05840
6565.45,0.06160
6559.66,0.06052
6553.88,0.05484
6548.09,0.05514
6542.3,0.05686
6536.52,0.05916
6530.73,0.05746
6524.95,0.06037
6519.16,0.05548
6513.37,0.05762
6507.59,0.05860
6501.8,0.05776
6496.01,0.05895
6490.23,0.05667
6484.44,0.05708
6478.66,0.05720
6472.87,0.05977
6467.08,0.05730
6461.3,0.05461
6455.51,0.05803
6449.72,0.05884
6443.94,0.05689
6438.15,0.05975
6432.37,0.05752
6426.58,0.05973
6420.79,0.05697
6415.01,0.05576
6409.22,0.06087
6403.43,0.05476
6397.65,0.05472
6391.86,0.05974
6386.08,0.05661
6380.29,0.05806
6374.5,0.05956
6368.72,0.05387
6362.93,0.05743
6357.14,0.05350
6351.36,0.05830
6345.57,0.05648
6339.79,0.05791
6334,0.05190
6328.21,0.05656
6322.43,0.05547
6316.64,0.05748
6310.85,0.05665
6305.07,0.05788
6299.28,0.05536
6293.5,0.05740
6287.71,0.05627
6281.92,0.05971
6276.14,0.06030
6270.35,0.05489
6264.56,0.05631
6258.78,0.05839
6252.99,0.06126
6247.21,0.05905
6241.42,0.05893
6235.63,0.05745
6229.85,0.05843
6224.06,0.05836
6218.27,0.05672
6212.49,0.05500
6206.7,0.06118
6200.92,0.05787
6195.13,0.05795
6189.34,0.05954
6183.56,0.05618
6177.77,0.06123
6171.98,0.05702
6166.2,0.05703
6160.41,0.05899
6154.63,0.05739
6148.84,0.05683
6143.05,0.05660
6137.27,0.05808
6131.48,0.05773
6125.7,0.05909
6119.91,0.05875
6114.12,0.05822
6108.34,0.06145
6102.55,0.06048
6096.76,0.05835
6090.98,0.05979
6085.19,0.06061
6079.41,0.05810
6073.62,0.05589
6067.83,0.06079
6062.05,0.05968
6056.26,0.05959
6050.47,0.05521
6044.69,0.05720
6038.9,0.05774
6033.12,0.05854
6027.33,0.05881
6021.54,0.05983
6015.76,0.05744
6009.97,0.05910
6004.18,0.05715
5998.4,0.06007
5992.61,0.05962
5986.83,0.05986
5981.04,0.05856
5975.25,0.05883
5969.47,0.05784
5963.68,0.05783
5957.89,0.05941
5952.11,0.05766
5946.32,0.05931
5940.54,0.05808
5934.75,0.05799
5928.96,0.05897
5923.18,0.05783
5917.39,0.06109
5911.6,0.05928
5905.82,0.05787
5900.03,0.05946
5894.25,0.06068
5888.46,0.05852
5882.67,0.05925
5876.89,0.05920
5871.1,0.05925
5865.31,0.06020
5859.53,0.05891
5853.74,0.06048
5847.96,0.06139
5842.17,0.05915
5836.38,0.05821
5830.6,0.05962
5824.81,0.05923
5819.02,0.05896
5813.24,0.06086
5807.45,0.05771
5801.67,0.06037
5795.88,0.05988
5790.09,0.05887
5784.31,0.06002
5778.52,0.06127
5772.73,0.06051
5766.95,0.05843
5761.16,0.06215
5755.38,0.05997
5749.59,0.05957
5743.8,0.06119
5738.02,0.05941
5732.23,0.05862
5726.44,0.05994
5720.66,0.05857
5714.87,0.05998
5709.09,0.06110
5703.3,0.06153
5697.51,0.05931
5691.73,0.05851
5685.94,0.06067
5680.15,0.06101
5674.37,0.06031
5668.58,0.06029
5662.8,0.06069
5657.01,0.06134
5651.22,0.06158
5645.44,0.06224
5639.65,0.06104
5633.87,0.05971
5628.08,0.06156
5622.29,0.06285
5616.51,0.06051
5610.72,0.06042
5604.93,0.06158
5599.15,0.06274
5593.36,0.06312
5587.58,0.06055
5581.79,0.06137
5576,0.06166
5570.22,0.06194
5564.43,0.06215
5558.64,0.06314
5552.86,0.06090
5547.07,0.06159
5541.29,0.06119
5535.5,0.06228
5529.71,0.06105
5523.93,0.06155
5518.14,0.06142
5512.35,0.06043
5506.57,0.06211
5500.78,0.06269
5495,0.06212
5489.21,0.06060
5483.42,0.06167
5477.64,0.06081
5471.85,0.06281
5466.06,0.06234
5460.28,0.06322
5454.49,0.06358
5448.71,0.06246
5442.92,0.06149
5437.13,0.06070
5431.35,0.06220
5425.56,0.06299
5419.77,0.06113
5413.99,0.06094
5408.2,0.06132
5402.42,0.06322
5396.63,0.06271
5390.84,0.06308
5385.06,0.06068
5379.27,0.06169
5373.48,0.06215
5367.7,0.06199
5361.91,0.06308
5356.13,0.06062
5350.34,0.06214
5344.55,0.06120
5338.77,0.06214
5332.98,0.06202
5327.19,0.06236
5321.41,0.06278
5315.62,0.06177
5309.84,0.06260
5304.05,0.06212
5298.26,0.06203
5292.48,0.06302
5286.69,0.06308
5280.9,0.06306
5275.12,0.06437
5269.33,0.06236
5263.55,0.06264
5257.76,0.06300
5251.97,0.06371
5246.19,0.06206
5240.4,0.06159
5234.61,0.06435
5228.83,0.06354
5223.04,0.06453
5217.26,0.06373
5211.47,0.06339
5205.68,0.06337
5199.9,0.06307
5194.11,0.06374
5188.32,0.06243
5182.54,0.06349
5176.75,0.06362
5170.97,0.06243
5165.18,0.06309
5159.39,0.06276
5153.61,0.06328
5147.82,0.06338
5142.03,0.06421
5136.25,0.06267
5130.46,0.06444
5124.68,0.06375
5118.89,0.06195
5113.1,0.06272
5107.32,0.06257
5101.53,0.06384
5095.75,0.06384
5089.96,0.06237
5084.17,0.06319
5078.39,0.06421
5072.6,0.06426
5066.81,0.06301
5061.03,0.06409
5055.24,0.06450
5049.46,0.06432
5043.67,0.06399
5037.88,0.06422
5032.1,0.06275
5026.31,0.06376
5020.52,0.06395
5014.74,0.06533
5008.95,0.06351
5003.17,0.06330
4997.38,0.06318
4991.59,0.06405
4985.81,0.06304
4980.02,0.06446
4974.23,0.06451
4968.45,0.06464
4962.66,0.06377
4956.88,0.06494
4951.09,0.06529
4945.3,0.06420
4939.52,0.06472
4933.73,0.06519
4927.94,0.06448
4922.16,0.06542
4916.37,0.06491
4910.59,0.06571
4904.8,0.06422
4899.01,0.06445
4893.23,0.06480
4887.44,0.06531
4881.65,0.06448
4875.87,0.06559
4870.08,0.06554
4864.3,0.06471
4858.51,0.06547
4852.72,0.06526
4846.94,0.06494
4841.15,0.06577
4835.36,0.06570
4829.58,0.06515
4823.79,0.06524
4818.01,0.06515
4812.22,0.06562
4806.43,0.06551
4800.65,0.06652
4794.86,0.06480
4789.07,0.06550
4783.29,0.06649
4777.5,0.06623
4771.72,0.06531
4765.93,0.06488
4760.14,0.06484
4754.36,0.06592
4748.57,0.06600
4742.78,0.06630
4737,0.06634
4731.21,0.06549
4725.43,0.06597
4719.64,0.06541
4713.85,0.06594
4708.07,0.06588
4702.28,0.06632
4696.49,0.06555
4690.71,0.06600
4684.92,0.06645
4679.14,0.06522
4673.35,0.06602
4667.56,0.06676
4661.78,0.06649
4655.99,0.06586
4650.2,0.06577
4644.42,0.06586
4638.63,0.06541
4632.85,0.06669
4627.06,0.06609
4621.27,0.06682
4615.49,0.06645
4609.7,0.06655
4603.92,0.06643
4598.13,0.06591
4592.34,0.06772
4586.56,0.06679
4580.77,0.06603
4574.98,0.06529
4569.2,0.06636
4563.41,0.06672
4557.63,0.06685
4551.84,0.06636
4546.05,0.06654
4540.27,0.06511
4534.48,0.06579
4528.69,0.06565
4522.91,0.06592
4517.12,0.06583
4511.34,0.06555
4505.55,0.06511
4499.76,0.06474
4493.98,0.06509
4488.19,0.06580
4482.4,0.06552
4476.62,0.06454
4470.83,0.06442
4465.05,0.06381
4459.26,0.06314
4453.47,0.06270
4447.69,0.06181
4441.9,0.06185
4436.11,0.06197
4430.33,0.06122
4424.54,0.06222
4418.76,0.06263
4412.97,0.06249
4407.18,0.06205
4401.4,0.06291
4395.61,0.06221
4389.82,0.06387
4384.04,0.06243
4378.25,0.06197
4372.47,0.06185
4366.68,0.06213
4360.89,0.06173
4355.11,0.06115
4349.32,0.06130
4343.53,0.06053
4337.75,0.05951
4331.96,0.05908
4326.18,0.05907
4320.39,0.05858
4314.6,0.05896
4308.82,0.05886
4303.03,0.05831
4297.24,0.05815
4291.46,0.05741
4285.67,0.05732
4279.89,0.05654
4274.1,0.05636
4268.31,0.05715
4262.53,0.05732
4256.74,0.05792
4250.95,0.05877
4245.17,0.05896
4239.38,0.05983
4233.6,0.06076
4227.81,0.06056
4222.02,0.06126
4216.24,0.06190
4210.45,0.06161
4204.66,0.06255
4198.88,0.06240
4193.09,0.06237
4187.31,0.06236
4181.52,0.06295
4175.73,0.06249
4169.95,0.06328
4164.16,0.06298
4158.37,0.06322
4152.59,0.06317
4146.8,0.06334
4141.02,0.06342
4135.23,0.06394
4129.44,0.06370
4123.66,0.06362
4117.87,0.06363
4112.09,0.06393
4106.3,0.06365
4100.51,0.06379
4094.73,0.06399
4088.94,0.06293
4083.15,0.06326
4077.37,0.06431
4071.58,0.06328
4065.8,0.06277
4060.01,0.06289
4054.22,0.06228
4048.44,0.06300
4042.65,0.06221
4036.86,0.06161
4031.08,0.06209
4025.29,0.06222
4019.51,0.06185
4013.72,0.06205
4007.93,0.06259
4002.15,0.06245
3996.36,0.06180
3990.57,0.06230
3984.79,0.06176
3979,0.06253
3973.22,0.06177
3967.43,0.06165
3961.64,0.06177
3955.86,0.06237
3950.07,0.06211
3944.28,0.06207
3938.5,0.06244
3932.71,0.06155
3926.93,0.06236
3921.14,0.06243
3915.35,0.06161
3909.57,0.06186
3903.78,0.06257
3897.99,0.06205
3892.21,0.06217
3886.42,0.06174
3880.64,0.06255
3874.85,0.06211
3869.06,0.06264
3863.28,0.06255
3857.49,0.06207
3851.7,0.06258
3845.92,0.06255
3840.13,0.06236
3834.35,0.06229
3828.56,0.06188
3822.77,0.06204
3816.99,0.06243
3811.2,0.06212
3805.41,0.06276
3799.63,0.06275
3793.84,0.06271
3788.06,0.06234
3782.27,0.06179
3776.48,0.06187
3770.7,0.06206
3764.91,0.06167
3759.12,0.06169
3753.34,0.06147
3747.55,0.06192
3741.77,0.06137
3735.98,0.06014
3730.19,0.06004
3724.41,0.05915
3718.62,0.05865
3712.83,0.05667
3707.05,0.05413
3701.26,0.05179
3695.48,0.04954
3689.69,0.04762
3683.9,0.04671
3678.12,0.04590
3672.33,0.04423
3666.54,0.04412
3660.76,0.04361
3654.97,0.04432
3649.19,0.04355
3643.4,0.04307
3637.61,0.04349
3631.83,0.04268
3626.04,0.04211
3620.25,0.04186
3614.47,0.04221
3608.68,0.04273
3602.9,0.04187
3597.11,0.04088
3591.32,0.04140
3585.54,0.04121
3579.75,0.04046
3573.97,0.03986
3568.18,0.03976
3562.39,0.03970
3556.61,0.03918
3550.82,0.03936
3545.03,0.03950
3539.25,0.03960
3533.46,0.03897
3527.68,0.03905
3521.89,0.04056
3516.1,0.03980
3510.32,0.03902
3504.53,0.03993
3498.74,0.03928
3492.96,0.03873
3487.17,0.03970
3481.39,0.03963
3475.6,0.03952
3469.81,0.03935
3464.03,0.03939
3458.24,0.03874
3452.45,0.03844
3446.67,0.03883
3440.88,0.03850
3435.1,0.03816
3429.31,0.03800
3423.52,0.03837
3417.74,0.03791
3411.95,0.03853
3406.16,0.03721
3400.38,0.03831
3394.59,0.03863
3388.81,0.03829
3383.02,0.03796
3377.23,0.03788
3371.45,0.03866
3365.66,0.03826
3359.87,0.03862
3354.09,0.03865
3348.3,0.03898
3342.52,0.03835
3336.73,0.03856
3330.94,0.03910
3325.16,0.03938
3319.37,0.03908
3313.58,0.03886
3307.8,0.03904
3302.01,0.03984
3296.23,0.03978
3290.44,0.03934
3284.65,0.03960
3278.87,0.03989
3273.08,0.04003
3267.29,0.04028
3261.51,0.03982
3255.72,0.04071
3249.94,0.04146
3244.15,0.04045
3238.36,0.04053
3232.58,0.04167
3226.79,0.04141
3221,0.04153
3215.22,0.04198
3209.43,0.04254
3203.65,0.04212
3197.86,0.04287
3192.07,0.04257
3186.29,0.04267
3180.5,0.04345
3174.71,0.04343
3168.93,0.04375
3163.14,0.04410
3157.36,0.04405
3151.57,0.04474
3145.78,0.04410
3140,0.04542
3134.21,0.04485
3128.42,0.04532
3122.64,0.04555
3116.85,0.04540
3111.07,0.04576
3105.28,0.04589
3099.49,0.04607
3093.71,0.04663
3087.92,0.04671
3082.14,0.04619
3076.35,0.04646
3070.56,0.04721
3064.78,0.04713
3058.99,0.04714
3053.2,0.04735
3047.42,0.04765
3041.63,0.04790
3035.85,0.04834
3030.06,0.04797
3024.27,0.04836
3018.49,0.04846
3012.7,0.04894
3006.91,0.04839
3001.13,0.04780
2995.34,0.04786
2989.56,0.04753
2983.77,0.04715
2977.98,0.04690
2972.2,0.04575
2966.41,0.04426
2960.62,0.04322
2954.84,0.04275
2949.05,0.04317
2943.27,0.04336
2937.48,0.04258
2931.69,0.04129
2925.91,0.04177
2920.12,0.04332
2914.33,0.04514
2908.55,0.04600
2902.76,0.04608
2896.98,0.04698
2891.19,0.04758
2885.4,0.04815
2879.62,0.04774
2873.83,0.04758
2868.04,0.04706
2862.26,0.04702
2856.47,0.04620
2850.69,0.04709
2844.9,0.04964
2839.11,0.05125
2833.33,0.05268
2827.54,0.05334
2821.75,0.05421
2815.97,0.05425
2810.18,0.05469
2804.4,0.05507
2798.61,0.05576
2792.82,0.05586
2787.04,0.05638
2781.25,0.05644
2775.46,0.05660
2769.68,0.05709
2763.89,0.05667
2758.11,0.05656
2752.32,0.05680
2746.53,0.05698
2740.75,0.05728
2734.96,0.05718
2729.17,0.05733
2723.39,0.05757
2717.6,0.05740
2711.82,0.05805
2706.03,0.05792
2700.24,0.05760
2694.46,0.05820
2688.67,0.05825
2682.88,0.05836
2677.1,0.05829
2671.31,0.05846
2665.53,0.05884
2659.74,0.05885
2653.95,0.05865
2648.17,0.05897
2642.38,0.05879
2636.59,0.05913
2630.81,0.05891
2625.02,0.05897
2619.24,0.05871
2613.45,0.05890
2607.66,0.05880
2601.88,0.05913
2596.09,0.05878
2590.3,0.05935
2584.52,0.05952
2578.73,0.05934
2572.95,0.05932
2567.16,0.05968
2561.37,0.05944
2555.59,0.05922
2549.8,0.05962
2544.02,0.05932
2538.23,0.05957
2532.44,0.05922
2526.66,0.05897
2520.87,0.05851
2515.08,0.05890
2509.3,0.05889
2503.51,0.05870
2497.73,0.05904
2491.94,0.05945
2486.15,0.05923
2480.37,0.05983
2474.58,0.06014
2468.79,0.06001
2463.01,0.06059
2457.22,0.06015
2451.44,0.06070
2445.65,0.06063
2439.86,0.06075
2434.08,0.06043
2428.29,0.06033
2422.5,0.06056
2416.72,0.06038
2410.93,0.06001
2405.15,0.05990
2399.36,0.06017
2393.57,0.06021
2387.79,0.05999
2382,0.05997
2376.21,0.05983
2370.43,0.05973
2364.64,0.05945
2358.86,0.05939
2353.07,0.05869
2347.28,0.05823
2341.5,0.05842
2335.71,0.05835
2329.92,0.05865
2324.14,0.05859
2318.35,0.05842
2312.57,0.05867
2306.78,0.05825
2300.99,0.05810
2295.21,0.05799
2289.42,0.05803
2283.63,0.05778
2277.85,0.05753
2272.06,0.05765
2266.28,0.05741
2260.49,0.05672
2254.7,0.05659
2248.92,0.05632
2243.13,0.05659
2237.34,0.05618
2231.56,0.05558
2225.77,0.05559
2219.99,0.05545
2214.2,0.05492
2208.41,0.05466
2202.63,0.05437
2196.84,0.05400
2191.05,0.05326
2185.27,0.05310
2179.48,0.05252
2173.7,0.05199
2167.91,0.05123
2162.12,0.05104
2156.34,0.05112
2150.55,0.05076
2144.76,0.05044
2138.98,0.05027
2133.19,0.05009
2127.41,0.04971
2121.62,0.04974
2115.83,0.04932
2110.05,0.04934
2104.26,0.04916
2098.47,0.04865
2092.69,0.04808
2086.9,0.04802
2081.12,0.04765
2075.33,0.04794
2069.54,0.04775
2063.76,0.04746
2057.97,0.04687
2052.19,0.04672
2046.4,0.04660
2040.61,0.04611
2034.83,0.04602
2029.04,0.04569
2023.25,0.04555
2017.47,0.04603
2011.68,0.04570
2005.9,0.04597
2000.11,0.04563
1994.32,0.04569
1988.54,0.04576
1982.75,0.04563
1976.96,0.04541
1971.18,0.04565
1965.39,0.04541
1959.61,0.04527
1953.82,0.04571
1948.03,0.04513
1942.25,0.04534
1936.46,0.04508
1930.67,0.04521
1924.89,0.04511
1919.1,0.04475
1913.32,0.04441
1907.53,0.04456
1901.74,0.04458
1895.96,0.04420
1890.17,0.04465
1884.38,0.04433
1878.6,0.04419
1872.81,0.04421
1867.03,0.04421
1861.24,0.04428
1855.45,0.04449
1849.67,0.04427
1843.88,0.04380
1838.09,0.04438
1832.31,0.04417
1826.52,0.04390
1820.74,0.04369
1814.95,0.04313
1809.16,0.04287
1803.38,0.04227
1797.59,0.04177
1791.8,0.04111
1786.02,0.04116
1780.23,0.04154
1774.45,0.04143
1768.66,0.04090
1762.87,0.04081
1757.09,0.04093
1751.3,0.04033
1745.51,0.04017
1739.73,0.03981
1733.94,0.03996
1728.16,0.03961
1722.37,0.03941
1716.58,0.03946
1710.8,0.03892
1705.01,0.03894
1699.22,0.03908
1693.44,0.03857
1687.65,0.03848
1681.87,0.03788
1676.08,0.03886
1670.29,0.03892
1664.51,0.03917
1658.72,0.03952
1652.93,0.03980
1647.15,0.03969
1641.36,0.03974
1635.58,0.03995
1629.79,0.04022
1624,0.04040
1618.22,0.04073
1612.43,0.04045
1606.64,0.04072
1600.86,0.04100
1595.07,0.04153
1589.29,0.04180
1583.5,0.04279
1577.71,0.04362
1571.93,0.04495
1566.14,0.04610
1560.35,0.04756
1554.57,0.04893
1548.78,0.04983
1543,0.05005
1537.21,0.04901
1531.42,0.04894
1525.64,0.04840
1519.85,0.04760
1514.07,0.04718
1508.28,0.04690
1502.49,0.04641
1496.71,0.04620
1490.92,0.04524
1485.13,0.04436
1479.35,0.04332
1473.56,0.04220
1467.78,0.04062
1461.99,0.04019
1456.2,0.04028
1450.42,0.04057
1444.63,0.04052
1438.84,0.04028
1433.06,0.04053
1427.27,0.04068
1421.49,0.04068
1415.7,0.04034
1409.91,0.04040
1404.13,0.03893
1398.34,0.03884
1392.55,0.03865
1386.77,0.03816
1380.98,0.03785
1375.2,0.03779
1369.41,0.03780
1363.62,0.03817
1357.84,0.03825
1352.05,0.03848
1346.26,0.03824
1340.48,0.03827
1334.69,0.03780
1328.91,0.03814
1323.12,0.03738
1317.33,0.03756
1311.55,0.03748
1305.76,0.03749
1299.97,0.03740
1294.19,0.03750
1288.4,0.03681
1282.62,0.03637
1276.83,0.03631
1271.04,0.03568
1265.26,0.03510
1259.47,0.03448
1253.68,0.03400
1247.9,0.03349
1242.11,0.03328
1236.33,0.03397
1230.54,0.03424
1224.75,0.03495
1218.97,0.03545
1213.18,0.03568
1207.39,0.03586
1201.61,0.03608
1195.82,0.03607
1190.04,0.03596
1184.25,0.03666
1178.46,0.03699
1172.68,0.03726
1166.89,0.03763
1161.1,0.03849
1155.32,0.03902
1149.53,0.04161
1143.75,0.04189
1137.96,0.04424
1132.17,0.04520
1126.39,0.04735
1120.6,0.05019
1114.81,0.05250
1109.03,0.05410
1103.24,0.05611
1097.46,0.05945
1091.67,0.06176
1085.88,0.06204
1080.1,0.06270
1074.31,0.06360
1068.52,0.06463
1062.74,0.06499
1056.95,0.06521
1051.17,0.06560
1045.38,0.06723
1039.59,0.06963
1033.81,0.07192
1028.02,0.07123
1022.24,0.06928
1016.45,0.07076
1010.66,0.07305
1004.88,0.07545
999.09,0.07570
993.304,0.07569
987.518,0.07558
981.731,0.07474
975.945,0.07436
970.159,0.07337
964.373,0.07200
958.586,0.07243
952.8,0.07248
947.014,0.07293
941.228,0.07118
935.441,0.06879
929.655,0.06620
923.869,0.06395
918.083,0.06318
912.297,0.06373
906.51,0.06348
900.724,0.06330
894.938,0.06326
889.152,0.06364
883.365,0.06064
877.579,0.05927
871.793,0.05712
866.007,0.05581
860.22,0.05534
854.434,0.05430
848.648,0.05268
842.862,0.05166
837.075,0.05050
831.289,0.04917
825.503,0.04788
819.717,0.04771
813.931,0.04743
808.144,0.04656
802.358,0.04595
796.572,0.04660
790.786,0.04636
784.999,0.04531
779.213,0.04565
773.427,0.04572
767.641,0.04603
761.854,0.04560
756.068,0.04656
750.282,0.04750
744.496,0.04814
738.709,0.04667
732.923,0.04633
727.137,0.04567
721.351,0.04484
715.565,0.04524
709.778,0.04510
703.992,0.04427
698.206,0.04420
692.42,0.04446
686.633,0.04454
680.847,0.04556
675.061,0.04481
669.275,0.04443
663.488,0.04253
657.702,0.04329
651.916,0.04483
646.13,0.04673
640.343,0.04631
634.557,0.04536
628.771,0.04363
622.985,0.04396
617.198,0.04433
611.412,0.04159
605.626,0.04225
599.84,0.04279