File: 01_Data/Asphalt_Shingle/FTIR/IS/Asphalt_Shingle_IS_S_220831_R5.dpt
7497.03,0.05875
7491.25,0.05452
7485.46,0.05756
7479.67,0.06130
7473.89,0.05302
7468.1,0.05480
7462.32,0.05353
7456.53,0.06396
7450.74,0.05484
7444.96,0.04845
7439.17,0.06303
7433.38,0.05612
7427.6,0.05522
7421.81,0.06102
7416.03,0.05729
7410.24,0.05448
7404.45,0.05940
7398.67,0.06033
7392.88,0.05560
7387.09,0.05373
7381.31,0.05828
7375.52,0.05284
7369.74,0.05776
7363.95,0.05191
7358.16,0.05986
7352.38,0.06024
7346.59,0.06048
7340.8,0.05535
7335.02,0.05201
7329.23,0.05465
7323.45,0.06270
7317.66,0.05375
7311.87,0.05669
7306.09,0.05425
7300.3,0.05751
7294.51,0.05481
7288.73,0.05702
7282.94,0.05850
7277.16,0.05877
7271.37,0.06383
7265.58,0.05247
7259.8,0.05751
7254.01,0.05464
7248.22,0.05930
7242.44,0.05349
7236.65,0.05319
7230.87,0.05627
7225.08,0.05913
7219.29,0.05838
7213.51,0.05830
7207.72,0.06197
7201.93,0.05716
7196.15,0.05699
7190.36,0.05519
7184.58,0.05199
7178.79,0.06073
7173,0.05388
7167.22,0.05474
7161.43,0.05078
7155.65,0.05479
7149.86,0.05737
7144.07,0.05996
7138.29,0.05690
7132.5,0.05763
7126.71,0.05221
7120.93,0.04995
7115.14,0.05595
7109.36,0.05355
7103.57,0.05985
7097.78,0.05940
7092,0.05740
7086.21,0.06015
7080.42,0.05353
7074.64,0.04995
7068.85,0.06204
7063.07,0.06030
7057.28,0.06098
7051.49,0.06150
7045.71,0.05824
7039.92,0.05044
7034.13,0.05738
7028.35,0.05328
7022.56,0.05777
7016.78,0.05456
7010.99,0.05932
7005.2,0.05344
6999.42,0.05646
6993.63,0.05489
6987.84,0.06178
6982.06,0.05506
6976.27,0.05904
6970.49,0.05273
6964.7,0.05480
6958.91,0.06075
6953.13,0.05453
6947.34,0.05664
6941.55,0.05293
6935.77,0.05252
6929.98,0.05484
6924.2,0.05642
6918.41,0.05809
6912.62,0.05528
6906.84,0.05709
6901.05,0.05514
6895.26,0.05972
6889.48,0.05637
6883.69,0.05375
6877.91,0.05500
6872.12,0.05479
6866.33,0.05722
6860.55,0.05384
6854.76,0.05632
6848.97,0.05956
6843.19,0.05501
6837.4,0.05951
6831.62,0.05171
6825.83,0.05895
6820.04,0.05779
6814.26,0.05833
6808.47,0.05125
6802.68,0.05702
6796.9,0.06357
6791.11,0.05502
6785.33,0.05253
6779.54,0.05441
6773.75,0.05313
6767.97,0.05857
6762.18,0.05509
6756.39,0.05611
6750.61,0.06148
6744.82,0.05363
6739.04,0.05908
6733.25,0.05819
6727.46,0.05766
6721.68,0.04929
6715.89,0.05470
6710.1,0.05591
6704.32,0.05671
6698.53,0.05646
6692.75,0.05925
6686.96,0.05620
6681.17,0.06053
6675.39,0.05657
6669.6,0.05712
6663.82,0.05870
6658.03,0.06176
6652.24,0.05754
6646.46,0.06056
6640.67,0.05946
6634.88,0.05553
6629.1,0.05984
6623.31,0.05876
6617.53,0.05676
6611.74,0.05540
6605.95,0.05560
6600.17,0.05675
6594.38,0.05661
6588.59,0.05916
6582.81,0.05794
6577.02,0.05508
6571.24,0.05263
6565.45,0.05909
6559.66,0.05338
6553.88,0.05775
6548.09,0.05753
6542.3,0.05249
6536.52,0.05840
6530.73,0.05574
6524.95,0.05611
6519.16,0.05292
6513.37,0.05542
6507.59,0.05262
6501.8,0.05632
6496.01,0.05539
6490.23,0.05731
6484.44,0.05875
6478.66,0.05452
6472.87,0.05609
6467.08,0.05836
6461.3,0.05990
6455.51,0.05950
6449.72,0.05680
6443.94,0.05660
6438.15,0.05905
6432.37,0.05945
6426.58,0.05805
6420.79,0.05534
6415.01,0.06099
6409.22,0.05917
6403.43,0.05871
6397.65,0.06017
6391.86,0.05979
6386.08,0.05531
6380.29,0.05778
6374.5,0.05352
6368.72,0.05833
6362.93,0.05288
6357.14,0.05512
6351.36,0.05496
6345.57,0.05343
6339.79,0.05032
6334,0.05773
6328.21,0.05877
6322.43,0.05882
6316.64,0.05701
6310.85,0.05800
6305.07,0.05600
6299.28,0.05482
6293.5,0.05662
6287.71,0.05814
6281.92,0.05428
6276.14,0.05598
6270.35,0.05664
6264.56,0.05628
6258.78,0.05651
6252.99,0.05628
6247.21,0.05618
6241.42,0.05945
6235.63,0.05610
6229.85,0.05797
6224.06,0.06121
6218.27,0.05875
6212.49,0.06020
6206.7,0.05809
6200.92,0.05874
6195.13,0.05821
6189.34,0.05903
6183.56,0.05742
6177.77,0.05380
6171.98,0.05850
6166.2,0.05752
6160.41,0.05906
6154.63,0.05871
6148.84,0.06060
6143.05,0.05933
6137.27,0.06046
6131.48,0.05794
6125.7,0.05880
6119.91,0.05931
6114.12,0.05967
6108.34,0.05367
6102.55,0.05329
6096.76,0.05708
6090.98,0.05963
6085.19,0.06073
6079.41,0.05979
6073.62,0.05919
6067.83,0.05752
6062.05,0.05665
6056.26,0.05857
6050.47,0.06076
6044.69,0.05675
6038.9,0.05788
6033.12,0.06034
6027.33,0.05984
6021.54,0.05813
6015.76,0.05950
6009.97,0.05942
6004.18,0.05808
5998.4,0.06061
5992.61,0.06079
5986.83,0.06065
5981.04,0.05872
5975.25,0.05821
5969.47,0.06085
5963.68,0.05925
5957.89,0.05734
5952.11,0.05900
5946.32,0.06080
5940.54,0.05985
5934.75,0.05956
5928.96,0.05942
5923.18,0.05829
5917.39,0.05798
5911.6,0.05939
5905.82,0.05973
5900.03,0.05932
5894.25,0.06035
5888.46,0.05778
5882.67,0.05821
5876.89,0.05826
5871.1,0.06004
5865.31,0.05912
5859.53,0.05766
5853.74,0.06035
5847.96,0.05883
5842.17,0.05954
5836.38,0.05862
5830.6,0.06243
5824.81,0.06196
5819.02,0.05881
5813.24,0.05882
5807.45,0.05651
5801.67,0.05999
5795.88,0.06194
5790.09,0.05830
5784.31,0.06080
5778.52,0.06100
5772.73,0.06115
5766.95,0.06008
5761.16,0.05988
5755.38,0.06012
5749.59,0.05931
5743.8,0.06037
5738.02,0.06089
5732.23,0.06129
5726.44,0.06076
5720.66,0.05955
5714.87,0.05791
5709.09,0.06037
5703.3,0.06212
5697.51,0.05870
5691.73,0.06007
5685.94,0.06270
5680.15,0.06115
5674.37,0.05981
5668.58,0.05983
5662.8,0.06076
5657.01,0.06004
5651.22,0.06142
5645.44,0.06087
5639.65,0.05940
5633.87,0.06113
5628.08,0.06052
5622.29,0.05951
5616.51,0.06190
5610.72,0.06080
5604.93,0.06048
5599.15,0.06039
5593.36,0.06373
5587.58,0.06247
5581.79,0.05952
5576,0.06149
5570.22,0.06145
5564.43,0.06094
5558.64,0.06118
5552.86,0.06078
5547.07,0.06031
5541.29,0.06006
5535.5,0.06147
5529.71,0.06034
5523.93,0.06045
5518.14,0.05942
5512.35,0.06145
5506.57,0.06268
5500.78,0.06053
5495,0.06154
5489.21,0.06020
5483.42,0.06255
5477.64,0.06137
5471.85,0.06149
5466.06,0.06077
5460.28,0.06369
5454.49,0.06304
5448.71,0.06205
5442.92,0.06392
5437.13,0.06254
5431.35,0.06277
5425.56,0.06164
5419.77,0.06145
5413.99,0.06196
5408.2,0.06289
5402.42,0.06243
5396.63,0.06167
5390.84,0.06128
5385.06,0.06123
5379.27,0.06220
5373.48,0.06318
5367.7,0.06201
5361.91,0.06169
5356.13,0.06315
5350.34,0.06126
5344.55,0.06191
5338.77,0.06223
5332.98,0.06245
5327.19,0.06158
5321.41,0.06072
5315.62,0.06199
5309.84,0.06182
5304.05,0.06177
5298.26,0.06315
5292.48,0.06149
5286.69,0.06147
5280.9,0.06132
5275.12,0.06212
5269.33,0.06268
5263.55,0.06208
5257.76,0.06324
5251.97,0.06303
5246.19,0.06236
5240.4,0.06390
5234.61,0.06243
5228.83,0.06312
5223.04,0.06394
5217.26,0.06290
5211.47,0.06395
5205.68,0.06250
5199.9,0.06142
5194.11,0.06248
5188.32,0.06264
5182.54,0.06342
5176.75,0.06496
5170.97,0.06301
5165.18,0.06317
5159.39,0.06362
5153.61,0.06350
5147.82,0.06239
5142.03,0.06377
5136.25,0.06340
5130.46,0.06268
5124.68,0.06276
5118.89,0.06224
5113.1,0.06250
5107.32,0.06278
5101.53,0.06373
5095.75,0.06324
5089.96,0.06425
5084.17,0.06352
5078.39,0.06357
5072.6,0.06280
5066.81,0.06357
5061.03,0.06262
5055.24,0.06248
5049.46,0.06385
5043.67,0.06431
5037.88,0.06469
5032.1,0.06396
5026.31,0.06395
5020.52,0.06403
5014.74,0.06326
5008.95,0.06453
5003.17,0.06322
4997.38,0.06442
4991.59,0.06440
4985.81,0.06359
4980.02,0.06478
4974.23,0.06407
4968.45,0.06471
4962.66,0.06478
4956.88,0.06262
4951.09,0.06441
4945.3,0.06436
4939.52,0.06476
4933.73,0.06395
4927.94,0.06496
4922.16,0.06492
4916.37,0.06494
4910.59,0.06537
4904.8,0.06419
4899.01,0.06367
4893.23,0.06459
4887.44,0.06435
4881.65,0.06442
4875.87,0.06395
4870.08,0.06453
4864.3,0.06430
4858.51,0.06466
4852.72,0.06506
4846.94,0.06569
4841.15,0.06533
4835.36,0.06553
4829.58,0.06486
4823.79,0.06654
4818.01,0.06545
4812.22,0.06458
4806.43,0.06588
4800.65,0.06594
4794.86,0.06597
4789.07,0.06509
4783.29,0.06555
4777.5,0.06637
4771.72,0.06509
4765.93,0.06514
4760.14,0.06631
4754.36,0.06506
4748.57,0.06586
4742.78,0.06517
4737,0.06550
4731.21,0.06592
4725.43,0.06495
4719.64,0.06521
4713.85,0.06547
4708.07,0.06550
4702.28,0.06528
4696.49,0.06480
4690.71,0.06578
4684.92,0.06573
4679.14,0.06553
4673.35,0.06450
4667.56,0.06654
4661.78,0.06590
4655.99,0.06579
4650.2,0.06604
4644.42,0.06576
4638.63,0.06583
4632.85,0.06650
4627.06,0.06609
4621.27,0.06514
4615.49,0.06614
4609.7,0.06590
4603.92,0.06644
4598.13,0.06529
4592.34,0.06558
4586.56,0.06533
4580.77,0.06552
4574.98,0.06608
4569.2,0.06476
4563.41,0.06559
4557.63,0.06514
4551.84,0.06514
4546.05,0.06538
4540.27,0.06584
4534.48,0.06468
4528.69,0.06550
4522.91,0.06592
4517.12,0.06479
4511.34,0.06522
4505.55,0.06531
4499.76,0.06473
4493.98,0.06462
4488.19,0.06499
4482.4,0.06452
4476.62,0.06363
4470.83,0.06492
4465.05,0.06371
4459.26,0.06336
4453.47,0.06262
4447.69,0.06143
4441.9,0.06074
4436.11,0.06200
4430.33,0.06212
4424.54,0.06248
4418.76,0.06135
4412.97,0.06076
4407.18,0.06222
4401.4,0.06198
4395.61,0.06280
4389.82,0.06319
4384.04,0.06241
4378.25,0.06161
4372.47,0.06201
4366.68,0.06059
4360.89,0.06126
4355.11,0.06029
4349.32,0.06064
4343.53,0.05946
4337.75,0.05995
4331.96,0.05913
4326.18,0.05925
4320.39,0.05871
4314.6,0.05843
4308.82,0.05765
4303.03,0.05751
4297.24,0.05831
4291.46,0.05750
4285.67,0.05726
4279.89,0.05713
4274.1,0.05640
4268.31,0.05716
4262.53,0.05749
4256.74,0.05764
4250.95,0.05851
4245.17,0.05850
4239.38,0.05969
4233.6,0.06051
4227.81,0.06012
4222.02,0.06127
4216.24,0.06119
4210.45,0.06144
4204.66,0.06232
4198.88,0.06210
4193.09,0.06185
4187.31,0.06222
4181.52,0.06264
4175.73,0.06186
4169.95,0.06229
4164.16,0.06301
4158.37,0.06349
4152.59,0.06286
4146.8,0.06324
4141.02,0.06311
4135.23,0.06321
4129.44,0.06370
4123.66,0.06401
4117.87,0.06382
4112.09,0.06340
4106.3,0.06356
4100.51,0.06323
4094.73,0.06346
4088.94,0.06310
4083.15,0.06361
4077.37,0.06313
4071.58,0.06314
4065.8,0.06283
4060.01,0.06258
4054.22,0.06156
4048.44,0.06185
4042.65,0.06221
4036.86,0.06225
4031.08,0.06159
4025.29,0.06171
4019.51,0.06157
4013.72,0.06158
4007.93,0.06132
4002.15,0.06137
3996.36,0.06191
3990.57,0.06154
3984.79,0.06161
3979,0.06178
3973.22,0.06189
3967.43,0.06197
3961.64,0.06130
3955.86,0.06172
3950.07,0.06143
3944.28,0.06166
3938.5,0.06125
3932.71,0.06231
3926.93,0.06191
3921.14,0.06143
3915.35,0.06200
3909.57,0.06166
3903.78,0.06243
3897.99,0.06207
3892.21,0.06224
3886.42,0.06147
3880.64,0.06193
3874.85,0.06162
3869.06,0.06198
3863.28,0.06152
3857.49,0.06179
3851.7,0.06195
3845.92,0.06203
3840.13,0.06167
3834.35,0.06195
3828.56,0.06184
3822.77,0.06207
3816.99,0.06203
3811.2,0.06243
3805.41,0.06185
3799.63,0.06219
3793.84,0.06247
3788.06,0.06202
3782.27,0.06184
3776.48,0.06172
3770.7,0.06176
3764.91,0.06220
3759.12,0.06204
3753.34,0.06144
3747.55,0.06177
3741.77,0.06033
3735.98,0.06053
3730.19,0.05937
3724.41,0.05815
3718.62,0.05781
3712.83,0.05642
3707.05,0.05400
3701.26,0.05157
3695.48,0.04938
3689.69,0.04810
3683.9,0.04633
3678.12,0.04525
3672.33,0.04385
3666.54,0.04345
3660.76,0.04319
3654.97,0.04345
3649.19,0.04378
3643.4,0.04249
3637.61,0.04289
3631.83,0.04315
3626.04,0.04221
3620.25,0.04218
3614.47,0.04145
3608.68,0.04111
3602.9,0.04115
3597.11,0.04095
3591.32,0.04025
3585.54,0.04035
3579.75,0.04014
3573.97,0.04045
3568.18,0.03986
3562.39,0.03901
3556.61,0.03943
3550.82,0.03967
3545.03,0.03877
3539.25,0.03899
3533.46,0.03916
3527.68,0.03922
3521.89,0.03958
3516.1,0.03950
3510.32,0.03927
3504.53,0.03894
3498.74,0.03876
3492.96,0.03881
3487.17,0.03892
3481.39,0.03859
3475.6,0.03910
3469.81,0.03874
3464.03,0.03825
3458.24,0.03905
3452.45,0.03870
3446.67,0.03793
3440.88,0.03782
3435.1,0.03876
3429.31,0.03862
3423.52,0.03873
3417.74,0.03811
3411.95,0.03869
3406.16,0.03854
3400.38,0.03837
3394.59,0.03820
3388.81,0.03805
3383.02,0.03804
3377.23,0.03789
3371.45,0.03770
3365.66,0.03848
3359.87,0.03822
3354.09,0.03884
3348.3,0.03859
3342.52,0.03871
3336.73,0.03854
3330.94,0.03877
3325.16,0.03854
3319.37,0.03892
3313.58,0.04028
3307.8,0.03984
3302.01,0.03951
3296.23,0.03916
3290.44,0.03904
3284.65,0.03952
3278.87,0.03958
3273.08,0.03952
3267.29,0.03983
3261.51,0.04072
3255.72,0.04021
3249.94,0.04044
3244.15,0.04105
3238.36,0.04159
3232.58,0.04085
3226.79,0.04061
3221,0.04180
3215.22,0.04155
3209.43,0.04141
3203.65,0.04167
3197.86,0.04260
3192.07,0.04226
3186.29,0.04281
3180.5,0.04310
3174.71,0.04329
3168.93,0.04387
3163.14,0.04366
3157.36,0.04381
3151.57,0.04422
3145.78,0.04442
3140,0.04435
3134.21,0.04446
3128.42,0.04522
3122.64,0.04521
3116.85,0.04577
3111.07,0.04598
3105.28,0.04608
3099.49,0.04647
3093.71,0.04625
3087.92,0.04628
3082.14,0.04617
3076.35,0.04661
3070.56,0.04655
3064.78,0.04657
3058.99,0.04711
3053.2,0.04711
3047.42,0.04696
3041.63,0.04716
3035.85,0.04737
3030.06,0.04759
3024.27,0.04775
3018.49,0.04788
3012.7,0.04847
3006.91,0.04808
3001.13,0.04772
2995.34,0.04715
2989.56,0.04729
2983.77,0.04669
2977.98,0.04588
2972.2,0.04502
2966.41,0.04363
2960.62,0.04282
2954.84,0.04292
2949.05,0.04288
2943.27,0.04282
2937.48,0.04146
2931.69,0.04164
2925.91,0.04180
2920.12,0.04345
2914.33,0.04487
2908.55,0.04557
2902.76,0.04614
2896.98,0.04634
2891.19,0.04705
2885.4,0.04707
2879.62,0.04768
2873.83,0.04748
2868.04,0.04666
2862.26,0.04633
2856.47,0.04528
2850.69,0.04662
2844.9,0.04891
2839.11,0.05107
2833.33,0.05192
2827.54,0.05339
2821.75,0.05336
2815.97,0.05354
2810.18,0.05420
2804.4,0.05449
2798.61,0.05494
2792.82,0.05559
2787.04,0.05559
2781.25,0.05618
2775.46,0.05623
2769.68,0.05605
2763.89,0.05601
2758.11,0.05666
2752.32,0.05682
2746.53,0.05645
2740.75,0.05683
2734.96,0.05676
2729.17,0.05668
2723.39,0.05712
2717.6,0.05732
2711.82,0.05708
2706.03,0.05733
2700.24,0.05755
2694.46,0.05774
2688.67,0.05792
2682.88,0.05813
2677.1,0.05797
2671.31,0.05815
2665.53,0.05795
2659.74,0.05831
2653.95,0.05819
2648.17,0.05819
2642.38,0.05853
2636.59,0.05867
2630.81,0.05879
2625.02,0.05854
2619.24,0.05857
2613.45,0.05831
2607.66,0.05854
2601.88,0.05859
2596.09,0.05847
2590.3,0.05873
2584.52,0.05875
2578.73,0.05885
2572.95,0.05896
2567.16,0.05916
2561.37,0.05917
2555.59,0.05899
2549.8,0.05909
2544.02,0.05911
2538.23,0.05894
2532.44,0.05860
2526.66,0.05850
2520.87,0.05856
2515.08,0.05842
2509.3,0.05856
2503.51,0.05841
2497.73,0.05911
2491.94,0.05910
2486.15,0.05933
2480.37,0.05929
2474.58,0.05921
2468.79,0.05940
2463.01,0.05972
2457.22,0.05956
2451.44,0.05992
2445.65,0.05951
2439.86,0.05969
2434.08,0.06011
2428.29,0.06009
2422.5,0.05993
2416.72,0.05972
2410.93,0.05986
2405.15,0.05964
2399.36,0.05997
2393.57,0.06000
2387.79,0.05969
2382,0.05942
2376.21,0.05924
2370.43,0.05891
2364.64,0.05913
2358.86,0.05859
2353.07,0.05848
2347.28,0.05838
2341.5,0.05815
2335.71,0.05802
2329.92,0.05851
2324.14,0.05853
2318.35,0.05804
2312.57,0.05815
2306.78,0.05803
2300.99,0.05803
2295.21,0.05763
2289.42,0.05750
2283.63,0.05757
2277.85,0.05739
2272.06,0.05715
2266.28,0.05672
2260.49,0.05650
2254.7,0.05635
2248.92,0.05617
2243.13,0.05573
2237.34,0.05578
2231.56,0.05541
2225.77,0.05520
2219.99,0.05493
2214.2,0.05477
2208.41,0.05429
2202.63,0.05394
2196.84,0.05368
2191.05,0.05312
2185.27,0.05259
2179.48,0.05214
2173.7,0.05165
2167.91,0.05127
2162.12,0.05069
2156.34,0.05067
2150.55,0.05038
2144.76,0.05028
2138.98,0.05011
2133.19,0.04992
2127.41,0.04987
2121.62,0.04952
2115.83,0.04938
2110.05,0.04949
2104.26,0.04873
2098.47,0.04845
2092.69,0.04785
2086.9,0.04775
2081.12,0.04764
2075.33,0.04751
2069.54,0.04691
2063.76,0.04710
2057.97,0.04678
2052.19,0.04640
2046.4,0.04621
2040.61,0.04590
2034.83,0.04551
2029.04,0.04520
2023.25,0.04523
2017.47,0.04554
2011.68,0.04505
2005.9,0.04507
2000.11,0.04526
1994.32,0.04522
1988.54,0.04546
1982.75,0.04502
1976.96,0.04474
1971.18,0.04534
1965.39,0.04531
1959.61,0.04534
1953.82,0.04517
1948.03,0.04507
1942.25,0.04487
1936.46,0.04472
1930.67,0.04496
1924.89,0.04462
1919.1,0.04467
1913.32,0.04421
1907.53,0.04426
1901.74,0.04430
1895.96,0.04395
1890.17,0.04433
1884.38,0.04396
1878.6,0.04388
1872.81,0.04407
1867.03,0.04414
1861.24,0.04375
1855.45,0.04379
1849.67,0.04376
1843.88,0.04352
1838.09,0.04379
1832.31,0.04360
1826.52,0.04318
1820.74,0.04310
1814.95,0.04261
1809.16,0.04247
1803.38,0.04192
1797.59,0.04107
1791.8,0.04098
1786.02,0.04080
1780.23,0.04078
1774.45,0.04095
1768.66,0.04077
1762.87,0.04067
1757.09,0.04057
1751.3,0.04002
1745.51,0.03984
1739.73,0.03975
1733.94,0.03967
1728.16,0.03927
1722.37,0.03940
1716.58,0.03918
1710.8,0.03882
1705.01,0.03880
1699.22,0.03853
1693.44,0.03834
1687.65,0.03816
1681.87,0.03882
1676.08,0.03842
1670.29,0.03863
1664.51,0.03931
1658.72,0.03930
1652.93,0.03952
1647.15,0.03967
1641.36,0.03969
1635.58,0.04016
1629.79,0.04023
1624,0.03993
1618.22,0.04016
1612.43,0.04002
1606.64,0.04021
1600.86,0.04083
1595.07,0.04150
1589.29,0.04166
1583.5,0.04247
1577.71,0.04389
1571.93,0.04491
1566.14,0.04625
1560.35,0.04792
1554.57,0.04872
1548.78,0.04907
1543,0.04850
1537.21,0.04878
1531.42,0.04831
1525.64,0.04832
1519.85,0.04794
1514.07,0.04683
1508.28,0.04665
1502.49,0.04594
1496.71,0.04561
1490.92,0.04507
1485.13,0.04421
1479.35,0.04301
1473.56,0.04202
1467.78,0.04024
1461.99,0.04013
1456.2,0.03992
1450.42,0.03978
1444.63,0.04011
1438.84,0.04047
1433.06,0.04057
1427.27,0.04025
1421.49,0.04018
1415.7,0.04009
1409.91,0.03950
1404.13,0.03925
1398.34,0.03872
1392.55,0.03848
1386.77,0.03806
1380.98,0.03803
1375.2,0.03726
1369.41,0.03759
1363.62,0.03796
1357.84,0.03799
1352.05,0.03778
1346.26,0.03829
1340.48,0.03832
1334.69,0.03821
1328.91,0.03794
1323.12,0.03763
1317.33,0.03735
1311.55,0.03708
1305.76,0.03715
1299.97,0.03691
1294.19,0.03715
1288.4,0.03679
1282.62,0.03667
1276.83,0.03642
1271.04,0.03563
1265.26,0.03544
1259.47,0.03450
1253.68,0.03400
1247.9,0.03364
1242.11,0.03334
1236.33,0.03347
1230.54,0.03435
1224.75,0.03455
1218.97,0.03532
1213.18,0.03496
1207.39,0.03560
1201.61,0.03581
1195.82,0.03579
1190.04,0.03622
1184.25,0.03643
1178.46,0.03637
1172.68,0.03723
1166.89,0.03784
1161.1,0.03818
1155.32,0.03873
1149.53,0.04052
1143.75,0.04225
1137.96,0.04322
1132.17,0.04508
1126.39,0.04683
1120.6,0.04943
1114.81,0.05111
1109.03,0.05300
1103.24,0.05624
1097.46,0.05900
1091.67,0.06051
1085.88,0.06145
1080.1,0.06258
1074.31,0.06387
1068.52,0.06378
1062.74,0.06382
1056.95,0.06483
1051.17,0.06488
1045.38,0.06704
1039.59,0.06915
1033.81,0.07171
1028.02,0.07116
1022.24,0.06910
1016.45,0.06975
1010.66,0.07303
1004.88,0.07513
999.09,0.07526
993.304,0.07535
987.518,0.07559
981.731,0.07426
975.945,0.07361
970.159,0.07288
964.373,0.07216
958.586,0.07218
952.8,0.07253
947.014,0.07205
941.228,0.07040
935.441,0.06767
929.655,0.06562
923.869,0.06376
918.083,0.06320
912.297,0.06264
906.51,0.06310
900.724,0.06273
894.938,0.06256
889.152,0.06313
883.365,0.06057
877.579,0.05903
871.793,0.05748
866.007,0.05576
860.22,0.05533
854.434,0.05443
848.648,0.05218
842.862,0.05084
837.075,0.05015
831.289,0.04942
825.503,0.04864
819.717,0.04677
813.931,0.04679
808.144,0.04606
802.358,0.04589
796.572,0.04544
790.786,0.04507
784.999,0.04572
779.213,0.04694
773.427,0.04530
767.641,0.04554
761.854,0.04536
756.068,0.04667
750.282,0.04676
744.496,0.04657
738.709,0.04618
732.923,0.04603
727.137,0.04494
721.351,0.04475
715.565,0.04604
709.778,0.04476
703.992,0.04459
698.206,0.04314
692.42,0.04462
686.633,0.04368
680.847,0.04461
675.061,0.04366
669.275,0.04427
663.488,0.04406
657.702,0.04484
651.916,0.04504
646.13,0.04853
640.343,0.04712
634.557,0.04563
628.771,0.04483
622.985,0.04420
617.198,0.04262
611.412,0.04075
605.626,0.04224
599.84,0.04254