File: 01_Data/Asphalt_Shingle/FTIR/IS/Asphalt_Shingle_IS_S_220831_R7.dpt
7497.03,0.05587
7491.25,0.05403
7485.46,0.05282
7479.67,0.04938
7473.89,0.06118
7468.1,0.05016
7462.32,0.05349
7456.53,0.05801
7450.74,0.05359
7444.96,0.05149
7439.17,0.05479
7433.38,0.05957
7427.6,0.05853
7421.81,0.05136
7416.03,0.05736
7410.24,0.04628
7404.45,0.04764
7398.67,0.04670
7392.88,0.04429
7387.09,0.05375
7381.31,0.06041
7375.52,0.05702
7369.74,0.05271
7363.95,0.06162
7358.16,0.06086
7352.38,0.05603
7346.59,0.06096
7340.8,0.05365
7335.02,0.05719
7329.23,0.05775
7323.45,0.05686
7317.66,0.06295
7311.87,0.05521
7306.09,0.05184
7300.3,0.04848
7294.51,0.05017
7288.73,0.05479
7282.94,0.05592
7277.16,0.05788
7271.37,0.05394
7265.58,0.05462
7259.8,0.05480
7254.01,0.05429
7248.22,0.05208
7242.44,0.05146
7236.65,0.05500
7230.87,0.05770
7225.08,0.04910
7219.29,0.05158
7213.51,0.06108
7207.72,0.05847
7201.93,0.06542
7196.15,0.06200
7190.36,0.05618
7184.58,0.05017
7178.79,0.05426
7173,0.05601
7167.22,0.05083
7161.43,0.05264
7155.65,0.05429
7149.86,0.05756
7144.07,0.05464
7138.29,0.05655
7132.5,0.05925
7126.71,0.05322
7120.93,0.05351
7115.14,0.05040
7109.36,0.05928
7103.57,0.05909
7097.78,0.05907
7092,0.06433
7086.21,0.05796
7080.42,0.05366
7074.64,0.05685
7068.85,0.05980
7063.07,0.05752
7057.28,0.05863
7051.49,0.06093
7045.71,0.05397
7039.92,0.05463
7034.13,0.05684
7028.35,0.05230
7022.56,0.05878
7016.78,0.05755
7010.99,0.05485
7005.2,0.05699
6999.42,0.06186
6993.63,0.05876
6987.84,0.05541
6982.06,0.05498
6976.27,0.06382
6970.49,0.05930
6964.7,0.05703
6958.91,0.05648
6953.13,0.05565
6947.34,0.05627
6941.55,0.06028
6935.77,0.05945
6929.98,0.06183
6924.2,0.05500
6918.41,0.05314
6912.62,0.05507
6906.84,0.06019
6901.05,0.06196
6895.26,0.05482
6889.48,0.05408
6883.69,0.05492
6877.91,0.04896
6872.12,0.05809
6866.33,0.05690
6860.55,0.05635
6854.76,0.05745
6848.97,0.05186
6843.19,0.05791
6837.4,0.05864
6831.62,0.05430
6825.83,0.05582
6820.04,0.05996
6814.26,0.06131
6808.47,0.05814
6802.68,0.05966
6796.9,0.05947
6791.11,0.05737
6785.33,0.05750
6779.54,0.05634
6773.75,0.05778
6767.97,0.05531
6762.18,0.05986
6756.39,0.05474
6750.61,0.05709
6744.82,0.05963
6739.04,0.05686
6733.25,0.06210
6727.46,0.05415
6721.68,0.05502
6715.89,0.05347
6710.1,0.05557
6704.32,0.05754
6698.53,0.06139
6692.75,0.05959
6686.96,0.05389
6681.17,0.06123
6675.39,0.05484
6669.6,0.05849
6663.82,0.05790
6658.03,0.05592
6652.24,0.05754
6646.46,0.05386
6640.67,0.05739
6634.88,0.05661
6629.1,0.04973
6623.31,0.05458
6617.53,0.05350
6611.74,0.05231
6605.95,0.05456
6600.17,0.05775
6594.38,0.05813
6588.59,0.05476
6582.81,0.05642
6577.02,0.05646
6571.24,0.05929
6565.45,0.05670
6559.66,0.05883
6553.88,0.05767
6548.09,0.05821
6542.3,0.06101
6536.52,0.05712
6530.73,0.05453
6524.95,0.05614
6519.16,0.05052
6513.37,0.05829
6507.59,0.05521
6501.8,0.05789
6496.01,0.05959
6490.23,0.05365
6484.44,0.05953
6478.66,0.05553
6472.87,0.05960
6467.08,0.05729
6461.3,0.05644
6455.51,0.05478
6449.72,0.05690
6443.94,0.05921
6438.15,0.05811
6432.37,0.05548
6426.58,0.05641
6420.79,0.05497
6415.01,0.05706
6409.22,0.05528
6403.43,0.05767
6397.65,0.05801
6391.86,0.05641
6386.08,0.05577
6380.29,0.05894
6374.5,0.05721
6368.72,0.05814
6362.93,0.06036
6357.14,0.05663
6351.36,0.05570
6345.57,0.05804
6339.79,0.05713
6334,0.05781
6328.21,0.05701
6322.43,0.05696
6316.64,0.05515
6310.85,0.05686
6305.07,0.05632
6299.28,0.05892
6293.5,0.05652
6287.71,0.05861
6281.92,0.05868
6276.14,0.05911
6270.35,0.05868
6264.56,0.05682
6258.78,0.05510
6252.99,0.05707
6247.21,0.05880
6241.42,0.05749
6235.63,0.05506
6229.85,0.05868
6224.06,0.05691
6218.27,0.05848
6212.49,0.05561
6206.7,0.06167
6200.92,0.05578
6195.13,0.05624
6189.34,0.05505
6183.56,0.05661
6177.77,0.06034
6171.98,0.05803
6166.2,0.05824
6160.41,0.05677
6154.63,0.05734
6148.84,0.05448
6143.05,0.05758
6137.27,0.05702
6131.48,0.05868
6125.7,0.05719
6119.91,0.05614
6114.12,0.05806
6108.34,0.05778
6102.55,0.05735
6096.76,0.05807
6090.98,0.06022
6085.19,0.05495
6079.41,0.06017
6073.62,0.05729
6067.83,0.05750
6062.05,0.05822
6056.26,0.05737
6050.47,0.05792
6044.69,0.05895
6038.9,0.05681
6033.12,0.05854
6027.33,0.05789
6021.54,0.05940
6015.76,0.05919
6009.97,0.06058
6004.18,0.06038
5998.4,0.05635
5992.61,0.05900
5986.83,0.05769
5981.04,0.06046
5975.25,0.05898
5969.47,0.05899
5963.68,0.05959
5957.89,0.05996
5952.11,0.05929
5946.32,0.06219
5940.54,0.05508
5934.75,0.05884
5928.96,0.06003
5923.18,0.05838
5917.39,0.05839
5911.6,0.05913
5905.82,0.06024
5900.03,0.05773
5894.25,0.06017
5888.46,0.05816
5882.67,0.05776
5876.89,0.06129
5871.1,0.06025
5865.31,0.05988
5859.53,0.05737
5853.74,0.05778
5847.96,0.06156
5842.17,0.06087
5836.38,0.06032
5830.6,0.06209
5824.81,0.06059
5819.02,0.05734
5813.24,0.06030
5807.45,0.05811
5801.67,0.06076
5795.88,0.06013
5790.09,0.06073
5784.31,0.05950
5778.52,0.05963
5772.73,0.05968
5766.95,0.05934
5761.16,0.06054
5755.38,0.06029
5749.59,0.05998
5743.8,0.05953
5738.02,0.06153
5732.23,0.06014
5726.44,0.05987
5720.66,0.06063
5714.87,0.05978
5709.09,0.05851
5703.3,0.05853
5697.51,0.05988
5691.73,0.06060
5685.94,0.06165
5680.15,0.06044
5674.37,0.06160
5668.58,0.06268
5662.8,0.06048
5657.01,0.06038
5651.22,0.06094
5645.44,0.05969
5639.65,0.06132
5633.87,0.06114
5628.08,0.06123
5622.29,0.06089
5616.51,0.06015
5610.72,0.06155
5604.93,0.06048
5599.15,0.06088
5593.36,0.05931
5587.58,0.06075
5581.79,0.06166
5576,0.06244
5570.22,0.06218
5564.43,0.06246
5558.64,0.06057
5552.86,0.05976
5547.07,0.06224
5541.29,0.06236
5535.5,0.06160
5529.71,0.06253
5523.93,0.06149
5518.14,0.06263
5512.35,0.06112
5506.57,0.06143
5500.78,0.06231
5495,0.06196
5489.21,0.06122
5483.42,0.06315
5477.64,0.06110
5471.85,0.06158
5466.06,0.06096
5460.28,0.06156
5454.49,0.06175
5448.71,0.06354
5442.92,0.06305
5437.13,0.06295
5431.35,0.06169
5425.56,0.06277
5419.77,0.06168
5413.99,0.06280
5408.2,0.06349
5402.42,0.06161
5396.63,0.06263
5390.84,0.06357
5385.06,0.06187
5379.27,0.06262
5373.48,0.06252
5367.7,0.06071
5361.91,0.06088
5356.13,0.06168
5350.34,0.06384
5344.55,0.06306
5338.77,0.06306
5332.98,0.06216
5327.19,0.06361
5321.41,0.06267
5315.62,0.06336
5309.84,0.06276
5304.05,0.06371
5298.26,0.06211
5292.48,0.06272
5286.69,0.06273
5280.9,0.06266
5275.12,0.06251
5269.33,0.06238
5263.55,0.06344
5257.76,0.06186
5251.97,0.06302
5246.19,0.06214
5240.4,0.06251
5234.61,0.06338
5228.83,0.06315
5223.04,0.06410
5217.26,0.06319
5211.47,0.06257
5205.68,0.06459
5199.9,0.06251
5194.11,0.06364
5188.32,0.06370
5182.54,0.06298
5176.75,0.06449
5170.97,0.06385
5165.18,0.06475
5159.39,0.06489
5153.61,0.06240
5147.82,0.06255
5142.03,0.06304
5136.25,0.06461
5130.46,0.06464
5124.68,0.06348
5118.89,0.06264
5113.1,0.06335
5107.32,0.06386
5101.53,0.06240
5095.75,0.06381
5089.96,0.06359
5084.17,0.06400
5078.39,0.06387
5072.6,0.06365
5066.81,0.06344
5061.03,0.06277
5055.24,0.06494
5049.46,0.06389
5043.67,0.06426
5037.88,0.06387
5032.1,0.06282
5026.31,0.06330
5020.52,0.06378
5014.74,0.06393
5008.95,0.06260
5003.17,0.06489
4997.38,0.06452
4991.59,0.06330
4985.81,0.06407
4980.02,0.06447
4974.23,0.06318
4968.45,0.06342
4962.66,0.06363
4956.88,0.06433
4951.09,0.06575
4945.3,0.06601
4939.52,0.06499
4933.73,0.06429
4927.94,0.06486
4922.16,0.06437
4916.37,0.06554
4910.59,0.06592
4904.8,0.06503
4899.01,0.06463
4893.23,0.06502
4887.44,0.06545
4881.65,0.06509
4875.87,0.06523
4870.08,0.06540
4864.3,0.06427
4858.51,0.06529
4852.72,0.06630
4846.94,0.06513
4841.15,0.06585
4835.36,0.06574
4829.58,0.06619
4823.79,0.06565
4818.01,0.06436
4812.22,0.06485
4806.43,0.06561
4800.65,0.06602
4794.86,0.06558
4789.07,0.06695
4783.29,0.06639
4777.5,0.06603
4771.72,0.06595
4765.93,0.06599
4760.14,0.06618
4754.36,0.06601
4748.57,0.06645
4742.78,0.06698
4737,0.06663
4731.21,0.06571
4725.43,0.06573
4719.64,0.06476
4713.85,0.06561
4708.07,0.06621
4702.28,0.06551
4696.49,0.06575
4690.71,0.06641
4684.92,0.06654
4679.14,0.06622
4673.35,0.06588
4667.56,0.06687
4661.78,0.06689
4655.99,0.06657
4650.2,0.06686
4644.42,0.06569
4638.63,0.06612
4632.85,0.06569
4627.06,0.06642
4621.27,0.06609
4615.49,0.06564
4609.7,0.06588
4603.92,0.06604
4598.13,0.06743
4592.34,0.06616
4586.56,0.06649
4580.77,0.06673
4574.98,0.06603
4569.2,0.06613
4563.41,0.06563
4557.63,0.06578
4551.84,0.06578
4546.05,0.06588
4540.27,0.06680
4534.48,0.06610
4528.69,0.06676
4522.91,0.06590
4517.12,0.06595
4511.34,0.06568
4505.55,0.06455
4499.76,0.06486
4493.98,0.06539
4488.19,0.06424
4482.4,0.06458
4476.62,0.06498
4470.83,0.06421
4465.05,0.06369
4459.26,0.06340
4453.47,0.06291
4447.69,0.06245
4441.9,0.06225
4436.11,0.06225
4430.33,0.06238
4424.54,0.06199
4418.76,0.06174
4412.97,0.06251
4407.18,0.06239
4401.4,0.06290
4395.61,0.06311
4389.82,0.06242
4384.04,0.06249
4378.25,0.06292
4372.47,0.06167
4366.68,0.06142
4360.89,0.06126
4355.11,0.06146
4349.32,0.06083
4343.53,0.06117
4337.75,0.05965
4331.96,0.05961
4326.18,0.05908
4320.39,0.05937
4314.6,0.05832
4308.82,0.05823
4303.03,0.05886
4297.24,0.05889
4291.46,0.05782
4285.67,0.05679
4279.89,0.05718
4274.1,0.05667
4268.31,0.05721
4262.53,0.05736
4256.74,0.05822
4250.95,0.05876
4245.17,0.05876
4239.38,0.06002
4233.6,0.06044
4227.81,0.06113
4222.02,0.06173
4216.24,0.06175
4210.45,0.06275
4204.66,0.06265
4198.88,0.06235
4193.09,0.06257
4187.31,0.06242
4181.52,0.06283
4175.73,0.06177
4169.95,0.06283
4164.16,0.06297
4158.37,0.06361
4152.59,0.06352
4146.8,0.06405
4141.02,0.06427
4135.23,0.06393
4129.44,0.06431
4123.66,0.06368
4117.87,0.06387
4112.09,0.06378
4106.3,0.06436
4100.51,0.06341
4094.73,0.06350
4088.94,0.06346
4083.15,0.06358
4077.37,0.06301
4071.58,0.06341
4065.8,0.06271
4060.01,0.06345
4054.22,0.06266
4048.44,0.06264
4042.65,0.06252
4036.86,0.06240
4031.08,0.06262
4025.29,0.06295
4019.51,0.06232
4013.72,0.06263
4007.93,0.06263
4002.15,0.06253
3996.36,0.06199
3990.57,0.06253
3984.79,0.06218
3979,0.06235
3973.22,0.06180
3967.43,0.06254
3961.64,0.06183
3955.86,0.06155
3950.07,0.06211
3944.28,0.06206
3938.5,0.06259
3932.71,0.06209
3926.93,0.06188
3921.14,0.06180
3915.35,0.06197
3909.57,0.06244
3903.78,0.06203
3897.99,0.06213
3892.21,0.06150
3886.42,0.06237
3880.64,0.06215
3874.85,0.06153
3869.06,0.06209
3863.28,0.06223
3857.49,0.06263
3851.7,0.06262
3845.92,0.06223
3840.13,0.06252
3834.35,0.06268
3828.56,0.06226
3822.77,0.06229
3816.99,0.06227
3811.2,0.06212
3805.41,0.06230
3799.63,0.06234
3793.84,0.06215
3788.06,0.06212
3782.27,0.06242
3776.48,0.06224
3770.7,0.06218
3764.91,0.06209
3759.12,0.06148
3753.34,0.06235
3747.55,0.06188
3741.77,0.06114
3735.98,0.06106
3730.19,0.06064
3724.41,0.05951
3718.62,0.05830
3712.83,0.05682
3707.05,0.05433
3701.26,0.05173
3695.48,0.05016
3689.69,0.04871
3683.9,0.04652
3678.12,0.04579
3672.33,0.04421
3666.54,0.04464
3660.76,0.04383
3654.97,0.04346
3649.19,0.04376
3643.4,0.04331
3637.61,0.04330
3631.83,0.04306
3626.04,0.04169
3620.25,0.04168
3614.47,0.04272
3608.68,0.04165
3602.9,0.04161
3597.11,0.04164
3591.32,0.04076
3585.54,0.04094
3579.75,0.04012
3573.97,0.04002
3568.18,0.03980
3562.39,0.03951
3556.61,0.03983
3550.82,0.03938
3545.03,0.03932
3539.25,0.03966
3533.46,0.03881
3527.68,0.03972
3521.89,0.03927
3516.1,0.03909
3510.32,0.03913
3504.53,0.03869
3498.74,0.03926
3492.96,0.03868
3487.17,0.03848
3481.39,0.03897
3475.6,0.03980
3469.81,0.03847
3464.03,0.03911
3458.24,0.03917
3452.45,0.03870
3446.67,0.03833
3440.88,0.03814
3435.1,0.03819
3429.31,0.03800
3423.52,0.03819
3417.74,0.03804
3411.95,0.03816
3406.16,0.03819
3400.38,0.03887
3394.59,0.03805
3388.81,0.03850
3383.02,0.03822
3377.23,0.03798
3371.45,0.03822
3365.66,0.03810
3359.87,0.03886
3354.09,0.03869
3348.3,0.03927
3342.52,0.03818
3336.73,0.03848
3330.94,0.03863
3325.16,0.03930
3319.37,0.03965
3313.58,0.03911
3307.8,0.03827
3302.01,0.03962
3296.23,0.03956
3290.44,0.03987
3284.65,0.04061
3278.87,0.04036
3273.08,0.04030
3267.29,0.04059
3261.51,0.04035
3255.72,0.04049
3249.94,0.04062
3244.15,0.04072
3238.36,0.04119
3232.58,0.04181
3226.79,0.04203
3221,0.04152
3215.22,0.04158
3209.43,0.04211
3203.65,0.04226
3197.86,0.04293
3192.07,0.04293
3186.29,0.04339
3180.5,0.04356
3174.71,0.04437
3168.93,0.04375
3163.14,0.04385
3157.36,0.04433
3151.57,0.04407
3145.78,0.04454
3140,0.04475
3134.21,0.04466
3128.42,0.04524
3122.64,0.04537
3116.85,0.04559
3111.07,0.04616
3105.28,0.04609
3099.49,0.04611
3093.71,0.04600
3087.92,0.04683
3082.14,0.04706
3076.35,0.04708
3070.56,0.04706
3064.78,0.04769
3058.99,0.04741
3053.2,0.04740
3047.42,0.04728
3041.63,0.04747
3035.85,0.04836
3030.06,0.04803
3024.27,0.04792
3018.49,0.04758
3012.7,0.04810
3006.91,0.04806
3001.13,0.04756
2995.34,0.04805
2989.56,0.04774
2983.77,0.04774
2977.98,0.04692
2972.2,0.04540
2966.41,0.04438
2960.62,0.04371
2954.84,0.04359
2949.05,0.04344
2943.27,0.04329
2937.48,0.04224
2931.69,0.04168
2925.91,0.04159
2920.12,0.04355
2914.33,0.04559
2908.55,0.04569
2902.76,0.04623
2896.98,0.04687
2891.19,0.04776
2885.4,0.04783
2879.62,0.04811
2873.83,0.04806
2868.04,0.04763
2862.26,0.04740
2856.47,0.04612
2850.69,0.04762
2844.9,0.04947
2839.11,0.05159
2833.33,0.05302
2827.54,0.05329
2821.75,0.05420
2815.97,0.05490
2810.18,0.05474
2804.4,0.05518
2798.61,0.05533
2792.82,0.05569
2787.04,0.05600
2781.25,0.05650
2775.46,0.05680
2769.68,0.05665
2763.89,0.05672
2758.11,0.05700
2752.32,0.05700
2746.53,0.05678
2740.75,0.05713
2734.96,0.05768
2729.17,0.05732
2723.39,0.05741
2717.6,0.05756
2711.82,0.05787
2706.03,0.05798
2700.24,0.05803
2694.46,0.05828
2688.67,0.05832
2682.88,0.05834
2677.1,0.05860
2671.31,0.05825
2665.53,0.05818
2659.74,0.05857
2653.95,0.05873
2648.17,0.05880
2642.38,0.05929
2636.59,0.05861
2630.81,0.05902
2625.02,0.05891
2619.24,0.05923
2613.45,0.05932
2607.66,0.05929
2601.88,0.05892
2596.09,0.05908
2590.3,0.05919
2584.52,0.05894
2578.73,0.05995
2572.95,0.05960
2567.16,0.05941
2561.37,0.05962
2555.59,0.05928
2549.8,0.05932
2544.02,0.05964
2538.23,0.05935
2532.44,0.05939
2526.66,0.05906
2520.87,0.05878
2515.08,0.05882
2509.3,0.05902
2503.51,0.05942
2497.73,0.05941
2491.94,0.05958
2486.15,0.05987
2480.37,0.06005
2474.58,0.05974
2468.79,0.05983
2463.01,0.06028
2457.22,0.06024
2451.44,0.06057
2445.65,0.06043
2439.86,0.06029
2434.08,0.06064
2428.29,0.06043
2422.5,0.06063
2416.72,0.06009
2410.93,0.06051
2405.15,0.06014
2399.36,0.06034
2393.57,0.06015
2387.79,0.05994
2382,0.06020
2376.21,0.05976
2370.43,0.05928
2364.64,0.05946
2358.86,0.05921
2353.07,0.05873
2347.28,0.05909
2341.5,0.05872
2335.71,0.05882
2329.92,0.05884
2324.14,0.05828
2318.35,0.05834
2312.57,0.05841
2306.78,0.05853
2300.99,0.05822
2295.21,0.05826
2289.42,0.05824
2283.63,0.05792
2277.85,0.05769
2272.06,0.05751
2266.28,0.05701
2260.49,0.05720
2254.7,0.05684
2248.92,0.05630
2243.13,0.05629
2237.34,0.05598
2231.56,0.05539
2225.77,0.05553
2219.99,0.05552
2214.2,0.05548
2208.41,0.05473
2202.63,0.05437
2196.84,0.05411
2191.05,0.05368
2185.27,0.05248
2179.48,0.05219
2173.7,0.05214
2167.91,0.05185
2162.12,0.05089
2156.34,0.05107
2150.55,0.05112
2144.76,0.05071
2138.98,0.05040
2133.19,0.05034
2127.41,0.04980
2121.62,0.04970
2115.83,0.04951
2110.05,0.04995
2104.26,0.04915
2098.47,0.04858
2092.69,0.04808
2086.9,0.04754
2081.12,0.04774
2075.33,0.04796
2069.54,0.04750
2063.76,0.04761
2057.97,0.04731
2052.19,0.04669
2046.4,0.04653
2040.61,0.04592
2034.83,0.04569
2029.04,0.04562
2023.25,0.04601
2017.47,0.04617
2011.68,0.04543
2005.9,0.04532
2000.11,0.04537
1994.32,0.04561
1988.54,0.04595
1982.75,0.04538
1976.96,0.04544
1971.18,0.04588
1965.39,0.04552
1959.61,0.04560
1953.82,0.04559
1948.03,0.04536
1942.25,0.04540
1936.46,0.04524
1930.67,0.04493
1924.89,0.04496
1919.1,0.04488
1913.32,0.04450
1907.53,0.04427
1901.74,0.04411
1895.96,0.04457
1890.17,0.04441
1884.38,0.04410
1878.6,0.04394
1872.81,0.04414
1867.03,0.04412
1861.24,0.04435
1855.45,0.04426
1849.67,0.04440
1843.88,0.04435
1838.09,0.04404
1832.31,0.04385
1826.52,0.04367
1820.74,0.04347
1814.95,0.04358
1809.16,0.04288
1803.38,0.04241
1797.59,0.04129
1791.8,0.04154
1786.02,0.04111
1780.23,0.04119
1774.45,0.04181
1768.66,0.04142
1762.87,0.04100
1757.09,0.04060
1751.3,0.04049
1745.51,0.04021
1739.73,0.04002
1733.94,0.03979
1728.16,0.03989
1722.37,0.03940
1716.58,0.03942
1710.8,0.03897
1705.01,0.03885
1699.22,0.03862
1693.44,0.03840
1687.65,0.03866
1681.87,0.03861
1676.08,0.03913
1670.29,0.03874
1664.51,0.03885
1658.72,0.03919
1652.93,0.03941
1647.15,0.03981
1641.36,0.03976
1635.58,0.03996
1629.79,0.04027
1624,0.04026
1618.22,0.04011
1612.43,0.04013
1606.64,0.04071
1600.86,0.04132
1595.07,0.04166
1589.29,0.04220
1583.5,0.04259
1577.71,0.04351
1571.93,0.04493
1566.14,0.04606
1560.35,0.04755
1554.57,0.04890
1548.78,0.04937
1543,0.04945
1537.21,0.04908
1531.42,0.04835
1525.64,0.04861
1519.85,0.04790
1514.07,0.04697
1508.28,0.04657
1502.49,0.04610
1496.71,0.04599
1490.92,0.04541
1485.13,0.04470
1479.35,0.04372
1473.56,0.04237
1467.78,0.04087
1461.99,0.04047
1456.2,0.04034
1450.42,0.04026
1444.63,0.04020
1438.84,0.04041
1433.06,0.04032
1427.27,0.04017
1421.49,0.04035
1415.7,0.04035
1409.91,0.03982
1404.13,0.03942
1398.34,0.03896
1392.55,0.03874
1386.77,0.03845
1380.98,0.03787
1375.2,0.03765
1369.41,0.03804
1363.62,0.03827
1357.84,0.03850
1352.05,0.03836
1346.26,0.03797
1340.48,0.03841
1334.69,0.03792
1328.91,0.03785
1323.12,0.03758
1317.33,0.03769
1311.55,0.03728
1305.76,0.03742
1299.97,0.03752
1294.19,0.03738
1288.4,0.03692
1282.62,0.03629
1276.83,0.03597
1271.04,0.03556
1265.26,0.03515
1259.47,0.03466
1253.68,0.03430
1247.9,0.03415
1242.11,0.03380
1236.33,0.03367
1230.54,0.03400
1224.75,0.03493
1218.97,0.03562
1213.18,0.03545
1207.39,0.03634
1201.61,0.03626
1195.82,0.03649
1190.04,0.03614
1184.25,0.03677
1178.46,0.03694
1172.68,0.03716
1166.89,0.03731
1161.1,0.03842
1155.32,0.03903
1149.53,0.04007
1143.75,0.04154
1137.96,0.04291
1132.17,0.04528
1126.39,0.04764
1120.6,0.04943
1114.81,0.05243
1109.03,0.05397
1103.24,0.05621
1097.46,0.05948
1091.67,0.06083
1085.88,0.06193
1080.1,0.06308
1074.31,0.06304
1068.52,0.06417
1062.74,0.06367
1056.95,0.06462
1051.17,0.06660
1045.38,0.06726
1039.59,0.06954
1033.81,0.07208
1028.02,0.07101
1022.24,0.06959
1016.45,0.07026
1010.66,0.07316
1004.88,0.07485
999.09,0.07608
993.304,0.07500
987.518,0.07599
981.731,0.07489
975.945,0.07361
970.159,0.07330
964.373,0.07246
958.586,0.07235
952.8,0.07275
947.014,0.07234
941.228,0.07120
935.441,0.06819
929.655,0.06634
923.869,0.06324
918.083,0.06308
912.297,0.06327
906.51,0.06324
900.724,0.06269
894.938,0.06242
889.152,0.06239
883.365,0.06101
877.579,0.05860
871.793,0.05699
866.007,0.05635
860.22,0.05624
854.434,0.05419
848.648,0.05265
842.862,0.05155
837.075,0.05019
831.289,0.04925
825.503,0.04801
819.717,0.04713
813.931,0.04653
808.144,0.04593
802.358,0.04555
796.572,0.04578
790.786,0.04603
784.999,0.04594
779.213,0.04551
773.427,0.04569
767.641,0.04511
761.854,0.04596
756.068,0.04663
750.282,0.04696
744.496,0.04663
738.709,0.04659
732.923,0.04555
727.137,0.04435
721.351,0.04529
715.565,0.04550
709.778,0.04525
703.992,0.04518
698.206,0.04418
692.42,0.04400
686.633,0.04429
680.847,0.04577
675.061,0.04563
669.275,0.04435
663.488,0.04376
657.702,0.04505
651.916,0.04536
646.13,0.04614
640.343,0.04565
634.557,0.04654
628.771,0.04543
622.985,0.04262
617.198,0.04163
611.412,0.04366
605.626,0.04216
599.84,0.04052