File: 01_Data/Asphalt_Shingle/FTIR/IS/Asphalt_Shingle_IS_S_220831_R1.dpt
7497.03,0.04942
7491.25,0.04262
7485.46,0.06003
7479.67,0.05915
7473.89,0.05963
7468.1,0.06031
7462.32,0.05835
7456.53,0.05276
7450.74,0.05248
7444.96,0.05581
7439.17,0.05613
7433.38,0.05343
7427.6,0.05191
7421.81,0.05406
7416.03,0.05504
7410.24,0.05652
7404.45,0.05556
7398.67,0.05679
7392.88,0.05980
7387.09,0.06434
7381.31,0.05483
7375.52,0.04897
7369.74,0.05651
7363.95,0.05349
7358.16,0.05971
7352.38,0.04811
7346.59,0.05333
7340.8,0.06500
7335.02,0.06126
7329.23,0.05774
7323.45,0.05665
7317.66,0.05472
7311.87,0.05922
7306.09,0.04474
7300.3,0.05367
7294.51,0.04943
7288.73,0.05648
7282.94,0.05145
7277.16,0.04841
7271.37,0.05809
7265.58,0.05083
7259.8,0.05725
7254.01,0.04977
7248.22,0.04923
7242.44,0.04933
7236.65,0.05367
7230.87,0.05511
7225.08,0.04693
7219.29,0.05462
7213.51,0.05847
7207.72,0.05037
7201.93,0.05556
7196.15,0.05640
7190.36,0.05300
7184.58,0.05454
7178.79,0.05848
7173,0.05313
7167.22,0.05789
7161.43,0.05382
7155.65,0.05658
7149.86,0.05209
7144.07,0.05850
7138.29,0.06331
7132.5,0.05463
7126.71,0.04993
7120.93,0.04892
7115.14,0.05184
7109.36,0.05380
7103.57,0.05224
7097.78,0.05268
7092,0.05071
7086.21,0.05551
7080.42,0.05896
7074.64,0.05899
7068.85,0.05064
7063.07,0.05651
7057.28,0.05659
7051.49,0.05607
7045.71,0.06052
7039.92,0.05837
7034.13,0.06027
7028.35,0.05261
7022.56,0.05768
7016.78,0.05945
7010.99,0.05804
7005.2,0.04971
6999.42,0.06330
6993.63,0.05708
6987.84,0.05454
6982.06,0.05822
6976.27,0.05614
6970.49,0.05652
6964.7,0.04955
6958.91,0.05183
6953.13,0.05634
6947.34,0.05153
6941.55,0.05872
6935.77,0.05282
6929.98,0.05778
6924.2,0.05816
6918.41,0.05748
6912.62,0.05611
6906.84,0.05081
6901.05,0.05504
6895.26,0.05404
6889.48,0.05696
6883.69,0.05718
6877.91,0.05275
6872.12,0.05288
6866.33,0.05441
6860.55,0.05395
6854.76,0.06062
6848.97,0.05849
6843.19,0.06031
6837.4,0.05824
6831.62,0.05493
6825.83,0.05325
6820.04,0.05557
6814.26,0.05405
6808.47,0.05678
6802.68,0.05477
6796.9,0.05609
6791.11,0.05656
6785.33,0.05735
6779.54,0.05880
6773.75,0.06346
6767.97,0.05851
6762.18,0.05709
6756.39,0.05671
6750.61,0.05732
6744.82,0.05252
6739.04,0.05267
6733.25,0.05630
6727.46,0.05489
6721.68,0.05567
6715.89,0.05660
6710.1,0.04808
6704.32,0.05501
6698.53,0.05597
6692.75,0.05806
6686.96,0.05762
6681.17,0.05646
6675.39,0.05195
6669.6,0.05552
6663.82,0.05349
6658.03,0.05566
6652.24,0.06092
6646.46,0.05873
6640.67,0.05537
6634.88,0.05588
6629.1,0.05284
6623.31,0.05597
6617.53,0.05610
6611.74,0.05729
6605.95,0.05252
6600.17,0.05235
6594.38,0.05820
6588.59,0.05502
6582.81,0.06127
6577.02,0.05813
6571.24,0.05845
6565.45,0.06074
6559.66,0.05533
6553.88,0.05362
6548.09,0.05517
6542.3,0.05760
6536.52,0.05553
6530.73,0.05850
6524.95,0.05650
6519.16,0.06135
6513.37,0.05736
6507.59,0.05590
6501.8,0.05441
6496.01,0.05593
6490.23,0.05893
6484.44,0.05967
6478.66,0.05842
6472.87,0.05818
6467.08,0.05603
6461.3,0.05424
6455.51,0.05325
6449.72,0.05447
6443.94,0.05890
6438.15,0.05774
6432.37,0.05906
6426.58,0.05554
6420.79,0.05271
6415.01,0.05539
6409.22,0.05465
6403.43,0.05366
6397.65,0.05156
6391.86,0.05801
6386.08,0.05625
6380.29,0.05551
6374.5,0.05885
6368.72,0.05872
6362.93,0.05423
6357.14,0.05810
6351.36,0.05781
6345.57,0.05688
6339.79,0.05822
6334,0.05960
6328.21,0.05521
6322.43,0.05852
6316.64,0.06122
6310.85,0.05800
6305.07,0.05677
6299.28,0.05573
6293.5,0.05728
6287.71,0.05810
6281.92,0.05556
6276.14,0.05794
6270.35,0.05642
6264.56,0.05585
6258.78,0.05655
6252.99,0.05464
6247.21,0.05538
6241.42,0.05643
6235.63,0.06113
6229.85,0.05881
6224.06,0.05756
6218.27,0.05775
6212.49,0.05715
6206.7,0.05874
6200.92,0.05502
6195.13,0.05621
6189.34,0.05953
6183.56,0.05519
6177.77,0.05819
6171.98,0.05988
6166.2,0.05792
6160.41,0.05931
6154.63,0.05901
6148.84,0.05655
6143.05,0.05553
6137.27,0.05952
6131.48,0.05769
6125.7,0.05661
6119.91,0.05883
6114.12,0.06266
6108.34,0.06108
6102.55,0.05930
6096.76,0.05934
6090.98,0.06002
6085.19,0.05980
6079.41,0.05943
6073.62,0.05978
6067.83,0.06020
6062.05,0.05951
6056.26,0.05665
6050.47,0.05728
6044.69,0.05870
6038.9,0.06009
6033.12,0.05866
6027.33,0.05703
6021.54,0.06055
6015.76,0.06108
6009.97,0.05804
6004.18,0.05947
5998.4,0.05748
5992.61,0.06194
5986.83,0.05791
5981.04,0.05939
5975.25,0.05804
5969.47,0.05885
5963.68,0.05691
5957.89,0.05796
5952.11,0.05935
5946.32,0.05851
5940.54,0.05890
5934.75,0.05901
5928.96,0.05994
5923.18,0.05847
5917.39,0.06104
5911.6,0.05787
5905.82,0.05775
5900.03,0.06076
5894.25,0.05989
5888.46,0.05973
5882.67,0.06045
5876.89,0.06115
5871.1,0.06133
5865.31,0.05719
5859.53,0.05784
5853.74,0.06094
5847.96,0.05952
5842.17,0.06046
5836.38,0.05954
5830.6,0.05946
5824.81,0.06087
5819.02,0.05873
5813.24,0.06027
5807.45,0.06027
5801.67,0.05948
5795.88,0.05799
5790.09,0.06038
5784.31,0.06054
5778.52,0.06249
5772.73,0.06002
5766.95,0.06021
5761.16,0.06220
5755.38,0.06098
5749.59,0.05795
5743.8,0.06014
5738.02,0.05881
5732.23,0.05876
5726.44,0.05825
5720.66,0.05878
5714.87,0.06096
5709.09,0.05988
5703.3,0.05989
5697.51,0.06023
5691.73,0.06080
5685.94,0.06020
5680.15,0.06247
5674.37,0.06157
5668.58,0.06052
5662.8,0.06110
5657.01,0.06193
5651.22,0.06064
5645.44,0.06002
5639.65,0.06008
5633.87,0.06179
5628.08,0.06198
5622.29,0.06211
5616.51,0.06275
5610.72,0.06069
5604.93,0.06247
5599.15,0.06076
5593.36,0.06001
5587.58,0.06174
5581.79,0.05958
5576,0.06148
5570.22,0.06063
5564.43,0.06100
5558.64,0.06096
5552.86,0.06130
5547.07,0.06198
5541.29,0.06159
5535.5,0.06146
5529.71,0.06319
5523.93,0.06161
5518.14,0.06226
5512.35,0.06318
5506.57,0.06045
5500.78,0.06135
5495,0.06191
5489.21,0.06277
5483.42,0.06188
5477.64,0.06179
5471.85,0.06166
5466.06,0.06115
5460.28,0.06094
5454.49,0.06263
5448.71,0.06164
5442.92,0.05980
5437.13,0.06159
5431.35,0.06250
5425.56,0.06172
5419.77,0.06313
5413.99,0.06180
5408.2,0.06105
5402.42,0.06299
5396.63,0.06053
5390.84,0.06204
5385.06,0.06209
5379.27,0.06315
5373.48,0.06217
5367.7,0.06130
5361.91,0.06265
5356.13,0.06153
5350.34,0.06243
5344.55,0.06148
5338.77,0.06072
5332.98,0.06179
5327.19,0.06105
5321.41,0.06165
5315.62,0.06226
5309.84,0.06188
5304.05,0.06164
5298.26,0.06304
5292.48,0.06244
5286.69,0.06176
5280.9,0.06119
5275.12,0.06244
5269.33,0.06214
5263.55,0.06255
5257.76,0.06269
5251.97,0.06291
5246.19,0.06237
5240.4,0.06209
5234.61,0.06221
5228.83,0.06190
5223.04,0.06261
5217.26,0.06217
5211.47,0.06050
5205.68,0.06141
5199.9,0.06263
5194.11,0.06318
5188.32,0.06495
5182.54,0.06345
5176.75,0.06237
5170.97,0.06254
5165.18,0.06331
5159.39,0.06320
5153.61,0.06291
5147.82,0.06341
5142.03,0.06205
5136.25,0.06082
5130.46,0.06283
5124.68,0.06375
5118.89,0.06147
5113.1,0.06227
5107.32,0.06377
5101.53,0.06307
5095.75,0.06267
5089.96,0.06368
5084.17,0.06414
5078.39,0.06401
5072.6,0.06407
5066.81,0.06395
5061.03,0.06363
5055.24,0.06346
5049.46,0.06335
5043.67,0.06352
5037.88,0.06467
5032.1,0.06369
5026.31,0.06340
5020.52,0.06293
5014.74,0.06182
5008.95,0.06301
5003.17,0.06349
4997.38,0.06356
4991.59,0.06427
4985.81,0.06287
4980.02,0.06343
4974.23,0.06450
4968.45,0.06353
4962.66,0.06419
4956.88,0.06517
4951.09,0.06289
4945.3,0.06264
4939.52,0.06330
4933.73,0.06341
4927.94,0.06473
4922.16,0.06459
4916.37,0.06440
4910.59,0.06410
4904.8,0.06410
4899.01,0.06478
4893.23,0.06401
4887.44,0.06397
4881.65,0.06536
4875.87,0.06455
4870.08,0.06467
4864.3,0.06490
4858.51,0.06528
4852.72,0.06612
4846.94,0.06473
4841.15,0.06484
4835.36,0.06431
4829.58,0.06605
4823.79,0.06534
4818.01,0.06514
4812.22,0.06621
4806.43,0.06529
4800.65,0.06461
4794.86,0.06506
4789.07,0.06526
4783.29,0.06624
4777.5,0.06536
4771.72,0.06558
4765.93,0.06563
4760.14,0.06530
4754.36,0.06663
4748.57,0.06506
4742.78,0.06571
4737,0.06599
4731.21,0.06546
4725.43,0.06546
4719.64,0.06619
4713.85,0.06546
4708.07,0.06505
4702.28,0.06488
4696.49,0.06592
4690.71,0.06552
4684.92,0.06662
4679.14,0.06545
4673.35,0.06561
4667.56,0.06662
4661.78,0.06698
4655.99,0.06640
4650.2,0.06565
4644.42,0.06597
4638.63,0.06556
4632.85,0.06549
4627.06,0.06617
4621.27,0.06658
4615.49,0.06557
4609.7,0.06650
4603.92,0.06627
4598.13,0.06594
4592.34,0.06631
4586.56,0.06627
4580.77,0.06572
4574.98,0.06530
4569.2,0.06590
4563.41,0.06620
4557.63,0.06555
4551.84,0.06611
4546.05,0.06582
4540.27,0.06586
4534.48,0.06633
4528.69,0.06563
4522.91,0.06599
4517.12,0.06549
4511.34,0.06531
4505.55,0.06463
4499.76,0.06503
4493.98,0.06530
4488.19,0.06491
4482.4,0.06556
4476.62,0.06514
4470.83,0.06397
4465.05,0.06317
4459.26,0.06281
4453.47,0.06374
4447.69,0.06195
4441.9,0.06141
4436.11,0.06164
4430.33,0.06163
4424.54,0.06131
4418.76,0.06154
4412.97,0.06164
4407.18,0.06269
4401.4,0.06193
4395.61,0.06180
4389.82,0.06146
4384.04,0.06143
4378.25,0.06128
4372.47,0.06113
4366.68,0.06125
4360.89,0.06118
4355.11,0.06154
4349.32,0.06067
4343.53,0.06047
4337.75,0.06011
4331.96,0.05910
4326.18,0.05875
4320.39,0.05903
4314.6,0.05859
4308.82,0.05829
4303.03,0.05742
4297.24,0.05755
4291.46,0.05777
4285.67,0.05747
4279.89,0.05720
4274.1,0.05735
4268.31,0.05659
4262.53,0.05746
4256.74,0.05702
4250.95,0.05837
4245.17,0.05939
4239.38,0.05929
4233.6,0.06050
4227.81,0.06076
4222.02,0.06180
4216.24,0.06122
4210.45,0.06184
4204.66,0.06175
4198.88,0.06271
4193.09,0.06235
4187.31,0.06183
4181.52,0.06280
4175.73,0.06287
4169.95,0.06269
4164.16,0.06275
4158.37,0.06298
4152.59,0.06299
4146.8,0.06362
4141.02,0.06286
4135.23,0.06284
4129.44,0.06364
4123.66,0.06397
4117.87,0.06468
4112.09,0.06351
4106.3,0.06336
4100.51,0.06371
4094.73,0.06414
4088.94,0.06294
4083.15,0.06234
4077.37,0.06312
4071.58,0.06326
4065.8,0.06269
4060.01,0.06271
4054.22,0.06280
4048.44,0.06275
4042.65,0.06239
4036.86,0.06231
4031.08,0.06195
4025.29,0.06199
4019.51,0.06133
4013.72,0.06228
4007.93,0.06183
4002.15,0.06174
3996.36,0.06143
3990.57,0.06185
3984.79,0.06157
3979,0.06225
3973.22,0.06176
3967.43,0.06151
3961.64,0.06136
3955.86,0.06180
3950.07,0.06221
3944.28,0.06265
3938.5,0.06206
3932.71,0.06195
3926.93,0.06212
3921.14,0.06233
3915.35,0.06165
3909.57,0.06195
3903.78,0.06186
3897.99,0.06172
3892.21,0.06157
3886.42,0.06156
3880.64,0.06153
3874.85,0.06202
3869.06,0.06190
3863.28,0.06221
3857.49,0.06238
3851.7,0.06208
3845.92,0.06197
3840.13,0.06250
3834.35,0.06270
3828.56,0.06180
3822.77,0.06196
3816.99,0.06214
3811.2,0.06238
3805.41,0.06173
3799.63,0.06242
3793.84,0.06192
3788.06,0.06189
3782.27,0.06133
3776.48,0.06157
3770.7,0.06179
3764.91,0.06138
3759.12,0.06183
3753.34,0.06176
3747.55,0.06115
3741.77,0.06085
3735.98,0.06015
3730.19,0.05976
3724.41,0.05909
3718.62,0.05768
3712.83,0.05719
3707.05,0.05438
3701.26,0.05143
3695.48,0.04906
3689.69,0.04752
3683.9,0.04651
3678.12,0.04528
3672.33,0.04385
3666.54,0.04411
3660.76,0.04350
3654.97,0.04330
3649.19,0.04366
3643.4,0.04334
3637.61,0.04284
3631.83,0.04316
3626.04,0.04146
3620.25,0.04189
3614.47,0.04215
3608.68,0.04211
3602.9,0.04137
3597.11,0.04117
3591.32,0.04038
3585.54,0.04045
3579.75,0.04013
3573.97,0.03999
3568.18,0.03996
3562.39,0.04000
3556.61,0.03987
3550.82,0.04001
3545.03,0.03947
3539.25,0.03915
3533.46,0.04000
3527.68,0.03993
3521.89,0.03965
3516.1,0.03917
3510.32,0.03943
3504.53,0.03897
3498.74,0.03927
3492.96,0.03874
3487.17,0.03912
3481.39,0.03859
3475.6,0.03896
3469.81,0.03892
3464.03,0.03811
3458.24,0.03928
3452.45,0.03863
3446.67,0.03838
3440.88,0.03826
3435.1,0.03846
3429.31,0.03833
3423.52,0.03836
3417.74,0.03840
3411.95,0.03816
3406.16,0.03843
3400.38,0.03841
3394.59,0.03800
3388.81,0.03823
3383.02,0.03808
3377.23,0.03791
3371.45,0.03747
3365.66,0.03821
3359.87,0.03876
3354.09,0.03751
3348.3,0.03876
3342.52,0.03905
3336.73,0.03912
3330.94,0.03929
3325.16,0.03935
3319.37,0.03926
3313.58,0.03872
3307.8,0.03965
3302.01,0.03911
3296.23,0.03964
3290.44,0.03952
3284.65,0.03954
3278.87,0.04027
3273.08,0.04002
3267.29,0.04023
3261.51,0.04042
3255.72,0.04007
3249.94,0.04003
3244.15,0.04088
3238.36,0.04147
3232.58,0.04086
3226.79,0.04167
3221,0.04137
3215.22,0.04233
3209.43,0.04193
3203.65,0.04192
3197.86,0.04222
3192.07,0.04271
3186.29,0.04266
3180.5,0.04293
3174.71,0.04274
3168.93,0.04327
3163.14,0.04339
3157.36,0.04321
3151.57,0.04451
3145.78,0.04389
3140,0.04364
3134.21,0.04465
3128.42,0.04486
3122.64,0.04564
3116.85,0.04482
3111.07,0.04516
3105.28,0.04601
3099.49,0.04655
3093.71,0.04611
3087.92,0.04625
3082.14,0.04626
3076.35,0.04681
3070.56,0.04628
3064.78,0.04639
3058.99,0.04636
3053.2,0.04668
3047.42,0.04718
3041.63,0.04745
3035.85,0.04739
3030.06,0.04756
3024.27,0.04820
3018.49,0.04785
3012.7,0.04794
3006.91,0.04771
3001.13,0.04734
2995.34,0.04733
2989.56,0.04747
2983.77,0.04686
2977.98,0.04624
2972.2,0.04472
2966.41,0.04388
2960.62,0.04311
2954.84,0.04217
2949.05,0.04264
2943.27,0.04347
2937.48,0.04193
2931.69,0.04136
2925.91,0.04170
2920.12,0.04340
2914.33,0.04496
2908.55,0.04566
2902.76,0.04613
2896.98,0.04661
2891.19,0.04729
2885.4,0.04765
2879.62,0.04779
2873.83,0.04675
2868.04,0.04709
2862.26,0.04634
2856.47,0.04587
2850.69,0.04715
2844.9,0.04949
2839.11,0.05082
2833.33,0.05273
2827.54,0.05307
2821.75,0.05332
2815.97,0.05436
2810.18,0.05421
2804.4,0.05428
2798.61,0.05488
2792.82,0.05540
2787.04,0.05577
2781.25,0.05585
2775.46,0.05623
2769.68,0.05614
2763.89,0.05666
2758.11,0.05706
2752.32,0.05690
2746.53,0.05735
2740.75,0.05681
2734.96,0.05683
2729.17,0.05693
2723.39,0.05706
2717.6,0.05732
2711.82,0.05734
2706.03,0.05732
2700.24,0.05742
2694.46,0.05768
2688.67,0.05818
2682.88,0.05796
2677.1,0.05795
2671.31,0.05809
2665.53,0.05818
2659.74,0.05795
2653.95,0.05831
2648.17,0.05824
2642.38,0.05837
2636.59,0.05864
2630.81,0.05860
2625.02,0.05850
2619.24,0.05852
2613.45,0.05847
2607.66,0.05856
2601.88,0.05853
2596.09,0.05851
2590.3,0.05878
2584.52,0.05881
2578.73,0.05871
2572.95,0.05897
2567.16,0.05903
2561.37,0.05936
2555.59,0.05932
2549.8,0.05886
2544.02,0.05896
2538.23,0.05888
2532.44,0.05907
2526.66,0.05819
2520.87,0.05829
2515.08,0.05837
2509.3,0.05845
2503.51,0.05873
2497.73,0.05883
2491.94,0.05918
2486.15,0.05932
2480.37,0.05944
2474.58,0.05974
2468.79,0.05980
2463.01,0.05994
2457.22,0.05970
2451.44,0.06030
2445.65,0.06015
2439.86,0.06009
2434.08,0.06040
2428.29,0.06020
2422.5,0.05998
2416.72,0.05982
2410.93,0.05953
2405.15,0.05972
2399.36,0.05981
2393.57,0.05952
2387.79,0.05962
2382,0.05963
2376.21,0.05933
2370.43,0.05953
2364.64,0.05889
2358.86,0.05846
2353.07,0.05874
2347.28,0.05838
2341.5,0.05800
2335.71,0.05816
2329.92,0.05821
2324.14,0.05813
2318.35,0.05853
2312.57,0.05819
2306.78,0.05783
2300.99,0.05814
2295.21,0.05742
2289.42,0.05755
2283.63,0.05722
2277.85,0.05681
2272.06,0.05684
2266.28,0.05660
2260.49,0.05656
2254.7,0.05619
2248.92,0.05630
2243.13,0.05594
2237.34,0.05554
2231.56,0.05522
2225.77,0.05526
2219.99,0.05510
2214.2,0.05473
2208.41,0.05433
2202.63,0.05397
2196.84,0.05359
2191.05,0.05292
2185.27,0.05280
2179.48,0.05270
2173.7,0.05178
2167.91,0.05098
2162.12,0.05077
2156.34,0.05062
2150.55,0.05057
2144.76,0.05014
2138.98,0.04988
2133.19,0.04974
2127.41,0.04964
2121.62,0.04961
2115.83,0.04917
2110.05,0.04903
2104.26,0.04874
2098.47,0.04845
2092.69,0.04780
2086.9,0.04804
2081.12,0.04737
2075.33,0.04737
2069.54,0.04712
2063.76,0.04716
2057.97,0.04690
2052.19,0.04654
2046.4,0.04577
2040.61,0.04606
2034.83,0.04588
2029.04,0.04560
2023.25,0.04557
2017.47,0.04528
2011.68,0.04520
2005.9,0.04526
2000.11,0.04513
1994.32,0.04517
1988.54,0.04523
1982.75,0.04507
1976.96,0.04524
1971.18,0.04523
1965.39,0.04508
1959.61,0.04523
1953.82,0.04526
1948.03,0.04527
1942.25,0.04498
1936.46,0.04481
1930.67,0.04479
1924.89,0.04468
1919.1,0.04470
1913.32,0.04425
1907.53,0.04395
1901.74,0.04418
1895.96,0.04398
1890.17,0.04369
1884.38,0.04425
1878.6,0.04429
1872.81,0.04405
1867.03,0.04414
1861.24,0.04399
1855.45,0.04371
1849.67,0.04385
1843.88,0.04397
1838.09,0.04372
1832.31,0.04368
1826.52,0.04362
1820.74,0.04317
1814.95,0.04289
1809.16,0.04264
1803.38,0.04168
1797.59,0.04091
1791.8,0.04105
1786.02,0.04063
1780.23,0.04110
1774.45,0.04147
1768.66,0.04101
1762.87,0.04068
1757.09,0.04030
1751.3,0.04003
1745.51,0.03973
1739.73,0.03957
1733.94,0.03951
1728.16,0.03949
1722.37,0.03958
1716.58,0.03948
1710.8,0.03914
1705.01,0.03865
1699.22,0.03881
1693.44,0.03891
1687.65,0.03845
1681.87,0.03854
1676.08,0.03883
1670.29,0.03882
1664.51,0.03908
1658.72,0.03915
1652.93,0.03951
1647.15,0.03959
1641.36,0.03949
1635.58,0.03952
1629.79,0.03971
1624,0.04007
1618.22,0.04024
1612.43,0.04019
1606.64,0.04016
1600.86,0.04116
1595.07,0.04121
1589.29,0.04183
1583.5,0.04237
1577.71,0.04361
1571.93,0.04484
1566.14,0.04661
1560.35,0.04735
1554.57,0.04865
1548.78,0.04973
1543,0.04907
1537.21,0.04881
1531.42,0.04887
1525.64,0.04811
1519.85,0.04738
1514.07,0.04705
1508.28,0.04667
1502.49,0.04566
1496.71,0.04537
1490.92,0.04500
1485.13,0.04405
1479.35,0.04313
1473.56,0.04180
1467.78,0.04027
1461.99,0.04030
1456.2,0.04019
1450.42,0.04032
1444.63,0.04057
1438.84,0.04038
1433.06,0.04024
1427.27,0.04036
1421.49,0.04043
1415.7,0.04020
1409.91,0.03989
1404.13,0.03917
1398.34,0.03866
1392.55,0.03821
1386.77,0.03810
1380.98,0.03774
1375.2,0.03761
1369.41,0.03782
1363.62,0.03842
1357.84,0.03827
1352.05,0.03828
1346.26,0.03828
1340.48,0.03791
1334.69,0.03810
1328.91,0.03787
1323.12,0.03767
1317.33,0.03747
1311.55,0.03706
1305.76,0.03707
1299.97,0.03724
1294.19,0.03734
1288.4,0.03704
1282.62,0.03620
1276.83,0.03597
1271.04,0.03578
1265.26,0.03520
1259.47,0.03450
1253.68,0.03412
1247.9,0.03356
1242.11,0.03316
1236.33,0.03356
1230.54,0.03415
1224.75,0.03480
1218.97,0.03522
1213.18,0.03573
1207.39,0.03590
1201.61,0.03566
1195.82,0.03570
1190.04,0.03634
1184.25,0.03649
1178.46,0.03650
1172.68,0.03690
1166.89,0.03739
1161.1,0.03772
1155.32,0.03938
1149.53,0.04094
1143.75,0.04193
1137.96,0.04312
1132.17,0.04480
1126.39,0.04681
1120.6,0.04982
1114.81,0.05169
1109.03,0.05362
1103.24,0.05593
1097.46,0.05812
1091.67,0.05968
1085.88,0.06219
1080.1,0.06299
1074.31,0.06423
1068.52,0.06355
1062.74,0.06441
1056.95,0.06493
1051.17,0.06569
1045.38,0.06677
1039.59,0.06966
1033.81,0.07120
1028.02,0.07152
1022.24,0.06937
1016.45,0.06987
1010.66,0.07279
1004.88,0.07515
999.09,0.07551
993.304,0.07576
987.518,0.07539
981.731,0.07521
975.945,0.07333
970.159,0.07219
964.373,0.07245
958.586,0.07279
952.8,0.07308
947.014,0.07200
941.228,0.07054
935.441,0.06850
929.655,0.06583
923.869,0.06372
918.083,0.06196
912.297,0.06331
906.51,0.06297
900.724,0.06291
894.938,0.06254
889.152,0.06276
883.365,0.06028
877.579,0.05882
871.793,0.05675
866.007,0.05539
860.22,0.05490
854.434,0.05365
848.648,0.05160
842.862,0.05127
837.075,0.04981
831.289,0.04839
825.503,0.04753
819.717,0.04644
813.931,0.04571
808.144,0.04596
802.358,0.04530
796.572,0.04558
790.786,0.04500
784.999,0.04570
779.213,0.04553
773.427,0.04577
767.641,0.04494
761.854,0.04521
756.068,0.04662
750.282,0.04684
744.496,0.04631
738.709,0.04586
732.923,0.04617
727.137,0.04601
721.351,0.04513
715.565,0.04539
709.778,0.04447
703.992,0.04430
698.206,0.04357
692.42,0.04412
686.633,0.04583
680.847,0.04562
675.061,0.04490
669.275,0.04451
663.488,0.04589
657.702,0.04365
651.916,0.04630
646.13,0.04652
640.343,0.04593
634.557,0.04519
628.771,0.04475
622.985,0.04383
617.198,0.04314
611.412,0.04195
605.626,0.04339
599.84,0.04305