File: 01_Data/Asphalt_Shingle/FTIR/IS/Asphalt_Shingle_IS_T_220831_R8.dpt
7497.03,0.02454
7491.25,0.02674
7485.46,0.02875
7479.67,0.02600
7473.89,0.02277
7468.1,0.03051
7462.32,0.02332
7456.53,0.01751
7450.74,0.00966
7444.96,0.01605
7439.17,0.02712
7433.38,0.02782
7427.6,0.03019
7421.81,0.02004
7416.03,0.02276
7410.24,0.02347
7404.45,0.02966
7398.67,0.02694
7392.88,0.03162
7387.09,0.02948
7381.31,0.02260
7375.52,0.01937
7369.74,0.02773
7363.95,0.02948
7358.16,0.02820
7352.38,0.02470
7346.59,0.02477
7340.8,0.02469
7335.02,0.01767
7329.23,0.01933
7323.45,0.02271
7317.66,0.02350
7311.87,0.01777
7306.09,0.02589
7300.3,0.01962
7294.51,0.02495
7288.73,0.02147
7282.94,0.01312
7277.16,0.02583
7271.37,0.02519
7265.58,0.02088
7259.8,0.02279
7254.01,0.02826
7248.22,0.02114
7242.44,0.02056
7236.65,0.01913
7230.87,0.02433
7225.08,0.02264
7219.29,0.01560
7213.51,0.02178
7207.72,0.02915
7201.93,0.02578
7196.15,0.02238
7190.36,0.02057
7184.58,0.02986
7178.79,0.02205
7173,0.02686
7167.22,0.02373
7161.43,0.02778
7155.65,0.02518
7149.86,0.02606
7144.07,0.02411
7138.29,0.02266
7132.5,0.02270
7126.71,0.02269
7120.93,0.02781
7115.14,0.02466
7109.36,0.02267
7103.57,0.02026
7097.78,0.02441
7092,0.02361
7086.21,0.02508
7080.42,0.02456
7074.64,0.02092
7068.85,0.02032
7063.07,0.02766
7057.28,0.02631
7051.49,0.02332
7045.71,0.02702
7039.92,0.02152
7034.13,0.02519
7028.35,0.02446
7022.56,0.02251
7016.78,0.02137
7010.99,0.01921
7005.2,0.03092
6999.42,0.02952
6993.63,0.02623
6987.84,0.02667
6982.06,0.02277
6976.27,0.02467
6970.49,0.02616
6964.7,0.02832
6958.91,0.02217
6953.13,0.02360
6947.34,0.02033
6941.55,0.02537
6935.77,0.02657
6929.98,0.02072
6924.2,0.02590
6918.41,0.02539
6912.62,0.02319
6906.84,0.02608
6901.05,0.02507
6895.26,0.03035
6889.48,0.02456
6883.69,0.02261
6877.91,0.02581
6872.12,0.02586
6866.33,0.02271
6860.55,0.02422
6854.76,0.02190
6848.97,0.02355
6843.19,0.02532
6837.4,0.02534
6831.62,0.02366
6825.83,0.02552
6820.04,0.02676
6814.26,0.02287
6808.47,0.02299
6802.68,0.02574
6796.9,0.02495
6791.11,0.02549
6785.33,0.02444
6779.54,0.02730
6773.75,0.02499
6767.97,0.01816
6762.18,0.02329
6756.39,0.02509
6750.61,0.02275
6744.82,0.02413
6739.04,0.02436
6733.25,0.02169
6727.46,0.02603
6721.68,0.02611
6715.89,0.02758
6710.1,0.02377
6704.32,0.02539
6698.53,0.02507
6692.75,0.02473
6686.96,0.02069
6681.17,0.01978
6675.39,0.02174
6669.6,0.02197
6663.82,0.02482
6658.03,0.02093
6652.24,0.02476
6646.46,0.02503
6640.67,0.02451
6634.88,0.02484
6629.1,0.02087
6623.31,0.02817
6617.53,0.02350
6611.74,0.01995
6605.95,0.02360
6600.17,0.02849
6594.38,0.02649
6588.59,0.02009
6582.81,0.02099
6577.02,0.02347
6571.24,0.02375
6565.45,0.02106
6559.66,0.02262
6553.88,0.02319
6548.09,0.02309
6542.3,0.01860
6536.52,0.02446
6530.73,0.02166
6524.95,0.01920
6519.16,0.02125
6513.37,0.02260
6507.59,0.02391
6501.8,0.02328
6496.01,0.02622
6490.23,0.02498
6484.44,0.02381
6478.66,0.02231
6472.87,0.02129
6467.08,0.02617
6461.3,0.02248
6455.51,0.02252
6449.72,0.02475
6443.94,0.01879
6438.15,0.02090
6432.37,0.02197
6426.58,0.01910
6420.79,0.02510
6415.01,0.02079
6409.22,0.02400
6403.43,0.02075
6397.65,0.02236
6391.86,0.02346
6386.08,0.02317
6380.29,0.02067
6374.5,0.02006
6368.72,0.02188
6362.93,0.02404
6357.14,0.02533
6351.36,0.02438
6345.57,0.01941
6339.79,0.01712
6334,0.02226
6328.21,0.02225
6322.43,0.01944
6316.64,0.02026
6310.85,0.02218
6305.07,0.01808
6299.28,0.02110
6293.5,0.02121
6287.71,0.02218
6281.92,0.02378
6276.14,0.02317
6270.35,0.02200
6264.56,0.02086
6258.78,0.02475
6252.99,0.02048
6247.21,0.02048
6241.42,0.02258
6235.63,0.01845
6229.85,0.02002
6224.06,0.02159
6218.27,0.02194
6212.49,0.02356
6206.7,0.02259
6200.92,0.02204
6195.13,0.02197
6189.34,0.01916
6183.56,0.02160
6177.77,0.01703
6171.98,0.02103
6166.2,0.01801
6160.41,0.02209
6154.63,0.02399
6148.84,0.02338
6143.05,0.02240
6137.27,0.01857
6131.48,0.02184
6125.7,0.01701
6119.91,0.02089
6114.12,0.02164
6108.34,0.02106
6102.55,0.01949
6096.76,0.02132
6090.98,0.02297
6085.19,0.02118
6079.41,0.01889
6073.62,0.01974
6067.83,0.02109
6062.05,0.02239
6056.26,0.02325
6050.47,0.02123
6044.69,0.02193
6038.9,0.02425
6033.12,0.01863
6027.33,0.02281
6021.54,0.02173
6015.76,0.01908
6009.97,0.02335
6004.18,0.02226
5998.4,0.02307
5992.61,0.02191
5986.83,0.02145
5981.04,0.02219
5975.25,0.02269
5969.47,0.02059
5963.68,0.02331
5957.89,0.02120
5952.11,0.02293
5946.32,0.02036
5940.54,0.02202
5934.75,0.02172
5928.96,0.01963
5923.18,0.02208
5917.39,0.02405
5911.6,0.02274
5905.82,0.02033
5900.03,0.02148
5894.25,0.02199
5888.46,0.02233
5882.67,0.02072
5876.89,0.02244
5871.1,0.01915
5865.31,0.02032
5859.53,0.02132
5853.74,0.02024
5847.96,0.02291
5842.17,0.02193
5836.38,0.02237
5830.6,0.02114
5824.81,0.01971
5819.02,0.02315
5813.24,0.02103
5807.45,0.02331
5801.67,0.02165
5795.88,0.02091
5790.09,0.02254
5784.31,0.02227
5778.52,0.02060
5772.73,0.02153
5766.95,0.02275
5761.16,0.02108
5755.38,0.02090
5749.59,0.02108
5743.8,0.02130
5738.02,0.02175
5732.23,0.02128
5726.44,0.02316
5720.66,0.02234
5714.87,0.02159
5709.09,0.02285
5703.3,0.02328
5697.51,0.02335
5691.73,0.02363
5685.94,0.02136
5680.15,0.02395
5674.37,0.02096
5668.58,0.02221
5662.8,0.02139
5657.01,0.02185
5651.22,0.02169
5645.44,0.01923
5639.65,0.02278
5633.87,0.02162
5628.08,0.02098
5622.29,0.02166
5616.51,0.02070
5610.72,0.02009
5604.93,0.02224
5599.15,0.02181
5593.36,0.02164
5587.58,0.02268
5581.79,0.02099
5576,0.02078
5570.22,0.02238
5564.43,0.02200
5558.64,0.02236
5552.86,0.01924
5547.07,0.02102
5541.29,0.02253
5535.5,0.02292
5529.71,0.02136
5523.93,0.02191
5518.14,0.02183
5512.35,0.02066
5506.57,0.02053
5500.78,0.02096
5495,0.02349
5489.21,0.02265
5483.42,0.02272
5477.64,0.02162
5471.85,0.02150
5466.06,0.02196
5460.28,0.02289
5454.49,0.02091
5448.71,0.02163
5442.92,0.02157
5437.13,0.02334
5431.35,0.02343
5425.56,0.02301
5419.77,0.02338
5413.99,0.02270
5408.2,0.02193
5402.42,0.02030
5396.63,0.02075
5390.84,0.02157
5385.06,0.02136
5379.27,0.02269
5373.48,0.02414
5367.7,0.02231
5361.91,0.02029
5356.13,0.02140
5350.34,0.02148
5344.55,0.02174
5338.77,0.02141
5332.98,0.02178
5327.19,0.02031
5321.41,0.02232
5315.62,0.02215
5309.84,0.02195
5304.05,0.02137
5298.26,0.02433
5292.48,0.02023
5286.69,0.02063
5280.9,0.02233
5275.12,0.02171
5269.33,0.02206
5263.55,0.02199
5257.76,0.02181
5251.97,0.01976
5246.19,0.02218
5240.4,0.02223
5234.61,0.02258
5228.83,0.02155
5223.04,0.02228
5217.26,0.02083
5211.47,0.02146
5205.68,0.02115
5199.9,0.02297
5194.11,0.02207
5188.32,0.02292
5182.54,0.02287
5176.75,0.02260
5170.97,0.02160
5165.18,0.02163
5159.39,0.02354
5153.61,0.02099
5147.82,0.02148
5142.03,0.02189
5136.25,0.02226
5130.46,0.02371
5124.68,0.02187
5118.89,0.02195
5113.1,0.02179
5107.32,0.02196
5101.53,0.02200
5095.75,0.02181
5089.96,0.02101
5084.17,0.02262
5078.39,0.02174
5072.6,0.02160
5066.81,0.02111
5061.03,0.02290
5055.24,0.02240
5049.46,0.02083
5043.67,0.02203
5037.88,0.02128
5032.1,0.02283
5026.31,0.02197
5020.52,0.02305
5014.74,0.02186
5008.95,0.02235
5003.17,0.02225
4997.38,0.02273
4991.59,0.02197
4985.81,0.02147
4980.02,0.02252
4974.23,0.02135
4968.45,0.02236
4962.66,0.02297
4956.88,0.02138
4951.09,0.02293
4945.3,0.02210
4939.52,0.02301
4933.73,0.02306
4927.94,0.02286
4922.16,0.02194
4916.37,0.02259
4910.59,0.02177
4904.8,0.02179
4899.01,0.02187
4893.23,0.02235
4887.44,0.02220
4881.65,0.02183
4875.87,0.02218
4870.08,0.02167
4864.3,0.02103
4858.51,0.02241
4852.72,0.02222
4846.94,0.02275
4841.15,0.02216
4835.36,0.02161
4829.58,0.02210
4823.79,0.02108
4818.01,0.02135
4812.22,0.02272
4806.43,0.02244
4800.65,0.02072
4794.86,0.02275
4789.07,0.02359
4783.29,0.02294
4777.5,0.02192
4771.72,0.02251
4765.93,0.02151
4760.14,0.02133
4754.36,0.02187
4748.57,0.02192
4742.78,0.02099
4737,0.02129
4731.21,0.02317
4725.43,0.02223
4719.64,0.02206
4713.85,0.02124
4708.07,0.02213
4702.28,0.02302
4696.49,0.02145
4690.71,0.02209
4684.92,0.02201
4679.14,0.02265
4673.35,0.02318
4667.56,0.02244
4661.78,0.02294
4655.99,0.02156
4650.2,0.02164
4644.42,0.02212
4638.63,0.02222
4632.85,0.02124
4627.06,0.02136
4621.27,0.02217
4615.49,0.02248
4609.7,0.02165
4603.92,0.02239
4598.13,0.02182
4592.34,0.02224
4586.56,0.02280
4580.77,0.02261
4574.98,0.02119
4569.2,0.02258
4563.41,0.02203
4557.63,0.02216
4551.84,0.02168
4546.05,0.02229
4540.27,0.02232
4534.48,0.02267
4528.69,0.02255
4522.91,0.02238
4517.12,0.02173
4511.34,0.02212
4505.55,0.02248
4499.76,0.02298
4493.98,0.02270
4488.19,0.02240
4482.4,0.02242
4476.62,0.02237
4470.83,0.02330
4465.05,0.02245
4459.26,0.02169
4453.47,0.02159
4447.69,0.02244
4441.9,0.02239
4436.11,0.02202
4430.33,0.02150
4424.54,0.02277
4418.76,0.02242
4412.97,0.02222
4407.18,0.02204
4401.4,0.02137
4395.61,0.02275
4389.82,0.02278
4384.04,0.02137
4378.25,0.02205
4372.47,0.02258
4366.68,0.02274
4360.89,0.02217
4355.11,0.02216
4349.32,0.02214
4343.53,0.02261
4337.75,0.02347
4331.96,0.02196
4326.18,0.02166
4320.39,0.02251
4314.6,0.02269
4308.82,0.02190
4303.03,0.02235
4297.24,0.02318
4291.46,0.02242
4285.67,0.02205
4279.89,0.02233
4274.1,0.02255
4268.31,0.02261
4262.53,0.02268
4256.74,0.02208
4250.95,0.02230
4245.17,0.02209
4239.38,0.02233
4233.6,0.02189
4227.81,0.02268
4222.02,0.02261
4216.24,0.02238
4210.45,0.02243
4204.66,0.02248
4198.88,0.02226
4193.09,0.02224
4187.31,0.02211
4181.52,0.02286
4175.73,0.02330
4169.95,0.02282
4164.16,0.02276
4158.37,0.02283
4152.59,0.02245
4146.8,0.02287
4141.02,0.02248
4135.23,0.02238
4129.44,0.02293
4123.66,0.02237
4117.87,0.02227
4112.09,0.02236
4106.3,0.02300
4100.51,0.02304
4094.73,0.02247
4088.94,0.02273
4083.15,0.02158
4077.37,0.02214
4071.58,0.02303
4065.8,0.02250
4060.01,0.02248
4054.22,0.02255
4048.44,0.02251
4042.65,0.02332
4036.86,0.02282
4031.08,0.02337
4025.29,0.02200
4019.51,0.02228
4013.72,0.02232
4007.93,0.02231
4002.15,0.02294
3996.36,0.02227
3990.57,0.02257
3984.79,0.02223
3979,0.02218
3973.22,0.02247
3967.43,0.02233
3961.64,0.02309
3955.86,0.02284
3950.07,0.02287
3944.28,0.02244
3938.5,0.02253
3932.71,0.02316
3926.93,0.02269
3921.14,0.02276
3915.35,0.02264
3909.57,0.02277
3903.78,0.02238
3897.99,0.02296
3892.21,0.02306
3886.42,0.02275
3880.64,0.02304
3874.85,0.02271
3869.06,0.02220
3863.28,0.02256
3857.49,0.02283
3851.7,0.02243
3845.92,0.02283
3840.13,0.02281
3834.35,0.02267
3828.56,0.02239
3822.77,0.02295
3816.99,0.02280
3811.2,0.02233
3805.41,0.02244
3799.63,0.02333
3793.84,0.02195
3788.06,0.02274
3782.27,0.02243
3776.48,0.02227
3770.7,0.02239
3764.91,0.02271
3759.12,0.02320
3753.34,0.02290
3747.55,0.02320
3741.77,0.02303
3735.98,0.02277
3730.19,0.02182
3724.41,0.02261
3718.62,0.02233
3712.83,0.02194
3707.05,0.02249
3701.26,0.02210
3695.48,0.02259
3689.69,0.02268
3683.9,0.02217
3678.12,0.02279
3672.33,0.02211
3666.54,0.02240
3660.76,0.02203
3654.97,0.02227
3649.19,0.02130
3643.4,0.02145
3637.61,0.02184
3631.83,0.02235
3626.04,0.02174
3620.25,0.02188
3614.47,0.02220
3608.68,0.02177
3602.9,0.02230
3597.11,0.02143
3591.32,0.02151
3585.54,0.02155
3579.75,0.02173
3573.97,0.02166
3568.18,0.02207
3562.39,0.02165
3556.61,0.02172
3550.82,0.02167
3545.03,0.02109
3539.25,0.02103
3533.46,0.02174
3527.68,0.02136
3521.89,0.02109
3516.1,0.02112
3510.32,0.02098
3504.53,0.02106
3498.74,0.02099
3492.96,0.02124
3487.17,0.02131
3481.39,0.02119
3475.6,0.02140
3469.81,0.02194
3464.03,0.02093
3458.24,0.02075
3452.45,0.02134
3446.67,0.02091
3440.88,0.02035
3435.1,0.02092
3429.31,0.02074
3423.52,0.02032
3417.74,0.02039
3411.95,0.02066
3406.16,0.02080
3400.38,0.02016
3394.59,0.02052
3388.81,0.02087
3383.02,0.02024
3377.23,0.02105
3371.45,0.02086
3365.66,0.02007
3359.87,0.02020
3354.09,0.02032
3348.3,0.01992
3342.52,0.01980
3336.73,0.01981
3330.94,0.01967
3325.16,0.02046
3319.37,0.02041
3313.58,0.02021
3307.8,0.02057
3302.01,0.02034
3296.23,0.02119
3290.44,0.02051
3284.65,0.02044
3278.87,0.02117
3273.08,0.02067
3267.29,0.02067
3261.51,0.02095
3255.72,0.01989
3249.94,0.02090
3244.15,0.02081
3238.36,0.02077
3232.58,0.02059
3226.79,0.02099
3221,0.02109
3215.22,0.02121
3209.43,0.02128
3203.65,0.02025
3197.86,0.02079
3192.07,0.02128
3186.29,0.02034
3180.5,0.02157
3174.71,0.02118
3168.93,0.02030
3163.14,0.02110
3157.36,0.02173
3151.57,0.02091
3145.78,0.02076
3140,0.02082
3134.21,0.02094
3128.42,0.02080
3122.64,0.02092
3116.85,0.02063
3111.07,0.02051
3105.28,0.02065
3099.49,0.02111
3093.71,0.02076
3087.92,0.02073
3082.14,0.02103
3076.35,0.02084
3070.56,0.02112
3064.78,0.02021
3058.99,0.02040
3053.2,0.02052
3047.42,0.02063
3041.63,0.02051
3035.85,0.02068
3030.06,0.02012
3024.27,0.02069
3018.49,0.02051
3012.7,0.02045
3006.91,0.02009
3001.13,0.02003
2995.34,0.02034
2989.56,0.02005
2983.77,0.01983
2977.98,0.01988
2972.2,0.01972
2966.41,0.01981
2960.62,0.01957
2954.84,0.01932
2949.05,0.01978
2943.27,0.02000
2937.48,0.01943
2931.69,0.02019
2925.91,0.01982
2920.12,0.01986
2914.33,0.02009
2908.55,0.02048
2902.76,0.02048
2896.98,0.02077
2891.19,0.02053
2885.4,0.02040
2879.62,0.02066
2873.83,0.02054
2868.04,0.02020
2862.26,0.02058
2856.47,0.02050
2850.69,0.02051
2844.9,0.02077
2839.11,0.02128
2833.33,0.02181
2827.54,0.02155
2821.75,0.02110
2815.97,0.02152
2810.18,0.02141
2804.4,0.02130
2798.61,0.02095
2792.82,0.02106
2787.04,0.02048
2781.25,0.02093
2775.46,0.02162
2769.68,0.02098
2763.89,0.02120
2758.11,0.02129
2752.32,0.02127
2746.53,0.02098
2740.75,0.02162
2734.96,0.02121
2729.17,0.02098
2723.39,0.02151
2717.6,0.02125
2711.82,0.02126
2706.03,0.02132
2700.24,0.02126
2694.46,0.02122
2688.67,0.02092
2682.88,0.02166
2677.1,0.02117
2671.31,0.02117
2665.53,0.02149
2659.74,0.02144
2653.95,0.02121
2648.17,0.02169
2642.38,0.02135
2636.59,0.02100
2630.81,0.02101
2625.02,0.02183
2619.24,0.02128
2613.45,0.02138
2607.66,0.02154
2601.88,0.02075
2596.09,0.02116
2590.3,0.02122
2584.52,0.02132
2578.73,0.02110
2572.95,0.02141
2567.16,0.02133
2561.37,0.02106
2555.59,0.02119
2549.8,0.02123
2544.02,0.02114
2538.23,0.02117
2532.44,0.02149
2526.66,0.02136
2520.87,0.02156
2515.08,0.02111
2509.3,0.02144
2503.51,0.02130
2497.73,0.02087
2491.94,0.02158
2486.15,0.02093
2480.37,0.02105
2474.58,0.02137
2468.79,0.02128
2463.01,0.02152
2457.22,0.02131
2451.44,0.02080
2445.65,0.02126
2439.86,0.02114
2434.08,0.02124
2428.29,0.02136
2422.5,0.02151
2416.72,0.02125
2410.93,0.02105
2405.15,0.02118
2399.36,0.02127
2393.57,0.02150
2387.79,0.02148
2382,0.02125
2376.21,0.02117
2370.43,0.02108
2364.64,0.02133
2358.86,0.02152
2353.07,0.02089
2347.28,0.02099
2341.5,0.02120
2335.71,0.02102
2329.92,0.02107
2324.14,0.02121
2318.35,0.02092
2312.57,0.02141
2306.78,0.02112
2300.99,0.02129
2295.21,0.02097
2289.42,0.02108
2283.63,0.02119
2277.85,0.02086
2272.06,0.02137
2266.28,0.02134
2260.49,0.02116
2254.7,0.02094
2248.92,0.02119
2243.13,0.02129
2237.34,0.02100
2231.56,0.02108
2225.77,0.02118
2219.99,0.02110
2214.2,0.02123
2208.41,0.02104
2202.63,0.02100
2196.84,0.02104
2191.05,0.02103
2185.27,0.02119
2179.48,0.02104
2173.7,0.02097
2167.91,0.02099
2162.12,0.02109
2156.34,0.02129
2150.55,0.02110
2144.76,0.02126
2138.98,0.02082
2133.19,0.02116
2127.41,0.02116
2121.62,0.02101
2115.83,0.02116
2110.05,0.02104
2104.26,0.02091
2098.47,0.02089
2092.69,0.02106
2086.9,0.02080
2081.12,0.02106
2075.33,0.02118
2069.54,0.02121
2063.76,0.02094
2057.97,0.02068
2052.19,0.02106
2046.4,0.02097
2040.61,0.02088
2034.83,0.02081
2029.04,0.02086
2023.25,0.02116
2017.47,0.02071
2011.68,0.02078
2005.9,0.02129
2000.11,0.02084
1994.32,0.02067
1988.54,0.02090
1982.75,0.02062
1976.96,0.02054
1971.18,0.02073
1965.39,0.02062
1959.61,0.02082
1953.82,0.02062
1948.03,0.02081
1942.25,0.02091
1936.46,0.02090
1930.67,0.02090
1924.89,0.02081
1919.1,0.02053
1913.32,0.02089
1907.53,0.02067
1901.74,0.02066
1895.96,0.02066
1890.17,0.02031
1884.38,0.02022
1878.6,0.02051
1872.81,0.02030
1867.03,0.02057
1861.24,0.02063
1855.45,0.02033
1849.67,0.02048
1843.88,0.02026
1838.09,0.02028
1832.31,0.01986
1826.52,0.01995
1820.74,0.01985
1814.95,0.02000
1809.16,0.01994
1803.38,0.01982
1797.59,0.01927
1791.8,0.01937
1786.02,0.01941
1780.23,0.01899
1774.45,0.01891
1768.66,0.01852
1762.87,0.01794
1757.09,0.01773
1751.3,0.01770
1745.51,0.01816
1739.73,0.01855
1733.94,0.01951
1728.16,0.02030
1722.37,0.02080
1716.58,0.02115
1710.8,0.02086
1705.01,0.01998
1699.22,0.01999
1693.44,0.01940
1687.65,0.01933
1681.87,0.01884
1676.08,0.01893
1670.29,0.01913
1664.51,0.01817
1658.72,0.01842
1652.93,0.01853
1647.15,0.01887
1641.36,0.01881
1635.58,0.01900
1629.79,0.01882
1624,0.01920
1618.22,0.01913
1612.43,0.01864
1606.64,0.01932
1600.86,0.01900
1595.07,0.01942
1589.29,0.01895
1583.5,0.01868
1577.71,0.01828
1571.93,0.01832
1566.14,0.01831
1560.35,0.01807
1554.57,0.01810
1548.78,0.01871
1543,0.01926
1537.21,0.01826
1531.42,0.01867
1525.64,0.01852
1519.85,0.01857
1514.07,0.01859
1508.28,0.01828
1502.49,0.01901
1496.71,0.01862
1490.92,0.01866
1485.13,0.01845
1479.35,0.01905
1473.56,0.01850
1467.78,0.01825
1461.99,0.01873
1456.2,0.01885
1450.42,0.01917
1444.63,0.01910
1438.84,0.01913
1433.06,0.01884
1427.27,0.01882
1421.49,0.01851
1415.7,0.01848
1409.91,0.01849
1404.13,0.01802
1398.34,0.01796
1392.55,0.01845
1386.77,0.01804
1380.98,0.01844
1375.2,0.01802
1369.41,0.01828
1363.62,0.01822
1357.84,0.01841
1352.05,0.01805
1346.26,0.01769
1340.48,0.01821
1334.69,0.01792
1328.91,0.01769
1323.12,0.01758
1317.33,0.01700
1311.55,0.01679
1305.76,0.01701
1299.97,0.01722
1294.19,0.01808
1288.4,0.01826
1282.62,0.01889
1276.83,0.01905
1271.04,0.01956
1265.26,0.01987
1259.47,0.02038
1253.68,0.02018
1247.9,0.02070
1242.11,0.02032
1236.33,0.01991
1230.54,0.01965
1224.75,0.01959
1218.97,0.01931
1213.18,0.01934
1207.39,0.01910
1201.61,0.01869
1195.82,0.01855
1190.04,0.01819
1184.25,0.01791
1178.46,0.01816
1172.68,0.01779
1166.89,0.01805
1161.1,0.01771
1155.32,0.01714
1149.53,0.01765
1143.75,0.01723
1137.96,0.01747
1132.17,0.01810
1126.39,0.01809
1120.6,0.01855
1114.81,0.01915
1109.03,0.01874
1103.24,0.01816
1097.46,0.01856
1091.67,0.01783
1085.88,0.01824
1080.1,0.01892
1074.31,0.01970
1068.52,0.01969
1062.74,0.01920
1056.95,0.01979
1051.17,0.01947
1045.38,0.01949
1039.59,0.01981
1033.81,0.01971
1028.02,0.01903
1022.24,0.01935
1016.45,0.01962
1010.66,0.01965
1004.88,0.02125
999.09,0.02089
993.304,0.02143
987.518,0.02106
981.731,0.02106
975.945,0.02082
970.159,0.02114
964.373,0.02048
958.586,0.02028
952.8,0.02012
947.014,0.02019
941.228,0.01972
935.441,0.01953
929.655,0.01981
923.869,0.02015
918.083,0.01890
912.297,0.01916
906.51,0.01932
900.724,0.01923
894.938,0.01910
889.152,0.01893
883.365,0.01926
877.579,0.01891
871.793,0.01851
866.007,0.01865
860.22,0.01904
854.434,0.01874
848.648,0.01958
842.862,0.01906
837.075,0.01891
831.289,0.01867
825.503,0.01903
819.717,0.01893
813.931,0.01845
808.144,0.01884
802.358,0.01948
796.572,0.01880
790.786,0.01887
784.999,0.01903
779.213,0.01864
773.427,0.01861
767.641,0.01914
761.854,0.01862
756.068,0.01805
750.282,0.01824
744.496,0.01824
738.709,0.01821
732.923,0.01774
727.137,0.01912
721.351,0.01846
715.565,0.01836
709.778,0.01851
703.992,0.01868
698.206,0.01813
692.42,0.01747
686.633,0.01709
680.847,0.01710
675.061,0.01751
669.275,0.01875
663.488,0.01707
657.702,0.01786
651.916,0.01758
646.13,0.01876
640.343,0.01722
634.557,0.01781
628.771,0.01620
622.985,0.01430
617.198,0.01358
611.412,0.01710
605.626,0.01422
599.84,0.01527