File: 01_Data/Asphalt_Shingle/FTIR/IS/Asphalt_Shingle_IS_S_220831_R2.dpt
7497.03,0.05544
7491.25,0.05698
7485.46,0.06123
7479.67,0.05617
7473.89,0.06425
7468.1,0.05473
7462.32,0.05805
7456.53,0.06035
7450.74,0.05376
7444.96,0.05861
7439.17,0.05088
7433.38,0.05417
7427.6,0.04971
7421.81,0.05188
7416.03,0.05321
7410.24,0.05796
7404.45,0.05423
7398.67,0.05023
7392.88,0.06134
7387.09,0.05357
7381.31,0.05458
7375.52,0.05606
7369.74,0.05619
7363.95,0.05030
7358.16,0.05233
7352.38,0.05819
7346.59,0.05588
7340.8,0.04958
7335.02,0.04676
7329.23,0.05411
7323.45,0.05941
7317.66,0.05669
7311.87,0.05148
7306.09,0.05473
7300.3,0.05109
7294.51,0.05413
7288.73,0.05966
7282.94,0.06260
7277.16,0.06094
7271.37,0.05815
7265.58,0.05787
7259.8,0.05843
7254.01,0.05413
7248.22,0.05964
7242.44,0.06954
7236.65,0.05679
7230.87,0.04787
7225.08,0.05331
7219.29,0.06038
7213.51,0.06381
7207.72,0.05443
7201.93,0.05794
7196.15,0.05481
7190.36,0.05358
7184.58,0.06191
7178.79,0.05035
7173,0.05769
7167.22,0.05597
7161.43,0.05776
7155.65,0.05888
7149.86,0.05371
7144.07,0.06042
7138.29,0.05423
7132.5,0.05792
7126.71,0.05639
7120.93,0.06207
7115.14,0.05810
7109.36,0.06149
7103.57,0.05868
7097.78,0.05756
7092,0.05512
7086.21,0.05721
7080.42,0.06069
7074.64,0.05601
7068.85,0.05488
7063.07,0.05519
7057.28,0.05865
7051.49,0.05269
7045.71,0.06061
7039.92,0.05312
7034.13,0.05588
7028.35,0.05418
7022.56,0.05318
7016.78,0.06119
7010.99,0.05939
7005.2,0.05832
6999.42,0.05902
6993.63,0.05567
6987.84,0.05648
6982.06,0.05547
6976.27,0.05915
6970.49,0.06124
6964.7,0.05759
6958.91,0.05274
6953.13,0.05604
6947.34,0.05721
6941.55,0.05536
6935.77,0.06113
6929.98,0.05692
6924.2,0.05151
6918.41,0.04886
6912.62,0.05401
6906.84,0.05796
6901.05,0.05737
6895.26,0.05669
6889.48,0.05857
6883.69,0.05987
6877.91,0.05166
6872.12,0.05398
6866.33,0.05858
6860.55,0.06167
6854.76,0.05863
6848.97,0.05677
6843.19,0.05087
6837.4,0.05740
6831.62,0.05385
6825.83,0.05369
6820.04,0.05756
6814.26,0.05398
6808.47,0.05694
6802.68,0.05682
6796.9,0.05952
6791.11,0.05793
6785.33,0.05787
6779.54,0.05387
6773.75,0.05661
6767.97,0.05867
6762.18,0.05767
6756.39,0.06101
6750.61,0.05671
6744.82,0.05376
6739.04,0.05854
6733.25,0.05521
6727.46,0.06301
6721.68,0.05668
6715.89,0.05806
6710.1,0.05659
6704.32,0.05122
6698.53,0.05764
6692.75,0.05274
6686.96,0.05228
6681.17,0.05462
6675.39,0.05255
6669.6,0.05746
6663.82,0.05531
6658.03,0.05370
6652.24,0.05728
6646.46,0.05605
6640.67,0.05465
6634.88,0.05511
6629.1,0.05729
6623.31,0.05611
6617.53,0.05917
6611.74,0.05584
6605.95,0.05968
6600.17,0.05833
6594.38,0.05916
6588.59,0.05242
6582.81,0.05281
6577.02,0.05492
6571.24,0.05786
6565.45,0.05647
6559.66,0.05428
6553.88,0.05708
6548.09,0.05747
6542.3,0.05674
6536.52,0.06130
6530.73,0.05749
6524.95,0.05769
6519.16,0.05847
6513.37,0.05434
6507.59,0.05973
6501.8,0.05929
6496.01,0.05724
6490.23,0.05699
6484.44,0.05650
6478.66,0.05535
6472.87,0.05271
6467.08,0.05457
6461.3,0.05910
6455.51,0.05774
6449.72,0.05830
6443.94,0.05717
6438.15,0.05934
6432.37,0.05610
6426.58,0.05519
6420.79,0.05956
6415.01,0.05693
6409.22,0.05798
6403.43,0.05538
6397.65,0.05560
6391.86,0.05902
6386.08,0.05945
6380.29,0.05849
6374.5,0.06009
6368.72,0.05660
6362.93,0.05334
6357.14,0.05856
6351.36,0.05672
6345.57,0.05692
6339.79,0.05627
6334,0.05934
6328.21,0.05850
6322.43,0.05667
6316.64,0.05604
6310.85,0.05887
6305.07,0.05851
6299.28,0.05625
6293.5,0.06075
6287.71,0.05753
6281.92,0.05610
6276.14,0.05809
6270.35,0.05580
6264.56,0.05762
6258.78,0.05886
6252.99,0.05722
6247.21,0.05754
6241.42,0.05810
6235.63,0.05479
6229.85,0.05979
6224.06,0.06041
6218.27,0.05762
6212.49,0.05677
6206.7,0.05541
6200.92,0.05714
6195.13,0.05273
6189.34,0.05734
6183.56,0.05650
6177.77,0.05721
6171.98,0.05816
6166.2,0.06017
6160.41,0.05784
6154.63,0.05692
6148.84,0.05709
6143.05,0.05695
6137.27,0.05911
6131.48,0.05753
6125.7,0.05941
6119.91,0.05476
6114.12,0.05967
6108.34,0.05845
6102.55,0.06106
6096.76,0.05914
6090.98,0.05686
6085.19,0.05903
6079.41,0.05903
6073.62,0.05775
6067.83,0.05641
6062.05,0.05730
6056.26,0.05601
6050.47,0.05715
6044.69,0.05830
6038.9,0.05861
6033.12,0.06144
6027.33,0.05841
6021.54,0.05876
6015.76,0.05877
6009.97,0.05869
6004.18,0.05807
5998.4,0.05889
5992.61,0.05827
5986.83,0.05934
5981.04,0.05868
5975.25,0.05818
5969.47,0.05848
5963.68,0.05928
5957.89,0.06125
5952.11,0.05963
5946.32,0.06206
5940.54,0.05827
5934.75,0.05690
5928.96,0.06079
5923.18,0.05694
5917.39,0.05945
5911.6,0.05975
5905.82,0.05908
5900.03,0.06052
5894.25,0.06049
5888.46,0.05816
5882.67,0.06065
5876.89,0.05988
5871.1,0.05769
5865.31,0.05917
5859.53,0.05900
5853.74,0.05916
5847.96,0.05721
5842.17,0.06013
5836.38,0.05859
5830.6,0.06164
5824.81,0.05986
5819.02,0.05917
5813.24,0.06060
5807.45,0.05879
5801.67,0.05807
5795.88,0.05952
5790.09,0.06090
5784.31,0.06061
5778.52,0.06210
5772.73,0.05997
5766.95,0.05879
5761.16,0.06013
5755.38,0.05825
5749.59,0.05867
5743.8,0.06036
5738.02,0.06052
5732.23,0.06132
5726.44,0.06215
5720.66,0.06027
5714.87,0.05933
5709.09,0.06002
5703.3,0.06074
5697.51,0.05946
5691.73,0.06045
5685.94,0.05974
5680.15,0.05927
5674.37,0.06271
5668.58,0.05869
5662.8,0.05947
5657.01,0.06017
5651.22,0.06105
5645.44,0.06201
5639.65,0.06002
5633.87,0.06005
5628.08,0.06039
5622.29,0.06169
5616.51,0.06064
5610.72,0.06041
5604.93,0.06132
5599.15,0.05985
5593.36,0.06231
5587.58,0.06177
5581.79,0.05937
5576,0.06186
5570.22,0.06126
5564.43,0.06125
5558.64,0.06211
5552.86,0.06060
5547.07,0.05922
5541.29,0.06049
5535.5,0.06242
5529.71,0.06222
5523.93,0.06208
5518.14,0.06042
5512.35,0.06026
5506.57,0.06129
5500.78,0.06036
5495,0.06114
5489.21,0.06161
5483.42,0.06106
5477.64,0.06109
5471.85,0.06007
5466.06,0.06034
5460.28,0.06025
5454.49,0.06299
5448.71,0.06378
5442.92,0.06155
5437.13,0.06296
5431.35,0.06149
5425.56,0.06046
5419.77,0.06180
5413.99,0.06269
5408.2,0.06340
5402.42,0.06353
5396.63,0.06233
5390.84,0.06290
5385.06,0.06234
5379.27,0.06331
5373.48,0.06154
5367.7,0.06214
5361.91,0.06304
5356.13,0.06192
5350.34,0.06268
5344.55,0.06259
5338.77,0.06290
5332.98,0.06362
5327.19,0.06196
5321.41,0.06196
5315.62,0.06125
5309.84,0.06291
5304.05,0.06354
5298.26,0.06235
5292.48,0.06291
5286.69,0.06402
5280.9,0.06272
5275.12,0.06193
5269.33,0.06204
5263.55,0.06272
5257.76,0.06370
5251.97,0.06315
5246.19,0.06368
5240.4,0.06257
5234.61,0.06215
5228.83,0.06268
5223.04,0.06267
5217.26,0.06277
5211.47,0.06313
5205.68,0.06197
5199.9,0.06265
5194.11,0.06191
5188.32,0.06283
5182.54,0.06343
5176.75,0.06347
5170.97,0.06420
5165.18,0.06168
5159.39,0.06329
5153.61,0.06345
5147.82,0.06309
5142.03,0.06219
5136.25,0.06318
5130.46,0.06327
5124.68,0.06349
5118.89,0.06417
5113.1,0.06256
5107.32,0.06206
5101.53,0.06255
5095.75,0.06300
5089.96,0.06365
5084.17,0.06321
5078.39,0.06287
5072.6,0.06296
5066.81,0.06289
5061.03,0.06529
5055.24,0.06495
5049.46,0.06375
5043.67,0.06331
5037.88,0.06469
5032.1,0.06330
5026.31,0.06287
5020.52,0.06403
5014.74,0.06394
5008.95,0.06430
5003.17,0.06383
4997.38,0.06359
4991.59,0.06346
4985.81,0.06341
4980.02,0.06427
4974.23,0.06392
4968.45,0.06318
4962.66,0.06375
4956.88,0.06431
4951.09,0.06420
4945.3,0.06316
4939.52,0.06302
4933.73,0.06461
4927.94,0.06493
4922.16,0.06362
4916.37,0.06394
4910.59,0.06417
4904.8,0.06543
4899.01,0.06586
4893.23,0.06414
4887.44,0.06515
4881.65,0.06458
4875.87,0.06414
4870.08,0.06609
4864.3,0.06567
4858.51,0.06590
4852.72,0.06593
4846.94,0.06485
4841.15,0.06519
4835.36,0.06468
4829.58,0.06530
4823.79,0.06492
4818.01,0.06504
4812.22,0.06566
4806.43,0.06529
4800.65,0.06606
4794.86,0.06601
4789.07,0.06498
4783.29,0.06543
4777.5,0.06474
4771.72,0.06489
4765.93,0.06507
4760.14,0.06630
4754.36,0.06552
4748.57,0.06513
4742.78,0.06573
4737,0.06515
4731.21,0.06607
4725.43,0.06585
4719.64,0.06551
4713.85,0.06573
4708.07,0.06562
4702.28,0.06584
4696.49,0.06561
4690.71,0.06588
4684.92,0.06631
4679.14,0.06603
4673.35,0.06603
4667.56,0.06679
4661.78,0.06617
4655.99,0.06639
4650.2,0.06670
4644.42,0.06542
4638.63,0.06635
4632.85,0.06572
4627.06,0.06589
4621.27,0.06692
4615.49,0.06592
4609.7,0.06570
4603.92,0.06542
4598.13,0.06661
4592.34,0.06652
4586.56,0.06579
4580.77,0.06655
4574.98,0.06583
4569.2,0.06574
4563.41,0.06634
4557.63,0.06564
4551.84,0.06544
4546.05,0.06561
4540.27,0.06599
4534.48,0.06665
4528.69,0.06519
4522.91,0.06597
4517.12,0.06594
4511.34,0.06512
4505.55,0.06508
4499.76,0.06433
4493.98,0.06512
4488.19,0.06487
4482.4,0.06361
4476.62,0.06412
4470.83,0.06474
4465.05,0.06391
4459.26,0.06316
4453.47,0.06308
4447.69,0.06183
4441.9,0.06064
4436.11,0.06111
4430.33,0.06186
4424.54,0.06168
4418.76,0.06181
4412.97,0.06198
4407.18,0.06147
4401.4,0.06151
4395.61,0.06234
4389.82,0.06204
4384.04,0.06154
4378.25,0.06200
4372.47,0.06198
4366.68,0.06083
4360.89,0.06098
4355.11,0.06066
4349.32,0.06044
4343.53,0.06000
4337.75,0.05970
4331.96,0.05941
4326.18,0.05919
4320.39,0.05846
4314.6,0.05852
4308.82,0.05832
4303.03,0.05841
4297.24,0.05760
4291.46,0.05666
4285.67,0.05661
4279.89,0.05679
4274.1,0.05636
4268.31,0.05658
4262.53,0.05681
4256.74,0.05758
4250.95,0.05908
4245.17,0.05886
4239.38,0.05964
4233.6,0.06081
4227.81,0.06061
4222.02,0.06110
4216.24,0.06121
4210.45,0.06216
4204.66,0.06239
4198.88,0.06196
4193.09,0.06197
4187.31,0.06267
4181.52,0.06243
4175.73,0.06201
4169.95,0.06258
4164.16,0.06209
4158.37,0.06217
4152.59,0.06299
4146.8,0.06283
4141.02,0.06332
4135.23,0.06363
4129.44,0.06401
4123.66,0.06399
4117.87,0.06337
4112.09,0.06300
4106.3,0.06332
4100.51,0.06411
4094.73,0.06385
4088.94,0.06307
4083.15,0.06331
4077.37,0.06279
4071.58,0.06308
4065.8,0.06307
4060.01,0.06239
4054.22,0.06233
4048.44,0.06216
4042.65,0.06229
4036.86,0.06270
4031.08,0.06194
4025.29,0.06201
4019.51,0.06147
4013.72,0.06189
4007.93,0.06191
4002.15,0.06164
3996.36,0.06217
3990.57,0.06171
3984.79,0.06144
3979,0.06140
3973.22,0.06170
3967.43,0.06170
3961.64,0.06187
3955.86,0.06207
3950.07,0.06168
3944.28,0.06133
3938.5,0.06171
3932.71,0.06203
3926.93,0.06251
3921.14,0.06168
3915.35,0.06161
3909.57,0.06172
3903.78,0.06200
3897.99,0.06224
3892.21,0.06215
3886.42,0.06231
3880.64,0.06206
3874.85,0.06198
3869.06,0.06195
3863.28,0.06180
3857.49,0.06205
3851.7,0.06197
3845.92,0.06187
3840.13,0.06199
3834.35,0.06208
3828.56,0.06218
3822.77,0.06264
3816.99,0.06179
3811.2,0.06220
3805.41,0.06179
3799.63,0.06206
3793.84,0.06149
3788.06,0.06165
3782.27,0.06183
3776.48,0.06230
3770.7,0.06148
3764.91,0.06144
3759.12,0.06227
3753.34,0.06200
3747.55,0.06105
3741.77,0.06108
3735.98,0.06070
3730.19,0.05999
3724.41,0.05916
3718.62,0.05859
3712.83,0.05664
3707.05,0.05417
3701.26,0.05180
3695.48,0.04963
3689.69,0.04732
3683.9,0.04623
3678.12,0.04528
3672.33,0.04428
3666.54,0.04387
3660.76,0.04349
3654.97,0.04380
3649.19,0.04292
3643.4,0.04263
3637.61,0.04257
3631.83,0.04258
3626.04,0.04161
3620.25,0.04108
3614.47,0.04165
3608.68,0.04196
3602.9,0.04148
3597.11,0.04056
3591.32,0.03992
3585.54,0.03983
3579.75,0.04007
3573.97,0.04005
3568.18,0.03972
3562.39,0.03975
3556.61,0.03966
3550.82,0.03948
3545.03,0.03950
3539.25,0.03984
3533.46,0.03944
3527.68,0.03933
3521.89,0.03990
3516.1,0.03919
3510.32,0.03943
3504.53,0.03898
3498.74,0.03962
3492.96,0.03895
3487.17,0.03926
3481.39,0.03926
3475.6,0.03961
3469.81,0.03912
3464.03,0.03893
3458.24,0.03858
3452.45,0.03872
3446.67,0.03851
3440.88,0.03846
3435.1,0.03826
3429.31,0.03869
3423.52,0.03785
3417.74,0.03786
3411.95,0.03888
3406.16,0.03874
3400.38,0.03798
3394.59,0.03815
3388.81,0.03798
3383.02,0.03718
3377.23,0.03905
3371.45,0.03808
3365.66,0.03804
3359.87,0.03906
3354.09,0.03787
3348.3,0.03801
3342.52,0.03868
3336.73,0.03918
3330.94,0.03807
3325.16,0.03825
3319.37,0.03901
3313.58,0.03925
3307.8,0.03947
3302.01,0.03958
3296.23,0.03980
3290.44,0.03949
3284.65,0.03941
3278.87,0.04014
3273.08,0.03958
3267.29,0.04013
3261.51,0.03991
3255.72,0.03969
3249.94,0.04081
3244.15,0.04120
3238.36,0.04113
3232.58,0.04155
3226.79,0.04135
3221,0.04126
3215.22,0.04223
3209.43,0.04220
3203.65,0.04211
3197.86,0.04188
3192.07,0.04226
3186.29,0.04261
3180.5,0.04377
3174.71,0.04321
3168.93,0.04304
3163.14,0.04378
3157.36,0.04335
3151.57,0.04370
3145.78,0.04476
3140,0.04496
3134.21,0.04465
3128.42,0.04469
3122.64,0.04553
3116.85,0.04506
3111.07,0.04610
3105.28,0.04576
3099.49,0.04595
3093.71,0.04591
3087.92,0.04616
3082.14,0.04662
3076.35,0.04639
3070.56,0.04667
3064.78,0.04703
3058.99,0.04725
3053.2,0.04754
3047.42,0.04756
3041.63,0.04760
3035.85,0.04765
3030.06,0.04767
3024.27,0.04772
3018.49,0.04765
3012.7,0.04788
3006.91,0.04790
3001.13,0.04800
2995.34,0.04754
2989.56,0.04753
2983.77,0.04661
2977.98,0.04633
2972.2,0.04560
2966.41,0.04366
2960.62,0.04286
2954.84,0.04289
2949.05,0.04314
2943.27,0.04320
2937.48,0.04220
2931.69,0.04168
2925.91,0.04228
2920.12,0.04327
2914.33,0.04539
2908.55,0.04621
2902.76,0.04668
2896.98,0.04707
2891.19,0.04753
2885.4,0.04811
2879.62,0.04757
2873.83,0.04690
2868.04,0.04691
2862.26,0.04624
2856.47,0.04571
2850.69,0.04709
2844.9,0.04953
2839.11,0.05099
2833.33,0.05222
2827.54,0.05308
2821.75,0.05361
2815.97,0.05421
2810.18,0.05464
2804.4,0.05445
2798.61,0.05490
2792.82,0.05558
2787.04,0.05554
2781.25,0.05571
2775.46,0.05576
2769.68,0.05628
2763.89,0.05638
2758.11,0.05682
2752.32,0.05664
2746.53,0.05681
2740.75,0.05703
2734.96,0.05700
2729.17,0.05676
2723.39,0.05742
2717.6,0.05729
2711.82,0.05729
2706.03,0.05764
2700.24,0.05758
2694.46,0.05774
2688.67,0.05789
2682.88,0.05811
2677.1,0.05819
2671.31,0.05830
2665.53,0.05846
2659.74,0.05861
2653.95,0.05888
2648.17,0.05818
2642.38,0.05896
2636.59,0.05907
2630.81,0.05896
2625.02,0.05864
2619.24,0.05878
2613.45,0.05892
2607.66,0.05884
2601.88,0.05867
2596.09,0.05890
2590.3,0.05853
2584.52,0.05904
2578.73,0.05881
2572.95,0.05919
2567.16,0.05962
2561.37,0.05950
2555.59,0.05937
2549.8,0.05906
2544.02,0.05873
2538.23,0.05920
2532.44,0.05864
2526.66,0.05846
2520.87,0.05873
2515.08,0.05834
2509.3,0.05859
2503.51,0.05909
2497.73,0.05923
2491.94,0.05926
2486.15,0.05914
2480.37,0.05958
2474.58,0.05952
2468.79,0.06006
2463.01,0.05974
2457.22,0.06002
2451.44,0.06013
2445.65,0.05994
2439.86,0.05976
2434.08,0.05994
2428.29,0.06008
2422.5,0.06039
2416.72,0.06022
2410.93,0.05979
2405.15,0.05975
2399.36,0.05968
2393.57,0.05972
2387.79,0.05913
2382,0.05986
2376.21,0.05922
2370.43,0.05931
2364.64,0.05912
2358.86,0.05913
2353.07,0.05869
2347.28,0.05794
2341.5,0.05805
2335.71,0.05838
2329.92,0.05848
2324.14,0.05837
2318.35,0.05832
2312.57,0.05837
2306.78,0.05804
2300.99,0.05752
2295.21,0.05801
2289.42,0.05818
2283.63,0.05795
2277.85,0.05741
2272.06,0.05687
2266.28,0.05706
2260.49,0.05706
2254.7,0.05713
2248.92,0.05626
2243.13,0.05596
2237.34,0.05587
2231.56,0.05544
2225.77,0.05551
2219.99,0.05513
2214.2,0.05442
2208.41,0.05465
2202.63,0.05434
2196.84,0.05386
2191.05,0.05314
2185.27,0.05275
2179.48,0.05212
2173.7,0.05174
2167.91,0.05108
2162.12,0.05069
2156.34,0.05059
2150.55,0.05021
2144.76,0.05046
2138.98,0.05030
2133.19,0.05003
2127.41,0.04981
2121.62,0.04951
2115.83,0.04942
2110.05,0.04911
2104.26,0.04858
2098.47,0.04872
2092.69,0.04841
2086.9,0.04790
2081.12,0.04740
2075.33,0.04741
2069.54,0.04722
2063.76,0.04712
2057.97,0.04704
2052.19,0.04626
2046.4,0.04615
2040.61,0.04568
2034.83,0.04571
2029.04,0.04524
2023.25,0.04535
2017.47,0.04519
2011.68,0.04541
2005.9,0.04504
2000.11,0.04524
1994.32,0.04519
1988.54,0.04555
1982.75,0.04555
1976.96,0.04528
1971.18,0.04566
1965.39,0.04534
1959.61,0.04527
1953.82,0.04524
1948.03,0.04506
1942.25,0.04502
1936.46,0.04513
1930.67,0.04508
1924.89,0.04476
1919.1,0.04485
1913.32,0.04466
1907.53,0.04443
1901.74,0.04440
1895.96,0.04458
1890.17,0.04379
1884.38,0.04396
1878.6,0.04410
1872.81,0.04380
1867.03,0.04398
1861.24,0.04389
1855.45,0.04419
1849.67,0.04397
1843.88,0.04399
1838.09,0.04393
1832.31,0.04389
1826.52,0.04371
1820.74,0.04319
1814.95,0.04293
1809.16,0.04256
1803.38,0.04198
1797.59,0.04133
1791.8,0.04105
1786.02,0.04113
1780.23,0.04130
1774.45,0.04122
1768.66,0.04109
1762.87,0.04060
1757.09,0.04057
1751.3,0.04051
1745.51,0.04036
1739.73,0.03967
1733.94,0.03937
1728.16,0.03940
1722.37,0.03953
1716.58,0.03938
1710.8,0.03897
1705.01,0.03865
1699.22,0.03872
1693.44,0.03812
1687.65,0.03847
1681.87,0.03889
1676.08,0.03858
1670.29,0.03922
1664.51,0.03934
1658.72,0.03916
1652.93,0.03925
1647.15,0.03967
1641.36,0.04006
1635.58,0.04024
1629.79,0.04029
1624,0.03989
1618.22,0.04017
1612.43,0.04051
1606.64,0.04075
1600.86,0.04063
1595.07,0.04126
1589.29,0.04211
1583.5,0.04273
1577.71,0.04348
1571.93,0.04502
1566.14,0.04621
1560.35,0.04736
1554.57,0.04869
1548.78,0.04977
1543,0.04963
1537.21,0.04894
1531.42,0.04879
1525.64,0.04856
1519.85,0.04786
1514.07,0.04717
1508.28,0.04681
1502.49,0.04608
1496.71,0.04554
1490.92,0.04485
1485.13,0.04407
1479.35,0.04345
1473.56,0.04181
1467.78,0.04007
1461.99,0.04012
1456.2,0.03983
1450.42,0.03986
1444.63,0.04038
1438.84,0.04075
1433.06,0.04033
1427.27,0.03985
1421.49,0.04014
1415.7,0.03994
1409.91,0.03973
1404.13,0.03927
1398.34,0.03867
1392.55,0.03847
1386.77,0.03800
1380.98,0.03751
1375.2,0.03780
1369.41,0.03763
1363.62,0.03798
1357.84,0.03861
1352.05,0.03800
1346.26,0.03809
1340.48,0.03824
1334.69,0.03763
1328.91,0.03760
1323.12,0.03733
1317.33,0.03767
1311.55,0.03725
1305.76,0.03735
1299.97,0.03712
1294.19,0.03687
1288.4,0.03689
1282.62,0.03614
1276.83,0.03627
1271.04,0.03584
1265.26,0.03507
1259.47,0.03497
1253.68,0.03390
1247.9,0.03352
1242.11,0.03355
1236.33,0.03426
1230.54,0.03425
1224.75,0.03506
1218.97,0.03520
1213.18,0.03592
1207.39,0.03594
1201.61,0.03626
1195.82,0.03575
1190.04,0.03732
1184.25,0.03669
1178.46,0.03641
1172.68,0.03690
1166.89,0.03736
1161.1,0.03774
1155.32,0.03944
1149.53,0.04065
1143.75,0.04170
1137.96,0.04377
1132.17,0.04590
1126.39,0.04729
1120.6,0.04943
1114.81,0.05130
1109.03,0.05366
1103.24,0.05574
1097.46,0.05903
1091.67,0.06115
1085.88,0.06252
1080.1,0.06302
1074.31,0.06384
1068.52,0.06387
1062.74,0.06421
1056.95,0.06439
1051.17,0.06569
1045.38,0.06652
1039.59,0.06915
1033.81,0.07138
1028.02,0.07112
1022.24,0.06947
1016.45,0.07039
1010.66,0.07238
1004.88,0.07485
999.09,0.07513
993.304,0.07529
987.518,0.07533
981.731,0.07469
975.945,0.07359
970.159,0.07284
964.373,0.07254
958.586,0.07268
952.8,0.07279
947.014,0.07199
941.228,0.07034
935.441,0.06855
929.655,0.06628
923.869,0.06416
918.083,0.06321
912.297,0.06340
906.51,0.06297
900.724,0.06295
894.938,0.06283
889.152,0.06269
883.365,0.06007
877.579,0.05934
871.793,0.05720
866.007,0.05575
860.22,0.05493
854.434,0.05383
848.648,0.05160
842.862,0.05108
837.075,0.05024
831.289,0.04875
825.503,0.04760
819.717,0.04612
813.931,0.04608
808.144,0.04646
802.358,0.04659
796.572,0.04569
790.786,0.04541
784.999,0.04528
779.213,0.04571
773.427,0.04477
767.641,0.04472
761.854,0.04565
756.068,0.04641
750.282,0.04659
744.496,0.04598
738.709,0.04674
732.923,0.04589
727.137,0.04523
721.351,0.04543
715.565,0.04562
709.778,0.04432
703.992,0.04424
698.206,0.04325
692.42,0.04453
686.633,0.04554
680.847,0.04483
675.061,0.04573
669.275,0.04486
663.488,0.04429
657.702,0.04352
651.916,0.04514
646.13,0.04782
640.343,0.04752
634.557,0.04554
628.771,0.04477
622.985,0.04375
617.198,0.04331
611.412,0.04266
605.626,0.04211
599.84,0.04208