File: 01_Data/Cotton_Batting/FTIR/IS/Cotton_Batting_IS_S_220912_R5.dpt
7497.03,0.57269
7491.25,0.58330
7485.46,0.58056
7479.67,0.57714
7473.89,0.56901
7468.1,0.57830
7462.32,0.56850
7456.53,0.57175
7450.74,0.57558
7444.96,0.57292
7439.17,0.57063
7433.38,0.57173
7427.6,0.56387
7421.81,0.57948
7416.03,0.57291
7410.24,0.57110
7404.45,0.57383
7398.67,0.58161
7392.88,0.57313
7387.09,0.56969
7381.31,0.57588
7375.52,0.56478
7369.74,0.56774
7363.95,0.56703
7358.16,0.57363
7352.38,0.56395
7346.59,0.57284
7340.8,0.56969
7335.02,0.56663
7329.23,0.56793
7323.45,0.56148
7317.66,0.56180
7311.87,0.56728
7306.09,0.55773
7300.3,0.56813
7294.51,0.56250
7288.73,0.56223
7282.94,0.55478
7277.16,0.56518
7271.37,0.55658
7265.58,0.56055
7259.8,0.55900
7254.01,0.56262
7248.22,0.55087
7242.44,0.55775
7236.65,0.56554
7230.87,0.56223
7225.08,0.55893
7219.29,0.55700
7213.51,0.55675
7207.72,0.55770
7201.93,0.55624
7196.15,0.55767
7190.36,0.55657
7184.58,0.55253
7178.79,0.55962
7173,0.55751
7167.22,0.55735
7161.43,0.54804
7155.65,0.55723
7149.86,0.55607
7144.07,0.56046
7138.29,0.56066
7132.5,0.56037
7126.71,0.54529
7120.93,0.55116
7115.14,0.55190
7109.36,0.55123
7103.57,0.55945
7097.78,0.55226
7092,0.55524
7086.21,0.55118
7080.42,0.55111
7074.64,0.55198
7068.85,0.55069
7063.07,0.55882
7057.28,0.54786
7051.49,0.55293
7045.71,0.54662
7039.92,0.55272
7034.13,0.55486
7028.35,0.55525
7022.56,0.54920
7016.78,0.55527
7010.99,0.55000
7005.2,0.55024
6999.42,0.55717
6993.63,0.55364
6987.84,0.55778
6982.06,0.55631
6976.27,0.55103
6970.49,0.55645
6964.7,0.55642
6958.91,0.55232
6953.13,0.55632
6947.34,0.56022
6941.55,0.55683
6935.77,0.56623
6929.98,0.55688
6924.2,0.55162
6918.41,0.56221
6912.62,0.56013
6906.84,0.55076
6901.05,0.56183
6895.26,0.55228
6889.48,0.55602
6883.69,0.55617
6877.91,0.55735
6872.12,0.55816
6866.33,0.55591
6860.55,0.56278
6854.76,0.55969
6848.97,0.55672
6843.19,0.56384
6837.4,0.56194
6831.62,0.56434
6825.83,0.56456
6820.04,0.55891
6814.26,0.56665
6808.47,0.56554
6802.68,0.56168
6796.9,0.56133
6791.11,0.56272
6785.33,0.55683
6779.54,0.56103
6773.75,0.56195
6767.97,0.55953
6762.18,0.56078
6756.39,0.55858
6750.61,0.56112
6744.82,0.55901
6739.04,0.56547
6733.25,0.56341
6727.46,0.56146
6721.68,0.56125
6715.89,0.56057
6710.1,0.56279
6704.32,0.55792
6698.53,0.56191
6692.75,0.55879
6686.96,0.56313
6681.17,0.56002
6675.39,0.56261
6669.6,0.55695
6663.82,0.56034
6658.03,0.56013
6652.24,0.55641
6646.46,0.55706
6640.67,0.55878
6634.88,0.55336
6629.1,0.55221
6623.31,0.55584
6617.53,0.55446
6611.74,0.56272
6605.95,0.55922
6600.17,0.55426
6594.38,0.55927
6588.59,0.55537
6582.81,0.55902
6577.02,0.55605
6571.24,0.55618
6565.45,0.55785
6559.66,0.55893
6553.88,0.55313
6548.09,0.55409
6542.3,0.55234
6536.52,0.55697
6530.73,0.55313
6524.95,0.55375
6519.16,0.55305
6513.37,0.55447
6507.59,0.55228
6501.8,0.55243
6496.01,0.55396
6490.23,0.55356
6484.44,0.55631
6478.66,0.55348
6472.87,0.55769
6467.08,0.55954
6461.3,0.55748
6455.51,0.56016
6449.72,0.56097
6443.94,0.56168
6438.15,0.56043
6432.37,0.56622
6426.58,0.56564
6420.79,0.55925
6415.01,0.56119
6409.22,0.56248
6403.43,0.56440
6397.65,0.55971
6391.86,0.56455
6386.08,0.56070
6380.29,0.56051
6374.5,0.55823
6368.72,0.55636
6362.93,0.56148
6357.14,0.56206
6351.36,0.56292
6345.57,0.55746
6339.79,0.56067
6334,0.55639
6328.21,0.55780
6322.43,0.56035
6316.64,0.55933
6310.85,0.56404
6305.07,0.55929
6299.28,0.56007
6293.5,0.56005
6287.71,0.55933
6281.92,0.55920
6276.14,0.55813
6270.35,0.55859
6264.56,0.56097
6258.78,0.55838
6252.99,0.55720
6247.21,0.55640
6241.42,0.56010
6235.63,0.56055
6229.85,0.55915
6224.06,0.55530
6218.27,0.55747
6212.49,0.55703
6206.7,0.55666
6200.92,0.55174
6195.13,0.54950
6189.34,0.55414
6183.56,0.55204
6177.77,0.55219
6171.98,0.55461
6166.2,0.55459
6160.41,0.55329
6154.63,0.55625
6148.84,0.55406
6143.05,0.55310
6137.27,0.55282
6131.48,0.55309
6125.7,0.55264
6119.91,0.55097
6114.12,0.54666
6108.34,0.54194
6102.55,0.53419
6096.76,0.52543
6090.98,0.51954
6085.19,0.51459
6079.41,0.51221
6073.62,0.50428
6067.83,0.49472
6062.05,0.48635
6056.26,0.47869
6050.47,0.47331
6044.69,0.46687
6038.9,0.46245
6033.12,0.45403
6027.33,0.44809
6021.54,0.44224
6015.76,0.44372
6009.97,0.44820
6004.18,0.45731
5998.4,0.46616
5992.61,0.47446
5986.83,0.47987
5981.04,0.48081
5975.25,0.48696
5969.47,0.48923
5963.68,0.49222
5957.89,0.49456
5952.11,0.49618
5946.32,0.49553
5940.54,0.49404
5934.75,0.49809
5928.96,0.50273
5923.18,0.50630
5917.39,0.51049
5911.6,0.51011
5905.82,0.51109
5900.03,0.51026
5894.25,0.50875
5888.46,0.50122
5882.67,0.49595
5876.89,0.49212
5871.1,0.49121
5865.31,0.48761
5859.53,0.48214
5853.74,0.48253
5847.96,0.48108
5842.17,0.48048
5836.38,0.47625
5830.6,0.47713
5824.81,0.47463
5819.02,0.47414
5813.24,0.47397
5807.45,0.47250
5801.67,0.47462
5795.88,0.47581
5790.09,0.47457
5784.31,0.47391
5778.52,0.47594
5772.73,0.47975
5766.95,0.48392
5761.16,0.48553
5755.38,0.48540
5749.59,0.48776
5743.8,0.49077
5738.02,0.49468
5732.23,0.49222
5726.44,0.49272
5720.66,0.49487
5714.87,0.49411
5709.09,0.49666
5703.3,0.49683
5697.51,0.49641
5691.73,0.50056
5685.94,0.50003
5680.15,0.50182
5674.37,0.50235
5668.58,0.50378
5662.8,0.50484
5657.01,0.50813
5651.22,0.51088
5645.44,0.51080
5639.65,0.51647
5633.87,0.51833
5628.08,0.52078
5622.29,0.52056
5616.51,0.52137
5610.72,0.52211
5604.93,0.52369
5599.15,0.52522
5593.36,0.52450
5587.58,0.52381
5581.79,0.52208
5576,0.52072
5570.22,0.52194
5564.43,0.52445
5558.64,0.52241
5552.86,0.52333
5547.07,0.52232
5541.29,0.52246
5535.5,0.52399
5529.71,0.52310
5523.93,0.52101
5518.14,0.52415
5512.35,0.52626
5506.57,0.52586
5500.78,0.52561
5495,0.52801
5489.21,0.52605
5483.42,0.52590
5477.64,0.52497
5471.85,0.52548
5466.06,0.52526
5460.28,0.52681
5454.49,0.52763
5448.71,0.52875
5442.92,0.53112
5437.13,0.53285
5431.35,0.53261
5425.56,0.53304
5419.77,0.53576
5413.99,0.53492
5408.2,0.53538
5402.42,0.53634
5396.63,0.53607
5390.84,0.53764
5385.06,0.53858
5379.27,0.53831
5373.48,0.53921
5367.7,0.53876
5361.91,0.53929
5356.13,0.53906
5350.34,0.54004
5344.55,0.53897
5338.77,0.54007
5332.98,0.54115
5327.19,0.53977
5321.41,0.54154
5315.62,0.54098
5309.84,0.54128
5304.05,0.54022
5298.26,0.53870
5292.48,0.53721
5286.69,0.53563
5280.9,0.53504
5275.12,0.53330
5269.33,0.53147
5263.55,0.52952
5257.76,0.52869
5251.97,0.52705
5246.19,0.52707
5240.4,0.52429
5234.61,0.52609
5228.83,0.52474
5223.04,0.52527
5217.26,0.52507
5211.47,0.52424
5205.68,0.52400
5199.9,0.52524
5194.11,0.52438
5188.32,0.52284
5182.54,0.52344
5176.75,0.52346
5170.97,0.52101
5165.18,0.52102
5159.39,0.51910
5153.61,0.51777
5147.82,0.51617
5142.03,0.51627
5136.25,0.51357
5130.46,0.51206
5124.68,0.51174
5118.89,0.51090
5113.1,0.51284
5107.32,0.51582
5101.53,0.51717
5095.75,0.51912
5089.96,0.52270
5084.17,0.52390
5078.39,0.52733
5072.6,0.52635
5066.81,0.52739
5061.03,0.52887
5055.24,0.53021
5049.46,0.52837
5043.67,0.52715
5037.88,0.52792
5032.1,0.52781
5026.31,0.52844
5020.52,0.52557
5014.74,0.52579
5008.95,0.52581
5003.17,0.52312
4997.38,0.52361
4991.59,0.52131
4985.81,0.51802
4980.02,0.51695
4974.23,0.51333
4968.45,0.51249
4962.66,0.51120
4956.88,0.51092
4951.09,0.50764
4945.3,0.50786
4939.52,0.50616
4933.73,0.50411
4927.94,0.50325
4922.16,0.50121
4916.37,0.49778
4910.59,0.49422
4904.8,0.48826
4899.01,0.48212
4893.23,0.47720
4887.44,0.47146
4881.65,0.46625
4875.87,0.46448
4870.08,0.46207
4864.3,0.46485
4858.51,0.47203
4852.72,0.47819
4846.94,0.48309
4841.15,0.48628
4835.36,0.48886
4829.58,0.48946
4823.79,0.48951
4818.01,0.48772
4812.22,0.48595
4806.43,0.48478
4800.65,0.48253
4794.86,0.48143
4789.07,0.48162
4783.29,0.48457
4777.5,0.48558
4771.72,0.48642
4765.93,0.48617
4760.14,0.48362
4754.36,0.47846
4748.57,0.47286
4742.78,0.46631
4737,0.46069
4731.21,0.45183
4725.43,0.44020
4719.64,0.43065
4713.85,0.42738
4708.07,0.42462
4702.28,0.41511
4696.49,0.40114
4690.71,0.39206
4684.92,0.39368
4679.14,0.40613
4673.35,0.42018
4667.56,0.42920
4661.78,0.43407
4655.99,0.43339
4650.2,0.43106
4644.42,0.42102
4638.63,0.40907
4632.85,0.40457
4627.06,0.41170
4621.27,0.42595
4615.49,0.43575
4609.7,0.43960
4603.92,0.43788
4598.13,0.43216
4592.34,0.42642
4586.56,0.42069
4580.77,0.41610
4574.98,0.41780
4569.2,0.42840
4563.41,0.43854
4557.63,0.44314
4551.84,0.44428
4546.05,0.44575
4540.27,0.44513
4534.48,0.44555
4528.69,0.44437
4522.91,0.44348
4517.12,0.44177
4511.34,0.43879
4505.55,0.43264
4499.76,0.42294
4493.98,0.41193
4488.19,0.40234
4482.4,0.39679
4476.62,0.38965
4470.83,0.38017
4465.05,0.36492
4459.26,0.34873
4453.47,0.33994
4447.69,0.33393
4441.9,0.32523
4436.11,0.31652
4430.33,0.31248
4424.54,0.31316
4418.76,0.31544
4412.97,0.31578
4407.18,0.31357
4401.4,0.31268
4395.61,0.31467
4389.82,0.31671
4384.04,0.31716
4378.25,0.31394
4372.47,0.30917
4366.68,0.30466
4360.89,0.30091
4355.11,0.29955
4349.32,0.30062
4343.53,0.30116
4337.75,0.30139
4331.96,0.30292
4326.18,0.30218
4320.39,0.30270
4314.6,0.30696
4308.82,0.30729
4303.03,0.30388
4297.24,0.29988
4291.46,0.29652
4285.67,0.29530
4279.89,0.29314
4274.1,0.29142
4268.31,0.29058
4262.53,0.29049
4256.74,0.29055
4250.95,0.29025
4245.17,0.29205
4239.38,0.29454
4233.6,0.29628
4227.81,0.29687
4222.02,0.29727
4216.24,0.30139
4210.45,0.30501
4204.66,0.30720
4198.88,0.30834
4193.09,0.30913
4187.31,0.30764
4181.52,0.30347
4175.73,0.30138
4169.95,0.30582
4164.16,0.31419
4158.37,0.31988
4152.59,0.32460
4146.8,0.32634
4141.02,0.32529
4135.23,0.32182
4129.44,0.31864
4123.66,0.31638
4117.87,0.31257
4112.09,0.30701
4106.3,0.29831
4100.51,0.28525
4094.73,0.26684
4088.94,0.25648
4083.15,0.26260
4077.37,0.27995
4071.58,0.29743
4065.8,0.30662
4060.01,0.31259
4054.22,0.31614
4048.44,0.31942
4042.65,0.32243
4036.86,0.32601
4031.08,0.32702
4025.29,0.32741
4019.51,0.32823
4013.72,0.32783
4007.93,0.32823
4002.15,0.32897
3996.36,0.33077
3990.57,0.33339
3984.79,0.33772
3979,0.34178
3973.22,0.34665
3967.43,0.35083
3961.64,0.35572
3955.86,0.36083
3950.07,0.36416
3944.28,0.36690
3938.5,0.36931
3932.71,0.37116
3926.93,0.37139
3921.14,0.37237
3915.35,0.37458
3909.57,0.37943
3903.78,0.38322
3897.99,0.38805
3892.21,0.39135
3886.42,0.39357
3880.64,0.39499
3874.85,0.39724
3869.06,0.39965
3863.28,0.40003
3857.49,0.40096
3851.7,0.40207
3845.92,0.40161
3840.13,0.40117
3834.35,0.40292
3828.56,0.40453
3822.77,0.40444
3816.99,0.40203
3811.2,0.39795
3805.41,0.39757
3799.63,0.40078
3793.84,0.40513
3788.06,0.40806
3782.27,0.40891
3776.48,0.40799
3770.7,0.40431
3764.91,0.40034
3759.12,0.39586
3753.34,0.39953
3747.55,0.40937
3741.77,0.41303
3735.98,0.40941
3730.19,0.40739
3724.41,0.41281
3718.62,0.41622
3712.83,0.41409
3707.05,0.40816
3701.26,0.39743
3695.48,0.38289
3689.69,0.36043
3683.9,0.34635
3678.12,0.35310
3672.33,0.35745
3666.54,0.35256
3660.76,0.34286
3654.97,0.33224
3649.19,0.32117
3643.4,0.30945
3637.61,0.30064
3631.83,0.29448
3626.04,0.28748
3620.25,0.28135
3614.47,0.27534
3608.68,0.26787
3602.9,0.26161
3597.11,0.25443
3591.32,0.24616
3585.54,0.23617
3579.75,0.22602
3573.97,0.21541
3568.18,0.20640
3562.39,0.19943
3556.61,0.19236
3550.82,0.18747
3545.03,0.18486
3539.25,0.18273
3533.46,0.18157
3527.68,0.18106
3521.89,0.18158
3516.1,0.18132
3510.32,0.18179
3504.53,0.18185
3498.74,0.18190
3492.96,0.18135
3487.17,0.18089
3481.39,0.17830
3475.6,0.17448
3469.81,0.17042
3464.03,0.16343
3458.24,0.15494
3452.45,0.14492
3446.67,0.13438
3440.88,0.12438
3435.1,0.11677
3429.31,0.11487
3423.52,0.12365
3417.74,0.13391
3411.95,0.14346
3406.16,0.15079
3400.38,0.15340
3394.59,0.15390
3388.81,0.15208
3383.02,0.14871
3377.23,0.14474
3371.45,0.14110
3365.66,0.13716
3359.87,0.13323
3354.09,0.12836
3348.3,0.12376
3342.52,0.12027
3336.73,0.11842
3330.94,0.11859
3325.16,0.11977
3319.37,0.12050
3313.58,0.12119
3307.8,0.12149
3302.01,0.12104
3296.23,0.12180
3290.44,0.12329
3284.65,0.12343
3278.87,0.12451
3273.08,0.12568
3267.29,0.12630
3261.51,0.12805
3255.72,0.12792
3249.94,0.12965
3244.15,0.13099
3238.36,0.13230
3232.58,0.13348
3226.79,0.13544
3221,0.13795
3215.22,0.14008
3209.43,0.14061
3203.65,0.14092
3197.86,0.14201
3192.07,0.14230
3186.29,0.14387
3180.5,0.14590
3174.71,0.14837
3168.93,0.15093
3163.14,0.15290
3157.36,0.15366
3151.57,0.15324
3145.78,0.15072
3140,0.14786
3134.21,0.14309
3128.42,0.13759
3122.64,0.13566
3116.85,0.13232
3111.07,0.12431
3105.28,0.11480
3099.49,0.11221
3093.71,0.11331
3087.92,0.10827
3082.14,0.10205
3076.35,0.10052
3070.56,0.10030
3064.78,0.10069
3058.99,0.10023
3053.2,0.09931
3047.42,0.11507
3041.63,0.13009
3035.85,0.13389
3030.06,0.13151
3024.27,0.12335
3018.49,0.11089
3012.7,0.09980
3006.91,0.09391
3001.13,0.08893
2995.34,0.08224
2989.56,0.07388
2983.77,0.06391
2977.98,0.05422
2972.2,0.04693
2966.41,0.04375
2960.62,0.04413
2954.84,0.04608
2949.05,0.05118
2943.27,0.05813
2937.48,0.06526
2931.69,0.06951
2925.91,0.06942
2920.12,0.06655
2914.33,0.06251
2908.55,0.05875
2902.76,0.06309
2896.98,0.06906
2891.19,0.07108
2885.4,0.07301
2879.62,0.07565
2873.83,0.07738
2868.04,0.07942
2862.26,0.08148
2856.47,0.08417
2850.69,0.08874
2844.9,0.10336
2839.11,0.11937
2833.33,0.13112
2827.54,0.13973
2821.75,0.14686
2815.97,0.15158
2810.18,0.15474
2804.4,0.15816
2798.61,0.16585
2792.82,0.17372
2787.04,0.18083
2781.25,0.18711
2775.46,0.19256
2769.68,0.19567
2763.89,0.19759
2758.11,0.19957
2752.32,0.20150
2746.53,0.20330
2740.75,0.20594
2734.96,0.21112
2729.17,0.21793
2723.39,0.22470
2717.6,0.23057
2711.82,0.23526
2706.03,0.24004
2700.24,0.24377
2694.46,0.24667
2688.67,0.24836
2682.88,0.25021
2677.1,0.25197
2671.31,0.25451
2665.53,0.25660
2659.74,0.25734
2653.95,0.25742
2648.17,0.25728
2642.38,0.25463
2636.59,0.24883
2630.81,0.24355
2625.02,0.24467
2619.24,0.24760
2613.45,0.24840
2607.66,0.24799
2601.88,0.24659
2596.09,0.24291
2590.3,0.23866
2584.52,0.23532
2578.73,0.23587
2572.95,0.23817
2567.16,0.23986
2561.37,0.24029
2555.59,0.24053
2549.8,0.24064
2544.02,0.24073
2538.23,0.24125
2532.44,0.24249
2526.66,0.24490
2520.87,0.24993
2515.08,0.25448
2509.3,0.25803
2503.51,0.26056
2497.73,0.26357
2491.94,0.26862
2486.15,0.27417
2480.37,0.27957
2474.58,0.28534
2468.79,0.29090
2463.01,0.29544
2457.22,0.29813
2451.44,0.29906
2445.65,0.29763
2439.86,0.29334
2434.08,0.28680
2428.29,0.27968
2422.5,0.27179
2416.72,0.26431
2410.93,0.25822
2405.15,0.25235
2399.36,0.24766
2393.57,0.24428
2387.79,0.24263
2382,0.24428
2376.21,0.24777
2370.43,0.25328
2364.64,0.26160
2358.86,0.27161
2353.07,0.28040
2347.28,0.28767
2341.5,0.29302
2335.71,0.29453
2329.92,0.29487
2324.14,0.29552
2318.35,0.30081
2312.57,0.30472
2306.78,0.30241
2300.99,0.29450
2295.21,0.28177
2289.42,0.26959
2283.63,0.26510
2277.85,0.26837
2272.06,0.27057
2266.28,0.26763
2260.49,0.25956
2254.7,0.24415
2248.92,0.22187
2243.13,0.21190
2237.34,0.23058
2231.56,0.27060
2225.77,0.28838
2219.99,0.29261
2214.2,0.29462
2208.41,0.29816
2202.63,0.30498
2196.84,0.30669
2191.05,0.30489
2185.27,0.30380
2179.48,0.30110
2173.7,0.29473
2167.91,0.28644
2162.12,0.27537
2156.34,0.26448
2150.55,0.25546
2144.76,0.24940
2138.98,0.24492
2133.19,0.24117
2127.41,0.23599
2121.62,0.23079
2115.83,0.22704
2110.05,0.22573
2104.26,0.22610
2098.47,0.22818
2092.69,0.23209
2086.9,0.23797
2081.12,0.24596
2075.33,0.25514
2069.54,0.26648
2063.76,0.27804
2057.97,0.28835
2052.19,0.29750
2046.4,0.30289
2040.61,0.30455
2034.83,0.30367
2029.04,0.29989
2023.25,0.29296
2017.47,0.28532
2011.68,0.27725
2005.9,0.26742
2000.11,0.25621
1994.32,0.24448
1988.54,0.23352
1982.75,0.22417
1976.96,0.21431
1971.18,0.20099
1965.39,0.18251
1959.61,0.16966
1953.82,0.17059
1948.03,0.17816
1942.25,0.19209
1936.46,0.20818
1930.67,0.22318
1924.89,0.23531
1919.1,0.24448
1913.32,0.25232
1907.53,0.25863
1901.74,0.26350
1895.96,0.26739
1890.17,0.27085
1884.38,0.27183
1878.6,0.27001
1872.81,0.26543
1867.03,0.25749
1861.24,0.24570
1855.45,0.22945
1849.67,0.20940
1843.88,0.18901
1838.09,0.17292
1832.31,0.15972
1826.52,0.14997
1820.74,0.14577
1814.95,0.14377
1809.16,0.14088
1803.38,0.13821
1797.59,0.13341
1791.8,0.12725
1786.02,0.11933
1780.23,0.10987
1774.45,0.09966
1768.66,0.08697
1762.87,0.07378
1757.09,0.05806
1751.3,0.04376
1745.51,0.03330
1739.73,0.03088
1733.94,0.03442
1728.16,0.03951
1722.37,0.04380
1716.58,0.04619
1710.8,0.04354
1705.01,0.04339
1699.22,0.04682
1693.44,0.05065
1687.65,0.05084
1681.87,0.05049
1676.08,0.05507
1670.29,0.06047
1664.51,0.06837
1658.72,0.07675
1652.93,0.08305
1647.15,0.08814
1641.36,0.09213
1635.58,0.09495
1629.79,0.09623
1624,0.09672
1618.22,0.08928
1612.43,0.08349
1606.64,0.09482
1600.86,0.10515
1595.07,0.10721
1589.29,0.09898
1583.5,0.07536
1577.71,0.05828
1571.93,0.07383
1566.14,0.08716
1560.35,0.09255
1554.57,0.09452
1548.78,0.09712
1543,0.10006
1537.21,0.09878
1531.42,0.09236
1525.64,0.08611
1519.85,0.08561
1514.07,0.07876
1508.28,0.05350
1502.49,0.05146
1496.71,0.08383
1490.92,0.09291
1485.13,0.07867
1479.35,0.06003
1473.56,0.04677
1467.78,0.04370
1461.99,0.03817
1456.2,0.03412
1450.42,0.03441
1444.63,0.03754
1438.84,0.04028
1433.06,0.04776
1427.27,0.05426
1421.49,0.04729
1415.7,0.03266
1409.91,0.02911
1404.13,0.03386
1398.34,0.03837
1392.55,0.04075
1386.77,0.03926
1380.98,0.03570
1375.2,0.03234
1369.41,0.03213
1363.62,0.03687
1357.84,0.03939
1352.05,0.03656
1346.26,0.03326
1340.48,0.03317
1334.69,0.03516
1328.91,0.03643
1323.12,0.03340
1317.33,0.02957
1311.55,0.02676
1305.76,0.02512
1299.97,0.02504
1294.19,0.02702
1288.4,0.02974
1282.62,0.03339
1276.83,0.03753
1271.04,0.04189
1265.26,0.04477
1259.47,0.04476
1253.68,0.04539
1247.9,0.04576
1242.11,0.04510
1236.33,0.04360
1230.54,0.04417
1224.75,0.04722
1218.97,0.05185
1213.18,0.05684
1207.39,0.05932
1201.61,0.06276
1195.82,0.06832
1190.04,0.07057
1184.25,0.06285
1178.46,0.05121
1172.68,0.04857
1166.89,0.05294
1161.1,0.05157
1155.32,0.04465
1149.53,0.03691
1143.75,0.03248
1137.96,0.03276
1132.17,0.03755
1126.39,0.04010
1120.6,0.04134
1114.81,0.04066
1109.03,0.04111
1103.24,0.04445
1097.46,0.04574
1091.67,0.04598
1085.88,0.04655
1080.1,0.05098
1074.31,0.06110
1068.52,0.07185
1062.74,0.07736
1056.95,0.07435
1051.17,0.06423
1045.38,0.05780
1039.59,0.05762
1033.81,0.05949
1028.02,0.05414
1022.24,0.04907
1016.45,0.05121
1010.66,0.08027
1004.88,0.11297
999.09,0.12422
993.304,0.12318
987.518,0.11170
981.731,0.09978
975.945,0.08283
970.159,0.08227
964.373,0.10278
958.586,0.12691
952.8,0.14304
947.014,0.14891
941.228,0.14459
935.441,0.13828
929.655,0.14542
923.869,0.15365
918.083,0.15015
912.297,0.13252
906.51,0.10361
900.724,0.09017
894.938,0.08976
889.152,0.08848
883.365,0.07784
877.579,0.06277
871.793,0.06175
866.007,0.08531
860.22,0.09242
854.434,0.08279
848.648,0.07608
842.862,0.08245
837.075,0.09697
831.289,0.11305
825.503,0.12303
819.717,0.12534
813.931,0.12148
808.144,0.11703
802.358,0.11495
796.572,0.09701
790.786,0.09365
784.999,0.11939
779.213,0.13356
773.427,0.13800
767.641,0.14007
761.854,0.13681
756.068,0.12394
750.282,0.10771
744.496,0.07544
738.709,0.03957
732.923,0.03325
727.137,0.04043
721.351,0.05326
715.565,0.08287
709.778,0.09543
703.992,0.10659
698.206,0.13126
692.42,0.14619
686.633,0.14296
680.847,0.13403
675.061,0.14689
669.275,0.15947
663.488,0.16620
657.702,0.17104
651.916,0.17444
646.13,0.17836
640.343,0.17679
634.557,0.15528
628.771,0.15605
622.985,0.17245
617.198,0.18006
611.412,0.18330
605.626,0.18062
599.84,0.18033