File: 01_Data/Cotton_Batting/FTIR/IS/Cotton_Batting_IS_S_220912_R2.dpt
7497.03,0.57747
7491.25,0.57704
7485.46,0.57341
7479.67,0.56746
7473.89,0.58323
7468.1,0.58280
7462.32,0.56961
7456.53,0.56781
7450.74,0.57065
7444.96,0.56533
7439.17,0.57468
7433.38,0.56675
7427.6,0.57306
7421.81,0.57358
7416.03,0.57948
7410.24,0.56466
7404.45,0.57007
7398.67,0.57192
7392.88,0.57114
7387.09,0.57151
7381.31,0.56509
7375.52,0.56913
7369.74,0.55975
7363.95,0.56248
7358.16,0.56176
7352.38,0.56796
7346.59,0.56819
7340.8,0.57426
7335.02,0.56774
7329.23,0.55983
7323.45,0.56130
7317.66,0.56077
7311.87,0.56321
7306.09,0.57135
7300.3,0.56953
7294.51,0.55888
7288.73,0.56554
7282.94,0.56079
7277.16,0.55541
7271.37,0.55746
7265.58,0.55760
7259.8,0.55879
7254.01,0.55214
7248.22,0.55269
7242.44,0.56046
7236.65,0.56303
7230.87,0.55645
7225.08,0.55603
7219.29,0.55995
7213.51,0.55931
7207.72,0.55365
7201.93,0.55859
7196.15,0.55024
7190.36,0.55766
7184.58,0.55995
7178.79,0.55658
7173,0.55778
7167.22,0.56480
7161.43,0.55440
7155.65,0.55564
7149.86,0.55771
7144.07,0.56010
7138.29,0.55408
7132.5,0.55554
7126.71,0.55652
7120.93,0.54719
7115.14,0.54814
7109.36,0.55385
7103.57,0.55608
7097.78,0.55663
7092,0.55243
7086.21,0.55042
7080.42,0.55071
7074.64,0.55131
7068.85,0.54863
7063.07,0.54922
7057.28,0.54900
7051.49,0.55347
7045.71,0.55855
7039.92,0.55779
7034.13,0.55438
7028.35,0.55194
7022.56,0.55634
7016.78,0.55647
7010.99,0.55342
7005.2,0.56012
6999.42,0.55402
6993.63,0.55523
6987.84,0.54930
6982.06,0.55728
6976.27,0.55416
6970.49,0.55395
6964.7,0.55593
6958.91,0.55586
6953.13,0.55675
6947.34,0.56218
6941.55,0.56084
6935.77,0.56313
6929.98,0.55693
6924.2,0.55886
6918.41,0.55696
6912.62,0.56527
6906.84,0.56261
6901.05,0.55805
6895.26,0.55874
6889.48,0.56429
6883.69,0.56098
6877.91,0.56034
6872.12,0.56316
6866.33,0.56394
6860.55,0.56290
6854.76,0.56021
6848.97,0.56057
6843.19,0.55725
6837.4,0.55855
6831.62,0.56203
6825.83,0.55950
6820.04,0.56826
6814.26,0.55847
6808.47,0.55643
6802.68,0.56268
6796.9,0.55527
6791.11,0.56599
6785.33,0.56018
6779.54,0.56218
6773.75,0.55680
6767.97,0.55680
6762.18,0.55895
6756.39,0.56073
6750.61,0.56436
6744.82,0.56112
6739.04,0.55695
6733.25,0.55804
6727.46,0.56186
6721.68,0.56047
6715.89,0.56351
6710.1,0.55923
6704.32,0.55837
6698.53,0.56348
6692.75,0.55914
6686.96,0.55435
6681.17,0.55671
6675.39,0.56089
6669.6,0.56358
6663.82,0.55881
6658.03,0.55763
6652.24,0.55860
6646.46,0.55589
6640.67,0.56176
6634.88,0.55710
6629.1,0.55560
6623.31,0.55607
6617.53,0.55837
6611.74,0.55575
6605.95,0.55579
6600.17,0.55517
6594.38,0.55729
6588.59,0.55906
6582.81,0.55884
6577.02,0.55766
6571.24,0.55793
6565.45,0.55724
6559.66,0.55475
6553.88,0.55591
6548.09,0.55441
6542.3,0.55102
6536.52,0.55623
6530.73,0.55193
6524.95,0.55227
6519.16,0.55675
6513.37,0.55879
6507.59,0.55662
6501.8,0.55035
6496.01,0.55476
6490.23,0.55415
6484.44,0.55521
6478.66,0.55590
6472.87,0.56022
6467.08,0.55626
6461.3,0.55598
6455.51,0.55585
6449.72,0.56296
6443.94,0.55917
6438.15,0.56053
6432.37,0.55933
6426.58,0.56207
6420.79,0.55643
6415.01,0.55944
6409.22,0.56343
6403.43,0.56320
6397.65,0.56080
6391.86,0.56220
6386.08,0.56302
6380.29,0.55661
6374.5,0.55891
6368.72,0.55947
6362.93,0.56086
6357.14,0.56168
6351.36,0.56105
6345.57,0.56126
6339.79,0.55971
6334,0.55872
6328.21,0.55810
6322.43,0.56003
6316.64,0.56217
6310.85,0.56099
6305.07,0.55922
6299.28,0.56024
6293.5,0.56053
6287.71,0.56187
6281.92,0.55931
6276.14,0.56139
6270.35,0.55889
6264.56,0.55641
6258.78,0.55655
6252.99,0.55909
6247.21,0.56153
6241.42,0.55970
6235.63,0.55904
6229.85,0.55843
6224.06,0.55730
6218.27,0.55739
6212.49,0.55402
6206.7,0.55201
6200.92,0.55169
6195.13,0.55208
6189.34,0.55579
6183.56,0.55407
6177.77,0.55516
6171.98,0.55671
6166.2,0.55655
6160.41,0.55302
6154.63,0.55137
6148.84,0.55169
6143.05,0.54997
6137.27,0.54870
6131.48,0.54838
6125.7,0.54633
6119.91,0.54546
6114.12,0.54191
6108.34,0.54000
6102.55,0.53374
6096.76,0.52956
6090.98,0.52048
6085.19,0.51897
6079.41,0.51028
6073.62,0.50161
6067.83,0.49629
6062.05,0.48811
6056.26,0.47803
6050.47,0.47449
6044.69,0.46430
6038.9,0.46105
6033.12,0.45653
6027.33,0.44855
6021.54,0.44392
6015.76,0.44221
6009.97,0.44720
6004.18,0.45576
5998.4,0.46661
5992.61,0.47600
5986.83,0.48162
5981.04,0.48413
5975.25,0.48411
5969.47,0.49010
5963.68,0.49340
5957.89,0.49455
5952.11,0.49179
5946.32,0.49396
5940.54,0.49323
5934.75,0.49515
5928.96,0.50229
5923.18,0.50780
5917.39,0.50895
5911.6,0.51141
5905.82,0.51035
5900.03,0.50940
5894.25,0.50715
5888.46,0.50121
5882.67,0.49689
5876.89,0.49364
5871.1,0.48906
5865.31,0.48747
5859.53,0.48345
5853.74,0.48146
5847.96,0.48090
5842.17,0.47853
5836.38,0.47892
5830.6,0.47884
5824.81,0.47600
5819.02,0.47688
5813.24,0.47511
5807.45,0.47518
5801.67,0.47522
5795.88,0.47421
5790.09,0.47668
5784.31,0.47462
5778.52,0.47599
5772.73,0.48086
5766.95,0.48214
5761.16,0.48667
5755.38,0.48913
5749.59,0.49016
5743.8,0.49032
5738.02,0.49198
5732.23,0.49336
5726.44,0.49717
5720.66,0.49536
5714.87,0.49410
5709.09,0.49377
5703.3,0.49383
5697.51,0.49836
5691.73,0.49840
5685.94,0.50098
5680.15,0.50191
5674.37,0.50331
5668.58,0.50564
5662.8,0.50659
5657.01,0.50545
5651.22,0.50979
5645.44,0.51486
5639.65,0.51607
5633.87,0.51758
5628.08,0.52230
5622.29,0.51997
5616.51,0.52176
5610.72,0.52389
5604.93,0.52546
5599.15,0.52740
5593.36,0.52565
5587.58,0.52702
5581.79,0.52407
5576,0.52263
5570.22,0.52274
5564.43,0.52164
5558.64,0.52259
5552.86,0.52293
5547.07,0.52382
5541.29,0.52416
5535.5,0.52367
5529.71,0.52456
5523.93,0.52402
5518.14,0.52470
5512.35,0.52640
5506.57,0.52566
5500.78,0.52681
5495,0.52601
5489.21,0.52636
5483.42,0.52516
5477.64,0.52515
5471.85,0.52533
5466.06,0.52746
5460.28,0.52689
5454.49,0.52940
5448.71,0.52847
5442.92,0.53202
5437.13,0.53229
5431.35,0.53292
5425.56,0.53467
5419.77,0.53678
5413.99,0.53660
5408.2,0.53696
5402.42,0.53668
5396.63,0.53736
5390.84,0.53820
5385.06,0.53949
5379.27,0.53909
5373.48,0.54056
5367.7,0.53921
5361.91,0.53977
5356.13,0.53870
5350.34,0.53899
5344.55,0.53928
5338.77,0.54027
5332.98,0.54066
5327.19,0.54104
5321.41,0.54045
5315.62,0.54121
5309.84,0.53844
5304.05,0.54023
5298.26,0.53666
5292.48,0.53570
5286.69,0.53457
5280.9,0.53102
5275.12,0.53008
5269.33,0.52763
5263.55,0.52477
5257.76,0.52418
5251.97,0.52317
5246.19,0.52258
5240.4,0.52129
5234.61,0.51965
5228.83,0.52232
5223.04,0.52065
5217.26,0.51966
5211.47,0.52042
5205.68,0.52069
5199.9,0.52182
5194.11,0.51987
5188.32,0.52021
5182.54,0.51896
5176.75,0.51730
5170.97,0.51746
5165.18,0.51807
5159.39,0.51529
5153.61,0.51417
5147.82,0.51376
5142.03,0.51180
5136.25,0.51009
5130.46,0.50836
5124.68,0.50564
5118.89,0.50752
5113.1,0.50795
5107.32,0.51062
5101.53,0.51324
5095.75,0.51624
5089.96,0.51844
5084.17,0.52084
5078.39,0.52332
5072.6,0.52247
5066.81,0.52480
5061.03,0.52380
5055.24,0.52516
5049.46,0.52774
5043.67,0.52813
5037.88,0.52653
5032.1,0.52475
5026.31,0.52518
5020.52,0.52578
5014.74,0.52396
5008.95,0.52471
5003.17,0.52162
4997.38,0.52078
4991.59,0.51977
4985.81,0.51728
4980.02,0.51379
4974.23,0.51270
4968.45,0.51127
4962.66,0.51041
4956.88,0.50976
4951.09,0.50924
4945.3,0.50737
4939.52,0.50686
4933.73,0.50471
4927.94,0.50400
4922.16,0.50045
4916.37,0.49714
4910.59,0.49371
4904.8,0.48932
4899.01,0.48201
4893.23,0.47660
4887.44,0.47148
4881.65,0.46658
4875.87,0.46373
4870.08,0.46161
4864.3,0.46524
4858.51,0.47117
4852.72,0.47793
4846.94,0.48339
4841.15,0.48517
4835.36,0.48797
4829.58,0.48804
4823.79,0.48889
4818.01,0.48739
4812.22,0.48607
4806.43,0.48466
4800.65,0.48223
4794.86,0.48312
4789.07,0.48200
4783.29,0.48232
4777.5,0.48509
4771.72,0.48611
4765.93,0.48537
4760.14,0.48348
4754.36,0.47845
4748.57,0.47340
4742.78,0.46720
4737,0.46071
4731.21,0.45141
4725.43,0.44089
4719.64,0.43117
4713.85,0.42837
4708.07,0.42371
4702.28,0.41511
4696.49,0.40213
4690.71,0.39215
4684.92,0.39524
4679.14,0.40527
4673.35,0.42027
4667.56,0.43022
4661.78,0.43386
4655.99,0.43360
4650.2,0.43128
4644.42,0.42175
4638.63,0.40887
4632.85,0.40378
4627.06,0.41186
4621.27,0.42641
4615.49,0.43621
4609.7,0.43989
4603.92,0.43867
4598.13,0.43183
4592.34,0.42540
4586.56,0.42034
4580.77,0.41646
4574.98,0.41902
4569.2,0.42888
4563.41,0.43915
4557.63,0.44348
4551.84,0.44421
4546.05,0.44564
4540.27,0.44640
4534.48,0.44565
4528.69,0.44453
4522.91,0.44405
4517.12,0.44213
4511.34,0.43905
4505.55,0.43284
4499.76,0.42393
4493.98,0.41162
4488.19,0.40245
4482.4,0.39755
4476.62,0.39037
4470.83,0.37939
4465.05,0.36470
4459.26,0.34871
4453.47,0.34049
4447.69,0.33430
4441.9,0.32506
4436.11,0.31717
4430.33,0.31304
4424.54,0.31286
4418.76,0.31688
4412.97,0.31564
4407.18,0.31248
4401.4,0.31280
4395.61,0.31505
4389.82,0.31782
4384.04,0.31846
4378.25,0.31472
4372.47,0.30911
4366.68,0.30409
4360.89,0.30103
4355.11,0.30021
4349.32,0.29944
4343.53,0.30040
4337.75,0.30242
4331.96,0.30280
4326.18,0.30239
4320.39,0.30211
4314.6,0.30620
4308.82,0.30660
4303.03,0.30391
4297.24,0.30009
4291.46,0.29675
4285.67,0.29511
4279.89,0.29395
4274.1,0.29237
4268.31,0.29044
4262.53,0.29086
4256.74,0.29064
4250.95,0.28980
4245.17,0.29201
4239.38,0.29502
4233.6,0.29683
4227.81,0.29703
4222.02,0.29827
4216.24,0.30139
4210.45,0.30608
4204.66,0.30678
4198.88,0.30877
4193.09,0.30894
4187.31,0.30709
4181.52,0.30315
4175.73,0.30151
4169.95,0.30655
4164.16,0.31364
4158.37,0.32064
4152.59,0.32461
4146.8,0.32667
4141.02,0.32494
4135.23,0.32236
4129.44,0.31799
4123.66,0.31595
4117.87,0.31203
4112.09,0.30701
4106.3,0.29874
4100.51,0.28592
4094.73,0.26654
4088.94,0.25668
4083.15,0.26202
4077.37,0.27913
4071.58,0.29738
4065.8,0.30677
4060.01,0.31258
4054.22,0.31561
4048.44,0.31864
4042.65,0.32274
4036.86,0.32536
4031.08,0.32660
4025.29,0.32684
4019.51,0.32792
4013.72,0.32732
4007.93,0.32789
4002.15,0.32873
3996.36,0.33028
3990.57,0.33341
3984.79,0.33682
3979,0.34154
3973.22,0.34534
3967.43,0.35014
3961.64,0.35567
3955.86,0.36035
3950.07,0.36346
3944.28,0.36647
3938.5,0.36922
3932.71,0.37051
3926.93,0.36980
3921.14,0.37191
3915.35,0.37475
3909.57,0.37841
3903.78,0.38301
3897.99,0.38763
3892.21,0.39130
3886.42,0.39307
3880.64,0.39526
3874.85,0.39704
3869.06,0.39856
3863.28,0.40037
3857.49,0.40086
3851.7,0.40169
3845.92,0.40104
3840.13,0.40137
3834.35,0.40191
3828.56,0.40270
3822.77,0.40203
3816.99,0.40075
3811.2,0.39683
3805.41,0.39630
3799.63,0.39979
3793.84,0.40402
3788.06,0.40652
3782.27,0.40786
3776.48,0.40652
3770.7,0.40307
3764.91,0.39894
3759.12,0.39492
3753.34,0.39772
3747.55,0.40751
3741.77,0.41042
3735.98,0.40731
3730.19,0.40398
3724.41,0.40956
3718.62,0.41236
3712.83,0.41000
3707.05,0.40306
3701.26,0.39125
3695.48,0.37643
3689.69,0.35297
3683.9,0.33700
3678.12,0.33785
3672.33,0.33828
3666.54,0.33152
3660.76,0.31969
3654.97,0.30746
3649.19,0.29597
3643.4,0.28478
3637.61,0.27573
3631.83,0.26912
3626.04,0.26193
3620.25,0.25714
3614.47,0.25200
3608.68,0.24638
3602.9,0.23987
3597.11,0.23434
3591.32,0.22730
3585.54,0.21779
3579.75,0.20792
3573.97,0.19886
3568.18,0.19041
3562.39,0.18261
3556.61,0.17674
3550.82,0.17309
3545.03,0.17038
3539.25,0.16799
3533.46,0.16721
3527.68,0.16809
3521.89,0.16701
3516.1,0.16730
3510.32,0.16799
3504.53,0.16862
3498.74,0.16869
3492.96,0.16695
3487.17,0.16745
3481.39,0.16683
3475.6,0.16278
3469.81,0.15871
3464.03,0.15325
3458.24,0.14560
3452.45,0.13688
3446.67,0.12717
3440.88,0.11824
3435.1,0.11199
3429.31,0.11013
3423.52,0.11832
3417.74,0.12855
3411.95,0.13765
3406.16,0.14398
3400.38,0.14716
3394.59,0.14873
3388.81,0.14695
3383.02,0.14566
3377.23,0.14238
3371.45,0.13947
3365.66,0.13493
3359.87,0.13235
3354.09,0.12825
3348.3,0.12344
3342.52,0.12007
3336.73,0.11746
3330.94,0.11750
3325.16,0.11943
3319.37,0.12115
3313.58,0.12136
3307.8,0.12130
3302.01,0.12094
3296.23,0.12150
3290.44,0.12215
3284.65,0.12372
3278.87,0.12520
3273.08,0.12553
3267.29,0.12563
3261.51,0.12672
3255.72,0.12822
3249.94,0.12928
3244.15,0.13033
3238.36,0.13139
3232.58,0.13263
3226.79,0.13452
3221,0.13591
3215.22,0.13752
3209.43,0.13918
3203.65,0.13918
3197.86,0.14022
3192.07,0.14106
3186.29,0.14252
3180.5,0.14407
3174.71,0.14619
3168.93,0.14889
3163.14,0.15011
3157.36,0.15084
3151.57,0.15082
3145.78,0.14889
3140,0.14634
3134.21,0.14091
3128.42,0.13574
3122.64,0.13453
3116.85,0.13111
3111.07,0.12267
3105.28,0.11350
3099.49,0.11099
3093.71,0.11307
3087.92,0.10762
3082.14,0.10101
3076.35,0.10043
3070.56,0.10010
3064.78,0.10083
3058.99,0.09979
3053.2,0.09909
3047.42,0.11487
3041.63,0.12990
3035.85,0.13340
3030.06,0.13060
3024.27,0.12291
3018.49,0.11000
3012.7,0.09960
3006.91,0.09376
3001.13,0.08800
2995.34,0.08145
2989.56,0.07357
2983.77,0.06344
2977.98,0.05394
2972.2,0.04660
2966.41,0.04457
2960.62,0.04423
2954.84,0.04636
2949.05,0.05076
2943.27,0.05857
2937.48,0.06589
2931.69,0.06973
2925.91,0.06952
2920.12,0.06634
2914.33,0.06278
2908.55,0.05931
2902.76,0.06316
2896.98,0.06902
2891.19,0.07055
2885.4,0.07232
2879.62,0.07520
2873.83,0.07759
2868.04,0.07952
2862.26,0.08117
2856.47,0.08360
2850.69,0.08926
2844.9,0.10348
2839.11,0.11932
2833.33,0.13121
2827.54,0.13970
2821.75,0.14679
2815.97,0.15099
2810.18,0.15432
2804.4,0.15807
2798.61,0.16591
2792.82,0.17351
2787.04,0.18060
2781.25,0.18698
2775.46,0.19164
2769.68,0.19501
2763.89,0.19748
2758.11,0.19957
2752.32,0.20094
2746.53,0.20287
2740.75,0.20574
2734.96,0.21086
2729.17,0.21749
2723.39,0.22400
2717.6,0.23028
2711.82,0.23505
2706.03,0.23958
2700.24,0.24352
2694.46,0.24570
2688.67,0.24790
2682.88,0.25016
2677.1,0.25184
2671.31,0.25431
2665.53,0.25584
2659.74,0.25681
2653.95,0.25685
2648.17,0.25711
2642.38,0.25432
2636.59,0.24741
2630.81,0.24298
2625.02,0.24428
2619.24,0.24735
2613.45,0.24741
2607.66,0.24749
2601.88,0.24646
2596.09,0.24344
2590.3,0.23830
2584.52,0.23517
2578.73,0.23575
2572.95,0.23759
2567.16,0.23955
2561.37,0.23968
2555.59,0.23980
2549.8,0.23993
2544.02,0.24059
2538.23,0.24063
2532.44,0.24223
2526.66,0.24500
2520.87,0.24933
2515.08,0.25425
2509.3,0.25738
2503.51,0.26006
2497.73,0.26344
2491.94,0.26787
2486.15,0.27318
2480.37,0.27918
2474.58,0.28490
2468.79,0.29075
2463.01,0.29522
2457.22,0.29792
2451.44,0.29870
2445.65,0.29676
2439.86,0.29269
2434.08,0.28635
2428.29,0.27919
2422.5,0.27161
2416.72,0.26444
2410.93,0.25807
2405.15,0.25227
2399.36,0.24715
2393.57,0.24403
2387.79,0.24225
2382,0.24403
2376.21,0.24755
2370.43,0.25350
2364.64,0.26165
2358.86,0.27132
2353.07,0.28033
2347.28,0.28734
2341.5,0.29249
2335.71,0.29395
2329.92,0.29466
2324.14,0.29482
2318.35,0.30000
2312.57,0.30398
2306.78,0.30174
2300.99,0.29313
2295.21,0.28064
2289.42,0.26879
2283.63,0.26462
2277.85,0.26768
2272.06,0.27010
2266.28,0.26649
2260.49,0.25844
2254.7,0.24317
2248.92,0.22092
2243.13,0.21061
2237.34,0.22985
2231.56,0.26958
2225.77,0.28671
2219.99,0.29076
2214.2,0.29255
2208.41,0.29607
2202.63,0.30230
2196.84,0.30437
2191.05,0.30291
2185.27,0.30129
2179.48,0.29868
2173.7,0.29284
2167.91,0.28423
2162.12,0.27309
2156.34,0.26255
2150.55,0.25413
2144.76,0.24782
2138.98,0.24340
2133.19,0.23983
2127.41,0.23453
2121.62,0.22915
2115.83,0.22553
2110.05,0.22446
2104.26,0.22520
2098.47,0.22718
2092.69,0.23097
2086.9,0.23673
2081.12,0.24496
2075.33,0.25417
2069.54,0.26513
2063.76,0.27633
2057.97,0.28720
2052.19,0.29591
2046.4,0.30147
2040.61,0.30283
2034.83,0.30237
2029.04,0.29850
2023.25,0.29146
2017.47,0.28409
2011.68,0.27593
2005.9,0.26619
2000.11,0.25541
1994.32,0.24336
1988.54,0.23276
1982.75,0.22380
1976.96,0.21367
1971.18,0.20090
1965.39,0.18201
1959.61,0.16895
1953.82,0.17036
1948.03,0.17806
1942.25,0.19167
1936.46,0.20772
1930.67,0.22254
1924.89,0.23469
1919.1,0.24371
1913.32,0.25193
1907.53,0.25801
1901.74,0.26263
1895.96,0.26694
1890.17,0.27055
1884.38,0.27146
1878.6,0.26941
1872.81,0.26498
1867.03,0.25703
1861.24,0.24541
1855.45,0.22918
1849.67,0.20910
1843.88,0.18933
1838.09,0.17297
1832.31,0.15937
1826.52,0.14992
1820.74,0.14596
1814.95,0.14392
1809.16,0.14127
1803.38,0.13772
1797.59,0.13349
1791.8,0.12721
1786.02,0.11929
1780.23,0.11002
1774.45,0.09947
1768.66,0.08678
1762.87,0.07374
1757.09,0.05825
1751.3,0.04391
1745.51,0.03339
1739.73,0.03079
1733.94,0.03428
1728.16,0.03955
1722.37,0.04451
1716.58,0.04668
1710.8,0.04359
1705.01,0.04338
1699.22,0.04691
1693.44,0.05094
1687.65,0.05129
1681.87,0.05036
1676.08,0.05486
1670.29,0.06019
1664.51,0.06806
1658.72,0.07631
1652.93,0.08292
1647.15,0.08705
1641.36,0.09146
1635.58,0.09400
1629.79,0.09474
1624,0.09536
1618.22,0.08873
1612.43,0.08299
1606.64,0.09456
1600.86,0.10462
1595.07,0.10693
1589.29,0.09799
1583.5,0.07473
1577.71,0.05815
1571.93,0.07351
1566.14,0.08730
1560.35,0.09228
1554.57,0.09477
1548.78,0.09715
1543,0.10014
1537.21,0.09923
1531.42,0.09310
1525.64,0.08639
1519.85,0.08603
1514.07,0.07848
1508.28,0.05381
1502.49,0.05154
1496.71,0.08412
1490.92,0.09314
1485.13,0.07893
1479.35,0.06011
1473.56,0.04672
1467.78,0.04349
1461.99,0.03818
1456.2,0.03392
1450.42,0.03445
1444.63,0.03702
1438.84,0.04008
1433.06,0.04766
1427.27,0.05418
1421.49,0.04715
1415.7,0.03231
1409.91,0.02932
1404.13,0.03354
1398.34,0.03828
1392.55,0.04091
1386.77,0.03912
1380.98,0.03552
1375.2,0.03238
1369.41,0.03205
1363.62,0.03643
1357.84,0.03919
1352.05,0.03684
1346.26,0.03310
1340.48,0.03344
1334.69,0.03522
1328.91,0.03646
1323.12,0.03386
1317.33,0.02963
1311.55,0.02677
1305.76,0.02482
1299.97,0.02536
1294.19,0.02712
1288.4,0.02975
1282.62,0.03326
1276.83,0.03751
1271.04,0.04147
1265.26,0.04432
1259.47,0.04461
1253.68,0.04502
1247.9,0.04580
1242.11,0.04514
1236.33,0.04379
1230.54,0.04441
1224.75,0.04736
1218.97,0.05247
1213.18,0.05675
1207.39,0.05980
1201.61,0.06307
1195.82,0.06853
1190.04,0.07064
1184.25,0.06278
1178.46,0.05171
1172.68,0.04877
1166.89,0.05313
1161.1,0.05177
1155.32,0.04425
1149.53,0.03625
1143.75,0.03275
1137.96,0.03298
1132.17,0.03693
1126.39,0.04044
1120.6,0.04118
1114.81,0.04124
1109.03,0.04107
1103.24,0.04455
1097.46,0.04585
1091.67,0.04571
1085.88,0.04614
1080.1,0.04981
1074.31,0.06078
1068.52,0.07144
1062.74,0.07686
1056.95,0.07418
1051.17,0.06442
1045.38,0.05719
1039.59,0.05754
1033.81,0.05938
1028.02,0.05426
1022.24,0.04898
1016.45,0.05149
1010.66,0.08055
1004.88,0.11256
999.09,0.12345
993.304,0.12303
987.518,0.11172
981.731,0.09946
975.945,0.08308
970.159,0.08226
964.373,0.10304
958.586,0.12680
952.8,0.14236
947.014,0.14825
941.228,0.14371
935.441,0.13726
929.655,0.14438
923.869,0.15283
918.083,0.14977
912.297,0.13094
906.51,0.10307
900.724,0.08932
894.938,0.08917
889.152,0.08898
883.365,0.07738
877.579,0.06218
871.793,0.06110
866.007,0.08437
860.22,0.09079
854.434,0.08257
848.648,0.07596
842.862,0.08173
837.075,0.09657
831.289,0.11174
825.503,0.12244
819.717,0.12399
813.931,0.12047
808.144,0.11598
802.358,0.11275
796.572,0.09437
790.786,0.09177
784.999,0.11777
779.213,0.13212
773.427,0.13629
767.641,0.13859
761.854,0.13551
756.068,0.12319
750.282,0.10639
744.496,0.07533
738.709,0.03978
732.923,0.03209
727.137,0.03964
721.351,0.05200
715.565,0.08375
709.778,0.09535
703.992,0.10621
698.206,0.12927
692.42,0.14388
686.633,0.14306
680.847,0.13519
675.061,0.14523
669.275,0.15653
663.488,0.16530
657.702,0.16908
651.916,0.17249
646.13,0.17561
640.343,0.17420
634.557,0.15332
628.771,0.15549
622.985,0.17301
617.198,0.17745
611.412,0.18076
605.626,0.17963
599.84,0.17857