File: 01_Data/Cotton_Batting/FTIR/IS/Cotton_Batting_IS_S_220912_R3.dpt
7497.03,0.56497
7491.25,0.57381
7485.46,0.58525
7479.67,0.57957
7473.89,0.57689
7468.1,0.57278
7462.32,0.56748
7456.53,0.57992
7450.74,0.56822
7444.96,0.57822
7439.17,0.57246
7433.38,0.57269
7427.6,0.56488
7421.81,0.56764
7416.03,0.56577
7410.24,0.56939
7404.45,0.57562
7398.67,0.56450
7392.88,0.56454
7387.09,0.56481
7381.31,0.57885
7375.52,0.57526
7369.74,0.56955
7363.95,0.57275
7358.16,0.57069
7352.38,0.56666
7346.59,0.56039
7340.8,0.56808
7335.02,0.56262
7329.23,0.56261
7323.45,0.56157
7317.66,0.56411
7311.87,0.56652
7306.09,0.57097
7300.3,0.56594
7294.51,0.56398
7288.73,0.55236
7282.94,0.55445
7277.16,0.55809
7271.37,0.55848
7265.58,0.56203
7259.8,0.55627
7254.01,0.55065
7248.22,0.54915
7242.44,0.55519
7236.65,0.55353
7230.87,0.56176
7225.08,0.56065
7219.29,0.55238
7213.51,0.56009
7207.72,0.55820
7201.93,0.56062
7196.15,0.56692
7190.36,0.55934
7184.58,0.55717
7178.79,0.54306
7173,0.55752
7167.22,0.55597
7161.43,0.55482
7155.65,0.55237
7149.86,0.55304
7144.07,0.55806
7138.29,0.55854
7132.5,0.55730
7126.71,0.55106
7120.93,0.55134
7115.14,0.55127
7109.36,0.55305
7103.57,0.55301
7097.78,0.55005
7092,0.55563
7086.21,0.55468
7080.42,0.55503
7074.64,0.54738
7068.85,0.55742
7063.07,0.55646
7057.28,0.55285
7051.49,0.55501
7045.71,0.55198
7039.92,0.55719
7034.13,0.55357
7028.35,0.54922
7022.56,0.55223
7016.78,0.55103
7010.99,0.55154
7005.2,0.55391
6999.42,0.55373
6993.63,0.55459
6987.84,0.55539
6982.06,0.56048
6976.27,0.55897
6970.49,0.55991
6964.7,0.55355
6958.91,0.55861
6953.13,0.55837
6947.34,0.55666
6941.55,0.55085
6935.77,0.55394
6929.98,0.56037
6924.2,0.55948
6918.41,0.55482
6912.62,0.55518
6906.84,0.55779
6901.05,0.55502
6895.26,0.56494
6889.48,0.56124
6883.69,0.56107
6877.91,0.56276
6872.12,0.56680
6866.33,0.55895
6860.55,0.55620
6854.76,0.55775
6848.97,0.56067
6843.19,0.55663
6837.4,0.55564
6831.62,0.56364
6825.83,0.56103
6820.04,0.56837
6814.26,0.56520
6808.47,0.56287
6802.68,0.55648
6796.9,0.56590
6791.11,0.56096
6785.33,0.55747
6779.54,0.56283
6773.75,0.56245
6767.97,0.56212
6762.18,0.56352
6756.39,0.56128
6750.61,0.55959
6744.82,0.55664
6739.04,0.56079
6733.25,0.56045
6727.46,0.56242
6721.68,0.56321
6715.89,0.55850
6710.1,0.55872
6704.32,0.56141
6698.53,0.56003
6692.75,0.56099
6686.96,0.55758
6681.17,0.56109
6675.39,0.56491
6669.6,0.56134
6663.82,0.55879
6658.03,0.55805
6652.24,0.55296
6646.46,0.55569
6640.67,0.55554
6634.88,0.55526
6629.1,0.55477
6623.31,0.55612
6617.53,0.56056
6611.74,0.55936
6605.95,0.55861
6600.17,0.55555
6594.38,0.56000
6588.59,0.55896
6582.81,0.55749
6577.02,0.55513
6571.24,0.55299
6565.45,0.55786
6559.66,0.55730
6553.88,0.55572
6548.09,0.55473
6542.3,0.55560
6536.52,0.55550
6530.73,0.55352
6524.95,0.55086
6519.16,0.55101
6513.37,0.55134
6507.59,0.55376
6501.8,0.55002
6496.01,0.55145
6490.23,0.55580
6484.44,0.55399
6478.66,0.55525
6472.87,0.55563
6467.08,0.55487
6461.3,0.55896
6455.51,0.56076
6449.72,0.56175
6443.94,0.55893
6438.15,0.56229
6432.37,0.55902
6426.58,0.56585
6420.79,0.56079
6415.01,0.56273
6409.22,0.56197
6403.43,0.55855
6397.65,0.55718
6391.86,0.55874
6386.08,0.55676
6380.29,0.55856
6374.5,0.55892
6368.72,0.55724
6362.93,0.55939
6357.14,0.55932
6351.36,0.55842
6345.57,0.55923
6339.79,0.55754
6334,0.55688
6328.21,0.56365
6322.43,0.56135
6316.64,0.56074
6310.85,0.55742
6305.07,0.55749
6299.28,0.55763
6293.5,0.56431
6287.71,0.55909
6281.92,0.56083
6276.14,0.56046
6270.35,0.55719
6264.56,0.55882
6258.78,0.56093
6252.99,0.56144
6247.21,0.56084
6241.42,0.55715
6235.63,0.55636
6229.85,0.55765
6224.06,0.55541
6218.27,0.55788
6212.49,0.55830
6206.7,0.55879
6200.92,0.55338
6195.13,0.54840
6189.34,0.55216
6183.56,0.55284
6177.77,0.55245
6171.98,0.55607
6166.2,0.55591
6160.41,0.55530
6154.63,0.55270
6148.84,0.55570
6143.05,0.55129
6137.27,0.55002
6131.48,0.54877
6125.7,0.54781
6119.91,0.54689
6114.12,0.54489
6108.34,0.53793
6102.55,0.53183
6096.76,0.52989
6090.98,0.52214
6085.19,0.51450
6079.41,0.50734
6073.62,0.50386
6067.83,0.49818
6062.05,0.48843
6056.26,0.48073
6050.47,0.47631
6044.69,0.46781
6038.9,0.46235
6033.12,0.45557
6027.33,0.44847
6021.54,0.44340
6015.76,0.44447
6009.97,0.44856
6004.18,0.45595
5998.4,0.46526
5992.61,0.47357
5986.83,0.48068
5981.04,0.48431
5975.25,0.48779
5969.47,0.48746
5963.68,0.49127
5957.89,0.49529
5952.11,0.49490
5946.32,0.49440
5940.54,0.49261
5934.75,0.49353
5928.96,0.49824
5923.18,0.50562
5917.39,0.50668
5911.6,0.51117
5905.82,0.51138
5900.03,0.50683
5894.25,0.50584
5888.46,0.50055
5882.67,0.49780
5876.89,0.49510
5871.1,0.49118
5865.31,0.48540
5859.53,0.48313
5853.74,0.48012
5847.96,0.47854
5842.17,0.47943
5836.38,0.47763
5830.6,0.47646
5824.81,0.47492
5819.02,0.47603
5813.24,0.47605
5807.45,0.47533
5801.67,0.47590
5795.88,0.47361
5790.09,0.47461
5784.31,0.47712
5778.52,0.47520
5772.73,0.48011
5766.95,0.48239
5761.16,0.48536
5755.38,0.48789
5749.59,0.48897
5743.8,0.49196
5738.02,0.49250
5732.23,0.49437
5726.44,0.49440
5720.66,0.49719
5714.87,0.49642
5709.09,0.49516
5703.3,0.49380
5697.51,0.49732
5691.73,0.49955
5685.94,0.49869
5680.15,0.50039
5674.37,0.50203
5668.58,0.50455
5662.8,0.50685
5657.01,0.50935
5651.22,0.51009
5645.44,0.51107
5639.65,0.51367
5633.87,0.51870
5628.08,0.51880
5622.29,0.52136
5616.51,0.52163
5610.72,0.52305
5604.93,0.52452
5599.15,0.52407
5593.36,0.52517
5587.58,0.52514
5581.79,0.52156
5576,0.52079
5570.22,0.52284
5564.43,0.52055
5558.64,0.52247
5552.86,0.52305
5547.07,0.52085
5541.29,0.52268
5535.5,0.52217
5529.71,0.52334
5523.93,0.52329
5518.14,0.52359
5512.35,0.52400
5506.57,0.52675
5500.78,0.52593
5495,0.52564
5489.21,0.52447
5483.42,0.52528
5477.64,0.52544
5471.85,0.52447
5466.06,0.52617
5460.28,0.52511
5454.49,0.52635
5448.71,0.52980
5442.92,0.53161
5437.13,0.53068
5431.35,0.53343
5425.56,0.53541
5419.77,0.53386
5413.99,0.53580
5408.2,0.53610
5402.42,0.53697
5396.63,0.53564
5390.84,0.53560
5385.06,0.53729
5379.27,0.53792
5373.48,0.53926
5367.7,0.54005
5361.91,0.53876
5356.13,0.53808
5350.34,0.53742
5344.55,0.53733
5338.77,0.53777
5332.98,0.53987
5327.19,0.54103
5321.41,0.53964
5315.62,0.54043
5309.84,0.53929
5304.05,0.53882
5298.26,0.53773
5292.48,0.53702
5286.69,0.53509
5280.9,0.53330
5275.12,0.53145
5269.33,0.52960
5263.55,0.52713
5257.76,0.52680
5251.97,0.52458
5246.19,0.52380
5240.4,0.52241
5234.61,0.52349
5228.83,0.52263
5223.04,0.52235
5217.26,0.52125
5211.47,0.52218
5205.68,0.52233
5199.9,0.52270
5194.11,0.52317
5188.32,0.52067
5182.54,0.51995
5176.75,0.51979
5170.97,0.51871
5165.18,0.51800
5159.39,0.51618
5153.61,0.51460
5147.82,0.51399
5142.03,0.51237
5136.25,0.51121
5130.46,0.51021
5124.68,0.50837
5118.89,0.50849
5113.1,0.50866
5107.32,0.51265
5101.53,0.51601
5095.75,0.51754
5089.96,0.51995
5084.17,0.52183
5078.39,0.52275
5072.6,0.52346
5066.81,0.52582
5061.03,0.52634
5055.24,0.52635
5049.46,0.52690
5043.67,0.52609
5037.88,0.52597
5032.1,0.52726
5026.31,0.52705
5020.52,0.52580
5014.74,0.52579
5008.95,0.52304
5003.17,0.52302
4997.38,0.52048
4991.59,0.51894
4985.81,0.51752
4980.02,0.51412
4974.23,0.51174
4968.45,0.50967
4962.66,0.51048
4956.88,0.50923
4951.09,0.50877
4945.3,0.50778
4939.52,0.50665
4933.73,0.50366
4927.94,0.50222
4922.16,0.50118
4916.37,0.49728
4910.59,0.49322
4904.8,0.48887
4899.01,0.48202
4893.23,0.47557
4887.44,0.47036
4881.65,0.46592
4875.87,0.46218
4870.08,0.46136
4864.3,0.46413
4858.51,0.47010
4852.72,0.47643
4846.94,0.48125
4841.15,0.48662
4835.36,0.48792
4829.58,0.48853
4823.79,0.48779
4818.01,0.48649
4812.22,0.48523
4806.43,0.48429
4800.65,0.48301
4794.86,0.48075
4789.07,0.48241
4783.29,0.48260
4777.5,0.48417
4771.72,0.48517
4765.93,0.48472
4760.14,0.48253
4754.36,0.47848
4748.57,0.47233
4742.78,0.46679
4737,0.46052
4731.21,0.45115
4725.43,0.44039
4719.64,0.43152
4713.85,0.42639
4708.07,0.42361
4702.28,0.41469
4696.49,0.40139
4690.71,0.39102
4684.92,0.39377
4679.14,0.40549
4673.35,0.41936
4667.56,0.42935
4661.78,0.43282
4655.99,0.43339
4650.2,0.43009
4644.42,0.42088
4638.63,0.40848
4632.85,0.40338
4627.06,0.41180
4621.27,0.42619
4615.49,0.43474
4609.7,0.43932
4603.92,0.43876
4598.13,0.43249
4592.34,0.42407
4586.56,0.41929
4580.77,0.41583
4574.98,0.41760
4569.2,0.42771
4563.41,0.43914
4557.63,0.44328
4551.84,0.44456
4546.05,0.44437
4540.27,0.44411
4534.48,0.44491
4528.69,0.44508
4522.91,0.44317
4517.12,0.44124
4511.34,0.43777
4505.55,0.43291
4499.76,0.42432
4493.98,0.41152
4488.19,0.40190
4482.4,0.39620
4476.62,0.39018
4470.83,0.38052
4465.05,0.36446
4459.26,0.34806
4453.47,0.34004
4447.69,0.33387
4441.9,0.32495
4436.11,0.31674
4430.33,0.31244
4424.54,0.31274
4418.76,0.31549
4412.97,0.31506
4407.18,0.31226
4401.4,0.31133
4395.61,0.31397
4389.82,0.31649
4384.04,0.31712
4378.25,0.31462
4372.47,0.30921
4366.68,0.30414
4360.89,0.30019
4355.11,0.29871
4349.32,0.30005
4343.53,0.30064
4337.75,0.30156
4331.96,0.30322
4326.18,0.30260
4320.39,0.30245
4314.6,0.30638
4308.82,0.30613
4303.03,0.30334
4297.24,0.29869
4291.46,0.29588
4285.67,0.29416
4279.89,0.29327
4274.1,0.29100
4268.31,0.28933
4262.53,0.29078
4256.74,0.29063
4250.95,0.29013
4245.17,0.29194
4239.38,0.29436
4233.6,0.29629
4227.81,0.29657
4222.02,0.29777
4216.24,0.30124
4210.45,0.30489
4204.66,0.30679
4198.88,0.30773
4193.09,0.30870
4187.31,0.30730
4181.52,0.30270
4175.73,0.30090
4169.95,0.30545
4164.16,0.31367
4158.37,0.31982
4152.59,0.32441
4146.8,0.32574
4141.02,0.32441
4135.23,0.32209
4129.44,0.31790
4123.66,0.31495
4117.87,0.31241
4112.09,0.30653
4106.3,0.29724
4100.51,0.28594
4094.73,0.26572
4088.94,0.25634
4083.15,0.26219
4077.37,0.27933
4071.58,0.29671
4065.8,0.30670
4060.01,0.31185
4054.22,0.31593
4048.44,0.31880
4042.65,0.32119
4036.86,0.32498
4031.08,0.32627
4025.29,0.32673
4019.51,0.32751
4013.72,0.32742
4007.93,0.32787
4002.15,0.32827
3996.36,0.33048
3990.57,0.33305
3984.79,0.33697
3979,0.34094
3973.22,0.34515
3967.43,0.35014
3961.64,0.35578
3955.86,0.35999
3950.07,0.36376
3944.28,0.36631
3938.5,0.36824
3932.71,0.36944
3926.93,0.37029
3921.14,0.37175
3915.35,0.37371
3909.57,0.37767
3903.78,0.38245
3897.99,0.38696
3892.21,0.39070
3886.42,0.39209
3880.64,0.39384
3874.85,0.39658
3869.06,0.39892
3863.28,0.39963
3857.49,0.40019
3851.7,0.40068
3845.92,0.40099
3840.13,0.40134
3834.35,0.40195
3828.56,0.40291
3822.77,0.40345
3816.99,0.39969
3811.2,0.39675
3805.41,0.39630
3799.63,0.39958
3793.84,0.40381
3788.06,0.40715
3782.27,0.40822
3776.48,0.40705
3770.7,0.40377
3764.91,0.39935
3759.12,0.39527
3753.34,0.39826
3747.55,0.40757
3741.77,0.41078
3735.98,0.40808
3730.19,0.40502
3724.41,0.41032
3718.62,0.41410
3712.83,0.41167
3707.05,0.40513
3701.26,0.39426
3695.48,0.37897
3689.69,0.35650
3683.9,0.34095
3678.12,0.34483
3672.33,0.34823
3666.54,0.34119
3660.76,0.33126
3654.97,0.31857
3649.19,0.30798
3643.4,0.29633
3637.61,0.28803
3631.83,0.28089
3626.04,0.27482
3620.25,0.26878
3614.47,0.26240
3608.68,0.25593
3602.9,0.25013
3597.11,0.24367
3591.32,0.23560
3585.54,0.22637
3579.75,0.21626
3573.97,0.20615
3568.18,0.19750
3562.39,0.19078
3556.61,0.18368
3550.82,0.17956
3545.03,0.17716
3539.25,0.17493
3533.46,0.17414
3527.68,0.17352
3521.89,0.17349
3516.1,0.17453
3510.32,0.17390
3504.53,0.17430
3498.74,0.17470
3492.96,0.17423
3487.17,0.17336
3481.39,0.17128
3475.6,0.16821
3469.81,0.16375
3464.03,0.15741
3458.24,0.14899
3452.45,0.14059
3446.67,0.13027
3440.88,0.12215
3435.1,0.11364
3429.31,0.11235
3423.52,0.11941
3417.74,0.13069
3411.95,0.13959
3406.16,0.14651
3400.38,0.15135
3394.59,0.15077
3388.81,0.14949
3383.02,0.14713
3377.23,0.14395
3371.45,0.13969
3365.66,0.13575
3359.87,0.13235
3354.09,0.12758
3348.3,0.12347
3342.52,0.12050
3336.73,0.11792
3330.94,0.11754
3325.16,0.11902
3319.37,0.12057
3313.58,0.12140
3307.8,0.12034
3302.01,0.12059
3296.23,0.12145
3290.44,0.12278
3284.65,0.12374
3278.87,0.12460
3273.08,0.12567
3267.29,0.12596
3261.51,0.12644
3255.72,0.12723
3249.94,0.12998
3244.15,0.13001
3238.36,0.13166
3232.58,0.13289
3226.79,0.13526
3221,0.13692
3215.22,0.13887
3209.43,0.14010
3203.65,0.14041
3197.86,0.14043
3192.07,0.14140
3186.29,0.14297
3180.5,0.14492
3174.71,0.14769
3168.93,0.14897
3163.14,0.15190
3157.36,0.15163
3151.57,0.15175
3145.78,0.14984
3140,0.14717
3134.21,0.14207
3128.42,0.13656
3122.64,0.13500
3116.85,0.13247
3111.07,0.12279
3105.28,0.11393
3099.49,0.11220
3093.71,0.11313
3087.92,0.10783
3082.14,0.10124
3076.35,0.10113
3070.56,0.10028
3064.78,0.10085
3058.99,0.10087
3053.2,0.09958
3047.42,0.11498
3041.63,0.13006
3035.85,0.13349
3030.06,0.13074
3024.27,0.12279
3018.49,0.10998
3012.7,0.09905
3006.91,0.09354
3001.13,0.08833
2995.34,0.08172
2989.56,0.07351
2983.77,0.06433
2977.98,0.05422
2972.2,0.04637
2966.41,0.04359
2960.62,0.04445
2954.84,0.04638
2949.05,0.05058
2943.27,0.05794
2937.48,0.06545
2931.69,0.06937
2925.91,0.06964
2920.12,0.06614
2914.33,0.06240
2908.55,0.05856
2902.76,0.06328
2896.98,0.06889
2891.19,0.07079
2885.4,0.07269
2879.62,0.07528
2873.83,0.07776
2868.04,0.07965
2862.26,0.08137
2856.47,0.08382
2850.69,0.08912
2844.9,0.10348
2839.11,0.11933
2833.33,0.13129
2827.54,0.13958
2821.75,0.14662
2815.97,0.15134
2810.18,0.15443
2804.4,0.15798
2798.61,0.16483
2792.82,0.17316
2787.04,0.18052
2781.25,0.18670
2775.46,0.19189
2769.68,0.19503
2763.89,0.19728
2758.11,0.19908
2752.32,0.20071
2746.53,0.20245
2740.75,0.20542
2734.96,0.21058
2729.17,0.21765
2723.39,0.22374
2717.6,0.23022
2711.82,0.23475
2706.03,0.23994
2700.24,0.24337
2694.46,0.24582
2688.67,0.24776
2682.88,0.24943
2677.1,0.25125
2671.31,0.25428
2665.53,0.25617
2659.74,0.25643
2653.95,0.25692
2648.17,0.25645
2642.38,0.25420
2636.59,0.24796
2630.81,0.24309
2625.02,0.24398
2619.24,0.24672
2613.45,0.24767
2607.66,0.24729
2601.88,0.24590
2596.09,0.24253
2590.3,0.23844
2584.52,0.23482
2578.73,0.23529
2572.95,0.23831
2567.16,0.23923
2561.37,0.23992
2555.59,0.24043
2549.8,0.24019
2544.02,0.24049
2538.23,0.24041
2532.44,0.24198
2526.66,0.24459
2520.87,0.24942
2515.08,0.25356
2509.3,0.25687
2503.51,0.25986
2497.73,0.26286
2491.94,0.26740
2486.15,0.27286
2480.37,0.27876
2474.58,0.28455
2468.79,0.29044
2463.01,0.29486
2457.22,0.29698
2451.44,0.29794
2445.65,0.29703
2439.86,0.29297
2434.08,0.28636
2428.29,0.27925
2422.5,0.27116
2416.72,0.26348
2410.93,0.25798
2405.15,0.25195
2399.36,0.24673
2393.57,0.24376
2387.79,0.24234
2382,0.24356
2376.21,0.24751
2370.43,0.25314
2364.64,0.26140
2358.86,0.27097
2353.07,0.28013
2347.28,0.28687
2341.5,0.29215
2335.71,0.29343
2329.92,0.29435
2324.14,0.29453
2318.35,0.29969
2312.57,0.30443
2306.78,0.30197
2300.99,0.29333
2295.21,0.28057
2289.42,0.26874
2283.63,0.26463
2277.85,0.26778
2272.06,0.26949
2266.28,0.26621
2260.49,0.25855
2254.7,0.24311
2248.92,0.22090
2243.13,0.21103
2237.34,0.22974
2231.56,0.26993
2225.77,0.28771
2219.99,0.29136
2214.2,0.29304
2208.41,0.29678
2202.63,0.30321
2196.84,0.30534
2191.05,0.30312
2185.27,0.30213
2179.48,0.29898
2173.7,0.29357
2167.91,0.28493
2162.12,0.27388
2156.34,0.26296
2150.55,0.25445
2144.76,0.24810
2138.98,0.24430
2133.19,0.24033
2127.41,0.23496
2121.62,0.22957
2115.83,0.22601
2110.05,0.22461
2104.26,0.22555
2098.47,0.22733
2092.69,0.23100
2086.9,0.23657
2081.12,0.24480
2075.33,0.25456
2069.54,0.26563
2063.76,0.27688
2057.97,0.28727
2052.19,0.29639
2046.4,0.30166
2040.61,0.30341
2034.83,0.30247
2029.04,0.29874
2023.25,0.29194
2017.47,0.28373
2011.68,0.27590
2005.9,0.26676
2000.11,0.25524
1994.32,0.24366
1988.54,0.23258
1982.75,0.22366
1976.96,0.21410
1971.18,0.20062
1965.39,0.18226
1959.61,0.16938
1953.82,0.17014
1948.03,0.17791
1942.25,0.19155
1936.46,0.20762
1930.67,0.22269
1924.89,0.23445
1919.1,0.24396
1913.32,0.25171
1907.53,0.25782
1901.74,0.26270
1895.96,0.26680
1890.17,0.26979
1884.38,0.27104
1878.6,0.26959
1872.81,0.26512
1867.03,0.25686
1861.24,0.24519
1855.45,0.22894
1849.67,0.20899
1843.88,0.18902
1838.09,0.17271
1832.31,0.15929
1826.52,0.14986
1820.74,0.14555
1814.95,0.14339
1809.16,0.14105
1803.38,0.13779
1797.59,0.13313
1791.8,0.12680
1786.02,0.11904
1780.23,0.10993
1774.45,0.09924
1768.66,0.08648
1762.87,0.07335
1757.09,0.05828
1751.3,0.04379
1745.51,0.03311
1739.73,0.03079
1733.94,0.03424
1728.16,0.03971
1722.37,0.04407
1716.58,0.04641
1710.8,0.04354
1705.01,0.04326
1699.22,0.04737
1693.44,0.05118
1687.65,0.05149
1681.87,0.05076
1676.08,0.05552
1670.29,0.06054
1664.51,0.06824
1658.72,0.07670
1652.93,0.08291
1647.15,0.08776
1641.36,0.09176
1635.58,0.09411
1629.79,0.09534
1624,0.09558
1618.22,0.08923
1612.43,0.08357
1606.64,0.09445
1600.86,0.10444
1595.07,0.10712
1589.29,0.09789
1583.5,0.07503
1577.71,0.05850
1571.93,0.07326
1566.14,0.08688
1560.35,0.09217
1554.57,0.09454
1548.78,0.09692
1543,0.10012
1537.21,0.09932
1531.42,0.09219
1525.64,0.08613
1519.85,0.08552
1514.07,0.07803
1508.28,0.05326
1502.49,0.05144
1496.71,0.08426
1490.92,0.09331
1485.13,0.07894
1479.35,0.06051
1473.56,0.04685
1467.78,0.04332
1461.99,0.03812
1456.2,0.03373
1450.42,0.03460
1444.63,0.03736
1438.84,0.04031
1433.06,0.04796
1427.27,0.05369
1421.49,0.04728
1415.7,0.03241
1409.91,0.02983
1404.13,0.03383
1398.34,0.03853
1392.55,0.04085
1386.77,0.03911
1380.98,0.03574
1375.2,0.03265
1369.41,0.03239
1363.62,0.03678
1357.84,0.03971
1352.05,0.03697
1346.26,0.03388
1340.48,0.03346
1334.69,0.03497
1328.91,0.03671
1323.12,0.03332
1317.33,0.02949
1311.55,0.02679
1305.76,0.02514
1299.97,0.02540
1294.19,0.02698
1288.4,0.02991
1282.62,0.03353
1276.83,0.03759
1271.04,0.04141
1265.26,0.04440
1259.47,0.04508
1253.68,0.04515
1247.9,0.04663
1242.11,0.04586
1236.33,0.04365
1230.54,0.04451
1224.75,0.04749
1218.97,0.05212
1213.18,0.05665
1207.39,0.05981
1201.61,0.06271
1195.82,0.06833
1190.04,0.06999
1184.25,0.06276
1178.46,0.05133
1172.68,0.04900
1166.89,0.05392
1161.1,0.05118
1155.32,0.04461
1149.53,0.03658
1143.75,0.03276
1137.96,0.03221
1132.17,0.03764
1126.39,0.04062
1120.6,0.04180
1114.81,0.04094
1109.03,0.04182
1103.24,0.04344
1097.46,0.04559
1091.67,0.04564
1085.88,0.04631
1080.1,0.05090
1074.31,0.06161
1068.52,0.07074
1062.74,0.07720
1056.95,0.07452
1051.17,0.06460
1045.38,0.05777
1039.59,0.05746
1033.81,0.05918
1028.02,0.05511
1022.24,0.04867
1016.45,0.05168
1010.66,0.08047
1004.88,0.11297
999.09,0.12315
993.304,0.12345
987.518,0.11143
981.731,0.09983
975.945,0.08276
970.159,0.08227
964.373,0.10269
958.586,0.12663
952.8,0.14282
947.014,0.14871
941.228,0.14421
935.441,0.13705
929.655,0.14437
923.869,0.15296
918.083,0.14989
912.297,0.13182
906.51,0.10398
900.724,0.08901
894.938,0.08891
889.152,0.08907
883.365,0.07763
877.579,0.06332
871.793,0.06188
866.007,0.08525
860.22,0.09133
854.434,0.08297
848.648,0.07618
842.862,0.08171
837.075,0.09634
831.289,0.11185
825.503,0.12292
819.717,0.12527
813.931,0.12112
808.144,0.11786
802.358,0.11393
796.572,0.09623
790.786,0.09246
784.999,0.11946
779.213,0.13231
773.427,0.13712
767.641,0.13995
761.854,0.13596
756.068,0.12389
750.282,0.10764
744.496,0.07580
738.709,0.04047
732.923,0.03262
727.137,0.04001
721.351,0.05328
715.565,0.08254
709.778,0.09611
703.992,0.10600
698.206,0.13042
692.42,0.14395
686.633,0.14394
680.847,0.13560
675.061,0.14545
669.275,0.15675
663.488,0.16608
657.702,0.17114
651.916,0.17358
646.13,0.17696
640.343,0.17651
634.557,0.15335
628.771,0.15487
622.985,0.17435
617.198,0.17980
611.412,0.18094
605.626,0.18019
599.84,0.17918