File: 01_Data/Cotton_Batting/FTIR/IS/Cotton_Batting_IS_S_220912_R7.dpt
7497.03,0.57707
7491.25,0.58824
7485.46,0.57675
7479.67,0.57932
7473.89,0.57711
7468.1,0.57473
7462.32,0.57340
7456.53,0.57128
7450.74,0.57355
7444.96,0.57906
7439.17,0.57319
7433.38,0.57571
7427.6,0.56664
7421.81,0.58337
7416.03,0.57721
7410.24,0.57335
7404.45,0.57422
7398.67,0.57120
7392.88,0.57132
7387.09,0.56457
7381.31,0.57307
7375.52,0.57290
7369.74,0.56863
7363.95,0.57117
7358.16,0.56082
7352.38,0.56338
7346.59,0.56470
7340.8,0.57050
7335.02,0.55547
7329.23,0.56303
7323.45,0.56186
7317.66,0.56764
7311.87,0.56285
7306.09,0.56033
7300.3,0.56187
7294.51,0.56472
7288.73,0.55301
7282.94,0.55951
7277.16,0.56319
7271.37,0.56634
7265.58,0.55735
7259.8,0.55613
7254.01,0.57268
7248.22,0.55918
7242.44,0.55870
7236.65,0.55695
7230.87,0.55422
7225.08,0.56023
7219.29,0.55780
7213.51,0.55190
7207.72,0.55113
7201.93,0.55865
7196.15,0.56466
7190.36,0.55783
7184.58,0.55438
7178.79,0.56328
7173,0.55293
7167.22,0.55794
7161.43,0.55928
7155.65,0.55843
7149.86,0.55275
7144.07,0.55390
7138.29,0.55654
7132.5,0.55969
7126.71,0.54714
7120.93,0.55935
7115.14,0.55288
7109.36,0.55652
7103.57,0.55783
7097.78,0.55443
7092,0.55242
7086.21,0.55425
7080.42,0.55081
7074.64,0.55149
7068.85,0.55817
7063.07,0.55158
7057.28,0.55834
7051.49,0.56226
7045.71,0.55378
7039.92,0.55425
7034.13,0.55817
7028.35,0.55158
7022.56,0.55509
7016.78,0.55594
7010.99,0.55592
7005.2,0.55424
6999.42,0.55446
6993.63,0.56258
6987.84,0.55478
6982.06,0.55593
6976.27,0.55337
6970.49,0.55335
6964.7,0.55378
6958.91,0.55756
6953.13,0.55833
6947.34,0.55637
6941.55,0.55722
6935.77,0.56023
6929.98,0.55994
6924.2,0.55702
6918.41,0.55524
6912.62,0.56128
6906.84,0.55651
6901.05,0.56003
6895.26,0.56013
6889.48,0.55414
6883.69,0.55987
6877.91,0.56428
6872.12,0.55680
6866.33,0.56573
6860.55,0.56200
6854.76,0.56385
6848.97,0.55644
6843.19,0.56553
6837.4,0.55774
6831.62,0.56078
6825.83,0.55832
6820.04,0.56070
6814.26,0.56356
6808.47,0.56293
6802.68,0.56202
6796.9,0.56727
6791.11,0.55954
6785.33,0.56207
6779.54,0.55764
6773.75,0.56111
6767.97,0.55899
6762.18,0.55955
6756.39,0.55592
6750.61,0.55321
6744.82,0.56107
6739.04,0.56321
6733.25,0.56193
6727.46,0.55729
6721.68,0.56221
6715.89,0.56492
6710.1,0.56358
6704.32,0.56543
6698.53,0.56323
6692.75,0.56070
6686.96,0.55608
6681.17,0.55667
6675.39,0.56350
6669.6,0.56290
6663.82,0.55811
6658.03,0.56045
6652.24,0.55681
6646.46,0.55687
6640.67,0.55735
6634.88,0.55565
6629.1,0.56053
6623.31,0.55858
6617.53,0.55706
6611.74,0.55883
6605.95,0.55114
6600.17,0.55433
6594.38,0.54940
6588.59,0.55771
6582.81,0.55864
6577.02,0.55700
6571.24,0.55708
6565.45,0.55984
6559.66,0.55143
6553.88,0.55116
6548.09,0.55164
6542.3,0.55790
6536.52,0.55725
6530.73,0.54983
6524.95,0.55462
6519.16,0.55670
6513.37,0.55127
6507.59,0.55501
6501.8,0.55432
6496.01,0.55142
6490.23,0.55439
6484.44,0.55584
6478.66,0.55481
6472.87,0.55192
6467.08,0.55695
6461.3,0.56184
6455.51,0.56202
6449.72,0.56222
6443.94,0.56247
6438.15,0.56339
6432.37,0.56325
6426.58,0.56092
6420.79,0.56108
6415.01,0.56263
6409.22,0.55966
6403.43,0.55629
6397.65,0.56347
6391.86,0.56226
6386.08,0.56448
6380.29,0.55977
6374.5,0.55937
6368.72,0.55854
6362.93,0.55843
6357.14,0.55807
6351.36,0.56017
6345.57,0.56043
6339.79,0.55893
6334,0.55560
6328.21,0.55805
6322.43,0.56118
6316.64,0.56254
6310.85,0.56166
6305.07,0.55910
6299.28,0.56543
6293.5,0.55981
6287.71,0.56077
6281.92,0.56024
6276.14,0.55962
6270.35,0.55862
6264.56,0.55927
6258.78,0.55946
6252.99,0.56033
6247.21,0.55990
6241.42,0.55956
6235.63,0.55924
6229.85,0.55799
6224.06,0.55716
6218.27,0.55831
6212.49,0.55753
6206.7,0.55541
6200.92,0.55641
6195.13,0.54751
6189.34,0.55165
6183.56,0.55215
6177.77,0.55443
6171.98,0.55407
6166.2,0.55393
6160.41,0.55485
6154.63,0.55274
6148.84,0.55252
6143.05,0.54871
6137.27,0.55072
6131.48,0.55357
6125.7,0.54705
6119.91,0.54742
6114.12,0.54329
6108.34,0.53847
6102.55,0.53411
6096.76,0.52869
6090.98,0.52127
6085.19,0.51528
6079.41,0.51060
6073.62,0.50443
6067.83,0.49631
6062.05,0.48484
6056.26,0.47771
6050.47,0.47172
6044.69,0.46554
6038.9,0.46199
6033.12,0.45515
6027.33,0.44591
6021.54,0.44446
6015.76,0.44300
6009.97,0.44600
6004.18,0.45438
5998.4,0.46614
5992.61,0.47333
5986.83,0.47686
5981.04,0.48243
5975.25,0.48705
5969.47,0.49071
5963.68,0.49225
5957.89,0.49389
5952.11,0.49143
5946.32,0.49564
5940.54,0.49514
5934.75,0.49678
5928.96,0.50016
5923.18,0.50244
5917.39,0.50676
5911.6,0.50949
5905.82,0.51159
5900.03,0.50987
5894.25,0.50800
5888.46,0.50036
5882.67,0.49771
5876.89,0.49296
5871.1,0.48908
5865.31,0.48611
5859.53,0.48367
5853.74,0.47984
5847.96,0.48015
5842.17,0.47818
5836.38,0.47855
5830.6,0.47449
5824.81,0.47342
5819.02,0.47475
5813.24,0.47287
5807.45,0.47425
5801.67,0.47532
5795.88,0.47670
5790.09,0.47449
5784.31,0.47697
5778.52,0.47878
5772.73,0.47821
5766.95,0.48071
5761.16,0.48766
5755.38,0.48536
5749.59,0.48916
5743.8,0.49157
5738.02,0.49374
5732.23,0.49418
5726.44,0.49410
5720.66,0.49330
5714.87,0.49326
5709.09,0.49565
5703.3,0.49393
5697.51,0.49656
5691.73,0.49754
5685.94,0.50122
5680.15,0.49941
5674.37,0.50073
5668.58,0.50362
5662.8,0.50552
5657.01,0.50994
5651.22,0.50891
5645.44,0.51240
5639.65,0.51587
5633.87,0.51834
5628.08,0.51986
5622.29,0.51961
5616.51,0.51983
5610.72,0.52443
5604.93,0.52392
5599.15,0.52443
5593.36,0.52380
5587.58,0.52153
5581.79,0.52062
5576,0.52259
5570.22,0.52469
5564.43,0.52286
5558.64,0.52150
5552.86,0.52261
5547.07,0.52222
5541.29,0.52454
5535.5,0.52305
5529.71,0.52139
5523.93,0.52387
5518.14,0.52307
5512.35,0.52585
5506.57,0.52528
5500.78,0.52383
5495,0.52494
5489.21,0.52494
5483.42,0.52431
5477.64,0.52366
5471.85,0.52313
5466.06,0.52545
5460.28,0.52617
5454.49,0.52847
5448.71,0.52909
5442.92,0.52970
5437.13,0.53111
5431.35,0.53333
5425.56,0.53397
5419.77,0.53565
5413.99,0.53398
5408.2,0.53436
5402.42,0.53548
5396.63,0.53631
5390.84,0.53716
5385.06,0.53821
5379.27,0.53804
5373.48,0.53892
5367.7,0.53674
5361.91,0.53785
5356.13,0.53813
5350.34,0.53808
5344.55,0.53868
5338.77,0.53841
5332.98,0.54009
5327.19,0.53899
5321.41,0.53892
5315.62,0.54041
5309.84,0.54093
5304.05,0.53982
5298.26,0.53879
5292.48,0.53693
5286.69,0.53541
5280.9,0.53411
5275.12,0.53236
5269.33,0.53161
5263.55,0.52956
5257.76,0.52815
5251.97,0.52694
5246.19,0.52795
5240.4,0.52612
5234.61,0.52749
5228.83,0.52471
5223.04,0.52374
5217.26,0.52546
5211.47,0.52433
5205.68,0.52479
5199.9,0.52661
5194.11,0.52514
5188.32,0.52512
5182.54,0.52437
5176.75,0.52292
5170.97,0.52075
5165.18,0.52107
5159.39,0.51868
5153.61,0.51752
5147.82,0.51697
5142.03,0.51533
5136.25,0.51337
5130.46,0.51253
5124.68,0.51251
5118.89,0.51077
5113.1,0.51308
5107.32,0.51492
5101.53,0.51815
5095.75,0.52111
5089.96,0.52269
5084.17,0.52493
5078.39,0.52595
5072.6,0.52675
5066.81,0.52816
5061.03,0.52756
5055.24,0.52827
5049.46,0.52957
5043.67,0.52865
5037.88,0.52872
5032.1,0.52945
5026.31,0.52765
5020.52,0.52836
5014.74,0.52714
5008.95,0.52490
5003.17,0.52478
4997.38,0.52293
4991.59,0.52076
4985.81,0.51718
4980.02,0.51567
4974.23,0.51357
4968.45,0.51184
4962.66,0.51138
4956.88,0.50956
4951.09,0.50844
4945.3,0.50705
4939.52,0.50711
4933.73,0.50511
4927.94,0.50284
4922.16,0.50165
4916.37,0.49812
4910.59,0.49342
4904.8,0.48836
4899.01,0.48180
4893.23,0.47577
4887.44,0.47030
4881.65,0.46588
4875.87,0.46346
4870.08,0.46147
4864.3,0.46481
4858.51,0.47150
4852.72,0.47641
4846.94,0.48229
4841.15,0.48500
4835.36,0.48790
4829.58,0.48809
4823.79,0.48819
4818.01,0.48759
4812.22,0.48644
4806.43,0.48364
4800.65,0.48185
4794.86,0.48137
4789.07,0.48106
4783.29,0.48250
4777.5,0.48442
4771.72,0.48485
4765.93,0.48386
4760.14,0.48125
4754.36,0.47835
4748.57,0.47261
4742.78,0.46602
4737,0.45995
4731.21,0.45069
4725.43,0.43913
4719.64,0.43202
4713.85,0.42782
4708.07,0.42446
4702.28,0.41463
4696.49,0.40051
4690.71,0.39197
4684.92,0.39409
4679.14,0.40502
4673.35,0.41970
4667.56,0.42960
4661.78,0.43313
4655.99,0.43496
4650.2,0.43013
4644.42,0.42055
4638.63,0.40756
4632.85,0.40314
4627.06,0.41108
4621.27,0.42554
4615.49,0.43594
4609.7,0.43918
4603.92,0.43763
4598.13,0.43195
4592.34,0.42374
4586.56,0.41946
4580.77,0.41617
4574.98,0.41762
4569.2,0.42832
4563.41,0.43831
4557.63,0.44305
4551.84,0.44468
4546.05,0.44440
4540.27,0.44467
4534.48,0.44499
4528.69,0.44492
4522.91,0.44266
4517.12,0.44104
4511.34,0.43815
4505.55,0.43193
4499.76,0.42299
4493.98,0.41123
4488.19,0.40120
4482.4,0.39654
4476.62,0.38988
4470.83,0.37978
4465.05,0.36440
4459.26,0.34828
4453.47,0.34026
4447.69,0.33354
4441.9,0.32468
4436.11,0.31659
4430.33,0.31173
4424.54,0.31311
4418.76,0.31545
4412.97,0.31504
4407.18,0.31204
4401.4,0.31162
4395.61,0.31419
4389.82,0.31652
4384.04,0.31671
4378.25,0.31393
4372.47,0.30902
4366.68,0.30432
4360.89,0.30003
4355.11,0.29874
4349.32,0.29979
4343.53,0.29970
4337.75,0.30116
4331.96,0.30257
4326.18,0.30119
4320.39,0.30237
4314.6,0.30578
4308.82,0.30620
4303.03,0.30301
4297.24,0.29936
4291.46,0.29652
4285.67,0.29449
4279.89,0.29319
4274.1,0.29081
4268.31,0.28955
4262.53,0.29001
4256.74,0.29007
4250.95,0.28927
4245.17,0.29158
4239.38,0.29373
4233.6,0.29596
4227.81,0.29680
4222.02,0.29754
4216.24,0.30093
4210.45,0.30439
4204.66,0.30670
4198.88,0.30706
4193.09,0.30856
4187.31,0.30696
4181.52,0.30295
4175.73,0.30085
4169.95,0.30545
4164.16,0.31378
4158.37,0.31928
4152.59,0.32422
4146.8,0.32565
4141.02,0.32485
4135.23,0.32048
4129.44,0.31855
4123.66,0.31589
4117.87,0.31170
4112.09,0.30680
4106.3,0.29734
4100.51,0.28581
4094.73,0.26670
4088.94,0.25698
4083.15,0.26267
4077.37,0.27962
4071.58,0.29725
4065.8,0.30693
4060.01,0.31227
4054.22,0.31592
4048.44,0.31901
4042.65,0.32157
4036.86,0.32503
4031.08,0.32643
4025.29,0.32648
4019.51,0.32707
4013.72,0.32734
4007.93,0.32795
4002.15,0.32868
3996.36,0.32957
3990.57,0.33346
3984.79,0.33693
3979,0.34110
3973.22,0.34541
3967.43,0.35000
3961.64,0.35560
3955.86,0.35981
3950.07,0.36362
3944.28,0.36670
3938.5,0.36940
3932.71,0.37009
3926.93,0.37127
3921.14,0.37174
3915.35,0.37418
3909.57,0.37855
3903.78,0.38319
3897.99,0.38764
3892.21,0.39084
3886.42,0.39248
3880.64,0.39438
3874.85,0.39688
3869.06,0.39937
3863.28,0.40019
3857.49,0.40078
3851.7,0.40152
3845.92,0.40134
3840.13,0.40177
3834.35,0.40253
3828.56,0.40360
3822.77,0.40395
3816.99,0.40128
3811.2,0.39772
3805.41,0.39736
3799.63,0.40058
3793.84,0.40488
3788.06,0.40807
3782.27,0.40903
3776.48,0.40766
3770.7,0.40493
3764.91,0.40017
3759.12,0.39603
3753.34,0.39900
3747.55,0.40954
3741.77,0.41262
3735.98,0.41010
3730.19,0.40729
3724.41,0.41286
3718.62,0.41633
3712.83,0.41483
3707.05,0.40963
3701.26,0.39833
3695.48,0.38364
3689.69,0.36162
3683.9,0.34804
3678.12,0.35513
3672.33,0.36161
3666.54,0.35692
3660.76,0.34835
3654.97,0.33744
3649.19,0.32790
3643.4,0.31719
3637.61,0.30785
3631.83,0.30163
3626.04,0.29366
3620.25,0.28748
3614.47,0.28075
3608.68,0.27328
3602.9,0.26694
3597.11,0.25963
3591.32,0.25164
3585.54,0.24137
3579.75,0.23028
3573.97,0.21991
3568.18,0.21104
3562.39,0.20328
3556.61,0.19640
3550.82,0.19219
3545.03,0.18912
3539.25,0.18710
3533.46,0.18576
3527.68,0.18549
3521.89,0.18510
3516.1,0.18552
3510.32,0.18609
3504.53,0.18603
3498.74,0.18613
3492.96,0.18537
3487.17,0.18395
3481.39,0.18208
3475.6,0.17891
3469.81,0.17402
3464.03,0.16670
3458.24,0.15708
3452.45,0.14690
3446.67,0.13625
3440.88,0.12605
3435.1,0.11824
3429.31,0.11641
3423.52,0.12452
3417.74,0.13470
3411.95,0.14500
3406.16,0.15206
3400.38,0.15554
3394.59,0.15487
3388.81,0.15330
3383.02,0.15041
3377.23,0.14627
3371.45,0.14205
3365.66,0.13860
3359.87,0.13368
3354.09,0.12897
3348.3,0.12475
3342.52,0.12091
3336.73,0.11751
3330.94,0.11820
3325.16,0.11978
3319.37,0.12074
3313.58,0.12089
3307.8,0.12082
3302.01,0.12120
3296.23,0.12176
3290.44,0.12281
3284.65,0.12399
3278.87,0.12521
3273.08,0.12619
3267.29,0.12628
3261.51,0.12737
3255.72,0.12855
3249.94,0.12999
3244.15,0.13137
3238.36,0.13249
3232.58,0.13434
3226.79,0.13586
3221,0.13833
3215.22,0.13995
3209.43,0.14082
3203.65,0.14121
3197.86,0.14201
3192.07,0.14320
3186.29,0.14502
3180.5,0.14674
3174.71,0.14896
3168.93,0.15143
3163.14,0.15220
3157.36,0.15326
3151.57,0.15285
3145.78,0.15115
3140,0.14834
3134.21,0.14308
3128.42,0.13786
3122.64,0.13682
3116.85,0.13283
3111.07,0.12317
3105.28,0.11450
3099.49,0.11283
3093.71,0.11394
3087.92,0.10814
3082.14,0.10215
3076.35,0.10162
3070.56,0.10037
3064.78,0.10087
3058.99,0.10065
3053.2,0.09965
3047.42,0.11546
3041.63,0.13042
3035.85,0.13377
3030.06,0.13136
3024.27,0.12338
3018.49,0.11077
3012.7,0.09991
3006.91,0.09392
3001.13,0.08840
2995.34,0.08212
2989.56,0.07423
2983.77,0.06397
2977.98,0.05371
2972.2,0.04706
2966.41,0.04391
2960.62,0.04394
2954.84,0.04599
2949.05,0.05039
2943.27,0.05744
2937.48,0.06540
2931.69,0.06949
2925.91,0.06906
2920.12,0.06684
2914.33,0.06260
2908.55,0.05909
2902.76,0.06324
2896.98,0.06897
2891.19,0.07060
2885.4,0.07301
2879.62,0.07498
2873.83,0.07745
2868.04,0.07936
2862.26,0.08113
2856.47,0.08313
2850.69,0.08872
2844.9,0.10348
2839.11,0.11942
2833.33,0.13117
2827.54,0.13967
2821.75,0.14668
2815.97,0.15135
2810.18,0.15435
2804.4,0.15803
2798.61,0.16478
2792.82,0.17339
2787.04,0.18063
2781.25,0.18735
2775.46,0.19225
2769.68,0.19506
2763.89,0.19790
2758.11,0.19935
2752.32,0.20110
2746.53,0.20264
2740.75,0.20538
2734.96,0.21081
2729.17,0.21720
2723.39,0.22396
2717.6,0.23042
2711.82,0.23528
2706.03,0.23988
2700.24,0.24379
2694.46,0.24598
2688.67,0.24814
2682.88,0.24969
2677.1,0.25196
2671.31,0.25451
2665.53,0.25666
2659.74,0.25649
2653.95,0.25740
2648.17,0.25675
2642.38,0.25489
2636.59,0.24861
2630.81,0.24310
2625.02,0.24417
2619.24,0.24748
2613.45,0.24795
2607.66,0.24734
2601.88,0.24628
2596.09,0.24340
2590.3,0.23889
2584.52,0.23497
2578.73,0.23554
2572.95,0.23801
2567.16,0.23990
2561.37,0.24001
2555.59,0.24004
2549.8,0.24012
2544.02,0.24051
2538.23,0.24102
2532.44,0.24217
2526.66,0.24481
2520.87,0.24931
2515.08,0.25397
2509.3,0.25738
2503.51,0.26013
2497.73,0.26315
2491.94,0.26790
2486.15,0.27365
2480.37,0.27885
2474.58,0.28468
2468.79,0.29062
2463.01,0.29508
2457.22,0.29725
2451.44,0.29872
2445.65,0.29715
2439.86,0.29295
2434.08,0.28648
2428.29,0.27987
2422.5,0.27171
2416.72,0.26409
2410.93,0.25789
2405.15,0.25225
2399.36,0.24710
2393.57,0.24373
2387.79,0.24259
2382,0.24397
2376.21,0.24749
2370.43,0.25321
2364.64,0.26115
2358.86,0.27086
2353.07,0.28025
2347.28,0.28726
2341.5,0.29274
2335.71,0.29399
2329.92,0.29460
2324.14,0.29494
2318.35,0.30046
2312.57,0.30412
2306.78,0.30175
2300.99,0.29387
2295.21,0.28111
2289.42,0.26952
2283.63,0.26512
2277.85,0.26845
2272.06,0.27060
2266.28,0.26679
2260.49,0.25919
2254.7,0.24408
2248.92,0.22212
2243.13,0.21183
2237.34,0.23076
2231.56,0.27082
2225.77,0.28842
2219.99,0.29220
2214.2,0.29416
2208.41,0.29795
2202.63,0.30488
2196.84,0.30669
2191.05,0.30471
2185.27,0.30386
2179.48,0.30082
2173.7,0.29501
2167.91,0.28635
2162.12,0.27526
2156.34,0.26446
2150.55,0.25554
2144.76,0.24936
2138.98,0.24538
2133.19,0.24136
2127.41,0.23600
2121.62,0.23104
2115.83,0.22669
2110.05,0.22528
2104.26,0.22634
2098.47,0.22834
2092.69,0.23223
2086.9,0.23789
2081.12,0.24591
2075.33,0.25533
2069.54,0.26588
2063.76,0.27767
2057.97,0.28838
2052.19,0.29698
2046.4,0.30264
2040.61,0.30462
2034.83,0.30346
2029.04,0.29925
2023.25,0.29266
2017.47,0.28519
2011.68,0.27707
2005.9,0.26713
2000.11,0.25586
1994.32,0.24386
1988.54,0.23326
1982.75,0.22394
1976.96,0.21417
1971.18,0.20101
1965.39,0.18244
1959.61,0.16892
1953.82,0.17032
1948.03,0.17815
1942.25,0.19163
1936.46,0.20807
1930.67,0.22309
1924.89,0.23465
1919.1,0.24400
1913.32,0.25211
1907.53,0.25818
1901.74,0.26317
1895.96,0.26703
1890.17,0.27062
1884.38,0.27144
1878.6,0.27001
1872.81,0.26514
1867.03,0.25672
1861.24,0.24552
1855.45,0.22917
1849.67,0.20928
1843.88,0.18908
1838.09,0.17255
1832.31,0.15940
1826.52,0.15012
1820.74,0.14584
1814.95,0.14348
1809.16,0.14054
1803.38,0.13755
1797.59,0.13307
1791.8,0.12675
1786.02,0.11847
1780.23,0.10957
1774.45,0.09969
1768.66,0.08677
1762.87,0.07326
1757.09,0.05776
1751.3,0.04329
1745.51,0.03279
1739.73,0.03085
1733.94,0.03404
1728.16,0.03945
1722.37,0.04423
1716.58,0.04633
1710.8,0.04340
1705.01,0.04339
1699.22,0.04778
1693.44,0.05135
1687.65,0.05114
1681.87,0.05062
1676.08,0.05512
1670.29,0.06076
1664.51,0.06842
1658.72,0.07698
1652.93,0.08281
1647.15,0.08778
1641.36,0.09238
1635.58,0.09559
1629.79,0.09625
1624,0.09727
1618.22,0.09000
1612.43,0.08386
1606.64,0.09541
1600.86,0.10487
1595.07,0.10759
1589.29,0.09842
1583.5,0.07541
1577.71,0.05867
1571.93,0.07350
1566.14,0.08707
1560.35,0.09231
1554.57,0.09443
1548.78,0.09708
1543,0.09975
1537.21,0.09931
1531.42,0.09249
1525.64,0.08616
1519.85,0.08575
1514.07,0.07840
1508.28,0.05332
1502.49,0.05105
1496.71,0.08379
1490.92,0.09293
1485.13,0.07871
1479.35,0.05988
1473.56,0.04705
1467.78,0.04360
1461.99,0.03832
1456.2,0.03347
1450.42,0.03471
1444.63,0.03720
1438.84,0.04027
1433.06,0.04770
1427.27,0.05419
1421.49,0.04687
1415.7,0.03257
1409.91,0.02946
1404.13,0.03353
1398.34,0.03814
1392.55,0.04063
1386.77,0.03941
1380.98,0.03548
1375.2,0.03260
1369.41,0.03209
1363.62,0.03675
1357.84,0.03915
1352.05,0.03684
1346.26,0.03359
1340.48,0.03336
1334.69,0.03505
1328.91,0.03653
1323.12,0.03342
1317.33,0.02932
1311.55,0.02662
1305.76,0.02520
1299.97,0.02511
1294.19,0.02700
1288.4,0.02950
1282.62,0.03335
1276.83,0.03766
1271.04,0.04167
1265.26,0.04407
1259.47,0.04480
1253.68,0.04529
1247.9,0.04585
1242.11,0.04543
1236.33,0.04379
1230.54,0.04421
1224.75,0.04746
1218.97,0.05192
1213.18,0.05661
1207.39,0.05914
1201.61,0.06324
1195.82,0.06837
1190.04,0.07059
1184.25,0.06289
1178.46,0.05123
1172.68,0.04913
1166.89,0.05314
1161.1,0.05196
1155.32,0.04485
1149.53,0.03691
1143.75,0.03295
1137.96,0.03315
1132.17,0.03745
1126.39,0.04046
1120.6,0.04119
1114.81,0.04091
1109.03,0.04177
1103.24,0.04337
1097.46,0.04633
1091.67,0.04643
1085.88,0.04691
1080.1,0.05028
1074.31,0.06091
1068.52,0.07159
1062.74,0.07703
1056.95,0.07381
1051.17,0.06442
1045.38,0.05769
1039.59,0.05755
1033.81,0.05938
1028.02,0.05508
1022.24,0.04907
1016.45,0.05193
1010.66,0.08117
1004.88,0.11259
999.09,0.12419
993.304,0.12360
987.518,0.11185
981.731,0.10001
975.945,0.08254
970.159,0.08311
964.373,0.10302
958.586,0.12629
952.8,0.14324
947.014,0.14847
941.228,0.14429
935.441,0.13728
929.655,0.14570
923.869,0.15321
918.083,0.15058
912.297,0.13235
906.51,0.10409
900.724,0.08978
894.938,0.08990
889.152,0.08948
883.365,0.07746
877.579,0.06311
871.793,0.06217
866.007,0.08559
860.22,0.09183
854.434,0.08255
848.648,0.07620
842.862,0.08295
837.075,0.09660
831.289,0.11244
825.503,0.12374
819.717,0.12484
813.931,0.12167
808.144,0.11863
802.358,0.11391
796.572,0.09541
790.786,0.09362
784.999,0.11936
779.213,0.13388
773.427,0.13830
767.641,0.14045
761.854,0.13670
756.068,0.12430
750.282,0.10747
744.496,0.07506
738.709,0.03981
732.923,0.03210
727.137,0.04045
721.351,0.05207
715.565,0.08248
709.778,0.09550
703.992,0.10689
698.206,0.13051
692.42,0.14530
686.633,0.14306
680.847,0.13508
675.061,0.14607
669.275,0.15784
663.488,0.16693
657.702,0.17103
651.916,0.17532
646.13,0.17952
640.343,0.17871
634.557,0.15478
628.771,0.15779
622.985,0.17406
617.198,0.18032
611.412,0.18255
605.626,0.18334
599.84,0.18196