File: 01_Data/Cotton_Batting/FTIR/IS/Cotton_Batting_IS_S_220912_R1.dpt
7497.03,0.57226
7491.25,0.58359
7485.46,0.58224
7479.67,0.56677
7473.89,0.57419
7468.1,0.57380
7462.32,0.57541
7456.53,0.56574
7450.74,0.57288
7444.96,0.56656
7439.17,0.58083
7433.38,0.57241
7427.6,0.57252
7421.81,0.57042
7416.03,0.57502
7410.24,0.57645
7404.45,0.56948
7398.67,0.56726
7392.88,0.57194
7387.09,0.56600
7381.31,0.56593
7375.52,0.56215
7369.74,0.57080
7363.95,0.56441
7358.16,0.56119
7352.38,0.57762
7346.59,0.56922
7340.8,0.56137
7335.02,0.55527
7329.23,0.56625
7323.45,0.57002
7317.66,0.56349
7311.87,0.57029
7306.09,0.55588
7300.3,0.56905
7294.51,0.56406
7288.73,0.56464
7282.94,0.56516
7277.16,0.56206
7271.37,0.56479
7265.58,0.55906
7259.8,0.55967
7254.01,0.55844
7248.22,0.55403
7242.44,0.56142
7236.65,0.56354
7230.87,0.55461
7225.08,0.55201
7219.29,0.55367
7213.51,0.55761
7207.72,0.55936
7201.93,0.55664
7196.15,0.56069
7190.36,0.55696
7184.58,0.55732
7178.79,0.55672
7173,0.55508
7167.22,0.55571
7161.43,0.55181
7155.65,0.55522
7149.86,0.55417
7144.07,0.54927
7138.29,0.55810
7132.5,0.55136
7126.71,0.54856
7120.93,0.55130
7115.14,0.54607
7109.36,0.54899
7103.57,0.54769
7097.78,0.54616
7092,0.55204
7086.21,0.56062
7080.42,0.55460
7074.64,0.55095
7068.85,0.54503
7063.07,0.54449
7057.28,0.54774
7051.49,0.54506
7045.71,0.54852
7039.92,0.55032
7034.13,0.55372
7028.35,0.54387
7022.56,0.55319
7016.78,0.55304
7010.99,0.55387
7005.2,0.55223
6999.42,0.54355
6993.63,0.54983
6987.84,0.54860
6982.06,0.55343
6976.27,0.55487
6970.49,0.55636
6964.7,0.55585
6958.91,0.54990
6953.13,0.55112
6947.34,0.55414
6941.55,0.55520
6935.77,0.55488
6929.98,0.55080
6924.2,0.55199
6918.41,0.55300
6912.62,0.54947
6906.84,0.55654
6901.05,0.55537
6895.26,0.56097
6889.48,0.55679
6883.69,0.55835
6877.91,0.55847
6872.12,0.55826
6866.33,0.55436
6860.55,0.55908
6854.76,0.56159
6848.97,0.55714
6843.19,0.55562
6837.4,0.55677
6831.62,0.56267
6825.83,0.55960
6820.04,0.55698
6814.26,0.56010
6808.47,0.55704
6802.68,0.56118
6796.9,0.55846
6791.11,0.55588
6785.33,0.56061
6779.54,0.55869
6773.75,0.56122
6767.97,0.55842
6762.18,0.55508
6756.39,0.55557
6750.61,0.56192
6744.82,0.55764
6739.04,0.55661
6733.25,0.55995
6727.46,0.56047
6721.68,0.56502
6715.89,0.55977
6710.1,0.56277
6704.32,0.55822
6698.53,0.55850
6692.75,0.55389
6686.96,0.55819
6681.17,0.56034
6675.39,0.55520
6669.6,0.55978
6663.82,0.55219
6658.03,0.55701
6652.24,0.55838
6646.46,0.55500
6640.67,0.55555
6634.88,0.55041
6629.1,0.55622
6623.31,0.55140
6617.53,0.55605
6611.74,0.55662
6605.95,0.55477
6600.17,0.55724
6594.38,0.55813
6588.59,0.55650
6582.81,0.55767
6577.02,0.55533
6571.24,0.54933
6565.45,0.55077
6559.66,0.55186
6553.88,0.55433
6548.09,0.54943
6542.3,0.55115
6536.52,0.55374
6530.73,0.55006
6524.95,0.55180
6519.16,0.55426
6513.37,0.55099
6507.59,0.54820
6501.8,0.55137
6496.01,0.55015
6490.23,0.55232
6484.44,0.55084
6478.66,0.55000
6472.87,0.55667
6467.08,0.55671
6461.3,0.55338
6455.51,0.55877
6449.72,0.55879
6443.94,0.55939
6438.15,0.56044
6432.37,0.56132
6426.58,0.56005
6420.79,0.55954
6415.01,0.55565
6409.22,0.55621
6403.43,0.55748
6397.65,0.55446
6391.86,0.55732
6386.08,0.55776
6380.29,0.55809
6374.5,0.56022
6368.72,0.55759
6362.93,0.55779
6357.14,0.55970
6351.36,0.55531
6345.57,0.55716
6339.79,0.55438
6334,0.55722
6328.21,0.55684
6322.43,0.55498
6316.64,0.55544
6310.85,0.55976
6305.07,0.55862
6299.28,0.55847
6293.5,0.56131
6287.71,0.56223
6281.92,0.55848
6276.14,0.55809
6270.35,0.55713
6264.56,0.55738
6258.78,0.55899
6252.99,0.55332
6247.21,0.55564
6241.42,0.55981
6235.63,0.55283
6229.85,0.55486
6224.06,0.55802
6218.27,0.55578
6212.49,0.55539
6206.7,0.55389
6200.92,0.55315
6195.13,0.54919
6189.34,0.55216
6183.56,0.55327
6177.77,0.55270
6171.98,0.55417
6166.2,0.55238
6160.41,0.55156
6154.63,0.55138
6148.84,0.55047
6143.05,0.54695
6137.27,0.54914
6131.48,0.54988
6125.7,0.55053
6119.91,0.54735
6114.12,0.54572
6108.34,0.53907
6102.55,0.53132
6096.76,0.52594
6090.98,0.52035
6085.19,0.51081
6079.41,0.51098
6073.62,0.50537
6067.83,0.49703
6062.05,0.48735
6056.26,0.47696
6050.47,0.47303
6044.69,0.46764
6038.9,0.45913
6033.12,0.45428
6027.33,0.44626
6021.54,0.44563
6015.76,0.44385
6009.97,0.44630
6004.18,0.45561
5998.4,0.46515
5992.61,0.47132
5986.83,0.47689
5981.04,0.48225
5975.25,0.48388
5969.47,0.49066
5963.68,0.49248
5957.89,0.49271
5952.11,0.49534
5946.32,0.49148
5940.54,0.49349
5934.75,0.49655
5928.96,0.50107
5923.18,0.50309
5917.39,0.50614
5911.6,0.50853
5905.82,0.50907
5900.03,0.50905
5894.25,0.50582
5888.46,0.50076
5882.67,0.49614
5876.89,0.49242
5871.1,0.48995
5865.31,0.48546
5859.53,0.48274
5853.74,0.47894
5847.96,0.47921
5842.17,0.47592
5836.38,0.47632
5830.6,0.47637
5824.81,0.47617
5819.02,0.47413
5813.24,0.47320
5807.45,0.47470
5801.67,0.47211
5795.88,0.47186
5790.09,0.47451
5784.31,0.47529
5778.52,0.47743
5772.73,0.47632
5766.95,0.48133
5761.16,0.48544
5755.38,0.48660
5749.59,0.48914
5743.8,0.48949
5738.02,0.49101
5732.23,0.49159
5726.44,0.49450
5720.66,0.49516
5714.87,0.49599
5709.09,0.49443
5703.3,0.49404
5697.51,0.49679
5691.73,0.49877
5685.94,0.49855
5680.15,0.49917
5674.37,0.50320
5668.58,0.50231
5662.8,0.50576
5657.01,0.50637
5651.22,0.50810
5645.44,0.50982
5639.65,0.51544
5633.87,0.51562
5628.08,0.51776
5622.29,0.52024
5616.51,0.52349
5610.72,0.52185
5604.93,0.52206
5599.15,0.52252
5593.36,0.52283
5587.58,0.52092
5581.79,0.52116
5576,0.52140
5570.22,0.52093
5564.43,0.52009
5558.64,0.52126
5552.86,0.52117
5547.07,0.52157
5541.29,0.52015
5535.5,0.52325
5529.71,0.52203
5523.93,0.52009
5518.14,0.52223
5512.35,0.52138
5506.57,0.52349
5500.78,0.52286
5495,0.52297
5489.21,0.52253
5483.42,0.52232
5477.64,0.52256
5471.85,0.52155
5466.06,0.52525
5460.28,0.52570
5454.49,0.52534
5448.71,0.52782
5442.92,0.52895
5437.13,0.53106
5431.35,0.53223
5425.56,0.53117
5419.77,0.53450
5413.99,0.53432
5408.2,0.53320
5402.42,0.53251
5396.63,0.53312
5390.84,0.53592
5385.06,0.53621
5379.27,0.53560
5373.48,0.53657
5367.7,0.53642
5361.91,0.53630
5356.13,0.53642
5350.34,0.53713
5344.55,0.53581
5338.77,0.53622
5332.98,0.53725
5327.19,0.53906
5321.41,0.53651
5315.62,0.53528
5309.84,0.53473
5304.05,0.53417
5298.26,0.53305
5292.48,0.53188
5286.69,0.52717
5280.9,0.52378
5275.12,0.52344
5269.33,0.51982
5263.55,0.51644
5257.76,0.51417
5251.97,0.51276
5246.19,0.50938
5240.4,0.50994
5234.61,0.50981
5228.83,0.50911
5223.04,0.50845
5217.26,0.50848
5211.47,0.50974
5205.68,0.50959
5199.9,0.50919
5194.11,0.50990
5188.32,0.51015
5182.54,0.50984
5176.75,0.50924
5170.97,0.50782
5165.18,0.50631
5159.39,0.50471
5153.61,0.50214
5147.82,0.50195
5142.03,0.50010
5136.25,0.50011
5130.46,0.49931
5124.68,0.49887
5118.89,0.49757
5113.1,0.49919
5107.32,0.50157
5101.53,0.50618
5095.75,0.50842
5089.96,0.51066
5084.17,0.51304
5078.39,0.51401
5072.6,0.51658
5066.81,0.51641
5061.03,0.51742
5055.24,0.51767
5049.46,0.51947
5043.67,0.52044
5037.88,0.51940
5032.1,0.52046
5026.31,0.51955
5020.52,0.51963
5014.74,0.51871
5008.95,0.51784
5003.17,0.51727
4997.38,0.51557
4991.59,0.51437
4985.81,0.51251
4980.02,0.51093
4974.23,0.50837
4968.45,0.50765
4962.66,0.50617
4956.88,0.50474
4951.09,0.50422
4945.3,0.50423
4939.52,0.50219
4933.73,0.50134
4927.94,0.50015
4922.16,0.49722
4916.37,0.49448
4910.59,0.48932
4904.8,0.48517
4899.01,0.47980
4893.23,0.47289
4887.44,0.46852
4881.65,0.46355
4875.87,0.46097
4870.08,0.45936
4864.3,0.46252
4858.51,0.46944
4852.72,0.47498
4846.94,0.48009
4841.15,0.48377
4835.36,0.48522
4829.58,0.48602
4823.79,0.48618
4818.01,0.48573
4812.22,0.48336
4806.43,0.48186
4800.65,0.47999
4794.86,0.47819
4789.07,0.47873
4783.29,0.48016
4777.5,0.48160
4771.72,0.48126
4765.93,0.48249
4760.14,0.48045
4754.36,0.47615
4748.57,0.46980
4742.78,0.46460
4737,0.45907
4731.21,0.44959
4725.43,0.43803
4719.64,0.42927
4713.85,0.42621
4708.07,0.42116
4702.28,0.41213
4696.49,0.39955
4690.71,0.39121
4684.92,0.39281
4679.14,0.40457
4673.35,0.41827
4667.56,0.42946
4661.78,0.43164
4655.99,0.43211
4650.2,0.42855
4644.42,0.41927
4638.63,0.40648
4632.85,0.40189
4627.06,0.41035
4621.27,0.42380
4615.49,0.43423
4609.7,0.43778
4603.92,0.43651
4598.13,0.43097
4592.34,0.42395
4586.56,0.41850
4580.77,0.41422
4574.98,0.41645
4569.2,0.42611
4563.41,0.43712
4557.63,0.44195
4551.84,0.44282
4546.05,0.44396
4540.27,0.44391
4534.48,0.44343
4528.69,0.44326
4522.91,0.44124
4517.12,0.43911
4511.34,0.43617
4505.55,0.43111
4499.76,0.42164
4493.98,0.40952
4488.19,0.40078
4482.4,0.39473
4476.62,0.38810
4470.83,0.37951
4465.05,0.36283
4459.26,0.34746
4453.47,0.33989
4447.69,0.33246
4441.9,0.32362
4436.11,0.31575
4430.33,0.31205
4424.54,0.31238
4418.76,0.31484
4412.97,0.31525
4407.18,0.31268
4401.4,0.31137
4395.61,0.31319
4389.82,0.31684
4384.04,0.31683
4378.25,0.31315
4372.47,0.30827
4366.68,0.30249
4360.89,0.30007
4355.11,0.29929
4349.32,0.29975
4343.53,0.30006
4337.75,0.30091
4331.96,0.30256
4326.18,0.30178
4320.39,0.30196
4314.6,0.30561
4308.82,0.30562
4303.03,0.30262
4297.24,0.29841
4291.46,0.29495
4285.67,0.29394
4279.89,0.29213
4274.1,0.29040
4268.31,0.28903
4262.53,0.28953
4256.74,0.29004
4250.95,0.28897
4245.17,0.29070
4239.38,0.29390
4233.6,0.29599
4227.81,0.29583
4222.02,0.29665
4216.24,0.29990
4210.45,0.30410
4204.66,0.30586
4198.88,0.30644
4193.09,0.30733
4187.31,0.30563
4181.52,0.30165
4175.73,0.29922
4169.95,0.30421
4164.16,0.31243
4158.37,0.31931
4152.59,0.32332
4146.8,0.32485
4141.02,0.32311
4135.23,0.31935
4129.44,0.31643
4123.66,0.31484
4117.87,0.31119
4112.09,0.30540
4106.3,0.29644
4100.51,0.28381
4094.73,0.26501
4088.94,0.25487
4083.15,0.26110
4077.37,0.27838
4071.58,0.29517
4065.8,0.30475
4060.01,0.31087
4054.22,0.31338
4048.44,0.31618
4042.65,0.31969
4036.86,0.32281
4031.08,0.32433
4025.29,0.32505
4019.51,0.32510
4013.72,0.32583
4007.93,0.32554
4002.15,0.32547
3996.36,0.32798
3990.57,0.33085
3984.79,0.33444
3979,0.33845
3973.22,0.34290
3967.43,0.34833
3961.64,0.35285
3955.86,0.35680
3950.07,0.35983
3944.28,0.36314
3938.5,0.36564
3932.71,0.36712
3926.93,0.36748
3921.14,0.36860
3915.35,0.37177
3909.57,0.37469
3903.78,0.38008
3897.99,0.38449
3892.21,0.38736
3886.42,0.38937
3880.64,0.39052
3874.85,0.39277
3869.06,0.39582
3863.28,0.39607
3857.49,0.39675
3851.7,0.39795
3845.92,0.39706
3840.13,0.39794
3834.35,0.39849
3828.56,0.39890
3822.77,0.39897
3816.99,0.39693
3811.2,0.39273
3805.41,0.39192
3799.63,0.39521
3793.84,0.39881
3788.06,0.40157
3782.27,0.40204
3776.48,0.40038
3770.7,0.39710
3764.91,0.39331
3759.12,0.38850
3753.34,0.39169
3747.55,0.40075
3741.77,0.40336
3735.98,0.40009
3730.19,0.39675
3724.41,0.40097
3718.62,0.40293
3712.83,0.39934
3707.05,0.39212
3701.26,0.38018
3695.48,0.36249
3689.69,0.33892
3683.9,0.31706
3678.12,0.31427
3672.33,0.30764
3666.54,0.29523
3660.76,0.28189
3654.97,0.26755
3649.19,0.25599
3643.4,0.24392
3637.61,0.23621
3631.83,0.22918
3626.04,0.22470
3620.25,0.22045
3614.47,0.21699
3608.68,0.21271
3602.9,0.20851
3597.11,0.20480
3591.32,0.19891
3585.54,0.19118
3579.75,0.18249
3573.97,0.17427
3568.18,0.16639
3562.39,0.16038
3556.61,0.15490
3550.82,0.15160
3545.03,0.14945
3539.25,0.14922
3533.46,0.14789
3527.68,0.14800
3521.89,0.14886
3516.1,0.14943
3510.32,0.14953
3504.53,0.15032
3498.74,0.15047
3492.96,0.15115
3487.17,0.15015
3481.39,0.14900
3475.6,0.14678
3469.81,0.14384
3464.03,0.13920
3458.24,0.13339
3452.45,0.12668
3446.67,0.11846
3440.88,0.11071
3435.1,0.10447
3429.31,0.10350
3423.52,0.11026
3417.74,0.11977
3411.95,0.12853
3406.16,0.13475
3400.38,0.13913
3394.59,0.13950
3388.81,0.14057
3383.02,0.13924
3377.23,0.13776
3371.45,0.13467
3365.66,0.13261
3359.87,0.12915
3354.09,0.12591
3348.3,0.12135
3342.52,0.11826
3336.73,0.11700
3330.94,0.11640
3325.16,0.11790
3319.37,0.11848
3313.58,0.11881
3307.8,0.11982
3302.01,0.11927
3296.23,0.11912
3290.44,0.12121
3284.65,0.12246
3278.87,0.12311
3273.08,0.12330
3267.29,0.12459
3261.51,0.12514
3255.72,0.12624
3249.94,0.12642
3244.15,0.12740
3238.36,0.12886
3232.58,0.12968
3226.79,0.13160
3221,0.13374
3215.22,0.13533
3209.43,0.13594
3203.65,0.13628
3197.86,0.13724
3192.07,0.13757
3186.29,0.13948
3180.5,0.14095
3174.71,0.14276
3168.93,0.14490
3163.14,0.14595
3157.36,0.14720
3151.57,0.14723
3145.78,0.14560
3140,0.14319
3134.21,0.13818
3128.42,0.13288
3122.64,0.13149
3116.85,0.12842
3111.07,0.12031
3105.28,0.11128
3099.49,0.10983
3093.71,0.11114
3087.92,0.10608
3082.14,0.10027
3076.35,0.09937
3070.56,0.09860
3064.78,0.09958
3058.99,0.09910
3053.2,0.09802
3047.42,0.11327
3041.63,0.12759
3035.85,0.13142
3030.06,0.12844
3024.27,0.12133
3018.49,0.10864
3012.7,0.09794
3006.91,0.09268
3001.13,0.08706
2995.34,0.08111
2989.56,0.07299
2983.77,0.06381
2977.98,0.05374
2972.2,0.04612
2966.41,0.04343
2960.62,0.04403
2954.84,0.04610
2949.05,0.05058
2943.27,0.05763
2937.48,0.06535
2931.69,0.06921
2925.91,0.06928
2920.12,0.06658
2914.33,0.06231
2908.55,0.05934
2902.76,0.06364
2896.98,0.06852
2891.19,0.07054
2885.4,0.07289
2879.62,0.07563
2873.83,0.07738
2868.04,0.07854
2862.26,0.08068
2856.47,0.08317
2850.69,0.08886
2844.9,0.10313
2839.11,0.11910
2833.33,0.13038
2827.54,0.13897
2821.75,0.14603
2815.97,0.15011
2810.18,0.15314
2804.4,0.15685
2798.61,0.16445
2792.82,0.17155
2787.04,0.17897
2781.25,0.18539
2775.46,0.19018
2769.68,0.19336
2763.89,0.19574
2758.11,0.19784
2752.32,0.19972
2746.53,0.20079
2740.75,0.20395
2734.96,0.20914
2729.17,0.21617
2723.39,0.22216
2717.6,0.22810
2711.82,0.23284
2706.03,0.23775
2700.24,0.24126
2694.46,0.24415
2688.67,0.24592
2682.88,0.24726
2677.1,0.24924
2671.31,0.25187
2665.53,0.25376
2659.74,0.25392
2653.95,0.25383
2648.17,0.25405
2642.38,0.25141
2636.59,0.24557
2630.81,0.24081
2625.02,0.24167
2619.24,0.24497
2613.45,0.24522
2607.66,0.24532
2601.88,0.24392
2596.09,0.24068
2590.3,0.23642
2584.52,0.23313
2578.73,0.23370
2572.95,0.23594
2567.16,0.23746
2561.37,0.23723
2555.59,0.23791
2549.8,0.23799
2544.02,0.23815
2538.23,0.23901
2532.44,0.23996
2526.66,0.24253
2520.87,0.24728
2515.08,0.25180
2509.3,0.25486
2503.51,0.25755
2497.73,0.26064
2491.94,0.26582
2486.15,0.27119
2480.37,0.27717
2474.58,0.28254
2468.79,0.28788
2463.01,0.29233
2457.22,0.29520
2451.44,0.29610
2445.65,0.29429
2439.86,0.29070
2434.08,0.28384
2428.29,0.27695
2422.5,0.26929
2416.72,0.26234
2410.93,0.25564
2405.15,0.24999
2399.36,0.24557
2393.57,0.24186
2387.79,0.24039
2382,0.24236
2376.21,0.24701
2370.43,0.25418
2364.64,0.26282
2358.86,0.27274
2353.07,0.28045
2347.28,0.28611
2341.5,0.29262
2335.71,0.29428
2329.92,0.29437
2324.14,0.29385
2318.35,0.29896
2312.57,0.30200
2306.78,0.29898
2300.99,0.29029
2295.21,0.27807
2289.42,0.26609
2283.63,0.26171
2277.85,0.26493
2272.06,0.26692
2266.28,0.26341
2260.49,0.25529
2254.7,0.23989
2248.92,0.21827
2243.13,0.20839
2237.34,0.22739
2231.56,0.26572
2225.77,0.28274
2219.99,0.28643
2214.2,0.28803
2208.41,0.29122
2202.63,0.29721
2196.84,0.29904
2191.05,0.29755
2185.27,0.29592
2179.48,0.29302
2173.7,0.28756
2167.91,0.27898
2162.12,0.26855
2156.34,0.25798
2150.55,0.24949
2144.76,0.24391
2138.98,0.23971
2133.19,0.23563
2127.41,0.23105
2121.62,0.22569
2115.83,0.22210
2110.05,0.22067
2104.26,0.22185
2098.47,0.22408
2092.69,0.22749
2086.9,0.23370
2081.12,0.24133
2075.33,0.25061
2069.54,0.26126
2063.76,0.27208
2057.97,0.28301
2052.19,0.29163
2046.4,0.29683
2040.61,0.29904
2034.83,0.29814
2029.04,0.29391
2023.25,0.28730
2017.47,0.28029
2011.68,0.27264
2005.9,0.26305
2000.11,0.25239
1994.32,0.24079
1988.54,0.23034
1982.75,0.22145
1976.96,0.21175
1971.18,0.19860
1965.39,0.18056
1959.61,0.16773
1953.82,0.16903
1948.03,0.17646
1942.25,0.19025
1936.46,0.20622
1930.67,0.22090
1924.89,0.23272
1919.1,0.24188
1913.32,0.24952
1907.53,0.25535
1901.74,0.26014
1895.96,0.26453
1890.17,0.26792
1884.38,0.26862
1878.6,0.26732
1872.81,0.26267
1867.03,0.25448
1861.24,0.24341
1855.45,0.22715
1849.67,0.20735
1843.88,0.18820
1838.09,0.17161
1832.31,0.15845
1826.52,0.14925
1820.74,0.14465
1814.95,0.14294
1809.16,0.14008
1803.38,0.13708
1797.59,0.13291
1791.8,0.12667
1786.02,0.11859
1780.23,0.10918
1774.45,0.09928
1768.66,0.08680
1762.87,0.07339
1757.09,0.05817
1751.3,0.04414
1745.51,0.03355
1739.73,0.03124
1733.94,0.03417
1728.16,0.03953
1722.37,0.04395
1716.58,0.04641
1710.8,0.04330
1705.01,0.04290
1699.22,0.04704
1693.44,0.05032
1687.65,0.05134
1681.87,0.05096
1676.08,0.05478
1670.29,0.05968
1664.51,0.06734
1658.72,0.07528
1652.93,0.08178
1647.15,0.08596
1641.36,0.08942
1635.58,0.09180
1629.79,0.09243
1624,0.09206
1618.22,0.08667
1612.43,0.08138
1606.64,0.09241
1600.86,0.10250
1595.07,0.10527
1589.29,0.09682
1583.5,0.07438
1577.71,0.05839
1571.93,0.07316
1566.14,0.08650
1560.35,0.09199
1554.57,0.09396
1548.78,0.09654
1543,0.10016
1537.21,0.09880
1531.42,0.09211
1525.64,0.08608
1519.85,0.08600
1514.07,0.07858
1508.28,0.05422
1502.49,0.05120
1496.71,0.08361
1490.92,0.09273
1485.13,0.07893
1479.35,0.06036
1473.56,0.04700
1467.78,0.04361
1461.99,0.03861
1456.2,0.03397
1450.42,0.03440
1444.63,0.03717
1438.84,0.04061
1433.06,0.04816
1427.27,0.05392
1421.49,0.04716
1415.7,0.03209
1409.91,0.02984
1404.13,0.03399
1398.34,0.03854
1392.55,0.04053
1386.77,0.03923
1380.98,0.03540
1375.2,0.03272
1369.41,0.03223
1363.62,0.03663
1357.84,0.03949
1352.05,0.03691
1346.26,0.03344
1340.48,0.03316
1334.69,0.03520
1328.91,0.03665
1323.12,0.03335
1317.33,0.02980
1311.55,0.02703
1305.76,0.02534
1299.97,0.02571
1294.19,0.02681
1288.4,0.02999
1282.62,0.03328
1276.83,0.03723
1271.04,0.04153
1265.26,0.04461
1259.47,0.04471
1253.68,0.04570
1247.9,0.04598
1242.11,0.04576
1236.33,0.04381
1230.54,0.04467
1224.75,0.04744
1218.97,0.05227
1213.18,0.05683
1207.39,0.05909
1201.61,0.06299
1195.82,0.06848
1190.04,0.07040
1184.25,0.06245
1178.46,0.05080
1172.68,0.04923
1166.89,0.05298
1161.1,0.05142
1155.32,0.04424
1149.53,0.03651
1143.75,0.03270
1137.96,0.03231
1132.17,0.03687
1126.39,0.04047
1120.6,0.04131
1114.81,0.04073
1109.03,0.04111
1103.24,0.04328
1097.46,0.04464
1091.67,0.04522
1085.88,0.04522
1080.1,0.05020
1074.31,0.06080
1068.52,0.07053
1062.74,0.07645
1056.95,0.07375
1051.17,0.06425
1045.38,0.05775
1039.59,0.05748
1033.81,0.05900
1028.02,0.05420
1022.24,0.04828
1016.45,0.05147
1010.66,0.07988
1004.88,0.11164
999.09,0.12224
993.304,0.12228
987.518,0.11099
981.731,0.09873
975.945,0.08162
970.159,0.08153
964.373,0.10191
958.586,0.12550
952.8,0.14058
947.014,0.14682
941.228,0.14260
935.441,0.13590
929.655,0.14345
923.869,0.15144
918.083,0.14779
912.297,0.13060
906.51,0.10222
900.724,0.08814
894.938,0.08820
889.152,0.08787
883.365,0.07695
877.579,0.06185
871.793,0.06107
866.007,0.08419
860.22,0.09062
854.434,0.08101
848.648,0.07421
842.862,0.08123
837.075,0.09530
831.289,0.11081
825.503,0.12082
819.717,0.12238
813.931,0.11774
808.144,0.11375
802.358,0.11200
796.572,0.09456
790.786,0.09055
784.999,0.11584
779.213,0.12965
773.427,0.13437
767.641,0.13599
761.854,0.13378
756.068,0.12209
750.282,0.10635
744.496,0.07374
738.709,0.03940
732.923,0.03243
727.137,0.04007
721.351,0.05227
715.565,0.08220
709.778,0.09576
703.992,0.10453
698.206,0.12868
692.42,0.14281
686.633,0.14133
680.847,0.13346
675.061,0.14409
669.275,0.15580
663.488,0.16189
657.702,0.16664
651.916,0.16932
646.13,0.17182
640.343,0.16917
634.557,0.15175
628.771,0.15000
622.985,0.16844
617.198,0.17291
611.412,0.17386
605.626,0.17380
599.84,0.17367