File: 01_Data/Cotton_Batting/FTIR/IS/Cotton_Batting_IS_S_220912_R4.dpt
7497.03,0.58395
7491.25,0.57741
7485.46,0.57301
7479.67,0.57607
7473.89,0.57849
7468.1,0.57577
7462.32,0.58155
7456.53,0.56425
7450.74,0.58023
7444.96,0.56988
7439.17,0.57487
7433.38,0.56083
7427.6,0.57754
7421.81,0.56440
7416.03,0.56811
7410.24,0.56427
7404.45,0.56938
7398.67,0.56842
7392.88,0.57062
7387.09,0.57250
7381.31,0.56776
7375.52,0.57405
7369.74,0.56458
7363.95,0.56219
7358.16,0.55978
7352.38,0.56508
7346.59,0.56434
7340.8,0.56140
7335.02,0.56789
7329.23,0.55271
7323.45,0.55874
7317.66,0.56036
7311.87,0.56050
7306.09,0.57013
7300.3,0.56923
7294.51,0.57076
7288.73,0.56431
7282.94,0.55560
7277.16,0.56282
7271.37,0.55177
7265.58,0.55865
7259.8,0.55679
7254.01,0.55498
7248.22,0.55839
7242.44,0.55706
7236.65,0.55400
7230.87,0.55282
7225.08,0.55430
7219.29,0.56396
7213.51,0.55830
7207.72,0.55611
7201.93,0.55364
7196.15,0.55636
7190.36,0.55661
7184.58,0.55382
7178.79,0.55225
7173,0.55628
7167.22,0.55795
7161.43,0.56001
7155.65,0.55271
7149.86,0.55437
7144.07,0.55185
7138.29,0.54667
7132.5,0.55817
7126.71,0.55968
7120.93,0.54832
7115.14,0.55534
7109.36,0.55282
7103.57,0.55083
7097.78,0.54447
7092,0.55878
7086.21,0.55722
7080.42,0.55644
7074.64,0.54989
7068.85,0.54757
7063.07,0.55570
7057.28,0.55708
7051.49,0.55343
7045.71,0.55132
7039.92,0.55889
7034.13,0.55434
7028.35,0.55070
7022.56,0.54498
7016.78,0.55400
7010.99,0.56277
7005.2,0.55018
6999.42,0.55378
6993.63,0.55447
6987.84,0.55566
6982.06,0.54913
6976.27,0.55532
6970.49,0.55828
6964.7,0.55785
6958.91,0.55572
6953.13,0.55392
6947.34,0.55831
6941.55,0.55463
6935.77,0.55345
6929.98,0.56148
6924.2,0.56290
6918.41,0.55406
6912.62,0.55921
6906.84,0.55981
6901.05,0.56064
6895.26,0.56144
6889.48,0.56204
6883.69,0.55578
6877.91,0.55594
6872.12,0.55860
6866.33,0.55566
6860.55,0.55668
6854.76,0.56078
6848.97,0.55916
6843.19,0.56268
6837.4,0.56404
6831.62,0.55910
6825.83,0.55891
6820.04,0.56148
6814.26,0.56127
6808.47,0.55845
6802.68,0.56053
6796.9,0.56108
6791.11,0.56603
6785.33,0.56134
6779.54,0.56031
6773.75,0.55837
6767.97,0.56051
6762.18,0.56013
6756.39,0.55728
6750.61,0.55789
6744.82,0.55432
6739.04,0.55441
6733.25,0.55784
6727.46,0.56386
6721.68,0.56072
6715.89,0.56020
6710.1,0.56324
6704.32,0.56025
6698.53,0.55620
6692.75,0.55660
6686.96,0.55404
6681.17,0.55883
6675.39,0.55935
6669.6,0.55969
6663.82,0.55833
6658.03,0.55664
6652.24,0.55860
6646.46,0.55718
6640.67,0.55697
6634.88,0.55764
6629.1,0.55863
6623.31,0.56060
6617.53,0.55703
6611.74,0.55476
6605.95,0.55044
6600.17,0.55278
6594.38,0.55639
6588.59,0.55425
6582.81,0.55544
6577.02,0.55593
6571.24,0.55628
6565.45,0.55522
6559.66,0.55657
6553.88,0.55461
6548.09,0.55288
6542.3,0.55474
6536.52,0.55309
6530.73,0.55278
6524.95,0.55343
6519.16,0.55516
6513.37,0.55283
6507.59,0.55364
6501.8,0.55515
6496.01,0.55553
6490.23,0.54920
6484.44,0.55414
6478.66,0.55468
6472.87,0.56027
6467.08,0.55508
6461.3,0.55947
6455.51,0.56246
6449.72,0.55921
6443.94,0.55973
6438.15,0.56093
6432.37,0.56204
6426.58,0.55903
6420.79,0.56385
6415.01,0.56521
6409.22,0.56421
6403.43,0.55940
6397.65,0.56262
6391.86,0.55888
6386.08,0.56258
6380.29,0.56302
6374.5,0.55840
6368.72,0.55779
6362.93,0.55941
6357.14,0.55582
6351.36,0.55935
6345.57,0.56042
6339.79,0.55728
6334,0.55953
6328.21,0.55922
6322.43,0.56026
6316.64,0.55811
6310.85,0.55985
6305.07,0.56052
6299.28,0.56280
6293.5,0.56194
6287.71,0.56098
6281.92,0.56135
6276.14,0.56074
6270.35,0.55572
6264.56,0.55837
6258.78,0.55858
6252.99,0.55311
6247.21,0.55595
6241.42,0.55786
6235.63,0.55822
6229.85,0.55749
6224.06,0.56320
6218.27,0.55915
6212.49,0.55835
6206.7,0.55361
6200.92,0.54871
6195.13,0.55127
6189.34,0.55049
6183.56,0.55300
6177.77,0.55201
6171.98,0.55479
6166.2,0.55656
6160.41,0.55356
6154.63,0.55148
6148.84,0.55154
6143.05,0.55159
6137.27,0.55163
6131.48,0.55116
6125.7,0.55045
6119.91,0.55076
6114.12,0.54432
6108.34,0.54204
6102.55,0.53348
6096.76,0.52811
6090.98,0.51924
6085.19,0.51322
6079.41,0.50697
6073.62,0.50411
6067.83,0.49653
6062.05,0.48859
6056.26,0.47865
6050.47,0.47344
6044.69,0.46739
6038.9,0.46153
6033.12,0.45681
6027.33,0.44783
6021.54,0.44352
6015.76,0.44222
6009.97,0.44944
6004.18,0.45443
5998.4,0.46352
5992.61,0.47598
5986.83,0.48143
5981.04,0.48374
5975.25,0.48435
5969.47,0.48876
5963.68,0.49310
5957.89,0.49214
5952.11,0.49453
5946.32,0.49682
5940.54,0.49343
5934.75,0.49770
5928.96,0.50073
5923.18,0.50335
5917.39,0.50869
5911.6,0.51055
5905.82,0.50922
5900.03,0.50799
5894.25,0.50728
5888.46,0.50150
5882.67,0.49748
5876.89,0.49358
5871.1,0.49060
5865.31,0.48613
5859.53,0.48107
5853.74,0.48224
5847.96,0.47938
5842.17,0.47718
5836.38,0.47858
5830.6,0.47740
5824.81,0.47412
5819.02,0.47350
5813.24,0.47445
5807.45,0.47202
5801.67,0.47608
5795.88,0.47510
5790.09,0.47512
5784.31,0.47592
5778.52,0.47688
5772.73,0.47844
5766.95,0.48201
5761.16,0.48610
5755.38,0.48728
5749.59,0.49126
5743.8,0.49159
5738.02,0.49455
5732.23,0.49410
5726.44,0.49527
5720.66,0.49413
5714.87,0.49487
5709.09,0.49532
5703.3,0.49688
5697.51,0.49745
5691.73,0.49788
5685.94,0.49889
5680.15,0.50322
5674.37,0.50392
5668.58,0.50796
5662.8,0.50663
5657.01,0.50572
5651.22,0.51055
5645.44,0.51227
5639.65,0.51371
5633.87,0.51511
5628.08,0.52097
5622.29,0.52149
5616.51,0.52223
5610.72,0.52247
5604.93,0.52278
5599.15,0.52317
5593.36,0.52263
5587.58,0.52280
5581.79,0.52251
5576,0.52262
5570.22,0.52211
5564.43,0.52046
5558.64,0.52085
5552.86,0.52281
5547.07,0.52345
5541.29,0.52223
5535.5,0.52370
5529.71,0.52156
5523.93,0.52414
5518.14,0.52298
5512.35,0.52506
5506.57,0.52597
5500.78,0.52532
5495,0.52429
5489.21,0.52331
5483.42,0.52413
5477.64,0.52348
5471.85,0.52442
5466.06,0.52531
5460.28,0.52521
5454.49,0.52773
5448.71,0.52969
5442.92,0.53088
5437.13,0.53178
5431.35,0.53436
5425.56,0.53438
5419.77,0.53477
5413.99,0.53440
5408.2,0.53477
5402.42,0.53452
5396.63,0.53505
5390.84,0.53668
5385.06,0.53676
5379.27,0.53911
5373.48,0.53802
5367.7,0.53905
5361.91,0.53900
5356.13,0.54040
5350.34,0.53840
5344.55,0.53914
5338.77,0.53794
5332.98,0.54026
5327.19,0.54114
5321.41,0.54029
5315.62,0.54013
5309.84,0.54051
5304.05,0.53829
5298.26,0.53720
5292.48,0.53731
5286.69,0.53482
5280.9,0.53254
5275.12,0.53146
5269.33,0.52867
5263.55,0.52698
5257.76,0.52557
5251.97,0.52581
5246.19,0.52538
5240.4,0.52300
5234.61,0.52367
5228.83,0.52347
5223.04,0.52385
5217.26,0.52402
5211.47,0.52346
5205.68,0.52370
5199.9,0.52309
5194.11,0.52255
5188.32,0.52178
5182.54,0.52188
5176.75,0.52023
5170.97,0.52012
5165.18,0.51902
5159.39,0.51866
5153.61,0.51581
5147.82,0.51493
5142.03,0.51420
5136.25,0.51316
5130.46,0.51158
5124.68,0.51053
5118.89,0.50860
5113.1,0.50957
5107.32,0.51385
5101.53,0.51687
5095.75,0.51823
5089.96,0.52141
5084.17,0.52285
5078.39,0.52494
5072.6,0.52506
5066.81,0.52622
5061.03,0.52629
5055.24,0.52751
5049.46,0.52718
5043.67,0.52719
5037.88,0.52651
5032.1,0.52819
5026.31,0.52794
5020.52,0.52488
5014.74,0.52580
5008.95,0.52445
5003.17,0.52294
4997.38,0.52227
4991.59,0.52052
4985.81,0.51748
4980.02,0.51546
4974.23,0.51244
4968.45,0.51102
4962.66,0.50962
4956.88,0.50854
4951.09,0.50832
4945.3,0.50702
4939.52,0.50651
4933.73,0.50470
4927.94,0.50373
4922.16,0.50122
4916.37,0.49782
4910.59,0.49315
4904.8,0.48833
4899.01,0.48192
4893.23,0.47627
4887.44,0.47038
4881.65,0.46667
4875.87,0.46271
4870.08,0.46174
4864.3,0.46521
4858.51,0.47123
4852.72,0.47706
4846.94,0.48232
4841.15,0.48624
4835.36,0.48765
4829.58,0.48961
4823.79,0.48784
4818.01,0.48629
4812.22,0.48587
4806.43,0.48491
4800.65,0.48237
4794.86,0.48106
4789.07,0.48120
4783.29,0.48287
4777.5,0.48565
4771.72,0.48469
4765.93,0.48500
4760.14,0.48207
4754.36,0.47804
4748.57,0.47221
4742.78,0.46708
4737,0.45997
4731.21,0.45140
4725.43,0.43982
4719.64,0.43035
4713.85,0.42710
4708.07,0.42438
4702.28,0.41365
4696.49,0.39972
4690.71,0.39152
4684.92,0.39316
4679.14,0.40638
4673.35,0.42011
4667.56,0.42868
4661.78,0.43281
4655.99,0.43400
4650.2,0.43042
4644.42,0.42070
4638.63,0.40921
4632.85,0.40260
4627.06,0.41102
4621.27,0.42613
4615.49,0.43644
4609.7,0.43950
4603.92,0.43767
4598.13,0.43217
4592.34,0.42526
4586.56,0.41950
4580.77,0.41507
4574.98,0.41745
4569.2,0.42914
4563.41,0.43860
4557.63,0.44264
4551.84,0.44419
4546.05,0.44450
4540.27,0.44489
4534.48,0.44502
4528.69,0.44472
4522.91,0.44312
4517.12,0.44088
4511.34,0.43854
4505.55,0.43134
4499.76,0.42318
4493.98,0.41028
4488.19,0.40205
4482.4,0.39597
4476.62,0.38969
4470.83,0.38009
4465.05,0.36407
4459.26,0.34881
4453.47,0.34045
4447.69,0.33408
4441.9,0.32444
4436.11,0.31626
4430.33,0.31222
4424.54,0.31243
4418.76,0.31502
4412.97,0.31515
4407.18,0.31250
4401.4,0.31253
4395.61,0.31405
4389.82,0.31581
4384.04,0.31653
4378.25,0.31426
4372.47,0.30998
4366.68,0.30433
4360.89,0.30048
4355.11,0.29967
4349.32,0.29933
4343.53,0.30083
4337.75,0.30173
4331.96,0.30319
4326.18,0.30244
4320.39,0.30261
4314.6,0.30682
4308.82,0.30618
4303.03,0.30360
4297.24,0.29937
4291.46,0.29658
4285.67,0.29438
4279.89,0.29357
4274.1,0.29125
4268.31,0.28944
4262.53,0.29035
4256.74,0.29044
4250.95,0.28959
4245.17,0.29106
4239.38,0.29376
4233.6,0.29681
4227.81,0.29673
4222.02,0.29746
4216.24,0.30023
4210.45,0.30429
4204.66,0.30615
4198.88,0.30816
4193.09,0.30848
4187.31,0.30694
4181.52,0.30284
4175.73,0.30039
4169.95,0.30615
4164.16,0.31360
4158.37,0.32003
4152.59,0.32369
4146.8,0.32551
4141.02,0.32448
4135.23,0.32026
4129.44,0.31776
4123.66,0.31539
4117.87,0.31154
4112.09,0.30660
4106.3,0.29783
4100.51,0.28570
4094.73,0.26655
4088.94,0.25639
4083.15,0.26170
4077.37,0.27920
4071.58,0.29677
4065.8,0.30692
4060.01,0.31240
4054.22,0.31603
4048.44,0.31885
4042.65,0.32216
4036.86,0.32526
4031.08,0.32702
4025.29,0.32727
4019.51,0.32763
4013.72,0.32748
4007.93,0.32777
4002.15,0.32861
3996.36,0.33059
3990.57,0.33379
3984.79,0.33722
3979,0.34135
3973.22,0.34537
3967.43,0.35030
3961.64,0.35483
3955.86,0.35988
3950.07,0.36399
3944.28,0.36657
3938.5,0.36903
3932.71,0.37063
3926.93,0.37060
3921.14,0.37199
3915.35,0.37397
3909.57,0.37823
3903.78,0.38353
3897.99,0.38768
3892.21,0.39113
3886.42,0.39257
3880.64,0.39455
3874.85,0.39618
3869.06,0.39915
3863.28,0.40005
3857.49,0.40103
3851.7,0.40122
3845.92,0.40160
3840.13,0.40094
3834.35,0.40205
3828.56,0.40329
3822.77,0.40296
3816.99,0.40066
3811.2,0.39704
3805.41,0.39673
3799.63,0.40002
3793.84,0.40471
3788.06,0.40682
3782.27,0.40859
3776.48,0.40722
3770.7,0.40380
3764.91,0.39924
3759.12,0.39564
3753.34,0.39839
3747.55,0.40837
3741.77,0.41206
3735.98,0.40875
3730.19,0.40664
3724.41,0.41164
3718.62,0.41440
3712.83,0.41256
3707.05,0.40648
3701.26,0.39644
3695.48,0.38109
3689.69,0.35847
3683.9,0.34376
3678.12,0.34881
3672.33,0.35246
3666.54,0.34712
3660.76,0.33791
3654.97,0.32664
3649.19,0.31577
3643.4,0.30478
3637.61,0.29630
3631.83,0.28867
3626.04,0.28169
3620.25,0.27557
3614.47,0.26899
3608.68,0.26317
3602.9,0.25641
3597.11,0.24967
3591.32,0.24177
3585.54,0.23180
3579.75,0.22180
3573.97,0.21201
3568.18,0.20322
3562.39,0.19518
3556.61,0.18797
3550.82,0.18425
3545.03,0.18123
3539.25,0.17967
3533.46,0.17889
3527.68,0.17794
3521.89,0.17841
3516.1,0.17835
3510.32,0.17864
3504.53,0.17883
3498.74,0.17824
3492.96,0.17826
3487.17,0.17777
3481.39,0.17521
3475.6,0.17201
3469.81,0.16752
3464.03,0.16097
3458.24,0.15230
3452.45,0.14307
3446.67,0.13204
3440.88,0.12298
3435.1,0.11540
3429.31,0.11318
3423.52,0.12101
3417.74,0.13190
3411.95,0.14204
3406.16,0.14880
3400.38,0.15243
3394.59,0.15283
3388.81,0.15049
3383.02,0.14834
3377.23,0.14483
3371.45,0.14116
3365.66,0.13686
3359.87,0.13294
3354.09,0.12775
3348.3,0.12412
3342.52,0.11987
3336.73,0.11775
3330.94,0.11816
3325.16,0.12012
3319.37,0.12048
3313.58,0.12088
3307.8,0.12116
3302.01,0.12098
3296.23,0.12118
3290.44,0.12235
3284.65,0.12365
3278.87,0.12455
3273.08,0.12493
3267.29,0.12630
3261.51,0.12752
3255.72,0.12878
3249.94,0.13058
3244.15,0.13207
3238.36,0.13207
3232.58,0.13375
3226.79,0.13567
3221,0.13753
3215.22,0.13955
3209.43,0.13993
3203.65,0.14067
3197.86,0.14053
3192.07,0.14181
3186.29,0.14290
3180.5,0.14603
3174.71,0.14870
3168.93,0.15074
3163.14,0.15206
3157.36,0.15256
3151.57,0.15244
3145.78,0.15076
3140,0.14787
3134.21,0.14246
3128.42,0.13752
3122.64,0.13546
3116.85,0.13239
3111.07,0.12343
3105.28,0.11413
3099.49,0.11214
3093.71,0.11350
3087.92,0.10835
3082.14,0.10171
3076.35,0.10063
3070.56,0.09995
3064.78,0.10071
3058.99,0.10009
3053.2,0.09978
3047.42,0.11505
3041.63,0.12999
3035.85,0.13401
3030.06,0.13167
3024.27,0.12314
3018.49,0.11079
3012.7,0.09953
3006.91,0.09421
3001.13,0.08793
2995.34,0.08222
2989.56,0.07391
2983.77,0.06401
2977.98,0.05417
2972.2,0.04659
2966.41,0.04379
2960.62,0.04435
2954.84,0.04600
2949.05,0.04994
2943.27,0.05789
2937.48,0.06517
2931.69,0.06973
2925.91,0.06919
2920.12,0.06704
2914.33,0.06216
2908.55,0.05883
2902.76,0.06360
2896.98,0.06900
2891.19,0.07096
2885.4,0.07261
2879.62,0.07528
2873.83,0.07697
2868.04,0.07930
2862.26,0.08127
2856.47,0.08383
2850.69,0.08947
2844.9,0.10393
2839.11,0.11931
2833.33,0.13124
2827.54,0.13949
2821.75,0.14645
2815.97,0.15118
2810.18,0.15453
2804.4,0.15812
2798.61,0.16539
2792.82,0.17333
2787.04,0.18078
2781.25,0.18701
2775.46,0.19216
2769.68,0.19546
2763.89,0.19772
2758.11,0.19956
2752.32,0.20115
2746.53,0.20310
2740.75,0.20512
2734.96,0.21086
2729.17,0.21797
2723.39,0.22436
2717.6,0.23028
2711.82,0.23499
2706.03,0.23974
2700.24,0.24344
2694.46,0.24622
2688.67,0.24781
2682.88,0.24978
2677.1,0.25171
2671.31,0.25446
2665.53,0.25630
2659.74,0.25694
2653.95,0.25701
2648.17,0.25686
2642.38,0.25442
2636.59,0.24825
2630.81,0.24285
2625.02,0.24447
2619.24,0.24710
2613.45,0.24780
2607.66,0.24739
2601.88,0.24630
2596.09,0.24304
2590.3,0.23842
2584.52,0.23540
2578.73,0.23547
2572.95,0.23828
2567.16,0.23996
2561.37,0.24010
2555.59,0.24025
2549.8,0.24058
2544.02,0.24078
2538.23,0.24154
2532.44,0.24246
2526.66,0.24519
2520.87,0.24981
2515.08,0.25442
2509.3,0.25796
2503.51,0.25998
2497.73,0.26332
2491.94,0.26784
2486.15,0.27354
2480.37,0.27946
2474.58,0.28497
2468.79,0.29065
2463.01,0.29513
2457.22,0.29747
2451.44,0.29858
2445.65,0.29722
2439.86,0.29287
2434.08,0.28665
2428.29,0.27927
2422.5,0.27182
2416.72,0.26452
2410.93,0.25820
2405.15,0.25229
2399.36,0.24736
2393.57,0.24385
2387.79,0.24224
2382,0.24376
2376.21,0.24740
2370.43,0.25313
2364.64,0.26107
2358.86,0.27118
2353.07,0.28041
2347.28,0.28719
2341.5,0.29220
2335.71,0.29415
2329.92,0.29438
2324.14,0.29474
2318.35,0.30034
2312.57,0.30469
2306.78,0.30224
2300.99,0.29367
2295.21,0.28089
2289.42,0.26931
2283.63,0.26470
2277.85,0.26813
2272.06,0.26999
2266.28,0.26701
2260.49,0.25891
2254.7,0.24377
2248.92,0.22172
2243.13,0.21131
2237.34,0.23031
2231.56,0.27041
2225.77,0.28782
2219.99,0.29207
2214.2,0.29365
2208.41,0.29707
2202.63,0.30389
2196.84,0.30592
2191.05,0.30440
2185.27,0.30296
2179.48,0.30004
2173.7,0.29410
2167.91,0.28524
2162.12,0.27484
2156.34,0.26373
2150.55,0.25498
2144.76,0.24901
2138.98,0.24447
2133.19,0.24076
2127.41,0.23553
2121.62,0.23005
2115.83,0.22635
2110.05,0.22516
2104.26,0.22567
2098.47,0.22810
2092.69,0.23170
2086.9,0.23738
2081.12,0.24545
2075.33,0.25469
2069.54,0.26556
2063.76,0.27720
2057.97,0.28787
2052.19,0.29648
2046.4,0.30233
2040.61,0.30415
2034.83,0.30335
2029.04,0.29932
2023.25,0.29229
2017.47,0.28458
2011.68,0.27691
2005.9,0.26706
2000.11,0.25556
1994.32,0.24396
1988.54,0.23312
1982.75,0.22415
1976.96,0.21424
1971.18,0.20089
1965.39,0.18251
1959.61,0.16897
1953.82,0.17034
1948.03,0.17816
1942.25,0.19170
1936.46,0.20803
1930.67,0.22289
1924.89,0.23474
1919.1,0.24373
1913.32,0.25161
1907.53,0.25798
1901.74,0.26291
1895.96,0.26713
1890.17,0.27065
1884.38,0.27178
1878.6,0.27015
1872.81,0.26521
1867.03,0.25671
1861.24,0.24549
1855.45,0.22925
1849.67,0.20906
1843.88,0.18941
1838.09,0.17234
1832.31,0.15943
1826.52,0.15016
1820.74,0.14551
1814.95,0.14325
1809.16,0.14082
1803.38,0.13762
1797.59,0.13322
1791.8,0.12739
1786.02,0.11935
1780.23,0.10913
1774.45,0.09955
1768.66,0.08718
1762.87,0.07343
1757.09,0.05797
1751.3,0.04365
1745.51,0.03321
1739.73,0.03117
1733.94,0.03432
1728.16,0.03943
1722.37,0.04396
1716.58,0.04610
1710.8,0.04376
1705.01,0.04318
1699.22,0.04731
1693.44,0.05072
1687.65,0.05146
1681.87,0.05058
1676.08,0.05517
1670.29,0.06046
1664.51,0.06847
1658.72,0.07676
1652.93,0.08281
1647.15,0.08737
1641.36,0.09222
1635.58,0.09477
1629.79,0.09625
1624,0.09632
1618.22,0.08948
1612.43,0.08373
1606.64,0.09495
1600.86,0.10496
1595.07,0.10784
1589.29,0.09822
1583.5,0.07492
1577.71,0.05854
1571.93,0.07349
1566.14,0.08698
1560.35,0.09229
1554.57,0.09476
1548.78,0.09695
1543,0.10025
1537.21,0.09898
1531.42,0.09233
1525.64,0.08638
1519.85,0.08585
1514.07,0.07831
1508.28,0.05369
1502.49,0.05135
1496.71,0.08414
1490.92,0.09278
1485.13,0.07886
1479.35,0.06052
1473.56,0.04675
1467.78,0.04364
1461.99,0.03853
1456.2,0.03353
1450.42,0.03447
1444.63,0.03716
1438.84,0.04030
1433.06,0.04808
1427.27,0.05415
1421.49,0.04734
1415.7,0.03197
1409.91,0.02949
1404.13,0.03376
1398.34,0.03898
1392.55,0.04093
1386.77,0.03922
1380.98,0.03575
1375.2,0.03260
1369.41,0.03193
1363.62,0.03660
1357.84,0.03903
1352.05,0.03716
1346.26,0.03327
1340.48,0.03331
1334.69,0.03545
1328.91,0.03666
1323.12,0.03340
1317.33,0.02989
1311.55,0.02712
1305.76,0.02538
1299.97,0.02502
1294.19,0.02732
1288.4,0.03001
1282.62,0.03332
1276.83,0.03725
1271.04,0.04184
1265.26,0.04431
1259.47,0.04493
1253.68,0.04516
1247.9,0.04596
1242.11,0.04576
1236.33,0.04394
1230.54,0.04434
1224.75,0.04774
1218.97,0.05236
1213.18,0.05641
1207.39,0.05951
1201.61,0.06320
1195.82,0.06847
1190.04,0.07065
1184.25,0.06293
1178.46,0.05169
1172.68,0.04928
1166.89,0.05362
1161.1,0.05160
1155.32,0.04485
1149.53,0.03684
1143.75,0.03309
1137.96,0.03298
1132.17,0.03701
1126.39,0.04019
1120.6,0.04101
1114.81,0.04066
1109.03,0.04131
1103.24,0.04370
1097.46,0.04548
1091.67,0.04558
1085.88,0.04620
1080.1,0.05027
1074.31,0.06066
1068.52,0.07148
1062.74,0.07748
1056.95,0.07434
1051.17,0.06442
1045.38,0.05762
1039.59,0.05750
1033.81,0.05985
1028.02,0.05439
1022.24,0.04918
1016.45,0.05228
1010.66,0.08040
1004.88,0.11332
999.09,0.12417
993.304,0.12314
987.518,0.11164
981.731,0.09985
975.945,0.08312
970.159,0.08246
964.373,0.10265
958.586,0.12626
952.8,0.14317
947.014,0.14867
941.228,0.14457
935.441,0.13757
929.655,0.14464
923.869,0.15294
918.083,0.14954
912.297,0.13156
906.51,0.10331
900.724,0.08975
894.938,0.08919
889.152,0.08870
883.365,0.07838
877.579,0.06346
871.793,0.06148
866.007,0.08626
860.22,0.09174
854.434,0.08244
848.648,0.07651
842.862,0.08337
837.075,0.09641
831.289,0.11238
825.503,0.12280
819.717,0.12465
813.931,0.12118
808.144,0.11760
802.358,0.11411
796.572,0.09563
790.786,0.09355
784.999,0.11951
779.213,0.13293
773.427,0.13794
767.641,0.13942
761.854,0.13626
756.068,0.12492
750.282,0.10751
744.496,0.07567
738.709,0.03957
732.923,0.03291
727.137,0.03986
721.351,0.05284
715.565,0.08288
709.778,0.09694
703.992,0.10664
698.206,0.13024
692.42,0.14493
686.633,0.14323
680.847,0.13543
675.061,0.14633
669.275,0.15745
663.488,0.16523
657.702,0.17184
651.916,0.17574
646.13,0.17720
640.343,0.17714
634.557,0.15370
628.771,0.15744
622.985,0.17420
617.198,0.17908
611.412,0.18136
605.626,0.18330
599.84,0.17763