File: 01_Data/Cotton_Batting/FTIR/IS/Cotton_Batting_IS_T_220912_R3.dpt
7497.03,0.03144
7491.25,0.04189
7485.46,0.02407
7479.67,0.01374
7473.89,0.01587
7468.1,0.03493
7462.32,0.03111
7456.53,0.03079
7450.74,0.02927
7444.96,0.02883
7439.17,0.02949
7433.38,0.02364
7427.6,0.02089
7421.81,0.02798
7416.03,0.02622
7410.24,0.02476
7404.45,0.01826
7398.67,0.01738
7392.88,0.02789
7387.09,0.03023
7381.31,0.02030
7375.52,0.02987
7369.74,0.01852
7363.95,0.02112
7358.16,0.01713
7352.38,0.02310
7346.59,0.02279
7340.8,0.03271
7335.02,0.02014
7329.23,0.02034
7323.45,0.02697
7317.66,0.02650
7311.87,0.02942
7306.09,0.01875
7300.3,0.02357
7294.51,0.01553
7288.73,0.01973
7282.94,0.02283
7277.16,0.02271
7271.37,0.01953
7265.58,0.03386
7259.8,0.03322
7254.01,0.02322
7248.22,0.02767
7242.44,0.03517
7236.65,0.02234
7230.87,0.02620
7225.08,0.02499
7219.29,0.02656
7213.51,0.03394
7207.72,0.01803
7201.93,0.02395
7196.15,0.02307
7190.36,0.02722
7184.58,0.02738
7178.79,0.02753
7173,0.02315
7167.22,0.02429
7161.43,0.02572
7155.65,0.02983
7149.86,0.02632
7144.07,0.03829
7138.29,0.02623
7132.5,0.02489
7126.71,0.02886
7120.93,0.02511
7115.14,0.02818
7109.36,0.02534
7103.57,0.02783
7097.78,0.02460
7092,0.03078
7086.21,0.02652
7080.42,0.02768
7074.64,0.02484
7068.85,0.02224
7063.07,0.01879
7057.28,0.01310
7051.49,0.02554
7045.71,0.01628
7039.92,0.02657
7034.13,0.02526
7028.35,0.02590
7022.56,0.01939
7016.78,0.01996
7010.99,0.01993
7005.2,0.02553
6999.42,0.01708
6993.63,0.02429
6987.84,0.01990
6982.06,0.02434
6976.27,0.02666
6970.49,0.02426
6964.7,0.02704
6958.91,0.02754
6953.13,0.02092
6947.34,0.02763
6941.55,0.02013
6935.77,0.02262
6929.98,0.02427
6924.2,0.02407
6918.41,0.02158
6912.62,0.02946
6906.84,0.02633
6901.05,0.02662
6895.26,0.02952
6889.48,0.02050
6883.69,0.01913
6877.91,0.02361
6872.12,0.02423
6866.33,0.02156
6860.55,0.02339
6854.76,0.02623
6848.97,0.02163
6843.19,0.02741
6837.4,0.02336
6831.62,0.02618
6825.83,0.01904
6820.04,0.02131
6814.26,0.02038
6808.47,0.02585
6802.68,0.02311
6796.9,0.02441
6791.11,0.02331
6785.33,0.02023
6779.54,0.02041
6773.75,0.02315
6767.97,0.02285
6762.18,0.02525
6756.39,0.02434
6750.61,0.02139
6744.82,0.02268
6739.04,0.02600
6733.25,0.02101
6727.46,0.02298
6721.68,0.02375
6715.89,0.02544
6710.1,0.02197
6704.32,0.02413
6698.53,0.01700
6692.75,0.02286
6686.96,0.02242
6681.17,0.02148
6675.39,0.01912
6669.6,0.02235
6663.82,0.02515
6658.03,0.02195
6652.24,0.02585
6646.46,0.02235
6640.67,0.01896
6634.88,0.02629
6629.1,0.02055
6623.31,0.02108
6617.53,0.02450
6611.74,0.02957
6605.95,0.02483
6600.17,0.02267
6594.38,0.02081
6588.59,0.02355
6582.81,0.02354
6577.02,0.02541
6571.24,0.02126
6565.45,0.02265
6559.66,0.02620
6553.88,0.02701
6548.09,0.02322
6542.3,0.02437
6536.52,0.02552
6530.73,0.02686
6524.95,0.02502
6519.16,0.02519
6513.37,0.02434
6507.59,0.02922
6501.8,0.01900
6496.01,0.02237
6490.23,0.02231
6484.44,0.02222
6478.66,0.02247
6472.87,0.01930
6467.08,0.02084
6461.3,0.02134
6455.51,0.02622
6449.72,0.02549
6443.94,0.02371
6438.15,0.02521
6432.37,0.02141
6426.58,0.02750
6420.79,0.02220
6415.01,0.02481
6409.22,0.02184
6403.43,0.02144
6397.65,0.02563
6391.86,0.02178
6386.08,0.02659
6380.29,0.02322
6374.5,0.02210
6368.72,0.02190
6362.93,0.02465
6357.14,0.02352
6351.36,0.02367
6345.57,0.02155
6339.79,0.02154
6334,0.02398
6328.21,0.02392
6322.43,0.01992
6316.64,0.02210
6310.85,0.02265
6305.07,0.02703
6299.28,0.02244
6293.5,0.02438
6287.71,0.02118
6281.92,0.02457
6276.14,0.02246
6270.35,0.02243
6264.56,0.02553
6258.78,0.02238
6252.99,0.01968
6247.21,0.02195
6241.42,0.02176
6235.63,0.02388
6229.85,0.02340
6224.06,0.02453
6218.27,0.02467
6212.49,0.02286
6206.7,0.01960
6200.92,0.02051
6195.13,0.02336
6189.34,0.02521
6183.56,0.02474
6177.77,0.02281
6171.98,0.02056
6166.2,0.02250
6160.41,0.02087
6154.63,0.01992
6148.84,0.02074
6143.05,0.02303
6137.27,0.02278
6131.48,0.01894
6125.7,0.02131
6119.91,0.02462
6114.12,0.02354
6108.34,0.02235
6102.55,0.02101
6096.76,0.02388
6090.98,0.02294
6085.19,0.01984
6079.41,0.02327
6073.62,0.02303
6067.83,0.02009
6062.05,0.01943
6056.26,0.02239
6050.47,0.02222
6044.69,0.02270
6038.9,0.02372
6033.12,0.02123
6027.33,0.02434
6021.54,0.02485
6015.76,0.02518
6009.97,0.02299
6004.18,0.01840
5998.4,0.01944
5992.61,0.02023
5986.83,0.02306
5981.04,0.02309
5975.25,0.02094
5969.47,0.02042
5963.68,0.02262
5957.89,0.02123
5952.11,0.01959
5946.32,0.01890
5940.54,0.02014
5934.75,0.02230
5928.96,0.02197
5923.18,0.02506
5917.39,0.02110
5911.6,0.02150
5905.82,0.02173
5900.03,0.02410
5894.25,0.02334
5888.46,0.02317
5882.67,0.02098
5876.89,0.02047
5871.1,0.02247
5865.31,0.02241
5859.53,0.02120
5853.74,0.02220
5847.96,0.02297
5842.17,0.01993
5836.38,0.02239
5830.6,0.02139
5824.81,0.02030
5819.02,0.02145
5813.24,0.02192
5807.45,0.02118
5801.67,0.02052
5795.88,0.02124
5790.09,0.02285
5784.31,0.02087
5778.52,0.02171
5772.73,0.02273
5766.95,0.02382
5761.16,0.02188
5755.38,0.01891
5749.59,0.02202
5743.8,0.02398
5738.02,0.02204
5732.23,0.02465
5726.44,0.02506
5720.66,0.02020
5714.87,0.02208
5709.09,0.02274
5703.3,0.01955
5697.51,0.02294
5691.73,0.02310
5685.94,0.02322
5680.15,0.02258
5674.37,0.02358
5668.58,0.02440
5662.8,0.02209
5657.01,0.02172
5651.22,0.02054
5645.44,0.02334
5639.65,0.02246
5633.87,0.02283
5628.08,0.02374
5622.29,0.02180
5616.51,0.02345
5610.72,0.02047
5604.93,0.02304
5599.15,0.02357
5593.36,0.02412
5587.58,0.02141
5581.79,0.02223
5576,0.02275
5570.22,0.02307
5564.43,0.02265
5558.64,0.02272
5552.86,0.02273
5547.07,0.02224
5541.29,0.02354
5535.5,0.02356
5529.71,0.02121
5523.93,0.02351
5518.14,0.02115
5512.35,0.02160
5506.57,0.02127
5500.78,0.02024
5495,0.02208
5489.21,0.02272
5483.42,0.02256
5477.64,0.02307
5471.85,0.02357
5466.06,0.02253
5460.28,0.02040
5454.49,0.02243
5448.71,0.02328
5442.92,0.02212
5437.13,0.02291
5431.35,0.02251
5425.56,0.02271
5419.77,0.02251
5413.99,0.02275
5408.2,0.02229
5402.42,0.02100
5396.63,0.02237
5390.84,0.02437
5385.06,0.02312
5379.27,0.02171
5373.48,0.02330
5367.7,0.02129
5361.91,0.02355
5356.13,0.02381
5350.34,0.02104
5344.55,0.02118
5338.77,0.02298
5332.98,0.02168
5327.19,0.02196
5321.41,0.02327
5315.62,0.02193
5309.84,0.02231
5304.05,0.02286
5298.26,0.02234
5292.48,0.02323
5286.69,0.02240
5280.9,0.02302
5275.12,0.02096
5269.33,0.02269
5263.55,0.02211
5257.76,0.02173
5251.97,0.02276
5246.19,0.02236
5240.4,0.02372
5234.61,0.02317
5228.83,0.02149
5223.04,0.02277
5217.26,0.02292
5211.47,0.02406
5205.68,0.02288
5199.9,0.02302
5194.11,0.02390
5188.32,0.02319
5182.54,0.02290
5176.75,0.02301
5170.97,0.02299
5165.18,0.02111
5159.39,0.02265
5153.61,0.02268
5147.82,0.02200
5142.03,0.02335
5136.25,0.02212
5130.46,0.02256
5124.68,0.02181
5118.89,0.02229
5113.1,0.02287
5107.32,0.02157
5101.53,0.02226
5095.75,0.02157
5089.96,0.02149
5084.17,0.02152
5078.39,0.02144
5072.6,0.02307
5066.81,0.02323
5061.03,0.02208
5055.24,0.02322
5049.46,0.02294
5043.67,0.02185
5037.88,0.02175
5032.1,0.02316
5026.31,0.02258
5020.52,0.02296
5014.74,0.02270
5008.95,0.02173
5003.17,0.02155
4997.38,0.02163
4991.59,0.02291
4985.81,0.02279
4980.02,0.02162
4974.23,0.02298
4968.45,0.02204
4962.66,0.02293
4956.88,0.02278
4951.09,0.02311
4945.3,0.02184
4939.52,0.02222
4933.73,0.02326
4927.94,0.02177
4922.16,0.02276
4916.37,0.02272
4910.59,0.02233
4904.8,0.02171
4899.01,0.02249
4893.23,0.02212
4887.44,0.02265
4881.65,0.02192
4875.87,0.02310
4870.08,0.02270
4864.3,0.02354
4858.51,0.02290
4852.72,0.02291
4846.94,0.02328
4841.15,0.02162
4835.36,0.02184
4829.58,0.02180
4823.79,0.02322
4818.01,0.02195
4812.22,0.02236
4806.43,0.02343
4800.65,0.02350
4794.86,0.02281
4789.07,0.02299
4783.29,0.02241
4777.5,0.02202
4771.72,0.02231
4765.93,0.02256
4760.14,0.02344
4754.36,0.02254
4748.57,0.02247
4742.78,0.02179
4737,0.02173
4731.21,0.02163
4725.43,0.02221
4719.64,0.02378
4713.85,0.02264
4708.07,0.02341
4702.28,0.02319
4696.49,0.02237
4690.71,0.02354
4684.92,0.02248
4679.14,0.02307
4673.35,0.02376
4667.56,0.02251
4661.78,0.02278
4655.99,0.02288
4650.2,0.02259
4644.42,0.02251
4638.63,0.02248
4632.85,0.02323
4627.06,0.02252
4621.27,0.02182
4615.49,0.02131
4609.7,0.02229
4603.92,0.02169
4598.13,0.02304
4592.34,0.02286
4586.56,0.02281
4580.77,0.02240
4574.98,0.02331
4569.2,0.02241
4563.41,0.02232
4557.63,0.02307
4551.84,0.02293
4546.05,0.02330
4540.27,0.02286
4534.48,0.02260
4528.69,0.02299
4522.91,0.02247
4517.12,0.02284
4511.34,0.02231
4505.55,0.02250
4499.76,0.02245
4493.98,0.02217
4488.19,0.02294
4482.4,0.02244
4476.62,0.02379
4470.83,0.02263
4465.05,0.02233
4459.26,0.02239
4453.47,0.02280
4447.69,0.02274
4441.9,0.02200
4436.11,0.02288
4430.33,0.02306
4424.54,0.02310
4418.76,0.02291
4412.97,0.02352
4407.18,0.02217
4401.4,0.02246
4395.61,0.02284
4389.82,0.02241
4384.04,0.02231
4378.25,0.02199
4372.47,0.02260
4366.68,0.02210
4360.89,0.02283
4355.11,0.02282
4349.32,0.02290
4343.53,0.02245
4337.75,0.02239
4331.96,0.02291
4326.18,0.02218
4320.39,0.02315
4314.6,0.02281
4308.82,0.02232
4303.03,0.02226
4297.24,0.02200
4291.46,0.02296
4285.67,0.02262
4279.89,0.02243
4274.1,0.02351
4268.31,0.02231
4262.53,0.02248
4256.74,0.02215
4250.95,0.02241
4245.17,0.02293
4239.38,0.02275
4233.6,0.02292
4227.81,0.02257
4222.02,0.02231
4216.24,0.02299
4210.45,0.02267
4204.66,0.02240
4198.88,0.02257
4193.09,0.02295
4187.31,0.02300
4181.52,0.02273
4175.73,0.02279
4169.95,0.02278
4164.16,0.02308
4158.37,0.02229
4152.59,0.02273
4146.8,0.02300
4141.02,0.02232
4135.23,0.02227
4129.44,0.02223
4123.66,0.02260
4117.87,0.02325
4112.09,0.02340
4106.3,0.02291
4100.51,0.02194
4094.73,0.02268
4088.94,0.02265
4083.15,0.02219
4077.37,0.02288
4071.58,0.02223
4065.8,0.02224
4060.01,0.02290
4054.22,0.02263
4048.44,0.02246
4042.65,0.02271
4036.86,0.02308
4031.08,0.02265
4025.29,0.02262
4019.51,0.02249
4013.72,0.02278
4007.93,0.02293
4002.15,0.02236
3996.36,0.02251
3990.57,0.02271
3984.79,0.02292
3979,0.02236
3973.22,0.02273
3967.43,0.02245
3961.64,0.02268
3955.86,0.02287
3950.07,0.02232
3944.28,0.02271
3938.5,0.02193
3932.71,0.02249
3926.93,0.02269
3921.14,0.02220
3915.35,0.02279
3909.57,0.02271
3903.78,0.02319
3897.99,0.02320
3892.21,0.02292
3886.42,0.02279
3880.64,0.02323
3874.85,0.02275
3869.06,0.02281
3863.28,0.02251
3857.49,0.02271
3851.7,0.02312
3845.92,0.02308
3840.13,0.02285
3834.35,0.02263
3828.56,0.02275
3822.77,0.02320
3816.99,0.02300
3811.2,0.02312
3805.41,0.02271
3799.63,0.02280
3793.84,0.02275
3788.06,0.02301
3782.27,0.02263
3776.48,0.02192
3770.7,0.02247
3764.91,0.02291
3759.12,0.02299
3753.34,0.02329
3747.55,0.02285
3741.77,0.02293
3735.98,0.02319
3730.19,0.02288
3724.41,0.02299
3718.62,0.02200
3712.83,0.02201
3707.05,0.02194
3701.26,0.02243
3695.48,0.02302
3689.69,0.02328
3683.9,0.02235
3678.12,0.02267
3672.33,0.02226
3666.54,0.02227
3660.76,0.02199
3654.97,0.02163
3649.19,0.02258
3643.4,0.02177
3637.61,0.02238
3631.83,0.02192
3626.04,0.02177
3620.25,0.02239
3614.47,0.02188
3608.68,0.02167
3602.9,0.02154
3597.11,0.02124
3591.32,0.02165
3585.54,0.02166
3579.75,0.02157
3573.97,0.02202
3568.18,0.02124
3562.39,0.02148
3556.61,0.02119
3550.82,0.02134
3545.03,0.02138
3539.25,0.02146
3533.46,0.02125
3527.68,0.02072
3521.89,0.02142
3516.1,0.02167
3510.32,0.02202
3504.53,0.02118
3498.74,0.02079
3492.96,0.02108
3487.17,0.02039
3481.39,0.02088
3475.6,0.02091
3469.81,0.02095
3464.03,0.02071
3458.24,0.02051
3452.45,0.02119
3446.67,0.02098
3440.88,0.02083
3435.1,0.02097
3429.31,0.02091
3423.52,0.02094
3417.74,0.02119
3411.95,0.02069
3406.16,0.02069
3400.38,0.02091
3394.59,0.02049
3388.81,0.02062
3383.02,0.02149
3377.23,0.02063
3371.45,0.01962
3365.66,0.02071
3359.87,0.02042
3354.09,0.02027
3348.3,0.02013
3342.52,0.02056
3336.73,0.02049
3330.94,0.02037
3325.16,0.02040
3319.37,0.02048
3313.58,0.02064
3307.8,0.02052
3302.01,0.02010
3296.23,0.02058
3290.44,0.02080
3284.65,0.01988
3278.87,0.02034
3273.08,0.02062
3267.29,0.02111
3261.51,0.01994
3255.72,0.01980
3249.94,0.01994
3244.15,0.02066
3238.36,0.02142
3232.58,0.02148
3226.79,0.02081
3221,0.02085
3215.22,0.02102
3209.43,0.02100
3203.65,0.02076
3197.86,0.02107
3192.07,0.02070
3186.29,0.02044
3180.5,0.02081
3174.71,0.02033
3168.93,0.02147
3163.14,0.02082
3157.36,0.02116
3151.57,0.02046
3145.78,0.02077
3140,0.02085
3134.21,0.02111
3128.42,0.02063
3122.64,0.02122
3116.85,0.02083
3111.07,0.02079
3105.28,0.02150
3099.49,0.02122
3093.71,0.02097
3087.92,0.02109
3082.14,0.02160
3076.35,0.02086
3070.56,0.02081
3064.78,0.02025
3058.99,0.02039
3053.2,0.02048
3047.42,0.02078
3041.63,0.02092
3035.85,0.02009
3030.06,0.02057
3024.27,0.02081
3018.49,0.02067
3012.7,0.02062
3006.91,0.02024
3001.13,0.02055
2995.34,0.02014
2989.56,0.01969
2983.77,0.02025
2977.98,0.01968
2972.2,0.01976
2966.41,0.01949
2960.62,0.01978
2954.84,0.01999
2949.05,0.01987
2943.27,0.01933
2937.48,0.01968
2931.69,0.01984
2925.91,0.02023
2920.12,0.02025
2914.33,0.02050
2908.55,0.02030
2902.76,0.02039
2896.98,0.02060
2891.19,0.02061
2885.4,0.02095
2879.62,0.02075
2873.83,0.02042
2868.04,0.02060
2862.26,0.02009
2856.47,0.02105
2850.69,0.02066
2844.9,0.02164
2839.11,0.02132
2833.33,0.02111
2827.54,0.02108
2821.75,0.02152
2815.97,0.02140
2810.18,0.02154
2804.4,0.02190
2798.61,0.02171
2792.82,0.02138
2787.04,0.02124
2781.25,0.02146
2775.46,0.02101
2769.68,0.02137
2763.89,0.02100
2758.11,0.02139
2752.32,0.02144
2746.53,0.02136
2740.75,0.02176
2734.96,0.02132
2729.17,0.02135
2723.39,0.02139
2717.6,0.02111
2711.82,0.02166
2706.03,0.02143
2700.24,0.02151
2694.46,0.02151
2688.67,0.02130
2682.88,0.02119
2677.1,0.02094
2671.31,0.02154
2665.53,0.02140
2659.74,0.02159
2653.95,0.02118
2648.17,0.02129
2642.38,0.02133
2636.59,0.02174
2630.81,0.02157
2625.02,0.02122
2619.24,0.02136
2613.45,0.02115
2607.66,0.02096
2601.88,0.02104
2596.09,0.02117
2590.3,0.02104
2584.52,0.02095
2578.73,0.02153
2572.95,0.02126
2567.16,0.02123
2561.37,0.02103
2555.59,0.02108
2549.8,0.02080
2544.02,0.02118
2538.23,0.02156
2532.44,0.02137
2526.66,0.02135
2520.87,0.02139
2515.08,0.02147
2509.3,0.02114
2503.51,0.02104
2497.73,0.02131
2491.94,0.02129
2486.15,0.02142
2480.37,0.02111
2474.58,0.02153
2468.79,0.02095
2463.01,0.02131
2457.22,0.02100
2451.44,0.02128
2445.65,0.02129
2439.86,0.02093
2434.08,0.02087
2428.29,0.02122
2422.5,0.02150
2416.72,0.02111
2410.93,0.02132
2405.15,0.02126
2399.36,0.02132
2393.57,0.02117
2387.79,0.02140
2382,0.02108
2376.21,0.02133
2370.43,0.02127
2364.64,0.02142
2358.86,0.02123
2353.07,0.02109
2347.28,0.02152
2341.5,0.02138
2335.71,0.02115
2329.92,0.02139
2324.14,0.02119
2318.35,0.02137
2312.57,0.02129
2306.78,0.02121
2300.99,0.02125
2295.21,0.02116
2289.42,0.02144
2283.63,0.02127
2277.85,0.02124
2272.06,0.02118
2266.28,0.02130
2260.49,0.02105
2254.7,0.02111
2248.92,0.02121
2243.13,0.02096
2237.34,0.02120
2231.56,0.02115
2225.77,0.02122
2219.99,0.02132
2214.2,0.02104
2208.41,0.02106
2202.63,0.02122
2196.84,0.02139
2191.05,0.02118
2185.27,0.02087
2179.48,0.02064
2173.7,0.02114
2167.91,0.02077
2162.12,0.02119
2156.34,0.02119
2150.55,0.02117
2144.76,0.02045
2138.98,0.02106
2133.19,0.02128
2127.41,0.02086
2121.62,0.02104
2115.83,0.02091
2110.05,0.02110
2104.26,0.02116
2098.47,0.02108
2092.69,0.02096
2086.9,0.02103
2081.12,0.02093
2075.33,0.02061
2069.54,0.02084
2063.76,0.02096
2057.97,0.02140
2052.19,0.02067
2046.4,0.02092
2040.61,0.02097
2034.83,0.02087
2029.04,0.02092
2023.25,0.02065
2017.47,0.02066
2011.68,0.02081
2005.9,0.02060
2000.11,0.02101
1994.32,0.02089
1988.54,0.02057
1982.75,0.02070
1976.96,0.02083
1971.18,0.02089
1965.39,0.02086
1959.61,0.02088
1953.82,0.02102
1948.03,0.02097
1942.25,0.02051
1936.46,0.02070
1930.67,0.02039
1924.89,0.02068
1919.1,0.02095
1913.32,0.02045
1907.53,0.02046
1901.74,0.02067
1895.96,0.02046
1890.17,0.02039
1884.38,0.02026
1878.6,0.02078
1872.81,0.02061
1867.03,0.02035
1861.24,0.02056
1855.45,0.02030
1849.67,0.02032
1843.88,0.02062
1838.09,0.02008
1832.31,0.02028
1826.52,0.02000
1820.74,0.02004
1814.95,0.01993
1809.16,0.01987
1803.38,0.02018
1797.59,0.01948
1791.8,0.01927
1786.02,0.01929
1780.23,0.01869
1774.45,0.01881
1768.66,0.01870
1762.87,0.01863
1757.09,0.01751
1751.3,0.01745
1745.51,0.01768
1739.73,0.01895
1733.94,0.02012
1728.16,0.02034
1722.37,0.02089
1716.58,0.02113
1710.8,0.02092
1705.01,0.02070
1699.22,0.01988
1693.44,0.01957
1687.65,0.01979
1681.87,0.01918
1676.08,0.01938
1670.29,0.01855
1664.51,0.01865
1658.72,0.01864
1652.93,0.01866
1647.15,0.01824
1641.36,0.01865
1635.58,0.01869
1629.79,0.01886
1624,0.01907
1618.22,0.01907
1612.43,0.01908
1606.64,0.01920
1600.86,0.01844
1595.07,0.01861
1589.29,0.01847
1583.5,0.01846
1577.71,0.01878
1571.93,0.01855
1566.14,0.01806
1560.35,0.01809
1554.57,0.01840
1548.78,0.01827
1543,0.01833
1537.21,0.01856
1531.42,0.01869
1525.64,0.01921
1519.85,0.01866
1514.07,0.01824
1508.28,0.01898
1502.49,0.01919
1496.71,0.01888
1490.92,0.01885
1485.13,0.01866
1479.35,0.01893
1473.56,0.01873
1467.78,0.01824
1461.99,0.01878
1456.2,0.01866
1450.42,0.01878
1444.63,0.01867
1438.84,0.01871
1433.06,0.01842
1427.27,0.01851
1421.49,0.01870
1415.7,0.01840
1409.91,0.01816
1404.13,0.01825
1398.34,0.01830
1392.55,0.01797
1386.77,0.01832
1380.98,0.01814
1375.2,0.01810
1369.41,0.01819
1363.62,0.01855
1357.84,0.01841
1352.05,0.01822
1346.26,0.01820
1340.48,0.01761
1334.69,0.01787
1328.91,0.01783
1323.12,0.01747
1317.33,0.01734
1311.55,0.01729
1305.76,0.01730
1299.97,0.01727
1294.19,0.01771
1288.4,0.01841
1282.62,0.01867
1276.83,0.01927
1271.04,0.01963
1265.26,0.01968
1259.47,0.02017
1253.68,0.02021
1247.9,0.01983
1242.11,0.02021
1236.33,0.01976
1230.54,0.01963
1224.75,0.01931
1218.97,0.01925
1213.18,0.01982
1207.39,0.01921
1201.61,0.01886
1195.82,0.01880
1190.04,0.01838
1184.25,0.01858
1178.46,0.01790
1172.68,0.01791
1166.89,0.01811
1161.1,0.01815
1155.32,0.01796
1149.53,0.01714
1143.75,0.01736
1137.96,0.01795
1132.17,0.01845
1126.39,0.01866
1120.6,0.01873
1114.81,0.01914
1109.03,0.01903
1103.24,0.01782
1097.46,0.01843
1091.67,0.01858
1085.88,0.01857
1080.1,0.01821
1074.31,0.01913
1068.52,0.02012
1062.74,0.02006
1056.95,0.01988
1051.17,0.01950
1045.38,0.01959
1039.59,0.02007
1033.81,0.01954
1028.02,0.01968
1022.24,0.01912
1016.45,0.01985
1010.66,0.02080
1004.88,0.02105
999.09,0.02123
993.304,0.02134
987.518,0.02077
981.731,0.02010
975.945,0.02052
970.159,0.02021
964.373,0.02011
958.586,0.02069
952.8,0.02066
947.014,0.01928
941.228,0.01939
935.441,0.02017
929.655,0.01944
923.869,0.01988
918.083,0.01915
912.297,0.01939
906.51,0.01872
900.724,0.01948
894.938,0.01919
889.152,0.01906
883.365,0.01913
877.579,0.01976
871.793,0.01821
866.007,0.01852
860.22,0.01884
854.434,0.01854
848.648,0.01913
842.862,0.01895
837.075,0.01942
831.289,0.01921
825.503,0.01896
819.717,0.01924
813.931,0.01905
808.144,0.01853
802.358,0.01928
796.572,0.01842
790.786,0.01893
784.999,0.01896
779.213,0.01876
773.427,0.01903
767.641,0.01841
761.854,0.01901
756.068,0.01719
750.282,0.01732
744.496,0.01769
738.709,0.01770
732.923,0.01846
727.137,0.01792
721.351,0.01882
715.565,0.01796
709.778,0.01819
703.992,0.01703
698.206,0.01734
692.42,0.01839
686.633,0.01968
680.847,0.01784
675.061,0.01779
669.275,0.01843
663.488,0.01673
657.702,0.01706
651.916,0.01833
646.13,0.01718
640.343,0.01558
634.557,0.01467
628.771,0.01485
622.985,0.01667
617.198,0.01532
611.412,0.01422
605.626,0.01585
599.84,0.01396