File: 01_Data/Cotton_Batting/FTIR/IS/Cotton_Batting_IS_S_220912_R8.dpt
7497.03,0.57986
7491.25,0.58312
7485.46,0.56565
7479.67,0.57394
7473.89,0.57237
7468.1,0.58505
7462.32,0.57312
7456.53,0.57443
7450.74,0.57266
7444.96,0.57510
7439.17,0.57218
7433.38,0.56866
7427.6,0.57504
7421.81,0.56727
7416.03,0.56699
7410.24,0.56410
7404.45,0.57326
7398.67,0.57421
7392.88,0.56435
7387.09,0.57095
7381.31,0.57208
7375.52,0.57153
7369.74,0.56620
7363.95,0.56687
7358.16,0.56498
7352.38,0.56942
7346.59,0.57667
7340.8,0.55928
7335.02,0.55870
7329.23,0.56433
7323.45,0.55945
7317.66,0.56071
7311.87,0.56688
7306.09,0.56365
7300.3,0.56980
7294.51,0.56004
7288.73,0.55875
7282.94,0.56639
7277.16,0.56004
7271.37,0.55956
7265.58,0.56447
7259.8,0.56571
7254.01,0.56824
7248.22,0.56719
7242.44,0.55958
7236.65,0.55954
7230.87,0.56142
7225.08,0.55536
7219.29,0.55926
7213.51,0.56140
7207.72,0.55420
7201.93,0.56087
7196.15,0.55558
7190.36,0.56245
7184.58,0.55618
7178.79,0.55999
7173,0.56368
7167.22,0.55650
7161.43,0.55079
7155.65,0.55233
7149.86,0.56297
7144.07,0.55612
7138.29,0.54982
7132.5,0.55495
7126.71,0.55967
7120.93,0.55319
7115.14,0.56116
7109.36,0.55902
7103.57,0.55416
7097.78,0.55751
7092,0.55555
7086.21,0.55132
7080.42,0.55058
7074.64,0.55207
7068.85,0.55332
7063.07,0.55618
7057.28,0.55787
7051.49,0.55441
7045.71,0.56484
7039.92,0.55887
7034.13,0.55159
7028.35,0.55416
7022.56,0.55444
7016.78,0.55748
7010.99,0.55294
7005.2,0.55836
6999.42,0.55948
6993.63,0.55726
6987.84,0.55176
6982.06,0.55494
6976.27,0.55525
6970.49,0.55620
6964.7,0.56261
6958.91,0.56232
6953.13,0.55971
6947.34,0.55437
6941.55,0.55805
6935.77,0.56334
6929.98,0.56095
6924.2,0.56068
6918.41,0.56600
6912.62,0.55870
6906.84,0.55624
6901.05,0.55844
6895.26,0.55676
6889.48,0.56074
6883.69,0.55807
6877.91,0.56259
6872.12,0.56554
6866.33,0.56341
6860.55,0.56040
6854.76,0.56073
6848.97,0.55974
6843.19,0.56094
6837.4,0.56270
6831.62,0.56090
6825.83,0.56681
6820.04,0.56367
6814.26,0.56446
6808.47,0.56504
6802.68,0.56251
6796.9,0.56370
6791.11,0.56173
6785.33,0.55620
6779.54,0.56317
6773.75,0.55350
6767.97,0.56382
6762.18,0.56479
6756.39,0.56520
6750.61,0.55733
6744.82,0.55958
6739.04,0.55922
6733.25,0.56111
6727.46,0.56157
6721.68,0.56003
6715.89,0.55641
6710.1,0.55881
6704.32,0.55836
6698.53,0.55675
6692.75,0.55245
6686.96,0.55954
6681.17,0.55874
6675.39,0.56118
6669.6,0.56396
6663.82,0.55700
6658.03,0.56181
6652.24,0.55757
6646.46,0.56002
6640.67,0.55424
6634.88,0.56023
6629.1,0.56044
6623.31,0.55889
6617.53,0.56055
6611.74,0.56019
6605.95,0.55651
6600.17,0.56288
6594.38,0.55890
6588.59,0.55940
6582.81,0.55904
6577.02,0.55617
6571.24,0.55687
6565.45,0.56025
6559.66,0.55840
6553.88,0.55726
6548.09,0.55488
6542.3,0.55228
6536.52,0.55566
6530.73,0.54999
6524.95,0.55231
6519.16,0.54774
6513.37,0.55171
6507.59,0.55297
6501.8,0.55482
6496.01,0.55204
6490.23,0.55574
6484.44,0.55276
6478.66,0.55504
6472.87,0.55415
6467.08,0.55557
6461.3,0.56013
6455.51,0.55726
6449.72,0.56262
6443.94,0.56245
6438.15,0.56562
6432.37,0.56248
6426.58,0.56290
6420.79,0.56223
6415.01,0.56495
6409.22,0.56355
6403.43,0.56459
6397.65,0.56378
6391.86,0.55951
6386.08,0.56115
6380.29,0.56129
6374.5,0.56277
6368.72,0.56284
6362.93,0.56177
6357.14,0.56571
6351.36,0.55994
6345.57,0.55832
6339.79,0.55844
6334,0.56089
6328.21,0.56174
6322.43,0.55974
6316.64,0.55866
6310.85,0.55682
6305.07,0.56096
6299.28,0.56283
6293.5,0.55992
6287.71,0.56368
6281.92,0.56122
6276.14,0.56091
6270.35,0.56262
6264.56,0.55777
6258.78,0.55911
6252.99,0.56128
6247.21,0.56219
6241.42,0.55772
6235.63,0.55909
6229.85,0.55962
6224.06,0.56135
6218.27,0.56004
6212.49,0.55649
6206.7,0.55736
6200.92,0.55385
6195.13,0.55413
6189.34,0.55602
6183.56,0.55660
6177.77,0.55415
6171.98,0.55310
6166.2,0.55377
6160.41,0.55464
6154.63,0.55401
6148.84,0.55407
6143.05,0.55225
6137.27,0.55176
6131.48,0.54930
6125.7,0.54861
6119.91,0.54935
6114.12,0.54663
6108.34,0.54055
6102.55,0.53423
6096.76,0.52755
6090.98,0.52131
6085.19,0.51669
6079.41,0.50770
6073.62,0.50028
6067.83,0.49743
6062.05,0.48956
6056.26,0.48127
6050.47,0.47742
6044.69,0.47099
6038.9,0.46406
6033.12,0.45779
6027.33,0.44821
6021.54,0.44419
6015.76,0.44457
6009.97,0.45008
6004.18,0.45675
5998.4,0.46832
5992.61,0.47396
5986.83,0.47711
5981.04,0.48330
5975.25,0.48681
5969.47,0.48814
5963.68,0.49296
5957.89,0.49459
5952.11,0.49393
5946.32,0.49617
5940.54,0.49339
5934.75,0.49786
5928.96,0.50017
5923.18,0.50393
5917.39,0.50836
5911.6,0.50903
5905.82,0.51166
5900.03,0.50880
5894.25,0.50586
5888.46,0.50086
5882.67,0.49842
5876.89,0.49414
5871.1,0.48915
5865.31,0.48690
5859.53,0.48326
5853.74,0.48348
5847.96,0.48332
5842.17,0.47873
5836.38,0.47944
5830.6,0.47817
5824.81,0.47537
5819.02,0.47511
5813.24,0.47440
5807.45,0.47421
5801.67,0.47589
5795.88,0.47523
5790.09,0.47432
5784.31,0.47508
5778.52,0.47778
5772.73,0.47955
5766.95,0.48241
5761.16,0.48369
5755.38,0.48678
5749.59,0.48817
5743.8,0.49188
5738.02,0.49411
5732.23,0.49514
5726.44,0.49476
5720.66,0.49506
5714.87,0.49545
5709.09,0.49466
5703.3,0.49456
5697.51,0.49542
5691.73,0.49934
5685.94,0.50146
5680.15,0.50393
5674.37,0.50359
5668.58,0.50403
5662.8,0.50605
5657.01,0.50876
5651.22,0.51100
5645.44,0.51404
5639.65,0.51678
5633.87,0.51765
5628.08,0.52057
5622.29,0.52150
5616.51,0.52169
5610.72,0.52442
5604.93,0.52262
5599.15,0.52523
5593.36,0.52504
5587.58,0.52465
5581.79,0.52318
5576,0.52182
5570.22,0.52194
5564.43,0.52101
5558.64,0.52337
5552.86,0.52100
5547.07,0.52318
5541.29,0.52234
5535.5,0.52418
5529.71,0.52365
5523.93,0.52308
5518.14,0.52689
5512.35,0.52556
5506.57,0.52606
5500.78,0.52468
5495,0.52626
5489.21,0.52656
5483.42,0.52558
5477.64,0.52397
5471.85,0.52819
5466.06,0.52777
5460.28,0.52672
5454.49,0.52903
5448.71,0.53137
5442.92,0.53218
5437.13,0.53330
5431.35,0.53561
5425.56,0.53592
5419.77,0.53463
5413.99,0.53487
5408.2,0.53531
5402.42,0.53678
5396.63,0.53679
5390.84,0.53929
5385.06,0.53776
5379.27,0.53750
5373.48,0.53887
5367.7,0.53963
5361.91,0.54077
5356.13,0.53918
5350.34,0.53997
5344.55,0.53793
5338.77,0.53965
5332.98,0.54243
5327.19,0.54195
5321.41,0.54158
5315.62,0.54250
5309.84,0.54062
5304.05,0.53976
5298.26,0.53917
5292.48,0.53882
5286.69,0.53771
5280.9,0.53551
5275.12,0.53408
5269.33,0.53146
5263.55,0.53045
5257.76,0.53013
5251.97,0.52866
5246.19,0.52884
5240.4,0.52851
5234.61,0.52698
5228.83,0.52590
5223.04,0.52525
5217.26,0.52668
5211.47,0.52676
5205.68,0.52700
5199.9,0.52701
5194.11,0.52639
5188.32,0.52660
5182.54,0.52488
5176.75,0.52441
5170.97,0.52391
5165.18,0.52231
5159.39,0.52210
5153.61,0.51934
5147.82,0.51805
5142.03,0.51709
5136.25,0.51700
5130.46,0.51487
5124.68,0.51368
5118.89,0.51344
5113.1,0.51483
5107.32,0.51775
5101.53,0.51872
5095.75,0.52260
5089.96,0.52537
5084.17,0.52750
5078.39,0.52966
5072.6,0.52844
5066.81,0.52978
5061.03,0.52972
5055.24,0.52926
5049.46,0.52982
5043.67,0.53064
5037.88,0.53092
5032.1,0.53036
5026.31,0.52906
5020.52,0.52757
5014.74,0.52663
5008.95,0.52682
5003.17,0.52551
4997.38,0.52307
4991.59,0.52159
4985.81,0.51762
4980.02,0.51467
4974.23,0.51438
4968.45,0.51292
4962.66,0.51221
4956.88,0.51104
4951.09,0.50980
4945.3,0.50761
4939.52,0.50678
4933.73,0.50660
4927.94,0.50397
4922.16,0.50221
4916.37,0.49840
4910.59,0.49419
4904.8,0.48962
4899.01,0.48304
4893.23,0.47655
4887.44,0.47209
4881.65,0.46683
4875.87,0.46446
4870.08,0.46222
4864.3,0.46659
4858.51,0.47091
4852.72,0.47896
4846.94,0.48331
4841.15,0.48810
4835.36,0.48868
4829.58,0.48860
4823.79,0.48947
4818.01,0.48843
4812.22,0.48607
4806.43,0.48457
4800.65,0.48313
4794.86,0.48279
4789.07,0.48275
4783.29,0.48355
4777.5,0.48448
4771.72,0.48685
4765.93,0.48565
4760.14,0.48462
4754.36,0.47968
4748.57,0.47389
4742.78,0.46799
4737,0.46114
4731.21,0.45267
4725.43,0.44024
4719.64,0.43081
4713.85,0.42784
4708.07,0.42509
4702.28,0.41541
4696.49,0.40116
4690.71,0.39254
4684.92,0.39453
4679.14,0.40548
4673.35,0.42106
4667.56,0.42975
4661.78,0.43400
4655.99,0.43470
4650.2,0.43124
4644.42,0.42095
4638.63,0.40970
4632.85,0.40428
4627.06,0.41242
4621.27,0.42560
4615.49,0.43627
4609.7,0.44018
4603.92,0.43978
4598.13,0.43270
4592.34,0.42522
4586.56,0.42060
4580.77,0.41697
4574.98,0.41780
4569.2,0.42902
4563.41,0.43951
4557.63,0.44483
4551.84,0.44448
4546.05,0.44464
4540.27,0.44558
4534.48,0.44660
4528.69,0.44518
4522.91,0.44314
4517.12,0.44134
4511.34,0.43855
4505.55,0.43361
4499.76,0.42480
4493.98,0.41180
4488.19,0.40194
4482.4,0.39675
4476.62,0.39022
4470.83,0.38050
4465.05,0.36450
4459.26,0.34947
4453.47,0.34128
4447.69,0.33434
4441.9,0.32558
4436.11,0.31728
4430.33,0.31332
4424.54,0.31314
4418.76,0.31518
4412.97,0.31553
4407.18,0.31294
4401.4,0.31262
4395.61,0.31461
4389.82,0.31767
4384.04,0.31715
4378.25,0.31457
4372.47,0.30943
4366.68,0.30358
4360.89,0.30055
4355.11,0.29960
4349.32,0.30013
4343.53,0.30136
4337.75,0.30159
4331.96,0.30268
4326.18,0.30269
4320.39,0.30225
4314.6,0.30702
4308.82,0.30727
4303.03,0.30421
4297.24,0.29930
4291.46,0.29692
4285.67,0.29490
4279.89,0.29332
4274.1,0.29156
4268.31,0.28963
4262.53,0.29001
4256.74,0.29034
4250.95,0.28927
4245.17,0.29221
4239.38,0.29445
4233.6,0.29681
4227.81,0.29654
4222.02,0.29811
4216.24,0.30132
4210.45,0.30524
4204.66,0.30738
4198.88,0.30850
4193.09,0.30936
4187.31,0.30690
4181.52,0.30258
4175.73,0.30116
4169.95,0.30619
4164.16,0.31366
4158.37,0.32088
4152.59,0.32412
4146.8,0.32583
4141.02,0.32445
4135.23,0.32106
4129.44,0.31925
4123.66,0.31620
4117.87,0.31291
4112.09,0.30715
4106.3,0.29892
4100.51,0.28543
4094.73,0.26736
4088.94,0.25648
4083.15,0.26270
4077.37,0.28008
4071.58,0.29811
4065.8,0.30787
4060.01,0.31264
4054.22,0.31715
4048.44,0.31945
4042.65,0.32238
4036.86,0.32567
4031.08,0.32744
4025.29,0.32838
4019.51,0.32854
4013.72,0.32884
4007.93,0.32940
4002.15,0.32893
3996.36,0.33147
3990.57,0.33391
3984.79,0.33781
3979,0.34200
3973.22,0.34653
3967.43,0.35159
3961.64,0.35595
3955.86,0.36155
3950.07,0.36441
3944.28,0.36755
3938.5,0.37078
3932.71,0.37148
3926.93,0.37114
3921.14,0.37202
3915.35,0.37520
3909.57,0.37914
3903.78,0.38435
3897.99,0.38885
3892.21,0.39198
3886.42,0.39234
3880.64,0.39526
3874.85,0.39783
3869.06,0.40002
3863.28,0.40118
3857.49,0.40163
3851.7,0.40210
3845.92,0.40199
3840.13,0.40302
3834.35,0.40327
3828.56,0.40427
3822.77,0.40423
3816.99,0.40221
3811.2,0.39889
3805.41,0.39747
3799.63,0.40053
3793.84,0.40588
3788.06,0.40864
3782.27,0.40996
3776.48,0.40863
3770.7,0.40555
3764.91,0.40160
3759.12,0.39715
3753.34,0.40050
3747.55,0.41104
3741.77,0.41376
3735.98,0.41056
3730.19,0.40849
3724.41,0.41351
3718.62,0.41782
3712.83,0.41583
3707.05,0.41025
3701.26,0.39911
3695.48,0.38445
3689.69,0.36302
3683.9,0.35001
3678.12,0.35773
3672.33,0.36411
3666.54,0.35974
3660.76,0.35113
3654.97,0.34094
3649.19,0.33022
3643.4,0.32019
3637.61,0.31093
3631.83,0.30380
3626.04,0.29756
3620.25,0.29039
3614.47,0.28390
3608.68,0.27658
3602.9,0.26966
3597.11,0.26204
3591.32,0.25321
3585.54,0.24369
3579.75,0.23299
3573.97,0.22193
3568.18,0.21326
3562.39,0.20525
3556.61,0.19871
3550.82,0.19342
3545.03,0.19074
3539.25,0.18840
3533.46,0.18744
3527.68,0.18718
3521.89,0.18738
3516.1,0.18741
3510.32,0.18674
3504.53,0.18730
3498.74,0.18771
3492.96,0.18741
3487.17,0.18599
3481.39,0.18413
3475.6,0.18017
3469.81,0.17595
3464.03,0.16876
3458.24,0.15880
3452.45,0.14759
3446.67,0.13713
3440.88,0.12660
3435.1,0.11832
3429.31,0.11717
3423.52,0.12469
3417.74,0.13594
3411.95,0.14581
3406.16,0.15102
3400.38,0.15520
3394.59,0.15565
3388.81,0.15406
3383.02,0.15087
3377.23,0.14649
3371.45,0.14300
3365.66,0.13764
3359.87,0.13293
3354.09,0.12906
3348.3,0.12455
3342.52,0.12135
3336.73,0.11814
3330.94,0.11813
3325.16,0.12014
3319.37,0.12111
3313.58,0.12087
3307.8,0.12114
3302.01,0.12096
3296.23,0.12206
3290.44,0.12292
3284.65,0.12413
3278.87,0.12525
3273.08,0.12533
3267.29,0.12650
3261.51,0.12802
3255.72,0.12927
3249.94,0.12967
3244.15,0.13125
3238.36,0.13295
3232.58,0.13519
3226.79,0.13590
3221,0.13838
3215.22,0.13884
3209.43,0.14172
3203.65,0.14192
3197.86,0.14191
3192.07,0.14312
3186.29,0.14458
3180.5,0.14676
3174.71,0.14884
3168.93,0.15131
3163.14,0.15251
3157.36,0.15350
3151.57,0.15331
3145.78,0.15275
3140,0.14892
3134.21,0.14389
3128.42,0.13836
3122.64,0.13680
3116.85,0.13352
3111.07,0.12430
3105.28,0.11465
3099.49,0.11214
3093.71,0.11345
3087.92,0.10885
3082.14,0.10186
3076.35,0.10184
3070.56,0.09991
3064.78,0.10091
3058.99,0.10036
3053.2,0.09997
3047.42,0.11528
3041.63,0.13068
3035.85,0.13436
3030.06,0.13174
3024.27,0.12390
3018.49,0.11114
3012.7,0.09982
3006.91,0.09393
3001.13,0.08861
2995.34,0.08189
2989.56,0.07444
2983.77,0.06378
2977.98,0.05423
2972.2,0.04667
2966.41,0.04414
2960.62,0.04390
2954.84,0.04619
2949.05,0.05061
2943.27,0.05787
2937.48,0.06555
2931.69,0.06926
2925.91,0.06987
2920.12,0.06713
2914.33,0.06233
2908.55,0.05861
2902.76,0.06337
2896.98,0.06869
2891.19,0.07083
2885.4,0.07294
2879.62,0.07562
2873.83,0.07805
2868.04,0.07933
2862.26,0.08170
2856.47,0.08367
2850.69,0.08943
2844.9,0.10312
2839.11,0.11909
2833.33,0.13112
2827.54,0.13999
2821.75,0.14673
2815.97,0.15164
2810.18,0.15473
2804.4,0.15876
2798.61,0.16569
2792.82,0.17365
2787.04,0.18115
2781.25,0.18775
2775.46,0.19238
2769.68,0.19554
2763.89,0.19815
2758.11,0.19968
2752.32,0.20158
2746.53,0.20296
2740.75,0.20607
2734.96,0.21122
2729.17,0.21791
2723.39,0.22482
2717.6,0.23068
2711.82,0.23518
2706.03,0.24013
2700.24,0.24412
2694.46,0.24648
2688.67,0.24859
2682.88,0.25026
2677.1,0.25247
2671.31,0.25567
2665.53,0.25674
2659.74,0.25765
2653.95,0.25756
2648.17,0.25756
2642.38,0.25525
2636.59,0.24894
2630.81,0.24389
2625.02,0.24545
2619.24,0.24780
2613.45,0.24817
2607.66,0.24791
2601.88,0.24681
2596.09,0.24364
2590.3,0.23911
2584.52,0.23530
2578.73,0.23626
2572.95,0.23852
2567.16,0.24035
2561.37,0.24075
2555.59,0.24096
2549.8,0.24115
2544.02,0.24129
2538.23,0.24163
2532.44,0.24268
2526.66,0.24559
2520.87,0.25044
2515.08,0.25472
2509.3,0.25797
2503.51,0.26079
2497.73,0.26387
2491.94,0.26877
2486.15,0.27397
2480.37,0.28016
2474.58,0.28602
2468.79,0.29159
2463.01,0.29576
2457.22,0.29821
2451.44,0.29942
2445.65,0.29789
2439.86,0.29338
2434.08,0.28701
2428.29,0.28003
2422.5,0.27196
2416.72,0.26493
2410.93,0.25849
2405.15,0.25290
2399.36,0.24814
2393.57,0.24445
2387.79,0.24284
2382,0.24390
2376.21,0.24790
2370.43,0.25383
2364.64,0.26179
2358.86,0.27178
2353.07,0.28077
2347.28,0.28802
2341.5,0.29324
2335.71,0.29519
2329.92,0.29484
2324.14,0.29558
2318.35,0.30108
2312.57,0.30501
2306.78,0.30292
2300.99,0.29447
2295.21,0.28164
2289.42,0.26935
2283.63,0.26559
2277.85,0.26871
2272.06,0.27096
2266.28,0.26777
2260.49,0.26015
2254.7,0.24465
2248.92,0.22246
2243.13,0.21237
2237.34,0.23093
2231.56,0.27128
2225.77,0.28947
2219.99,0.29326
2214.2,0.29513
2208.41,0.29872
2202.63,0.30533
2196.84,0.30783
2191.05,0.30587
2185.27,0.30449
2179.48,0.30165
2173.7,0.29549
2167.91,0.28685
2162.12,0.27618
2156.34,0.26506
2150.55,0.25642
2144.76,0.25024
2138.98,0.24577
2133.19,0.24197
2127.41,0.23628
2121.62,0.23111
2115.83,0.22710
2110.05,0.22628
2104.26,0.22685
2098.47,0.22870
2092.69,0.23267
2086.9,0.23868
2081.12,0.24642
2075.33,0.25608
2069.54,0.26699
2063.76,0.27832
2057.97,0.28891
2052.19,0.29793
2046.4,0.30369
2040.61,0.30552
2034.83,0.30438
2029.04,0.30031
2023.25,0.29329
2017.47,0.28544
2011.68,0.27787
2005.9,0.26767
2000.11,0.25629
1994.32,0.24456
1988.54,0.23374
1982.75,0.22431
1976.96,0.21464
1971.18,0.20122
1965.39,0.18275
1959.61,0.16949
1953.82,0.17067
1948.03,0.17864
1942.25,0.19215
1936.46,0.20829
1930.67,0.22327
1924.89,0.23523
1919.1,0.24441
1913.32,0.25202
1907.53,0.25853
1901.74,0.26369
1895.96,0.26803
1890.17,0.27125
1884.38,0.27211
1878.6,0.27066
1872.81,0.26578
1867.03,0.25734
1861.24,0.24553
1855.45,0.22938
1849.67,0.20942
1843.88,0.18970
1838.09,0.17295
1832.31,0.15964
1826.52,0.15055
1820.74,0.14574
1814.95,0.14353
1809.16,0.14103
1803.38,0.13813
1797.59,0.13354
1791.8,0.12679
1786.02,0.11895
1780.23,0.10979
1774.45,0.09949
1768.66,0.08734
1762.87,0.07355
1757.09,0.05787
1751.3,0.04341
1745.51,0.03270
1739.73,0.03062
1733.94,0.03408
1728.16,0.03934
1722.37,0.04402
1716.58,0.04626
1710.8,0.04373
1705.01,0.04342
1699.22,0.04724
1693.44,0.05077
1687.65,0.05059
1681.87,0.05041
1676.08,0.05484
1670.29,0.06064
1664.51,0.06834
1658.72,0.07667
1652.93,0.08279
1647.15,0.08832
1641.36,0.09268
1635.58,0.09540
1629.79,0.09619
1624,0.09717
1618.22,0.09048
1612.43,0.08413
1606.64,0.09533
1600.86,0.10530
1595.07,0.10782
1589.29,0.09873
1583.5,0.07518
1577.71,0.05857
1571.93,0.07369
1566.14,0.08715
1560.35,0.09244
1554.57,0.09461
1548.78,0.09716
1543,0.10034
1537.21,0.09894
1531.42,0.09242
1525.64,0.08604
1519.85,0.08582
1514.07,0.07861
1508.28,0.05339
1502.49,0.05107
1496.71,0.08417
1490.92,0.09309
1485.13,0.07863
1479.35,0.05996
1473.56,0.04633
1467.78,0.04339
1461.99,0.03793
1456.2,0.03390
1450.42,0.03442
1444.63,0.03691
1438.84,0.04032
1433.06,0.04776
1427.27,0.05404
1421.49,0.04645
1415.7,0.03212
1409.91,0.02962
1404.13,0.03349
1398.34,0.03807
1392.55,0.04055
1386.77,0.03922
1380.98,0.03613
1375.2,0.03239
1369.41,0.03203
1363.62,0.03604
1357.84,0.03923
1352.05,0.03684
1346.26,0.03348
1340.48,0.03351
1334.69,0.03514
1328.91,0.03660
1323.12,0.03355
1317.33,0.02952
1311.55,0.02663
1305.76,0.02549
1299.97,0.02550
1294.19,0.02709
1288.4,0.03012
1282.62,0.03332
1276.83,0.03723
1271.04,0.04145
1265.26,0.04458
1259.47,0.04485
1253.68,0.04482
1247.9,0.04549
1242.11,0.04542
1236.33,0.04365
1230.54,0.04427
1224.75,0.04721
1218.97,0.05154
1213.18,0.05639
1207.39,0.05975
1201.61,0.06263
1195.82,0.06827
1190.04,0.07061
1184.25,0.06319
1178.46,0.05166
1172.68,0.04870
1166.89,0.05351
1161.1,0.05194
1155.32,0.04465
1149.53,0.03633
1143.75,0.03251
1137.96,0.03256
1132.17,0.03740
1126.39,0.04034
1120.6,0.04124
1114.81,0.04111
1109.03,0.04120
1103.24,0.04354
1097.46,0.04579
1091.67,0.04566
1085.88,0.04634
1080.1,0.05040
1074.31,0.06045
1068.52,0.07050
1062.74,0.07719
1056.95,0.07431
1051.17,0.06505
1045.38,0.05777
1039.59,0.05692
1033.81,0.05924
1028.02,0.05466
1022.24,0.04904
1016.45,0.05165
1010.66,0.08053
1004.88,0.11297
999.09,0.12404
993.304,0.12354
987.518,0.11216
981.731,0.09979
975.945,0.08284
970.159,0.08246
964.373,0.10332
958.586,0.12678
952.8,0.14348
947.014,0.14880
941.228,0.14491
935.441,0.13825
929.655,0.14578
923.869,0.15319
918.083,0.15035
912.297,0.13218
906.51,0.10385
900.724,0.08967
894.938,0.08957
889.152,0.08976
883.365,0.07772
877.579,0.06291
871.793,0.06202
866.007,0.08572
860.22,0.09177
854.434,0.08336
848.648,0.07636
842.862,0.08254
837.075,0.09714
831.289,0.11295
825.503,0.12293
819.717,0.12516
813.931,0.12220
808.144,0.11772
802.358,0.11432
796.572,0.09615
790.786,0.09383
784.999,0.11964
779.213,0.13385
773.427,0.13858
767.641,0.13995
761.854,0.13642
756.068,0.12394
750.282,0.10696
744.496,0.07621
738.709,0.03961
732.923,0.03294
727.137,0.03981
721.351,0.05289
715.565,0.08281
709.778,0.09615
703.992,0.10617
698.206,0.12990
692.42,0.14495
686.633,0.14396
680.847,0.13542
675.061,0.14694
669.275,0.15928
663.488,0.16588
657.702,0.17138
651.916,0.17625
646.13,0.17934
640.343,0.17651
634.557,0.15720
628.771,0.15649
622.985,0.17418
617.198,0.18254
611.412,0.18474
605.626,0.18310
599.84,0.18176