File: 01_Data/Cotton_Batting/FTIR/IS/Cotton_Batting_IS_S_220912_R6.dpt
7497.03,0.57378
7491.25,0.57978
7485.46,0.57474
7479.67,0.56219
7473.89,0.57069
7468.1,0.57419
7462.32,0.58047
7456.53,0.57223
7450.74,0.56624
7444.96,0.57227
7439.17,0.56698
7433.38,0.57161
7427.6,0.57094
7421.81,0.57084
7416.03,0.56781
7410.24,0.56682
7404.45,0.57139
7398.67,0.57058
7392.88,0.56422
7387.09,0.56232
7381.31,0.57712
7375.52,0.57699
7369.74,0.57060
7363.95,0.56485
7358.16,0.56420
7352.38,0.56390
7346.59,0.57000
7340.8,0.55784
7335.02,0.55924
7329.23,0.56265
7323.45,0.55835
7317.66,0.56435
7311.87,0.56456
7306.09,0.56165
7300.3,0.56417
7294.51,0.56528
7288.73,0.56711
7282.94,0.56281
7277.16,0.56591
7271.37,0.56704
7265.58,0.56529
7259.8,0.55762
7254.01,0.56538
7248.22,0.55808
7242.44,0.55639
7236.65,0.56474
7230.87,0.55078
7225.08,0.55829
7219.29,0.56774
7213.51,0.55892
7207.72,0.55648
7201.93,0.55676
7196.15,0.55452
7190.36,0.55831
7184.58,0.55590
7178.79,0.56088
7173,0.55800
7167.22,0.56450
7161.43,0.55771
7155.65,0.55845
7149.86,0.55657
7144.07,0.55839
7138.29,0.55544
7132.5,0.55312
7126.71,0.55830
7120.93,0.55064
7115.14,0.55280
7109.36,0.54910
7103.57,0.55150
7097.78,0.55519
7092,0.54624
7086.21,0.55137
7080.42,0.55698
7074.64,0.54738
7068.85,0.55049
7063.07,0.55124
7057.28,0.54978
7051.49,0.55630
7045.71,0.55030
7039.92,0.55990
7034.13,0.55211
7028.35,0.54968
7022.56,0.54712
7016.78,0.54948
7010.99,0.55237
7005.2,0.54879
6999.42,0.55572
6993.63,0.54994
6987.84,0.55815
6982.06,0.55315
6976.27,0.55502
6970.49,0.55351
6964.7,0.55601
6958.91,0.55637
6953.13,0.55644
6947.34,0.55854
6941.55,0.55644
6935.77,0.55266
6929.98,0.55415
6924.2,0.55903
6918.41,0.55728
6912.62,0.56033
6906.84,0.55807
6901.05,0.56028
6895.26,0.56474
6889.48,0.55926
6883.69,0.55570
6877.91,0.56027
6872.12,0.55967
6866.33,0.55715
6860.55,0.55427
6854.76,0.55815
6848.97,0.55981
6843.19,0.56140
6837.4,0.56186
6831.62,0.55935
6825.83,0.56068
6820.04,0.55864
6814.26,0.55769
6808.47,0.55967
6802.68,0.55919
6796.9,0.56035
6791.11,0.55563
6785.33,0.56270
6779.54,0.55771
6773.75,0.56013
6767.97,0.55969
6762.18,0.56031
6756.39,0.55468
6750.61,0.56124
6744.82,0.56183
6739.04,0.56260
6733.25,0.55916
6727.46,0.55997
6721.68,0.55891
6715.89,0.55920
6710.1,0.56255
6704.32,0.56229
6698.53,0.55507
6692.75,0.55703
6686.96,0.56173
6681.17,0.55793
6675.39,0.55953
6669.6,0.56336
6663.82,0.56087
6658.03,0.56008
6652.24,0.55611
6646.46,0.55582
6640.67,0.55757
6634.88,0.55402
6629.1,0.55691
6623.31,0.55790
6617.53,0.55749
6611.74,0.55383
6605.95,0.55482
6600.17,0.55726
6594.38,0.55912
6588.59,0.55474
6582.81,0.56355
6577.02,0.55632
6571.24,0.55195
6565.45,0.55647
6559.66,0.55598
6553.88,0.55129
6548.09,0.55208
6542.3,0.55526
6536.52,0.55443
6530.73,0.55367
6524.95,0.55049
6519.16,0.55189
6513.37,0.55363
6507.59,0.54947
6501.8,0.55540
6496.01,0.55141
6490.23,0.55552
6484.44,0.55335
6478.66,0.55803
6472.87,0.55183
6467.08,0.55693
6461.3,0.55694
6455.51,0.55989
6449.72,0.56361
6443.94,0.56050
6438.15,0.56298
6432.37,0.56507
6426.58,0.56238
6420.79,0.56438
6415.01,0.56138
6409.22,0.55945
6403.43,0.56050
6397.65,0.56190
6391.86,0.56044
6386.08,0.55773
6380.29,0.56308
6374.5,0.55878
6368.72,0.55736
6362.93,0.55897
6357.14,0.56017
6351.36,0.55857
6345.57,0.55768
6339.79,0.56197
6334,0.55755
6328.21,0.56168
6322.43,0.56018
6316.64,0.56000
6310.85,0.56217
6305.07,0.56472
6299.28,0.55893
6293.5,0.56179
6287.71,0.55494
6281.92,0.55928
6276.14,0.56236
6270.35,0.55469
6264.56,0.55600
6258.78,0.55733
6252.99,0.55786
6247.21,0.55492
6241.42,0.55588
6235.63,0.55995
6229.85,0.55876
6224.06,0.55795
6218.27,0.55625
6212.49,0.55582
6206.7,0.55552
6200.92,0.55329
6195.13,0.55336
6189.34,0.55074
6183.56,0.55170
6177.77,0.55253
6171.98,0.55541
6166.2,0.55735
6160.41,0.55679
6154.63,0.55390
6148.84,0.55030
6143.05,0.55003
6137.27,0.54882
6131.48,0.54976
6125.7,0.54998
6119.91,0.54708
6114.12,0.54718
6108.34,0.54162
6102.55,0.53469
6096.76,0.52896
6090.98,0.52137
6085.19,0.51548
6079.41,0.50840
6073.62,0.50289
6067.83,0.49709
6062.05,0.48821
6056.26,0.47738
6050.47,0.47236
6044.69,0.46691
6038.9,0.46361
6033.12,0.45678
6027.33,0.44897
6021.54,0.44359
6015.76,0.44383
6009.97,0.44945
6004.18,0.45557
5998.4,0.46382
5992.61,0.47568
5986.83,0.47936
5981.04,0.48224
5975.25,0.48712
5969.47,0.48962
5963.68,0.49347
5957.89,0.49300
5952.11,0.49451
5946.32,0.49539
5940.54,0.49591
5934.75,0.49710
5928.96,0.50212
5923.18,0.50459
5917.39,0.50667
5911.6,0.51041
5905.82,0.51027
5900.03,0.50898
5894.25,0.50680
5888.46,0.49906
5882.67,0.49614
5876.89,0.49279
5871.1,0.48845
5865.31,0.48638
5859.53,0.48367
5853.74,0.48379
5847.96,0.48031
5842.17,0.47746
5836.38,0.47648
5830.6,0.47991
5824.81,0.47696
5819.02,0.47498
5813.24,0.47534
5807.45,0.47800
5801.67,0.47656
5795.88,0.47425
5790.09,0.47412
5784.31,0.47558
5778.52,0.47823
5772.73,0.48025
5766.95,0.48147
5761.16,0.48493
5755.38,0.48783
5749.59,0.48940
5743.8,0.48861
5738.02,0.49407
5732.23,0.49327
5726.44,0.49583
5720.66,0.49701
5714.87,0.49548
5709.09,0.49461
5703.3,0.49588
5697.51,0.49776
5691.73,0.49968
5685.94,0.50122
5680.15,0.50264
5674.37,0.50292
5668.58,0.50563
5662.8,0.50698
5657.01,0.50787
5651.22,0.51016
5645.44,0.51186
5639.65,0.51678
5633.87,0.51792
5628.08,0.52055
5622.29,0.52221
5616.51,0.52294
5610.72,0.52494
5604.93,0.52393
5599.15,0.52637
5593.36,0.52418
5587.58,0.52374
5581.79,0.52286
5576,0.52140
5570.22,0.52328
5564.43,0.52263
5558.64,0.52062
5552.86,0.52284
5547.07,0.52304
5541.29,0.52243
5535.5,0.52442
5529.71,0.52243
5523.93,0.52468
5518.14,0.52422
5512.35,0.52484
5506.57,0.52838
5500.78,0.52713
5495,0.52565
5489.21,0.52410
5483.42,0.52374
5477.64,0.52407
5471.85,0.52656
5466.06,0.52746
5460.28,0.52790
5454.49,0.52908
5448.71,0.52967
5442.92,0.52895
5437.13,0.53189
5431.35,0.53254
5425.56,0.53475
5419.77,0.53582
5413.99,0.53597
5408.2,0.53521
5402.42,0.53792
5396.63,0.53871
5390.84,0.53725
5385.06,0.53786
5379.27,0.53904
5373.48,0.54059
5367.7,0.53868
5361.91,0.53808
5356.13,0.53840
5350.34,0.53855
5344.55,0.53832
5338.77,0.53883
5332.98,0.54095
5327.19,0.54091
5321.41,0.54242
5315.62,0.54207
5309.84,0.54133
5304.05,0.54021
5298.26,0.53757
5292.48,0.53711
5286.69,0.53572
5280.9,0.53520
5275.12,0.53468
5269.33,0.53097
5263.55,0.53012
5257.76,0.52877
5251.97,0.52589
5246.19,0.52588
5240.4,0.52474
5234.61,0.52463
5228.83,0.52514
5223.04,0.52488
5217.26,0.52490
5211.47,0.52518
5205.68,0.52675
5199.9,0.52707
5194.11,0.52545
5188.32,0.52481
5182.54,0.52484
5176.75,0.52156
5170.97,0.52124
5165.18,0.52197
5159.39,0.51965
5153.61,0.51623
5147.82,0.51817
5142.03,0.51636
5136.25,0.51515
5130.46,0.51391
5124.68,0.51306
5118.89,0.51075
5113.1,0.51265
5107.32,0.51485
5101.53,0.51829
5095.75,0.52132
5089.96,0.52288
5084.17,0.52464
5078.39,0.52529
5072.6,0.52684
5066.81,0.52842
5061.03,0.52868
5055.24,0.52890
5049.46,0.52951
5043.67,0.52786
5037.88,0.52845
5032.1,0.52901
5026.31,0.52771
5020.52,0.52747
5014.74,0.52602
5008.95,0.52553
5003.17,0.52409
4997.38,0.52233
4991.59,0.52016
4985.81,0.51932
4980.02,0.51684
4974.23,0.51298
4968.45,0.51259
4962.66,0.51074
4956.88,0.50930
4951.09,0.50923
4945.3,0.50855
4939.52,0.50645
4933.73,0.50553
4927.94,0.50337
4922.16,0.50116
4916.37,0.49761
4910.59,0.49535
4904.8,0.48819
4899.01,0.48257
4893.23,0.47582
4887.44,0.47141
4881.65,0.46601
4875.87,0.46374
4870.08,0.46147
4864.3,0.46574
4858.51,0.46994
4852.72,0.47762
4846.94,0.48327
4841.15,0.48631
4835.36,0.48967
4829.58,0.49013
4823.79,0.48834
4818.01,0.48726
4812.22,0.48578
4806.43,0.48335
4800.65,0.48310
4794.86,0.48268
4789.07,0.48316
4783.29,0.48400
4777.5,0.48380
4771.72,0.48609
4765.93,0.48613
4760.14,0.48339
4754.36,0.47737
4748.57,0.47268
4742.78,0.46669
4737,0.45999
4731.21,0.45201
4725.43,0.44093
4719.64,0.43096
4713.85,0.42741
4708.07,0.42407
4702.28,0.41418
4696.49,0.39984
4690.71,0.39281
4684.92,0.39486
4679.14,0.40545
4673.35,0.42107
4667.56,0.43047
4661.78,0.43420
4655.99,0.43422
4650.2,0.43110
4644.42,0.42066
4638.63,0.40921
4632.85,0.40303
4627.06,0.41199
4621.27,0.42701
4615.49,0.43647
4609.7,0.43921
4603.92,0.43827
4598.13,0.43222
4592.34,0.42510
4586.56,0.42105
4580.77,0.41674
4574.98,0.41799
4569.2,0.42903
4563.41,0.43820
4557.63,0.44285
4551.84,0.44520
4546.05,0.44551
4540.27,0.44571
4534.48,0.44463
4528.69,0.44423
4522.91,0.44331
4517.12,0.44246
4511.34,0.43842
4505.55,0.43366
4499.76,0.42327
4493.98,0.41259
4488.19,0.40209
4482.4,0.39714
4476.62,0.39046
4470.83,0.38167
4465.05,0.36470
4459.26,0.34839
4453.47,0.33981
4447.69,0.33425
4441.9,0.32589
4436.11,0.31612
4430.33,0.31198
4424.54,0.31231
4418.76,0.31539
4412.97,0.31450
4407.18,0.31270
4401.4,0.31189
4395.61,0.31349
4389.82,0.31676
4384.04,0.31754
4378.25,0.31444
4372.47,0.30908
4366.68,0.30402
4360.89,0.30038
4355.11,0.29925
4349.32,0.30019
4343.53,0.30016
4337.75,0.30118
4331.96,0.30324
4326.18,0.30236
4320.39,0.30145
4314.6,0.30646
4308.82,0.30684
4303.03,0.30386
4297.24,0.29995
4291.46,0.29646
4285.67,0.29540
4279.89,0.29368
4274.1,0.29118
4268.31,0.29016
4262.53,0.29102
4256.74,0.29044
4250.95,0.28954
4245.17,0.29205
4239.38,0.29416
4233.6,0.29674
4227.81,0.29690
4222.02,0.29807
4216.24,0.30093
4210.45,0.30502
4204.66,0.30649
4198.88,0.30789
4193.09,0.30846
4187.31,0.30751
4181.52,0.30295
4175.73,0.30109
4169.95,0.30597
4164.16,0.31371
4158.37,0.32073
4152.59,0.32383
4146.8,0.32579
4141.02,0.32536
4135.23,0.32193
4129.44,0.31913
4123.66,0.31635
4117.87,0.31202
4112.09,0.30759
4106.3,0.29867
4100.51,0.28575
4094.73,0.26680
4088.94,0.25702
4083.15,0.26262
4077.37,0.27992
4071.58,0.29726
4065.8,0.30685
4060.01,0.31295
4054.22,0.31666
4048.44,0.31917
4042.65,0.32273
4036.86,0.32577
4031.08,0.32696
4025.29,0.32744
4019.51,0.32850
4013.72,0.32805
4007.93,0.32843
4002.15,0.32895
3996.36,0.33132
3990.57,0.33377
3984.79,0.33769
3979,0.34136
3973.22,0.34589
3967.43,0.35081
3961.64,0.35582
3955.86,0.36008
3950.07,0.36430
3944.28,0.36757
3938.5,0.36985
3932.71,0.37111
3926.93,0.37201
3921.14,0.37240
3915.35,0.37527
3909.57,0.37955
3903.78,0.38397
3897.99,0.38820
3892.21,0.39137
3886.42,0.39333
3880.64,0.39546
3874.85,0.39788
3869.06,0.40032
3863.28,0.40093
3857.49,0.40166
3851.7,0.40264
3845.92,0.40203
3840.13,0.40185
3834.35,0.40321
3828.56,0.40381
3822.77,0.40398
3816.99,0.40131
3811.2,0.39763
3805.41,0.39804
3799.63,0.40017
3793.84,0.40512
3788.06,0.40784
3782.27,0.40894
3776.48,0.40846
3770.7,0.40443
3764.91,0.39997
3759.12,0.39614
3753.34,0.40007
3747.55,0.41057
3741.77,0.41339
3735.98,0.41070
3730.19,0.40772
3724.41,0.41303
3718.62,0.41741
3712.83,0.41508
3707.05,0.40877
3701.26,0.39776
3695.48,0.38295
3689.69,0.36181
3683.9,0.34832
3678.12,0.35516
3672.33,0.36036
3666.54,0.35541
3660.76,0.34681
3654.97,0.33570
3649.19,0.32545
3643.4,0.31447
3637.61,0.30572
3631.83,0.29857
3626.04,0.29209
3620.25,0.28596
3614.47,0.27887
3608.68,0.27205
3602.9,0.26531
3597.11,0.25798
3591.32,0.24939
3585.54,0.23915
3579.75,0.22939
3573.97,0.21871
3568.18,0.20921
3562.39,0.20103
3556.61,0.19555
3550.82,0.19075
3545.03,0.18782
3539.25,0.18537
3533.46,0.18444
3527.68,0.18399
3521.89,0.18418
3516.1,0.18435
3510.32,0.18451
3504.53,0.18498
3498.74,0.18436
3492.96,0.18387
3487.17,0.18327
3481.39,0.18130
3475.6,0.17729
3469.81,0.17331
3464.03,0.16599
3458.24,0.15648
3452.45,0.14632
3446.67,0.13518
3440.88,0.12602
3435.1,0.11702
3429.31,0.11514
3423.52,0.12341
3417.74,0.13453
3411.95,0.14430
3406.16,0.15107
3400.38,0.15454
3394.59,0.15419
3388.81,0.15261
3383.02,0.14933
3377.23,0.14644
3371.45,0.14155
3365.66,0.13666
3359.87,0.13322
3354.09,0.12859
3348.3,0.12443
3342.52,0.12119
3336.73,0.11854
3330.94,0.11842
3325.16,0.12043
3319.37,0.12115
3313.58,0.12131
3307.8,0.12146
3302.01,0.12060
3296.23,0.12151
3290.44,0.12248
3284.65,0.12361
3278.87,0.12526
3273.08,0.12537
3267.29,0.12669
3261.51,0.12748
3255.72,0.12839
3249.94,0.13086
3244.15,0.13132
3238.36,0.13217
3232.58,0.13437
3226.79,0.13562
3221,0.13797
3215.22,0.14012
3209.43,0.14066
3203.65,0.14062
3197.86,0.14204
3192.07,0.14270
3186.29,0.14396
3180.5,0.14609
3174.71,0.14853
3168.93,0.15092
3163.14,0.15263
3157.36,0.15353
3151.57,0.15294
3145.78,0.15165
3140,0.14863
3134.21,0.14298
3128.42,0.13806
3122.64,0.13640
3116.85,0.13295
3111.07,0.12357
3105.28,0.11446
3099.49,0.11209
3093.71,0.11404
3087.92,0.10827
3082.14,0.10221
3076.35,0.10107
3070.56,0.10046
3064.78,0.10105
3058.99,0.10009
3053.2,0.09967
3047.42,0.11506
3041.63,0.13028
3035.85,0.13445
3030.06,0.13173
3024.27,0.12391
3018.49,0.11099
3012.7,0.10031
3006.91,0.09391
3001.13,0.08854
2995.34,0.08200
2989.56,0.07413
2983.77,0.06419
2977.98,0.05387
2972.2,0.04641
2966.41,0.04371
2960.62,0.04409
2954.84,0.04630
2949.05,0.05141
2943.27,0.05823
2937.48,0.06550
2931.69,0.06947
2925.91,0.06936
2920.12,0.06643
2914.33,0.06280
2908.55,0.05856
2902.76,0.06347
2896.98,0.06899
2891.19,0.07082
2885.4,0.07311
2879.62,0.07540
2873.83,0.07752
2868.04,0.07907
2862.26,0.08125
2856.47,0.08368
2850.69,0.08939
2844.9,0.10349
2839.11,0.11927
2833.33,0.13140
2827.54,0.13930
2821.75,0.14693
2815.97,0.15211
2810.18,0.15518
2804.4,0.15875
2798.61,0.16575
2792.82,0.17317
2787.04,0.18110
2781.25,0.18759
2775.46,0.19219
2769.68,0.19558
2763.89,0.19801
2758.11,0.19989
2752.32,0.20175
2746.53,0.20331
2740.75,0.20625
2734.96,0.21120
2729.17,0.21807
2723.39,0.22485
2717.6,0.23069
2711.82,0.23586
2706.03,0.23987
2700.24,0.24390
2694.46,0.24620
2688.67,0.24815
2682.88,0.24981
2677.1,0.25235
2671.31,0.25492
2665.53,0.25675
2659.74,0.25747
2653.95,0.25718
2648.17,0.25745
2642.38,0.25520
2636.59,0.24906
2630.81,0.24398
2625.02,0.24456
2619.24,0.24766
2613.45,0.24810
2607.66,0.24793
2601.88,0.24667
2596.09,0.24369
2590.3,0.23908
2584.52,0.23568
2578.73,0.23600
2572.95,0.23873
2567.16,0.24024
2561.37,0.23990
2555.59,0.24055
2549.8,0.24025
2544.02,0.24107
2538.23,0.24193
2532.44,0.24308
2526.66,0.24546
2520.87,0.24963
2515.08,0.25444
2509.3,0.25814
2503.51,0.26053
2497.73,0.26382
2491.94,0.26819
2486.15,0.27421
2480.37,0.28002
2474.58,0.28587
2468.79,0.29130
2463.01,0.29541
2457.22,0.29807
2451.44,0.29890
2445.65,0.29731
2439.86,0.29312
2434.08,0.28717
2428.29,0.27974
2422.5,0.27211
2416.72,0.26439
2410.93,0.25820
2405.15,0.25280
2399.36,0.24795
2393.57,0.24417
2387.79,0.24268
2382,0.24413
2376.21,0.24788
2370.43,0.25415
2364.64,0.26187
2358.86,0.27193
2353.07,0.28112
2347.28,0.28749
2341.5,0.29316
2335.71,0.29434
2329.92,0.29514
2324.14,0.29548
2318.35,0.30089
2312.57,0.30464
2306.78,0.30266
2300.99,0.29434
2295.21,0.28175
2289.42,0.26968
2283.63,0.26563
2277.85,0.26907
2272.06,0.27067
2266.28,0.26741
2260.49,0.25957
2254.7,0.24427
2248.92,0.22180
2243.13,0.21189
2237.34,0.23112
2231.56,0.27118
2225.77,0.28854
2219.99,0.29301
2214.2,0.29474
2208.41,0.29842
2202.63,0.30522
2196.84,0.30719
2191.05,0.30537
2185.27,0.30409
2179.48,0.30119
2173.7,0.29535
2167.91,0.28669
2162.12,0.27575
2156.34,0.26497
2150.55,0.25626
2144.76,0.24992
2138.98,0.24596
2133.19,0.24108
2127.41,0.23601
2121.62,0.23109
2115.83,0.22710
2110.05,0.22561
2104.26,0.22651
2098.47,0.22895
2092.69,0.23252
2086.9,0.23800
2081.12,0.24601
2075.33,0.25572
2069.54,0.26665
2063.76,0.27788
2057.97,0.28862
2052.19,0.29749
2046.4,0.30345
2040.61,0.30528
2034.83,0.30447
2029.04,0.30003
2023.25,0.29336
2017.47,0.28556
2011.68,0.27759
2005.9,0.26736
2000.11,0.25625
1994.32,0.24410
1988.54,0.23366
1982.75,0.22462
1976.96,0.21455
1971.18,0.20115
1965.39,0.18319
1959.61,0.16935
1953.82,0.17080
1948.03,0.17823
1942.25,0.19188
1936.46,0.20829
1930.67,0.22331
1924.89,0.23489
1919.1,0.24467
1913.32,0.25249
1907.53,0.25845
1901.74,0.26371
1895.96,0.26771
1890.17,0.27094
1884.38,0.27199
1878.6,0.27047
1872.81,0.26560
1867.03,0.25778
1861.24,0.24600
1855.45,0.22946
1849.67,0.20933
1843.88,0.18924
1838.09,0.17271
1832.31,0.15952
1826.52,0.15028
1820.74,0.14567
1814.95,0.14340
1809.16,0.14105
1803.38,0.13791
1797.59,0.13314
1791.8,0.12674
1786.02,0.11906
1780.23,0.10955
1774.45,0.09945
1768.66,0.08673
1762.87,0.07321
1757.09,0.05822
1751.3,0.04364
1745.51,0.03323
1739.73,0.03086
1733.94,0.03457
1728.16,0.03954
1722.37,0.04417
1716.58,0.04646
1710.8,0.04394
1705.01,0.04346
1699.22,0.04760
1693.44,0.05066
1687.65,0.05121
1681.87,0.05028
1676.08,0.05498
1670.29,0.06070
1664.51,0.06855
1658.72,0.07704
1652.93,0.08301
1647.15,0.08828
1641.36,0.09298
1635.58,0.09547
1629.79,0.09620
1624,0.09677
1618.22,0.09002
1612.43,0.08406
1606.64,0.09501
1600.86,0.10491
1595.07,0.10779
1589.29,0.09885
1583.5,0.07492
1577.71,0.05864
1571.93,0.07350
1566.14,0.08704
1560.35,0.09251
1554.57,0.09472
1548.78,0.09723
1543,0.10019
1537.21,0.09922
1531.42,0.09247
1525.64,0.08603
1519.85,0.08594
1514.07,0.07857
1508.28,0.05325
1502.49,0.05119
1496.71,0.08395
1490.92,0.09304
1485.13,0.07862
1479.35,0.06010
1473.56,0.04673
1467.78,0.04351
1461.99,0.03789
1456.2,0.03380
1450.42,0.03424
1444.63,0.03690
1438.84,0.04022
1433.06,0.04761
1427.27,0.05417
1421.49,0.04737
1415.7,0.03244
1409.91,0.02952
1404.13,0.03359
1398.34,0.03822
1392.55,0.04120
1386.77,0.03924
1380.98,0.03605
1375.2,0.03238
1369.41,0.03179
1363.62,0.03623
1357.84,0.03950
1352.05,0.03712
1346.26,0.03368
1340.48,0.03335
1334.69,0.03507
1328.91,0.03667
1323.12,0.03324
1317.33,0.02938
1311.55,0.02719
1305.76,0.02521
1299.97,0.02507
1294.19,0.02674
1288.4,0.03000
1282.62,0.03354
1276.83,0.03708
1271.04,0.04199
1265.26,0.04475
1259.47,0.04481
1253.68,0.04535
1247.9,0.04606
1242.11,0.04553
1236.33,0.04394
1230.54,0.04468
1224.75,0.04779
1218.97,0.05231
1213.18,0.05642
1207.39,0.05916
1201.61,0.06320
1195.82,0.06795
1190.04,0.07060
1184.25,0.06250
1178.46,0.05111
1172.68,0.04899
1166.89,0.05366
1161.1,0.05127
1155.32,0.04441
1149.53,0.03695
1143.75,0.03217
1137.96,0.03276
1132.17,0.03695
1126.39,0.04070
1120.6,0.04160
1114.81,0.04069
1109.03,0.04104
1103.24,0.04328
1097.46,0.04557
1091.67,0.04595
1085.88,0.04697
1080.1,0.05069
1074.31,0.06082
1068.52,0.07117
1062.74,0.07751
1056.95,0.07410
1051.17,0.06468
1045.38,0.05785
1039.59,0.05732
1033.81,0.05969
1028.02,0.05472
1022.24,0.04931
1016.45,0.05220
1010.66,0.08038
1004.88,0.11327
999.09,0.12377
993.304,0.12338
987.518,0.11277
981.731,0.10019
975.945,0.08272
970.159,0.08235
964.373,0.10271
958.586,0.12692
952.8,0.14334
947.014,0.14903
941.228,0.14473
935.441,0.13794
929.655,0.14542
923.869,0.15305
918.083,0.15061
912.297,0.13211
906.51,0.10411
900.724,0.09006
894.938,0.09023
889.152,0.09013
883.365,0.07854
877.579,0.06365
871.793,0.06183
866.007,0.08604
860.22,0.09188
854.434,0.08216
848.648,0.07642
842.862,0.08275
837.075,0.09695
831.289,0.11264
825.503,0.12363
819.717,0.12520
813.931,0.12193
808.144,0.11796
802.358,0.11457
796.572,0.09630
790.786,0.09267
784.999,0.11923
779.213,0.13341
773.427,0.13728
767.641,0.14091
761.854,0.13613
756.068,0.12448
750.282,0.10685
744.496,0.07598
738.709,0.04009
732.923,0.03320
727.137,0.04046
721.351,0.05368
715.565,0.08277
709.778,0.09615
703.992,0.10762
698.206,0.13114
692.42,0.14453
686.633,0.14346
680.847,0.13517
675.061,0.14696
669.275,0.15939
663.488,0.16660
657.702,0.17170
651.916,0.17572
646.13,0.17790
640.343,0.17630
634.557,0.15568
628.771,0.15619
622.985,0.17340
617.198,0.17965
611.412,0.18304
605.626,0.18243
599.84,0.18063