File: 01_Data/ABS/STA/N2/3K_min/ABS_STA_N2_3KData_211019_R1.csv
##Temp./Â°C,Time/min,Mass loss(subtr.2)/mg,DSC(subtr.2)/(mW/mg),Sensit./(uV/mW)
50.205,10.01667,-0.0283,-0.00266273,0.99785
50.805,12.1587,-0.03043013,0.01831209,0.99831
51.405,12.82269,-0.03115346,0.02656925,0.99877
52.005,13.3395,-0.03459959,0.03410551,0.99922
52.605,13.7896,-0.03496327,0.03795429,0.99968
53.205,14.1946,-0.03537672,0.04142969,1.00012
53.805,14.5715,-0.03822297,0.04498536,1.00057
54.405,14.92392,-0.03235653,0.04876089,1.00101
55.005,15.25911,-0.03394634,0.05117674,1.00144
55.605,15.57821,-0.03594544,0.05518572,1.00187
56.205,15.883,-0.03717917,0.05759073,1.0023
56.805,16.17773,-0.03553223,0.0579278,1.00273
57.405,16.46425,-0.03554638,0.0595725,1.00315
58.005,16.74009,-0.03572046,0.06296003,1.00356
58.605,17.01141,-0.03549407,0.06473947,1.00397
59.205,17.27936,-0.03551641,0.06513721,1.00438
59.805,17.54146,-0.0351184,0.06765957,1.00479
60.405,17.79678,-0.03752032,0.06817812,1.00519
61.005,18.04876,-0.03586674,0.07286427,1.00558
61.605,18.29711,-0.03821862,0.0714334,1.00598
62.205,18.54066,-0.03812286,0.07325123,1.00637
62.805,18.78102,-0.03977293,0.07624475,1.00675
63.405,19.0193,-0.03399517,0.07907371,1.00713
64.005,19.25485,-0.0369438,0.07829775,1.00751
64.605,19.48781,-0.03961823,0.0812118,1.00788
65.205,19.7181,-0.036744,0.08049824,1.00826
65.805,19.94707,-0.03816411,0.07992803,1.00862
66.405,20.17449,-0.04008093,0.08227551,1.00898
67.005,20.39989,-0.03751145,0.08499802,1.00934
67.605,20.623,-0.03836963,0.08523275,1.0097
68.205,20.8447,-0.03726252,0.08505869,1.01005
68.805,21.0662,-0.03940738,0.08338047,1.01039
69.405,21.287,-0.0367094,0.08516113,1.01074
70.005,21.50544,-0.0392788,0.08493904,1.01108
70.605,21.72354,-0.03808448,0.08828569,1.01141
71.205,21.9402,-0.03861625,0.08723063,1.01174
71.805,22.15682,-0.03840157,0.08864778,1.01207
72.405,22.37053,-0.03907079,0.08937816,1.0124
73.005,22.58417,-0.03894723,0.08974322,1.01272
73.605,22.7969,-0.04179476,0.09229173,1.01303
74.205,23.00887,-0.03764245,0.09150583,1.01335
74.805,23.22095,-0.0408753,0.0918606,1.01366
75.405,23.4319,-0.04121624,0.09230676,1.01396
76.005,23.6431,-0.04478577,0.0903737,1.01426
76.605,23.85288,-0.04356848,0.09101014,1.01456
77.205,24.0622,-0.04074443,0.08807774,1.01485
77.805,24.2712,-0.04198727,0.09023606,1.01514
78.405,24.4794,-0.03818568,0.08984485,1.01543
79.005,24.6881,-0.03920454,0.09006065,1.01571
79.605,24.8959,-0.0412497,0.08998604,1.01599
80.205,25.10331,-0.04370321,0.08941006,1.01627
80.805,25.30935,-0.04057247,0.0897665,1.01654
81.405,25.51501,-0.04234341,0.08773654,1.01681
82.005,25.7207,-0.04338671,0.09115442,1.01707
82.605,25.92598,-0.03956078,0.09021865,1.01733
83.205,26.1305,-0.04410851,0.09028844,1.01759
83.805,26.3345,-0.04298993,0.0906652,1.01784
84.405,26.53793,-0.04191428,0.0913324,1.01809
85.005,26.7415,-0.04272369,0.08979856,1.01834
85.605,26.94415,-0.0431191,0.09074276,1.01858
86.205,27.14465,-0.0428598,0.08996279,1.01882
86.805,27.3452,-0.04269649,0.09399142,1.01905
87.405,27.54455,-0.04498376,0.0902471,1.01928
88.005,27.74839,-0.04222797,0.09313786,1.01951
88.605,27.9522,-0.04272653,0.09339721,1.01973
89.205,28.15555,-0.04359205,0.09062759,1.01995
89.805,28.3579,-0.04493829,0.09372508,1.02017
90.405,28.55783,-0.0426271,0.09438936,1.02038
91.005,28.7569,-0.04366109,0.0957913,1.02059
91.605,28.95679,-0.0439193,0.09476196,1.0208
92.205,29.15747,-0.04463713,0.09621876,1.021
92.805,29.35815,-0.0462981,0.0942132,1.0212
93.405,29.55831,-0.04370728,0.0957019,1.02139
94.005,29.7576,-0.04212088,0.09845814,1.02158
94.605,29.955,-0.04349927,0.09767258,1.02177
95.205,30.15338,-0.045134,0.09923152,1.02195
95.805,30.35075,-0.04858478,0.09809332,1.02213
96.405,30.54855,-0.04286719,0.09626217,1.02231
97.005,30.74643,-0.04461202,0.09799952,1.02248
97.605,30.94377,-0.04595995,0.09857059,1.02265
98.205,31.14105,-0.04564386,0.09714399,1.02282
98.805,31.3388,-0.04563004,0.09848018,1.02298
99.405,31.53606,-0.04300496,0.09906232,1.02314
100.005,31.7332,-0.04398388,0.1009,1.02329
100.605,31.92985,-0.04692919,0.09999744,1.02344
101.205,32.1259,-0.04539554,0.0995685,1.02359
101.805,32.3221,-0.04430008,0.10265,1.02373
102.405,32.51853,-0.04563051,0.10229,1.02387
103.005,32.71477,-0.04430909,0.10351,1.02401
103.605,32.91065,-0.04563036,0.10397,1.02414
104.205,33.10611,-0.04597031,0.10723,1.02427
104.805,33.302,-0.04471851,0.10318,1.0244
105.405,33.49788,-0.04465944,0.10902,1.02452
106.005,33.69425,-0.04605931,0.10929,1.02464
106.605,33.89073,-0.0471444,0.11017,1.02476
107.205,34.08724,-0.04436177,0.10866,1.02487
107.805,34.2835,-0.0443185,0.11294,1.02498
108.405,34.47891,-0.04563,0.11326,1.02509
109.005,34.67473,-0.04644729,0.11418,1.02519
109.605,34.86996,-0.04563739,0.11541,1.02529
110.205,35.06534,-0.04629382,0.11473,1.02538
110.805,35.26081,-0.04661831,0.11535,1.02547
111.405,35.45584,-0.04397302,0.11297,1.02556
112.005,35.6505,-0.0439888,0.11363,1.02564
112.605,35.84612,-0.04611807,0.11177,1.02573
113.205,36.04148,-0.04363411,0.11312,1.0258
113.805,36.2372,-0.04421502,0.11042,1.02588
114.405,36.43376,-0.044012,0.11177,1.02595
115.005,36.6291,-0.04530341,0.11138,1.02602
115.605,36.824,-0.04529987,0.11002,1.02608
116.205,37.01889,-0.04656107,0.11214,1.02614
116.805,37.2132,-0.04529983,0.113,1.0262
117.405,37.4072,-0.042937,0.11482,1.02625
118.005,37.60065,-0.04510119,0.11731,1.0263
118.605,37.79518,-0.04569788,0.11562,1.02635
119.205,37.98989,-0.04676919,0.11429,1.02639
119.805,38.18502,-0.04937134,0.11588,1.02643
120.405,38.38044,-0.04684585,0.11799,1.02647
121.005,38.57499,-0.04577022,0.11737,1.0265
121.605,38.76937,-0.04574,0.11752,1.02653
122.205,38.96315,-0.04552958,0.11632,1.02656
122.805,39.15675,-0.04655616,0.11659,1.02658
123.405,39.35075,-0.04518716,0.11823,1.0266
124.005,39.54355,-0.04541755,0.11908,1.02662
124.605,39.73676,-0.04541994,0.12089,1.02663
125.205,39.9315,-0.04443074,0.12136,1.02664
125.805,40.12615,-0.04593843,0.12337,1.02664
126.405,40.32156,-0.04586795,0.11794,1.02665
127.005,40.51572,-0.0457437,0.11935,1.02665
127.605,40.70928,-0.04407443,0.12094,1.02664
128.205,40.90266,-0.04562741,0.12277,1.02664
128.805,41.09582,-0.04548555,0.12078,1.02663
129.405,41.28933,-0.04555726,0.12145,1.02661
130.005,41.48213,-0.04497013,0.11869,1.0266
130.605,41.67577,-0.04562987,0.12187,1.02658
131.205,41.86865,-0.04562426,0.12332,1.02655
131.805,42.06216,-0.04549988,0.12124,1.02653
132.405,42.2549,-0.0465962,0.12221,1.0265
133.005,42.44702,-0.04527571,0.12191,1.02646
133.605,42.6398,-0.048279,0.12091,1.02643
134.205,42.83283,-0.0477239,0.12037,1.02639
134.805,43.0261,-0.04512924,0.12041,1.02634
135.405,43.21847,-0.04639115,0.12011,1.0263
136.005,43.41017,-0.04650999,0.12,1.02625
136.605,43.60282,-0.04651082,0.12049,1.0262
137.205,43.79441,-0.04758839,0.12212,1.02614
137.805,43.98767,-0.04695514,0.12157,1.02608
138.405,44.17993,-0.0486487,0.12397,1.02602
139.005,44.37203,-0.04859999,0.12303,1.02595
139.605,44.56517,-0.04800509,0.12103,1.02588
140.205,44.75695,-0.04769568,0.12306,1.02581
140.805,44.94873,-0.04873148,0.12289,1.02574
141.405,45.13943,-0.0491633,0.1228,1.02566
142.005,45.33055,-0.04938879,0.12455,1.02558
142.605,45.52124,-0.04654826,0.12279,1.02549
143.205,45.7127,-0.04804998,0.12336,1.02541
143.805,45.90361,-0.04825849,0.12682,1.02531
144.405,46.09497,-0.04962813,0.12495,1.02522
145.005,46.28667,-0.04853191,0.12599,1.02512
145.605,46.47768,-0.04859004,0.12607,1.02502
146.205,46.67027,-0.0472294,0.12614,1.02492
146.805,46.8618,-0.04728118,0.12644,1.02481
147.405,47.05381,-0.04825773,0.12521,1.0247
148.005,47.2456,-0.04958257,0.12515,1.02459
148.605,47.43742,-0.04760932,0.12698,1.02448
149.205,47.62847,-0.05021486,0.12524,1.02436
149.805,47.8198,-0.04990004,0.12766,1.02424
150.405,48.01127,-0.05023986,0.12775,1.02411
151.005,48.2029,-0.04840487,0.12772,1.02398
151.605,48.3932,-0.04880746,0.12602,1.02385
152.205,48.58321,-0.05023845,0.1283,1.02372
152.805,48.7722,-0.04882391,0.12604,1.02358
153.405,48.96135,-0.05140388,0.12489,1.02344
154.005,49.15148,-0.04886693,0.12626,1.0233
154.605,49.3434,-0.05161418,0.12579,1.02315
155.205,49.53575,-0.05105986,0.12497,1.023
155.805,49.72852,-0.05121654,0.12613,1.02285
156.405,49.92046,-0.05126517,0.13002,1.02269
157.005,50.11096,-0.05115469,0.1275,1.02253
157.605,50.30123,-0.05423318,0.12681,1.02237
158.205,50.49147,-0.0522262,0.1273,1.02221
158.805,50.6817,-0.05012438,0.128,1.02204
159.405,50.87246,-0.05141907,0.13036,1.02187
160.005,51.06358,-0.0518596,0.12789,1.0217
160.605,51.2542,-0.05223349,0.1303,1.02152
161.205,51.4452,-0.05293267,0.12779,1.02134
161.805,51.63592,-0.05265223,0.12822,1.02116
162.405,51.82638,-0.05095704,0.12809,1.02097
163.005,52.01655,-0.05144841,0.12681,1.02079
163.605,52.207,-0.05287764,0.13238,1.0206
164.205,52.39743,-0.05265052,0.13189,1.0204
164.805,52.5876,-0.05066253,0.13191,1.0202
165.405,52.7773,-0.05330997,0.13062,1.02001
166.005,52.9661,-0.05396993,0.12822,1.0198
166.605,53.1554,-0.05248186,0.12952,1.0196
167.205,53.3439,-0.05511213,0.12845,1.01939
167.805,53.5337,-0.04914445,0.12926,1.01918
168.405,53.7239,-0.05338515,0.1272,1.01896
169.005,53.9148,-0.05589002,0.12825,1.01875
169.605,54.1051,-0.05407039,0.12885,1.01853
170.205,54.29464,-0.05145193,0.12735,1.0183
170.805,54.4847,-0.05350355,0.12708,1.01808
171.405,54.6745,-0.05006354,0.1294,1.01785
172.005,54.86375,-0.05166258,0.12671,1.01762
172.605,55.05353,-0.05725591,0.12887,1.01738
173.205,55.243,-0.05412382,0.12824,1.01715
173.805,55.43254,-0.05529006,0.1292,1.01691
174.405,55.62178,-0.05501073,0.12779,1.01667
175.005,55.8115,-0.05790707,0.12658,1.01642
175.605,56.00145,-0.05128643,0.12703,1.01617
176.205,56.1907,-0.05457627,0.12842,1.01592
176.805,56.3812,-0.05747622,0.12906,1.01567
177.405,56.5707,-0.05365003,0.1275,1.01541
178.005,56.7612,-0.0551626,0.12772,1.01515
178.605,56.95255,-0.05383825,0.12815,1.01489
179.205,57.1438,-0.05404698,0.12614,1.01463
179.805,57.33446,-0.05537556,0.12807,1.01436
180.405,57.5243,-0.05797745,0.1276,1.01409
181.005,57.7146,-0.05441828,0.12676,1.01382
181.605,57.90498,-0.05544615,0.12644,1.01354
182.205,58.09535,-0.05710623,0.12668,1.01326
182.805,58.28575,-0.05956758,0.12607,1.01298
183.405,58.4751,-0.05555101,0.12704,1.0127
184.005,58.6646,-0.05693801,0.12739,1.01241
184.605,58.85436,-0.05605215,0.12801,1.01212
185.205,59.04465,-0.05599864,0.12737,1.01183
185.805,59.2346,-0.0586902,0.12546,1.01154
186.405,59.4238,-0.06148747,0.12903,1.01124
187.005,59.6141,-0.05551268,0.13018,1.01094
187.605,59.8026,-0.05835007,0.13148,1.01064
188.205,59.99188,-0.05513397,0.12945,1.01033
188.805,60.1806,-0.05917519,0.13087,1.01002
189.405,60.36885,-0.05740679,0.13009,1.00971
190.005,60.5604,-0.05983236,0.13168,1.0094
190.605,60.7517,-0.05930326,0.12993,1.00909
191.205,60.9416,-0.05800008,0.12874,1.00877
191.805,61.13151,-0.06044424,0.13057,1.00845
192.405,61.321,-0.05779055,0.12975,1.00812
193.005,61.5114,-0.05902726,0.13017,1.0078
193.605,61.70199,-0.06240292,0.12861,1.00747
194.205,61.89204,-0.058548,0.12848,1.00714
194.805,62.08132,-0.0598328,0.12832,1.00681
195.405,62.2709,-0.06192968,0.12848,1.00647
196.005,62.4615,-0.0620655,0.12653,1.00613
196.605,62.65184,-0.05464374,0.12728,1.00579
197.205,62.8423,-0.06141812,0.12818,1.00545
197.805,63.0324,-0.06115215,0.12799,1.0051
198.405,63.22279,-0.06054937,0.12773,1.00475
199.005,63.4128,-0.06287175,0.1284,1.0044
199.605,63.60232,-0.06296538,0.1265,1.00405
200.205,63.79189,-0.06033588,0.1305,1.00369
200.805,63.9817,-0.06154664,0.12829,1.00333
201.405,64.1712,-0.0604212,0.12657,1.00297
202.005,64.36094,-0.06196974,0.1266,1.00261
202.605,64.55038,-0.06198931,0.12724,1.00224
203.205,64.73929,-0.05884018,0.12694,1.00187
203.805,64.9284,-0.06164293,0.12797,1.0015
204.405,65.11698,-0.06416923,0.12471,1.00113
205.005,65.30604,-0.06154041,0.12702,1.00075
205.605,65.49555,-0.06252885,0.12826,1.00038
206.205,65.68404,-0.06417696,0.12772,1.0
206.805,65.87304,-0.06292699,0.12782,0.99961
207.405,66.06222,-0.06286025,0.12799,0.99923
208.005,66.25099,-0.0643459,0.12675,0.99884
208.605,66.44043,-0.06384602,0.12822,0.99845
209.205,66.6297,-0.06446213,0.12704,0.99806
209.805,66.81897,-0.06745485,0.12774,0.99766
210.405,67.00838,-0.06503173,0.12521,0.99727
211.005,67.19774,-0.06669465,0.12733,0.99687
211.605,67.38685,-0.06838699,0.12766,0.99646
212.205,67.57564,-0.06628625,0.12705,0.99606
212.805,67.7642,-0.06326653,0.12724,0.99565
213.405,67.95136,-0.0672385,0.12713,0.99524
214.005,68.13891,-0.06822871,0.12792,0.99483
214.605,68.32677,-0.06494751,0.12726,0.99442
215.205,68.5166,-0.06745994,0.12621,0.994
215.805,68.70721,-0.06877988,0.12475,0.99359
216.405,68.89752,-0.0674612,0.12702,0.99317
217.005,69.0872,-0.07011287,0.1302,0.99274
217.605,69.2762,-0.06877609,0.13126,0.99232
218.205,69.46515,-0.07073069,0.12856,0.99189
218.805,69.65434,-0.07173042,0.12498,0.99146
219.405,69.84353,-0.07035301,0.12725,0.99103
220.005,70.03285,-0.07166032,0.12551,0.9906
220.605,70.22168,-0.06949468,0.12644,0.99016
221.205,70.41037,-0.07397761,0.12578,0.98972
221.805,70.60016,-0.0741543,0.1274,0.98928
222.405,70.78961,-0.07269473,0.12796,0.98884
223.005,70.97964,-0.07244112,0.12726,0.98839
223.605,71.16973,-0.07151481,0.1271,0.98795
224.205,71.35887,-0.07338245,0.12617,0.9875
224.805,71.5489,-0.07306803,0.12635,0.98705
225.405,71.73866,-0.07304986,0.12625,0.98659
226.005,71.92902,-0.07300027,0.12747,0.98614
226.605,72.11944,-0.07338966,0.12616,0.98568
227.205,72.3095,-0.0758489,0.1259,0.98522
227.805,72.49976,-0.07766402,0.12723,0.98476
228.405,72.68987,-0.07595076,0.1262,0.98429
229.005,72.87937,-0.07613182,0.12712,0.98383
229.605,73.0698,-0.07745143,0.1272,0.98336
230.205,73.26026,-0.0774782,0.12776,0.98289
230.805,73.45145,-0.07716002,0.12707,0.98242
231.405,73.64237,-0.07858121,0.12809,0.98194
232.005,73.8321,-0.07743816,0.1274,0.98146
232.605,74.02171,-0.07659708,0.12778,0.98098
233.205,74.21075,-0.08076526,0.12748,0.9805
233.805,74.4007,-0.0792999,0.12933,0.98002
234.405,74.59106,-0.07930862,0.12717,0.97954
235.005,74.78093,-0.07951588,0.1262,0.97905
235.605,74.97073,-0.0830808,0.12661,0.97856
236.205,75.15948,-0.08275675,0.12563,0.97807
236.805,75.34835,-0.08194021,0.12557,0.97758
237.405,75.53702,-0.08447885,0.12617,0.97708
238.005,75.72641,-0.08336,0.12511,0.97658
238.605,75.91551,-0.0820442,0.1238,0.97608
239.205,76.1047,-0.08489789,0.1253,0.97558
239.805,76.2937,-0.08555879,0.12708,0.97508
240.405,76.48313,-0.08555756,0.12696,0.97457
241.005,76.67256,-0.08571293,0.12557,0.97407
241.605,76.86179,-0.0862083,0.12557,0.97356
242.205,77.05198,-0.08752854,0.12881,0.97305
242.805,77.2417,-0.08869916,0.12454,0.97254
243.405,77.43222,-0.08727621,0.12542,0.97202
244.005,77.6225,-0.09100491,0.12582,0.9715
244.605,77.8121,-0.08863878,0.12518,0.97099
245.205,78.00174,-0.08993909,0.12476,0.97046
245.805,78.1914,-0.0912472,0.12728,0.96994
246.405,78.38124,-0.09115895,0.12409,0.96942
247.005,78.57114,-0.08776316,0.12207,0.96889
247.605,78.76055,-0.09433987,0.12534,0.96836
248.205,78.95009,-0.09059562,0.12275,0.96783
248.805,79.13916,-0.0930949,0.12087,0.9673
249.405,79.32934,-0.09272301,0.11906,0.96677
250.005,79.51934,-0.09418289,0.11822,0.96623
250.605,79.70955,-0.09380581,0.12101,0.9657
251.205,79.90026,-0.09497545,0.11936,0.96516
251.805,80.09028,-0.09629967,0.11855,0.96462
252.405,80.28026,-0.0975067,0.11818,0.96407
253.005,80.46983,-0.09771523,0.11723,0.96353
253.605,80.6597,-0.0971204,0.11551,0.96298
254.205,80.84961,-0.09805857,0.11758,0.96243
254.805,81.0388,-0.09911626,0.11543,0.96189
255.405,81.22836,-0.09877136,0.11781,0.96133
256.005,81.41766,-0.09818521,0.11554,0.96078
256.605,81.60706,-0.09859222,0.11357,0.96023
257.205,81.7974,-0.10135,0.11703,0.95967
257.805,81.9872,-0.09972431,0.11565,0.95911
258.405,82.17737,-0.09995377,0.11642,0.95855
259.005,82.3672,-0.09839021,0.11428,0.95799
259.605,82.55702,-0.10266,0.11534,0.95742
260.205,82.74745,-0.10257,0.1164,0.95686
260.805,82.938,-0.10247,0.11462,0.95629
261.405,83.12897,-0.10377,0.11374,0.95572
262.005,83.32001,-0.10311,0.11248,0.95515
262.605,83.5108,-0.10428,0.11331,0.95458
263.205,83.70166,-0.10406,0.11322,0.95401
263.805,83.89251,-0.10443,0.11126,0.95343
264.405,84.08332,-0.10705,0.10835,0.95285
265.005,84.2736,-0.10574,0.11058,0.95228
265.605,84.46419,-0.10632,0.11082,0.95169
266.205,84.6541,-0.10655,0.11152,0.95111
266.805,84.8446,-0.10746,0.11012,0.95053
267.405,85.035,-0.10646,0.10757,0.94994
268.005,85.22578,-0.10913,0.10869,0.94936
268.605,85.41681,-0.11145,0.10941,0.94877
269.205,85.6076,-0.10649,0.10738,0.94818
269.805,85.79847,-0.10997,0.10689,0.94759
270.405,85.98898,-0.10991,0.10387,0.94699
271.005,86.1794,-0.11221,0.10422,0.9464
271.605,86.3694,-0.11217,0.1066,0.9458
272.205,86.55924,-0.1083,0.10235,0.94521
272.805,86.7491,-0.11051,0.10374,0.94461
273.405,86.93862,-0.11196,0.10302,0.94401
274.005,87.12894,-0.11764,0.10649,0.9434
274.605,87.3188,-0.10425,0.10198,0.9428
275.205,87.50956,-0.11549,0.10654,0.9422
275.805,87.70049,-0.11421,0.10884,0.94159
276.405,87.89166,-0.1115,0.10334,0.94098
277.005,88.0827,-0.114,0.10538,0.94037
277.605,88.27362,-0.11611,0.10418,0.93976
278.205,88.46393,-0.11374,0.10159,0.93915
278.805,88.65445,-0.1166,0.10164,0.93853
279.405,88.84552,-0.1166,0.09862397,0.93792
280.005,89.0367,-0.11521,0.09903463,0.9373
280.605,89.22838,-0.11661,0.09937644,0.93668
281.205,89.41986,-0.11636,0.09437549,0.93606
281.805,89.6108,-0.11909,0.09804164,0.93544
282.405,89.8017,-0.11638,0.09285655,0.93482
283.005,89.99225,-0.11973,0.09430767,0.93419
283.605,90.18252,-0.11824,0.09535944,0.93357
284.205,90.3729,-0.12088,0.09614482,0.93294
284.805,90.56279,-0.12091,0.09673988,0.93231
285.405,90.7525,-0.11887,0.09453512,0.93169
286.005,90.94287,-0.12351,0.09445132,0.93105
286.605,91.13384,-0.12018,0.09154977,0.93042
287.205,91.3249,-0.12218,0.0931629,0.92979
287.805,91.51544,-0.12218,0.09352633,0.92915
288.405,91.70577,-0.12384,0.09228449,0.92852
289.005,91.89562,-0.12384,0.09194363,0.92788
289.605,92.0853,-0.1246,0.0937828,0.92724
290.205,92.2756,-0.12462,0.09082536,0.9266
290.805,92.46584,-0.12483,0.09252924,0.92596
291.405,92.65716,-0.12417,0.09285328,0.92532
292.005,92.8484,-0.12286,0.09047284,0.92467
292.605,93.04002,-0.12478,0.09166912,0.92403
293.205,93.23133,-0.12845,0.0940692,0.92338
293.805,93.4226,-0.12763,0.09229099,0.92273
294.405,93.61429,-0.12794,0.09082724,0.92209
295.005,93.80618,-0.12781,0.08897161,0.92144
295.605,93.99916,-0.13088,0.09020469,0.92078
296.205,94.18997,-0.13065,0.09162584,0.92013
296.805,94.3809,-0.13336,0.09423144,0.91948
297.405,94.5723,-0.13263,0.09528542,0.91882
298.005,94.76434,-0.12641,0.0932375,0.91817
298.605,94.95764,-0.1313,0.09310608,0.91751
299.205,95.15115,-0.13112,0.09380711,0.91685
299.805,95.3439,-0.13515,0.09437094,0.91619
300.405,95.5368,-0.13523,0.09943829,0.91553
301.005,95.72989,-0.13053,0.09339154,0.91487
301.605,95.9221,-0.13489,0.09806268,0.91421
302.205,96.11457,-0.13554,0.09612205,0.91354
302.805,96.3069,-0.13372,0.0955915,0.91288
303.405,96.49874,-0.13167,0.09452587,0.91221
304.005,96.69038,-0.13261,0.09522414,0.91154
304.605,96.88211,-0.13393,0.09096131,0.91087
305.205,97.07387,-0.13259,0.09265091,0.9102
305.805,97.26592,-0.13574,0.09307799,0.90953
306.405,97.4575,-0.12768,0.08932024,0.90886
307.005,97.64904,-0.14002,0.09017138,0.90819
307.605,97.83974,-0.13591,0.09134754,0.90751
308.205,98.0307,-0.13624,0.09065024,0.90684
308.805,98.22205,-0.14037,0.09083141,0.90616
309.405,98.41356,-0.14011,0.08674011,0.90548
310.005,98.6061,-0.13861,0.08847411,0.90481
310.605,98.79817,-0.13852,0.08947669,0.90413
311.205,98.99101,-0.14248,0.0889034,0.90345
311.805,99.18396,-0.14216,0.09252179,0.90277
312.405,99.37612,-0.14138,0.08982299,0.90208
313.005,99.56829,-0.14512,0.09040008,0.9014
313.605,99.7598,-0.14333,0.08580468,0.90072
314.205,99.95172,-0.1458,0.08663956,0.90003
314.805,100.143,-0.14481,0.08660163,0.89934
315.405,100.335,-0.14577,0.08283689,0.89866
316.005,100.527,-0.14871,0.08474316,0.89797
316.605,100.718,-0.1474,0.08348388,0.89728
317.205,100.91,-0.14742,0.08115633,0.89659
317.805,101.102,-0.15139,0.08050371,0.8959
318.405,101.2929,-0.15135,0.08235514,0.89521
319.005,101.4849,-0.14848,0.07856438,0.89451
319.605,101.676,-0.15132,0.07742082,0.89382
320.205,101.867,-0.15473,0.08086135,0.89313
320.805,102.059,-0.15072,0.07748455,0.89243
321.405,102.251,-0.14939,0.07641861,0.89173
322.005,102.443,-0.15365,0.07518191,0.89104
322.605,102.635,-0.1516,0.07332081,0.89034
323.205,102.827,-0.15655,0.0742749,0.88964
323.805,103.018,-0.15138,0.07314509,0.88894
324.405,103.21,-0.15703,0.07222222,0.88824
325.005,103.403,-0.15522,0.07003749,0.88754
325.605,103.596,-0.15718,0.06795668,0.88684
326.205,103.788,-0.15981,0.07014036,0.88613
326.805,103.98,-0.1603,0.06783575,0.88543
327.405,104.172,-0.16181,0.06798671,0.88472
328.005,104.364,-0.16274,0.06511791,0.88402
328.605,104.556,-0.16145,0.06298874,0.88331
329.205,104.747,-0.16299,0.05949202,0.8826
329.805,104.939,-0.16697,0.0610458,0.8819
330.405,105.13,-0.16543,0.06304572,0.88119
331.005,105.321,-0.16572,0.06294568,0.88048
331.605,105.5122,-0.17089,0.06248099,0.87977
332.205,105.702,-0.17089,0.06341324,0.87906
332.805,105.893,-0.16731,0.05970222,0.87835
333.405,106.086,-0.17245,0.06112504,0.87763
334.005,106.279,-0.17656,0.06249252,0.87692
334.605,106.474,-0.17119,0.06290255,0.87621
335.205,106.669,-0.17737,0.06296397,0.87549
335.805,106.862,-0.17725,0.06135838,0.87478
336.405,107.056,-0.17653,0.06392497,0.87406
337.005,107.25,-0.18285,0.06541207,0.87335
337.605,107.443,-0.18169,0.06725335,0.87263
338.205,107.637,-0.18373,0.06771407,0.87191
338.805,107.83,-0.18703,0.06732798,0.87119
339.405,108.024,-0.18833,0.06528579,0.87047
340.005,108.218,-0.18414,0.06568666,0.86975
340.605,108.412,-0.18414,0.06503841,0.86903
341.205,108.605,-0.18716,0.06330613,0.86831
341.805,108.798,-0.18935,0.0622054,0.86759
342.405,108.992,-0.19333,0.0671254,0.86687
343.005,109.185,-0.19469,0.06688873,0.86615
343.605,109.378,-0.19874,0.06808436,0.86542
344.205,109.573,-0.20069,0.06763662,0.8647
344.805,109.767,-0.20007,0.07013571,0.86397
345.405,109.961,-0.20274,0.06799878,0.86325
346.005,110.155,-0.20655,0.06841214,0.86252
346.605,110.348,-0.20923,0.06807272,0.8618
347.205,110.54,-0.20918,0.06581525,0.86107
347.805,110.733,-0.21037,0.06552542,0.86034
348.405,110.926,-0.21541,0.07034785,0.85962
349.005,111.118,-0.21696,0.06793081,0.85889
349.605,111.31,-0.21814,0.06836267,0.85816
350.205,111.503,-0.22047,0.06827832,0.85743
350.805,111.695,-0.22367,0.07125027,0.8567
351.405,111.888,-0.22891,0.07451295,0.85597
352.005,112.08,-0.22964,0.0792726,0.85524
352.605,112.2734,-0.23318,0.07816595,0.85451
353.205,112.467,-0.23769,0.08492895,0.85377
353.805,112.6608,-0.23738,0.08972912,0.85304
354.405,112.855,-0.2415,0.09140405,0.85231
355.005,113.05,-0.24396,0.09384058,0.85158
355.605,113.245,-0.24878,0.09789704,0.85084
356.205,113.441,-0.25286,0.10295,0.85011
356.805,113.637,-0.25204,0.10556,0.84937
357.405,113.833,-0.25912,0.10915,0.84864
358.005,114.027,-0.26342,0.11426,0.8479
358.605,114.221,-0.26713,0.1182,0.84717
359.205,114.416,-0.27156,0.12259,0.84643
359.805,114.611,-0.27358,0.12553,0.8457
360.405,114.807,-0.27807,0.12987,0.84496
361.005,115.002,-0.2838,0.13729,0.84422
361.605,115.196,-0.28529,0.13863,0.84348
362.205,115.39,-0.29104,0.1408,0.84275
362.805,115.5836,-0.2945,0.14877,0.84201
363.405,115.778,-0.30391,0.15531,0.84127
364.005,115.972,-0.30496,0.16068,0.84053
364.605,116.166,-0.31091,0.16487,0.83979
365.205,116.359,-0.31661,0.17295,0.83905
365.805,116.552,-0.32298,0.17966,0.83831
366.405,116.744,-0.329,0.18393,0.83757
367.005,116.937,-0.33065,0.18913,0.83683
367.605,117.133,-0.33313,0.19542,0.83609
368.205,117.3293,-0.34787,0.20452,0.83535
368.805,117.526,-0.35329,0.2112,0.83461
369.405,117.722,-0.36207,0.22038,0.83387
370.005,117.917,-0.37088,0.22599,0.83312
370.605,118.111,-0.37853,0.23101,0.83238
371.205,118.305,-0.38371,0.23983,0.83164
371.805,118.5,-0.39014,0.24759,0.8309
372.405,118.694,-0.39991,0.2535,0.83015
373.005,118.888,-0.40765,0.26516,0.82941
373.605,119.082,-0.41559,0.27241,0.82867
374.205,119.277,-0.42639,0.28251,0.82792
374.805,119.4715,-0.43353,0.29225,0.82718
375.405,119.667,-0.44336,0.30311,0.82644
376.005,119.863,-0.45601,0.31117,0.82569
376.605,120.058,-0.46774,0.32168,0.82495
377.205,120.253,-0.47646,0.33096,0.8242
377.805,120.447,-0.49153,0.34369,0.82346
378.405,120.642,-0.50165,0.35577,0.82271
379.005,120.836,-0.51471,0.36382,0.82197
379.605,121.031,-0.52291,0.37448,0.82122
380.205,121.225,-0.54075,0.38429,0.82048
380.805,121.42,-0.55011,0.39865,0.81973
381.405,121.614,-0.56959,0.41362,0.81899
382.005,121.807,-0.58249,0.42768,0.81824
382.605,122.001,-0.5978,0.44305,0.8175
383.205,122.195,-0.61548,0.45391,0.81675
383.805,122.389,-0.63192,0.46988,0.81601
384.405,122.583,-0.65055,0.4838,0.81526
385.005,122.777,-0.67254,0.49821,0.81451
385.605,122.971,-0.68402,0.51214,0.81377
386.205,123.165,-0.7071,0.53255,0.81302
386.805,123.36,-0.72274,0.54742,0.81227
387.405,123.556,-0.74776,0.5623,0.81153
388.005,123.752,-0.77243,0.58315,0.81078
388.605,123.948,-0.79116,0.60091,0.81004
389.205,124.143,-0.82098,0.62349,0.80929
389.805,124.339,-0.84145,0.64043,0.80854
390.405,124.535,-0.86957,0.66211,0.8078
391.005,124.731,-0.89988,0.68622,0.80705
391.605,124.927,-0.92587,0.70575,0.8063
392.205,125.123,-0.94758,0.72503,0.80556
392.805,125.319,-0.97831,0.74532,0.80481
393.405,125.515,-1.02054,0.77194,0.80406
394.005,125.711,-1.043,0.78935,0.80332
394.605,125.9064,-1.07927,0.81187,0.80257
395.205,126.102,-1.11354,0.83627,0.80182
395.805,126.297,-1.14824,0.85486,0.80108
396.405,126.493,-1.18426,0.87469,0.80033
397.005,126.688,-1.22318,0.89446,0.79959
397.605,126.884,-1.25886,0.91494,0.79884
398.205,127.08,-1.30101,0.93327,0.79809
398.805,127.276,-1.34156,0.95404,0.79735
399.405,127.473,-1.38275,0.97454,0.7966
400.005,127.669,-1.42557,0.99288,0.79586
400.605,127.866,-1.46847,1.00967,0.79511
401.205,128.063,-1.51165,1.02445,0.79436
401.805,128.26,-1.5584,1.03935,0.79362
402.405,128.456,-1.60494,1.0508,0.79287
403.005,128.6536,-1.65241,1.05937,0.79213
403.605,128.85,-1.69815,1.065,0.79138
404.205,129.048,-1.74804,1.07261,0.79064
404.805,129.245,-1.79601,1.07651,0.78989
405.405,129.442,-1.84555,1.0783,0.78915
406.005,129.639,-1.89315,1.07923,0.7884
406.605,129.836,-1.94172,1.0775,0.78766
407.205,130.033,-1.98915,1.07397,0.78691
407.805,130.231,-2.03941,1.06789,0.78617
408.405,130.428,-2.08686,1.0586,0.78543
409.005,130.624,-2.13826,1.05183,0.78468
409.605,130.82,-2.1885,1.03789,0.78394
410.205,131.016,-2.23252,1.02363,0.7832
410.805,131.212,-2.27972,1.005,0.78245
411.405,131.408,-2.32738,0.98703,0.78171
412.005,131.605,-2.37557,0.97111,0.78097
412.605,131.8,-2.4167,0.94779,0.78022
413.205,131.9957,-2.46136,0.92827,0.77948
413.805,132.191,-2.50222,0.90274,0.77874
414.405,132.387,-2.54734,0.88006,0.778
415.005,132.583,-2.58427,0.8552,0.77726
415.605,132.779,-2.62618,0.83179,0.77652
416.205,132.974,-2.66466,0.80615,0.77577
416.805,133.17,-2.70315,0.77979,0.77503
417.405,133.365,-2.7386,0.75714,0.77429
418.005,133.56,-2.7775,0.73068,0.77355
418.605,133.755,-2.8108,0.70557,0.77281
419.205,133.9492,-2.84086,0.68122,0.77207
419.805,134.1437,-2.87347,0.65962,0.77134
420.405,134.338,-2.90534,0.63656,0.7706
421.005,134.533,-2.93786,0.61529,0.76986
421.605,134.728,-2.96629,0.59958,0.76912
422.205,134.923,-2.99411,0.57994,0.76838
422.805,135.118,-3.02315,0.56168,0.76764
423.405,135.312,-3.05069,0.54252,0.76691
424.005,135.507,-3.07824,0.52957,0.76617
424.605,135.702,-3.10382,0.51221,0.76543
425.205,135.897,-3.129,0.49899,0.7647
425.805,136.093,-3.15595,0.48105,0.76396
426.405,136.289,-3.1777,0.46773,0.76323
427.005,136.485,-3.2031,0.45835,0.76249
427.605,136.681,-3.22318,0.44463,0.76176
428.205,136.877,-3.24661,0.43507,0.76102
428.805,137.074,-3.26908,0.42302,0.76029
429.405,137.27,-3.29111,0.41242,0.75955
430.005,137.466,-3.31101,0.39894,0.75882
430.605,137.662,-3.33228,0.38697,0.75809
431.205,137.858,-3.35331,0.37569,0.75736
431.805,138.053,-3.37066,0.36613,0.75662
432.405,138.249,-3.39231,0.35616,0.75589
433.005,138.447,-3.41137,0.34307,0.75516
433.605,138.644,-3.42922,0.33042,0.75443
434.205,138.842,-3.44779,0.323,0.7537
434.805,139.041,-3.46407,0.30848,0.75297
435.405,139.2393,-3.48085,0.30222,0.75224
436.005,139.438,-3.49404,0.28882,0.75152
436.605,139.634,-3.51132,0.28174,0.75079
437.205,139.831,-3.52463,0.27224,0.75006
437.805,140.027,-3.53939,0.26238,0.74933
438.405,140.223,-3.55346,0.25239,0.74861
439.005,140.42,-3.56504,0.24109,0.74788
439.605,140.617,-3.57863,0.236,0.74715
440.205,140.815,-3.59269,0.22522,0.74643
440.805,141.012,-3.60016,0.21697,0.7457
441.405,141.21,-3.61185,0.21072,0.74498
442.005,141.407,-3.62324,0.2086,0.74426
442.605,141.604,-3.63521,0.20133,0.74353
443.205,141.8015,-3.64668,0.19966,0.74281
443.805,141.999,-3.65783,0.19411,0.74209
444.405,142.195,-3.66818,0.19125,0.74137
445.005,142.392,-3.67747,0.18821,0.74065
445.605,142.588,-3.68637,0.18543,0.73993
446.205,142.786,-3.69163,0.18266,0.73921
446.805,142.984,-3.70513,0.18121,0.73849
447.405,143.182,-3.71408,0.17781,0.73777
448.005,143.381,-3.72664,0.17923,0.73705
448.605,143.5776,-3.73145,0.17689,0.73633
449.205,143.776,-3.74263,0.17477,0.73562
449.805,143.973,-3.74937,0.17435,0.7349
450.405,144.172,-3.75855,0.17031,0.73419
451.005,144.37,-3.76678,0.17083,0.73347
451.605,144.568,-3.77015,0.16385,0.73276
452.205,144.7661,-3.7814,0.16044,0.73204
452.805,144.964,-3.78761,0.16335,0.73133
453.405,145.163,-3.7953,0.16067,0.73062
454.005,145.3614,-3.80231,0.15815,0.72991
454.605,145.5597,-3.81002,0.16093,0.72919
455.205,145.758,-3.81693,0.15155,0.72848
455.805,145.955,-3.82488,0.14913,0.72777
456.405,146.1523,-3.82982,0.14819,0.72706
457.005,146.349,-3.83567,0.14619,0.72636
457.605,146.546,-3.84249,0.14456,0.72565
458.205,146.742,-3.84997,0.14052,0.72494
458.805,146.94,-3.85505,0.13688,0.72423
459.405,147.137,-3.85939,0.13171,0.72353
460.005,147.334,-3.86352,0.12725,0.72282
460.605,147.531,-3.8694,0.1294,0.72212
461.205,147.729,-3.87454,0.12638,0.72142
461.805,147.926,-3.87786,0.12505,0.72071
462.405,148.125,-3.88335,0.12008,0.72001
463.005,148.323,-3.88795,0.11696,0.71931
463.605,148.522,-3.89098,0.11586,0.71861
464.205,148.721,-3.89442,0.10904,0.71791
464.805,148.92,-3.89923,0.10868,0.71721
465.405,149.119,-3.90246,0.10611,0.71651
466.005,149.318,-3.90593,0.10092,0.71581
466.605,149.517,-3.90758,0.0972887,0.71512
467.205,149.716,-3.90877,0.09363074,0.71442
467.805,149.913,-3.9124,0.08912481,0.71372
468.405,150.111,-3.91691,0.08933451,0.71303
469.005,150.309,-3.91757,0.08719502,0.71234
469.605,150.507,-3.918,0.08491418,0.71164
470.205,150.705,-3.91887,0.08232795,0.71095
470.805,150.9026,-3.9215,0.0844586,0.71026
471.405,151.1,-3.92314,0.07836357,0.70957
472.005,151.297,-3.92339,0.07899983,0.70888
472.605,151.493,-3.92324,0.07475205,0.70819
473.205,151.69,-3.92391,0.07468715,0.7075
473.805,151.889,-3.92615,0.07218339,0.70681
474.405,152.0894,-3.92527,0.07174982,0.70613
475.005,152.29,-3.92521,0.07509531,0.70544
475.605,152.4894,-3.92654,0.07232512,0.70476
476.205,152.6883,-3.92654,0.06688157,0.70407
476.805,152.886,-3.92801,0.07128475,0.70339
477.405,153.083,-3.92994,0.06968183,0.70271
478.005,153.282,-3.92831,0.06824339,0.70202
478.605,153.48,-3.93002,0.06792297,0.70134
479.205,153.679,-3.92973,0.064843,0.70066
479.805,153.88,-3.92854,0.06238034,0.69998
480.405,154.08,-3.93001,0.06039712,0.69931
481.005,154.28,-3.93007,0.05910664,0.69863
481.605,154.48,-3.92874,0.05442566,0.69795
482.205,154.6802,-3.93028,0.05700102,0.69728
482.805,154.88,-3.93006,0.04904112,0.6966
483.405,155.079,-3.92909,0.0535496,0.69593
484.005,155.2764,-3.93171,0.05271713,0.69525
484.605,155.474,-3.93153,0.05141242,0.69458
485.205,155.672,-3.9317,0.051318,0.69391
485.805,155.87,-3.93027,0.05432682,0.69324
486.405,156.068,-3.93413,0.05213579,0.69257
487.005,156.2667,-3.93027,0.04662586,0.6919
487.605,156.465,-3.93258,0.04105828,0.69124
488.205,156.665,-3.93395,0.04376648,0.69057
488.805,156.863,-3.93115,0.04315744,0.6899
489.405,157.063,-3.93357,0.04408951,0.68924
490.005,157.262,-3.9327,0.04247896,0.68857
490.605,157.46,-3.93217,0.04236916,0.68791
491.205,157.6601,-3.93299,0.04198502,0.68725
491.805,157.859,-3.93171,0.04385325,0.68659
492.405,158.059,-3.93238,0.04375458,0.68593
493.005,158.258,-3.93343,0.04764121,0.68527
493.605,158.458,-3.93465,0.04873692,0.68461
494.205,158.658,-3.93312,0.04729998,0.68396
494.805,158.857,-3.93174,0.04270128,0.6833
495.405,159.055,-3.93147,0.04722954,0.68264
496.005,159.253,-3.93182,0.04407278,0.68199
496.605,159.452,-3.9339,0.04938698,0.68134
497.205,159.652,-3.93761,0.0476754,0.68069
497.805,159.852,-3.93381,0.04839263,0.68003
498.405,160.051,-3.93958,0.04768728,0.67938
499.005,160.251,-3.935,0.05131508,0.67874
499.605,160.451,-3.93428,0.05390471,0.67809
500.205,160.65,-3.93434,0.05182022,0.67744
500.805,160.849,-3.93565,0.05491235,0.67679
501.405,161.047,-3.93305,0.05265698,0.67615
502.005,161.2439,-3.9327,0.05010898,0.67551
502.605,161.443,-3.93544,0.05567784,0.67486
503.205,161.643,-3.93296,0.05620098,0.67422
503.805,161.845,-3.93422,0.06004355,0.67358
504.405,162.048,-3.93446,0.06506703,0.67294
505.005,162.25,-3.93325,0.06070721,0.6723
505.605,162.452,-3.93458,0.06240212,0.67166
506.205,162.654,-3.93685,0.0632739,0.67103
506.805,162.856,-3.93587,0.07000823,0.67039
507.405,163.058,-3.93455,0.07577332,0.66976
508.005,163.26,-3.93533,0.07494235,0.66912
508.605,163.461,-3.93527,0.07798106,0.66849
509.205,163.662,-3.9362,0.07420177,0.66786
509.805,163.862,-3.93509,0.07898918,0.66723
510.405,164.062,-3.93642,0.07920088,0.6666
511.005,164.261,-3.93336,0.07801723,0.66597
511.605,164.46,-3.93706,0.07760758,0.66535
512.205,164.657,-3.93592,0.0749122,0.66472
512.805,164.856,-3.93738,0.07505082,0.6641
513.405,165.054,-3.93489,0.07569123,0.66347
514.005,165.253,-3.9369,0.07264938,0.66285
514.605,165.452,-3.93657,0.07614834,0.66223
515.205,165.652,-3.93538,0.0788316,0.66161
515.805,165.852,-3.93723,0.0795017,0.66099
516.405,166.052,-3.93711,0.07864578,0.66037
517.005,166.252,-3.93465,0.07975293,0.65975
517.605,166.451,-3.93433,0.07834007,0.65914
518.205,166.652,-3.93571,0.07723162,0.65852
518.805,166.851,-3.93572,0.07747078,0.65791
519.405,167.051,-3.93476,0.07615608,0.6573
520.005,167.251,-3.93816,0.07918097,0.65669
520.605,167.4507,-3.93587,0.07829129,0.65608
521.205,167.651,-3.93717,0.07783311,0.65547
521.805,167.85,-3.93664,0.08177435,0.65486
522.405,168.051,-3.93668,0.07919575,0.65425
523.005,168.253,-3.93674,0.08550093,0.65365
523.605,168.4542,-3.93686,0.08333445,0.65304
524.205,168.655,-3.9383,0.08508274,0.65244
524.805,168.855,-3.9384,0.0811242,0.65184
525.405,169.055,-3.94032,0.08018784,0.65124
526.005,169.254,-3.93484,0.07986536,0.65064
526.605,169.452,-3.9374,0.08236972,0.65004
527.205,169.651,-3.93871,0.08266176,0.64944
527.805,169.85,-3.94026,0.081914,0.64885
528.405,170.049,-3.9363,0.08079486,0.64825
529.005,170.249,-3.94059,0.08065738,0.64766
529.605,170.449,-3.93773,0.07742144,0.64707
530.205,170.6489,-3.93905,0.07341308,0.64648
530.805,170.848,-3.93773,0.07859435,0.64589
531.405,171.049,-3.93905,0.07798693,0.6453
532.005,171.249,-3.93904,0.07766608,0.64471
532.605,171.45,-3.93773,0.07510852,0.64412
533.205,171.65,-3.93839,0.07491133,0.64354
533.805,171.85,-3.93773,0.07939841,0.64295
534.405,172.05,-3.93916,0.08036437,0.64237
535.005,172.25,-3.9385,0.0804628,0.64179
535.605,172.45,-3.93916,0.08405398,0.64121
536.205,172.651,-3.93964,0.08125588,0.64063
536.805,172.8516,-3.93828,0.08389274,0.64005
537.405,173.052,-3.93913,0.07952319,0.63948
538.005,173.253,-3.94016,0.08309058,0.6389
538.605,173.455,-3.93876,0.08141285,0.63833
539.205,173.657,-3.94076,0.0805327,0.63776
539.805,173.86,-3.93971,0.08780867,0.63718
540.405,174.063,-3.94104,0.0852002,0.63661
541.005,174.2652,-3.93873,0.08312582,0.63605
541.605,174.4675,-3.94136,0.08226584,0.63548
542.205,174.669,-3.94266,0.08546619,0.63491
542.805,174.87,-3.94004,0.08597397,0.63435
543.405,175.07,-3.9398,0.08555681,0.63378
544.005,175.27,-3.94109,0.08715237,0.63322
544.605,175.471,-3.93993,0.08346172,0.63266
545.205,175.674,-3.94107,0.08839933,0.6321
545.805,175.877,-3.93987,0.08914808,0.63154
546.405,176.08,-3.9423,0.09387504,0.63098
547.005,176.282,-3.94147,0.08798999,0.63043
547.605,176.484,-3.94147,0.09157147,0.62987
548.205,176.685,-3.94015,0.09501121,0.62932
548.805,176.887,-3.94155,0.09521701,0.62877
549.405,177.09,-3.94132,0.09668503,0.62821
550.005,177.291,-3.94119,0.09436095,0.62767
550.605,177.492,-3.94302,0.09561065,0.62712
551.205,177.694,-3.9421,0.09927794,0.62657
551.805,177.896,-3.94196,0.09304678,0.62602
552.405,178.098,-3.94156,0.0937181,0.62548
553.005,178.3,-3.94114,0.09504947,0.62494
553.605,178.501,-3.94168,0.08780145,0.6244
554.205,178.702,-3.94041,0.09091412,0.62386
554.805,178.902,-3.94141,0.09276015,0.62332
555.405,179.102,-3.94412,0.08896138,0.62278
556.005,179.302,-3.94214,0.09135252,0.62224
556.605,179.503,-3.94185,0.09299664,0.62171
557.205,179.705,-3.94352,0.09551482,0.62117
557.805,179.907,-3.94506,0.09996262,0.62064
558.405,180.108,-3.94246,0.10175,0.62011
559.005,180.308,-3.94376,0.10287,0.61958
559.605,180.508,-3.94376,0.10577,0.61905
560.205,180.707,-3.94264,0.10446,0.61852
560.805,180.907,-3.94246,0.10293,0.618
561.405,181.1075,-3.94398,0.10379,0.61748
562.005,181.308,-3.9429,0.10694,0.61695
562.605,181.509,-3.94278,0.11106,0.61643
563.205,181.711,-3.9442,0.11064,0.61591
563.805,181.913,-3.94502,0.11476,0.61539
564.405,182.115,-3.9442,0.11643,0.61487
565.005,182.317,-3.94135,0.11213,0.61436
565.605,182.518,-3.9442,0.11827,0.61384
566.205,182.719,-3.9444,0.12014,0.61333
566.805,182.92,-3.94461,0.11966,0.61282
567.405,183.121,-3.94519,0.11893,0.61231
568.005,183.322,-3.94579,0.12045,0.6118
568.605,183.523,-3.94587,0.12424,0.61129
569.205,183.724,-3.94563,0.12037,0.61078
569.805,183.926,-3.94263,0.12061,0.61028
570.405,184.128,-3.94542,0.12484,0.60978
571.005,184.33,-3.94382,0.12617,0.60927
571.605,184.532,-3.94415,0.12841,0.60877
572.205,184.734,-3.94564,0.13227,0.60827
572.805,184.937,-3.94587,0.1271,0.60777
573.405,185.1388,-3.94607,0.13345,0.60728
574.005,185.342,-3.94612,0.13001,0.60678
574.605,185.544,-3.94493,0.13095,0.60629
575.205,185.746,-3.94519,0.12934,0.6058
575.805,185.948,-3.94508,0.12887,0.60531
576.405,186.15,-3.94508,0.13148,0.60482
577.005,186.352,-3.94634,0.12645,0.60433
577.605,186.5531,-3.94508,0.12341,0.60384
578.205,186.753,-3.9465,0.12398,0.60335
578.805,186.954,-3.94618,0.12244,0.60287
579.405,187.156,-3.94576,0.12524,0.60239
580.005,187.358,-3.9442,0.12538,0.60191
580.605,187.56,-3.94698,0.12496,0.60143
581.205,187.761,-3.9484,0.12894,0.60095
581.805,187.962,-3.94436,0.12283,0.60047
582.405,188.163,-3.94679,0.12191,0.6
583.005,188.364,-3.94822,0.125,0.59952
583.605,188.564,-3.94857,0.12581,0.59905
584.205,188.7646,-3.94848,0.12459,0.59858
584.805,188.966,-3.94574,0.12597,0.59811
585.405,189.167,-3.94838,0.12023,0.59764
586.005,189.372,-3.94616,0.12287,0.59717
586.605,189.576,-3.94765,0.1277,0.59671
587.205,189.781,-3.94482,0.1276,0.59624
587.805,189.984,-3.94717,0.12872,0.59578
588.405,190.1876,-3.9464,0.1278,0.59532
589.005,190.391,-3.9476,0.13366,0.59486
589.605,190.596,-3.9462,0.1293,0.5944
590.205,190.8,-3.94486,0.13353,0.59395
590.805,191.005,-3.94684,0.13529,0.59349
591.405,191.209,-3.94822,0.14068,0.59304
592.005,191.413,-3.94696,0.13642,0.59258
592.605,191.616,-3.94695,0.1421,0.59213
593.205,191.819,-3.94629,0.13833,0.59168
593.805,192.021,-3.94596,0.14197,0.59124
594.405,192.224,-3.94734,0.14203,0.59079
595.005,192.427,-3.94689,0.13793,0.59034
595.605,192.63,-3.94656,0.14086,0.5899
596.205,192.833,-3.94824,0.13748,0.58946
596.805,193.036,-3.94671,0.13658,0.58902
597.405,193.239,-3.9485,0.14082,0.58858
598.005,193.441,-3.94706,0.13901,0.58814
598.605,193.644,-3.94807,0.14093,0.5877
599.205,193.847,-3.9463,0.13848,0.58727
599.805,194.051,-3.94822,0.14063,0.58684
600.405,194.254,-3.94726,0.14443,0.5864
601.005,194.457,-3.94762,0.14534,0.58597
601.605,194.661,-3.94671,0.14537,0.58554
602.205,194.864,-3.94728,0.14318,0.58512
602.805,195.0677,-3.94596,0.14288,0.58469
603.405,195.272,-3.9453,0.14079,0.58427
604.005,195.476,-3.94658,0.14175,0.58384
604.605,195.679,-3.94659,0.14434,0.58342
605.205,195.884,-3.94661,0.14061,0.583
605.805,196.088,-3.94796,0.14576,0.58258
606.405,196.291,-3.9465,0.14721,0.58217
607.005,196.494,-3.9453,0.14462,0.58175
607.605,196.696,-3.94582,0.14522,0.58134
608.205,196.896,-3.94493,0.13949,0.58092
608.805,197.096,-3.94489,0.13872,0.58051
609.405,197.297,-3.94746,0.13618,0.5801
610.005,197.498,-3.94553,0.1352,0.57969
610.605,197.7,-3.94706,0.13342,0.57929
611.205,197.903,-3.94563,0.14037,0.57888
611.805,198.106,-3.94583,0.13522,0.57848
612.405,198.309,-3.94567,0.13827,0.57808
613.005,198.512,-3.9444,0.1344,0.57768
613.605,198.714,-3.94284,0.13684,0.57728
614.205,198.916,-3.94311,0.13788,0.57688
614.805,199.119,-3.94874,0.13708,0.57648
615.405,199.323,-3.94423,0.13409,0.57609
616.005,199.528,-3.9442,0.13633,0.57569
616.605,199.732,-3.94537,0.13403,0.5753
617.205,199.937,-3.94284,0.13631,0.57491
617.805,200.142,-3.94497,0.13111,0.57452
618.405,200.347,-3.94684,0.13389,0.57414
619.005,200.551,-3.94629,0.13446,0.57375
619.605,200.7559,-3.94399,0.135,0.57337
620.205,200.961,-3.94557,0.13733,0.57298
620.805,201.165,-3.94598,0.13728,0.5726
621.405,201.369,-3.94377,0.13254,0.57222
622.005,201.572,-3.94531,0.1355,0.57184
622.605,201.775,-3.94651,0.13236,0.57147
623.205,201.978,-3.94388,0.13078,0.57109
623.805,202.182,-3.94226,0.12964,0.57072
624.405,202.385,-3.94508,0.12659,0.57035
625.005,202.589,-3.94387,0.12702,0.56998
625.605,202.793,-3.94381,0.12553,0.56961
626.205,202.997,-3.94496,0.12768,0.56924
626.805,203.2,-3.94157,0.12744,0.56887
627.405,203.403,-3.94397,0.12641,0.56851
628.005,203.605,-3.94266,0.12767,0.56814
628.605,203.807,-3.94627,0.12463,0.56778
629.205,204.01,-3.94387,0.1229,0.56742
629.805,204.214,-3.94534,0.12805,0.56706
630.405,204.418,-3.94398,0.12771,0.56671
631.005,204.621,-3.94564,0.12761,0.56635
631.605,204.825,-3.94229,0.11868,0.566
632.205,205.03,-3.94143,0.11532,0.56564
632.805,205.234,-3.94429,0.11548,0.56529
633.405,205.438,-3.94398,0.10886,0.56494
634.005,205.642,-3.94503,0.11153,0.5646
634.605,205.846,-3.94538,0.11393,0.56425
635.205,206.05,-3.94496,0.11143,0.5639
635.805,206.2539,-3.94043,0.11332,0.56356
636.405,206.458,-3.94406,0.11755,0.56322
637.005,206.661,-3.94211,0.11834,0.56288
637.605,206.865,-3.9449,0.12245,0.56254
638.205,207.07,-3.94333,0.12042,0.5622
638.805,207.2744,-3.94333,0.13008,0.56187
639.405,207.479,-3.94563,0.12754,0.56153
640.005,207.683,-3.94431,0.12714,0.5612
640.605,207.888,-3.9459,0.13164,0.56087
641.205,208.093,-3.94345,0.12807,0.56054
641.805,208.299,-3.94214,0.13241,0.56021
642.405,208.505,-3.9427,0.13084,0.55988
643.005,208.71,-3.94414,0.13193,0.55956
643.605,208.9151,-3.94517,0.12926,0.55923
644.205,209.1197,-3.94446,0.12724,0.55891
644.805,209.324,-3.94505,0.12626,0.55859
645.405,209.527,-3.94378,0.12361,0.55827
646.005,209.7301,-3.9451,0.11642,0.55795
646.605,209.9317,-3.94473,0.11489,0.55764
646.705,209.967,-3.94464,0.11533,0.55758