File: 01_Data/Pine_Siding/FTIR/IS/Pine_Siding_IS_S_220916_R3.dpt
7497.03,0.83009
7491.25,0.84013
7485.46,0.83506
7479.67,0.82421
7473.89,0.82917
7468.1,0.82742
7462.32,0.83011
7456.53,0.81293
7450.74,0.80973
7444.96,0.80850
7439.17,0.81894
7433.38,0.81387
7427.6,0.81321
7421.81,0.80978
7416.03,0.80565
7410.24,0.80027
7404.45,0.79565
7398.67,0.78867
7392.88,0.79299
7387.09,0.79683
7381.31,0.79067
7375.52,0.78979
7369.74,0.78737
7363.95,0.78895
7358.16,0.78075
7352.38,0.79034
7346.59,0.77346
7340.8,0.78155
7335.02,0.78239
7329.23,0.76395
7323.45,0.76896
7317.66,0.76899
7311.87,0.77289
7306.09,0.77224
7300.3,0.77317
7294.51,0.76879
7288.73,0.77163
7282.94,0.76858
7277.16,0.76535
7271.37,0.77002
7265.58,0.76924
7259.8,0.76682
7254.01,0.75632
7248.22,0.75818
7242.44,0.76121
7236.65,0.76576
7230.87,0.76417
7225.08,0.76451
7219.29,0.76263
7213.51,0.75659
7207.72,0.75661
7201.93,0.75751
7196.15,0.75073
7190.36,0.75308
7184.58,0.75529
7178.79,0.74466
7173,0.74373
7167.22,0.74098
7161.43,0.73563
7155.65,0.73148
7149.86,0.72808
7144.07,0.73148
7138.29,0.73084
7132.5,0.72677
7126.71,0.72812
7120.93,0.71292
7115.14,0.70420
7109.36,0.70396
7103.57,0.70279
7097.78,0.69618
7092,0.69115
7086.21,0.68648
7080.42,0.67400
7074.64,0.67325
7068.85,0.66624
7063.07,0.65819
7057.28,0.65521
7051.49,0.65421
7045.71,0.63775
7039.92,0.63797
7034.13,0.62468
7028.35,0.62801
7022.56,0.61858
7016.78,0.61492
7010.99,0.61167
7005.2,0.61558
6999.42,0.60625
6993.63,0.60041
6987.84,0.60007
6982.06,0.59836
6976.27,0.59270
6970.49,0.59435
6964.7,0.59744
6958.91,0.59513
6953.13,0.58926
6947.34,0.58798
6941.55,0.58754
6935.77,0.58886
6929.98,0.58130
6924.2,0.58574
6918.41,0.58630
6912.62,0.58378
6906.84,0.58188
6901.05,0.58148
6895.26,0.58468
6889.48,0.58203
6883.69,0.58204
6877.91,0.58186
6872.12,0.58023
6866.33,0.57919
6860.55,0.58244
6854.76,0.57816
6848.97,0.58057
6843.19,0.58428
6837.4,0.57938
6831.62,0.57624
6825.83,0.58088
6820.04,0.58461
6814.26,0.58175
6808.47,0.58366
6802.68,0.58858
6796.9,0.58087
6791.11,0.58151
6785.33,0.57785
6779.54,0.58558
6773.75,0.58490
6767.97,0.57996
6762.18,0.58002
6756.39,0.58204
6750.61,0.58029
6744.82,0.58069
6739.04,0.58502
6733.25,0.58752
6727.46,0.58904
6721.68,0.58883
6715.89,0.58913
6710.1,0.58259
6704.32,0.58663
6698.53,0.59059
6692.75,0.59871
6686.96,0.59358
6681.17,0.58382
6675.39,0.59298
6669.6,0.59205
6663.82,0.59545
6658.03,0.59510
6652.24,0.59936
6646.46,0.59735
6640.67,0.59414
6634.88,0.60237
6629.1,0.59665
6623.31,0.60088
6617.53,0.59645
6611.74,0.60640
6605.95,0.60711
6600.17,0.60398
6594.38,0.60558
6588.59,0.60601
6582.81,0.60599
6577.02,0.60592
6571.24,0.60768
6565.45,0.60697
6559.66,0.60710
6553.88,0.60974
6548.09,0.60982
6542.3,0.61153
6536.52,0.60987
6530.73,0.61320
6524.95,0.61306
6519.16,0.61307
6513.37,0.61178
6507.59,0.61530
6501.8,0.61699
6496.01,0.61632
6490.23,0.61859
6484.44,0.61516
6478.66,0.61364
6472.87,0.61342
6467.08,0.61620
6461.3,0.61697
6455.51,0.61620
6449.72,0.61751
6443.94,0.62158
6438.15,0.61705
6432.37,0.62033
6426.58,0.62266
6420.79,0.62098
6415.01,0.61989
6409.22,0.61883
6403.43,0.62105
6397.65,0.62086
6391.86,0.62445
6386.08,0.62503
6380.29,0.62489
6374.5,0.62337
6368.72,0.62283
6362.93,0.62683
6357.14,0.62563
6351.36,0.62625
6345.57,0.62824
6339.79,0.62717
6334,0.62749
6328.21,0.62648
6322.43,0.62902
6316.64,0.62728
6310.85,0.62838
6305.07,0.62821
6299.28,0.63014
6293.5,0.63118
6287.71,0.63337
6281.92,0.63388
6276.14,0.63495
6270.35,0.63848
6264.56,0.63882
6258.78,0.64138
6252.99,0.64300
6247.21,0.64300
6241.42,0.64511
6235.63,0.64750
6229.85,0.65071
6224.06,0.65408
6218.27,0.65711
6212.49,0.65260
6206.7,0.65585
6200.92,0.65920
6195.13,0.66207
6189.34,0.66334
6183.56,0.66105
6177.77,0.66219
6171.98,0.66636
6166.2,0.67170
6160.41,0.67086
6154.63,0.67416
6148.84,0.66967
6143.05,0.67405
6137.27,0.67351
6131.48,0.67483
6125.7,0.67591
6119.91,0.67758
6114.12,0.67970
6108.34,0.67966
6102.55,0.68685
6096.76,0.68145
6090.98,0.68191
6085.19,0.68378
6079.41,0.67909
6073.62,0.68206
6067.83,0.68172
6062.05,0.67849
6056.26,0.67909
6050.47,0.67901
6044.69,0.67809
6038.9,0.67642
6033.12,0.67364
6027.33,0.67400
6021.54,0.67140
6015.76,0.67058
6009.97,0.66673
6004.18,0.66618
5998.4,0.66284
5992.61,0.66135
5986.83,0.66023
5981.04,0.66110
5975.25,0.65846
5969.47,0.65674
5963.68,0.65858
5957.89,0.66094
5952.11,0.65826
5946.32,0.66076
5940.54,0.66325
5934.75,0.66091
5928.96,0.66240
5923.18,0.66218
5917.39,0.66195
5911.6,0.66172
5905.82,0.65962
5900.03,0.65659
5894.25,0.65658
5888.46,0.65766
5882.67,0.65549
5876.89,0.65467
5871.1,0.65482
5865.31,0.65629
5859.53,0.65513
5853.74,0.65566
5847.96,0.65527
5842.17,0.65511
5836.38,0.65296
5830.6,0.65324
5824.81,0.65195
5819.02,0.65123
5813.24,0.65146
5807.45,0.65037
5801.67,0.65166
5795.88,0.64851
5790.09,0.65006
5784.31,0.65062
5778.52,0.65009
5772.73,0.65117
5766.95,0.65397
5761.16,0.65342
5755.38,0.65290
5749.59,0.65453
5743.8,0.65398
5738.02,0.65436
5732.23,0.65275
5726.44,0.65206
5720.66,0.65073
5714.87,0.65102
5709.09,0.65301
5703.3,0.65168
5697.51,0.65189
5691.73,0.65211
5685.94,0.65154
5680.15,0.65023
5674.37,0.65046
5668.58,0.65048
5662.8,0.65122
5657.01,0.64900
5651.22,0.65010
5645.44,0.64907
5639.65,0.64920
5633.87,0.64947
5628.08,0.64772
5622.29,0.64888
5616.51,0.64934
5610.72,0.64918
5604.93,0.64830
5599.15,0.64677
5593.36,0.64903
5587.58,0.65143
5581.79,0.64952
5576,0.64953
5570.22,0.65073
5564.43,0.65077
5558.64,0.65233
5552.86,0.65122
5547.07,0.65428
5541.29,0.65244
5535.5,0.65459
5529.71,0.65482
5523.93,0.65442
5518.14,0.65499
5512.35,0.65453
5506.57,0.65584
5500.78,0.65767
5495,0.65664
5489.21,0.65849
5483.42,0.65859
5477.64,0.65740
5471.85,0.65970
5466.06,0.65909
5460.28,0.65896
5454.49,0.65914
5448.71,0.66272
5442.92,0.66309
5437.13,0.66618
5431.35,0.66623
5425.56,0.66791
5419.77,0.66916
5413.99,0.66995
5408.2,0.66977
5402.42,0.67299
5396.63,0.67298
5390.84,0.67282
5385.06,0.67374
5379.27,0.67411
5373.48,0.67383
5367.7,0.67390
5361.91,0.67252
5356.13,0.67288
5350.34,0.67131
5344.55,0.67118
5338.77,0.66856
5332.98,0.66810
5327.19,0.66481
5321.41,0.65938
5315.62,0.65497
5309.84,0.64962
5304.05,0.64350
5298.26,0.63602
5292.48,0.62732
5286.69,0.61890
5280.9,0.60878
5275.12,0.59752
5269.33,0.58708
5263.55,0.57274
5257.76,0.56233
5251.97,0.55140
5246.19,0.54070
5240.4,0.53145
5234.61,0.52363
5228.83,0.51771
5223.04,0.51360
5217.26,0.50842
5211.47,0.50356
5205.68,0.50259
5199.9,0.50031
5194.11,0.49891
5188.32,0.49873
5182.54,0.49940
5176.75,0.50115
5170.97,0.50109
5165.18,0.50352
5159.39,0.50672
5153.61,0.50811
5147.82,0.51181
5142.03,0.51457
5136.25,0.51807
5130.46,0.52118
5124.68,0.52588
5118.89,0.52651
5113.1,0.53087
5107.32,0.53378
5101.53,0.53723
5095.75,0.54054
5089.96,0.54407
5084.17,0.54769
5078.39,0.54961
5072.6,0.55161
5066.81,0.55573
5061.03,0.55750
5055.24,0.56012
5049.46,0.56409
5043.67,0.56680
5037.88,0.56860
5032.1,0.56964
5026.31,0.57200
5020.52,0.57408
5014.74,0.57563
5008.95,0.57691
5003.17,0.57701
4997.38,0.57630
4991.59,0.57625
4985.81,0.57516
4980.02,0.57361
4974.23,0.57166
4968.45,0.56848
4962.66,0.56462
4956.88,0.56098
4951.09,0.55703
4945.3,0.55319
4939.52,0.54681
4933.73,0.54115
4927.94,0.53652
4922.16,0.53125
4916.37,0.52414
4910.59,0.51996
4904.8,0.51290
4899.01,0.50763
4893.23,0.50192
4887.44,0.49756
4881.65,0.49102
4875.87,0.48575
4870.08,0.48044
4864.3,0.47663
4858.51,0.47228
4852.72,0.46712
4846.94,0.46326
4841.15,0.46009
4835.36,0.45562
4829.58,0.45155
4823.79,0.44902
4818.01,0.44437
4812.22,0.44414
4806.43,0.44111
4800.65,0.43891
4794.86,0.43752
4789.07,0.43605
4783.29,0.43490
4777.5,0.43449
4771.72,0.43362
4765.93,0.43250
4760.14,0.43187
4754.36,0.43264
4748.57,0.43153
4742.78,0.43255
4737,0.43226
4731.21,0.43340
4725.43,0.43421
4719.64,0.43487
4713.85,0.43510
4708.07,0.43485
4702.28,0.43673
4696.49,0.43708
4690.71,0.43796
4684.92,0.44031
4679.14,0.44082
4673.35,0.44218
4667.56,0.44423
4661.78,0.44699
4655.99,0.44939
4650.2,0.45213
4644.42,0.45377
4638.63,0.45636
4632.85,0.46011
4627.06,0.46133
4621.27,0.46525
4615.49,0.46853
4609.7,0.47231
4603.92,0.47608
4598.13,0.47858
4592.34,0.48232
4586.56,0.48457
4580.77,0.48729
4574.98,0.48930
4569.2,0.49138
4563.41,0.49338
4557.63,0.49460
4551.84,0.49641
4546.05,0.49808
4540.27,0.49872
4534.48,0.50104
4528.69,0.50095
4522.91,0.50277
4517.12,0.50329
4511.34,0.50302
4505.55,0.50243
4499.76,0.50107
4493.98,0.49790
4488.19,0.49606
4482.4,0.49194
4476.62,0.48747
4470.83,0.48120
4465.05,0.47462
4459.26,0.46797
4453.47,0.46126
4447.69,0.45320
4441.9,0.44675
4436.11,0.43930
4430.33,0.43052
4424.54,0.42257
4418.76,0.41462
4412.97,0.40757
4407.18,0.40196
4401.4,0.40008
4395.61,0.39898
4389.82,0.40024
4384.04,0.40186
4378.25,0.40439
4372.47,0.40746
4366.68,0.40948
4360.89,0.41189
4355.11,0.41330
4349.32,0.41253
4343.53,0.41259
4337.75,0.41074
4331.96,0.41000
4326.18,0.40744
4320.39,0.40543
4314.6,0.40211
4308.82,0.39997
4303.03,0.39688
4297.24,0.39451
4291.46,0.39214
4285.67,0.39130
4279.89,0.38931
4274.1,0.38931
4268.31,0.39051
4262.53,0.39178
4256.74,0.39502
4250.95,0.39551
4245.17,0.39547
4239.38,0.39699
4233.6,0.39650
4227.81,0.39640
4222.02,0.39579
4216.24,0.39575
4210.45,0.39617
4204.66,0.39706
4198.88,0.39728
4193.09,0.39726
4187.31,0.39776
4181.52,0.39887
4175.73,0.40058
4169.95,0.40228
4164.16,0.40340
4158.37,0.40308
4152.59,0.40162
4146.8,0.40050
4141.02,0.39841
4135.23,0.39564
4129.44,0.39227
4123.66,0.38805
4117.87,0.38389
4112.09,0.37889
4106.3,0.37326
4100.51,0.36889
4094.73,0.36240
4088.94,0.35647
4083.15,0.35119
4077.37,0.34478
4071.58,0.33932
4065.8,0.33355
4060.01,0.32824
4054.22,0.32272
4048.44,0.31806
4042.65,0.31400
4036.86,0.30987
4031.08,0.30707
4025.29,0.30436
4019.51,0.30342
4013.72,0.30230
4007.93,0.30226
4002.15,0.30338
3996.36,0.30450
3990.57,0.30563
3984.79,0.30787
3979,0.30888
3973.22,0.31099
3967.43,0.31253
3961.64,0.31568
3955.86,0.31809
3950.07,0.32113
3944.28,0.32436
3938.5,0.32701
3932.71,0.32971
3926.93,0.33295
3921.14,0.33657
3915.35,0.33895
3909.57,0.34027
3903.78,0.34369
3897.99,0.34534
3892.21,0.34760
3886.42,0.34959
3880.64,0.35199
3874.85,0.35364
3869.06,0.35571
3863.28,0.35863
3857.49,0.36124
3851.7,0.36372
3845.92,0.36612
3840.13,0.36826
3834.35,0.36872
3828.56,0.36954
3822.77,0.37019
3816.99,0.37008
3811.2,0.36966
3805.41,0.36879
3799.63,0.36942
3793.84,0.36904
3788.06,0.36882
3782.27,0.36791
3776.48,0.36661
3770.7,0.36597
3764.91,0.36479
3759.12,0.36272
3753.34,0.36018
3747.55,0.35722
3741.77,0.35436
3735.98,0.35229
3730.19,0.34683
3724.41,0.34201
3718.62,0.33654
3712.83,0.32991
3707.05,0.32226
3701.26,0.31313
3695.48,0.30301
3689.69,0.29069
3683.9,0.27466
3678.12,0.25874
3672.33,0.23913
3666.54,0.22122
3660.76,0.20439
3654.97,0.18802
3649.19,0.17423
3643.4,0.16057
3637.61,0.14995
3631.83,0.14044
3626.04,0.13009
3620.25,0.12278
3614.47,0.11361
3608.68,0.10681
3602.9,0.09946
3597.11,0.09337
3591.32,0.08772
3585.54,0.08303
3579.75,0.07892
3573.97,0.07486
3568.18,0.07132
3562.39,0.06836
3556.61,0.06604
3550.82,0.06436
3545.03,0.06132
3539.25,0.05929
3533.46,0.05812
3527.68,0.05644
3521.89,0.05498
3516.1,0.05357
3510.32,0.05285
3504.53,0.05156
3498.74,0.05053
3492.96,0.04954
3487.17,0.04885
3481.39,0.04822
3475.6,0.04798
3469.81,0.04701
3464.03,0.04610
3458.24,0.04645
3452.45,0.04654
3446.67,0.04579
3440.88,0.04518
3435.1,0.04571
3429.31,0.04605
3423.52,0.04588
3417.74,0.04495
3411.95,0.04508
3406.16,0.04560
3400.38,0.04594
3394.59,0.04590
3388.81,0.04587
3383.02,0.04686
3377.23,0.04611
3371.45,0.04668
3365.66,0.04727
3359.87,0.04759
3354.09,0.04865
3348.3,0.04927
3342.52,0.05022
3336.73,0.05085
3330.94,0.05241
3325.16,0.05283
3319.37,0.05325
3313.58,0.05365
3307.8,0.05483
3302.01,0.05506
3296.23,0.05541
3290.44,0.05700
3284.65,0.05670
3278.87,0.05804
3273.08,0.05932
3267.29,0.06095
3261.51,0.06171
3255.72,0.06265
3249.94,0.06438
3244.15,0.06511
3238.36,0.06611
3232.58,0.06820
3226.79,0.06927
3221,0.07147
3215.22,0.07317
3209.43,0.07458
3203.65,0.07663
3197.86,0.07816
3192.07,0.08012
3186.29,0.08185
3180.5,0.08296
3174.71,0.08550
3168.93,0.08727
3163.14,0.08924
3157.36,0.09048
3151.57,0.09291
3145.78,0.09565
3140,0.09777
3134.21,0.09931
3128.42,0.10112
3122.64,0.10306
3116.85,0.10527
3111.07,0.10665
3105.28,0.10898
3099.49,0.11084
3093.71,0.11252
3087.92,0.11402
3082.14,0.11556
3076.35,0.11665
3070.56,0.11814
3064.78,0.11948
3058.99,0.12108
3053.2,0.12298
3047.42,0.12480
3041.63,0.12584
3035.85,0.12696
3030.06,0.12694
3024.27,0.12683
3018.49,0.12589
3012.7,0.12377
3006.91,0.12135
3001.13,0.11917
2995.34,0.11640
2989.56,0.11378
2983.77,0.10814
2977.98,0.10101
2972.2,0.09372
2966.41,0.08836
2960.62,0.08518
2954.84,0.08233
2949.05,0.07890
2943.27,0.07537
2937.48,0.07396
2931.69,0.07419
2925.91,0.07382
2920.12,0.07337
2914.33,0.07321
2908.55,0.07402
2902.76,0.07374
2896.98,0.07466
2891.19,0.07640
2885.4,0.07760
2879.62,0.07887
2873.83,0.08026
2868.04,0.08246
2862.26,0.08471
2856.47,0.08657
2850.69,0.08953
2844.9,0.09393
2839.11,0.09906
2833.33,0.10434
2827.54,0.11088
2821.75,0.11714
2815.97,0.12289
2810.18,0.12733
2804.4,0.13169
2798.61,0.13526
2792.82,0.13733
2787.04,0.14006
2781.25,0.14151
2775.46,0.14342
2769.68,0.14418
2763.89,0.14506
2758.11,0.14612
2752.32,0.14659
2746.53,0.14677
2740.75,0.14707
2734.96,0.14740
2729.17,0.14858
2723.39,0.15009
2717.6,0.15158
2711.82,0.15322
2706.03,0.15598
2700.24,0.15768
2694.46,0.15989
2688.67,0.16252
2682.88,0.16433
2677.1,0.16598
2671.31,0.16758
2665.53,0.16931
2659.74,0.17053
2653.95,0.17177
2648.17,0.17342
2642.38,0.17443
2636.59,0.17661
2630.81,0.17874
2625.02,0.18065
2619.24,0.18221
2613.45,0.18352
2607.66,0.18513
2601.88,0.18635
2596.09,0.18801
2590.3,0.18946
2584.52,0.19066
2578.73,0.19169
2572.95,0.19295
2567.16,0.19350
2561.37,0.19406
2555.59,0.19408
2549.8,0.19456
2544.02,0.19479
2538.23,0.19588
2532.44,0.19701
2526.66,0.19892
2520.87,0.20066
2515.08,0.20197
2509.3,0.20412
2503.51,0.20682
2497.73,0.20999
2491.94,0.21246
2486.15,0.21518
2480.37,0.21729
2474.58,0.21938
2468.79,0.22195
2463.01,0.22374
2457.22,0.22564
2451.44,0.22803
2445.65,0.23030
2439.86,0.23346
2434.08,0.23582
2428.29,0.23916
2422.5,0.24218
2416.72,0.24542
2410.93,0.24885
2405.15,0.25112
2399.36,0.25405
2393.57,0.25647
2387.79,0.25959
2382,0.26196
2376.21,0.26422
2370.43,0.26667
2364.64,0.26887
2358.86,0.27080
2353.07,0.27230
2347.28,0.27366
2341.5,0.27540
2335.71,0.27652
2329.92,0.27744
2324.14,0.27835
2318.35,0.27883
2312.57,0.27922
2306.78,0.27917
2300.99,0.27841
2295.21,0.27801
2289.42,0.27787
2283.63,0.27768
2277.85,0.27710
2272.06,0.27561
2266.28,0.27392
2260.49,0.27198
2254.7,0.27069
2248.92,0.26965
2243.13,0.26914
2237.34,0.26865
2231.56,0.26730
2225.77,0.26722
2219.99,0.26728
2214.2,0.26700
2208.41,0.26631
2202.63,0.26477
2196.84,0.26283
2191.05,0.26031
2185.27,0.25674
2179.48,0.25351
2173.7,0.25025
2167.91,0.24708
2162.12,0.24472
2156.34,0.24294
2150.55,0.24124
2144.76,0.23982
2138.98,0.23905
2133.19,0.23896
2127.41,0.23920
2121.62,0.24007
2115.83,0.24116
2110.05,0.24210
2104.26,0.24290
2098.47,0.24370
2092.69,0.24379
2086.9,0.24441
2081.12,0.24376
2075.33,0.24225
2069.54,0.24118
2063.76,0.24050
2057.97,0.23963
2052.19,0.23982
2046.4,0.24076
2040.61,0.24291
2034.83,0.24571
2029.04,0.24876
2023.25,0.25164
2017.47,0.25556
2011.68,0.25790
2005.9,0.25984
2000.11,0.26157
1994.32,0.26339
1988.54,0.26537
1982.75,0.26694
1976.96,0.26820
1971.18,0.26984
1965.39,0.27137
1959.61,0.27396
1953.82,0.27672
1948.03,0.27982
1942.25,0.28300
1936.46,0.28513
1930.67,0.28731
1924.89,0.28801
1919.1,0.28876
1913.32,0.28895
1907.53,0.28815
1901.74,0.28729
1895.96,0.28682
1890.17,0.28632
1884.38,0.28578
1878.6,0.28515
1872.81,0.28522
1867.03,0.28481
1861.24,0.28413
1855.45,0.28297
1849.67,0.28146
1843.88,0.27954
1838.09,0.27709
1832.31,0.27483
1826.52,0.27141
1820.74,0.26751
1814.95,0.26284
1809.16,0.25725
1803.38,0.25101
1797.59,0.24385
1791.8,0.23558
1786.02,0.22465
1780.23,0.21115
1774.45,0.19441
1768.66,0.17120
1762.87,0.14722
1757.09,0.12330
1751.3,0.10691
1745.51,0.09594
1739.73,0.09072
1733.94,0.09061
1728.16,0.09401
1722.37,0.09947
1716.58,0.10760
1710.8,0.11490
1705.01,0.12097
1699.22,0.12359
1693.44,0.12228
1687.65,0.11833
1681.87,0.11065
1676.08,0.10264
1670.29,0.09492
1664.51,0.08919
1658.72,0.08676
1652.93,0.08773
1647.15,0.08639
1641.36,0.08450
1635.58,0.08489
1629.79,0.08593
1624,0.08621
1618.22,0.08490
1612.43,0.08235
1606.64,0.08031
1600.86,0.08066
1595.07,0.08130
1589.29,0.08370
1583.5,0.09074
1577.71,0.10263
1571.93,0.11705
1566.14,0.12903
1560.35,0.13600
1554.57,0.13756
1548.78,0.13680
1543,0.13332
1537.21,0.12385
1531.42,0.11023
1525.64,0.09077
1519.85,0.06992
1514.07,0.05914
1508.28,0.06006
1502.49,0.06598
1496.71,0.07404
1490.92,0.07837
1485.13,0.07747
1479.35,0.07326
1473.56,0.06649
1467.78,0.05978
1461.99,0.05793
1456.2,0.05759
1450.42,0.05783
1444.63,0.05940
1438.84,0.05859
1433.06,0.05564
1427.27,0.05566
1421.49,0.05759
1415.7,0.06075
1409.91,0.06313
1404.13,0.06382
1398.34,0.06305
1392.55,0.06032
1386.77,0.05702
1380.98,0.05359
1375.2,0.05262
1369.41,0.05401
1363.62,0.05576
1357.84,0.05746
1352.05,0.05866
1346.26,0.05837
1340.48,0.05702
1334.69,0.05698
1328.91,0.05615
1323.12,0.05550
1317.33,0.05567
1311.55,0.05692
1305.76,0.05785
1299.97,0.05741
1294.19,0.05657
1288.4,0.05363
1282.62,0.05131
1276.83,0.05063
1271.04,0.05017
1265.26,0.05126
1259.47,0.05316
1253.68,0.05453
1247.9,0.05445
1242.11,0.05465
1236.33,0.05392
1230.54,0.05351
1224.75,0.05470
1218.97,0.05497
1213.18,0.05487
1207.39,0.05498
1201.61,0.05495
1195.82,0.05476
1190.04,0.05311
1184.25,0.05022
1178.46,0.04703
1172.68,0.04597
1166.89,0.04890
1161.1,0.05179
1155.32,0.05188
1149.53,0.04998
1143.75,0.04691
1137.96,0.04419
1132.17,0.04229
1126.39,0.04285
1120.6,0.04389
1114.81,0.04618
1109.03,0.04891
1103.24,0.05013
1097.46,0.04962
1091.67,0.04830
1085.88,0.04924
1080.1,0.05258
1074.31,0.05829
1068.52,0.06497
1062.74,0.07314
1056.95,0.07935
1051.17,0.07757
1045.38,0.07396
1039.59,0.07602
1033.81,0.08217
1028.02,0.08550
1022.24,0.08643
1016.45,0.08796
1010.66,0.08898
1004.88,0.08945
999.09,0.09256
993.304,0.09536
987.518,0.10069
981.731,0.10852
975.945,0.11316
970.159,0.11445
964.373,0.11557
958.586,0.11829
952.8,0.12228
947.014,0.12422
941.228,0.12559
935.441,0.12830
929.655,0.13067
923.869,0.13160
918.083,0.13001
912.297,0.12393
906.51,0.11687
900.724,0.11113
894.938,0.11117
889.152,0.11580
883.365,0.11785
877.579,0.11837
871.793,0.11719
866.007,0.11690
860.22,0.11715
854.434,0.11977
848.648,0.12398
842.862,0.12635
837.075,0.12372
831.289,0.11964
825.503,0.11579
819.717,0.11050
813.931,0.10572
808.144,0.10493
802.358,0.10611
796.572,0.10934
790.786,0.10868
784.999,0.10610
779.213,0.10363
773.427,0.10002
767.641,0.09929
761.854,0.09711
756.068,0.09454
750.282,0.09312
744.496,0.09351
738.709,0.09218
732.923,0.09086
727.137,0.08753
721.351,0.08636
715.565,0.08471
709.778,0.08391
703.992,0.08258
698.206,0.08160
692.42,0.08015
686.633,0.07875
680.847,0.07540
675.061,0.07374
669.275,0.07348
663.488,0.07451
657.702,0.07749
651.916,0.07726
646.13,0.07585
640.343,0.07568
634.557,0.07383
628.771,0.07189
622.985,0.07384
617.198,0.07266
611.412,0.07822
605.626,0.07775
599.84,0.07711