File: 01_Data/Pine_Siding/FTIR/IS/Pine_Siding_IS_T_220916_R2.dpt
7497.03,0.03047
7491.25,0.02817
7485.46,0.02382
7479.67,0.02410
7473.89,0.01928
7468.1,0.03368
7462.32,0.03167
7456.53,0.02922
7450.74,0.02433
7444.96,0.02805
7439.17,0.02144
7433.38,0.02714
7427.6,0.02969
7421.81,0.02031
7416.03,0.02192
7410.24,0.03180
7404.45,0.02718
7398.67,0.02354
7392.88,0.02981
7387.09,0.02556
7381.31,0.02043
7375.52,0.02611
7369.74,0.02316
7363.95,0.02047
7358.16,0.02859
7352.38,0.02019
7346.59,0.02881
7340.8,0.02858
7335.02,0.02319
7329.23,0.02561
7323.45,0.01459
7317.66,0.02932
7311.87,0.02003
7306.09,0.01726
7300.3,0.01894
7294.51,0.01880
7288.73,0.02126
7282.94,0.02692
7277.16,0.02600
7271.37,0.02447
7265.58,0.02026
7259.8,0.02385
7254.01,0.02882
7248.22,0.02754
7242.44,0.02374
7236.65,0.02461
7230.87,0.02285
7225.08,0.02197
7219.29,0.02265
7213.51,0.02458
7207.72,0.02807
7201.93,0.02391
7196.15,0.02135
7190.36,0.02386
7184.58,0.03114
7178.79,0.02262
7173,0.02431
7167.22,0.02547
7161.43,0.02491
7155.65,0.02333
7149.86,0.02297
7144.07,0.03007
7138.29,0.02776
7132.5,0.02155
7126.71,0.02459
7120.93,0.02566
7115.14,0.02669
7109.36,0.03169
7103.57,0.02445
7097.78,0.02916
7092,0.02210
7086.21,0.02465
7080.42,0.02916
7074.64,0.02674
7068.85,0.02516
7063.07,0.02293
7057.28,0.02216
7051.49,0.02795
7045.71,0.02338
7039.92,0.02004
7034.13,0.02821
7028.35,0.02688
7022.56,0.02176
7016.78,0.02708
7010.99,0.02420
7005.2,0.01913
6999.42,0.02029
6993.63,0.02448
6987.84,0.02010
6982.06,0.02406
6976.27,0.01943
6970.49,0.03212
6964.7,0.02062
6958.91,0.02427
6953.13,0.02521
6947.34,0.02680
6941.55,0.02891
6935.77,0.02640
6929.98,0.02251
6924.2,0.02529
6918.41,0.02237
6912.62,0.02259
6906.84,0.01973
6901.05,0.01766
6895.26,0.01951
6889.48,0.02499
6883.69,0.02641
6877.91,0.02158
6872.12,0.02226
6866.33,0.02300
6860.55,0.01677
6854.76,0.02440
6848.97,0.01887
6843.19,0.02377
6837.4,0.02088
6831.62,0.02873
6825.83,0.02270
6820.04,0.02028
6814.26,0.02090
6808.47,0.02528
6802.68,0.02628
6796.9,0.01924
6791.11,0.02470
6785.33,0.01888
6779.54,0.02158
6773.75,0.02382
6767.97,0.01546
6762.18,0.02403
6756.39,0.02376
6750.61,0.01832
6744.82,0.01893
6739.04,0.02127
6733.25,0.02425
6727.46,0.02360
6721.68,0.02102
6715.89,0.02029
6710.1,0.02563
6704.32,0.02180
6698.53,0.02107
6692.75,0.02295
6686.96,0.02400
6681.17,0.02183
6675.39,0.01987
6669.6,0.02002
6663.82,0.02024
6658.03,0.01943
6652.24,0.02332
6646.46,0.02467
6640.67,0.02378
6634.88,0.02275
6629.1,0.02333
6623.31,0.02024
6617.53,0.02371
6611.74,0.02349
6605.95,0.02405
6600.17,0.02595
6594.38,0.02207
6588.59,0.02026
6582.81,0.02164
6577.02,0.02034
6571.24,0.02140
6565.45,0.02242
6559.66,0.02054
6553.88,0.02297
6548.09,0.02547
6542.3,0.02058
6536.52,0.02062
6530.73,0.02567
6524.95,0.02396
6519.16,0.02022
6513.37,0.02135
6507.59,0.02230
6501.8,0.02238
6496.01,0.02304
6490.23,0.02176
6484.44,0.01958
6478.66,0.01759
6472.87,0.02075
6467.08,0.02099
6461.3,0.02562
6455.51,0.02348
6449.72,0.02571
6443.94,0.01875
6438.15,0.02057
6432.37,0.02317
6426.58,0.02103
6420.79,0.02119
6415.01,0.02173
6409.22,0.02354
6403.43,0.02441
6397.65,0.01955
6391.86,0.02126
6386.08,0.02160
6380.29,0.02340
6374.5,0.02025
6368.72,0.02380
6362.93,0.02316
6357.14,0.02032
6351.36,0.02086
6345.57,0.02359
6339.79,0.02357
6334,0.02350
6328.21,0.01866
6322.43,0.02343
6316.64,0.01875
6310.85,0.02061
6305.07,0.02416
6299.28,0.02432
6293.5,0.02178
6287.71,0.02281
6281.92,0.02351
6276.14,0.02340
6270.35,0.02104
6264.56,0.02331
6258.78,0.02466
6252.99,0.02164
6247.21,0.02197
6241.42,0.02058
6235.63,0.02127
6229.85,0.02486
6224.06,0.02132
6218.27,0.02210
6212.49,0.02229
6206.7,0.01921
6200.92,0.02392
6195.13,0.02459
6189.34,0.02135
6183.56,0.02623
6177.77,0.01909
6171.98,0.01890
6166.2,0.02287
6160.41,0.02313
6154.63,0.02371
6148.84,0.02130
6143.05,0.02249
6137.27,0.02471
6131.48,0.02385
6125.7,0.02274
6119.91,0.02132
6114.12,0.02131
6108.34,0.02423
6102.55,0.02179
6096.76,0.02121
6090.98,0.02028
6085.19,0.01924
6079.41,0.02339
6073.62,0.02222
6067.83,0.02236
6062.05,0.02176
6056.26,0.02229
6050.47,0.01884
6044.69,0.01980
6038.9,0.01992
6033.12,0.01912
6027.33,0.02264
6021.54,0.01852
6015.76,0.02275
6009.97,0.02335
6004.18,0.02584
5998.4,0.02231
5992.61,0.02445
5986.83,0.02137
5981.04,0.02030
5975.25,0.02129
5969.47,0.02001
5963.68,0.02135
5957.89,0.02202
5952.11,0.02392
5946.32,0.02212
5940.54,0.02285
5934.75,0.02245
5928.96,0.02191
5923.18,0.02156
5917.39,0.01908
5911.6,0.02122
5905.82,0.02058
5900.03,0.01931
5894.25,0.02253
5888.46,0.02088
5882.67,0.02354
5876.89,0.02155
5871.1,0.02112
5865.31,0.02370
5859.53,0.02225
5853.74,0.01950
5847.96,0.02023
5842.17,0.02177
5836.38,0.02188
5830.6,0.02279
5824.81,0.02247
5819.02,0.02072
5813.24,0.01974
5807.45,0.02175
5801.67,0.02095
5795.88,0.02302
5790.09,0.02172
5784.31,0.02293
5778.52,0.02290
5772.73,0.02327
5766.95,0.02201
5761.16,0.01946
5755.38,0.01944
5749.59,0.02097
5743.8,0.02451
5738.02,0.01930
5732.23,0.02038
5726.44,0.02076
5720.66,0.02214
5714.87,0.02189
5709.09,0.02345
5703.3,0.02378
5697.51,0.02035
5691.73,0.02118
5685.94,0.01969
5680.15,0.02342
5674.37,0.02331
5668.58,0.02120
5662.8,0.02068
5657.01,0.02063
5651.22,0.02186
5645.44,0.02328
5639.65,0.02065
5633.87,0.02145
5628.08,0.01982
5622.29,0.02047
5616.51,0.02342
5610.72,0.02304
5604.93,0.02172
5599.15,0.02348
5593.36,0.02352
5587.58,0.02160
5581.79,0.02180
5576,0.02253
5570.22,0.02234
5564.43,0.02087
5558.64,0.02168
5552.86,0.02065
5547.07,0.02151
5541.29,0.02242
5535.5,0.02181
5529.71,0.02242
5523.93,0.02160
5518.14,0.02044
5512.35,0.02178
5506.57,0.02246
5500.78,0.02120
5495,0.02158
5489.21,0.02153
5483.42,0.02117
5477.64,0.02370
5471.85,0.02261
5466.06,0.02226
5460.28,0.02343
5454.49,0.02261
5448.71,0.02240
5442.92,0.02228
5437.13,0.02324
5431.35,0.02251
5425.56,0.02374
5419.77,0.02232
5413.99,0.02218
5408.2,0.02167
5402.42,0.02139
5396.63,0.02172
5390.84,0.02064
5385.06,0.02255
5379.27,0.02072
5373.48,0.02289
5367.7,0.02021
5361.91,0.02171
5356.13,0.02243
5350.34,0.02256
5344.55,0.02235
5338.77,0.02287
5332.98,0.02143
5327.19,0.02247
5321.41,0.02022
5315.62,0.02162
5309.84,0.02162
5304.05,0.02044
5298.26,0.02009
5292.48,0.02067
5286.69,0.02016
5280.9,0.02223
5275.12,0.02176
5269.33,0.01995
5263.55,0.02231
5257.76,0.02195
5251.97,0.02142
5246.19,0.02110
5240.4,0.02201
5234.61,0.02239
5228.83,0.02266
5223.04,0.02190
5217.26,0.02190
5211.47,0.02251
5205.68,0.02152
5199.9,0.02205
5194.11,0.02094
5188.32,0.02266
5182.54,0.02112
5176.75,0.02147
5170.97,0.02107
5165.18,0.02149
5159.39,0.02191
5153.61,0.02238
5147.82,0.02357
5142.03,0.02275
5136.25,0.02144
5130.46,0.02253
5124.68,0.02185
5118.89,0.02118
5113.1,0.02201
5107.32,0.02130
5101.53,0.02161
5095.75,0.02110
5089.96,0.02177
5084.17,0.02138
5078.39,0.02138
5072.6,0.02093
5066.81,0.02212
5061.03,0.02257
5055.24,0.02216
5049.46,0.02285
5043.67,0.02233
5037.88,0.02132
5032.1,0.02121
5026.31,0.02241
5020.52,0.02204
5014.74,0.02168
5008.95,0.02175
5003.17,0.02217
4997.38,0.02204
4991.59,0.02273
4985.81,0.02253
4980.02,0.02280
4974.23,0.02213
4968.45,0.02129
4962.66,0.02053
4956.88,0.02163
4951.09,0.02153
4945.3,0.02205
4939.52,0.02194
4933.73,0.02188
4927.94,0.02312
4922.16,0.02344
4916.37,0.02255
4910.59,0.02133
4904.8,0.02128
4899.01,0.02129
4893.23,0.02135
4887.44,0.02274
4881.65,0.02211
4875.87,0.02190
4870.08,0.02173
4864.3,0.02203
4858.51,0.02068
4852.72,0.02202
4846.94,0.02106
4841.15,0.02264
4835.36,0.02129
4829.58,0.02190
4823.79,0.02284
4818.01,0.02205
4812.22,0.02114
4806.43,0.02255
4800.65,0.02176
4794.86,0.02211
4789.07,0.02161
4783.29,0.02227
4777.5,0.02134
4771.72,0.02152
4765.93,0.02279
4760.14,0.02182
4754.36,0.02198
4748.57,0.02209
4742.78,0.02213
4737,0.02325
4731.21,0.02146
4725.43,0.02147
4719.64,0.02172
4713.85,0.02177
4708.07,0.02165
4702.28,0.02171
4696.49,0.02156
4690.71,0.02115
4684.92,0.02114
4679.14,0.02111
4673.35,0.02192
4667.56,0.02230
4661.78,0.02251
4655.99,0.02228
4650.2,0.02157
4644.42,0.02301
4638.63,0.02303
4632.85,0.02239
4627.06,0.02299
4621.27,0.02231
4615.49,0.02172
4609.7,0.02184
4603.92,0.02217
4598.13,0.02230
4592.34,0.02266
4586.56,0.02259
4580.77,0.02262
4574.98,0.02296
4569.2,0.02210
4563.41,0.02235
4557.63,0.02215
4551.84,0.02208
4546.05,0.02212
4540.27,0.02303
4534.48,0.02150
4528.69,0.02107
4522.91,0.02204
4517.12,0.02200
4511.34,0.02222
4505.55,0.02244
4499.76,0.02219
4493.98,0.02220
4488.19,0.02199
4482.4,0.02238
4476.62,0.02240
4470.83,0.02195
4465.05,0.02239
4459.26,0.02254
4453.47,0.02180
4447.69,0.02213
4441.9,0.02195
4436.11,0.02074
4430.33,0.02242
4424.54,0.02244
4418.76,0.02236
4412.97,0.02193
4407.18,0.02190
4401.4,0.02176
4395.61,0.02262
4389.82,0.02166
4384.04,0.02194
4378.25,0.02236
4372.47,0.02274
4366.68,0.02233
4360.89,0.02272
4355.11,0.02218
4349.32,0.02269
4343.53,0.02201
4337.75,0.02237
4331.96,0.02260
4326.18,0.02211
4320.39,0.02238
4314.6,0.02202
4308.82,0.02197
4303.03,0.02161
4297.24,0.02148
4291.46,0.02163
4285.67,0.02209
4279.89,0.02156
4274.1,0.02196
4268.31,0.02238
4262.53,0.02184
4256.74,0.02191
4250.95,0.02267
4245.17,0.02221
4239.38,0.02211
4233.6,0.02190
4227.81,0.02292
4222.02,0.02315
4216.24,0.02278
4210.45,0.02188
4204.66,0.02196
4198.88,0.02221
4193.09,0.02256
4187.31,0.02336
4181.52,0.02257
4175.73,0.02239
4169.95,0.02151
4164.16,0.02230
4158.37,0.02219
4152.59,0.02314
4146.8,0.02248
4141.02,0.02231
4135.23,0.02227
4129.44,0.02216
4123.66,0.02249
4117.87,0.02193
4112.09,0.02218
4106.3,0.02228
4100.51,0.02243
4094.73,0.02149
4088.94,0.02296
4083.15,0.02190
4077.37,0.02210
4071.58,0.02232
4065.8,0.02268
4060.01,0.02266
4054.22,0.02266
4048.44,0.02202
4042.65,0.02274
4036.86,0.02313
4031.08,0.02265
4025.29,0.02300
4019.51,0.02292
4013.72,0.02229
4007.93,0.02249
4002.15,0.02220
3996.36,0.02255
3990.57,0.02223
3984.79,0.02273
3979,0.02279
3973.22,0.02259
3967.43,0.02197
3961.64,0.02202
3955.86,0.02253
3950.07,0.02288
3944.28,0.02228
3938.5,0.02236
3932.71,0.02207
3926.93,0.02235
3921.14,0.02223
3915.35,0.02204
3909.57,0.02257
3903.78,0.02285
3897.99,0.02240
3892.21,0.02237
3886.42,0.02246
3880.64,0.02265
3874.85,0.02239
3869.06,0.02255
3863.28,0.02222
3857.49,0.02324
3851.7,0.02236
3845.92,0.02175
3840.13,0.02190
3834.35,0.02263
3828.56,0.02152
3822.77,0.02297
3816.99,0.02248
3811.2,0.02187
3805.41,0.02271
3799.63,0.02254
3793.84,0.02266
3788.06,0.02200
3782.27,0.02196
3776.48,0.02240
3770.7,0.02260
3764.91,0.02208
3759.12,0.02212
3753.34,0.02165
3747.55,0.02233
3741.77,0.02201
3735.98,0.02218
3730.19,0.02161
3724.41,0.02218
3718.62,0.02291
3712.83,0.02265
3707.05,0.02208
3701.26,0.02260
3695.48,0.02225
3689.69,0.02224
3683.9,0.02210
3678.12,0.02284
3672.33,0.02276
3666.54,0.02154
3660.76,0.02244
3654.97,0.02249
3649.19,0.02244
3643.4,0.02190
3637.61,0.02197
3631.83,0.02154
3626.04,0.02181
3620.25,0.02209
3614.47,0.02159
3608.68,0.02088
3602.9,0.02122
3597.11,0.02210
3591.32,0.02152
3585.54,0.02069
3579.75,0.02156
3573.97,0.02088
3568.18,0.02145
3562.39,0.02095
3556.61,0.02152
3550.82,0.02104
3545.03,0.02135
3539.25,0.02043
3533.46,0.02095
3527.68,0.02092
3521.89,0.02089
3516.1,0.02114
3510.32,0.02148
3504.53,0.02068
3498.74,0.02060
3492.96,0.02072
3487.17,0.02038
3481.39,0.02134
3475.6,0.02081
3469.81,0.02047
3464.03,0.02109
3458.24,0.02107
3452.45,0.02058
3446.67,0.02031
3440.88,0.02058
3435.1,0.02156
3429.31,0.02009
3423.52,0.02087
3417.74,0.02047
3411.95,0.02083
3406.16,0.02044
3400.38,0.01957
3394.59,0.02056
3388.81,0.02060
3383.02,0.02038
3377.23,0.02067
3371.45,0.02038
3365.66,0.02040
3359.87,0.01937
3354.09,0.02020
3348.3,0.02048
3342.52,0.01918
3336.73,0.02039
3330.94,0.01989
3325.16,0.02027
3319.37,0.01957
3313.58,0.02021
3307.8,0.02041
3302.01,0.02003
3296.23,0.01978
3290.44,0.02008
3284.65,0.01975
3278.87,0.01997
3273.08,0.02062
3267.29,0.02012
3261.51,0.02083
3255.72,0.02084
3249.94,0.02018
3244.15,0.02035
3238.36,0.02045
3232.58,0.02023
3226.79,0.02105
3221,0.02043
3215.22,0.01990
3209.43,0.02005
3203.65,0.02020
3197.86,0.02122
3192.07,0.02002
3186.29,0.02098
3180.5,0.02068
3174.71,0.02053
3168.93,0.02117
3163.14,0.02097
3157.36,0.02126
3151.57,0.02080
3145.78,0.02091
3140,0.02095
3134.21,0.02111
3128.42,0.02075
3122.64,0.02061
3116.85,0.02057
3111.07,0.02053
3105.28,0.02077
3099.49,0.02113
3093.71,0.02120
3087.92,0.02039
3082.14,0.02046
3076.35,0.02028
3070.56,0.02076
3064.78,0.02084
3058.99,0.02043
3053.2,0.02100
3047.42,0.02037
3041.63,0.02032
3035.85,0.02016
3030.06,0.02055
3024.27,0.02084
3018.49,0.02011
3012.7,0.02038
3006.91,0.02061
3001.13,0.02076
2995.34,0.02008
2989.56,0.01976
2983.77,0.01991
2977.98,0.01933
2972.2,0.01922
2966.41,0.01960
2960.62,0.01915
2954.84,0.01915
2949.05,0.01921
2943.27,0.01972
2937.48,0.01948
2931.69,0.01931
2925.91,0.01979
2920.12,0.01972
2914.33,0.02044
2908.55,0.01975
2902.76,0.02018
2896.98,0.02047
2891.19,0.02024
2885.4,0.02032
2879.62,0.02028
2873.83,0.02029
2868.04,0.01977
2862.26,0.02049
2856.47,0.02016
2850.69,0.02051
2844.9,0.02110
2839.11,0.02087
2833.33,0.02113
2827.54,0.02108
2821.75,0.02126
2815.97,0.02128
2810.18,0.02128
2804.4,0.02103
2798.61,0.02103
2792.82,0.02140
2787.04,0.02112
2781.25,0.02131
2775.46,0.02086
2769.68,0.02107
2763.89,0.02122
2758.11,0.02095
2752.32,0.02105
2746.53,0.02107
2740.75,0.02128
2734.96,0.02118
2729.17,0.02090
2723.39,0.02121
2717.6,0.02135
2711.82,0.02099
2706.03,0.02070
2700.24,0.02080
2694.46,0.02153
2688.67,0.02126
2682.88,0.02117
2677.1,0.02090
2671.31,0.02054
2665.53,0.02107
2659.74,0.02139
2653.95,0.02081
2648.17,0.02115
2642.38,0.02098
2636.59,0.02102
2630.81,0.02043
2625.02,0.02102
2619.24,0.02108
2613.45,0.02137
2607.66,0.02111
2601.88,0.02074
2596.09,0.02102
2590.3,0.02154
2584.52,0.02126
2578.73,0.02117
2572.95,0.02122
2567.16,0.02110
2561.37,0.02098
2555.59,0.02138
2549.8,0.02099
2544.02,0.02112
2538.23,0.02153
2532.44,0.02122
2526.66,0.02101
2520.87,0.02087
2515.08,0.02097
2509.3,0.02121
2503.51,0.02072
2497.73,0.02060
2491.94,0.02071
2486.15,0.02096
2480.37,0.02108
2474.58,0.02088
2468.79,0.02117
2463.01,0.02108
2457.22,0.02109
2451.44,0.02074
2445.65,0.02114
2439.86,0.02109
2434.08,0.02088
2428.29,0.02130
2422.5,0.02109
2416.72,0.02122
2410.93,0.02082
2405.15,0.02075
2399.36,0.02077
2393.57,0.02120
2387.79,0.02061
2382,0.02077
2376.21,0.02119
2370.43,0.02185
2364.64,0.02087
2358.86,0.02178
2353.07,0.02097
2347.28,0.02105
2341.5,0.02080
2335.71,0.02115
2329.92,0.02108
2324.14,0.02091
2318.35,0.02106
2312.57,0.02094
2306.78,0.02088
2300.99,0.02100
2295.21,0.02088
2289.42,0.02092
2283.63,0.02125
2277.85,0.02132
2272.06,0.02116
2266.28,0.02074
2260.49,0.02119
2254.7,0.02049
2248.92,0.02097
2243.13,0.02088
2237.34,0.02078
2231.56,0.02089
2225.77,0.02090
2219.99,0.02106
2214.2,0.02104
2208.41,0.02107
2202.63,0.02085
2196.84,0.02098
2191.05,0.02104
2185.27,0.02093
2179.48,0.02084
2173.7,0.02059
2167.91,0.02080
2162.12,0.02084
2156.34,0.02114
2150.55,0.02090
2144.76,0.02130
2138.98,0.02094
2133.19,0.02085
2127.41,0.02112
2121.62,0.02064
2115.83,0.02076
2110.05,0.02059
2104.26,0.02083
2098.47,0.02085
2092.69,0.02073
2086.9,0.02062
2081.12,0.02099
2075.33,0.02046
2069.54,0.02103
2063.76,0.02092
2057.97,0.02110
2052.19,0.02037
2046.4,0.02097
2040.61,0.02091
2034.83,0.02095
2029.04,0.02067
2023.25,0.02047
2017.47,0.02083
2011.68,0.02074
2005.9,0.02091
2000.11,0.02065
1994.32,0.02078
1988.54,0.02042
1982.75,0.02115
1976.96,0.02060
1971.18,0.02074
1965.39,0.02079
1959.61,0.02118
1953.82,0.02066
1948.03,0.02059
1942.25,0.02086
1936.46,0.02059
1930.67,0.02082
1924.89,0.02048
1919.1,0.02057
1913.32,0.02075
1907.53,0.02035
1901.74,0.02048
1895.96,0.02068
1890.17,0.02025
1884.38,0.02013
1878.6,0.02041
1872.81,0.02049
1867.03,0.02050
1861.24,0.02014
1855.45,0.01989
1849.67,0.01996
1843.88,0.02018
1838.09,0.02005
1832.31,0.02025
1826.52,0.02032
1820.74,0.01980
1814.95,0.02003
1809.16,0.01970
1803.38,0.01940
1797.59,0.01928
1791.8,0.01939
1786.02,0.01912
1780.23,0.01893
1774.45,0.01894
1768.66,0.01845
1762.87,0.01799
1757.09,0.01748
1751.3,0.01719
1745.51,0.01774
1739.73,0.01870
1733.94,0.01977
1728.16,0.02039
1722.37,0.02057
1716.58,0.02050
1710.8,0.02024
1705.01,0.01999
1699.22,0.01921
1693.44,0.01909
1687.65,0.01920
1681.87,0.01868
1676.08,0.01882
1670.29,0.01859
1664.51,0.01847
1658.72,0.01840
1652.93,0.01877
1647.15,0.01844
1641.36,0.01818
1635.58,0.01825
1629.79,0.01872
1624,0.01850
1618.22,0.01854
1612.43,0.01909
1606.64,0.01866
1600.86,0.01850
1595.07,0.01886
1589.29,0.01866
1583.5,0.01832
1577.71,0.01874
1571.93,0.01833
1566.14,0.01813
1560.35,0.01857
1554.57,0.01840
1548.78,0.01829
1543,0.01813
1537.21,0.01812
1531.42,0.01826
1525.64,0.01921
1519.85,0.01898
1514.07,0.01873
1508.28,0.01898
1502.49,0.01862
1496.71,0.01882
1490.92,0.01883
1485.13,0.01841
1479.35,0.01836
1473.56,0.01816
1467.78,0.01853
1461.99,0.01826
1456.2,0.01858
1450.42,0.01812
1444.63,0.01872
1438.84,0.01862
1433.06,0.01864
1427.27,0.01861
1421.49,0.01836
1415.7,0.01855
1409.91,0.01826
1404.13,0.01827
1398.34,0.01820
1392.55,0.01804
1386.77,0.01784
1380.98,0.01791
1375.2,0.01861
1369.41,0.01825
1363.62,0.01816
1357.84,0.01794
1352.05,0.01773
1346.26,0.01788
1340.48,0.01776
1334.69,0.01781
1328.91,0.01790
1323.12,0.01721
1317.33,0.01684
1311.55,0.01698
1305.76,0.01728
1299.97,0.01778
1294.19,0.01736
1288.4,0.01789
1282.62,0.01861
1276.83,0.01869
1271.04,0.01925
1265.26,0.01978
1259.47,0.01977
1253.68,0.02019
1247.9,0.02030
1242.11,0.01993
1236.33,0.01978
1230.54,0.01963
1224.75,0.01947
1218.97,0.01947
1213.18,0.01921
1207.39,0.01857
1201.61,0.01814
1195.82,0.01796
1190.04,0.01819
1184.25,0.01777
1178.46,0.01786
1172.68,0.01823
1166.89,0.01766
1161.1,0.01738
1155.32,0.01741
1149.53,0.01722
1143.75,0.01763
1137.96,0.01788
1132.17,0.01833
1126.39,0.01818
1120.6,0.01844
1114.81,0.01890
1109.03,0.01877
1103.24,0.01863
1097.46,0.01870
1091.67,0.01798
1085.88,0.01718
1080.1,0.01845
1074.31,0.01888
1068.52,0.01995
1062.74,0.02025
1056.95,0.01987
1051.17,0.01965
1045.38,0.02000
1039.59,0.02004
1033.81,0.01976
1028.02,0.01967
1022.24,0.01948
1016.45,0.01892
1010.66,0.01984
1004.88,0.02056
999.09,0.02100
993.304,0.02098
987.518,0.02139
981.731,0.02070
975.945,0.02004
970.159,0.02008
964.373,0.02030
958.586,0.01996
952.8,0.01961
947.014,0.01960
941.228,0.01930
935.441,0.01970
929.655,0.01906
923.869,0.01917
918.083,0.01915
912.297,0.01868
906.51,0.01856
900.724,0.01882
894.938,0.01890
889.152,0.01881
883.365,0.01880
877.579,0.01859
871.793,0.01883
866.007,0.01889
860.22,0.01894
854.434,0.01921
848.648,0.02006
842.862,0.01927
837.075,0.01906
831.289,0.01904
825.503,0.01811
819.717,0.01893
813.931,0.01948
808.144,0.01868
802.358,0.01812
796.572,0.01794
790.786,0.01829
784.999,0.01828
779.213,0.01877
773.427,0.01895
767.641,0.01767
761.854,0.01802
756.068,0.01844
750.282,0.01899
744.496,0.01799
738.709,0.01837
732.923,0.01808
727.137,0.01800
721.351,0.01830
715.565,0.01859
709.778,0.01810
703.992,0.01817
698.206,0.01834
692.42,0.01700
686.633,0.01731
680.847,0.01631
675.061,0.01612
669.275,0.01781
663.488,0.01620
657.702,0.01714
651.916,0.01711
646.13,0.01682
640.343,0.01603
634.557,0.01694
628.771,0.01548
622.985,0.01527
617.198,0.01493
611.412,0.01464
605.626,0.01582
599.84,0.01598