File: 01_Data/Pine_Siding/FTIR/IS/Pine_Siding_IS_S_220916_R7.dpt
7497.03,0.82995
7491.25,0.83417
7485.46,0.82795
7479.67,0.83466
7473.89,0.83961
7468.1,0.82514
7462.32,0.81954
7456.53,0.80954
7450.74,0.81729
7444.96,0.81476
7439.17,0.79971
7433.38,0.80764
7427.6,0.81384
7421.81,0.81698
7416.03,0.80666
7410.24,0.80234
7404.45,0.79899
7398.67,0.79977
7392.88,0.80076
7387.09,0.78632
7381.31,0.79846
7375.52,0.79707
7369.74,0.78853
7363.95,0.79247
7358.16,0.78348
7352.38,0.78791
7346.59,0.77730
7340.8,0.77762
7335.02,0.78644
7329.23,0.77722
7323.45,0.77473
7317.66,0.77337
7311.87,0.77013
7306.09,0.76964
7300.3,0.77636
7294.51,0.76662
7288.73,0.76342
7282.94,0.76582
7277.16,0.77150
7271.37,0.77033
7265.58,0.76359
7259.8,0.76600
7254.01,0.76682
7248.22,0.76289
7242.44,0.76552
7236.65,0.76676
7230.87,0.76664
7225.08,0.76586
7219.29,0.76501
7213.51,0.75859
7207.72,0.76134
7201.93,0.76412
7196.15,0.75724
7190.36,0.75028
7184.58,0.74983
7178.79,0.75333
7173,0.75265
7167.22,0.74729
7161.43,0.74142
7155.65,0.73652
7149.86,0.73653
7144.07,0.73669
7138.29,0.73213
7132.5,0.72131
7126.71,0.71750
7120.93,0.71468
7115.14,0.71214
7109.36,0.70713
7103.57,0.70111
7097.78,0.70771
7092,0.69587
7086.21,0.69078
7080.42,0.68462
7074.64,0.67075
7068.85,0.66945
7063.07,0.67120
7057.28,0.66262
7051.49,0.65532
7045.71,0.64411
7039.92,0.63790
7034.13,0.63506
7028.35,0.63046
7022.56,0.62880
7016.78,0.62114
7010.99,0.61488
7005.2,0.61379
6999.42,0.60593
6993.63,0.61125
6987.84,0.60494
6982.06,0.60643
6976.27,0.59711
6970.49,0.59838
6964.7,0.58830
6958.91,0.59725
6953.13,0.59059
6947.34,0.59404
6941.55,0.59055
6935.77,0.59170
6929.98,0.58888
6924.2,0.59031
6918.41,0.58837
6912.62,0.59263
6906.84,0.58513
6901.05,0.58559
6895.26,0.59154
6889.48,0.58495
6883.69,0.58721
6877.91,0.58460
6872.12,0.58424
6866.33,0.58432
6860.55,0.58342
6854.76,0.58644
6848.97,0.58526
6843.19,0.58251
6837.4,0.58316
6831.62,0.58119
6825.83,0.58046
6820.04,0.58461
6814.26,0.58702
6808.47,0.58318
6802.68,0.58237
6796.9,0.58185
6791.11,0.58752
6785.33,0.58742
6779.54,0.58778
6773.75,0.58751
6767.97,0.58388
6762.18,0.58707
6756.39,0.58346
6750.61,0.58513
6744.82,0.59014
6739.04,0.58555
6733.25,0.59023
6727.46,0.59363
6721.68,0.58874
6715.89,0.58854
6710.1,0.59189
6704.32,0.59047
6698.53,0.59653
6692.75,0.59040
6686.96,0.58966
6681.17,0.59347
6675.39,0.59419
6669.6,0.59770
6663.82,0.59592
6658.03,0.59747
6652.24,0.59995
6646.46,0.59809
6640.67,0.60043
6634.88,0.60253
6629.1,0.60237
6623.31,0.60259
6617.53,0.60005
6611.74,0.60372
6605.95,0.60513
6600.17,0.60810
6594.38,0.60815
6588.59,0.61030
6582.81,0.60846
6577.02,0.60959
6571.24,0.60739
6565.45,0.61414
6559.66,0.61391
6553.88,0.61343
6548.09,0.61842
6542.3,0.61344
6536.52,0.61247
6530.73,0.61547
6524.95,0.61850
6519.16,0.61381
6513.37,0.61269
6507.59,0.61802
6501.8,0.61929
6496.01,0.61270
6490.23,0.61454
6484.44,0.62059
6478.66,0.61690
6472.87,0.62065
6467.08,0.61822
6461.3,0.61912
6455.51,0.62461
6449.72,0.62432
6443.94,0.62250
6438.15,0.62338
6432.37,0.62034
6426.58,0.62378
6420.79,0.62361
6415.01,0.62456
6409.22,0.62439
6403.43,0.62900
6397.65,0.62635
6391.86,0.62628
6386.08,0.62589
6380.29,0.62743
6374.5,0.62829
6368.72,0.62792
6362.93,0.62711
6357.14,0.63040
6351.36,0.63178
6345.57,0.62879
6339.79,0.62909
6334,0.63130
6328.21,0.63377
6322.43,0.63477
6316.64,0.63302
6310.85,0.63589
6305.07,0.63415
6299.28,0.63315
6293.5,0.63597
6287.71,0.63761
6281.92,0.63640
6276.14,0.64076
6270.35,0.64155
6264.56,0.64407
6258.78,0.64356
6252.99,0.64643
6247.21,0.64952
6241.42,0.64889
6235.63,0.65079
6229.85,0.65413
6224.06,0.65349
6218.27,0.65917
6212.49,0.66110
6206.7,0.66241
6200.92,0.66378
6195.13,0.66424
6189.34,0.66319
6183.56,0.67033
6177.77,0.66735
6171.98,0.67273
6166.2,0.67124
6160.41,0.67338
6154.63,0.67343
6148.84,0.67373
6143.05,0.67906
6137.27,0.68001
6131.48,0.67776
6125.7,0.68011
6119.91,0.67984
6114.12,0.68370
6108.34,0.68190
6102.55,0.68411
6096.76,0.68300
6090.98,0.68446
6085.19,0.68526
6079.41,0.68515
6073.62,0.68311
6067.83,0.68314
6062.05,0.68384
6056.26,0.68552
6050.47,0.68072
6044.69,0.67686
6038.9,0.68155
6033.12,0.67589
6027.33,0.67405
6021.54,0.67272
6015.76,0.67284
6009.97,0.66704
6004.18,0.66527
5998.4,0.66477
5992.61,0.66343
5986.83,0.66222
5981.04,0.66150
5975.25,0.66366
5969.47,0.66198
5963.68,0.66385
5957.89,0.66010
5952.11,0.66306
5946.32,0.66085
5940.54,0.66448
5934.75,0.66831
5928.96,0.66660
5923.18,0.66651
5917.39,0.66154
5911.6,0.65943
5905.82,0.66367
5900.03,0.65954
5894.25,0.65935
5888.46,0.65792
5882.67,0.65585
5876.89,0.65923
5871.1,0.65754
5865.31,0.65643
5859.53,0.65440
5853.74,0.65855
5847.96,0.65629
5842.17,0.65535
5836.38,0.65607
5830.6,0.65467
5824.81,0.65551
5819.02,0.65490
5813.24,0.65371
5807.45,0.65172
5801.67,0.65265
5795.88,0.65277
5790.09,0.65314
5784.31,0.65241
5778.52,0.65421
5772.73,0.65562
5766.95,0.65562
5761.16,0.65610
5755.38,0.65745
5749.59,0.65459
5743.8,0.65639
5738.02,0.65603
5732.23,0.65464
5726.44,0.65568
5720.66,0.65473
5714.87,0.65600
5709.09,0.65411
5703.3,0.65598
5697.51,0.65441
5691.73,0.65237
5685.94,0.65295
5680.15,0.65269
5674.37,0.65336
5668.58,0.65235
5662.8,0.64992
5657.01,0.65278
5651.22,0.65224
5645.44,0.65200
5639.65,0.65308
5633.87,0.65096
5628.08,0.65166
5622.29,0.65284
5616.51,0.65041
5610.72,0.65032
5604.93,0.65203
5599.15,0.65110
5593.36,0.65173
5587.58,0.65269
5581.79,0.65160
5576,0.65169
5570.22,0.65201
5564.43,0.65317
5558.64,0.65450
5552.86,0.65402
5547.07,0.65535
5541.29,0.65638
5535.5,0.65632
5529.71,0.65849
5523.93,0.65799
5518.14,0.65722
5512.35,0.65808
5506.57,0.65719
5500.78,0.66093
5495,0.66002
5489.21,0.65867
5483.42,0.65942
5477.64,0.65846
5471.85,0.66093
5466.06,0.66246
5460.28,0.66161
5454.49,0.66310
5448.71,0.66362
5442.92,0.66704
5437.13,0.66834
5431.35,0.67054
5425.56,0.66981
5419.77,0.67079
5413.99,0.67331
5408.2,0.67390
5402.42,0.67563
5396.63,0.67539
5390.84,0.67595
5385.06,0.67719
5379.27,0.67658
5373.48,0.67760
5367.7,0.67824
5361.91,0.67482
5356.13,0.67552
5350.34,0.67472
5344.55,0.67468
5338.77,0.67373
5332.98,0.67135
5327.19,0.66795
5321.41,0.66400
5315.62,0.66235
5309.84,0.65712
5304.05,0.65138
5298.26,0.64498
5292.48,0.63690
5286.69,0.62821
5280.9,0.61859
5275.12,0.60809
5269.33,0.59649
5263.55,0.58688
5257.76,0.57336
5251.97,0.56344
5246.19,0.55267
5240.4,0.54618
5234.61,0.53733
5228.83,0.53194
5223.04,0.52488
5217.26,0.52222
5211.47,0.51902
5205.68,0.51787
5199.9,0.51666
5194.11,0.51395
5188.32,0.51341
5182.54,0.51401
5176.75,0.51547
5170.97,0.51743
5165.18,0.51881
5159.39,0.51999
5153.61,0.52356
5147.82,0.52682
5142.03,0.52895
5136.25,0.53374
5130.46,0.53582
5124.68,0.53808
5118.89,0.54285
5113.1,0.54589
5107.32,0.54933
5101.53,0.55063
5095.75,0.55251
5089.96,0.55583
5084.17,0.56056
5078.39,0.56276
5072.6,0.56709
5066.81,0.56828
5061.03,0.57084
5055.24,0.57305
5049.46,0.57674
5043.67,0.57761
5037.88,0.58105
5032.1,0.58173
5026.31,0.58235
5020.52,0.58490
5014.74,0.58652
5008.95,0.58587
5003.17,0.58706
4997.38,0.58529
4991.59,0.58581
4985.81,0.58354
4980.02,0.58131
4974.23,0.57806
4968.45,0.57344
4962.66,0.57019
4956.88,0.56803
4951.09,0.56269
4945.3,0.55795
4939.52,0.55143
4933.73,0.54571
4927.94,0.53893
4922.16,0.53352
4916.37,0.52811
4910.59,0.52155
4904.8,0.51546
4899.01,0.50972
4893.23,0.50573
4887.44,0.49949
4881.65,0.49350
4875.87,0.48791
4870.08,0.48291
4864.3,0.47783
4858.51,0.47447
4852.72,0.46903
4846.94,0.46564
4841.15,0.46124
4835.36,0.45710
4829.58,0.45348
4823.79,0.45128
4818.01,0.44690
4812.22,0.44475
4806.43,0.44283
4800.65,0.44058
4794.86,0.43947
4789.07,0.43732
4783.29,0.43681
4777.5,0.43529
4771.72,0.43487
4765.93,0.43537
4760.14,0.43420
4754.36,0.43273
4748.57,0.43299
4742.78,0.43390
4737,0.43489
4731.21,0.43451
4725.43,0.43521
4719.64,0.43572
4713.85,0.43723
4708.07,0.43877
4702.28,0.43859
4696.49,0.43920
4690.71,0.43949
4684.92,0.44117
4679.14,0.44212
4673.35,0.44386
4667.56,0.44719
4661.78,0.44838
4655.99,0.45153
4650.2,0.45422
4644.42,0.45631
4638.63,0.45769
4632.85,0.45992
4627.06,0.46442
4621.27,0.46653
4615.49,0.47111
4609.7,0.47400
4603.92,0.47721
4598.13,0.48042
4592.34,0.48367
4586.56,0.48591
4580.77,0.48918
4574.98,0.49178
4569.2,0.49414
4563.41,0.49620
4557.63,0.49780
4551.84,0.49955
4546.05,0.50077
4540.27,0.50135
4534.48,0.50321
4528.69,0.50457
4522.91,0.50593
4517.12,0.50620
4511.34,0.50556
4505.55,0.50367
4499.76,0.50227
4493.98,0.50082
4488.19,0.49842
4482.4,0.49358
4476.62,0.48929
4470.83,0.48306
4465.05,0.47635
4459.26,0.46868
4453.47,0.46234
4447.69,0.45463
4441.9,0.44845
4436.11,0.44087
4430.33,0.43218
4424.54,0.42326
4418.76,0.41558
4412.97,0.40875
4407.18,0.40392
4401.4,0.40169
4395.61,0.40022
4389.82,0.40041
4384.04,0.40264
4378.25,0.40499
4372.47,0.40805
4366.68,0.41150
4360.89,0.41343
4355.11,0.41443
4349.32,0.41435
4343.53,0.41327
4337.75,0.41133
4331.96,0.41046
4326.18,0.40946
4320.39,0.40696
4314.6,0.40393
4308.82,0.40137
4303.03,0.39889
4297.24,0.39577
4291.46,0.39433
4285.67,0.39233
4279.89,0.39104
4274.1,0.39150
4268.31,0.39221
4262.53,0.39336
4256.74,0.39473
4250.95,0.39562
4245.17,0.39687
4239.38,0.39789
4233.6,0.39842
4227.81,0.39870
4222.02,0.39858
4216.24,0.39805
4210.45,0.39830
4204.66,0.39873
4198.88,0.39939
4193.09,0.39971
4187.31,0.40047
4181.52,0.40175
4175.73,0.40279
4169.95,0.40438
4164.16,0.40599
4158.37,0.40612
4152.59,0.40510
4146.8,0.40350
4141.02,0.40035
4135.23,0.39856
4129.44,0.39450
4123.66,0.39071
4117.87,0.38629
4112.09,0.38280
4106.3,0.37691
4100.51,0.37129
4094.73,0.36531
4088.94,0.35979
4083.15,0.35405
4077.37,0.34802
4071.58,0.34229
4065.8,0.33653
4060.01,0.33050
4054.22,0.32448
4048.44,0.32001
4042.65,0.31607
4036.86,0.31132
4031.08,0.30915
4025.29,0.30713
4019.51,0.30516
4013.72,0.30401
4007.93,0.30444
4002.15,0.30572
3996.36,0.30670
3990.57,0.30897
3984.79,0.31020
3979,0.31114
3973.22,0.31290
3967.43,0.31565
3961.64,0.31832
3955.86,0.32052
3950.07,0.32343
3944.28,0.32647
3938.5,0.32945
3932.71,0.33202
3926.93,0.33579
3921.14,0.33835
3915.35,0.34077
3909.57,0.34330
3903.78,0.34663
3897.99,0.34894
3892.21,0.35048
3886.42,0.35330
3880.64,0.35471
3874.85,0.35703
3869.06,0.36015
3863.28,0.36251
3857.49,0.36466
3851.7,0.36786
3845.92,0.37005
3840.13,0.37220
3834.35,0.37328
3828.56,0.37409
3822.77,0.37430
3816.99,0.37449
3811.2,0.37479
3805.41,0.37455
3799.63,0.37420
3793.84,0.37426
3788.06,0.37429
3782.27,0.37307
3776.48,0.37265
3770.7,0.37209
3764.91,0.37068
3759.12,0.36889
3753.34,0.36712
3747.55,0.36538
3741.77,0.36217
3735.98,0.35861
3730.19,0.35423
3724.41,0.34966
3718.62,0.34429
3712.83,0.33778
3707.05,0.33063
3701.26,0.32169
3695.48,0.31179
3689.69,0.29998
3683.9,0.28472
3678.12,0.26889
3672.33,0.25019
3666.54,0.23184
3660.76,0.21463
3654.97,0.19866
3649.19,0.18421
3643.4,0.17089
3637.61,0.15903
3631.83,0.14914
3626.04,0.13790
3620.25,0.12955
3614.47,0.12018
3608.68,0.11179
3602.9,0.10359
3597.11,0.09697
3591.32,0.09034
3585.54,0.08524
3579.75,0.08078
3573.97,0.07672
3568.18,0.07329
3562.39,0.06950
3556.61,0.06738
3550.82,0.06516
3545.03,0.06279
3539.25,0.06038
3533.46,0.05868
3527.68,0.05723
3521.89,0.05520
3516.1,0.05470
3510.32,0.05394
3504.53,0.05176
3498.74,0.05057
3492.96,0.04971
3487.17,0.04892
3481.39,0.04796
3475.6,0.04765
3469.81,0.04733
3464.03,0.04765
3458.24,0.04629
3452.45,0.04645
3446.67,0.04644
3440.88,0.04661
3435.1,0.04577
3429.31,0.04593
3423.52,0.04633
3417.74,0.04587
3411.95,0.04614
3406.16,0.04575
3400.38,0.04650
3394.59,0.04704
3388.81,0.04673
3383.02,0.04653
3377.23,0.04652
3371.45,0.04725
3365.66,0.04789
3359.87,0.04785
3354.09,0.04792
3348.3,0.04931
3342.52,0.04964
3336.73,0.05080
3330.94,0.05154
3325.16,0.05216
3319.37,0.05345
3313.58,0.05420
3307.8,0.05518
3302.01,0.05536
3296.23,0.05675
3290.44,0.05661
3284.65,0.05765
3278.87,0.05856
3273.08,0.05962
3267.29,0.06093
3261.51,0.06190
3255.72,0.06384
3249.94,0.06508
3244.15,0.06550
3238.36,0.06765
3232.58,0.06909
3226.79,0.07019
3221,0.07280
3215.22,0.07395
3209.43,0.07581
3203.65,0.07764
3197.86,0.07994
3192.07,0.08133
3186.29,0.08293
3180.5,0.08566
3174.71,0.08724
3168.93,0.08915
3163.14,0.09149
3157.36,0.09302
3151.57,0.09518
3145.78,0.09766
3140,0.09978
3134.21,0.10200
3128.42,0.10345
3122.64,0.10579
3116.85,0.10819
3111.07,0.10988
3105.28,0.11179
3099.49,0.11331
3093.71,0.11545
3087.92,0.11685
3082.14,0.11800
3076.35,0.12004
3070.56,0.12124
3064.78,0.12244
3058.99,0.12422
3053.2,0.12621
3047.42,0.12730
3041.63,0.12861
3035.85,0.12902
3030.06,0.12932
3024.27,0.12957
3018.49,0.12805
3012.7,0.12645
3006.91,0.12327
3001.13,0.12044
2995.34,0.11796
2989.56,0.11528
2983.77,0.10976
2977.98,0.10250
2972.2,0.09431
2966.41,0.08890
2960.62,0.08584
2954.84,0.08286
2949.05,0.07874
2943.27,0.07613
2937.48,0.07415
2931.69,0.07451
2925.91,0.07338
2920.12,0.07353
2914.33,0.07310
2908.55,0.07399
2902.76,0.07462
2896.98,0.07485
2891.19,0.07676
2885.4,0.07810
2879.62,0.07908
2873.83,0.08061
2868.04,0.08245
2862.26,0.08479
2856.47,0.08767
2850.69,0.09038
2844.9,0.09487
2839.11,0.09930
2833.33,0.10476
2827.54,0.11123
2821.75,0.11739
2815.97,0.12311
2810.18,0.12790
2804.4,0.13220
2798.61,0.13622
2792.82,0.13902
2787.04,0.14143
2781.25,0.14299
2775.46,0.14463
2769.68,0.14577
2763.89,0.14667
2758.11,0.14710
2752.32,0.14743
2746.53,0.14788
2740.75,0.14828
2734.96,0.14873
2729.17,0.14955
2723.39,0.15138
2717.6,0.15250
2711.82,0.15463
2706.03,0.15705
2700.24,0.15932
2694.46,0.16165
2688.67,0.16362
2682.88,0.16565
2677.1,0.16803
2671.31,0.16915
2665.53,0.17055
2659.74,0.17179
2653.95,0.17294
2648.17,0.17463
2642.38,0.17575
2636.59,0.17806
2630.81,0.17983
2625.02,0.18209
2619.24,0.18365
2613.45,0.18499
2607.66,0.18663
2601.88,0.18800
2596.09,0.18923
2590.3,0.19109
2584.52,0.19254
2578.73,0.19371
2572.95,0.19453
2567.16,0.19529
2561.37,0.19539
2555.59,0.19568
2549.8,0.19627
2544.02,0.19625
2538.23,0.19744
2532.44,0.19913
2526.66,0.20042
2520.87,0.20202
2515.08,0.20361
2509.3,0.20586
2503.51,0.20879
2497.73,0.21160
2491.94,0.21410
2486.15,0.21642
2480.37,0.21865
2474.58,0.22113
2468.79,0.22325
2463.01,0.22504
2457.22,0.22737
2451.44,0.22991
2445.65,0.23254
2439.86,0.23551
2434.08,0.23795
2428.29,0.24098
2422.5,0.24433
2416.72,0.24740
2410.93,0.25063
2405.15,0.25330
2399.36,0.25618
2393.57,0.25922
2387.79,0.26182
2382,0.26419
2376.21,0.26708
2370.43,0.26978
2364.64,0.27153
2358.86,0.27341
2353.07,0.27481
2347.28,0.27683
2341.5,0.27841
2335.71,0.27924
2329.92,0.28089
2324.14,0.28155
2318.35,0.28181
2312.57,0.28274
2306.78,0.28242
2300.99,0.28199
2295.21,0.28190
2289.42,0.28170
2283.63,0.28131
2277.85,0.28081
2272.06,0.27934
2266.28,0.27772
2260.49,0.27582
2254.7,0.27470
2248.92,0.27378
2243.13,0.27318
2237.34,0.27279
2231.56,0.27189
2225.77,0.27140
2219.99,0.27169
2214.2,0.27153
2208.41,0.27090
2202.63,0.26962
2196.84,0.26730
2191.05,0.26485
2185.27,0.26144
2179.48,0.25806
2173.7,0.25485
2167.91,0.25159
2162.12,0.24934
2156.34,0.24737
2150.55,0.24587
2144.76,0.24433
2138.98,0.24318
2133.19,0.24309
2127.41,0.24391
2121.62,0.24456
2115.83,0.24532
2110.05,0.24648
2104.26,0.24759
2098.47,0.24791
2092.69,0.24848
2086.9,0.24884
2081.12,0.24836
2075.33,0.24705
2069.54,0.24557
2063.76,0.24462
2057.97,0.24436
2052.19,0.24442
2046.4,0.24567
2040.61,0.24734
2034.83,0.25016
2029.04,0.25335
2023.25,0.25688
2017.47,0.25997
2011.68,0.26272
2005.9,0.26508
2000.11,0.26679
1994.32,0.26841
1988.54,0.27011
1982.75,0.27155
1976.96,0.27307
1971.18,0.27407
1965.39,0.27619
1959.61,0.27891
1953.82,0.28136
1948.03,0.28487
1942.25,0.28770
1936.46,0.29017
1930.67,0.29203
1924.89,0.29318
1919.1,0.29369
1913.32,0.29384
1907.53,0.29320
1901.74,0.29263
1895.96,0.29122
1890.17,0.29070
1884.38,0.28994
1878.6,0.28979
1872.81,0.28944
1867.03,0.28928
1861.24,0.28848
1855.45,0.28747
1849.67,0.28601
1843.88,0.28379
1838.09,0.28119
1832.31,0.27861
1826.52,0.27517
1820.74,0.27124
1814.95,0.26633
1809.16,0.26102
1803.38,0.25509
1797.59,0.24705
1791.8,0.23839
1786.02,0.22714
1780.23,0.21314
1774.45,0.19565
1768.66,0.17200
1762.87,0.14719
1757.09,0.12352
1751.3,0.10710
1745.51,0.09686
1739.73,0.09141
1733.94,0.09109
1728.16,0.09471
1722.37,0.10071
1716.58,0.10830
1710.8,0.11625
1705.01,0.12314
1699.22,0.12585
1693.44,0.12462
1687.65,0.12119
1681.87,0.11323
1676.08,0.10471
1670.29,0.09707
1664.51,0.09168
1658.72,0.08912
1652.93,0.08936
1647.15,0.08822
1641.36,0.08664
1635.58,0.08724
1629.79,0.08837
1624,0.08814
1618.22,0.08632
1612.43,0.08354
1606.64,0.08098
1600.86,0.08124
1595.07,0.08224
1589.29,0.08424
1583.5,0.09145
1577.71,0.10350
1571.93,0.11871
1566.14,0.13090
1560.35,0.13825
1554.57,0.13993
1548.78,0.13840
1543,0.13526
1537.21,0.12578
1531.42,0.11131
1525.64,0.09142
1519.85,0.06979
1514.07,0.05916
1508.28,0.05923
1502.49,0.06601
1496.71,0.07405
1490.92,0.07857
1485.13,0.07769
1479.35,0.07353
1473.56,0.06625
1467.78,0.05996
1461.99,0.05843
1456.2,0.05809
1450.42,0.05810
1444.63,0.05998
1438.84,0.05887
1433.06,0.05556
1427.27,0.05556
1421.49,0.05742
1415.7,0.06077
1409.91,0.06295
1404.13,0.06339
1398.34,0.06322
1392.55,0.06062
1386.77,0.05719
1380.98,0.05352
1375.2,0.05314
1369.41,0.05435
1363.62,0.05605
1357.84,0.05750
1352.05,0.05884
1346.26,0.05851
1340.48,0.05725
1334.69,0.05686
1328.91,0.05652
1323.12,0.05535
1317.33,0.05553
1311.55,0.05667
1305.76,0.05799
1299.97,0.05766
1294.19,0.05612
1288.4,0.05378
1282.62,0.05121
1276.83,0.05068
1271.04,0.05028
1265.26,0.05154
1259.47,0.05336
1253.68,0.05431
1247.9,0.05449
1242.11,0.05455
1236.33,0.05371
1230.54,0.05387
1224.75,0.05429
1218.97,0.05481
1213.18,0.05463
1207.39,0.05462
1201.61,0.05473
1195.82,0.05505
1190.04,0.05324
1184.25,0.05027
1178.46,0.04768
1172.68,0.04552
1166.89,0.04895
1161.1,0.05190
1155.32,0.05151
1149.53,0.04964
1143.75,0.04704
1137.96,0.04440
1132.17,0.04270
1126.39,0.04298
1120.6,0.04456
1114.81,0.04589
1109.03,0.04905
1103.24,0.05021
1097.46,0.04986
1091.67,0.04869
1085.88,0.04982
1080.1,0.05290
1074.31,0.05788
1068.52,0.06435
1062.74,0.07401
1056.95,0.07933
1051.17,0.07798
1045.38,0.07420
1039.59,0.07652
1033.81,0.08251
1028.02,0.08556
1022.24,0.08634
1016.45,0.08792
1010.66,0.08921
1004.88,0.09015
999.09,0.09293
993.304,0.09563
987.518,0.10069
981.731,0.10854
975.945,0.11342
970.159,0.11445
964.373,0.11585
958.586,0.11930
952.8,0.12278
947.014,0.12526
941.228,0.12653
935.441,0.12902
929.655,0.13211
923.869,0.13290
918.083,0.13076
912.297,0.12529
906.51,0.11807
900.724,0.11222
894.938,0.11234
889.152,0.11640
883.365,0.11911
877.579,0.11889
871.793,0.11794
866.007,0.11723
860.22,0.11850
854.434,0.12068
848.648,0.12549
842.862,0.12824
837.075,0.12563
831.289,0.12133
825.503,0.11729
819.717,0.11210
813.931,0.10721
808.144,0.10649
802.358,0.10860
796.572,0.11012
790.786,0.11081
784.999,0.10870
779.213,0.10558
773.427,0.10305
767.641,0.10064
761.854,0.09995
756.068,0.09696
750.282,0.09523
744.496,0.09479
738.709,0.09444
732.923,0.09266
727.137,0.09029
721.351,0.08761
715.565,0.08666
709.778,0.08487
703.992,0.08282
698.206,0.08195
692.42,0.08018
686.633,0.07894
680.847,0.07646
675.061,0.07523
669.275,0.07481
663.488,0.07567
657.702,0.07710
651.916,0.07707
646.13,0.07757
640.343,0.07695
634.557,0.07335
628.771,0.07502
622.985,0.07367
617.198,0.07631
611.412,0.07765
605.626,0.07775
599.84,0.08120