File: 01_Data/Pine_Siding/FTIR/IS/Pine_Siding_IS_T_220916_R8.dpt
7497.03,0.02766
7491.25,0.03168
7485.46,0.03169
7479.67,0.02517
7473.89,0.02104
7468.1,0.02852
7462.32,0.02211
7456.53,0.03130
7450.74,0.02673
7444.96,0.02870
7439.17,0.02396
7433.38,0.02300
7427.6,0.03246
7421.81,0.01929
7416.03,0.02784
7410.24,0.02900
7404.45,0.01680
7398.67,0.02549
7392.88,0.02266
7387.09,0.02883
7381.31,0.02555
7375.52,0.02634
7369.74,0.02938
7363.95,0.02794
7358.16,0.02171
7352.38,0.02313
7346.59,0.01944
7340.8,0.02004
7335.02,0.02296
7329.23,0.02626
7323.45,0.02766
7317.66,0.02643
7311.87,0.01794
7306.09,0.01851
7300.3,0.02941
7294.51,0.03184
7288.73,0.02884
7282.94,0.03113
7277.16,0.02734
7271.37,0.02290
7265.58,0.02872
7259.8,0.02923
7254.01,0.02166
7248.22,0.02247
7242.44,0.02190
7236.65,0.02478
7230.87,0.02030
7225.08,0.02085
7219.29,0.02838
7213.51,0.02546
7207.72,0.02230
7201.93,0.01982
7196.15,0.02188
7190.36,0.02060
7184.58,0.02080
7178.79,0.02525
7173,0.02469
7167.22,0.02550
7161.43,0.02360
7155.65,0.02252
7149.86,0.02240
7144.07,0.02433
7138.29,0.01854
7132.5,0.02112
7126.71,0.02032
7120.93,0.01478
7115.14,0.02078
7109.36,0.02224
7103.57,0.03045
7097.78,0.02571
7092,0.02769
7086.21,0.02910
7080.42,0.02099
7074.64,0.02244
7068.85,0.01733
7063.07,0.02238
7057.28,0.02443
7051.49,0.01798
7045.71,0.02325
7039.92,0.02536
7034.13,0.02198
7028.35,0.02453
7022.56,0.01936
7016.78,0.02654
7010.99,0.02733
7005.2,0.02070
6999.42,0.02088
6993.63,0.02578
6987.84,0.02512
6982.06,0.02000
6976.27,0.02570
6970.49,0.02795
6964.7,0.02916
6958.91,0.02773
6953.13,0.02203
6947.34,0.02792
6941.55,0.01523
6935.77,0.02296
6929.98,0.02083
6924.2,0.02600
6918.41,0.02525
6912.62,0.01873
6906.84,0.01746
6901.05,0.02440
6895.26,0.02333
6889.48,0.02135
6883.69,0.02762
6877.91,0.02649
6872.12,0.02405
6866.33,0.02420
6860.55,0.02490
6854.76,0.02522
6848.97,0.02107
6843.19,0.02214
6837.4,0.02051
6831.62,0.01752
6825.83,0.01922
6820.04,0.01910
6814.26,0.02293
6808.47,0.02008
6802.68,0.01840
6796.9,0.02466
6791.11,0.02557
6785.33,0.02154
6779.54,0.02025
6773.75,0.02069
6767.97,0.01951
6762.18,0.02492
6756.39,0.01915
6750.61,0.02125
6744.82,0.02412
6739.04,0.02747
6733.25,0.02081
6727.46,0.02222
6721.68,0.01941
6715.89,0.02220
6710.1,0.02780
6704.32,0.02209
6698.53,0.02074
6692.75,0.02280
6686.96,0.02500
6681.17,0.01934
6675.39,0.02622
6669.6,0.02502
6663.82,0.01931
6658.03,0.02252
6652.24,0.02363
6646.46,0.02466
6640.67,0.02777
6634.88,0.02726
6629.1,0.02420
6623.31,0.01669
6617.53,0.02078
6611.74,0.02524
6605.95,0.02159
6600.17,0.02026
6594.38,0.02577
6588.59,0.02083
6582.81,0.02078
6577.02,0.02080
6571.24,0.01988
6565.45,0.02293
6559.66,0.02127
6553.88,0.01833
6548.09,0.02198
6542.3,0.02553
6536.52,0.02250
6530.73,0.02179
6524.95,0.02122
6519.16,0.02120
6513.37,0.02464
6507.59,0.02412
6501.8,0.02267
6496.01,0.02293
6490.23,0.02436
6484.44,0.02213
6478.66,0.01848
6472.87,0.02169
6467.08,0.02051
6461.3,0.02036
6455.51,0.02104
6449.72,0.02274
6443.94,0.02354
6438.15,0.02386
6432.37,0.02309
6426.58,0.02346
6420.79,0.02157
6415.01,0.02667
6409.22,0.02043
6403.43,0.02146
6397.65,0.02146
6391.86,0.01854
6386.08,0.01708
6380.29,0.02271
6374.5,0.01911
6368.72,0.02005
6362.93,0.02001
6357.14,0.02206
6351.36,0.02386
6345.57,0.02368
6339.79,0.01924
6334,0.02036
6328.21,0.02348
6322.43,0.02582
6316.64,0.02301
6310.85,0.02071
6305.07,0.02552
6299.28,0.02482
6293.5,0.01937
6287.71,0.02202
6281.92,0.02696
6276.14,0.02502
6270.35,0.02258
6264.56,0.02128
6258.78,0.02173
6252.99,0.02007
6247.21,0.02130
6241.42,0.02473
6235.63,0.02179
6229.85,0.02128
6224.06,0.02226
6218.27,0.02321
6212.49,0.02215
6206.7,0.02423
6200.92,0.02431
6195.13,0.02174
6189.34,0.02227
6183.56,0.02077
6177.77,0.02073
6171.98,0.01939
6166.2,0.02387
6160.41,0.02607
6154.63,0.02193
6148.84,0.02167
6143.05,0.02011
6137.27,0.02201
6131.48,0.02412
6125.7,0.02089
6119.91,0.02034
6114.12,0.02254
6108.34,0.02183
6102.55,0.02198
6096.76,0.02198
6090.98,0.02091
6085.19,0.02012
6079.41,0.02044
6073.62,0.02204
6067.83,0.02278
6062.05,0.02279
6056.26,0.01784
6050.47,0.01944
6044.69,0.02195
6038.9,0.02262
6033.12,0.02546
6027.33,0.02234
6021.54,0.02208
6015.76,0.02214
6009.97,0.02301
6004.18,0.02141
5998.4,0.02130
5992.61,0.02190
5986.83,0.01924
5981.04,0.01830
5975.25,0.02109
5969.47,0.02398
5963.68,0.02521
5957.89,0.02339
5952.11,0.02353
5946.32,0.01997
5940.54,0.02275
5934.75,0.02058
5928.96,0.02112
5923.18,0.01988
5917.39,0.01974
5911.6,0.02081
5905.82,0.02170
5900.03,0.02343
5894.25,0.02282
5888.46,0.02129
5882.67,0.02046
5876.89,0.02072
5871.1,0.02228
5865.31,0.02038
5859.53,0.02267
5853.74,0.02481
5847.96,0.02293
5842.17,0.02404
5836.38,0.02110
5830.6,0.02193
5824.81,0.02088
5819.02,0.02201
5813.24,0.02314
5807.45,0.02225
5801.67,0.02326
5795.88,0.02224
5790.09,0.02236
5784.31,0.02433
5778.52,0.02240
5772.73,0.02374
5766.95,0.02261
5761.16,0.02294
5755.38,0.02277
5749.59,0.02117
5743.8,0.01980
5738.02,0.02274
5732.23,0.02171
5726.44,0.02080
5720.66,0.02019
5714.87,0.02090
5709.09,0.02260
5703.3,0.02297
5697.51,0.02329
5691.73,0.02006
5685.94,0.02258
5680.15,0.02314
5674.37,0.01968
5668.58,0.02256
5662.8,0.02265
5657.01,0.02328
5651.22,0.02102
5645.44,0.02139
5639.65,0.02015
5633.87,0.02241
5628.08,0.02292
5622.29,0.02168
5616.51,0.02065
5610.72,0.02279
5604.93,0.02094
5599.15,0.02200
5593.36,0.02192
5587.58,0.02287
5581.79,0.02194
5576,0.02141
5570.22,0.02207
5564.43,0.02185
5558.64,0.02141
5552.86,0.02092
5547.07,0.02167
5541.29,0.02252
5535.5,0.02213
5529.71,0.02113
5523.93,0.02127
5518.14,0.02179
5512.35,0.02048
5506.57,0.01992
5500.78,0.02075
5495,0.02216
5489.21,0.02253
5483.42,0.02286
5477.64,0.02229
5471.85,0.02129
5466.06,0.02407
5460.28,0.02237
5454.49,0.02246
5448.71,0.02018
5442.92,0.02232
5437.13,0.02037
5431.35,0.02242
5425.56,0.02266
5419.77,0.02346
5413.99,0.02130
5408.2,0.02443
5402.42,0.02293
5396.63,0.02274
5390.84,0.02132
5385.06,0.02304
5379.27,0.02165
5373.48,0.02167
5367.7,0.02108
5361.91,0.02097
5356.13,0.02199
5350.34,0.02271
5344.55,0.02331
5338.77,0.02204
5332.98,0.02259
5327.19,0.02183
5321.41,0.02231
5315.62,0.02314
5309.84,0.02291
5304.05,0.02188
5298.26,0.02207
5292.48,0.02215
5286.69,0.02186
5280.9,0.02229
5275.12,0.02060
5269.33,0.02111
5263.55,0.02127
5257.76,0.02202
5251.97,0.02185
5246.19,0.02146
5240.4,0.02253
5234.61,0.02124
5228.83,0.02007
5223.04,0.02058
5217.26,0.02182
5211.47,0.02131
5205.68,0.02172
5199.9,0.02227
5194.11,0.02103
5188.32,0.02134
5182.54,0.02071
5176.75,0.02124
5170.97,0.02176
5165.18,0.02307
5159.39,0.02161
5153.61,0.02289
5147.82,0.02214
5142.03,0.02095
5136.25,0.02230
5130.46,0.02226
5124.68,0.02331
5118.89,0.02186
5113.1,0.02038
5107.32,0.02322
5101.53,0.02190
5095.75,0.02190
5089.96,0.02145
5084.17,0.02145
5078.39,0.02305
5072.6,0.02209
5066.81,0.02103
5061.03,0.02084
5055.24,0.02134
5049.46,0.02085
5043.67,0.02136
5037.88,0.02078
5032.1,0.02184
5026.31,0.02218
5020.52,0.02125
5014.74,0.02122
5008.95,0.02207
5003.17,0.02331
4997.38,0.02228
4991.59,0.02128
4985.81,0.02199
4980.02,0.02211
4974.23,0.02180
4968.45,0.02216
4962.66,0.02173
4956.88,0.02015
4951.09,0.02190
4945.3,0.02306
4939.52,0.02249
4933.73,0.02059
4927.94,0.02142
4922.16,0.02343
4916.37,0.02152
4910.59,0.02139
4904.8,0.02304
4899.01,0.02231
4893.23,0.02280
4887.44,0.02147
4881.65,0.02184
4875.87,0.02328
4870.08,0.02190
4864.3,0.02161
4858.51,0.02192
4852.72,0.02169
4846.94,0.02183
4841.15,0.02157
4835.36,0.02245
4829.58,0.02147
4823.79,0.02182
4818.01,0.02163
4812.22,0.02298
4806.43,0.02180
4800.65,0.02210
4794.86,0.02151
4789.07,0.02087
4783.29,0.02162
4777.5,0.02178
4771.72,0.02252
4765.93,0.02303
4760.14,0.02266
4754.36,0.02234
4748.57,0.02170
4742.78,0.02251
4737,0.02168
4731.21,0.02260
4725.43,0.02240
4719.64,0.02306
4713.85,0.02182
4708.07,0.02252
4702.28,0.02226
4696.49,0.02252
4690.71,0.02216
4684.92,0.02259
4679.14,0.02205
4673.35,0.02277
4667.56,0.02256
4661.78,0.02128
4655.99,0.02106
4650.2,0.02215
4644.42,0.02153
4638.63,0.02188
4632.85,0.02178
4627.06,0.02222
4621.27,0.02233
4615.49,0.02238
4609.7,0.02231
4603.92,0.02252
4598.13,0.02242
4592.34,0.02203
4586.56,0.02178
4580.77,0.02298
4574.98,0.02171
4569.2,0.02220
4563.41,0.02182
4557.63,0.02226
4551.84,0.02266
4546.05,0.02171
4540.27,0.02154
4534.48,0.02163
4528.69,0.02267
4522.91,0.02251
4517.12,0.02159
4511.34,0.02181
4505.55,0.02273
4499.76,0.02258
4493.98,0.02135
4488.19,0.02208
4482.4,0.02212
4476.62,0.02178
4470.83,0.02155
4465.05,0.02196
4459.26,0.02261
4453.47,0.02223
4447.69,0.02296
4441.9,0.02203
4436.11,0.02200
4430.33,0.02187
4424.54,0.02181
4418.76,0.02225
4412.97,0.02266
4407.18,0.02168
4401.4,0.02135
4395.61,0.02210
4389.82,0.02276
4384.04,0.02249
4378.25,0.02187
4372.47,0.02184
4366.68,0.02193
4360.89,0.02202
4355.11,0.02182
4349.32,0.02162
4343.53,0.02264
4337.75,0.02239
4331.96,0.02166
4326.18,0.02135
4320.39,0.02262
4314.6,0.02179
4308.82,0.02229
4303.03,0.02324
4297.24,0.02209
4291.46,0.02188
4285.67,0.02195
4279.89,0.02206
4274.1,0.02194
4268.31,0.02198
4262.53,0.02257
4256.74,0.02231
4250.95,0.02279
4245.17,0.02225
4239.38,0.02163
4233.6,0.02181
4227.81,0.02214
4222.02,0.02202
4216.24,0.02198
4210.45,0.02200
4204.66,0.02295
4198.88,0.02267
4193.09,0.02269
4187.31,0.02284
4181.52,0.02242
4175.73,0.02225
4169.95,0.02245
4164.16,0.02219
4158.37,0.02273
4152.59,0.02292
4146.8,0.02298
4141.02,0.02228
4135.23,0.02277
4129.44,0.02124
4123.66,0.02234
4117.87,0.02227
4112.09,0.02277
4106.3,0.02220
4100.51,0.02214
4094.73,0.02228
4088.94,0.02237
4083.15,0.02191
4077.37,0.02198
4071.58,0.02262
4065.8,0.02260
4060.01,0.02272
4054.22,0.02261
4048.44,0.02247
4042.65,0.02186
4036.86,0.02172
4031.08,0.02188
4025.29,0.02268
4019.51,0.02256
4013.72,0.02171
4007.93,0.02244
4002.15,0.02267
3996.36,0.02211
3990.57,0.02210
3984.79,0.02268
3979,0.02233
3973.22,0.02296
3967.43,0.02257
3961.64,0.02292
3955.86,0.02308
3950.07,0.02237
3944.28,0.02198
3938.5,0.02235
3932.71,0.02226
3926.93,0.02200
3921.14,0.02248
3915.35,0.02227
3909.57,0.02227
3903.78,0.02237
3897.99,0.02233
3892.21,0.02240
3886.42,0.02254
3880.64,0.02196
3874.85,0.02226
3869.06,0.02263
3863.28,0.02246
3857.49,0.02264
3851.7,0.02157
3845.92,0.02183
3840.13,0.02225
3834.35,0.02237
3828.56,0.02283
3822.77,0.02275
3816.99,0.02163
3811.2,0.02266
3805.41,0.02280
3799.63,0.02266
3793.84,0.02207
3788.06,0.02248
3782.27,0.02328
3776.48,0.02238
3770.7,0.02258
3764.91,0.02168
3759.12,0.02231
3753.34,0.02341
3747.55,0.02313
3741.77,0.02233
3735.98,0.02251
3730.19,0.02269
3724.41,0.02199
3718.62,0.02181
3712.83,0.02212
3707.05,0.02247
3701.26,0.02249
3695.48,0.02289
3689.69,0.02213
3683.9,0.02249
3678.12,0.02250
3672.33,0.02234
3666.54,0.02193
3660.76,0.02215
3654.97,0.02182
3649.19,0.02227
3643.4,0.02230
3637.61,0.02201
3631.83,0.02189
3626.04,0.02160
3620.25,0.02179
3614.47,0.02187
3608.68,0.02148
3602.9,0.02116
3597.11,0.02105
3591.32,0.02189
3585.54,0.02187
3579.75,0.02168
3573.97,0.02166
3568.18,0.02140
3562.39,0.02160
3556.61,0.02092
3550.82,0.02226
3545.03,0.02066
3539.25,0.02101
3533.46,0.02090
3527.68,0.02150
3521.89,0.02146
3516.1,0.02102
3510.32,0.02065
3504.53,0.02098
3498.74,0.02149
3492.96,0.02082
3487.17,0.02080
3481.39,0.02147
3475.6,0.02048
3469.81,0.02098
3464.03,0.02102
3458.24,0.02063
3452.45,0.02118
3446.67,0.02008
3440.88,0.02032
3435.1,0.02042
3429.31,0.02025
3423.52,0.02049
3417.74,0.02038
3411.95,0.02036
3406.16,0.01979
3400.38,0.01991
3394.59,0.02036
3388.81,0.02045
3383.02,0.01979
3377.23,0.02104
3371.45,0.02046
3365.66,0.02085
3359.87,0.01972
3354.09,0.02005
3348.3,0.02014
3342.52,0.01985
3336.73,0.01965
3330.94,0.01994
3325.16,0.02045
3319.37,0.02027
3313.58,0.01974
3307.8,0.01979
3302.01,0.02043
3296.23,0.02027
3290.44,0.02084
3284.65,0.01984
3278.87,0.01954
3273.08,0.02018
3267.29,0.02031
3261.51,0.02060
3255.72,0.02083
3249.94,0.02086
3244.15,0.02015
3238.36,0.01987
3232.58,0.02020
3226.79,0.02016
3221,0.02098
3215.22,0.02077
3209.43,0.02130
3203.65,0.02003
3197.86,0.02091
3192.07,0.02069
3186.29,0.02066
3180.5,0.02085
3174.71,0.02064
3168.93,0.02131
3163.14,0.02094
3157.36,0.02078
3151.57,0.02044
3145.78,0.02057
3140,0.02095
3134.21,0.02068
3128.42,0.02059
3122.64,0.02142
3116.85,0.02078
3111.07,0.02115
3105.28,0.02004
3099.49,0.02109
3093.71,0.02075
3087.92,0.02018
3082.14,0.02038
3076.35,0.02022
3070.56,0.02044
3064.78,0.02025
3058.99,0.02061
3053.2,0.02053
3047.42,0.02088
3041.63,0.02018
3035.85,0.02000
3030.06,0.02036
3024.27,0.02064
3018.49,0.02070
3012.7,0.02042
3006.91,0.02005
3001.13,0.02011
2995.34,0.02013
2989.56,0.01991
2983.77,0.01995
2977.98,0.01949
2972.2,0.01938
2966.41,0.01929
2960.62,0.01936
2954.84,0.01915
2949.05,0.01952
2943.27,0.01948
2937.48,0.01934
2931.69,0.02010
2925.91,0.02001
2920.12,0.01946
2914.33,0.01966
2908.55,0.01993
2902.76,0.02045
2896.98,0.02010
2891.19,0.02042
2885.4,0.02060
2879.62,0.02038
2873.83,0.01993
2868.04,0.02048
2862.26,0.02039
2856.47,0.02021
2850.69,0.02101
2844.9,0.02102
2839.11,0.02121
2833.33,0.02126
2827.54,0.02115
2821.75,0.02111
2815.97,0.02046
2810.18,0.02090
2804.4,0.02086
2798.61,0.02092
2792.82,0.02069
2787.04,0.02082
2781.25,0.02082
2775.46,0.02062
2769.68,0.02109
2763.89,0.02104
2758.11,0.02127
2752.32,0.02164
2746.53,0.02110
2740.75,0.02112
2734.96,0.02099
2729.17,0.02059
2723.39,0.02077
2717.6,0.02121
2711.82,0.02130
2706.03,0.02154
2700.24,0.02112
2694.46,0.02094
2688.67,0.02109
2682.88,0.02112
2677.1,0.02095
2671.31,0.02085
2665.53,0.02149
2659.74,0.02117
2653.95,0.02093
2648.17,0.02131
2642.38,0.02062
2636.59,0.02082
2630.81,0.02121
2625.02,0.02101
2619.24,0.02109
2613.45,0.02140
2607.66,0.02088
2601.88,0.02132
2596.09,0.02166
2590.3,0.02099
2584.52,0.02095
2578.73,0.02104
2572.95,0.02118
2567.16,0.02089
2561.37,0.02115
2555.59,0.02138
2549.8,0.02145
2544.02,0.02109
2538.23,0.02105
2532.44,0.02092
2526.66,0.02090
2520.87,0.02109
2515.08,0.02095
2509.3,0.02151
2503.51,0.02111
2497.73,0.02098
2491.94,0.02084
2486.15,0.02065
2480.37,0.02106
2474.58,0.02087
2468.79,0.02083
2463.01,0.02113
2457.22,0.02062
2451.44,0.02081
2445.65,0.02110
2439.86,0.02114
2434.08,0.02098
2428.29,0.02073
2422.5,0.02128
2416.72,0.02119
2410.93,0.02077
2405.15,0.02073
2399.36,0.02114
2393.57,0.02082
2387.79,0.02119
2382,0.02110
2376.21,0.02121
2370.43,0.02122
2364.64,0.02121
2358.86,0.02119
2353.07,0.02098
2347.28,0.02112
2341.5,0.02101
2335.71,0.02095
2329.92,0.02056
2324.14,0.02104
2318.35,0.02114
2312.57,0.02087
2306.78,0.02076
2300.99,0.02094
2295.21,0.02096
2289.42,0.02073
2283.63,0.02075
2277.85,0.02110
2272.06,0.02116
2266.28,0.02099
2260.49,0.02095
2254.7,0.02050
2248.92,0.02056
2243.13,0.02084
2237.34,0.02067
2231.56,0.02067
2225.77,0.02092
2219.99,0.02083
2214.2,0.02082
2208.41,0.02118
2202.63,0.02099
2196.84,0.02074
2191.05,0.02080
2185.27,0.02070
2179.48,0.02098
2173.7,0.02074
2167.91,0.02062
2162.12,0.02046
2156.34,0.02107
2150.55,0.02098
2144.76,0.02115
2138.98,0.02105
2133.19,0.02120
2127.41,0.02071
2121.62,0.02083
2115.83,0.02082
2110.05,0.02080
2104.26,0.02085
2098.47,0.02064
2092.69,0.02079
2086.9,0.02085
2081.12,0.02067
2075.33,0.02048
2069.54,0.02048
2063.76,0.02088
2057.97,0.02068
2052.19,0.02102
2046.4,0.02060
2040.61,0.02088
2034.83,0.02105
2029.04,0.02088
2023.25,0.02059
2017.47,0.02082
2011.68,0.02063
2005.9,0.02056
2000.11,0.02047
1994.32,0.02071
1988.54,0.02093
1982.75,0.02092
1976.96,0.02053
1971.18,0.02055
1965.39,0.02070
1959.61,0.02049
1953.82,0.02060
1948.03,0.02034
1942.25,0.02063
1936.46,0.02059
1930.67,0.02043
1924.89,0.02061
1919.1,0.02044
1913.32,0.02070
1907.53,0.02054
1901.74,0.02048
1895.96,0.02063
1890.17,0.02045
1884.38,0.02027
1878.6,0.02031
1872.81,0.02031
1867.03,0.02022
1861.24,0.02025
1855.45,0.01968
1849.67,0.02027
1843.88,0.02015
1838.09,0.01976
1832.31,0.02014
1826.52,0.01990
1820.74,0.02011
1814.95,0.01974
1809.16,0.01963
1803.38,0.01960
1797.59,0.01938
1791.8,0.01940
1786.02,0.01902
1780.23,0.01881
1774.45,0.01897
1768.66,0.01843
1762.87,0.01794
1757.09,0.01783
1751.3,0.01727
1745.51,0.01755
1739.73,0.01844
1733.94,0.01932
1728.16,0.02007
1722.37,0.02094
1716.58,0.02046
1710.8,0.02048
1705.01,0.02018
1699.22,0.01958
1693.44,0.01960
1687.65,0.01969
1681.87,0.01905
1676.08,0.01893
1670.29,0.01840
1664.51,0.01864
1658.72,0.01835
1652.93,0.01838
1647.15,0.01813
1641.36,0.01819
1635.58,0.01814
1629.79,0.01827
1624,0.01864
1618.22,0.01886
1612.43,0.01861
1606.64,0.01893
1600.86,0.01858
1595.07,0.01855
1589.29,0.01865
1583.5,0.01832
1577.71,0.01869
1571.93,0.01818
1566.14,0.01792
1560.35,0.01871
1554.57,0.01802
1548.78,0.01855
1543,0.01833
1537.21,0.01819
1531.42,0.01862
1525.64,0.01866
1519.85,0.01865
1514.07,0.01840
1508.28,0.01898
1502.49,0.01863
1496.71,0.01892
1490.92,0.01832
1485.13,0.01867
1479.35,0.01853
1473.56,0.01842
1467.78,0.01848
1461.99,0.01829
1456.2,0.01875
1450.42,0.01878
1444.63,0.01912
1438.84,0.01912
1433.06,0.01833
1427.27,0.01827
1421.49,0.01879
1415.7,0.01854
1409.91,0.01834
1404.13,0.01822
1398.34,0.01804
1392.55,0.01784
1386.77,0.01809
1380.98,0.01820
1375.2,0.01840
1369.41,0.01819
1363.62,0.01820
1357.84,0.01797
1352.05,0.01779
1346.26,0.01770
1340.48,0.01770
1334.69,0.01790
1328.91,0.01734
1323.12,0.01736
1317.33,0.01675
1311.55,0.01652
1305.76,0.01695
1299.97,0.01709
1294.19,0.01767
1288.4,0.01822
1282.62,0.01886
1276.83,0.01871
1271.04,0.01924
1265.26,0.01957
1259.47,0.01967
1253.68,0.01982
1247.9,0.02022
1242.11,0.01987
1236.33,0.01971
1230.54,0.01979
1224.75,0.01950
1218.97,0.01907
1213.18,0.01868
1207.39,0.01892
1201.61,0.01881
1195.82,0.01867
1190.04,0.01771
1184.25,0.01779
1178.46,0.01755
1172.68,0.01782
1166.89,0.01770
1161.1,0.01751
1155.32,0.01716
1149.53,0.01740
1143.75,0.01709
1137.96,0.01756
1132.17,0.01803
1126.39,0.01805
1120.6,0.01911
1114.81,0.01892
1109.03,0.01834
1103.24,0.01851
1097.46,0.01846
1091.67,0.01846
1085.88,0.01823
1080.1,0.01812
1074.31,0.01888
1068.52,0.01912
1062.74,0.01978
1056.95,0.01983
1051.17,0.01950
1045.38,0.01895
1039.59,0.01914
1033.81,0.01858
1028.02,0.01926
1022.24,0.01881
1016.45,0.01918
1010.66,0.01965
1004.88,0.02097
999.09,0.02123
993.304,0.02055
987.518,0.02095
981.731,0.02027
975.945,0.02022
970.159,0.01998
964.373,0.01915
958.586,0.01977
952.8,0.02039
947.014,0.01946
941.228,0.01969
935.441,0.01936
929.655,0.01893
923.869,0.01866
918.083,0.01924
912.297,0.01899
906.51,0.01956
900.724,0.01872
894.938,0.01867
889.152,0.01914
883.365,0.01851
877.579,0.01869
871.793,0.01861
866.007,0.01879
860.22,0.01886
854.434,0.01935
848.648,0.01922
842.862,0.01934
837.075,0.01910
831.289,0.01866
825.503,0.01936
819.717,0.01875
813.931,0.01848
808.144,0.01884
802.358,0.01894
796.572,0.01819
790.786,0.01842
784.999,0.01863
779.213,0.01820
773.427,0.01811
767.641,0.01833
761.854,0.01834
756.068,0.01815
750.282,0.01819
744.496,0.01757
738.709,0.01877
732.923,0.01913
727.137,0.01903
721.351,0.01815
715.565,0.01780
709.778,0.01811
703.992,0.01693
698.206,0.01701
692.42,0.01622
686.633,0.01819
680.847,0.01835
675.061,0.01739
669.275,0.01700
663.488,0.01585
657.702,0.01749
651.916,0.01759
646.13,0.01787
640.343,0.01806
634.557,0.01511
628.771,0.01469
622.985,0.01632
617.198,0.01400
611.412,0.01746
605.626,0.01634
599.84,0.01720