File: 01_Data/Pine_Siding/FTIR/IS/Pine_Siding_IS_S_220916_R1.dpt
7497.03,0.83752
7491.25,0.83453
7485.46,0.82633
7479.67,0.82532
7473.89,0.82659
7468.1,0.82992
7462.32,0.81654
7456.53,0.80887
7450.74,0.81073
7444.96,0.80401
7439.17,0.80749
7433.38,0.80056
7427.6,0.80640
7421.81,0.81069
7416.03,0.80109
7410.24,0.79472
7404.45,0.79634
7398.67,0.78192
7392.88,0.77910
7387.09,0.79236
7381.31,0.79651
7375.52,0.79753
7369.74,0.78615
7363.95,0.78571
7358.16,0.78258
7352.38,0.78378
7346.59,0.77911
7340.8,0.77999
7335.02,0.76468
7329.23,0.77064
7323.45,0.76785
7317.66,0.76451
7311.87,0.76670
7306.09,0.76168
7300.3,0.76932
7294.51,0.76883
7288.73,0.76038
7282.94,0.76524
7277.16,0.76769
7271.37,0.76368
7265.58,0.75917
7259.8,0.76156
7254.01,0.76197
7248.22,0.76019
7242.44,0.75989
7236.65,0.75906
7230.87,0.75672
7225.08,0.75627
7219.29,0.76061
7213.51,0.76124
7207.72,0.75029
7201.93,0.74776
7196.15,0.75156
7190.36,0.74971
7184.58,0.74661
7178.79,0.74327
7173,0.74453
7167.22,0.73803
7161.43,0.73230
7155.65,0.73326
7149.86,0.73203
7144.07,0.72370
7138.29,0.71808
7132.5,0.71583
7126.71,0.70888
7120.93,0.71216
7115.14,0.70437
7109.36,0.70293
7103.57,0.69285
7097.78,0.69030
7092,0.68206
7086.21,0.67794
7080.42,0.67168
7074.64,0.66150
7068.85,0.66206
7063.07,0.65321
7057.28,0.64853
7051.49,0.64378
7045.71,0.63525
7039.92,0.63030
7034.13,0.62680
7028.35,0.62081
7022.56,0.61987
7016.78,0.62033
7010.99,0.60555
7005.2,0.60215
6999.42,0.60212
6993.63,0.60062
6987.84,0.59873
6982.06,0.58562
6976.27,0.59001
6970.49,0.59160
6964.7,0.59172
6958.91,0.59346
6953.13,0.58230
6947.34,0.58346
6941.55,0.58548
6935.77,0.58403
6929.98,0.57931
6924.2,0.58178
6918.41,0.58066
6912.62,0.58509
6906.84,0.58184
6901.05,0.58125
6895.26,0.57810
6889.48,0.57614
6883.69,0.58088
6877.91,0.57966
6872.12,0.57900
6866.33,0.57671
6860.55,0.57808
6854.76,0.57968
6848.97,0.57846
6843.19,0.58020
6837.4,0.57436
6831.62,0.57825
6825.83,0.57579
6820.04,0.58010
6814.26,0.57667
6808.47,0.57673
6802.68,0.57894
6796.9,0.57420
6791.11,0.57790
6785.33,0.57564
6779.54,0.58161
6773.75,0.57486
6767.97,0.57790
6762.18,0.57768
6756.39,0.58147
6750.61,0.57765
6744.82,0.58057
6739.04,0.58030
6733.25,0.58209
6727.46,0.58281
6721.68,0.58281
6715.89,0.58139
6710.1,0.57926
6704.32,0.58332
6698.53,0.58067
6692.75,0.58409
6686.96,0.58575
6681.17,0.58978
6675.39,0.58267
6669.6,0.58364
6663.82,0.58852
6658.03,0.59103
6652.24,0.59416
6646.46,0.58861
6640.67,0.59285
6634.88,0.59111
6629.1,0.59698
6623.31,0.60111
6617.53,0.59626
6611.74,0.59485
6605.95,0.59614
6600.17,0.59672
6594.38,0.60601
6588.59,0.60279
6582.81,0.60094
6577.02,0.59793
6571.24,0.60177
6565.45,0.60112
6559.66,0.60646
6553.88,0.60323
6548.09,0.60631
6542.3,0.60659
6536.52,0.60606
6530.73,0.60676
6524.95,0.60420
6519.16,0.60513
6513.37,0.60754
6507.59,0.60930
6501.8,0.60778
6496.01,0.60579
6490.23,0.60591
6484.44,0.61163
6478.66,0.61022
6472.87,0.60909
6467.08,0.61188
6461.3,0.61218
6455.51,0.61027
6449.72,0.61052
6443.94,0.61242
6438.15,0.61695
6432.37,0.61822
6426.58,0.61696
6420.79,0.61234
6415.01,0.61184
6409.22,0.61597
6403.43,0.61803
6397.65,0.61649
6391.86,0.61589
6386.08,0.62025
6380.29,0.61725
6374.5,0.61885
6368.72,0.62092
6362.93,0.61953
6357.14,0.62082
6351.36,0.62191
6345.57,0.62308
6339.79,0.62480
6334,0.62227
6328.21,0.62417
6322.43,0.62486
6316.64,0.62235
6310.85,0.62405
6305.07,0.62814
6299.28,0.62916
6293.5,0.62935
6287.71,0.62766
6281.92,0.62851
6276.14,0.62985
6270.35,0.63341
6264.56,0.63544
6258.78,0.63258
6252.99,0.63614
6247.21,0.64100
6241.42,0.63882
6235.63,0.64559
6229.85,0.64731
6224.06,0.64811
6218.27,0.64624
6212.49,0.64859
6206.7,0.65228
6200.92,0.65723
6195.13,0.65659
6189.34,0.66168
6183.56,0.65801
6177.77,0.65758
6171.98,0.66038
6166.2,0.66294
6160.41,0.66703
6154.63,0.66773
6148.84,0.66831
6143.05,0.67033
6137.27,0.67259
6131.48,0.67300
6125.7,0.67348
6119.91,0.67700
6114.12,0.67408
6108.34,0.67287
6102.55,0.67485
6096.76,0.67437
6090.98,0.67450
6085.19,0.67694
6079.41,0.67443
6073.62,0.68013
6067.83,0.67746
6062.05,0.67671
6056.26,0.67425
6050.47,0.67556
6044.69,0.67370
6038.9,0.66763
6033.12,0.66898
6027.33,0.66621
6021.54,0.66403
6015.76,0.66555
6009.97,0.66242
6004.18,0.65977
5998.4,0.65759
5992.61,0.65644
5986.83,0.65640
5981.04,0.65653
5975.25,0.65461
5969.47,0.65741
5963.68,0.65638
5957.89,0.65738
5952.11,0.65367
5946.32,0.65669
5940.54,0.65951
5934.75,0.65895
5928.96,0.65904
5923.18,0.65973
5917.39,0.66088
5911.6,0.65675
5905.82,0.65529
5900.03,0.65321
5894.25,0.65171
5888.46,0.65146
5882.67,0.65334
5876.89,0.65102
5871.1,0.65174
5865.31,0.65052
5859.53,0.65386
5853.74,0.65340
5847.96,0.65275
5842.17,0.65248
5836.38,0.65107
5830.6,0.65277
5824.81,0.64930
5819.02,0.65116
5813.24,0.64760
5807.45,0.64750
5801.67,0.64770
5795.88,0.64741
5790.09,0.64622
5784.31,0.64583
5778.52,0.64766
5772.73,0.64658
5766.95,0.64970
5761.16,0.65010
5755.38,0.65089
5749.59,0.65090
5743.8,0.64929
5738.02,0.64978
5732.23,0.64943
5726.44,0.65007
5720.66,0.64956
5714.87,0.64819
5709.09,0.64837
5703.3,0.64734
5697.51,0.64770
5691.73,0.64557
5685.94,0.64432
5680.15,0.64719
5674.37,0.64523
5668.58,0.64453
5662.8,0.64466
5657.01,0.64432
5651.22,0.64359
5645.44,0.64845
5639.65,0.64330
5633.87,0.64563
5628.08,0.64500
5622.29,0.64537
5616.51,0.64409
5610.72,0.64323
5604.93,0.64456
5599.15,0.64632
5593.36,0.64503
5587.58,0.64311
5581.79,0.64422
5576,0.64576
5570.22,0.64680
5564.43,0.64542
5558.64,0.64666
5552.86,0.64594
5547.07,0.64868
5541.29,0.64809
5535.5,0.65267
5529.71,0.65032
5523.93,0.65056
5518.14,0.65155
5512.35,0.64988
5506.57,0.65233
5500.78,0.65210
5495,0.65099
5489.21,0.65036
5483.42,0.65344
5477.64,0.65422
5471.85,0.65375
5466.06,0.65311
5460.28,0.65501
5454.49,0.65646
5448.71,0.65739
5442.92,0.65904
5437.13,0.66051
5431.35,0.66231
5425.56,0.66274
5419.77,0.66357
5413.99,0.66557
5408.2,0.66726
5402.42,0.66698
5396.63,0.66759
5390.84,0.66808
5385.06,0.66673
5379.27,0.66965
5373.48,0.66687
5367.7,0.66783
5361.91,0.66614
5356.13,0.66521
5350.34,0.66638
5344.55,0.66523
5338.77,0.66079
5332.98,0.65929
5327.19,0.65736
5321.41,0.65240
5315.62,0.64602
5309.84,0.64054
5304.05,0.63322
5298.26,0.62630
5292.48,0.61692
5286.69,0.60633
5280.9,0.59586
5275.12,0.58393
5269.33,0.57184
5263.55,0.55853
5257.76,0.54457
5251.97,0.53305
5246.19,0.52379
5240.4,0.51233
5234.61,0.50580
5228.83,0.49779
5223.04,0.49207
5217.26,0.48620
5211.47,0.48365
5205.68,0.48046
5199.9,0.47729
5194.11,0.47744
5188.32,0.47801
5182.54,0.47669
5176.75,0.47852
5170.97,0.47953
5165.18,0.48186
5159.39,0.48415
5153.61,0.48691
5147.82,0.49147
5142.03,0.49265
5136.25,0.49684
5130.46,0.50107
5124.68,0.50396
5118.89,0.50773
5113.1,0.51091
5107.32,0.51342
5101.53,0.51711
5095.75,0.52060
5089.96,0.52441
5084.17,0.52688
5078.39,0.52990
5072.6,0.53380
5066.81,0.53645
5061.03,0.53955
5055.24,0.54381
5049.46,0.54598
5043.67,0.54966
5037.88,0.55242
5032.1,0.55422
5026.31,0.55605
5020.52,0.55850
5014.74,0.56069
5008.95,0.56206
5003.17,0.56223
4997.38,0.56383
4991.59,0.56340
4985.81,0.56263
4980.02,0.56076
4974.23,0.55908
4968.45,0.55785
4962.66,0.55573
4956.88,0.55196
4951.09,0.54834
4945.3,0.54445
4939.52,0.53810
4933.73,0.53504
4927.94,0.52970
4922.16,0.52569
4916.37,0.51958
4910.59,0.51418
4904.8,0.50888
4899.01,0.50312
4893.23,0.49858
4887.44,0.49259
4881.65,0.48793
4875.87,0.48238
4870.08,0.47765
4864.3,0.47200
4858.51,0.46843
4852.72,0.46436
4846.94,0.46013
4841.15,0.45779
4835.36,0.45221
4829.58,0.44949
4823.79,0.44715
4818.01,0.44292
4812.22,0.44030
4806.43,0.43854
4800.65,0.43622
4794.86,0.43549
4789.07,0.43447
4783.29,0.43199
4777.5,0.43171
4771.72,0.43108
4765.93,0.42970
4760.14,0.42922
4754.36,0.42836
4748.57,0.42942
4742.78,0.42925
4737,0.42972
4731.21,0.42939
4725.43,0.43089
4719.64,0.43108
4713.85,0.43254
4708.07,0.43324
4702.28,0.43408
4696.49,0.43454
4690.71,0.43505
4684.92,0.43613
4679.14,0.43714
4673.35,0.43819
4667.56,0.44118
4661.78,0.44396
4655.99,0.44534
4650.2,0.44939
4644.42,0.45058
4638.63,0.45282
4632.85,0.45520
4627.06,0.45823
4621.27,0.46081
4615.49,0.46503
4609.7,0.46897
4603.92,0.47176
4598.13,0.47528
4592.34,0.47760
4586.56,0.48072
4580.77,0.48363
4574.98,0.48514
4569.2,0.48760
4563.41,0.48912
4557.63,0.49091
4551.84,0.49272
4546.05,0.49446
4540.27,0.49593
4534.48,0.49786
4528.69,0.49815
4522.91,0.49934
4517.12,0.49940
4511.34,0.49960
4505.55,0.49805
4499.76,0.49676
4493.98,0.49476
4488.19,0.49146
4482.4,0.48737
4476.62,0.48282
4470.83,0.47617
4465.05,0.47087
4459.26,0.46400
4453.47,0.45722
4447.69,0.45035
4441.9,0.44190
4436.11,0.43570
4430.33,0.42764
4424.54,0.41919
4418.76,0.41149
4412.97,0.40449
4407.18,0.39832
4401.4,0.39687
4395.61,0.39632
4389.82,0.39608
4384.04,0.39945
4378.25,0.40244
4372.47,0.40499
4366.68,0.40776
4360.89,0.40997
4355.11,0.41086
4349.32,0.40985
4343.53,0.40965
4337.75,0.40791
4331.96,0.40709
4326.18,0.40524
4320.39,0.40183
4314.6,0.39979
4308.82,0.39703
4303.03,0.39406
4297.24,0.39128
4291.46,0.38916
4285.67,0.38745
4279.89,0.38648
4274.1,0.38657
4268.31,0.38761
4262.53,0.38909
4256.74,0.39022
4250.95,0.39099
4245.17,0.39205
4239.38,0.39273
4233.6,0.39359
4227.81,0.39334
4222.02,0.39291
4216.24,0.39201
4210.45,0.39279
4204.66,0.39218
4198.88,0.39306
4193.09,0.39389
4187.31,0.39385
4181.52,0.39467
4175.73,0.39602
4169.95,0.39790
4164.16,0.39853
4158.37,0.39825
4152.59,0.39716
4146.8,0.39537
4141.02,0.39370
4135.23,0.38996
4129.44,0.38648
4123.66,0.38349
4117.87,0.37862
4112.09,0.37410
4106.3,0.36901
4100.51,0.36392
4094.73,0.35841
4088.94,0.35276
4083.15,0.34635
4077.37,0.34042
4071.58,0.33586
4065.8,0.32934
4060.01,0.32412
4054.22,0.31853
4048.44,0.31398
4042.65,0.31016
4036.86,0.30604
4031.08,0.30254
4025.29,0.30103
4019.51,0.29945
4013.72,0.29780
4007.93,0.29824
4002.15,0.29919
3996.36,0.30027
3990.57,0.30209
3984.79,0.30337
3979,0.30517
3973.22,0.30617
3967.43,0.30863
3961.64,0.31153
3955.86,0.31364
3950.07,0.31623
3944.28,0.31931
3938.5,0.32200
3932.71,0.32415
3926.93,0.32832
3921.14,0.33059
3915.35,0.33259
3909.57,0.33519
3903.78,0.33846
3897.99,0.34035
3892.21,0.34215
3886.42,0.34389
3880.64,0.34579
3874.85,0.34823
3869.06,0.35022
3863.28,0.35243
3857.49,0.35461
3851.7,0.35803
3845.92,0.35941
3840.13,0.36243
3834.35,0.36288
3828.56,0.36273
3822.77,0.36285
3816.99,0.36327
3811.2,0.36210
3805.41,0.36300
3799.63,0.36174
3793.84,0.36087
3788.06,0.35995
3782.27,0.35946
3776.48,0.35877
3770.7,0.35663
3764.91,0.35492
3759.12,0.35364
3753.34,0.35116
3747.55,0.34762
3741.77,0.34436
3735.98,0.34091
3730.19,0.33523
3724.41,0.33014
3718.62,0.32393
3712.83,0.31755
3707.05,0.30925
3701.26,0.29937
3695.48,0.28768
3689.69,0.27518
3683.9,0.25896
3678.12,0.24210
3672.33,0.22321
3666.54,0.20405
3660.76,0.18740
3654.97,0.17150
3649.19,0.15868
3643.4,0.14588
3637.61,0.13590
3631.83,0.12680
3626.04,0.11787
3620.25,0.11142
3614.47,0.10399
3608.68,0.09773
3602.9,0.09204
3597.11,0.08668
3591.32,0.08172
3585.54,0.07731
3579.75,0.07470
3573.97,0.07136
3568.18,0.06872
3562.39,0.06581
3556.61,0.06365
3550.82,0.06184
3545.03,0.05917
3539.25,0.05809
3533.46,0.05648
3527.68,0.05533
3521.89,0.05408
3516.1,0.05258
3510.32,0.05177
3504.53,0.05084
3498.74,0.04984
3492.96,0.04879
3487.17,0.04806
3481.39,0.04724
3475.6,0.04667
3469.81,0.04603
3464.03,0.04580
3458.24,0.04546
3452.45,0.04521
3446.67,0.04502
3440.88,0.04477
3435.1,0.04464
3429.31,0.04434
3423.52,0.04514
3417.74,0.04489
3411.95,0.04482
3406.16,0.04576
3400.38,0.04500
3394.59,0.04577
3388.81,0.04616
3383.02,0.04614
3377.23,0.04650
3371.45,0.04721
3365.66,0.04688
3359.87,0.04684
3354.09,0.04772
3348.3,0.04801
3342.52,0.04892
3336.73,0.05035
3330.94,0.05131
3325.16,0.05193
3319.37,0.05252
3313.58,0.05295
3307.8,0.05346
3302.01,0.05444
3296.23,0.05450
3290.44,0.05530
3284.65,0.05641
3278.87,0.05726
3273.08,0.05764
3267.29,0.05853
3261.51,0.06000
3255.72,0.06193
3249.94,0.06266
3244.15,0.06362
3238.36,0.06482
3232.58,0.06655
3226.79,0.06756
3221,0.06920
3215.22,0.07123
3209.43,0.07258
3203.65,0.07471
3197.86,0.07518
3192.07,0.07701
3186.29,0.07888
3180.5,0.07984
3174.71,0.08165
3168.93,0.08313
3163.14,0.08577
3157.36,0.08742
3151.57,0.08906
3145.78,0.09081
3140,0.09210
3134.21,0.09425
3128.42,0.09616
3122.64,0.09828
3116.85,0.09998
3111.07,0.10200
3105.28,0.10371
3099.49,0.10519
3093.71,0.10705
3087.92,0.10884
3082.14,0.10901
3076.35,0.11133
3070.56,0.11293
3064.78,0.11421
3058.99,0.11620
3053.2,0.11762
3047.42,0.11939
3041.63,0.12001
3035.85,0.12122
3030.06,0.12132
3024.27,0.12231
3018.49,0.12146
3012.7,0.11967
3006.91,0.11756
3001.13,0.11564
2995.34,0.11346
2989.56,0.11084
2983.77,0.10575
2977.98,0.09970
2972.2,0.09184
2966.41,0.08709
2960.62,0.08455
2954.84,0.08161
2949.05,0.07823
2943.27,0.07548
2937.48,0.07404
2931.69,0.07386
2925.91,0.07386
2920.12,0.07298
2914.33,0.07259
2908.55,0.07340
2902.76,0.07318
2896.98,0.07450
2891.19,0.07605
2885.4,0.07713
2879.62,0.07868
2873.83,0.07996
2868.04,0.08190
2862.26,0.08401
2856.47,0.08601
2850.69,0.08877
2844.9,0.09308
2839.11,0.09750
2833.33,0.10290
2827.54,0.10915
2821.75,0.11537
2815.97,0.12054
2810.18,0.12573
2804.4,0.12902
2798.61,0.13264
2792.82,0.13525
2787.04,0.13729
2781.25,0.13909
2775.46,0.14041
2769.68,0.14134
2763.89,0.14197
2758.11,0.14278
2752.32,0.14367
2746.53,0.14377
2740.75,0.14391
2734.96,0.14442
2729.17,0.14587
2723.39,0.14700
2717.6,0.14859
2711.82,0.14985
2706.03,0.15198
2700.24,0.15485
2694.46,0.15693
2688.67,0.15911
2682.88,0.16122
2677.1,0.16325
2671.31,0.16485
2665.53,0.16589
2659.74,0.16700
2653.95,0.16864
2648.17,0.17023
2642.38,0.17128
2636.59,0.17343
2630.81,0.17520
2625.02,0.17713
2619.24,0.17882
2613.45,0.18006
2607.66,0.18182
2601.88,0.18320
2596.09,0.18493
2590.3,0.18639
2584.52,0.18773
2578.73,0.18863
2572.95,0.18970
2567.16,0.18984
2561.37,0.19015
2555.59,0.19117
2549.8,0.19156
2544.02,0.19163
2538.23,0.19232
2532.44,0.19391
2526.66,0.19554
2520.87,0.19728
2515.08,0.19930
2509.3,0.20101
2503.51,0.20350
2497.73,0.20684
2491.94,0.20907
2486.15,0.21128
2480.37,0.21378
2474.58,0.21584
2468.79,0.21789
2463.01,0.22016
2457.22,0.22215
2451.44,0.22489
2445.65,0.22714
2439.86,0.22982
2434.08,0.23237
2428.29,0.23519
2422.5,0.23831
2416.72,0.24146
2410.93,0.24414
2405.15,0.24677
2399.36,0.24950
2393.57,0.25203
2387.79,0.25485
2382,0.25748
2376.21,0.25957
2370.43,0.26176
2364.64,0.26379
2358.86,0.26549
2353.07,0.26696
2347.28,0.26781
2341.5,0.26909
2335.71,0.27065
2329.92,0.27161
2324.14,0.27228
2318.35,0.27280
2312.57,0.27313
2306.78,0.27300
2300.99,0.27213
2295.21,0.27130
2289.42,0.27121
2283.63,0.27086
2277.85,0.27026
2272.06,0.26848
2266.28,0.26675
2260.49,0.26492
2254.7,0.26335
2248.92,0.26261
2243.13,0.26229
2237.34,0.26112
2231.56,0.26002
2225.77,0.25973
2219.99,0.25918
2214.2,0.25868
2208.41,0.25787
2202.63,0.25618
2196.84,0.25433
2191.05,0.25165
2185.27,0.24890
2179.48,0.24534
2173.7,0.24179
2167.91,0.23893
2162.12,0.23654
2156.34,0.23448
2150.55,0.23329
2144.76,0.23185
2138.98,0.23077
2133.19,0.23091
2127.41,0.23148
2121.62,0.23202
2115.83,0.23268
2110.05,0.23369
2104.26,0.23421
2098.47,0.23515
2092.69,0.23570
2086.9,0.23577
2081.12,0.23524
2075.33,0.23374
2069.54,0.23292
2063.76,0.23231
2057.97,0.23204
2052.19,0.23240
2046.4,0.23320
2040.61,0.23561
2034.83,0.23784
2029.04,0.24077
2023.25,0.24382
2017.47,0.24710
2011.68,0.25015
2005.9,0.25228
2000.11,0.25341
1994.32,0.25544
1988.54,0.25747
1982.75,0.25888
1976.96,0.26024
1971.18,0.26142
1965.39,0.26322
1959.61,0.26630
1953.82,0.26841
1948.03,0.27156
1942.25,0.27464
1936.46,0.27698
1930.67,0.27869
1924.89,0.27969
1919.1,0.28056
1913.32,0.28062
1907.53,0.28007
1901.74,0.27979
1895.96,0.27934
1890.17,0.27841
1884.38,0.27780
1878.6,0.27770
1872.81,0.27730
1867.03,0.27707
1861.24,0.27674
1855.45,0.27558
1849.67,0.27412
1843.88,0.27232
1838.09,0.26975
1832.31,0.26754
1826.52,0.26456
1820.74,0.26039
1814.95,0.25581
1809.16,0.25044
1803.38,0.24489
1797.59,0.23841
1791.8,0.23038
1786.02,0.22020
1780.23,0.20710
1774.45,0.19192
1768.66,0.17008
1762.87,0.14684
1757.09,0.12314
1751.3,0.10649
1745.51,0.09582
1739.73,0.09000
1733.94,0.08939
1728.16,0.09211
1722.37,0.09727
1716.58,0.10475
1710.8,0.11140
1705.01,0.11689
1699.22,0.11984
1693.44,0.11702
1687.65,0.11306
1681.87,0.10580
1676.08,0.09770
1670.29,0.09018
1664.51,0.08552
1658.72,0.08253
1652.93,0.08227
1647.15,0.08179
1641.36,0.08016
1635.58,0.08111
1629.79,0.08215
1624,0.08267
1618.22,0.08162
1612.43,0.07979
1606.64,0.07874
1600.86,0.07901
1595.07,0.07972
1589.29,0.08233
1583.5,0.08905
1577.71,0.09996
1571.93,0.11412
1566.14,0.12561
1560.35,0.13168
1554.57,0.13370
1548.78,0.13259
1543,0.12933
1537.21,0.12093
1531.42,0.10726
1525.64,0.08903
1519.85,0.06853
1514.07,0.05825
1508.28,0.05900
1502.49,0.06550
1496.71,0.07304
1490.92,0.07779
1485.13,0.07675
1479.35,0.07243
1473.56,0.06562
1467.78,0.05867
1461.99,0.05779
1456.2,0.05725
1450.42,0.05745
1444.63,0.05925
1438.84,0.05840
1433.06,0.05494
1427.27,0.05499
1421.49,0.05722
1415.7,0.06025
1409.91,0.06241
1404.13,0.06306
1398.34,0.06310
1392.55,0.06048
1386.77,0.05628
1380.98,0.05314
1375.2,0.05244
1369.41,0.05397
1363.62,0.05578
1357.84,0.05713
1352.05,0.05827
1346.26,0.05791
1340.48,0.05676
1334.69,0.05645
1328.91,0.05597
1323.12,0.05496
1317.33,0.05562
1311.55,0.05663
1305.76,0.05741
1299.97,0.05734
1294.19,0.05625
1288.4,0.05352
1282.62,0.05076
1276.83,0.05042
1271.04,0.05012
1265.26,0.05097
1259.47,0.05250
1253.68,0.05398
1247.9,0.05398
1242.11,0.05443
1236.33,0.05363
1230.54,0.05367
1224.75,0.05441
1218.97,0.05460
1213.18,0.05426
1207.39,0.05420
1201.61,0.05476
1195.82,0.05491
1190.04,0.05299
1184.25,0.05019
1178.46,0.04734
1172.68,0.04498
1166.89,0.04806
1161.1,0.05174
1155.32,0.05118
1149.53,0.04945
1143.75,0.04707
1137.96,0.04413
1132.17,0.04169
1126.39,0.04216
1120.6,0.04384
1114.81,0.04569
1109.03,0.04918
1103.24,0.05042
1097.46,0.04939
1091.67,0.04901
1085.88,0.04876
1080.1,0.05264
1074.31,0.05806
1068.52,0.06434
1062.74,0.07301
1056.95,0.07892
1051.17,0.07753
1045.38,0.07404
1039.59,0.07521
1033.81,0.08200
1028.02,0.08437
1022.24,0.08588
1016.45,0.08634
1010.66,0.08863
1004.88,0.08951
999.09,0.09200
993.304,0.09467
987.518,0.09993
981.731,0.10795
975.945,0.11293
970.159,0.11357
964.373,0.11439
958.586,0.11774
952.8,0.12120
947.014,0.12333
941.228,0.12386
935.441,0.12614
929.655,0.12925
923.869,0.12995
918.083,0.12784
912.297,0.12189
906.51,0.11459
900.724,0.10890
894.938,0.10939
889.152,0.11419
883.365,0.11617
877.579,0.11573
871.793,0.11433
866.007,0.11275
860.22,0.11410
854.434,0.11634
848.648,0.12094
842.862,0.12189
837.075,0.11880
831.289,0.11495
825.503,0.11216
819.717,0.10560
813.931,0.10215
808.144,0.10092
802.358,0.10276
796.572,0.10455
790.786,0.10417
784.999,0.10163
779.213,0.09914
773.427,0.09649
767.641,0.09497
761.854,0.09305
756.068,0.09006
750.282,0.08941
744.496,0.08917
738.709,0.08934
732.923,0.08630
727.137,0.08415
721.351,0.08287
715.565,0.08227
709.778,0.08161
703.992,0.07847
698.206,0.07833
692.42,0.07648
686.633,0.07643
680.847,0.07416
675.061,0.07218
669.275,0.07280
663.488,0.07315
657.702,0.07622
651.916,0.07606
646.13,0.07413
640.343,0.07428
634.557,0.07320
628.771,0.07218
622.985,0.07150
617.198,0.07468
611.412,0.07558
605.626,0.07707
599.84,0.07652