File: 01_Data/Pine_Siding/FTIR/IS/Pine_Siding_IS_S_220916_R4.dpt
7497.03,0.83663
7491.25,0.83839
7485.46,0.82643
7479.67,0.81540
7473.89,0.82476
7468.1,0.82788
7462.32,0.82284
7456.53,0.82035
7450.74,0.81895
7444.96,0.81985
7439.17,0.81217
7433.38,0.81280
7427.6,0.80744
7421.81,0.80334
7416.03,0.80981
7410.24,0.79298
7404.45,0.79546
7398.67,0.80268
7392.88,0.80025
7387.09,0.78638
7381.31,0.78670
7375.52,0.79197
7369.74,0.79138
7363.95,0.77628
7358.16,0.77901
7352.38,0.77984
7346.59,0.77980
7340.8,0.77602
7335.02,0.77515
7329.23,0.77731
7323.45,0.77552
7317.66,0.77641
7311.87,0.77852
7306.09,0.76891
7300.3,0.77773
7294.51,0.77902
7288.73,0.76724
7282.94,0.76668
7277.16,0.76524
7271.37,0.76826
7265.58,0.76196
7259.8,0.77021
7254.01,0.75979
7248.22,0.76464
7242.44,0.76157
7236.65,0.76198
7230.87,0.76665
7225.08,0.75969
7219.29,0.75620
7213.51,0.76149
7207.72,0.75965
7201.93,0.75133
7196.15,0.75536
7190.36,0.75756
7184.58,0.74729
7178.79,0.75019
7173,0.75162
7167.22,0.74293
7161.43,0.74172
7155.65,0.74216
7149.86,0.73417
7144.07,0.72839
7138.29,0.72054
7132.5,0.71890
7126.71,0.71811
7120.93,0.71530
7115.14,0.71303
7109.36,0.70306
7103.57,0.70102
7097.78,0.69606
7092,0.69198
7086.21,0.69186
7080.42,0.67985
7074.64,0.67596
7068.85,0.66730
7063.07,0.66645
7057.28,0.65787
7051.49,0.64967
7045.71,0.64102
7039.92,0.63676
7034.13,0.63568
7028.35,0.62906
7022.56,0.62647
7016.78,0.61666
7010.99,0.61681
7005.2,0.60898
6999.42,0.60630
6993.63,0.60831
6987.84,0.60423
6982.06,0.59951
6976.27,0.59779
6970.49,0.59332
6964.7,0.59594
6958.91,0.59414
6953.13,0.59233
6947.34,0.59036
6941.55,0.59157
6935.77,0.58955
6929.98,0.58202
6924.2,0.58757
6918.41,0.58491
6912.62,0.58491
6906.84,0.58374
6901.05,0.58275
6895.26,0.58308
6889.48,0.57883
6883.69,0.58377
6877.91,0.57877
6872.12,0.58252
6866.33,0.58511
6860.55,0.58561
6854.76,0.57998
6848.97,0.58789
6843.19,0.58297
6837.4,0.58508
6831.62,0.58613
6825.83,0.58145
6820.04,0.58093
6814.26,0.58384
6808.47,0.58728
6802.68,0.58393
6796.9,0.58252
6791.11,0.58141
6785.33,0.58379
6779.54,0.58514
6773.75,0.58100
6767.97,0.58353
6762.18,0.58372
6756.39,0.58523
6750.61,0.58465
6744.82,0.58602
6739.04,0.58978
6733.25,0.58740
6727.46,0.58760
6721.68,0.58565
6715.89,0.58991
6710.1,0.58563
6704.32,0.58722
6698.53,0.58706
6692.75,0.59084
6686.96,0.59204
6681.17,0.59133
6675.39,0.59298
6669.6,0.59325
6663.82,0.59454
6658.03,0.59496
6652.24,0.59450
6646.46,0.59611
6640.67,0.59553
6634.88,0.59782
6629.1,0.60521
6623.31,0.60070
6617.53,0.60063
6611.74,0.60352
6605.95,0.59965
6600.17,0.60284
6594.38,0.60216
6588.59,0.60658
6582.81,0.60694
6577.02,0.60608
6571.24,0.60936
6565.45,0.60925
6559.66,0.60915
6553.88,0.61098
6548.09,0.60912
6542.3,0.61195
6536.52,0.61327
6530.73,0.60995
6524.95,0.61270
6519.16,0.61689
6513.37,0.61156
6507.59,0.61429
6501.8,0.61077
6496.01,0.61074
6490.23,0.61747
6484.44,0.61334
6478.66,0.61762
6472.87,0.61853
6467.08,0.61676
6461.3,0.61620
6455.51,0.61464
6449.72,0.61614
6443.94,0.61453
6438.15,0.61859
6432.37,0.61965
6426.58,0.62299
6420.79,0.62174
6415.01,0.62004
6409.22,0.62236
6403.43,0.62078
6397.65,0.62081
6391.86,0.62468
6386.08,0.62322
6380.29,0.62750
6374.5,0.62592
6368.72,0.62555
6362.93,0.62667
6357.14,0.62640
6351.36,0.62963
6345.57,0.63364
6339.79,0.62511
6334,0.62795
6328.21,0.62537
6322.43,0.62977
6316.64,0.63112
6310.85,0.62951
6305.07,0.63087
6299.28,0.63299
6293.5,0.63084
6287.71,0.62974
6281.92,0.63153
6276.14,0.63622
6270.35,0.64052
6264.56,0.64295
6258.78,0.64647
6252.99,0.64574
6247.21,0.64650
6241.42,0.64355
6235.63,0.65023
6229.85,0.65148
6224.06,0.65243
6218.27,0.65342
6212.49,0.65546
6206.7,0.65533
6200.92,0.65674
6195.13,0.65941
6189.34,0.66299
6183.56,0.66605
6177.77,0.66493
6171.98,0.66854
6166.2,0.66843
6160.41,0.66943
6154.63,0.67281
6148.84,0.67320
6143.05,0.67220
6137.27,0.67429
6131.48,0.67701
6125.7,0.67687
6119.91,0.68214
6114.12,0.67811
6108.34,0.67987
6102.55,0.68200
6096.76,0.68328
6090.98,0.67980
6085.19,0.68199
6079.41,0.68246
6073.62,0.67925
6067.83,0.68070
6062.05,0.68140
6056.26,0.68206
6050.47,0.67926
6044.69,0.67716
6038.9,0.67604
6033.12,0.67431
6027.33,0.67311
6021.54,0.67079
6015.76,0.66852
6009.97,0.66701
6004.18,0.66623
5998.4,0.65823
5992.61,0.66426
5986.83,0.66044
5981.04,0.65980
5975.25,0.65745
5969.47,0.65914
5963.68,0.65786
5957.89,0.65965
5952.11,0.66030
5946.32,0.65997
5940.54,0.66102
5934.75,0.66165
5928.96,0.66347
5923.18,0.66082
5917.39,0.65948
5911.6,0.66029
5905.82,0.66047
5900.03,0.65895
5894.25,0.65524
5888.46,0.65471
5882.67,0.65615
5876.89,0.65338
5871.1,0.65445
5865.31,0.65515
5859.53,0.65319
5853.74,0.65307
5847.96,0.65470
5842.17,0.65431
5836.38,0.65431
5830.6,0.65506
5824.81,0.65291
5819.02,0.65209
5813.24,0.65111
5807.45,0.64960
5801.67,0.64942
5795.88,0.64906
5790.09,0.64996
5784.31,0.64851
5778.52,0.64796
5772.73,0.65167
5766.95,0.65064
5761.16,0.65026
5755.38,0.65318
5749.59,0.65445
5743.8,0.65125
5738.02,0.65239
5732.23,0.65220
5726.44,0.65144
5720.66,0.65314
5714.87,0.65172
5709.09,0.65406
5703.3,0.65230
5697.51,0.65317
5691.73,0.65101
5685.94,0.65043
5680.15,0.64916
5674.37,0.64941
5668.58,0.65051
5662.8,0.65025
5657.01,0.64763
5651.22,0.64953
5645.44,0.64918
5639.65,0.65034
5633.87,0.64740
5628.08,0.64748
5622.29,0.64953
5616.51,0.65018
5610.72,0.64843
5604.93,0.64816
5599.15,0.64929
5593.36,0.64953
5587.58,0.64930
5581.79,0.65044
5576,0.64892
5570.22,0.65097
5564.43,0.65244
5558.64,0.65333
5552.86,0.65371
5547.07,0.65426
5541.29,0.65462
5535.5,0.65349
5529.71,0.65478
5523.93,0.65499
5518.14,0.65486
5512.35,0.65525
5506.57,0.65533
5500.78,0.65521
5495,0.65525
5489.21,0.65819
5483.42,0.65895
5477.64,0.65864
5471.85,0.65895
5466.06,0.65853
5460.28,0.66014
5454.49,0.66122
5448.71,0.66183
5442.92,0.66427
5437.13,0.66480
5431.35,0.66509
5425.56,0.66723
5419.77,0.66867
5413.99,0.66822
5408.2,0.67021
5402.42,0.67246
5396.63,0.67081
5390.84,0.67210
5385.06,0.67350
5379.27,0.67242
5373.48,0.67190
5367.7,0.67302
5361.91,0.67123
5356.13,0.67207
5350.34,0.67241
5344.55,0.66952
5338.77,0.66778
5332.98,0.66621
5327.19,0.66442
5321.41,0.66022
5315.62,0.65611
5309.84,0.65161
5304.05,0.64461
5298.26,0.63832
5292.48,0.63063
5286.69,0.62129
5280.9,0.61170
5275.12,0.60124
5269.33,0.58789
5263.55,0.57485
5257.76,0.56362
5251.97,0.55239
5246.19,0.54260
5240.4,0.53571
5234.61,0.52869
5228.83,0.52246
5223.04,0.51644
5217.26,0.51180
5211.47,0.50881
5205.68,0.50563
5199.9,0.50486
5194.11,0.50312
5188.32,0.50329
5182.54,0.50328
5176.75,0.50479
5170.97,0.50548
5165.18,0.50766
5159.39,0.51022
5153.61,0.51341
5147.82,0.51554
5142.03,0.51885
5136.25,0.52207
5130.46,0.52456
5124.68,0.52833
5118.89,0.53161
5113.1,0.53539
5107.32,0.53813
5101.53,0.54128
5095.75,0.54334
5089.96,0.54689
5084.17,0.55101
5078.39,0.55327
5072.6,0.55637
5066.81,0.55869
5061.03,0.56187
5055.24,0.56331
5049.46,0.56534
5043.67,0.56847
5037.88,0.57159
5032.1,0.57215
5026.31,0.57440
5020.52,0.57574
5014.74,0.57694
5008.95,0.57709
5003.17,0.57844
4997.38,0.57890
4991.59,0.57848
4985.81,0.57663
4980.02,0.57461
4974.23,0.57174
4968.45,0.56982
4962.66,0.56564
4956.88,0.56265
4951.09,0.55695
4945.3,0.55248
4939.52,0.54848
4933.73,0.54213
4927.94,0.53566
4922.16,0.53021
4916.37,0.52403
4910.59,0.51910
4904.8,0.51334
4899.01,0.50725
4893.23,0.50198
4887.44,0.49681
4881.65,0.49182
4875.87,0.48582
4870.08,0.48023
4864.3,0.47696
4858.51,0.47159
4852.72,0.46737
4846.94,0.46263
4841.15,0.45843
4835.36,0.45507
4829.58,0.45143
4823.79,0.44790
4818.01,0.44623
4812.22,0.44278
4806.43,0.44020
4800.65,0.43848
4794.86,0.43772
4789.07,0.43647
4783.29,0.43453
4777.5,0.43398
4771.72,0.43385
4765.93,0.43284
4760.14,0.43237
4754.36,0.43243
4748.57,0.43184
4742.78,0.43118
4737,0.43200
4731.21,0.43231
4725.43,0.43294
4719.64,0.43410
4713.85,0.43473
4708.07,0.43498
4702.28,0.43653
4696.49,0.43765
4690.71,0.43844
4684.92,0.43840
4679.14,0.44017
4673.35,0.44236
4667.56,0.44419
4661.78,0.44636
4655.99,0.44842
4650.2,0.45131
4644.42,0.45477
4638.63,0.45613
4632.85,0.45783
4627.06,0.46160
4621.27,0.46451
4615.49,0.46827
4609.7,0.47210
4603.92,0.47571
4598.13,0.47840
4592.34,0.48043
4586.56,0.48452
4580.77,0.48729
4574.98,0.48903
4569.2,0.49094
4563.41,0.49260
4557.63,0.49468
4551.84,0.49620
4546.05,0.49772
4540.27,0.50001
4534.48,0.50045
4528.69,0.50180
4522.91,0.50244
4517.12,0.50349
4511.34,0.50302
4505.55,0.50233
4499.76,0.49931
4493.98,0.49861
4488.19,0.49513
4482.4,0.49106
4476.62,0.48650
4470.83,0.47980
4465.05,0.47371
4459.26,0.46779
4453.47,0.46010
4447.69,0.45311
4441.9,0.44520
4436.11,0.43778
4430.33,0.42972
4424.54,0.42119
4418.76,0.41367
4412.97,0.40723
4407.18,0.40229
4401.4,0.39930
4395.61,0.39865
4389.82,0.39958
4384.04,0.40104
4378.25,0.40365
4372.47,0.40687
4366.68,0.40966
4360.89,0.41186
4355.11,0.41238
4349.32,0.41244
4343.53,0.41150
4337.75,0.41079
4331.96,0.40956
4326.18,0.40676
4320.39,0.40426
4314.6,0.40103
4308.82,0.39909
4303.03,0.39643
4297.24,0.39449
4291.46,0.39215
4285.67,0.39076
4279.89,0.38937
4274.1,0.38880
4268.31,0.39023
4262.53,0.39105
4256.74,0.39335
4250.95,0.39489
4245.17,0.39529
4239.38,0.39582
4233.6,0.39648
4227.81,0.39706
4222.02,0.39622
4216.24,0.39615
4210.45,0.39664
4204.66,0.39670
4198.88,0.39700
4193.09,0.39669
4187.31,0.39720
4181.52,0.39843
4175.73,0.40042
4169.95,0.40211
4164.16,0.40244
4158.37,0.40300
4152.59,0.40145
4146.8,0.40053
4141.02,0.39784
4135.23,0.39520
4129.44,0.39226
4123.66,0.38749
4117.87,0.38382
4112.09,0.37863
4106.3,0.37411
4100.51,0.36891
4094.73,0.36354
4088.94,0.35679
4083.15,0.35051
4077.37,0.34485
4071.58,0.33944
4065.8,0.33316
4060.01,0.32805
4054.22,0.32284
4048.44,0.31724
4042.65,0.31363
4036.86,0.30928
4031.08,0.30606
4025.29,0.30492
4019.51,0.30282
4013.72,0.30166
4007.93,0.30232
4002.15,0.30302
3996.36,0.30461
3990.57,0.30634
3984.79,0.30751
3979,0.30907
3973.22,0.31088
3967.43,0.31355
3961.64,0.31507
3955.86,0.31831
3950.07,0.32158
3944.28,0.32394
3938.5,0.32712
3932.71,0.33032
3926.93,0.33296
3921.14,0.33551
3915.35,0.33849
3909.57,0.34155
3903.78,0.34404
3897.99,0.34529
3892.21,0.34790
3886.42,0.34997
3880.64,0.35189
3874.85,0.35348
3869.06,0.35564
3863.28,0.35874
3857.49,0.36184
3851.7,0.36511
3845.92,0.36651
3840.13,0.36899
3834.35,0.37013
3828.56,0.37028
3822.77,0.37134
3816.99,0.37149
3811.2,0.37097
3805.41,0.37087
3799.63,0.36985
3793.84,0.36999
3788.06,0.36985
3782.27,0.36891
3776.48,0.36806
3770.7,0.36678
3764.91,0.36577
3759.12,0.36402
3753.34,0.36251
3747.55,0.35978
3741.77,0.35639
3735.98,0.35380
3730.19,0.34832
3724.41,0.34405
3718.62,0.33802
3712.83,0.33269
3707.05,0.32472
3701.26,0.31568
3695.48,0.30468
3689.69,0.29296
3683.9,0.27802
3678.12,0.26185
3672.33,0.24355
3666.54,0.22475
3660.76,0.20683
3654.97,0.19168
3649.19,0.17797
3643.4,0.16442
3637.61,0.15299
3631.83,0.14319
3626.04,0.13290
3620.25,0.12443
3614.47,0.11609
3608.68,0.10841
3602.9,0.10107
3597.11,0.09414
3591.32,0.08900
3585.54,0.08377
3579.75,0.07988
3573.97,0.07579
3568.18,0.07297
3562.39,0.06855
3556.61,0.06622
3550.82,0.06409
3545.03,0.06246
3539.25,0.06000
3533.46,0.05806
3527.68,0.05669
3521.89,0.05520
3516.1,0.05377
3510.32,0.05307
3504.53,0.05193
3498.74,0.05008
3492.96,0.04953
3487.17,0.04813
3481.39,0.04786
3475.6,0.04744
3469.81,0.04748
3464.03,0.04630
3458.24,0.04632
3452.45,0.04625
3446.67,0.04626
3440.88,0.04581
3435.1,0.04563
3429.31,0.04555
3423.52,0.04548
3417.74,0.04635
3411.95,0.04562
3406.16,0.04682
3400.38,0.04598
3394.59,0.04640
3388.81,0.04652
3383.02,0.04662
3377.23,0.04717
3371.45,0.04709
3365.66,0.04649
3359.87,0.04738
3354.09,0.04823
3348.3,0.04889
3342.52,0.04961
3336.73,0.05046
3330.94,0.05253
3325.16,0.05213
3319.37,0.05354
3313.58,0.05420
3307.8,0.05467
3302.01,0.05488
3296.23,0.05546
3290.44,0.05622
3284.65,0.05686
3278.87,0.05804
3273.08,0.05928
3267.29,0.06111
3261.51,0.06202
3255.72,0.06294
3249.94,0.06401
3244.15,0.06539
3238.36,0.06712
3232.58,0.06840
3226.79,0.06917
3221,0.07180
3215.22,0.07311
3209.43,0.07434
3203.65,0.07664
3197.86,0.07811
3192.07,0.07969
3186.29,0.08195
3180.5,0.08380
3174.71,0.08515
3168.93,0.08731
3163.14,0.08970
3157.36,0.09217
3151.57,0.09459
3145.78,0.09654
3140,0.09795
3134.21,0.10049
3128.42,0.10240
3122.64,0.10459
3116.85,0.10591
3111.07,0.10799
3105.28,0.10980
3099.49,0.11136
3093.71,0.11360
3087.92,0.11440
3082.14,0.11580
3076.35,0.11709
3070.56,0.11909
3064.78,0.12066
3058.99,0.12225
3053.2,0.12351
3047.42,0.12502
3041.63,0.12672
3035.85,0.12730
3030.06,0.12742
3024.27,0.12741
3018.49,0.12659
3012.7,0.12473
3006.91,0.12193
3001.13,0.11953
2995.34,0.11715
2989.56,0.11438
2983.77,0.10868
2977.98,0.10152
2972.2,0.09367
2966.41,0.08880
2960.62,0.08501
2954.84,0.08181
2949.05,0.07840
2943.27,0.07541
2937.48,0.07429
2931.69,0.07392
2925.91,0.07399
2920.12,0.07332
2914.33,0.07387
2908.55,0.07394
2902.76,0.07392
2896.98,0.07522
2891.19,0.07651
2885.4,0.07792
2879.62,0.07937
2873.83,0.08072
2868.04,0.08242
2862.26,0.08446
2856.47,0.08692
2850.69,0.08964
2844.9,0.09389
2839.11,0.09878
2833.33,0.10438
2827.54,0.11110
2821.75,0.11722
2815.97,0.12287
2810.18,0.12803
2804.4,0.13190
2798.61,0.13489
2792.82,0.13824
2787.04,0.14024
2781.25,0.14194
2775.46,0.14310
2769.68,0.14434
2763.89,0.14525
2758.11,0.14590
2752.32,0.14647
2746.53,0.14697
2740.75,0.14705
2734.96,0.14746
2729.17,0.14884
2723.39,0.15029
2717.6,0.15133
2711.82,0.15389
2706.03,0.15578
2700.24,0.15834
2694.46,0.16033
2688.67,0.16205
2682.88,0.16471
2677.1,0.16660
2671.31,0.16820
2665.53,0.16940
2659.74,0.17062
2653.95,0.17135
2648.17,0.17304
2642.38,0.17537
2636.59,0.17661
2630.81,0.17852
2625.02,0.18067
2619.24,0.18191
2613.45,0.18358
2607.66,0.18468
2601.88,0.18660
2596.09,0.18789
2590.3,0.18963
2584.52,0.19061
2578.73,0.19199
2572.95,0.19288
2567.16,0.19320
2561.37,0.19393
2555.59,0.19405
2549.8,0.19464
2544.02,0.19486
2538.23,0.19577
2532.44,0.19727
2526.66,0.19896
2520.87,0.20042
2515.08,0.20245
2509.3,0.20404
2503.51,0.20696
2497.73,0.21012
2491.94,0.21269
2486.15,0.21465
2480.37,0.21697
2474.58,0.21963
2468.79,0.22151
2463.01,0.22390
2457.22,0.22603
2451.44,0.22851
2445.65,0.23081
2439.86,0.23341
2434.08,0.23596
2428.29,0.23918
2422.5,0.24187
2416.72,0.24496
2410.93,0.24814
2405.15,0.25144
2399.36,0.25422
2393.57,0.25717
2387.79,0.25948
2382,0.26193
2376.21,0.26507
2370.43,0.26724
2364.64,0.26917
2358.86,0.27094
2353.07,0.27248
2347.28,0.27405
2341.5,0.27596
2335.71,0.27722
2329.92,0.27792
2324.14,0.27860
2318.35,0.27960
2312.57,0.27997
2306.78,0.27967
2300.99,0.27901
2295.21,0.27887
2289.42,0.27833
2283.63,0.27779
2277.85,0.27752
2272.06,0.27571
2266.28,0.27446
2260.49,0.27283
2254.7,0.27163
2248.92,0.27104
2243.13,0.27002
2237.34,0.26952
2231.56,0.26861
2225.77,0.26787
2219.99,0.26782
2214.2,0.26765
2208.41,0.26703
2202.63,0.26566
2196.84,0.26369
2191.05,0.26124
2185.27,0.25763
2179.48,0.25433
2173.7,0.25100
2167.91,0.24831
2162.12,0.24548
2156.34,0.24380
2150.55,0.24220
2144.76,0.24089
2138.98,0.23991
2133.19,0.23947
2127.41,0.24050
2121.62,0.24077
2115.83,0.24218
2110.05,0.24285
2104.26,0.24386
2098.47,0.24436
2092.69,0.24497
2086.9,0.24552
2081.12,0.24464
2075.33,0.24338
2069.54,0.24195
2063.76,0.24113
2057.97,0.24041
2052.19,0.24053
2046.4,0.24194
2040.61,0.24415
2034.83,0.24659
2029.04,0.24955
2023.25,0.25322
2017.47,0.25657
2011.68,0.25898
2005.9,0.26110
2000.11,0.26301
1994.32,0.26512
1988.54,0.26640
1982.75,0.26766
1976.96,0.26927
1971.18,0.27047
1965.39,0.27258
1959.61,0.27481
1953.82,0.27760
1948.03,0.28073
1942.25,0.28408
1936.46,0.28628
1930.67,0.28841
1924.89,0.28938
1919.1,0.28997
1913.32,0.28979
1907.53,0.28936
1901.74,0.28841
1895.96,0.28755
1890.17,0.28695
1884.38,0.28656
1878.6,0.28600
1872.81,0.28599
1867.03,0.28573
1861.24,0.28476
1855.45,0.28401
1849.67,0.28212
1843.88,0.28050
1838.09,0.27774
1832.31,0.27528
1826.52,0.27210
1820.74,0.26810
1814.95,0.26315
1809.16,0.25804
1803.38,0.25168
1797.59,0.24476
1791.8,0.23593
1786.02,0.22498
1780.23,0.21137
1774.45,0.19442
1768.66,0.17121
1762.87,0.14660
1757.09,0.12321
1751.3,0.10660
1745.51,0.09645
1739.73,0.09111
1733.94,0.09052
1728.16,0.09400
1722.37,0.09960
1716.58,0.10720
1710.8,0.11523
1705.01,0.12128
1699.22,0.12449
1693.44,0.12296
1687.65,0.11892
1681.87,0.11130
1676.08,0.10349
1670.29,0.09561
1664.51,0.09019
1658.72,0.08757
1652.93,0.08756
1647.15,0.08731
1641.36,0.08531
1635.58,0.08585
1629.79,0.08692
1624,0.08703
1618.22,0.08516
1612.43,0.08290
1606.64,0.08066
1600.86,0.08071
1595.07,0.08145
1589.29,0.08402
1583.5,0.09061
1577.71,0.10223
1571.93,0.11740
1566.14,0.12932
1560.35,0.13579
1554.57,0.13814
1548.78,0.13701
1543,0.13395
1537.21,0.12466
1531.42,0.11011
1525.64,0.09078
1519.85,0.06943
1514.07,0.05883
1508.28,0.05974
1502.49,0.06575
1496.71,0.07361
1490.92,0.07848
1485.13,0.07731
1479.35,0.07350
1473.56,0.06634
1467.78,0.05958
1461.99,0.05817
1456.2,0.05805
1450.42,0.05794
1444.63,0.05972
1438.84,0.05864
1433.06,0.05569
1427.27,0.05497
1421.49,0.05765
1415.7,0.06073
1409.91,0.06294
1404.13,0.06353
1398.34,0.06290
1392.55,0.06094
1386.77,0.05708
1380.98,0.05349
1375.2,0.05297
1369.41,0.05411
1363.62,0.05604
1357.84,0.05784
1352.05,0.05879
1346.26,0.05835
1340.48,0.05711
1334.69,0.05649
1328.91,0.05659
1323.12,0.05548
1317.33,0.05582
1311.55,0.05704
1305.76,0.05800
1299.97,0.05750
1294.19,0.05599
1288.4,0.05353
1282.62,0.05162
1276.83,0.05049
1271.04,0.05030
1265.26,0.05122
1259.47,0.05310
1253.68,0.05443
1247.9,0.05440
1242.11,0.05464
1236.33,0.05415
1230.54,0.05397
1224.75,0.05431
1218.97,0.05500
1213.18,0.05437
1207.39,0.05419
1201.61,0.05513
1195.82,0.05475
1190.04,0.05315
1184.25,0.05052
1178.46,0.04739
1172.68,0.04553
1166.89,0.04880
1161.1,0.05198
1155.32,0.05158
1149.53,0.05006
1143.75,0.04710
1137.96,0.04465
1132.17,0.04158
1126.39,0.04269
1120.6,0.04457
1114.81,0.04556
1109.03,0.04893
1103.24,0.05037
1097.46,0.04935
1091.67,0.04864
1085.88,0.04946
1080.1,0.05249
1074.31,0.05806
1068.52,0.06495
1062.74,0.07344
1056.95,0.07923
1051.17,0.07821
1045.38,0.07425
1039.59,0.07655
1033.81,0.08216
1028.02,0.08570
1022.24,0.08545
1016.45,0.08756
1010.66,0.08877
1004.88,0.08997
999.09,0.09250
993.304,0.09511
987.518,0.10029
981.731,0.10840
975.945,0.11346
970.159,0.11467
964.373,0.11544
958.586,0.11869
952.8,0.12249
947.014,0.12430
941.228,0.12639
935.441,0.12841
929.655,0.13144
923.869,0.13214
918.083,0.12957
912.297,0.12473
906.51,0.11761
900.724,0.11131
894.938,0.11144
889.152,0.11519
883.365,0.11818
877.579,0.11838
871.793,0.11743
866.007,0.11655
860.22,0.11771
854.434,0.12010
848.648,0.12481
842.862,0.12633
837.075,0.12377
831.289,0.12042
825.503,0.11691
819.717,0.11077
813.931,0.10573
808.144,0.10510
802.358,0.10798
796.572,0.10938
790.786,0.10944
784.999,0.10750
779.213,0.10481
773.427,0.10147
767.641,0.09922
761.854,0.09848
756.068,0.09631
750.282,0.09418
744.496,0.09327
738.709,0.09335
732.923,0.09171
727.137,0.08889
721.351,0.08790
715.565,0.08457
709.778,0.08433
703.992,0.08317
698.206,0.08051
692.42,0.08038
686.633,0.07919
680.847,0.07623
675.061,0.07359
669.275,0.07475
663.488,0.07713
657.702,0.07668
651.916,0.07843
646.13,0.07687
640.343,0.07639
634.557,0.07502
628.771,0.07335
622.985,0.07243
617.198,0.07489
611.412,0.07680
605.626,0.08078
599.84,0.07971