File: 01_Data/Pine_Siding/FTIR/IS/Pine_Siding_IS_S_220916_R2.dpt
7497.03,0.83438
7491.25,0.82626
7485.46,0.82636
7479.67,0.83771
7473.89,0.82784
7468.1,0.83058
7462.32,0.82474
7456.53,0.82618
7450.74,0.82108
7444.96,0.81254
7439.17,0.80510
7433.38,0.80099
7427.6,0.80830
7421.81,0.80469
7416.03,0.81240
7410.24,0.79268
7404.45,0.79816
7398.67,0.78451
7392.88,0.80075
7387.09,0.79250
7381.31,0.79138
7375.52,0.78906
7369.74,0.78216
7363.95,0.77850
7358.16,0.78147
7352.38,0.78112
7346.59,0.77694
7340.8,0.77930
7335.02,0.77975
7329.23,0.77595
7323.45,0.76556
7317.66,0.77138
7311.87,0.77692
7306.09,0.77011
7300.3,0.77529
7294.51,0.77369
7288.73,0.76449
7282.94,0.76208
7277.16,0.77203
7271.37,0.77078
7265.58,0.77198
7259.8,0.77198
7254.01,0.76828
7248.22,0.76552
7242.44,0.76609
7236.65,0.76943
7230.87,0.76415
7225.08,0.76267
7219.29,0.76062
7213.51,0.75489
7207.72,0.75257
7201.93,0.75318
7196.15,0.75036
7190.36,0.74992
7184.58,0.74922
7178.79,0.74741
7173,0.74706
7167.22,0.73873
7161.43,0.73523
7155.65,0.72758
7149.86,0.72910
7144.07,0.72631
7138.29,0.73105
7132.5,0.72158
7126.71,0.71143
7120.93,0.71095
7115.14,0.69586
7109.36,0.70563
7103.57,0.69334
7097.78,0.70158
7092,0.68776
7086.21,0.68498
7080.42,0.67635
7074.64,0.66862
7068.85,0.66280
7063.07,0.65538
7057.28,0.64771
7051.49,0.64203
7045.71,0.64345
7039.92,0.63731
7034.13,0.63410
7028.35,0.62396
7022.56,0.62298
7016.78,0.61222
7010.99,0.61184
7005.2,0.60436
6999.42,0.60680
6993.63,0.60792
6987.84,0.59883
6982.06,0.59539
6976.27,0.59962
6970.49,0.59254
6964.7,0.59327
6958.91,0.59768
6953.13,0.59199
6947.34,0.58944
6941.55,0.58445
6935.77,0.58971
6929.98,0.58690
6924.2,0.58222
6918.41,0.58380
6912.62,0.58664
6906.84,0.57819
6901.05,0.58709
6895.26,0.58247
6889.48,0.58417
6883.69,0.58224
6877.91,0.58573
6872.12,0.58139
6866.33,0.58182
6860.55,0.58346
6854.76,0.58033
6848.97,0.58520
6843.19,0.58568
6837.4,0.58116
6831.62,0.58162
6825.83,0.58183
6820.04,0.58428
6814.26,0.58033
6808.47,0.57260
6802.68,0.57853
6796.9,0.58464
6791.11,0.58250
6785.33,0.58129
6779.54,0.58051
6773.75,0.57962
6767.97,0.58343
6762.18,0.57720
6756.39,0.58044
6750.61,0.58145
6744.82,0.58294
6739.04,0.58575
6733.25,0.58607
6727.46,0.58541
6721.68,0.58943
6715.89,0.58853
6710.1,0.58771
6704.32,0.58982
6698.53,0.58857
6692.75,0.58435
6686.96,0.58904
6681.17,0.58644
6675.39,0.59047
6669.6,0.59132
6663.82,0.59040
6658.03,0.59279
6652.24,0.59208
6646.46,0.59109
6640.67,0.59414
6634.88,0.59619
6629.1,0.59695
6623.31,0.59977
6617.53,0.60292
6611.74,0.60366
6605.95,0.60401
6600.17,0.60279
6594.38,0.60388
6588.59,0.60477
6582.81,0.60586
6577.02,0.60807
6571.24,0.60871
6565.45,0.60803
6559.66,0.61017
6553.88,0.61056
6548.09,0.61432
6542.3,0.61100
6536.52,0.61355
6530.73,0.61409
6524.95,0.60763
6519.16,0.61238
6513.37,0.61120
6507.59,0.61442
6501.8,0.61466
6496.01,0.61514
6490.23,0.61616
6484.44,0.61494
6478.66,0.61124
6472.87,0.61561
6467.08,0.61479
6461.3,0.61522
6455.51,0.61481
6449.72,0.61680
6443.94,0.61537
6438.15,0.61393
6432.37,0.61878
6426.58,0.61681
6420.79,0.61695
6415.01,0.61860
6409.22,0.62315
6403.43,0.62190
6397.65,0.61969
6391.86,0.61823
6386.08,0.62278
6380.29,0.62294
6374.5,0.62161
6368.72,0.62547
6362.93,0.62726
6357.14,0.62189
6351.36,0.62558
6345.57,0.62418
6339.79,0.62695
6334,0.62477
6328.21,0.62480
6322.43,0.62875
6316.64,0.62798
6310.85,0.63048
6305.07,0.62979
6299.28,0.62738
6293.5,0.63021
6287.71,0.63262
6281.92,0.63098
6276.14,0.63608
6270.35,0.63800
6264.56,0.63814
6258.78,0.63622
6252.99,0.64060
6247.21,0.64322
6241.42,0.64389
6235.63,0.64576
6229.85,0.64913
6224.06,0.65603
6218.27,0.65524
6212.49,0.65170
6206.7,0.65529
6200.92,0.66171
6195.13,0.65897
6189.34,0.66128
6183.56,0.66083
6177.77,0.66681
6171.98,0.66647
6166.2,0.66710
6160.41,0.67353
6154.63,0.67107
6148.84,0.67194
6143.05,0.67228
6137.27,0.67492
6131.48,0.67692
6125.7,0.67941
6119.91,0.67754
6114.12,0.67397
6108.34,0.68043
6102.55,0.68408
6096.76,0.68225
6090.98,0.68041
6085.19,0.68231
6079.41,0.68073
6073.62,0.68023
6067.83,0.67899
6062.05,0.67926
6056.26,0.67602
6050.47,0.67716
6044.69,0.67714
6038.9,0.67495
6033.12,0.67273
6027.33,0.67022
6021.54,0.67096
6015.76,0.66838
6009.97,0.66860
6004.18,0.66282
5998.4,0.65994
5992.61,0.65964
5986.83,0.65839
5981.04,0.65899
5975.25,0.65762
5969.47,0.65650
5963.68,0.65778
5957.89,0.65779
5952.11,0.65843
5946.32,0.66042
5940.54,0.66262
5934.75,0.66229
5928.96,0.66341
5923.18,0.66318
5917.39,0.66003
5911.6,0.65937
5905.82,0.65611
5900.03,0.65692
5894.25,0.65802
5888.46,0.65697
5882.67,0.65445
5876.89,0.65582
5871.1,0.65392
5865.31,0.65311
5859.53,0.65466
5853.74,0.66059
5847.96,0.65646
5842.17,0.65518
5836.38,0.65509
5830.6,0.65496
5824.81,0.65494
5819.02,0.65287
5813.24,0.65328
5807.45,0.65061
5801.67,0.65079
5795.88,0.65103
5790.09,0.64969
5784.31,0.65214
5778.52,0.65091
5772.73,0.65142
5766.95,0.65284
5761.16,0.65454
5755.38,0.65215
5749.59,0.65259
5743.8,0.65258
5738.02,0.65206
5732.23,0.65135
5726.44,0.65491
5720.66,0.65165
5714.87,0.64878
5709.09,0.65223
5703.3,0.65296
5697.51,0.65042
5691.73,0.65034
5685.94,0.65281
5680.15,0.64996
5674.37,0.64869
5668.58,0.64811
5662.8,0.64885
5657.01,0.64893
5651.22,0.64816
5645.44,0.64854
5639.65,0.65125
5633.87,0.64634
5628.08,0.64820
5622.29,0.64777
5616.51,0.64701
5610.72,0.64999
5604.93,0.64698
5599.15,0.64831
5593.36,0.64814
5587.58,0.64823
5581.79,0.64850
5576,0.64924
5570.22,0.64796
5564.43,0.65020
5558.64,0.65217
5552.86,0.65240
5547.07,0.65273
5541.29,0.65158
5535.5,0.65369
5529.71,0.65344
5523.93,0.65277
5518.14,0.65455
5512.35,0.65364
5506.57,0.65367
5500.78,0.65504
5495,0.65558
5489.21,0.65578
5483.42,0.65693
5477.64,0.65728
5471.85,0.65980
5466.06,0.66011
5460.28,0.66074
5454.49,0.66138
5448.71,0.66251
5442.92,0.66326
5437.13,0.66450
5431.35,0.66549
5425.56,0.66746
5419.77,0.66839
5413.99,0.67019
5408.2,0.66960
5402.42,0.67107
5396.63,0.67247
5390.84,0.67257
5385.06,0.67394
5379.27,0.67410
5373.48,0.67230
5367.7,0.67327
5361.91,0.67274
5356.13,0.67106
5350.34,0.67093
5344.55,0.66923
5338.77,0.66700
5332.98,0.66482
5327.19,0.66173
5321.41,0.65747
5315.62,0.65336
5309.84,0.64784
5304.05,0.64260
5298.26,0.63416
5292.48,0.62522
5286.69,0.61680
5280.9,0.60558
5275.12,0.59463
5269.33,0.58274
5263.55,0.56964
5257.76,0.55708
5251.97,0.54706
5246.19,0.53550
5240.4,0.52579
5234.61,0.51948
5228.83,0.51296
5223.04,0.50664
5217.26,0.50302
5211.47,0.49887
5205.68,0.49522
5199.9,0.49493
5194.11,0.49238
5188.32,0.49334
5182.54,0.49358
5176.75,0.49261
5170.97,0.49720
5165.18,0.49798
5159.39,0.50126
5153.61,0.50287
5147.82,0.50524
5142.03,0.50863
5136.25,0.51342
5130.46,0.51509
5124.68,0.51956
5118.89,0.52362
5113.1,0.52599
5107.32,0.52840
5101.53,0.53155
5095.75,0.53460
5089.96,0.53742
5084.17,0.54287
5078.39,0.54499
5072.6,0.54655
5066.81,0.55010
5061.03,0.55341
5055.24,0.55519
5049.46,0.55993
5043.67,0.56232
5037.88,0.56463
5032.1,0.56622
5026.31,0.56886
5020.52,0.57048
5014.74,0.57159
5008.95,0.57299
5003.17,0.57357
4997.38,0.57490
4991.59,0.57463
4985.81,0.57083
4980.02,0.56971
4974.23,0.56888
4968.45,0.56647
4962.66,0.56360
4956.88,0.55957
4951.09,0.55409
4945.3,0.55103
4939.52,0.54617
4933.73,0.53959
4927.94,0.53535
4922.16,0.52875
4916.37,0.52433
4910.59,0.51846
4904.8,0.51231
4899.01,0.50726
4893.23,0.50271
4887.44,0.49594
4881.65,0.49093
4875.87,0.48600
4870.08,0.48127
4864.3,0.47599
4858.51,0.47052
4852.72,0.46705
4846.94,0.46301
4841.15,0.45962
4835.36,0.45494
4829.58,0.45110
4823.79,0.44875
4818.01,0.44492
4812.22,0.44197
4806.43,0.44057
4800.65,0.43907
4794.86,0.43804
4789.07,0.43710
4783.29,0.43425
4777.5,0.43314
4771.72,0.43342
4765.93,0.43120
4760.14,0.43194
4754.36,0.43075
4748.57,0.43114
4742.78,0.43139
4737,0.43207
4731.21,0.43255
4725.43,0.43367
4719.64,0.43443
4713.85,0.43460
4708.07,0.43560
4702.28,0.43617
4696.49,0.43706
4690.71,0.43792
4684.92,0.43858
4679.14,0.44059
4673.35,0.44231
4667.56,0.44314
4661.78,0.44650
4655.99,0.44943
4650.2,0.45161
4644.42,0.45415
4638.63,0.45649
4632.85,0.45853
4627.06,0.46164
4621.27,0.46387
4615.49,0.46888
4609.7,0.47158
4603.92,0.47646
4598.13,0.47863
4592.34,0.48184
4586.56,0.48456
4580.77,0.48641
4574.98,0.48874
4569.2,0.49002
4563.41,0.49104
4557.63,0.49326
4551.84,0.49566
4546.05,0.49667
4540.27,0.49928
4534.48,0.50054
4528.69,0.50152
4522.91,0.50307
4517.12,0.50228
4511.34,0.50266
4505.55,0.50211
4499.76,0.50051
4493.98,0.49813
4488.19,0.49475
4482.4,0.49103
4476.62,0.48541
4470.83,0.47976
4465.05,0.47317
4459.26,0.46761
4453.47,0.46076
4447.69,0.45311
4441.9,0.44682
4436.11,0.43843
4430.33,0.43022
4424.54,0.42253
4418.76,0.41458
4412.97,0.40716
4407.18,0.40163
4401.4,0.39904
4395.61,0.39879
4389.82,0.39946
4384.04,0.40157
4378.25,0.40392
4372.47,0.40671
4366.68,0.41008
4360.89,0.41203
4355.11,0.41280
4349.32,0.41282
4343.53,0.41162
4337.75,0.41046
4331.96,0.40929
4326.18,0.40688
4320.39,0.40465
4314.6,0.40171
4308.82,0.39958
4303.03,0.39644
4297.24,0.39403
4291.46,0.39161
4285.67,0.39032
4279.89,0.38896
4274.1,0.38958
4268.31,0.39041
4262.53,0.39135
4256.74,0.39269
4250.95,0.39415
4245.17,0.39503
4239.38,0.39524
4233.6,0.39634
4227.81,0.39623
4222.02,0.39635
4216.24,0.39520
4210.45,0.39539
4204.66,0.39618
4198.88,0.39654
4193.09,0.39655
4187.31,0.39781
4181.52,0.39860
4175.73,0.39955
4169.95,0.40098
4164.16,0.40266
4158.37,0.40261
4152.59,0.40203
4146.8,0.39926
4141.02,0.39695
4135.23,0.39461
4129.44,0.39107
4123.66,0.38692
4117.87,0.38269
4112.09,0.37803
4106.3,0.37321
4100.51,0.36751
4094.73,0.36196
4088.94,0.35583
4083.15,0.35035
4077.37,0.34455
4071.58,0.33851
4065.8,0.33293
4060.01,0.32682
4054.22,0.32123
4048.44,0.31677
4042.65,0.31277
4036.86,0.30905
4031.08,0.30612
4025.29,0.30359
4019.51,0.30259
4013.72,0.30217
4007.93,0.30138
4002.15,0.30242
3996.36,0.30292
3990.57,0.30491
3984.79,0.30716
3979,0.30833
3973.22,0.31031
3967.43,0.31249
3961.64,0.31456
3955.86,0.31733
3950.07,0.32038
3944.28,0.32203
3938.5,0.32529
3932.71,0.32882
3926.93,0.33237
3921.14,0.33465
3915.35,0.33660
3909.57,0.33976
3903.78,0.34233
3897.99,0.34418
3892.21,0.34686
3886.42,0.34903
3880.64,0.35052
3874.85,0.35241
3869.06,0.35476
3863.28,0.35718
3857.49,0.35983
3851.7,0.36341
3845.92,0.36485
3840.13,0.36631
3834.35,0.36737
3828.56,0.36810
3822.77,0.36919
3816.99,0.36933
3811.2,0.36908
3805.41,0.36780
3799.63,0.36758
3793.84,0.36749
3788.06,0.36577
3782.27,0.36609
3776.48,0.36521
3770.7,0.36440
3764.91,0.36269
3759.12,0.36060
3753.34,0.35836
3747.55,0.35580
3741.77,0.35228
3735.98,0.34889
3730.19,0.34487
3724.41,0.33970
3718.62,0.33319
3712.83,0.32736
3707.05,0.31858
3701.26,0.31013
3695.48,0.29959
3689.69,0.28621
3683.9,0.27085
3678.12,0.25452
3672.33,0.23635
3666.54,0.21596
3660.76,0.19931
3654.97,0.18295
3649.19,0.16928
3643.4,0.15662
3637.61,0.14583
3631.83,0.13689
3626.04,0.12716
3620.25,0.11943
3614.47,0.11116
3608.68,0.10434
3602.9,0.09798
3597.11,0.09210
3591.32,0.08605
3585.54,0.08146
3579.75,0.07702
3573.97,0.07296
3568.18,0.07147
3562.39,0.06774
3556.61,0.06534
3550.82,0.06323
3545.03,0.06078
3539.25,0.05885
3533.46,0.05702
3527.68,0.05587
3521.89,0.05482
3516.1,0.05357
3510.32,0.05211
3504.53,0.05137
3498.74,0.05062
3492.96,0.04945
3487.17,0.04866
3481.39,0.04752
3475.6,0.04715
3469.81,0.04655
3464.03,0.04593
3458.24,0.04648
3452.45,0.04534
3446.67,0.04567
3440.88,0.04559
3435.1,0.04502
3429.31,0.04552
3423.52,0.04587
3417.74,0.04588
3411.95,0.04543
3406.16,0.04486
3400.38,0.04578
3394.59,0.04623
3388.81,0.04636
3383.02,0.04671
3377.23,0.04643
3371.45,0.04690
3365.66,0.04679
3359.87,0.04737
3354.09,0.04823
3348.3,0.04838
3342.52,0.04954
3336.73,0.05054
3330.94,0.05070
3325.16,0.05251
3319.37,0.05325
3313.58,0.05410
3307.8,0.05499
3302.01,0.05487
3296.23,0.05558
3290.44,0.05655
3284.65,0.05643
3278.87,0.05837
3273.08,0.05947
3267.29,0.06057
3261.51,0.06139
3255.72,0.06190
3249.94,0.06361
3244.15,0.06474
3238.36,0.06628
3232.58,0.06749
3226.79,0.06963
3221,0.07045
3215.22,0.07210
3209.43,0.07383
3203.65,0.07567
3197.86,0.07694
3192.07,0.07951
3186.29,0.08087
3180.5,0.08283
3174.71,0.08443
3168.93,0.08624
3163.14,0.08846
3157.36,0.09062
3151.57,0.09200
3145.78,0.09426
3140,0.09610
3134.21,0.09817
3128.42,0.09998
3122.64,0.10195
3116.85,0.10364
3111.07,0.10545
3105.28,0.10762
3099.49,0.10954
3093.71,0.11073
3087.92,0.11276
3082.14,0.11436
3076.35,0.11543
3070.56,0.11726
3064.78,0.11812
3058.99,0.12059
3053.2,0.12219
3047.42,0.12327
3041.63,0.12451
3035.85,0.12531
3030.06,0.12538
3024.27,0.12542
3018.49,0.12468
3012.7,0.12253
3006.91,0.12015
3001.13,0.11818
2995.34,0.11584
2989.56,0.11250
2983.77,0.10709
2977.98,0.10004
2972.2,0.09325
2966.41,0.08821
2960.62,0.08459
2954.84,0.08196
2949.05,0.07875
2943.27,0.07555
2937.48,0.07439
2931.69,0.07385
2925.91,0.07322
2920.12,0.07330
2914.33,0.07334
2908.55,0.07371
2902.76,0.07391
2896.98,0.07482
2891.19,0.07653
2885.4,0.07793
2879.62,0.07909
2873.83,0.08042
2868.04,0.08199
2862.26,0.08471
2856.47,0.08724
2850.69,0.08969
2844.9,0.09381
2839.11,0.09888
2833.33,0.10415
2827.54,0.11057
2821.75,0.11684
2815.97,0.12210
2810.18,0.12736
2804.4,0.13130
2798.61,0.13412
2792.82,0.13742
2787.04,0.13956
2781.25,0.14115
2775.46,0.14194
2769.68,0.14320
2763.89,0.14434
2758.11,0.14512
2752.32,0.14584
2746.53,0.14595
2740.75,0.14595
2734.96,0.14694
2729.17,0.14791
2723.39,0.14927
2717.6,0.15054
2711.82,0.15287
2706.03,0.15511
2700.24,0.15739
2694.46,0.15950
2688.67,0.16142
2682.88,0.16337
2677.1,0.16508
2671.31,0.16710
2665.53,0.16843
2659.74,0.16926
2653.95,0.17071
2648.17,0.17247
2642.38,0.17471
2636.59,0.17607
2630.81,0.17742
2625.02,0.17918
2619.24,0.18085
2613.45,0.18240
2607.66,0.18425
2601.88,0.18577
2596.09,0.18734
2590.3,0.18888
2584.52,0.19013
2578.73,0.19105
2572.95,0.19220
2567.16,0.19284
2561.37,0.19296
2555.59,0.19356
2549.8,0.19377
2544.02,0.19388
2538.23,0.19491
2532.44,0.19614
2526.66,0.19796
2520.87,0.20000
2515.08,0.20153
2509.3,0.20331
2503.51,0.20605
2497.73,0.20876
2491.94,0.21158
2486.15,0.21437
2480.37,0.21652
2474.58,0.21870
2468.79,0.22114
2463.01,0.22291
2457.22,0.22495
2451.44,0.22762
2445.65,0.22988
2439.86,0.23267
2434.08,0.23526
2428.29,0.23836
2422.5,0.24104
2416.72,0.24436
2410.93,0.24714
2405.15,0.25028
2399.36,0.25301
2393.57,0.25594
2387.79,0.25822
2382,0.26077
2376.21,0.26321
2370.43,0.26588
2364.64,0.26799
2358.86,0.26945
2353.07,0.27135
2347.28,0.27295
2341.5,0.27397
2335.71,0.27534
2329.92,0.27635
2324.14,0.27691
2318.35,0.27767
2312.57,0.27772
2306.78,0.27787
2300.99,0.27739
2295.21,0.27636
2289.42,0.27663
2283.63,0.27591
2277.85,0.27575
2272.06,0.27399
2266.28,0.27221
2260.49,0.27060
2254.7,0.26913
2248.92,0.26848
2243.13,0.26767
2237.34,0.26682
2231.56,0.26596
2225.77,0.26530
2219.99,0.26528
2214.2,0.26489
2208.41,0.26374
2202.63,0.26249
2196.84,0.26041
2191.05,0.25782
2185.27,0.25482
2179.48,0.25148
2173.7,0.24800
2167.91,0.24523
2162.12,0.24247
2156.34,0.24055
2150.55,0.23941
2144.76,0.23772
2138.98,0.23693
2133.19,0.23707
2127.41,0.23712
2121.62,0.23808
2115.83,0.23892
2110.05,0.23974
2104.26,0.24050
2098.47,0.24141
2092.69,0.24176
2086.9,0.24182
2081.12,0.24167
2075.33,0.24036
2069.54,0.23927
2063.76,0.23823
2057.97,0.23783
2052.19,0.23787
2046.4,0.23906
2040.61,0.24095
2034.83,0.24355
2029.04,0.24690
2023.25,0.25008
2017.47,0.25341
2011.68,0.25645
2005.9,0.25814
2000.11,0.25972
1994.32,0.26129
1988.54,0.26356
1982.75,0.26501
1976.96,0.26600
1971.18,0.26751
1965.39,0.26946
1959.61,0.27198
1953.82,0.27461
1948.03,0.27762
1942.25,0.28089
1936.46,0.28328
1930.67,0.28520
1924.89,0.28624
1919.1,0.28673
1913.32,0.28668
1907.53,0.28631
1901.74,0.28539
1895.96,0.28485
1890.17,0.28438
1884.38,0.28380
1878.6,0.28335
1872.81,0.28359
1867.03,0.28303
1861.24,0.28211
1855.45,0.28128
1849.67,0.27966
1843.88,0.27789
1838.09,0.27518
1832.31,0.27290
1826.52,0.26975
1820.74,0.26536
1814.95,0.26120
1809.16,0.25582
1803.38,0.24980
1797.59,0.24247
1791.8,0.23427
1786.02,0.22366
1780.23,0.21041
1774.45,0.19427
1768.66,0.17112
1762.87,0.14682
1757.09,0.12351
1751.3,0.10723
1745.51,0.09615
1739.73,0.09091
1733.94,0.09052
1728.16,0.09343
1722.37,0.09904
1716.58,0.10650
1710.8,0.11365
1705.01,0.12012
1699.22,0.12244
1693.44,0.12138
1687.65,0.11714
1681.87,0.10937
1676.08,0.10112
1670.29,0.09388
1664.51,0.08839
1658.72,0.08597
1652.93,0.08566
1647.15,0.08488
1641.36,0.08357
1635.58,0.08410
1629.79,0.08500
1624,0.08528
1618.22,0.08421
1612.43,0.08212
1606.64,0.08027
1600.86,0.08043
1595.07,0.08104
1589.29,0.08350
1583.5,0.09011
1577.71,0.10172
1571.93,0.11633
1566.14,0.12824
1560.35,0.13499
1554.57,0.13672
1548.78,0.13553
1543,0.13227
1537.21,0.12366
1531.42,0.10933
1525.64,0.09039
1519.85,0.06923
1514.07,0.05888
1508.28,0.05949
1502.49,0.06594
1496.71,0.07382
1490.92,0.07833
1485.13,0.07726
1479.35,0.07322
1473.56,0.06589
1467.78,0.05938
1461.99,0.05832
1456.2,0.05773
1450.42,0.05762
1444.63,0.05943
1438.84,0.05897
1433.06,0.05565
1427.27,0.05560
1421.49,0.05748
1415.7,0.06080
1409.91,0.06277
1404.13,0.06341
1398.34,0.06335
1392.55,0.06066
1386.77,0.05643
1380.98,0.05316
1375.2,0.05287
1369.41,0.05393
1363.62,0.05591
1357.84,0.05775
1352.05,0.05866
1346.26,0.05835
1340.48,0.05699
1334.69,0.05634
1328.91,0.05628
1323.12,0.05534
1317.33,0.05572
1311.55,0.05700
1305.76,0.05790
1299.97,0.05775
1294.19,0.05635
1288.4,0.05356
1282.62,0.05118
1276.83,0.05030
1271.04,0.05001
1265.26,0.05151
1259.47,0.05319
1253.68,0.05420
1247.9,0.05482
1242.11,0.05518
1236.33,0.05417
1230.54,0.05396
1224.75,0.05445
1218.97,0.05541
1213.18,0.05471
1207.39,0.05479
1201.61,0.05479
1195.82,0.05503
1190.04,0.05353
1184.25,0.05005
1178.46,0.04725
1172.68,0.04527
1166.89,0.04832
1161.1,0.05210
1155.32,0.05150
1149.53,0.04948
1143.75,0.04702
1137.96,0.04487
1132.17,0.04258
1126.39,0.04253
1120.6,0.04400
1114.81,0.04593
1109.03,0.04879
1103.24,0.04999
1097.46,0.04921
1091.67,0.04882
1085.88,0.04962
1080.1,0.05274
1074.31,0.05718
1068.52,0.06401
1062.74,0.07403
1056.95,0.07971
1051.17,0.07777
1045.38,0.07464
1039.59,0.07599
1033.81,0.08251
1028.02,0.08482
1022.24,0.08572
1016.45,0.08699
1010.66,0.08881
1004.88,0.09003
999.09,0.09292
993.304,0.09577
987.518,0.10001
981.731,0.10838
975.945,0.11355
970.159,0.11426
964.373,0.11479
958.586,0.11779
952.8,0.12215
947.014,0.12440
941.228,0.12525
935.441,0.12803
929.655,0.13053
923.869,0.13206
918.083,0.12999
912.297,0.12396
906.51,0.11660
900.724,0.11059
894.938,0.11054
889.152,0.11505
883.365,0.11714
877.579,0.11720
871.793,0.11613
866.007,0.11460
860.22,0.11605
854.434,0.11840
848.648,0.12306
842.862,0.12573
837.075,0.12262
831.289,0.11839
825.503,0.11391
819.717,0.10887
813.931,0.10378
808.144,0.10265
802.358,0.10568
796.572,0.10726
790.786,0.10709
784.999,0.10504
779.213,0.10198
773.427,0.09922
767.641,0.09794
761.854,0.09701
756.068,0.09508
750.282,0.09281
744.496,0.09225
738.709,0.09158
732.923,0.08995
727.137,0.08716
721.351,0.08520
715.565,0.08347
709.778,0.08247
703.992,0.08145
698.206,0.07948
692.42,0.07874
686.633,0.07753
680.847,0.07531
675.061,0.07291
669.275,0.07367
663.488,0.07453
657.702,0.07569
651.916,0.07711
646.13,0.07662
640.343,0.07485
634.557,0.07349
628.771,0.07112
622.985,0.06909
617.198,0.07282
611.412,0.07844
605.626,0.07953
599.84,0.07832