File: 01_Data/Pine_Siding/FTIR/IS/Pine_Siding_IS_S_220916_R5.dpt
7497.03,0.83468
7491.25,0.84099
7485.46,0.82903
7479.67,0.83556
7473.89,0.82978
7468.1,0.83227
7462.32,0.82026
7456.53,0.81916
7450.74,0.82281
7444.96,0.81790
7439.17,0.81285
7433.38,0.80891
7427.6,0.80918
7421.81,0.80301
7416.03,0.80363
7410.24,0.80552
7404.45,0.79845
7398.67,0.78740
7392.88,0.78557
7387.09,0.79682
7381.31,0.78994
7375.52,0.78599
7369.74,0.77979
7363.95,0.78324
7358.16,0.78154
7352.38,0.79019
7346.59,0.77847
7340.8,0.78046
7335.02,0.77398
7329.23,0.77624
7323.45,0.77020
7317.66,0.76492
7311.87,0.77331
7306.09,0.76522
7300.3,0.77272
7294.51,0.76688
7288.73,0.76498
7282.94,0.76369
7277.16,0.75946
7271.37,0.76842
7265.58,0.76212
7259.8,0.78057
7254.01,0.76686
7248.22,0.76391
7242.44,0.76290
7236.65,0.76836
7230.87,0.76068
7225.08,0.76622
7219.29,0.76638
7213.51,0.76264
7207.72,0.75468
7201.93,0.76043
7196.15,0.76399
7190.36,0.75813
7184.58,0.75275
7178.79,0.74823
7173,0.74536
7167.22,0.74422
7161.43,0.74649
7155.65,0.74652
7149.86,0.73627
7144.07,0.73223
7138.29,0.73347
7132.5,0.73021
7126.71,0.71996
7120.93,0.71303
7115.14,0.71673
7109.36,0.70592
7103.57,0.70300
7097.78,0.69759
7092,0.68784
7086.21,0.68267
7080.42,0.68053
7074.64,0.68041
7068.85,0.67094
7063.07,0.66240
7057.28,0.66634
7051.49,0.64656
7045.71,0.64490
7039.92,0.64412
7034.13,0.63371
7028.35,0.63402
7022.56,0.62444
7016.78,0.61403
7010.99,0.61853
7005.2,0.60775
6999.42,0.60264
6993.63,0.60345
6987.84,0.60730
6982.06,0.60046
6976.27,0.60238
6970.49,0.60186
6964.7,0.60021
6958.91,0.59685
6953.13,0.59000
6947.34,0.58807
6941.55,0.59089
6935.77,0.59152
6929.98,0.58879
6924.2,0.58773
6918.41,0.58725
6912.62,0.58668
6906.84,0.58748
6901.05,0.58054
6895.26,0.59035
6889.48,0.58434
6883.69,0.58639
6877.91,0.58638
6872.12,0.58981
6866.33,0.58840
6860.55,0.58689
6854.76,0.58527
6848.97,0.58633
6843.19,0.57719
6837.4,0.57975
6831.62,0.58451
6825.83,0.58518
6820.04,0.58071
6814.26,0.58409
6808.47,0.58548
6802.68,0.58340
6796.9,0.58393
6791.11,0.58536
6785.33,0.58767
6779.54,0.58595
6773.75,0.58171
6767.97,0.58162
6762.18,0.58123
6756.39,0.58132
6750.61,0.58612
6744.82,0.58465
6739.04,0.58780
6733.25,0.58931
6727.46,0.58791
6721.68,0.59207
6715.89,0.58993
6710.1,0.58730
6704.32,0.59477
6698.53,0.59439
6692.75,0.59285
6686.96,0.58865
6681.17,0.59316
6675.39,0.58910
6669.6,0.59089
6663.82,0.59279
6658.03,0.59207
6652.24,0.59887
6646.46,0.60007
6640.67,0.60360
6634.88,0.60086
6629.1,0.59520
6623.31,0.60013
6617.53,0.60395
6611.74,0.60689
6605.95,0.60501
6600.17,0.60854
6594.38,0.60514
6588.59,0.60337
6582.81,0.60791
6577.02,0.60869
6571.24,0.60506
6565.45,0.60876
6559.66,0.61458
6553.88,0.61434
6548.09,0.61273
6542.3,0.61031
6536.52,0.61658
6530.73,0.61365
6524.95,0.61179
6519.16,0.61076
6513.37,0.61720
6507.59,0.61272
6501.8,0.61309
6496.01,0.61760
6490.23,0.62017
6484.44,0.62045
6478.66,0.61636
6472.87,0.61702
6467.08,0.61541
6461.3,0.62174
6455.51,0.61900
6449.72,0.61918
6443.94,0.62009
6438.15,0.62039
6432.37,0.62336
6426.58,0.62538
6420.79,0.62529
6415.01,0.62250
6409.22,0.62587
6403.43,0.62342
6397.65,0.62402
6391.86,0.62287
6386.08,0.62557
6380.29,0.62181
6374.5,0.62596
6368.72,0.62962
6362.93,0.62956
6357.14,0.62858
6351.36,0.63061
6345.57,0.62774
6339.79,0.62752
6334,0.62612
6328.21,0.62823
6322.43,0.62890
6316.64,0.62802
6310.85,0.63136
6305.07,0.63067
6299.28,0.63291
6293.5,0.63513
6287.71,0.63457
6281.92,0.63523
6276.14,0.64111
6270.35,0.63902
6264.56,0.63862
6258.78,0.64347
6252.99,0.64403
6247.21,0.64824
6241.42,0.65015
6235.63,0.65006
6229.85,0.65326
6224.06,0.65631
6218.27,0.65402
6212.49,0.65825
6206.7,0.66211
6200.92,0.66044
6195.13,0.66264
6189.34,0.66576
6183.56,0.66690
6177.77,0.66818
6171.98,0.67309
6166.2,0.67424
6160.41,0.67500
6154.63,0.67196
6148.84,0.67454
6143.05,0.67958
6137.27,0.67935
6131.48,0.67878
6125.7,0.68059
6119.91,0.68222
6114.12,0.67963
6108.34,0.68389
6102.55,0.68496
6096.76,0.68259
6090.98,0.68483
6085.19,0.68392
6079.41,0.68427
6073.62,0.68435
6067.83,0.68279
6062.05,0.68186
6056.26,0.67816
6050.47,0.68067
6044.69,0.67878
6038.9,0.67604
6033.12,0.67487
6027.33,0.67405
6021.54,0.67209
6015.76,0.67045
6009.97,0.66937
6004.18,0.66580
5998.4,0.66486
5992.61,0.66113
5986.83,0.66322
5981.04,0.66215
5975.25,0.66488
5969.47,0.66219
5963.68,0.66153
5957.89,0.66118
5952.11,0.65846
5946.32,0.66242
5940.54,0.66264
5934.75,0.66351
5928.96,0.66612
5923.18,0.66399
5917.39,0.66395
5911.6,0.66318
5905.82,0.66351
5900.03,0.66097
5894.25,0.65870
5888.46,0.66022
5882.67,0.65730
5876.89,0.65782
5871.1,0.65471
5865.31,0.65577
5859.53,0.65467
5853.74,0.65618
5847.96,0.65811
5842.17,0.65741
5836.38,0.65579
5830.6,0.65380
5824.81,0.65323
5819.02,0.65382
5813.24,0.65208
5807.45,0.65057
5801.67,0.64979
5795.88,0.65159
5790.09,0.65272
5784.31,0.64892
5778.52,0.65019
5772.73,0.65447
5766.95,0.65257
5761.16,0.65489
5755.38,0.65241
5749.59,0.65626
5743.8,0.65560
5738.02,0.65382
5732.23,0.65723
5726.44,0.65286
5720.66,0.65284
5714.87,0.65509
5709.09,0.65267
5703.3,0.65177
5697.51,0.65267
5691.73,0.65165
5685.94,0.65166
5680.15,0.65259
5674.37,0.65217
5668.58,0.65082
5662.8,0.64964
5657.01,0.65096
5651.22,0.64995
5645.44,0.64969
5639.65,0.65098
5633.87,0.65302
5628.08,0.65148
5622.29,0.65054
5616.51,0.65026
5610.72,0.65113
5604.93,0.65088
5599.15,0.65175
5593.36,0.64980
5587.58,0.65145
5581.79,0.65182
5576,0.65133
5570.22,0.65258
5564.43,0.65177
5558.64,0.65326
5552.86,0.65595
5547.07,0.65392
5541.29,0.65532
5535.5,0.65528
5529.71,0.65588
5523.93,0.65607
5518.14,0.65705
5512.35,0.65729
5506.57,0.65734
5500.78,0.65847
5495,0.65978
5489.21,0.65831
5483.42,0.66066
5477.64,0.66087
5471.85,0.65968
5466.06,0.66149
5460.28,0.66311
5454.49,0.66225
5448.71,0.66461
5442.92,0.66734
5437.13,0.66746
5431.35,0.66890
5425.56,0.66967
5419.77,0.67053
5413.99,0.67204
5408.2,0.67236
5402.42,0.67574
5396.63,0.67430
5390.84,0.67393
5385.06,0.67470
5379.27,0.67623
5373.48,0.67467
5367.7,0.67560
5361.91,0.67419
5356.13,0.67490
5350.34,0.67516
5344.55,0.67263
5338.77,0.67123
5332.98,0.67036
5327.19,0.66610
5321.41,0.66275
5315.62,0.65898
5309.84,0.65316
5304.05,0.64825
5298.26,0.64063
5292.48,0.63256
5286.69,0.62486
5280.9,0.61505
5275.12,0.60443
5269.33,0.59323
5263.55,0.58016
5257.76,0.56966
5251.97,0.55922
5246.19,0.54747
5240.4,0.54071
5234.61,0.53319
5228.83,0.52810
5223.04,0.52057
5217.26,0.51845
5211.47,0.51265
5205.68,0.50982
5199.9,0.50829
5194.11,0.50837
5188.32,0.50869
5182.54,0.50900
5176.75,0.51046
5170.97,0.51172
5165.18,0.51321
5159.39,0.51627
5153.61,0.51821
5147.82,0.52027
5142.03,0.52353
5136.25,0.52776
5130.46,0.53074
5124.68,0.53388
5118.89,0.53726
5113.1,0.54025
5107.32,0.54356
5101.53,0.54614
5095.75,0.54978
5089.96,0.55149
5084.17,0.55532
5078.39,0.55755
5072.6,0.56118
5066.81,0.56465
5061.03,0.56699
5055.24,0.56835
5049.46,0.57118
5043.67,0.57380
5037.88,0.57669
5032.1,0.57816
5026.31,0.57901
5020.52,0.58021
5014.74,0.58294
5008.95,0.58286
5003.17,0.58266
4997.38,0.58052
4991.59,0.58046
4985.81,0.58090
4980.02,0.57846
4974.23,0.57600
4968.45,0.57205
4962.66,0.56859
4956.88,0.56546
4951.09,0.55943
4945.3,0.55448
4939.52,0.54994
4933.73,0.54469
4927.94,0.53856
4922.16,0.53162
4916.37,0.52552
4910.59,0.52067
4904.8,0.51450
4899.01,0.50929
4893.23,0.50372
4887.44,0.49735
4881.65,0.49275
4875.87,0.48730
4870.08,0.48205
4864.3,0.47777
4858.51,0.47298
4852.72,0.46876
4846.94,0.46520
4841.15,0.45985
4835.36,0.45705
4829.58,0.45434
4823.79,0.44961
4818.01,0.44577
4812.22,0.44375
4806.43,0.44294
4800.65,0.44060
4794.86,0.43773
4789.07,0.43724
4783.29,0.43597
4777.5,0.43516
4771.72,0.43381
4765.93,0.43259
4760.14,0.43413
4754.36,0.43337
4748.57,0.43380
4742.78,0.43340
4737,0.43302
4731.21,0.43368
4725.43,0.43391
4719.64,0.43533
4713.85,0.43625
4708.07,0.43802
4702.28,0.43822
4696.49,0.43964
4690.71,0.43982
4684.92,0.44127
4679.14,0.44225
4673.35,0.44317
4667.56,0.44512
4661.78,0.44812
4655.99,0.45084
4650.2,0.45401
4644.42,0.45556
4638.63,0.45707
4632.85,0.45987
4627.06,0.46329
4621.27,0.46696
4615.49,0.47028
4609.7,0.47345
4603.92,0.47761
4598.13,0.48020
4592.34,0.48368
4586.56,0.48611
4580.77,0.48728
4574.98,0.48944
4569.2,0.49311
4563.41,0.49506
4557.63,0.49560
4551.84,0.49700
4546.05,0.49875
4540.27,0.50072
4534.48,0.50168
4528.69,0.50359
4522.91,0.50395
4517.12,0.50425
4511.34,0.50525
4505.55,0.50413
4499.76,0.50264
4493.98,0.50018
4488.19,0.49671
4482.4,0.49308
4476.62,0.48736
4470.83,0.48235
4465.05,0.47560
4459.26,0.46860
4453.47,0.46101
4447.69,0.45459
4441.9,0.44759
4436.11,0.43991
4430.33,0.43154
4424.54,0.42332
4418.76,0.41513
4412.97,0.40782
4407.18,0.40271
4401.4,0.40097
4395.61,0.39909
4389.82,0.40026
4384.04,0.40238
4378.25,0.40438
4372.47,0.40841
4366.68,0.41100
4360.89,0.41352
4355.11,0.41370
4349.32,0.41279
4343.53,0.41238
4337.75,0.41157
4331.96,0.41075
4326.18,0.40744
4320.39,0.40595
4314.6,0.40301
4308.82,0.40037
4303.03,0.39708
4297.24,0.39524
4291.46,0.39319
4285.67,0.39104
4279.89,0.39032
4274.1,0.39066
4268.31,0.39171
4262.53,0.39334
4256.74,0.39382
4250.95,0.39576
4245.17,0.39664
4239.38,0.39761
4233.6,0.39731
4227.81,0.39771
4222.02,0.39776
4216.24,0.39767
4210.45,0.39759
4204.66,0.39746
4198.88,0.39829
4193.09,0.39885
4187.31,0.39927
4181.52,0.40033
4175.73,0.40115
4169.95,0.40341
4164.16,0.40441
4158.37,0.40465
4152.59,0.40344
4146.8,0.40236
4141.02,0.39957
4135.23,0.39664
4129.44,0.39349
4123.66,0.39005
4117.87,0.38549
4112.09,0.38098
4106.3,0.37533
4100.51,0.37048
4094.73,0.36419
4088.94,0.35864
4083.15,0.35268
4077.37,0.34697
4071.58,0.34089
4065.8,0.33433
4060.01,0.32905
4054.22,0.32366
4048.44,0.31954
4042.65,0.31464
4036.86,0.31063
4031.08,0.30845
4025.29,0.30574
4019.51,0.30370
4013.72,0.30319
4007.93,0.30369
4002.15,0.30385
3996.36,0.30572
3990.57,0.30760
3984.79,0.30967
3979,0.31045
3973.22,0.31256
3967.43,0.31447
3961.64,0.31699
3955.86,0.32023
3950.07,0.32221
3944.28,0.32520
3938.5,0.32809
3932.71,0.33225
3926.93,0.33544
3921.14,0.33824
3915.35,0.34032
3909.57,0.34236
3903.78,0.34528
3897.99,0.34763
3892.21,0.35018
3886.42,0.35202
3880.64,0.35352
3874.85,0.35527
3869.06,0.35802
3863.28,0.36072
3857.49,0.36278
3851.7,0.36678
3845.92,0.36833
3840.13,0.37080
3834.35,0.37157
3828.56,0.37212
3822.77,0.37295
3816.99,0.37315
3811.2,0.37307
3805.41,0.37275
3799.63,0.37259
3793.84,0.37214
3788.06,0.37232
3782.27,0.37128
3776.48,0.37076
3770.7,0.36998
3764.91,0.36833
3759.12,0.36683
3753.34,0.36530
3747.55,0.36239
3741.77,0.35995
3735.98,0.35664
3730.19,0.35142
3724.41,0.34640
3718.62,0.34154
3712.83,0.33569
3707.05,0.32778
3701.26,0.31915
3695.48,0.30884
3689.69,0.29668
3683.9,0.28172
3678.12,0.26609
3672.33,0.24705
3666.54,0.22851
3660.76,0.21146
3654.97,0.19470
3649.19,0.18083
3643.4,0.16762
3637.61,0.15598
3631.83,0.14566
3626.04,0.13460
3620.25,0.12684
3614.47,0.11829
3608.68,0.10982
3602.9,0.10262
3597.11,0.09603
3591.32,0.08953
3585.54,0.08459
3579.75,0.08063
3573.97,0.07627
3568.18,0.07296
3562.39,0.06957
3556.61,0.06644
3550.82,0.06445
3545.03,0.06233
3539.25,0.06049
3533.46,0.05814
3527.68,0.05683
3521.89,0.05536
3516.1,0.05415
3510.32,0.05291
3504.53,0.05184
3498.74,0.05050
3492.96,0.05062
3487.17,0.04922
3481.39,0.04805
3475.6,0.04759
3469.81,0.04752
3464.03,0.04635
3458.24,0.04573
3452.45,0.04559
3446.67,0.04512
3440.88,0.04577
3435.1,0.04590
3429.31,0.04577
3423.52,0.04601
3417.74,0.04603
3411.95,0.04621
3406.16,0.04556
3400.38,0.04671
3394.59,0.04664
3388.81,0.04612
3383.02,0.04694
3377.23,0.04625
3371.45,0.04690
3365.66,0.04758
3359.87,0.04858
3354.09,0.04861
3348.3,0.04848
3342.52,0.05038
3336.73,0.05158
3330.94,0.05174
3325.16,0.05256
3319.37,0.05322
3313.58,0.05339
3307.8,0.05468
3302.01,0.05514
3296.23,0.05569
3290.44,0.05670
3284.65,0.05722
3278.87,0.05816
3273.08,0.05970
3267.29,0.06098
3261.51,0.06135
3255.72,0.06325
3249.94,0.06386
3244.15,0.06534
3238.36,0.06789
3232.58,0.06892
3226.79,0.07000
3221,0.07180
3215.22,0.07321
3209.43,0.07520
3203.65,0.07711
3197.86,0.07886
3192.07,0.08072
3186.29,0.08252
3180.5,0.08498
3174.71,0.08680
3168.93,0.08828
3163.14,0.09015
3157.36,0.09255
3151.57,0.09467
3145.78,0.09611
3140,0.09881
3134.21,0.10087
3128.42,0.10265
3122.64,0.10498
3116.85,0.10675
3111.07,0.10901
3105.28,0.11109
3099.49,0.11247
3093.71,0.11434
3087.92,0.11593
3082.14,0.11694
3076.35,0.11861
3070.56,0.12044
3064.78,0.12152
3058.99,0.12304
3053.2,0.12537
3047.42,0.12728
3041.63,0.12788
3035.85,0.12808
3030.06,0.12858
3024.27,0.12876
3018.49,0.12765
3012.7,0.12550
3006.91,0.12230
3001.13,0.11994
2995.34,0.11803
2989.56,0.11396
2983.77,0.10854
2977.98,0.10160
2972.2,0.09431
2966.41,0.08887
2960.62,0.08541
2954.84,0.08238
2949.05,0.07841
2943.27,0.07566
2937.48,0.07463
2931.69,0.07365
2925.91,0.07392
2920.12,0.07349
2914.33,0.07362
2908.55,0.07389
2902.76,0.07419
2896.98,0.07482
2891.19,0.07628
2885.4,0.07772
2879.62,0.07932
2873.83,0.08123
2868.04,0.08202
2862.26,0.08483
2856.47,0.08783
2850.69,0.09057
2844.9,0.09428
2839.11,0.09924
2833.33,0.10442
2827.54,0.11089
2821.75,0.11711
2815.97,0.12301
2810.18,0.12819
2804.4,0.13235
2798.61,0.13580
2792.82,0.13876
2787.04,0.14092
2781.25,0.14249
2775.46,0.14383
2769.68,0.14479
2763.89,0.14574
2758.11,0.14685
2752.32,0.14707
2746.53,0.14730
2740.75,0.14773
2734.96,0.14819
2729.17,0.14921
2723.39,0.15089
2717.6,0.15275
2711.82,0.15418
2706.03,0.15679
2700.24,0.15925
2694.46,0.16102
2688.67,0.16366
2682.88,0.16533
2677.1,0.16713
2671.31,0.16863
2665.53,0.17001
2659.74,0.17125
2653.95,0.17254
2648.17,0.17409
2642.38,0.17560
2636.59,0.17736
2630.81,0.17936
2625.02,0.18138
2619.24,0.18269
2613.45,0.18413
2607.66,0.18574
2601.88,0.18737
2596.09,0.18873
2590.3,0.19011
2584.52,0.19172
2578.73,0.19278
2572.95,0.19344
2567.16,0.19415
2561.37,0.19470
2555.59,0.19503
2549.8,0.19484
2544.02,0.19549
2538.23,0.19651
2532.44,0.19796
2526.66,0.19988
2520.87,0.20140
2515.08,0.20320
2509.3,0.20541
2503.51,0.20818
2497.73,0.21076
2491.94,0.21342
2486.15,0.21595
2480.37,0.21834
2474.58,0.22073
2468.79,0.22226
2463.01,0.22469
2457.22,0.22702
2451.44,0.22910
2445.65,0.23187
2439.86,0.23433
2434.08,0.23708
2428.29,0.24011
2422.5,0.24341
2416.72,0.24689
2410.93,0.24944
2405.15,0.25271
2399.36,0.25529
2393.57,0.25789
2387.79,0.26055
2382,0.26336
2376.21,0.26599
2370.43,0.26881
2364.64,0.27103
2358.86,0.27266
2353.07,0.27394
2347.28,0.27557
2341.5,0.27763
2335.71,0.27830
2329.92,0.27985
2324.14,0.28019
2318.35,0.28094
2312.57,0.28167
2306.78,0.28132
2300.99,0.28107
2295.21,0.28048
2289.42,0.27984
2283.63,0.27996
2277.85,0.27925
2272.06,0.27788
2266.28,0.27605
2260.49,0.27455
2254.7,0.27321
2248.92,0.27252
2243.13,0.27167
2237.34,0.27123
2231.56,0.27028
2225.77,0.26999
2219.99,0.27006
2214.2,0.26958
2208.41,0.26918
2202.63,0.26743
2196.84,0.26561
2191.05,0.26287
2185.27,0.25973
2179.48,0.25644
2173.7,0.25295
2167.91,0.25006
2162.12,0.24743
2156.34,0.24593
2150.55,0.24410
2144.76,0.24263
2138.98,0.24189
2133.19,0.24149
2127.41,0.24209
2121.62,0.24292
2115.83,0.24368
2110.05,0.24462
2104.26,0.24584
2098.47,0.24641
2092.69,0.24704
2086.9,0.24731
2081.12,0.24613
2075.33,0.24513
2069.54,0.24406
2063.76,0.24289
2057.97,0.24252
2052.19,0.24263
2046.4,0.24361
2040.61,0.24569
2034.83,0.24817
2029.04,0.25151
2023.25,0.25495
2017.47,0.25830
2011.68,0.26098
2005.9,0.26283
2000.11,0.26478
1994.32,0.26684
1988.54,0.26835
1982.75,0.27011
1976.96,0.27118
1971.18,0.27280
1965.39,0.27442
1959.61,0.27679
1953.82,0.27967
1948.03,0.28276
1942.25,0.28590
1936.46,0.28861
1930.67,0.29064
1924.89,0.29157
1919.1,0.29197
1913.32,0.29179
1907.53,0.29166
1901.74,0.29084
1895.96,0.28958
1890.17,0.28901
1884.38,0.28853
1878.6,0.28811
1872.81,0.28816
1867.03,0.28773
1861.24,0.28693
1855.45,0.28567
1849.67,0.28412
1843.88,0.28211
1838.09,0.27984
1832.31,0.27721
1826.52,0.27413
1820.74,0.26995
1814.95,0.26513
1809.16,0.25961
1803.38,0.25351
1797.59,0.24583
1791.8,0.23690
1786.02,0.22612
1780.23,0.21212
1774.45,0.19542
1768.66,0.17181
1762.87,0.14697
1757.09,0.12323
1751.3,0.10676
1745.51,0.09640
1739.73,0.09134
1733.94,0.09081
1728.16,0.09462
1722.37,0.10037
1716.58,0.10825
1710.8,0.11592
1705.01,0.12165
1699.22,0.12484
1693.44,0.12402
1687.65,0.12017
1681.87,0.11258
1676.08,0.10454
1670.29,0.09685
1664.51,0.09127
1658.72,0.08841
1652.93,0.08869
1647.15,0.08782
1641.36,0.08593
1635.58,0.08635
1629.79,0.08747
1624,0.08753
1618.22,0.08575
1612.43,0.08301
1606.64,0.08091
1600.86,0.08119
1595.07,0.08182
1589.29,0.08427
1583.5,0.09109
1577.71,0.10312
1571.93,0.11774
1566.14,0.12990
1560.35,0.13691
1554.57,0.13922
1548.78,0.13791
1543,0.13466
1537.21,0.12526
1531.42,0.11093
1525.64,0.09133
1519.85,0.06998
1514.07,0.05885
1508.28,0.05954
1502.49,0.06598
1496.71,0.07365
1490.92,0.07859
1485.13,0.07789
1479.35,0.07348
1473.56,0.06621
1467.78,0.05949
1461.99,0.05843
1456.2,0.05792
1450.42,0.05800
1444.63,0.05993
1438.84,0.05839
1433.06,0.05621
1427.27,0.05539
1421.49,0.05746
1415.7,0.06077
1409.91,0.06304
1404.13,0.06353
1398.34,0.06295
1392.55,0.06075
1386.77,0.05705
1380.98,0.05348
1375.2,0.05295
1369.41,0.05446
1363.62,0.05608
1357.84,0.05762
1352.05,0.05856
1346.26,0.05801
1340.48,0.05713
1334.69,0.05650
1328.91,0.05667
1323.12,0.05560
1317.33,0.05532
1311.55,0.05681
1305.76,0.05789
1299.97,0.05752
1294.19,0.05639
1288.4,0.05389
1282.62,0.05160
1276.83,0.05082
1271.04,0.05063
1265.26,0.05141
1259.47,0.05311
1253.68,0.05452
1247.9,0.05501
1242.11,0.05491
1236.33,0.05425
1230.54,0.05381
1224.75,0.05397
1218.97,0.05488
1213.18,0.05481
1207.39,0.05463
1201.61,0.05459
1195.82,0.05483
1190.04,0.05330
1184.25,0.05043
1178.46,0.04715
1172.68,0.04554
1166.89,0.04857
1161.1,0.05174
1155.32,0.05120
1149.53,0.04953
1143.75,0.04716
1137.96,0.04475
1132.17,0.04201
1126.39,0.04289
1120.6,0.04411
1114.81,0.04614
1109.03,0.04914
1103.24,0.05016
1097.46,0.04893
1091.67,0.04833
1085.88,0.04945
1080.1,0.05259
1074.31,0.05844
1068.52,0.06438
1062.74,0.07377
1056.95,0.07962
1051.17,0.07833
1045.38,0.07442
1039.59,0.07601
1033.81,0.08213
1028.02,0.08544
1022.24,0.08605
1016.45,0.08750
1010.66,0.08882
1004.88,0.09013
999.09,0.09299
993.304,0.09581
987.518,0.10056
981.731,0.10855
975.945,0.11418
970.159,0.11484
964.373,0.11528
958.586,0.11901
952.8,0.12305
947.014,0.12469
941.228,0.12618
935.441,0.12846
929.655,0.13176
923.869,0.13297
918.083,0.13054
912.297,0.12543
906.51,0.11778
900.724,0.11128
894.938,0.11235
889.152,0.11614
883.365,0.11931
877.579,0.11864
871.793,0.11807
866.007,0.11711
860.22,0.11805
854.434,0.12081
848.648,0.12558
842.862,0.12702
837.075,0.12522
831.289,0.12104
825.503,0.11679
819.717,0.11203
813.931,0.10692
808.144,0.10559
802.358,0.10853
796.572,0.11039
790.786,0.11006
784.999,0.10763
779.213,0.10467
773.427,0.10230
767.641,0.09974
761.854,0.09850
756.068,0.09617
750.282,0.09540
744.496,0.09385
738.709,0.09341
732.923,0.09182
727.137,0.08896
721.351,0.08617
715.565,0.08576
709.778,0.08478
703.992,0.08358
698.206,0.08083
692.42,0.08018
686.633,0.07929
680.847,0.07660
675.061,0.07513
669.275,0.07423
663.488,0.07554
657.702,0.07709
651.916,0.07782
646.13,0.07645
640.343,0.07587
634.557,0.07519
628.771,0.07536
622.985,0.07406
617.198,0.07543
611.412,0.07620
605.626,0.07675
599.84,0.07869