File: 01_Data/Pine_Siding/FTIR/IS/Pine_Siding_IS_S_220916_R8.dpt
7497.03,0.84227
7491.25,0.82831
7485.46,0.83629
7479.67,0.82915
7473.89,0.83078
7468.1,0.82847
7462.32,0.82424
7456.53,0.81836
7450.74,0.81986
7444.96,0.81684
7439.17,0.81605
7433.38,0.80839
7427.6,0.81561
7421.81,0.81044
7416.03,0.80294
7410.24,0.79927
7404.45,0.80553
7398.67,0.79700
7392.88,0.80046
7387.09,0.80114
7381.31,0.79559
7375.52,0.79640
7369.74,0.77965
7363.95,0.77975
7358.16,0.78666
7352.38,0.78628
7346.59,0.77423
7340.8,0.77877
7335.02,0.77678
7329.23,0.77459
7323.45,0.77414
7317.66,0.77335
7311.87,0.77037
7306.09,0.76557
7300.3,0.77655
7294.51,0.77584
7288.73,0.77042
7282.94,0.76652
7277.16,0.77124
7271.37,0.75945
7265.58,0.77630
7259.8,0.76770
7254.01,0.76144
7248.22,0.76591
7242.44,0.76135
7236.65,0.75981
7230.87,0.76730
7225.08,0.76748
7219.29,0.76798
7213.51,0.75940
7207.72,0.76600
7201.93,0.75385
7196.15,0.75583
7190.36,0.75416
7184.58,0.75605
7178.79,0.75354
7173,0.74585
7167.22,0.74556
7161.43,0.74164
7155.65,0.74222
7149.86,0.73609
7144.07,0.73497
7138.29,0.72723
7132.5,0.73151
7126.71,0.72184
7120.93,0.71546
7115.14,0.71492
7109.36,0.71391
7103.57,0.70523
7097.78,0.69364
7092,0.69487
7086.21,0.68501
7080.42,0.68252
7074.64,0.67128
7068.85,0.66578
7063.07,0.66468
7057.28,0.66136
7051.49,0.65104
7045.71,0.65374
7039.92,0.64223
7034.13,0.63672
7028.35,0.62836
7022.56,0.62827
7016.78,0.61823
7010.99,0.61190
7005.2,0.61225
6999.42,0.61342
6993.63,0.60182
6987.84,0.60363
6982.06,0.60072
6976.27,0.59556
6970.49,0.59673
6964.7,0.59604
6958.91,0.59092
6953.13,0.58976
6947.34,0.58604
6941.55,0.58523
6935.77,0.58646
6929.98,0.58814
6924.2,0.59274
6918.41,0.58924
6912.62,0.58547
6906.84,0.58734
6901.05,0.58419
6895.26,0.59014
6889.48,0.58864
6883.69,0.58828
6877.91,0.58326
6872.12,0.58554
6866.33,0.59160
6860.55,0.59113
6854.76,0.58676
6848.97,0.58351
6843.19,0.58547
6837.4,0.58705
6831.62,0.58667
6825.83,0.58681
6820.04,0.58227
6814.26,0.58673
6808.47,0.58617
6802.68,0.58357
6796.9,0.58258
6791.11,0.58878
6785.33,0.58743
6779.54,0.58287
6773.75,0.58288
6767.97,0.58558
6762.18,0.58585
6756.39,0.59284
6750.61,0.58618
6744.82,0.59135
6739.04,0.58761
6733.25,0.58840
6727.46,0.59024
6721.68,0.58776
6715.89,0.59059
6710.1,0.59325
6704.32,0.59433
6698.53,0.59090
6692.75,0.59714
6686.96,0.59347
6681.17,0.59411
6675.39,0.59454
6669.6,0.59574
6663.82,0.59496
6658.03,0.60034
6652.24,0.59792
6646.46,0.60004
6640.67,0.60310
6634.88,0.60334
6629.1,0.59492
6623.31,0.60453
6617.53,0.60682
6611.74,0.60718
6605.95,0.60720
6600.17,0.60721
6594.38,0.61129
6588.59,0.60928
6582.81,0.61095
6577.02,0.60951
6571.24,0.61748
6565.45,0.61304
6559.66,0.61383
6553.88,0.61595
6548.09,0.61136
6542.3,0.61111
6536.52,0.61167
6530.73,0.61228
6524.95,0.62000
6519.16,0.61899
6513.37,0.62180
6507.59,0.61518
6501.8,0.62049
6496.01,0.61712
6490.23,0.62218
6484.44,0.62181
6478.66,0.61988
6472.87,0.61828
6467.08,0.62418
6461.3,0.62426
6455.51,0.62352
6449.72,0.62231
6443.94,0.61871
6438.15,0.62123
6432.37,0.62028
6426.58,0.62158
6420.79,0.61855
6415.01,0.62105
6409.22,0.62071
6403.43,0.62532
6397.65,0.63011
6391.86,0.62888
6386.08,0.62536
6380.29,0.62623
6374.5,0.62973
6368.72,0.62723
6362.93,0.62689
6357.14,0.63038
6351.36,0.63008
6345.57,0.63033
6339.79,0.62942
6334,0.63079
6328.21,0.62843
6322.43,0.63000
6316.64,0.62966
6310.85,0.63338
6305.07,0.63422
6299.28,0.63616
6293.5,0.63886
6287.71,0.63615
6281.92,0.63803
6276.14,0.64083
6270.35,0.63955
6264.56,0.64104
6258.78,0.64338
6252.99,0.64636
6247.21,0.64695
6241.42,0.65087
6235.63,0.65420
6229.85,0.65359
6224.06,0.65982
6218.27,0.65559
6212.49,0.65612
6206.7,0.66226
6200.92,0.66125
6195.13,0.66418
6189.34,0.66629
6183.56,0.66865
6177.77,0.66999
6171.98,0.66810
6166.2,0.67340
6160.41,0.67423
6154.63,0.67360
6148.84,0.67495
6143.05,0.67867
6137.27,0.68112
6131.48,0.67933
6125.7,0.67999
6119.91,0.68049
6114.12,0.68172
6108.34,0.68337
6102.55,0.68458
6096.76,0.68521
6090.98,0.68615
6085.19,0.68503
6079.41,0.68599
6073.62,0.68316
6067.83,0.68372
6062.05,0.68020
6056.26,0.68459
6050.47,0.68305
6044.69,0.68020
6038.9,0.67765
6033.12,0.67464
6027.33,0.67393
6021.54,0.67228
6015.76,0.67134
6009.97,0.66887
6004.18,0.66972
5998.4,0.66497
5992.61,0.66052
5986.83,0.66317
5981.04,0.66234
5975.25,0.66394
5969.47,0.66088
5963.68,0.65922
5957.89,0.65958
5952.11,0.66240
5946.32,0.66173
5940.54,0.66399
5934.75,0.66565
5928.96,0.66371
5923.18,0.66677
5917.39,0.66686
5911.6,0.66272
5905.82,0.66325
5900.03,0.66276
5894.25,0.66254
5888.46,0.65901
5882.67,0.65819
5876.89,0.65691
5871.1,0.65873
5865.31,0.65656
5859.53,0.65655
5853.74,0.65607
5847.96,0.65974
5842.17,0.65728
5836.38,0.65600
5830.6,0.65534
5824.81,0.65390
5819.02,0.65558
5813.24,0.65265
5807.45,0.65440
5801.67,0.65357
5795.88,0.65361
5790.09,0.65174
5784.31,0.65555
5778.52,0.65313
5772.73,0.65455
5766.95,0.65352
5761.16,0.65709
5755.38,0.65467
5749.59,0.65489
5743.8,0.65585
5738.02,0.65355
5732.23,0.65484
5726.44,0.65510
5720.66,0.65305
5714.87,0.65489
5709.09,0.65423
5703.3,0.65561
5697.51,0.65603
5691.73,0.65426
5685.94,0.65553
5680.15,0.65303
5674.37,0.65154
5668.58,0.65130
5662.8,0.65307
5657.01,0.65233
5651.22,0.65121
5645.44,0.65226
5639.65,0.65243
5633.87,0.65181
5628.08,0.65264
5622.29,0.65253
5616.51,0.65255
5610.72,0.65209
5604.93,0.65064
5599.15,0.65154
5593.36,0.64973
5587.58,0.65392
5581.79,0.65210
5576,0.65305
5570.22,0.65379
5564.43,0.65446
5558.64,0.65592
5552.86,0.65503
5547.07,0.65548
5541.29,0.65591
5535.5,0.65766
5529.71,0.65785
5523.93,0.65642
5518.14,0.65963
5512.35,0.65694
5506.57,0.65867
5500.78,0.65984
5495,0.65865
5489.21,0.66086
5483.42,0.66037
5477.64,0.65998
5471.85,0.66078
5466.06,0.66167
5460.28,0.66363
5454.49,0.66325
5448.71,0.66634
5442.92,0.66601
5437.13,0.66742
5431.35,0.66855
5425.56,0.67098
5419.77,0.67219
5413.99,0.67408
5408.2,0.67295
5402.42,0.67599
5396.63,0.67604
5390.84,0.67561
5385.06,0.67725
5379.27,0.67728
5373.48,0.67645
5367.7,0.67667
5361.91,0.67555
5356.13,0.67637
5350.34,0.67544
5344.55,0.67436
5338.77,0.67413
5332.98,0.67293
5327.19,0.66815
5321.41,0.66471
5315.62,0.66163
5309.84,0.65590
5304.05,0.65093
5298.26,0.64628
5292.48,0.63849
5286.69,0.62859
5280.9,0.62095
5275.12,0.60933
5269.33,0.59764
5263.55,0.58675
5257.76,0.57496
5251.97,0.56579
5246.19,0.55623
5240.4,0.54684
5234.61,0.54081
5228.83,0.53433
5223.04,0.52916
5217.26,0.52549
5211.47,0.52189
5205.68,0.52043
5199.9,0.51827
5194.11,0.51683
5188.32,0.51447
5182.54,0.51689
5176.75,0.51728
5170.97,0.51937
5165.18,0.52075
5159.39,0.52270
5153.61,0.52653
5147.82,0.52920
5142.03,0.53160
5136.25,0.53620
5130.46,0.53957
5124.68,0.54108
5118.89,0.54569
5113.1,0.54615
5107.32,0.55072
5101.53,0.55431
5095.75,0.55597
5089.96,0.55909
5084.17,0.56192
5078.39,0.56394
5072.6,0.56660
5066.81,0.57016
5061.03,0.57277
5055.24,0.57539
5049.46,0.57690
5043.67,0.57926
5037.88,0.58062
5032.1,0.58202
5026.31,0.58478
5020.52,0.58589
5014.74,0.58636
5008.95,0.58789
5003.17,0.58730
4997.38,0.58611
4991.59,0.58650
4985.81,0.58376
4980.02,0.58361
4974.23,0.57944
4968.45,0.57573
4962.66,0.57036
4956.88,0.56721
4951.09,0.56220
4945.3,0.55732
4939.52,0.55046
4933.73,0.54547
4927.94,0.53907
4922.16,0.53356
4916.37,0.52611
4910.59,0.52167
4904.8,0.51514
4899.01,0.51005
4893.23,0.50467
4887.44,0.49997
4881.65,0.49430
4875.87,0.48750
4870.08,0.48355
4864.3,0.47787
4858.51,0.47237
4852.72,0.46940
4846.94,0.46542
4841.15,0.46074
4835.36,0.45689
4829.58,0.45424
4823.79,0.44942
4818.01,0.44710
4812.22,0.44495
4806.43,0.44247
4800.65,0.44033
4794.86,0.43882
4789.07,0.43816
4783.29,0.43687
4777.5,0.43441
4771.72,0.43469
4765.93,0.43302
4760.14,0.43353
4754.36,0.43284
4748.57,0.43413
4742.78,0.43402
4737,0.43377
4731.21,0.43452
4725.43,0.43560
4719.64,0.43649
4713.85,0.43707
4708.07,0.43892
4702.28,0.43805
4696.49,0.43917
4690.71,0.44076
4684.92,0.44140
4679.14,0.44259
4673.35,0.44482
4667.56,0.44548
4661.78,0.44880
4655.99,0.45155
4650.2,0.45380
4644.42,0.45647
4638.63,0.45747
4632.85,0.46207
4627.06,0.46352
4621.27,0.46722
4615.49,0.47092
4609.7,0.47467
4603.92,0.47822
4598.13,0.48001
4592.34,0.48377
4586.56,0.48650
4580.77,0.48948
4574.98,0.49222
4569.2,0.49392
4563.41,0.49500
4557.63,0.49757
4551.84,0.49904
4546.05,0.50150
4540.27,0.50206
4534.48,0.50342
4528.69,0.50426
4522.91,0.50464
4517.12,0.50537
4511.34,0.50660
4505.55,0.50520
4499.76,0.50368
4493.98,0.50091
4488.19,0.49805
4482.4,0.49455
4476.62,0.48859
4470.83,0.48260
4465.05,0.47650
4459.26,0.46934
4453.47,0.46306
4447.69,0.45550
4441.9,0.44748
4436.11,0.44016
4430.33,0.43210
4424.54,0.42375
4418.76,0.41568
4412.97,0.40840
4407.18,0.40354
4401.4,0.40066
4395.61,0.40000
4389.82,0.40111
4384.04,0.40326
4378.25,0.40531
4372.47,0.40854
4366.68,0.41066
4360.89,0.41324
4355.11,0.41386
4349.32,0.41357
4343.53,0.41345
4337.75,0.41191
4331.96,0.41141
4326.18,0.40864
4320.39,0.40623
4314.6,0.40359
4308.82,0.40083
4303.03,0.39805
4297.24,0.39552
4291.46,0.39344
4285.67,0.39220
4279.89,0.39089
4274.1,0.39170
4268.31,0.39206
4262.53,0.39353
4256.74,0.39490
4250.95,0.39669
4245.17,0.39751
4239.38,0.39790
4233.6,0.39823
4227.81,0.39873
4222.02,0.39793
4216.24,0.39791
4210.45,0.39804
4204.66,0.39852
4198.88,0.39858
4193.09,0.39933
4187.31,0.39990
4181.52,0.40144
4175.73,0.40289
4169.95,0.40505
4164.16,0.40546
4158.37,0.40576
4152.59,0.40502
4146.8,0.40313
4141.02,0.40090
4135.23,0.39814
4129.44,0.39474
4123.66,0.39092
4117.87,0.38597
4112.09,0.38203
4106.3,0.37659
4100.51,0.37106
4094.73,0.36590
4088.94,0.35958
4083.15,0.35389
4077.37,0.34780
4071.58,0.34201
4065.8,0.33634
4060.01,0.33029
4054.22,0.32480
4048.44,0.31972
4042.65,0.31546
4036.86,0.31236
4031.08,0.30880
4025.29,0.30679
4019.51,0.30499
4013.72,0.30444
4007.93,0.30492
4002.15,0.30537
3996.36,0.30693
3990.57,0.30819
3984.79,0.30969
3979,0.31133
3973.22,0.31308
3967.43,0.31578
3961.64,0.31780
3955.86,0.32046
3950.07,0.32298
3944.28,0.32624
3938.5,0.32987
3932.71,0.33289
3926.93,0.33590
3921.14,0.33911
3915.35,0.34167
3909.57,0.34371
3903.78,0.34609
3897.99,0.34893
3892.21,0.35140
3886.42,0.35314
3880.64,0.35478
3874.85,0.35685
3869.06,0.35942
3863.28,0.36250
3857.49,0.36473
3851.7,0.36836
3845.92,0.37029
3840.13,0.37246
3834.35,0.37366
3828.56,0.37402
3822.77,0.37478
3816.99,0.37482
3811.2,0.37470
3805.41,0.37512
3799.63,0.37529
3793.84,0.37376
3788.06,0.37339
3782.27,0.37366
3776.48,0.37333
3770.7,0.37229
3764.91,0.37153
3759.12,0.36943
3753.34,0.36835
3747.55,0.36634
3741.77,0.36269
3735.98,0.36015
3730.19,0.35610
3724.41,0.35118
3718.62,0.34575
3712.83,0.33930
3707.05,0.33126
3701.26,0.32331
3695.48,0.31281
3689.69,0.30182
3683.9,0.28642
3678.12,0.27062
3672.33,0.25130
3666.54,0.23343
3660.76,0.21689
3654.97,0.20014
3649.19,0.18587
3643.4,0.17209
3637.61,0.16032
3631.83,0.15029
3626.04,0.13842
3620.25,0.12998
3614.47,0.12109
3608.68,0.11266
3602.9,0.10441
3597.11,0.09719
3591.32,0.09111
3585.54,0.08542
3579.75,0.08101
3573.97,0.07746
3568.18,0.07362
3562.39,0.07034
3556.61,0.06731
3550.82,0.06460
3545.03,0.06213
3539.25,0.05968
3533.46,0.05849
3527.68,0.05719
3521.89,0.05551
3516.1,0.05452
3510.32,0.05295
3504.53,0.05160
3498.74,0.05121
3492.96,0.05017
3487.17,0.04903
3481.39,0.04762
3475.6,0.04729
3469.81,0.04753
3464.03,0.04655
3458.24,0.04587
3452.45,0.04613
3446.67,0.04546
3440.88,0.04444
3435.1,0.04563
3429.31,0.04582
3423.52,0.04641
3417.74,0.04544
3411.95,0.04640
3406.16,0.04635
3400.38,0.04635
3394.59,0.04555
3388.81,0.04561
3383.02,0.04736
3377.23,0.04702
3371.45,0.04713
3365.66,0.04712
3359.87,0.04845
3354.09,0.04845
3348.3,0.04908
3342.52,0.04962
3336.73,0.05103
3330.94,0.05254
3325.16,0.05220
3319.37,0.05288
3313.58,0.05394
3307.8,0.05482
3302.01,0.05539
3296.23,0.05606
3290.44,0.05683
3284.65,0.05740
3278.87,0.05888
3273.08,0.06018
3267.29,0.06024
3261.51,0.06183
3255.72,0.06323
3249.94,0.06431
3244.15,0.06617
3238.36,0.06799
3232.58,0.06899
3226.79,0.07091
3221,0.07263
3215.22,0.07411
3209.43,0.07608
3203.65,0.07720
3197.86,0.07959
3192.07,0.08132
3186.29,0.08341
3180.5,0.08553
3174.71,0.08734
3168.93,0.08955
3163.14,0.09117
3157.36,0.09309
3151.57,0.09553
3145.78,0.09753
3140,0.09972
3134.21,0.10165
3128.42,0.10353
3122.64,0.10610
3116.85,0.10836
3111.07,0.11030
3105.28,0.11206
3099.49,0.11380
3093.71,0.11530
3087.92,0.11651
3082.14,0.11810
3076.35,0.11998
3070.56,0.12115
3064.78,0.12269
3058.99,0.12441
3053.2,0.12671
3047.42,0.12750
3041.63,0.12893
3035.85,0.12914
3030.06,0.12982
3024.27,0.12921
3018.49,0.12820
3012.7,0.12651
3006.91,0.12370
3001.13,0.12103
2995.34,0.11787
2989.56,0.11457
2983.77,0.10928
2977.98,0.10199
2972.2,0.09365
2966.41,0.08865
2960.62,0.08560
2954.84,0.08256
2949.05,0.07857
2943.27,0.07579
2937.48,0.07443
2931.69,0.07407
2925.91,0.07372
2920.12,0.07322
2914.33,0.07352
2908.55,0.07398
2902.76,0.07431
2896.98,0.07499
2891.19,0.07669
2885.4,0.07826
2879.62,0.07920
2873.83,0.08056
2868.04,0.08239
2862.26,0.08522
2856.47,0.08757
2850.69,0.08993
2844.9,0.09441
2839.11,0.09954
2833.33,0.10441
2827.54,0.11095
2821.75,0.11790
2815.97,0.12344
2810.18,0.12833
2804.4,0.13256
2798.61,0.13655
2792.82,0.13921
2787.04,0.14153
2781.25,0.14343
2775.46,0.14437
2769.68,0.14555
2763.89,0.14619
2758.11,0.14741
2752.32,0.14805
2746.53,0.14845
2740.75,0.14833
2734.96,0.14859
2729.17,0.14988
2723.39,0.15128
2717.6,0.15299
2711.82,0.15470
2706.03,0.15711
2700.24,0.15916
2694.46,0.16190
2688.67,0.16380
2682.88,0.16583
2677.1,0.16782
2671.31,0.16942
2665.53,0.17090
2659.74,0.17219
2653.95,0.17285
2648.17,0.17477
2642.38,0.17641
2636.59,0.17803
2630.81,0.17999
2625.02,0.18191
2619.24,0.18339
2613.45,0.18507
2607.66,0.18663
2601.88,0.18795
2596.09,0.18986
2590.3,0.19103
2584.52,0.19224
2578.73,0.19302
2572.95,0.19480
2567.16,0.19544
2561.37,0.19583
2555.59,0.19585
2549.8,0.19606
2544.02,0.19638
2538.23,0.19750
2532.44,0.19886
2526.66,0.20045
2520.87,0.20221
2515.08,0.20375
2509.3,0.20593
2503.51,0.20895
2497.73,0.21139
2491.94,0.21423
2486.15,0.21674
2480.37,0.21872
2474.58,0.22088
2468.79,0.22361
2463.01,0.22533
2457.22,0.22756
2451.44,0.22990
2445.65,0.23245
2439.86,0.23491
2434.08,0.23791
2428.29,0.24127
2422.5,0.24435
2416.72,0.24756
2410.93,0.25076
2405.15,0.25335
2399.36,0.25634
2393.57,0.25942
2387.79,0.26167
2382,0.26432
2376.21,0.26721
2370.43,0.26992
2364.64,0.27200
2358.86,0.27387
2353.07,0.27539
2347.28,0.27701
2341.5,0.27865
2335.71,0.27983
2329.92,0.28087
2324.14,0.28184
2318.35,0.28256
2312.57,0.28280
2306.78,0.28271
2300.99,0.28210
2295.21,0.28193
2289.42,0.28151
2283.63,0.28124
2277.85,0.28080
2272.06,0.27990
2266.28,0.27795
2260.49,0.27620
2254.7,0.27544
2248.92,0.27453
2243.13,0.27365
2237.34,0.27291
2231.56,0.27228
2225.77,0.27171
2219.99,0.27191
2214.2,0.27181
2208.41,0.27082
2202.63,0.26959
2196.84,0.26794
2191.05,0.26522
2185.27,0.26195
2179.48,0.25871
2173.7,0.25512
2167.91,0.25197
2162.12,0.24975
2156.34,0.24778
2150.55,0.24608
2144.76,0.24466
2138.98,0.24378
2133.19,0.24372
2127.41,0.24414
2121.62,0.24486
2115.83,0.24612
2110.05,0.24708
2104.26,0.24826
2098.47,0.24888
2092.69,0.24905
2086.9,0.24940
2081.12,0.24855
2075.33,0.24743
2069.54,0.24631
2063.76,0.24511
2057.97,0.24447
2052.19,0.24458
2046.4,0.24551
2040.61,0.24833
2034.83,0.25082
2029.04,0.25368
2023.25,0.25741
2017.47,0.26044
2011.68,0.26330
2005.9,0.26507
2000.11,0.26693
1994.32,0.26883
1988.54,0.27059
1982.75,0.27210
1976.96,0.27341
1971.18,0.27474
1965.39,0.27650
1959.61,0.27918
1953.82,0.28184
1948.03,0.28500
1942.25,0.28825
1936.46,0.29082
1930.67,0.29216
1924.89,0.29358
1919.1,0.29398
1913.32,0.29400
1907.53,0.29378
1901.74,0.29258
1895.96,0.29188
1890.17,0.29141
1884.38,0.29070
1878.6,0.29021
1872.81,0.28974
1867.03,0.28998
1861.24,0.28873
1855.45,0.28767
1849.67,0.28627
1843.88,0.28420
1838.09,0.28187
1832.31,0.27929
1826.52,0.27583
1820.74,0.27136
1814.95,0.26659
1809.16,0.26135
1803.38,0.25504
1797.59,0.24769
1791.8,0.23839
1786.02,0.22715
1780.23,0.21280
1774.45,0.19550
1768.66,0.17219
1762.87,0.14713
1757.09,0.12324
1751.3,0.10705
1745.51,0.09676
1739.73,0.09157
1733.94,0.09158
1728.16,0.09501
1722.37,0.10065
1716.58,0.10853
1710.8,0.11609
1705.01,0.12337
1699.22,0.12626
1693.44,0.12473
1687.65,0.12130
1681.87,0.11343
1676.08,0.10566
1670.29,0.09757
1664.51,0.09195
1658.72,0.08923
1652.93,0.08966
1647.15,0.08900
1641.36,0.08654
1635.58,0.08729
1629.79,0.08851
1624,0.08770
1618.22,0.08669
1612.43,0.08333
1606.64,0.08153
1600.86,0.08178
1595.07,0.08216
1589.29,0.08452
1583.5,0.09138
1577.71,0.10315
1571.93,0.11862
1566.14,0.13103
1560.35,0.13799
1554.57,0.14001
1548.78,0.13859
1543,0.13511
1537.21,0.12589
1531.42,0.11164
1525.64,0.09203
1519.85,0.06968
1514.07,0.05881
1508.28,0.05933
1502.49,0.06586
1496.71,0.07410
1490.92,0.07872
1485.13,0.07796
1479.35,0.07352
1473.56,0.06642
1467.78,0.05959
1461.99,0.05855
1456.2,0.05775
1450.42,0.05839
1444.63,0.06001
1438.84,0.05841
1433.06,0.05579
1427.27,0.05549
1421.49,0.05774
1415.7,0.06047
1409.91,0.06298
1404.13,0.06360
1398.34,0.06301
1392.55,0.06059
1386.77,0.05687
1380.98,0.05361
1375.2,0.05291
1369.41,0.05422
1363.62,0.05618
1357.84,0.05771
1352.05,0.05873
1346.26,0.05821
1340.48,0.05716
1334.69,0.05671
1328.91,0.05655
1323.12,0.05555
1317.33,0.05545
1311.55,0.05708
1305.76,0.05810
1299.97,0.05792
1294.19,0.05590
1288.4,0.05375
1282.62,0.05150
1276.83,0.05056
1271.04,0.05053
1265.26,0.05144
1259.47,0.05336
1253.68,0.05445
1247.9,0.05491
1242.11,0.05438
1236.33,0.05389
1230.54,0.05418
1224.75,0.05454
1218.97,0.05462
1213.18,0.05434
1207.39,0.05409
1201.61,0.05461
1195.82,0.05483
1190.04,0.05322
1184.25,0.05050
1178.46,0.04719
1172.68,0.04562
1166.89,0.04909
1161.1,0.05198
1155.32,0.05147
1149.53,0.04965
1143.75,0.04663
1137.96,0.04386
1132.17,0.04233
1126.39,0.04279
1120.6,0.04430
1114.81,0.04628
1109.03,0.04932
1103.24,0.05022
1097.46,0.04985
1091.67,0.04864
1085.88,0.04987
1080.1,0.05289
1074.31,0.05826
1068.52,0.06478
1062.74,0.07357
1056.95,0.07955
1051.17,0.07838
1045.38,0.07456
1039.59,0.07613
1033.81,0.08313
1028.02,0.08526
1022.24,0.08589
1016.45,0.08777
1010.66,0.08952
1004.88,0.09026
999.09,0.09317
993.304,0.09606
987.518,0.10036
981.731,0.10911
975.945,0.11364
970.159,0.11468
964.373,0.11585
958.586,0.11849
952.8,0.12284
947.014,0.12530
941.228,0.12626
935.441,0.12895
929.655,0.13190
923.869,0.13295
918.083,0.13067
912.297,0.12566
906.51,0.11783
900.724,0.11207
894.938,0.11170
889.152,0.11610
883.365,0.11877
877.579,0.11882
871.793,0.11769
866.007,0.11703
860.22,0.11888
854.434,0.12191
848.648,0.12608
842.862,0.12838
837.075,0.12608
831.289,0.12236
825.503,0.11812
819.717,0.11273
813.931,0.10676
808.144,0.10703
802.358,0.10894
796.572,0.11027
790.786,0.11081
784.999,0.10872
779.213,0.10549
773.427,0.10193
767.641,0.10126
761.854,0.09970
756.068,0.09692
750.282,0.09569
744.496,0.09556
738.709,0.09431
732.923,0.09193
727.137,0.08996
721.351,0.08871
715.565,0.08619
709.778,0.08512
703.992,0.08336
698.206,0.08286
692.42,0.08166
686.633,0.07988
680.847,0.07653
675.061,0.07561
669.275,0.07559
663.488,0.07757
657.702,0.07875
651.916,0.07786
646.13,0.07797
640.343,0.07557
634.557,0.07561
628.771,0.07449
622.985,0.07432
617.198,0.07543
611.412,0.07757
605.626,0.08002
599.84,0.08088