File: 01_Data/Pine_Siding/FTIR/IS/Pine_Siding_IS_S_220916_R6.dpt
7497.03,0.83442
7491.25,0.83168
7485.46,0.82531
7479.67,0.83295
7473.89,0.83346
7468.1,0.82735
7462.32,0.82957
7456.53,0.82466
7450.74,0.81693
7444.96,0.82022
7439.17,0.82282
7433.38,0.81948
7427.6,0.80930
7421.81,0.80918
7416.03,0.81240
7410.24,0.81662
7404.45,0.81028
7398.67,0.79595
7392.88,0.79409
7387.09,0.79492
7381.31,0.79516
7375.52,0.78852
7369.74,0.78898
7363.95,0.78094
7358.16,0.78363
7352.38,0.79302
7346.59,0.77927
7340.8,0.78187
7335.02,0.77823
7329.23,0.76701
7323.45,0.77047
7317.66,0.77175
7311.87,0.77869
7306.09,0.77298
7300.3,0.77095
7294.51,0.77357
7288.73,0.77376
7282.94,0.76362
7277.16,0.76551
7271.37,0.76269
7265.58,0.76470
7259.8,0.77205
7254.01,0.76993
7248.22,0.76515
7242.44,0.76254
7236.65,0.76725
7230.87,0.76684
7225.08,0.75899
7219.29,0.75633
7213.51,0.76803
7207.72,0.76427
7201.93,0.75353
7196.15,0.75177
7190.36,0.75310
7184.58,0.75226
7178.79,0.75040
7173,0.74286
7167.22,0.74060
7161.43,0.73996
7155.65,0.74273
7149.86,0.73294
7144.07,0.73634
7138.29,0.73846
7132.5,0.72097
7126.71,0.72287
7120.93,0.71634
7115.14,0.71387
7109.36,0.70829
7103.57,0.70031
7097.78,0.69501
7092,0.69257
7086.21,0.68544
7080.42,0.68110
7074.64,0.67181
7068.85,0.66951
7063.07,0.66175
7057.28,0.66289
7051.49,0.65376
7045.71,0.64914
7039.92,0.63655
7034.13,0.63580
7028.35,0.63298
7022.56,0.62541
7016.78,0.61853
7010.99,0.61467
7005.2,0.60518
6999.42,0.60663
6993.63,0.60743
6987.84,0.60336
6982.06,0.60458
6976.27,0.60344
6970.49,0.59976
6964.7,0.60332
6958.91,0.59001
6953.13,0.59776
6947.34,0.59384
6941.55,0.58816
6935.77,0.58398
6929.98,0.58530
6924.2,0.59214
6918.41,0.58302
6912.62,0.58948
6906.84,0.58833
6901.05,0.58742
6895.26,0.58436
6889.48,0.58733
6883.69,0.58796
6877.91,0.58789
6872.12,0.58341
6866.33,0.58374
6860.55,0.58999
6854.76,0.58641
6848.97,0.58445
6843.19,0.58749
6837.4,0.58835
6831.62,0.58123
6825.83,0.58487
6820.04,0.58368
6814.26,0.58261
6808.47,0.58345
6802.68,0.58805
6796.9,0.58374
6791.11,0.58551
6785.33,0.58422
6779.54,0.58231
6773.75,0.58076
6767.97,0.58637
6762.18,0.59000
6756.39,0.58435
6750.61,0.58468
6744.82,0.58577
6739.04,0.58737
6733.25,0.59200
6727.46,0.58799
6721.68,0.59070
6715.89,0.59184
6710.1,0.58749
6704.32,0.58444
6698.53,0.58884
6692.75,0.59174
6686.96,0.59254
6681.17,0.59131
6675.39,0.59756
6669.6,0.59652
6663.82,0.59319
6658.03,0.60072
6652.24,0.59568
6646.46,0.59728
6640.67,0.60214
6634.88,0.59821
6629.1,0.60384
6623.31,0.60407
6617.53,0.60466
6611.74,0.60549
6605.95,0.60692
6600.17,0.60275
6594.38,0.60667
6588.59,0.60468
6582.81,0.60575
6577.02,0.60854
6571.24,0.61024
6565.45,0.61282
6559.66,0.60820
6553.88,0.61060
6548.09,0.61510
6542.3,0.61111
6536.52,0.61131
6530.73,0.61763
6524.95,0.61964
6519.16,0.61527
6513.37,0.61884
6507.59,0.61413
6501.8,0.61457
6496.01,0.61973
6490.23,0.61438
6484.44,0.61684
6478.66,0.61645
6472.87,0.61581
6467.08,0.61795
6461.3,0.62087
6455.51,0.61931
6449.72,0.62114
6443.94,0.62074
6438.15,0.61895
6432.37,0.62127
6426.58,0.62314
6420.79,0.62196
6415.01,0.62432
6409.22,0.62392
6403.43,0.62830
6397.65,0.62442
6391.86,0.62698
6386.08,0.62353
6380.29,0.62605
6374.5,0.62732
6368.72,0.62526
6362.93,0.62717
6357.14,0.62514
6351.36,0.63310
6345.57,0.63146
6339.79,0.62618
6334,0.62721
6328.21,0.63277
6322.43,0.62828
6316.64,0.63006
6310.85,0.63213
6305.07,0.63059
6299.28,0.63194
6293.5,0.63427
6287.71,0.63433
6281.92,0.63688
6276.14,0.63874
6270.35,0.64045
6264.56,0.64167
6258.78,0.64531
6252.99,0.64665
6247.21,0.64736
6241.42,0.64827
6235.63,0.65153
6229.85,0.65120
6224.06,0.65198
6218.27,0.65955
6212.49,0.66020
6206.7,0.65979
6200.92,0.66323
6195.13,0.66417
6189.34,0.67088
6183.56,0.66860
6177.77,0.67171
6171.98,0.66863
6166.2,0.66933
6160.41,0.67418
6154.63,0.67584
6148.84,0.67591
6143.05,0.67800
6137.27,0.67648
6131.48,0.67622
6125.7,0.68103
6119.91,0.67927
6114.12,0.67841
6108.34,0.68432
6102.55,0.68191
6096.76,0.68419
6090.98,0.68222
6085.19,0.68377
6079.41,0.68313
6073.62,0.68353
6067.83,0.68183
6062.05,0.68202
6056.26,0.68084
6050.47,0.68552
6044.69,0.68024
6038.9,0.67627
6033.12,0.67907
6027.33,0.67334
6021.54,0.67180
6015.76,0.67181
6009.97,0.67023
6004.18,0.66708
5998.4,0.66677
5992.61,0.66762
5986.83,0.66075
5981.04,0.66116
5975.25,0.66284
5969.47,0.66045
5963.68,0.65802
5957.89,0.66165
5952.11,0.66145
5946.32,0.66204
5940.54,0.66395
5934.75,0.66289
5928.96,0.66358
5923.18,0.66590
5917.39,0.66447
5911.6,0.66211
5905.82,0.65872
5900.03,0.65845
5894.25,0.65595
5888.46,0.65890
5882.67,0.65846
5876.89,0.65735
5871.1,0.65654
5865.31,0.65585
5859.53,0.65637
5853.74,0.65782
5847.96,0.65686
5842.17,0.65695
5836.38,0.65354
5830.6,0.65599
5824.81,0.65397
5819.02,0.65251
5813.24,0.65439
5807.45,0.65269
5801.67,0.65213
5795.88,0.65064
5790.09,0.65096
5784.31,0.65144
5778.52,0.65281
5772.73,0.65419
5766.95,0.65410
5761.16,0.65661
5755.38,0.65619
5749.59,0.65575
5743.8,0.65756
5738.02,0.65354
5732.23,0.65541
5726.44,0.65416
5720.66,0.65556
5714.87,0.65367
5709.09,0.65436
5703.3,0.65251
5697.51,0.65228
5691.73,0.65349
5685.94,0.64951
5680.15,0.65299
5674.37,0.65231
5668.58,0.65163
5662.8,0.65099
5657.01,0.65084
5651.22,0.65018
5645.44,0.65028
5639.65,0.65149
5633.87,0.65153
5628.08,0.65136
5622.29,0.65096
5616.51,0.65268
5610.72,0.65186
5604.93,0.65244
5599.15,0.65031
5593.36,0.65192
5587.58,0.64985
5581.79,0.65305
5576,0.65418
5570.22,0.65271
5564.43,0.65301
5558.64,0.65524
5552.86,0.65557
5547.07,0.65404
5541.29,0.65596
5535.5,0.65754
5529.71,0.65760
5523.93,0.65713
5518.14,0.65626
5512.35,0.65746
5506.57,0.65798
5500.78,0.65774
5495,0.65875
5489.21,0.65875
5483.42,0.65793
5477.64,0.65862
5471.85,0.66133
5466.06,0.66177
5460.28,0.66260
5454.49,0.66179
5448.71,0.66362
5442.92,0.66659
5437.13,0.66470
5431.35,0.66851
5425.56,0.67038
5419.77,0.67129
5413.99,0.67335
5408.2,0.67507
5402.42,0.67404
5396.63,0.67575
5390.84,0.67426
5385.06,0.67546
5379.27,0.67620
5373.48,0.67535
5367.7,0.67507
5361.91,0.67672
5356.13,0.67582
5350.34,0.67542
5344.55,0.67478
5338.77,0.67156
5332.98,0.66821
5327.19,0.66592
5321.41,0.66403
5315.62,0.65928
5309.84,0.65503
5304.05,0.64880
5298.26,0.64341
5292.48,0.63629
5286.69,0.62531
5280.9,0.61577
5275.12,0.60579
5269.33,0.59436
5263.55,0.58258
5257.76,0.57241
5251.97,0.56324
5246.19,0.55074
5240.4,0.54197
5234.61,0.53398
5228.83,0.52921
5223.04,0.52437
5217.26,0.52115
5211.47,0.51644
5205.68,0.51301
5199.9,0.51138
5194.11,0.51116
5188.32,0.51071
5182.54,0.51142
5176.75,0.51289
5170.97,0.51417
5165.18,0.51630
5159.39,0.51803
5153.61,0.52175
5147.82,0.52390
5142.03,0.52876
5136.25,0.53123
5130.46,0.53338
5124.68,0.53623
5118.89,0.53974
5113.1,0.54440
5107.32,0.54634
5101.53,0.54882
5095.75,0.55167
5089.96,0.55388
5084.17,0.55741
5078.39,0.55998
5072.6,0.56349
5066.81,0.56571
5061.03,0.56843
5055.24,0.56994
5049.46,0.57272
5043.67,0.57703
5037.88,0.57772
5032.1,0.58037
5026.31,0.58206
5020.52,0.58175
5014.74,0.58190
5008.95,0.58378
5003.17,0.58350
4997.38,0.58373
4991.59,0.58407
4985.81,0.58235
4980.02,0.57980
4974.23,0.57749
4968.45,0.57358
4962.66,0.57105
4956.88,0.56569
4951.09,0.56100
4945.3,0.55583
4939.52,0.55038
4933.73,0.54360
4927.94,0.53730
4922.16,0.53133
4916.37,0.52684
4910.59,0.52179
4904.8,0.51493
4899.01,0.50982
4893.23,0.50378
4887.44,0.49823
4881.65,0.49257
4875.87,0.48661
4870.08,0.48221
4864.3,0.47867
4858.51,0.47336
4852.72,0.46909
4846.94,0.46343
4841.15,0.46061
4835.36,0.45595
4829.58,0.45339
4823.79,0.44948
4818.01,0.44675
4812.22,0.44432
4806.43,0.44328
4800.65,0.44075
4794.86,0.43892
4789.07,0.43753
4783.29,0.43696
4777.5,0.43617
4771.72,0.43467
4765.93,0.43375
4760.14,0.43392
4754.36,0.43391
4748.57,0.43275
4742.78,0.43211
4737,0.43351
4731.21,0.43312
4725.43,0.43439
4719.64,0.43585
4713.85,0.43696
4708.07,0.43702
4702.28,0.43772
4696.49,0.43907
4690.71,0.44007
4684.92,0.44069
4679.14,0.44153
4673.35,0.44191
4667.56,0.44476
4661.78,0.44810
4655.99,0.45046
4650.2,0.45370
4644.42,0.45460
4638.63,0.45769
4632.85,0.45977
4627.06,0.46342
4621.27,0.46610
4615.49,0.46969
4609.7,0.47375
4603.92,0.47853
4598.13,0.47983
4592.34,0.48315
4586.56,0.48581
4580.77,0.48851
4574.98,0.49083
4569.2,0.49196
4563.41,0.49409
4557.63,0.49682
4551.84,0.49875
4546.05,0.49978
4540.27,0.50180
4534.48,0.50182
4528.69,0.50345
4522.91,0.50462
4517.12,0.50462
4511.34,0.50476
4505.55,0.50406
4499.76,0.50341
4493.98,0.49980
4488.19,0.49688
4482.4,0.49299
4476.62,0.48756
4470.83,0.48194
4465.05,0.47582
4459.26,0.46960
4453.47,0.46162
4447.69,0.45535
4441.9,0.44751
4436.11,0.43983
4430.33,0.43179
4424.54,0.42280
4418.76,0.41427
4412.97,0.40846
4407.18,0.40306
4401.4,0.40019
4395.61,0.39954
4389.82,0.39998
4384.04,0.40198
4378.25,0.40480
4372.47,0.40779
4366.68,0.41057
4360.89,0.41333
4355.11,0.41377
4349.32,0.41366
4343.53,0.41239
4337.75,0.41193
4331.96,0.41039
4326.18,0.40768
4320.39,0.40551
4314.6,0.40284
4308.82,0.40039
4303.03,0.39715
4297.24,0.39476
4291.46,0.39292
4285.67,0.39139
4279.89,0.39129
4274.1,0.39095
4268.31,0.39093
4262.53,0.39293
4256.74,0.39428
4250.95,0.39615
4245.17,0.39640
4239.38,0.39746
4233.6,0.39775
4227.81,0.39811
4222.02,0.39820
4216.24,0.39724
4210.45,0.39730
4204.66,0.39795
4198.88,0.39861
4193.09,0.39880
4187.31,0.39946
4181.52,0.40114
4175.73,0.40200
4169.95,0.40347
4164.16,0.40526
4158.37,0.40654
4152.59,0.40422
4146.8,0.40253
4141.02,0.40074
4135.23,0.39768
4129.44,0.39464
4123.66,0.39007
4117.87,0.38516
4112.09,0.38040
4106.3,0.37628
4100.51,0.37088
4094.73,0.36444
4088.94,0.35912
4083.15,0.35313
4077.37,0.34672
4071.58,0.34098
4065.8,0.33512
4060.01,0.32920
4054.22,0.32404
4048.44,0.31917
4042.65,0.31467
4036.86,0.31155
4031.08,0.30852
4025.29,0.30661
4019.51,0.30398
4013.72,0.30332
4007.93,0.30381
4002.15,0.30487
3996.36,0.30537
3990.57,0.30701
3984.79,0.30885
3979,0.31060
3973.22,0.31264
3967.43,0.31480
3961.64,0.31726
3955.86,0.32003
3950.07,0.32306
3944.28,0.32571
3938.5,0.32881
3932.71,0.33186
3926.93,0.33456
3921.14,0.33781
3915.35,0.34071
3909.57,0.34329
3903.78,0.34515
3897.99,0.34811
3892.21,0.35051
3886.42,0.35302
3880.64,0.35447
3874.85,0.35581
3869.06,0.35825
3863.28,0.36171
3857.49,0.36405
3851.7,0.36724
3845.92,0.36910
3840.13,0.37134
3834.35,0.37271
3828.56,0.37348
3822.77,0.37338
3816.99,0.37332
3811.2,0.37342
3805.41,0.37355
3799.63,0.37320
3793.84,0.37334
3788.06,0.37273
3782.27,0.37211
3776.48,0.37084
3770.7,0.37084
3764.91,0.36943
3759.12,0.36801
3753.34,0.36623
3747.55,0.36350
3741.77,0.36047
3735.98,0.35760
3730.19,0.35262
3724.41,0.34863
3718.62,0.34287
3712.83,0.33650
3707.05,0.32888
3701.26,0.32052
3695.48,0.31020
3689.69,0.29884
3683.9,0.28300
3678.12,0.26752
3672.33,0.24912
3666.54,0.23055
3660.76,0.21327
3654.97,0.19684
3649.19,0.18252
3643.4,0.16941
3637.61,0.15783
3631.83,0.14763
3626.04,0.13664
3620.25,0.12766
3614.47,0.11964
3608.68,0.11109
3602.9,0.10326
3597.11,0.09654
3591.32,0.09034
3585.54,0.08522
3579.75,0.07980
3573.97,0.07637
3568.18,0.07284
3562.39,0.06928
3556.61,0.06701
3550.82,0.06387
3545.03,0.06262
3539.25,0.06030
3533.46,0.05863
3527.68,0.05734
3521.89,0.05521
3516.1,0.05422
3510.32,0.05293
3504.53,0.05147
3498.74,0.05109
3492.96,0.04935
3487.17,0.04852
3481.39,0.04848
3475.6,0.04765
3469.81,0.04673
3464.03,0.04676
3458.24,0.04614
3452.45,0.04634
3446.67,0.04616
3440.88,0.04627
3435.1,0.04588
3429.31,0.04574
3423.52,0.04512
3417.74,0.04553
3411.95,0.04614
3406.16,0.04643
3400.38,0.04601
3394.59,0.04612
3388.81,0.04637
3383.02,0.04677
3377.23,0.04677
3371.45,0.04716
3365.66,0.04750
3359.87,0.04751
3354.09,0.04863
3348.3,0.04901
3342.52,0.05006
3336.73,0.05112
3330.94,0.05162
3325.16,0.05295
3319.37,0.05334
3313.58,0.05412
3307.8,0.05479
3302.01,0.05479
3296.23,0.05549
3290.44,0.05709
3284.65,0.05805
3278.87,0.05870
3273.08,0.06002
3267.29,0.06102
3261.51,0.06182
3255.72,0.06323
3249.94,0.06471
3244.15,0.06565
3238.36,0.06693
3232.58,0.06869
3226.79,0.06972
3221,0.07325
3215.22,0.07342
3209.43,0.07499
3203.65,0.07733
3197.86,0.07966
3192.07,0.08102
3186.29,0.08301
3180.5,0.08460
3174.71,0.08735
3168.93,0.08868
3163.14,0.09044
3157.36,0.09302
3151.57,0.09483
3145.78,0.09664
3140,0.09948
3134.21,0.10161
3128.42,0.10295
3122.64,0.10507
3116.85,0.10752
3111.07,0.10959
3105.28,0.11122
3099.49,0.11414
3093.71,0.11468
3087.92,0.11655
3082.14,0.11776
3076.35,0.11875
3070.56,0.12021
3064.78,0.12201
3058.99,0.12380
3053.2,0.12538
3047.42,0.12722
3041.63,0.12821
3035.85,0.12909
3030.06,0.12915
3024.27,0.12874
3018.49,0.12809
3012.7,0.12525
3006.91,0.12284
3001.13,0.11973
2995.34,0.11794
2989.56,0.11440
2983.77,0.10940
2977.98,0.10213
2972.2,0.09426
2966.41,0.08897
2960.62,0.08527
2954.84,0.08210
2949.05,0.07875
2943.27,0.07638
2937.48,0.07439
2931.69,0.07369
2925.91,0.07369
2920.12,0.07349
2914.33,0.07362
2908.55,0.07315
2902.76,0.07386
2896.98,0.07535
2891.19,0.07676
2885.4,0.07780
2879.62,0.07913
2873.83,0.08006
2868.04,0.08259
2862.26,0.08501
2856.47,0.08712
2850.69,0.08971
2844.9,0.09448
2839.11,0.09892
2833.33,0.10486
2827.54,0.11138
2821.75,0.11761
2815.97,0.12371
2810.18,0.12832
2804.4,0.13244
2798.61,0.13586
2792.82,0.13914
2787.04,0.14125
2781.25,0.14253
2775.46,0.14445
2769.68,0.14546
2763.89,0.14625
2758.11,0.14706
2752.32,0.14753
2746.53,0.14757
2740.75,0.14813
2734.96,0.14784
2729.17,0.14919
2723.39,0.15052
2717.6,0.15239
2711.82,0.15440
2706.03,0.15657
2700.24,0.15894
2694.46,0.16132
2688.67,0.16355
2682.88,0.16574
2677.1,0.16743
2671.31,0.16903
2665.53,0.17031
2659.74,0.17156
2653.95,0.17275
2648.17,0.17415
2642.38,0.17573
2636.59,0.17750
2630.81,0.17942
2625.02,0.18135
2619.24,0.18310
2613.45,0.18506
2607.66,0.18640
2601.88,0.18805
2596.09,0.18909
2590.3,0.19085
2584.52,0.19200
2578.73,0.19350
2572.95,0.19431
2567.16,0.19435
2561.37,0.19482
2555.59,0.19537
2549.8,0.19546
2544.02,0.19594
2538.23,0.19692
2532.44,0.19844
2526.66,0.20038
2520.87,0.20184
2515.08,0.20313
2509.3,0.20525
2503.51,0.20814
2497.73,0.21084
2491.94,0.21331
2486.15,0.21588
2480.37,0.21806
2474.58,0.22039
2468.79,0.22298
2463.01,0.22520
2457.22,0.22725
2451.44,0.22987
2445.65,0.23217
2439.86,0.23452
2434.08,0.23772
2428.29,0.24054
2422.5,0.24366
2416.72,0.24662
2410.93,0.24963
2405.15,0.25282
2399.36,0.25585
2393.57,0.25844
2387.79,0.26112
2382,0.26359
2376.21,0.26632
2370.43,0.26895
2364.64,0.27137
2358.86,0.27333
2353.07,0.27464
2347.28,0.27626
2341.5,0.27816
2335.71,0.27886
2329.92,0.28042
2324.14,0.28086
2318.35,0.28143
2312.57,0.28198
2306.78,0.28213
2300.99,0.28120
2295.21,0.28068
2289.42,0.28066
2283.63,0.28019
2277.85,0.27992
2272.06,0.27878
2266.28,0.27659
2260.49,0.27467
2254.7,0.27408
2248.92,0.27301
2243.13,0.27237
2237.34,0.27181
2231.56,0.27080
2225.77,0.27086
2219.99,0.27074
2214.2,0.27088
2208.41,0.26998
2202.63,0.26855
2196.84,0.26623
2191.05,0.26378
2185.27,0.26043
2179.48,0.25720
2173.7,0.25364
2167.91,0.25085
2162.12,0.24780
2156.34,0.24632
2150.55,0.24443
2144.76,0.24340
2138.98,0.24249
2133.19,0.24220
2127.41,0.24315
2121.62,0.24402
2115.83,0.24495
2110.05,0.24558
2104.26,0.24634
2098.47,0.24731
2092.69,0.24797
2086.9,0.24787
2081.12,0.24721
2075.33,0.24612
2069.54,0.24455
2063.76,0.24361
2057.97,0.24319
2052.19,0.24350
2046.4,0.24463
2040.61,0.24645
2034.83,0.24898
2029.04,0.25255
2023.25,0.25564
2017.47,0.25914
2011.68,0.26178
2005.9,0.26402
2000.11,0.26540
1994.32,0.26778
1988.54,0.26904
1982.75,0.27102
1976.96,0.27182
1971.18,0.27350
1965.39,0.27492
1959.61,0.27739
1953.82,0.28036
1948.03,0.28348
1942.25,0.28670
1936.46,0.28932
1930.67,0.29107
1924.89,0.29224
1919.1,0.29297
1913.32,0.29279
1907.53,0.29243
1901.74,0.29150
1895.96,0.29039
1890.17,0.28972
1884.38,0.28930
1878.6,0.28887
1872.81,0.28860
1867.03,0.28862
1861.24,0.28749
1855.45,0.28654
1849.67,0.28511
1843.88,0.28300
1838.09,0.28034
1832.31,0.27783
1826.52,0.27451
1820.74,0.27061
1814.95,0.26574
1809.16,0.26008
1803.38,0.25386
1797.59,0.24626
1791.8,0.23806
1786.02,0.22681
1780.23,0.21252
1774.45,0.19554
1768.66,0.17188
1762.87,0.14722
1757.09,0.12372
1751.3,0.10696
1745.51,0.09649
1739.73,0.09140
1733.94,0.09076
1728.16,0.09442
1722.37,0.10016
1716.58,0.10786
1710.8,0.11578
1705.01,0.12272
1699.22,0.12544
1693.44,0.12396
1687.65,0.12049
1681.87,0.11303
1676.08,0.10486
1670.29,0.09684
1664.51,0.09114
1658.72,0.08856
1652.93,0.08910
1647.15,0.08843
1641.36,0.08645
1635.58,0.08680
1629.79,0.08806
1624,0.08785
1618.22,0.08656
1612.43,0.08284
1606.64,0.08118
1600.86,0.08124
1595.07,0.08208
1589.29,0.08447
1583.5,0.09127
1577.71,0.10320
1571.93,0.11815
1566.14,0.12958
1560.35,0.13729
1554.57,0.13943
1548.78,0.13830
1543,0.13475
1537.21,0.12603
1531.42,0.11116
1525.64,0.09124
1519.85,0.06948
1514.07,0.05918
1508.28,0.05968
1502.49,0.06608
1496.71,0.07392
1490.92,0.07824
1485.13,0.07771
1479.35,0.07361
1473.56,0.06629
1467.78,0.06007
1461.99,0.05860
1456.2,0.05749
1450.42,0.05791
1444.63,0.05978
1438.84,0.05875
1433.06,0.05570
1427.27,0.05564
1421.49,0.05734
1415.7,0.06073
1409.91,0.06309
1404.13,0.06358
1398.34,0.06285
1392.55,0.06106
1386.77,0.05675
1380.98,0.05342
1375.2,0.05313
1369.41,0.05445
1363.62,0.05600
1357.84,0.05719
1352.05,0.05907
1346.26,0.05851
1340.48,0.05732
1334.69,0.05658
1328.91,0.05668
1323.12,0.05566
1317.33,0.05576
1311.55,0.05724
1305.76,0.05812
1299.97,0.05755
1294.19,0.05621
1288.4,0.05386
1282.62,0.05128
1276.83,0.05050
1271.04,0.05049
1265.26,0.05155
1259.47,0.05318
1253.68,0.05406
1247.9,0.05468
1242.11,0.05461
1236.33,0.05395
1230.54,0.05358
1224.75,0.05479
1218.97,0.05517
1213.18,0.05452
1207.39,0.05438
1201.61,0.05441
1195.82,0.05470
1190.04,0.05328
1184.25,0.05076
1178.46,0.04701
1172.68,0.04567
1166.89,0.04872
1161.1,0.05140
1155.32,0.05123
1149.53,0.04966
1143.75,0.04742
1137.96,0.04491
1132.17,0.04188
1126.39,0.04271
1120.6,0.04383
1114.81,0.04510
1109.03,0.04924
1103.24,0.05059
1097.46,0.04998
1091.67,0.04909
1085.88,0.04886
1080.1,0.05298
1074.31,0.05790
1068.52,0.06477
1062.74,0.07415
1056.95,0.07921
1051.17,0.07841
1045.38,0.07434
1039.59,0.07603
1033.81,0.08297
1028.02,0.08475
1022.24,0.08597
1016.45,0.08718
1010.66,0.08904
1004.88,0.08979
999.09,0.09335
993.304,0.09489
987.518,0.10034
981.731,0.10839
975.945,0.11417
970.159,0.11521
964.373,0.11587
958.586,0.11895
952.8,0.12234
947.014,0.12488
941.228,0.12639
935.441,0.12846
929.655,0.13148
923.869,0.13333
918.083,0.13039
912.297,0.12450
906.51,0.11766
900.724,0.11149
894.938,0.11120
889.152,0.11611
883.365,0.11911
877.579,0.11872
871.793,0.11879
866.007,0.11721
860.22,0.11840
854.434,0.12116
848.648,0.12514
842.862,0.12789
837.075,0.12522
831.289,0.12116
825.503,0.11780
819.717,0.11237
813.931,0.10675
808.144,0.10643
802.358,0.10867
796.572,0.11016
790.786,0.11031
784.999,0.10913
779.213,0.10575
773.427,0.10262
767.641,0.10112
761.854,0.09895
756.068,0.09664
750.282,0.09579
744.496,0.09422
738.709,0.09341
732.923,0.09250
727.137,0.08948
721.351,0.08771
715.565,0.08631
709.778,0.08554
703.992,0.08261
698.206,0.08141
692.42,0.08029
686.633,0.07966
680.847,0.07636
675.061,0.07574
669.275,0.07707
663.488,0.07622
657.702,0.07806
651.916,0.07827
646.13,0.07692
640.343,0.07627
634.557,0.07513
628.771,0.07380
622.985,0.07550
617.198,0.07621
611.412,0.07699
605.626,0.08001
599.84,0.07929