File: 01_Data/Bamboo_Rug_Bamboo/MCC/Bamboo_Rug_Bamboo_MCC_30K_min_211124_R2.txt
Sample ID:	C:\MCC\MCC Cal\Test\Bamboo_RugA_MCC_30K_min_211124_R2.txt
Sample Weight (mg):	4.67
Heating Rate (C/s):	0.5
Combustor Temp (C):	900
N2 Flow Rate (cc/min):	80
O2 Flow Rate (cc/min):	20
Calibration File:	C:\MCC\MCC Cal\Coeff1 JN10440_30_210304.txt.txt
T Correction Coefficients:	0	1.024463	0
Time Shift (s):	14
*
Time (s)	Temperature (C)	N2 flow rate (cc/min)	O2 flow rate (cc/min)	Flow Rate (cc/min)	Oxygen (%)	HRR (W/g)	Heating rate (C/s)
-0.001	108.987	80.009	19.998	103.115	20.144	-0.039	-0.000
2.000	108.995	80.007	19.996	103.121	20.149	-0.422	-0.029
4.000	108.970	80.008	19.994	103.100	20.145	-0.123	-0.010
6.000	108.951	80.007	19.994	103.112	20.146	-0.212	-0.024
8.000	108.947	80.007	19.995	103.104	20.147	-0.283	0.000
10.000	108.951	80.008	19.994	103.109	20.144	-0.041	0.011
12.000	108.944	80.008	19.993	103.117	20.141	0.141	-0.011
14.000	108.947	80.006	19.994	103.149	20.139	0.268	-0.005
16.000	108.993	80.008	19.993	103.169	20.134	0.671	0.041
18.000	108.997	80.008	19.994	103.200	20.133	0.715	0.022
20.000	109.094	80.008	19.993	103.219	20.128	1.063	0.034
22.000	109.142	80.008	19.994	103.253	20.125	1.277	0.027
24.000	109.262	80.008	19.993	103.279	20.126	1.223	0.059
26.000	109.408	80.008	19.993	103.247	20.129	1.007	0.061
28.000	109.546	80.010	19.995	103.130	20.135	0.565	0.079
30.000	109.712	80.011	19.995	103.095	20.137	0.412	0.082
32.000	109.863	80.010	19.994	103.093	20.139	0.329	0.089
33.999	109.973	80.008	19.994	103.097	20.143	0.006	0.103
36.000	110.063	80.008	19.994	103.094	20.140	0.240	0.048
37.999	110.148	80.007	19.994	103.088	20.148	-0.323	0.025
40.001	110.213	80.005	19.995	103.089	20.145	-0.097	0.045
42.000	110.297	80.006	19.994	103.089	20.145	-0.134	0.035
43.999	110.399	80.006	19.994	103.088	20.146	-0.193	0.039
45.999	110.427	80.006	19.995	103.089	20.141	0.182	0.034
47.999	110.484	80.005	19.994	103.094	20.142	0.067	0.024
50.001	110.536	80.005	19.995	103.089	20.144	-0.052	0.012
51.999	110.548	80.006	19.996	103.090	20.144	-0.076	0.018
54.001	110.611	80.005	19.995	103.092	20.146	-0.204	0.015
55.999	110.636	80.005	19.994	103.094	20.147	-0.229	0.009
58.000	110.680	80.004	19.995	103.092	20.146	-0.169	0.019
59.999	110.679	80.004	19.996	103.091	20.145	-0.123	0.005
61.999	110.722	80.005	19.998	103.093	20.147	-0.238	0.010
64.000	110.754	80.006	19.996	103.091	20.145	-0.097	0.006
65.999	110.746	80.004	19.997	103.090	20.149	-0.420	-0.009
68.001	110.806	80.004	19.994	103.089	20.147	-0.253	0.040
70.000	110.788	80.004	19.995	103.091	20.149	-0.379	-0.004
71.999	110.782	80.004	19.996	103.093	20.151	-0.541	-0.015
74.000	110.773	80.005	19.995	103.093	20.149	-0.414	-0.009
75.999	110.810	80.005	19.994	103.094	20.149	-0.362	0.028
77.999	110.808	80.006	19.995	103.092	20.147	-0.242	0.010
79.999	110.787	80.005	19.994	103.094	20.149	-0.422	-0.014
81.999	110.778	80.007	19.995	103.097	20.147	-0.258	-0.015
84.000	110.809	80.009	19.995	103.088	20.150	-0.435	-0.009
85.999	110.785	80.007	19.994	103.090	20.149	-0.386	0.012
87.999	110.795	80.008	19.995	103.088	20.149	-0.366	-0.011
90.000	110.801	80.008	19.994	103.085	20.148	-0.359	0.033
92.000	110.739	80.007	19.995	103.087	20.144	-0.019	-0.032
94.000	110.732	80.007	19.995	103.088	20.146	-0.203	0.002
96.000	110.713	80.007	19.994	103.088	20.144	-0.054	-0.008
97.999	110.714	80.007	19.996	103.087	20.149	-0.412	0.037
99.999	110.700	80.007	19.995	103.086	20.149	-0.381	-0.014
101.999	110.675	80.007	19.994	103.085	20.151	-0.552	-0.003
103.999	110.637	80.007	19.994	103.086	20.151	-0.524	-0.012
105.999	110.602	80.007	19.994	103.092	20.149	-0.398	-0.031
107.999	110.600	80.009	19.994	103.088	20.147	-0.269	0.005
109.999	110.587	80.008	19.994	103.088	20.151	-0.526	-0.002
112.000	110.545	80.010	19.993	103.090	20.150	-0.431	-0.029
114.000	110.596	80.009	19.994	103.091	20.151	-0.498	-0.004
115.999	110.534	80.008	19.995	103.082	20.151	-0.541	-0.011
118.000	110.515	80.008	19.995	103.090	20.150	-0.431	-0.021
119.999	110.519	80.006	19.994	103.086	20.147	-0.262	0.018
121.999	110.459	80.007	19.994	103.088	20.151	-0.517	-0.004
124.000	110.430	80.006	19.994	103.092	20.150	-0.431	-0.008
125.999	110.384	80.005	19.995	103.089	20.151	-0.498	-0.033
127.999	110.402	80.006	19.994	103.090	20.150	-0.492	-0.023
130.000	110.370	80.004	19.995	103.090	20.153	-0.643	0.019
132.000	110.346	80.006	19.996	103.092	20.149	-0.409	0.002
134.000	110.301	80.004	19.995	103.090	20.147	-0.290	-0.008
136.000	110.296	80.005	19.995	103.091	20.147	-0.242	-0.010
138.000	110.292	80.006	19.994	103.091	20.149	-0.414	-0.013
140.000	110.268	80.006	19.994	103.091	20.146	-0.171	-0.023
142.000	110.216	80.008	19.995	103.091	20.148	-0.338	-0.004
144.000	110.207	80.007	19.994	103.091	20.145	-0.091	-0.002
146.000	110.145	80.007	19.994	103.087	20.150	-0.474	-0.033
148.000	110.119	80.005	19.995	103.087	20.148	-0.329	-0.013
150.000	110.098	80.005	19.994	103.089	20.148	-0.342	-0.022
152.000	110.097	80.004	19.996	103.090	20.146	-0.162	0.007
154.000	110.083	80.004	19.995	103.089	20.146	-0.212	-0.009
156.000	110.051	80.004	19.995	103.087	20.146	-0.167	-0.037
158.000	110.025	80.005	19.996	103.087	20.149	-0.388	-0.021
160.000	110.027	80.007	19.996	103.088	20.148	-0.301	0.015
162.000	110.003	80.006	19.994	103.088	20.146	-0.154	-0.006
164.000	109.949	80.007	19.996	103.087	20.147	-0.229	-0.019
166.000	109.936	80.007	19.995	103.085	20.147	-0.255	-0.011
168.000	109.905	80.009	19.993	103.086	20.148	-0.342	-0.005
170.000	109.893	80.007	19.994	103.087	20.146	-0.162	-0.005
172.000	109.845	80.007	19.994	103.088	20.145	-0.098	-0.039
174.000	109.839	80.007	19.994	103.088	20.148	-0.329	-0.014
176.000	109.805	80.007	19.994	103.088	20.149	-0.403	-0.016
178.000	109.760	80.008	19.994	103.089	20.148	-0.347	-0.009
180.000	109.730	80.008	19.994	103.091	20.148	-0.359	-0.017
182.000	109.756	80.009	19.994	103.091	20.145	-0.104	0.003
184.000	109.698	80.006	19.994	103.092	20.149	-0.405	-0.016
186.000	109.716	80.006	19.994	103.091	20.148	-0.340	0.013
188.000	109.695	80.007	19.995	103.091	20.146	-0.173	0.006
190.000	109.687	80.008	19.994	103.092	20.150	-0.440	0.014
192.000	109.643	80.008	19.994	103.091	20.148	-0.314	0.011
194.000	109.637	80.010	19.994	103.091	20.150	-0.487	0.000
196.000	109.571	80.010	19.994	103.093	20.146	-0.169	-0.022
198.000	109.562	80.009	19.994	103.092	20.149	-0.373	-0.004
200.000	109.535	80.009	19.994	103.091	20.147	-0.230	-0.012
202.000	109.550	80.007	19.994	103.092	20.147	-0.275	0.011
204.000	109.517	80.007	19.994	103.091	20.145	-0.147	-0.003
206.000	109.501	80.006	19.994	103.090	20.148	-0.320	-0.033
208.000	109.479	80.007	19.994	103.088	20.146	-0.184	-0.016
210.000	109.449	80.006	19.994	103.087	20.148	-0.323	-0.010
212.000	109.425	80.007	19.994	103.091	20.147	-0.243	0.001
214.000	109.365	80.006	19.994	103.088	20.144	-0.080	-0.019
216.000	109.364	80.007	19.994	103.088	20.146	-0.157	-0.039
218.000	109.333	80.007	19.995	103.088	20.145	-0.096	-0.021
220.000	109.333	80.007	19.995	103.089	20.143	0.049	-0.021
222.000	109.313	80.007	19.994	103.088	20.131	0.822	-0.035
224.000	109.288	80.007	19.996	103.108	20.101	2.958	-0.035
226.000	109.366	80.008	19.995	103.693	20.052	6.332	0.067
228.000	109.637	80.007	19.996	104.113	20.013	9.082	0.152
230.000	110.150	80.008	19.995	104.144	19.989	10.698	0.289
232.000	110.871	80.006	19.994	104.131	19.978	11.457	0.376
234.000	111.836	80.008	19.996	104.099	19.967	12.211	0.492
236.000	112.946	80.005	19.995	104.073	19.965	12.396	0.588
238.000	114.239	80.005	19.995	104.061	19.962	12.608	0.625
240.000	115.677	80.005	19.995	104.035	19.959	12.800	0.691
242.000	117.317	80.006	19.997	104.017	19.966	12.292	0.818
244.000	119.017	80.007	19.997	103.991	19.968	12.139	0.875
246.000	120.874	80.007	19.995	103.969	19.970	12.045	0.948
248.000	122.817	80.007	19.995	103.948	19.976	11.598	0.958
250.001	124.860	80.008	19.997	103.903	19.984	11.040	1.025
252.000	126.967	80.008	19.997	103.864	19.987	10.831	1.041
254.000	129.137	80.007	19.996	103.833	19.992	10.488	1.098
256.000	131.364	80.006	19.996	103.822	19.999	9.993	1.099
258.000	133.632	80.006	19.996	103.790	19.998	10.035	1.132
260.000	135.959	80.007	19.994	103.757	20.009	9.310	1.156
262.000	138.246	80.007	19.995	103.735	20.011	9.145	1.168
264.000	140.620	80.007	19.995	103.714	20.016	8.805	1.176
266.000	143.015	80.007	19.994	103.702	20.019	8.618	1.161
268.000	145.407	80.007	19.995	103.680	20.024	8.244	1.222
270.000	147.751	80.008	19.994	103.670	20.028	7.969	1.185
272.000	150.123	80.009	19.994	103.645	20.030	7.870	1.189
274.000	152.478	80.011	19.995	103.639	20.030	7.847	1.211
276.000	154.817	80.009	19.994	103.628	20.028	8.005	1.175
278.000	157.176	80.010	19.994	103.601	20.034	7.545	1.193
280.000	159.525	80.008	19.994	103.596	20.039	7.207	1.188
282.000	161.886	80.009	19.995	103.578	20.038	7.279	1.192
284.000	164.215	80.008	19.994	103.568	20.040	7.140	1.170
286.000	166.526	80.007	19.994	103.555	20.041	7.087	1.126
288.000	168.786	80.007	19.994	103.554	20.042	6.989	1.097
290.000	171.024	80.006	19.995	103.538	20.043	6.933	1.120
292.000	173.270	80.008	19.994	103.533	20.043	6.905	1.119
294.000	175.505	80.008	19.994	103.518	20.044	6.845	1.113
296.000	177.685	80.009	19.994	103.510	20.044	6.849	1.091
298.000	179.864	80.007	19.995	103.492	20.049	6.545	1.089
300.000	182.000	80.008	19.994	103.486	20.046	6.701	1.059
302.000	184.092	80.009	19.994	103.484	20.046	6.718	1.023
304.000	186.255	80.008	19.995	103.490	20.045	6.798	1.059
306.000	188.356	80.007	19.994	103.481	20.044	6.866	1.030
308.000	190.422	80.006	19.994	103.480	20.043	6.933	1.041
310.000	192.440	80.008	19.994	103.483	20.042	6.987	1.027
312.000	194.514	80.009	19.995	103.480	20.042	6.969	1.011
314.000	196.478	80.007	19.996	103.477	20.040	7.128	1.011
316.000	198.488	80.007	19.995	103.462	20.040	7.167	0.988
318.000	200.428	80.006	19.995	103.462	20.037	7.356	0.987
320.000	202.407	80.006	19.994	103.461	20.034	7.542	0.965
322.000	204.382	80.006	19.996	103.448	20.036	7.405	0.978
324.000	206.273	80.007	19.994	103.444	20.032	7.669	0.945
326.000	208.187	80.007	19.994	103.442	20.033	7.637	0.971
328.000	210.081	80.008	19.995	103.440	20.029	7.891	0.935
330.000	211.916	80.008	19.995	103.424	20.027	8.058	0.902
332.000	213.755	80.010	19.995	103.411	20.024	8.262	0.909
334.000	215.522	80.009	19.995	103.409	20.022	8.349	0.894
336.000	217.297	80.009	19.994	103.405	20.020	8.541	0.872
338.000	219.114	80.009	19.995	103.401	20.016	8.805	0.867
340.000	220.819	80.008	19.996	103.399	20.011	9.103	0.836
342.000	222.508	80.007	19.996	103.404	20.007	9.410	0.846
344.000	224.173	80.008	19.996	103.398	20.006	9.495	0.849
346.000	225.881	80.007	19.995	103.393	19.998	10.022	0.857
348.000	227.493	80.008	19.995	103.397	19.997	10.129	0.829
350.000	229.154	80.008	19.994	103.388	19.993	10.384	0.819
352.000	230.787	80.008	19.995	103.389	19.988	10.694	0.787
354.000	232.336	80.009	19.996	103.376	19.984	10.975	0.786
356.000	233.906	80.010	19.996	103.372	19.981	11.176	0.757
358.000	235.489	80.012	19.995	103.370	19.979	11.357	0.789
360.000	236.994	80.011	19.995	103.373	19.972	11.832	0.759
362.000	238.507	80.010	19.996	103.374	19.969	12.066	0.744
364.000	239.962	80.009	19.994	103.364	19.966	12.274	0.710
366.000	241.425	80.009	19.995	103.365	19.963	12.423	0.719
368.000	242.865	80.008	19.995	103.365	19.956	12.929	0.692
370.000	244.282	80.007	19.995	103.363	19.952	13.226	0.698
372.000	245.665	80.008	19.995	103.362	19.950	13.369	0.692
374.000	247.038	80.006	19.995	103.363	19.942	13.931	0.686
376.000	248.462	80.006	19.995	103.371	19.941	14.003	0.699
378.000	249.845	80.007	19.995	103.368	19.931	14.666	0.696
380.000	251.147	80.007	19.994	103.367	19.924	15.139	0.655
382.000	252.477	80.006	19.995	103.375	19.917	15.607	0.647
384.000	253.770	80.007	19.994	103.377	19.910	16.094	0.632
386.000	255.050	80.007	19.994	103.380	19.900	16.801	0.637
388.000	256.333	80.008	19.994	103.370	19.897	16.990	0.627
390.000	257.591	80.008	19.995	103.391	19.887	17.713	0.639
392.000	258.869	80.006	19.994	103.392	19.879	18.289	0.624
394.000	260.098	80.007	19.996	103.397	19.869	18.973	0.614
396.000	261.258	80.007	19.995	103.393	19.862	19.463	0.582
398.000	262.463	80.006	19.994	103.393	19.853	20.066	0.615
400.000	263.660	80.008	19.993	103.382	19.846	20.552	0.612
402.000	264.790	80.007	19.995	103.388	19.836	21.214	0.566
404.000	265.953	80.007	19.995	103.398	19.825	22.015	0.556
406.000	267.118	80.007	19.996	103.395	19.818	22.440	0.574
408.000	268.238	80.007	19.996	103.400	19.809	23.104	0.512
410.000	269.402	80.007	19.995	103.401	19.799	23.763	0.558
412.000	270.555	80.008	19.995	103.400	19.790	24.409	0.583
414.000	271.687	80.009	19.995	103.400	19.781	25.057	0.574
416.000	272.776	80.008	19.995	103.399	19.770	25.796	0.540
418.000	273.907	80.009	19.995	103.399	19.759	26.542	0.523
420.000	274.977	80.009	19.996	103.406	19.749	27.247	0.557
422.000	276.057	80.009	19.994	103.403	19.739	27.952	0.532
424.000	277.115	80.009	19.995	103.404	19.730	28.582	0.517
426.000	278.160	80.009	19.995	103.402	19.718	29.367	0.530
428.000	279.243	80.008	19.994	103.418	19.710	29.952	0.502
430.000	280.263	80.008	19.994	103.412	19.701	30.583	0.502
432.000	281.302	80.008	19.995	103.426	19.692	31.211	0.507
434.000	282.350	80.008	19.996	103.426	19.686	31.617	0.534
436.000	283.376	80.009	19.995	103.429	19.674	32.419	0.517
438.000	284.403	80.009	19.995	103.437	19.664	33.126	0.529
440.000	285.427	80.008	19.996	103.433	19.657	33.627	0.491
442.000	286.435	80.009	19.995	103.438	19.647	34.273	0.492
444.000	287.417	80.010	19.995	103.438	19.639	34.846	0.500
446.000	288.489	80.009	19.996	103.438	19.634	35.176	0.511
448.000	289.457	80.008	19.995	103.439	19.625	35.840	0.510
450.000	290.511	80.005	19.994	103.439	19.617	36.376	0.532
452.000	291.464	80.007	19.994	103.441	19.610	36.836	0.492
454.000	292.489	80.006	19.994	103.443	19.601	37.470	0.507
456.000	293.514	80.007	19.994	103.444	19.596	37.809	0.487
458.000	294.504	80.008	19.994	103.443	19.588	38.344	0.510
460.000	295.530	80.007	19.994	103.443	19.583	38.711	0.521
462.000	296.514	80.007	19.995	103.450	19.575	39.287	0.516
464.000	297.476	80.008	19.994	103.449	19.572	39.477	0.478
466.000	298.491	80.009	19.993	103.446	19.570	39.650	0.495
468.000	299.509	80.008	19.995	103.442	19.567	39.852	0.480
470.000	300.474	80.007	19.994	103.452	19.562	40.177	0.485
472.000	301.467	80.008	19.994	103.445	19.556	40.622	0.506
474.000	302.443	80.008	19.995	103.441	19.552	40.873	0.509
476.000	303.414	80.008	19.995	103.449	19.549	41.107	0.485
478.000	304.401	80.009	19.995	103.452	19.541	41.595	0.487
480.000	305.393	80.007	19.995	103.462	19.545	41.379	0.505
482.000	306.425	80.008	19.995	103.452	19.540	41.710	0.501
484.000	307.368	80.006	19.994	103.447	19.534	42.114	0.488
486.000	308.373	80.008	19.995	103.459	19.535	42.073	0.480
488.000	309.352	80.008	19.995	103.451	19.529	42.462	0.499
490.000	310.313	80.008	19.996	103.451	19.525	42.757	0.475
492.000	311.325	80.008	19.995	103.448	19.522	42.951	0.490
494.000	312.352	80.010	19.993	103.452	19.521	43.027	0.515
496.000	313.349	80.009	19.993	103.451	19.519	43.124	0.507
498.000	314.352	80.010	19.995	103.442	19.516	43.371	0.531
500.000	315.320	80.010	19.996	103.453	19.518	43.208	0.466
502.000	316.295	80.010	19.994	103.442	19.516	43.371	0.501
504.000	317.248	80.008	19.995	103.443	19.514	43.467	0.460
506.000	318.274	80.009	19.994	103.453	19.509	43.831	0.515
508.000	319.245	80.008	19.996	103.449	19.509	43.835	0.487
510.000	320.201	80.007	19.996	103.454	19.511	43.682	0.479
512.000	321.229	80.007	19.995	103.458	19.509	43.831	0.481
514.000	322.229	80.008	19.996	103.465	19.504	44.171	0.497
516.000	323.220	80.008	19.995	103.464	19.501	44.418	0.461
518.000	324.200	80.009	19.994	103.465	19.502	44.328	0.501
520.000	325.198	80.007	19.994	103.466	19.497	44.696	0.489
522.000	326.185	80.010	19.994	103.473	19.493	44.951	0.519
524.000	327.235	80.009	19.994	103.469	19.485	45.474	0.501
526.000	328.215	80.008	19.994	103.473	19.480	45.828	0.467
528.000	329.237	80.009	19.995	103.468	19.473	46.366	0.526
530.000	330.204	80.008	19.996	103.469	19.470	46.584	0.514
532.000	331.198	80.007	19.996	103.474	19.463	47.020	0.480
534.000	332.197	80.007	19.995	103.475	19.454	47.653	0.482
536.000	333.233	80.007	19.996	103.477	19.446	48.198	0.530
538.000	334.240	80.008	19.996	103.479	19.437	48.873	0.531
540.000	335.219	80.006	19.995	103.482	19.425	49.684	0.504
542.000	336.240	80.008	19.996	103.494	19.414	50.436	0.511
544.000	337.253	80.008	19.995	103.495	19.402	51.279	0.535
546.000	338.264	80.005	19.995	103.511	19.387	52.342	0.481
548.000	339.279	80.009	19.994	103.514	19.373	53.323	0.513
550.000	340.242	80.007	19.995	103.517	19.358	54.326	0.486
552.000	341.268	80.008	19.993	103.520	19.342	55.460	0.483
554.000	342.227	80.007	19.994	103.522	19.322	56.855	0.458
556.000	343.272	80.008	19.995	103.545	19.303	58.177	0.517
558.000	344.234	80.008	19.995	103.545	19.281	59.684	0.503
560.000	345.274	80.007	19.995	103.556	19.257	61.358	0.512
562.000	346.278	80.007	19.996	103.559	19.235	62.857	0.498
564.000	347.271	80.007	19.996	103.573	19.206	64.882	0.487
566.000	348.279	80.007	19.994	103.595	19.183	66.514	0.522
568.000	349.276	80.005	19.995	103.601	19.152	68.662	0.492
570.000	350.332	80.005	19.995	103.621	19.125	70.483	0.514
572.000	351.309	80.008	19.994	103.635	19.098	72.380	0.513
574.000	352.328	80.008	19.994	103.631	19.065	74.637	0.520
576.000	353.348	80.008	19.996	103.638	19.038	76.547	0.533
578.000	354.392	80.009	19.995	103.640	19.011	78.373	0.529
580.000	355.365	80.009	19.994	103.638	18.989	79.857	0.513
582.000	356.329	80.008	19.994	103.641	18.964	81.574	0.468
584.000	357.338	80.009	19.995	103.651	18.949	82.602	0.482
586.000	358.427	80.007	19.993	103.639	18.941	83.147	0.537
588.000	359.387	80.008	19.995	103.620	18.936	83.455	0.499
590.000	360.377	80.007	19.994	103.599	18.941	83.070	0.510
592.000	361.384	80.008	19.993	103.580	18.951	82.388	0.514
594.000	362.395	80.008	19.995	103.551	18.975	80.696	0.504
596.000	363.389	80.008	19.996	103.525	19.009	78.314	0.508
598.000	364.385	80.008	19.995	103.493	19.051	75.446	0.491
600.000	365.376	80.009	19.996	103.459	19.102	71.910	0.477
602.000	366.393	80.009	19.996	103.436	19.163	67.693	0.523
604.000	367.399	80.010	19.995	103.408	19.222	63.589	0.493
606.000	368.414	80.010	19.994	103.387	19.289	58.951	0.505
608.000	369.453	80.010	19.996	103.363	19.355	54.398	0.502
610.000	370.424	80.010	19.994	103.354	19.426	49.510	0.485
612.000	371.438	80.009	19.994	103.345	19.489	45.179	0.520
614.000	372.488	80.008	19.995	103.322	19.553	40.704	0.503
616.000	373.521	80.008	19.995	103.311	19.614	36.488	0.549
618.000	374.525	80.008	19.995	103.287	19.667	32.877	0.506
620.000	375.517	80.008	19.996	103.295	19.713	29.679	0.492
622.000	376.552	80.007	19.994	103.299	19.759	26.541	0.475
624.000	377.566	80.005	19.997	103.282	19.797	23.920	0.498
626.000	378.628	80.007	19.996	103.279	19.826	21.919	0.521
628.000	379.633	80.006	19.995	103.277	19.855	19.857	0.509
630.000	380.683	80.008	19.996	103.277	19.879	18.247	0.511
632.000	381.687	80.006	19.996	103.272	19.898	16.920	0.527
634.000	382.658	80.007	19.996	103.272	19.913	15.854	0.495
636.000	383.695	80.007	19.996	103.253	19.929	14.800	0.514
638.000	384.672	80.007	19.994	103.262	19.941	13.928	0.518
640.000	385.670	80.007	19.994	103.258	19.952	13.224	0.472
642.000	386.702	80.006	19.995	103.264	19.962	12.536	0.506
644.000	387.655	80.006	19.995	103.257	19.970	11.978	0.475
646.000	388.659	80.006	19.994	103.264	19.977	11.455	0.479
648.000	389.650	80.007	19.994	103.258	19.981	11.176	0.496
650.000	390.641	80.007	19.993	103.253	19.983	11.075	0.515
652.000	391.682	80.007	19.993	103.252	19.984	10.976	0.520
654.000	392.623	80.007	19.994	103.258	19.988	10.705	0.482
656.000	393.687	80.008	19.995	103.261	19.994	10.332	0.531
658.000	394.725	80.007	19.994	103.273	19.993	10.352	0.513
660.000	395.679	80.008	19.996	103.255	19.998	10.013	0.474
662.000	396.747	80.010	19.994	103.259	20.002	9.740	0.511
664.000	397.683	80.008	19.995	103.253	19.999	9.922	0.495
666.000	398.700	80.009	19.995	103.254	20.002	9.757	0.492
668.000	399.743	80.009	19.994	103.248	20.004	9.629	0.506
670.000	400.745	80.009	19.993	103.248	20.004	9.611	0.519
672.000	401.713	80.009	19.997	103.251	20.004	9.575	0.492
674.000	402.757	80.008	19.995	103.251	20.008	9.355	0.522
676.000	403.686	80.008	19.994	103.248	20.010	9.186	0.445
678.000	404.757	80.008	19.993	103.256	20.008	9.327	0.493
680.000	405.699	80.008	19.994	103.255	20.011	9.125	0.494
682.000	406.747	80.009	19.994	103.259	20.013	8.987	0.514
684.000	407.750	80.010	19.994	103.251	20.018	8.646	0.491
686.000	408.830	80.010	19.995	103.261	20.018	8.616	0.534
688.000	409.789	80.010	19.994	103.253	20.016	8.780	0.480
690.000	410.814	80.009	19.995	103.258	20.019	8.592	0.521
692.000	411.854	80.009	19.995	103.260	20.020	8.524	0.509
694.000	412.865	80.007	19.995	103.251	20.028	7.937	0.475
696.000	413.880	80.007	19.994	103.244	20.029	7.894	0.476
698.000	414.882	80.006	19.995	103.247	20.022	8.389	0.473
700.000	415.955	80.007	19.995	103.246	20.025	8.164	0.505
702.000	417.030	80.007	19.995	103.252	20.023	8.279	0.636
704.000	418.013	80.007	19.995	103.260	20.026	8.084	0.575
706.000	419.178	80.005	19.996	103.255	20.026	8.095	0.463
708.000	420.129	80.007	19.995	103.252	20.026	8.080	0.700
710.000	421.375	80.007	19.997	103.247	20.025	8.129	0.602
712.000	422.114	80.006	19.997	103.246	20.028	7.933	0.368
714.000	422.982	80.006	19.995	103.246	20.028	7.946	0.451
716.000	424.072	80.007	19.994	103.250	20.031	7.752	0.472
718.000	425.150	80.006	19.995	103.246	20.032	7.685	0.511
720.000	426.160	80.007	19.995	103.254	20.033	7.629	0.547
722.000	427.175	80.007	19.996	103.247	20.032	7.657	0.520
724.000	428.138	80.007	19.995	103.248	20.035	7.488	0.478
726.000	429.219	80.008	19.995	103.243	20.034	7.538	0.483
728.000	430.212	80.007	19.996	103.244	20.035	7.447	0.507
730.000	431.221	80.006	19.996	103.244	20.038	7.268	0.515
732.000	432.312	80.006	19.995	103.244	20.041	7.071	0.535
734.000	433.271	80.006	19.994	103.246	20.043	6.920	0.486
736.000	434.321	80.007	19.995	103.245	20.040	7.153	0.542
738.000	435.339	80.008	19.995	103.244	20.042	6.957	0.506
740.000	436.371	80.008	19.994	103.245	20.043	6.890	0.473
742.000	437.393	80.009	19.995	103.243	20.044	6.817	0.482
744.000	438.473	80.009	19.995	103.245	20.043	6.918	0.540
746.000	439.467	80.009	19.995	103.245	20.047	6.654	0.501
748.000	440.494	80.008	19.995	103.235	20.047	6.608	0.521
750.000	441.495	80.010	19.994	103.236	20.044	6.822	0.511
752.000	442.502	80.007	19.994	103.243	20.048	6.605	0.514
754.000	443.538	80.008	19.995	103.233	20.048	6.552	0.531
756.000	444.574	80.008	19.996	103.236	20.050	6.403	0.503
758.000	445.574	80.008	19.994	103.241	20.053	6.221	0.519
760.000	446.595	80.008	19.994	103.243	20.049	6.483	0.486
762.000	447.608	80.009	19.995	103.242	20.052	6.321	0.508
764.000	448.615	80.008	19.994	103.234	20.054	6.124	0.494
766.000	449.642	80.009	19.994	103.244	20.055	6.061	0.478
768.000	450.651	80.010	19.994	103.246	20.053	6.204	0.500
770.000	451.739	80.009	19.994	103.245	20.056	6.010	0.562
772.000	452.697	80.010	19.994	103.242	20.057	5.962	0.488
774.000	453.703	80.010	19.993	103.245	20.059	5.826	0.490
776.000	454.750	80.009	19.993	103.247	20.056	6.007	0.532
778.000	455.783	80.008	19.993	103.243	20.059	5.780	0.509
780.000	456.791	80.006	19.995	103.247	20.061	5.709	0.509
782.000	457.800	80.006	19.996	103.242	20.061	5.684	0.508
784.000	458.827	80.006	19.996	103.243	20.064	5.482	0.524
786.000	459.826	80.007	19.996	103.240	20.067	5.296	0.496
788.000	460.812	80.007	19.996	103.242	20.063	5.560	0.523
790.000	461.802	80.006	19.996	103.242	20.065	5.400	0.464
792.000	462.819	80.007	19.996	103.230	20.067	5.259	0.487
794.000	463.875	80.007	19.996	103.232	20.067	5.294	0.561
796.000	464.814	80.007	19.995	103.241	20.065	5.402	0.516
798.000	465.838	80.009	19.996	103.244	20.065	5.426	0.489
800.000	466.852	80.009	19.994	103.236	20.068	5.197	0.513
802.000	467.838	80.008	19.996	103.244	20.065	5.417	0.504
804.000	468.852	80.007	19.996	103.239	20.067	5.229	0.535
806.000	469.876	80.008	19.995	103.237	20.068	5.208	0.510
808.000	470.909	80.006	19.996	103.238	20.071	4.988	0.519
810.000	471.833	80.006	19.996	103.236	20.068	5.191	0.481
812.000	472.881	80.005	19.996	103.236	20.069	5.137	0.500
814.000	473.902	80.007	19.996	103.238	20.068	5.221	0.509
816.000	474.968	80.007	19.997	103.239	20.068	5.186	0.510
818.000	475.984	80.006	19.997	103.239	20.068	5.180	0.526
820.000	476.960	80.006	19.997	103.224	20.068	5.186	0.492
822.000	478.003	80.007	19.994	103.240	20.067	5.262	0.522
824.000	479.051	80.008	19.995	103.225	20.071	4.981	0.538
826.000	480.047	80.008	19.996	103.243	20.070	5.024	0.497
828.000	481.047	80.008	19.995	103.244	20.071	5.004	0.499
830.000	482.078	80.008	19.994	103.242	20.069	5.102	0.529
832.000	483.079	80.009	19.994	103.239	20.069	5.118	0.494
834.000	484.099	80.008	19.994	103.241	20.069	5.151	0.512
836.000	485.124	80.009	19.995	103.241	20.070	5.039	0.491
838.000	486.168	80.009	19.995	103.244	20.068	5.178	0.492
840.000	487.213	80.008	19.997	103.246	20.070	5.052	0.522
842.000	488.223	80.008	19.996	103.243	20.070	5.078	0.501
844.000	489.242	80.008	19.995	103.228	20.070	5.036	0.487
846.000	490.302	80.008	19.995	103.244	20.069	5.109	0.538
848.000	491.307	80.008	19.994	103.236	20.070	5.063	0.486
850.000	492.353	80.009	19.994	103.239	20.070	5.085	0.512
852.000	493.399	80.009	19.995	103.236	20.071	4.973	0.526
854.000	494.464	80.010	19.994	103.228	20.073	4.847	0.516
856.000	495.531	80.009	19.994	103.224	20.071	5.003	0.523
858.000	496.555	80.009	19.994	103.233	20.073	4.852	0.513
860.000	497.535	80.009	19.993	103.237	20.072	4.945	0.491
862.000	498.643	80.009	19.994	103.226	20.071	5.002	0.525
864.000	499.677	80.007	19.994	103.227	20.070	5.038	0.547
866.000	500.740	80.007	19.995	103.228	20.069	5.124	0.533
868.000	501.792	80.007	19.994	103.221	20.072	4.893	0.530
870.000	502.790	80.008	19.994	103.221	20.070	5.034	0.507
872.000	503.846	80.007	19.995	103.220	20.073	4.867	0.516
874.000	504.860	80.009	19.995	103.215	20.069	5.114	0.502
876.000	505.860	80.007	19.995	103.226	20.074	4.745	0.514
878.000	506.930	80.007	19.994	103.226	20.074	4.810	0.521
880.000	507.919	80.008	19.995	103.227	20.076	4.613	0.494
882.000	508.991	80.006	19.997	103.230	20.074	4.778	0.519
884.000	509.955	80.007	19.995	103.209	20.072	4.919	0.497
886.000	510.990	80.006	19.998	103.228	20.073	4.848	0.495
888.000	511.979	80.007	19.995	103.233	20.076	4.651	0.481
890.000	513.023	80.007	19.995	103.239	20.077	4.554	0.533
892.000	514.075	80.009	19.995	103.235	20.075	4.704	0.550
894.000	515.087	80.007	19.994	103.225	20.073	4.817	0.511
896.000	516.101	80.008	19.996	103.217	20.076	4.616	0.516
898.000	517.100	80.007	19.995	103.216	20.075	4.718	0.493
900.000	518.099	80.006	19.995	103.219	20.076	4.674	0.522
902.000	519.153	80.007	19.995	103.232	20.081	4.307	0.510
904.000	520.177	80.006	19.995	103.231	20.080	4.369	0.520
906.000	521.157	80.007	19.994	103.227	20.081	4.279	0.513
908.000	522.163	80.008	19.996	103.225	20.081	4.324	0.509
910.000	523.236	80.008	19.995	103.238	20.079	4.408	0.535
912.000	524.226	80.009	19.995	103.223	20.076	4.649	0.503
914.000	525.266	80.007	19.996	103.227	20.079	4.466	0.499
916.000	526.282	80.008	19.996	103.236	20.081	4.324	0.527
918.000	527.283	80.007	19.995	103.224	20.079	4.437	0.497
920.000	528.339	80.009	19.996	103.228	20.081	4.276	0.507
922.000	529.316	80.007	19.996	103.224	20.082	4.198	0.516
924.000	530.350	80.008	19.995	103.229	20.081	4.326	0.488
926.000	531.447	80.008	19.994	103.237	20.079	4.445	0.529
928.000	532.462	80.008	19.995	103.221	20.081	4.315	0.528
930.000	533.539	80.007	19.995	103.227	20.080	4.332	0.569
932.000	534.595	80.009	19.995	103.240	20.077	4.580	0.544
934.000	535.720	80.011	19.995	103.228	20.079	4.433	0.561
936.000	536.784	80.011	19.994	103.226	20.076	4.638	0.524
938.000	537.865	80.010	19.994	103.237	20.080	4.399	0.562
940.000	539.022	80.011	19.994	103.238	20.081	4.315	0.538
942.000	540.123	80.011	19.995	103.224	20.075	4.735	0.556
944.000	541.225	80.007	19.996	103.219	20.075	4.704	0.541
946.000	542.356	80.009	19.994	103.228	20.079	4.457	0.539
948.000	543.462	80.008	19.994	103.237	20.077	4.564	0.554
950.000	544.566	80.009	19.996	103.232	20.075	4.709	0.546
952.000	545.680	80.009	19.994	103.229	20.077	4.562	0.536
954.000	546.863	80.007	19.995	103.232	20.076	4.662	0.587
956.000	547.962	80.007	19.995	103.238	20.076	4.622	0.548
958.000	549.102	80.008	19.995	103.239	20.074	4.769	0.552
960.000	550.218	80.009	19.995	103.228	20.074	4.778	0.577
962.000	551.329	80.009	19.995	103.219	20.075	4.683	0.542
964.000	552.475	80.007	19.994	103.222	20.076	4.651	0.556
966.000	553.626	80.007	19.994	103.227	20.078	4.521	0.580
968.000	554.770	80.007	19.996	103.240	20.078	4.486	0.572
970.000	555.854	80.008	19.995	103.222	20.075	4.731	0.580
972.000	556.966	80.007	19.994	103.222	20.078	4.517	0.542
974.000	558.061	80.008	19.994	103.224	20.079	4.422	0.536
976.000	559.179	80.007	19.995	103.229	20.077	4.569	0.540
978.000	560.277	80.006	19.995	103.236	20.077	4.571	0.553
980.000	561.431	80.006	19.996	103.228	20.076	4.658	0.553
982.000	562.498	80.007	19.996	103.222	20.078	4.487	0.547
984.000	563.570	80.008	19.994	103.215	20.076	4.626	0.566
986.000	564.660	80.007	19.996	103.211	20.077	4.578	0.551
988.000	565.782	80.009	19.995	103.212	20.077	4.585	0.566
990.000	566.844	80.010	19.995	103.218	20.079	4.459	0.547
992.000	567.884	80.009	19.996	103.212	20.077	4.546	0.511
994.000	568.970	80.010	19.994	103.209	20.078	4.503	0.532
996.000	570.055	80.008	19.995	103.206	20.080	4.349	0.565
998.000	571.147	80.009	19.996	103.208	20.079	4.458	0.564
1000.000	572.185	80.008	19.995	103.205	20.073	4.855	0.541
1002.000	573.293	80.009	19.996	103.206	20.073	4.851	0.554
1004.000	574.396	80.007	19.995	103.206	20.076	4.661	0.566
1006.000	575.437	80.008	19.996	103.204	20.077	4.543	0.548
1008.000	576.546	80.008	19.996	103.220	20.078	4.535	0.546
1010.000	577.554	80.009	19.996	103.214	20.074	4.764	0.509
1012.000	578.600	80.009	19.995	103.207	20.072	4.920	0.487
1014.000	579.593	80.009	19.995	103.218	20.074	4.805	0.518
1016.000	580.597	80.010	19.995	103.227	20.075	4.727	0.480
1018.000	581.625	80.010	19.995	103.204	20.072	4.889	0.516
1020.000	582.666	80.010	19.995	103.202	20.074	4.769	0.499
1022.000	583.606	80.010	19.994	103.206	20.072	4.942	0.473
1024.000	584.595	80.008	19.994	103.214	20.073	4.857	0.498
1026.000	585.591	80.009	19.995	103.224	20.071	4.970	0.502
1027.999	586.558	80.008	19.995	103.215	20.070	5.045	0.506
1030.000	587.533	80.008	19.994	103.208	20.074	4.746	0.469
1032.000	588.513	80.007	19.995	103.208	20.076	4.650	0.478
1033.999	589.530	80.007	19.995	103.209	20.074	4.773	0.484
1035.999	590.462	80.007	19.994	103.207	20.072	4.916	0.461
1038.000	591.492	80.007	19.994	103.210	20.073	4.812	0.508
1039.999	592.447	80.007	19.994	103.214	20.073	4.853	0.478
1041.999	593.450	80.008	19.994	103.210	20.074	4.799	0.483
1043.999	594.461	80.007	19.993	103.208	20.072	4.896	0.510
1045.999	595.482	80.008	19.995	103.206	20.072	4.883	0.522
1048.000	596.424	80.009	19.994	103.209	20.074	4.747	0.490
1050.000	597.398	80.009	19.995	103.204	20.074	4.758	0.480
1051.999	598.332	80.008	19.995	103.204	20.076	4.647	0.513
1054.000	599.279	80.008	19.995	103.204	20.075	4.730	0.454
1055.999	600.265	80.007	19.994	103.205	20.076	4.643	0.454
1057.999	601.226	80.007	19.994	103.204	20.072	4.915	0.449
1060.000	602.172	80.007	19.994	103.202	20.073	4.857	0.466
1061.999	603.168	80.008	19.995	103.206	20.072	4.904	0.492
1063.999	604.138	80.006	19.994	103.206	20.075	4.690	0.510
1066.000	605.084	80.009	19.995	103.203	20.076	4.669	0.482
1068.000	606.029	80.007	19.995	103.207	20.074	4.762	0.468
1070.000	606.990	80.008	19.996	103.205	20.075	4.708	0.457
1072.000	607.919	80.009	19.996	103.216	20.074	4.753	0.475
1074.000	608.935	80.008	19.996	103.212	20.074	4.751	0.498
1076.000	609.875	80.009	19.996	103.208	20.071	4.950	0.484
1078.001	610.850	80.009	19.995	103.207	20.076	4.637	0.476
1079.999	611.815	80.009	19.997	103.213	20.073	4.844	0.469
1081.999	612.809	80.009	19.995	103.211	20.074	4.788	0.514
1083.999	613.789	80.008	19.996	103.208	20.074	4.756	0.493
1086.000	614.780	80.007	19.994	103.207	20.072	4.896	0.491
1088.001	615.789	80.008	19.995	103.207	20.073	4.879	0.507
1089.999	616.778	80.008	19.996	103.207	20.072	4.931	0.478
1092.000	617.769	80.009	19.995	103.208	20.073	4.820	0.503
1093.999	618.723	80.008	19.995	103.206	20.071	5.000	0.479
1095.999	619.684	80.009	19.995	103.205	20.071	4.965	0.453
1097.999	620.722	80.009	19.995	103.207	20.071	4.978	0.527
1099.999	621.698	80.011	19.995	103.207	20.072	4.900	0.478
1101.999	622.657	80.010	19.997	103.205	20.070	5.067	0.503
1104.000	623.635	80.007	19.995	103.206	20.067	5.266	0.489
1106.000	624.626	80.007	19.995	103.209	20.066	5.335	0.476
1107.999	625.588	80.006	19.996	103.203	20.070	5.065	0.462
1110.000	626.593	80.007	19.994	103.208	20.071	4.993	0.531
1111.999	627.558	80.007	19.994	103.208	20.067	5.259	0.476
1113.999	628.514	80.008	19.995	103.205	20.068	5.223	0.457
1115.999	629.533	80.007	19.994	103.205	20.068	5.173	0.501
1118.001	630.517	80.009	19.994	103.204	20.071	5.011	0.489
1119.999	631.489	80.009	19.996	103.204	20.068	5.221	0.487
1121.999	632.504	80.008	19.995	103.206	20.068	5.171	0.516
1124.000	633.516	80.009	19.995	103.205	20.068	5.205	0.484
1126.001	634.501	80.009	19.994	103.205	20.069	5.110	0.502
1127.999	635.537	80.009	19.995	103.205	20.068	5.177	0.518
1129.999	636.549	80.009	19.993	103.204	20.068	5.186	0.518
1131.999	637.572	80.008	19.995	103.205	20.072	4.885	0.536
1134.000	638.594	80.008	19.996	103.206	20.067	5.275	0.518
1135.999	639.543	80.008	19.995	103.207	20.067	5.244	0.493
1138.000	640.619	80.008	19.996	103.204	20.067	5.233	0.517
1139.999	641.641	80.006	19.994	103.206	20.066	5.343	0.511
1142.000	642.662	80.007	19.993	103.207	20.065	5.367	0.521
1143.999	643.671	80.008	19.996	103.206	20.064	5.475	0.522
1145.999	644.686	80.009	19.996	103.209	20.067	5.276	0.542
1147.999	645.660	80.008	19.993	103.212	20.066	5.360	0.473
1149.999	646.686	80.006	19.994	103.210	20.065	5.393	0.516
1151.999	647.727	80.007	19.993	103.209	20.063	5.566	0.509
1153.999	648.726	80.009	19.995	103.208	20.065	5.393	0.491
1155.999	649.723	80.008	19.996	103.211	20.064	5.501	0.475
1157.999	650.789	80.009	19.995	103.215	20.059	5.792	0.513
1160.000	651.805	80.011	19.996	103.211	20.061	5.698	0.524
1162.000	652.847	80.010	19.996	103.214	20.060	5.776	0.511
1163.999	653.912	80.007	19.996	103.206	20.062	5.608	0.569
1166.000	654.800	80.007	19.994	103.212	20.061	5.659	0.413
1168.001	655.892	80.008	19.996	103.204	20.057	5.921	0.523
1169.999	656.935	80.008	19.996	103.205	20.060	5.709	0.497
1172.000	657.919	80.009	19.995	103.209	20.061	5.666	0.515
1173.999	658.953	80.010	19.994	103.208	20.058	5.865	0.502
1175.999	659.953	80.010	19.996	103.208	20.059	5.837	0.505
1177.999	661.027	80.010	19.995	103.206	20.057	5.917	0.537
1180.000	662.037	80.010	19.996	103.204	20.060	5.766	0.548
1181.999	663.026	80.011	19.994	103.204	20.056	5.999	0.568
1184.000	664.072	80.011	19.996	103.206	20.056	6.016	0.505
1186.000	665.043	80.010	19.991	103.203	20.059	5.789	0.462
1187.999	666.133	80.007	19.994	103.203	20.056	6.047	0.527
1190.000	667.127	80.006	19.996	103.202	20.058	5.894	0.556
1192.000	668.127	80.008	19.994	103.200	20.057	5.956	0.494
1194.000	669.189	80.008	19.995	103.202	20.054	6.159	0.505
1196.000	670.174	80.007	19.994	103.207	20.056	6.019	0.469
1198.000	671.225	80.006	19.994	103.203	20.056	6.023	0.504
1199.999	672.246	80.006	19.996	103.204	20.058	5.893	0.528
1201.999	673.296	80.006	19.994	103.201	20.062	5.629	0.510
1203.999	674.302	80.010	19.996	103.201	20.053	6.209	0.521
1205.999	675.318	80.008	19.995	103.201	20.056	6.021	0.480
1207.999	676.332	80.008	19.993	103.202	20.056	5.999	0.500
1210.000	677.379	80.010	19.993	103.200	20.054	6.136	0.522
1211.999	678.376	80.008	19.994	103.201	20.059	5.845	0.489
1213.999	679.396	80.008	19.994	103.203	20.055	6.079	0.500
1216.000	680.409	80.010	19.996	103.208	20.052	6.298	0.524
1218.000	681.442	80.010	19.993	103.209	20.055	6.075	0.510
1219.999	682.431	80.006	19.995	103.203	20.054	6.181	0.529
1221.999	683.431	80.007	19.994	103.206	20.057	5.969	0.529
1223.999	684.464	80.008	19.994	103.206	20.056	6.003	0.523
1225.999	685.469	80.007	19.996	103.206	20.055	6.112	0.509
1227.999	686.439	80.006	19.994	103.207	20.052	6.305	0.504
1229.999	687.487	80.008	19.995	103.204	20.052	6.267	0.514
1232.001	688.486	80.007	19.995	103.203	20.056	6.051	0.497
1234.000	689.494	80.006	19.994	103.207	20.054	6.173	0.476
1236.001	690.490	80.009	19.994	103.203	20.057	5.969	0.505
1238.000	691.515	80.009	19.995	103.189	20.054	6.153	0.506
1240.000	692.488	80.010	19.994	103.198	20.052	6.287	0.509
1242.000	693.492	80.010	19.994	103.201	20.049	6.487	0.498
1243.999	694.491	80.009	19.994	103.198	20.052	6.307	0.488
1245.999	695.483	80.009	19.994	103.196	20.050	6.408	0.523
1248.000	696.460	80.008	19.996	103.196	20.050	6.450	0.491
1249.999	697.499	80.008	19.994	103.197	20.051	6.362	0.521
1252.000	698.489	80.009	19.993	103.191	20.050	6.442	0.491
1254.000	699.507	80.008	19.994	103.188	20.048	6.567	0.522
1256.000	700.515	80.009	19.994	103.198	20.044	6.810	0.497
1258.001	701.581	80.010	19.995	103.205	20.049	6.526	0.530
1260.000	702.577	80.010	19.994	103.190	20.050	6.414	0.474
1261.999	703.558	80.011	19.994	103.189	20.048	6.592	0.497
1263.999	704.533	80.009	19.995	103.181	20.047	6.614	0.484
1265.999	705.542	80.010	19.994	103.187	20.049	6.527	0.486
1268.000	706.541	80.009	19.994	103.184	20.050	6.408	0.487
1269.999	707.523	80.009	19.996	103.187	20.048	6.572	0.487
1272.000	708.507	80.009	19.995	103.183	20.051	6.350	0.486
1273.999	709.544	80.007	19.995	103.182	20.050	6.464	0.521
1275.999	710.505	80.008	19.994	103.203	20.049	6.495	0.511
1278.000	711.533	80.009	19.995	103.206	20.046	6.692	0.495
1279.999	712.565	80.007	19.994	103.192	20.046	6.712	0.474
1281.999	713.593	80.008	19.995	103.193	20.045	6.801	0.509
1283.999	714.584	80.008	19.995	103.198	20.046	6.707	0.517
1286.001	715.650	80.007	19.998	103.201	20.043	6.916	0.537
1287.999	716.704	80.008	19.995	103.195	20.045	6.767	0.521
1290.000	717.662	80.007	19.994	103.184	20.045	6.776	0.508
1291.999	718.705	80.008	19.994	103.188	20.043	6.886	0.494
1294.001	719.742	80.006	19.995	103.188	20.042	6.983	0.493
1295.999	720.733	80.006	19.995	103.205	20.042	6.997	0.487
1297.999	721.790	80.007	19.994	103.197	20.039	7.210	0.526
1299.999	722.754	80.008	19.994	103.205	20.040	7.127	0.471
1301.999	723.793	80.007	19.994	103.198	20.039	7.159	0.490
1303.999	724.791	80.007	19.995	103.193	20.038	7.266	0.531
1306.000	725.795	80.006	19.996	103.200	20.041	7.071	0.463
1307.999	726.806	80.007	19.993	103.197	20.041	7.080	0.505
1309.999	727.793	80.008	19.994	103.205	20.038	7.281	0.489
1311.999	728.769	80.009	19.994	103.195	20.042	6.996	0.540
1313.999	729.784	80.007	19.993	103.193	20.039	7.170	0.470
1315.999	730.751	80.008	19.993	103.178	20.039	7.210	0.472
1318.000	731.735	80.009	19.996	103.192	20.042	6.973	0.491
1319.999	732.736	80.007	19.996	103.176	20.037	7.301	0.474
1321.999	733.684	80.008	19.993	103.194	20.035	7.443	0.492
1324.000	734.668	80.011	19.994	103.202	20.037	7.306	0.520
1325.999	735.618	80.009	19.994	103.178	20.037	7.316	0.460
1328.000	736.598	80.009	19.996	103.188	20.040	7.118	0.483
1329.999	737.542	80.011	19.992	103.191	20.037	7.296	0.483
1331.999	738.471	80.009	19.994	103.186	20.039	7.165	0.492
1334.000	739.429	80.010	19.994	103.200	20.039	7.190	0.458
1335.999	740.367	80.009	19.994	103.200	20.039	7.217	0.472
1337.999	741.303	80.010	19.995	103.200	20.036	7.422	0.473
1339.999	742.287	80.010	19.993	103.186	20.035	7.473	0.472
1342.000	743.243	80.010	19.994	103.196	20.034	7.516	0.472
1343.500	743.958	80.010	19.994	103.195	20.034	7.532	0.457