File: 01_Data/Bamboo_Rug_Bamboo/MCC/Bamboo_Rug_Bamboo_MCC_30K_min_211124_R3.txt
Sample ID:	C:\MCC\MCC Cal\Test\Bamboo_RugA_MCC_30K_min_211124_R3.txt
Sample Weight (mg):	4.83
Heating Rate (C/s):	0.5
Combustor Temp (C):	900
N2 Flow Rate (cc/min):	80
O2 Flow Rate (cc/min):	20
Calibration File:	C:\MCC\MCC Cal\Coeff1 JN10440_30_210304.txt.txt
T Correction Coefficients:	0	1.024463	0
Time Shift (s):	14
*
Time (s)	Temperature (C)	N2 flow rate (cc/min)	O2 flow rate (cc/min)	Flow Rate (cc/min)	Oxygen (%)	HRR (W/g)	Heating rate (C/s)
-0.001	110.532	80.009	19.994	103.127	19.971	-0.207	0.033
1.999	110.544	80.009	19.995	103.128	19.970	-0.146	-0.006
4.000	110.544	80.009	19.995	103.130	19.971	-0.203	-0.016
5.999	110.540	80.009	19.994	103.150	19.966	0.162	0.023
8.000	110.554	80.009	19.996	103.167	19.965	0.198	-0.003
9.999	110.573	80.008	19.995	103.176	19.959	0.590	0.018
12.000	110.628	80.009	19.996	103.200	19.962	0.432	0.047
13.999	110.654	80.010	19.995	103.205	19.958	0.689	0.021
16.000	110.683	80.010	19.994	103.217	19.956	0.806	0.039
17.999	110.783	80.010	19.993	103.235	19.956	0.837	0.059
20.000	110.838	80.010	19.995	103.238	19.954	0.956	0.040
21.999	110.974	80.011	19.995	103.229	19.952	1.094	0.059
23.999	111.133	80.011	19.994	103.265	19.946	1.509	0.076
25.999	111.261	80.010	19.994	103.283	19.942	1.726	0.078
27.999	111.477	80.011	19.995	103.290	19.941	1.831	0.118
30.000	111.648	80.011	19.995	103.313	19.938	1.994	0.094
32.000	111.890	80.009	19.995	103.305	19.933	2.375	0.118
33.999	112.176	80.009	19.995	103.260	19.933	2.380	0.125
35.999	112.453	80.008	19.995	103.379	19.932	2.442	0.145
37.999	112.775	80.008	19.996	103.339	19.930	2.559	0.152
40.000	113.121	80.008	19.997	103.341	19.931	2.507	0.186
41.999	113.522	80.008	19.994	103.345	19.928	2.653	0.186
43.999	113.951	80.008	19.994	103.335	19.927	2.719	0.209
45.999	114.345	80.009	19.995	103.339	19.930	2.563	0.240
47.999	114.763	80.008	19.993	103.351	19.930	2.556	0.215
49.999	115.222	80.008	19.995	103.354	19.929	2.594	0.239
51.999	115.699	80.008	19.994	103.353	19.928	2.662	0.238
53.999	116.211	80.010	19.994	103.348	19.925	2.911	0.247
55.999	116.713	80.009	19.995	103.342	19.929	2.615	0.245
57.999	117.257	80.009	19.995	103.356	19.928	2.661	0.264
59.999	117.837	80.007	19.994	103.361	19.925	2.850	0.245
62.000	118.420	80.008	19.994	103.362	19.922	3.052	0.301
63.999	118.979	80.008	19.994	103.365	19.924	2.954	0.308
66.000	119.576	80.008	19.994	103.366	19.926	2.835	0.290
67.999	120.184	80.008	19.993	103.363	19.926	2.805	0.324
69.999	120.835	80.007	19.994	103.374	19.927	2.756	0.338
71.999	121.513	80.008	19.995	103.375	19.923	3.012	0.340
73.999	122.183	80.010	19.994	103.364	19.922	3.076	0.327
75.999	122.867	80.010	19.994	103.365	19.920	3.198	0.342
77.999	123.565	80.009	19.995	103.370	19.922	3.090	0.367
79.999	124.317	80.010	19.995	103.377	19.921	3.166	0.366
81.999	125.024	80.011	19.993	103.380	19.922	3.078	0.383
83.999	125.761	80.013	19.993	103.387	19.924	2.976	0.344
85.999	126.507	80.011	19.994	103.395	19.918	3.358	0.391
87.999	127.239	80.010	19.994	103.396	19.918	3.369	0.374
89.999	128.069	80.010	19.994	103.396	19.921	3.157	0.414
92.000	128.905	80.010	19.995	103.396	19.922	3.070	0.413
93.999	129.680	80.008	19.995	103.395	19.917	3.450	0.417
95.999	130.540	80.009	19.995	103.388	19.917	3.442	0.451
97.999	131.343	80.010	19.995	103.397	19.920	3.205	0.418
99.999	132.162	80.009	19.995	103.395	19.918	3.339	0.413
101.999	133.021	80.010	19.994	103.392	19.915	3.526	0.432
103.999	133.912	80.010	19.996	103.393	19.914	3.641	0.428
105.999	134.809	80.010	19.995	103.395	19.914	3.602	0.441
107.999	135.654	80.012	19.994	103.396	19.915	3.560	0.443
109.999	136.539	80.010	19.995	103.395	19.913	3.668	0.423
111.999	137.514	80.010	19.994	103.389	19.916	3.475	0.470
113.999	138.401	80.009	19.993	103.393	19.916	3.481	0.464
115.999	139.299	80.009	19.995	103.394	19.917	3.393	0.456
117.999	140.241	80.009	19.994	103.394	19.919	3.279	0.478
119.999	141.161	80.007	19.996	103.383	19.919	3.299	0.445
121.999	142.092	80.006	19.995	103.388	19.917	3.392	0.466
123.999	143.071	80.007	19.996	103.389	19.918	3.329	0.468
125.999	144.031	80.007	19.996	103.392	19.918	3.337	0.493
127.999	145.031	80.007	19.995	103.391	19.919	3.272	0.502
130.000	145.980	80.006	19.996	103.387	19.917	3.437	0.511
132.000	146.947	80.007	19.995	103.386	19.918	3.338	0.471
133.999	147.919	80.009	19.995	103.380	19.917	3.444	0.485
135.999	148.898	80.007	19.996	103.390	19.914	3.594	0.496
137.999	149.888	80.009	19.995	103.379	19.917	3.399	0.490
139.999	150.883	80.008	19.994	103.385	19.918	3.329	0.488
141.999	151.892	80.007	19.995	103.375	19.916	3.459	0.514
143.999	152.862	80.009	19.994	103.370	19.918	3.343	0.481
145.999	153.846	80.009	19.995	103.373	19.918	3.332	0.509
147.999	154.826	80.009	19.995	103.369	19.916	3.478	0.520
149.999	155.799	80.007	19.994	103.383	19.916	3.489	0.519
151.999	156.784	80.008	19.994	103.371	19.914	3.599	0.484
153.999	157.788	80.009	19.995	103.368	19.916	3.467	0.489
155.999	158.852	80.009	19.995	103.361	19.918	3.334	0.533
157.999	159.809	80.009	19.995	103.359	19.916	3.487	0.505
159.999	160.778	80.009	19.995	103.378	19.916	3.467	0.477
161.999	161.811	80.009	19.994	103.365	19.914	3.593	0.528
163.999	162.822	80.010	19.994	103.363	19.916	3.457	0.528
165.999	163.777	80.011	19.995	103.360	19.919	3.285	0.504
167.999	164.847	80.012	19.994	103.361	19.917	3.446	0.505
169.999	165.876	80.010	19.995	103.359	19.916	3.494	0.507
171.999	166.877	80.009	19.994	103.357	19.915	3.548	0.509
173.999	167.892	80.011	19.994	103.359	19.915	3.525	0.536
175.999	168.897	80.008	19.994	103.360	19.916	3.484	0.520
177.999	169.884	80.010	19.994	103.359	19.916	3.492	0.510
179.999	170.872	80.009	19.996	103.361	19.916	3.471	0.492
181.999	171.879	80.008	19.995	103.362	19.917	3.449	0.502
183.999	172.899	80.010	19.993	103.361	19.913	3.656	0.518
185.999	173.890	80.009	19.994	103.361	19.915	3.555	0.506
187.999	174.871	80.010	19.995	103.359	19.911	3.826	0.502
189.999	175.880	80.011	19.995	103.356	19.914	3.589	0.506
192.000	176.867	80.009	19.995	103.357	19.913	3.680	0.475
193.999	177.884	80.010	19.994	103.354	19.914	3.622	0.495
195.999	178.876	80.008	19.995	103.357	19.912	3.730	0.486
197.999	179.879	80.009	19.994	103.357	19.913	3.710	0.514
199.999	180.837	80.005	19.995	103.349	19.911	3.823	0.512
201.999	181.867	80.007	19.994	103.355	19.910	3.865	0.500
203.999	182.873	80.010	19.995	103.351	19.909	3.974	0.489
205.999	183.806	80.007	19.995	103.351	19.906	4.133	0.483
207.999	184.826	80.008	19.995	103.348	19.908	4.012	0.493
209.999	185.832	80.010	19.995	103.347	19.907	4.100	0.503
211.999	186.872	80.009	19.996	103.350	19.908	4.017	0.501
213.999	187.852	80.007	19.995	103.348	19.906	4.163	0.481
215.999	188.827	80.007	19.996	103.336	19.905	4.219	0.489
217.999	189.787	80.009	19.995	103.335	19.903	4.381	0.489
219.999	190.818	80.009	19.996	103.331	19.905	4.246	0.504
221.999	191.784	80.009	19.994	103.331	19.903	4.369	0.502
223.999	192.802	80.009	19.996	103.328	19.902	4.390	0.519
225.999	193.776	80.009	19.996	103.327	19.900	4.556	0.480
227.999	194.768	80.007	19.996	103.325	19.899	4.632	0.480
229.999	195.711	80.010	19.996	103.333	19.898	4.686	0.441
231.999	196.684	80.009	19.996	103.330	19.897	4.719	0.474
233.999	197.707	80.008	19.995	103.339	19.899	4.647	0.515
235.999	198.698	80.009	19.995	103.341	19.897	4.763	0.497
237.999	199.659	80.007	19.994	103.335	19.896	4.841	0.479
239.999	200.618	80.009	19.994	103.333	19.897	4.745	0.466
241.999	201.654	80.009	19.994	103.346	19.896	4.805	0.505
243.999	202.667	80.010	19.994	103.337	19.893	5.050	0.486
245.999	203.615	80.009	19.994	103.325	19.892	5.117	0.483
248.000	204.675	80.011	19.994	103.331	19.890	5.230	0.513
249.999	205.609	80.011	19.994	103.346	19.890	5.221	0.502
251.999	206.602	80.010	19.994	103.333	19.886	5.503	0.483
254.000	207.634	80.010	19.994	103.343	19.887	5.419	0.520
255.999	208.598	80.010	19.994	103.346	19.885	5.527	0.478
257.999	209.593	80.010	19.994	103.345	19.884	5.621	0.496
259.999	210.570	80.008	19.994	103.338	19.880	5.908	0.486
261.999	211.565	80.009	19.994	103.333	19.881	5.819	0.480
263.999	212.549	80.009	19.994	103.333	19.878	6.018	0.508
265.999	213.502	80.009	19.995	103.346	19.879	5.950	0.493
267.999	214.532	80.009	19.995	103.355	19.875	6.205	0.501
269.999	215.497	80.011	19.995	103.336	19.874	6.290	0.516
272.000	216.535	80.011	19.994	103.326	19.869	6.593	0.494
274.000	217.490	80.012	19.994	103.331	19.870	6.553	0.494
275.999	218.482	80.011	19.994	103.341	19.871	6.488	0.488
277.999	219.469	80.009	19.995	103.338	19.869	6.631	0.503
279.999	220.445	80.008	19.996	103.330	19.866	6.798	0.497
281.999	221.457	80.010	19.995	103.333	19.865	6.904	0.505
283.999	222.450	80.007	19.996	103.333	19.863	7.028	0.508
285.999	223.403	80.007	19.994	103.336	19.862	7.116	0.464
287.999	224.399	80.007	19.995	103.338	19.859	7.310	0.498
289.999	225.415	80.007	19.996	103.341	19.860	7.225	0.480
291.999	226.407	80.007	19.996	103.342	19.859	7.304	0.483
293.999	227.388	80.007	19.995	103.332	19.860	7.224	0.512
295.999	228.407	80.008	19.996	103.335	19.853	7.710	0.515
297.999	229.455	80.008	19.995	103.337	19.852	7.769	0.523
299.999	230.442	80.007	19.994	103.341	19.849	7.966	0.512
301.999	231.459	80.008	19.993	103.346	19.849	7.965	0.485
303.999	232.425	80.007	19.995	103.338	19.847	8.096	0.525
305.999	233.439	80.008	19.995	103.353	19.844	8.303	0.521
307.999	234.427	80.009	19.995	103.330	19.841	8.510	0.526
310.000	235.415	80.005	19.995	103.353	19.836	8.822	0.488
311.999	236.372	80.009	19.995	103.341	19.833	9.011	0.477
313.999	237.412	80.006	19.995	103.340	19.832	9.123	0.480
315.999	238.383	80.006	19.995	103.353	19.830	9.247	0.480
318.000	239.357	80.008	19.995	103.347	19.824	9.622	0.496
319.999	240.337	80.007	19.996	103.355	19.824	9.642	0.486
322.000	241.277	80.006	19.996	103.348	19.818	10.038	0.466
324.000	242.301	80.007	19.996	103.361	19.815	10.258	0.526
326.000	243.271	80.007	19.996	103.360	19.813	10.378	0.498
328.000	244.330	80.009	19.995	103.360	19.808	10.692	0.460
329.999	245.289	80.008	19.994	103.359	19.803	10.996	0.480
332.000	246.299	80.009	19.994	103.360	19.801	11.171	0.484
333.999	247.314	80.009	19.994	103.358	19.794	11.629	0.502
335.999	248.284	80.010	19.994	103.359	19.788	12.027	0.484
337.999	249.350	80.010	19.994	103.358	19.786	12.195	0.502
339.999	250.315	80.012	19.995	103.358	19.776	12.798	0.494
341.999	251.347	80.009	19.994	103.359	19.773	13.049	0.491
343.999	252.351	80.011	19.994	103.360	19.767	13.441	0.493
345.999	253.316	80.008	19.995	103.364	19.761	13.802	0.481
347.999	254.300	80.008	19.994	103.367	19.757	14.132	0.483
349.999	255.346	80.010	19.995	103.371	19.749	14.622	0.543
351.999	256.325	80.006	19.994	103.365	19.741	15.152	0.499
353.999	257.298	80.011	19.993	103.375	19.737	15.440	0.494
355.999	258.298	80.010	19.994	103.369	19.730	15.910	0.490
357.999	259.305	80.011	19.993	103.368	19.723	16.373	0.480
359.999	260.295	80.011	19.994	103.381	19.716	16.873	0.479
361.999	261.297	80.010	19.994	103.380	19.710	17.271	0.499
364.000	262.310	80.010	19.994	103.380	19.702	17.803	0.528
365.999	263.316	80.009	19.994	103.395	19.695	18.255	0.505
367.999	264.272	80.008	19.993	103.394	19.686	18.879	0.492
369.999	265.248	80.008	19.994	103.398	19.679	19.293	0.465
371.999	266.282	80.007	19.993	103.400	19.672	19.784	0.481
374.000	267.311	80.008	19.993	103.402	19.664	20.341	0.525
375.999	268.324	80.007	19.994	103.404	19.655	20.900	0.506
377.999	269.320	80.008	19.994	103.402	19.648	21.384	0.523
379.999	270.324	80.007	19.994	103.406	19.636	22.214	0.531
381.999	271.347	80.006	19.995	103.413	19.630	22.597	0.505
383.999	272.341	80.010	19.995	103.417	19.617	23.488	0.504
385.999	273.348	80.007	19.995	103.419	19.608	24.074	0.501
387.999	274.378	80.008	19.995	103.405	19.601	24.501	0.513
389.999	275.366	80.007	19.995	103.421	19.591	25.196	0.493
391.999	276.371	80.008	19.995	103.432	19.584	25.673	0.514
393.999	277.349	80.008	19.993	103.438	19.575	26.262	0.488
395.999	278.369	80.007	19.994	103.441	19.567	26.792	0.504
397.999	279.367	80.008	19.993	103.436	19.559	27.321	0.512
400.000	280.381	80.009	19.994	103.435	19.551	27.858	0.508
401.999	281.345	80.007	19.994	103.440	19.541	28.569	0.517
403.999	282.395	80.008	19.995	103.439	19.536	28.910	0.509
405.999	283.398	80.007	19.996	103.438	19.525	29.640	0.517
407.999	284.370	80.009	19.995	103.439	19.514	30.324	0.510
409.999	285.393	80.009	19.995	103.442	19.505	30.940	0.500
411.999	286.409	80.010	19.995	103.449	19.495	31.618	0.506
413.999	287.434	80.009	19.995	103.444	19.487	32.133	0.521
415.999	288.440	80.009	19.995	103.441	19.476	32.893	0.508
417.999	289.468	80.012	19.994	103.445	19.471	33.207	0.503
419.999	290.469	80.006	19.995	103.448	19.461	33.902	0.502
421.999	291.519	80.009	19.995	103.465	19.455	34.311	0.535
423.999	292.479	80.010	19.995	103.469	19.447	34.854	0.457
425.999	293.506	80.008	19.994	103.463	19.440	35.289	0.524
427.999	294.490	80.010	19.994	103.473	19.427	36.152	0.489
429.999	295.524	80.010	19.993	103.470	19.426	36.273	0.527
431.999	296.508	80.009	19.995	103.474	19.420	36.640	0.468
433.999	297.536	80.010	19.994	103.474	19.409	37.397	0.501
435.999	298.567	80.009	19.994	103.475	19.406	37.602	0.552
437.999	299.517	80.011	19.993	103.479	19.399	38.028	0.504
439.999	300.544	80.011	19.994	103.478	19.393	38.469	0.503
441.999	301.560	80.011	19.994	103.479	19.389	38.688	0.476
443.999	302.588	80.011	19.993	103.475	19.383	39.128	0.510
445.999	303.593	80.010	19.993	103.479	19.373	39.770	0.525
447.999	304.628	80.009	19.995	103.475	19.371	39.892	0.517
449.999	305.622	80.007	19.994	103.475	19.366	40.253	0.522
451.999	306.591	80.009	19.993	103.479	19.357	40.831	0.502
453.999	307.652	80.008	19.994	103.480	19.354	41.038	0.505
455.999	308.604	80.009	19.994	103.482	19.352	41.179	0.501
457.999	309.664	80.008	19.994	103.479	19.346	41.594	0.521
459.999	310.665	80.008	19.994	103.484	19.344	41.703	0.457
461.999	311.689	80.009	19.994	103.484	19.342	41.855	0.536
463.999	312.672	80.007	19.994	103.484	19.338	42.128	0.515
465.999	313.686	80.009	19.994	103.479	19.333	42.473	0.486
467.999	314.735	80.011	19.993	103.478	19.333	42.434	0.549
469.999	315.740	80.010	19.994	103.476	19.333	42.480	0.501
471.999	316.739	80.011	19.993	103.477	19.327	42.833	0.494
473.999	317.757	80.009	19.996	103.476	19.327	42.888	0.495
475.999	318.763	80.009	19.995	103.476	19.323	43.110	0.503
477.999	319.717	80.007	19.994	103.479	19.320	43.307	0.455
479.999	320.760	80.006	19.995	103.480	19.316	43.595	0.473
481.999	321.766	80.008	19.995	103.479	19.316	43.596	0.488
483.999	322.791	80.007	19.995	103.479	19.308	44.134	0.494
485.999	323.795	80.009	19.995	103.496	19.310	43.987	0.485
487.999	324.834	80.008	19.995	103.492	19.302	44.521	0.522
489.999	325.861	80.009	19.994	103.480	19.295	45.011	0.536
491.999	326.837	80.009	19.994	103.486	19.289	45.391	0.518
493.999	327.872	80.009	19.994	103.489	19.287	45.580	0.500
495.999	328.844	80.009	19.995	103.496	19.283	45.843	0.481
497.999	329.864	80.009	19.995	103.492	19.274	46.386	0.495
499.999	330.901	80.008	19.995	103.494	19.267	46.880	0.520
501.999	331.892	80.007	19.995	103.513	19.258	47.473	0.522
503.999	332.960	80.010	19.995	103.516	19.248	48.186	0.547
505.999	333.930	80.008	19.994	103.522	19.239	48.785	0.500
507.999	334.955	80.006	19.995	103.520	19.229	49.462	0.507
509.999	335.951	80.006	19.995	103.523	19.217	50.248	0.467
511.999	336.991	80.009	19.997	103.524	19.201	51.363	0.521
514.000	338.007	80.008	19.996	103.534	19.191	52.008	0.508
516.000	339.026	80.010	19.994	103.554	19.176	53.032	0.503
517.999	340.039	80.009	19.996	103.551	19.159	54.128	0.486
519.999	341.095	80.011	19.994	103.571	19.142	55.332	0.519
521.999	342.050	80.011	19.993	103.590	19.118	56.927	0.518
524.000	343.089	80.009	19.993	103.593	19.097	58.309	0.490
525.999	344.088	80.009	19.993	103.598	19.070	60.110	0.479
527.999	345.113	80.008	19.994	103.597	19.049	61.559	0.510
530.000	346.090	80.008	19.996	103.617	19.023	63.321	0.515
532.000	347.149	80.008	19.994	103.630	18.991	65.407	0.502
534.000	348.158	80.006	19.994	103.632	18.965	67.206	0.524
535.999	349.141	80.009	19.993	103.634	18.933	69.300	0.495
537.999	350.210	80.007	19.995	103.644	18.903	71.301	0.530
540.000	351.144	80.004	19.994	103.667	18.874	73.258	0.496
542.000	352.217	80.008	19.995	103.672	18.848	74.987	0.544
543.999	353.268	80.007	19.994	103.672	18.820	76.842	0.561
545.999	354.246	80.008	19.994	103.673	18.791	78.822	0.520
548.000	355.229	80.010	19.994	103.673	18.773	79.995	0.488
550.000	356.230	80.009	19.995	103.672	18.762	80.718	0.479
552.000	357.240	80.009	19.995	103.670	18.742	82.029	0.500
553.999	358.255	80.009	19.995	103.656	18.736	82.357	0.484
556.000	359.314	80.011	19.995	103.636	18.741	82.009	0.484
557.999	360.305	80.010	19.994	103.609	18.755	81.078	0.489
560.000	361.489	80.009	19.994	103.589	18.780	79.396	0.550
562.000	362.388	80.009	19.993	103.556	18.813	77.164	0.346
564.000	363.574	80.007	19.995	103.517	18.856	74.245	0.295
565.999	364.261	80.010	19.994	103.485	18.905	71.002	0.567
568.000	365.363	80.005	19.994	103.449	18.965	67.007	0.578
569.999	366.360	80.009	19.995	103.432	19.033	62.448	0.481
571.999	367.343	80.003	19.994	103.403	19.104	57.701	0.452
573.999	368.353	80.006	19.995	103.386	19.174	52.980	0.463
575.999	369.365	80.008	19.994	103.362	19.242	48.440	0.544
577.999	370.361	80.006	19.995	103.354	19.310	43.939	0.477
579.999	371.392	80.009	19.995	103.348	19.375	39.606	0.501
581.999	372.360	80.009	19.995	103.329	19.434	35.614	0.503
584.000	373.424	80.009	19.995	103.318	19.492	31.772	0.507
586.000	374.465	80.008	19.994	103.309	19.545	28.227	0.518
588.000	375.502	80.008	19.995	103.306	19.588	25.380	0.501
590.000	376.482	80.007	19.995	103.295	19.621	23.139	0.511
591.999	377.490	80.009	19.994	103.288	19.661	20.490	0.470
593.999	378.525	80.007	19.994	103.295	19.686	18.797	0.522
596.000	379.539	80.010	19.995	103.284	19.712	17.076	0.497
598.000	380.548	80.010	19.995	103.282	19.735	15.582	0.515
600.000	381.552	80.009	19.996	103.281	19.749	14.599	0.507
601.999	382.535	80.010	19.994	103.279	19.764	13.611	0.510
603.999	383.519	80.010	19.995	103.277	19.776	12.811	0.485
606.000	384.519	80.011	19.996	103.277	19.786	12.159	0.487
608.000	385.517	80.010	19.994	103.276	19.792	11.735	0.508
610.000	386.530	80.010	19.994	103.273	19.801	11.128	0.493
611.999	387.525	80.008	19.994	103.273	19.808	10.678	0.489
614.000	388.527	80.009	19.995	103.271	19.814	10.281	0.486
616.000	389.467	80.008	19.994	103.277	19.819	9.949	0.447
617.999	390.464	80.010	19.994	103.272	19.825	9.527	0.497
619.999	391.486	80.009	19.994	103.274	19.829	9.282	0.481
622.000	392.526	80.008	19.994	103.274	19.831	9.151	0.510
623.999	393.512	80.006	19.994	103.275	19.834	8.934	0.500
625.999	394.559	80.008	19.994	103.269	19.838	8.694	0.489
627.999	395.583	80.009	19.994	103.273	19.839	8.615	0.511
630.000	396.543	80.009	19.994	103.268	19.845	8.225	0.507
631.999	397.566	80.010	19.994	103.270	19.843	8.334	0.478
634.000	398.557	80.008	19.994	103.276	19.845	8.250	0.486
636.000	399.575	80.008	19.994	103.267	19.843	8.321	0.490
638.000	400.584	80.009	19.994	103.272	19.850	7.912	0.505
640.000	401.555	80.009	19.995	103.278	19.852	7.746	0.465
642.000	402.592	80.008	19.994	103.279	19.851	7.828	0.510
643.999	403.638	80.008	19.995	103.267	19.855	7.575	0.544
646.000	404.653	80.008	19.994	103.272	19.855	7.540	0.494
647.999	405.612	80.009	19.995	103.282	19.859	7.301	0.484
650.000	406.622	80.008	19.993	103.282	19.857	7.398	0.502
652.000	407.631	80.009	19.994	103.277	19.859	7.280	0.491
654.000	408.630	80.008	19.994	103.271	19.859	7.250	0.493
656.000	409.595	80.009	19.993	103.264	19.860	7.229	0.469
658.000	410.646	80.009	19.994	103.271	19.864	6.964	0.485
659.999	411.636	80.010	19.994	103.266	19.865	6.902	0.504
662.000	412.683	80.010	19.995	103.267	19.866	6.828	0.489
663.999	413.680	80.011	19.994	103.269	19.865	6.899	0.490
666.000	414.694	80.010	19.996	103.261	19.867	6.739	0.510
667.999	415.699	80.010	19.995	103.264	19.868	6.712	0.512
669.999	416.729	80.009	19.995	103.259	19.871	6.503	0.535
671.999	417.732	80.008	19.996	103.248	19.870	6.529	0.521
673.999	418.747	80.009	19.994	103.254	19.872	6.388	0.514
675.999	419.757	80.009	19.995	103.255	19.871	6.509	0.513
677.999	420.749	80.010	19.994	103.262	19.872	6.393	0.480
679.999	421.729	80.010	19.995	103.251	19.873	6.327	0.479
682.000	422.766	80.010	19.995	103.260	19.873	6.330	0.504
683.999	423.779	80.011	19.994	103.264	19.876	6.167	0.480
686.000	424.871	80.012	19.994	103.256	19.879	5.931	0.546
687.999	425.855	80.011	19.994	103.259	19.882	5.767	0.516
689.999	426.836	80.010	19.995	103.248	19.882	5.753	0.502
691.999	427.860	80.010	19.995	103.262	19.884	5.590	0.509
694.000	428.876	80.011	19.995	103.262	19.883	5.681	0.521
696.000	429.883	80.009	19.995	103.266	19.880	5.912	0.507
697.999	430.903	80.009	19.994	103.247	19.883	5.681	0.496
699.999	431.916	80.008	19.996	103.256	19.887	5.445	0.505
701.999	432.922	80.008	19.994	103.248	19.890	5.211	0.506
703.999	433.969	80.008	19.995	103.252	19.883	5.664	0.504
706.000	434.976	80.008	19.995	103.249	19.889	5.248	0.521
708.000	436.014	80.008	19.995	103.249	19.888	5.320	0.513
709.999	437.004	80.009	19.994	103.261	19.890	5.232	0.480
712.000	437.991	80.008	19.995	103.249	19.892	5.090	0.493
713.999	439.007	80.008	19.994	103.250	19.892	5.103	0.517
715.999	440.002	80.010	19.995	103.247	19.893	5.006	0.514
718.000	441.023	80.007	19.994	103.248	19.898	4.685	0.509
719.999	442.022	80.008	19.994	103.248	19.899	4.627	0.499
721.999	443.048	80.008	19.994	103.249	19.896	4.782	0.496
723.999	444.069	80.007	19.994	103.250	19.901	4.480	0.522
726.000	445.079	80.006	19.994	103.251	19.899	4.628	0.520
728.000	446.043	80.008	19.994	103.250	19.902	4.390	0.471
729.999	447.079	80.008	19.994	103.246	19.902	4.446	0.507
732.000	448.105	80.008	19.995	103.242	19.902	4.387	0.521
734.000	449.071	80.008	19.995	103.242	19.905	4.228	0.518
735.999	450.128	80.008	19.995	103.245	19.907	4.097	0.541
738.000	451.144	80.009	19.994	103.247	19.911	3.829	0.533
739.999	452.140	80.011	19.995	103.245	19.907	4.089	0.518
741.999	453.150	80.010	19.994	103.244	19.906	4.145	0.511
743.999	454.141	80.010	19.994	103.247	19.908	4.001	0.491
745.999	455.212	80.010	19.995	103.241	19.909	3.924	0.536
748.000	456.182	80.009	19.994	103.241	19.912	3.713	0.531
749.999	457.216	80.010	19.995	103.241	19.913	3.659	0.483
752.000	458.263	80.010	19.994	103.240	19.919	3.312	0.505
753.999	459.265	80.010	19.995	103.242	19.915	3.517	0.516
755.999	460.298	80.008	19.994	103.241	19.917	3.388	0.503
758.000	461.308	80.010	19.995	103.242	19.915	3.552	0.492
759.999	462.374	80.009	19.995	103.241	19.916	3.456	0.527
762.000	463.364	80.008	19.995	103.241	19.920	3.246	0.503
763.999	464.352	80.009	19.995	103.242	19.921	3.129	0.472
765.999	465.318	80.010	19.995	103.241	19.921	3.159	0.484
768.000	466.358	80.011	19.994	103.240	19.921	3.163	0.472
769.999	467.374	80.011	19.994	103.243	19.922	3.107	0.514
772.000	468.405	80.010	19.995	103.241	19.922	3.080	0.521
774.000	469.411	80.010	19.994	103.239	19.923	2.983	0.521
776.000	470.434	80.009	19.994	103.244	19.925	2.909	0.517
777.999	471.452	80.008	19.994	103.244	19.925	2.897	0.488
780.000	472.482	80.007	19.995	103.244	19.926	2.790	0.512
782.000	473.505	80.009	19.995	103.248	19.925	2.850	0.505
783.999	474.576	80.008	19.994	103.245	19.924	2.913	0.530
786.000	475.526	80.006	19.996	103.241	19.928	2.655	0.500
787.999	476.554	80.008	19.996	103.243	19.928	2.646	0.491
789.999	477.575	80.007	19.996	103.242	19.929	2.609	0.514
791.999	478.586	80.006	19.996	103.242	19.927	2.762	0.480
793.999	479.574	80.009	19.996	103.240	19.932	2.420	0.491
795.999	480.632	80.008	19.996	103.240	19.929	2.625	0.512
798.000	481.703	80.008	19.996	103.239	19.934	2.247	0.549
800.000	482.678	80.009	19.995	103.239	19.931	2.479	0.536
802.000	483.708	80.007	19.995	103.240	19.934	2.279	0.513
803.999	484.699	80.008	19.994	103.240	19.933	2.333	0.489
806.000	485.737	80.007	19.994	103.233	19.930	2.538	0.529
808.000	486.784	80.009	19.995	103.234	19.934	2.272	0.524
809.999	487.829	80.008	19.994	103.236	19.936	2.152	0.506
811.999	488.833	80.008	19.995	103.235	19.937	2.053	0.536
814.000	489.895	80.008	19.994	103.234	19.932	2.389	0.511
815.999	490.915	80.008	19.994	103.235	19.938	2.006	0.516
818.000	491.900	80.009	19.994	103.227	19.936	2.166	0.499
820.000	492.900	80.009	19.994	103.244	19.932	2.441	0.508
821.999	493.967	80.010	19.994	103.220	19.938	2.042	0.546
823.999	494.984	80.009	19.994	103.238	19.937	2.078	0.539
825.999	496.033	80.011	19.994	103.241	19.941	1.781	0.518
827.999	497.011	80.010	19.994	103.239	19.935	2.234	0.515
829.999	498.040	80.010	19.995	103.231	19.939	1.927	0.525
832.000	499.062	80.009	19.995	103.238	19.940	1.905	0.487
834.000	500.093	80.009	19.994	103.225	19.937	2.055	0.537
835.999	501.082	80.010	19.995	103.230	19.935	2.202	0.517
837.999	502.086	80.010	19.993	103.220	19.937	2.074	0.502
840.000	503.149	80.011	19.998	103.233	19.941	1.806	0.513
842.000	504.129	80.009	19.996	103.227	19.940	1.857	0.508
844.000	505.182	80.011	19.995	103.238	19.941	1.822	0.544
846.000	506.139	80.010	19.994	103.231	19.938	2.020	0.464
847.999	507.188	80.011	19.994	103.221	19.939	1.952	0.523
849.999	508.167	80.009	19.994	103.239	19.940	1.908	0.487
851.999	509.221	80.010	19.994	103.239	19.936	2.134	0.511
853.999	510.185	80.012	19.994	103.223	19.936	2.167	0.483
856.000	511.232	80.010	19.995	103.211	19.941	1.835	0.520
857.999	512.199	80.009	19.995	103.234	19.943	1.646	0.466
860.000	513.217	80.009	19.994	103.226	19.941	1.811	0.511
862.000	514.218	80.008	19.995	103.227	19.940	1.883	0.531
864.000	515.255	80.009	19.995	103.219	19.945	1.527	0.519
865.999	516.263	80.008	19.994	103.220	19.946	1.478	0.491
867.999	517.285	80.007	19.995	103.223	19.942	1.757	0.519
869.999	518.268	80.008	19.994	103.214	19.942	1.725	0.511
872.000	519.284	80.009	19.996	103.225	19.943	1.646	0.539
873.999	520.295	80.009	19.995	103.227	19.943	1.705	0.493
876.000	521.304	80.008	19.994	103.211	19.944	1.585	0.494
877.999	522.357	80.008	19.995	103.211	19.943	1.700	0.520
879.999	523.365	80.010	19.997	103.220	19.945	1.520	0.481
882.000	524.370	80.007	19.995	103.218	19.945	1.556	0.493
883.999	525.344	80.008	19.994	103.218	19.947	1.410	0.488
885.999	526.340	80.008	19.995	103.211	19.943	1.675	0.474
887.999	527.328	80.008	19.996	103.215	19.946	1.498	0.516
889.999	528.328	80.008	19.996	103.218	19.941	1.801	0.508
891.999	529.317	80.006	19.996	103.222	19.945	1.563	0.538
893.999	530.298	80.007	19.996	103.224	19.946	1.469	0.501
895.999	531.233	80.008	19.995	103.222	19.942	1.741	0.491
897.999	532.263	80.009	19.994	103.215	19.949	1.282	0.520
900.000	533.213	80.008	19.994	103.208	19.945	1.576	0.473
901.999	534.213	80.009	19.995	103.226	19.943	1.696	0.513
903.999	535.227	80.008	19.994	103.213	19.950	1.211	0.517
906.000	536.189	80.009	19.994	103.218	19.946	1.464	0.488
908.000	537.149	80.010	19.994	103.219	19.943	1.673	0.471
909.999	538.123	80.010	19.993	103.222	19.949	1.297	0.489
911.999	539.127	80.008	19.994	103.222	19.944	1.594	0.502
914.000	540.117	80.008	19.995	103.226	19.947	1.421	0.492
915.999	541.107	80.008	19.993	103.220	19.943	1.664	0.495
918.000	542.123	80.009	19.995	103.240	19.946	1.489	0.530
920.000	543.161	80.009	19.994	103.220	19.949	1.274	0.510
922.000	544.136	80.009	19.995	103.218	19.948	1.344	0.484
923.999	545.151	80.010	19.995	103.214	19.946	1.509	0.512
925.999	546.146	80.009	19.995	103.206	19.945	1.574	0.512
928.000	547.207	80.011	19.995	103.212	19.946	1.451	0.555
929.999	548.203	80.009	19.994	103.231	19.944	1.608	0.498
931.999	549.271	80.010	19.994	103.224	19.945	1.574	0.541
933.999	550.302	80.012	19.995	103.226	19.948	1.371	0.505
935.999	551.332	80.010	19.993	103.229	19.944	1.595	0.520
937.999	552.402	80.010	19.993	103.224	19.947	1.423	0.555
940.000	553.463	80.008	19.995	103.218	19.945	1.538	0.507
942.000	554.556	80.007	19.995	103.239	19.950	1.212	0.559
944.000	555.635	80.008	19.994	103.219	19.949	1.261	0.544
945.999	556.753	80.007	19.995	103.211	19.947	1.385	0.534
947.999	557.846	80.008	19.995	103.212	19.945	1.544	0.548
949.999	558.882	80.008	19.995	103.210	19.951	1.128	0.496
952.000	559.990	80.008	19.995	103.208	19.952	1.059	0.551
954.000	561.076	80.008	19.995	103.216	19.948	1.336	0.544
956.000	562.200	80.009	19.994	103.217	19.949	1.290	0.541
958.000	563.296	80.008	19.995	103.228	19.942	1.712	0.576
959.999	564.422	80.007	19.994	103.236	19.945	1.565	0.593
962.000	565.491	80.008	19.995	103.229	19.949	1.279	0.537
964.000	566.525	80.009	19.995	103.210	19.952	1.059	0.550
966.000	567.633	80.008	19.995	103.209	19.950	1.241	0.565
967.999	568.678	80.008	19.995	103.215	19.945	1.545	0.519
970.000	569.777	80.007	19.995	103.210	19.946	1.477	0.543
972.000	570.805	80.006	19.994	103.210	19.948	1.326	0.530
974.000	571.842	80.005	19.996	103.209	19.945	1.532	0.489
975.999	572.945	80.006	19.996	103.207	19.946	1.469	0.558
977.999	573.993	80.005	19.997	103.214	19.951	1.133	0.524
980.000	575.047	80.006	19.996	103.216	19.952	1.101	0.502
981.999	576.130	80.007	19.995	103.210	19.954	0.943	0.534
983.999	577.097	80.008	19.997	103.208	19.952	1.110	0.496
985.999	578.131	80.009	19.996	103.211	19.950	1.232	0.511
988.000	579.194	80.010	19.995	103.209	19.951	1.155	0.514
989.999	580.210	80.009	19.995	103.220	19.953	1.029	0.501
991.999	581.248	80.009	19.995	103.215	19.951	1.146	0.503
994.000	582.298	80.010	19.996	103.215	19.953	1.027	0.525
996.000	583.340	80.009	19.995	103.211	19.951	1.133	0.538
997.999	584.376	80.008	19.995	103.219	19.951	1.175	0.498
999.999	585.454	80.009	19.994	103.203	19.953	1.018	0.546
1001.999	586.475	80.010	19.995	103.202	19.951	1.176	0.516
1003.999	587.503	80.010	19.995	103.210	19.953	1.034	0.530
1006.000	588.551	80.010	19.994	103.214	19.952	1.059	0.514
1007.999	589.591	80.011	19.996	103.221	19.953	0.980	0.505
1010.000	590.602	80.009	19.995	103.219	19.953	1.014	0.513
1011.999	591.682	80.011	19.994	103.216	19.950	1.241	0.507
1013.999	592.696	80.012	19.995	103.227	19.948	1.372	0.507
1015.999	593.712	80.012	19.994	103.208	19.952	1.059	0.497
1018.000	594.777	80.010	19.994	103.209	19.949	1.277	0.545
1019.999	595.766	80.011	19.993	103.206	19.948	1.331	0.534
1022.000	596.800	80.011	19.995	103.205	19.952	1.050	0.516
1023.999	597.832	80.009	19.994	103.213	19.949	1.282	0.536
1025.999	598.856	80.008	19.994	103.209	19.948	1.363	0.526
1027.999	599.857	80.009	19.994	103.205	19.946	1.468	0.503
1029.999	600.901	80.009	19.994	103.207	19.951	1.155	0.489
1031.999	601.959	80.009	19.994	103.207	19.951	1.137	0.517
1033.999	602.960	80.009	19.994	103.207	19.955	0.847	0.506
1035.999	603.936	80.008	19.995	103.210	19.951	1.166	0.481
1037.999	604.971	80.009	19.993	103.213	19.952	1.050	0.499
1039.999	606.016	80.008	19.995	103.213	19.953	1.002	0.506
1042.000	607.035	80.007	19.995	103.208	19.955	0.899	0.520
1043.999	608.063	80.008	19.996	103.206	19.958	0.687	0.527
1046.000	609.064	80.007	19.995	103.216	19.954	0.962	0.505
1048.000	610.138	80.009	19.995	103.214	19.955	0.847	0.516
1050.000	611.128	80.007	19.995	103.206	19.953	0.978	0.514
1051.999	612.119	80.010	19.995	103.204	19.955	0.883	0.534
1053.999	613.154	80.008	19.996	103.205	19.953	1.009	0.517
1055.999	614.178	80.007	19.996	103.204	19.952	1.097	0.495
1057.999	615.219	80.008	19.996	103.205	19.954	0.942	0.535
1059.999	616.222	80.007	19.996	103.202	19.952	1.086	0.541
1061.999	617.216	80.008	19.995	103.203	19.953	1.011	0.492
1064.000	618.245	80.008	19.995	103.203	19.957	0.719	0.504
1066.000	619.274	80.008	19.995	103.205	19.952	1.084	0.514
1067.999	620.273	80.009	19.994	103.205	19.953	0.982	0.504
1069.999	621.282	80.009	19.995	103.202	19.950	1.219	0.510
1072.000	622.273	80.009	19.995	103.207	19.953	1.022	0.495
1074.000	623.317	80.009	19.996	103.209	19.953	1.011	0.516
1075.999	624.340	80.008	19.995	103.206	19.956	0.817	0.499
1078.000	625.349	80.009	19.996	103.201	19.954	0.953	0.522
1079.999	626.346	80.008	19.996	103.207	19.950	1.180	0.504
1081.999	627.345	80.010	19.996	103.215	19.949	1.277	0.513
1083.999	628.355	80.009	19.996	103.206	19.951	1.157	0.508
1086.000	629.393	80.009	19.994	103.204	19.951	1.138	0.521
1087.999	630.390	80.010	19.994	103.212	19.945	1.531	0.512
1089.999	631.431	80.010	19.994	103.212	19.950	1.182	0.507
1092.000	632.414	80.010	19.994	103.211	19.948	1.374	0.496
1093.999	633.395	80.009	19.993	103.210	19.950	1.178	0.494
1095.999	634.417	80.012	19.993	103.218	19.951	1.167	0.512
1097.999	635.490	80.013	19.994	103.207	19.949	1.277	0.522
1099.999	636.499	80.011	19.993	103.205	19.949	1.248	0.522
1101.999	637.476	80.009	19.994	103.203	19.949	1.279	0.482
1104.000	638.524	80.009	19.996	103.213	19.949	1.291	0.519
1106.000	639.524	80.009	19.995	103.207	19.949	1.255	0.521
1107.999	640.491	80.006	19.994	103.205	19.950	1.245	0.482
1110.000	641.540	80.007	19.993	103.210	19.954	0.977	0.519
1111.999	642.556	80.008	19.994	103.209	19.951	1.162	0.521
1114.000	643.571	80.008	19.994	103.215	19.952	1.052	0.518
1115.999	644.567	80.008	19.995	103.213	19.951	1.133	0.516
1118.000	645.574	80.009	19.994	103.222	19.952	1.050	0.509
1119.999	646.561	80.009	19.994	103.209	19.948	1.351	0.524
1121.999	647.559	80.008	19.996	103.205	19.954	0.919	0.518
1123.999	648.611	80.011	19.995	103.213	19.958	0.703	0.533
1125.999	649.639	80.008	19.993	103.204	19.959	0.628	0.546
1127.999	650.622	80.009	19.994	103.205	19.953	1.014	0.482
1129.999	651.674	80.010	19.995	103.207	19.948	1.369	0.499
1132.000	652.686	80.008	19.994	103.203	19.952	1.090	0.497
1134.000	653.660	80.007	19.994	103.206	19.952	1.108	0.484
1136.000	654.697	80.008	19.996	103.203	19.955	0.870	0.490
1137.999	655.704	80.008	19.995	103.204	19.948	1.343	0.526
1139.999	656.659	80.007	19.995	103.204	19.950	1.227	0.451
1141.999	657.606	80.008	19.996	103.204	19.956	0.793	0.486
1144.000	658.559	80.008	19.994	103.200	19.951	1.135	0.463
1145.999	659.498	80.010	19.996	103.201	19.951	1.138	0.462
1148.000	660.452	80.011	19.995	103.201	19.955	0.851	0.472
1149.999	661.409	80.009	19.995	103.204	19.957	0.737	0.468
1152.000	662.364	80.010	19.994	103.206	19.952	1.092	0.464
1153.999	663.320	80.009	19.993	103.204	19.950	1.205	0.492
1155.999	664.246	80.011	19.996	103.205	19.954	0.941	0.480
1158.000	665.132	80.008	19.994	103.204	19.952	1.104	0.458
1159.999	666.036	80.010	19.995	103.204	19.950	1.203	0.435
1162.000	666.983	80.010	19.996	103.203	19.949	1.302	0.468
1163.999	667.911	80.007	19.996	103.200	19.953	0.986	0.445
1165.999	668.823	80.008	19.996	103.205	19.950	1.209	0.460
1167.999	669.735	80.009	19.994	103.202	19.955	0.845	0.468
1170.000	670.661	80.009	19.994	103.201	19.955	0.903	0.463
1172.000	671.541	80.010	19.997	103.202	19.947	1.432	0.447
1174.000	672.502	80.009	19.995	103.208	19.950	1.221	0.494
1175.999	673.444	80.010	19.994	103.206	19.950	1.194	0.475
1178.000	674.444	80.010	19.994	103.207	19.950	1.236	0.527
1179.999	675.407	80.011	19.995	103.205	19.952	1.065	0.481
1182.000	676.355	80.011	19.994	103.204	19.951	1.162	0.467
1183.999	677.335	80.011	19.994	103.207	19.946	1.464	0.503
1185.999	678.296	80.007	19.994	103.202	19.950	1.210	0.503
1188.000	679.215	80.009	19.994	103.208	19.944	1.604	0.459
1190.000	680.184	80.007	19.994	103.208	19.952	1.052	0.502
1192.000	681.211	80.008	19.996	103.203	19.949	1.302	0.500
1193.999	682.217	80.008	19.994	103.203	19.947	1.421	0.480
1195.999	683.191	80.009	19.994	103.204	19.949	1.286	0.495
1198.000	684.154	80.008	19.994	103.201	19.949	1.281	0.502
1199.999	685.147	80.007	19.994	103.195	19.950	1.182	0.505
1201.999	686.061	80.009	19.995	103.201	19.952	1.081	0.463
1203.999	687.035	80.011	19.995	103.200	19.946	1.466	0.521
1205.999	688.008	80.008	19.994	103.201	19.944	1.588	0.499
1208.000	689.019	80.008	19.994	103.202	19.946	1.477	0.509
1209.999	689.956	80.010	19.993	103.202	19.953	1.027	0.470
1211.999	690.961	80.009	19.994	103.202	19.942	1.719	0.509
1213.999	691.941	80.009	19.994	103.202	19.949	1.288	0.516
1216.000	692.904	80.009	19.994	103.204	19.946	1.507	0.517
1217.999	693.900	80.007	19.994	103.205	19.945	1.559	0.480
1219.999	694.891	80.008	19.994	103.207	19.949	1.250	0.488
1222.000	695.890	80.007	19.993	103.206	19.945	1.531	0.514
1223.999	696.906	80.009	19.994	103.205	19.944	1.579	0.531
1225.999	697.861	80.007	19.994	103.207	19.944	1.626	0.450
1227.999	698.855	80.009	19.996	103.207	19.951	1.158	0.487
1230.000	699.816	80.009	19.996	103.206	19.950	1.192	0.482
1231.999	700.810	80.010	19.995	103.206	19.944	1.644	0.530
1233.999	701.798	80.009	19.995	103.205	19.949	1.300	0.503
1235.999	702.755	80.010	19.995	103.201	19.950	1.243	0.487
1237.999	703.742	80.008	19.994	103.197	19.947	1.379	0.476
1240.000	704.767	80.009	19.993	103.203	19.950	1.227	0.508
1241.999	705.709	80.009	19.994	103.205	19.946	1.446	0.479
1243.999	706.655	80.009	19.995	103.201	19.949	1.253	0.504
1246.000	707.615	80.009	19.994	103.202	19.949	1.248	0.470
1248.000	708.571	80.009	19.994	103.204	19.950	1.189	0.494
1250.000	709.516	80.010	19.994	103.202	19.948	1.358	0.456
1252.000	710.462	80.008	19.995	103.202	19.949	1.264	0.487
1254.000	711.419	80.009	19.995	103.199	19.949	1.246	0.453
1255.999	712.380	80.011	19.994	103.199	19.948	1.374	0.467
1258.000	713.303	80.011	19.995	103.199	19.950	1.192	0.417
1259.999	714.298	80.008	19.995	103.199	19.949	1.304	0.508
1262.000	715.258	80.011	19.995	103.193	19.951	1.162	0.486
1263.999	716.202	80.010	19.995	103.191	19.944	1.631	0.488
1266.000	717.142	80.010	19.995	103.186	19.948	1.369	0.470
1268.000	718.118	80.008	19.995	103.195	19.948	1.351	0.469
1269.999	719.049	80.007	19.994	103.200	19.948	1.376	0.474
1271.999	720.007	80.008	19.995	103.186	19.950	1.191	0.485
1274.000	720.965	80.009	19.995	103.193	19.953	1.002	0.488
1275.999	721.903	80.009	19.995	103.196	19.951	1.162	0.500
1277.999	722.897	80.009	19.996	103.202	19.952	1.092	0.505
1279.999	723.830	80.009	19.995	103.202	19.952	1.093	0.514
1282.000	724.778	80.009	19.995	103.202	19.955	0.869	0.423
1284.000	725.779	80.009	19.996	103.203	19.949	1.270	0.486
1286.000	726.735	80.009	19.994	103.203	19.953	1.011	0.503
1288.000	727.694	80.009	19.994	103.201	19.951	1.122	0.506
1289.999	728.667	80.009	19.994	103.199	19.952	1.106	0.515
1292.000	729.633	80.007	19.995	103.202	19.954	0.964	0.489
1293.999	730.651	80.008	19.994	103.204	19.952	1.061	0.505
1295.999	731.667	80.009	19.994	103.202	19.953	0.987	0.495
1297.999	732.698	80.009	19.994	103.206	19.949	1.275	0.535
1299.999	733.684	80.007	19.994	103.207	19.952	1.061	0.504
1302.000	734.657	80.007	19.993	103.206	19.950	1.223	0.501
1303.999	735.713	80.007	19.994	103.209	19.955	0.896	0.504
1305.999	736.710	80.006	19.995	103.207	19.950	1.232	0.464
1307.999	737.758	80.008	19.994	103.211	19.950	1.225	0.513
1309.999	738.789	80.009	19.994	103.209	19.948	1.329	0.517
1311.999	739.863	80.009	19.995	103.206	19.945	1.550	0.520
1313.999	740.911	80.011	19.995	103.203	19.946	1.450	0.527
1315.999	741.986	80.010	19.993	103.205	19.947	1.419	0.518
1318.000	743.018	80.010	19.994	103.202	19.947	1.387	0.515
1318.500	743.254	80.009	19.993	103.202	19.947	1.379	0.527