File: 01_Data/Bamboo_Rug_Bamboo/MCC/Bamboo_Rug_Bamboo_MCC_30K_min_211124_R1.txt
Sample ID:	C:\MCC\MCC Cal\Test\Bamboo_RugA_MCC_30K_min_211124_R1.txt
Sample Weight (mg):	4.9
Heating Rate (C/s):	0.5
Combustor Temp (C):	900
N2 Flow Rate (cc/min):	80
O2 Flow Rate (cc/min):	20
Calibration File:	C:\MCC\MCC Cal\Coeff1 JN10440_30_210304.txt.txt
T Correction Coefficients:	0	1.024463	0
Time Shift (s):	14
*
Time (s)	Temperature (C)	N2 flow rate (cc/min)	O2 flow rate (cc/min)	Flow Rate (cc/min)	Oxygen (%)	HRR (W/g)	Heating rate (C/s)
0.000	108.064	80.011	19.994	103.127	20.100	-0.175	-0.004
2.000	108.058	80.010	19.994	103.125	20.098	-0.071	-0.018
4.000	108.079	80.011	19.994	103.128	20.098	-0.051	0.002
6.000	108.096	80.009	19.995	103.126	20.096	0.092	0.019
7.999	108.118	80.008	19.994	103.130	20.097	-0.004	0.015
9.999	108.089	80.007	19.994	103.133	20.098	-0.028	-0.018
11.999	108.084	80.007	19.994	103.130	20.100	-0.208	0.013
13.999	108.076	80.008	19.995	103.140	20.098	-0.046	0.014
15.999	108.084	80.008	19.995	103.151	20.097	0.005	-0.003
18.000	108.084	80.008	19.995	103.166	20.095	0.153	0.008
19.999	108.089	80.008	19.995	103.199	20.087	0.639	0.027
22.000	108.094	80.008	19.993	103.239	20.079	1.163	0.004
23.999	108.196	80.008	19.995	103.274	20.075	1.424	0.052
26.000	108.301	80.008	19.994	103.318	20.070	1.751	0.051
27.999	108.406	80.008	19.994	103.332	20.066	2.074	0.042
29.999	108.620	80.007	19.994	103.356	20.061	2.406	0.110
31.999	108.874	80.008	19.995	103.367	20.061	2.347	0.132
33.999	109.063	80.007	19.994	103.365	20.057	2.653	0.084
36.001	109.357	80.007	19.994	103.361	20.056	2.731	0.139
37.999	109.680	80.007	19.996	103.364	20.054	2.868	0.168
40.000	110.005	80.006	19.994	103.362	20.055	2.747	0.224
41.999	110.384	80.008	19.995	103.357	20.055	2.757	0.196
44.000	110.796	80.006	19.995	103.365	20.056	2.688	0.213
46.000	111.217	80.007	19.995	103.363	20.053	2.869	0.269
48.000	111.672	80.008	19.995	103.372	20.054	2.828	0.235
50.000	112.129	80.006	19.993	103.364	20.053	2.882	0.218
51.999	112.578	80.007	19.995	103.367	20.053	2.877	0.228
53.999	113.103	80.007	19.995	103.363	20.052	2.980	0.275
55.999	113.661	80.010	19.995	103.366	20.053	2.920	0.282
57.999	114.218	80.008	19.994	103.365	20.054	2.806	0.279
59.999	114.763	80.008	19.996	103.362	20.050	3.078	0.298
61.999	115.326	80.009	19.996	103.382	20.050	3.071	0.316
64.001	115.915	80.009	19.996	103.386	20.047	3.282	0.288
66.000	116.550	80.007	19.997	103.383	20.049	3.188	0.319
68.000	117.180	80.008	19.996	103.388	20.051	3.043	0.310
70.000	117.804	80.008	19.995	103.373	20.048	3.240	0.308
71.999	118.495	80.009	19.995	103.391	20.049	3.177	0.295
73.999	119.154	80.008	19.995	103.385	20.049	3.133	0.371
75.999	119.795	80.008	19.995	103.384	20.051	3.043	0.317
78.001	120.496	80.008	19.994	103.387	20.046	3.361	0.344
79.999	121.221	80.010	19.994	103.398	20.045	3.403	0.352
82.001	121.940	80.009	19.994	103.393	20.046	3.382	0.337
84.000	122.697	80.010	19.995	103.397	20.047	3.318	0.373
86.000	123.473	80.009	19.994	103.402	20.044	3.499	0.372
88.000	124.189	80.009	19.994	103.402	20.045	3.414	0.350
90.000	125.013	80.009	19.993	103.401	20.047	3.327	0.389
92.000	125.784	80.007	19.994	103.401	20.044	3.501	0.387
93.999	126.547	80.006	19.995	103.402	20.043	3.575	0.397
96.000	127.370	80.007	19.995	103.399	20.046	3.392	0.398
97.999	128.188	80.007	19.994	103.403	20.044	3.497	0.407
100.000	128.995	80.006	19.994	103.405	20.046	3.394	0.375
102.000	129.816	80.007	19.995	103.404	20.045	3.460	0.394
103.999	130.690	80.006	19.994	103.403	20.043	3.552	0.430
105.999	131.500	80.007	19.994	103.400	20.042	3.614	0.398
107.999	132.371	80.008	19.995	103.401	20.043	3.558	0.422
109.999	133.214	80.007	19.995	103.401	20.043	3.582	0.424
111.999	134.132	80.008	19.994	103.400	20.045	3.459	0.438
113.999	135.029	80.009	19.994	103.399	20.041	3.715	0.471
115.999	135.879	80.007	19.995	103.401	20.042	3.592	0.427
117.999	136.775	80.009	19.994	103.399	20.040	3.775	0.437
119.999	137.702	80.007	19.994	103.398	20.042	3.600	0.477
121.999	138.560	80.008	19.994	103.389	20.043	3.532	0.441
123.999	139.486	80.008	19.994	103.384	20.045	3.408	0.474
125.999	140.398	80.007	19.995	103.383	20.041	3.664	0.420
128.000	141.335	80.008	19.995	103.380	20.041	3.676	0.443
130.000	142.255	80.006	19.996	103.386	20.042	3.639	0.471
132.000	143.121	80.008	19.994	103.382	20.044	3.481	0.447
134.000	144.082	80.007	19.995	103.385	20.042	3.628	0.487
136.000	145.026	80.008	19.995	103.393	20.044	3.486	0.473
138.000	145.930	80.009	19.995	103.374	20.044	3.509	0.417
140.000	146.834	80.008	19.995	103.378	20.043	3.577	0.466
142.000	147.750	80.009	19.995	103.391	20.039	3.819	0.426
144.000	148.690	80.008	19.994	103.388	20.038	3.886	0.468
146.000	149.663	80.008	19.995	103.389	20.044	3.493	0.493
148.000	150.637	80.007	19.994	103.382	20.041	3.664	0.487
150.000	151.530	80.006	19.994	103.387	20.038	3.884	0.473
152.000	152.498	80.008	19.995	103.395	20.041	3.713	0.513
154.000	153.437	80.008	19.996	103.389	20.040	3.763	0.487
156.000	154.368	80.006	19.995	103.388	20.042	3.643	0.444
158.000	155.285	80.007	19.995	103.383	20.044	3.474	0.484
160.000	156.245	80.008	19.994	103.392	20.041	3.698	0.493
162.000	157.213	80.009	19.995	103.385	20.041	3.699	0.473
164.000	158.170	80.008	19.996	103.381	20.044	3.521	0.454
166.000	159.162	80.008	19.995	103.389	20.038	3.896	0.484
168.000	160.129	80.009	19.995	103.389	20.038	3.859	0.496
170.000	161.091	80.009	19.994	103.385	20.039	3.848	0.492
172.000	162.088	80.009	19.994	103.385	20.039	3.852	0.497
174.000	163.071	80.007	19.994	103.372	20.039	3.838	0.492
176.000	164.047	80.007	19.994	103.375	20.038	3.872	0.492
178.000	165.031	80.008	19.995	103.375	20.039	3.839	0.492
180.000	165.978	80.008	19.994	103.374	20.039	3.816	0.484
182.000	166.963	80.006	19.997	103.374	20.038	3.883	0.500
184.000	167.968	80.007	19.996	103.388	20.037	3.966	0.492
186.000	168.929	80.008	19.994	103.369	20.039	3.837	0.498
188.000	169.937	80.009	19.995	103.362	20.037	3.983	0.501
190.000	170.922	80.009	19.995	103.382	20.036	4.006	0.487
192.000	171.881	80.009	19.995	103.373	20.036	3.993	0.501
194.000	172.880	80.009	19.996	103.375	20.034	4.139	0.473
196.000	173.914	80.009	19.994	103.379	20.035	4.093	0.515
198.000	174.879	80.009	19.994	103.371	20.033	4.245	0.488
200.000	175.908	80.009	19.994	103.371	20.038	3.901	0.505
202.000	176.892	80.008	19.994	103.362	20.035	4.070	0.485
204.000	177.884	80.008	19.995	103.361	20.038	3.862	0.531
206.000	178.883	80.007	19.995	103.360	20.035	4.084	0.516
208.000	179.854	80.007	19.994	103.364	20.034	4.153	0.511
210.000	180.840	80.007	19.994	103.367	20.037	3.981	0.493
212.000	181.873	80.008	19.994	103.364	20.035	4.086	0.510
214.000	182.857	80.007	19.994	103.365	20.035	4.116	0.517
216.000	183.824	80.008	19.993	103.363	20.035	4.057	0.504
218.000	184.846	80.008	19.995	103.369	20.027	4.615	0.479
220.000	185.871	80.009	19.994	103.373	20.031	4.346	0.499
222.000	186.900	80.009	19.993	103.376	20.030	4.434	0.529
224.000	187.914	80.010	19.995	103.371	20.025	4.753	0.542
226.000	188.866	80.008	19.995	103.367	20.028	4.540	0.489
228.000	189.880	80.008	19.994	103.364	20.026	4.653	0.532
230.000	190.896	80.007	19.995	103.363	20.026	4.678	0.500
232.000	191.883	80.008	19.994	103.363	20.026	4.691	0.498
234.000	192.876	80.007	19.995	103.364	20.026	4.649	0.494
236.000	193.908	80.009	19.994	103.364	20.025	4.753	0.498
238.000	194.906	80.009	19.994	103.361	20.027	4.636	0.506
240.000	195.919	80.008	19.994	103.357	20.028	4.561	0.508
242.000	196.920	80.009	19.994	103.359	20.024	4.836	0.512
244.000	197.884	80.010	19.994	103.356	20.027	4.629	0.500
246.000	198.908	80.011	19.995	103.351	20.023	4.891	0.521
248.000	199.895	80.011	19.995	103.359	20.020	5.088	0.504
250.000	200.917	80.009	19.994	103.356	20.018	5.198	0.500
252.000	201.906	80.010	19.994	103.359	20.016	5.347	0.508
254.000	202.938	80.009	19.995	103.357	20.017	5.299	0.524
256.000	203.911	80.007	19.995	103.357	20.019	5.106	0.492
258.000	204.893	80.008	19.996	103.349	20.015	5.394	0.479
260.000	205.918	80.007	19.995	103.352	20.013	5.562	0.508
262.000	206.922	80.007	19.995	103.354	20.012	5.619	0.514
264.000	207.880	80.006	19.996	103.356	20.012	5.598	0.489
266.000	208.861	80.007	19.996	103.354	20.011	5.676	0.482
268.000	209.855	80.008	19.996	103.352	20.010	5.761	0.520
270.000	210.880	80.007	19.994	103.359	20.009	5.823	0.513
272.000	211.836	80.008	19.995	103.348	20.003	6.219	0.499
274.000	212.815	80.008	19.995	103.349	20.003	6.207	0.484
276.000	213.781	80.008	19.994	103.358	20.002	6.233	0.500
278.000	214.737	80.006	19.993	103.355	19.996	6.658	0.481
280.000	215.683	80.007	19.993	103.357	19.999	6.484	0.483
282.000	216.722	80.007	19.995	103.355	19.996	6.649	0.479
284.000	217.664	80.007	19.995	103.352	19.992	6.884	0.470
286.000	218.626	80.008	19.994	103.361	19.993	6.853	0.508
288.000	219.587	80.007	19.994	103.354	19.996	6.669	0.497
290.000	220.544	80.009	19.994	103.358	19.993	6.865	0.483
292.000	221.500	80.007	19.994	103.358	19.990	7.071	0.486
294.000	222.466	80.007	19.994	103.364	19.990	7.031	0.510
296.000	223.452	80.008	19.995	103.359	19.988	7.210	0.490
298.000	224.406	80.007	19.995	103.342	19.981	7.608	0.500
300.000	225.384	80.009	19.994	103.349	19.981	7.652	0.481
302.000	226.438	80.009	19.995	103.342	19.986	7.304	0.527
304.000	227.359	80.011	19.995	103.359	19.979	7.762	0.506
306.000	228.355	80.011	19.995	103.354	19.978	7.819	0.484
308.000	229.343	80.010	19.994	103.353	19.976	7.981	0.478
310.000	230.337	80.009	19.994	103.357	19.975	8.038	0.479
312.000	231.279	80.010	19.994	103.360	19.973	8.180	0.506
314.000	232.258	80.010	19.994	103.353	19.969	8.442	0.478
316.000	233.204	80.008	19.994	103.357	19.964	8.731	0.482
318.000	234.203	80.010	19.995	103.361	19.966	8.638	0.473
320.000	235.185	80.009	19.994	103.360	19.965	8.723	0.502
322.000	236.126	80.009	19.996	103.361	19.957	9.204	0.457
324.000	237.110	80.008	19.995	103.336	19.952	9.568	0.482
326.000	238.077	80.009	19.996	103.301	19.951	9.601	0.468
328.000	239.102	80.010	19.995	103.411	19.947	9.865	0.493
330.000	240.062	80.010	19.994	103.364	19.948	9.844	0.514
332.000	241.018	80.010	19.995	103.361	19.939	10.395	0.472
334.000	242.053	80.010	19.995	103.364	19.937	10.512	0.497
336.000	243.043	80.011	19.994	103.367	19.931	10.957	0.505
338.000	243.981	80.008	19.995	103.362	19.927	11.192	0.495
340.000	244.981	80.007	19.994	103.365	19.928	11.131	0.474
342.000	245.998	80.007	19.994	103.373	19.923	11.483	0.531
344.000	246.986	80.007	19.996	103.365	19.918	11.791	0.508
346.000	247.954	80.007	19.996	103.384	19.915	11.955	0.490
348.000	248.986	80.007	19.995	103.374	19.908	12.447	0.494
350.000	249.979	80.007	19.995	103.375	19.905	12.656	0.534
352.000	251.009	80.007	19.996	103.380	19.896	13.214	0.500
354.000	251.996	80.005	19.996	103.392	19.893	13.430	0.501
356.000	252.943	80.007	19.996	103.383	19.887	13.825	0.456
358.000	254.011	80.008	19.995	103.390	19.880	14.259	0.521
360.000	255.008	80.008	19.994	103.401	19.873	14.784	0.501
362.000	256.016	80.007	19.995	103.394	19.868	15.065	0.492
364.000	256.986	80.009	19.994	103.401	19.860	15.586	0.485
366.000	258.021	80.008	19.994	103.398	19.853	16.042	0.573
368.000	258.978	80.009	19.995	103.397	19.846	16.517	0.511
370.000	259.984	80.009	19.994	103.394	19.839	17.005	0.507
372.000	260.984	80.010	19.994	103.398	19.833	17.402	0.499
374.000	261.964	80.008	19.994	103.401	19.823	18.032	0.484
376.000	262.938	80.008	19.995	103.401	19.817	18.458	0.502
378.000	263.986	80.008	19.995	103.401	19.811	18.852	0.512
380.000	264.975	80.008	19.994	103.402	19.807	19.099	0.499
382.000	265.946	80.009	19.995	103.403	19.793	20.025	0.501
384.000	266.939	80.009	19.995	103.405	19.785	20.527	0.481
386.000	267.965	80.010	19.994	103.410	19.779	20.926	0.523
388.000	268.947	80.009	19.995	103.411	19.770	21.535	0.510
390.000	269.950	80.009	19.995	103.404	19.757	22.397	0.503
392.000	270.965	80.009	19.995	103.419	19.752	22.712	0.521
394.000	271.984	80.010	19.995	103.432	19.744	23.250	0.497
396.000	272.961	80.009	19.995	103.429	19.736	23.768	0.495
398.000	273.910	80.007	19.994	103.438	19.729	24.237	0.486
400.000	274.927	80.008	19.993	103.441	19.722	24.685	0.520
402.000	275.916	80.010	19.994	103.441	19.711	25.451	0.477
404.000	276.887	80.010	19.994	103.441	19.704	25.897	0.458
406.000	277.890	80.008	19.994	103.441	19.693	26.646	0.487
408.001	278.874	80.008	19.994	103.451	19.681	27.391	0.514
410.000	279.853	80.010	19.994	103.459	19.675	27.818	0.478
412.000	280.915	80.010	19.995	103.462	19.666	28.384	0.490
414.000	281.892	80.012	19.994	103.454	19.661	28.750	0.504
416.000	282.881	80.011	19.994	103.473	19.647	29.627	0.499
418.000	283.925	80.011	19.994	103.461	19.639	30.199	0.513
420.000	284.872	80.010	19.995	103.469	19.632	30.664	0.473
422.000	285.848	80.008	19.995	103.472	19.620	31.449	0.489
424.000	286.823	80.007	19.994	103.472	19.612	31.935	0.502
426.000	287.857	80.009	19.995	103.471	19.597	32.964	0.521
428.000	288.815	80.009	19.994	103.474	19.595	33.102	0.463
430.000	289.815	80.009	19.995	103.479	19.587	33.630	0.438
432.000	290.828	80.009	19.995	103.478	19.583	33.865	0.479
434.000	291.800	80.008	19.995	103.479	19.573	34.550	0.556
436.000	292.833	80.008	19.994	103.479	19.565	35.073	0.450
438.000	294.120	80.008	19.996	103.478	19.560	35.376	0.529
440.000	294.702	80.008	19.996	103.477	19.552	35.913	0.567
442.000	295.931	80.009	19.995	103.479	19.544	36.471	0.631
444.000	296.795	80.009	19.995	103.479	19.538	36.879	0.421
446.000	297.888	80.008	19.997	103.475	19.529	37.417	0.446
448.000	298.904	80.008	19.996	103.479	19.522	37.863	0.550
450.000	299.908	80.007	19.996	103.492	19.516	38.322	0.549
452.000	300.899	80.008	19.996	103.429	19.510	38.713	0.508
454.000	301.873	80.008	19.995	103.540	19.505	39.006	0.482
456.000	302.907	80.007	19.996	103.493	19.500	39.359	0.470
458.000	303.928	80.008	19.995	103.484	19.492	39.857	0.513
460.000	304.874	80.009	19.995	103.484	19.484	40.432	0.453
462.000	305.939	80.007	19.996	103.507	19.480	40.659	0.494
464.000	306.989	80.010	19.996	103.498	19.473	41.151	0.546
466.000	307.991	80.009	19.994	103.488	19.470	41.307	0.528
468.000	308.985	80.011	19.994	103.486	19.463	41.792	0.507
470.000	309.979	80.008	19.994	103.495	19.458	42.109	0.487
472.000	311.040	80.010	19.995	103.498	19.456	42.222	0.541
474.000	312.044	80.008	19.994	103.493	19.449	42.729	0.485
476.000	313.039	80.012	19.995	103.490	19.453	42.470	0.476
478.000	314.094	80.007	19.995	103.493	19.447	42.864	0.524
480.000	315.109	80.009	19.995	103.495	19.440	43.317	0.508
482.000	316.138	80.009	19.994	103.490	19.438	43.431	0.526
484.000	317.121	80.011	19.994	103.494	19.434	43.679	0.515
486.000	318.159	80.010	19.995	103.490	19.432	43.846	0.512
488.000	319.151	80.010	19.993	103.507	19.429	44.052	0.508
490.000	320.187	80.009	19.995	103.508	19.426	44.255	0.502
492.000	321.169	80.011	19.994	103.510	19.424	44.375	0.485
494.000	322.193	80.011	19.994	103.508	19.417	44.820	0.519
496.000	323.183	80.011	19.994	103.497	19.415	44.929	0.504
498.000	324.159	80.012	19.994	103.490	19.415	44.980	0.484
500.000	325.177	80.012	19.993	103.505	19.413	45.114	0.494
502.000	326.146	80.011	19.993	103.507	19.404	45.704	0.502
504.000	327.170	80.013	19.996	103.511	19.399	46.041	0.513
506.000	328.162	80.010	19.994	103.506	19.396	46.237	0.495
508.000	329.138	80.008	19.994	103.506	19.390	46.624	0.478
510.000	330.114	80.011	19.995	103.515	19.383	47.077	0.487
512.000	331.139	80.008	19.994	103.517	19.376	47.555	0.510
514.000	332.109	80.010	19.996	103.517	19.365	48.247	0.472
516.000	333.141	80.009	19.996	103.517	19.358	48.760	0.502
518.000	334.137	80.007	19.995	103.519	19.348	49.399	0.522
520.000	335.114	80.010	19.994	103.521	19.336	50.179	0.516
522.000	336.101	80.008	19.996	103.540	19.321	51.160	0.496
524.000	337.146	80.011	19.996	103.553	19.311	51.840	0.509
526.000	338.083	80.010	19.995	103.551	19.297	52.767	0.488
528.000	339.106	80.008	19.995	103.557	19.281	53.840	0.469
530.000	340.087	80.009	19.994	103.565	19.262	55.076	0.473
532.000	341.056	80.007	19.995	103.576	19.243	56.345	0.478
534.000	342.060	80.009	19.995	103.580	19.222	57.742	0.473
536.000	343.022	80.008	19.993	103.599	19.204	58.956	0.493
538.000	343.996	80.006	19.995	103.611	19.178	60.646	0.499
540.000	344.988	80.007	19.996	103.630	19.155	62.221	0.466
542.000	346.021	80.007	19.996	103.629	19.126	64.098	0.524
544.000	346.931	80.009	19.995	103.639	19.098	65.987	0.468
546.000	347.933	80.007	19.995	103.646	19.069	67.873	0.504
548.000	348.979	80.009	19.995	103.663	19.040	69.787	0.526
550.000	350.021	80.008	19.995	103.675	19.010	71.772	0.534
552.000	351.010	80.007	19.995	103.681	18.979	73.828	0.490
554.000	352.026	80.008	19.994	103.688	18.951	75.651	0.503
556.000	353.079	80.009	19.994	103.686	18.919	77.725	0.534
558.000	354.150	80.009	19.994	103.695	18.895	79.357	0.507
560.000	355.131	80.011	19.993	103.697	18.874	80.690	0.507
562.000	356.174	80.008	19.994	103.684	18.856	81.892	0.510
564.000	357.170	80.008	19.995	103.674	18.846	82.509	0.476
566.000	358.208	80.009	19.994	103.671	18.836	83.127	0.511
568.000	359.244	80.010	19.994	103.649	18.843	82.649	0.513
570.000	360.258	80.010	19.995	103.630	18.854	81.885	0.480
572.000	361.314	80.009	19.995	103.597	18.876	80.445	0.531
574.000	362.349	80.010	19.994	103.579	18.910	78.184	0.502
576.000	363.347	80.008	19.995	103.539	18.950	75.490	0.530
578.000	364.351	80.011	19.995	103.502	18.999	72.257	0.513
580.000	365.376	80.011	19.993	103.473	19.059	68.334	0.502
582.000	366.358	80.011	19.995	103.445	19.123	64.099	0.495
584.000	367.373	80.012	19.995	103.423	19.189	59.715	0.484
586.000	368.403	80.010	19.993	103.401	19.258	55.210	0.495
588.000	369.472	80.011	19.994	103.388	19.324	50.846	0.548
590.000	370.468	80.008	19.993	103.368	19.391	46.475	0.519
592.000	371.465	80.007	19.994	103.358	19.464	41.672	0.504
594.000	372.485	80.009	19.994	103.342	19.522	37.815	0.487
596.000	373.491	80.011	19.994	103.329	19.579	34.066	0.478
598.000	374.503	80.008	19.994	103.326	19.630	30.699	0.509
600.000	375.491	80.009	19.994	103.324	19.677	27.614	0.499
602.000	376.489	80.007	19.994	103.320	19.713	25.244	0.492
604.000	377.530	80.009	19.994	103.305	19.752	22.693	0.539
606.000	378.526	80.007	19.995	103.292	19.783	20.684	0.532
608.000	379.554	80.009	19.995	103.306	19.810	18.909	0.509
610.000	380.558	80.007	19.995	103.295	19.835	17.221	0.500
612.000	381.532	80.009	19.995	103.298	19.851	16.163	0.494
614.000	382.538	80.008	19.995	103.287	19.868	15.082	0.520
616.000	383.529	80.009	19.995	103.283	19.883	14.064	0.489
618.000	384.551	80.006	19.995	103.285	19.893	13.438	0.498
620.000	385.529	80.007	19.994	103.281	19.905	12.635	0.508
622.000	386.442	80.007	19.994	103.284	19.908	12.428	0.459
624.000	387.504	80.006	19.995	103.286	19.920	11.658	0.493
626.000	388.512	80.008	19.995	103.277	19.921	11.553	0.516
628.000	389.504	80.008	19.995	103.278	19.931	10.892	0.500
630.000	390.514	80.008	19.995	103.283	19.934	10.691	0.485
632.000	391.488	80.009	19.994	103.281	19.937	10.551	0.498
634.000	392.522	80.009	19.994	103.282	19.940	10.304	0.508
636.000	393.514	80.009	19.995	103.282	19.943	10.144	0.499
638.000	394.541	80.010	19.996	103.281	19.946	9.944	0.526
640.000	395.582	80.009	19.994	103.269	19.948	9.833	0.520
642.000	396.604	80.010	19.996	103.276	19.949	9.706	0.517
644.000	397.646	80.011	19.994	103.281	19.954	9.385	0.504
646.000	398.638	80.008	19.995	103.278	19.953	9.468	0.500
648.000	399.714	80.009	19.995	103.279	19.950	9.662	0.541
650.000	400.726	80.009	19.995	103.279	19.956	9.289	0.518
652.000	401.702	80.010	19.994	103.273	19.957	9.194	0.496
654.000	402.755	80.011	19.993	103.276	19.958	9.158	0.491
656.000	403.796	80.010	19.994	103.279	19.960	9.034	0.524
658.000	404.802	80.011	19.995	103.276	19.958	9.145	0.484
660.000	405.818	80.012	19.994	103.281	19.960	9.025	0.462
662.000	406.833	80.010	19.994	103.273	19.964	8.760	0.481
664.000	407.911	80.011	19.994	103.277	19.964	8.741	0.504
666.000	408.924	80.011	19.994	103.280	19.963	8.838	0.530
668.000	409.928	80.011	19.995	103.280	19.968	8.469	0.517
670.000	410.965	80.009	19.995	103.268	19.965	8.685	0.527
672.000	412.035	80.008	19.994	103.270	19.969	8.407	0.512
674.000	413.012	80.008	19.994	103.281	19.967	8.574	0.494
676.000	414.019	80.009	19.994	103.270	19.968	8.489	0.514
678.000	415.020	80.009	19.995	103.279	19.969	8.424	0.514
680.000	416.038	80.008	19.993	103.263	19.970	8.342	0.518
682.000	417.094	80.008	19.994	103.279	19.971	8.263	0.542
684.000	418.123	80.008	19.993	103.278	19.973	8.154	0.523
686.000	419.150	80.007	19.994	103.269	19.977	7.916	0.508
688.000	420.137	80.008	19.992	103.265	19.974	8.060	0.495
690.000	421.187	80.010	19.994	103.263	19.972	8.211	0.517
692.000	422.177	80.010	19.994	103.271	19.975	7.998	0.477
694.000	423.197	80.009	19.994	103.261	19.975	8.028	0.546
696.000	424.174	80.009	19.995	103.263	19.975	8.047	0.472
698.000	425.219	80.009	19.995	103.254	19.979	7.785	0.505
700.000	426.223	80.009	19.994	103.257	19.982	7.546	0.520
702.000	427.238	80.008	19.995	103.264	19.980	7.713	0.503
704.000	428.245	80.008	19.994	103.257	19.988	7.156	0.500
706.000	429.245	80.008	19.995	103.272	19.988	7.199	0.494
708.000	430.248	80.008	19.996	103.263	19.989	7.124	0.500
710.000	431.246	80.008	19.995	103.258	19.985	7.382	0.512
712.000	432.215	80.009	19.996	103.266	19.993	6.837	0.472
714.000	433.266	80.009	19.995	103.263	19.989	7.103	0.498
716.000	434.327	80.009	19.994	103.273	19.992	6.876	0.514
718.000	435.309	80.011	19.997	103.273	19.992	6.908	0.510
720.000	436.347	80.010	19.996	103.258	19.996	6.652	0.495
722.000	437.412	80.010	19.995	103.260	19.996	6.656	0.543
724.000	438.390	80.010	19.994	103.265	19.996	6.634	0.499
726.000	439.411	80.010	19.994	103.246	19.997	6.598	0.518
728.000	440.383	80.008	19.995	103.254	19.999	6.432	0.472
730.000	441.385	80.009	19.995	103.245	19.998	6.539	0.477
732.000	442.390	80.010	19.995	103.251	20.001	6.335	0.444
734.000	443.395	80.009	19.995	103.252	20.004	6.140	0.507
736.000	444.379	80.010	19.996	103.262	20.004	6.114	0.498
738.000	445.376	80.009	19.995	103.248	20.006	5.980	0.469
740.000	446.334	80.008	19.995	103.246	20.008	5.843	0.499
742.000	447.336	80.011	19.995	103.246	20.008	5.843	0.510
744.000	448.313	80.010	19.993	103.251	20.005	6.029	0.493
746.000	449.295	80.010	19.994	103.260	20.009	5.795	0.476
748.000	450.306	80.012	19.993	103.251	20.012	5.594	0.505
750.000	451.307	80.011	19.994	103.251	20.011	5.665	0.511
752.000	452.312	80.011	19.993	103.257	20.014	5.473	0.489
754.000	453.286	80.012	19.994	103.258	20.014	5.452	0.501
756.000	454.318	80.008	19.993	103.255	20.012	5.577	0.514
758.000	455.351	80.009	19.994	103.255	20.016	5.332	0.534
760.000	456.375	80.008	19.994	103.245	20.011	5.633	0.517
762.000	457.339	80.008	19.995	103.267	20.016	5.317	0.508
764.000	458.373	80.008	19.995	103.257	20.018	5.180	0.486
766.000	459.385	80.008	19.996	103.251	20.018	5.207	0.494
768.000	460.399	80.008	19.995	103.266	20.017	5.284	0.487
770.000	461.414	80.009	19.995	103.256	20.017	5.284	0.483
772.000	462.428	80.009	19.995	103.253	20.026	4.677	0.496
774.000	463.439	80.008	19.994	103.246	20.020	5.071	0.501
776.000	464.453	80.009	19.994	103.247	20.020	5.085	0.487
778.000	465.448	80.010	19.994	103.254	20.021	5.005	0.490
780.000	466.497	80.009	19.994	103.259	20.022	4.938	0.511
782.000	467.527	80.009	19.994	103.247	20.023	4.851	0.522
784.000	468.545	80.010	19.994	103.258	20.024	4.799	0.487
786.000	469.570	80.010	19.996	103.263	20.024	4.815	0.534
788.000	470.577	80.008	19.993	103.246	20.024	4.823	0.512
790.000	471.545	80.009	19.995	103.258	20.025	4.705	0.509
792.000	472.614	80.007	19.995	103.251	20.025	4.760	0.534
794.000	473.640	80.007	19.994	103.256	20.030	4.420	0.513
796.000	474.701	80.009	19.995	103.248	20.029	4.491	0.538
798.000	475.712	80.008	19.995	103.252	20.026	4.682	0.505
800.000	476.741	80.010	19.994	103.258	20.028	4.544	0.520
802.000	477.793	80.009	19.995	103.249	20.031	4.374	0.546
804.000	478.792	80.008	19.996	103.257	20.029	4.452	0.508
806.000	479.831	80.012	19.994	103.267	20.028	4.554	0.515
808.000	480.880	80.012	19.994	103.256	20.029	4.503	0.545
810.000	481.927	80.011	19.995	103.247	20.028	4.544	0.541
812.000	482.914	80.009	19.994	103.247	20.024	4.819	0.501
814.000	483.987	80.009	19.995	103.248	20.031	4.343	0.508
816.000	485.032	80.010	19.995	103.251	20.030	4.428	0.549
818.000	486.048	80.010	19.996	103.248	20.027	4.579	0.498
820.000	487.058	80.009	19.995	103.247	20.029	4.453	0.505
822.000	488.083	80.009	19.995	103.246	20.031	4.322	0.509
824.000	489.101	80.009	19.996	103.247	20.028	4.559	0.516
826.000	490.108	80.009	19.997	103.243	20.031	4.375	0.522
828.000	491.121	80.010	19.995	103.243	20.036	4.036	0.502
830.000	492.149	80.011	19.995	103.241	20.030	4.382	0.514
832.000	493.165	80.011	19.996	103.240	20.030	4.412	0.511
834.000	494.150	80.011	19.995	103.240	20.036	4.012	0.512
836.000	495.150	80.009	19.996	103.242	20.033	4.223	0.507
838.000	496.157	80.009	19.995	103.242	20.038	3.852	0.494
840.000	497.155	80.008	19.995	103.242	20.037	3.921	0.497
842.000	498.168	80.010	19.995	103.242	20.037	3.930	0.525
844.000	499.174	80.010	19.995	103.243	20.034	4.148	0.489
846.000	500.110	80.009	19.995	103.245	20.041	3.708	0.469
848.000	501.175	80.008	19.995	103.244	20.040	3.742	0.527
850.000	502.180	80.008	19.995	103.245	20.037	3.941	0.502
852.000	503.193	80.008	19.994	103.248	20.033	4.180	0.508
854.000	504.172	80.010	19.995	103.245	20.036	4.005	0.504
856.000	505.153	80.009	19.994	103.244	20.039	3.824	0.500
858.000	506.175	80.008	19.994	103.243	20.037	3.925	0.496
860.000	507.164	80.008	19.994	103.244	20.040	3.765	0.474
862.000	508.157	80.010	19.995	103.242	20.037	3.978	0.497
864.000	509.176	80.009	19.995	103.249	20.037	3.944	0.501
866.000	510.161	80.008	19.994	103.247	20.036	4.013	0.510
868.000	511.171	80.008	19.995	103.251	20.033	4.180	0.477
870.000	512.178	80.009	19.995	103.246	20.037	3.934	0.467
872.000	513.213	80.008	19.995	103.246	20.040	3.749	0.491
874.000	514.227	80.009	19.994	103.242	20.038	3.890	0.522
876.000	515.266	80.007	19.995	103.246	20.038	3.882	0.531
878.000	516.267	80.009	19.994	103.245	20.037	3.920	0.511
880.000	517.267	80.009	19.993	103.246	20.040	3.735	0.522
882.000	518.323	80.010	19.994	103.251	20.038	3.896	0.518
884.000	519.371	80.011	19.994	103.252	20.036	4.010	0.531
886.000	520.392	80.010	19.995	103.252	20.038	3.856	0.530
888.000	521.445	80.011	19.995	103.252	20.038	3.898	0.510
890.000	522.489	80.012	19.994	103.253	20.040	3.726	0.508
892.000	523.578	80.009	19.994	103.246	20.041	3.691	0.526
894.000	524.646	80.010	19.995	103.248	20.040	3.758	0.583
896.000	525.724	80.008	19.994	103.245	20.038	3.859	0.529
898.000	526.761	80.010	19.995	103.245	20.040	3.762	0.520
900.000	527.852	80.008	19.995	103.243	20.034	4.146	0.542
902.000	528.940	80.009	19.996	103.244	20.039	3.801	0.538
904.000	530.027	80.009	19.996	103.245	20.039	3.804	0.538
906.000	531.172	80.010	19.995	103.243	20.037	3.971	0.555
908.000	532.248	80.010	19.994	103.245	20.040	3.729	0.547
910.000	533.348	80.011	19.995	103.242	20.043	3.549	0.568
912.000	534.480	80.012	19.995	103.242	20.035	4.079	0.566
914.000	535.558	80.010	19.995	103.243	20.040	3.762	0.550
916.000	536.647	80.011	19.994	103.242	20.039	3.801	0.551
918.000	537.750	80.009	19.995	103.241	20.043	3.529	0.518
920.000	538.838	80.008	19.994	103.239	20.041	3.675	0.552
922.000	539.935	80.008	19.995	103.243	20.043	3.549	0.541
924.000	541.020	80.007	19.996	103.244	20.044	3.501	0.576
926.000	542.079	80.008	19.995	103.244	20.044	3.510	0.535
928.000	543.169	80.007	19.996	103.246	20.037	3.950	0.558
930.000	544.200	80.007	19.996	103.247	20.040	3.769	0.536
932.000	545.279	80.008	19.996	103.246	20.043	3.565	0.540
934.000	546.334	80.008	19.994	103.246	20.041	3.710	0.574
936.000	547.393	80.010	19.995	103.242	20.044	3.488	0.522
938.000	548.435	80.009	19.994	103.243	20.042	3.630	0.557
940.000	549.462	80.009	19.994	103.245	20.042	3.636	0.505
942.000	550.484	80.009	19.994	103.244	20.043	3.540	0.530
944.000	551.586	80.009	19.994	103.239	20.039	3.790	0.531
946.000	552.565	80.010	19.994	103.232	20.041	3.683	0.489
948.000	553.608	80.008	19.994	103.238	20.040	3.743	0.534
950.000	554.661	80.009	19.994	103.245	20.045	3.435	0.505
952.000	555.669	80.009	19.995	103.244	20.042	3.619	0.494
954.000	556.704	80.007	19.995	103.244	20.042	3.623	0.543
956.000	557.699	80.007	19.995	103.242	20.040	3.724	0.481
958.000	558.744	80.009	19.994	103.234	20.042	3.644	0.479
960.000	559.755	80.009	19.994	103.233	20.046	3.362	0.502
962.000	560.749	80.010	19.995	103.230	20.043	3.549	0.506
964.000	561.801	80.007	19.994	103.240	20.044	3.460	0.508
966.000	562.768	80.010	19.995	103.229	20.041	3.662	0.467
968.000	563.781	80.011	19.994	103.237	20.044	3.472	0.468
970.000	564.784	80.011	19.995	103.238	20.048	3.194	0.482
972.000	565.731	80.011	19.994	103.241	20.042	3.630	0.483
974.000	566.794	80.009	19.995	103.244	20.048	3.256	0.521
976.000	567.743	80.009	19.994	103.232	20.043	3.548	0.481
978.000	568.780	80.011	19.995	103.241	20.045	3.396	0.501
980.000	569.831	80.010	19.994	103.240	20.046	3.357	0.514
982.000	570.793	80.009	19.995	103.242	20.045	3.394	0.506
984.000	571.819	80.011	19.995	103.236	20.043	3.542	0.537
986.000	572.801	80.009	19.995	103.232	20.043	3.543	0.512
988.000	573.848	80.010	19.995	103.238	20.040	3.738	0.524
990.000	574.883	80.012	19.994	103.237	20.043	3.579	0.527
992.000	575.890	80.010	19.996	103.230	20.047	3.279	0.504
994.000	576.878	80.011	19.996	103.237	20.046	3.384	0.469
996.000	577.897	80.012	19.995	103.243	20.049	3.158	0.494
998.000	578.894	80.010	19.994	103.244	20.042	3.623	0.474
1000.000	579.894	80.010	19.993	103.238	20.041	3.678	0.494
1002.000	580.906	80.009	19.995	103.240	20.043	3.529	0.472
1004.000	581.908	80.008	19.994	103.245	20.044	3.508	0.524
1006.000	582.971	80.008	19.995	103.244	20.045	3.429	0.542
1008.000	583.928	80.008	19.994	103.245	20.049	3.135	0.486
1010.000	584.962	80.007	19.997	103.244	20.041	3.705	0.529
1012.000	585.967	80.008	19.994	103.242	20.043	3.563	0.505
1014.000	586.955	80.009	19.994	103.239	20.043	3.552	0.520
1016.000	587.968	80.009	19.996	103.227	20.041	3.675	0.513
1018.000	588.994	80.009	19.995	103.230	20.043	3.533	0.515
1020.000	590.001	80.008	19.995	103.238	20.039	3.820	0.511
1022.000	591.015	80.009	19.997	103.239	20.040	3.727	0.486
1024.001	591.991	80.009	19.996	103.235	20.044	3.460	0.488
1025.999	593.031	80.008	19.995	103.225	20.041	3.690	0.540
1027.999	594.060	80.007	19.996	103.227	20.040	3.733	0.548
1029.999	595.065	80.009	19.996	103.241	20.040	3.721	0.525
1031.999	596.080	80.009	19.996	103.235	20.038	3.854	0.502
1033.999	597.069	80.008	19.995	103.232	20.042	3.596	0.491
1035.999	598.105	80.008	19.993	103.231	20.045	3.403	0.491
1037.999	599.141	80.009	19.995	103.234	20.045	3.438	0.488
1040.000	600.145	80.007	19.996	103.233	20.040	3.743	0.494
1041.999	601.178	80.008	19.993	103.240	20.049	3.135	0.524
1044.000	602.179	80.010	19.994	103.227	20.045	3.449	0.501
1045.999	603.183	80.011	19.994	103.226	20.047	3.261	0.490
1048.000	604.242	80.010	19.995	103.230	20.037	3.973	0.533
1049.999	605.244	80.010	19.995	103.240	20.048	3.240	0.519
1051.999	606.241	80.010	19.995	103.225	20.043	3.561	0.477
1054.000	607.273	80.010	19.993	103.224	20.043	3.529	0.506
1055.999	608.289	80.010	19.996	103.234	20.037	3.922	0.498
1058.000	609.278	80.009	19.994	103.240	20.040	3.766	0.493
1060.000	610.334	80.009	19.994	103.238	20.045	3.446	0.488
1061.999	611.351	80.009	19.994	103.238	20.040	3.749	0.517
1063.999	612.388	80.010	19.995	103.239	20.045	3.431	0.509
1066.000	613.403	80.008	19.994	103.234	20.049	3.167	0.498
1068.000	614.465	80.009	19.995	103.223	20.040	3.781	0.502
1070.001	615.479	80.009	19.992	103.234	20.040	3.757	0.513
1071.999	616.515	80.008	19.993	103.231	20.042	3.630	0.514
1073.999	617.502	80.010	19.995	103.223	20.043	3.538	0.507
1076.000	618.484	80.011	19.993	103.230	20.039	3.827	0.502
1077.999	619.554	80.010	19.993	103.237	20.039	3.811	0.527
1080.000	620.564	80.010	19.994	103.228	20.039	3.784	0.497
1082.000	621.553	80.009	19.995	103.216	20.041	3.698	0.493
1084.000	622.584	80.009	19.993	103.231	20.038	3.853	0.548
1085.999	623.610	80.009	19.994	103.239	20.038	3.904	0.510
1087.999	624.564	80.007	19.996	103.235	20.039	3.847	0.507
1089.999	625.581	80.008	19.994	103.229	20.036	4.023	0.508
1091.999	626.606	80.007	19.995	103.224	20.042	3.640	0.512
1093.999	627.618	80.008	19.996	103.210	20.043	3.551	0.495
1095.999	628.601	80.007	19.995	103.220	20.040	3.720	0.488
1097.999	629.579	80.008	19.994	103.211	20.039	3.842	0.486
1099.999	630.580	80.008	19.995	103.216	20.039	3.798	0.499
1101.999	631.589	80.006	19.994	103.220	20.043	3.553	0.492
1104.000	632.627	80.008	19.994	103.223	20.043	3.544	0.519
1105.999	633.620	80.008	19.995	103.217	20.046	3.363	0.495
1107.999	634.686	80.009	19.995	103.215	20.040	3.732	0.573
1109.999	635.655	80.008	19.995	103.216	20.041	3.674	0.514
1112.001	636.699	80.008	19.996	103.212	20.040	3.751	0.536
1114.000	637.686	80.008	19.996	103.212	20.044	3.479	0.491
1116.000	638.729	80.008	19.996	103.217	20.040	3.775	0.530
1118.000	639.734	80.007	19.996	103.221	20.039	3.847	0.519
1119.999	640.745	80.006	19.996	103.219	20.038	3.865	0.528
1121.999	641.711	80.007	19.995	103.236	20.040	3.739	0.482
1124.000	642.743	80.009	19.996	103.233	20.038	3.878	0.521
1126.000	643.725	80.007	19.995	103.220	20.041	3.706	0.500
1128.000	644.722	80.008	19.995	103.212	20.032	4.301	0.500
1129.999	645.635	80.009	19.994	103.211	20.043	3.574	0.477
1132.000	646.639	80.009	19.994	103.211	20.037	3.961	0.466
1134.001	647.679	80.009	19.994	103.212	20.042	3.638	0.506
1135.999	648.674	80.010	19.993	103.220	20.036	3.993	0.496
1138.000	649.681	80.010	19.994	103.208	20.040	3.736	0.512
1140.000	650.701	80.010	19.994	103.217	20.040	3.755	0.520
1142.000	651.672	80.010	19.994	103.211	20.041	3.709	0.483
1143.999	652.701	80.010	19.994	103.217	20.041	3.664	0.518
1145.999	653.669	80.010	19.995	103.218	20.037	3.972	0.485
1147.999	654.695	80.010	19.996	103.218	20.039	3.832	0.517
1149.999	655.717	80.009	19.995	103.214	20.038	3.897	0.494
1151.999	656.729	80.009	19.995	103.218	20.040	3.718	0.491
1153.999	657.683	80.009	19.995	103.208	20.041	3.681	0.486
1155.999	658.717	80.011	19.995	103.213	20.042	3.628	0.504
1158.001	659.821	80.009	19.994	103.225	20.043	3.581	0.564
1159.999	660.763	80.011	19.994	103.221	20.037	3.962	0.482
1161.999	661.771	80.012	19.994	103.215	20.043	3.585	0.514
1163.999	662.804	80.012	19.994	103.225	20.035	4.085	0.499
1165.999	663.867	80.010	19.994	103.222	20.040	3.738	0.506
1168.000	664.915	80.010	19.994	103.211	20.039	3.837	0.537
1170.000	665.945	80.008	19.994	103.208	20.037	3.947	0.551
1172.000	667.032	80.009	19.995	103.210	20.034	4.160	0.522
1173.999	668.046	80.009	19.994	103.227	20.041	3.701	0.490
1175.999	669.152	80.009	19.994	103.224	20.040	3.771	0.553
1178.000	670.202	80.009	19.994	103.230	20.045	3.436	0.536
1180.000	671.273	80.008	19.995	103.228	20.041	3.675	0.551
1181.999	672.333	80.009	19.996	103.232	20.037	3.916	0.537
1183.999	673.387	80.009	19.995	103.234	20.044	3.507	0.546
1185.999	674.475	80.009	19.995	103.220	20.037	3.924	0.618
1187.999	675.571	80.009	19.995	103.207	20.043	3.549	0.536
1189.999	676.620	80.009	19.995	103.216	20.039	3.821	0.552
1191.999	677.729	80.009	19.995	103.208	20.043	3.548	0.550
1194.000	678.803	80.009	19.995	103.217	20.044	3.514	0.519
1196.000	679.824	80.009	19.995	103.222	20.040	3.739	0.535
1197.999	680.888	80.008	19.995	103.213	20.040	3.732	0.514
1199.999	681.940	80.009	19.994	103.208	20.041	3.688	0.529
1201.999	682.998	80.008	19.995	103.210	20.041	3.681	0.517
1204.001	684.003	80.008	19.995	103.211	20.041	3.688	0.473
1205.999	685.023	80.008	19.996	103.212	20.041	3.703	0.504
1208.000	686.029	80.009	19.996	103.209	20.038	3.859	0.531
1209.999	687.053	80.009	19.995	103.212	20.038	3.854	0.511
1212.000	688.097	80.008	19.997	103.216	20.042	3.606	0.514
1213.999	689.079	80.009	19.995	103.211	20.039	3.794	0.506
1215.999	690.108	80.010	19.996	103.207	20.040	3.732	0.517
1217.999	691.089	80.011	19.995	103.201	20.037	3.957	0.511
1219.999	692.118	80.011	19.996	103.203	20.041	3.691	0.511
1222.001	693.131	80.011	19.995	103.205	20.040	3.759	0.461
1223.999	694.182	80.011	19.994	103.210	20.041	3.682	0.526
1225.999	695.197	80.010	19.994	103.205	20.039	3.817	0.524
1227.999	696.203	80.010	19.995	103.206	20.037	3.972	0.522
1229.999	697.239	80.009	19.994	103.220	20.040	3.720	0.508
1231.999	698.286	80.012	19.995	103.211	20.042	3.650	0.526
1234.000	699.324	80.010	19.995	103.208	20.042	3.613	0.511
1235.999	700.327	80.012	19.996	103.207	20.039	3.843	0.492
1237.999	701.345	80.011	19.994	103.210	20.040	3.719	0.524
1240.000	702.408	80.011	19.994	103.212	20.042	3.590	0.500
1242.000	703.389	80.013	19.995	103.205	20.042	3.645	0.496
1244.000	704.383	80.011	19.995	103.211	20.037	3.929	0.479
1245.999	705.423	80.011	19.994	103.205	20.040	3.753	0.517
1248.000	706.463	80.011	19.994	103.204	20.038	3.852	0.557
1250.000	707.470	80.012	19.993	103.206	20.040	3.778	0.516
1251.999	708.503	80.010	19.995	103.214	20.039	3.840	0.537
1253.999	709.535	80.008	19.995	103.206	20.038	3.856	0.559
1256.001	710.556	80.008	19.995	103.207	20.041	3.704	0.526
1258.001	711.545	80.011	19.994	103.210	20.039	3.797	0.499
1260.001	712.581	80.009	19.995	103.206	20.040	3.767	0.519
1261.999	713.537	80.008	19.994	103.207	20.039	3.837	0.465
1264.001	714.628	80.008	19.995	103.207	20.037	3.948	0.510
1265.999	715.668	80.008	19.995	103.208	20.040	3.732	0.524
1267.999	716.629	80.008	19.994	103.207	20.039	3.799	0.508
1269.999	717.693	80.008	19.993	103.207	20.040	3.751	0.520
1272.000	718.681	80.007	19.994	103.210	20.037	3.955	0.504
1273.999	719.732	80.008	19.994	103.211	20.038	3.907	0.529
1275.999	720.769	80.009	19.995	103.210	20.043	3.555	0.519
1278.000	721.806	80.010	19.994	103.212	20.042	3.641	0.522
1280.000	722.821	80.009	19.995	103.206	20.046	3.377	0.506
1282.001	723.846	80.008	19.995	103.202	20.042	3.615	0.505
1284.001	724.909	80.010	19.995	103.207	20.041	3.686	0.541
1286.000	725.889	80.009	19.995	103.205	20.040	3.760	0.500
1288.001	726.905	80.008	19.996	103.207	20.047	3.305	0.501
1290.000	727.953	80.007	19.995	103.206	20.042	3.647	0.517
1292.000	728.971	80.009	19.994	103.207	20.043	3.560	0.493
1293.999	729.973	80.009	19.994	103.209	20.048	3.251	0.507
1295.999	730.979	80.010	19.995	103.208	20.044	3.489	0.494
1297.999	732.023	80.009	19.995	103.213	20.039	3.849	0.494
1299.999	733.051	80.011	19.994	103.210	20.048	3.248	0.514
1301.999	734.039	80.011	19.997	103.203	20.042	3.648	0.500
1303.999	735.068	80.010	19.995	103.205	20.044	3.459	0.519
1305.999	736.084	80.010	19.995	103.202	20.043	3.563	0.515
1307.999	737.095	80.008	19.996	103.203	20.044	3.510	0.504
1310.000	738.141	80.009	19.997	103.203	20.044	3.487	0.540
1312.000	739.125	80.009	19.995	103.202	20.048	3.232	0.494
1313.999	740.145	80.009	19.993	103.204	20.043	3.581	0.519
1316.000	741.161	80.010	19.995	103.204	20.044	3.484	0.513
1317.999	742.225	80.010	19.994	103.206	20.040	3.780	0.522
1319.999	743.246	80.011	19.994	103.206	20.042	3.636	0.514
1320.499	743.464	80.011	19.994	103.207	20.041	3.703	0.489