File: 01_Data/Nylon/FTIR/IS/Nylon_3.175_S_IS_221212_R3.dpt
7497.02,0.13632
7491.23,0.13285
7485.45,0.13006
7479.66,0.13263
7473.87,0.12710
7468.09,0.12345
7462.3,0.12134
7456.51,0.12015
7450.73,0.12293
7444.94,0.12593
7439.16,0.12489
7433.37,0.11641
7427.58,0.12347
7421.8,0.11274
7416.01,0.12293
7410.22,0.12170
7404.44,0.12002
7398.65,0.12142
7392.87,0.11619
7387.08,0.12663
7381.29,0.12930
7375.51,0.11166
7369.72,0.11768
7363.93,0.11374
7358.15,0.10891
7352.36,0.11851
7346.58,0.11165
7340.79,0.11654
7335,0.11483
7329.22,0.10341
7323.43,0.10946
7317.65,0.11081
7311.86,0.10675
7306.07,0.10610
7300.29,0.10123
7294.5,0.09785
7288.71,0.10244
7282.93,0.09282
7277.14,0.09377
7271.36,0.09544
7265.57,0.09288
7259.78,0.08892
7254,0.08746
7248.21,0.09163
7242.42,0.09204
7236.64,0.08799
7230.85,0.08931
7225.07,0.07905
7219.28,0.08872
7213.49,0.08476
7207.71,0.08277
7201.92,0.07977
7196.13,0.08548
7190.35,0.07857
7184.56,0.08502
7178.78,0.09019
7172.99,0.08864
7167.2,0.08627
7161.42,0.08340
7155.63,0.08552
7149.84,0.07952
7144.06,0.07860
7138.27,0.08098
7132.49,0.08821
7126.7,0.08562
7120.91,0.07627
7115.13,0.07968
7109.34,0.08234
7103.55,0.08370
7097.77,0.08335
7091.98,0.07752
7086.2,0.07622
7080.41,0.08473
7074.62,0.07715
7068.84,0.08389
7063.05,0.08285
7057.26,0.07788
7051.48,0.08597
7045.69,0.08197
7039.91,0.08026
7034.12,0.08101
7028.33,0.08209
7022.55,0.07902
7016.76,0.08289
7010.98,0.08700
7005.19,0.08440
6999.4,0.07606
6993.62,0.07932
6987.83,0.08302
6982.04,0.08473
6976.26,0.07539
6970.47,0.07632
6964.69,0.08076
6958.9,0.07529
6953.11,0.07585
6947.33,0.08176
6941.54,0.08439
6935.75,0.07679
6929.97,0.08342
6924.18,0.08126
6918.4,0.08123
6912.61,0.08127
6906.82,0.08300
6901.04,0.08489
6895.25,0.08104
6889.46,0.08445
6883.68,0.08074
6877.89,0.08447
6872.11,0.07893
6866.32,0.07863
6860.53,0.08179
6854.75,0.08224
6848.96,0.08251
6843.17,0.08204
6837.39,0.08637
6831.6,0.07900
6825.82,0.08192
6820.03,0.08411
6814.24,0.07675
6808.46,0.07562
6802.67,0.07431
6796.88,0.08145
6791.1,0.07950
6785.31,0.07518
6779.53,0.07965
6773.74,0.07650
6767.95,0.08107
6762.17,0.07685
6756.38,0.07798
6750.6,0.08110
6744.81,0.07739
6739.02,0.07769
6733.24,0.07504
6727.45,0.07845
6721.66,0.07313
6715.88,0.06992
6710.09,0.07417
6704.31,0.07818
6698.52,0.07449
6692.73,0.07102
6686.95,0.07202
6681.16,0.07246
6675.37,0.07058
6669.59,0.07056
6663.8,0.07146
6658.02,0.07077
6652.23,0.07045
6646.44,0.07055
6640.66,0.06638
6634.87,0.06900
6629.08,0.07447
6623.3,0.06691
6617.51,0.06645
6611.73,0.06568
6605.94,0.06814
6600.15,0.06339
6594.37,0.06391
6588.58,0.06682
6582.79,0.06614
6577.01,0.06707
6571.22,0.06292
6565.44,0.06010
6559.65,0.06426
6553.86,0.06360
6548.08,0.06416
6542.29,0.06438
6536.5,0.06004
6530.72,0.06058
6524.93,0.05985
6519.15,0.06171
6513.36,0.05865
6507.57,0.05624
6501.79,0.05843
6496,0.06285
6490.21,0.06097
6484.43,0.05881
6478.64,0.06303
6472.86,0.05937
6467.07,0.06223
6461.28,0.06640
6455.5,0.06234
6449.71,0.07119
6443.93,0.07048
6438.14,0.07446
6432.35,0.07685
6426.57,0.06979
6420.78,0.07997
6414.99,0.07381
6409.21,0.07025
6403.42,0.06915
6397.64,0.07008
6391.85,0.07136
6386.06,0.07415
6380.28,0.06897
6374.49,0.06893
6368.7,0.06465
6362.92,0.06639
6357.13,0.06521
6351.35,0.06305
6345.56,0.06745
6339.77,0.06932
6333.99,0.06719
6328.2,0.06824
6322.41,0.06739
6316.63,0.06981
6310.84,0.07552
6305.06,0.07290
6299.27,0.07163
6293.48,0.07097
6287.7,0.07236
6281.91,0.07452
6276.12,0.07274
6270.34,0.07159
6264.55,0.07009
6258.77,0.06842
6252.98,0.06974
6247.19,0.06910
6241.41,0.06556
6235.62,0.06605
6229.83,0.06596
6224.05,0.06961
6218.26,0.07042
6212.48,0.07157
6206.69,0.07321
6200.9,0.07092
6195.12,0.07300
6189.33,0.07540
6183.55,0.07395
6177.76,0.07528
6171.97,0.07673
6166.19,0.07520
6160.4,0.08040
6154.61,0.07781
6148.83,0.08015
6143.04,0.08149
6137.26,0.08434
6131.47,0.08141
6125.68,0.08474
6119.9,0.08331
6114.11,0.08665
6108.32,0.08609
6102.54,0.08834
6096.75,0.08701
6090.97,0.09050
6085.18,0.08739
6079.39,0.08435
6073.61,0.08736
6067.82,0.08579
6062.03,0.08749
6056.25,0.08456
6050.46,0.08663
6044.68,0.08470
6038.89,0.08311
6033.1,0.08297
6027.32,0.08536
6021.53,0.08314
6015.74,0.08438
6009.96,0.08162
6004.17,0.08396
5998.39,0.08255
5992.6,0.08231
5986.81,0.08248
5981.03,0.07732
5975.24,0.07935
5969.45,0.07957
5963.67,0.07634
5957.88,0.07519
5952.1,0.07661
5946.31,0.07558
5940.52,0.07740
5934.74,0.07148
5928.95,0.07080
5923.16,0.06862
5917.38,0.06718
5911.59,0.06289
5905.81,0.06309
5900.02,0.05992
5894.23,0.06071
5888.45,0.05990
5882.66,0.05787
5876.88,0.05545
5871.09,0.05800
5865.3,0.05501
5859.52,0.05692
5853.73,0.05574
5847.94,0.05461
5842.16,0.05294
5836.37,0.05577
5830.59,0.05787
5824.8,0.05667
5819.01,0.05526
5813.23,0.05524
5807.44,0.05763
5801.65,0.05465
5795.87,0.05554
5790.08,0.05413
5784.3,0.05795
5778.51,0.05520
5772.72,0.05392
5766.94,0.05670
5761.15,0.05509
5755.36,0.05507
5749.58,0.05701
5743.79,0.05705
5738.01,0.05814
5732.22,0.05606
5726.43,0.05499
5720.65,0.05432
5714.86,0.05503
5709.07,0.05381
5703.29,0.05624
5697.5,0.05553
5691.72,0.05462
5685.93,0.05653
5680.14,0.05655
5674.36,0.05604
5668.57,0.05742
5662.78,0.05696
5657,0.05886
5651.21,0.05641
5645.43,0.05784
5639.64,0.05752
5633.85,0.05731
5628.07,0.05780
5622.28,0.05894
5616.5,0.05878
5610.71,0.05725
5604.92,0.05810
5599.14,0.05895
5593.35,0.05816
5587.56,0.05805
5581.78,0.05932
5575.99,0.05975
5570.21,0.05843
5564.42,0.05844
5558.63,0.05840
5552.85,0.05825
5547.06,0.06182
5541.27,0.05961
5535.49,0.06032
5529.7,0.06123
5523.92,0.06075
5518.13,0.06083
5512.34,0.06129
5506.56,0.06079
5500.77,0.06169
5494.98,0.06276
5489.2,0.06101
5483.41,0.06229
5477.63,0.06121
5471.84,0.06229
5466.05,0.06228
5460.27,0.06326
5454.48,0.06168
5448.69,0.06392
5442.91,0.06223
5437.12,0.06321
5431.34,0.06254
5425.55,0.06354
5419.76,0.06368
5413.98,0.06411
5408.19,0.06366
5402.4,0.06386
5396.62,0.06271
5390.83,0.06463
5385.05,0.06369
5379.26,0.06469
5373.47,0.06613
5367.69,0.06607
5361.9,0.06426
5356.11,0.06522
5350.33,0.06622
5344.54,0.06533
5338.76,0.06586
5332.97,0.06566
5327.18,0.06597
5321.4,0.06423
5315.61,0.06455
5309.83,0.06354
5304.04,0.06424
5298.25,0.06444
5292.47,0.06229
5286.68,0.06304
5280.89,0.06237
5275.11,0.06121
5269.32,0.06143
5263.54,0.06067
5257.75,0.06152
5251.96,0.06066
5246.18,0.05887
5240.39,0.06058
5234.6,0.05873
5228.82,0.05965
5223.03,0.05867
5217.25,0.05798
5211.46,0.05871
5205.67,0.05876
5199.89,0.05709
5194.1,0.05785
5188.31,0.05845
5182.53,0.05801
5176.74,0.05686
5170.96,0.05856
5165.17,0.05747
5159.38,0.05657
5153.6,0.05823
5147.81,0.05810
5142.02,0.05641
5136.24,0.05835
5130.45,0.05699
5124.67,0.05696
5118.88,0.05661
5113.09,0.05726
5107.31,0.05733
5101.52,0.05711
5095.73,0.05672
5089.95,0.05676
5084.16,0.05708
5078.38,0.05781
5072.59,0.05797
5066.8,0.05789
5061.02,0.05885
5055.23,0.05856
5049.45,0.05784
5043.66,0.05792
5037.87,0.05771
5032.09,0.05795
5026.3,0.05942
5020.51,0.05754
5014.73,0.05839
5008.94,0.05737
5003.16,0.05688
4997.37,0.05665
4991.58,0.05687
4985.8,0.05771
4980.01,0.05631
4974.22,0.05715
4968.44,0.05591
4962.65,0.05686
4956.87,0.05762
4951.08,0.05767
4945.29,0.05730
4939.51,0.05703
4933.72,0.05705
4927.93,0.05674
4922.15,0.05808
4916.36,0.05746
4910.58,0.05724
4904.79,0.05785
4899,0.05823
4893.22,0.05660
4887.43,0.05599
4881.64,0.05699
4875.86,0.05613
4870.07,0.05651
4864.29,0.05683
4858.5,0.05736
4852.71,0.05643
4846.93,0.05799
4841.14,0.05697
4835.35,0.05770
4829.57,0.05786
4823.78,0.05804
4818,0.05744
4812.21,0.05786
4806.42,0.05855
4800.64,0.05830
4794.85,0.05837
4789.06,0.05738
4783.28,0.05676
4777.49,0.05850
4771.71,0.05811
4765.92,0.05766
4760.13,0.05827
4754.35,0.05757
4748.56,0.05761
4742.78,0.05793
4736.99,0.05822
4731.2,0.05854
4725.42,0.05760
4719.63,0.05756
4713.84,0.05819
4708.06,0.05812
4702.27,0.05868
4696.49,0.05693
4690.7,0.05719
4684.91,0.05793
4679.13,0.05766
4673.34,0.05747
4667.55,0.05739
4661.77,0.05757
4655.98,0.05779
4650.2,0.05713
4644.41,0.05845
4638.62,0.05673
4632.84,0.05756
4627.05,0.05775
4621.26,0.05733
4615.48,0.05861
4609.69,0.05796
4603.91,0.05824
4598.12,0.05824
4592.33,0.05881
4586.55,0.05709
4580.76,0.05827
4574.97,0.05809
4569.19,0.05767
4563.4,0.05853
4557.62,0.05791
4551.83,0.05809
4546.04,0.05798
4540.26,0.05785
4534.47,0.05796
4528.68,0.05840
4522.9,0.05764
4517.11,0.05869
4511.33,0.05793
4505.54,0.05742
4499.75,0.05719
4493.97,0.05839
4488.18,0.05791
4482.4,0.05848
4476.61,0.05861
4470.82,0.05832
4465.04,0.05732
4459.25,0.05773
4453.46,0.05906
4447.68,0.05883
4441.89,0.05800
4436.11,0.05827
4430.32,0.05806
4424.53,0.05809
4418.75,0.05780
4412.96,0.05800
4407.17,0.05810
4401.39,0.05759
4395.6,0.05743
4389.82,0.05772
4384.03,0.05849
4378.24,0.05811
4372.46,0.05819
4366.67,0.05827
4360.88,0.05774
4355.1,0.05768
4349.31,0.05829
4343.53,0.05842
4337.74,0.05837
4331.95,0.05735
4326.17,0.05735
4320.38,0.05787
4314.59,0.05753
4308.81,0.05865
4303.02,0.05809
4297.24,0.05784
4291.45,0.05799
4285.66,0.05783
4279.88,0.05905
4274.09,0.05873
4268.3,0.05772
4262.52,0.05797
4256.73,0.05872
4250.95,0.05902
4245.16,0.05783
4239.37,0.05733
4233.59,0.05781
4227.8,0.05863
4222.02,0.05811
4216.23,0.05827
4210.44,0.05854
4204.66,0.05764
4198.87,0.05834
4193.08,0.05821
4187.3,0.05878
4181.51,0.05858
4175.73,0.05827
4169.94,0.05818
4164.15,0.05869
4158.37,0.05857
4152.58,0.05836
4146.79,0.05868
4141.01,0.05872
4135.22,0.05832
4129.44,0.05779
4123.65,0.05913
4117.86,0.05823
4112.08,0.05861
4106.29,0.05881
4100.5,0.05802
4094.72,0.05839
4088.93,0.05813
4083.15,0.05855
4077.36,0.05912
4071.57,0.05873
4065.79,0.05828
4060,0.05893
4054.21,0.05888
4048.43,0.05828
4042.64,0.05860
4036.86,0.05855
4031.07,0.05935
4025.28,0.05910
4019.5,0.05844
4013.71,0.05816
4007.92,0.05817
4002.14,0.05863
3996.35,0.05829
3990.57,0.05849
3984.78,0.05813
3978.99,0.05866
3973.21,0.05827
3967.42,0.05833
3961.63,0.05865
3955.85,0.05826
3950.06,0.05872
3944.28,0.05791
3938.49,0.05814
3932.7,0.05872
3926.92,0.05843
3921.13,0.05832
3915.35,0.05862
3909.56,0.05876
3903.77,0.05872
3897.99,0.05823
3892.2,0.05864
3886.41,0.05846
3880.63,0.05864
3874.84,0.05834
3869.06,0.05825
3863.27,0.05866
3857.48,0.05812
3851.7,0.05876
3845.91,0.05799
3840.12,0.05892
3834.34,0.05836
3828.55,0.05838
3822.77,0.05866
3816.98,0.05892
3811.19,0.05841
3805.41,0.05861
3799.62,0.05851
3793.83,0.05905
3788.05,0.05846
3782.26,0.05883
3776.48,0.05810
3770.69,0.05817
3764.9,0.05821
3759.12,0.05838
3753.33,0.05829
3747.54,0.05861
3741.76,0.05828
3735.97,0.05864
3730.19,0.05839
3724.4,0.05836
3718.61,0.05853
3712.83,0.05795
3707.04,0.05806
3701.25,0.05816
3695.47,0.05770
3689.68,0.05814
3683.9,0.05760
3678.11,0.05805
3672.32,0.05803
3666.54,0.05741
3660.75,0.05841
3654.97,0.05756
3649.18,0.05718
3643.39,0.05753
3637.61,0.05719
3631.82,0.05706
3626.03,0.05729
3620.25,0.05733
3614.46,0.05705
3608.68,0.05723
3602.89,0.05702
3597.1,0.05777
3591.32,0.05664
3585.53,0.05645
3579.74,0.05735
3573.96,0.05746
3568.17,0.05677
3562.39,0.05670
3556.6,0.05601
3550.81,0.05614
3545.03,0.05620
3539.24,0.05577
3533.45,0.05578
3527.67,0.05611
3521.88,0.05607
3516.1,0.05587
3510.31,0.05623
3504.52,0.05563
3498.74,0.05553
3492.95,0.05611
3487.16,0.05563
3481.38,0.05567
3475.59,0.05562
3469.81,0.05507
3464.02,0.05467
3458.23,0.05447
3452.45,0.05439
3446.66,0.05419
3440.87,0.05416
3435.09,0.05368
3429.3,0.05414
3423.52,0.05395
3417.73,0.05357
3411.94,0.05365
3406.16,0.05283
3400.37,0.05257
3394.58,0.05206
3388.8,0.05167
3383.01,0.05170
3377.23,0.05026
3371.44,0.05011
3365.65,0.04968
3359.87,0.04998
3354.08,0.04924
3348.3,0.04758
3342.51,0.04710
3336.72,0.04687
3330.94,0.04594
3325.15,0.04497
3319.36,0.04627
3313.58,0.04844
3307.79,0.05407
3302.01,0.06134
3296.22,0.06773
3290.43,0.07015
3284.65,0.06950
3278.86,0.06874
3273.07,0.06780
3267.29,0.06791
3261.5,0.06817
3255.72,0.06705
3249.93,0.06552
3244.14,0.06535
3238.36,0.06551
3232.57,0.06467
3226.78,0.06335
3221,0.06394
3215.21,0.06362
3209.43,0.06301
3203.64,0.06370
3197.85,0.06284
3192.07,0.06290
3186.28,0.06277
3180.49,0.06227
3174.71,0.06197
3168.92,0.06111
3163.14,0.06142
3157.35,0.06133
3151.56,0.06157
3145.78,0.06179
3139.99,0.06124
3134.2,0.06131
3128.42,0.06086
3122.63,0.05956
3116.85,0.05966
3111.06,0.06008
3105.27,0.06006
3099.49,0.05960
3093.7,0.06007
3087.92,0.05977
3082.13,0.05972
3076.34,0.05937
3070.56,0.05986
3064.77,0.06051
3058.98,0.06030
3053.2,0.06064
3047.41,0.06057
3041.63,0.06071
3035.84,0.06054
3030.05,0.06002
3024.27,0.06013
3018.48,0.05913
3012.69,0.05912
3006.91,0.05944
3001.12,0.05869
2995.34,0.05780
2989.55,0.05738
2983.76,0.05664
2977.98,0.05634
2972.19,0.05544
2966.4,0.05521
2960.62,0.05551
2954.83,0.05489
2949.05,0.05455
2943.26,0.05525
2937.47,0.05707
2931.69,0.06013
2925.9,0.06402
2920.11,0.06658
2914.33,0.06588
2908.54,0.06488
2902.76,0.06458
2896.97,0.06420
2891.18,0.06316
2885.4,0.06132
2879.61,0.06062
2873.82,0.06206
2868.04,0.06327
2862.25,0.06435
2856.47,0.06785
2850.68,0.06986
2844.89,0.06864
2839.11,0.06681
2833.32,0.06575
2827.53,0.06461
2821.75,0.06452
2815.96,0.06441
2810.18,0.06427
2804.39,0.06408
2798.6,0.06388
2792.82,0.06377
2787.03,0.06343
2781.25,0.06367
2775.46,0.06315
2769.67,0.06309
2763.89,0.06293
2758.1,0.06320
2752.31,0.06287
2746.53,0.06311
2740.74,0.06290
2734.96,0.06272
2729.17,0.06290
2723.38,0.06277
2717.6,0.06217
2711.81,0.06275
2706.02,0.06258
2700.24,0.06257
2694.45,0.06248
2688.67,0.06236
2682.88,0.06227
2677.09,0.06195
2671.31,0.06217
2665.52,0.06216
2659.73,0.06224
2653.95,0.06207
2648.16,0.06226
2642.38,0.06215
2636.59,0.06220
2630.8,0.06184
2625.02,0.06212
2619.23,0.06185
2613.44,0.06150
2607.66,0.06167
2601.87,0.06158
2596.09,0.06172
2590.3,0.06172
2584.51,0.06188
2578.73,0.06188
2572.94,0.06194
2567.15,0.06127
2561.37,0.06158
2555.58,0.06164
2549.8,0.06144
2544.01,0.06126
2538.22,0.06163
2532.44,0.06109
2526.65,0.06144
2520.87,0.06150
2515.08,0.06152
2509.29,0.06157
2503.51,0.06139
2497.72,0.06099
2491.93,0.06122
2486.15,0.06121
2480.36,0.06086
2474.58,0.06099
2468.79,0.06110
2463,0.06089
2457.22,0.06074
2451.43,0.06119
2445.64,0.06112
2439.86,0.06112
2434.07,0.06091
2428.29,0.06102
2422.5,0.06082
2416.71,0.06100
2410.93,0.06104
2405.14,0.06066
2399.35,0.06045
2393.57,0.06096
2387.78,0.06082
2382,0.06069
2376.21,0.06085
2370.42,0.06071
2364.64,0.06033
2358.85,0.06058
2353.06,0.06070
2347.28,0.06041
2341.49,0.06030
2335.71,0.06058
2329.92,0.06045
2324.13,0.06038
2318.35,0.06063
2312.56,0.06051
2306.77,0.06051
2300.99,0.06015
2295.2,0.06044
2289.42,0.06056
2283.63,0.06021
2277.84,0.06016
2272.06,0.06030
2266.27,0.06042
2260.48,0.06032
2254.7,0.06018
2248.91,0.05991
2243.13,0.05995
2237.34,0.06007
2231.55,0.06005
2225.77,0.05990
2219.98,0.05993
2214.2,0.05981
2208.41,0.05982
2202.62,0.05972
2196.84,0.05964
2191.05,0.05964
2185.26,0.05937
2179.48,0.05978
2173.69,0.05946
2167.91,0.05962
2162.12,0.05961
2156.33,0.05931
2150.55,0.05942
2144.76,0.05930
2138.97,0.05959
2133.19,0.05962
2127.4,0.05955
2121.62,0.05912
2115.83,0.05895
2110.04,0.05894
2104.26,0.05901
2098.47,0.05916
2092.68,0.05892
2086.9,0.05886
2081.11,0.05882
2075.33,0.05865
2069.54,0.05876
2063.75,0.05874
2057.97,0.05885
2052.18,0.05857
2046.39,0.05878
2040.61,0.05826
2034.82,0.05820
2029.04,0.05845
2023.25,0.05806
2017.46,0.05804
2011.68,0.05815
2005.89,0.05859
2000.1,0.05839
1994.32,0.05761
1988.53,0.05749
1982.75,0.05728
1976.96,0.05758
1971.17,0.05769
1965.39,0.05758
1959.6,0.05739
1953.82,0.05730
1948.03,0.05730
1942.24,0.05705
1936.46,0.05688
1930.67,0.05662
1924.88,0.05657
1919.1,0.05655
1913.31,0.05641
1907.53,0.05619
1901.74,0.05625
1895.95,0.05601
1890.17,0.05581
1884.38,0.05563
1878.59,0.05581
1872.81,0.05544
1867.02,0.05536
1861.24,0.05540
1855.45,0.05508
1849.66,0.05484
1843.88,0.05458
1838.09,0.05395
1832.3,0.05411
1826.52,0.05409
1820.73,0.05383
1814.95,0.05329
1809.16,0.05294
1803.37,0.05252
1797.59,0.05214
1791.8,0.05190
1786.01,0.05135
1780.23,0.05080
1774.44,0.05045
1768.66,0.04972
1762.87,0.04942
1757.08,0.04949
1751.3,0.04968
1745.51,0.04985
1739.72,0.04974
1733.94,0.04831
1728.15,0.04709
1722.37,0.04607
1716.58,0.04486
1710.79,0.04374
1705.01,0.04261
1699.22,0.04084
1693.43,0.03896
1687.65,0.03715
1681.86,0.03539
1676.08,0.03382
1670.29,0.03341
1664.5,0.03499
1658.72,0.04123
1652.93,0.05615
1647.15,0.08088
1641.36,0.11383
1635.57,0.13802
1629.79,0.13457
1624,0.11169
1618.21,0.09691
1612.43,0.08693
1606.64,0.08074
1600.86,0.07577
1595.07,0.07019
1589.28,0.06541
1583.5,0.06056
1577.71,0.05589
1571.92,0.05122
1566.14,0.04790
1560.35,0.04696
1554.57,0.04931
1548.78,0.05859
1542.99,0.07735
1537.21,0.09754
1531.42,0.10212
1525.63,0.09667
1519.85,0.08995
1514.06,0.08510
1508.28,0.08098
1502.49,0.07805
1496.7,0.07559
1490.92,0.07249
1485.13,0.06973
1479.34,0.06813
1473.56,0.07311
1467.77,0.07320
1461.99,0.07599
1456.2,0.07440
1450.41,0.07239
1444.63,0.07117
1438.84,0.07079
1433.05,0.07056
1427.27,0.06997
1421.48,0.07108
1415.7,0.07702
1409.91,0.07610
1404.12,0.07290
1398.34,0.07053
1392.55,0.06878
1386.77,0.06829
1380.98,0.06802
1375.19,0.06874
1369.41,0.07112
1363.62,0.07226
1357.83,0.07181
1352.05,0.07149
1346.26,0.07110
1340.48,0.07059
1334.69,0.06966
1328.9,0.06933
1323.12,0.06868
1317.33,0.06772
1311.54,0.06712
1305.76,0.06650
1299.97,0.06573
1294.19,0.06525
1288.4,0.06408
1282.61,0.06340
1276.83,0.06652
1271.04,0.07054
1265.25,0.07292
1259.47,0.07347
1253.68,0.07310
1247.9,0.07292
1242.11,0.07206
1236.32,0.07210
1230.54,0.07148
1224.75,0.07076
1218.96,0.07058
1213.18,0.06901
1207.39,0.06708
1201.61,0.06913
1195.82,0.07523
1190.03,0.07448
1184.25,0.07322
1178.46,0.07438
1172.67,0.07466
1166.89,0.07415
1161.1,0.07338
1155.32,0.07205
1149.53,0.07164
1143.74,0.07170
1137.96,0.07264
1132.17,0.07235
1126.38,0.07173
1120.6,0.07169
1114.81,0.07110
1109.03,0.07053
1103.24,0.07022
1097.45,0.06927
1091.67,0.06939
1085.88,0.06930
1080.1,0.06938
1074.31,0.06875
1068.52,0.06845
1062.74,0.06877
1056.95,0.06858
1051.16,0.06849
1045.38,0.06855
1039.59,0.06860
1033.81,0.06859
1028.02,0.06887
1022.23,0.06875
1016.45,0.06816
1010.66,0.06786
1004.87,0.06840
999.088,0.06808
993.302,0.06758
987.516,0.06705
981.729,0.06685
975.943,0.06626
970.157,0.06671
964.371,0.06625
958.585,0.06577
952.798,0.06524
947.012,0.06502
941.226,0.06407
935.44,0.06633
929.653,0.06825
923.867,0.06688
918.081,0.06697
912.295,0.06638
906.508,0.06624
900.722,0.06618
894.936,0.06609
889.15,0.06536
883.364,0.06540
877.577,0.06516
871.791,0.06462
866.005,0.06457
860.219,0.06449
854.432,0.06391
848.646,0.06366
842.86,0.06420
837.074,0.06326
831.288,0.06251
825.501,0.06260
819.715,0.06277
813.929,0.06228
808.143,0.06211
802.356,0.06129
796.57,0.06174
790.784,0.06080
784.998,0.05946
779.212,0.05915
773.425,0.05872
767.639,0.05868
761.853,0.05731
756.067,0.05674
750.28,0.05680
744.494,0.05493
738.708,0.05400
732.922,0.05362
727.136,0.05562
721.349,0.05577
715.563,0.05600
709.777,0.05513
703.991,0.05455
698.204,0.05502
692.418,0.05760
686.632,0.06303
680.846,0.06691
675.059,0.06791
669.273,0.06883
663.487,0.06820
657.701,0.06902
651.915,0.06835
646.128,0.06765
640.342,0.06678
634.556,0.06543
628.77,0.06468
622.983,0.06387
617.197,0.06187
611.411,0.06337
605.625,0.06051
599.839,0.06133