File: 01_Data/Nylon/FTIR/IS/Nylon_3.175_Trans_S_IS_221212_R2.dpt
7497.02,0.58173
7491.23,0.58360
7485.45,0.57518
7479.66,0.58517
7473.87,0.59193
7468.09,0.58686
7462.3,0.59319
7456.51,0.59332
7450.73,0.58609
7444.94,0.58894
7439.16,0.57525
7433.37,0.58100
7427.58,0.57648
7421.8,0.58278
7416.01,0.58628
7410.22,0.58074
7404.44,0.58348
7398.65,0.56762
7392.87,0.57636
7387.08,0.57307
7381.29,0.58028
7375.51,0.56502
7369.72,0.56708
7363.93,0.56357
7358.15,0.56735
7352.36,0.56398
7346.58,0.55154
7340.79,0.54757
7335,0.54815
7329.22,0.54366
7323.43,0.53496
7317.65,0.53815
7311.86,0.52443
7306.07,0.51768
7300.29,0.51577
7294.5,0.50262
7288.71,0.49549
7282.93,0.48974
7277.14,0.47992
7271.36,0.47130
7265.57,0.46763
7259.78,0.46825
7254,0.45679
7248.21,0.44423
7242.42,0.42618
7236.64,0.42768
7230.85,0.42406
7225.07,0.42478
7219.28,0.40792
7213.49,0.41202
7207.71,0.41650
7201.92,0.41547
7196.13,0.41664
7190.35,0.41874
7184.56,0.41598
7178.78,0.42359
7172.99,0.41994
7167.2,0.42112
7161.42,0.41782
7155.63,0.42081
7149.84,0.42179
7144.06,0.42015
7138.27,0.40940
7132.49,0.41710
7126.7,0.41133
7120.91,0.40458
7115.13,0.40817
7109.34,0.39905
7103.55,0.40592
7097.77,0.40256
7091.98,0.40151
7086.2,0.39987
7080.41,0.39539
7074.62,0.39500
7068.84,0.40004
7063.05,0.39747
7057.26,0.40338
7051.48,0.39307
7045.69,0.40327
7039.91,0.40490
7034.12,0.40132
7028.33,0.40482
7022.55,0.40117
7016.76,0.40399
7010.98,0.40699
7005.19,0.40687
6999.4,0.40445
6993.62,0.40938
6987.83,0.40492
6982.04,0.40414
6976.26,0.40728
6970.47,0.41528
6964.69,0.40675
6958.9,0.40519
6953.11,0.41363
6947.33,0.41609
6941.54,0.42215
6935.75,0.41411
6929.97,0.41567
6924.18,0.41415
6918.4,0.41900
6912.61,0.42076
6906.82,0.42484
6901.04,0.42723
6895.25,0.42176
6889.46,0.43110
6883.68,0.42926
6877.89,0.42857
6872.11,0.42219
6866.32,0.42889
6860.53,0.42335
6854.75,0.42956
6848.96,0.43257
6843.17,0.43159
6837.39,0.43116
6831.6,0.43077
6825.82,0.42874
6820.03,0.42828
6814.24,0.43074
6808.46,0.43061
6802.67,0.42819
6796.88,0.42066
6791.1,0.41830
6785.31,0.41559
6779.53,0.41347
6773.74,0.40772
6767.95,0.40186
6762.17,0.39901
6756.38,0.39767
6750.6,0.39608
6744.81,0.38946
6739.02,0.38833
6733.24,0.38938
6727.45,0.39003
6721.66,0.38564
6715.88,0.38800
6710.09,0.38172
6704.31,0.37555
6698.52,0.38010
6692.73,0.37613
6686.95,0.37377
6681.16,0.36993
6675.37,0.36605
6669.59,0.36383
6663.8,0.35587
6658.02,0.35311
6652.23,0.33869
6646.44,0.33798
6640.66,0.32365
6634.87,0.31655
6629.08,0.30584
6623.3,0.29985
6617.51,0.29376
6611.73,0.29355
6605.94,0.29282
6600.15,0.29475
6594.37,0.29497
6588.58,0.29587
6582.79,0.29990
6577.01,0.29592
6571.22,0.29043
6565.44,0.28504
6559.65,0.28059
6553.86,0.27753
6548.08,0.27416
6542.29,0.26565
6536.5,0.25804
6530.72,0.25034
6524.93,0.23934
6519.15,0.23499
6513.36,0.23752
6507.57,0.23386
6501.79,0.23168
6496,0.23418
6490.21,0.23430
6484.43,0.23368
6478.64,0.24309
6472.86,0.25171
6467.07,0.27034
6461.28,0.28975
6455.5,0.31523
6449.71,0.33544
6443.93,0.35278
6438.14,0.36867
6432.35,0.37456
6426.57,0.38128
6420.78,0.37555
6414.99,0.37973
6409.21,0.37727
6403.42,0.36970
6397.64,0.36518
6391.85,0.35670
6386.06,0.34385
6380.28,0.33894
6374.49,0.33198
6368.7,0.32422
6362.92,0.31628
6357.13,0.31271
6351.35,0.31323
6345.56,0.31353
6339.77,0.31697
6333.99,0.32587
6328.2,0.33840
6322.41,0.34711
6316.63,0.35919
6310.84,0.36766
6305.06,0.37587
6299.27,0.37656
6293.48,0.38061
6287.7,0.37636
6281.91,0.37226
6276.12,0.36310
6270.34,0.35633
6264.55,0.35312
6258.77,0.34538
6252.98,0.34342
6247.19,0.34083
6241.41,0.34115
6235.62,0.34027
6229.83,0.34067
6224.05,0.34598
6218.26,0.35287
6212.48,0.36358
6206.69,0.37134
6200.9,0.37832
6195.12,0.38117
6189.33,0.39148
6183.55,0.39488
6177.76,0.40948
6171.97,0.42041
6166.19,0.43556
6160.4,0.44701
6154.61,0.45727
6148.83,0.46810
6143.04,0.47330
6137.26,0.47939
6131.47,0.48861
6125.68,0.48932
6119.9,0.49139
6114.11,0.49431
6108.32,0.49977
6102.54,0.50000
6096.75,0.50572
6090.97,0.50330
6085.18,0.50275
6079.39,0.50493
6073.61,0.50434
6067.82,0.49895
6062.03,0.50185
6056.25,0.49877
6050.46,0.49734
6044.68,0.49745
6038.89,0.49428
6033.1,0.49151
6027.32,0.49280
6021.53,0.49205
6015.74,0.48976
6009.96,0.48306
6004.17,0.48219
5998.39,0.47913
5992.6,0.47445
5986.81,0.46984
5981.03,0.46457
5975.24,0.45600
5969.45,0.44996
5963.67,0.44247
5957.88,0.43298
5952.1,0.42287
5946.31,0.41236
5940.52,0.39714
5934.74,0.38068
5928.95,0.36114
5923.16,0.33883
5917.38,0.31406
5911.59,0.28748
5905.81,0.25819
5900.02,0.22836
5894.23,0.19924
5888.45,0.17064
5882.66,0.14523
5876.88,0.12025
5871.09,0.10432
5865.3,0.08756
5859.52,0.07237
5853.73,0.05849
5847.94,0.04804
5842.16,0.03926
5836.37,0.03547
5830.59,0.03485
5824.8,0.03603
5819.01,0.03843
5813.23,0.04236
5807.44,0.04794
5801.65,0.05278
5795.87,0.05878
5790.08,0.06641
5784.3,0.07382
5778.51,0.08247
5772.72,0.08593
5766.94,0.09176
5761.15,0.09061
5755.36,0.09000
5749.58,0.08515
5743.79,0.08093
5738.01,0.07352
5732.22,0.06635
5726.43,0.05906
5720.65,0.05529
5714.86,0.05165
5709.07,0.05427
5703.29,0.05626
5697.5,0.05841
5691.72,0.06236
5685.93,0.07011
5680.14,0.07827
5674.36,0.08599
5668.57,0.09293
5662.78,0.10379
5657,0.11488
5651.21,0.12295
5645.43,0.13245
5639.64,0.14324
5633.85,0.15175
5628.07,0.16012
5622.28,0.16590
5616.5,0.17158
5610.71,0.17402
5604.92,0.17703
5599.14,0.17940
5593.35,0.18228
5587.56,0.18381
5581.78,0.18572
5575.99,0.18947
5570.21,0.19266
5564.42,0.19592
5558.63,0.19876
5552.85,0.20248
5547.06,0.20307
5541.27,0.20734
5535.49,0.20748
5529.7,0.21244
5523.92,0.21369
5518.13,0.21707
5512.34,0.22197
5506.56,0.22348
5500.77,0.22580
5494.98,0.22721
5489.2,0.22963
5483.41,0.23464
5477.63,0.23578
5471.84,0.23977
5466.05,0.24218
5460.27,0.24455
5454.48,0.24594
5448.69,0.24534
5442.91,0.24871
5437.12,0.25323
5431.34,0.25385
5425.55,0.25801
5419.76,0.25971
5413.98,0.25956
5408.19,0.26465
5402.4,0.27083
5396.62,0.27589
5390.83,0.28576
5385.05,0.29139
5379.26,0.29640
5373.47,0.30082
5367.69,0.30504
5361.9,0.30915
5356.11,0.30984
5350.33,0.30969
5344.54,0.30836
5338.76,0.30823
5332.97,0.30978
5327.18,0.30563
5321.4,0.30422
5315.61,0.29782
5309.83,0.28788
5304.04,0.27366
5298.25,0.25724
5292.47,0.24093
5286.68,0.22774
5280.89,0.22032
5275.11,0.21307
5269.32,0.20467
5263.54,0.19459
5257.75,0.18802
5251.96,0.17952
5246.18,0.17042
5240.39,0.16412
5234.6,0.15361
5228.82,0.14463
5223.03,0.13599
5217.25,0.12809
5211.46,0.11953
5205.67,0.11035
5199.89,0.10220
5194.1,0.09312
5188.31,0.08558
5182.53,0.07829
5176.74,0.07322
5170.96,0.06832
5165.17,0.06534
5159.38,0.06130
5153.6,0.05823
5147.81,0.05509
5142.02,0.05295
5136.24,0.05235
5130.45,0.05183
5124.67,0.05253
5118.88,0.05358
5113.09,0.05549
5107.31,0.05713
5101.52,0.05978
5095.73,0.06257
5089.95,0.06644
5084.16,0.06988
5078.38,0.07340
5072.59,0.07552
5066.8,0.07965
5061.02,0.08320
5055.23,0.08571
5049.45,0.08922
5043.66,0.09189
5037.87,0.09446
5032.09,0.09596
5026.3,0.09736
5020.51,0.09526
5014.73,0.09506
5008.94,0.09261
5003.16,0.08646
4997.37,0.07763
4991.58,0.06531
4985.8,0.05345
4980.01,0.04182
4974.22,0.03401
4968.44,0.02876
4962.65,0.02950
4956.87,0.03038
4951.08,0.03215
4945.29,0.03204
4939.51,0.03146
4933.72,0.03143
4927.93,0.03072
4922.15,0.02886
4916.36,0.02376
4910.58,0.01992
4904.79,0.01416
4899,0.00991
4893.22,0.00657
4887.43,0.00479
4881.64,0.00236
4875.86,0.00121
4870.07,0.00149
4864.29,0.00160
4858.5,0.00425
4852.71,0.00970
4846.93,0.01556
4841.14,0.02422
4835.35,0.03702
4829.57,0.04936
4823.78,0.05932
4818,0.06584
4812.21,0.06931
4806.42,0.06948
4800.64,0.06702
4794.85,0.06331
4789.06,0.06223
4783.28,0.06279
4777.49,0.06363
4771.71,0.06102
4765.92,0.05972
4760.13,0.05667
4754.35,0.05240
4748.56,0.04904
4742.78,0.04539
4736.99,0.04053
4731.2,0.03667
4725.42,0.03181
4719.63,0.02696
4713.84,0.02230
4708.06,0.01773
4702.27,0.01447
4696.49,0.01230
4690.7,0.01221
4684.91,0.01081
4679.13,0.01068
4673.34,0.00994
4667.55,0.01042
4661.77,0.01097
4655.98,0.00954
4650.2,0.01016
4644.41,0.00957
4638.62,0.00823
4632.84,0.00730
4627.05,0.00642
4621.26,0.00635
4615.48,0.00429
4609.69,0.00296
4603.91,0.00270
4598.12,0.00237
4592.33,0.00199
4586.55,0.00099
4580.76,0.00070
4574.97,0.00192
4569.19,0.00069
4563.4,0.00125
4557.62,0.00196
4551.83,0.00184
4546.04,0.00176
4540.26,0.00276
4534.47,0.00211
4528.68,0.00291
4522.9,0.00300
4517.11,0.00329
4511.33,0.00442
4505.54,0.00569
4499.75,0.00670
4493.97,0.00755
4488.18,0.00822
4482.4,0.00696
4476.61,0.00705
4470.82,0.00725
4465.04,0.00642
4459.25,0.00473
4453.46,0.00463
4447.68,0.00365
4441.89,0.00304
4436.11,0.00231
4430.32,0.00145
4424.53,0.00065
4418.75,0.00090
4412.96,0.00078
4407.17,0.00035
4401.39,0.00040
4395.6,0.00034
4389.82,0.00074
4384.03,0.00028
4378.24,0.00053
4372.46,0.00057
4366.67,0.00100
4360.88,0.00081
4355.1,0.00108
4349.31,0.00023
4343.53,0.00065
4337.74,0.00063
4331.95,0.00036
4326.17,0.00093
4320.38,0.00056
4314.59,0.00051
4308.81,0.00007
4303.02,0.00009
4297.24,0.00060
4291.45,0.00034
4285.66,0.00084
4279.88,0.00021
4274.09,0.00057
4268.3,0.00078
4262.52,0.00043
4256.73,0.00048
4250.95,0.00034
4245.16,0.00041
4239.37,0.00032
4233.59,0.00039
4227.8,0.00065
4222.02,0.00055
4216.23,0.00111
4210.44,0.00038
4204.66,0.00088
4198.87,0.00091
4193.08,0.00036
4187.3,-0.00014
4181.51,0.00068
4175.73,0.00043
4169.94,0.00041
4164.15,0.00029
4158.37,0.00049
4152.58,0.00073
4146.79,0.00053
4141.01,0.00043
4135.22,0.00036
4129.44,0.00041
4123.65,0.00053
4117.86,0.00057
4112.08,0.00042
4106.29,0.00074
4100.5,0.00043
4094.72,0.00028
4088.93,0.00049
4083.15,0.00048
4077.36,0.00043
4071.57,0.00043
4065.79,0.00058
4060,0.00035
4054.21,0.00046
4048.43,0.00022
4042.64,0.00022
4036.86,-0.00001
4031.07,0.00047
4025.28,0.00059
4019.5,0.00074
4013.71,0.00045
4007.92,0.00076
4002.14,0.00066
3996.35,0.00009
3990.57,0.00052
3984.78,0.00043
3978.99,0.00025
3973.21,0.00028
3967.42,0.00043
3961.63,0.00061
3955.85,0.00048
3950.06,0.00025
3944.28,0.00058
3938.49,0.00076
3932.7,0.00103
3926.92,0.00100
3921.13,0.00145
3915.35,0.00137
3909.56,0.00155
3903.77,0.00150
3897.99,0.00275
3892.2,0.00280
3886.41,0.00278
3880.63,0.00317
3874.84,0.00412
3869.06,0.00399
3863.27,0.00397
3857.48,0.00397
3851.7,0.00276
3845.91,0.00192
3840.12,0.00236
3834.34,0.00229
3828.55,0.00357
3822.77,0.00312
3816.98,0.00305
3811.19,0.00337
3805.41,0.00358
3799.62,0.00406
3793.83,0.00402
3788.05,0.00387
3782.26,0.00504
3776.48,0.00546
3770.69,0.00549
3764.9,0.00546
3759.12,0.00509
3753.33,0.00439
3747.54,0.00425
3741.76,0.00370
3735.97,0.00370
3730.19,0.00312
3724.4,0.00325
3718.61,0.00291
3712.83,0.00247
3707.04,0.00188
3701.25,0.00128
3695.47,0.00078
3689.68,0.00057
3683.9,0.00011
3678.11,0.00004
3672.32,0.00053
3666.54,0.00050
3660.75,0.00015
3654.97,0.00106
3649.18,0.00078
3643.39,0.00043
3637.61,0.00064
3631.82,0.00050
3626.03,0.00062
3620.25,0.00042
3614.46,0.00034
3608.68,0.00065
3602.89,0.00057
3597.1,0.00030
3591.32,0.00038
3585.53,0.00053
3579.74,0.00049
3573.96,0.00071
3568.17,0.00067
3562.39,0.00046
3556.6,0.00068
3550.81,0.00012
3545.03,0.00022
3539.24,0.00041
3533.45,0.00045
3527.67,0.00070
3521.88,0.00036
3516.1,0.00050
3510.31,0.00064
3504.52,0.00061
3498.74,0.00079
3492.95,0.00043
3487.16,0.00045
3481.38,0.00033
3475.59,0.00064
3469.81,0.00029
3464.02,0.00031
3458.23,0.00038
3452.45,0.00086
3446.66,0.00078
3440.87,0.00041
3435.09,0.00035
3429.3,0.00030
3423.52,-0.00002
3417.73,0.00115
3411.94,0.00020
3406.16,0.00043
3400.37,0.00049
3394.58,0.00042
3388.8,0.00072
3383.01,0.00037
3377.23,0.00032
3371.44,0.00066
3365.65,0.00049
3359.87,0.00040
3354.08,0.00120
3348.3,0.00034
3342.51,0.00059
3336.72,0.00112
3330.94,0.00065
3325.15,0.00085
3319.36,0.00029
3313.58,0.00055
3307.79,0.00063
3302.01,0.00065
3296.22,0.00067
3290.43,0.00014
3284.65,0.00052
3278.86,0.00047
3273.07,0.00066
3267.29,0.00070
3261.5,0.00024
3255.72,0.00035
3249.93,0.00046
3244.14,0.00052
3238.36,0.00113
3232.57,0.00080
3226.78,0.00055
3221,0.00034
3215.21,0.00078
3209.43,0.00059
3203.64,-0.00010
3197.85,0.00055
3192.07,0.00083
3186.28,0.00028
3180.49,0.00064
3174.71,0.00047
3168.92,0.00090
3163.14,0.00016
3157.35,0.00062
3151.56,0.00080
3145.78,-0.00012
3139.99,0.00046
3134.2,0.00019
3128.42,0.00063
3122.63,0.00011
3116.85,0.00041
3111.06,0.00042
3105.27,0.00009
3099.49,0.00041
3093.7,0.00041
3087.92,0.00029
3082.13,0.00061
3076.34,0.00056
3070.56,0.00052
3064.77,0.00031
3058.98,0.00015
3053.2,0.00021
3047.41,0.00011
3041.63,0.00033
3035.84,0.00043
3030.05,0.00026
3024.27,0.00032
3018.48,0.00031
3012.69,0.00020
3006.91,0.00045
3001.12,0.00020
2995.34,0.00045
2989.55,0.00022
2983.76,0.00010
2977.98,0.00027
2972.19,0.00026
2966.4,0.00014
2960.62,0.00023
2954.83,0.00038
2949.05,0.00014
2943.26,0.00053
2937.47,0.00032
2931.69,-0.00000
2925.9,0.00040
2920.11,0.00021
2914.33,0.00005
2908.54,0.00019
2902.76,0.00014
2896.97,0.00024
2891.18,0.00035
2885.4,0.00022
2879.61,0.00034
2873.82,0.00048
2868.04,0.00011
2862.25,0.00040
2856.47,0.00037
2850.68,0.00044
2844.89,0.00030
2839.11,0.00012
2833.32,0.00041
2827.53,0.00030
2821.75,-0.00002
2815.96,0.00052
2810.18,0.00006
2804.39,0.00014
2798.6,0.00018
2792.82,0.00046
2787.03,0.00032
2781.25,0.00030
2775.46,0.00007
2769.67,0.00020
2763.89,0.00055
2758.1,0.00044
2752.31,0.00022
2746.53,0.00012
2740.74,0.00018
2734.96,0.00052
2729.17,0.00003
2723.38,0.00023
2717.6,0.00046
2711.81,0.00010
2706.02,0.00014
2700.24,0.00020
2694.45,0.00051
2688.67,0.00032
2682.88,0.00047
2677.09,-0.00000
2671.31,0.00022
2665.52,0.00040
2659.73,0.00015
2653.95,0.00025
2648.16,0.00035
2642.38,0.00020
2636.59,0.00048
2630.8,0.00032
2625.02,0.00015
2619.23,0.00025
2613.44,0.00035
2607.66,0.00035
2601.87,0.00031
2596.09,0.00045
2590.3,0.00050
2584.51,0.00053
2578.73,0.00029
2572.94,0.00041
2567.15,0.00040
2561.37,0.00021
2555.58,0.00027
2549.8,0.00028
2544.01,0.00025
2538.22,0.00013
2532.44,0.00030
2526.65,0.00027
2520.87,0.00023
2515.08,0.00030
2509.29,0.00020
2503.51,0.00015
2497.72,0.00018
2491.93,0.00017
2486.15,0.00027
2480.36,0.00009
2474.58,0.00022
2468.79,0.00029
2463,0.00047
2457.22,0.00025
2451.43,0.00030
2445.64,0.00006
2439.86,0.00036
2434.07,0.00017
2428.29,0.00027
2422.5,0.00023
2416.71,0.00017
2410.93,0.00032
2405.14,0.00011
2399.35,0.00032
2393.57,0.00034
2387.78,0.00027
2382,0.00013
2376.21,0.00038
2370.42,0.00021
2364.64,0.00034
2358.85,0.00008
2353.06,0.00024
2347.28,0.00036
2341.49,0.00029
2335.71,0.00013
2329.92,0.00030
2324.13,0.00036
2318.35,0.00028
2312.56,0.00026
2306.77,0.00009
2300.99,0.00022
2295.2,0.00028
2289.42,0.00003
2283.63,0.00014
2277.84,0.00029
2272.06,0.00024
2266.27,0.00009
2260.48,0.00031
2254.7,0.00013
2248.91,0.00017
2243.13,0.00017
2237.34,0.00018
2231.55,0.00014
2225.77,0.00034
2219.98,0.00022
2214.2,0.00023
2208.41,0.00013
2202.62,0.00029
2196.84,0.00021
2191.05,0.00030
2185.26,0.00041
2179.48,0.00022
2173.69,0.00019
2167.91,0.00021
2162.12,0.00014
2156.33,0.00024
2150.55,0.00008
2144.76,0.00010
2138.97,0.00015
2133.19,0.00002
2127.4,0.00008
2121.62,0.00016
2115.83,0.00021
2110.04,0.00015
2104.26,0.00036
2098.47,0.00012
2092.68,0.00043
2086.9,0.00006
2081.11,0.00018
2075.33,0.00026
2069.54,0.00028
2063.75,0.00040
2057.97,0.00024
2052.18,0.00009
2046.39,0.00028
2040.61,0.00024
2034.82,0.00034
2029.04,0.00010
2023.25,0.00025
2017.46,0.00052
2011.68,0.00011
2005.89,0.00027
2000.1,0.00029
1994.32,0.00025
1988.53,0.00016
1982.75,0.00009
1976.96,0.00026
1971.17,0.00011
1965.39,0.00026
1959.6,0.00037
1953.82,0.00012
1948.03,0.00036
1942.24,0.00028
1936.46,0.00020
1930.67,0.00021
1924.88,0.00012
1919.1,0.00023
1913.31,0.00019
1907.53,0.00017
1901.74,0.00023
1895.95,0.00022
1890.17,0.00028
1884.38,0.00009
1878.59,0.00038
1872.81,0.00026
1867.02,0.00035
1861.24,0.00030
1855.45,0.00006
1849.66,0.00015
1843.88,0.00020
1838.09,0.00033
1832.3,0.00033
1826.52,0.00013
1820.73,0.00015
1814.95,0.00005
1809.16,0.00036
1803.37,0.00017
1797.59,0.00022
1791.8,0.00020
1786.01,0.00021
1780.23,0.00005
1774.44,0.00018
1768.66,0.00016
1762.87,0.00022
1757.08,0.00021
1751.3,0.00028
1745.51,0.00008
1739.72,0.00020
1733.94,0.00023
1728.15,0.00015
1722.37,0.00024
1716.58,0.00012
1710.79,0.00027
1705.01,0.00019
1699.22,0.00034
1693.43,0.00027
1687.65,0.00002
1681.86,0.00015
1676.08,0.00015
1670.29,0.00025
1664.5,0.00024
1658.72,0.00040
1652.93,-0.00006
1647.15,0.00040
1641.36,0.00054
1635.57,0.00050
1629.79,0.00007
1624,0.00026
1618.21,0.00028
1612.43,0.00045
1606.64,0.00021
1600.86,0.00011
1595.07,0.00013
1589.28,0.00010
1583.5,0.00023
1577.71,0.00037
1571.92,0.00019
1566.14,0.00031
1560.35,0.00034
1554.57,0.00029
1548.78,0.00019
1542.99,0.00019
1537.21,0.00024
1531.42,0.00011
1525.63,0.00030
1519.85,0.00028
1514.06,0.00018
1508.28,0.00042
1502.49,0.00024
1496.7,-0.00004
1490.92,0.00025
1485.13,0.00020
1479.34,0.00006
1473.56,0.00017
1467.77,0.00032
1461.99,0.00042
1456.2,0.00015
1450.41,0.00031
1444.63,0.00027
1438.84,0.00001
1433.05,0.00011
1427.27,0.00023
1421.48,0.00048
1415.7,0.00032
1409.91,0.00024
1404.12,0.00020
1398.34,0.00017
1392.55,0.00041
1386.77,0.00009
1380.98,-0.00001
1375.19,0.00031
1369.41,0.00006
1363.62,0.00022
1357.83,0.00031
1352.05,0.00034
1346.26,0.00023
1340.48,0.00018
1334.69,0.00028
1328.9,0.00019
1323.12,0.00035
1317.33,0.00017
1311.54,0.00036
1305.76,0.00013
1299.97,0.00027
1294.19,-0.00003
1288.4,0.00037
1282.61,0.00011
1276.83,0.00032
1271.04,0.00026
1265.25,0.00023
1259.47,0.00031
1253.68,0.00040
1247.9,0.00007
1242.11,0.00018
1236.32,0.00038
1230.54,0.00018
1224.75,0.00033
1218.96,0.00034
1213.18,0.00026
1207.39,0.00042
1201.61,0.00063
1195.82,0.00032
1190.03,0.00023
1184.25,0.00063
1178.46,0.00043
1172.67,0.00048
1166.89,0.00059
1161.1,0.00038
1155.32,0.00003
1149.53,0.00036
1143.74,0.00046
1137.96,0.00032
1132.17,0.00013
1126.38,0.00036
1120.6,0.00020
1114.81,0.00063
1109.03,0.00036
1103.24,0.00001
1097.45,0.00032
1091.67,0.00008
1085.88,0.00053
1080.1,0.00048
1074.31,0.00052
1068.52,0.00046
1062.74,0.00067
1056.95,0.00067
1051.16,0.00067
1045.38,0.00071
1039.59,0.00069
1033.81,0.00058
1028.02,0.00079
1022.23,0.00042
1016.45,0.00037
1010.66,0.00000
1004.87,0.00061
999.088,0.00037
993.302,0.00067
987.516,0.00025
981.729,0.00077
975.943,0.00062
970.157,0.00023
964.371,0.00030
958.585,0.00021
952.798,0.00025
947.012,0.00030
941.226,0.00008
935.44,0.00031
929.653,0.00021
923.867,0.00076
918.081,0.00032
912.295,0.00051
906.508,0.00076
900.722,0.00033
894.936,0.00052
889.15,0.00048
883.364,0.00069
877.577,0.00066
871.791,0.00033
866.005,0.00066
860.219,0.00035
854.432,0.00100
848.646,0.00055
842.86,0.00064
837.074,0.00021
831.288,0.00075
825.501,0.00070
819.715,0.00053
813.929,0.00071
808.143,0.00102
802.356,0.00067
796.57,0.00060
790.784,0.00056
784.998,0.00049
779.212,0.00079
773.425,0.00069
767.639,0.00044
761.853,0.00035
756.067,0.00077
750.28,0.00030
744.494,0.00084
738.708,0.00078
732.922,0.00067
727.136,0.00096
721.349,0.00062
715.563,0.00058
709.777,0.00043
703.991,0.00026
698.204,0.00081
692.418,0.00051
686.632,0.00101
680.846,0.00018
675.059,0.00129
669.273,0.00074
663.487,0.00172
657.701,0.00049
651.915,0.00140
646.128,0.00186
640.342,0.00116
634.556,0.00061
628.77,0.00136
622.983,0.00025
617.197,0.00130
611.411,0.00129
605.625,0.00081
599.839,0.00164