File: 01_Data/Nylon/FTIR/IS/Nylon_3.175_T_IS_221212_R7.dpt
7497.02,0.02213
7491.23,0.02853
7485.45,0.01968
7479.66,0.02469
7473.87,0.02976
7468.09,0.02570
7462.3,0.02408
7456.51,0.03358
7450.73,0.03435
7444.94,0.02951
7439.16,0.02732
7433.37,0.02542
7427.58,0.02098
7421.8,0.02442
7416.01,0.02683
7410.22,0.02978
7404.44,0.03059
7398.65,0.02145
7392.87,0.02652
7387.08,0.03526
7381.29,0.02651
7375.51,0.02536
7369.72,0.01882
7363.93,0.02573
7358.15,0.02190
7352.36,0.02531
7346.58,0.02893
7340.79,0.02008
7335,0.02676
7329.22,0.03790
7323.43,0.02866
7317.65,0.02545
7311.86,0.02199
7306.07,0.02661
7300.29,0.02118
7294.5,0.02420
7288.71,0.02621
7282.93,0.02489
7277.14,0.02911
7271.36,0.02103
7265.57,0.01237
7259.78,0.02706
7254,0.02763
7248.21,0.03408
7242.42,0.02132
7236.64,0.03080
7230.85,0.02449
7225.07,0.02419
7219.28,0.02708
7213.49,0.02437
7207.71,0.02658
7201.92,0.02469
7196.13,0.03053
7190.35,0.02712
7184.56,0.02685
7178.78,0.02591
7172.99,0.02169
7167.2,0.02523
7161.42,0.02794
7155.63,0.03081
7149.84,0.03074
7144.06,0.02057
7138.27,0.03137
7132.49,0.02433
7126.7,0.01835
7120.91,0.02501
7115.13,0.02766
7109.34,0.03247
7103.55,0.02825
7097.77,0.02132
7091.98,0.02128
7086.2,0.02141
7080.41,0.01815
7074.62,0.02719
7068.84,0.02148
7063.05,0.02544
7057.26,0.01768
7051.48,0.02411
7045.69,0.01778
7039.91,0.02389
7034.12,0.02651
7028.33,0.02759
7022.55,0.02228
7016.76,0.02784
7010.98,0.02133
7005.19,0.02792
6999.4,0.03119
6993.62,0.02468
6987.83,0.02416
6982.04,0.01940
6976.26,0.02528
6970.47,0.02150
6964.69,0.02255
6958.9,0.02989
6953.11,0.03036
6947.33,0.02864
6941.54,0.03398
6935.75,0.02367
6929.97,0.02468
6924.18,0.02980
6918.4,0.02663
6912.61,0.01863
6906.82,0.02618
6901.04,0.02951
6895.25,0.02706
6889.46,0.02527
6883.68,0.02916
6877.89,0.02109
6872.11,0.02276
6866.32,0.02245
6860.53,0.01998
6854.75,0.01799
6848.96,0.02774
6843.17,0.02931
6837.39,0.02408
6831.6,0.02387
6825.82,0.02816
6820.03,0.02580
6814.24,0.02377
6808.46,0.02152
6802.67,0.02820
6796.88,0.02713
6791.1,0.02714
6785.31,0.02165
6779.53,0.02315
6773.74,0.02690
6767.95,0.02309
6762.17,0.02011
6756.38,0.02168
6750.6,0.02142
6744.81,0.02839
6739.02,0.02159
6733.24,0.02490
6727.45,0.02158
6721.66,0.02395
6715.88,0.02454
6710.09,0.02107
6704.31,0.02146
6698.52,0.02252
6692.73,0.02270
6686.95,0.02885
6681.16,0.02229
6675.37,0.02387
6669.59,0.02192
6663.8,0.02442
6658.02,0.02090
6652.23,0.02257
6646.44,0.02220
6640.66,0.02177
6634.87,0.02575
6629.08,0.02366
6623.3,0.02585
6617.51,0.02356
6611.73,0.02860
6605.94,0.02593
6600.15,0.02225
6594.37,0.02595
6588.58,0.02689
6582.79,0.02555
6577.01,0.02135
6571.22,0.02882
6565.44,0.02474
6559.65,0.02474
6553.86,0.02284
6548.08,0.01728
6542.29,0.01981
6536.5,0.01958
6530.72,0.02064
6524.93,0.02076
6519.15,0.01898
6513.36,0.01900
6507.57,0.02156
6501.79,0.02043
6496,0.02342
6490.21,0.02501
6484.43,0.02344
6478.64,0.02698
6472.86,0.02363
6467.07,0.02360
6461.28,0.02474
6455.5,0.02455
6449.71,0.02383
6443.93,0.01970
6438.14,0.02262
6432.35,0.02426
6426.57,0.02419
6420.78,0.02009
6414.99,0.02281
6409.21,0.02385
6403.42,0.02369
6397.64,0.02714
6391.85,0.02351
6386.06,0.02416
6380.28,0.02606
6374.49,0.02365
6368.7,0.02426
6362.92,0.02383
6357.13,0.02125
6351.35,0.02206
6345.56,0.02162
6339.77,0.02129
6333.99,0.01856
6328.2,0.02145
6322.41,0.02315
6316.63,0.02290
6310.84,0.02135
6305.06,0.02693
6299.27,0.02357
6293.48,0.02128
6287.7,0.02115
6281.91,0.02133
6276.12,0.01948
6270.34,0.02525
6264.55,0.02254
6258.77,0.02276
6252.98,0.01971
6247.19,0.02167
6241.41,0.01965
6235.62,0.02311
6229.83,0.02405
6224.05,0.02568
6218.26,0.02716
6212.48,0.02283
6206.69,0.02138
6200.9,0.02394
6195.12,0.02076
6189.33,0.02508
6183.55,0.02339
6177.76,0.01892
6171.97,0.02368
6166.19,0.02407
6160.4,0.02286
6154.61,0.02151
6148.83,0.02239
6143.04,0.02413
6137.26,0.02629
6131.47,0.02491
6125.68,0.02028
6119.9,0.02283
6114.11,0.02546
6108.32,0.02416
6102.54,0.02388
6096.75,0.02150
6090.97,0.02104
6085.18,0.02079
6079.39,0.02507
6073.61,0.02150
6067.82,0.02553
6062.03,0.02521
6056.25,0.02667
6050.46,0.02407
6044.68,0.02273
6038.89,0.02634
6033.1,0.02543
6027.32,0.02230
6021.53,0.02217
6015.74,0.02021
6009.96,0.02346
6004.17,0.02184
5998.39,0.02248
5992.6,0.02160
5986.81,0.02138
5981.03,0.02242
5975.24,0.02142
5969.45,0.02279
5963.67,0.02238
5957.88,0.02054
5952.1,0.02103
5946.31,0.02657
5940.52,0.02809
5934.74,0.02263
5928.95,0.02212
5923.16,0.02041
5917.38,0.02227
5911.59,0.02125
5905.81,0.02700
5900.02,0.02335
5894.23,0.02357
5888.45,0.02476
5882.66,0.02297
5876.88,0.02282
5871.09,0.02204
5865.3,0.02111
5859.52,0.02173
5853.73,0.02211
5847.94,0.02118
5842.16,0.02308
5836.37,0.02351
5830.59,0.02345
5824.8,0.02224
5819.01,0.02342
5813.23,0.02066
5807.44,0.02482
5801.65,0.02096
5795.87,0.02005
5790.08,0.02299
5784.3,0.02240
5778.51,0.02391
5772.72,0.02335
5766.94,0.02352
5761.15,0.02309
5755.36,0.02288
5749.58,0.02346
5743.79,0.02178
5738.01,0.02427
5732.22,0.02162
5726.43,0.02280
5720.65,0.02392
5714.86,0.02511
5709.07,0.02206
5703.29,0.02131
5697.5,0.02247
5691.72,0.02489
5685.93,0.02328
5680.14,0.02109
5674.36,0.02071
5668.57,0.02341
5662.78,0.02250
5657,0.02295
5651.21,0.02365
5645.43,0.02182
5639.64,0.02156
5633.85,0.02086
5628.07,0.02045
5622.28,0.02119
5616.5,0.02128
5610.71,0.02117
5604.92,0.02132
5599.14,0.02343
5593.35,0.02284
5587.56,0.02251
5581.78,0.02264
5575.99,0.02264
5570.21,0.02121
5564.42,0.02190
5558.63,0.02440
5552.85,0.02186
5547.06,0.02254
5541.27,0.02256
5535.49,0.02347
5529.7,0.02274
5523.92,0.02316
5518.13,0.02423
5512.34,0.02281
5506.56,0.02307
5500.77,0.02148
5494.98,0.02262
5489.2,0.02156
5483.41,0.02366
5477.63,0.02241
5471.84,0.02258
5466.05,0.02117
5460.27,0.02239
5454.48,0.02272
5448.69,0.02186
5442.91,0.02413
5437.12,0.02265
5431.34,0.02426
5425.55,0.02410
5419.76,0.02161
5413.98,0.02327
5408.19,0.02256
5402.4,0.02448
5396.62,0.02369
5390.83,0.02330
5385.05,0.02398
5379.26,0.02240
5373.47,0.02293
5367.69,0.02300
5361.9,0.02322
5356.11,0.02280
5350.33,0.02431
5344.54,0.02364
5338.76,0.02299
5332.97,0.02252
5327.18,0.02289
5321.4,0.02374
5315.61,0.02327
5309.83,0.02377
5304.04,0.02394
5298.25,0.02412
5292.47,0.02254
5286.68,0.02342
5280.89,0.02456
5275.11,0.02219
5269.32,0.02209
5263.54,0.02345
5257.75,0.02465
5251.96,0.02317
5246.18,0.02320
5240.39,0.02454
5234.6,0.02354
5228.82,0.02362
5223.03,0.02312
5217.25,0.02224
5211.46,0.02143
5205.67,0.02198
5199.89,0.02275
5194.1,0.02203
5188.31,0.02130
5182.53,0.02388
5176.74,0.02291
5170.96,0.02211
5165.17,0.02158
5159.38,0.02321
5153.6,0.02342
5147.81,0.02273
5142.02,0.02301
5136.24,0.02214
5130.45,0.02158
5124.67,0.02385
5118.88,0.02191
5113.09,0.02197
5107.31,0.02377
5101.52,0.02235
5095.73,0.02377
5089.95,0.02404
5084.16,0.02394
5078.38,0.02350
5072.59,0.02380
5066.8,0.02230
5061.02,0.02229
5055.23,0.02247
5049.45,0.02314
5043.66,0.02374
5037.87,0.02216
5032.09,0.02373
5026.3,0.02331
5020.51,0.02260
5014.73,0.02363
5008.94,0.02344
5003.16,0.02180
4997.37,0.02217
4991.58,0.02264
4985.8,0.02320
4980.01,0.02274
4974.22,0.02250
4968.44,0.02170
4962.65,0.02291
4956.87,0.02359
4951.08,0.02275
4945.29,0.02403
4939.51,0.02306
4933.72,0.02383
4927.93,0.02275
4922.15,0.02337
4916.36,0.02355
4910.58,0.02377
4904.79,0.02209
4899,0.02243
4893.22,0.02315
4887.43,0.02272
4881.64,0.02256
4875.86,0.02267
4870.07,0.02350
4864.29,0.02324
4858.5,0.02339
4852.71,0.02322
4846.93,0.02362
4841.14,0.02350
4835.35,0.02315
4829.57,0.02403
4823.78,0.02417
4818,0.02322
4812.21,0.02303
4806.42,0.02327
4800.64,0.02309
4794.85,0.02332
4789.06,0.02403
4783.28,0.02326
4777.49,0.02345
4771.71,0.02271
4765.92,0.02329
4760.13,0.02372
4754.35,0.02296
4748.56,0.02308
4742.78,0.02339
4736.99,0.02288
4731.2,0.02273
4725.42,0.02410
4719.63,0.02339
4713.84,0.02315
4708.06,0.02292
4702.27,0.02285
4696.49,0.02437
4690.7,0.02417
4684.91,0.02329
4679.13,0.02307
4673.34,0.02300
4667.55,0.02417
4661.77,0.02291
4655.98,0.02358
4650.2,0.02354
4644.41,0.02329
4638.62,0.02375
4632.84,0.02383
4627.05,0.02320
4621.26,0.02350
4615.48,0.02298
4609.69,0.02314
4603.91,0.02319
4598.12,0.02244
4592.33,0.02342
4586.55,0.02351
4580.76,0.02269
4574.97,0.02265
4569.19,0.02255
4563.4,0.02329
4557.62,0.02346
4551.83,0.02395
4546.04,0.02382
4540.26,0.02418
4534.47,0.02368
4528.68,0.02323
4522.9,0.02273
4517.11,0.02310
4511.33,0.02398
4505.54,0.02355
4499.75,0.02391
4493.97,0.02319
4488.18,0.02372
4482.4,0.02362
4476.61,0.02422
4470.82,0.02360
4465.04,0.02353
4459.25,0.02368
4453.46,0.02353
4447.68,0.02315
4441.89,0.02406
4436.11,0.02337
4430.32,0.02357
4424.53,0.02342
4418.75,0.02220
4412.96,0.02362
4407.17,0.02394
4401.39,0.02334
4395.6,0.02357
4389.82,0.02296
4384.03,0.02314
4378.24,0.02283
4372.46,0.02313
4366.67,0.02301
4360.88,0.02306
4355.1,0.02369
4349.31,0.02308
4343.53,0.02256
4337.74,0.02259
4331.95,0.02357
4326.17,0.02330
4320.38,0.02266
4314.59,0.02381
4308.81,0.02368
4303.02,0.02340
4297.24,0.02396
4291.45,0.02427
4285.66,0.02314
4279.88,0.02374
4274.09,0.02309
4268.3,0.02329
4262.52,0.02338
4256.73,0.02398
4250.95,0.02373
4245.16,0.02346
4239.37,0.02378
4233.59,0.02244
4227.8,0.02352
4222.02,0.02449
4216.23,0.02445
4210.44,0.02426
4204.66,0.02278
4198.87,0.02324
4193.08,0.02401
4187.3,0.02322
4181.51,0.02356
4175.73,0.02382
4169.94,0.02407
4164.15,0.02374
4158.37,0.02352
4152.58,0.02365
4146.79,0.02413
4141.01,0.02406
4135.22,0.02431
4129.44,0.02435
4123.65,0.02323
4117.86,0.02338
4112.08,0.02393
4106.29,0.02335
4100.5,0.02421
4094.72,0.02322
4088.93,0.02285
4083.15,0.02315
4077.36,0.02371
4071.57,0.02414
4065.79,0.02332
4060,0.02426
4054.21,0.02387
4048.43,0.02407
4042.64,0.02368
4036.86,0.02316
4031.07,0.02367
4025.28,0.02331
4019.5,0.02395
4013.71,0.02348
4007.92,0.02312
4002.14,0.02395
3996.35,0.02377
3990.57,0.02360
3984.78,0.02356
3978.99,0.02339
3973.21,0.02395
3967.42,0.02362
3961.63,0.02309
3955.85,0.02369
3950.06,0.02336
3944.28,0.02359
3938.49,0.02347
3932.7,0.02421
3926.92,0.02377
3921.13,0.02372
3915.35,0.02383
3909.56,0.02380
3903.77,0.02449
3897.99,0.02301
3892.2,0.02419
3886.41,0.02370
3880.63,0.02333
3874.84,0.02354
3869.06,0.02428
3863.27,0.02445
3857.48,0.02390
3851.7,0.02309
3845.91,0.02424
3840.12,0.02424
3834.34,0.02332
3828.55,0.02413
3822.77,0.02360
3816.98,0.02403
3811.19,0.02410
3805.41,0.02463
3799.62,0.02361
3793.83,0.02292
3788.05,0.02375
3782.26,0.02395
3776.48,0.02429
3770.69,0.02439
3764.9,0.02427
3759.12,0.02427
3753.33,0.02445
3747.54,0.02366
3741.76,0.02373
3735.97,0.02373
3730.19,0.02335
3724.4,0.02346
3718.61,0.02393
3712.83,0.02381
3707.04,0.02400
3701.25,0.02330
3695.47,0.02330
3689.68,0.02368
3683.9,0.02319
3678.11,0.02396
3672.32,0.02338
3666.54,0.02376
3660.75,0.02413
3654.97,0.02341
3649.18,0.02350
3643.39,0.02398
3637.61,0.02377
3631.82,0.02367
3626.03,0.02318
3620.25,0.02270
3614.46,0.02321
3608.68,0.02332
3602.89,0.02266
3597.1,0.02359
3591.32,0.02323
3585.53,0.02272
3579.74,0.02326
3573.96,0.02303
3568.17,0.02371
3562.39,0.02246
3556.6,0.02245
3550.81,0.02250
3545.03,0.02194
3539.24,0.02194
3533.45,0.02242
3527.67,0.02192
3521.88,0.02266
3516.1,0.02247
3510.31,0.02239
3504.52,0.02264
3498.74,0.02157
3492.95,0.02284
3487.16,0.02225
3481.38,0.02178
3475.59,0.02143
3469.81,0.02197
3464.02,0.02112
3458.23,0.02166
3452.45,0.02139
3446.66,0.02208
3440.87,0.02207
3435.09,0.02125
3429.3,0.02190
3423.52,0.02233
3417.73,0.02212
3411.94,0.02222
3406.16,0.02136
3400.37,0.02256
3394.58,0.02215
3388.8,0.02150
3383.01,0.02208
3377.23,0.02132
3371.44,0.02068
3365.65,0.02233
3359.87,0.02166
3354.08,0.02126
3348.3,0.02149
3342.51,0.02140
3336.72,0.02061
3330.94,0.02110
3325.15,0.02078
3319.36,0.02096
3313.58,0.02101
3307.79,0.02135
3302.01,0.02128
3296.22,0.02170
3290.43,0.02152
3284.65,0.02178
3278.86,0.02150
3273.07,0.02145
3267.29,0.02128
3261.5,0.02190
3255.72,0.02176
3249.93,0.02197
3244.14,0.02202
3238.36,0.02228
3232.57,0.02155
3226.78,0.02143
3221,0.02229
3215.21,0.02144
3209.43,0.02148
3203.64,0.02252
3197.85,0.02241
3192.07,0.02243
3186.28,0.02217
3180.49,0.02270
3174.71,0.02202
3168.92,0.02201
3163.14,0.02173
3157.35,0.02222
3151.56,0.02180
3145.78,0.02185
3139.99,0.02198
3134.2,0.02158
3128.42,0.02192
3122.63,0.02218
3116.85,0.02211
3111.06,0.02225
3105.27,0.02230
3099.49,0.02216
3093.7,0.02229
3087.92,0.02238
3082.13,0.02179
3076.34,0.02194
3070.56,0.02204
3064.77,0.02182
3058.98,0.02208
3053.2,0.02150
3047.41,0.02188
3041.63,0.02191
3035.84,0.02224
3030.05,0.02207
3024.27,0.02205
3018.48,0.02189
3012.69,0.02227
3006.91,0.02176
3001.12,0.02140
2995.34,0.02163
2989.55,0.02207
2983.76,0.02147
2977.98,0.02115
2972.19,0.02103
2966.4,0.02108
2960.62,0.02083
2954.83,0.02101
2949.05,0.02072
2943.26,0.02100
2937.47,0.02077
2931.69,0.02076
2925.9,0.02147
2920.11,0.02143
2914.33,0.02134
2908.54,0.02191
2902.76,0.02180
2896.97,0.02193
2891.18,0.02181
2885.4,0.02204
2879.61,0.02208
2873.82,0.02192
2868.04,0.02157
2862.25,0.02154
2856.47,0.02228
2850.68,0.02256
2844.89,0.02228
2839.11,0.02247
2833.32,0.02266
2827.53,0.02247
2821.75,0.02258
2815.96,0.02280
2810.18,0.02265
2804.39,0.02319
2798.6,0.02224
2792.82,0.02255
2787.03,0.02316
2781.25,0.02262
2775.46,0.02306
2769.67,0.02281
2763.89,0.02285
2758.1,0.02329
2752.31,0.02272
2746.53,0.02291
2740.74,0.02281
2734.96,0.02282
2729.17,0.02284
2723.38,0.02281
2717.6,0.02329
2711.81,0.02299
2706.02,0.02295
2700.24,0.02287
2694.45,0.02297
2688.67,0.02282
2682.88,0.02256
2677.09,0.02261
2671.31,0.02321
2665.52,0.02285
2659.73,0.02281
2653.95,0.02275
2648.16,0.02256
2642.38,0.02324
2636.59,0.02294
2630.8,0.02243
2625.02,0.02272
2619.23,0.02266
2613.44,0.02266
2607.66,0.02281
2601.87,0.02298
2596.09,0.02302
2590.3,0.02281
2584.51,0.02302
2578.73,0.02331
2572.94,0.02289
2567.15,0.02316
2561.37,0.02312
2555.58,0.02288
2549.8,0.02304
2544.01,0.02274
2538.22,0.02269
2532.44,0.02275
2526.65,0.02251
2520.87,0.02311
2515.08,0.02296
2509.29,0.02261
2503.51,0.02249
2497.72,0.02285
2491.93,0.02287
2486.15,0.02269
2480.36,0.02281
2474.58,0.02284
2468.79,0.02261
2463,0.02282
2457.22,0.02305
2451.43,0.02289
2445.64,0.02309
2439.86,0.02358
2434.07,0.02277
2428.29,0.02287
2422.5,0.02286
2416.71,0.02273
2410.93,0.02280
2405.14,0.02293
2399.35,0.02281
2393.57,0.02271
2387.78,0.02298
2382,0.02264
2376.21,0.02317
2370.42,0.02324
2364.64,0.02318
2358.85,0.02301
2353.06,0.02314
2347.28,0.02290
2341.49,0.02299
2335.71,0.02270
2329.92,0.02267
2324.13,0.02304
2318.35,0.02269
2312.56,0.02274
2306.77,0.02296
2300.99,0.02315
2295.2,0.02282
2289.42,0.02257
2283.63,0.02295
2277.84,0.02259
2272.06,0.02269
2266.27,0.02276
2260.48,0.02249
2254.7,0.02290
2248.91,0.02233
2243.13,0.02250
2237.34,0.02319
2231.55,0.02271
2225.77,0.02306
2219.98,0.02322
2214.2,0.02241
2208.41,0.02266
2202.62,0.02287
2196.84,0.02284
2191.05,0.02245
2185.26,0.02262
2179.48,0.02231
2173.69,0.02253
2167.91,0.02273
2162.12,0.02232
2156.33,0.02281
2150.55,0.02272
2144.76,0.02237
2138.97,0.02257
2133.19,0.02288
2127.4,0.02310
2121.62,0.02266
2115.83,0.02268
2110.04,0.02205
2104.26,0.02242
2098.47,0.02254
2092.68,0.02247
2086.9,0.02282
2081.11,0.02246
2075.33,0.02284
2069.54,0.02259
2063.75,0.02264
2057.97,0.02270
2052.18,0.02282
2046.39,0.02270
2040.61,0.02261
2034.82,0.02273
2029.04,0.02237
2023.25,0.02280
2017.46,0.02301
2011.68,0.02259
2005.89,0.02286
2000.1,0.02298
1994.32,0.02250
1988.53,0.02249
1982.75,0.02255
1976.96,0.02259
1971.17,0.02221
1965.39,0.02240
1959.6,0.02229
1953.82,0.02266
1948.03,0.02262
1942.24,0.02245
1936.46,0.02267
1930.67,0.02248
1924.88,0.02256
1919.1,0.02253
1913.31,0.02226
1907.53,0.02220
1901.74,0.02219
1895.95,0.02236
1890.17,0.02247
1884.38,0.02255
1878.59,0.02224
1872.81,0.02240
1867.02,0.02239
1861.24,0.02218
1855.45,0.02203
1849.66,0.02230
1843.88,0.02190
1838.09,0.02199
1832.3,0.02206
1826.52,0.02180
1820.73,0.02165
1814.95,0.02170
1809.16,0.02166
1803.37,0.02152
1797.59,0.02092
1791.8,0.02131
1786.01,0.02139
1780.23,0.02094
1774.44,0.02056
1768.66,0.02051
1762.87,0.01980
1757.08,0.01935
1751.3,0.01855
1745.51,0.01933
1739.72,0.02009
1733.94,0.02110
1728.15,0.02130
1722.37,0.02233
1716.58,0.02213
1710.79,0.02221
1705.01,0.02137
1699.22,0.02153
1693.43,0.02108
1687.65,0.02082
1681.86,0.02063
1676.08,0.02058
1670.29,0.02016
1664.5,0.02037
1658.72,0.02024
1652.93,0.02035
1647.15,0.02010
1641.36,0.02022
1635.57,0.02006
1629.79,0.02005
1624,0.02006
1618.21,0.02044
1612.43,0.02061
1606.64,0.02031
1600.86,0.02063
1595.07,0.02079
1589.28,0.02000
1583.5,0.01994
1577.71,0.02018
1571.92,0.01993
1566.14,0.02009
1560.35,0.01984
1554.57,0.01992
1548.78,0.01964
1542.99,0.02013
1537.21,0.02038
1531.42,0.02008
1525.63,0.02015
1519.85,0.01999
1514.06,0.01986
1508.28,0.01998
1502.49,0.02009
1496.7,0.02033
1490.92,0.02063
1485.13,0.02033
1479.34,0.02036
1473.56,0.01980
1467.77,0.02017
1461.99,0.02046
1456.2,0.01995
1450.41,0.02015
1444.63,0.01997
1438.84,0.02023
1433.05,0.02017
1427.27,0.02055
1421.48,0.02014
1415.7,0.01973
1409.91,0.01969
1404.12,0.01938
1398.34,0.01964
1392.55,0.01930
1386.77,0.02002
1380.98,0.01979
1375.19,0.01968
1369.41,0.01994
1363.62,0.01949
1357.83,0.01937
1352.05,0.01946
1346.26,0.01940
1340.48,0.01926
1334.69,0.01908
1328.9,0.01860
1323.12,0.01856
1317.33,0.01869
1311.54,0.01824
1305.76,0.01857
1299.97,0.01881
1294.19,0.01905
1288.4,0.01925
1282.61,0.02027
1276.83,0.02030
1271.04,0.02097
1265.25,0.02144
1259.47,0.02110
1253.68,0.02152
1247.9,0.02136
1242.11,0.02164
1236.32,0.02099
1230.54,0.02121
1224.75,0.02117
1218.96,0.02075
1213.18,0.02050
1207.39,0.02021
1201.61,0.02048
1195.82,0.02005
1190.03,0.01987
1184.25,0.01946
1178.46,0.01920
1172.67,0.01910
1166.89,0.01897
1161.1,0.01940
1155.32,0.01902
1149.53,0.01939
1143.74,0.01892
1137.96,0.01907
1132.17,0.01971
1126.38,0.01938
1120.6,0.01968
1114.81,0.02039
1109.03,0.01957
1103.24,0.01909
1097.45,0.01942
1091.67,0.02007
1085.88,0.01952
1080.1,0.02009
1074.31,0.02038
1068.52,0.02164
1062.74,0.02183
1056.95,0.02091
1051.16,0.01992
1045.38,0.02092
1039.59,0.02071
1033.81,0.02113
1028.02,0.02031
1022.23,0.02044
1016.45,0.02018
1010.66,0.02148
1004.87,0.02255
999.088,0.02267
993.302,0.02286
987.516,0.02293
981.729,0.02257
975.943,0.02176
970.157,0.02158
964.371,0.02181
958.585,0.02097
952.798,0.02118
947.012,0.02146
941.226,0.02099
935.44,0.02125
929.653,0.02105
923.867,0.02118
918.081,0.02085
912.295,0.02133
906.508,0.02058
900.722,0.02094
894.936,0.02067
889.15,0.02073
883.364,0.02029
877.577,0.02049
871.791,0.02125
866.005,0.01995
860.219,0.02063
854.432,0.02104
848.646,0.02012
842.86,0.02007
837.074,0.02022
831.288,0.02055
825.501,0.02005
819.715,0.02049
813.929,0.02021
808.143,0.02060
802.356,0.01958
796.57,0.01993
790.784,0.01983
784.998,0.01883
779.212,0.02023
773.425,0.01971
767.639,0.01950
761.853,0.02025
756.067,0.01928
750.28,0.01822
744.494,0.01864
738.708,0.01920
732.922,0.01960
727.136,0.01949
721.349,0.01984
715.563,0.01886
709.777,0.01906
703.991,0.01897
698.204,0.01909
692.418,0.01884
686.632,0.01956
680.846,0.01813
675.059,0.01972
669.273,0.01875
663.487,0.01868
657.701,0.01789
651.915,0.01854
646.128,0.01792
640.342,0.01688
634.556,0.01649
628.77,0.01721
622.983,0.01625
617.197,0.01661
611.411,0.01569
605.625,0.02016
599.839,0.01602