File: 01_Data/Nylon/FTIR/IS/Nylon_2.362_Trans_S_IS_221213_R3.dpt
7496.63,0.62623
7490.84,0.61824
7485.06,0.62588
7479.27,0.63073
7473.48,0.61255
7467.7,0.61774
7461.91,0.62393
7456.13,0.61686
7450.34,0.62101
7444.55,0.61623
7438.77,0.62243
7432.98,0.62117
7427.2,0.62103
7421.41,0.62105
7415.62,0.62505
7409.84,0.61874
7404.05,0.61418
7398.27,0.61023
7392.48,0.60927
7386.69,0.61541
7380.91,0.61932
7375.12,0.61243
7369.34,0.60679
7363.55,0.59374
7357.77,0.60388
7351.98,0.60373
7346.19,0.59311
7340.41,0.58675
7334.62,0.59107
7328.84,0.58435
7323.05,0.58400
7317.26,0.57614
7311.48,0.56647
7305.69,0.56435
7299.91,0.56898
7294.12,0.55931
7288.33,0.54733
7282.55,0.54553
7276.76,0.53900
7270.98,0.52898
7265.19,0.52768
7259.4,0.51789
7253.62,0.51161
7247.83,0.49947
7242.05,0.49282
7236.26,0.48770
7230.47,0.47841
7224.69,0.48039
7218.9,0.48694
7213.12,0.47911
7207.33,0.48473
7201.55,0.47483
7195.76,0.48423
7189.97,0.48086
7184.19,0.48465
7178.4,0.49201
7172.62,0.48842
7166.83,0.48810
7161.04,0.49079
7155.26,0.49027
7149.47,0.48732
7143.69,0.48445
7137.9,0.47819
7132.11,0.47952
7126.33,0.47357
7120.54,0.47852
7114.76,0.47386
7108.97,0.46969
7103.18,0.47267
7097.4,0.46678
7091.61,0.46509
7085.83,0.47140
7080.04,0.47241
7074.26,0.47000
7068.47,0.46480
7062.68,0.47525
7056.9,0.47574
7051.11,0.47456
7045.33,0.47925
7039.54,0.47385
7033.75,0.47984
7027.97,0.47711
7022.18,0.47662
7016.4,0.47695
7010.61,0.47303
7004.82,0.47741
6999.04,0.47364
6993.25,0.48053
6987.47,0.47286
6981.68,0.47805
6975.89,0.48629
6970.11,0.47976
6964.32,0.48783
6958.54,0.48977
6952.75,0.48929
6946.96,0.48920
6941.18,0.48690
6935.39,0.49112
6929.61,0.49489
6923.82,0.49331
6918.04,0.49280
6912.25,0.49445
6906.46,0.49619
6900.68,0.50257
6894.89,0.50604
6889.11,0.49739
6883.32,0.50450
6877.53,0.50177
6871.75,0.50342
6865.96,0.50125
6860.18,0.50257
6854.39,0.50089
6848.6,0.50348
6842.82,0.50164
6837.03,0.50195
6831.25,0.50577
6825.46,0.50444
6819.67,0.50674
6813.89,0.50704
6808.1,0.50122
6802.32,0.50201
6796.53,0.49784
6790.74,0.49495
6784.96,0.49750
6779.17,0.49563
6773.39,0.48126
6767.6,0.47830
6761.82,0.47753
6756.03,0.46982
6750.24,0.46768
6744.46,0.47220
6738.67,0.47143
6732.89,0.47070
6727.1,0.46727
6721.31,0.46487
6715.53,0.46536
6709.74,0.46283
6703.96,0.46277
6698.17,0.46404
6692.38,0.45616
6686.6,0.45228
6680.81,0.45394
6675.03,0.44690
6669.24,0.44102
6663.45,0.44184
6657.67,0.43371
6651.88,0.42745
6646.1,0.42309
6640.31,0.41088
6634.52,0.40312
6628.74,0.39372
6622.95,0.38921
6617.17,0.38301
6611.38,0.38057
6605.6,0.38052
6599.81,0.37817
6594.02,0.38282
6588.24,0.38175
6582.45,0.38309
6576.67,0.38154
6570.88,0.37982
6565.09,0.37750
6559.31,0.37026
6553.52,0.36815
6547.74,0.36389
6541.95,0.35567
6536.16,0.34777
6530.38,0.33735
6524.59,0.33173
6518.81,0.32752
6513.02,0.32728
6507.23,0.32322
6501.45,0.32704
6495.66,0.32533
6489.88,0.32546
6484.09,0.32538
6478.3,0.32891
6472.52,0.34219
6466.73,0.35923
6460.95,0.37947
6455.16,0.40183
6449.38,0.42486
6443.59,0.43555
6437.8,0.44551
6432.02,0.45395
6426.23,0.45739
6420.45,0.45411
6414.66,0.45594
6408.87,0.45461
6403.09,0.44897
6397.3,0.44115
6391.52,0.43520
6385.73,0.42846
6379.94,0.42318
6374.16,0.41520
6368.37,0.40941
6362.59,0.40450
6356.8,0.40115
6351.01,0.39944
6345.23,0.40016
6339.44,0.40790
6333.66,0.41193
6327.87,0.42296
6322.09,0.42750
6316.3,0.43831
6310.51,0.44923
6304.73,0.45347
6298.94,0.45635
6293.16,0.45522
6287.37,0.45274
6281.58,0.45036
6275.8,0.44378
6270.01,0.43670
6264.23,0.43005
6258.44,0.42090
6252.65,0.42108
6246.87,0.42028
6241.08,0.41973
6235.3,0.41977
6229.51,0.41663
6223.72,0.42371
6217.94,0.43174
6212.15,0.44100
6206.37,0.45248
6200.58,0.45656
6194.79,0.46349
6189.01,0.46587
6183.22,0.47209
6177.44,0.48203
6171.65,0.49268
6165.87,0.50167
6160.08,0.51131
6154.29,0.52146
6148.51,0.52914
6142.72,0.53486
6136.94,0.54108
6131.15,0.54451
6125.36,0.54584
6119.58,0.54995
6113.79,0.55170
6108.01,0.55539
6102.22,0.55696
6096.43,0.55793
6090.65,0.55898
6084.86,0.55805
6079.08,0.55919
6073.29,0.55666
6067.5,0.55707
6061.72,0.55690
6055.93,0.55414
6050.15,0.55472
6044.36,0.55379
6038.57,0.55217
6032.79,0.55186
6027,0.54857
6021.22,0.55073
6015.43,0.54792
6009.65,0.54453
6003.86,0.53951
5998.07,0.54012
5992.29,0.53724
5986.5,0.52961
5980.72,0.52785
5974.93,0.52024
5969.14,0.51701
5963.36,0.50957
5957.57,0.50305
5951.79,0.49708
5946,0.48729
5940.21,0.47466
5934.43,0.45839
5928.64,0.44230
5922.86,0.42165
5917.07,0.39942
5911.28,0.37357
5905.5,0.34613
5899.71,0.31969
5893.93,0.28824
5888.14,0.25646
5882.35,0.22827
5876.57,0.20557
5870.78,0.18267
5865,0.16229
5859.21,0.14145
5853.43,0.12375
5847.64,0.10651
5841.85,0.09268
5836.07,0.08512
5830.28,0.08279
5824.5,0.08473
5818.71,0.08924
5812.92,0.09860
5807.14,0.10595
5801.35,0.11636
5795.57,0.12183
5789.78,0.13156
5783.99,0.14220
5778.21,0.15481
5772.42,0.16141
5766.64,0.16563
5760.85,0.16756
5755.06,0.16404
5749.28,0.15916
5743.49,0.15234
5737.71,0.14517
5731.92,0.13424
5726.14,0.12673
5720.35,0.11972
5714.56,0.11615
5708.78,0.11702
5702.99,0.11942
5697.21,0.12361
5691.42,0.12688
5685.63,0.13576
5679.85,0.14779
5674.06,0.16032
5668.28,0.17077
5662.49,0.18384
5656.7,0.19649
5650.92,0.20786
5645.13,0.21822
5639.35,0.22932
5633.56,0.24108
5627.77,0.25186
5621.99,0.25560
5616.2,0.26076
5610.42,0.26577
5604.63,0.26697
5598.84,0.26968
5593.06,0.27379
5587.27,0.27574
5581.49,0.27752
5575.7,0.28153
5569.92,0.28487
5564.13,0.28818
5558.34,0.29017
5552.56,0.29377
5546.77,0.29717
5540.99,0.29866
5535.2,0.29984
5529.41,0.30404
5523.63,0.30740
5517.84,0.30827
5512.06,0.31352
5506.27,0.31611
5500.48,0.31732
5494.7,0.31892
5488.91,0.32278
5483.13,0.32896
5477.34,0.33118
5471.55,0.33443
5465.77,0.33590
5459.98,0.33823
5454.2,0.34221
5448.41,0.34125
5442.62,0.34292
5436.84,0.34526
5431.05,0.34590
5425.27,0.35103
5419.48,0.35422
5413.7,0.35040
5407.91,0.35549
5402.12,0.36368
5396.34,0.36970
5390.55,0.37704
5384.77,0.38204
5378.98,0.38889
5373.19,0.39264
5367.41,0.39816
5361.62,0.40078
5355.84,0.40168
5350.05,0.40264
5344.26,0.40140
5338.48,0.40028
5332.69,0.40315
5326.91,0.40001
5321.12,0.40034
5315.33,0.39434
5309.55,0.38713
5303.76,0.37568
5297.98,0.36239
5292.19,0.34778
5286.4,0.33655
5280.62,0.32977
5274.83,0.32427
5269.05,0.31639
5263.26,0.30654
5257.48,0.30032
5251.69,0.29287
5245.9,0.28243
5240.12,0.27690
5234.33,0.26729
5228.55,0.25609
5222.76,0.24609
5216.97,0.23744
5211.19,0.22726
5205.4,0.21476
5199.62,0.20614
5193.83,0.19385
5188.04,0.18467
5182.26,0.17536
5176.47,0.16729
5170.69,0.16141
5164.9,0.15480
5159.11,0.14869
5153.33,0.14296
5147.54,0.13919
5141.76,0.13527
5135.97,0.13421
5130.18,0.13421
5124.4,0.13417
5118.61,0.13494
5112.83,0.13755
5107.04,0.14147
5101.26,0.14470
5095.47,0.14956
5089.68,0.15456
5083.9,0.15897
5078.11,0.16319
5072.33,0.16817
5066.54,0.17261
5060.75,0.17650
5054.97,0.18155
5049.18,0.18523
5043.4,0.18883
5037.61,0.19191
5031.82,0.19418
5026.04,0.19470
5020.25,0.19315
5014.47,0.19042
5008.68,0.18505
5002.89,0.17659
4997.11,0.16422
4991.32,0.14549
4985.54,0.12619
4979.75,0.10497
4973.97,0.08994
4968.18,0.08117
4962.39,0.08089
4956.61,0.08339
4950.82,0.08565
4945.04,0.08568
4939.25,0.08573
4933.46,0.08393
4927.68,0.08264
4921.89,0.07870
4916.11,0.06898
4910.32,0.05817
4904.53,0.04591
4898.75,0.03364
4892.96,0.02382
4887.18,0.01808
4881.39,0.01392
4875.6,0.01099
4869.82,0.00916
4864.03,0.01151
4858.25,0.02008
4852.46,0.03312
4846.67,0.04933
4840.89,0.06897
4835.1,0.09177
4829.32,0.11150
4823.53,0.12635
4817.75,0.13765
4811.96,0.14371
4806.17,0.14362
4800.39,0.13896
4794.6,0.13515
4788.82,0.13450
4783.03,0.13335
4777.24,0.13280
4771.46,0.13048
4765.67,0.12603
4759.89,0.12230
4754.1,0.11612
4748.31,0.11031
4742.53,0.10350
4736.74,0.09673
4730.96,0.08988
4725.17,0.08303
4719.38,0.07236
4713.6,0.06398
4707.81,0.05457
4702.03,0.04818
4696.24,0.04342
4690.45,0.04080
4684.67,0.04027
4678.88,0.03901
4673.1,0.03902
4667.31,0.03858
4661.53,0.03872
4655.74,0.03785
4649.95,0.03622
4644.17,0.03465
4638.38,0.03145
4632.6,0.02805
4626.81,0.02588
4621.02,0.02314
4615.24,0.01978
4609.45,0.01675
4603.67,0.01382
4597.88,0.01119
4592.09,0.00882
4586.31,0.00750
4580.52,0.00698
4574.74,0.00810
4568.95,0.00884
4563.16,0.01097
4557.38,0.01159
4551.59,0.01160
4545.81,0.01181
4540.02,0.01273
4534.23,0.01331
4528.45,0.01469
4522.66,0.01594
4516.88,0.01952
4511.09,0.02209
4505.31,0.02486
4499.52,0.02726
4493.73,0.02810
4487.95,0.02909
4482.16,0.02970
4476.38,0.02863
4470.59,0.02827
4464.8,0.02709
4459.02,0.02478
4453.23,0.02142
4447.45,0.01832
4441.66,0.01534
4435.87,0.01380
4430.09,0.01099
4424.3,0.00903
4418.52,0.00648
4412.73,0.00452
4406.94,0.00419
4401.16,0.00177
4395.37,0.00072
4389.59,0.00070
4383.8,0.00060
4378.01,0.00018
4372.23,0.00076
4366.44,0.00116
4360.66,0.00077
4354.87,0.00055
4349.09,0.00025
4343.3,0.00049
4337.51,0.00030
4331.73,0.00037
4325.94,0.00108
4320.16,0.00050
4314.37,0.00051
4308.58,0.00057
4302.8,0.00083
4297.01,0.00072
4291.23,0.00071
4285.44,-0.00001
4279.65,0.00075
4273.87,0.00042
4268.08,0.00022
4262.3,0.00075
4256.51,0.00056
4250.72,0.00046
4244.94,0.00019
4239.15,0.00078
4233.37,0.00044
4227.58,0.00032
4221.8,0.00029
4216.01,0.00079
4210.22,0.00013
4204.44,0.00041
4198.65,0.00027
4192.87,0.00021
4187.08,0.00077
4181.29,0.00070
4175.51,0.00046
4169.72,0.00051
4163.94,0.00045
4158.15,0.00048
4152.36,0.00112
4146.58,0.00071
4140.79,0.00052
4135.01,0.00067
4129.22,0.00114
4123.43,0.00125
4117.65,0.00075
4111.86,0.00100
4106.08,0.00133
4100.29,0.00057
4094.5,0.00093
4088.72,0.00102
4082.93,0.00048
4077.15,0.00091
4071.36,0.00114
4065.58,0.00124
4059.79,0.00037
4054,0.00029
4048.22,0.00056
4042.43,0.00033
4036.65,0.00016
4030.86,0.00011
4025.07,0.00075
4019.29,0.00035
4013.5,0.00029
4007.72,-0.00001
4001.93,0.00057
3996.14,0.00010
3990.36,0.00055
3984.57,0.00075
3978.79,0.00112
3973,0.00107
3967.21,0.00187
3961.43,0.00242
3955.64,0.00401
3949.86,0.00420
3944.07,0.00554
3938.28,0.00599
3932.5,0.00652
3926.71,0.00740
3920.93,0.00746
3915.14,0.00914
3909.36,0.01156
3903.57,0.01291
3897.78,0.01483
3892,0.01647
3886.21,0.01584
3880.43,0.01744
3874.64,0.02090
3868.85,0.02171
3863.07,0.02165
3857.28,0.01980
3851.5,0.01656
3845.71,0.01468
3839.92,0.01368
3834.14,0.01602
3828.35,0.01753
3822.57,0.01694
3816.78,0.01678
3810.99,0.01888
3805.21,0.02042
3799.42,0.02151
3793.64,0.02196
3787.85,0.02237
3782.06,0.02413
3776.28,0.02630
3770.49,0.02674
3764.71,0.02682
3758.92,0.02575
3753.14,0.02479
3747.35,0.02282
3741.56,0.02153
3735.78,0.02006
3729.99,0.01997
3724.21,0.01923
3718.42,0.01828
3712.63,0.01618
3706.85,0.01439
3701.06,0.01185
3695.28,0.00848
3689.49,0.00481
3683.7,0.00188
3677.92,0.00026
3672.13,0.00056
3666.35,0.00045
3660.56,0.00047
3654.77,0.00060
3648.99,0.00061
3643.2,0.00027
3637.42,0.00028
3631.63,0.00035
3625.85,0.00012
3620.06,0.00030
3614.27,0.00023
3608.49,0.00030
3602.7,0.00054
3596.92,0.00034
3591.13,0.00027
3585.34,0.00071
3579.56,0.00022
3573.77,0.00032
3567.99,0.00017
3562.2,0.00031
3556.41,0.00091
3550.63,0.00039
3544.84,0.00011
3539.06,0.00058
3533.27,0.00044
3527.48,0.00037
3521.7,0.00022
3515.91,0.00053
3510.13,0.00054
3504.34,0.00028
3498.55,0.00045
3492.77,0.00033
3486.98,0.00039
3481.2,0.00072
3475.41,0.00052
3469.63,0.00039
3463.84,0.00066
3458.05,0.00033
3452.27,-0.00014
3446.48,0.00048
3440.7,0.00090
3434.91,0.00020
3429.12,0.00057
3423.34,0.00036
3417.55,0.00062
3411.77,0.00032
3405.98,0.00025
3400.19,0.00072
3394.41,0.00026
3388.62,0.00088
3382.84,0.00047
3377.05,0.00062
3371.26,0.00060
3365.48,0.00029
3359.69,0.00072
3353.91,0.00042
3348.12,0.00075
3342.33,0.00010
3336.55,0.00076
3330.76,0.00049
3324.98,0.00022
3319.19,0.00039
3313.41,0.00039
3307.62,0.00021
3301.83,0.00052
3296.05,0.00024
3290.26,0.00057
3284.48,0.00026
3278.69,0.00072
3272.9,0.00031
3267.12,0.00035
3261.33,0.00055
3255.55,0.00011
3249.76,0.00045
3243.97,0.00035
3238.19,0.00040
3232.4,0.00058
3226.62,0.00043
3220.83,0.00043
3215.04,0.00020
3209.26,0.00036
3203.47,0.00085
3197.69,0.00044
3191.9,0.00030
3186.11,0.00060
3180.33,0.00037
3174.54,0.00029
3168.76,0.00060
3162.97,0.00056
3157.19,0.00068
3151.4,0.00042
3145.61,0.00043
3139.83,0.00031
3134.04,0.00015
3128.26,0.00067
3122.47,0.00035
3116.68,0.00056
3110.9,0.00048
3105.11,0.00040
3099.33,0.00049
3093.54,0.00080
3087.75,0.00033
3081.97,0.00055
3076.18,0.00010
3070.4,0.00026
3064.61,0.00039
3058.82,0.00027
3053.04,0.00032
3047.25,0.00026
3041.47,0.00034
3035.68,0.00011
3029.89,0.00053
3024.11,0.00069
3018.32,0.00012
3012.54,0.00042
3006.75,0.00031
3000.97,0.00031
2995.18,0.00012
2989.39,0.00036
2983.61,0.00015
2977.82,0.00025
2972.04,0.00016
2966.25,0.00047
2960.46,0.00004
2954.68,0.00047
2948.89,0.00062
2943.11,0.00015
2937.32,0.00051
2931.53,0.00053
2925.75,0.00048
2919.96,0.00018
2914.18,0.00027
2908.39,0.00027
2902.6,0.00026
2896.82,0.00010
2891.03,0.00031
2885.25,0.00036
2879.46,0.00035
2873.68,0.00059
2867.89,0.00040
2862.1,0.00035
2856.32,0.00025
2850.53,0.00021
2844.75,0.00034
2838.96,0.00034
2833.17,0.00051
2827.39,0.00028
2821.6,0.00013
2815.82,0.00052
2810.03,0.00055
2804.24,0.00036
2798.46,0.00030
2792.67,0.00024
2786.89,0.00035
2781.1,0.00030
2775.31,0.00025
2769.53,0.00053
2763.74,0.00034
2757.96,0.00043
2752.17,0.00000
2746.38,0.00016
2740.6,0.00034
2734.81,0.00025
2729.03,0.00013
2723.24,0.00014
2717.46,0.00040
2711.67,0.00019
2705.88,0.00028
2700.1,0.00028
2694.31,0.00038
2688.53,0.00033
2682.74,0.00017
2676.95,0.00023
2671.17,0.00028
2665.38,0.00012
2659.6,0.00029
2653.81,0.00038
2648.02,0.00003
2642.24,0.00028
2636.45,0.00034
2630.67,0.00031
2624.88,0.00030
2619.09,0.00044
2613.31,0.00019
2607.52,0.00018
2601.74,0.00029
2595.95,0.00021
2590.16,0.00043
2584.38,0.00046
2578.59,0.00033
2572.81,0.00030
2567.02,0.00017
2561.24,0.00039
2555.45,0.00025
2549.66,0.00012
2543.88,0.00021
2538.09,0.00025
2532.31,0.00019
2526.52,0.00038
2520.73,0.00027
2514.95,0.00022
2509.16,0.00038
2503.38,0.00036
2497.59,0.00030
2491.8,0.00011
2486.02,0.00032
2480.23,0.00017
2474.45,0.00025
2468.66,0.00021
2462.87,0.00023
2457.09,0.00028
2451.3,0.00040
2445.52,0.00040
2439.73,0.00046
2433.94,0.00047
2428.16,0.00031
2422.37,0.00036
2416.59,0.00041
2410.8,0.00046
2405.02,0.00035
2399.23,0.00061
2393.44,0.00052
2387.66,0.00066
2381.87,0.00031
2376.09,0.00055
2370.3,0.00019
2364.51,0.00044
2358.73,0.00066
2352.94,0.00051
2347.16,0.00038
2341.37,0.00031
2335.58,0.00032
2329.8,0.00038
2324.01,-0.00004
2318.23,0.00030
2312.44,0.00028
2306.65,0.00054
2300.87,0.00061
2295.08,0.00033
2289.3,0.00079
2283.51,0.00063
2277.72,0.00073
2271.94,0.00065
2266.15,0.00050
2260.37,0.00049
2254.58,0.00041
2248.8,0.00034
2243.01,0.00052
2237.22,0.00040
2231.44,0.00050
2225.65,0.00037
2219.87,0.00033
2214.08,0.00034
2208.29,0.00011
2202.51,0.00043
2196.72,0.00032
2190.94,0.00025
2185.15,0.00025
2179.36,0.00022
2173.58,0.00002
2167.79,0.00031
2162.01,0.00035
2156.22,0.00019
2150.43,0.00015
2144.65,0.00013
2138.86,0.00019
2133.08,0.00019
2127.29,0.00012
2121.51,0.00035
2115.72,0.00036
2109.93,0.00043
2104.15,0.00033
2098.36,0.00031
2092.58,0.00069
2086.79,0.00032
2081,0.00040
2075.22,0.00033
2069.43,0.00048
2063.65,0.00046
2057.86,0.00020
2052.07,0.00054
2046.29,0.00041
2040.5,0.00066
2034.72,0.00038
2028.93,0.00062
2023.14,0.00077
2017.36,0.00105
2011.57,0.00105
2005.79,0.00114
2000,0.00104
1994.21,0.00128
1988.43,0.00143
1982.64,0.00159
1976.86,0.00125
1971.07,0.00128
1965.29,0.00147
1959.5,0.00160
1953.71,0.00185
1947.93,0.00213
1942.14,0.00247
1936.36,0.00243
1930.57,0.00207
1924.78,0.00204
1919,0.00178
1913.21,0.00204
1907.43,0.00140
1901.64,0.00144
1895.85,0.00097
1890.07,0.00095
1884.28,0.00083
1878.5,0.00061
1872.71,0.00038
1866.92,0.00074
1861.14,0.00082
1855.35,0.00053
1849.57,0.00068
1843.78,0.00054
1837.99,0.00037
1832.21,0.00034
1826.42,0.00024
1820.64,0.00011
1814.85,0.00007
1809.07,0.00047
1803.28,0.00029
1797.49,0.00026
1791.71,0.00018
1785.92,0.00037
1780.14,0.00015
1774.35,0.00044
1768.56,0.00010
1762.78,0.00026
1756.99,0.00010
1751.21,0.00014
1745.42,0.00049
1739.63,0.00025
1733.85,0.00028
1728.06,0.00031
1722.28,0.00020
1716.49,0.00010
1710.7,0.00024
1704.92,0.00043
1699.13,0.00042
1693.35,0.00024
1687.56,-0.00008
1681.77,0.00018
1675.99,0.00011
1670.2,0.00036
1664.42,0.00026
1658.63,0.00025
1652.85,0.00021
1647.06,0.00031
1641.27,0.00041
1635.49,0.00033
1629.7,0.00033
1623.92,0.00030
1618.13,0.00030
1612.34,0.00011
1606.56,0.00011
1600.77,0.00030
1594.99,0.00030
1589.2,0.00017
1583.41,0.00020
1577.63,0.00025
1571.84,0.00047
1566.06,0.00019
1560.27,0.00024
1554.48,0.00036
1548.7,0.00040
1542.91,0.00062
1537.13,0.00028
1531.34,0.00025
1525.56,0.00027
1519.77,0.00028
1513.98,0.00041
1508.2,0.00037
1502.41,0.00006
1496.63,0.00037
1490.84,0.00031
1485.05,0.00022
1479.27,0.00037
1473.48,0.00038
1467.7,-0.00003
1461.91,0.00042
1456.12,0.00017
1450.34,0.00023
1444.55,0.00032
1438.77,0.00020
1432.98,0.00042
1427.19,0.00006
1421.41,0.00018
1415.62,0.00017
1409.84,0.00043
1404.05,0.00024
1398.26,0.00012
1392.48,0.00039
1386.69,0.00027
1380.91,0.00021
1375.12,0.00040
1369.34,0.00023
1363.55,0.00015
1357.76,0.00022
1351.98,0.00024
1346.19,0.00034
1340.41,-0.00007
1334.62,0.00032
1328.83,0.00012
1323.05,0.00041
1317.26,0.00026
1311.48,0.00012
1305.69,0.00031
1299.9,0.00008
1294.12,0.00030
1288.33,0.00026
1282.55,0.00033
1276.76,0.00024
1270.97,0.00041
1265.19,0.00031
1259.4,0.00026
1253.62,0.00039
1247.83,0.00020
1242.04,0.00013
1236.26,0.00042
1230.47,0.00047
1224.69,-0.00002
1218.9,0.00047
1213.12,0.00024
1207.33,0.00013
1201.54,0.00036
1195.76,0.00032
1189.97,0.00034
1184.19,0.00049
1178.4,0.00065
1172.61,0.00040
1166.83,0.00009
1161.04,0.00055
1155.26,0.00037
1149.47,0.00055
1143.68,0.00070
1137.9,0.00051
1132.11,0.00018
1126.33,0.00054
1120.54,0.00019
1114.75,0.00033
1108.97,0.00046
1103.18,0.00082
1097.4,0.00054
1091.61,0.00060
1085.82,0.00038
1080.04,0.00043
1074.25,0.00023
1068.47,0.00077
1062.68,0.00031
1056.9,0.00054
1051.11,0.00063
1045.32,-0.00014
1039.54,0.00058
1033.75,-0.00014
1027.97,0.00106
1022.18,0.00022
1016.39,0.00033
1010.61,0.00028
1004.82,0.00029
999.036,0.00076
993.25,0.00076
987.464,0.00035
981.678,0.00027
975.892,0.00039
970.106,0.00046
964.32,0.00035
958.535,0.00028
952.749,0.00097
946.963,0.00087
941.177,0.00043
935.391,0.00071
929.605,0.00048
923.819,0.00020
918.033,0.00031
912.247,0.00042
906.461,0.00032
900.675,0.00010
894.889,0.00057
889.103,0.00091
883.318,0.00039
877.532,0.00019
871.746,0.00050
865.96,0.00050
860.174,0.00081
854.388,0.00023
848.602,0.00061
842.816,0.00045
837.03,0.00031
831.244,0.00023
825.458,0.00056
819.672,0.00053
813.886,0.00076
808.101,0.00060
802.315,0.00074
796.529,0.00004
790.743,0.00068
784.957,0.00034
779.171,0.00077
773.385,0.00009
767.599,0.00050
761.813,0.00035
756.027,0.00080
750.241,0.00033
744.455,0.00097
738.669,0.00081
732.884,0.00035
727.098,0.00075
721.312,0.00066
715.526,0.00041
709.74,0.00056
703.954,0.00012
698.168,0.00062
692.382,0.00111
686.596,0.00154
680.81,-0.00012
675.024,0.00166
669.238,0.00096
663.452,0.00194
657.667,0.00045
651.881,0.00053
646.095,0.00116
640.309,0.00197
634.523,0.00107
628.737,0.00128
622.951,0.00169
617.165,0.00117
611.379,0.00384
605.593,0.00272
599.807,0.00155