File: 01_Data/Nylon/FTIR/IS/Nylon_3.175_T_IS_221212_R4.dpt
7497.02,0.03483
7491.23,0.02666
7485.45,0.01572
7479.66,0.01517
7473.87,0.02190
7468.09,0.02717
7462.3,0.02484
7456.51,0.02355
7450.73,0.03885
7444.94,0.02992
7439.16,0.02305
7433.37,0.01961
7427.58,0.03136
7421.8,0.03287
7416.01,0.02299
7410.22,0.02744
7404.44,0.02777
7398.65,0.01877
7392.87,0.03171
7387.08,0.02598
7381.29,0.02298
7375.51,0.02721
7369.72,0.02571
7363.93,0.03323
7358.15,0.02351
7352.36,0.02352
7346.58,0.02795
7340.79,0.02004
7335,0.03061
7329.22,0.02797
7323.43,0.02340
7317.65,0.02426
7311.86,0.01883
7306.07,0.02023
7300.29,0.02794
7294.5,0.02223
7288.71,0.01721
7282.93,0.02872
7277.14,0.02869
7271.36,0.03086
7265.57,0.01832
7259.78,0.02090
7254,0.02364
7248.21,0.02559
7242.42,0.03008
7236.64,0.02725
7230.85,0.03432
7225.07,0.02018
7219.28,0.03024
7213.49,0.02511
7207.71,0.02329
7201.92,0.01866
7196.13,0.01833
7190.35,0.02320
7184.56,0.02908
7178.78,0.02136
7172.99,0.02425
7167.2,0.02297
7161.42,0.02440
7155.63,0.02693
7149.84,0.02357
7144.06,0.02350
7138.27,0.02605
7132.49,0.02169
7126.7,0.01791
7120.91,0.02451
7115.13,0.02000
7109.34,0.02643
7103.55,0.02619
7097.77,0.02104
7091.98,0.01878
7086.2,0.02450
7080.41,0.01980
7074.62,0.01876
7068.84,0.01702
7063.05,0.02603
7057.26,0.02584
7051.48,0.02788
7045.69,0.02571
7039.91,0.02059
7034.12,0.01856
7028.33,0.02504
7022.55,0.03103
7016.76,0.03119
7010.98,0.01984
7005.19,0.02324
6999.4,0.02461
6993.62,0.02425
6987.83,0.02247
6982.04,0.02346
6976.26,0.02369
6970.47,0.02540
6964.69,0.02554
6958.9,0.02553
6953.11,0.02059
6947.33,0.02097
6941.54,0.01563
6935.75,0.02574
6929.97,0.01743
6924.18,0.01907
6918.4,0.02360
6912.61,0.02024
6906.82,0.02672
6901.04,0.02760
6895.25,0.02750
6889.46,0.02485
6883.68,0.01976
6877.89,0.02555
6872.11,0.02644
6866.32,0.02760
6860.53,0.02412
6854.75,0.01945
6848.96,0.02041
6843.17,0.02265
6837.39,0.02711
6831.6,0.02918
6825.82,0.02267
6820.03,0.02250
6814.24,0.02222
6808.46,0.02119
6802.67,0.02325
6796.88,0.02435
6791.1,0.01973
6785.31,0.02267
6779.53,0.02261
6773.74,0.02477
6767.95,0.02152
6762.17,0.02421
6756.38,0.02401
6750.6,0.01967
6744.81,0.02339
6739.02,0.02522
6733.24,0.02287
6727.45,0.02531
6721.66,0.02303
6715.88,0.02122
6710.09,0.02265
6704.31,0.02008
6698.52,0.02605
6692.73,0.02819
6686.95,0.02373
6681.16,0.02093
6675.37,0.02423
6669.59,0.02647
6663.8,0.02242
6658.02,0.02402
6652.23,0.02214
6646.44,0.02259
6640.66,0.02584
6634.87,0.02171
6629.08,0.02285
6623.3,0.02448
6617.51,0.01663
6611.73,0.02308
6605.94,0.02749
6600.15,0.02618
6594.37,0.02413
6588.58,0.02383
6582.79,0.02784
6577.01,0.02147
6571.22,0.01924
6565.44,0.02112
6559.65,0.02378
6553.86,0.02628
6548.08,0.02130
6542.29,0.02162
6536.5,0.02097
6530.72,0.02134
6524.93,0.01822
6519.15,0.02233
6513.36,0.02304
6507.57,0.02117
6501.79,0.02363
6496,0.02180
6490.21,0.02370
6484.43,0.02261
6478.64,0.01976
6472.86,0.02048
6467.07,0.02449
6461.28,0.02752
6455.5,0.02608
6449.71,0.02199
6443.93,0.02632
6438.14,0.02606
6432.35,0.02407
6426.57,0.02474
6420.78,0.02170
6414.99,0.02511
6409.21,0.03055
6403.42,0.02734
6397.64,0.02394
6391.85,0.02682
6386.06,0.02213
6380.28,0.02653
6374.49,0.02358
6368.7,0.02043
6362.92,0.01776
6357.13,0.02320
6351.35,0.02295
6345.56,0.02212
6339.77,0.02260
6333.99,0.02156
6328.2,0.02362
6322.41,0.02317
6316.63,0.02521
6310.84,0.02280
6305.06,0.02572
6299.27,0.02567
6293.48,0.02191
6287.7,0.02377
6281.91,0.02332
6276.12,0.02367
6270.34,0.02501
6264.55,0.02355
6258.77,0.02295
6252.98,0.02336
6247.19,0.02317
6241.41,0.02151
6235.62,0.02271
6229.83,0.02145
6224.05,0.02450
6218.26,0.02612
6212.48,0.02513
6206.69,0.02436
6200.9,0.02710
6195.12,0.02326
6189.33,0.02285
6183.55,0.02514
6177.76,0.02447
6171.97,0.02201
6166.19,0.02410
6160.4,0.02374
6154.61,0.02475
6148.83,0.02229
6143.04,0.02473
6137.26,0.02457
6131.47,0.02533
6125.68,0.02233
6119.9,0.02223
6114.11,0.02166
6108.32,0.02265
6102.54,0.02583
6096.75,0.02473
6090.97,0.02419
6085.18,0.02268
6079.39,0.01960
6073.61,0.02325
6067.82,0.02422
6062.03,0.02287
6056.25,0.02416
6050.46,0.01797
6044.68,0.02351
6038.89,0.02334
6033.1,0.02438
6027.32,0.01882
6021.53,0.02068
6015.74,0.02354
6009.96,0.02457
6004.17,0.02331
5998.39,0.02552
5992.6,0.02309
5986.81,0.02253
5981.03,0.02033
5975.24,0.02194
5969.45,0.02614
5963.67,0.02151
5957.88,0.02196
5952.1,0.02263
5946.31,0.02163
5940.52,0.02543
5934.74,0.02227
5928.95,0.02166
5923.16,0.02217
5917.38,0.02333
5911.59,0.02097
5905.81,0.02253
5900.02,0.02097
5894.23,0.02131
5888.45,0.02140
5882.66,0.02424
5876.88,0.02390
5871.09,0.02388
5865.3,0.02200
5859.52,0.02277
5853.73,0.02341
5847.94,0.02098
5842.16,0.02269
5836.37,0.02091
5830.59,0.02369
5824.8,0.02086
5819.01,0.02077
5813.23,0.02253
5807.44,0.02361
5801.65,0.02182
5795.87,0.02331
5790.08,0.02361
5784.3,0.02155
5778.51,0.02200
5772.72,0.02195
5766.94,0.02200
5761.15,0.02296
5755.36,0.02101
5749.58,0.02136
5743.79,0.02267
5738.01,0.02313
5732.22,0.02350
5726.43,0.02259
5720.65,0.02222
5714.86,0.02200
5709.07,0.02295
5703.29,0.02087
5697.5,0.02188
5691.72,0.02317
5685.93,0.02064
5680.14,0.02350
5674.36,0.02329
5668.57,0.02355
5662.78,0.02341
5657,0.02143
5651.21,0.02193
5645.43,0.02358
5639.64,0.02226
5633.85,0.02165
5628.07,0.02234
5622.28,0.02272
5616.5,0.02242
5610.71,0.02261
5604.92,0.02301
5599.14,0.02442
5593.35,0.02416
5587.56,0.02078
5581.78,0.02100
5575.99,0.02153
5570.21,0.02222
5564.42,0.02114
5558.63,0.02393
5552.85,0.02139
5547.06,0.02026
5541.27,0.02306
5535.49,0.02218
5529.7,0.02429
5523.92,0.02416
5518.13,0.02182
5512.34,0.02159
5506.56,0.02260
5500.77,0.02420
5494.98,0.02504
5489.2,0.02247
5483.41,0.02171
5477.63,0.02165
5471.84,0.02374
5466.05,0.02172
5460.27,0.02296
5454.48,0.02290
5448.69,0.02321
5442.91,0.02247
5437.12,0.02296
5431.34,0.02299
5425.55,0.02351
5419.76,0.02296
5413.98,0.02361
5408.19,0.02317
5402.4,0.02174
5396.62,0.02332
5390.83,0.02256
5385.05,0.02121
5379.26,0.02251
5373.47,0.02434
5367.69,0.02339
5361.9,0.02435
5356.11,0.02415
5350.33,0.02247
5344.54,0.02231
5338.76,0.02206
5332.97,0.02293
5327.18,0.02277
5321.4,0.02227
5315.61,0.02274
5309.83,0.02301
5304.04,0.02295
5298.25,0.02282
5292.47,0.02278
5286.68,0.02335
5280.89,0.02469
5275.11,0.02223
5269.32,0.02335
5263.54,0.02426
5257.75,0.02303
5251.96,0.02302
5246.18,0.02317
5240.39,0.02186
5234.6,0.02427
5228.82,0.02309
5223.03,0.02301
5217.25,0.02319
5211.46,0.02244
5205.67,0.02349
5199.89,0.02230
5194.1,0.02301
5188.31,0.02283
5182.53,0.02203
5176.74,0.02295
5170.96,0.02314
5165.17,0.02210
5159.38,0.02293
5153.6,0.02323
5147.81,0.02395
5142.02,0.02407
5136.24,0.02391
5130.45,0.02422
5124.67,0.02283
5118.88,0.02331
5113.09,0.02225
5107.31,0.02295
5101.52,0.02234
5095.73,0.02426
5089.95,0.02348
5084.16,0.02280
5078.38,0.02340
5072.59,0.02322
5066.8,0.02334
5061.02,0.02341
5055.23,0.02321
5049.45,0.02175
5043.66,0.02329
5037.87,0.02360
5032.09,0.02321
5026.3,0.02327
5020.51,0.02228
5014.73,0.02398
5008.94,0.02408
5003.16,0.02362
4997.37,0.02387
4991.58,0.02297
4985.8,0.02317
4980.01,0.02260
4974.22,0.02305
4968.44,0.02313
4962.65,0.02368
4956.87,0.02325
4951.08,0.02234
4945.29,0.02285
4939.51,0.02372
4933.72,0.02225
4927.93,0.02284
4922.15,0.02269
4916.36,0.02395
4910.58,0.02435
4904.79,0.02415
4899,0.02467
4893.22,0.02349
4887.43,0.02283
4881.64,0.02358
4875.86,0.02362
4870.07,0.02294
4864.29,0.02396
4858.5,0.02237
4852.71,0.02324
4846.93,0.02296
4841.14,0.02328
4835.35,0.02371
4829.57,0.02354
4823.78,0.02457
4818,0.02340
4812.21,0.02361
4806.42,0.02240
4800.64,0.02262
4794.85,0.02353
4789.06,0.02264
4783.28,0.02349
4777.49,0.02455
4771.71,0.02373
4765.92,0.02274
4760.13,0.02406
4754.35,0.02361
4748.56,0.02379
4742.78,0.02311
4736.99,0.02354
4731.2,0.02392
4725.42,0.02265
4719.63,0.02262
4713.84,0.02292
4708.06,0.02410
4702.27,0.02356
4696.49,0.02315
4690.7,0.02288
4684.91,0.02279
4679.13,0.02362
4673.34,0.02333
4667.55,0.02302
4661.77,0.02366
4655.98,0.02414
4650.2,0.02420
4644.41,0.02386
4638.62,0.02380
4632.84,0.02375
4627.05,0.02332
4621.26,0.02344
4615.48,0.02335
4609.69,0.02333
4603.91,0.02396
4598.12,0.02415
4592.33,0.02303
4586.55,0.02238
4580.76,0.02454
4574.97,0.02381
4569.19,0.02289
4563.4,0.02325
4557.62,0.02369
4551.83,0.02278
4546.04,0.02337
4540.26,0.02367
4534.47,0.02356
4528.68,0.02228
4522.9,0.02422
4517.11,0.02312
4511.33,0.02265
4505.54,0.02292
4499.75,0.02289
4493.97,0.02258
4488.18,0.02312
4482.4,0.02451
4476.61,0.02283
4470.82,0.02366
4465.04,0.02411
4459.25,0.02255
4453.46,0.02323
4447.68,0.02296
4441.89,0.02389
4436.11,0.02322
4430.32,0.02327
4424.53,0.02370
4418.75,0.02357
4412.96,0.02350
4407.17,0.02349
4401.39,0.02329
4395.6,0.02316
4389.82,0.02261
4384.03,0.02372
4378.24,0.02360
4372.46,0.02302
4366.67,0.02340
4360.88,0.02331
4355.1,0.02324
4349.31,0.02398
4343.53,0.02303
4337.74,0.02320
4331.95,0.02270
4326.17,0.02269
4320.38,0.02339
4314.59,0.02314
4308.81,0.02285
4303.02,0.02280
4297.24,0.02371
4291.45,0.02426
4285.66,0.02372
4279.88,0.02356
4274.09,0.02405
4268.3,0.02381
4262.52,0.02350
4256.73,0.02380
4250.95,0.02331
4245.16,0.02375
4239.37,0.02419
4233.59,0.02370
4227.8,0.02272
4222.02,0.02387
4216.23,0.02404
4210.44,0.02380
4204.66,0.02289
4198.87,0.02349
4193.08,0.02411
4187.3,0.02367
4181.51,0.02366
4175.73,0.02307
4169.94,0.02376
4164.15,0.02324
4158.37,0.02416
4152.58,0.02427
4146.79,0.02408
4141.01,0.02468
4135.22,0.02363
4129.44,0.02287
4123.65,0.02355
4117.86,0.02323
4112.08,0.02305
4106.29,0.02372
4100.5,0.02331
4094.72,0.02364
4088.93,0.02323
4083.15,0.02292
4077.36,0.02343
4071.57,0.02345
4065.79,0.02389
4060,0.02376
4054.21,0.02307
4048.43,0.02264
4042.64,0.02416
4036.86,0.02346
4031.07,0.02331
4025.28,0.02304
4019.5,0.02391
4013.71,0.02359
4007.92,0.02347
4002.14,0.02328
3996.35,0.02320
3990.57,0.02332
3984.78,0.02312
3978.99,0.02386
3973.21,0.02340
3967.42,0.02410
3961.63,0.02412
3955.85,0.02408
3950.06,0.02346
3944.28,0.02309
3938.49,0.02381
3932.7,0.02327
3926.92,0.02299
3921.13,0.02307
3915.35,0.02400
3909.56,0.02357
3903.77,0.02388
3897.99,0.02369
3892.2,0.02341
3886.41,0.02407
3880.63,0.02336
3874.84,0.02355
3869.06,0.02361
3863.27,0.02384
3857.48,0.02412
3851.7,0.02370
3845.91,0.02408
3840.12,0.02426
3834.34,0.02443
3828.55,0.02393
3822.77,0.02417
3816.98,0.02361
3811.19,0.02340
3805.41,0.02440
3799.62,0.02301
3793.83,0.02356
3788.05,0.02344
3782.26,0.02331
3776.48,0.02402
3770.69,0.02350
3764.9,0.02378
3759.12,0.02357
3753.33,0.02328
3747.54,0.02383
3741.76,0.02360
3735.97,0.02426
3730.19,0.02342
3724.4,0.02356
3718.61,0.02359
3712.83,0.02384
3707.04,0.02356
3701.25,0.02393
3695.47,0.02368
3689.68,0.02416
3683.9,0.02350
3678.11,0.02387
3672.32,0.02439
3666.54,0.02295
3660.75,0.02351
3654.97,0.02325
3649.18,0.02329
3643.39,0.02348
3637.61,0.02323
3631.82,0.02328
3626.03,0.02296
3620.25,0.02335
3614.46,0.02317
3608.68,0.02311
3602.89,0.02196
3597.1,0.02232
3591.32,0.02222
3585.53,0.02155
3579.74,0.02267
3573.96,0.02235
3568.17,0.02233
3562.39,0.02234
3556.6,0.02195
3550.81,0.02172
3545.03,0.02273
3539.24,0.02289
3533.45,0.02208
3527.67,0.02212
3521.88,0.02189
3516.1,0.02196
3510.31,0.02219
3504.52,0.02175
3498.74,0.02189
3492.95,0.02131
3487.16,0.02210
3481.38,0.02169
3475.59,0.02136
3469.81,0.02183
3464.02,0.02190
3458.23,0.02243
3452.45,0.02199
3446.66,0.02171
3440.87,0.02205
3435.09,0.02201
3429.3,0.02153
3423.52,0.02125
3417.73,0.02120
3411.94,0.02118
3406.16,0.02117
3400.37,0.02091
3394.58,0.02202
3388.8,0.02174
3383.01,0.02177
3377.23,0.02091
3371.44,0.02157
3365.65,0.02208
3359.87,0.02173
3354.08,0.02152
3348.3,0.02107
3342.51,0.02095
3336.72,0.02005
3330.94,0.02112
3325.15,0.02126
3319.36,0.02110
3313.58,0.02162
3307.79,0.02121
3302.01,0.02108
3296.22,0.02081
3290.43,0.02191
3284.65,0.02100
3278.86,0.02095
3273.07,0.02081
3267.29,0.02177
3261.5,0.02165
3255.72,0.02150
3249.93,0.02219
3244.14,0.02232
3238.36,0.02201
3232.57,0.02124
3226.78,0.02199
3221,0.02168
3215.21,0.02166
3209.43,0.02170
3203.64,0.02126
3197.85,0.02208
3192.07,0.02216
3186.28,0.02161
3180.49,0.02113
3174.71,0.02214
3168.92,0.02215
3163.14,0.02267
3157.35,0.02222
3151.56,0.02186
3145.78,0.02187
3139.99,0.02185
3134.2,0.02163
3128.42,0.02199
3122.63,0.02198
3116.85,0.02284
3111.06,0.02212
3105.27,0.02238
3099.49,0.02213
3093.7,0.02199
3087.92,0.02207
3082.13,0.02103
3076.34,0.02166
3070.56,0.02250
3064.77,0.02203
3058.98,0.02253
3053.2,0.02195
3047.41,0.02209
3041.63,0.02192
3035.84,0.02175
3030.05,0.02194
3024.27,0.02147
3018.48,0.02163
3012.69,0.02159
3006.91,0.02133
3001.12,0.02231
2995.34,0.02172
2989.55,0.02150
2983.76,0.02100
2977.98,0.02117
2972.19,0.02046
2966.4,0.02051
2960.62,0.02083
2954.83,0.02090
2949.05,0.02052
2943.26,0.02113
2937.47,0.02056
2931.69,0.02091
2925.9,0.02102
2920.11,0.02101
2914.33,0.02157
2908.54,0.02198
2902.76,0.02152
2896.97,0.02179
2891.18,0.02176
2885.4,0.02193
2879.61,0.02150
2873.82,0.02160
2868.04,0.02179
2862.25,0.02174
2856.47,0.02219
2850.68,0.02202
2844.89,0.02180
2839.11,0.02241
2833.32,0.02267
2827.53,0.02256
2821.75,0.02261
2815.96,0.02258
2810.18,0.02253
2804.39,0.02257
2798.6,0.02244
2792.82,0.02273
2787.03,0.02262
2781.25,0.02245
2775.46,0.02243
2769.67,0.02264
2763.89,0.02264
2758.1,0.02278
2752.31,0.02238
2746.53,0.02301
2740.74,0.02277
2734.96,0.02305
2729.17,0.02284
2723.38,0.02285
2717.6,0.02283
2711.81,0.02257
2706.02,0.02298
2700.24,0.02294
2694.45,0.02274
2688.67,0.02250
2682.88,0.02279
2677.09,0.02250
2671.31,0.02275
2665.52,0.02258
2659.73,0.02254
2653.95,0.02262
2648.16,0.02295
2642.38,0.02315
2636.59,0.02312
2630.8,0.02257
2625.02,0.02255
2619.23,0.02281
2613.44,0.02240
2607.66,0.02255
2601.87,0.02263
2596.09,0.02278
2590.3,0.02313
2584.51,0.02256
2578.73,0.02295
2572.94,0.02241
2567.15,0.02267
2561.37,0.02265
2555.58,0.02261
2549.8,0.02248
2544.01,0.02264
2538.22,0.02248
2532.44,0.02302
2526.65,0.02280
2520.87,0.02285
2515.08,0.02252
2509.29,0.02257
2503.51,0.02283
2497.72,0.02259
2491.93,0.02297
2486.15,0.02266
2480.36,0.02276
2474.58,0.02254
2468.79,0.02271
2463,0.02245
2457.22,0.02252
2451.43,0.02239
2445.64,0.02279
2439.86,0.02241
2434.07,0.02261
2428.29,0.02280
2422.5,0.02283
2416.71,0.02264
2410.93,0.02259
2405.14,0.02283
2399.35,0.02291
2393.57,0.02281
2387.78,0.02285
2382,0.02252
2376.21,0.02250
2370.42,0.02239
2364.64,0.02321
2358.85,0.02235
2353.06,0.02241
2347.28,0.02246
2341.49,0.02243
2335.71,0.02277
2329.92,0.02282
2324.13,0.02208
2318.35,0.02252
2312.56,0.02291
2306.77,0.02235
2300.99,0.02261
2295.2,0.02274
2289.42,0.02284
2283.63,0.02252
2277.84,0.02270
2272.06,0.02215
2266.27,0.02258
2260.48,0.02286
2254.7,0.02274
2248.91,0.02226
2243.13,0.02227
2237.34,0.02220
2231.55,0.02257
2225.77,0.02265
2219.98,0.02237
2214.2,0.02270
2208.41,0.02287
2202.62,0.02298
2196.84,0.02246
2191.05,0.02267
2185.26,0.02277
2179.48,0.02250
2173.69,0.02232
2167.91,0.02247
2162.12,0.02235
2156.33,0.02252
2150.55,0.02289
2144.76,0.02260
2138.97,0.02242
2133.19,0.02219
2127.4,0.02212
2121.62,0.02226
2115.83,0.02272
2110.04,0.02259
2104.26,0.02217
2098.47,0.02198
2092.68,0.02257
2086.9,0.02227
2081.11,0.02220
2075.33,0.02257
2069.54,0.02271
2063.75,0.02241
2057.97,0.02235
2052.18,0.02238
2046.39,0.02237
2040.61,0.02278
2034.82,0.02248
2029.04,0.02242
2023.25,0.02221
2017.46,0.02251
2011.68,0.02215
2005.89,0.02222
2000.1,0.02239
1994.32,0.02260
1988.53,0.02264
1982.75,0.02215
1976.96,0.02214
1971.17,0.02230
1965.39,0.02238
1959.6,0.02222
1953.82,0.02258
1948.03,0.02247
1942.24,0.02247
1936.46,0.02231
1930.67,0.02236
1924.88,0.02236
1919.1,0.02216
1913.31,0.02240
1907.53,0.02202
1901.74,0.02185
1895.95,0.02204
1890.17,0.02207
1884.38,0.02175
1878.59,0.02227
1872.81,0.02184
1867.02,0.02210
1861.24,0.02187
1855.45,0.02184
1849.66,0.02195
1843.88,0.02206
1838.09,0.02189
1832.3,0.02171
1826.52,0.02172
1820.73,0.02161
1814.95,0.02176
1809.16,0.02165
1803.37,0.02129
1797.59,0.02140
1791.8,0.02060
1786.01,0.02058
1780.23,0.02057
1774.44,0.02041
1768.66,0.02010
1762.87,0.01944
1757.08,0.01925
1751.3,0.01876
1745.51,0.01904
1739.72,0.01980
1733.94,0.02072
1728.15,0.02162
1722.37,0.02179
1716.58,0.02201
1710.79,0.02169
1705.01,0.02176
1699.22,0.02131
1693.43,0.02082
1687.65,0.02027
1681.86,0.02031
1676.08,0.02048
1670.29,0.02055
1664.5,0.01982
1658.72,0.01988
1652.93,0.01966
1647.15,0.02000
1641.36,0.02002
1635.57,0.01950
1629.79,0.01994
1624,0.02008
1618.21,0.02044
1612.43,0.02009
1606.64,0.02037
1600.86,0.02022
1595.07,0.01995
1589.28,0.02002
1583.5,0.01991
1577.71,0.02033
1571.92,0.01961
1566.14,0.01961
1560.35,0.01993
1554.57,0.01947
1548.78,0.01944
1542.99,0.01977
1537.21,0.02021
1531.42,0.01978
1525.63,0.01996
1519.85,0.02008
1514.06,0.01993
1508.28,0.01999
1502.49,0.02029
1496.7,0.02028
1490.92,0.01996
1485.13,0.02028
1479.34,0.01964
1473.56,0.01975
1467.77,0.01978
1461.99,0.01993
1456.2,0.01994
1450.41,0.02037
1444.63,0.01995
1438.84,0.02067
1433.05,0.02008
1427.27,0.01983
1421.48,0.02016
1415.7,0.01964
1409.91,0.01969
1404.12,0.01946
1398.34,0.01954
1392.55,0.01948
1386.77,0.01909
1380.98,0.01945
1375.19,0.01965
1369.41,0.01947
1363.62,0.01997
1357.83,0.01934
1352.05,0.01913
1346.26,0.01928
1340.48,0.01923
1334.69,0.01913
1328.9,0.01876
1323.12,0.01825
1317.33,0.01819
1311.54,0.01791
1305.76,0.01856
1299.97,0.01837
1294.19,0.01911
1288.4,0.01930
1282.61,0.01969
1276.83,0.02041
1271.04,0.02067
1265.25,0.02085
1259.47,0.02118
1253.68,0.02161
1247.9,0.02125
1242.11,0.02138
1236.32,0.02084
1230.54,0.02075
1224.75,0.02087
1218.96,0.02063
1213.18,0.02028
1207.39,0.02013
1201.61,0.01987
1195.82,0.02002
1190.03,0.01975
1184.25,0.01913
1178.46,0.01941
1172.67,0.01919
1166.89,0.01932
1161.1,0.01927
1155.32,0.01900
1149.53,0.01821
1143.74,0.01895
1137.96,0.01875
1132.17,0.01912
1126.38,0.01942
1120.6,0.02026
1114.81,0.02013
1109.03,0.01963
1103.24,0.01934
1097.45,0.01913
1091.67,0.01964
1085.88,0.01946
1080.1,0.01967
1074.31,0.02025
1068.52,0.02166
1062.74,0.02185
1056.95,0.02132
1051.16,0.02075
1045.38,0.02045
1039.59,0.02111
1033.81,0.02126
1028.02,0.02089
1022.23,0.02030
1016.45,0.02095
1010.66,0.02178
1004.87,0.02210
999.088,0.02285
993.302,0.02259
987.516,0.02224
981.729,0.02206
975.943,0.02153
970.157,0.02173
964.371,0.02190
958.585,0.02186
952.798,0.02119
947.012,0.02128
941.226,0.02189
935.44,0.02138
929.653,0.02107
923.867,0.02110
918.081,0.02025
912.295,0.02114
906.508,0.02089
900.722,0.02064
894.936,0.02039
889.15,0.02144
883.364,0.02035
877.577,0.01937
871.791,0.02013
866.005,0.02053
860.219,0.02072
854.432,0.02008
848.646,0.01970
842.86,0.01982
837.074,0.01983
831.288,0.02068
825.501,0.01958
819.715,0.01929
813.929,0.02009
808.143,0.02077
802.356,0.01979
796.57,0.02012
790.784,0.01918
784.998,0.02028
779.212,0.01992
773.425,0.01983
767.639,0.02035
761.853,0.01992
756.067,0.01822
750.28,0.01931
744.494,0.01989
738.708,0.01948
732.922,0.01969
727.136,0.01978
721.349,0.01996
715.563,0.01891
709.777,0.01896
703.991,0.01942
698.204,0.02019
692.418,0.01913
686.632,0.01934
680.846,0.01941
675.059,0.01976
669.273,0.01799
663.487,0.01836
657.701,0.01758
651.915,0.01869
646.128,0.01871
640.342,0.01939
634.556,0.01977
628.77,0.01831
622.983,0.01742
617.197,0.01803
611.411,0.01621
605.625,0.01609
599.839,0.01710