File: 01_Data/Nylon/FTIR/IS/Nylon_2.362_Trans_T_IS_221213_R1.dpt
7496.63,-0.00238
7490.84,0.01721
7485.06,0.00871
7479.27,0.00560
7473.48,0.01217
7467.7,0.01094
7461.91,0.01072
7456.13,0.01348
7450.34,0.00968
7444.55,0.00459
7438.77,0.01553
7432.98,0.00752
7427.2,0.01236
7421.41,0.00793
7415.62,0.01472
7409.84,0.00838
7404.05,0.00894
7398.27,0.00870
7392.48,0.00134
7386.69,0.00693
7380.91,0.00348
7375.12,0.00757
7369.34,0.00754
7363.55,0.01245
7357.77,0.00096
7351.98,0.01902
7346.19,0.01263
7340.41,0.00722
7334.62,0.00748
7328.84,0.01657
7323.05,0.00019
7317.26,0.00670
7311.48,0.01397
7305.69,0.01537
7299.91,0.00306
7294.12,0.01247
7288.33,0.00932
7282.55,0.00925
7276.76,0.00716
7270.98,0.01524
7265.19,0.00967
7259.4,0.00850
7253.62,0.01120
7247.83,0.01221
7242.05,0.00706
7236.26,0.00381
7230.47,0.00306
7224.69,0.00417
7218.9,0.00526
7213.12,0.00522
7207.33,0.00835
7201.55,0.01123
7195.76,0.00904
7189.97,0.00376
7184.19,0.00869
7178.4,0.00307
7172.62,0.00686
7166.83,0.01776
7161.04,0.01387
7155.26,0.01472
7149.47,0.00633
7143.69,0.00422
7137.9,0.00544
7132.11,0.00172
7126.33,0.01160
7120.54,0.01083
7114.76,0.00724
7108.97,0.00359
7103.18,0.00038
7097.4,0.00481
7091.61,0.00945
7085.83,0.00405
7080.04,0.00697
7074.26,0.00767
7068.47,0.00117
7062.68,0.00798
7056.9,0.00513
7051.11,0.01005
7045.33,0.00551
7039.54,0.01409
7033.75,0.00965
7027.97,0.00713
7022.18,0.00287
7016.4,0.00790
7010.61,0.00827
7004.82,0.00417
6999.04,0.01218
6993.25,0.00880
6987.47,0.01142
6981.68,0.00668
6975.89,0.00699
6970.11,0.00303
6964.32,0.00947
6958.54,0.00756
6952.75,0.00758
6946.96,0.00344
6941.18,0.00106
6935.39,0.00812
6929.61,0.01065
6923.82,0.00041
6918.04,0.00271
6912.25,0.00536
6906.46,0.00944
6900.68,0.00587
6894.89,0.00388
6889.11,0.00745
6883.32,0.00917
6877.53,0.00575
6871.75,0.01341
6865.96,0.00734
6860.18,0.00242
6854.39,0.00374
6848.6,0.00199
6842.82,0.00333
6837.03,0.00255
6831.25,0.00620
6825.46,0.00543
6819.67,0.01178
6813.89,0.00317
6808.1,0.01578
6802.32,0.00853
6796.53,-0.00090
6790.74,0.00857
6784.96,0.00531
6779.17,0.00554
6773.39,0.01214
6767.6,0.00543
6761.82,0.00106
6756.03,0.00729
6750.24,0.00709
6744.46,0.00356
6738.67,0.01130
6732.89,0.00579
6727.1,0.01079
6721.31,0.00178
6715.53,0.00578
6709.74,0.00027
6703.96,0.00515
6698.17,0.00618
6692.38,0.00405
6686.6,0.00893
6680.81,0.00699
6675.03,0.00852
6669.24,0.00384
6663.45,0.00163
6657.67,0.00217
6651.88,0.01000
6646.1,0.00670
6640.31,0.01106
6634.52,0.00477
6628.74,0.00530
6622.95,0.00499
6617.17,0.00298
6611.38,0.00392
6605.6,0.00290
6599.81,0.00415
6594.02,0.00486
6588.24,0.00570
6582.45,0.00270
6576.67,0.00421
6570.88,0.00358
6565.09,0.00566
6559.31,0.00779
6553.52,0.00477
6547.74,0.00875
6541.95,0.00212
6536.16,0.00828
6530.38,0.00755
6524.59,0.00135
6518.81,0.00671
6513.02,0.00297
6507.23,0.00592
6501.45,0.00666
6495.66,0.00481
6489.88,0.00754
6484.09,0.00550
6478.3,0.00422
6472.52,0.00114
6466.73,0.00708
6460.95,0.00503
6455.16,0.00542
6449.38,0.00528
6443.59,0.00481
6437.8,0.01026
6432.02,0.00256
6426.23,0.00262
6420.45,0.00221
6414.66,0.00280
6408.87,0.00546
6403.09,0.00170
6397.3,0.00391
6391.52,0.00143
6385.73,0.00244
6379.94,0.00392
6374.16,0.00276
6368.37,0.00424
6362.59,0.00295
6356.8,0.00627
6351.01,0.00307
6345.23,0.00614
6339.44,0.00278
6333.66,0.00332
6327.87,0.00420
6322.09,0.00257
6316.3,0.00227
6310.51,0.00090
6304.73,0.00384
6298.94,0.00235
6293.16,0.00110
6287.37,0.00588
6281.58,0.00472
6275.8,-0.00039
6270.01,0.00658
6264.23,0.00160
6258.44,0.00093
6252.65,0.00152
6246.87,0.00216
6241.08,0.00274
6235.3,0.00305
6229.51,0.00368
6223.72,0.00208
6217.94,0.00673
6212.15,0.00363
6206.37,0.00449
6200.58,0.00654
6194.79,0.00300
6189.01,0.00188
6183.22,0.00353
6177.44,0.00369
6171.65,0.00109
6165.87,0.00272
6160.08,0.00488
6154.29,0.00287
6148.51,0.00209
6142.72,0.00415
6136.94,0.00338
6131.15,0.00134
6125.36,0.00514
6119.58,0.00298
6113.79,0.00487
6108.01,-0.00066
6102.22,0.00243
6096.43,0.00756
6090.65,0.00313
6084.86,0.00421
6079.08,0.00197
6073.29,0.00327
6067.5,0.00344
6061.72,0.00119
6055.93,0.00624
6050.15,-0.00104
6044.36,0.00320
6038.57,0.00511
6032.79,0.00226
6027,0.00275
6021.22,0.00485
6015.43,0.00292
6009.65,0.00402
6003.86,0.00710
5998.07,0.00439
5992.29,0.00234
5986.5,0.00129
5980.72,0.00157
5974.93,0.00224
5969.14,0.00189
5963.36,0.00215
5957.57,0.00270
5951.79,0.00399
5946,0.00329
5940.21,0.00296
5934.43,0.00348
5928.64,0.00269
5922.86,0.00081
5917.07,0.00142
5911.28,0.00228
5905.5,0.00381
5899.71,0.00133
5893.93,0.00388
5888.14,0.00108
5882.35,0.00330
5876.57,0.00113
5870.78,0.00449
5865,0.00323
5859.21,0.00211
5853.43,0.00184
5847.64,0.00479
5841.85,0.00133
5836.07,0.00212
5830.28,0.00342
5824.5,0.00156
5818.71,0.00430
5812.92,0.00312
5807.14,0.00202
5801.35,0.00381
5795.57,0.00545
5789.78,0.00077
5783.99,0.00417
5778.21,0.00281
5772.42,0.00405
5766.64,0.00187
5760.85,0.00175
5755.06,0.00113
5749.28,0.00184
5743.49,0.00184
5737.71,0.00159
5731.92,0.00262
5726.14,0.00305
5720.35,0.00228
5714.56,0.00180
5708.78,0.00447
5702.99,0.00202
5697.21,0.00348
5691.42,0.00200
5685.63,0.00265
5679.85,0.00387
5674.06,0.00339
5668.28,0.00159
5662.49,0.00309
5656.7,0.00221
5650.92,0.00135
5645.13,0.00084
5639.35,0.00132
5633.56,0.00036
5627.77,0.00346
5621.99,0.00037
5616.2,0.00013
5610.42,0.00259
5604.63,0.00326
5598.84,0.00184
5593.06,0.00305
5587.27,0.00354
5581.49,0.00178
5575.7,0.00268
5569.92,0.00224
5564.13,0.00084
5558.34,0.00065
5552.56,0.00106
5546.77,0.00299
5540.99,0.00362
5535.2,0.00251
5529.41,0.00052
5523.63,0.00110
5517.84,0.00239
5512.06,0.00147
5506.27,0.00182
5500.48,0.00162
5494.7,0.00363
5488.91,0.00110
5483.13,0.00078
5477.34,0.00117
5471.55,0.00166
5465.77,0.00087
5459.98,0.00135
5454.2,0.00325
5448.41,0.00171
5442.62,0.00055
5436.84,0.00137
5431.05,0.00243
5425.27,0.00029
5419.48,0.00294
5413.7,0.00230
5407.91,0.00172
5402.12,0.00263
5396.34,0.00162
5390.55,0.00244
5384.77,0.00042
5378.98,0.00179
5373.19,0.00213
5367.41,0.00220
5361.62,0.00080
5355.84,0.00261
5350.05,0.00120
5344.26,0.00034
5338.48,0.00115
5332.69,0.00041
5326.91,0.00263
5321.12,0.00266
5315.33,0.00248
5309.55,0.00130
5303.76,0.00275
5297.98,0.00294
5292.19,0.00148
5286.4,0.00109
5280.62,0.00144
5274.83,0.00275
5269.05,0.00164
5263.26,0.00057
5257.48,0.00145
5251.69,0.00182
5245.9,0.00090
5240.12,0.00273
5234.33,0.00203
5228.55,0.00306
5222.76,0.00299
5216.97,0.00134
5211.19,0.00179
5205.4,0.00205
5199.62,0.00176
5193.83,0.00061
5188.04,0.00187
5182.26,0.00326
5176.47,0.00161
5170.69,0.00199
5164.9,0.00257
5159.11,0.00207
5153.33,0.00196
5147.54,0.00099
5141.76,0.00148
5135.97,0.00097
5130.18,0.00113
5124.4,0.00001
5118.61,0.00113
5112.83,0.00291
5107.04,0.00217
5101.26,0.00297
5095.47,0.00091
5089.68,0.00060
5083.9,0.00302
5078.11,0.00111
5072.33,0.00176
5066.54,0.00289
5060.75,0.00197
5054.97,0.00051
5049.18,0.00254
5043.4,0.00157
5037.61,0.00058
5031.82,0.00059
5026.04,0.00108
5020.25,0.00241
5014.47,0.00213
5008.68,0.00053
5002.89,0.00071
4997.11,0.00179
4991.32,0.00139
4985.54,0.00302
4979.75,0.00095
4973.97,0.00128
4968.18,0.00154
4962.39,0.00320
4956.61,0.00175
4950.82,0.00075
4945.04,0.00211
4939.25,0.00113
4933.46,0.00181
4927.68,0.00154
4921.89,0.00187
4916.11,0.00257
4910.32,0.00270
4904.53,0.00126
4898.75,0.00336
4892.96,0.00110
4887.18,0.00171
4881.39,0.00084
4875.6,0.00091
4869.82,0.00121
4864.03,0.00144
4858.25,0.00143
4852.46,0.00105
4846.67,0.00091
4840.89,0.00104
4835.1,0.00232
4829.32,0.00190
4823.53,0.00146
4817.75,0.00134
4811.96,0.00169
4806.17,0.00265
4800.39,0.00072
4794.6,0.00151
4788.82,0.00100
4783.03,0.00150
4777.24,0.00203
4771.46,0.00211
4765.67,0.00313
4759.89,0.00192
4754.1,0.00103
4748.31,0.00116
4742.53,0.00243
4736.74,0.00125
4730.96,0.00076
4725.17,0.00195
4719.38,0.00138
4713.6,0.00150
4707.81,0.00078
4702.03,0.00104
4696.24,0.00095
4690.45,0.00065
4684.67,0.00126
4678.88,0.00089
4673.1,0.00154
4667.31,0.00053
4661.53,0.00101
4655.74,0.00206
4649.95,0.00080
4644.17,0.00062
4638.38,0.00169
4632.6,0.00121
4626.81,0.00039
4621.02,0.00199
4615.24,0.00164
4609.45,0.00172
4603.67,0.00116
4597.88,0.00101
4592.09,0.00045
4586.31,0.00140
4580.52,0.00266
4574.74,0.00037
4568.95,0.00175
4563.16,0.00111
4557.38,0.00130
4551.59,0.00119
4545.81,0.00037
4540.02,0.00168
4534.23,0.00072
4528.45,0.00163
4522.66,0.00179
4516.88,-0.00009
4511.09,0.00145
4505.31,0.00126
4499.52,0.00155
4493.73,0.00131
4487.95,0.00136
4482.16,0.00104
4476.38,0.00164
4470.59,0.00210
4464.8,0.00103
4459.02,0.00214
4453.23,0.00070
4447.45,0.00118
4441.66,0.00138
4435.87,0.00102
4430.09,0.00153
4424.3,0.00096
4418.52,0.00165
4412.73,0.00119
4406.94,0.00181
4401.16,0.00126
4395.37,0.00136
4389.59,0.00123
4383.8,0.00168
4378.01,0.00161
4372.23,0.00133
4366.44,0.00074
4360.66,0.00113
4354.87,0.00126
4349.09,0.00098
4343.3,0.00244
4337.51,0.00073
4331.73,0.00050
4325.94,0.00036
4320.16,0.00110
4314.37,0.00094
4308.58,0.00130
4302.8,0.00148
4297.01,0.00099
4291.23,0.00137
4285.44,0.00108
4279.65,0.00150
4273.87,0.00135
4268.08,0.00199
4262.3,0.00091
4256.51,0.00148
4250.72,0.00163
4244.94,0.00176
4239.15,0.00200
4233.37,0.00132
4227.58,0.00185
4221.8,0.00147
4216.01,0.00102
4210.22,0.00157
4204.44,0.00081
4198.65,0.00159
4192.87,0.00204
4187.08,0.00171
4181.29,0.00173
4175.51,0.00196
4169.72,0.00215
4163.94,0.00117
4158.15,0.00135
4152.36,0.00106
4146.58,0.00094
4140.79,0.00127
4135.01,0.00173
4129.22,0.00154
4123.43,0.00143
4117.65,0.00114
4111.86,0.00060
4106.08,0.00166
4100.29,0.00099
4094.5,0.00186
4088.72,0.00206
4082.93,0.00168
4077.15,0.00143
4071.36,0.00105
4065.58,0.00226
4059.79,0.00125
4054,0.00098
4048.22,0.00169
4042.43,0.00037
4036.65,0.00137
4030.86,0.00147
4025.07,0.00195
4019.29,0.00171
4013.5,0.00100
4007.72,0.00107
4001.93,0.00149
3996.14,0.00105
3990.36,0.00157
3984.57,0.00165
3978.79,0.00068
3973,0.00093
3967.21,0.00119
3961.43,0.00122
3955.64,0.00175
3949.86,0.00137
3944.07,0.00199
3938.28,0.00131
3932.5,0.00180
3926.71,0.00097
3920.93,0.00196
3915.14,0.00129
3909.36,0.00111
3903.57,0.00137
3897.78,0.00110
3892,0.00165
3886.21,0.00140
3880.43,0.00092
3874.64,0.00157
3868.85,0.00138
3863.07,0.00146
3857.28,0.00125
3851.5,0.00202
3845.71,0.00144
3839.92,0.00122
3834.14,0.00169
3828.35,0.00223
3822.57,0.00129
3816.78,0.00176
3810.99,0.00197
3805.21,0.00094
3799.42,0.00195
3793.64,0.00111
3787.85,0.00139
3782.06,0.00139
3776.28,0.00155
3770.49,0.00121
3764.71,0.00193
3758.92,0.00243
3753.14,0.00144
3747.35,0.00100
3741.56,0.00169
3735.78,0.00143
3729.99,0.00050
3724.21,0.00172
3718.42,0.00181
3712.63,0.00146
3706.85,0.00150
3701.06,0.00168
3695.28,0.00134
3689.49,0.00079
3683.7,0.00137
3677.92,0.00211
3672.13,0.00085
3666.35,0.00117
3660.56,0.00156
3654.77,0.00162
3648.99,0.00105
3643.2,0.00110
3637.42,0.00200
3631.63,0.00090
3625.85,0.00144
3620.06,0.00172
3614.27,0.00178
3608.49,0.00150
3602.7,0.00198
3596.92,0.00205
3591.13,0.00141
3585.34,0.00130
3579.56,0.00189
3573.77,0.00206
3567.99,0.00201
3562.2,0.00169
3556.41,0.00132
3550.63,0.00094
3544.84,0.00120
3539.06,0.00151
3533.27,0.00177
3527.48,0.00169
3521.7,0.00155
3515.91,0.00193
3510.13,0.00177
3504.34,0.00101
3498.55,0.00106
3492.77,0.00177
3486.98,0.00158
3481.2,0.00221
3475.41,0.00104
3469.63,0.00226
3463.84,0.00186
3458.05,0.00126
3452.27,0.00150
3446.48,0.00160
3440.7,0.00105
3434.91,0.00138
3429.12,0.00243
3423.34,0.00188
3417.55,0.00152
3411.77,0.00195
3405.98,0.00167
3400.19,0.00063
3394.41,0.00092
3388.62,0.00136
3382.84,0.00132
3377.05,0.00115
3371.26,0.00158
3365.48,0.00107
3359.69,0.00090
3353.91,0.00109
3348.12,0.00160
3342.33,0.00170
3336.55,0.00190
3330.76,0.00121
3324.98,0.00175
3319.19,0.00132
3313.41,0.00185
3307.62,0.00090
3301.83,0.00084
3296.05,0.00160
3290.26,0.00137
3284.48,0.00169
3278.69,0.00108
3272.9,0.00075
3267.12,0.00105
3261.33,0.00125
3255.55,0.00185
3249.76,0.00161
3243.97,0.00115
3238.19,0.00117
3232.4,0.00094
3226.62,0.00145
3220.83,0.00162
3215.04,0.00228
3209.26,0.00098
3203.47,0.00115
3197.69,0.00032
3191.9,0.00221
3186.11,0.00190
3180.33,0.00103
3174.54,0.00094
3168.76,0.00169
3162.97,0.00104
3157.19,0.00207
3151.4,0.00210
3145.61,0.00140
3139.83,0.00250
3134.04,0.00210
3128.26,0.00178
3122.47,0.00094
3116.68,0.00158
3110.9,0.00192
3105.11,0.00133
3099.33,0.00110
3093.54,0.00212
3087.75,0.00138
3081.97,0.00159
3076.18,0.00156
3070.4,0.00178
3064.61,0.00088
3058.82,0.00103
3053.04,0.00161
3047.25,0.00153
3041.47,0.00139
3035.68,0.00212
3029.89,0.00149
3024.11,0.00138
3018.32,0.00160
3012.54,0.00178
3006.75,0.00185
3000.97,0.00180
2995.18,0.00135
2989.39,0.00114
2983.61,0.00093
2977.82,0.00136
2972.04,0.00144
2966.25,0.00137
2960.46,0.00176
2954.68,0.00087
2948.89,0.00149
2943.11,0.00155
2937.32,0.00168
2931.53,0.00157
2925.75,0.00189
2919.96,0.00142
2914.18,0.00175
2908.39,0.00222
2902.6,0.00160
2896.82,0.00142
2891.03,0.00201
2885.25,0.00142
2879.46,0.00156
2873.68,0.00171
2867.89,0.00128
2862.1,0.00109
2856.32,0.00139
2850.53,0.00133
2844.75,0.00103
2838.96,0.00130
2833.17,0.00180
2827.39,0.00150
2821.6,0.00153
2815.82,0.00142
2810.03,0.00138
2804.24,0.00166
2798.46,0.00152
2792.67,0.00199
2786.89,0.00141
2781.1,0.00163
2775.31,0.00147
2769.53,0.00188
2763.74,0.00177
2757.96,0.00179
2752.17,0.00173
2746.38,0.00142
2740.6,0.00137
2734.81,0.00167
2729.03,0.00195
2723.24,0.00196
2717.46,0.00108
2711.67,0.00126
2705.88,0.00206
2700.1,0.00137
2694.31,0.00198
2688.53,0.00160
2682.74,0.00187
2676.95,0.00157
2671.17,0.00167
2665.38,0.00129
2659.6,0.00200
2653.81,0.00170
2648.02,0.00140
2642.24,0.00140
2636.45,0.00160
2630.67,0.00133
2624.88,0.00131
2619.09,0.00154
2613.31,0.00177
2607.52,0.00176
2601.74,0.00153
2595.95,0.00128
2590.16,0.00178
2584.38,0.00173
2578.59,0.00113
2572.81,0.00128
2567.02,0.00236
2561.24,0.00182
2555.45,0.00175
2549.66,0.00130
2543.88,0.00150
2538.09,0.00182
2532.31,0.00140
2526.52,0.00225
2520.73,0.00149
2514.95,0.00171
2509.16,0.00143
2503.38,0.00157
2497.59,0.00202
2491.8,0.00196
2486.02,0.00207
2480.23,0.00187
2474.45,0.00185
2468.66,0.00187
2462.87,0.00199
2457.09,0.00143
2451.3,0.00177
2445.52,0.00172
2439.73,0.00164
2433.94,0.00200
2428.16,0.00186
2422.37,0.00163
2416.59,0.00172
2410.8,0.00135
2405.02,0.00141
2399.23,0.00194
2393.44,0.00179
2387.66,0.00160
2381.87,0.00174
2376.09,0.00173
2370.3,0.00121
2364.51,0.00086
2358.73,0.00163
2352.94,0.00157
2347.16,0.00149
2341.37,0.00162
2335.58,0.00121
2329.8,0.00095
2324.01,0.00142
2318.23,0.00133
2312.44,0.00164
2306.65,0.00142
2300.87,0.00152
2295.08,0.00141
2289.3,0.00143
2283.51,0.00114
2277.72,0.00181
2271.94,0.00132
2266.15,0.00189
2260.37,0.00167
2254.58,0.00174
2248.8,0.00184
2243.01,0.00198
2237.22,0.00187
2231.44,0.00160
2225.65,0.00179
2219.87,0.00182
2214.08,0.00208
2208.29,0.00195
2202.51,0.00149
2196.72,0.00148
2190.94,0.00175
2185.15,0.00153
2179.36,0.00135
2173.58,0.00138
2167.79,0.00188
2162.01,0.00169
2156.22,0.00177
2150.43,0.00191
2144.65,0.00203
2138.86,0.00196
2133.08,0.00139
2127.29,0.00180
2121.51,0.00157
2115.72,0.00184
2109.93,0.00162
2104.15,0.00165
2098.36,0.00213
2092.58,0.00260
2086.79,0.00201
2081,0.00221
2075.22,0.00212
2069.43,0.00162
2063.65,0.00186
2057.86,0.00179
2052.07,0.00168
2046.29,0.00158
2040.5,0.00191
2034.72,0.00189
2028.93,0.00202
2023.14,0.00213
2017.36,0.00187
2011.57,0.00144
2005.79,0.00179
2000,0.00191
1994.21,0.00171
1988.43,0.00190
1982.64,0.00142
1976.86,0.00159
1971.07,0.00156
1965.29,0.00192
1959.5,0.00203
1953.71,0.00176
1947.93,0.00175
1942.14,0.00210
1936.36,0.00171
1930.57,0.00197
1924.78,0.00193
1919,0.00148
1913.21,0.00168
1907.43,0.00167
1901.64,0.00136
1895.85,0.00148
1890.07,0.00125
1884.28,0.00150
1878.5,0.00179
1872.71,0.00187
1866.92,0.00184
1861.14,0.00196
1855.35,0.00152
1849.57,0.00152
1843.78,0.00145
1837.99,0.00220
1832.21,0.00151
1826.42,0.00153
1820.64,0.00220
1814.85,0.00181
1809.07,0.00152
1803.28,0.00144
1797.49,0.00191
1791.71,0.00163
1785.92,0.00182
1780.14,0.00187
1774.35,0.00149
1768.56,0.00164
1762.78,0.00201
1756.99,0.00201
1751.21,0.00173
1745.42,0.00154
1739.63,0.00154
1733.85,0.00129
1728.06,0.00155
1722.28,0.00182
1716.49,0.00175
1710.7,0.00189
1704.92,0.00188
1699.13,0.00127
1693.35,0.00117
1687.56,0.00164
1681.77,0.00178
1675.99,0.00148
1670.2,0.00169
1664.42,0.00182
1658.63,0.00157
1652.85,0.00211
1647.06,0.00185
1641.27,0.00184
1635.49,0.00143
1629.7,0.00147
1623.92,0.00147
1618.13,0.00148
1612.34,0.00176
1606.56,0.00182
1600.77,0.00142
1594.99,0.00218
1589.2,0.00165
1583.41,0.00174
1577.63,0.00164
1571.84,0.00097
1566.06,0.00217
1560.27,0.00195
1554.48,0.00162
1548.7,0.00174
1542.91,0.00131
1537.13,0.00132
1531.34,0.00172
1525.56,0.00181
1519.77,0.00185
1513.98,0.00204
1508.2,0.00182
1502.41,0.00185
1496.63,0.00196
1490.84,0.00178
1485.05,0.00166
1479.27,0.00197
1473.48,0.00149
1467.7,0.00180
1461.91,0.00181
1456.12,0.00170
1450.34,0.00171
1444.55,0.00190
1438.77,0.00185
1432.98,0.00182
1427.19,0.00141
1421.41,0.00176
1415.62,0.00181
1409.84,0.00179
1404.05,0.00189
1398.26,0.00151
1392.48,0.00164
1386.69,0.00151
1380.91,0.00223
1375.12,0.00213
1369.34,0.00174
1363.55,0.00221
1357.76,0.00230
1351.98,0.00176
1346.19,0.00183
1340.41,0.00182
1334.62,0.00192
1328.83,0.00200
1323.05,0.00157
1317.26,0.00161
1311.48,0.00180
1305.69,0.00172
1299.9,0.00133
1294.12,0.00202
1288.33,0.00183
1282.55,0.00177
1276.76,0.00201
1270.97,0.00150
1265.19,0.00149
1259.4,0.00151
1253.62,0.00174
1247.83,0.00188
1242.04,0.00179
1236.26,0.00209
1230.47,0.00129
1224.69,0.00159
1218.9,0.00174
1213.12,0.00186
1207.33,0.00251
1201.54,0.00167
1195.76,0.00119
1189.97,0.00148
1184.19,0.00149
1178.4,0.00154
1172.61,0.00105
1166.83,0.00141
1161.04,0.00230
1155.26,0.00156
1149.47,0.00184
1143.68,0.00153
1137.9,0.00113
1132.11,0.00146
1126.33,0.00098
1120.54,0.00130
1114.75,0.00140
1108.97,0.00181
1103.18,0.00143
1097.4,0.00165
1091.61,0.00122
1085.82,0.00166
1080.04,0.00119
1074.25,0.00138
1068.47,0.00171
1062.68,0.00175
1056.9,0.00124
1051.11,0.00117
1045.32,0.00195
1039.54,0.00176
1033.75,0.00241
1027.97,0.00213
1022.18,0.00140
1016.39,0.00147
1010.61,0.00075
1004.82,0.00157
999.036,0.00146
993.25,0.00199
987.464,0.00200
981.678,0.00188
975.892,0.00152
970.106,0.00159
964.32,0.00147
958.535,0.00168
952.749,0.00198
946.963,0.00180
941.177,0.00171
935.391,0.00168
929.605,0.00154
923.819,0.00206
918.033,0.00167
912.247,0.00166
906.461,0.00109
900.675,0.00131
894.889,0.00116
889.103,0.00219
883.318,0.00239
877.532,0.00177
871.746,0.00162
865.96,0.00218
860.174,0.00152
854.388,0.00196
848.602,0.00127
842.816,0.00155
837.03,0.00175
831.244,0.00210
825.458,0.00182
819.672,0.00221
813.886,0.00221
808.101,0.00140
802.315,0.00154
796.529,0.00208
790.743,0.00185
784.957,0.00085
779.171,0.00202
773.385,0.00119
767.599,0.00164
761.813,0.00174
756.027,0.00154
750.241,0.00157
744.455,0.00115
738.669,0.00199
732.884,0.00140
727.098,0.00122
721.312,0.00271
715.526,0.00161
709.74,0.00131
703.954,0.00145
698.168,0.00190
692.382,0.00113
686.596,0.00139
680.81,0.00101
675.024,0.00301
669.238,0.00151
663.452,0.00262
657.667,0.00154
651.881,0.00142
646.095,0.00355
640.309,0.00143
634.523,0.00317
628.737,0.00279
622.951,0.00062
617.165,0.00619
611.379,0.00212
605.593,0.00435
599.807,0.00349