File: 01_Data/Nylon/FTIR/IS/Nylon_1.575_Trans_T_IS_221213_R1.dpt
7496.63,0.03282
7490.84,0.01799
7485.06,0.02470
7479.27,0.02043
7473.48,0.02569
7467.7,0.02249
7461.91,0.01761
7456.13,0.01879
7450.34,0.01177
7444.55,0.01669
7438.77,0.01977
7432.98,0.01045
7427.2,0.00649
7421.41,0.01928
7415.62,0.02164
7409.84,0.01771
7404.05,0.00520
7398.27,0.01540
7392.48,0.00841
7386.69,0.01863
7380.91,0.01809
7375.12,0.01488
7369.34,0.01397
7363.55,0.02493
7357.77,0.02090
7351.98,0.02537
7346.19,0.00917
7340.41,0.03085
7334.62,0.02172
7328.84,0.00705
7323.05,0.01605
7317.26,0.01928
7311.48,0.01460
7305.69,0.01106
7299.91,0.01699
7294.12,0.02719
7288.33,0.00598
7282.55,0.01144
7276.76,0.00458
7270.98,0.01474
7265.19,0.00868
7259.4,0.00936
7253.62,0.02409
7247.83,0.01165
7242.05,0.01464
7236.26,0.01112
7230.47,0.01054
7224.69,0.02118
7218.9,0.00910
7213.12,0.01794
7207.33,0.01829
7201.55,0.00984
7195.76,0.01364
7189.97,0.01609
7184.19,0.01378
7178.4,0.02240
7172.62,0.00742
7166.83,0.00648
7161.04,0.01113
7155.26,0.02033
7149.47,0.00493
7143.69,0.01738
7137.9,0.01943
7132.11,0.02389
7126.33,0.01133
7120.54,0.01445
7114.76,0.01863
7108.97,0.01349
7103.18,0.01886
7097.4,0.01686
7091.61,0.00171
7085.83,0.01040
7080.04,0.01135
7074.26,0.01096
7068.47,0.01187
7062.68,0.01150
7056.9,0.00946
7051.11,0.01159
7045.33,0.03075
7039.54,0.01447
7033.75,0.01159
7027.97,0.01590
7022.18,0.01049
7016.4,0.01369
7010.61,0.02183
7004.82,0.01948
6999.04,0.01951
6993.25,0.00969
6987.47,0.01119
6981.68,0.00169
6975.89,0.01489
6970.11,0.00580
6964.32,-0.00083
6958.54,0.01403
6952.75,0.01364
6946.96,0.02055
6941.18,0.01381
6935.39,0.01755
6929.61,0.02159
6923.82,0.01656
6918.04,0.00551
6912.25,0.01051
6906.46,0.00745
6900.68,0.01120
6894.89,0.00638
6889.11,0.00485
6883.32,0.01970
6877.53,0.00965
6871.75,0.01143
6865.96,0.01707
6860.18,0.00309
6854.39,0.01710
6848.6,0.01315
6842.82,0.00987
6837.03,0.00619
6831.25,0.01449
6825.46,0.01055
6819.67,0.00899
6813.89,0.00360
6808.1,0.01047
6802.32,0.01478
6796.53,0.01111
6790.74,0.01611
6784.96,0.00350
6779.17,0.00650
6773.39,0.01114
6767.6,0.00658
6761.82,0.01615
6756.03,0.00173
6750.24,0.00936
6744.46,0.02237
6738.67,0.01686
6732.89,0.00848
6727.1,0.01596
6721.31,0.00876
6715.53,0.00888
6709.74,0.00739
6703.96,0.00223
6698.17,0.00565
6692.38,0.00320
6686.6,0.01154
6680.81,0.00646
6675.03,0.00791
6669.24,0.01253
6663.45,0.00618
6657.67,0.00393
6651.88,0.00917
6646.1,0.00893
6640.31,0.01117
6634.52,0.00993
6628.74,0.00978
6622.95,0.00934
6617.17,0.01392
6611.38,0.01470
6605.6,0.00229
6599.81,0.00383
6594.02,0.00617
6588.24,0.00619
6582.45,0.01267
6576.67,0.00562
6570.88,0.00606
6565.09,0.00135
6559.31,0.00840
6553.52,0.00633
6547.74,0.01277
6541.95,0.00717
6536.16,0.00895
6530.38,0.01110
6524.59,-0.00057
6518.81,0.00822
6513.02,0.01709
6507.23,0.00670
6501.45,0.00562
6495.66,0.02050
6489.88,0.00938
6484.09,0.00566
6478.3,0.00374
6472.52,0.00555
6466.73,0.01396
6460.95,0.01237
6455.16,0.00925
6449.38,0.01039
6443.59,0.00813
6437.8,0.01634
6432.02,0.00206
6426.23,0.00711
6420.45,0.00547
6414.66,0.00594
6408.87,0.00708
6403.09,0.00668
6397.3,0.00815
6391.52,0.00072
6385.73,0.00816
6379.94,0.00709
6374.16,0.00802
6368.37,0.01239
6362.59,0.00535
6356.8,0.00242
6351.01,0.00453
6345.23,0.00651
6339.44,0.00372
6333.66,0.00805
6327.87,0.00311
6322.09,0.01207
6316.3,0.00518
6310.51,0.01114
6304.73,0.00457
6298.94,0.00658
6293.16,0.00889
6287.37,0.00227
6281.58,0.00813
6275.8,0.01127
6270.01,0.00527
6264.23,0.00277
6258.44,0.00835
6252.65,0.00373
6246.87,0.00880
6241.08,0.00582
6235.3,0.00488
6229.51,0.00681
6223.72,0.00542
6217.94,0.00232
6212.15,0.00532
6206.37,0.00382
6200.58,0.00841
6194.79,0.00598
6189.01,0.00629
6183.22,0.00707
6177.44,0.00171
6171.65,0.00542
6165.87,0.01142
6160.08,0.00644
6154.29,0.00112
6148.51,0.00918
6142.72,0.00831
6136.94,0.00684
6131.15,0.00540
6125.36,0.00547
6119.58,0.00464
6113.79,0.00523
6108.01,0.00465
6102.22,0.00478
6096.43,0.00716
6090.65,0.00638
6084.86,0.00331
6079.08,0.00846
6073.29,0.01065
6067.5,0.00642
6061.72,0.00887
6055.93,0.00919
6050.15,0.00689
6044.36,0.00446
6038.57,0.00819
6032.79,0.00204
6027,0.00502
6021.22,0.00982
6015.43,0.00092
6009.65,0.00698
6003.86,0.00440
5998.07,0.00397
5992.29,0.00681
5986.5,0.00330
5980.72,0.00223
5974.93,0.00654
5969.14,0.00573
5963.36,0.01191
5957.57,0.00583
5951.79,0.00572
5946,0.00387
5940.21,0.00350
5934.43,0.00505
5928.64,0.00482
5922.86,0.00448
5917.07,0.00863
5911.28,0.00679
5905.5,0.00387
5899.71,0.00501
5893.93,0.00552
5888.14,0.00503
5882.35,0.00378
5876.57,0.00701
5870.78,0.00581
5865,0.00065
5859.21,0.00984
5853.43,0.00879
5847.64,0.00328
5841.85,0.00692
5836.07,0.00608
5830.28,0.00734
5824.5,0.00270
5818.71,0.00904
5812.92,0.00586
5807.14,0.00580
5801.35,0.00187
5795.57,0.00747
5789.78,0.00257
5783.99,0.00531
5778.21,0.00327
5772.42,0.00231
5766.64,0.00430
5760.85,0.00474
5755.06,0.00347
5749.28,0.00671
5743.49,0.00089
5737.71,0.00515
5731.92,0.00502
5726.14,0.00741
5720.35,0.00166
5714.56,0.00348
5708.78,0.00394
5702.99,0.00276
5697.21,0.00064
5691.42,0.00483
5685.63,0.00490
5679.85,0.00541
5674.06,0.00295
5668.28,0.00274
5662.49,0.00465
5656.7,0.00159
5650.92,0.00197
5645.13,0.00235
5639.35,0.00206
5633.56,0.00413
5627.77,0.00130
5621.99,0.00510
5616.2,0.00475
5610.42,0.00418
5604.63,0.00352
5598.84,0.00333
5593.06,0.00266
5587.27,0.00472
5581.49,0.00463
5575.7,0.00543
5569.92,0.00128
5564.13,0.00382
5558.34,0.00243
5552.56,0.00418
5546.77,0.00052
5540.99,0.00459
5535.2,0.00637
5529.41,0.00493
5523.63,0.00143
5517.84,0.00313
5512.06,0.00221
5506.27,0.00384
5500.48,0.00675
5494.7,0.00472
5488.91,0.00303
5483.13,0.00335
5477.34,0.00234
5471.55,0.00362
5465.77,0.00337
5459.98,0.00039
5454.2,0.00288
5448.41,0.00476
5442.62,0.00415
5436.84,0.00685
5431.05,0.00243
5425.27,0.00454
5419.48,0.00263
5413.7,0.00201
5407.91,0.00345
5402.12,0.00372
5396.34,0.00423
5390.55,0.00015
5384.77,0.00307
5378.98,0.00246
5373.19,0.00281
5367.41,0.00188
5361.62,0.00412
5355.84,0.00395
5350.05,0.00230
5344.26,0.00511
5338.48,0.00394
5332.69,0.00229
5326.91,0.00410
5321.12,0.00020
5315.33,0.00278
5309.55,0.00547
5303.76,0.00177
5297.98,0.00415
5292.19,0.00441
5286.4,0.00208
5280.62,0.00318
5274.83,0.00298
5269.05,0.00310
5263.26,0.00239
5257.48,0.00276
5251.69,0.00446
5245.9,0.00192
5240.12,0.00191
5234.33,0.00344
5228.55,0.00544
5222.76,0.00141
5216.97,0.00514
5211.19,0.00406
5205.4,0.00076
5199.62,0.00181
5193.83,0.00279
5188.04,0.00204
5182.26,0.00240
5176.47,0.00410
5170.69,0.00043
5164.9,0.00167
5159.11,0.00108
5153.33,0.00354
5147.54,0.00188
5141.76,0.00470
5135.97,0.00110
5130.18,0.00299
5124.4,0.00310
5118.61,0.00197
5112.83,0.00142
5107.04,0.00322
5101.26,0.00061
5095.47,0.00390
5089.68,0.00295
5083.9,0.00049
5078.11,0.00450
5072.33,0.00342
5066.54,0.00240
5060.75,0.00249
5054.97,0.00177
5049.18,0.00168
5043.4,0.00337
5037.61,0.00272
5031.82,0.00291
5026.04,0.00294
5020.25,0.00193
5014.47,0.00159
5008.68,0.00270
5002.89,0.00275
4997.11,0.00160
4991.32,0.00605
4985.54,0.00232
4979.75,0.00154
4973.97,0.00207
4968.18,0.00235
4962.39,0.00266
4956.61,0.00286
4950.82,0.00328
4945.04,0.00197
4939.25,0.00530
4933.46,0.00262
4927.68,0.00305
4921.89,0.00187
4916.11,0.00211
4910.32,0.00189
4904.53,0.00203
4898.75,0.00247
4892.96,0.00105
4887.18,0.00181
4881.39,0.00149
4875.6,0.00347
4869.82,0.00209
4864.03,0.00341
4858.25,0.00158
4852.46,0.00240
4846.67,0.00318
4840.89,0.00147
4835.1,0.00231
4829.32,0.00079
4823.53,0.00141
4817.75,0.00169
4811.96,0.00247
4806.17,0.00264
4800.39,0.00186
4794.6,0.00252
4788.82,-0.00053
4783.03,0.00205
4777.24,0.00238
4771.46,0.00273
4765.67,0.00332
4759.89,0.00049
4754.1,0.00140
4748.31,0.00079
4742.53,0.00159
4736.74,0.00211
4730.96,0.00191
4725.17,0.00360
4719.38,-0.00060
4713.6,0.00123
4707.81,0.00240
4702.03,0.00095
4696.24,0.00299
4690.45,0.00094
4684.67,0.00180
4678.88,0.00176
4673.1,0.00167
4667.31,0.00236
4661.53,0.00212
4655.74,0.00124
4649.95,0.00206
4644.17,0.00210
4638.38,0.00079
4632.6,0.00313
4626.81,0.00003
4621.02,0.00304
4615.24,0.00334
4609.45,0.00266
4603.67,0.00153
4597.88,0.00261
4592.09,0.00211
4586.31,0.00152
4580.52,0.00182
4574.74,0.00236
4568.95,0.00221
4563.16,0.00189
4557.38,0.00146
4551.59,-0.00008
4545.81,0.00087
4540.02,0.00295
4534.23,0.00201
4528.45,0.00159
4522.66,0.00075
4516.88,0.00195
4511.09,0.00158
4505.31,0.00244
4499.52,0.00227
4493.73,0.00162
4487.95,0.00196
4482.16,0.00170
4476.38,0.00215
4470.59,0.00118
4464.8,0.00071
4459.02,0.00090
4453.23,0.00157
4447.45,0.00282
4441.66,0.00089
4435.87,0.00239
4430.09,0.00135
4424.3,0.00139
4418.52,0.00238
4412.73,0.00069
4406.94,0.00128
4401.16,0.00248
4395.37,0.00223
4389.59,0.00190
4383.8,0.00143
4378.01,0.00128
4372.23,0.00117
4366.44,0.00087
4360.66,0.00026
4354.87,0.00208
4349.09,0.00145
4343.3,0.00169
4337.51,0.00037
4331.73,0.00058
4325.94,0.00272
4320.16,0.00281
4314.37,0.00096
4308.58,0.00161
4302.8,0.00180
4297.01,0.00072
4291.23,0.00184
4285.44,0.00033
4279.65,0.00157
4273.87,0.00139
4268.08,0.00115
4262.3,0.00094
4256.51,0.00049
4250.72,0.00133
4244.94,0.00130
4239.15,0.00079
4233.37,0.00052
4227.58,0.00146
4221.8,0.00060
4216.01,0.00105
4210.22,0.00109
4204.44,0.00160
4198.65,0.00090
4192.87,0.00084
4187.08,0.00066
4181.29,0.00062
4175.51,0.00153
4169.72,0.00156
4163.94,0.00087
4158.15,0.00095
4152.36,0.00118
4146.58,0.00182
4140.79,0.00059
4135.01,0.00182
4129.22,0.00020
4123.43,0.00266
4117.65,0.00218
4111.86,0.00145
4106.08,0.00106
4100.29,0.00037
4094.5,0.00135
4088.72,0.00102
4082.93,0.00098
4077.15,0.00102
4071.36,0.00118
4065.58,0.00140
4059.79,0.00000
4054,0.00153
4048.22,0.00144
4042.43,0.00100
4036.65,0.00094
4030.86,0.00083
4025.07,0.00132
4019.29,0.00141
4013.5,0.00121
4007.72,0.00025
4001.93,0.00150
3996.14,0.00119
3990.36,0.00049
3984.57,0.00135
3978.79,0.00057
3973,0.00115
3967.21,0.00156
3961.43,0.00053
3955.64,0.00155
3949.86,0.00061
3944.07,0.00071
3938.28,0.00163
3932.5,0.00003
3926.71,0.00134
3920.93,0.00167
3915.14,-0.00018
3909.36,0.00146
3903.57,0.00165
3897.78,0.00089
3892,0.00143
3886.21,0.00059
3880.43,0.00168
3874.64,0.00079
3868.85,0.00027
3863.07,0.00110
3857.28,0.00167
3851.5,0.00085
3845.71,0.00105
3839.92,0.00175
3834.14,0.00063
3828.35,0.00082
3822.57,0.00082
3816.78,0.00122
3810.99,0.00126
3805.21,0.00128
3799.42,0.00123
3793.64,0.00130
3787.85,0.00078
3782.06,0.00152
3776.28,0.00079
3770.49,0.00205
3764.71,0.00089
3758.92,0.00207
3753.14,0.00077
3747.35,0.00247
3741.56,0.00122
3735.78,0.00102
3729.99,0.00233
3724.21,0.00179
3718.42,-0.00030
3712.63,0.00045
3706.85,0.00117
3701.06,0.00039
3695.28,0.00130
3689.49,0.00112
3683.7,0.00124
3677.92,0.00215
3672.13,0.00138
3666.35,-0.00002
3660.56,0.00072
3654.77,0.00191
3648.99,0.00138
3643.2,0.00100
3637.42,0.00200
3631.63,0.00068
3625.85,0.00068
3620.06,0.00204
3614.27,0.00143
3608.49,0.00057
3602.7,0.00092
3596.92,0.00079
3591.13,-0.00032
3585.34,0.00187
3579.56,0.00132
3573.77,0.00093
3567.99,0.00072
3562.2,0.00092
3556.41,0.00128
3550.63,0.00034
3544.84,0.00099
3539.06,0.00247
3533.27,0.00147
3527.48,0.00080
3521.7,0.00179
3515.91,0.00056
3510.13,0.00153
3504.34,0.00117
3498.55,0.00078
3492.77,0.00113
3486.98,0.00145
3481.2,0.00157
3475.41,0.00125
3469.63,0.00119
3463.84,0.00062
3458.05,0.00171
3452.27,0.00150
3446.48,0.00033
3440.7,0.00116
3434.91,0.00178
3429.12,0.00091
3423.34,0.00113
3417.55,0.00042
3411.77,0.00133
3405.98,0.00077
3400.19,0.00092
3394.41,0.00042
3388.62,0.00141
3382.84,0.00052
3377.05,0.00122
3371.26,0.00088
3365.48,0.00076
3359.69,0.00190
3353.91,0.00141
3348.12,0.00255
3342.33,0.00077
3336.55,0.00074
3330.76,0.00088
3324.98,0.00199
3319.19,0.00154
3313.41,0.00133
3307.62,0.00136
3301.83,0.00107
3296.05,0.00104
3290.26,0.00267
3284.48,0.00077
3278.69,-0.00008
3272.9,0.00169
3267.12,0.00075
3261.33,0.00077
3255.55,0.00085
3249.76,0.00088
3243.97,0.00226
3238.19,0.00126
3232.4,0.00156
3226.62,0.00122
3220.83,0.00064
3215.04,0.00207
3209.26,0.00119
3203.47,0.00012
3197.69,0.00153
3191.9,0.00087
3186.11,0.00069
3180.33,0.00109
3174.54,0.00127
3168.76,0.00160
3162.97,0.00080
3157.19,0.00104
3151.4,0.00145
3145.61,0.00082
3139.83,0.00087
3134.04,0.00074
3128.26,0.00010
3122.47,0.00107
3116.68,0.00145
3110.9,0.00098
3105.11,0.00009
3099.33,0.00175
3093.54,0.00143
3087.75,0.00079
3081.97,0.00052
3076.18,0.00099
3070.4,0.00114
3064.61,0.00112
3058.82,0.00005
3053.04,0.00097
3047.25,0.00097
3041.47,0.00090
3035.68,0.00021
3029.89,0.00190
3024.11,0.00022
3018.32,0.00203
3012.54,0.00076
3006.75,0.00134
3000.97,0.00070
2995.18,0.00064
2989.39,0.00092
2983.61,-0.00000
2977.82,0.00176
2972.04,0.00132
2966.25,0.00055
2960.46,0.00066
2954.68,0.00111
2948.89,0.00096
2943.11,0.00142
2937.32,0.00061
2931.53,0.00087
2925.75,0.00049
2919.96,0.00108
2914.18,0.00129
2908.39,0.00165
2902.6,0.00113
2896.82,0.00038
2891.03,0.00044
2885.25,0.00143
2879.46,0.00171
2873.68,0.00136
2867.89,0.00041
2862.1,0.00087
2856.32,0.00085
2850.53,0.00077
2844.75,0.00122
2838.96,0.00081
2833.17,0.00058
2827.39,0.00064
2821.6,0.00044
2815.82,0.00114
2810.03,0.00076
2804.24,0.00099
2798.46,0.00051
2792.67,0.00049
2786.89,0.00047
2781.1,0.00087
2775.31,0.00093
2769.53,0.00101
2763.74,0.00068
2757.96,0.00132
2752.17,0.00117
2746.38,0.00086
2740.6,0.00038
2734.81,0.00011
2729.03,0.00067
2723.24,0.00068
2717.46,0.00053
2711.67,0.00128
2705.88,0.00016
2700.1,0.00044
2694.31,0.00067
2688.53,0.00053
2682.74,0.00058
2676.95,0.00043
2671.17,0.00036
2665.38,0.00090
2659.6,0.00085
2653.81,0.00043
2648.02,0.00056
2642.24,0.00044
2636.45,0.00099
2630.67,0.00060
2624.88,0.00022
2619.09,0.00147
2613.31,0.00086
2607.52,0.00069
2601.74,0.00032
2595.95,0.00074
2590.16,0.00033
2584.38,0.00025
2578.59,0.00050
2572.81,0.00088
2567.02,0.00096
2561.24,0.00066
2555.45,0.00097
2549.66,0.00114
2543.88,0.00100
2538.09,0.00025
2532.31,0.00046
2526.52,0.00037
2520.73,0.00057
2514.95,0.00083
2509.16,0.00078
2503.38,0.00082
2497.59,0.00080
2491.8,0.00052
2486.02,0.00017
2480.23,0.00051
2474.45,0.00059
2468.66,0.00068
2462.87,0.00054
2457.09,0.00006
2451.3,0.00040
2445.52,0.00051
2439.73,-0.00001
2433.94,0.00053
2428.16,0.00029
2422.37,0.00066
2416.59,0.00079
2410.8,0.00115
2405.02,0.00005
2399.23,0.00026
2393.44,0.00053
2387.66,0.00077
2381.87,0.00056
2376.09,0.00039
2370.3,0.00041
2364.51,0.00107
2358.73,0.00092
2352.94,0.00040
2347.16,0.00038
2341.37,0.00075
2335.58,0.00023
2329.8,0.00046
2324.01,0.00072
2318.23,0.00076
2312.44,0.00058
2306.65,0.00062
2300.87,0.00080
2295.08,0.00077
2289.3,0.00091
2283.51,0.00011
2277.72,0.00067
2271.94,0.00050
2266.15,0.00061
2260.37,0.00078
2254.58,0.00073
2248.8,0.00044
2243.01,0.00049
2237.22,0.00065
2231.44,0.00052
2225.65,0.00104
2219.87,0.00028
2214.08,0.00028
2208.29,0.00071
2202.51,0.00052
2196.72,0.00076
2190.94,0.00024
2185.15,0.00088
2179.36,0.00023
2173.58,0.00093
2167.79,0.00029
2162.01,0.00030
2156.22,0.00103
2150.43,0.00010
2144.65,0.00045
2138.86,0.00093
2133.08,0.00103
2127.29,0.00056
2121.51,0.00040
2115.72,0.00040
2109.93,0.00065
2104.15,0.00063
2098.36,0.00114
2092.58,0.00064
2086.79,0.00022
2081,0.00007
2075.22,0.00046
2069.43,0.00009
2063.65,0.00056
2057.86,0.00039
2052.07,0.00053
2046.29,0.00063
2040.5,0.00070
2034.72,0.00043
2028.93,0.00056
2023.14,0.00032
2017.36,0.00045
2011.57,0.00044
2005.79,0.00042
2000,0.00010
1994.21,0.00107
1988.43,0.00004
1982.64,0.00035
1976.86,0.00086
1971.07,0.00085
1965.29,0.00012
1959.5,0.00071
1953.71,0.00069
1947.93,0.00038
1942.14,0.00025
1936.36,0.00099
1930.57,0.00102
1924.78,0.00030
1919,0.00067
1913.21,0.00061
1907.43,0.00103
1901.64,0.00066
1895.85,0.00036
1890.07,0.00061
1884.28,0.00032
1878.5,0.00091
1872.71,0.00068
1866.92,0.00071
1861.14,0.00034
1855.35,0.00075
1849.57,0.00013
1843.78,0.00094
1837.99,0.00023
1832.21,0.00125
1826.42,0.00093
1820.64,0.00087
1814.85,0.00053
1809.07,0.00091
1803.28,0.00077
1797.49,0.00009
1791.71,0.00082
1785.92,0.00048
1780.14,0.00022
1774.35,0.00087
1768.56,0.00095
1762.78,0.00083
1756.99,0.00035
1751.21,0.00086
1745.42,0.00089
1739.63,0.00066
1733.85,0.00015
1728.06,0.00080
1722.28,0.00031
1716.49,0.00060
1710.7,0.00048
1704.92,0.00072
1699.13,0.00034
1693.35,0.00087
1687.56,0.00107
1681.77,0.00065
1675.99,0.00055
1670.2,0.00047
1664.42,0.00053
1658.63,0.00076
1652.85,0.00059
1647.06,0.00045
1641.27,0.00025
1635.49,0.00138
1629.7,0.00072
1623.92,0.00063
1618.13,0.00052
1612.34,0.00040
1606.56,0.00034
1600.77,0.00023
1594.99,0.00056
1589.2,0.00103
1583.41,0.00066
1577.63,0.00099
1571.84,0.00041
1566.06,0.00054
1560.27,0.00015
1554.48,0.00042
1548.7,0.00036
1542.91,0.00082
1537.13,0.00081
1531.34,0.00089
1525.56,0.00003
1519.77,0.00036
1513.98,0.00051
1508.2,0.00112
1502.41,0.00049
1496.63,0.00077
1490.84,0.00100
1485.05,0.00106
1479.27,0.00084
1473.48,0.00086
1467.7,0.00020
1461.91,0.00106
1456.12,0.00084
1450.34,0.00066
1444.55,0.00046
1438.77,0.00018
1432.98,0.00063
1427.19,0.00064
1421.41,0.00091
1415.62,0.00129
1409.84,0.00017
1404.05,0.00060
1398.26,0.00077
1392.48,0.00056
1386.69,0.00048
1380.91,0.00041
1375.12,0.00050
1369.34,0.00026
1363.55,0.00040
1357.76,0.00001
1351.98,0.00073
1346.19,0.00075
1340.41,0.00091
1334.62,0.00047
1328.83,0.00023
1323.05,0.00072
1317.26,0.00028
1311.48,0.00067
1305.69,0.00043
1299.9,0.00037
1294.12,0.00033
1288.33,0.00051
1282.55,0.00035
1276.76,0.00119
1270.97,0.00105
1265.19,0.00086
1259.4,0.00074
1253.62,0.00082
1247.83,0.00063
1242.04,0.00042
1236.26,0.00039
1230.47,0.00038
1224.69,0.00129
1218.9,0.00070
1213.12,0.00035
1207.33,0.00008
1201.54,0.00086
1195.76,0.00016
1189.97,0.00053
1184.19,0.00164
1178.4,0.00072
1172.61,0.00134
1166.83,0.00040
1161.04,0.00113
1155.26,0.00011
1149.47,0.00069
1143.68,0.00115
1137.9,0.00014
1132.11,0.00100
1126.33,0.00046
1120.54,0.00142
1114.75,0.00124
1108.97,0.00102
1103.18,0.00088
1097.4,0.00022
1091.61,0.00143
1085.82,0.00100
1080.04,0.00123
1074.25,0.00128
1068.47,0.00135
1062.68,0.00083
1056.9,0.00116
1051.11,0.00142
1045.32,0.00110
1039.54,0.00004
1033.75,0.00191
1027.97,0.00088
1022.18,0.00177
1016.39,0.00092
1010.61,0.00052
1004.82,0.00179
999.036,0.00074
993.25,0.00243
987.464,0.00121
981.678,0.00078
975.892,0.00142
970.106,0.00094
964.32,0.00066
958.535,0.00086
952.749,0.00109
946.963,0.00212
941.177,0.00140
935.391,0.00173
929.605,0.00098
923.819,0.00157
918.033,0.00102
912.247,0.00154
906.461,0.00112
900.675,0.00157
894.889,0.00067
889.103,0.00031
883.318,0.00106
877.532,0.00083
871.746,0.00143
865.96,0.00093
860.174,0.00105
854.388,0.00092
848.602,0.00137
842.816,0.00185
837.03,0.00192
831.244,0.00269
825.458,0.00109
819.672,0.00121
813.886,0.00171
808.101,0.00156
802.315,0.00099
796.529,0.00060
790.743,0.00197
784.957,0.00096
779.171,0.00107
773.385,0.00075
767.599,0.00168
761.813,0.00073
756.027,0.00207
750.241,0.00000
744.455,0.00072
738.669,0.00169
732.884,0.00068
727.098,0.00106
721.312,0.00163
715.526,0.00023
709.74,0.00297
703.954,0.00138
698.168,0.00110
692.382,0.00168
686.596,0.00212
680.81,0.00095
675.024,0.00184
669.238,0.00093
663.452,0.00279
657.667,0.00214
651.881,0.00481
646.095,0.00355
640.309,0.00412
634.523,0.00356
628.737,0.00371
622.951,0.00205
617.165,0.00100
611.379,0.00327
605.593,0.00558
599.807,0.00010