File: 01_Data/Nylon/FTIR/IS/Nylon_1.575_Trans_S_IS_221213_R3.dpt
7496.63,0.70325
7490.84,0.70328
7485.06,0.69783
7479.27,0.70613
7473.48,0.69205
7467.7,0.69449
7461.91,0.71014
7456.13,0.69868
7450.34,0.70914
7444.55,0.69438
7438.77,0.70226
7432.98,0.69011
7427.2,0.69998
7421.41,0.69400
7415.62,0.70390
7409.84,0.70501
7404.05,0.70277
7398.27,0.70598
7392.48,0.69263
7386.69,0.69581
7380.91,0.69655
7375.12,0.69382
7369.34,0.69457
7363.55,0.68624
7357.77,0.67522
7351.98,0.68680
7346.19,0.68781
7340.41,0.67769
7334.62,0.67988
7328.84,0.67201
7323.05,0.66753
7317.26,0.67248
7311.48,0.66046
7305.69,0.66143
7299.91,0.65553
7294.12,0.65804
7288.33,0.64111
7282.55,0.64248
7276.76,0.63995
7270.98,0.62939
7265.19,0.62069
7259.4,0.62681
7253.62,0.61836
7247.83,0.60302
7242.05,0.60410
7236.26,0.60447
7230.47,0.59472
7224.69,0.59660
7218.9,0.59043
7213.12,0.59221
7207.33,0.58605
7201.55,0.58967
7195.76,0.59152
7189.97,0.59604
7184.19,0.58741
7178.4,0.60223
7172.62,0.59700
7166.83,0.59280
7161.04,0.59603
7155.26,0.59921
7149.47,0.59813
7143.69,0.59124
7137.9,0.58927
7132.11,0.58681
7126.33,0.58772
7120.54,0.58038
7114.76,0.58264
7108.97,0.57791
7103.18,0.58313
7097.4,0.57886
7091.61,0.57604
7085.83,0.58569
7080.04,0.58702
7074.26,0.58582
7068.47,0.58451
7062.68,0.59315
7056.9,0.58345
7051.11,0.58264
7045.33,0.57785
7039.54,0.58803
7033.75,0.59009
7027.97,0.58527
7022.18,0.58421
7016.4,0.58331
7010.61,0.58543
7004.82,0.58377
6999.04,0.58908
6993.25,0.58854
6987.47,0.58490
6981.68,0.58129
6975.89,0.59166
6970.11,0.58640
6964.32,0.59271
6958.54,0.59640
6952.75,0.59134
6946.96,0.59098
6941.18,0.59823
6935.39,0.59922
6929.61,0.59375
6923.82,0.59937
6918.04,0.59780
6912.25,0.60165
6906.46,0.60289
6900.68,0.60881
6894.89,0.60596
6889.11,0.60170
6883.32,0.60654
6877.53,0.60850
6871.75,0.59994
6865.96,0.60672
6860.18,0.60444
6854.39,0.60597
6848.6,0.59778
6842.82,0.60191
6837.03,0.60716
6831.25,0.60324
6825.46,0.59918
6819.67,0.60724
6813.89,0.60806
6808.1,0.60109
6802.32,0.60198
6796.53,0.59762
6790.74,0.60211
6784.96,0.60086
6779.17,0.59266
6773.39,0.58959
6767.6,0.58391
6761.82,0.58144
6756.03,0.57883
6750.24,0.57542
6744.46,0.57662
6738.67,0.57851
6732.89,0.57770
6727.1,0.57224
6721.31,0.57126
6715.53,0.57287
6709.74,0.56998
6703.96,0.57240
6698.17,0.56764
6692.38,0.56658
6686.6,0.56467
6680.81,0.56107
6675.03,0.55884
6669.24,0.55826
6663.45,0.55367
6657.67,0.54391
6651.88,0.54029
6646.1,0.53716
6640.31,0.53037
6634.52,0.52331
6628.74,0.51318
6622.95,0.50808
6617.17,0.50666
6611.38,0.49974
6605.6,0.50042
6599.81,0.50187
6594.02,0.50175
6588.24,0.50248
6582.45,0.50205
6576.67,0.50461
6570.88,0.49993
6565.09,0.49800
6559.31,0.48931
6553.52,0.48881
6547.74,0.48308
6541.95,0.47900
6536.16,0.47447
6530.38,0.46818
6524.59,0.46118
6518.81,0.45813
6513.02,0.45178
6507.23,0.45383
6501.45,0.45412
6495.66,0.45268
6489.88,0.45546
6484.09,0.45472
6478.3,0.45733
6472.52,0.47031
6466.73,0.48578
6460.95,0.50490
6455.16,0.52340
6449.38,0.53550
6443.59,0.54772
6437.8,0.56042
6432.02,0.56433
6426.23,0.56758
6420.45,0.56955
6414.66,0.56581
6408.87,0.56607
6403.09,0.56120
6397.3,0.55728
6391.52,0.54951
6385.73,0.54402
6379.94,0.53939
6374.16,0.52932
6368.37,0.52620
6362.59,0.52214
6356.8,0.52082
6351.01,0.51921
6345.23,0.51913
6339.44,0.52401
6333.66,0.52845
6327.87,0.53960
6322.09,0.54929
6316.3,0.55680
6310.51,0.55575
6304.73,0.56383
6298.94,0.56746
6293.16,0.56804
6287.37,0.56431
6281.58,0.56401
6275.8,0.55815
6270.01,0.54831
6264.23,0.54417
6258.44,0.54078
6252.65,0.53592
6246.87,0.53701
6241.08,0.53640
6235.3,0.53487
6229.51,0.53756
6223.72,0.54337
6217.94,0.54543
6212.15,0.55467
6206.37,0.56117
6200.58,0.56650
6194.79,0.56992
6189.01,0.57570
6183.22,0.57964
6177.44,0.59018
6171.65,0.59734
6165.87,0.60796
6160.08,0.61565
6154.29,0.61960
6148.51,0.62363
6142.72,0.63098
6136.94,0.63553
6131.15,0.63881
6125.36,0.64283
6119.58,0.64508
6113.79,0.64867
6108.01,0.65229
6102.22,0.64960
6096.43,0.64822
6090.65,0.64969
6084.86,0.65151
6079.08,0.65100
6073.29,0.64834
6067.5,0.64894
6061.72,0.65118
6055.93,0.64869
6050.15,0.64778
6044.36,0.64408
6038.57,0.64859
6032.79,0.64506
6027,0.64446
6021.22,0.64524
6015.43,0.64011
6009.65,0.64046
6003.86,0.63498
5998.07,0.63760
5992.29,0.63409
5986.5,0.62767
5980.72,0.62662
5974.93,0.62293
5969.14,0.61798
5963.36,0.61293
5957.57,0.60672
5951.79,0.60129
5946,0.59237
5940.21,0.58292
5934.43,0.57088
5928.64,0.55689
5922.86,0.53900
5917.07,0.51928
5911.28,0.49523
5905.5,0.47133
5899.71,0.44649
5893.93,0.41802
5888.14,0.38555
5882.35,0.35807
5876.57,0.33259
5870.78,0.30745
5865,0.28358
5859.21,0.26154
5853.43,0.23665
5847.64,0.21651
5841.85,0.19553
5836.07,0.18691
5830.28,0.18362
5824.5,0.18987
5818.71,0.19759
5812.92,0.20656
5807.14,0.21586
5801.35,0.22452
5795.57,0.23605
5789.78,0.24779
5783.99,0.26107
5778.21,0.27414
5772.42,0.28375
5766.64,0.28822
5760.85,0.28937
5755.06,0.28615
5749.28,0.28269
5743.49,0.27157
5737.71,0.26300
5731.92,0.24961
5726.14,0.23767
5720.35,0.22855
5714.56,0.22645
5708.78,0.22961
5702.99,0.23307
5697.21,0.23398
5691.42,0.24142
5685.63,0.25199
5679.85,0.26568
5674.06,0.28039
5668.28,0.29357
5662.49,0.30781
5656.7,0.32070
5650.92,0.33244
5645.13,0.34649
5639.35,0.35902
5633.56,0.37161
5627.77,0.37738
5621.99,0.38500
5616.2,0.39020
5610.42,0.39025
5604.63,0.39652
5598.84,0.39792
5593.06,0.40076
5587.27,0.40202
5581.49,0.40502
5575.7,0.40819
5569.92,0.41292
5564.13,0.41552
5558.34,0.41863
5552.56,0.42204
5546.77,0.42390
5540.99,0.42526
5535.2,0.42860
5529.41,0.43149
5523.63,0.43179
5517.84,0.43744
5512.06,0.44022
5506.27,0.44130
5500.48,0.44480
5494.7,0.44523
5488.91,0.44840
5483.13,0.45317
5477.34,0.45377
5471.55,0.45759
5465.77,0.46016
5459.98,0.46204
5454.2,0.46485
5448.41,0.46585
5442.62,0.46498
5436.84,0.47018
5431.05,0.47046
5425.27,0.47524
5419.48,0.47949
5413.7,0.47264
5407.91,0.47681
5402.12,0.48760
5396.34,0.49168
5390.55,0.49906
5384.77,0.50420
5378.98,0.50798
5373.19,0.50827
5367.41,0.51400
5361.62,0.51812
5355.84,0.51685
5350.05,0.51696
5344.26,0.51442
5338.48,0.51409
5332.69,0.51946
5326.91,0.51565
5321.12,0.51440
5315.33,0.50979
5309.55,0.50167
5303.76,0.49029
5297.98,0.47761
5292.19,0.46220
5286.4,0.45267
5280.62,0.44517
5274.83,0.44040
5269.05,0.43083
5263.26,0.42028
5257.48,0.41455
5251.69,0.40738
5245.9,0.39549
5240.12,0.39027
5234.33,0.38186
5228.55,0.36894
5222.76,0.35863
5216.97,0.34863
5211.19,0.33750
5205.4,0.32423
5199.62,0.31424
5193.83,0.30105
5188.04,0.29100
5182.26,0.28085
5176.47,0.27315
5170.69,0.26234
5164.9,0.25488
5159.11,0.24857
5153.33,0.24111
5147.54,0.23623
5141.76,0.23215
5135.97,0.23186
5130.18,0.23091
5124.4,0.23165
5118.61,0.23320
5112.83,0.23609
5107.04,0.24047
5101.26,0.24522
5095.47,0.24986
5089.68,0.25612
5083.9,0.26205
5078.11,0.26858
5072.33,0.27413
5066.54,0.27921
5060.75,0.28309
5054.97,0.28955
5049.18,0.29589
5043.4,0.29834
5037.61,0.30119
5031.82,0.30543
5026.04,0.30631
5020.25,0.30594
5014.47,0.30284
5008.68,0.29782
5002.89,0.28952
4997.11,0.27631
4991.32,0.25716
4985.54,0.23342
4979.75,0.20748
4973.97,0.18765
4968.18,0.17628
4962.39,0.17486
4956.61,0.17914
4950.82,0.18264
4945.04,0.18299
4939.25,0.18181
4933.46,0.17855
4927.68,0.17655
4921.89,0.16934
4916.11,0.15716
4910.32,0.13946
4904.53,0.11945
4898.75,0.09683
4892.96,0.07882
4887.18,0.06533
4881.39,0.05568
4875.6,0.04593
4869.82,0.04139
4864.03,0.04973
4858.25,0.07027
4852.46,0.09694
4846.67,0.12646
4840.89,0.15766
4835.1,0.18895
4829.32,0.21718
4823.53,0.23709
4817.75,0.24984
4811.96,0.25597
4806.17,0.25756
4800.39,0.25281
4794.6,0.24844
4788.82,0.24691
4783.03,0.24566
4777.24,0.24414
4771.46,0.24183
4765.67,0.23788
4759.89,0.23213
4754.1,0.22495
4748.31,0.21684
4742.53,0.20794
4736.74,0.19944
4730.96,0.18965
4725.17,0.17819
4719.38,0.16517
4713.6,0.15050
4707.81,0.13704
4702.03,0.12567
4696.24,0.11815
4690.45,0.11376
4684.67,0.11103
4678.88,0.11016
4673.1,0.10922
4667.31,0.10957
4661.53,0.10926
4655.74,0.10777
4649.95,0.10424
4644.17,0.09970
4638.38,0.09554
4632.6,0.08856
4626.81,0.08283
4621.02,0.07594
4615.24,0.06956
4609.45,0.06282
4603.67,0.05360
4597.88,0.04630
4592.09,0.04052
4586.31,0.03734
4580.52,0.03631
4574.74,0.03771
4568.95,0.04045
4563.16,0.04484
4557.38,0.04838
4551.59,0.05015
4545.81,0.05097
4540.02,0.05247
4534.23,0.05448
4528.45,0.05757
4522.66,0.06207
4516.88,0.06845
4511.09,0.07489
4505.31,0.08024
4499.52,0.08498
4493.73,0.08871
4487.95,0.08952
4482.16,0.08976
4476.38,0.08942
4470.59,0.08748
4464.8,0.08379
4459.02,0.07893
4453.23,0.07301
4447.45,0.06580
4441.66,0.05971
4435.87,0.05400
4430.09,0.04682
4424.3,0.03923
4418.52,0.03319
4412.73,0.02628
4406.94,0.02051
4401.16,0.01504
4395.37,0.00968
4389.59,0.00513
4383.8,0.00172
4378.01,0.00078
4372.23,0.00107
4366.44,0.00025
4360.66,0.00076
4354.87,0.00036
4349.09,0.00079
4343.3,0.00033
4337.51,0.00044
4331.73,0.00156
4325.94,0.00287
4320.16,0.00335
4314.37,0.00365
4308.58,0.00515
4302.8,0.00514
4297.01,0.00565
4291.23,0.00511
4285.44,0.00407
4279.65,0.00292
4273.87,0.00180
4268.08,0.00077
4262.3,0.00089
4256.51,0.00141
4250.72,0.00111
4244.94,0.00142
4239.15,0.00127
4233.37,0.00136
4227.58,0.00133
4221.8,0.00137
4216.01,0.00101
4210.22,0.00052
4204.44,0.00136
4198.65,0.00110
4192.87,0.00062
4187.08,0.00155
4181.29,0.00190
4175.51,0.00188
4169.72,0.00195
4163.94,0.00332
4158.15,0.00369
4152.36,0.00536
4146.58,0.00642
4140.79,0.00729
4135.01,0.00807
4129.22,0.00938
4123.43,0.00979
4117.65,0.00983
4111.86,0.00974
4106.08,0.00936
4100.29,0.00845
4094.5,0.00770
4088.72,0.00730
4082.93,0.00795
4077.15,0.00781
4071.36,0.00735
4065.58,0.00656
4059.79,0.00628
4054,0.00544
4048.22,0.00527
4042.43,0.00414
4036.65,0.00420
4030.86,0.00371
4025.07,0.00339
4019.29,0.00336
4013.5,0.00251
4007.72,0.00229
4001.93,0.00219
3996.14,0.00362
3990.36,0.00494
3984.57,0.00514
3978.79,0.00769
3973,0.01129
3967.21,0.01514
3961.43,0.01793
3955.64,0.02161
3949.86,0.02427
3944.07,0.02756
3938.28,0.03096
3932.5,0.03331
3926.71,0.03468
3920.93,0.03681
3915.14,0.04006
3909.36,0.04679
3903.57,0.05063
3897.78,0.05596
3892,0.05812
3886.21,0.05838
3880.43,0.06154
3874.64,0.06858
3868.85,0.07014
3863.07,0.07098
3857.28,0.06753
3851.5,0.05898
3845.71,0.05672
3839.92,0.05244
3834.14,0.05796
3828.35,0.06267
3822.57,0.05981
3816.78,0.06006
3810.99,0.06543
3805.21,0.06791
3799.42,0.06999
3793.64,0.07170
3787.85,0.07226
3782.06,0.07635
3776.28,0.08106
3770.49,0.08105
3764.71,0.08168
3758.92,0.07939
3753.14,0.07473
3747.35,0.06965
3741.56,0.06798
3735.78,0.06430
3729.99,0.06430
3724.21,0.06253
3718.42,0.06042
3712.63,0.05417
3706.85,0.04996
3701.06,0.04302
3695.28,0.03446
3689.49,0.02097
3683.7,0.00945
3677.92,0.00271
3672.13,0.00186
3666.35,0.00148
3660.56,0.00109
3654.77,0.00009
3648.99,0.00046
3643.2,0.00005
3637.42,0.00044
3631.63,0.00063
3625.85,0.00033
3620.06,-0.00022
3614.27,0.00063
3608.49,0.00030
3602.7,0.00040
3596.92,0.00065
3591.13,0.00056
3585.34,0.00028
3579.56,0.00030
3573.77,0.00018
3567.99,0.00025
3562.2,0.00049
3556.41,0.00063
3550.63,0.00020
3544.84,0.00041
3539.06,0.00058
3533.27,0.00013
3527.48,0.00043
3521.7,0.00022
3515.91,0.00027
3510.13,0.00036
3504.34,0.00036
3498.55,0.00039
3492.77,0.00009
3486.98,0.00080
3481.2,0.00045
3475.41,0.00034
3469.63,0.00039
3463.84,0.00026
3458.05,0.00064
3452.27,0.00040
3446.48,0.00018
3440.7,0.00055
3434.91,0.00016
3429.12,0.00067
3423.34,0.00011
3417.55,0.00036
3411.77,0.00013
3405.98,0.00047
3400.19,0.00038
3394.41,0.00047
3388.62,0.00095
3382.84,0.00005
3377.05,0.00055
3371.26,0.00040
3365.48,0.00040
3359.69,0.00038
3353.91,0.00021
3348.12,0.00030
3342.33,0.00036
3336.55,0.00088
3330.76,0.00028
3324.98,0.00014
3319.19,0.00025
3313.41,0.00077
3307.62,0.00036
3301.83,0.00024
3296.05,0.00040
3290.26,0.00028
3284.48,0.00033
3278.69,0.00067
3272.9,0.00048
3267.12,0.00022
3261.33,0.00038
3255.55,0.00048
3249.76,0.00060
3243.97,0.00070
3238.19,0.00080
3232.4,0.00074
3226.62,0.00010
3220.83,0.00038
3215.04,0.00039
3209.26,0.00027
3203.47,0.00051
3197.69,0.00047
3191.9,0.00013
3186.11,0.00017
3180.33,0.00045
3174.54,0.00047
3168.76,0.00044
3162.97,0.00056
3157.19,0.00030
3151.4,0.00089
3145.61,0.00014
3139.83,0.00022
3134.04,-0.00003
3128.26,0.00038
3122.47,0.00042
3116.68,0.00054
3110.9,0.00046
3105.11,0.00035
3099.33,0.00045
3093.54,0.00044
3087.75,0.00043
3081.97,0.00031
3076.18,0.00067
3070.4,0.00032
3064.61,0.00037
3058.82,0.00071
3053.04,0.00041
3047.25,0.00024
3041.47,0.00016
3035.68,0.00040
3029.89,0.00082
3024.11,0.00051
3018.32,0.00033
3012.54,0.00021
3006.75,0.00034
3000.97,0.00059
2995.18,0.00040
2989.39,0.00017
2983.61,0.00042
2977.82,0.00076
2972.04,0.00024
2966.25,0.00033
2960.46,0.00074
2954.68,0.00021
2948.89,0.00060
2943.11,0.00080
2937.32,0.00016
2931.53,0.00013
2925.75,0.00015
2919.96,0.00061
2914.18,0.00016
2908.39,0.00042
2902.6,0.00012
2896.82,0.00020
2891.03,0.00012
2885.25,0.00057
2879.46,0.00007
2873.68,0.00049
2867.89,0.00014
2862.1,0.00009
2856.32,0.00042
2850.53,0.00029
2844.75,0.00036
2838.96,0.00027
2833.17,0.00000
2827.39,0.00023
2821.6,0.00012
2815.82,0.00033
2810.03,0.00026
2804.24,0.00064
2798.46,0.00043
2792.67,0.00036
2786.89,0.00043
2781.1,0.00046
2775.31,0.00019
2769.53,0.00071
2763.74,0.00000
2757.96,0.00018
2752.17,0.00034
2746.38,0.00019
2740.6,0.00018
2734.81,0.00031
2729.03,0.00027
2723.24,0.00023
2717.46,0.00027
2711.67,0.00045
2705.88,0.00031
2700.1,0.00023
2694.31,0.00024
2688.53,0.00035
2682.74,-0.00004
2676.95,0.00028
2671.17,0.00029
2665.38,0.00008
2659.6,0.00040
2653.81,0.00021
2648.02,0.00041
2642.24,0.00012
2636.45,0.00035
2630.67,0.00036
2624.88,0.00036
2619.09,0.00032
2613.31,0.00016
2607.52,0.00063
2601.74,0.00009
2595.95,0.00029
2590.16,0.00036
2584.38,0.00027
2578.59,0.00011
2572.81,0.00037
2567.02,0.00052
2561.24,0.00021
2555.45,0.00015
2549.66,0.00033
2543.88,0.00045
2538.09,0.00063
2532.31,0.00048
2526.52,0.00063
2520.73,0.00128
2514.95,0.00130
2509.16,0.00105
2503.38,0.00163
2497.59,0.00167
2491.8,0.00159
2486.02,0.00153
2480.23,0.00143
2474.45,0.00153
2468.66,0.00225
2462.87,0.00283
2457.09,0.00374
2451.3,0.00482
2445.52,0.00525
2439.73,0.00584
2433.94,0.00591
2428.16,0.00599
2422.37,0.00629
2416.59,0.00672
2410.8,0.00670
2405.02,0.00714
2399.23,0.00736
2393.44,0.00678
2387.66,0.00635
2381.87,0.00548
2376.09,0.00484
2370.3,0.00416
2364.51,0.00389
2358.73,0.00394
2352.94,0.00513
2347.16,0.00511
2341.37,0.00397
2335.58,0.00291
2329.8,0.00248
2324.01,0.00235
2318.23,0.00277
2312.44,0.00382
2306.65,0.00489
2300.87,0.00574
2295.08,0.00650
2289.3,0.00652
2283.51,0.00631
2277.72,0.00653
2271.94,0.00641
2266.15,0.00593
2260.37,0.00528
2254.58,0.00525
2248.8,0.00483
2243.01,0.00460
2237.22,0.00469
2231.44,0.00409
2225.65,0.00325
2219.87,0.00283
2214.08,0.00279
2208.29,0.00269
2202.51,0.00265
2196.72,0.00220
2190.94,0.00184
2185.15,0.00167
2179.36,0.00165
2173.58,0.00182
2167.79,0.00161
2162.01,0.00149
2156.22,0.00150
2150.43,0.00155
2144.65,0.00192
2138.86,0.00203
2133.08,0.00225
2127.29,0.00277
2121.51,0.00307
2115.72,0.00314
2109.93,0.00322
2104.15,0.00338
2098.36,0.00320
2092.58,0.00340
2086.79,0.00378
2081,0.00418
2075.22,0.00461
2069.43,0.00479
2063.65,0.00475
2057.86,0.00448
2052.07,0.00461
2046.29,0.00538
2040.5,0.00607
2034.72,0.00664
2028.93,0.00712
2023.14,0.00853
2017.36,0.00984
2011.57,0.01041
2005.79,0.01025
2000,0.01048
1994.21,0.01139
1988.43,0.01240
1982.64,0.01258
1976.86,0.01243
1971.07,0.01186
1965.29,0.01206
1959.5,0.01361
1953.71,0.01490
1947.93,0.01594
1942.14,0.01702
1936.36,0.01744
1930.57,0.01729
1924.78,0.01698
1919,0.01717
1913.21,0.01629
1907.43,0.01413
1901.64,0.01256
1895.85,0.01136
1890.07,0.00928
1884.28,0.00746
1878.5,0.00729
1872.71,0.00784
1866.92,0.00875
1861.14,0.00919
1855.35,0.00867
1849.57,0.00791
1843.78,0.00683
1837.99,0.00616
1832.21,0.00511
1826.42,0.00420
1820.64,0.00321
1814.85,0.00274
1809.07,0.00209
1803.28,0.00154
1797.49,0.00095
1791.71,0.00064
1785.92,0.00043
1780.14,0.00017
1774.35,0.00011
1768.56,0.00011
1762.78,0.00015
1756.99,0.00015
1751.21,0.00013
1745.42,0.00009
1739.63,0.00027
1733.85,0.00048
1728.06,0.00046
1722.28,0.00043
1716.49,0.00036
1710.7,0.00005
1704.92,0.00014
1699.13,0.00029
1693.35,0.00026
1687.56,0.00028
1681.77,0.00015
1675.99,0.00021
1670.2,0.00024
1664.42,0.00024
1658.63,0.00034
1652.85,0.00054
1647.06,0.00033
1641.27,0.00016
1635.49,0.00034
1629.7,0.00018
1623.92,0.00032
1618.13,0.00021
1612.34,0.00035
1606.56,0.00034
1600.77,0.00024
1594.99,0.00025
1589.2,0.00014
1583.41,0.00031
1577.63,0.00027
1571.84,0.00031
1566.06,0.00015
1560.27,0.00037
1554.48,0.00047
1548.7,0.00052
1542.91,0.00027
1537.13,0.00034
1531.34,0.00017
1525.56,0.00038
1519.77,0.00006
1513.98,0.00008
1508.2,0.00028
1502.41,0.00040
1496.63,0.00043
1490.84,0.00009
1485.05,0.00027
1479.27,0.00048
1473.48,0.00025
1467.7,0.00033
1461.91,0.00047
1456.12,0.00019
1450.34,0.00035
1444.55,0.00028
1438.77,0.00034
1432.98,0.00025
1427.19,0.00024
1421.41,0.00030
1415.62,0.00029
1409.84,0.00017
1404.05,0.00016
1398.26,0.00053
1392.48,0.00044
1386.69,0.00027
1380.91,0.00054
1375.12,0.00035
1369.34,0.00030
1363.55,0.00006
1357.76,0.00033
1351.98,0.00049
1346.19,0.00040
1340.41,0.00022
1334.62,0.00027
1328.83,0.00024
1323.05,0.00019
1317.26,0.00046
1311.48,0.00034
1305.69,0.00027
1299.9,0.00052
1294.12,0.00037
1288.33,0.00028
1282.55,0.00035
1276.76,0.00031
1270.97,0.00010
1265.19,0.00020
1259.4,0.00031
1253.62,0.00034
1247.83,0.00015
1242.04,0.00025
1236.26,0.00049
1230.47,0.00023
1224.69,0.00039
1218.9,0.00027
1213.12,0.00028
1207.33,0.00053
1201.54,0.00054
1195.76,0.00064
1189.97,0.00040
1184.19,0.00045
1178.4,0.00070
1172.61,0.00009
1166.83,0.00018
1161.04,0.00044
1155.26,0.00039
1149.47,0.00038
1143.68,0.00014
1137.9,0.00028
1132.11,0.00055
1126.33,0.00059
1120.54,0.00044
1114.75,0.00083
1108.97,0.00038
1103.18,0.00055
1097.4,0.00055
1091.61,0.00054
1085.82,0.00057
1080.04,0.00073
1074.25,0.00039
1068.47,0.00074
1062.68,0.00013
1056.9,0.00066
1051.11,0.00039
1045.32,0.00048
1039.54,0.00035
1033.75,0.00112
1027.97,0.00055
1022.18,0.00078
1016.39,0.00049
1010.61,0.00023
1004.82,0.00067
999.036,0.00028
993.25,0.00033
987.464,0.00091
981.678,0.00063
975.892,0.00032
970.106,0.00024
964.32,0.00037
958.535,0.00060
952.749,0.00026
946.963,0.00057
941.177,0.00021
935.391,0.00077
929.605,0.00052
923.819,0.00074
918.033,0.00033
912.247,0.00012
906.461,0.00033
900.675,0.00060
894.889,0.00063
889.103,0.00023
883.318,0.00028
877.532,0.00112
871.746,0.00059
865.96,0.00036
860.174,0.00083
854.388,0.00062
848.602,0.00036
842.816,0.00054
837.03,0.00105
831.244,0.00024
825.458,0.00080
819.672,0.00095
813.886,0.00040
808.101,0.00035
802.315,0.00130
796.529,0.00081
790.743,0.00100
784.957,0.00066
779.171,0.00008
773.385,0.00080
767.599,0.00055
761.813,0.00075
756.027,0.00116
750.241,0.00080
744.455,0.00056
738.669,0.00046
732.884,0.00093
727.098,0.00023
721.312,0.00133
715.526,0.00075
709.74,0.00071
703.954,0.00045
698.168,0.00086
692.382,0.00077
686.596,0.00121
680.81,0.00086
675.024,0.00083
669.238,0.00070
663.452,0.00067
657.667,0.00094
651.881,0.00010
646.095,0.00168
640.309,0.00132
634.523,0.00155
628.737,0.00219
622.951,0.00068
617.165,0.00051
611.379,0.00155
605.593,0.00161
599.807,0.00160