File: 01_Data/Nylon/FTIR/IS/Nylon_3.175_T_IS_221212_R6.dpt
7497.02,0.03306
7491.23,0.03421
7485.45,0.02715
7479.66,0.02438
7473.87,0.02779
7468.09,0.02321
7462.3,0.02099
7456.51,0.01609
7450.73,0.03285
7444.94,0.02813
7439.16,0.03111
7433.37,0.03015
7427.58,0.01348
7421.8,0.02060
7416.01,0.02400
7410.22,0.02506
7404.44,0.02137
7398.65,0.02873
7392.87,0.02435
7387.08,0.02133
7381.29,0.02290
7375.51,0.02487
7369.72,0.02212
7363.93,0.03271
7358.15,0.02344
7352.36,0.02584
7346.58,0.02596
7340.79,0.01999
7335,0.02294
7329.22,0.02848
7323.43,0.02664
7317.65,0.01702
7311.86,0.02243
7306.07,0.02341
7300.29,0.02567
7294.5,0.02705
7288.71,0.01683
7282.93,0.01666
7277.14,0.03148
7271.36,0.02741
7265.57,0.02565
7259.78,0.03346
7254,0.01964
7248.21,0.02320
7242.42,0.02316
7236.64,0.01985
7230.85,0.02234
7225.07,0.02636
7219.28,0.01768
7213.49,0.02557
7207.71,0.02155
7201.92,0.02967
7196.13,0.02274
7190.35,0.03227
7184.56,0.02930
7178.78,0.02909
7172.99,0.02379
7167.2,0.02745
7161.42,0.02276
7155.63,0.02801
7149.84,0.01718
7144.06,0.02392
7138.27,0.01789
7132.49,0.02804
7126.7,0.02671
7120.91,0.01961
7115.13,0.02267
7109.34,0.02346
7103.55,0.03013
7097.77,0.01917
7091.98,0.02345
7086.2,0.01832
7080.41,0.02365
7074.62,0.02653
7068.84,0.02785
7063.05,0.02702
7057.26,0.02230
7051.48,0.02170
7045.69,0.02361
7039.91,0.02483
7034.12,0.02608
7028.33,0.02705
7022.55,0.02614
7016.76,0.01576
7010.98,0.02269
7005.19,0.02884
6999.4,0.02958
6993.62,0.02251
6987.83,0.01756
6982.04,0.02476
6976.26,0.02515
6970.47,0.02715
6964.69,0.02405
6958.9,0.01754
6953.11,0.02335
6947.33,0.01784
6941.54,0.02148
6935.75,0.01752
6929.97,0.01885
6924.18,0.02432
6918.4,0.01976
6912.61,0.02114
6906.82,0.02760
6901.04,0.02433
6895.25,0.02520
6889.46,0.02508
6883.68,0.02962
6877.89,0.03225
6872.11,0.02231
6866.32,0.02362
6860.53,0.02168
6854.75,0.02206
6848.96,0.02739
6843.17,0.01944
6837.39,0.02797
6831.6,0.01912
6825.82,0.02459
6820.03,0.02272
6814.24,0.02159
6808.46,0.02506
6802.67,0.02539
6796.88,0.02720
6791.1,0.02915
6785.31,0.02442
6779.53,0.02581
6773.74,0.02193
6767.95,0.02287
6762.17,0.02306
6756.38,0.02315
6750.6,0.02715
6744.81,0.02107
6739.02,0.02314
6733.24,0.02255
6727.45,0.02032
6721.66,0.02368
6715.88,0.02111
6710.09,0.02133
6704.31,0.02066
6698.52,0.02183
6692.73,0.02322
6686.95,0.02551
6681.16,0.02203
6675.37,0.01710
6669.59,0.02189
6663.8,0.02195
6658.02,0.02125
6652.23,0.02279
6646.44,0.02210
6640.66,0.02675
6634.87,0.02356
6629.08,0.01523
6623.3,0.01879
6617.51,0.02088
6611.73,0.02134
6605.94,0.02492
6600.15,0.02101
6594.37,0.02412
6588.58,0.02369
6582.79,0.02268
6577.01,0.02683
6571.22,0.02624
6565.44,0.03006
6559.65,0.02251
6553.86,0.02449
6548.08,0.02549
6542.29,0.02268
6536.5,0.02337
6530.72,0.02378
6524.93,0.02347
6519.15,0.02811
6513.36,0.02505
6507.57,0.02077
6501.79,0.02388
6496,0.02292
6490.21,0.01819
6484.43,0.02445
6478.64,0.02422
6472.86,0.02299
6467.07,0.02668
6461.28,0.02339
6455.5,0.02600
6449.71,0.02392
6443.93,0.02191
6438.14,0.02159
6432.35,0.02848
6426.57,0.02683
6420.78,0.02211
6414.99,0.02416
6409.21,0.02171
6403.42,0.02245
6397.64,0.02341
6391.85,0.02488
6386.06,0.02148
6380.28,0.02119
6374.49,0.02291
6368.7,0.02152
6362.92,0.02332
6357.13,0.02198
6351.35,0.02227
6345.56,0.02527
6339.77,0.02393
6333.99,0.02148
6328.2,0.02221
6322.41,0.01970
6316.63,0.02204
6310.84,0.02105
6305.06,0.02449
6299.27,0.02234
6293.48,0.02392
6287.7,0.02378
6281.91,0.02404
6276.12,0.02607
6270.34,0.02277
6264.55,0.02567
6258.77,0.02359
6252.98,0.02093
6247.19,0.02019
6241.41,0.02214
6235.62,0.02231
6229.83,0.02193
6224.05,0.01942
6218.26,0.02236
6212.48,0.02361
6206.69,0.02815
6200.9,0.02350
6195.12,0.02234
6189.33,0.02084
6183.55,0.02531
6177.76,0.02257
6171.97,0.02365
6166.19,0.02760
6160.4,0.02406
6154.61,0.01970
6148.83,0.02318
6143.04,0.02635
6137.26,0.02146
6131.47,0.02051
6125.68,0.02542
6119.9,0.02492
6114.11,0.02354
6108.32,0.02345
6102.54,0.02319
6096.75,0.02358
6090.97,0.02501
6085.18,0.02401
6079.39,0.01854
6073.61,0.02338
6067.82,0.02339
6062.03,0.02347
6056.25,0.02518
6050.46,0.02459
6044.68,0.02231
6038.89,0.02416
6033.1,0.02422
6027.32,0.01719
6021.53,0.02122
6015.74,0.02463
6009.96,0.02278
6004.17,0.02360
5998.39,0.02738
5992.6,0.02326
5986.81,0.02124
5981.03,0.02169
5975.24,0.01970
5969.45,0.02170
5963.67,0.02258
5957.88,0.02176
5952.1,0.02371
5946.31,0.02469
5940.52,0.02248
5934.74,0.01901
5928.95,0.02240
5923.16,0.02284
5917.38,0.02377
5911.59,0.02195
5905.81,0.02309
5900.02,0.02436
5894.23,0.02455
5888.45,0.02322
5882.66,0.02100
5876.88,0.02293
5871.09,0.02322
5865.3,0.02330
5859.52,0.02139
5853.73,0.01879
5847.94,0.02082
5842.16,0.02254
5836.37,0.02298
5830.59,0.02448
5824.8,0.01969
5819.01,0.02399
5813.23,0.02172
5807.44,0.02338
5801.65,0.02361
5795.87,0.02153
5790.08,0.02261
5784.3,0.02340
5778.51,0.02359
5772.72,0.02099
5766.94,0.02091
5761.15,0.02320
5755.36,0.02294
5749.58,0.02316
5743.79,0.02374
5738.01,0.02186
5732.22,0.02292
5726.43,0.02184
5720.65,0.02246
5714.86,0.02278
5709.07,0.02339
5703.29,0.02308
5697.5,0.02349
5691.72,0.02239
5685.93,0.02317
5680.14,0.02364
5674.36,0.02153
5668.57,0.02281
5662.78,0.02170
5657,0.02281
5651.21,0.02359
5645.43,0.02401
5639.64,0.02311
5633.85,0.02276
5628.07,0.02205
5622.28,0.02086
5616.5,0.02414
5610.71,0.02275
5604.92,0.02124
5599.14,0.02098
5593.35,0.02413
5587.56,0.02442
5581.78,0.02403
5575.99,0.02262
5570.21,0.02281
5564.42,0.02292
5558.63,0.02325
5552.85,0.02281
5547.06,0.02391
5541.27,0.02299
5535.49,0.02214
5529.7,0.02414
5523.92,0.02447
5518.13,0.02308
5512.34,0.02441
5506.56,0.02385
5500.77,0.02357
5494.98,0.02311
5489.2,0.02235
5483.41,0.02350
5477.63,0.02430
5471.84,0.02366
5466.05,0.02464
5460.27,0.02413
5454.48,0.02345
5448.69,0.02215
5442.91,0.02388
5437.12,0.02184
5431.34,0.02361
5425.55,0.02262
5419.76,0.02470
5413.98,0.02393
5408.19,0.02455
5402.4,0.02263
5396.62,0.02271
5390.83,0.02445
5385.05,0.02257
5379.26,0.02334
5373.47,0.02196
5367.69,0.02385
5361.9,0.02320
5356.11,0.02404
5350.33,0.02426
5344.54,0.02314
5338.76,0.02339
5332.97,0.02278
5327.18,0.02222
5321.4,0.02378
5315.61,0.02437
5309.83,0.02378
5304.04,0.02408
5298.25,0.02236
5292.47,0.02289
5286.68,0.02375
5280.89,0.02334
5275.11,0.02196
5269.32,0.02264
5263.54,0.02340
5257.75,0.02289
5251.96,0.02375
5246.18,0.02309
5240.39,0.02347
5234.6,0.02230
5228.82,0.02322
5223.03,0.02312
5217.25,0.02221
5211.46,0.02274
5205.67,0.02231
5199.89,0.02424
5194.1,0.02355
5188.31,0.02310
5182.53,0.02395
5176.74,0.02338
5170.96,0.02416
5165.17,0.02296
5159.38,0.02278
5153.6,0.02315
5147.81,0.02483
5142.02,0.02342
5136.24,0.02174
5130.45,0.02303
5124.67,0.02350
5118.88,0.02368
5113.09,0.02248
5107.31,0.02300
5101.52,0.02296
5095.73,0.02329
5089.95,0.02403
5084.16,0.02343
5078.38,0.02323
5072.59,0.02267
5066.8,0.02187
5061.02,0.02417
5055.23,0.02467
5049.45,0.02337
5043.66,0.02313
5037.87,0.02319
5032.09,0.02281
5026.3,0.02388
5020.51,0.02335
5014.73,0.02501
5008.94,0.02379
5003.16,0.02241
4997.37,0.02459
4991.58,0.02301
4985.8,0.02416
4980.01,0.02491
4974.22,0.02279
4968.44,0.02365
4962.65,0.02351
4956.87,0.02298
4951.08,0.02270
4945.29,0.02469
4939.51,0.02323
4933.72,0.02371
4927.93,0.02435
4922.15,0.02298
4916.36,0.02356
4910.58,0.02446
4904.79,0.02290
4899,0.02256
4893.22,0.02282
4887.43,0.02265
4881.64,0.02358
4875.86,0.02356
4870.07,0.02360
4864.29,0.02482
4858.5,0.02246
4852.71,0.02297
4846.93,0.02309
4841.14,0.02242
4835.35,0.02291
4829.57,0.02256
4823.78,0.02348
4818,0.02394
4812.21,0.02371
4806.42,0.02331
4800.64,0.02409
4794.85,0.02282
4789.06,0.02296
4783.28,0.02217
4777.49,0.02360
4771.71,0.02394
4765.92,0.02373
4760.13,0.02231
4754.35,0.02364
4748.56,0.02442
4742.78,0.02419
4736.99,0.02385
4731.2,0.02324
4725.42,0.02350
4719.63,0.02306
4713.84,0.02376
4708.06,0.02289
4702.27,0.02423
4696.49,0.02420
4690.7,0.02370
4684.91,0.02318
4679.13,0.02453
4673.34,0.02340
4667.55,0.02331
4661.77,0.02361
4655.98,0.02392
4650.2,0.02330
4644.41,0.02414
4638.62,0.02352
4632.84,0.02254
4627.05,0.02346
4621.26,0.02345
4615.48,0.02359
4609.69,0.02358
4603.91,0.02322
4598.12,0.02367
4592.33,0.02405
4586.55,0.02300
4580.76,0.02336
4574.97,0.02320
4569.19,0.02189
4563.4,0.02351
4557.62,0.02323
4551.83,0.02323
4546.04,0.02359
4540.26,0.02353
4534.47,0.02381
4528.68,0.02279
4522.9,0.02430
4517.11,0.02380
4511.33,0.02429
4505.54,0.02372
4499.75,0.02361
4493.97,0.02395
4488.18,0.02356
4482.4,0.02312
4476.61,0.02397
4470.82,0.02419
4465.04,0.02396
4459.25,0.02290
4453.46,0.02357
4447.68,0.02372
4441.89,0.02348
4436.11,0.02436
4430.32,0.02364
4424.53,0.02368
4418.75,0.02352
4412.96,0.02410
4407.17,0.02434
4401.39,0.02304
4395.6,0.02349
4389.82,0.02463
4384.03,0.02403
4378.24,0.02330
4372.46,0.02329
4366.67,0.02398
4360.88,0.02361
4355.1,0.02314
4349.31,0.02392
4343.53,0.02388
4337.74,0.02323
4331.95,0.02404
4326.17,0.02376
4320.38,0.02394
4314.59,0.02322
4308.81,0.02368
4303.02,0.02347
4297.24,0.02369
4291.45,0.02234
4285.66,0.02309
4279.88,0.02453
4274.09,0.02360
4268.3,0.02407
4262.52,0.02303
4256.73,0.02417
4250.95,0.02317
4245.16,0.02426
4239.37,0.02380
4233.59,0.02416
4227.8,0.02393
4222.02,0.02440
4216.23,0.02410
4210.44,0.02349
4204.66,0.02322
4198.87,0.02412
4193.08,0.02425
4187.3,0.02353
4181.51,0.02352
4175.73,0.02439
4169.94,0.02439
4164.15,0.02378
4158.37,0.02371
4152.58,0.02394
4146.79,0.02436
4141.01,0.02391
4135.22,0.02366
4129.44,0.02341
4123.65,0.02281
4117.86,0.02419
4112.08,0.02378
4106.29,0.02400
4100.5,0.02373
4094.72,0.02364
4088.93,0.02379
4083.15,0.02473
4077.36,0.02412
4071.57,0.02373
4065.79,0.02404
4060,0.02382
4054.21,0.02352
4048.43,0.02381
4042.64,0.02415
4036.86,0.02417
4031.07,0.02418
4025.28,0.02348
4019.5,0.02391
4013.71,0.02455
4007.92,0.02456
4002.14,0.02377
3996.35,0.02438
3990.57,0.02342
3984.78,0.02342
3978.99,0.02407
3973.21,0.02344
3967.42,0.02381
3961.63,0.02383
3955.85,0.02406
3950.06,0.02421
3944.28,0.02404
3938.49,0.02369
3932.7,0.02393
3926.92,0.02432
3921.13,0.02393
3915.35,0.02365
3909.56,0.02381
3903.77,0.02337
3897.99,0.02349
3892.2,0.02375
3886.41,0.02399
3880.63,0.02383
3874.84,0.02433
3869.06,0.02317
3863.27,0.02468
3857.48,0.02432
3851.7,0.02402
3845.91,0.02419
3840.12,0.02455
3834.34,0.02487
3828.55,0.02464
3822.77,0.02438
3816.98,0.02312
3811.19,0.02376
3805.41,0.02429
3799.62,0.02406
3793.83,0.02422
3788.05,0.02379
3782.26,0.02411
3776.48,0.02411
3770.69,0.02455
3764.9,0.02422
3759.12,0.02406
3753.33,0.02398
3747.54,0.02419
3741.76,0.02428
3735.97,0.02439
3730.19,0.02442
3724.4,0.02361
3718.61,0.02361
3712.83,0.02431
3707.04,0.02452
3701.25,0.02421
3695.47,0.02416
3689.68,0.02375
3683.9,0.02402
3678.11,0.02397
3672.32,0.02332
3666.54,0.02322
3660.75,0.02331
3654.97,0.02325
3649.18,0.02374
3643.39,0.02396
3637.61,0.02356
3631.82,0.02413
3626.03,0.02305
3620.25,0.02322
3614.46,0.02426
3608.68,0.02337
3602.89,0.02285
3597.1,0.02304
3591.32,0.02353
3585.53,0.02298
3579.74,0.02325
3573.96,0.02298
3568.17,0.02329
3562.39,0.02333
3556.6,0.02237
3550.81,0.02278
3545.03,0.02238
3539.24,0.02231
3533.45,0.02269
3527.67,0.02208
3521.88,0.02225
3516.1,0.02314
3510.31,0.02221
3504.52,0.02192
3498.74,0.02248
3492.95,0.02213
3487.16,0.02312
3481.38,0.02204
3475.59,0.02239
3469.81,0.02322
3464.02,0.02297
3458.23,0.02179
3452.45,0.02223
3446.66,0.02215
3440.87,0.02256
3435.09,0.02270
3429.3,0.02264
3423.52,0.02182
3417.73,0.02241
3411.94,0.02213
3406.16,0.02222
3400.37,0.02130
3394.58,0.02139
3388.8,0.02248
3383.01,0.02186
3377.23,0.02143
3371.44,0.02144
3365.65,0.02179
3359.87,0.02143
3354.08,0.02173
3348.3,0.02079
3342.51,0.02129
3336.72,0.02098
3330.94,0.02192
3325.15,0.02157
3319.36,0.02230
3313.58,0.02131
3307.79,0.02113
3302.01,0.02108
3296.22,0.02111
3290.43,0.02109
3284.65,0.02134
3278.86,0.02131
3273.07,0.02236
3267.29,0.02190
3261.5,0.02162
3255.72,0.02216
3249.93,0.02212
3244.14,0.02136
3238.36,0.02225
3232.57,0.02217
3226.78,0.02154
3221,0.02251
3215.21,0.02116
3209.43,0.02154
3203.64,0.02253
3197.85,0.02259
3192.07,0.02202
3186.28,0.02161
3180.49,0.02187
3174.71,0.02186
3168.92,0.02244
3163.14,0.02246
3157.35,0.02206
3151.56,0.02258
3145.78,0.02178
3139.99,0.02217
3134.2,0.02240
3128.42,0.02286
3122.63,0.02176
3116.85,0.02324
3111.06,0.02218
3105.27,0.02205
3099.49,0.02257
3093.7,0.02155
3087.92,0.02206
3082.13,0.02191
3076.34,0.02197
3070.56,0.02210
3064.77,0.02227
3058.98,0.02202
3053.2,0.02187
3047.41,0.02213
3041.63,0.02243
3035.84,0.02190
3030.05,0.02188
3024.27,0.02220
3018.48,0.02209
3012.69,0.02235
3006.91,0.02215
3001.12,0.02225
2995.34,0.02203
2989.55,0.02179
2983.76,0.02136
2977.98,0.02142
2972.19,0.02077
2966.4,0.02123
2960.62,0.02157
2954.83,0.02151
2949.05,0.02136
2943.26,0.02114
2937.47,0.02167
2931.69,0.02159
2925.9,0.02143
2920.11,0.02170
2914.33,0.02166
2908.54,0.02254
2902.76,0.02180
2896.97,0.02205
2891.18,0.02193
2885.4,0.02203
2879.61,0.02208
2873.82,0.02205
2868.04,0.02212
2862.25,0.02185
2856.47,0.02258
2850.68,0.02242
2844.89,0.02219
2839.11,0.02308
2833.32,0.02266
2827.53,0.02239
2821.75,0.02311
2815.96,0.02282
2810.18,0.02299
2804.39,0.02306
2798.6,0.02259
2792.82,0.02259
2787.03,0.02228
2781.25,0.02298
2775.46,0.02336
2769.67,0.02310
2763.89,0.02282
2758.1,0.02300
2752.31,0.02330
2746.53,0.02311
2740.74,0.02280
2734.96,0.02267
2729.17,0.02292
2723.38,0.02267
2717.6,0.02331
2711.81,0.02321
2706.02,0.02304
2700.24,0.02260
2694.45,0.02288
2688.67,0.02292
2682.88,0.02320
2677.09,0.02312
2671.31,0.02293
2665.52,0.02294
2659.73,0.02285
2653.95,0.02342
2648.16,0.02334
2642.38,0.02348
2636.59,0.02322
2630.8,0.02290
2625.02,0.02298
2619.23,0.02278
2613.44,0.02287
2607.66,0.02321
2601.87,0.02315
2596.09,0.02309
2590.3,0.02298
2584.51,0.02324
2578.73,0.02309
2572.94,0.02314
2567.15,0.02307
2561.37,0.02273
2555.58,0.02263
2549.8,0.02289
2544.01,0.02264
2538.22,0.02285
2532.44,0.02283
2526.65,0.02262
2520.87,0.02305
2515.08,0.02289
2509.29,0.02295
2503.51,0.02295
2497.72,0.02325
2491.93,0.02301
2486.15,0.02301
2480.36,0.02341
2474.58,0.02311
2468.79,0.02315
2463,0.02285
2457.22,0.02283
2451.43,0.02284
2445.64,0.02249
2439.86,0.02316
2434.07,0.02311
2428.29,0.02322
2422.5,0.02308
2416.71,0.02325
2410.93,0.02311
2405.14,0.02299
2399.35,0.02278
2393.57,0.02298
2387.78,0.02327
2382,0.02282
2376.21,0.02290
2370.42,0.02306
2364.64,0.02358
2358.85,0.02321
2353.06,0.02309
2347.28,0.02316
2341.49,0.02294
2335.71,0.02293
2329.92,0.02306
2324.13,0.02274
2318.35,0.02254
2312.56,0.02276
2306.77,0.02314
2300.99,0.02291
2295.2,0.02342
2289.42,0.02308
2283.63,0.02313
2277.84,0.02293
2272.06,0.02269
2266.27,0.02322
2260.48,0.02288
2254.7,0.02294
2248.91,0.02270
2243.13,0.02292
2237.34,0.02276
2231.55,0.02323
2225.77,0.02305
2219.98,0.02279
2214.2,0.02310
2208.41,0.02291
2202.62,0.02264
2196.84,0.02260
2191.05,0.02295
2185.26,0.02298
2179.48,0.02309
2173.69,0.02320
2167.91,0.02301
2162.12,0.02279
2156.33,0.02262
2150.55,0.02284
2144.76,0.02324
2138.97,0.02281
2133.19,0.02261
2127.4,0.02298
2121.62,0.02312
2115.83,0.02306
2110.04,0.02285
2104.26,0.02261
2098.47,0.02280
2092.68,0.02276
2086.9,0.02274
2081.11,0.02285
2075.33,0.02261
2069.54,0.02270
2063.75,0.02277
2057.97,0.02281
2052.18,0.02287
2046.39,0.02258
2040.61,0.02263
2034.82,0.02333
2029.04,0.02273
2023.25,0.02264
2017.46,0.02278
2011.68,0.02274
2005.89,0.02269
2000.1,0.02253
1994.32,0.02292
1988.53,0.02255
1982.75,0.02247
1976.96,0.02253
1971.17,0.02248
1965.39,0.02275
1959.6,0.02289
1953.82,0.02269
1948.03,0.02276
1942.24,0.02270
1936.46,0.02262
1930.67,0.02253
1924.88,0.02257
1919.1,0.02268
1913.31,0.02251
1907.53,0.02277
1901.74,0.02244
1895.95,0.02218
1890.17,0.02241
1884.38,0.02265
1878.59,0.02226
1872.81,0.02242
1867.02,0.02200
1861.24,0.02240
1855.45,0.02214
1849.66,0.02224
1843.88,0.02211
1838.09,0.02220
1832.3,0.02196
1826.52,0.02186
1820.73,0.02186
1814.95,0.02174
1809.16,0.02170
1803.37,0.02166
1797.59,0.02139
1791.8,0.02145
1786.01,0.02119
1780.23,0.02069
1774.44,0.02080
1768.66,0.02055
1762.87,0.01992
1757.08,0.01972
1751.3,0.01878
1745.51,0.01916
1739.72,0.02009
1733.94,0.02130
1728.15,0.02178
1722.37,0.02215
1716.58,0.02218
1710.79,0.02219
1705.01,0.02181
1699.22,0.02155
1693.43,0.02094
1687.65,0.02104
1681.86,0.02049
1676.08,0.02065
1670.29,0.02062
1664.5,0.02015
1658.72,0.02011
1652.93,0.02071
1647.15,0.02028
1641.36,0.02017
1635.57,0.01997
1629.79,0.02050
1624,0.02069
1618.21,0.02069
1612.43,0.02039
1606.64,0.02017
1600.86,0.02040
1595.07,0.02077
1589.28,0.02039
1583.5,0.01980
1577.71,0.02012
1571.92,0.01989
1566.14,0.01982
1560.35,0.01996
1554.57,0.01915
1548.78,0.01987
1542.99,0.02008
1537.21,0.01991
1531.42,0.01985
1525.63,0.02026
1519.85,0.02057
1514.06,0.02025
1508.28,0.02024
1502.49,0.02019
1496.7,0.02009
1490.92,0.02068
1485.13,0.02033
1479.34,0.02004
1473.56,0.01953
1467.77,0.02011
1461.99,0.02034
1456.2,0.02010
1450.41,0.02035
1444.63,0.02032
1438.84,0.02044
1433.05,0.02033
1427.27,0.02010
1421.48,0.02042
1415.7,0.01999
1409.91,0.01964
1404.12,0.01958
1398.34,0.01967
1392.55,0.01937
1386.77,0.01974
1380.98,0.01979
1375.19,0.01987
1369.41,0.01955
1363.62,0.01981
1357.83,0.01965
1352.05,0.01960
1346.26,0.01960
1340.48,0.01944
1334.69,0.01948
1328.9,0.01905
1323.12,0.01869
1317.33,0.01839
1311.54,0.01836
1305.76,0.01825
1299.97,0.01906
1294.19,0.01920
1288.4,0.01957
1282.61,0.02052
1276.83,0.02025
1271.04,0.02079
1265.25,0.02102
1259.47,0.02116
1253.68,0.02168
1247.9,0.02211
1242.11,0.02128
1236.32,0.02153
1230.54,0.02171
1224.75,0.02123
1218.96,0.02078
1213.18,0.02078
1207.39,0.02078
1201.61,0.01981
1195.82,0.01957
1190.03,0.01998
1184.25,0.01985
1178.46,0.01924
1172.67,0.01944
1166.89,0.01922
1161.1,0.01914
1155.32,0.01901
1149.53,0.01893
1143.74,0.01902
1137.96,0.01942
1132.17,0.01908
1126.38,0.01992
1120.6,0.02016
1114.81,0.02042
1109.03,0.01995
1103.24,0.01974
1097.45,0.02029
1091.67,0.01947
1085.88,0.01969
1080.1,0.01960
1074.31,0.02141
1068.52,0.02236
1062.74,0.02129
1056.95,0.02142
1051.16,0.02075
1045.38,0.02065
1039.59,0.02115
1033.81,0.02099
1028.02,0.02161
1022.23,0.02051
1016.45,0.02049
1010.66,0.02143
1004.87,0.02260
999.088,0.02211
993.302,0.02326
987.516,0.02205
981.729,0.02266
975.943,0.02229
970.157,0.02147
964.371,0.02132
958.585,0.02175
952.798,0.02215
947.012,0.02092
941.226,0.02145
935.44,0.02182
929.653,0.02048
923.867,0.02121
918.081,0.02161
912.295,0.02179
906.508,0.02137
900.722,0.02119
894.936,0.02070
889.15,0.02088
883.364,0.02068
877.577,0.02052
871.791,0.02064
866.005,0.02024
860.219,0.02078
854.432,0.02027
848.646,0.02052
842.86,0.02026
837.074,0.02098
831.288,0.02101
825.501,0.02039
819.715,0.02056
813.929,0.02063
808.143,0.02011
802.356,0.02082
796.57,0.02042
790.784,0.02016
784.998,0.02023
779.212,0.02005
773.425,0.01980
767.639,0.01975
761.853,0.01972
756.067,0.01940
750.28,0.01853
744.494,0.01879
738.708,0.01981
732.922,0.01981
727.136,0.01899
721.349,0.02020
715.563,0.01944
709.777,0.02021
703.991,0.01951
698.204,0.01902
692.418,0.01916
686.632,0.01964
680.846,0.01925
675.059,0.01872
669.273,0.01940
663.487,0.01820
657.701,0.01873
651.915,0.01928
646.128,0.01807
640.342,0.01739
634.556,0.01855
628.77,0.01654
622.983,0.01760
617.197,0.01954
611.411,0.01729
605.625,0.01755
599.839,0.01940