File: 01_Data/Nylon/FTIR/IS/Nylon_3.175_Trans_S_IS_221212_R3.dpt
7497.02,0.59071
7491.23,0.59106
7485.45,0.58705
7479.66,0.58821
7473.87,0.58714
7468.09,0.59178
7462.3,0.58874
7456.51,0.57670
7450.73,0.59157
7444.94,0.59668
7439.16,0.58743
7433.37,0.58084
7427.58,0.58007
7421.8,0.57976
7416.01,0.57614
7410.22,0.57980
7404.44,0.58201
7398.65,0.58563
7392.87,0.58063
7387.08,0.57141
7381.29,0.57839
7375.51,0.57403
7369.72,0.57247
7363.93,0.56615
7358.15,0.56215
7352.36,0.56225
7346.58,0.54852
7340.79,0.55077
7335,0.54839
7329.22,0.53597
7323.43,0.53112
7317.65,0.53068
7311.86,0.52183
7306.07,0.51567
7300.29,0.51164
7294.5,0.50256
7288.71,0.50832
7282.93,0.49752
7277.14,0.49356
7271.36,0.47894
7265.57,0.47450
7259.78,0.45610
7254,0.45146
7248.21,0.44598
7242.42,0.43238
7236.64,0.43609
7230.85,0.41966
7225.07,0.42364
7219.28,0.42364
7213.49,0.41856
7207.71,0.41317
7201.92,0.41353
7196.13,0.41034
7190.35,0.41601
7184.56,0.41958
7178.78,0.42500
7172.99,0.42559
7167.2,0.42998
7161.42,0.42115
7155.63,0.42132
7149.84,0.42020
7144.06,0.40664
7138.27,0.41543
7132.49,0.40820
7126.7,0.41111
7120.91,0.40328
7115.13,0.40953
7109.34,0.40563
7103.55,0.40079
7097.77,0.40089
7091.98,0.40273
7086.2,0.39788
7080.41,0.40147
7074.62,0.40449
7068.84,0.39693
7063.05,0.40185
7057.26,0.40187
7051.48,0.40012
7045.69,0.40089
7039.91,0.40416
7034.12,0.40017
7028.33,0.40066
7022.55,0.40410
7016.76,0.40603
7010.98,0.39822
7005.19,0.39925
6999.4,0.40035
6993.62,0.40160
6987.83,0.40885
6982.04,0.41040
6976.26,0.41476
6970.47,0.40930
6964.69,0.40639
6958.9,0.41401
6953.11,0.41026
6947.33,0.41552
6941.54,0.41358
6935.75,0.41748
6929.97,0.41322
6924.18,0.42001
6918.4,0.42132
6912.61,0.42334
6906.82,0.43406
6901.04,0.42442
6895.25,0.42137
6889.46,0.42572
6883.68,0.42964
6877.89,0.42784
6872.11,0.43030
6866.32,0.43135
6860.53,0.42760
6854.75,0.42994
6848.96,0.42897
6843.17,0.42698
6837.39,0.42644
6831.6,0.42774
6825.82,0.42844
6820.03,0.42958
6814.24,0.42642
6808.46,0.42735
6802.67,0.42591
6796.88,0.42630
6791.1,0.42414
6785.31,0.41439
6779.53,0.41361
6773.74,0.40460
6767.95,0.40682
6762.17,0.40011
6756.38,0.39929
6750.6,0.39529
6744.81,0.39318
6739.02,0.39308
6733.24,0.39265
6727.45,0.38713
6721.66,0.38885
6715.88,0.38539
6710.09,0.37822
6704.31,0.37766
6698.52,0.37879
6692.73,0.37363
6686.95,0.36947
6681.16,0.37043
6675.37,0.36696
6669.59,0.35995
6663.8,0.35765
6658.02,0.35126
6652.23,0.33848
6646.44,0.33494
6640.66,0.32968
6634.87,0.31749
6629.08,0.30878
6623.3,0.30061
6617.51,0.29366
6611.73,0.29401
6605.94,0.28963
6600.15,0.29260
6594.37,0.29363
6588.58,0.29665
6582.79,0.29149
6577.01,0.29395
6571.22,0.28992
6565.44,0.28957
6559.65,0.28709
6553.86,0.27674
6548.08,0.27016
6542.29,0.26215
6536.5,0.25411
6530.72,0.24957
6524.93,0.24295
6519.15,0.23433
6513.36,0.23226
6507.57,0.23273
6501.79,0.23131
6496,0.23160
6490.21,0.23427
6484.43,0.23675
6478.64,0.24169
6472.86,0.25049
6467.07,0.26716
6461.28,0.29197
6455.5,0.31610
6449.71,0.34065
6443.93,0.35617
6438.14,0.36451
6432.35,0.37236
6426.57,0.37567
6420.78,0.37788
6414.99,0.37833
6409.21,0.37718
6403.42,0.36984
6397.64,0.36618
6391.85,0.35348
6386.06,0.34677
6380.28,0.33592
6374.49,0.33262
6368.7,0.32441
6362.92,0.32081
6357.13,0.31361
6351.35,0.31191
6345.56,0.31342
6339.77,0.32305
6333.99,0.32577
6328.2,0.33505
6322.41,0.34803
6316.63,0.35845
6310.84,0.36867
6305.06,0.37649
6299.27,0.38112
6293.48,0.38216
6287.7,0.37840
6281.91,0.36977
6276.12,0.36454
6270.34,0.35673
6264.55,0.34965
6258.77,0.34811
6252.98,0.33956
6247.19,0.34026
6241.41,0.34076
6235.62,0.34225
6229.83,0.33982
6224.05,0.34635
6218.26,0.35390
6212.48,0.36067
6206.69,0.37325
6200.9,0.37838
6195.12,0.38349
6189.33,0.39156
6183.55,0.39964
6177.76,0.40786
6171.97,0.42097
6166.19,0.43717
6160.4,0.45013
6154.61,0.46049
6148.83,0.46740
6143.04,0.47549
6137.26,0.48011
6131.47,0.48620
6125.68,0.48985
6119.9,0.49273
6114.11,0.49601
6108.32,0.49808
6102.54,0.50210
6096.75,0.50273
6090.97,0.50343
6085.18,0.50467
6079.39,0.50253
6073.61,0.49975
6067.82,0.49954
6062.03,0.49558
6056.25,0.49812
6050.46,0.49737
6044.68,0.49501
6038.89,0.49406
6033.1,0.49589
6027.32,0.49246
6021.53,0.48776
6015.74,0.48447
6009.96,0.48468
6004.17,0.47980
5998.39,0.47708
5992.6,0.47162
5986.81,0.46723
5981.03,0.46286
5975.24,0.45632
5969.45,0.44907
5963.67,0.44247
5957.88,0.43308
5952.1,0.42567
5946.31,0.41204
5940.52,0.39685
5934.74,0.38154
5928.95,0.36298
5923.16,0.33876
5917.38,0.31500
5911.59,0.28793
5905.81,0.25572
5900.02,0.22867
5894.23,0.19921
5888.45,0.17104
5882.66,0.14387
5876.88,0.12276
5871.09,0.10504
5865.3,0.08826
5859.52,0.07317
5853.73,0.05999
5847.94,0.04309
5842.16,0.03854
5836.37,0.03602
5830.59,0.03598
5824.8,0.03503
5819.01,0.03587
5813.23,0.04122
5807.44,0.04620
5801.65,0.05307
5795.87,0.05930
5790.08,0.06394
5784.3,0.07161
5778.51,0.08001
5772.72,0.08606
5766.94,0.09146
5761.15,0.09286
5755.36,0.08945
5749.58,0.08486
5743.79,0.07971
5738.01,0.07178
5732.22,0.06521
5726.43,0.06044
5720.65,0.05648
5714.86,0.05322
5709.07,0.05390
5703.29,0.05459
5697.5,0.05771
5691.72,0.06157
5685.93,0.06782
5680.14,0.07630
5674.36,0.08489
5668.57,0.09491
5662.78,0.10540
5657,0.11381
5651.21,0.12367
5645.43,0.13253
5639.64,0.14353
5633.85,0.15200
5628.07,0.15958
5622.28,0.16646
5616.5,0.17130
5610.71,0.17337
5604.92,0.17619
5599.14,0.17809
5593.35,0.18084
5587.56,0.18285
5581.78,0.18571
5575.99,0.19038
5570.21,0.19403
5564.42,0.19610
5558.63,0.19746
5552.85,0.20190
5547.06,0.20311
5541.27,0.20505
5535.49,0.20955
5529.7,0.21038
5523.92,0.21131
5518.13,0.21694
5512.34,0.22065
5506.56,0.22282
5500.77,0.22576
5494.98,0.22707
5489.2,0.23091
5483.41,0.23500
5477.63,0.23868
5471.84,0.24135
5466.05,0.24220
5460.27,0.24190
5454.48,0.24608
5448.69,0.24745
5442.91,0.24877
5437.12,0.25405
5431.34,0.25587
5425.55,0.25735
5419.76,0.25979
5413.98,0.25738
5408.19,0.26369
5402.4,0.27300
5396.62,0.27849
5390.83,0.28502
5385.05,0.29179
5379.26,0.29780
5373.47,0.30047
5367.69,0.30590
5361.9,0.30756
5356.11,0.31051
5350.33,0.31157
5344.54,0.30832
5338.76,0.30724
5332.97,0.30951
5327.18,0.30584
5321.4,0.30436
5315.61,0.29777
5309.83,0.28870
5304.04,0.27466
5298.25,0.25768
5292.47,0.24196
5286.68,0.22812
5280.89,0.21951
5275.11,0.21256
5269.32,0.20423
5263.54,0.19340
5257.75,0.18823
5251.96,0.17963
5246.18,0.17009
5240.39,0.16330
5234.6,0.15485
5228.82,0.14469
5223.03,0.13736
5217.25,0.12879
5211.46,0.12013
5205.67,0.10905
5199.89,0.10008
5194.1,0.09149
5188.31,0.08489
5182.53,0.07830
5176.74,0.07334
5170.96,0.06838
5165.17,0.06432
5159.38,0.06049
5153.6,0.05718
5147.81,0.05529
5142.02,0.05325
5136.24,0.05264
5130.45,0.05190
5124.67,0.05233
5118.88,0.05327
5113.09,0.05536
5107.31,0.05715
5101.52,0.05999
5095.73,0.06296
5089.95,0.06606
5084.16,0.06952
5078.38,0.07269
5072.59,0.07637
5066.8,0.07908
5061.02,0.08253
5055.23,0.08647
5049.45,0.08958
5043.66,0.09238
5037.87,0.09491
5032.09,0.09661
5026.3,0.09700
5020.51,0.09823
5014.73,0.09582
5008.94,0.09198
5003.16,0.08653
4997.37,0.07576
4991.58,0.06549
4985.8,0.05302
4980.01,0.04279
4974.22,0.03366
4968.44,0.02943
4962.65,0.02918
4956.87,0.03038
4951.08,0.02984
4945.29,0.03248
4939.51,0.03100
4933.72,0.03119
4927.93,0.03023
4922.15,0.02811
4916.36,0.02469
4910.58,0.01894
4904.79,0.01333
4899,0.00963
4893.22,0.00591
4887.43,0.00432
4881.64,0.00301
4875.86,0.00127
4870.07,0.00180
4864.29,0.00252
4858.5,0.00367
4852.71,0.00899
4846.93,0.01491
4841.14,0.02461
4835.35,0.03613
4829.57,0.04984
4823.78,0.05832
4818,0.06568
4812.21,0.06953
4806.42,0.06878
4800.64,0.06675
4794.85,0.06381
4789.06,0.06319
4783.28,0.06332
4777.49,0.06265
4771.71,0.06100
4765.92,0.05945
4760.13,0.05664
4754.35,0.05216
4748.56,0.04813
4742.78,0.04537
4736.99,0.04093
4731.2,0.03659
4725.42,0.03260
4719.63,0.02617
4713.84,0.02177
4708.06,0.01784
4702.27,0.01414
4696.49,0.01281
4690.7,0.01127
4684.91,0.01087
4679.13,0.01057
4673.34,0.01041
4667.55,0.01023
4661.77,0.01080
4655.98,0.01021
4650.2,0.00996
4644.41,0.00932
4638.62,0.00814
4632.84,0.00708
4627.05,0.00599
4621.26,0.00468
4615.48,0.00447
4609.69,0.00297
4603.91,0.00266
4598.12,0.00162
4592.33,0.00128
4586.55,0.00168
4580.76,0.00106
4574.97,0.00200
4569.19,0.00155
4563.4,0.00138
4557.62,0.00146
4551.83,0.00229
4546.04,0.00200
4540.26,0.00262
4534.47,0.00232
4528.68,0.00281
4522.9,0.00298
4517.11,0.00384
4511.33,0.00520
4505.54,0.00598
4499.75,0.00648
4493.97,0.00680
4488.18,0.00724
4482.4,0.00670
4476.61,0.00647
4470.82,0.00703
4465.04,0.00588
4459.25,0.00546
4453.46,0.00508
4447.68,0.00345
4441.89,0.00346
4436.11,0.00236
4430.32,0.00160
4424.53,0.00134
4418.75,0.00093
4412.96,0.00039
4407.17,0.00045
4401.39,0.00033
4395.6,0.00090
4389.82,0.00044
4384.03,0.00040
4378.24,0.00084
4372.46,0.00064
4366.67,0.00060
4360.88,0.00075
4355.1,0.00014
4349.31,0.00006
4343.53,0.00076
4337.74,0.00048
4331.95,0.00002
4326.17,0.00030
4320.38,0.00071
4314.59,-0.00009
4308.81,0.00107
4303.02,0.00073
4297.24,0.00051
4291.45,0.00076
4285.66,0.00028
4279.88,0.00056
4274.09,0.00077
4268.3,0.00027
4262.52,0.00062
4256.73,0.00007
4250.95,0.00021
4245.16,0.00040
4239.37,0.00079
4233.59,0.00066
4227.8,0.00063
4222.02,0.00039
4216.23,0.00031
4210.44,0.00033
4204.66,0.00099
4198.87,0.00031
4193.08,0.00066
4187.3,0.00039
4181.51,0.00046
4175.73,0.00030
4169.94,0.00071
4164.15,0.00024
4158.37,0.00027
4152.58,0.00066
4146.79,0.00023
4141.01,0.00046
4135.22,0.00070
4129.44,0.00045
4123.65,0.00050
4117.86,0.00055
4112.08,0.00033
4106.29,0.00072
4100.5,0.00075
4094.72,0.00071
4088.93,0.00059
4083.15,0.00056
4077.36,0.00035
4071.57,0.00001
4065.79,0.00096
4060,0.00012
4054.21,0.00101
4048.43,0.00020
4042.64,0.00036
4036.86,0.00082
4031.07,0.00027
4025.28,0.00059
4019.5,0.00063
4013.71,0.00030
4007.92,0.00021
4002.14,0.00018
3996.35,0.00071
3990.57,0.00049
3984.78,0.00039
3978.99,0.00043
3973.21,0.00058
3967.42,0.00023
3961.63,0.00059
3955.85,0.00047
3950.06,0.00063
3944.28,0.00042
3938.49,0.00103
3932.7,0.00068
3926.92,0.00099
3921.13,0.00111
3915.35,0.00154
3909.56,0.00132
3903.77,0.00159
3897.99,0.00274
3892.2,0.00303
3886.41,0.00228
3880.63,0.00309
3874.84,0.00374
3869.06,0.00360
3863.27,0.00383
3857.48,0.00378
3851.7,0.00300
3845.91,0.00261
3840.12,0.00223
3834.34,0.00303
3828.55,0.00315
3822.77,0.00302
3816.98,0.00279
3811.19,0.00369
3805.41,0.00393
3799.62,0.00371
3793.83,0.00394
3788.05,0.00447
3782.26,0.00446
3776.48,0.00530
3770.69,0.00515
3764.9,0.00505
3759.12,0.00474
3753.33,0.00471
3747.54,0.00397
3741.76,0.00367
3735.97,0.00307
3730.19,0.00361
3724.4,0.00332
3718.61,0.00301
3712.83,0.00233
3707.04,0.00210
3701.25,0.00163
3695.47,0.00089
3689.68,0.00112
3683.9,0.00060
3678.11,0.00019
3672.32,0.00001
3666.54,0.00041
3660.75,0.00022
3654.97,0.00041
3649.18,0.00059
3643.39,0.00040
3637.61,0.00034
3631.82,0.00042
3626.03,0.00042
3620.25,0.00061
3614.46,0.00023
3608.68,0.00046
3602.89,0.00021
3597.1,0.00055
3591.32,0.00063
3585.53,0.00032
3579.74,0.00042
3573.96,0.00015
3568.17,0.00037
3562.39,0.00035
3556.6,0.00020
3550.81,0.00009
3545.03,0.00012
3539.24,0.00048
3533.45,0.00064
3527.67,0.00045
3521.88,0.00014
3516.1,0.00083
3510.31,-0.00011
3504.52,0.00088
3498.74,0.00080
3492.95,0.00111
3487.16,0.00042
3481.38,0.00035
3475.59,0.00026
3469.81,0.00036
3464.02,0.00080
3458.23,0.00025
3452.45,0.00052
3446.66,0.00039
3440.87,0.00045
3435.09,0.00084
3429.3,0.00050
3423.52,0.00097
3417.73,0.00048
3411.94,0.00025
3406.16,0.00027
3400.37,0.00073
3394.58,0.00018
3388.8,0.00035
3383.01,0.00056
3377.23,0.00089
3371.44,0.00043
3365.65,0.00058
3359.87,0.00028
3354.08,0.00024
3348.3,0.00069
3342.51,0.00069
3336.72,0.00044
3330.94,0.00047
3325.15,-0.00002
3319.36,0.00058
3313.58,0.00051
3307.79,0.00013
3302.01,0.00053
3296.22,0.00066
3290.43,0.00027
3284.65,0.00028
3278.86,0.00075
3273.07,0.00081
3267.29,0.00062
3261.5,0.00047
3255.72,0.00081
3249.93,0.00063
3244.14,0.00018
3238.36,0.00045
3232.57,-0.00003
3226.78,0.00141
3221,0.00023
3215.21,0.00076
3209.43,0.00123
3203.64,0.00056
3197.85,0.00053
3192.07,0.00017
3186.28,0.00064
3180.49,0.00016
3174.71,0.00057
3168.92,0.00060
3163.14,0.00070
3157.35,0.00027
3151.56,0.00034
3145.78,0.00051
3139.99,0.00064
3134.2,0.00054
3128.42,0.00013
3122.63,0.00011
3116.85,0.00058
3111.06,0.00043
3105.27,0.00027
3099.49,0.00027
3093.7,0.00026
3087.92,0.00051
3082.13,0.00006
3076.34,0.00054
3070.56,0.00011
3064.77,0.00053
3058.98,0.00026
3053.2,0.00018
3047.41,0.00025
3041.63,0.00018
3035.84,0.00065
3030.05,0.00062
3024.27,0.00028
3018.48,0.00035
3012.69,0.00016
3006.91,0.00021
3001.12,0.00059
2995.34,0.00039
2989.55,0.00036
2983.76,0.00058
2977.98,0.00020
2972.19,0.00024
2966.4,0.00016
2960.62,0.00024
2954.83,0.00035
2949.05,0.00053
2943.26,0.00063
2937.47,0.00027
2931.69,0.00040
2925.9,0.00029
2920.11,0.00033
2914.33,0.00009
2908.54,0.00050
2902.76,0.00051
2896.97,0.00015
2891.18,0.00015
2885.4,0.00037
2879.61,0.00038
2873.82,0.00047
2868.04,0.00035
2862.25,0.00039
2856.47,0.00012
2850.68,0.00022
2844.89,0.00002
2839.11,0.00046
2833.32,0.00003
2827.53,0.00036
2821.75,0.00046
2815.96,0.00003
2810.18,0.00054
2804.39,0.00018
2798.6,0.00040
2792.82,0.00040
2787.03,0.00046
2781.25,0.00012
2775.46,0.00024
2769.67,0.00020
2763.89,0.00022
2758.1,0.00034
2752.31,0.00022
2746.53,0.00042
2740.74,0.00041
2734.96,0.00022
2729.17,0.00011
2723.38,0.00025
2717.6,0.00036
2711.81,0.00030
2706.02,0.00028
2700.24,0.00023
2694.45,0.00029
2688.67,0.00043
2682.88,0.00011
2677.09,0.00046
2671.31,0.00010
2665.52,0.00024
2659.73,0.00033
2653.95,0.00020
2648.16,0.00030
2642.38,0.00011
2636.59,0.00037
2630.8,0.00018
2625.02,0.00014
2619.23,0.00016
2613.44,0.00016
2607.66,0.00029
2601.87,-0.00000
2596.09,0.00016
2590.3,0.00037
2584.51,0.00043
2578.73,0.00021
2572.94,0.00039
2567.15,0.00029
2561.37,0.00032
2555.58,0.00028
2549.8,0.00025
2544.01,0.00037
2538.22,0.00044
2532.44,0.00023
2526.65,0.00009
2520.87,0.00017
2515.08,0.00020
2509.29,0.00027
2503.51,0.00016
2497.72,0.00039
2491.93,0.00023
2486.15,0.00046
2480.36,0.00009
2474.58,0.00022
2468.79,0.00040
2463,0.00034
2457.22,0.00031
2451.43,0.00049
2445.64,0.00026
2439.86,0.00020
2434.07,0.00025
2428.29,0.00007
2422.5,0.00038
2416.71,0.00030
2410.93,0.00016
2405.14,0.00038
2399.35,0.00017
2393.57,0.00036
2387.78,0.00012
2382,0.00034
2376.21,0.00027
2370.42,0.00051
2364.64,0.00003
2358.85,0.00036
2353.06,0.00017
2347.28,0.00005
2341.49,0.00037
2335.71,0.00007
2329.92,0.00042
2324.13,0.00038
2318.35,0.00002
2312.56,0.00029
2306.77,0.00031
2300.99,0.00016
2295.2,0.00056
2289.42,0.00043
2283.63,0.00037
2277.84,0.00023
2272.06,0.00038
2266.27,0.00028
2260.48,0.00023
2254.7,0.00018
2248.91,0.00013
2243.13,0.00033
2237.34,0.00013
2231.55,0.00029
2225.77,0.00025
2219.98,0.00027
2214.2,0.00031
2208.41,0.00025
2202.62,0.00031
2196.84,0.00029
2191.05,0.00033
2185.26,0.00009
2179.48,0.00028
2173.69,0.00002
2167.91,0.00027
2162.12,0.00020
2156.33,0.00021
2150.55,0.00008
2144.76,0.00018
2138.97,0.00019
2133.19,0.00031
2127.4,0.00018
2121.62,0.00013
2115.83,0.00026
2110.04,0.00026
2104.26,0.00027
2098.47,0.00020
2092.68,0.00041
2086.9,0.00039
2081.11,0.00026
2075.33,0.00021
2069.54,0.00032
2063.75,0.00015
2057.97,0.00016
2052.18,0.00023
2046.39,0.00004
2040.61,0.00022
2034.82,0.00034
2029.04,0.00041
2023.25,0.00013
2017.46,0.00025
2011.68,0.00032
2005.89,0.00006
2000.1,0.00022
1994.32,0.00013
1988.53,-0.00000
1982.75,0.00041
1976.96,-0.00002
1971.17,0.00030
1965.39,0.00018
1959.6,0.00012
1953.82,0.00017
1948.03,0.00018
1942.24,0.00019
1936.46,0.00033
1930.67,0.00017
1924.88,0.00021
1919.1,0.00048
1913.31,0.00024
1907.53,0.00029
1901.74,0.00028
1895.95,0.00036
1890.17,0.00017
1884.38,0.00018
1878.59,0.00025
1872.81,0.00047
1867.02,0.00026
1861.24,0.00033
1855.45,0.00024
1849.66,0.00017
1843.88,0.00035
1838.09,0.00021
1832.3,0.00020
1826.52,0.00020
1820.73,0.00030
1814.95,0.00066
1809.16,0.00034
1803.37,0.00021
1797.59,0.00019
1791.8,0.00009
1786.01,0.00029
1780.23,0.00027
1774.44,0.00033
1768.66,0.00020
1762.87,0.00010
1757.08,0.00026
1751.3,0.00024
1745.51,0.00024
1739.72,0.00035
1733.94,0.00023
1728.15,0.00030
1722.37,0.00039
1716.58,0.00028
1710.79,0.00008
1705.01,0.00023
1699.22,0.00051
1693.43,0.00026
1687.65,0.00015
1681.86,0.00066
1676.08,0.00013
1670.29,0.00030
1664.5,0.00007
1658.72,0.00026
1652.93,0.00026
1647.15,0.00045
1641.36,0.00017
1635.57,0.00028
1629.79,0.00005
1624,0.00021
1618.21,0.00051
1612.43,0.00039
1606.64,0.00037
1600.86,0.00015
1595.07,0.00022
1589.28,0.00010
1583.5,0.00032
1577.71,0.00035
1571.92,0.00019
1566.14,0.00040
1560.35,0.00060
1554.57,0.00009
1548.78,0.00013
1542.99,0.00008
1537.21,0.00036
1531.42,0.00006
1525.63,0.00051
1519.85,0.00009
1514.06,0.00014
1508.28,0.00032
1502.49,0.00024
1496.7,0.00000
1490.92,0.00019
1485.13,0.00045
1479.34,0.00036
1473.56,-0.00001
1467.77,0.00020
1461.99,0.00003
1456.2,0.00020
1450.41,0.00008
1444.63,0.00007
1438.84,0.00028
1433.05,0.00017
1427.27,0.00021
1421.48,0.00026
1415.7,0.00027
1409.91,0.00034
1404.12,0.00032
1398.34,0.00018
1392.55,0.00027
1386.77,0.00016
1380.98,0.00041
1375.19,0.00032
1369.41,0.00023
1363.62,0.00023
1357.83,0.00013
1352.05,0.00031
1346.26,0.00023
1340.48,0.00016
1334.69,0.00022
1328.9,0.00011
1323.12,0.00037
1317.33,0.00022
1311.54,0.00026
1305.76,0.00028
1299.97,0.00023
1294.19,0.00020
1288.4,0.00024
1282.61,0.00038
1276.83,0.00017
1271.04,0.00029
1265.25,0.00015
1259.47,0.00062
1253.68,0.00024
1247.9,0.00039
1242.11,0.00012
1236.32,0.00024
1230.54,0.00035
1224.75,0.00036
1218.96,0.00029
1213.18,0.00037
1207.39,0.00042
1201.61,0.00060
1195.82,0.00047
1190.03,0.00009
1184.25,0.00042
1178.46,0.00042
1172.67,0.00063
1166.89,0.00004
1161.1,0.00041
1155.32,0.00017
1149.53,0.00032
1143.74,0.00030
1137.96,0.00034
1132.17,0.00041
1126.38,0.00023
1120.6,0.00042
1114.81,0.00064
1109.03,0.00033
1103.24,0.00028
1097.45,0.00022
1091.67,0.00019
1085.88,0.00013
1080.1,0.00077
1074.31,0.00052
1068.52,0.00011
1062.74,0.00076
1056.95,0.00067
1051.16,0.00040
1045.38,0.00059
1039.59,0.00009
1033.81,0.00061
1028.02,0.00036
1022.23,0.00051
1016.45,0.00041
1010.66,0.00062
1004.87,0.00048
999.088,0.00038
993.302,0.00021
987.516,0.00021
981.729,0.00063
975.943,0.00025
970.157,0.00039
964.371,0.00027
958.585,0.00051
952.798,0.00021
947.012,0.00027
941.226,0.00052
935.44,0.00029
929.653,0.00049
923.867,0.00094
918.081,0.00073
912.295,0.00023
906.508,0.00060
900.722,0.00047
894.936,0.00059
889.15,0.00032
883.364,0.00063
877.577,0.00034
871.791,0.00091
866.005,0.00059
860.219,0.00058
854.432,0.00021
848.646,0.00100
842.86,0.00064
837.074,0.00060
831.288,0.00031
825.501,0.00072
819.715,0.00034
813.929,0.00091
808.143,0.00092
802.356,0.00092
796.57,0.00080
790.784,0.00086
784.998,0.00083
779.212,0.00088
773.425,0.00087
767.639,0.00061
761.853,0.00033
756.067,0.00074
750.28,0.00024
744.494,0.00007
738.708,0.00094
732.922,0.00060
727.136,0.00067
721.349,0.00103
715.563,0.00086
709.777,0.00054
703.991,0.00044
698.204,0.00044
692.418,0.00087
686.632,0.00103
680.846,0.00104
675.059,0.00109
669.273,0.00058
663.487,0.00074
657.701,0.00112
651.915,0.00148
646.128,0.00111
640.342,0.00135
634.556,0.00173
628.77,0.00120
622.983,0.00195
617.197,0.00125
611.411,0.00223
605.625,0.00126
599.839,0.00130