File: 01_Data/Nylon/FTIR/IS/Nylon_1.575_Trans_S_IS_221213_R1.dpt
7496.63,0.70788
7490.84,0.70998
7485.06,0.70461
7479.27,0.70759
7473.48,0.70164
7467.7,0.70630
7461.91,0.71129
7456.13,0.71288
7450.34,0.70110
7444.55,0.70435
7438.77,0.70434
7432.98,0.70409
7427.2,0.69807
7421.41,0.69206
7415.62,0.70061
7409.84,0.70470
7404.05,0.69569
7398.27,0.69768
7392.48,0.70426
7386.69,0.69584
7380.91,0.70022
7375.12,0.69283
7369.34,0.70230
7363.55,0.69009
7357.77,0.68455
7351.98,0.68716
7346.19,0.68866
7340.41,0.68252
7334.62,0.67909
7328.84,0.68124
7323.05,0.66529
7317.26,0.66586
7311.48,0.66716
7305.69,0.66031
7299.91,0.65570
7294.12,0.65017
7288.33,0.65165
7282.55,0.65100
7276.76,0.64422
7270.98,0.63990
7265.19,0.62869
7259.4,0.62268
7253.62,0.61878
7247.83,0.60779
7242.05,0.60954
7236.26,0.60483
7230.47,0.59782
7224.69,0.59181
7218.9,0.59646
7213.12,0.59583
7207.33,0.58535
7201.55,0.59205
7195.76,0.58988
7189.97,0.59757
7184.19,0.59796
7178.4,0.58994
7172.62,0.59884
7166.83,0.58959
7161.04,0.60344
7155.26,0.59431
7149.47,0.59581
7143.69,0.59302
7137.9,0.59044
7132.11,0.59209
7126.33,0.58409
7120.54,0.58845
7114.76,0.58655
7108.97,0.58545
7103.18,0.57988
7097.4,0.58541
7091.61,0.58344
7085.83,0.58311
7080.04,0.57498
7074.26,0.58195
7068.47,0.58308
7062.68,0.58120
7056.9,0.58386
7051.11,0.58463
7045.33,0.58232
7039.54,0.57987
7033.75,0.58495
7027.97,0.58990
7022.18,0.58164
7016.4,0.58908
7010.61,0.58660
7004.82,0.58652
6999.04,0.57894
6993.25,0.58716
6987.47,0.59112
6981.68,0.58737
6975.89,0.59000
6970.11,0.58930
6964.32,0.59887
6958.54,0.59177
6952.75,0.59542
6946.96,0.59552
6941.18,0.59018
6935.39,0.59343
6929.61,0.59517
6923.82,0.59805
6918.04,0.60536
6912.25,0.60394
6906.46,0.60046
6900.68,0.60007
6894.89,0.59764
6889.11,0.60185
6883.32,0.60041
6877.53,0.60610
6871.75,0.60302
6865.96,0.59901
6860.18,0.60383
6854.39,0.60061
6848.6,0.60060
6842.82,0.60085
6837.03,0.60265
6831.25,0.60612
6825.46,0.59885
6819.67,0.60424
6813.89,0.61189
6808.1,0.60860
6802.32,0.60483
6796.53,0.60079
6790.74,0.60546
6784.96,0.59345
6779.17,0.59520
6773.39,0.59136
6767.6,0.58807
6761.82,0.58687
6756.03,0.58444
6750.24,0.58321
6744.46,0.58010
6738.67,0.58461
6732.89,0.57419
6727.1,0.57618
6721.31,0.57940
6715.53,0.57453
6709.74,0.57104
6703.96,0.56508
6698.17,0.56872
6692.38,0.56776
6686.6,0.56476
6680.81,0.56137
6675.03,0.56156
6669.24,0.55549
6663.45,0.54595
6657.67,0.54673
6651.88,0.54100
6646.1,0.53481
6640.31,0.52426
6634.52,0.52442
6628.74,0.51664
6622.95,0.51017
6617.17,0.50236
6611.38,0.49991
6605.6,0.50034
6599.81,0.50610
6594.02,0.50518
6588.24,0.50783
6582.45,0.50565
6576.67,0.50324
6570.88,0.50041
6565.09,0.49820
6559.31,0.49301
6553.52,0.49085
6547.74,0.48422
6541.95,0.48008
6536.16,0.47006
6530.38,0.46743
6524.59,0.46060
6518.81,0.45459
6513.02,0.45238
6507.23,0.45491
6501.45,0.45559
6495.66,0.45343
6489.88,0.45313
6484.09,0.45331
6478.3,0.45486
6472.52,0.47054
6466.73,0.48704
6460.95,0.50330
6455.16,0.52328
6449.38,0.54005
6443.59,0.54863
6437.8,0.55964
6432.02,0.56641
6426.23,0.57200
6420.45,0.56827
6414.66,0.56535
6408.87,0.56605
6403.09,0.56066
6397.3,0.55340
6391.52,0.55053
6385.73,0.54815
6379.94,0.54089
6374.16,0.53281
6368.37,0.52776
6362.59,0.52435
6356.8,0.51920
6351.01,0.51934
6345.23,0.52272
6339.44,0.52577
6333.66,0.52603
6327.87,0.53995
6322.09,0.54728
6316.3,0.55197
6310.51,0.56227
6304.73,0.56669
6298.94,0.56958
6293.16,0.56834
6287.37,0.56823
6281.58,0.56222
6275.8,0.55911
6270.01,0.55206
6264.23,0.54336
6258.44,0.54367
6252.65,0.54181
6246.87,0.53662
6241.08,0.53793
6235.3,0.53851
6229.51,0.54089
6223.72,0.54260
6217.94,0.55099
6212.15,0.55647
6206.37,0.56303
6200.58,0.56958
6194.79,0.57019
6189.01,0.57774
6183.22,0.58308
6177.44,0.58964
6171.65,0.60033
6165.87,0.60741
6160.08,0.61493
6154.29,0.62099
6148.51,0.62702
6142.72,0.63410
6136.94,0.63717
6131.15,0.64175
6125.36,0.64400
6119.58,0.64759
6113.79,0.64853
6108.01,0.65060
6102.22,0.65048
6096.43,0.65226
6090.65,0.65004
6084.86,0.65197
6079.08,0.65023
6073.29,0.65453
6067.5,0.65225
6061.72,0.64846
6055.93,0.65308
6050.15,0.65055
6044.36,0.64726
6038.57,0.64669
6032.79,0.64740
6027,0.64674
6021.22,0.64518
6015.43,0.63983
6009.65,0.64226
6003.86,0.63805
5998.07,0.63512
5992.29,0.63238
5986.5,0.62791
5980.72,0.62508
5974.93,0.62383
5969.14,0.61821
5963.36,0.61232
5957.57,0.60823
5951.79,0.60166
5946,0.59581
5940.21,0.58095
5934.43,0.57111
5928.64,0.55605
5922.86,0.54186
5917.07,0.52022
5911.28,0.49766
5905.5,0.47285
5899.71,0.44570
5893.93,0.41407
5888.14,0.38677
5882.35,0.35652
5876.57,0.33191
5870.78,0.30680
5865,0.28646
5859.21,0.26147
5853.43,0.23780
5847.64,0.21557
5841.85,0.19512
5836.07,0.18714
5830.28,0.18429
5824.5,0.18944
5818.71,0.19683
5812.92,0.20784
5807.14,0.21485
5801.35,0.22653
5795.57,0.23589
5789.78,0.24761
5783.99,0.26273
5778.21,0.27270
5772.42,0.28358
5766.64,0.28817
5760.85,0.29042
5755.06,0.28709
5749.28,0.28036
5743.49,0.27466
5737.71,0.26355
5731.92,0.25171
5726.14,0.23878
5720.35,0.22995
5714.56,0.22629
5708.78,0.22781
5702.99,0.23074
5697.21,0.23652
5691.42,0.24094
5685.63,0.25354
5679.85,0.26661
5674.06,0.28084
5668.28,0.29377
5662.49,0.30600
5656.7,0.32143
5650.92,0.33359
5645.13,0.34721
5639.35,0.35802
5633.56,0.36881
5627.77,0.37871
5621.99,0.38630
5616.2,0.38908
5610.42,0.39392
5604.63,0.39548
5598.84,0.39932
5593.06,0.40004
5587.27,0.40364
5581.49,0.40839
5575.7,0.40874
5569.92,0.41165
5564.13,0.41444
5558.34,0.41999
5552.56,0.42268
5546.77,0.42537
5540.99,0.42827
5535.2,0.42840
5529.41,0.43307
5523.63,0.43469
5517.84,0.43714
5512.06,0.44035
5506.27,0.44294
5500.48,0.44559
5494.7,0.44564
5488.91,0.45065
5483.13,0.45378
5477.34,0.45595
5471.55,0.46021
5465.77,0.46262
5459.98,0.46235
5454.2,0.46867
5448.41,0.46677
5442.62,0.46919
5436.84,0.47204
5431.05,0.47200
5425.27,0.47619
5419.48,0.47840
5413.7,0.47343
5407.91,0.47894
5402.12,0.48882
5396.34,0.49307
5390.55,0.50050
5384.77,0.50537
5378.98,0.50821
5373.19,0.51358
5367.41,0.51736
5361.62,0.52030
5355.84,0.51964
5350.05,0.52077
5344.26,0.51755
5338.48,0.51635
5332.69,0.51972
5326.91,0.51626
5321.12,0.51586
5315.33,0.51094
5309.55,0.50318
5303.76,0.49195
5297.98,0.48010
5292.19,0.46527
5286.4,0.45252
5280.62,0.44549
5274.83,0.44028
5269.05,0.43200
5263.26,0.42148
5257.48,0.41723
5251.69,0.40830
5245.9,0.39702
5240.12,0.39090
5234.33,0.38210
5228.55,0.37170
5222.76,0.35928
5216.97,0.35108
5211.19,0.33841
5205.4,0.32571
5199.62,0.31534
5193.83,0.30306
5188.04,0.29107
5182.26,0.28129
5176.47,0.27319
5170.69,0.26330
5164.9,0.25468
5159.11,0.24932
5153.33,0.24148
5147.54,0.23790
5141.76,0.23220
5135.97,0.23084
5130.18,0.23273
5124.4,0.23256
5118.61,0.23384
5112.83,0.23614
5107.04,0.24010
5101.26,0.24603
5095.47,0.25112
5089.68,0.25652
5083.9,0.26195
5078.11,0.26884
5072.33,0.27440
5066.54,0.27925
5060.75,0.28362
5054.97,0.28889
5049.18,0.29547
5043.4,0.29969
5037.61,0.30170
5031.82,0.30503
5026.04,0.30564
5020.25,0.30493
5014.47,0.30394
5008.68,0.29903
5002.89,0.29041
4997.11,0.27595
4991.32,0.25723
4985.54,0.23269
4979.75,0.20859
4973.97,0.18660
4968.18,0.17669
4962.39,0.17602
4956.61,0.17865
4950.82,0.18223
4945.04,0.18418
4939.25,0.18131
4933.46,0.17891
4927.68,0.17664
4921.89,0.16985
4916.11,0.15793
4910.32,0.14035
4904.53,0.11943
4898.75,0.09840
4892.96,0.07874
4887.18,0.06498
4881.39,0.05475
4875.6,0.04623
4869.82,0.04131
4864.03,0.04920
4858.25,0.06956
4852.46,0.09629
4846.67,0.12624
4840.89,0.15738
4835.1,0.18932
4829.32,0.21717
4823.53,0.23710
4817.75,0.25057
4811.96,0.25748
4806.17,0.25770
4800.39,0.25248
4794.6,0.24843
4788.82,0.24738
4783.03,0.24607
4777.24,0.24471
4771.46,0.24279
4765.67,0.23822
4759.89,0.23154
4754.1,0.22479
4748.31,0.21659
4742.53,0.20900
4736.74,0.19959
4730.96,0.18972
4725.17,0.17935
4719.38,0.16595
4713.6,0.15059
4707.81,0.13720
4702.03,0.12569
4696.24,0.11819
4690.45,0.11443
4684.67,0.11059
4678.88,0.11001
4673.1,0.10966
4667.31,0.10990
4661.53,0.10883
4655.74,0.10727
4649.95,0.10492
4644.17,0.10043
4638.38,0.09515
4632.6,0.08902
4626.81,0.08270
4621.02,0.07641
4615.24,0.06948
4609.45,0.06143
4603.67,0.05438
4597.88,0.04546
4592.09,0.04029
4586.31,0.03687
4580.52,0.03612
4574.74,0.03721
4568.95,0.04068
4563.16,0.04539
4557.38,0.04825
4551.59,0.04996
4545.81,0.05240
4540.02,0.05318
4534.23,0.05398
4528.45,0.05711
4522.66,0.06205
4516.88,0.06810
4511.09,0.07464
4505.31,0.08057
4499.52,0.08601
4493.73,0.08821
4487.95,0.09046
4482.16,0.09042
4476.38,0.08942
4470.59,0.08797
4464.8,0.08449
4459.02,0.08059
4453.23,0.07328
4447.45,0.06679
4441.66,0.05957
4435.87,0.05372
4430.09,0.04713
4424.3,0.04004
4418.52,0.03302
4412.73,0.02682
4406.94,0.02029
4401.16,0.01466
4395.37,0.00962
4389.59,0.00495
4383.8,0.00243
4378.01,0.00074
4372.23,0.00063
4366.44,0.00089
4360.66,0.00033
4354.87,0.00081
4349.09,0.00069
4343.3,0.00066
4337.51,0.00054
4331.73,0.00111
4325.94,0.00223
4320.16,0.00274
4314.37,0.00419
4308.58,0.00529
4302.8,0.00538
4297.01,0.00520
4291.23,0.00467
4285.44,0.00430
4279.65,0.00337
4273.87,0.00179
4268.08,0.00137
4262.3,0.00118
4256.51,0.00141
4250.72,0.00147
4244.94,0.00046
4239.15,0.00151
4233.37,0.00158
4227.58,0.00118
4221.8,0.00128
4216.01,0.00089
4210.22,0.00085
4204.44,0.00053
4198.65,0.00076
4192.87,0.00154
4187.08,0.00153
4181.29,0.00117
4175.51,0.00155
4169.72,0.00184
4163.94,0.00301
4158.15,0.00370
4152.36,0.00473
4146.58,0.00626
4140.79,0.00727
4135.01,0.00872
4129.22,0.00979
4123.43,0.01007
4117.65,0.01040
4111.86,0.00989
4106.08,0.00904
4100.29,0.00822
4094.5,0.00774
4088.72,0.00746
4082.93,0.00770
4077.15,0.00795
4071.36,0.00770
4065.58,0.00705
4059.79,0.00634
4054,0.00504
4048.22,0.00530
4042.43,0.00493
4036.65,0.00445
4030.86,0.00361
4025.07,0.00259
4019.29,0.00238
4013.5,0.00240
4007.72,0.00231
4001.93,0.00232
3996.14,0.00353
3990.36,0.00445
3984.57,0.00544
3978.79,0.00798
3973,0.01158
3967.21,0.01487
3961.43,0.01906
3955.64,0.02147
3949.86,0.02348
3944.07,0.02719
3938.28,0.03115
3932.5,0.03355
3926.71,0.03560
3920.93,0.03714
3915.14,0.04048
3909.36,0.04650
3903.57,0.05031
3897.78,0.05618
3892,0.05879
3886.21,0.05784
3880.43,0.06191
3874.64,0.06918
3868.85,0.07099
3863.07,0.07134
3857.28,0.06785
3851.5,0.05999
3845.71,0.05698
3839.92,0.05293
3834.14,0.05821
3828.35,0.06266
3822.57,0.06074
3816.78,0.06026
3810.99,0.06549
3805.21,0.06763
3799.42,0.07006
3793.64,0.07111
3787.85,0.07309
3782.06,0.07730
3776.28,0.08125
3770.49,0.08168
3764.71,0.08211
3758.92,0.07977
3753.14,0.07564
3747.35,0.07074
3741.56,0.06897
3735.78,0.06524
3729.99,0.06510
3724.21,0.06292
3718.42,0.06012
3712.63,0.05465
3706.85,0.05008
3701.06,0.04344
3695.28,0.03539
3689.49,0.02133
3683.7,0.00944
3677.92,0.00369
3672.13,0.00199
3666.35,0.00175
3660.56,0.00116
3654.77,0.00095
3648.99,0.00044
3643.2,0.00076
3637.42,0.00055
3631.63,0.00027
3625.85,0.00041
3620.06,0.00038
3614.27,0.00028
3608.49,0.00031
3602.7,0.00049
3596.92,0.00036
3591.13,0.00051
3585.34,0.00047
3579.56,0.00041
3573.77,0.00025
3567.99,0.00046
3562.2,0.00032
3556.41,0.00058
3550.63,0.00025
3544.84,0.00048
3539.06,0.00061
3533.27,0.00074
3527.48,0.00053
3521.7,0.00013
3515.91,0.00058
3510.13,0.00022
3504.34,0.00052
3498.55,0.00041
3492.77,0.00039
3486.98,0.00009
3481.2,0.00010
3475.41,0.00046
3469.63,0.00050
3463.84,0.00027
3458.05,0.00011
3452.27,0.00048
3446.48,0.00012
3440.7,0.00032
3434.91,0.00041
3429.12,0.00074
3423.34,0.00023
3417.55,0.00044
3411.77,0.00039
3405.98,0.00026
3400.19,0.00052
3394.41,0.00037
3388.62,0.00040
3382.84,0.00015
3377.05,0.00019
3371.26,0.00065
3365.48,0.00043
3359.69,0.00019
3353.91,0.00066
3348.12,0.00044
3342.33,0.00030
3336.55,0.00079
3330.76,0.00026
3324.98,0.00022
3319.19,0.00006
3313.41,0.00045
3307.62,0.00059
3301.83,0.00069
3296.05,0.00063
3290.26,0.00047
3284.48,0.00016
3278.69,0.00044
3272.9,0.00063
3267.12,0.00071
3261.33,0.00080
3255.55,0.00057
3249.76,0.00052
3243.97,0.00127
3238.19,0.00030
3232.4,0.00108
3226.62,0.00022
3220.83,0.00016
3215.04,0.00005
3209.26,0.00101
3203.47,0.00030
3197.69,0.00060
3191.9,0.00052
3186.11,0.00027
3180.33,0.00035
3174.54,-0.00010
3168.76,0.00029
3162.97,0.00034
3157.19,0.00045
3151.4,0.00019
3145.61,0.00038
3139.83,0.00071
3134.04,0.00041
3128.26,0.00032
3122.47,0.00039
3116.68,0.00023
3110.9,0.00062
3105.11,0.00089
3099.33,0.00020
3093.54,0.00033
3087.75,0.00040
3081.97,0.00012
3076.18,-0.00003
3070.4,0.00040
3064.61,0.00032
3058.82,0.00061
3053.04,0.00036
3047.25,0.00053
3041.47,0.00086
3035.68,0.00022
3029.89,0.00014
3024.11,0.00026
3018.32,0.00039
3012.54,0.00028
3006.75,0.00030
3000.97,0.00010
2995.18,0.00024
2989.39,0.00042
2983.61,0.00014
2977.82,0.00038
2972.04,0.00024
2966.25,0.00034
2960.46,0.00067
2954.68,0.00018
2948.89,0.00041
2943.11,0.00047
2937.32,0.00042
2931.53,0.00054
2925.75,0.00019
2919.96,0.00031
2914.18,0.00061
2908.39,0.00043
2902.6,0.00054
2896.82,0.00054
2891.03,0.00029
2885.25,0.00047
2879.46,0.00041
2873.68,0.00029
2867.89,0.00032
2862.1,0.00039
2856.32,0.00054
2850.53,0.00045
2844.75,0.00057
2838.96,0.00021
2833.17,0.00052
2827.39,0.00024
2821.6,0.00026
2815.82,0.00034
2810.03,0.00033
2804.24,0.00019
2798.46,0.00041
2792.67,0.00017
2786.89,0.00038
2781.1,0.00032
2775.31,0.00044
2769.53,0.00036
2763.74,0.00010
2757.96,0.00047
2752.17,0.00030
2746.38,0.00058
2740.6,0.00030
2734.81,0.00019
2729.03,0.00069
2723.24,0.00024
2717.46,0.00028
2711.67,0.00019
2705.88,0.00022
2700.1,0.00046
2694.31,0.00044
2688.53,0.00028
2682.74,0.00041
2676.95,0.00013
2671.17,0.00031
2665.38,0.00040
2659.6,0.00035
2653.81,0.00023
2648.02,0.00019
2642.24,0.00041
2636.45,0.00026
2630.67,0.00028
2624.88,0.00023
2619.09,0.00025
2613.31,0.00029
2607.52,0.00048
2601.74,0.00016
2595.95,0.00029
2590.16,0.00024
2584.38,0.00009
2578.59,0.00021
2572.81,0.00031
2567.02,0.00025
2561.24,0.00027
2555.45,0.00050
2549.66,0.00032
2543.88,0.00020
2538.09,0.00048
2532.31,0.00069
2526.52,0.00086
2520.73,0.00114
2514.95,0.00140
2509.16,0.00147
2503.38,0.00151
2497.59,0.00141
2491.8,0.00136
2486.02,0.00148
2480.23,0.00146
2474.45,0.00171
2468.66,0.00210
2462.87,0.00274
2457.09,0.00376
2451.3,0.00454
2445.52,0.00540
2439.73,0.00575
2433.94,0.00573
2428.16,0.00592
2422.37,0.00626
2416.59,0.00613
2410.8,0.00633
2405.02,0.00697
2399.23,0.00769
2393.44,0.00738
2387.66,0.00673
2381.87,0.00569
2376.09,0.00495
2370.3,0.00449
2364.51,0.00431
2358.73,0.00456
2352.94,0.00517
2347.16,0.00543
2341.37,0.00414
2335.58,0.00307
2329.8,0.00271
2324.01,0.00263
2318.23,0.00266
2312.44,0.00385
2306.65,0.00522
2300.87,0.00598
2295.08,0.00674
2289.3,0.00677
2283.51,0.00663
2277.72,0.00625
2271.94,0.00625
2266.15,0.00593
2260.37,0.00532
2254.58,0.00513
2248.8,0.00495
2243.01,0.00465
2237.22,0.00413
2231.44,0.00406
2225.65,0.00343
2219.87,0.00281
2214.08,0.00274
2208.29,0.00268
2202.51,0.00306
2196.72,0.00236
2190.94,0.00199
2185.15,0.00182
2179.36,0.00188
2173.58,0.00170
2167.79,0.00192
2162.01,0.00145
2156.22,0.00137
2150.43,0.00173
2144.65,0.00185
2138.86,0.00188
2133.08,0.00244
2127.29,0.00260
2121.51,0.00296
2115.72,0.00349
2109.93,0.00328
2104.15,0.00327
2098.36,0.00323
2092.58,0.00354
2086.79,0.00385
2081,0.00419
2075.22,0.00461
2069.43,0.00495
2063.65,0.00515
2057.86,0.00468
2052.07,0.00478
2046.29,0.00531
2040.5,0.00572
2034.72,0.00641
2028.93,0.00691
2023.14,0.00853
2017.36,0.00967
2011.57,0.01039
2005.79,0.01037
2000,0.01071
1994.21,0.01141
1988.43,0.01253
1982.64,0.01297
1976.86,0.01253
1971.07,0.01188
1965.29,0.01265
1959.5,0.01365
1953.71,0.01524
1947.93,0.01603
1942.14,0.01706
1936.36,0.01779
1930.57,0.01737
1924.78,0.01709
1919,0.01715
1913.21,0.01640
1907.43,0.01453
1901.64,0.01285
1895.85,0.01130
1890.07,0.00916
1884.28,0.00741
1878.5,0.00693
1872.71,0.00794
1866.92,0.00859
1861.14,0.00920
1855.35,0.00875
1849.57,0.00795
1843.78,0.00688
1837.99,0.00605
1832.21,0.00534
1826.42,0.00440
1820.64,0.00338
1814.85,0.00293
1809.07,0.00200
1803.28,0.00155
1797.49,0.00108
1791.71,0.00067
1785.92,0.00036
1780.14,0.00038
1774.35,0.00016
1768.56,0.00021
1762.78,0.00035
1756.99,0.00018
1751.21,0.00033
1745.42,0.00014
1739.63,0.00056
1733.85,0.00044
1728.06,0.00032
1722.28,0.00024
1716.49,0.00038
1710.7,0.00013
1704.92,0.00039
1699.13,0.00057
1693.35,0.00032
1687.56,0.00024
1681.77,0.00056
1675.99,0.00043
1670.2,0.00034
1664.42,0.00010
1658.63,0.00031
1652.85,0.00029
1647.06,0.00016
1641.27,0.00040
1635.49,0.00023
1629.7,0.00010
1623.92,0.00025
1618.13,0.00019
1612.34,0.00066
1606.56,0.00046
1600.77,0.00029
1594.99,0.00022
1589.2,0.00040
1583.41,0.00029
1577.63,0.00043
1571.84,0.00024
1566.06,0.00021
1560.27,0.00036
1554.48,0.00017
1548.7,0.00025
1542.91,0.00033
1537.13,0.00053
1531.34,0.00027
1525.56,0.00029
1519.77,0.00018
1513.98,0.00027
1508.2,0.00049
1502.41,0.00023
1496.63,0.00007
1490.84,0.00025
1485.05,0.00034
1479.27,0.00014
1473.48,0.00019
1467.7,0.00028
1461.91,0.00013
1456.12,0.00072
1450.34,0.00011
1444.55,0.00006
1438.77,0.00035
1432.98,0.00027
1427.19,0.00047
1421.41,0.00046
1415.62,0.00040
1409.84,0.00027
1404.05,0.00020
1398.26,0.00035
1392.48,0.00049
1386.69,0.00034
1380.91,0.00025
1375.12,0.00033
1369.34,0.00029
1363.55,0.00026
1357.76,0.00024
1351.98,0.00023
1346.19,0.00032
1340.41,0.00010
1334.62,0.00020
1328.83,0.00029
1323.05,0.00019
1317.26,0.00032
1311.48,0.00009
1305.69,0.00033
1299.9,0.00038
1294.12,0.00033
1288.33,0.00023
1282.55,0.00020
1276.76,0.00015
1270.97,0.00032
1265.19,0.00009
1259.4,0.00003
1253.62,0.00029
1247.83,0.00026
1242.04,0.00014
1236.26,0.00034
1230.47,0.00054
1224.69,0.00010
1218.9,0.00030
1213.12,0.00020
1207.33,0.00014
1201.54,0.00021
1195.76,0.00054
1189.97,0.00032
1184.19,0.00045
1178.4,0.00047
1172.61,0.00007
1166.83,0.00008
1161.04,0.00033
1155.26,0.00039
1149.47,0.00028
1143.68,0.00022
1137.9,0.00062
1132.11,0.00046
1126.33,0.00066
1120.54,0.00045
1114.75,0.00033
1108.97,0.00079
1103.18,0.00070
1097.4,0.00052
1091.61,0.00051
1085.82,0.00099
1080.04,0.00041
1074.25,0.00013
1068.47,0.00088
1062.68,0.00032
1056.9,0.00004
1051.11,0.00057
1045.32,0.00063
1039.54,0.00040
1033.75,0.00073
1027.97,0.00047
1022.18,0.00047
1016.39,0.00087
1010.61,0.00071
1004.82,0.00042
999.036,0.00057
993.25,0.00035
987.464,0.00038
981.678,0.00036
975.892,0.00083
970.106,0.00038
964.32,0.00088
958.535,0.00029
952.749,0.00010
946.963,0.00072
941.177,0.00063
935.391,0.00039
929.605,0.00059
923.819,0.00020
918.033,0.00092
912.247,0.00065
906.461,0.00029
900.675,0.00049
894.889,0.00065
889.103,0.00071
883.318,0.00042
877.532,0.00014
871.746,0.00060
865.96,0.00059
860.174,0.00057
854.388,0.00073
848.602,0.00069
842.816,0.00044
837.03,0.00062
831.244,0.00081
825.458,0.00084
819.672,0.00040
813.886,0.00059
808.101,0.00068
802.315,0.00101
796.529,0.00101
790.743,0.00113
784.957,0.00068
779.171,0.00106
773.385,0.00062
767.599,0.00097
761.813,0.00080
756.027,0.00089
750.241,0.00113
744.455,0.00029
738.669,0.00069
732.884,0.00056
727.098,0.00062
721.312,0.00066
715.526,0.00067
709.74,0.00077
703.954,0.00065
698.168,0.00022
692.382,0.00084
686.596,0.00114
680.81,0.00167
675.024,0.00127
669.238,0.00076
663.452,0.00073
657.667,0.00135
651.881,0.00065
646.095,0.00057
640.309,0.00119
634.523,0.00111
628.737,0.00162
622.951,0.00103
617.165,0.00209
611.379,0.00188
605.593,0.00175
599.807,0.00186