File: 01_Data/Nylon/FTIR/IS/Nylon_3.175_S_IS_221212_R6.dpt
7497.02,0.12819
7491.23,0.12347
7485.45,0.12406
7479.66,0.11986
7473.87,0.12345
7468.09,0.13040
7462.3,0.11926
7456.51,0.11600
7450.73,0.11979
7444.94,0.11912
7439.16,0.13022
7433.37,0.12165
7427.58,0.11271
7421.8,0.13079
7416.01,0.11543
7410.22,0.11920
7404.44,0.12559
7398.65,0.11776
7392.87,0.11437
7387.08,0.12503
7381.29,0.11620
7375.51,0.11843
7369.72,0.10964
7363.93,0.10803
7358.15,0.10921
7352.36,0.11687
7346.58,0.11609
7340.79,0.11055
7335,0.10133
7329.22,0.11757
7323.43,0.11416
7317.65,0.10435
7311.86,0.10613
7306.07,0.11455
7300.29,0.10678
7294.5,0.10146
7288.71,0.09157
7282.93,0.10453
7277.14,0.10089
7271.36,0.09541
7265.57,0.09090
7259.78,0.08896
7254,0.08604
7248.21,0.08277
7242.42,0.08918
7236.64,0.08939
7230.85,0.08543
7225.07,0.08132
7219.28,0.08616
7213.49,0.08534
7207.71,0.08684
7201.92,0.08545
7196.13,0.08039
7190.35,0.07738
7184.56,0.08071
7178.78,0.08702
7172.99,0.08494
7167.2,0.09108
7161.42,0.07353
7155.63,0.07716
7149.84,0.08740
7144.06,0.08436
7138.27,0.08225
7132.49,0.07968
7126.7,0.07647
7120.91,0.07895
7115.13,0.08010
7109.34,0.08081
7103.55,0.07262
7097.77,0.08620
7091.98,0.08287
7086.2,0.07723
7080.41,0.07948
7074.62,0.07495
7068.84,0.08131
7063.05,0.07895
7057.26,0.07348
7051.48,0.07529
7045.69,0.07636
7039.91,0.07707
7034.12,0.07906
7028.33,0.08927
7022.55,0.08420
7016.76,0.08187
7010.98,0.07935
7005.19,0.08222
6999.4,0.08498
6993.62,0.08085
6987.83,0.07785
6982.04,0.08641
6976.26,0.07775
6970.47,0.07997
6964.69,0.07907
6958.9,0.07976
6953.11,0.07973
6947.33,0.07986
6941.54,0.08478
6935.75,0.07866
6929.97,0.07758
6924.18,0.07975
6918.4,0.08931
6912.61,0.07716
6906.82,0.08306
6901.04,0.08205
6895.25,0.08026
6889.46,0.08869
6883.68,0.08695
6877.89,0.08004
6872.11,0.08296
6866.32,0.07946
6860.53,0.08102
6854.75,0.08160
6848.96,0.08464
6843.17,0.08762
6837.39,0.08550
6831.6,0.08233
6825.82,0.08453
6820.03,0.08183
6814.24,0.08319
6808.46,0.08519
6802.67,0.08012
6796.88,0.07924
6791.1,0.08082
6785.31,0.07840
6779.53,0.08027
6773.74,0.07867
6767.95,0.07743
6762.17,0.07497
6756.38,0.08174
6750.6,0.07928
6744.81,0.07774
6739.02,0.07860
6733.24,0.07746
6727.45,0.07576
6721.66,0.07531
6715.88,0.07305
6710.09,0.07672
6704.31,0.07760
6698.52,0.07058
6692.73,0.06985
6686.95,0.07565
6681.16,0.07466
6675.37,0.07746
6669.59,0.07801
6663.8,0.07143
6658.02,0.07200
6652.23,0.06801
6646.44,0.06949
6640.66,0.06674
6634.87,0.06660
6629.08,0.07105
6623.3,0.06635
6617.51,0.07190
6611.73,0.06969
6605.94,0.06494
6600.15,0.06557
6594.37,0.06623
6588.58,0.06689
6582.79,0.06163
6577.01,0.06731
6571.22,0.06967
6565.44,0.06420
6559.65,0.06338
6553.86,0.06131
6548.08,0.06122
6542.29,0.06324
6536.5,0.06342
6530.72,0.06045
6524.93,0.06838
6519.15,0.06910
6513.36,0.06423
6507.57,0.06256
6501.79,0.06210
6496,0.06383
6490.21,0.05997
6484.43,0.06339
6478.64,0.06372
6472.86,0.06387
6467.07,0.06884
6461.28,0.06495
6455.5,0.06461
6449.71,0.06518
6443.93,0.06809
6438.14,0.07315
6432.35,0.07250
6426.57,0.06934
6420.78,0.07365
6414.99,0.07088
6409.21,0.07179
6403.42,0.07468
6397.64,0.07472
6391.85,0.06961
6386.06,0.07016
6380.28,0.06919
6374.49,0.06543
6368.7,0.06750
6362.92,0.07036
6357.13,0.06956
6351.35,0.06487
6345.56,0.06694
6339.77,0.07045
6333.99,0.07127
6328.2,0.07310
6322.41,0.06882
6316.63,0.06852
6310.84,0.07509
6305.06,0.07467
6299.27,0.07157
6293.48,0.07201
6287.7,0.07394
6281.91,0.07270
6276.12,0.06898
6270.34,0.07010
6264.55,0.07145
6258.77,0.07201
6252.98,0.07119
6247.19,0.06752
6241.41,0.06523
6235.62,0.06632
6229.83,0.07096
6224.05,0.07000
6218.26,0.07074
6212.48,0.06871
6206.69,0.07021
6200.9,0.07039
6195.12,0.07266
6189.33,0.07270
6183.55,0.07654
6177.76,0.07554
6171.97,0.07559
6166.19,0.07802
6160.4,0.07872
6154.61,0.08106
6148.83,0.08227
6143.04,0.07832
6137.26,0.08814
6131.47,0.08503
6125.68,0.08490
6119.9,0.08488
6114.11,0.08594
6108.32,0.08462
6102.54,0.08679
6096.75,0.08613
6090.97,0.08524
6085.18,0.08919
6079.39,0.08702
6073.61,0.08556
6067.82,0.08629
6062.03,0.08712
6056.25,0.08335
6050.46,0.08408
6044.68,0.08390
6038.89,0.08683
6033.1,0.08481
6027.32,0.08423
6021.53,0.08546
6015.74,0.08386
6009.96,0.08216
6004.17,0.08370
5998.39,0.08398
5992.6,0.08084
5986.81,0.08226
5981.03,0.07953
5975.24,0.07873
5969.45,0.07467
5963.67,0.07863
5957.88,0.07759
5952.1,0.07550
5946.31,0.07354
5940.52,0.07311
5934.74,0.06902
5928.95,0.06896
5923.16,0.06922
5917.38,0.06669
5911.59,0.06811
5905.81,0.06320
5900.02,0.06046
5894.23,0.05831
5888.45,0.05940
5882.66,0.05791
5876.88,0.05862
5871.09,0.05807
5865.3,0.05854
5859.52,0.05892
5853.73,0.05603
5847.94,0.05512
5842.16,0.05556
5836.37,0.05665
5830.59,0.05592
5824.8,0.05513
5819.01,0.05521
5813.23,0.05593
5807.44,0.05683
5801.65,0.05673
5795.87,0.05752
5790.08,0.05702
5784.3,0.05690
5778.51,0.05767
5772.72,0.05680
5766.94,0.05511
5761.15,0.05511
5755.36,0.05336
5749.58,0.05519
5743.79,0.05474
5738.01,0.05767
5732.22,0.05753
5726.43,0.05624
5720.65,0.05528
5714.86,0.05595
5709.07,0.05561
5703.29,0.05571
5697.5,0.05616
5691.72,0.05487
5685.93,0.05716
5680.14,0.05671
5674.36,0.05723
5668.57,0.05786
5662.78,0.05809
5657,0.05849
5651.21,0.06024
5645.43,0.05894
5639.64,0.05772
5633.85,0.05956
5628.07,0.05781
5622.28,0.05771
5616.5,0.06128
5610.71,0.05994
5604.92,0.05778
5599.14,0.05802
5593.35,0.06030
5587.56,0.06052
5581.78,0.05800
5575.99,0.06102
5570.21,0.06059
5564.42,0.05928
5558.63,0.05868
5552.85,0.05982
5547.06,0.06087
5541.27,0.05856
5535.49,0.06200
5529.7,0.06116
5523.92,0.06032
5518.13,0.06058
5512.34,0.06200
5506.56,0.06383
5500.77,0.06144
5494.98,0.05978
5489.2,0.06105
5483.41,0.06168
5477.63,0.06252
5471.84,0.06051
5466.05,0.06242
5460.27,0.06030
5454.48,0.06134
5448.69,0.06387
5442.91,0.06295
5437.12,0.06204
5431.34,0.06084
5425.55,0.06116
5419.76,0.06309
5413.98,0.06347
5408.19,0.06386
5402.4,0.06237
5396.62,0.06452
5390.83,0.06464
5385.05,0.06221
5379.26,0.06534
5373.47,0.06562
5367.69,0.06640
5361.9,0.06811
5356.11,0.06508
5350.33,0.06566
5344.54,0.06550
5338.76,0.06578
5332.97,0.06564
5327.18,0.06563
5321.4,0.06578
5315.61,0.06450
5309.83,0.06454
5304.04,0.06418
5298.25,0.06301
5292.47,0.06308
5286.68,0.06187
5280.89,0.06048
5275.11,0.06191
5269.32,0.06161
5263.54,0.05983
5257.75,0.06027
5251.96,0.05987
5246.18,0.05955
5240.39,0.05784
5234.6,0.05978
5228.82,0.05916
5223.03,0.05963
5217.25,0.05932
5211.46,0.05866
5205.67,0.05903
5199.89,0.05848
5194.1,0.05828
5188.31,0.05838
5182.53,0.05786
5176.74,0.05719
5170.96,0.05774
5165.17,0.05727
5159.38,0.05686
5153.6,0.05587
5147.81,0.05626
5142.02,0.05683
5136.24,0.05729
5130.45,0.05896
5124.67,0.05549
5118.88,0.05809
5113.09,0.05758
5107.31,0.05750
5101.52,0.05736
5095.73,0.05723
5089.95,0.05675
5084.16,0.05787
5078.38,0.05792
5072.59,0.05792
5066.8,0.05934
5061.02,0.05835
5055.23,0.05750
5049.45,0.05836
5043.66,0.05860
5037.87,0.05878
5032.09,0.05776
5026.3,0.05804
5020.51,0.05816
5014.73,0.05838
5008.94,0.05864
5003.16,0.05738
4997.37,0.05813
4991.58,0.05748
4985.8,0.05812
4980.01,0.05753
4974.22,0.05638
4968.44,0.05652
4962.65,0.05662
4956.87,0.05781
4951.08,0.05718
4945.29,0.05594
4939.51,0.05586
4933.72,0.05737
4927.93,0.05729
4922.15,0.05694
4916.36,0.05683
4910.58,0.05675
4904.79,0.05544
4899,0.05674
4893.22,0.05581
4887.43,0.05691
4881.64,0.05691
4875.86,0.05623
4870.07,0.05680
4864.29,0.05677
4858.5,0.05711
4852.71,0.05714
4846.93,0.05680
4841.14,0.05762
4835.35,0.05863
4829.57,0.05706
4823.78,0.05807
4818,0.05720
4812.21,0.05754
4806.42,0.05746
4800.64,0.05850
4794.85,0.05825
4789.06,0.05857
4783.28,0.05778
4777.49,0.05768
4771.71,0.05752
4765.92,0.05909
4760.13,0.05798
4754.35,0.05733
4748.56,0.05794
4742.78,0.05775
4736.99,0.05743
4731.2,0.05810
4725.42,0.05690
4719.63,0.05702
4713.84,0.05739
4708.06,0.05709
4702.27,0.05714
4696.49,0.05678
4690.7,0.05738
4684.91,0.05729
4679.13,0.05780
4673.34,0.05716
4667.55,0.05755
4661.77,0.05682
4655.98,0.05717
4650.2,0.05656
4644.41,0.05731
4638.62,0.05662
4632.84,0.05748
4627.05,0.05779
4621.26,0.05753
4615.48,0.05750
4609.69,0.05721
4603.91,0.05744
4598.12,0.05705
4592.33,0.05749
4586.55,0.05672
4580.76,0.05718
4574.97,0.05750
4569.19,0.05757
4563.4,0.05833
4557.62,0.05786
4551.83,0.05711
4546.04,0.05817
4540.26,0.05765
4534.47,0.05738
4528.68,0.05744
4522.9,0.05759
4517.11,0.05732
4511.33,0.05726
4505.54,0.05655
4499.75,0.05775
4493.97,0.05783
4488.18,0.05695
4482.4,0.05675
4476.61,0.05723
4470.82,0.05807
4465.04,0.05734
4459.25,0.05772
4453.46,0.05805
4447.68,0.05756
4441.89,0.05845
4436.11,0.05702
4430.32,0.05723
4424.53,0.05636
4418.75,0.05781
4412.96,0.05795
4407.17,0.05742
4401.39,0.05837
4395.6,0.05802
4389.82,0.05666
4384.03,0.05715
4378.24,0.05769
4372.46,0.05688
4366.67,0.05815
4360.88,0.05790
4355.1,0.05765
4349.31,0.05770
4343.53,0.05759
4337.74,0.05700
4331.95,0.05758
4326.17,0.05822
4320.38,0.05774
4314.59,0.05730
4308.81,0.05722
4303.02,0.05791
4297.24,0.05746
4291.45,0.05787
4285.66,0.05746
4279.88,0.05717
4274.09,0.05796
4268.3,0.05867
4262.52,0.05730
4256.73,0.05749
4250.95,0.05810
4245.16,0.05814
4239.37,0.05805
4233.59,0.05823
4227.8,0.05821
4222.02,0.05789
4216.23,0.05768
4210.44,0.05808
4204.66,0.05723
4198.87,0.05737
4193.08,0.05779
4187.3,0.05789
4181.51,0.05769
4175.73,0.05718
4169.94,0.05807
4164.15,0.05800
4158.37,0.05771
4152.58,0.05816
4146.79,0.05832
4141.01,0.05796
4135.22,0.05816
4129.44,0.05860
4123.65,0.05836
4117.86,0.05801
4112.08,0.05849
4106.29,0.05841
4100.5,0.05808
4094.72,0.05802
4088.93,0.05821
4083.15,0.05852
4077.36,0.05814
4071.57,0.05776
4065.79,0.05828
4060,0.05806
4054.21,0.05875
4048.43,0.05900
4042.64,0.05825
4036.86,0.05834
4031.07,0.05880
4025.28,0.05835
4019.5,0.05864
4013.71,0.05822
4007.92,0.05833
4002.14,0.05777
3996.35,0.05840
3990.57,0.05834
3984.78,0.05886
3978.99,0.05820
3973.21,0.05805
3967.42,0.05815
3961.63,0.05841
3955.85,0.05862
3950.06,0.05900
3944.28,0.05824
3938.49,0.05844
3932.7,0.05826
3926.92,0.05769
3921.13,0.05826
3915.35,0.05879
3909.56,0.05871
3903.77,0.05875
3897.99,0.05878
3892.2,0.05822
3886.41,0.05830
3880.63,0.05896
3874.84,0.05875
3869.06,0.05767
3863.27,0.05802
3857.48,0.05827
3851.7,0.05837
3845.91,0.05905
3840.12,0.05899
3834.34,0.05797
3828.55,0.05835
3822.77,0.05814
3816.98,0.05854
3811.19,0.05789
3805.41,0.05810
3799.62,0.05829
3793.83,0.05832
3788.05,0.05834
3782.26,0.05807
3776.48,0.05862
3770.69,0.05838
3764.9,0.05872
3759.12,0.05871
3753.33,0.05830
3747.54,0.05865
3741.76,0.05807
3735.97,0.05711
3730.19,0.05770
3724.4,0.05825
3718.61,0.05817
3712.83,0.05766
3707.04,0.05726
3701.25,0.05776
3695.47,0.05773
3689.68,0.05769
3683.9,0.05732
3678.11,0.05737
3672.32,0.05790
3666.54,0.05751
3660.75,0.05767
3654.97,0.05810
3649.18,0.05844
3643.39,0.05665
3637.61,0.05719
3631.82,0.05737
3626.03,0.05675
3620.25,0.05757
3614.46,0.05696
3608.68,0.05712
3602.89,0.05682
3597.1,0.05662
3591.32,0.05633
3585.53,0.05608
3579.74,0.05658
3573.96,0.05681
3568.17,0.05651
3562.39,0.05634
3556.6,0.05615
3550.81,0.05640
3545.03,0.05614
3539.24,0.05614
3533.45,0.05625
3527.67,0.05623
3521.88,0.05581
3516.1,0.05557
3510.31,0.05589
3504.52,0.05505
3498.74,0.05561
3492.95,0.05528
3487.16,0.05491
3481.38,0.05495
3475.59,0.05489
3469.81,0.05475
3464.02,0.05451
3458.23,0.05428
3452.45,0.05445
3446.66,0.05495
3440.87,0.05438
3435.09,0.05397
3429.3,0.05436
3423.52,0.05306
3417.73,0.05328
3411.94,0.05290
3406.16,0.05261
3400.37,0.05214
3394.58,0.05168
3388.8,0.05189
3383.01,0.05109
3377.23,0.05081
3371.44,0.05041
3365.65,0.04954
3359.87,0.04891
3354.08,0.04872
3348.3,0.04784
3342.51,0.04718
3336.72,0.04670
3330.94,0.04443
3325.15,0.04469
3319.36,0.04549
3313.58,0.04866
3307.79,0.05484
3302.01,0.06152
3296.22,0.06758
3290.43,0.06950
3284.65,0.06913
3278.86,0.06905
3273.07,0.06751
3267.29,0.06729
3261.5,0.06709
3255.72,0.06709
3249.93,0.06546
3244.14,0.06528
3238.36,0.06447
3232.57,0.06347
3226.78,0.06418
3221,0.06250
3215.21,0.06194
3209.43,0.06316
3203.64,0.06202
3197.85,0.06228
3192.07,0.06237
3186.28,0.06221
3180.49,0.06268
3174.71,0.06153
3168.92,0.06253
3163.14,0.06139
3157.35,0.06194
3151.56,0.06102
3145.78,0.06115
3139.99,0.06046
3134.2,0.06055
3128.42,0.06071
3122.63,0.06006
3116.85,0.05975
3111.06,0.05940
3105.27,0.05963
3099.49,0.05906
3093.7,0.05843
3087.92,0.05904
3082.13,0.05916
3076.34,0.05945
3070.56,0.05993
3064.77,0.05986
3058.98,0.06001
3053.2,0.06019
3047.41,0.06006
3041.63,0.06035
3035.84,0.06015
3030.05,0.05953
3024.27,0.05941
3018.48,0.05875
3012.69,0.05903
3006.91,0.05836
3001.12,0.05829
2995.34,0.05807
2989.55,0.05743
2983.76,0.05668
2977.98,0.05602
2972.19,0.05545
2966.4,0.05505
2960.62,0.05514
2954.83,0.05476
2949.05,0.05414
2943.26,0.05529
2937.47,0.05679
2931.69,0.06051
2925.9,0.06417
2920.11,0.06593
2914.33,0.06583
2908.54,0.06456
2902.76,0.06438
2896.97,0.06385
2891.18,0.06280
2885.4,0.06146
2879.61,0.06085
2873.82,0.06179
2868.04,0.06268
2862.25,0.06374
2856.47,0.06742
2850.68,0.06911
2844.89,0.06812
2839.11,0.06665
2833.32,0.06610
2827.53,0.06496
2821.75,0.06430
2815.96,0.06393
2810.18,0.06394
2804.39,0.06379
2798.6,0.06379
2792.82,0.06357
2787.03,0.06341
2781.25,0.06328
2775.46,0.06293
2769.67,0.06309
2763.89,0.06256
2758.1,0.06287
2752.31,0.06234
2746.53,0.06263
2740.74,0.06229
2734.96,0.06241
2729.17,0.06254
2723.38,0.06245
2717.6,0.06210
2711.81,0.06236
2706.02,0.06220
2700.24,0.06193
2694.45,0.06222
2688.67,0.06196
2682.88,0.06213
2677.09,0.06213
2671.31,0.06198
2665.52,0.06173
2659.73,0.06190
2653.95,0.06155
2648.16,0.06162
2642.38,0.06175
2636.59,0.06154
2630.8,0.06160
2625.02,0.06160
2619.23,0.06129
2613.44,0.06142
2607.66,0.06150
2601.87,0.06076
2596.09,0.06111
2590.3,0.06132
2584.51,0.06100
2578.73,0.06127
2572.94,0.06101
2567.15,0.06104
2561.37,0.06129
2555.58,0.06116
2549.8,0.06128
2544.01,0.06134
2538.22,0.06112
2532.44,0.06142
2526.65,0.06085
2520.87,0.06081
2515.08,0.06102
2509.29,0.06084
2503.51,0.06074
2497.72,0.06112
2491.93,0.06098
2486.15,0.06070
2480.36,0.06054
2474.58,0.06094
2468.79,0.06078
2463,0.06083
2457.22,0.06069
2451.43,0.06078
2445.64,0.06074
2439.86,0.06091
2434.07,0.06087
2428.29,0.06064
2422.5,0.06053
2416.71,0.06051
2410.93,0.06044
2405.14,0.06052
2399.35,0.06063
2393.57,0.06004
2387.78,0.06056
2382,0.06044
2376.21,0.06032
2370.42,0.06048
2364.64,0.06026
2358.85,0.06008
2353.06,0.06013
2347.28,0.06004
2341.49,0.06002
2335.71,0.05994
2329.92,0.06019
2324.13,0.06023
2318.35,0.05996
2312.56,0.06014
2306.77,0.06018
2300.99,0.06006
2295.2,0.05978
2289.42,0.05998
2283.63,0.05991
2277.84,0.05952
2272.06,0.05964
2266.27,0.05957
2260.48,0.05961
2254.7,0.05994
2248.91,0.05960
2243.13,0.05975
2237.34,0.05938
2231.55,0.05916
2225.77,0.05937
2219.98,0.05982
2214.2,0.05965
2208.41,0.05964
2202.62,0.05950
2196.84,0.05922
2191.05,0.05899
2185.26,0.05895
2179.48,0.05923
2173.69,0.05938
2167.91,0.05939
2162.12,0.05922
2156.33,0.05900
2150.55,0.05897
2144.76,0.05902
2138.97,0.05869
2133.19,0.05865
2127.4,0.05873
2121.62,0.05876
2115.83,0.05852
2110.04,0.05841
2104.26,0.05874
2098.47,0.05826
2092.68,0.05850
2086.9,0.05869
2081.11,0.05838
2075.33,0.05841
2069.54,0.05805
2063.75,0.05817
2057.97,0.05816
2052.18,0.05852
2046.39,0.05818
2040.61,0.05798
2034.82,0.05797
2029.04,0.05779
2023.25,0.05784
2017.46,0.05785
2011.68,0.05761
2005.89,0.05777
2000.1,0.05767
1994.32,0.05767
1988.53,0.05738
1982.75,0.05725
1976.96,0.05725
1971.17,0.05757
1965.39,0.05717
1959.6,0.05733
1953.82,0.05692
1948.03,0.05692
1942.24,0.05659
1936.46,0.05665
1930.67,0.05651
1924.88,0.05654
1919.1,0.05605
1913.31,0.05593
1907.53,0.05585
1901.74,0.05589
1895.95,0.05548
1890.17,0.05554
1884.38,0.05564
1878.59,0.05521
1872.81,0.05511
1867.02,0.05514
1861.24,0.05503
1855.45,0.05451
1849.66,0.05448
1843.88,0.05425
1838.09,0.05411
1832.3,0.05417
1826.52,0.05338
1820.73,0.05321
1814.95,0.05291
1809.16,0.05279
1803.37,0.05268
1797.59,0.05202
1791.8,0.05133
1786.01,0.05104
1780.23,0.05093
1774.44,0.05015
1768.66,0.04959
1762.87,0.04892
1757.08,0.04922
1751.3,0.04976
1745.51,0.04947
1739.72,0.04894
1733.94,0.04837
1728.15,0.04662
1722.37,0.04588
1716.58,0.04459
1710.79,0.04344
1705.01,0.04222
1699.22,0.04027
1693.43,0.03881
1687.65,0.03733
1681.86,0.03470
1676.08,0.03391
1670.29,0.03290
1664.5,0.03473
1658.72,0.04130
1652.93,0.05569
1647.15,0.08040
1641.36,0.11294
1635.57,0.13710
1629.79,0.13356
1624,0.11071
1618.21,0.09619
1612.43,0.08600
1606.64,0.08034
1600.86,0.07521
1595.07,0.06983
1589.28,0.06506
1583.5,0.06011
1577.71,0.05561
1571.92,0.05136
1566.14,0.04754
1560.35,0.04685
1554.57,0.04952
1548.78,0.05863
1542.99,0.07657
1537.21,0.09671
1531.42,0.10146
1525.63,0.09608
1519.85,0.08957
1514.06,0.08472
1508.28,0.08105
1502.49,0.07778
1496.7,0.07497
1490.92,0.07249
1485.13,0.06908
1479.34,0.06761
1473.56,0.07318
1467.77,0.07299
1461.99,0.07526
1456.2,0.07386
1450.41,0.07196
1444.63,0.07084
1438.84,0.07011
1433.05,0.07012
1427.27,0.06960
1421.48,0.07052
1415.7,0.07626
1409.91,0.07525
1404.12,0.07260
1398.34,0.07029
1392.55,0.06868
1386.77,0.06779
1380.98,0.06762
1375.19,0.06858
1369.41,0.07031
1363.62,0.07117
1357.83,0.07143
1352.05,0.07179
1346.26,0.07115
1340.48,0.07029
1334.69,0.06950
1328.9,0.06869
1323.12,0.06832
1317.33,0.06685
1311.54,0.06634
1305.76,0.06599
1299.97,0.06567
1294.19,0.06460
1288.4,0.06378
1282.61,0.06315
1276.83,0.06596
1271.04,0.06990
1265.25,0.07312
1259.47,0.07269
1253.68,0.07275
1247.9,0.07238
1242.11,0.07194
1236.32,0.07139
1230.54,0.07099
1224.75,0.07073
1218.96,0.07033
1213.18,0.06831
1207.39,0.06649
1201.61,0.06856
1195.82,0.07520
1190.03,0.07408
1184.25,0.07308
1178.46,0.07418
1172.67,0.07423
1166.89,0.07332
1161.1,0.07268
1155.32,0.07145
1149.53,0.07070
1143.74,0.07175
1137.96,0.07220
1132.17,0.07146
1126.38,0.07088
1120.6,0.07045
1114.81,0.07053
1109.03,0.07002
1103.24,0.06940
1097.45,0.06960
1091.67,0.06941
1085.88,0.06928
1080.1,0.06927
1074.31,0.06823
1068.52,0.06788
1062.74,0.06854
1056.95,0.06836
1051.16,0.06787
1045.38,0.06835
1039.59,0.06766
1033.81,0.06809
1028.02,0.06850
1022.23,0.06815
1016.45,0.06797
1010.66,0.06773
1004.87,0.06814
999.088,0.06778
993.302,0.06722
987.516,0.06709
981.729,0.06655
975.943,0.06644
970.157,0.06615
964.371,0.06602
958.585,0.06579
952.798,0.06484
947.012,0.06459
941.226,0.06447
935.44,0.06671
929.653,0.06834
923.867,0.06754
918.081,0.06648
912.295,0.06564
906.508,0.06506
900.722,0.06609
894.936,0.06625
889.15,0.06542
883.364,0.06547
877.577,0.06503
871.791,0.06462
866.005,0.06470
860.219,0.06516
854.432,0.06427
848.646,0.06396
842.86,0.06324
837.074,0.06344
831.288,0.06231
825.501,0.06253
819.715,0.06271
813.929,0.06180
808.143,0.06115
802.356,0.06046
796.57,0.05984
790.784,0.06001
784.998,0.05986
779.212,0.05885
773.425,0.05926
767.639,0.05823
761.853,0.05698
756.067,0.05754
750.28,0.05631
744.494,0.05487
738.708,0.05403
732.922,0.05262
727.136,0.05588
721.349,0.05673
715.563,0.05583
709.777,0.05478
703.991,0.05480
698.204,0.05600
692.418,0.05796
686.632,0.06294
680.846,0.06662
675.059,0.06773
669.273,0.06896
663.487,0.06895
657.701,0.06924
651.915,0.06801
646.128,0.06667
640.342,0.06658
634.556,0.06517
628.77,0.06567
622.983,0.06492
617.197,0.06412
611.411,0.06231
605.625,0.06180
599.839,0.06090