File: 01_Data/Nylon/FTIR/IS/Nylon_3.175_T_IS_221212_R3.dpt
7497.02,0.02385
7491.23,0.02513
7485.45,0.01965
7479.66,0.02483
7473.87,0.02688
7468.09,0.02677
7462.3,0.03135
7456.51,0.02764
7450.73,0.01523
7444.94,0.02304
7439.16,0.02649
7433.37,0.02616
7427.58,0.02643
7421.8,0.02400
7416.01,0.02579
7410.22,0.02114
7404.44,0.01744
7398.65,0.02608
7392.87,0.02380
7387.08,0.02861
7381.29,0.03186
7375.51,0.02524
7369.72,0.02501
7363.93,0.02772
7358.15,0.03388
7352.36,0.02811
7346.58,0.02909
7340.79,0.02404
7335,0.02846
7329.22,0.03156
7323.43,0.03155
7317.65,0.02489
7311.86,0.02322
7306.07,0.02295
7300.29,0.02509
7294.5,0.02822
7288.71,0.02515
7282.93,0.03139
7277.14,0.03287
7271.36,0.03247
7265.57,0.02569
7259.78,0.01960
7254,0.01694
7248.21,0.02187
7242.42,0.02327
7236.64,0.03123
7230.85,0.02855
7225.07,0.02369
7219.28,0.03547
7213.49,0.02665
7207.71,0.02173
7201.92,0.03141
7196.13,0.02766
7190.35,0.01031
7184.56,0.01717
7178.78,0.02849
7172.99,0.02114
7167.2,0.02696
7161.42,0.03387
7155.63,0.02883
7149.84,0.02909
7144.06,0.03240
7138.27,0.02635
7132.49,0.02429
7126.7,0.02340
7120.91,0.02646
7115.13,0.03514
7109.34,0.02607
7103.55,0.02339
7097.77,0.02275
7091.98,0.02019
7086.2,0.02636
7080.41,0.01695
7074.62,0.02537
7068.84,0.02107
7063.05,0.02453
7057.26,0.02823
7051.48,0.02441
7045.69,0.02433
7039.91,0.03030
7034.12,0.03144
7028.33,0.02319
7022.55,0.01779
7016.76,0.02010
7010.98,0.02782
7005.19,0.02194
6999.4,0.03026
6993.62,0.02430
6987.83,0.02524
6982.04,0.02452
6976.26,0.02340
6970.47,0.01922
6964.69,0.02576
6958.9,0.02820
6953.11,0.01876
6947.33,0.02404
6941.54,0.02628
6935.75,0.02976
6929.97,0.02416
6924.18,0.02696
6918.4,0.02155
6912.61,0.02633
6906.82,0.01975
6901.04,0.02106
6895.25,0.02267
6889.46,0.02662
6883.68,0.02174
6877.89,0.02304
6872.11,0.02045
6866.32,0.02690
6860.53,0.02446
6854.75,0.02021
6848.96,0.01628
6843.17,0.01559
6837.39,0.02420
6831.6,0.02446
6825.82,0.02526
6820.03,0.02859
6814.24,0.02302
6808.46,0.02404
6802.67,0.01862
6796.88,0.01884
6791.1,0.02126
6785.31,0.01882
6779.53,0.02553
6773.74,0.02093
6767.95,0.02103
6762.17,0.02664
6756.38,0.02104
6750.6,0.02627
6744.81,0.01762
6739.02,0.02089
6733.24,0.02598
6727.45,0.02343
6721.66,0.02162
6715.88,0.01913
6710.09,0.01852
6704.31,0.02250
6698.52,0.02095
6692.73,0.02256
6686.95,0.02634
6681.16,0.02306
6675.37,0.02528
6669.59,0.02333
6663.8,0.02179
6658.02,0.02418
6652.23,0.02459
6646.44,0.02731
6640.66,0.02119
6634.87,0.02458
6629.08,0.02490
6623.3,0.02240
6617.51,0.02090
6611.73,0.02259
6605.94,0.02068
6600.15,0.02419
6594.37,0.02187
6588.58,0.02599
6582.79,0.01926
6577.01,0.02257
6571.22,0.02589
6565.44,0.02511
6559.65,0.02077
6553.86,0.01918
6548.08,0.02629
6542.29,0.01892
6536.5,0.02017
6530.72,0.02372
6524.93,0.02749
6519.15,0.02339
6513.36,0.02120
6507.57,0.01951
6501.79,0.02385
6496,0.02374
6490.21,0.02264
6484.43,0.02059
6478.64,0.02447
6472.86,0.02774
6467.07,0.02465
6461.28,0.02278
6455.5,0.02414
6449.71,0.02672
6443.93,0.02261
6438.14,0.02307
6432.35,0.02222
6426.57,0.02386
6420.78,0.02018
6414.99,0.02061
6409.21,0.02578
6403.42,0.02435
6397.64,0.02051
6391.85,0.02383
6386.06,0.02431
6380.28,0.02094
6374.49,0.02359
6368.7,0.02649
6362.92,0.02052
6357.13,0.02539
6351.35,0.02768
6345.56,0.02408
6339.77,0.02251
6333.99,0.02289
6328.2,0.01986
6322.41,0.02636
6316.63,0.02267
6310.84,0.02250
6305.06,0.02293
6299.27,0.02364
6293.48,0.02472
6287.7,0.02251
6281.91,0.02144
6276.12,0.02081
6270.34,0.02185
6264.55,0.01914
6258.77,0.02286
6252.98,0.02661
6247.19,0.02094
6241.41,0.02261
6235.62,0.02517
6229.83,0.02596
6224.05,0.02606
6218.26,0.02132
6212.48,0.02370
6206.69,0.02481
6200.9,0.02113
6195.12,0.02062
6189.33,0.02162
6183.55,0.02026
6177.76,0.02322
6171.97,0.02312
6166.19,0.02215
6160.4,0.02554
6154.61,0.01723
6148.83,0.02135
6143.04,0.02105
6137.26,0.02088
6131.47,0.01868
6125.68,0.01875
6119.9,0.02742
6114.11,0.02217
6108.32,0.02461
6102.54,0.02211
6096.75,0.02165
6090.97,0.02269
6085.18,0.02194
6079.39,0.02313
6073.61,0.02258
6067.82,0.02091
6062.03,0.02017
6056.25,0.02392
6050.46,0.02367
6044.68,0.02233
6038.89,0.02227
6033.1,0.02267
6027.32,0.02210
6021.53,0.02212
6015.74,0.02106
6009.96,0.02124
6004.17,0.02726
5998.39,0.02382
5992.6,0.02227
5986.81,0.02126
5981.03,0.02325
5975.24,0.02079
5969.45,0.02447
5963.67,0.02132
5957.88,0.02154
5952.1,0.02326
5946.31,0.02390
5940.52,0.02253
5934.74,0.02138
5928.95,0.02280
5923.16,0.02500
5917.38,0.02590
5911.59,0.02489
5905.81,0.02266
5900.02,0.02223
5894.23,0.02324
5888.45,0.02413
5882.66,0.02105
5876.88,0.02148
5871.09,0.02034
5865.3,0.02274
5859.52,0.02033
5853.73,0.02230
5847.94,0.02345
5842.16,0.02204
5836.37,0.02393
5830.59,0.02330
5824.8,0.02275
5819.01,0.02414
5813.23,0.02306
5807.44,0.02424
5801.65,0.02236
5795.87,0.02346
5790.08,0.02336
5784.3,0.02371
5778.51,0.02313
5772.72,0.02251
5766.94,0.02195
5761.15,0.02374
5755.36,0.02208
5749.58,0.02015
5743.79,0.02453
5738.01,0.02308
5732.22,0.02393
5726.43,0.02091
5720.65,0.02056
5714.86,0.02246
5709.07,0.02282
5703.29,0.02229
5697.5,0.02323
5691.72,0.02188
5685.93,0.02402
5680.14,0.02034
5674.36,0.02408
5668.57,0.02542
5662.78,0.02359
5657,0.02289
5651.21,0.02454
5645.43,0.02358
5639.64,0.02021
5633.85,0.02206
5628.07,0.02225
5622.28,0.02098
5616.5,0.02233
5610.71,0.02424
5604.92,0.02368
5599.14,0.02187
5593.35,0.02272
5587.56,0.02253
5581.78,0.02243
5575.99,0.02134
5570.21,0.02024
5564.42,0.02307
5558.63,0.02335
5552.85,0.02191
5547.06,0.02165
5541.27,0.02190
5535.49,0.02448
5529.7,0.02482
5523.92,0.02300
5518.13,0.02173
5512.34,0.02260
5506.56,0.02335
5500.77,0.02353
5494.98,0.02065
5489.2,0.02189
5483.41,0.02232
5477.63,0.02087
5471.84,0.02247
5466.05,0.02257
5460.27,0.02382
5454.48,0.02262
5448.69,0.02259
5442.91,0.02232
5437.12,0.02332
5431.34,0.02389
5425.55,0.02201
5419.76,0.02459
5413.98,0.02172
5408.19,0.02233
5402.4,0.02202
5396.62,0.02306
5390.83,0.02262
5385.05,0.02165
5379.26,0.02250
5373.47,0.02305
5367.69,0.02237
5361.9,0.02224
5356.11,0.02116
5350.33,0.02462
5344.54,0.02350
5338.76,0.02362
5332.97,0.02443
5327.18,0.02483
5321.4,0.02285
5315.61,0.02290
5309.83,0.02247
5304.04,0.02196
5298.25,0.02329
5292.47,0.02333
5286.68,0.02297
5280.89,0.02281
5275.11,0.02298
5269.32,0.02333
5263.54,0.02212
5257.75,0.02243
5251.96,0.02520
5246.18,0.02378
5240.39,0.02374
5234.6,0.02167
5228.82,0.02264
5223.03,0.02208
5217.25,0.02216
5211.46,0.02268
5205.67,0.02319
5199.89,0.02319
5194.1,0.02376
5188.31,0.02465
5182.53,0.02385
5176.74,0.02227
5170.96,0.02384
5165.17,0.02267
5159.38,0.02218
5153.6,0.02248
5147.81,0.02347
5142.02,0.02312
5136.24,0.02255
5130.45,0.02234
5124.67,0.02299
5118.88,0.02373
5113.09,0.02430
5107.31,0.02316
5101.52,0.02260
5095.73,0.02420
5089.95,0.02330
5084.16,0.02195
5078.38,0.02372
5072.59,0.02212
5066.8,0.02217
5061.02,0.02251
5055.23,0.02162
5049.45,0.02213
5043.66,0.02276
5037.87,0.02383
5032.09,0.02416
5026.3,0.02367
5020.51,0.02444
5014.73,0.02451
5008.94,0.02362
5003.16,0.02401
4997.37,0.02318
4991.58,0.02288
4985.8,0.02255
4980.01,0.02367
4974.22,0.02292
4968.44,0.02387
4962.65,0.02303
4956.87,0.02444
4951.08,0.02425
4945.29,0.02349
4939.51,0.02283
4933.72,0.02360
4927.93,0.02241
4922.15,0.02255
4916.36,0.02399
4910.58,0.02399
4904.79,0.02286
4899,0.02340
4893.22,0.02318
4887.43,0.02305
4881.64,0.02411
4875.86,0.02209
4870.07,0.02233
4864.29,0.02268
4858.5,0.02365
4852.71,0.02357
4846.93,0.02350
4841.14,0.02345
4835.35,0.02394
4829.57,0.02306
4823.78,0.02409
4818,0.02404
4812.21,0.02404
4806.42,0.02312
4800.64,0.02249
4794.85,0.02374
4789.06,0.02287
4783.28,0.02363
4777.49,0.02252
4771.71,0.02442
4765.92,0.02322
4760.13,0.02310
4754.35,0.02266
4748.56,0.02347
4742.78,0.02370
4736.99,0.02316
4731.2,0.02298
4725.42,0.02352
4719.63,0.02335
4713.84,0.02423
4708.06,0.02401
4702.27,0.02409
4696.49,0.02324
4690.7,0.02279
4684.91,0.02324
4679.13,0.02322
4673.34,0.02340
4667.55,0.02382
4661.77,0.02337
4655.98,0.02455
4650.2,0.02374
4644.41,0.02345
4638.62,0.02313
4632.84,0.02337
4627.05,0.02307
4621.26,0.02356
4615.48,0.02341
4609.69,0.02382
4603.91,0.02354
4598.12,0.02365
4592.33,0.02384
4586.55,0.02282
4580.76,0.02316
4574.97,0.02395
4569.19,0.02290
4563.4,0.02381
4557.62,0.02402
4551.83,0.02362
4546.04,0.02351
4540.26,0.02322
4534.47,0.02376
4528.68,0.02308
4522.9,0.02309
4517.11,0.02336
4511.33,0.02389
4505.54,0.02417
4499.75,0.02395
4493.97,0.02275
4488.18,0.02341
4482.4,0.02358
4476.61,0.02308
4470.82,0.02250
4465.04,0.02359
4459.25,0.02303
4453.46,0.02335
4447.68,0.02331
4441.89,0.02285
4436.11,0.02354
4430.32,0.02346
4424.53,0.02374
4418.75,0.02333
4412.96,0.02335
4407.17,0.02355
4401.39,0.02305
4395.6,0.02356
4389.82,0.02339
4384.03,0.02388
4378.24,0.02409
4372.46,0.02279
4366.67,0.02272
4360.88,0.02313
4355.1,0.02388
4349.31,0.02367
4343.53,0.02290
4337.74,0.02296
4331.95,0.02345
4326.17,0.02343
4320.38,0.02355
4314.59,0.02359
4308.81,0.02322
4303.02,0.02400
4297.24,0.02395
4291.45,0.02352
4285.66,0.02346
4279.88,0.02352
4274.09,0.02430
4268.3,0.02396
4262.52,0.02405
4256.73,0.02385
4250.95,0.02318
4245.16,0.02368
4239.37,0.02401
4233.59,0.02350
4227.8,0.02383
4222.02,0.02404
4216.23,0.02387
4210.44,0.02395
4204.66,0.02317
4198.87,0.02321
4193.08,0.02337
4187.3,0.02419
4181.51,0.02369
4175.73,0.02300
4169.94,0.02336
4164.15,0.02344
4158.37,0.02383
4152.58,0.02391
4146.79,0.02416
4141.01,0.02376
4135.22,0.02361
4129.44,0.02411
4123.65,0.02393
4117.86,0.02361
4112.08,0.02379
4106.29,0.02452
4100.5,0.02418
4094.72,0.02375
4088.93,0.02367
4083.15,0.02327
4077.36,0.02292
4071.57,0.02382
4065.79,0.02348
4060,0.02354
4054.21,0.02394
4048.43,0.02441
4042.64,0.02351
4036.86,0.02358
4031.07,0.02337
4025.28,0.02402
4019.5,0.02372
4013.71,0.02416
4007.92,0.02367
4002.14,0.02400
3996.35,0.02363
3990.57,0.02388
3984.78,0.02399
3978.99,0.02370
3973.21,0.02389
3967.42,0.02411
3961.63,0.02367
3955.85,0.02417
3950.06,0.02421
3944.28,0.02376
3938.49,0.02383
3932.7,0.02399
3926.92,0.02399
3921.13,0.02447
3915.35,0.02389
3909.56,0.02387
3903.77,0.02355
3897.99,0.02349
3892.2,0.02325
3886.41,0.02398
3880.63,0.02423
3874.84,0.02386
3869.06,0.02383
3863.27,0.02382
3857.48,0.02418
3851.7,0.02429
3845.91,0.02419
3840.12,0.02420
3834.34,0.02447
3828.55,0.02345
3822.77,0.02391
3816.98,0.02424
3811.19,0.02388
3805.41,0.02379
3799.62,0.02352
3793.83,0.02337
3788.05,0.02382
3782.26,0.02442
3776.48,0.02354
3770.69,0.02391
3764.9,0.02427
3759.12,0.02372
3753.33,0.02467
3747.54,0.02439
3741.76,0.02408
3735.97,0.02403
3730.19,0.02348
3724.4,0.02383
3718.61,0.02400
3712.83,0.02392
3707.04,0.02376
3701.25,0.02300
3695.47,0.02379
3689.68,0.02355
3683.9,0.02328
3678.11,0.02373
3672.32,0.02409
3666.54,0.02391
3660.75,0.02370
3654.97,0.02288
3649.18,0.02336
3643.39,0.02269
3637.61,0.02321
3631.82,0.02331
3626.03,0.02352
3620.25,0.02309
3614.46,0.02321
3608.68,0.02269
3602.89,0.02277
3597.1,0.02277
3591.32,0.02295
3585.53,0.02294
3579.74,0.02331
3573.96,0.02287
3568.17,0.02251
3562.39,0.02219
3556.6,0.02255
3550.81,0.02256
3545.03,0.02235
3539.24,0.02212
3533.45,0.02163
3527.67,0.02187
3521.88,0.02206
3516.1,0.02206
3510.31,0.02168
3504.52,0.02206
3498.74,0.02204
3492.95,0.02218
3487.16,0.02170
3481.38,0.02259
3475.59,0.02200
3469.81,0.02203
3464.02,0.02179
3458.23,0.02142
3452.45,0.02183
3446.66,0.02177
3440.87,0.02195
3435.09,0.02129
3429.3,0.02151
3423.52,0.02201
3417.73,0.02193
3411.94,0.02256
3406.16,0.02210
3400.37,0.02136
3394.58,0.02192
3388.8,0.02189
3383.01,0.02032
3377.23,0.02150
3371.44,0.02127
3365.65,0.02067
3359.87,0.02133
3354.08,0.02192
3348.3,0.02182
3342.51,0.02115
3336.72,0.02172
3330.94,0.02140
3325.15,0.02159
3319.36,0.02161
3313.58,0.02190
3307.79,0.02169
3302.01,0.02169
3296.22,0.02167
3290.43,0.02131
3284.65,0.02078
3278.86,0.02067
3273.07,0.02144
3267.29,0.02111
3261.5,0.02207
3255.72,0.02147
3249.93,0.02152
3244.14,0.02116
3238.36,0.02204
3232.57,0.02080
3226.78,0.02156
3221,0.02209
3215.21,0.02227
3209.43,0.02199
3203.64,0.02200
3197.85,0.02199
3192.07,0.02282
3186.28,0.02277
3180.49,0.02190
3174.71,0.02194
3168.92,0.02170
3163.14,0.02179
3157.35,0.02219
3151.56,0.02277
3145.78,0.02211
3139.99,0.02179
3134.2,0.02188
3128.42,0.02242
3122.63,0.02221
3116.85,0.02222
3111.06,0.02236
3105.27,0.02213
3099.49,0.02204
3093.7,0.02185
3087.92,0.02200
3082.13,0.02157
3076.34,0.02205
3070.56,0.02222
3064.77,0.02213
3058.98,0.02216
3053.2,0.02189
3047.41,0.02221
3041.63,0.02243
3035.84,0.02197
3030.05,0.02229
3024.27,0.02208
3018.48,0.02166
3012.69,0.02207
3006.91,0.02188
3001.12,0.02206
2995.34,0.02158
2989.55,0.02139
2983.76,0.02163
2977.98,0.02068
2972.19,0.02114
2966.4,0.02124
2960.62,0.02119
2954.83,0.02067
2949.05,0.02128
2943.26,0.02101
2937.47,0.02096
2931.69,0.02089
2925.9,0.02116
2920.11,0.02163
2914.33,0.02172
2908.54,0.02148
2902.76,0.02139
2896.97,0.02158
2891.18,0.02189
2885.4,0.02188
2879.61,0.02172
2873.82,0.02209
2868.04,0.02167
2862.25,0.02186
2856.47,0.02182
2850.68,0.02236
2844.89,0.02226
2839.11,0.02275
2833.32,0.02267
2827.53,0.02271
2821.75,0.02276
2815.96,0.02304
2810.18,0.02267
2804.39,0.02244
2798.6,0.02260
2792.82,0.02287
2787.03,0.02278
2781.25,0.02277
2775.46,0.02279
2769.67,0.02207
2763.89,0.02293
2758.1,0.02253
2752.31,0.02273
2746.53,0.02286
2740.74,0.02254
2734.96,0.02272
2729.17,0.02263
2723.38,0.02276
2717.6,0.02347
2711.81,0.02261
2706.02,0.02244
2700.24,0.02229
2694.45,0.02272
2688.67,0.02291
2682.88,0.02322
2677.09,0.02268
2671.31,0.02289
2665.52,0.02314
2659.73,0.02285
2653.95,0.02286
2648.16,0.02287
2642.38,0.02297
2636.59,0.02266
2630.8,0.02286
2625.02,0.02288
2619.23,0.02284
2613.44,0.02261
2607.66,0.02322
2601.87,0.02308
2596.09,0.02284
2590.3,0.02276
2584.51,0.02249
2578.73,0.02268
2572.94,0.02276
2567.15,0.02288
2561.37,0.02289
2555.58,0.02263
2549.8,0.02279
2544.01,0.02287
2538.22,0.02278
2532.44,0.02297
2526.65,0.02313
2520.87,0.02294
2515.08,0.02288
2509.29,0.02288
2503.51,0.02292
2497.72,0.02297
2491.93,0.02308
2486.15,0.02296
2480.36,0.02289
2474.58,0.02310
2468.79,0.02298
2463,0.02281
2457.22,0.02271
2451.43,0.02288
2445.64,0.02283
2439.86,0.02335
2434.07,0.02272
2428.29,0.02245
2422.5,0.02267
2416.71,0.02284
2410.93,0.02275
2405.14,0.02270
2399.35,0.02307
2393.57,0.02297
2387.78,0.02293
2382,0.02314
2376.21,0.02267
2370.42,0.02316
2364.64,0.02302
2358.85,0.02317
2353.06,0.02324
2347.28,0.02304
2341.49,0.02258
2335.71,0.02252
2329.92,0.02252
2324.13,0.02283
2318.35,0.02288
2312.56,0.02302
2306.77,0.02299
2300.99,0.02308
2295.2,0.02279
2289.42,0.02295
2283.63,0.02271
2277.84,0.02242
2272.06,0.02263
2266.27,0.02295
2260.48,0.02243
2254.7,0.02226
2248.91,0.02247
2243.13,0.02244
2237.34,0.02294
2231.55,0.02269
2225.77,0.02270
2219.98,0.02263
2214.2,0.02286
2208.41,0.02271
2202.62,0.02299
2196.84,0.02298
2191.05,0.02288
2185.26,0.02260
2179.48,0.02256
2173.69,0.02266
2167.91,0.02265
2162.12,0.02263
2156.33,0.02270
2150.55,0.02271
2144.76,0.02274
2138.97,0.02263
2133.19,0.02285
2127.4,0.02263
2121.62,0.02242
2115.83,0.02256
2110.04,0.02271
2104.26,0.02287
2098.47,0.02283
2092.68,0.02269
2086.9,0.02266
2081.11,0.02268
2075.33,0.02262
2069.54,0.02248
2063.75,0.02254
2057.97,0.02248
2052.18,0.02262
2046.39,0.02267
2040.61,0.02241
2034.82,0.02243
2029.04,0.02239
2023.25,0.02269
2017.46,0.02239
2011.68,0.02266
2005.89,0.02293
2000.1,0.02267
1994.32,0.02239
1988.53,0.02290
1982.75,0.02304
1976.96,0.02265
1971.17,0.02268
1965.39,0.02226
1959.6,0.02244
1953.82,0.02236
1948.03,0.02239
1942.24,0.02268
1936.46,0.02254
1930.67,0.02227
1924.88,0.02243
1919.1,0.02247
1913.31,0.02251
1907.53,0.02241
1901.74,0.02233
1895.95,0.02211
1890.17,0.02263
1884.38,0.02211
1878.59,0.02233
1872.81,0.02239
1867.02,0.02218
1861.24,0.02196
1855.45,0.02222
1849.66,0.02189
1843.88,0.02204
1838.09,0.02187
1832.3,0.02171
1826.52,0.02165
1820.73,0.02176
1814.95,0.02183
1809.16,0.02164
1803.37,0.02137
1797.59,0.02125
1791.8,0.02115
1786.01,0.02098
1780.23,0.02091
1774.44,0.02084
1768.66,0.02055
1762.87,0.01944
1757.08,0.01917
1751.3,0.01898
1745.51,0.01914
1739.72,0.02025
1733.94,0.02125
1728.15,0.02153
1722.37,0.02195
1716.58,0.02197
1710.79,0.02212
1705.01,0.02203
1699.22,0.02099
1693.43,0.02078
1687.65,0.02077
1681.86,0.02052
1676.08,0.02017
1670.29,0.02019
1664.5,0.02008
1658.72,0.02032
1652.93,0.02008
1647.15,0.01992
1641.36,0.02041
1635.57,0.01991
1629.79,0.01961
1624,0.02013
1618.21,0.02033
1612.43,0.02068
1606.64,0.02034
1600.86,0.02063
1595.07,0.02028
1589.28,0.02044
1583.5,0.02023
1577.71,0.02001
1571.92,0.02009
1566.14,0.01948
1560.35,0.01956
1554.57,0.01955
1548.78,0.01963
1542.99,0.02065
1537.21,0.02002
1531.42,0.02014
1525.63,0.02006
1519.85,0.01995
1514.06,0.01991
1508.28,0.02040
1502.49,0.01994
1496.7,0.02044
1490.92,0.02017
1485.13,0.02011
1479.34,0.02008
1473.56,0.01970
1467.77,0.01990
1461.99,0.01975
1456.2,0.02027
1450.41,0.02007
1444.63,0.02036
1438.84,0.02062
1433.05,0.02042
1427.27,0.02022
1421.48,0.01998
1415.7,0.01988
1409.91,0.01966
1404.12,0.01988
1398.34,0.01973
1392.55,0.01936
1386.77,0.01911
1380.98,0.01943
1375.19,0.01993
1369.41,0.01971
1363.62,0.01944
1357.83,0.01958
1352.05,0.01939
1346.26,0.01933
1340.48,0.01896
1334.69,0.01903
1328.9,0.01884
1323.12,0.01859
1317.33,0.01846
1311.54,0.01839
1305.76,0.01815
1299.97,0.01883
1294.19,0.01888
1288.4,0.01965
1282.61,0.01981
1276.83,0.02029
1271.04,0.02057
1265.25,0.02096
1259.47,0.02152
1253.68,0.02150
1247.9,0.02167
1242.11,0.02146
1236.32,0.02135
1230.54,0.02111
1224.75,0.02082
1218.96,0.02087
1213.18,0.02038
1207.39,0.02088
1201.61,0.02061
1195.82,0.01958
1190.03,0.02008
1184.25,0.01991
1178.46,0.01968
1172.67,0.01937
1166.89,0.01927
1161.1,0.01898
1155.32,0.01919
1149.53,0.01923
1143.74,0.01912
1137.96,0.01908
1132.17,0.01896
1126.38,0.01963
1120.6,0.02010
1114.81,0.02011
1109.03,0.02010
1103.24,0.01905
1097.45,0.01971
1091.67,0.01944
1085.88,0.01899
1080.1,0.02014
1074.31,0.02122
1068.52,0.02166
1062.74,0.02132
1056.95,0.02165
1051.16,0.02090
1045.38,0.02003
1039.59,0.02102
1033.81,0.02042
1028.02,0.02101
1022.23,0.02119
1016.45,0.02060
1010.66,0.02134
1004.87,0.02243
999.088,0.02258
993.302,0.02216
987.516,0.02231
981.729,0.02220
975.943,0.02159
970.157,0.02205
964.371,0.02194
958.585,0.02151
952.798,0.02123
947.012,0.02060
941.226,0.02103
935.44,0.02143
929.653,0.02096
923.867,0.02136
918.081,0.02101
912.295,0.02024
906.508,0.02073
900.722,0.02057
894.936,0.02062
889.15,0.02068
883.364,0.02011
877.577,0.02052
871.791,0.02042
866.005,0.02065
860.219,0.02003
854.432,0.02064
848.646,0.01986
842.86,0.02001
837.074,0.02028
831.288,0.02071
825.501,0.02075
819.715,0.02025
813.929,0.02106
808.143,0.02053
802.356,0.01981
796.57,0.01998
790.784,0.01973
784.998,0.02038
779.212,0.02024
773.425,0.01960
767.639,0.01974
761.853,0.01998
756.067,0.01986
750.28,0.01865
744.494,0.01964
738.708,0.01938
732.922,0.01895
727.136,0.01981
721.349,0.01971
715.563,0.02006
709.777,0.02036
703.991,0.02040
698.204,0.01952
692.418,0.01952
686.632,0.01925
680.846,0.01956
675.059,0.02036
669.273,0.01913
663.487,0.01929
657.701,0.01795
651.915,0.01835
646.128,0.01837
640.342,0.01757
634.556,0.01952
628.77,0.01680
622.983,0.01759
617.197,0.01942
611.411,0.01739
605.625,0.01707
599.839,0.01625