File: 01_Data/Nylon/FTIR/IS/Nylon_3.175_Trans_S_IS_221212_R1.dpt
7497.02,0.58692
7491.23,0.59029
7485.45,0.58612
7479.66,0.57775
7473.87,0.58613
7468.09,0.58225
7462.3,0.58813
7456.51,0.58219
7450.73,0.57973
7444.94,0.57384
7439.16,0.58581
7433.37,0.58771
7427.58,0.57809
7421.8,0.57988
7416.01,0.57216
7410.22,0.57826
7404.44,0.58168
7398.65,0.58202
7392.87,0.57739
7387.08,0.57482
7381.29,0.57641
7375.51,0.57668
7369.72,0.56779
7363.93,0.57197
7358.15,0.56781
7352.36,0.56247
7346.58,0.55648
7340.79,0.55599
7335,0.55147
7329.22,0.54583
7323.43,0.53861
7317.65,0.53020
7311.86,0.52689
7306.07,0.51897
7300.29,0.51342
7294.5,0.50731
7288.71,0.49481
7282.93,0.49162
7277.14,0.49117
7271.36,0.47870
7265.57,0.46747
7259.78,0.46353
7254,0.45222
7248.21,0.44385
7242.42,0.43527
7236.64,0.42692
7230.85,0.41958
7225.07,0.41711
7219.28,0.41518
7213.49,0.41672
7207.71,0.40991
7201.92,0.41072
7196.13,0.41811
7190.35,0.41730
7184.56,0.41662
7178.78,0.41963
7172.99,0.42036
7167.2,0.42712
7161.42,0.42812
7155.63,0.42631
7149.84,0.42364
7144.06,0.42100
7138.27,0.40447
7132.49,0.40459
7126.7,0.40783
7120.91,0.40185
7115.13,0.40457
7109.34,0.40725
7103.55,0.39960
7097.77,0.39933
7091.98,0.40542
7086.2,0.39806
7080.41,0.39929
7074.62,0.39692
7068.84,0.40124
7063.05,0.40055
7057.26,0.40081
7051.48,0.39834
7045.69,0.40331
7039.91,0.40185
7034.12,0.40186
7028.33,0.40632
7022.55,0.40685
7016.76,0.39906
7010.98,0.40153
7005.19,0.39862
6999.4,0.40216
6993.62,0.40637
6987.83,0.40255
6982.04,0.40348
6976.26,0.40637
6970.47,0.40832
6964.69,0.41159
6958.9,0.41028
6953.11,0.41547
6947.33,0.41430
6941.54,0.41434
6935.75,0.41421
6929.97,0.41688
6924.18,0.42468
6918.4,0.41974
6912.61,0.41596
6906.82,0.42159
6901.04,0.42973
6895.25,0.42440
6889.46,0.42542
6883.68,0.42495
6877.89,0.42791
6872.11,0.42892
6866.32,0.42285
6860.53,0.42687
6854.75,0.42083
6848.96,0.42438
6843.17,0.43221
6837.39,0.42819
6831.6,0.42941
6825.82,0.42652
6820.03,0.42877
6814.24,0.43136
6808.46,0.42772
6802.67,0.42345
6796.88,0.42156
6791.1,0.41877
6785.31,0.41921
6779.53,0.40887
6773.74,0.41015
6767.95,0.40229
6762.17,0.39446
6756.38,0.39543
6750.6,0.39319
6744.81,0.39155
6739.02,0.38780
6733.24,0.38837
6727.45,0.38539
6721.66,0.38586
6715.88,0.38495
6710.09,0.38021
6704.31,0.37683
6698.52,0.37382
6692.73,0.36689
6686.95,0.37002
6681.16,0.36376
6675.37,0.36276
6669.59,0.36090
6663.8,0.35390
6658.02,0.34749
6652.23,0.34636
6646.44,0.32957
6640.66,0.32383
6634.87,0.31286
6629.08,0.30745
6623.3,0.29771
6617.51,0.29308
6611.73,0.29133
6605.94,0.29309
6600.15,0.28917
6594.37,0.29439
6588.58,0.29851
6582.79,0.29618
6577.01,0.29210
6571.22,0.28752
6565.44,0.28259
6559.65,0.28477
6553.86,0.27674
6548.08,0.27007
6542.29,0.26644
6536.5,0.25626
6530.72,0.24989
6524.93,0.23578
6519.15,0.23384
6513.36,0.22843
6507.57,0.23121
6501.79,0.23184
6496,0.23099
6490.21,0.23048
6484.43,0.23423
6478.64,0.23998
6472.86,0.25601
6467.07,0.27094
6461.28,0.29195
6455.5,0.31120
6449.71,0.33568
6443.93,0.35785
6438.14,0.36670
6432.35,0.37502
6426.57,0.37801
6420.78,0.37744
6414.99,0.37556
6409.21,0.37869
6403.42,0.37030
6397.64,0.36460
6391.85,0.35309
6386.06,0.34562
6380.28,0.33707
6374.49,0.32727
6368.7,0.32123
6362.92,0.31834
6357.13,0.31368
6351.35,0.31336
6345.56,0.31152
6339.77,0.31751
6333.99,0.32602
6328.2,0.33880
6322.41,0.34774
6316.63,0.36059
6310.84,0.36719
6305.06,0.37409
6299.27,0.37927
6293.48,0.37860
6287.7,0.37892
6281.91,0.37164
6276.12,0.36388
6270.34,0.35644
6264.55,0.34820
6258.77,0.34211
6252.98,0.33879
6247.19,0.34268
6241.41,0.34036
6235.62,0.34146
6229.83,0.34288
6224.05,0.34315
6218.26,0.35225
6212.48,0.36257
6206.69,0.37412
6200.9,0.37965
6195.12,0.38186
6189.33,0.38827
6183.55,0.39584
6177.76,0.40921
6171.97,0.42434
6166.19,0.43644
6160.4,0.44756
6154.61,0.45743
6148.83,0.46430
6143.04,0.47100
6137.26,0.47971
6131.47,0.48697
6125.68,0.48998
6119.9,0.49354
6114.11,0.49487
6108.32,0.49647
6102.54,0.50087
6096.75,0.50000
6090.97,0.50218
6085.18,0.50227
6079.39,0.50009
6073.61,0.49841
6067.82,0.49938
6062.03,0.49589
6056.25,0.49830
6050.46,0.49539
6044.68,0.49433
6038.89,0.49588
6033.1,0.49096
6027.32,0.48923
6021.53,0.48692
6015.74,0.48543
6009.96,0.48361
6004.17,0.47984
5998.39,0.47391
5992.6,0.46897
5986.81,0.46764
5981.03,0.46061
5975.24,0.45430
5969.45,0.44803
5963.67,0.44390
5957.88,0.43150
5952.1,0.42309
5946.31,0.41086
5940.52,0.39640
5934.74,0.38101
5928.95,0.36180
5923.16,0.33733
5917.38,0.31250
5911.59,0.28608
5905.81,0.25665
5900.02,0.22921
5894.23,0.19510
5888.45,0.16893
5882.66,0.14471
5876.88,0.12172
5871.09,0.10352
5865.3,0.08756
5859.52,0.07112
5853.73,0.05858
5847.94,0.05028
5842.16,0.04055
5836.37,0.03571
5830.59,0.03380
5824.8,0.03310
5819.01,0.03804
5813.23,0.04301
5807.44,0.04716
5801.65,0.05285
5795.87,0.05665
5790.08,0.06538
5784.3,0.07245
5778.51,0.07998
5772.72,0.08624
5766.94,0.08930
5761.15,0.09068
5755.36,0.09103
5749.58,0.08725
5743.79,0.07939
5738.01,0.07202
5732.22,0.06731
5726.43,0.06016
5720.65,0.05514
5714.86,0.05573
5709.07,0.05472
5703.29,0.05641
5697.5,0.06009
5691.72,0.06312
5685.93,0.06874
5680.14,0.07585
5674.36,0.08613
5668.57,0.09341
5662.78,0.10351
5657,0.11512
5651.21,0.12411
5645.43,0.13260
5639.64,0.14248
5633.85,0.15097
5628.07,0.16048
5622.28,0.16628
5616.5,0.17117
5610.71,0.17490
5604.92,0.17822
5599.14,0.17879
5593.35,0.18107
5587.56,0.18251
5581.78,0.18499
5575.99,0.18952
5570.21,0.19282
5564.42,0.19701
5558.63,0.19684
5552.85,0.19880
5547.06,0.20270
5541.27,0.20451
5535.49,0.20838
5529.7,0.21208
5523.92,0.21224
5518.13,0.21627
5512.34,0.22051
5506.56,0.22235
5500.77,0.22617
5494.98,0.22654
5489.2,0.22981
5483.41,0.23323
5477.63,0.23560
5471.84,0.24100
5466.05,0.24401
5460.27,0.24394
5454.48,0.24520
5448.69,0.24707
5442.91,0.25057
5437.12,0.25429
5431.34,0.25644
5425.55,0.25951
5419.76,0.26005
5413.98,0.26005
5408.19,0.26491
5402.4,0.27067
5396.62,0.27816
5390.83,0.28552
5385.05,0.29347
5379.26,0.29660
5373.47,0.30070
5367.69,0.30534
5361.9,0.30861
5356.11,0.31040
5350.33,0.31183
5344.54,0.31222
5338.76,0.31118
5332.97,0.31012
5327.18,0.30655
5321.4,0.30364
5315.61,0.29673
5309.83,0.28666
5304.04,0.27387
5298.25,0.25661
5292.47,0.24121
5286.68,0.22907
5280.89,0.21953
5275.11,0.21196
5269.32,0.20483
5263.54,0.19654
5257.75,0.18806
5251.96,0.17994
5246.18,0.17083
5240.39,0.16161
5234.6,0.15484
5228.82,0.14495
5223.03,0.13650
5217.25,0.12794
5211.46,0.11869
5205.67,0.10980
5199.89,0.10167
5194.1,0.09255
5188.31,0.08557
5182.53,0.07910
5176.74,0.07411
5170.96,0.06856
5165.17,0.06524
5159.38,0.06046
5153.6,0.05918
5147.81,0.05440
5142.02,0.05203
5136.24,0.05195
5130.45,0.05311
5124.67,0.05199
5118.88,0.05331
5113.09,0.05609
5107.31,0.05703
5101.52,0.05914
5095.73,0.06295
5089.95,0.06609
5084.16,0.06959
5078.38,0.07263
5072.59,0.07628
5066.8,0.07879
5061.02,0.08235
5055.23,0.08563
5049.45,0.08930
5043.66,0.09243
5037.87,0.09426
5032.09,0.09556
5026.3,0.09779
5020.51,0.09699
5014.73,0.09614
5008.94,0.09229
5003.16,0.08630
4997.37,0.07746
4991.58,0.06502
4985.8,0.05248
4980.01,0.04143
4974.22,0.03356
4968.44,0.03016
4962.65,0.02926
4956.87,0.03015
4951.08,0.03121
4945.29,0.03210
4939.51,0.03089
4933.72,0.03090
4927.93,0.03053
4922.15,0.02887
4916.36,0.02548
4910.58,0.01994
4904.79,0.01324
4899,0.00880
4893.22,0.00580
4887.43,0.00377
4881.64,0.00370
4875.86,0.00139
4870.07,0.00109
4864.29,0.00210
4858.5,0.00398
4852.71,0.00788
4846.93,0.01509
4841.14,0.02378
4835.35,0.03681
4829.57,0.04931
4823.78,0.05816
4818,0.06596
4812.21,0.06930
4806.42,0.06887
4800.64,0.06627
4794.85,0.06340
4789.06,0.06296
4783.28,0.06272
4777.49,0.06264
4771.71,0.06077
4765.92,0.05933
4760.13,0.05562
4754.35,0.05285
4748.56,0.04929
4742.78,0.04367
4736.99,0.04039
4731.2,0.03705
4725.42,0.03168
4719.63,0.02748
4713.84,0.02179
4708.06,0.01735
4702.27,0.01499
4696.49,0.01332
4690.7,0.01170
4684.91,0.01049
4679.13,0.01100
4673.34,0.01111
4667.55,0.01089
4661.77,0.01018
4655.98,0.01149
4650.2,0.01016
4644.41,0.00855
4638.62,0.00740
4632.84,0.00745
4627.05,0.00588
4621.26,0.00533
4615.48,0.00460
4609.69,0.00329
4603.91,0.00210
4598.12,0.00153
4592.33,0.00188
4586.55,0.00100
4580.76,0.00075
4574.97,0.00109
4569.19,0.00133
4563.4,0.00150
4557.62,0.00178
4551.83,0.00239
4546.04,0.00122
4540.26,0.00194
4534.47,0.00199
4528.68,0.00263
4522.9,0.00344
4517.11,0.00367
4511.33,0.00466
4505.54,0.00540
4499.75,0.00679
4493.97,0.00693
4488.18,0.00705
4482.4,0.00633
4476.61,0.00738
4470.82,0.00615
4465.04,0.00659
4459.25,0.00580
4453.46,0.00516
4447.68,0.00422
4441.89,0.00320
4436.11,0.00211
4430.32,0.00212
4424.53,0.00112
4418.75,0.00164
4412.96,0.00102
4407.17,0.00002
4401.39,0.00079
4395.6,0.00083
4389.82,0.00032
4384.03,0.00072
4378.24,0.00033
4372.46,0.00070
4366.67,0.00043
4360.88,0.00040
4355.1,0.00080
4349.31,0.00045
4343.53,0.00046
4337.74,0.00020
4331.95,0.00092
4326.17,0.00046
4320.38,0.00022
4314.59,0.00076
4308.81,0.00045
4303.02,0.00056
4297.24,0.00023
4291.45,0.00072
4285.66,0.00039
4279.88,0.00041
4274.09,0.00034
4268.3,0.00017
4262.52,0.00082
4256.73,0.00026
4250.95,0.00045
4245.16,0.00033
4239.37,0.00054
4233.59,0.00062
4227.8,0.00036
4222.02,0.00047
4216.23,0.00071
4210.44,0.00013
4204.66,0.00096
4198.87,0.00034
4193.08,0.00066
4187.3,0.00042
4181.51,0.00054
4175.73,0.00081
4169.94,0.00024
4164.15,0.00014
4158.37,0.00036
4152.58,0.00039
4146.79,0.00077
4141.01,0.00047
4135.22,0.00013
4129.44,0.00025
4123.65,0.00028
4117.86,0.00057
4112.08,0.00037
4106.29,0.00054
4100.5,0.00033
4094.72,0.00068
4088.93,0.00022
4083.15,0.00057
4077.36,0.00029
4071.57,0.00031
4065.79,0.00058
4060,0.00005
4054.21,0.00041
4048.43,0.00027
4042.64,0.00058
4036.86,0.00021
4031.07,0.00030
4025.28,0.00089
4019.5,0.00041
4013.71,0.00058
4007.92,0.00026
4002.14,0.00045
3996.35,0.00064
3990.57,0.00038
3984.78,0.00036
3978.99,0.00038
3973.21,0.00051
3967.42,0.00037
3961.63,0.00075
3955.85,0.00061
3950.06,0.00040
3944.28,0.00068
3938.49,0.00123
3932.7,0.00085
3926.92,0.00085
3921.13,0.00124
3915.35,0.00112
3909.56,0.00163
3903.77,0.00238
3897.99,0.00235
3892.2,0.00273
3886.41,0.00221
3880.63,0.00328
3874.84,0.00369
3869.06,0.00400
3863.27,0.00367
3857.48,0.00366
3851.7,0.00233
3845.91,0.00208
3840.12,0.00249
3834.34,0.00251
3828.55,0.00281
3822.77,0.00290
3816.98,0.00306
3811.19,0.00329
3805.41,0.00377
3799.62,0.00408
3793.83,0.00464
3788.05,0.00413
3782.26,0.00524
3776.48,0.00537
3770.69,0.00516
3764.9,0.00532
3759.12,0.00543
3753.33,0.00417
3747.54,0.00449
3741.76,0.00426
3735.97,0.00336
3730.19,0.00292
3724.4,0.00340
3718.61,0.00273
3712.83,0.00253
3707.04,0.00219
3701.25,0.00121
3695.47,0.00113
3689.68,0.00021
3683.9,0.00040
3678.11,0.00053
3672.32,0.00007
3666.54,0.00057
3660.75,0.00038
3654.97,0.00051
3649.18,0.00039
3643.39,0.00007
3637.61,0.00038
3631.82,0.00049
3626.03,0.00040
3620.25,0.00007
3614.46,-0.00015
3608.68,0.00030
3602.89,0.00048
3597.1,0.00091
3591.32,0.00027
3585.53,0.00020
3579.74,0.00079
3573.96,0.00058
3568.17,0.00085
3562.39,0.00006
3556.6,0.00059
3550.81,0.00042
3545.03,0.00028
3539.24,0.00023
3533.45,0.00055
3527.67,0.00017
3521.88,0.00048
3516.1,0.00023
3510.31,0.00072
3504.52,-0.00013
3498.74,0.00085
3492.95,0.00041
3487.16,0.00076
3481.38,0.00046
3475.59,0.00011
3469.81,0.00057
3464.02,0.00058
3458.23,0.00034
3452.45,0.00034
3446.66,0.00028
3440.87,0.00082
3435.09,0.00040
3429.3,0.00017
3423.52,0.00023
3417.73,0.00039
3411.94,0.00036
3406.16,0.00020
3400.37,0.00032
3394.58,0.00100
3388.8,0.00073
3383.01,0.00062
3377.23,0.00038
3371.44,0.00047
3365.65,0.00039
3359.87,0.00066
3354.08,0.00021
3348.3,0.00038
3342.51,0.00033
3336.72,0.00082
3330.94,0.00054
3325.15,0.00098
3319.36,0.00069
3313.58,0.00033
3307.79,0.00112
3302.01,0.00023
3296.22,0.00072
3290.43,-0.00005
3284.65,0.00125
3278.86,0.00011
3273.07,0.00065
3267.29,0.00042
3261.5,0.00078
3255.72,0.00016
3249.93,0.00050
3244.14,0.00063
3238.36,0.00030
3232.57,0.00074
3226.78,0.00081
3221,0.00069
3215.21,0.00034
3209.43,0.00075
3203.64,0.00063
3197.85,0.00064
3192.07,0.00003
3186.28,0.00071
3180.49,-0.00006
3174.71,0.00058
3168.92,0.00034
3163.14,0.00067
3157.35,0.00035
3151.56,0.00011
3145.78,0.00078
3139.99,0.00033
3134.2,0.00043
3128.42,0.00019
3122.63,0.00038
3116.85,0.00040
3111.06,0.00014
3105.27,0.00011
3099.49,0.00047
3093.7,0.00036
3087.92,0.00057
3082.13,0.00036
3076.34,0.00022
3070.56,0.00031
3064.77,0.00036
3058.98,0.00029
3053.2,0.00036
3047.41,0.00016
3041.63,0.00024
3035.84,0.00024
3030.05,0.00040
3024.27,0.00035
3018.48,0.00009
3012.69,0.00035
3006.91,0.00018
3001.12,0.00034
2995.34,0.00040
2989.55,0.00034
2983.76,0.00042
2977.98,-0.00012
2972.19,0.00061
2966.4,0.00042
2960.62,0.00022
2954.83,0.00006
2949.05,0.00036
2943.26,0.00033
2937.47,0.00037
2931.69,0.00016
2925.9,0.00030
2920.11,0.00028
2914.33,0.00059
2908.54,0.00024
2902.76,0.00057
2896.97,0.00050
2891.18,0.00044
2885.4,0.00016
2879.61,0.00024
2873.82,0.00049
2868.04,0.00025
2862.25,0.00028
2856.47,0.00027
2850.68,0.00023
2844.89,0.00038
2839.11,0.00008
2833.32,0.00023
2827.53,0.00047
2821.75,0.00010
2815.96,0.00029
2810.18,0.00049
2804.39,0.00034
2798.6,0.00030
2792.82,0.00020
2787.03,0.00029
2781.25,0.00029
2775.46,0.00021
2769.67,0.00009
2763.89,0.00037
2758.1,0.00040
2752.31,0.00038
2746.53,0.00011
2740.74,0.00009
2734.96,0.00009
2729.17,0.00023
2723.38,0.00035
2717.6,0.00026
2711.81,0.00029
2706.02,0.00040
2700.24,0.00021
2694.45,0.00014
2688.67,0.00026
2682.88,0.00032
2677.09,0.00025
2671.31,0.00061
2665.52,0.00019
2659.73,0.00009
2653.95,0.00043
2648.16,0.00058
2642.38,0.00029
2636.59,0.00025
2630.8,0.00039
2625.02,0.00045
2619.23,0.00047
2613.44,0.00025
2607.66,0.00024
2601.87,0.00011
2596.09,0.00018
2590.3,0.00027
2584.51,0.00022
2578.73,0.00030
2572.94,0.00022
2567.15,0.00019
2561.37,0.00034
2555.58,0.00023
2549.8,0.00001
2544.01,0.00031
2538.22,0.00015
2532.44,0.00020
2526.65,0.00025
2520.87,0.00044
2515.08,0.00009
2509.29,0.00018
2503.51,0.00065
2497.72,0.00023
2491.93,0.00023
2486.15,0.00030
2480.36,0.00025
2474.58,0.00017
2468.79,0.00038
2463,0.00031
2457.22,0.00038
2451.43,0.00033
2445.64,0.00017
2439.86,0.00013
2434.07,0.00035
2428.29,0.00029
2422.5,0.00034
2416.71,0.00031
2410.93,-0.00002
2405.14,0.00023
2399.35,0.00038
2393.57,0.00024
2387.78,0.00015
2382,0.00023
2376.21,0.00032
2370.42,0.00020
2364.64,0.00041
2358.85,0.00013
2353.06,0.00042
2347.28,0.00006
2341.49,0.00025
2335.71,-0.00000
2329.92,0.00033
2324.13,0.00010
2318.35,0.00030
2312.56,0.00048
2306.77,0.00034
2300.99,0.00048
2295.2,0.00037
2289.42,0.00014
2283.63,0.00006
2277.84,0.00035
2272.06,0.00013
2266.27,0.00008
2260.48,0.00030
2254.7,0.00026
2248.91,0.00007
2243.13,0.00020
2237.34,0.00019
2231.55,0.00005
2225.77,0.00041
2219.98,0.00015
2214.2,0.00033
2208.41,0.00034
2202.62,0.00035
2196.84,-0.00007
2191.05,0.00023
2185.26,0.00014
2179.48,0.00019
2173.69,0.00025
2167.91,0.00011
2162.12,0.00026
2156.33,0.00033
2150.55,0.00007
2144.76,0.00027
2138.97,0.00021
2133.19,0.00022
2127.4,0.00024
2121.62,0.00026
2115.83,0.00038
2110.04,0.00021
2104.26,0.00041
2098.47,0.00044
2092.68,0.00045
2086.9,0.00014
2081.11,0.00018
2075.33,0.00028
2069.54,0.00022
2063.75,0.00024
2057.97,0.00034
2052.18,0.00021
2046.39,0.00003
2040.61,0.00012
2034.82,0.00014
2029.04,0.00031
2023.25,0.00027
2017.46,0.00023
2011.68,0.00017
2005.89,0.00020
2000.1,0.00028
1994.32,0.00019
1988.53,0.00030
1982.75,0.00016
1976.96,0.00017
1971.17,0.00055
1965.39,0.00015
1959.6,0.00031
1953.82,0.00020
1948.03,0.00025
1942.24,0.00043
1936.46,0.00017
1930.67,0.00013
1924.88,0.00035
1919.1,0.00018
1913.31,0.00011
1907.53,0.00033
1901.74,-0.00007
1895.95,0.00016
1890.17,0.00015
1884.38,0.00013
1878.59,0.00064
1872.81,0.00014
1867.02,0.00008
1861.24,0.00020
1855.45,0.00020
1849.66,0.00004
1843.88,0.00035
1838.09,0.00019
1832.3,0.00021
1826.52,0.00007
1820.73,0.00030
1814.95,0.00007
1809.16,0.00027
1803.37,0.00012
1797.59,0.00018
1791.8,0.00015
1786.01,0.00015
1780.23,0.00014
1774.44,0.00020
1768.66,0.00030
1762.87,0.00005
1757.08,0.00034
1751.3,0.00023
1745.51,0.00025
1739.72,0.00025
1733.94,0.00030
1728.15,0.00003
1722.37,0.00021
1716.58,0.00029
1710.79,0.00029
1705.01,0.00024
1699.22,0.00022
1693.43,0.00021
1687.65,0.00026
1681.86,0.00016
1676.08,0.00025
1670.29,0.00038
1664.5,0.00020
1658.72,0.00031
1652.93,0.00025
1647.15,0.00025
1641.36,0.00060
1635.57,0.00042
1629.79,0.00043
1624,0.00006
1618.21,0.00041
1612.43,0.00012
1606.64,0.00016
1600.86,0.00011
1595.07,0.00016
1589.28,0.00036
1583.5,0.00013
1577.71,0.00011
1571.92,0.00042
1566.14,0.00016
1560.35,0.00036
1554.57,0.00030
1548.78,0.00032
1542.99,0.00031
1537.21,0.00020
1531.42,0.00038
1525.63,0.00025
1519.85,0.00025
1514.06,0.00014
1508.28,0.00020
1502.49,0.00021
1496.7,0.00031
1490.92,0.00024
1485.13,0.00030
1479.34,0.00016
1473.56,0.00018
1467.77,0.00030
1461.99,0.00018
1456.2,0.00023
1450.41,0.00006
1444.63,0.00014
1438.84,0.00015
1433.05,0.00018
1427.27,0.00033
1421.48,0.00019
1415.7,0.00031
1409.91,0.00008
1404.12,0.00003
1398.34,0.00042
1392.55,0.00030
1386.77,0.00014
1380.98,0.00040
1375.19,0.00011
1369.41,0.00055
1363.62,0.00035
1357.83,0.00035
1352.05,0.00032
1346.26,0.00019
1340.48,0.00012
1334.69,0.00028
1328.9,0.00027
1323.12,0.00028
1317.33,0.00037
1311.54,0.00009
1305.76,0.00025
1299.97,0.00025
1294.19,0.00059
1288.4,0.00044
1282.61,0.00027
1276.83,0.00052
1271.04,0.00026
1265.25,0.00031
1259.47,0.00037
1253.68,0.00022
1247.9,0.00033
1242.11,0.00041
1236.32,0.00040
1230.54,0.00027
1224.75,-0.00017
1218.96,0.00021
1213.18,0.00025
1207.39,0.00043
1201.61,0.00057
1195.82,0.00027
1190.03,0.00059
1184.25,0.00030
1178.46,0.00035
1172.67,0.00030
1166.89,0.00034
1161.1,0.00051
1155.32,0.00019
1149.53,0.00024
1143.74,0.00035
1137.96,0.00081
1132.17,0.00012
1126.38,0.00063
1120.6,0.00063
1114.81,0.00062
1109.03,0.00031
1103.24,0.00048
1097.45,0.00046
1091.67,0.00086
1085.88,0.00040
1080.1,0.00039
1074.31,0.00086
1068.52,0.00011
1062.74,0.00063
1056.95,0.00050
1051.16,0.00028
1045.38,0.00034
1039.59,0.00056
1033.81,-0.00007
1028.02,0.00060
1022.23,0.00040
1016.45,0.00049
1010.66,0.00088
1004.87,0.00049
999.088,0.00027
993.302,0.00068
987.516,0.00038
981.729,0.00008
975.943,0.00077
970.157,0.00061
964.371,0.00038
958.585,0.00045
952.798,0.00025
947.012,0.00030
941.226,0.00084
935.44,0.00028
929.653,0.00064
923.867,0.00007
918.081,0.00087
912.295,0.00030
906.508,0.00105
900.722,0.00042
894.936,0.00025
889.15,0.00056
883.364,0.00071
877.577,0.00070
871.791,0.00030
866.005,0.00030
860.219,0.00042
854.432,0.00051
848.646,0.00109
842.86,0.00056
837.074,0.00089
831.288,0.00019
825.501,0.00067
819.715,0.00006
813.929,0.00091
808.143,0.00059
802.356,0.00070
796.57,0.00071
790.784,0.00039
784.998,0.00055
779.212,0.00060
773.425,0.00067
767.639,0.00061
761.853,0.00049
756.067,0.00070
750.28,0.00046
744.494,0.00050
738.708,0.00086
732.922,0.00020
727.136,0.00054
721.349,0.00135
715.563,0.00074
709.777,0.00112
703.991,0.00109
698.204,0.00083
692.418,0.00108
686.632,0.00075
680.846,0.00060
675.059,0.00139
669.273,0.00148
663.487,0.00109
657.701,0.00054
651.915,0.00188
646.128,0.00129
640.342,0.00081
634.556,0.00169
628.77,0.00082
622.983,0.00205
617.197,0.00263
611.411,0.00184
605.625,0.00244
599.839,0.00216