File: 01_Data/Nylon/FTIR/IS/Nylon_3.175_S_IS_221212_R1.dpt
7497.02,0.12982
7491.23,0.12948
7485.45,0.12081
7479.66,0.12273
7473.87,0.13171
7468.09,0.13059
7462.3,0.11912
7456.51,0.12796
7450.73,0.12724
7444.94,0.12625
7439.16,0.13064
7433.37,0.12066
7427.58,0.12403
7421.8,0.12255
7416.01,0.12295
7410.22,0.11932
7404.44,0.12320
7398.65,0.11279
7392.87,0.12092
7387.08,0.11719
7381.29,0.11540
7375.51,0.11801
7369.72,0.11413
7363.93,0.11359
7358.15,0.11093
7352.36,0.11138
7346.58,0.11649
7340.79,0.11074
7335,0.11507
7329.22,0.10556
7323.43,0.10208
7317.65,0.09652
7311.86,0.10486
7306.07,0.10001
7300.29,0.10244
7294.5,0.09813
7288.71,0.10873
7282.93,0.10377
7277.14,0.08750
7271.36,0.08803
7265.57,0.08913
7259.78,0.08840
7254,0.09102
7248.21,0.08790
7242.42,0.08742
7236.64,0.08239
7230.85,0.08099
7225.07,0.08781
7219.28,0.08274
7213.49,0.07642
7207.71,0.07983
7201.92,0.07494
7196.13,0.08494
7190.35,0.08730
7184.56,0.07964
7178.78,0.08820
7172.99,0.08708
7167.2,0.08032
7161.42,0.08222
7155.63,0.08106
7149.84,0.08373
7144.06,0.07761
7138.27,0.08373
7132.49,0.08613
7126.7,0.08605
7120.91,0.08638
7115.13,0.08351
7109.34,0.08431
7103.55,0.08027
7097.77,0.08163
7091.98,0.07797
7086.2,0.08205
7080.41,0.08290
7074.62,0.07836
7068.84,0.07620
7063.05,0.07701
7057.26,0.07829
7051.48,0.07491
7045.69,0.08409
7039.91,0.08013
7034.12,0.07613
7028.33,0.08051
7022.55,0.07554
7016.76,0.07727
7010.98,0.07521
7005.19,0.07885
6999.4,0.07720
6993.62,0.08414
6987.83,0.07583
6982.04,0.07915
6976.26,0.08146
6970.47,0.07908
6964.69,0.08317
6958.9,0.08337
6953.11,0.07346
6947.33,0.08174
6941.54,0.07442
6935.75,0.07723
6929.97,0.08111
6924.18,0.08054
6918.4,0.08230
6912.61,0.08374
6906.82,0.08559
6901.04,0.08015
6895.25,0.08262
6889.46,0.08125
6883.68,0.08419
6877.89,0.09294
6872.11,0.08508
6866.32,0.08639
6860.53,0.08045
6854.75,0.07284
6848.96,0.07735
6843.17,0.08505
6837.39,0.08053
6831.6,0.07958
6825.82,0.08441
6820.03,0.08154
6814.24,0.08270
6808.46,0.08266
6802.67,0.08514
6796.88,0.08212
6791.1,0.08272
6785.31,0.08212
6779.53,0.08131
6773.74,0.08099
6767.95,0.07716
6762.17,0.07998
6756.38,0.08158
6750.6,0.07220
6744.81,0.08103
6739.02,0.07716
6733.24,0.08114
6727.45,0.07343
6721.66,0.08064
6715.88,0.07396
6710.09,0.07060
6704.31,0.07479
6698.52,0.07259
6692.73,0.07347
6686.95,0.07123
6681.16,0.07143
6675.37,0.07330
6669.59,0.07836
6663.8,0.07166
6658.02,0.07101
6652.23,0.06900
6646.44,0.07216
6640.66,0.07268
6634.87,0.06731
6629.08,0.06685
6623.3,0.06869
6617.51,0.06607
6611.73,0.06711
6605.94,0.06927
6600.15,0.06456
6594.37,0.06634
6588.58,0.06479
6582.79,0.06699
6577.01,0.06420
6571.22,0.06556
6565.44,0.06516
6559.65,0.07000
6553.86,0.06592
6548.08,0.06427
6542.29,0.06035
6536.5,0.06216
6530.72,0.06460
6524.93,0.06203
6519.15,0.06478
6513.36,0.05773
6507.57,0.05831
6501.79,0.05898
6496,0.05902
6490.21,0.06375
6484.43,0.06022
6478.64,0.06365
6472.86,0.06432
6467.07,0.06245
6461.28,0.06603
6455.5,0.06815
6449.71,0.07291
6443.93,0.07130
6438.14,0.07315
6432.35,0.07421
6426.57,0.07652
6420.78,0.07735
6414.99,0.07485
6409.21,0.07299
6403.42,0.06988
6397.64,0.07433
6391.85,0.07115
6386.06,0.07053
6380.28,0.06992
6374.49,0.06877
6368.7,0.06804
6362.92,0.06784
6357.13,0.07000
6351.35,0.06986
6345.56,0.06674
6339.77,0.06845
6333.99,0.07082
6328.2,0.06753
6322.41,0.06936
6316.63,0.07080
6310.84,0.07295
6305.06,0.07386
6299.27,0.07374
6293.48,0.07325
6287.7,0.07223
6281.91,0.07189
6276.12,0.07219
6270.34,0.06895
6264.55,0.06887
6258.77,0.06942
6252.98,0.06745
6247.19,0.06460
6241.41,0.06657
6235.62,0.06653
6229.83,0.06572
6224.05,0.06907
6218.26,0.07316
6212.48,0.07066
6206.69,0.07529
6200.9,0.07414
6195.12,0.07401
6189.33,0.07186
6183.55,0.07000
6177.76,0.07586
6171.97,0.07676
6166.19,0.07715
6160.4,0.07965
6154.61,0.07827
6148.83,0.08115
6143.04,0.08631
6137.26,0.08293
6131.47,0.08279
6125.68,0.08401
6119.9,0.08508
6114.11,0.08531
6108.32,0.08462
6102.54,0.08612
6096.75,0.08647
6090.97,0.08730
6085.18,0.08775
6079.39,0.08505
6073.61,0.08708
6067.82,0.08586
6062.03,0.08453
6056.25,0.08615
6050.46,0.08569
6044.68,0.08815
6038.89,0.08409
6033.1,0.08425
6027.32,0.08481
6021.53,0.08224
6015.74,0.07981
6009.96,0.08395
6004.17,0.08672
5998.39,0.07984
5992.6,0.08354
5986.81,0.08223
5981.03,0.08181
5975.24,0.08003
5969.45,0.07862
5963.67,0.07902
5957.88,0.07695
5952.1,0.07705
5946.31,0.07541
5940.52,0.07379
5934.74,0.07113
5928.95,0.07053
5923.16,0.06826
5917.38,0.06515
5911.59,0.06494
5905.81,0.06181
5900.02,0.06180
5894.23,0.06120
5888.45,0.05778
5882.66,0.05947
5876.88,0.05411
5871.09,0.05697
5865.3,0.05314
5859.52,0.05510
5853.73,0.05490
5847.94,0.05667
5842.16,0.05529
5836.37,0.05298
5830.59,0.05483
5824.8,0.05668
5819.01,0.05477
5813.23,0.05373
5807.44,0.05553
5801.65,0.05554
5795.87,0.05533
5790.08,0.05672
5784.3,0.05852
5778.51,0.05626
5772.72,0.05499
5766.94,0.05680
5761.15,0.05532
5755.36,0.05619
5749.58,0.05582
5743.79,0.05521
5738.01,0.05357
5732.22,0.05563
5726.43,0.05339
5720.65,0.05547
5714.86,0.05672
5709.07,0.05461
5703.29,0.05614
5697.5,0.05809
5691.72,0.05635
5685.93,0.05571
5680.14,0.05579
5674.36,0.05522
5668.57,0.05706
5662.78,0.05787
5657,0.05710
5651.21,0.05861
5645.43,0.05785
5639.64,0.05818
5633.85,0.05839
5628.07,0.05732
5622.28,0.05799
5616.5,0.05867
5610.71,0.05749
5604.92,0.05804
5599.14,0.05959
5593.35,0.05905
5587.56,0.06104
5581.78,0.05952
5575.99,0.05786
5570.21,0.05964
5564.42,0.06269
5558.63,0.06091
5552.85,0.05993
5547.06,0.05946
5541.27,0.05813
5535.49,0.06137
5529.7,0.06008
5523.92,0.05917
5518.13,0.06066
5512.34,0.06083
5506.56,0.06249
5500.77,0.06000
5494.98,0.06118
5489.2,0.06116
5483.41,0.06357
5477.63,0.06029
5471.84,0.06195
5466.05,0.06121
5460.27,0.06256
5454.48,0.06157
5448.69,0.06158
5442.91,0.06216
5437.12,0.06369
5431.34,0.06351
5425.55,0.06266
5419.76,0.06478
5413.98,0.06444
5408.19,0.06398
5402.4,0.06405
5396.62,0.06456
5390.83,0.06524
5385.05,0.06533
5379.26,0.06592
5373.47,0.06499
5367.69,0.06542
5361.9,0.06653
5356.11,0.06623
5350.33,0.06546
5344.54,0.06577
5338.76,0.06718
5332.97,0.06633
5327.18,0.06552
5321.4,0.06586
5315.61,0.06461
5309.83,0.06493
5304.04,0.06364
5298.25,0.06301
5292.47,0.06372
5286.68,0.06178
5280.89,0.06107
5275.11,0.06070
5269.32,0.06072
5263.54,0.05985
5257.75,0.06167
5251.96,0.06022
5246.18,0.06083
5240.39,0.05963
5234.6,0.06036
5228.82,0.05875
5223.03,0.05737
5217.25,0.05809
5211.46,0.05786
5205.67,0.05917
5199.89,0.05809
5194.1,0.05675
5188.31,0.05733
5182.53,0.05716
5176.74,0.05755
5170.96,0.05759
5165.17,0.05691
5159.38,0.05748
5153.6,0.05629
5147.81,0.05587
5142.02,0.05734
5136.24,0.05735
5130.45,0.05776
5124.67,0.05684
5118.88,0.05602
5113.09,0.05531
5107.31,0.05688
5101.52,0.05672
5095.73,0.05599
5089.95,0.05738
5084.16,0.05671
5078.38,0.05702
5072.59,0.05796
5066.8,0.05802
5061.02,0.05851
5055.23,0.05711
5049.45,0.05682
5043.66,0.05643
5037.87,0.05673
5032.09,0.05854
5026.3,0.05806
5020.51,0.05798
5014.73,0.05776
5008.94,0.05862
5003.16,0.05952
4997.37,0.05704
4991.58,0.05774
4985.8,0.05625
4980.01,0.05617
4974.22,0.05549
4968.44,0.05656
4962.65,0.05772
4956.87,0.05716
4951.08,0.05783
4945.29,0.05732
4939.51,0.05441
4933.72,0.05631
4927.93,0.05671
4922.15,0.05725
4916.36,0.05824
4910.58,0.05707
4904.79,0.05668
4899,0.05711
4893.22,0.05716
4887.43,0.05743
4881.64,0.05769
4875.86,0.05691
4870.07,0.05639
4864.29,0.05669
4858.5,0.05735
4852.71,0.05706
4846.93,0.05768
4841.14,0.05813
4835.35,0.05752
4829.57,0.05686
4823.78,0.05872
4818,0.05670
4812.21,0.05941
4806.42,0.05772
4800.64,0.05790
4794.85,0.05823
4789.06,0.05880
4783.28,0.05817
4777.49,0.05766
4771.71,0.05752
4765.92,0.05833
4760.13,0.05741
4754.35,0.05827
4748.56,0.05844
4742.78,0.05753
4736.99,0.05825
4731.2,0.05853
4725.42,0.05770
4719.63,0.05816
4713.84,0.05695
4708.06,0.05746
4702.27,0.05715
4696.49,0.05771
4690.7,0.05742
4684.91,0.05762
4679.13,0.05707
4673.34,0.05776
4667.55,0.05684
4661.77,0.05801
4655.98,0.05779
4650.2,0.05748
4644.41,0.05680
4638.62,0.05860
4632.84,0.05657
4627.05,0.05673
4621.26,0.05746
4615.48,0.05751
4609.69,0.05768
4603.91,0.05710
4598.12,0.05742
4592.33,0.05698
4586.55,0.05787
4580.76,0.05744
4574.97,0.05825
4569.19,0.05714
4563.4,0.05743
4557.62,0.05811
4551.83,0.05735
4546.04,0.05771
4540.26,0.05835
4534.47,0.05836
4528.68,0.05831
4522.9,0.05779
4517.11,0.05745
4511.33,0.05748
4505.54,0.05777
4499.75,0.05787
4493.97,0.05786
4488.18,0.05879
4482.4,0.05733
4476.61,0.05799
4470.82,0.05782
4465.04,0.05805
4459.25,0.05798
4453.46,0.05820
4447.68,0.05801
4441.89,0.05787
4436.11,0.05809
4430.32,0.05821
4424.53,0.05815
4418.75,0.05721
4412.96,0.05821
4407.17,0.05772
4401.39,0.05806
4395.6,0.05791
4389.82,0.05757
4384.03,0.05844
4378.24,0.05833
4372.46,0.05831
4366.67,0.05828
4360.88,0.05777
4355.1,0.05729
4349.31,0.05766
4343.53,0.05770
4337.74,0.05795
4331.95,0.05776
4326.17,0.05843
4320.38,0.05788
4314.59,0.05763
4308.81,0.05817
4303.02,0.05779
4297.24,0.05822
4291.45,0.05840
4285.66,0.05751
4279.88,0.05846
4274.09,0.05816
4268.3,0.05765
4262.52,0.05868
4256.73,0.05822
4250.95,0.05793
4245.16,0.05753
4239.37,0.05803
4233.59,0.05870
4227.8,0.05789
4222.02,0.05826
4216.23,0.05840
4210.44,0.05872
4204.66,0.05925
4198.87,0.05893
4193.08,0.05870
4187.3,0.05873
4181.51,0.05803
4175.73,0.05896
4169.94,0.05908
4164.15,0.05868
4158.37,0.05813
4152.58,0.05887
4146.79,0.05823
4141.01,0.05840
4135.22,0.05818
4129.44,0.05749
4123.65,0.05758
4117.86,0.05839
4112.08,0.05875
4106.29,0.05891
4100.5,0.05927
4094.72,0.05881
4088.93,0.05828
4083.15,0.05865
4077.36,0.05794
4071.57,0.05803
4065.79,0.05794
4060,0.05757
4054.21,0.05862
4048.43,0.05876
4042.64,0.05883
4036.86,0.05801
4031.07,0.05867
4025.28,0.05843
4019.5,0.05858
4013.71,0.05854
4007.92,0.05905
4002.14,0.05866
3996.35,0.05885
3990.57,0.05896
3984.78,0.05843
3978.99,0.05897
3973.21,0.05825
3967.42,0.05888
3961.63,0.05839
3955.85,0.05877
3950.06,0.05879
3944.28,0.05857
3938.49,0.05816
3932.7,0.05829
3926.92,0.05811
3921.13,0.05859
3915.35,0.05822
3909.56,0.05847
3903.77,0.05912
3897.99,0.05815
3892.2,0.05918
3886.41,0.05925
3880.63,0.05896
3874.84,0.05842
3869.06,0.05851
3863.27,0.05928
3857.48,0.05848
3851.7,0.05887
3845.91,0.05908
3840.12,0.05863
3834.34,0.05871
3828.55,0.05891
3822.77,0.05876
3816.98,0.05870
3811.19,0.05839
3805.41,0.05809
3799.62,0.05913
3793.83,0.05852
3788.05,0.05883
3782.26,0.05860
3776.48,0.05886
3770.69,0.05808
3764.9,0.05829
3759.12,0.05830
3753.33,0.05869
3747.54,0.05795
3741.76,0.05789
3735.97,0.05834
3730.19,0.05830
3724.4,0.05802
3718.61,0.05813
3712.83,0.05816
3707.04,0.05811
3701.25,0.05789
3695.47,0.05846
3689.68,0.05791
3683.9,0.05798
3678.11,0.05787
3672.32,0.05732
3666.54,0.05789
3660.75,0.05758
3654.97,0.05789
3649.18,0.05789
3643.39,0.05769
3637.61,0.05730
3631.82,0.05745
3626.03,0.05710
3620.25,0.05753
3614.46,0.05672
3608.68,0.05772
3602.89,0.05711
3597.1,0.05692
3591.32,0.05708
3585.53,0.05745
3579.74,0.05707
3573.96,0.05694
3568.17,0.05680
3562.39,0.05678
3556.6,0.05652
3550.81,0.05678
3545.03,0.05637
3539.24,0.05622
3533.45,0.05629
3527.67,0.05630
3521.88,0.05548
3516.1,0.05597
3510.31,0.05573
3504.52,0.05557
3498.74,0.05528
3492.95,0.05607
3487.16,0.05552
3481.38,0.05510
3475.59,0.05562
3469.81,0.05562
3464.02,0.05482
3458.23,0.05434
3452.45,0.05465
3446.66,0.05488
3440.87,0.05424
3435.09,0.05435
3429.3,0.05423
3423.52,0.05395
3417.73,0.05317
3411.94,0.05300
3406.16,0.05311
3400.37,0.05324
3394.58,0.05231
3388.8,0.05151
3383.01,0.05152
3377.23,0.05122
3371.44,0.05025
3365.65,0.05046
3359.87,0.04950
3354.08,0.04862
3348.3,0.04735
3342.51,0.04709
3336.72,0.04613
3330.94,0.04596
3325.15,0.04541
3319.36,0.04601
3313.58,0.04949
3307.79,0.05467
3302.01,0.06208
3296.22,0.06794
3290.43,0.07029
3284.65,0.06979
3278.86,0.06845
3273.07,0.06834
3267.29,0.06754
3261.5,0.06722
3255.72,0.06563
3249.93,0.06526
3244.14,0.06611
3238.36,0.06540
3232.57,0.06354
3226.78,0.06371
3221,0.06451
3215.21,0.06265
3209.43,0.06259
3203.64,0.06344
3197.85,0.06265
3192.07,0.06269
3186.28,0.06254
3180.49,0.06238
3174.71,0.06098
3168.92,0.06200
3163.14,0.06218
3157.35,0.06156
3151.56,0.06135
3145.78,0.06092
3139.99,0.06093
3134.2,0.06078
3128.42,0.06054
3122.63,0.05995
3116.85,0.05949
3111.06,0.05973
3105.27,0.05980
3099.49,0.05940
3093.7,0.05925
3087.92,0.05917
3082.13,0.05999
3076.34,0.06023
3070.56,0.05933
3064.77,0.05991
3058.98,0.06018
3053.2,0.06107
3047.41,0.06069
3041.63,0.06045
3035.84,0.06049
3030.05,0.06003
3024.27,0.05949
3018.48,0.05973
3012.69,0.05889
3006.91,0.05942
3001.12,0.05840
2995.34,0.05833
2989.55,0.05764
2983.76,0.05662
2977.98,0.05632
2972.19,0.05569
2966.4,0.05544
2960.62,0.05540
2954.83,0.05478
2949.05,0.05434
2943.26,0.05571
2937.47,0.05783
2931.69,0.06106
2925.9,0.06428
2920.11,0.06635
2914.33,0.06582
2908.54,0.06508
2902.76,0.06441
2896.97,0.06423
2891.18,0.06317
2885.4,0.06142
2879.61,0.06100
2873.82,0.06203
2868.04,0.06306
2862.25,0.06424
2856.47,0.06724
2850.68,0.06933
2844.89,0.06872
2839.11,0.06666
2833.32,0.06562
2827.53,0.06544
2821.75,0.06495
2815.96,0.06465
2810.18,0.06413
2804.39,0.06381
2798.6,0.06406
2792.82,0.06389
2787.03,0.06360
2781.25,0.06360
2775.46,0.06328
2769.67,0.06297
2763.89,0.06329
2758.1,0.06322
2752.31,0.06313
2746.53,0.06272
2740.74,0.06296
2734.96,0.06317
2729.17,0.06304
2723.38,0.06265
2717.6,0.06257
2711.81,0.06241
2706.02,0.06228
2700.24,0.06245
2694.45,0.06215
2688.67,0.06237
2682.88,0.06216
2677.09,0.06215
2671.31,0.06246
2665.52,0.06221
2659.73,0.06182
2653.95,0.06186
2648.16,0.06210
2642.38,0.06174
2636.59,0.06223
2630.8,0.06210
2625.02,0.06219
2619.23,0.06180
2613.44,0.06217
2607.66,0.06172
2601.87,0.06140
2596.09,0.06177
2590.3,0.06219
2584.51,0.06192
2578.73,0.06203
2572.94,0.06149
2567.15,0.06155
2561.37,0.06134
2555.58,0.06137
2549.8,0.06115
2544.01,0.06135
2538.22,0.06139
2532.44,0.06129
2526.65,0.06143
2520.87,0.06163
2515.08,0.06134
2509.29,0.06157
2503.51,0.06103
2497.72,0.06097
2491.93,0.06163
2486.15,0.06124
2480.36,0.06102
2474.58,0.06105
2468.79,0.06112
2463,0.06100
2457.22,0.06106
2451.43,0.06106
2445.64,0.06109
2439.86,0.06098
2434.07,0.06108
2428.29,0.06074
2422.5,0.06082
2416.71,0.06102
2410.93,0.06119
2405.14,0.06050
2399.35,0.06072
2393.57,0.06067
2387.78,0.06067
2382,0.06053
2376.21,0.06113
2370.42,0.06107
2364.64,0.06067
2358.85,0.06058
2353.06,0.06077
2347.28,0.06060
2341.49,0.06063
2335.71,0.06021
2329.92,0.06057
2324.13,0.06033
2318.35,0.06049
2312.56,0.06054
2306.77,0.06078
2300.99,0.06008
2295.2,0.06041
2289.42,0.06060
2283.63,0.06028
2277.84,0.06031
2272.06,0.06042
2266.27,0.06017
2260.48,0.05997
2254.7,0.06003
2248.91,0.06017
2243.13,0.05979
2237.34,0.05993
2231.55,0.05994
2225.77,0.05984
2219.98,0.05995
2214.2,0.05967
2208.41,0.05986
2202.62,0.06000
2196.84,0.05968
2191.05,0.05973
2185.26,0.05960
2179.48,0.05965
2173.69,0.05928
2167.91,0.05939
2162.12,0.05976
2156.33,0.05942
2150.55,0.05965
2144.76,0.05948
2138.97,0.05952
2133.19,0.05919
2127.4,0.05913
2121.62,0.05937
2115.83,0.05910
2110.04,0.05941
2104.26,0.05918
2098.47,0.05884
2092.68,0.05868
2086.9,0.05882
2081.11,0.05895
2075.33,0.05883
2069.54,0.05867
2063.75,0.05853
2057.97,0.05871
2052.18,0.05858
2046.39,0.05870
2040.61,0.05863
2034.82,0.05836
2029.04,0.05842
2023.25,0.05810
2017.46,0.05819
2011.68,0.05794
2005.89,0.05776
2000.1,0.05813
1994.32,0.05805
1988.53,0.05802
1982.75,0.05755
1976.96,0.05777
1971.17,0.05762
1965.39,0.05730
1959.6,0.05754
1953.82,0.05746
1948.03,0.05711
1942.24,0.05715
1936.46,0.05706
1930.67,0.05713
1924.88,0.05674
1919.1,0.05662
1913.31,0.05671
1907.53,0.05640
1901.74,0.05637
1895.95,0.05619
1890.17,0.05609
1884.38,0.05600
1878.59,0.05564
1872.81,0.05552
1867.02,0.05554
1861.24,0.05508
1855.45,0.05501
1849.66,0.05473
1843.88,0.05472
1838.09,0.05442
1832.3,0.05438
1826.52,0.05384
1820.73,0.05342
1814.95,0.05351
1809.16,0.05295
1803.37,0.05271
1797.59,0.05212
1791.8,0.05193
1786.01,0.05160
1780.23,0.05084
1774.44,0.05078
1768.66,0.04989
1762.87,0.04947
1757.08,0.04972
1751.3,0.04994
1745.51,0.05016
1739.72,0.04934
1733.94,0.04844
1728.15,0.04710
1722.37,0.04657
1716.58,0.04484
1710.79,0.04383
1705.01,0.04250
1699.22,0.04103
1693.43,0.03875
1687.65,0.03740
1681.86,0.03479
1676.08,0.03384
1670.29,0.03308
1664.5,0.03465
1658.72,0.04138
1652.93,0.05558
1647.15,0.08073
1641.36,0.11353
1635.57,0.13746
1629.79,0.13398
1624,0.11120
1618.21,0.09716
1612.43,0.08723
1606.64,0.08093
1600.86,0.07543
1595.07,0.07028
1589.28,0.06550
1583.5,0.06072
1577.71,0.05586
1571.92,0.05096
1566.14,0.04817
1560.35,0.04762
1554.57,0.04961
1548.78,0.05850
1542.99,0.07715
1537.21,0.09766
1531.42,0.10229
1525.63,0.09691
1519.85,0.09025
1514.06,0.08512
1508.28,0.08142
1502.49,0.07831
1496.7,0.07558
1490.92,0.07274
1485.13,0.06947
1479.34,0.06817
1473.56,0.07308
1467.77,0.07329
1461.99,0.07598
1456.2,0.07443
1450.41,0.07246
1444.63,0.07098
1438.84,0.07069
1433.05,0.07069
1427.27,0.06990
1421.48,0.07088
1415.7,0.07729
1409.91,0.07585
1404.12,0.07265
1398.34,0.07029
1392.55,0.06893
1386.77,0.06896
1380.98,0.06851
1375.19,0.06900
1369.41,0.07120
1363.62,0.07226
1357.83,0.07174
1352.05,0.07162
1346.26,0.07127
1340.48,0.07072
1334.69,0.06948
1328.9,0.06921
1323.12,0.06861
1317.33,0.06776
1311.54,0.06709
1305.76,0.06624
1299.97,0.06604
1294.19,0.06523
1288.4,0.06412
1282.61,0.06341
1276.83,0.06573
1271.04,0.07068
1265.25,0.07296
1259.47,0.07352
1253.68,0.07301
1247.9,0.07271
1242.11,0.07232
1236.32,0.07152
1230.54,0.07108
1224.75,0.07117
1218.96,0.07090
1213.18,0.06889
1207.39,0.06759
1201.61,0.06901
1195.82,0.07560
1190.03,0.07461
1184.25,0.07354
1178.46,0.07443
1172.67,0.07477
1166.89,0.07379
1161.1,0.07295
1155.32,0.07191
1149.53,0.07170
1143.74,0.07210
1137.96,0.07218
1132.17,0.07227
1126.38,0.07195
1120.6,0.07129
1114.81,0.07021
1109.03,0.07045
1103.24,0.07019
1097.45,0.07051
1091.67,0.06995
1085.88,0.06934
1080.1,0.06876
1074.31,0.06886
1068.52,0.06856
1062.74,0.06926
1056.95,0.06881
1051.16,0.06900
1045.38,0.06832
1039.59,0.06965
1033.81,0.06894
1028.02,0.06885
1022.23,0.06902
1016.45,0.06869
1010.66,0.06833
1004.87,0.06813
999.088,0.06763
993.302,0.06721
987.516,0.06692
981.729,0.06680
975.943,0.06614
970.157,0.06580
964.371,0.06551
958.585,0.06590
952.798,0.06594
947.012,0.06488
941.226,0.06397
935.44,0.06677
929.653,0.06910
923.867,0.06751
918.081,0.06699
912.295,0.06635
906.508,0.06614
900.722,0.06650
894.936,0.06596
889.15,0.06528
883.364,0.06549
877.577,0.06478
871.791,0.06426
866.005,0.06468
860.219,0.06458
854.432,0.06420
848.646,0.06323
842.86,0.06314
837.074,0.06363
831.288,0.06319
825.501,0.06215
819.715,0.06178
813.929,0.06141
808.143,0.06125
802.356,0.06115
796.57,0.06065
790.784,0.05963
784.998,0.06006
779.212,0.05891
773.425,0.05875
767.639,0.05854
761.853,0.05760
756.067,0.05681
750.28,0.05671
744.494,0.05482
738.708,0.05427
732.922,0.05300
727.136,0.05579
721.349,0.05666
715.563,0.05621
709.777,0.05599
703.991,0.05441
698.204,0.05618
692.418,0.05901
686.632,0.06336
680.846,0.06691
675.059,0.06853
669.273,0.06913
663.487,0.06973
657.701,0.06762
651.915,0.06739
646.128,0.06771
640.342,0.06739
634.556,0.06513
628.77,0.06646
622.983,0.06497
617.197,0.06378
611.411,0.06445
605.625,0.06109
599.839,0.05909