File: 01_Data/Nylon/FTIR/IS/Nylon_2.362_Trans_S_IS_221213_R1.dpt
7496.63,0.61186
7490.84,0.61939
7485.06,0.60716
7479.27,0.61285
7473.48,0.61938
7467.7,0.62450
7461.91,0.63168
7456.13,0.63198
7450.34,0.62276
7444.55,0.61597
7438.77,0.62545
7432.98,0.60610
7427.2,0.61372
7421.41,0.61908
7415.62,0.60391
7409.84,0.61244
7404.05,0.61419
7398.27,0.62426
7392.48,0.60877
7386.69,0.61572
7380.91,0.61620
7375.12,0.61232
7369.34,0.60813
7363.55,0.60529
7357.77,0.60596
7351.98,0.61045
7346.19,0.59055
7340.41,0.58888
7334.62,0.58359
7328.84,0.57967
7323.05,0.57620
7317.26,0.56806
7311.48,0.56165
7305.69,0.56122
7299.91,0.56389
7294.12,0.55671
7288.33,0.55388
7282.55,0.54570
7276.76,0.53635
7270.98,0.52661
7265.19,0.52083
7259.4,0.51813
7253.62,0.51130
7247.83,0.51019
7242.05,0.49338
7236.26,0.48352
7230.47,0.48089
7224.69,0.47961
7218.9,0.47422
7213.12,0.47388
7207.33,0.47924
7201.55,0.48473
7195.76,0.48555
7189.97,0.47766
7184.19,0.47915
7178.4,0.48153
7172.62,0.48901
7166.83,0.48184
7161.04,0.47963
7155.26,0.48193
7149.47,0.48022
7143.69,0.47743
7137.9,0.47711
7132.11,0.47482
7126.33,0.48005
7120.54,0.47454
7114.76,0.47183
7108.97,0.46523
7103.18,0.47033
7097.4,0.46586
7091.61,0.46001
7085.83,0.46514
7080.04,0.46905
7074.26,0.45759
7068.47,0.46878
7062.68,0.46953
7056.9,0.46898
7051.11,0.46832
7045.33,0.47172
7039.54,0.47927
7033.75,0.47378
7027.97,0.47393
7022.18,0.47927
7016.4,0.48152
7010.61,0.48110
7004.82,0.48150
6999.04,0.48206
6993.25,0.47236
6987.47,0.47983
6981.68,0.48117
6975.89,0.48090
6970.11,0.48394
6964.32,0.48155
6958.54,0.48309
6952.75,0.48894
6946.96,0.48560
6941.18,0.48579
6935.39,0.49469
6929.61,0.49443
6923.82,0.49504
6918.04,0.49205
6912.25,0.49262
6906.46,0.50064
6900.68,0.49781
6894.89,0.49933
6889.11,0.50014
6883.32,0.50231
6877.53,0.49473
6871.75,0.49972
6865.96,0.49835
6860.18,0.50403
6854.39,0.50025
6848.6,0.50251
6842.82,0.50252
6837.03,0.50008
6831.25,0.50434
6825.46,0.50588
6819.67,0.50399
6813.89,0.50518
6808.1,0.50667
6802.32,0.50358
6796.53,0.49984
6790.74,0.49358
6784.96,0.48732
6779.17,0.49151
6773.39,0.48296
6767.6,0.47948
6761.82,0.47757
6756.03,0.47016
6750.24,0.47343
6744.46,0.47230
6738.67,0.46662
6732.89,0.47053
6727.1,0.46529
6721.31,0.46767
6715.53,0.46650
6709.74,0.46482
6703.96,0.45946
6698.17,0.45533
6692.38,0.45549
6686.6,0.45233
6680.81,0.45074
6675.03,0.44660
6669.24,0.44296
6663.45,0.43236
6657.67,0.43246
6651.88,0.42596
6646.1,0.41709
6640.31,0.41124
6634.52,0.40522
6628.74,0.39337
6622.95,0.38443
6617.17,0.38261
6611.38,0.37811
6605.6,0.38292
6599.81,0.38005
6594.02,0.38347
6588.24,0.37926
6582.45,0.38399
6576.67,0.38229
6570.88,0.37710
6565.09,0.37360
6559.31,0.37058
6553.52,0.36381
6547.74,0.35869
6541.95,0.35579
6536.16,0.34620
6530.38,0.33719
6524.59,0.32935
6518.81,0.32979
6513.02,0.32494
6507.23,0.31999
6501.45,0.32326
6495.66,0.32576
6489.88,0.32341
6484.09,0.32552
6478.3,0.32931
6472.52,0.34005
6466.73,0.35840
6460.95,0.38418
6455.16,0.40163
6449.38,0.41628
6443.59,0.43717
6437.8,0.44589
6432.02,0.45164
6426.23,0.45624
6420.45,0.45562
6414.66,0.45362
6408.87,0.44929
6403.09,0.44649
6397.3,0.44608
6391.52,0.43630
6385.73,0.42680
6379.94,0.41740
6374.16,0.40998
6368.37,0.40383
6362.59,0.40032
6356.8,0.40191
6351.01,0.39773
6345.23,0.40122
6339.44,0.40342
6333.66,0.41209
6327.87,0.42122
6322.09,0.43028
6316.3,0.43922
6310.51,0.45036
6304.73,0.45167
6298.94,0.45552
6293.16,0.46080
6287.37,0.45264
6281.58,0.44853
6275.8,0.44137
6270.01,0.43561
6264.23,0.43026
6258.44,0.42206
6252.65,0.42001
6246.87,0.42124
6241.08,0.42116
6235.3,0.42065
6229.51,0.42236
6223.72,0.42630
6217.94,0.42902
6212.15,0.43887
6206.37,0.44837
6200.58,0.45744
6194.79,0.46161
6189.01,0.46374
6183.22,0.46912
6177.44,0.47966
6171.65,0.49199
6165.87,0.50373
6160.08,0.51391
6154.29,0.52056
6148.51,0.53035
6142.72,0.53567
6136.94,0.53642
6131.15,0.54372
6125.36,0.54728
6119.58,0.54769
6113.79,0.55202
6108.01,0.55593
6102.22,0.55864
6096.43,0.56040
6090.65,0.56188
6084.86,0.55852
6079.08,0.55764
6073.29,0.55950
6067.5,0.55474
6061.72,0.55578
6055.93,0.55455
6050.15,0.55027
6044.36,0.55490
6038.57,0.55443
6032.79,0.55338
6027,0.54890
6021.22,0.54858
6015.43,0.54656
6009.65,0.54389
6003.86,0.54057
5998.07,0.53858
5992.29,0.53393
5986.5,0.53233
5980.72,0.52659
5974.93,0.52299
5969.14,0.51670
5963.36,0.50981
5957.57,0.50355
5951.79,0.49341
5946,0.48447
5940.21,0.47065
5934.43,0.45636
5928.64,0.44249
5922.86,0.42018
5917.07,0.39883
5911.28,0.37495
5905.5,0.34656
5899.71,0.31685
5893.93,0.28619
5888.14,0.25518
5882.35,0.22863
5876.57,0.20272
5870.78,0.18177
5865,0.16087
5859.21,0.14293
5853.43,0.12212
5847.64,0.10525
5841.85,0.09199
5836.07,0.08221
5830.28,0.08171
5824.5,0.08511
5818.71,0.09044
5812.92,0.09801
5807.14,0.10593
5801.35,0.11254
5795.57,0.12244
5789.78,0.13184
5783.99,0.14364
5778.21,0.15372
5772.42,0.16133
5766.64,0.16405
5760.85,0.16699
5755.06,0.16398
5749.28,0.16020
5743.49,0.15179
5737.71,0.14333
5731.92,0.13365
5726.14,0.12338
5720.35,0.11863
5714.56,0.11641
5708.78,0.11517
5702.99,0.11712
5697.21,0.12188
5691.42,0.12679
5685.63,0.13742
5679.85,0.14725
5674.06,0.15905
5668.28,0.16983
5662.49,0.18420
5656.7,0.19476
5650.92,0.20777
5645.13,0.21834
5639.35,0.22771
5633.56,0.24013
5627.77,0.24896
5621.99,0.25559
5616.2,0.25993
5610.42,0.26515
5604.63,0.26725
5598.84,0.26861
5593.06,0.27202
5587.27,0.27514
5581.49,0.27831
5575.7,0.28142
5569.92,0.28552
5564.13,0.28891
5558.34,0.28979
5552.56,0.29181
5546.77,0.29703
5540.99,0.29829
5535.2,0.30186
5529.41,0.30320
5523.63,0.30545
5517.84,0.30752
5512.06,0.31331
5506.27,0.31483
5500.48,0.31723
5494.7,0.32036
5488.91,0.32284
5483.13,0.32791
5477.34,0.32958
5471.55,0.33188
5465.77,0.33357
5459.98,0.33641
5454.2,0.34018
5448.41,0.33805
5442.62,0.34223
5436.84,0.34677
5431.05,0.34767
5425.27,0.35032
5419.48,0.35309
5413.7,0.35014
5407.91,0.35465
5402.12,0.36284
5396.34,0.37055
5390.55,0.37684
5384.77,0.38338
5378.98,0.38823
5373.19,0.39059
5367.41,0.39609
5361.62,0.39822
5355.84,0.39916
5350.05,0.40180
5344.26,0.40174
5338.48,0.39964
5332.69,0.40222
5326.91,0.39913
5321.12,0.39871
5315.33,0.39519
5309.55,0.38622
5303.76,0.37521
5297.98,0.36167
5292.19,0.34605
5286.4,0.33626
5280.62,0.32796
5274.83,0.32230
5269.05,0.31449
5263.26,0.30424
5257.48,0.29936
5251.69,0.29224
5245.9,0.28154
5240.12,0.27417
5234.33,0.26508
5228.55,0.25623
5222.76,0.24578
5216.97,0.23732
5211.19,0.22630
5205.4,0.21354
5199.62,0.20450
5193.83,0.19350
5188.04,0.18415
5182.26,0.17505
5176.47,0.16702
5170.69,0.16135
5164.9,0.15456
5159.11,0.14777
5153.33,0.14295
5147.54,0.13938
5141.76,0.13455
5135.97,0.13322
5130.18,0.13382
5124.4,0.13430
5118.61,0.13519
5112.83,0.13584
5107.04,0.14007
5101.26,0.14491
5095.47,0.14881
5089.68,0.15424
5083.9,0.15889
5078.11,0.16386
5072.33,0.16763
5066.54,0.17258
5060.75,0.17631
5054.97,0.18023
5049.18,0.18455
5043.4,0.18900
5037.61,0.19135
5031.82,0.19327
5026.04,0.19400
5020.25,0.19233
5014.47,0.18992
5008.68,0.18475
5002.89,0.17637
4997.11,0.16142
4991.32,0.14531
4985.54,0.12493
4979.75,0.10472
4973.97,0.08906
4968.18,0.08138
4962.39,0.08110
4956.61,0.08366
4950.82,0.08510
4945.04,0.08616
4939.25,0.08510
4933.46,0.08428
4927.68,0.08252
4921.89,0.07711
4916.11,0.06925
4910.32,0.05820
4904.53,0.04543
4898.75,0.03380
4892.96,0.02441
4887.18,0.01729
4881.39,0.01423
4875.6,0.01109
4869.82,0.00976
4864.03,0.01237
4858.25,0.01980
4852.46,0.03284
4846.67,0.04964
4840.89,0.06886
4835.1,0.08945
4829.32,0.11026
4823.53,0.12766
4817.75,0.13752
4811.96,0.14318
4806.17,0.14367
4800.39,0.13956
4794.6,0.13595
4788.82,0.13488
4783.03,0.13349
4777.24,0.13220
4771.46,0.12983
4765.67,0.12628
4759.89,0.12161
4754.1,0.11543
4748.31,0.11006
4742.53,0.10357
4736.74,0.09740
4730.96,0.08978
4725.17,0.08206
4719.38,0.07296
4713.6,0.06387
4707.81,0.05459
4702.03,0.04861
4696.24,0.04480
4690.45,0.04122
4684.67,0.03974
4678.88,0.03872
4673.1,0.03869
4667.31,0.03919
4661.53,0.03869
4655.74,0.03755
4649.95,0.03662
4644.17,0.03427
4638.38,0.03128
4632.6,0.02908
4626.81,0.02596
4621.02,0.02225
4615.24,0.01917
4609.45,0.01659
4603.67,0.01309
4597.88,0.01104
4592.09,0.00851
4586.31,0.00774
4580.52,0.00775
4574.74,0.00748
4568.95,0.00774
4563.16,0.01032
4557.38,0.01133
4551.59,0.01222
4545.81,0.01211
4540.02,0.01306
4534.23,0.01338
4528.45,0.01526
4522.66,0.01652
4516.88,0.01930
4511.09,0.02155
4505.31,0.02491
4499.52,0.02735
4493.73,0.02903
4487.95,0.02976
4482.16,0.02945
4476.38,0.02807
4470.59,0.02770
4464.8,0.02612
4459.02,0.02437
4453.23,0.02099
4447.45,0.01831
4441.66,0.01517
4435.87,0.01320
4430.09,0.01117
4424.3,0.00866
4418.52,0.00644
4412.73,0.00518
4406.94,0.00287
4401.16,0.00225
4395.37,0.00097
4389.59,0.00004
4383.8,0.00024
4378.01,0.00085
4372.23,0.00114
4366.44,0.00010
4360.66,0.00032
4354.87,0.00055
4349.09,-0.00004
4343.3,0.00089
4337.51,0.00036
4331.73,0.00063
4325.94,0.00034
4320.16,0.00052
4314.37,0.00040
4308.58,0.00046
4302.8,0.00066
4297.01,0.00078
4291.23,0.00096
4285.44,0.00040
4279.65,0.00036
4273.87,0.00046
4268.08,0.00022
4262.3,0.00069
4256.51,0.00036
4250.72,0.00029
4244.94,0.00063
4239.15,0.00089
4233.37,0.00081
4227.58,0.00048
4221.8,0.00063
4216.01,0.00022
4210.22,0.00005
4204.44,0.00041
4198.65,0.00061
4192.87,0.00038
4187.08,0.00036
4181.29,0.00047
4175.51,0.00048
4169.72,0.00039
4163.94,-0.00004
4158.15,0.00096
4152.36,0.00008
4146.58,0.00115
4140.79,0.00067
4135.01,0.00113
4129.22,0.00127
4123.43,0.00081
4117.65,0.00086
4111.86,0.00109
4106.08,0.00078
4100.29,0.00057
4094.5,0.00087
4088.72,0.00098
4082.93,0.00041
4077.15,0.00070
4071.36,0.00080
4065.58,0.00024
4059.79,0.00045
4054,0.00135
4048.22,0.00039
4042.43,0.00088
4036.65,0.00022
4030.86,0.00010
4025.07,0.00036
4019.29,0.00044
4013.5,0.00014
4007.72,0.00044
4001.93,0.00066
3996.14,0.00037
3990.36,0.00054
3984.57,0.00050
3978.79,0.00097
3973,0.00146
3967.21,0.00199
3961.43,0.00267
3955.64,0.00348
3949.86,0.00430
3944.07,0.00473
3938.28,0.00639
3932.5,0.00681
3926.71,0.00724
3920.93,0.00760
3915.14,0.00851
3909.36,0.01104
3903.57,0.01248
3897.78,0.01492
3892,0.01582
3886.21,0.01554
3880.43,0.01721
3874.64,0.01988
3868.85,0.02167
3863.07,0.02125
3857.28,0.01993
3851.5,0.01659
3845.71,0.01525
3839.92,0.01378
3834.14,0.01629
3828.35,0.01766
3822.57,0.01718
3816.78,0.01718
3810.99,0.01879
3805.21,0.01977
3799.42,0.02135
3793.64,0.02150
3787.85,0.02242
3782.06,0.02410
3776.28,0.02634
3770.49,0.02681
3764.71,0.02659
3758.92,0.02624
3753.14,0.02427
3747.35,0.02216
3741.56,0.02098
3735.78,0.01967
3729.99,0.01954
3724.21,0.01926
3718.42,0.01798
3712.63,0.01576
3706.85,0.01428
3701.06,0.01087
3695.28,0.00851
3689.49,0.00427
3683.7,0.00145
3677.92,0.00073
3672.13,0.00061
3666.35,0.00049
3660.56,0.00024
3654.77,0.00047
3648.99,0.00016
3643.2,0.00090
3637.42,0.00036
3631.63,0.00021
3625.85,0.00023
3620.06,0.00043
3614.27,0.00023
3608.49,0.00082
3602.7,-0.00004
3596.92,0.00037
3591.13,0.00061
3585.34,0.00021
3579.56,0.00044
3573.77,0.00053
3567.99,0.00038
3562.2,0.00041
3556.41,0.00041
3550.63,0.00034
3544.84,0.00063
3539.06,0.00046
3533.27,0.00038
3527.48,0.00024
3521.7,0.00051
3515.91,0.00029
3510.13,0.00042
3504.34,0.00040
3498.55,0.00049
3492.77,0.00045
3486.98,0.00037
3481.2,0.00023
3475.41,0.00084
3469.63,0.00020
3463.84,0.00064
3458.05,0.00030
3452.27,0.00065
3446.48,0.00021
3440.7,0.00049
3434.91,0.00069
3429.12,0.00056
3423.34,0.00035
3417.55,0.00053
3411.77,0.00020
3405.98,0.00032
3400.19,0.00096
3394.41,0.00022
3388.62,0.00048
3382.84,0.00055
3377.05,0.00037
3371.26,0.00035
3365.48,0.00074
3359.69,0.00050
3353.91,0.00032
3348.12,0.00084
3342.33,-0.00005
3336.55,0.00034
3330.76,0.00027
3324.98,0.00047
3319.19,0.00017
3313.41,0.00064
3307.62,0.00053
3301.83,0.00087
3296.05,0.00030
3290.26,0.00060
3284.48,0.00060
3278.69,0.00072
3272.9,0.00044
3267.12,0.00037
3261.33,0.00038
3255.55,0.00057
3249.76,0.00030
3243.97,0.00050
3238.19,0.00060
3232.4,0.00050
3226.62,0.00033
3220.83,0.00077
3215.04,0.00043
3209.26,0.00034
3203.47,0.00035
3197.69,0.00030
3191.9,0.00068
3186.11,0.00041
3180.33,0.00038
3174.54,0.00043
3168.76,0.00070
3162.97,0.00019
3157.19,0.00059
3151.4,0.00028
3145.61,0.00044
3139.83,0.00035
3134.04,0.00022
3128.26,0.00032
3122.47,0.00038
3116.68,0.00009
3110.9,0.00045
3105.11,0.00046
3099.33,0.00044
3093.54,0.00039
3087.75,0.00019
3081.97,0.00051
3076.18,0.00032
3070.4,0.00027
3064.61,0.00062
3058.82,0.00019
3053.04,0.00054
3047.25,0.00057
3041.47,0.00075
3035.68,0.00010
3029.89,0.00005
3024.11,0.00025
3018.32,0.00017
3012.54,0.00053
3006.75,0.00043
3000.97,0.00065
2995.18,0.00063
2989.39,0.00008
2983.61,0.00036
2977.82,0.00056
2972.04,0.00020
2966.25,0.00033
2960.46,0.00059
2954.68,0.00052
2948.89,0.00039
2943.11,0.00031
2937.32,0.00033
2931.53,0.00017
2925.75,0.00040
2919.96,0.00025
2914.18,0.00075
2908.39,0.00031
2902.6,0.00024
2896.82,0.00012
2891.03,0.00030
2885.25,0.00063
2879.46,0.00040
2873.68,0.00041
2867.89,0.00023
2862.1,0.00039
2856.32,0.00032
2850.53,0.00017
2844.75,0.00036
2838.96,0.00016
2833.17,0.00025
2827.39,0.00073
2821.6,0.00049
2815.82,0.00034
2810.03,0.00032
2804.24,0.00042
2798.46,0.00029
2792.67,0.00055
2786.89,0.00019
2781.1,0.00043
2775.31,0.00037
2769.53,0.00030
2763.74,0.00023
2757.96,0.00052
2752.17,0.00062
2746.38,0.00031
2740.6,0.00038
2734.81,0.00036
2729.03,0.00014
2723.24,0.00027
2717.46,0.00009
2711.67,0.00014
2705.88,0.00045
2700.1,0.00017
2694.31,0.00006
2688.53,0.00017
2682.74,0.00036
2676.95,0.00010
2671.17,0.00021
2665.38,0.00017
2659.6,0.00024
2653.81,0.00045
2648.02,-0.00000
2642.24,0.00033
2636.45,0.00024
2630.67,0.00008
2624.88,0.00021
2619.09,0.00023
2613.31,0.00020
2607.52,0.00021
2601.74,0.00029
2595.95,0.00009
2590.16,0.00022
2584.38,0.00027
2578.59,0.00043
2572.81,0.00032
2567.02,0.00037
2561.24,0.00017
2555.45,0.00010
2549.66,0.00017
2543.88,0.00014
2538.09,0.00031
2532.31,0.00010
2526.52,0.00016
2520.73,0.00029
2514.95,0.00014
2509.16,0.00030
2503.38,0.00036
2497.59,0.00029
2491.8,0.00038
2486.02,0.00010
2480.23,0.00008
2474.45,0.00026
2468.66,0.00043
2462.87,0.00025
2457.09,0.00020
2451.3,0.00038
2445.52,0.00044
2439.73,0.00027
2433.94,0.00052
2428.16,0.00042
2422.37,0.00013
2416.59,0.00062
2410.8,0.00043
2405.02,0.00050
2399.23,0.00057
2393.44,0.00048
2387.66,0.00061
2381.87,0.00050
2376.09,0.00049
2370.3,0.00067
2364.51,0.00048
2358.73,0.00014
2352.94,0.00031
2347.16,0.00046
2341.37,0.00023
2335.58,0.00046
2329.8,0.00039
2324.01,0.00020
2318.23,0.00035
2312.44,0.00031
2306.65,0.00052
2300.87,0.00068
2295.08,0.00078
2289.3,0.00073
2283.51,0.00079
2277.72,0.00074
2271.94,0.00070
2266.15,0.00041
2260.37,0.00019
2254.58,0.00056
2248.8,0.00047
2243.01,0.00029
2237.22,0.00037
2231.44,0.00038
2225.65,0.00019
2219.87,0.00022
2214.08,0.00027
2208.29,0.00017
2202.51,0.00040
2196.72,0.00028
2190.94,0.00015
2185.15,0.00017
2179.36,0.00026
2173.58,0.00021
2167.79,0.00028
2162.01,0.00017
2156.22,0.00031
2150.43,0.00024
2144.65,0.00005
2138.86,0.00030
2133.08,0.00019
2127.29,0.00034
2121.51,0.00038
2115.72,0.00027
2109.93,0.00026
2104.15,0.00028
2098.36,0.00035
2092.58,0.00024
2086.79,0.00036
2081,0.00026
2075.22,0.00017
2069.43,0.00040
2063.65,0.00068
2057.86,0.00054
2052.07,0.00056
2046.29,0.00042
2040.5,0.00041
2034.72,0.00056
2028.93,0.00073
2023.14,0.00085
2017.36,0.00103
2011.57,0.00144
2005.79,0.00125
2000,0.00100
1994.21,0.00134
1988.43,0.00163
1982.64,0.00161
1976.86,0.00154
1971.07,0.00130
1965.29,0.00133
1959.5,0.00147
1953.71,0.00179
1947.93,0.00224
1942.14,0.00204
1936.36,0.00208
1930.57,0.00206
1924.78,0.00208
1919,0.00208
1913.21,0.00204
1907.43,0.00164
1901.64,0.00136
1895.85,0.00116
1890.07,0.00081
1884.28,0.00063
1878.5,0.00039
1872.71,0.00071
1866.92,0.00049
1861.14,0.00098
1855.35,0.00068
1849.57,0.00059
1843.78,0.00047
1837.99,0.00042
1832.21,0.00039
1826.42,0.00025
1820.64,0.00018
1814.85,0.00031
1809.07,0.00013
1803.28,0.00034
1797.49,0.00020
1791.71,0.00022
1785.92,0.00025
1780.14,0.00013
1774.35,0.00025
1768.56,0.00015
1762.78,0.00016
1756.99,0.00026
1751.21,0.00028
1745.42,0.00018
1739.63,0.00029
1733.85,0.00033
1728.06,-0.00001
1722.28,0.00018
1716.49,0.00024
1710.7,0.00043
1704.92,0.00027
1699.13,0.00023
1693.35,0.00020
1687.56,0.00030
1681.77,0.00023
1675.99,0.00017
1670.2,0.00012
1664.42,0.00028
1658.63,0.00020
1652.85,0.00058
1647.06,0.00016
1641.27,0.00029
1635.49,0.00038
1629.7,0.00003
1623.92,0.00014
1618.13,0.00032
1612.34,0.00035
1606.56,0.00001
1600.77,0.00019
1594.99,0.00018
1589.2,0.00012
1583.41,0.00023
1577.63,0.00028
1571.84,0.00013
1566.06,0.00019
1560.27,0.00004
1554.48,0.00023
1548.7,0.00016
1542.91,0.00050
1537.13,0.00028
1531.34,0.00025
1525.56,0.00015
1519.77,0.00024
1513.98,0.00019
1508.2,0.00002
1502.41,0.00036
1496.63,0.00020
1490.84,0.00027
1485.05,0.00021
1479.27,0.00032
1473.48,0.00043
1467.7,0.00046
1461.91,0.00019
1456.12,0.00036
1450.34,0.00034
1444.55,0.00029
1438.77,0.00031
1432.98,0.00043
1427.19,0.00045
1421.41,0.00023
1415.62,0.00030
1409.84,0.00058
1404.05,0.00010
1398.26,0.00035
1392.48,0.00031
1386.69,-0.00001
1380.91,0.00033
1375.12,0.00009
1369.34,0.00021
1363.55,0.00043
1357.76,0.00030
1351.98,0.00020
1346.19,0.00030
1340.41,0.00001
1334.62,0.00032
1328.83,0.00043
1323.05,0.00022
1317.26,0.00028
1311.48,0.00016
1305.69,0.00013
1299.9,0.00038
1294.12,0.00026
1288.33,0.00029
1282.55,0.00005
1276.76,0.00032
1270.97,0.00035
1265.19,0.00019
1259.4,0.00038
1253.62,0.00009
1247.83,0.00033
1242.04,0.00049
1236.26,0.00034
1230.47,0.00022
1224.69,0.00033
1218.9,0.00009
1213.12,0.00041
1207.33,0.00032
1201.54,0.00012
1195.76,0.00046
1189.97,0.00023
1184.19,0.00024
1178.4,0.00038
1172.61,0.00030
1166.83,0.00028
1161.04,0.00056
1155.26,0.00020
1149.47,0.00057
1143.68,0.00015
1137.9,0.00052
1132.11,0.00020
1126.33,0.00092
1120.54,0.00046
1114.75,0.00061
1108.97,0.00056
1103.18,0.00024
1097.4,0.00005
1091.61,0.00044
1085.82,0.00055
1080.04,0.00007
1074.25,0.00062
1068.47,0.00033
1062.68,0.00063
1056.9,0.00039
1051.11,0.00023
1045.32,0.00039
1039.54,0.00053
1033.75,0.00021
1027.97,0.00047
1022.18,0.00012
1016.39,0.00036
1010.61,0.00044
1004.82,0.00075
999.036,0.00028
993.25,0.00060
987.464,0.00067
981.678,0.00019
975.892,0.00020
970.106,0.00057
964.32,0.00061
958.535,0.00028
952.749,0.00061
946.963,0.00043
941.177,0.00032
935.391,0.00036
929.605,0.00037
923.819,0.00062
918.033,0.00022
912.247,0.00035
906.461,0.00025
900.675,0.00038
894.889,0.00028
889.103,0.00031
883.318,0.00049
877.532,0.00050
871.746,0.00071
865.96,0.00056
860.174,0.00056
854.388,0.00056
848.602,0.00046
842.816,0.00030
837.03,0.00116
831.244,0.00067
825.458,0.00029
819.672,0.00075
813.886,0.00099
808.101,0.00045
802.315,0.00039
796.529,0.00032
790.743,0.00067
784.957,-0.00013
779.171,0.00055
773.385,0.00047
767.599,0.00032
761.813,0.00012
756.027,0.00041
750.241,0.00006
744.455,0.00036
738.669,0.00061
732.884,0.00025
727.098,0.00039
721.312,0.00070
715.526,0.00038
709.74,0.00052
703.954,0.00097
698.168,0.00043
692.382,0.00102
686.596,0.00037
680.81,0.00019
675.024,0.00059
669.238,0.00072
663.452,0.00109
657.667,0.00035
651.881,0.00152
646.095,0.00131
640.309,0.00112
634.523,0.00151
628.737,0.00188
622.951,0.00103
617.165,0.00143
611.379,0.00113
605.593,0.00178
599.807,0.00249