File: 01_Data/Nylon/FTIR/IS/Nylon_3.175_S_IS_221212_R2.dpt
7497.02,0.11707
7491.23,0.12906
7485.45,0.12665
7479.66,0.12261
7473.87,0.13110
7468.09,0.11506
7462.3,0.12027
7456.51,0.12531
7450.73,0.12852
7444.94,0.12294
7439.16,0.12607
7433.37,0.11963
7427.58,0.12040
7421.8,0.11657
7416.01,0.12132
7410.22,0.12345
7404.44,0.11916
7398.65,0.11242
7392.87,0.11257
7387.08,0.12712
7381.29,0.11587
7375.51,0.12707
7369.72,0.12442
7363.93,0.12222
7358.15,0.11151
7352.36,0.11608
7346.58,0.11619
7340.79,0.11354
7335,0.10235
7329.22,0.11369
7323.43,0.11544
7317.65,0.11380
7311.86,0.10724
7306.07,0.09885
7300.29,0.09423
7294.5,0.10459
7288.71,0.10062
7282.93,0.09569
7277.14,0.08285
7271.36,0.09011
7265.57,0.09439
7259.78,0.09142
7254,0.08957
7248.21,0.09270
7242.42,0.08492
7236.64,0.08546
7230.85,0.08659
7225.07,0.08231
7219.28,0.08536
7213.49,0.08385
7207.71,0.07991
7201.92,0.08773
7196.13,0.08169
7190.35,0.08603
7184.56,0.07846
7178.78,0.08155
7172.99,0.08148
7167.2,0.09241
7161.42,0.07428
7155.63,0.08419
7149.84,0.07835
7144.06,0.08449
7138.27,0.08818
7132.49,0.08162
7126.7,0.08435
7120.91,0.08340
7115.13,0.08219
7109.34,0.07927
7103.55,0.08312
7097.77,0.07693
7091.98,0.07821
7086.2,0.07561
7080.41,0.08181
7074.62,0.08160
7068.84,0.07652
7063.05,0.07737
7057.26,0.07971
7051.48,0.08217
7045.69,0.08392
7039.91,0.08234
7034.12,0.07794
7028.33,0.08393
7022.55,0.08062
7016.76,0.08613
7010.98,0.07693
7005.19,0.07538
6999.4,0.07291
6993.62,0.07949
6987.83,0.07047
6982.04,0.07747
6976.26,0.07723
6970.47,0.07796
6964.69,0.08370
6958.9,0.07970
6953.11,0.09140
6947.33,0.08605
6941.54,0.08610
6935.75,0.08233
6929.97,0.08563
6924.18,0.07831
6918.4,0.08080
6912.61,0.07367
6906.82,0.08188
6901.04,0.08010
6895.25,0.08397
6889.46,0.08301
6883.68,0.08575
6877.89,0.08768
6872.11,0.08233
6866.32,0.08506
6860.53,0.08766
6854.75,0.08483
6848.96,0.08448
6843.17,0.08241
6837.39,0.07990
6831.6,0.08154
6825.82,0.08005
6820.03,0.08153
6814.24,0.07894
6808.46,0.08039
6802.67,0.08166
6796.88,0.08107
6791.1,0.07817
6785.31,0.08219
6779.53,0.08773
6773.74,0.07754
6767.95,0.08532
6762.17,0.07844
6756.38,0.07634
6750.6,0.07695
6744.81,0.08055
6739.02,0.07528
6733.24,0.07614
6727.45,0.07759
6721.66,0.07394
6715.88,0.07522
6710.09,0.07002
6704.31,0.07667
6698.52,0.07393
6692.73,0.07802
6686.95,0.07434
6681.16,0.07406
6675.37,0.07214
6669.59,0.07354
6663.8,0.07450
6658.02,0.06735
6652.23,0.07200
6646.44,0.06793
6640.66,0.06866
6634.87,0.06637
6629.08,0.06769
6623.3,0.06133
6617.51,0.06304
6611.73,0.06632
6605.94,0.06871
6600.15,0.06295
6594.37,0.06736
6588.58,0.06308
6582.79,0.06689
6577.01,0.06469
6571.22,0.06427
6565.44,0.06674
6559.65,0.05894
6553.86,0.06269
6548.08,0.06309
6542.29,0.05993
6536.5,0.06417
6530.72,0.06228
6524.93,0.06966
6519.15,0.06218
6513.36,0.05907
6507.57,0.05952
6501.79,0.06210
6496,0.06425
6490.21,0.06490
6484.43,0.06542
6478.64,0.05965
6472.86,0.06144
6467.07,0.06365
6461.28,0.06333
6455.5,0.06634
6449.71,0.06780
6443.93,0.07185
6438.14,0.07090
6432.35,0.07387
6426.57,0.07034
6420.78,0.06990
6414.99,0.07556
6409.21,0.07300
6403.42,0.07288
6397.64,0.06617
6391.85,0.07124
6386.06,0.06956
6380.28,0.07103
6374.49,0.07134
6368.7,0.07160
6362.92,0.06888
6357.13,0.06855
6351.35,0.06863
6345.56,0.07134
6339.77,0.06721
6333.99,0.06650
6328.2,0.06976
6322.41,0.06956
6316.63,0.06908
6310.84,0.07150
6305.06,0.07192
6299.27,0.07171
6293.48,0.07294
6287.7,0.07400
6281.91,0.06997
6276.12,0.07520
6270.34,0.06830
6264.55,0.06991
6258.77,0.06777
6252.98,0.06709
6247.19,0.06905
6241.41,0.06958
6235.62,0.06587
6229.83,0.06909
6224.05,0.06871
6218.26,0.07526
6212.48,0.07173
6206.69,0.07114
6200.9,0.07313
6195.12,0.07199
6189.33,0.07289
6183.55,0.07444
6177.76,0.07360
6171.97,0.07431
6166.19,0.07675
6160.4,0.07839
6154.61,0.08100
6148.83,0.08149
6143.04,0.08074
6137.26,0.08159
6131.47,0.08528
6125.68,0.08411
6119.9,0.08479
6114.11,0.08584
6108.32,0.08418
6102.54,0.08698
6096.75,0.08668
6090.97,0.08761
6085.18,0.08739
6079.39,0.08745
6073.61,0.09027
6067.82,0.08867
6062.03,0.08616
6056.25,0.08725
6050.46,0.08366
6044.68,0.08664
6038.89,0.08442
6033.1,0.08719
6027.32,0.08415
6021.53,0.08459
6015.74,0.08593
6009.96,0.08410
6004.17,0.08325
5998.39,0.08125
5992.6,0.08132
5986.81,0.08094
5981.03,0.07898
5975.24,0.07937
5969.45,0.07972
5963.67,0.07790
5957.88,0.07964
5952.1,0.07400
5946.31,0.07514
5940.52,0.07254
5934.74,0.06899
5928.95,0.06853
5923.16,0.06939
5917.38,0.06747
5911.59,0.06576
5905.81,0.06158
5900.02,0.06196
5894.23,0.05872
5888.45,0.05773
5882.66,0.05788
5876.88,0.05715
5871.09,0.05704
5865.3,0.05573
5859.52,0.05455
5853.73,0.05615
5847.94,0.05843
5842.16,0.05437
5836.37,0.05494
5830.59,0.05544
5824.8,0.05596
5819.01,0.05406
5813.23,0.05385
5807.44,0.05552
5801.65,0.05454
5795.87,0.05435
5790.08,0.05435
5784.3,0.05475
5778.51,0.05636
5772.72,0.05687
5766.94,0.05498
5761.15,0.05392
5755.36,0.05618
5749.58,0.05636
5743.79,0.05336
5738.01,0.05609
5732.22,0.05829
5726.43,0.05799
5720.65,0.05762
5714.86,0.05606
5709.07,0.05659
5703.29,0.05618
5697.5,0.05740
5691.72,0.05508
5685.93,0.05673
5680.14,0.05804
5674.36,0.05757
5668.57,0.05685
5662.78,0.05764
5657,0.05669
5651.21,0.05732
5645.43,0.05798
5639.64,0.05853
5633.85,0.05826
5628.07,0.05847
5622.28,0.05831
5616.5,0.05692
5610.71,0.05984
5604.92,0.06127
5599.14,0.05741
5593.35,0.05901
5587.56,0.05928
5581.78,0.06158
5575.99,0.06070
5570.21,0.05965
5564.42,0.06028
5558.63,0.06049
5552.85,0.06167
5547.06,0.06094
5541.27,0.06045
5535.49,0.06034
5529.7,0.05991
5523.92,0.06097
5518.13,0.05964
5512.34,0.06108
5506.56,0.05989
5500.77,0.06047
5494.98,0.06203
5489.2,0.06207
5483.41,0.06229
5477.63,0.06122
5471.84,0.06145
5466.05,0.06181
5460.27,0.06225
5454.48,0.06247
5448.69,0.06240
5442.91,0.06350
5437.12,0.06279
5431.34,0.06258
5425.55,0.06229
5419.76,0.06276
5413.98,0.06487
5408.19,0.06294
5402.4,0.06279
5396.62,0.06511
5390.83,0.06439
5385.05,0.06460
5379.26,0.06405
5373.47,0.06628
5367.69,0.06568
5361.9,0.06545
5356.11,0.06798
5350.33,0.06592
5344.54,0.06624
5338.76,0.06544
5332.97,0.06730
5327.18,0.06621
5321.4,0.06556
5315.61,0.06648
5309.83,0.06350
5304.04,0.06440
5298.25,0.06400
5292.47,0.06286
5286.68,0.06152
5280.89,0.06362
5275.11,0.06144
5269.32,0.06037
5263.54,0.06040
5257.75,0.05855
5251.96,0.05902
5246.18,0.05995
5240.39,0.05817
5234.6,0.05954
5228.82,0.05936
5223.03,0.05741
5217.25,0.05967
5211.46,0.05747
5205.67,0.05818
5199.89,0.05746
5194.1,0.05828
5188.31,0.05645
5182.53,0.05830
5176.74,0.05817
5170.96,0.05704
5165.17,0.05869
5159.38,0.05707
5153.6,0.05683
5147.81,0.05624
5142.02,0.05627
5136.24,0.05706
5130.45,0.05707
5124.67,0.05761
5118.88,0.05624
5113.09,0.05687
5107.31,0.05641
5101.52,0.05703
5095.73,0.05759
5089.95,0.05656
5084.16,0.05820
5078.38,0.05598
5072.59,0.05760
5066.8,0.05828
5061.02,0.05892
5055.23,0.05827
5049.45,0.05866
5043.66,0.05756
5037.87,0.05792
5032.09,0.05761
5026.3,0.05689
5020.51,0.05746
5014.73,0.05838
5008.94,0.05728
5003.16,0.05672
4997.37,0.05751
4991.58,0.05792
4985.8,0.05879
4980.01,0.05719
4974.22,0.05895
4968.44,0.05736
4962.65,0.05718
4956.87,0.05634
4951.08,0.05733
4945.29,0.05766
4939.51,0.05749
4933.72,0.05737
4927.93,0.05751
4922.15,0.05764
4916.36,0.05820
4910.58,0.05730
4904.79,0.05818
4899,0.05738
4893.22,0.05765
4887.43,0.05850
4881.64,0.05712
4875.86,0.05870
4870.07,0.05753
4864.29,0.05833
4858.5,0.05900
4852.71,0.05637
4846.93,0.05754
4841.14,0.05707
4835.35,0.05800
4829.57,0.05737
4823.78,0.05777
4818,0.05771
4812.21,0.05844
4806.42,0.05921
4800.64,0.05812
4794.85,0.05769
4789.06,0.05924
4783.28,0.05716
4777.49,0.05764
4771.71,0.05895
4765.92,0.05858
4760.13,0.05848
4754.35,0.05854
4748.56,0.05878
4742.78,0.05891
4736.99,0.05802
4731.2,0.05806
4725.42,0.05876
4719.63,0.05850
4713.84,0.05738
4708.06,0.05766
4702.27,0.05744
4696.49,0.05780
4690.7,0.05676
4684.91,0.05738
4679.13,0.05753
4673.34,0.05822
4667.55,0.05804
4661.77,0.05761
4655.98,0.05769
4650.2,0.05743
4644.41,0.05839
4638.62,0.05782
4632.84,0.05800
4627.05,0.05789
4621.26,0.05683
4615.48,0.05807
4609.69,0.05786
4603.91,0.05885
4598.12,0.05807
4592.33,0.05776
4586.55,0.05845
4580.76,0.05760
4574.97,0.05753
4569.19,0.05709
4563.4,0.05790
4557.62,0.05824
4551.83,0.05827
4546.04,0.05731
4540.26,0.05773
4534.47,0.05846
4528.68,0.05789
4522.9,0.05776
4517.11,0.05835
4511.33,0.05754
4505.54,0.05805
4499.75,0.05859
4493.97,0.05789
4488.18,0.05807
4482.4,0.05771
4476.61,0.05722
4470.82,0.05904
4465.04,0.05794
4459.25,0.05842
4453.46,0.05814
4447.68,0.05825
4441.89,0.05818
4436.11,0.05850
4430.32,0.05850
4424.53,0.05779
4418.75,0.05800
4412.96,0.05797
4407.17,0.05833
4401.39,0.05848
4395.6,0.05865
4389.82,0.05817
4384.03,0.05825
4378.24,0.05830
4372.46,0.05904
4366.67,0.05831
4360.88,0.05850
4355.1,0.05798
4349.31,0.05810
4343.53,0.05783
4337.74,0.05810
4331.95,0.05875
4326.17,0.05800
4320.38,0.05887
4314.59,0.05822
4308.81,0.05883
4303.02,0.05874
4297.24,0.05808
4291.45,0.05829
4285.66,0.05832
4279.88,0.05872
4274.09,0.05855
4268.3,0.05879
4262.52,0.05826
4256.73,0.05834
4250.95,0.05886
4245.16,0.05874
4239.37,0.05843
4233.59,0.05823
4227.8,0.05787
4222.02,0.05801
4216.23,0.05860
4210.44,0.05822
4204.66,0.05887
4198.87,0.05908
4193.08,0.05842
4187.3,0.05854
4181.51,0.05889
4175.73,0.05896
4169.94,0.05948
4164.15,0.05844
4158.37,0.05848
4152.58,0.05889
4146.79,0.05843
4141.01,0.05829
4135.22,0.05897
4129.44,0.05825
4123.65,0.05873
4117.86,0.05871
4112.08,0.05865
4106.29,0.05917
4100.5,0.05872
4094.72,0.05878
4088.93,0.05855
4083.15,0.05843
4077.36,0.05832
4071.57,0.05886
4065.79,0.05902
4060,0.05881
4054.21,0.05863
4048.43,0.05943
4042.64,0.05862
4036.86,0.05899
4031.07,0.05880
4025.28,0.05892
4019.5,0.05845
4013.71,0.05900
4007.92,0.05865
4002.14,0.05816
3996.35,0.05887
3990.57,0.05919
3984.78,0.05913
3978.99,0.05886
3973.21,0.05820
3967.42,0.05808
3961.63,0.05923
3955.85,0.05847
3950.06,0.05892
3944.28,0.05866
3938.49,0.05886
3932.7,0.05913
3926.92,0.05934
3921.13,0.05903
3915.35,0.05897
3909.56,0.05926
3903.77,0.05914
3897.99,0.05872
3892.2,0.05889
3886.41,0.05889
3880.63,0.05867
3874.84,0.05903
3869.06,0.05855
3863.27,0.05887
3857.48,0.05856
3851.7,0.05880
3845.91,0.05986
3840.12,0.05945
3834.34,0.05917
3828.55,0.05878
3822.77,0.05889
3816.98,0.05928
3811.19,0.05891
3805.41,0.05941
3799.62,0.05852
3793.83,0.05872
3788.05,0.05857
3782.26,0.05876
3776.48,0.05888
3770.69,0.05861
3764.9,0.05878
3759.12,0.05879
3753.33,0.05873
3747.54,0.05854
3741.76,0.05819
3735.97,0.05840
3730.19,0.05841
3724.4,0.05841
3718.61,0.05805
3712.83,0.05848
3707.04,0.05830
3701.25,0.05817
3695.47,0.05796
3689.68,0.05768
3683.9,0.05848
3678.11,0.05855
3672.32,0.05837
3666.54,0.05810
3660.75,0.05849
3654.97,0.05762
3649.18,0.05773
3643.39,0.05804
3637.61,0.05766
3631.82,0.05861
3626.03,0.05803
3620.25,0.05765
3614.46,0.05702
3608.68,0.05756
3602.89,0.05797
3597.1,0.05750
3591.32,0.05780
3585.53,0.05663
3579.74,0.05676
3573.96,0.05608
3568.17,0.05633
3562.39,0.05674
3556.6,0.05680
3550.81,0.05699
3545.03,0.05621
3539.24,0.05669
3533.45,0.05663
3527.67,0.05633
3521.88,0.05695
3516.1,0.05600
3510.31,0.05617
3504.52,0.05646
3498.74,0.05599
3492.95,0.05567
3487.16,0.05530
3481.38,0.05606
3475.59,0.05629
3469.81,0.05593
3464.02,0.05540
3458.23,0.05518
3452.45,0.05524
3446.66,0.05462
3440.87,0.05487
3435.09,0.05442
3429.3,0.05424
3423.52,0.05407
3417.73,0.05405
3411.94,0.05285
3406.16,0.05312
3400.37,0.05310
3394.58,0.05253
3388.8,0.05196
3383.01,0.05243
3377.23,0.05127
3371.44,0.05106
3365.65,0.04963
3359.87,0.04947
3354.08,0.04900
3348.3,0.04827
3342.51,0.04676
3336.72,0.04618
3330.94,0.04619
3325.15,0.04615
3319.36,0.04583
3313.58,0.04931
3307.79,0.05500
3302.01,0.06223
3296.22,0.06821
3290.43,0.07034
3284.65,0.07014
3278.86,0.06951
3273.07,0.06830
3267.29,0.06760
3261.5,0.06732
3255.72,0.06680
3249.93,0.06557
3244.14,0.06486
3238.36,0.06449
3232.57,0.06412
3226.78,0.06441
3221,0.06343
3215.21,0.06382
3209.43,0.06244
3203.64,0.06241
3197.85,0.06350
3192.07,0.06200
3186.28,0.06169
3180.49,0.06212
3174.71,0.06200
3168.92,0.06254
3163.14,0.06241
3157.35,0.06248
3151.56,0.06120
3145.78,0.06142
3139.99,0.06065
3134.2,0.06055
3128.42,0.06040
3122.63,0.06092
3116.85,0.06059
3111.06,0.05962
3105.27,0.05925
3099.49,0.05986
3093.7,0.06038
3087.92,0.06002
3082.13,0.05987
3076.34,0.06008
3070.56,0.06029
3064.77,0.06059
3058.98,0.06075
3053.2,0.06117
3047.41,0.06168
3041.63,0.06114
3035.84,0.06123
3030.05,0.06055
3024.27,0.06047
3018.48,0.05975
3012.69,0.05989
3006.91,0.05918
3001.12,0.05924
2995.34,0.05898
2989.55,0.05834
2983.76,0.05702
2977.98,0.05618
2972.19,0.05564
2966.4,0.05557
2960.62,0.05526
2954.83,0.05548
2949.05,0.05491
2943.26,0.05588
2937.47,0.05761
2931.69,0.06155
2925.9,0.06463
2920.11,0.06622
2914.33,0.06565
2908.54,0.06505
2902.76,0.06460
2896.97,0.06455
2891.18,0.06325
2885.4,0.06192
2879.61,0.06139
2873.82,0.06271
2868.04,0.06287
2862.25,0.06427
2856.47,0.06802
2850.68,0.07034
2844.89,0.06865
2839.11,0.06730
2833.32,0.06626
2827.53,0.06564
2821.75,0.06534
2815.96,0.06516
2810.18,0.06440
2804.39,0.06493
2798.6,0.06430
2792.82,0.06379
2787.03,0.06376
2781.25,0.06375
2775.46,0.06394
2769.67,0.06362
2763.89,0.06345
2758.1,0.06356
2752.31,0.06351
2746.53,0.06315
2740.74,0.06317
2734.96,0.06343
2729.17,0.06301
2723.38,0.06319
2717.6,0.06329
2711.81,0.06355
2706.02,0.06307
2700.24,0.06283
2694.45,0.06304
2688.67,0.06263
2682.88,0.06253
2677.09,0.06231
2671.31,0.06238
2665.52,0.06264
2659.73,0.06262
2653.95,0.06275
2648.16,0.06253
2642.38,0.06225
2636.59,0.06224
2630.8,0.06260
2625.02,0.06196
2619.23,0.06215
2613.44,0.06247
2607.66,0.06217
2601.87,0.06198
2596.09,0.06209
2590.3,0.06224
2584.51,0.06179
2578.73,0.06202
2572.94,0.06198
2567.15,0.06216
2561.37,0.06210
2555.58,0.06209
2549.8,0.06200
2544.01,0.06161
2538.22,0.06157
2532.44,0.06186
2526.65,0.06224
2520.87,0.06160
2515.08,0.06190
2509.29,0.06196
2503.51,0.06168
2497.72,0.06171
2491.93,0.06163
2486.15,0.06140
2480.36,0.06135
2474.58,0.06172
2468.79,0.06188
2463,0.06154
2457.22,0.06127
2451.43,0.06112
2445.64,0.06145
2439.86,0.06161
2434.07,0.06156
2428.29,0.06086
2422.5,0.06128
2416.71,0.06121
2410.93,0.06099
2405.14,0.06122
2399.35,0.06097
2393.57,0.06129
2387.78,0.06092
2382,0.06139
2376.21,0.06101
2370.42,0.06094
2364.64,0.06108
2358.85,0.06114
2353.06,0.06103
2347.28,0.06102
2341.49,0.06087
2335.71,0.06138
2329.92,0.06075
2324.13,0.06052
2318.35,0.06058
2312.56,0.06046
2306.77,0.06057
2300.99,0.06061
2295.2,0.06060
2289.42,0.06046
2283.63,0.06063
2277.84,0.06067
2272.06,0.06067
2266.27,0.06036
2260.48,0.06055
2254.7,0.06049
2248.91,0.06017
2243.13,0.06050
2237.34,0.06069
2231.55,0.06050
2225.77,0.06014
2219.98,0.05976
2214.2,0.06008
2208.41,0.06005
2202.62,0.06009
2196.84,0.06030
2191.05,0.06013
2185.26,0.06005
2179.48,0.05976
2173.69,0.06008
2167.91,0.06005
2162.12,0.05953
2156.33,0.05974
2150.55,0.05957
2144.76,0.05940
2138.97,0.05967
2133.19,0.05958
2127.4,0.05987
2121.62,0.05967
2115.83,0.05952
2110.04,0.05974
2104.26,0.05955
2098.47,0.05895
2092.68,0.05900
2086.9,0.05929
2081.11,0.05905
2075.33,0.05909
2069.54,0.05919
2063.75,0.05902
2057.97,0.05870
2052.18,0.05887
2046.39,0.05891
2040.61,0.05875
2034.82,0.05853
2029.04,0.05871
2023.25,0.05850
2017.46,0.05841
2011.68,0.05879
2005.89,0.05840
2000.1,0.05841
1994.32,0.05824
1988.53,0.05795
1982.75,0.05843
1976.96,0.05815
1971.17,0.05802
1965.39,0.05772
1959.6,0.05741
1953.82,0.05771
1948.03,0.05749
1942.24,0.05770
1936.46,0.05739
1930.67,0.05745
1924.88,0.05721
1919.1,0.05681
1913.31,0.05710
1907.53,0.05672
1901.74,0.05644
1895.95,0.05655
1890.17,0.05634
1884.38,0.05603
1878.59,0.05583
1872.81,0.05563
1867.02,0.05572
1861.24,0.05575
1855.45,0.05541
1849.66,0.05505
1843.88,0.05488
1838.09,0.05472
1832.3,0.05438
1826.52,0.05443
1820.73,0.05376
1814.95,0.05334
1809.16,0.05330
1803.37,0.05275
1797.59,0.05244
1791.8,0.05201
1786.01,0.05177
1780.23,0.05140
1774.44,0.05102
1768.66,0.04988
1762.87,0.04960
1757.08,0.04977
1751.3,0.04988
1745.51,0.05019
1739.72,0.04930
1733.94,0.04858
1728.15,0.04748
1722.37,0.04656
1716.58,0.04564
1710.79,0.04377
1705.01,0.04282
1699.22,0.04079
1693.43,0.03932
1687.65,0.03723
1681.86,0.03525
1676.08,0.03418
1670.29,0.03316
1664.5,0.03498
1658.72,0.04172
1652.93,0.05617
1647.15,0.08117
1641.36,0.11431
1635.57,0.13849
1629.79,0.13533
1624,0.11249
1618.21,0.09774
1612.43,0.08739
1606.64,0.08150
1600.86,0.07652
1595.07,0.07088
1589.28,0.06583
1583.5,0.06075
1577.71,0.05612
1571.92,0.05161
1566.14,0.04831
1560.35,0.04747
1554.57,0.04988
1548.78,0.05889
1542.99,0.07774
1537.21,0.09740
1531.42,0.10284
1525.63,0.09725
1519.85,0.09057
1514.06,0.08623
1508.28,0.08213
1502.49,0.07870
1496.7,0.07582
1490.92,0.07318
1485.13,0.06984
1479.34,0.06855
1473.56,0.07361
1467.77,0.07367
1461.99,0.07624
1456.2,0.07434
1450.41,0.07303
1444.63,0.07138
1438.84,0.07092
1433.05,0.07114
1427.27,0.07032
1421.48,0.07105
1415.7,0.07751
1409.91,0.07630
1404.12,0.07315
1398.34,0.07083
1392.55,0.06928
1386.77,0.06912
1380.98,0.06851
1375.19,0.06925
1369.41,0.07113
1363.62,0.07250
1357.83,0.07261
1352.05,0.07233
1346.26,0.07177
1340.48,0.07111
1334.69,0.07021
1328.9,0.06938
1323.12,0.06901
1317.33,0.06821
1311.54,0.06735
1305.76,0.06668
1299.97,0.06626
1294.19,0.06548
1288.4,0.06501
1282.61,0.06348
1276.83,0.06629
1271.04,0.07120
1265.25,0.07326
1259.47,0.07378
1253.68,0.07374
1247.9,0.07279
1242.11,0.07278
1236.32,0.07236
1230.54,0.07193
1224.75,0.07096
1218.96,0.07116
1213.18,0.06887
1207.39,0.06692
1201.61,0.06948
1195.82,0.07613
1190.03,0.07523
1184.25,0.07380
1178.46,0.07489
1172.67,0.07465
1166.89,0.07398
1161.1,0.07341
1155.32,0.07207
1149.53,0.07243
1143.74,0.07243
1137.96,0.07315
1132.17,0.07232
1126.38,0.07201
1120.6,0.07170
1114.81,0.07146
1109.03,0.07042
1103.24,0.07009
1097.45,0.06989
1091.67,0.07006
1085.88,0.06957
1080.1,0.06916
1074.31,0.06899
1068.52,0.06937
1062.74,0.06912
1056.95,0.06907
1051.16,0.06918
1045.38,0.06875
1039.59,0.06920
1033.81,0.06866
1028.02,0.06828
1022.23,0.06829
1016.45,0.06851
1010.66,0.06840
1004.87,0.06819
999.088,0.06797
993.302,0.06783
987.516,0.06780
981.729,0.06753
975.943,0.06691
970.157,0.06647
964.371,0.06671
958.585,0.06577
952.798,0.06525
947.012,0.06523
941.226,0.06446
935.44,0.06642
929.653,0.06865
923.867,0.06820
918.081,0.06763
912.295,0.06664
906.508,0.06629
900.722,0.06660
894.936,0.06645
889.15,0.06602
883.364,0.06476
877.577,0.06528
871.791,0.06570
866.005,0.06536
860.219,0.06462
854.432,0.06378
848.646,0.06376
842.86,0.06403
837.074,0.06350
831.288,0.06255
825.501,0.06353
819.715,0.06319
813.929,0.06243
808.143,0.06220
802.356,0.06144
796.57,0.06136
790.784,0.06056
784.998,0.06036
779.212,0.05924
773.425,0.05884
767.639,0.05760
761.853,0.05642
756.067,0.05750
750.28,0.05683
744.494,0.05576
738.708,0.05365
732.922,0.05388
727.136,0.05645
721.349,0.05630
715.563,0.05646
709.777,0.05594
703.991,0.05473
698.204,0.05554
692.418,0.05760
686.632,0.06292
680.846,0.06641
675.059,0.06832
669.273,0.06852
663.487,0.06937
657.701,0.06800
651.915,0.06796
646.128,0.06654
640.342,0.06595
634.556,0.06561
628.77,0.06685
622.983,0.06401
617.197,0.06376
611.411,0.06221
605.625,0.05918
599.839,0.06248