File: 01_Data/Nylon/FTIR/IS/Nylon_3.175_S_IS_221212_R8.dpt
7497.02,0.12120
7491.23,0.13089
7485.45,0.13412
7479.66,0.13628
7473.87,0.11464
7468.09,0.12372
7462.3,0.12700
7456.51,0.12240
7450.73,0.11838
7444.94,0.12257
7439.16,0.12126
7433.37,0.13005
7427.58,0.12344
7421.8,0.11905
7416.01,0.11958
7410.22,0.12752
7404.44,0.11862
7398.65,0.11245
7392.87,0.12086
7387.08,0.12421
7381.29,0.11649
7375.51,0.11992
7369.72,0.11418
7363.93,0.12311
7358.15,0.12178
7352.36,0.12258
7346.58,0.12222
7340.79,0.11744
7335,0.11411
7329.22,0.11090
7323.43,0.10183
7317.65,0.10061
7311.86,0.10207
7306.07,0.10773
7300.29,0.10308
7294.5,0.09789
7288.71,0.09203
7282.93,0.09933
7277.14,0.09295
7271.36,0.08959
7265.57,0.08777
7259.78,0.09270
7254,0.09819
7248.21,0.09935
7242.42,0.08402
7236.64,0.07650
7230.85,0.08720
7225.07,0.09528
7219.28,0.08494
7213.49,0.08547
7207.71,0.08201
7201.92,0.08513
7196.13,0.08424
7190.35,0.08721
7184.56,0.08569
7178.78,0.08639
7172.99,0.08362
7167.2,0.08289
7161.42,0.09432
7155.63,0.08703
7149.84,0.08134
7144.06,0.08624
7138.27,0.08467
7132.49,0.08719
7126.7,0.08348
7120.91,0.08202
7115.13,0.08147
7109.34,0.08113
7103.55,0.08069
7097.77,0.07384
7091.98,0.07742
7086.2,0.07980
7080.41,0.08083
7074.62,0.07690
7068.84,0.07996
7063.05,0.07692
7057.26,0.07185
7051.48,0.07541
7045.69,0.07140
7039.91,0.07564
7034.12,0.07834
7028.33,0.08893
7022.55,0.08345
7016.76,0.08557
7010.98,0.08282
7005.19,0.08168
6999.4,0.08296
6993.62,0.08144
6987.83,0.08073
6982.04,0.07884
6976.26,0.07690
6970.47,0.07956
6964.69,0.08032
6958.9,0.08036
6953.11,0.08364
6947.33,0.08133
6941.54,0.08301
6935.75,0.08026
6929.97,0.08517
6924.18,0.08453
6918.4,0.08362
6912.61,0.07702
6906.82,0.08182
6901.04,0.08296
6895.25,0.08158
6889.46,0.08622
6883.68,0.08855
6877.89,0.07912
6872.11,0.08369
6866.32,0.08611
6860.53,0.08839
6854.75,0.08315
6848.96,0.07976
6843.17,0.08364
6837.39,0.08332
6831.6,0.07999
6825.82,0.07884
6820.03,0.08532
6814.24,0.07472
6808.46,0.08315
6802.67,0.07982
6796.88,0.08260
6791.1,0.07834
6785.31,0.07602
6779.53,0.07953
6773.74,0.07886
6767.95,0.07894
6762.17,0.07005
6756.38,0.07437
6750.6,0.07658
6744.81,0.07566
6739.02,0.07570
6733.24,0.07323
6727.45,0.08101
6721.66,0.07687
6715.88,0.07234
6710.09,0.07597
6704.31,0.07115
6698.52,0.07044
6692.73,0.07373
6686.95,0.07429
6681.16,0.07309
6675.37,0.06946
6669.59,0.06753
6663.8,0.07377
6658.02,0.07208
6652.23,0.06835
6646.44,0.06517
6640.66,0.07231
6634.87,0.07054
6629.08,0.06352
6623.3,0.06476
6617.51,0.06251
6611.73,0.06520
6605.94,0.06635
6600.15,0.06700
6594.37,0.06664
6588.58,0.06637
6582.79,0.06631
6577.01,0.06683
6571.22,0.06802
6565.44,0.06702
6559.65,0.06321
6553.86,0.06047
6548.08,0.06128
6542.29,0.06114
6536.5,0.05863
6530.72,0.06752
6524.93,0.06542
6519.15,0.06371
6513.36,0.05852
6507.57,0.06230
6501.79,0.06553
6496,0.06156
6490.21,0.06075
6484.43,0.05942
6478.64,0.06371
6472.86,0.06333
6467.07,0.06142
6461.28,0.06530
6455.5,0.06466
6449.71,0.06655
6443.93,0.06951
6438.14,0.07454
6432.35,0.06984
6426.57,0.07298
6420.78,0.07502
6414.99,0.07203
6409.21,0.07137
6403.42,0.07367
6397.64,0.07590
6391.85,0.07141
6386.06,0.07054
6380.28,0.06960
6374.49,0.06767
6368.7,0.06660
6362.92,0.06477
6357.13,0.06368
6351.35,0.06496
6345.56,0.06215
6339.77,0.06580
6333.99,0.06732
6328.2,0.06425
6322.41,0.06696
6316.63,0.07054
6310.84,0.07255
6305.06,0.07138
6299.27,0.07219
6293.48,0.07039
6287.7,0.07198
6281.91,0.07079
6276.12,0.07109
6270.34,0.07213
6264.55,0.06803
6258.77,0.07182
6252.98,0.07002
6247.19,0.06750
6241.41,0.06817
6235.62,0.06984
6229.83,0.06784
6224.05,0.06802
6218.26,0.07367
6212.48,0.06719
6206.69,0.07064
6200.9,0.07184
6195.12,0.07376
6189.33,0.07146
6183.55,0.07141
6177.76,0.07671
6171.97,0.07892
6166.19,0.07573
6160.4,0.07918
6154.61,0.08160
6148.83,0.08308
6143.04,0.08239
6137.26,0.08394
6131.47,0.08741
6125.68,0.08285
6119.9,0.08313
6114.11,0.08584
6108.32,0.08508
6102.54,0.08744
6096.75,0.08478
6090.97,0.08724
6085.18,0.08658
6079.39,0.08633
6073.61,0.08713
6067.82,0.08481
6062.03,0.08457
6056.25,0.08773
6050.46,0.08347
6044.68,0.08578
6038.89,0.08527
6033.1,0.08586
6027.32,0.08519
6021.53,0.08507
6015.74,0.08366
6009.96,0.08449
6004.17,0.08196
5998.39,0.08150
5992.6,0.07937
5986.81,0.08148
5981.03,0.08076
5975.24,0.07934
5969.45,0.07962
5963.67,0.07876
5957.88,0.07595
5952.1,0.07561
5946.31,0.07537
5940.52,0.07306
5934.74,0.07180
5928.95,0.07131
5923.16,0.06675
5917.38,0.06358
5911.59,0.06239
5905.81,0.06446
5900.02,0.06262
5894.23,0.06023
5888.45,0.06052
5882.66,0.05619
5876.88,0.05655
5871.09,0.05605
5865.3,0.05618
5859.52,0.05513
5853.73,0.05309
5847.94,0.05440
5842.16,0.05650
5836.37,0.05752
5830.59,0.05401
5824.8,0.05594
5819.01,0.05424
5813.23,0.05564
5807.44,0.05354
5801.65,0.05409
5795.87,0.05764
5790.08,0.05399
5784.3,0.05492
5778.51,0.05583
5772.72,0.05414
5766.94,0.05484
5761.15,0.05682
5755.36,0.05581
5749.58,0.05629
5743.79,0.05575
5738.01,0.05776
5732.22,0.05532
5726.43,0.05305
5720.65,0.05458
5714.86,0.05603
5709.07,0.05480
5703.29,0.05383
5697.5,0.05282
5691.72,0.05607
5685.93,0.05505
5680.14,0.05754
5674.36,0.05812
5668.57,0.05755
5662.78,0.05807
5657,0.05740
5651.21,0.05643
5645.43,0.05695
5639.64,0.05658
5633.85,0.05838
5628.07,0.05789
5622.28,0.05897
5616.5,0.05987
5610.71,0.05763
5604.92,0.05777
5599.14,0.05919
5593.35,0.06081
5587.56,0.05937
5581.78,0.05927
5575.99,0.05847
5570.21,0.05940
5564.42,0.05996
5558.63,0.05988
5552.85,0.06029
5547.06,0.06090
5541.27,0.05940
5535.49,0.06077
5529.7,0.06155
5523.92,0.06232
5518.13,0.06099
5512.34,0.06064
5506.56,0.06286
5500.77,0.06273
5494.98,0.05932
5489.2,0.06198
5483.41,0.06215
5477.63,0.06122
5471.84,0.06146
5466.05,0.06280
5460.27,0.06131
5454.48,0.06319
5448.69,0.06244
5442.91,0.06309
5437.12,0.06440
5431.34,0.06392
5425.55,0.06234
5419.76,0.06026
5413.98,0.06134
5408.19,0.06342
5402.4,0.06469
5396.62,0.06367
5390.83,0.06509
5385.05,0.06581
5379.26,0.06563
5373.47,0.06454
5367.69,0.06623
5361.9,0.06599
5356.11,0.06529
5350.33,0.06480
5344.54,0.06644
5338.76,0.06606
5332.97,0.06578
5327.18,0.06590
5321.4,0.06574
5315.61,0.06525
5309.83,0.06432
5304.04,0.06481
5298.25,0.06310
5292.47,0.06350
5286.68,0.05989
5280.89,0.06241
5275.11,0.06202
5269.32,0.06176
5263.54,0.06059
5257.75,0.06018
5251.96,0.05878
5246.18,0.05965
5240.39,0.06086
5234.6,0.05819
5228.82,0.05796
5223.03,0.05813
5217.25,0.05755
5211.46,0.05660
5205.67,0.05713
5199.89,0.05820
5194.1,0.05783
5188.31,0.05740
5182.53,0.05734
5176.74,0.05763
5170.96,0.05769
5165.17,0.05815
5159.38,0.05720
5153.6,0.05551
5147.81,0.05657
5142.02,0.05731
5136.24,0.05622
5130.45,0.05619
5124.67,0.05517
5118.88,0.05708
5113.09,0.05681
5107.31,0.05600
5101.52,0.05719
5095.73,0.05806
5089.95,0.05795
5084.16,0.05634
5078.38,0.05691
5072.59,0.05737
5066.8,0.05786
5061.02,0.05878
5055.23,0.05798
5049.45,0.05789
5043.66,0.05816
5037.87,0.05675
5032.09,0.05729
5026.3,0.05818
5020.51,0.05776
5014.73,0.05776
5008.94,0.05746
5003.16,0.05722
4997.37,0.05785
4991.58,0.05712
4985.8,0.05813
4980.01,0.05719
4974.22,0.05705
4968.44,0.05698
4962.65,0.05700
4956.87,0.05645
4951.08,0.05603
4945.29,0.05658
4939.51,0.05765
4933.72,0.05658
4927.93,0.05690
4922.15,0.05629
4916.36,0.05599
4910.58,0.05623
4904.79,0.05664
4899,0.05750
4893.22,0.05539
4887.43,0.05614
4881.64,0.05702
4875.86,0.05755
4870.07,0.05829
4864.29,0.05792
4858.5,0.05710
4852.71,0.05777
4846.93,0.05693
4841.14,0.05770
4835.35,0.05706
4829.57,0.05704
4823.78,0.05813
4818,0.05724
4812.21,0.05800
4806.42,0.05795
4800.64,0.05780
4794.85,0.05693
4789.06,0.05741
4783.28,0.05746
4777.49,0.05795
4771.71,0.05794
4765.92,0.05734
4760.13,0.05830
4754.35,0.05725
4748.56,0.05831
4742.78,0.05825
4736.99,0.05765
4731.2,0.05733
4725.42,0.05823
4719.63,0.05800
4713.84,0.05787
4708.06,0.05762
4702.27,0.05696
4696.49,0.05743
4690.7,0.05745
4684.91,0.05740
4679.13,0.05799
4673.34,0.05823
4667.55,0.05681
4661.77,0.05714
4655.98,0.05706
4650.2,0.05802
4644.41,0.05811
4638.62,0.05814
4632.84,0.05691
4627.05,0.05630
4621.26,0.05746
4615.48,0.05723
4609.69,0.05706
4603.91,0.05729
4598.12,0.05691
4592.33,0.05797
4586.55,0.05745
4580.76,0.05786
4574.97,0.05714
4569.19,0.05735
4563.4,0.05635
4557.62,0.05817
4551.83,0.05735
4546.04,0.05804
4540.26,0.05771
4534.47,0.05740
4528.68,0.05720
4522.9,0.05764
4517.11,0.05747
4511.33,0.05694
4505.54,0.05783
4499.75,0.05774
4493.97,0.05703
4488.18,0.05824
4482.4,0.05762
4476.61,0.05808
4470.82,0.05772
4465.04,0.05819
4459.25,0.05836
4453.46,0.05796
4447.68,0.05832
4441.89,0.05771
4436.11,0.05761
4430.32,0.05750
4424.53,0.05735
4418.75,0.05713
4412.96,0.05791
4407.17,0.05752
4401.39,0.05631
4395.6,0.05704
4389.82,0.05772
4384.03,0.05794
4378.24,0.05750
4372.46,0.05745
4366.67,0.05784
4360.88,0.05768
4355.1,0.05759
4349.31,0.05819
4343.53,0.05747
4337.74,0.05812
4331.95,0.05820
4326.17,0.05834
4320.38,0.05745
4314.59,0.05814
4308.81,0.05785
4303.02,0.05799
4297.24,0.05765
4291.45,0.05820
4285.66,0.05788
4279.88,0.05778
4274.09,0.05850
4268.3,0.05750
4262.52,0.05771
4256.73,0.05782
4250.95,0.05784
4245.16,0.05821
4239.37,0.05756
4233.59,0.05794
4227.8,0.05769
4222.02,0.05739
4216.23,0.05796
4210.44,0.05832
4204.66,0.05878
4198.87,0.05823
4193.08,0.05813
4187.3,0.05758
4181.51,0.05830
4175.73,0.05814
4169.94,0.05793
4164.15,0.05756
4158.37,0.05737
4152.58,0.05819
4146.79,0.05799
4141.01,0.05737
4135.22,0.05744
4129.44,0.05827
4123.65,0.05802
4117.86,0.05798
4112.08,0.05818
4106.29,0.05853
4100.5,0.05884
4094.72,0.05822
4088.93,0.05825
4083.15,0.05804
4077.36,0.05812
4071.57,0.05791
4065.79,0.05822
4060,0.05817
4054.21,0.05846
4048.43,0.05780
4042.64,0.05787
4036.86,0.05817
4031.07,0.05807
4025.28,0.05848
4019.5,0.05849
4013.71,0.05795
4007.92,0.05848
4002.14,0.05806
3996.35,0.05815
3990.57,0.05825
3984.78,0.05804
3978.99,0.05855
3973.21,0.05785
3967.42,0.05842
3961.63,0.05819
3955.85,0.05843
3950.06,0.05795
3944.28,0.05742
3938.49,0.05800
3932.7,0.05806
3926.92,0.05804
3921.13,0.05847
3915.35,0.05821
3909.56,0.05842
3903.77,0.05823
3897.99,0.05816
3892.2,0.05844
3886.41,0.05861
3880.63,0.05817
3874.84,0.05857
3869.06,0.05835
3863.27,0.05842
3857.48,0.05835
3851.7,0.05863
3845.91,0.05797
3840.12,0.05853
3834.34,0.05829
3828.55,0.05809
3822.77,0.05842
3816.98,0.05776
3811.19,0.05787
3805.41,0.05816
3799.62,0.05807
3793.83,0.05811
3788.05,0.05811
3782.26,0.05855
3776.48,0.05874
3770.69,0.05777
3764.9,0.05794
3759.12,0.05813
3753.33,0.05828
3747.54,0.05860
3741.76,0.05844
3735.97,0.05816
3730.19,0.05811
3724.4,0.05818
3718.61,0.05777
3712.83,0.05771
3707.04,0.05815
3701.25,0.05727
3695.47,0.05734
3689.68,0.05732
3683.9,0.05786
3678.11,0.05752
3672.32,0.05786
3666.54,0.05730
3660.75,0.05723
3654.97,0.05792
3649.18,0.05743
3643.39,0.05722
3637.61,0.05764
3631.82,0.05745
3626.03,0.05706
3620.25,0.05736
3614.46,0.05672
3608.68,0.05666
3602.89,0.05771
3597.1,0.05645
3591.32,0.05668
3585.53,0.05680
3579.74,0.05653
3573.96,0.05704
3568.17,0.05662
3562.39,0.05614
3556.6,0.05629
3550.81,0.05640
3545.03,0.05666
3539.24,0.05667
3533.45,0.05589
3527.67,0.05576
3521.88,0.05552
3516.1,0.05593
3510.31,0.05539
3504.52,0.05453
3498.74,0.05526
3492.95,0.05525
3487.16,0.05490
3481.38,0.05496
3475.59,0.05477
3469.81,0.05559
3464.02,0.05515
3458.23,0.05432
3452.45,0.05445
3446.66,0.05428
3440.87,0.05428
3435.09,0.05391
3429.3,0.05399
3423.52,0.05422
3417.73,0.05292
3411.94,0.05286
3406.16,0.05319
3400.37,0.05236
3394.58,0.05200
3388.8,0.05124
3383.01,0.05069
3377.23,0.05076
3371.44,0.05026
3365.65,0.05023
3359.87,0.05000
3354.08,0.04859
3348.3,0.04772
3342.51,0.04731
3336.72,0.04611
3330.94,0.04606
3325.15,0.04532
3319.36,0.04650
3313.58,0.04891
3307.79,0.05483
3302.01,0.06232
3296.22,0.06734
3290.43,0.06977
3284.65,0.06964
3278.86,0.06892
3273.07,0.06785
3267.29,0.06726
3261.5,0.06645
3255.72,0.06528
3249.93,0.06561
3244.14,0.06539
3238.36,0.06458
3232.57,0.06450
3226.78,0.06410
3221,0.06341
3215.21,0.06197
3209.43,0.06246
3203.64,0.06183
3197.85,0.06259
3192.07,0.06247
3186.28,0.06204
3180.49,0.06167
3174.71,0.06221
3168.92,0.06153
3163.14,0.06185
3157.35,0.06089
3151.56,0.06134
3145.78,0.06121
3139.99,0.06031
3134.2,0.06115
3128.42,0.05985
3122.63,0.05971
3116.85,0.05915
3111.06,0.05971
3105.27,0.05941
3099.49,0.05866
3093.7,0.05897
3087.92,0.05892
3082.13,0.05934
3076.34,0.05940
3070.56,0.05969
3064.77,0.05954
3058.98,0.06004
3053.2,0.06036
3047.41,0.06052
3041.63,0.06038
3035.84,0.06031
3030.05,0.05993
3024.27,0.05983
3018.48,0.05972
3012.69,0.05878
3006.91,0.05892
3001.12,0.05809
2995.34,0.05790
2989.55,0.05731
2983.76,0.05649
2977.98,0.05610
2972.19,0.05523
2966.4,0.05462
2960.62,0.05493
2954.83,0.05450
2949.05,0.05399
2943.26,0.05517
2937.47,0.05676
2931.69,0.06025
2925.9,0.06412
2920.11,0.06624
2914.33,0.06566
2908.54,0.06478
2902.76,0.06460
2896.97,0.06396
2891.18,0.06274
2885.4,0.06103
2879.61,0.06057
2873.82,0.06190
2868.04,0.06240
2862.25,0.06391
2856.47,0.06704
2850.68,0.06901
2844.89,0.06800
2839.11,0.06672
2833.32,0.06522
2827.53,0.06495
2821.75,0.06425
2815.96,0.06394
2810.18,0.06369
2804.39,0.06361
2798.6,0.06297
2792.82,0.06317
2787.03,0.06319
2781.25,0.06301
2775.46,0.06275
2769.67,0.06279
2763.89,0.06265
2758.1,0.06281
2752.31,0.06261
2746.53,0.06247
2740.74,0.06225
2734.96,0.06251
2729.17,0.06252
2723.38,0.06209
2717.6,0.06243
2711.81,0.06233
2706.02,0.06204
2700.24,0.06226
2694.45,0.06207
2688.67,0.06177
2682.88,0.06212
2677.09,0.06191
2671.31,0.06201
2665.52,0.06182
2659.73,0.06174
2653.95,0.06197
2648.16,0.06162
2642.38,0.06155
2636.59,0.06147
2630.8,0.06121
2625.02,0.06141
2619.23,0.06130
2613.44,0.06132
2607.66,0.06163
2601.87,0.06157
2596.09,0.06107
2590.3,0.06152
2584.51,0.06135
2578.73,0.06106
2572.94,0.06157
2567.15,0.06123
2561.37,0.06122
2555.58,0.06116
2549.8,0.06115
2544.01,0.06115
2538.22,0.06127
2532.44,0.06101
2526.65,0.06112
2520.87,0.06098
2515.08,0.06093
2509.29,0.06099
2503.51,0.06054
2497.72,0.06059
2491.93,0.06109
2486.15,0.06100
2480.36,0.06094
2474.58,0.06073
2468.79,0.06086
2463,0.06069
2457.22,0.06082
2451.43,0.06062
2445.64,0.06081
2439.86,0.06095
2434.07,0.06086
2428.29,0.06052
2422.5,0.06059
2416.71,0.06046
2410.93,0.06049
2405.14,0.06054
2399.35,0.06048
2393.57,0.06012
2387.78,0.06026
2382,0.06065
2376.21,0.06028
2370.42,0.05995
2364.64,0.05996
2358.85,0.06013
2353.06,0.06036
2347.28,0.06034
2341.49,0.05999
2335.71,0.06046
2329.92,0.05997
2324.13,0.05998
2318.35,0.06003
2312.56,0.05997
2306.77,0.05964
2300.99,0.06023
2295.2,0.05982
2289.42,0.06014
2283.63,0.05997
2277.84,0.05982
2272.06,0.05970
2266.27,0.05987
2260.48,0.05988
2254.7,0.05983
2248.91,0.05978
2243.13,0.05985
2237.34,0.05975
2231.55,0.06000
2225.77,0.05931
2219.98,0.05932
2214.2,0.05925
2208.41,0.05911
2202.62,0.05940
2196.84,0.05911
2191.05,0.05926
2185.26,0.05930
2179.48,0.05927
2173.69,0.05942
2167.91,0.05908
2162.12,0.05895
2156.33,0.05935
2150.55,0.05909
2144.76,0.05874
2138.97,0.05845
2133.19,0.05879
2127.4,0.05921
2121.62,0.05912
2115.83,0.05871
2110.04,0.05883
2104.26,0.05849
2098.47,0.05891
2092.68,0.05854
2086.9,0.05846
2081.11,0.05889
2075.33,0.05825
2069.54,0.05825
2063.75,0.05832
2057.97,0.05822
2052.18,0.05825
2046.39,0.05804
2040.61,0.05802
2034.82,0.05809
2029.04,0.05771
2023.25,0.05803
2017.46,0.05803
2011.68,0.05785
2005.89,0.05746
2000.1,0.05764
1994.32,0.05751
1988.53,0.05756
1982.75,0.05725
1976.96,0.05707
1971.17,0.05726
1965.39,0.05709
1959.6,0.05704
1953.82,0.05701
1948.03,0.05713
1942.24,0.05690
1936.46,0.05682
1930.67,0.05674
1924.88,0.05659
1919.1,0.05637
1913.31,0.05623
1907.53,0.05611
1901.74,0.05570
1895.95,0.05581
1890.17,0.05552
1884.38,0.05533
1878.59,0.05530
1872.81,0.05511
1867.02,0.05492
1861.24,0.05480
1855.45,0.05469
1849.66,0.05474
1843.88,0.05399
1838.09,0.05371
1832.3,0.05356
1826.52,0.05367
1820.73,0.05312
1814.95,0.05286
1809.16,0.05276
1803.37,0.05257
1797.59,0.05218
1791.8,0.05190
1786.01,0.05128
1780.23,0.05092
1774.44,0.05003
1768.66,0.04955
1762.87,0.04911
1757.08,0.04920
1751.3,0.04951
1745.51,0.04965
1739.72,0.04909
1733.94,0.04816
1728.15,0.04689
1722.37,0.04644
1716.58,0.04506
1710.79,0.04345
1705.01,0.04221
1699.22,0.04095
1693.43,0.03873
1687.65,0.03687
1681.86,0.03492
1676.08,0.03362
1670.29,0.03296
1664.5,0.03477
1658.72,0.04145
1652.93,0.05619
1647.15,0.08031
1641.36,0.11336
1635.57,0.13660
1629.79,0.13344
1624,0.11086
1618.21,0.09641
1612.43,0.08651
1606.64,0.08057
1600.86,0.07524
1595.07,0.07015
1589.28,0.06495
1583.5,0.06032
1577.71,0.05580
1571.92,0.05116
1566.14,0.04774
1560.35,0.04676
1554.57,0.04892
1548.78,0.05831
1542.99,0.07670
1537.21,0.09641
1531.42,0.10134
1525.63,0.09615
1519.85,0.08922
1514.06,0.08452
1508.28,0.08102
1502.49,0.07728
1496.7,0.07468
1490.92,0.07218
1485.13,0.06890
1479.34,0.06791
1473.56,0.07315
1467.77,0.07306
1461.99,0.07541
1456.2,0.07413
1450.41,0.07220
1444.63,0.07051
1438.84,0.07036
1433.05,0.07004
1427.27,0.06914
1421.48,0.07029
1415.7,0.07673
1409.91,0.07536
1404.12,0.07201
1398.34,0.07044
1392.55,0.06873
1386.77,0.06850
1380.98,0.06785
1375.19,0.06838
1369.41,0.07071
1363.62,0.07194
1357.83,0.07188
1352.05,0.07148
1346.26,0.07089
1340.48,0.07005
1334.69,0.06900
1328.9,0.06852
1323.12,0.06820
1317.33,0.06716
1311.54,0.06656
1305.76,0.06617
1299.97,0.06605
1294.19,0.06505
1288.4,0.06377
1282.61,0.06303
1276.83,0.06575
1271.04,0.07045
1265.25,0.07242
1259.47,0.07327
1253.68,0.07308
1247.9,0.07254
1242.11,0.07181
1236.32,0.07109
1230.54,0.07089
1224.75,0.07070
1218.96,0.07029
1213.18,0.06841
1207.39,0.06671
1201.61,0.06915
1195.82,0.07503
1190.03,0.07399
1184.25,0.07277
1178.46,0.07396
1172.67,0.07441
1166.89,0.07392
1161.1,0.07288
1155.32,0.07153
1149.53,0.07133
1143.74,0.07167
1137.96,0.07209
1132.17,0.07187
1126.38,0.07110
1120.6,0.07118
1114.81,0.07061
1109.03,0.06968
1103.24,0.07039
1097.45,0.06963
1091.67,0.06962
1085.88,0.06916
1080.1,0.06879
1074.31,0.06827
1068.52,0.06884
1062.74,0.06776
1056.95,0.06850
1051.16,0.06804
1045.38,0.06775
1039.59,0.06786
1033.81,0.06792
1028.02,0.06823
1022.23,0.06785
1016.45,0.06854
1010.66,0.06833
1004.87,0.06749
999.088,0.06713
993.302,0.06729
987.516,0.06700
981.729,0.06632
975.943,0.06609
970.157,0.06579
964.371,0.06608
958.585,0.06556
952.798,0.06497
947.012,0.06436
941.226,0.06440
935.44,0.06658
929.653,0.06730
923.867,0.06711
918.081,0.06639
912.295,0.06651
906.508,0.06615
900.722,0.06559
894.936,0.06570
889.15,0.06557
883.364,0.06503
877.577,0.06515
871.791,0.06525
866.005,0.06379
860.219,0.06451
854.432,0.06381
848.646,0.06313
842.86,0.06410
837.074,0.06295
831.288,0.06353
825.501,0.06204
819.715,0.06168
813.929,0.06187
808.143,0.06169
802.356,0.06046
796.57,0.06083
790.784,0.06004
784.998,0.05964
779.212,0.05893
773.425,0.05781
767.639,0.05726
761.853,0.05777
756.067,0.05749
750.28,0.05665
744.494,0.05489
738.708,0.05419
732.922,0.05392
727.136,0.05659
721.349,0.05760
715.563,0.05569
709.777,0.05541
703.991,0.05405
698.204,0.05534
692.418,0.05828
686.632,0.06382
680.846,0.06618
675.059,0.06912
669.273,0.06945
663.487,0.06901
657.701,0.06931
651.915,0.06870
646.128,0.06778
640.342,0.06609
634.556,0.06525
628.77,0.06587
622.983,0.06570
617.197,0.06469
611.411,0.06278
605.625,0.06321
599.839,0.06089