File: 01_Data/Nylon/FTIR/IS/Nylon_3.175_T_IS_221212_R2.dpt
7497.02,0.01889
7491.23,0.02323
7485.45,0.02353
7479.66,0.02252
7473.87,0.02334
7468.09,0.02488
7462.3,0.02675
7456.51,0.01895
7450.73,0.03985
7444.94,0.02877
7439.16,0.03255
7433.37,0.03189
7427.58,0.03068
7421.8,0.02887
7416.01,0.03558
7410.22,0.02912
7404.44,0.02150
7398.65,0.02582
7392.87,0.02353
7387.08,0.02275
7381.29,0.01957
7375.51,0.02381
7369.72,0.02371
7363.93,0.02938
7358.15,0.02153
7352.36,0.02319
7346.58,0.03078
7340.79,0.02652
7335,0.02532
7329.22,0.02433
7323.43,0.02583
7317.65,0.01352
7311.86,0.02332
7306.07,0.01750
7300.29,0.02527
7294.5,0.02143
7288.71,0.02517
7282.93,0.01568
7277.14,0.02139
7271.36,0.02808
7265.57,0.01898
7259.78,0.02114
7254,0.02890
7248.21,0.02008
7242.42,0.01360
7236.64,0.03329
7230.85,0.02016
7225.07,0.02832
7219.28,0.01753
7213.49,0.01575
7207.71,0.02728
7201.92,0.02425
7196.13,0.02429
7190.35,0.02252
7184.56,0.02396
7178.78,0.02881
7172.99,0.02828
7167.2,0.03357
7161.42,0.02400
7155.63,0.02589
7149.84,0.02608
7144.06,0.02548
7138.27,0.01988
7132.49,0.02272
7126.7,0.02822
7120.91,0.02426
7115.13,0.02213
7109.34,0.03048
7103.55,0.02900
7097.77,0.02807
7091.98,0.02102
7086.2,0.02697
7080.41,0.02188
7074.62,0.03035
7068.84,0.02853
7063.05,0.02666
7057.26,0.02647
7051.48,0.02984
7045.69,0.03394
7039.91,0.02388
7034.12,0.02565
7028.33,0.02189
7022.55,0.02887
7016.76,0.02926
7010.98,0.02336
7005.19,0.01992
6999.4,0.01738
6993.62,0.03355
6987.83,0.02461
6982.04,0.02615
6976.26,0.02255
6970.47,0.02622
6964.69,0.02657
6958.9,0.02882
6953.11,0.02481
6947.33,0.02970
6941.54,0.02533
6935.75,0.02272
6929.97,0.02124
6924.18,0.02393
6918.4,0.01906
6912.61,0.02050
6906.82,0.02447
6901.04,0.02275
6895.25,0.01804
6889.46,0.02349
6883.68,0.03014
6877.89,0.02514
6872.11,0.02287
6866.32,0.02464
6860.53,0.02512
6854.75,0.02370
6848.96,0.01909
6843.17,0.02087
6837.39,0.02436
6831.6,0.02338
6825.82,0.02605
6820.03,0.01938
6814.24,0.02120
6808.46,0.02305
6802.67,0.02317
6796.88,0.02641
6791.1,0.02569
6785.31,0.02287
6779.53,0.01727
6773.74,0.02113
6767.95,0.02584
6762.17,0.02207
6756.38,0.01919
6750.6,0.02575
6744.81,0.02403
6739.02,0.02201
6733.24,0.02333
6727.45,0.02213
6721.66,0.02175
6715.88,0.02120
6710.09,0.02661
6704.31,0.02828
6698.52,0.02896
6692.73,0.02583
6686.95,0.02937
6681.16,0.02683
6675.37,0.02419
6669.59,0.02264
6663.8,0.02943
6658.02,0.02421
6652.23,0.02062
6646.44,0.02286
6640.66,0.02463
6634.87,0.03128
6629.08,0.02473
6623.3,0.02487
6617.51,0.02219
6611.73,0.02183
6605.94,0.01797
6600.15,0.01931
6594.37,0.02573
6588.58,0.02156
6582.79,0.02409
6577.01,0.02435
6571.22,0.01781
6565.44,0.02430
6559.65,0.02535
6553.86,0.02686
6548.08,0.02630
6542.29,0.02527
6536.5,0.02076
6530.72,0.02523
6524.93,0.02680
6519.15,0.02326
6513.36,0.02318
6507.57,0.02692
6501.79,0.02213
6496,0.02526
6490.21,0.02478
6484.43,0.02283
6478.64,0.02321
6472.86,0.02659
6467.07,0.02064
6461.28,0.02275
6455.5,0.02458
6449.71,0.02367
6443.93,0.02229
6438.14,0.02158
6432.35,0.02380
6426.57,0.02529
6420.78,0.02392
6414.99,0.02397
6409.21,0.02311
6403.42,0.02245
6397.64,0.02373
6391.85,0.02148
6386.06,0.02010
6380.28,0.02326
6374.49,0.02266
6368.7,0.02410
6362.92,0.02351
6357.13,0.02384
6351.35,0.01749
6345.56,0.02303
6339.77,0.02383
6333.99,0.01768
6328.2,0.02213
6322.41,0.02157
6316.63,0.02370
6310.84,0.02380
6305.06,0.02237
6299.27,0.02313
6293.48,0.02780
6287.7,0.02295
6281.91,0.02427
6276.12,0.02386
6270.34,0.02123
6264.55,0.02050
6258.77,0.02432
6252.98,0.02613
6247.19,0.02431
6241.41,0.02271
6235.62,0.02340
6229.83,0.02599
6224.05,0.02038
6218.26,0.02186
6212.48,0.02405
6206.69,0.02513
6200.9,0.02040
6195.12,0.02060
6189.33,0.02265
6183.55,0.02226
6177.76,0.02162
6171.97,0.02376
6166.19,0.02234
6160.4,0.02417
6154.61,0.02180
6148.83,0.02087
6143.04,0.02455
6137.26,0.02300
6131.47,0.01929
6125.68,0.02344
6119.9,0.02516
6114.11,0.02385
6108.32,0.02254
6102.54,0.02590
6096.75,0.02340
6090.97,0.02354
6085.18,0.02336
6079.39,0.02346
6073.61,0.02423
6067.82,0.02058
6062.03,0.02023
6056.25,0.02308
6050.46,0.02128
6044.68,0.02161
6038.89,0.02510
6033.1,0.02061
6027.32,0.02305
6021.53,0.02024
6015.74,0.02181
6009.96,0.02344
6004.17,0.02393
5998.39,0.02198
5992.6,0.02212
5986.81,0.02330
5981.03,0.02372
5975.24,0.02434
5969.45,0.02184
5963.67,0.02331
5957.88,0.02241
5952.1,0.02280
5946.31,0.02297
5940.52,0.02103
5934.74,0.02271
5928.95,0.02083
5923.16,0.02302
5917.38,0.02211
5911.59,0.02169
5905.81,0.02387
5900.02,0.02323
5894.23,0.02132
5888.45,0.02323
5882.66,0.02469
5876.88,0.02297
5871.09,0.02245
5865.3,0.02107
5859.52,0.02184
5853.73,0.02143
5847.94,0.02481
5842.16,0.02160
5836.37,0.02166
5830.59,0.02337
5824.8,0.02302
5819.01,0.02159
5813.23,0.02357
5807.44,0.02160
5801.65,0.02011
5795.87,0.01998
5790.08,0.01920
5784.3,0.02311
5778.51,0.02392
5772.72,0.02383
5766.94,0.02157
5761.15,0.02161
5755.36,0.02224
5749.58,0.02316
5743.79,0.02410
5738.01,0.02336
5732.22,0.02447
5726.43,0.02232
5720.65,0.02176
5714.86,0.02334
5709.07,0.02366
5703.29,0.02476
5697.5,0.02194
5691.72,0.02329
5685.93,0.02463
5680.14,0.02334
5674.36,0.02282
5668.57,0.02292
5662.78,0.02220
5657,0.02338
5651.21,0.02393
5645.43,0.02333
5639.64,0.02541
5633.85,0.02143
5628.07,0.02537
5622.28,0.02426
5616.5,0.02346
5610.71,0.02415
5604.92,0.02325
5599.14,0.02418
5593.35,0.02476
5587.56,0.02196
5581.78,0.02483
5575.99,0.02191
5570.21,0.02281
5564.42,0.02528
5558.63,0.02223
5552.85,0.02352
5547.06,0.02262
5541.27,0.02377
5535.49,0.02339
5529.7,0.02332
5523.92,0.02292
5518.13,0.02366
5512.34,0.02247
5506.56,0.02364
5500.77,0.02291
5494.98,0.02473
5489.2,0.02151
5483.41,0.02318
5477.63,0.02408
5471.84,0.02284
5466.05,0.02454
5460.27,0.02005
5454.48,0.02283
5448.69,0.02399
5442.91,0.02257
5437.12,0.02317
5431.34,0.02399
5425.55,0.02280
5419.76,0.02360
5413.98,0.02245
5408.19,0.02238
5402.4,0.02114
5396.62,0.02225
5390.83,0.02312
5385.05,0.02426
5379.26,0.02270
5373.47,0.02374
5367.69,0.02343
5361.9,0.02246
5356.11,0.02263
5350.33,0.02248
5344.54,0.02295
5338.76,0.02210
5332.97,0.02334
5327.18,0.02305
5321.4,0.02199
5315.61,0.02361
5309.83,0.02334
5304.04,0.02304
5298.25,0.02345
5292.47,0.02268
5286.68,0.02328
5280.89,0.02311
5275.11,0.02461
5269.32,0.02365
5263.54,0.02435
5257.75,0.02372
5251.96,0.02248
5246.18,0.02183
5240.39,0.02324
5234.6,0.02426
5228.82,0.02404
5223.03,0.02342
5217.25,0.02332
5211.46,0.02326
5205.67,0.02330
5199.89,0.02336
5194.1,0.02468
5188.31,0.02368
5182.53,0.02416
5176.74,0.02240
5170.96,0.02216
5165.17,0.02389
5159.38,0.02370
5153.6,0.02258
5147.81,0.02363
5142.02,0.02191
5136.24,0.02287
5130.45,0.02517
5124.67,0.02395
5118.88,0.02317
5113.09,0.02372
5107.31,0.02325
5101.52,0.02416
5095.73,0.02486
5089.95,0.02295
5084.16,0.02172
5078.38,0.02261
5072.59,0.02298
5066.8,0.02411
5061.02,0.02159
5055.23,0.02295
5049.45,0.02379
5043.66,0.02447
5037.87,0.02344
5032.09,0.02331
5026.3,0.02285
5020.51,0.02366
5014.73,0.02303
5008.94,0.02263
5003.16,0.02339
4997.37,0.02346
4991.58,0.02360
4985.8,0.02401
4980.01,0.02357
4974.22,0.02362
4968.44,0.02204
4962.65,0.02256
4956.87,0.02350
4951.08,0.02393
4945.29,0.02294
4939.51,0.02313
4933.72,0.02275
4927.93,0.02211
4922.15,0.02258
4916.36,0.02245
4910.58,0.02227
4904.79,0.02367
4899,0.02227
4893.22,0.02314
4887.43,0.02319
4881.64,0.02332
4875.86,0.02232
4870.07,0.02306
4864.29,0.02311
4858.5,0.02271
4852.71,0.02395
4846.93,0.02315
4841.14,0.02248
4835.35,0.02251
4829.57,0.02280
4823.78,0.02414
4818,0.02323
4812.21,0.02362
4806.42,0.02316
4800.64,0.02352
4794.85,0.02332
4789.06,0.02349
4783.28,0.02275
4777.49,0.02375
4771.71,0.02418
4765.92,0.02282
4760.13,0.02334
4754.35,0.02363
4748.56,0.02374
4742.78,0.02345
4736.99,0.02408
4731.2,0.02319
4725.42,0.02322
4719.63,0.02376
4713.84,0.02259
4708.06,0.02303
4702.27,0.02398
4696.49,0.02332
4690.7,0.02289
4684.91,0.02358
4679.13,0.02413
4673.34,0.02349
4667.55,0.02304
4661.77,0.02346
4655.98,0.02344
4650.2,0.02304
4644.41,0.02287
4638.62,0.02257
4632.84,0.02416
4627.05,0.02398
4621.26,0.02377
4615.48,0.02344
4609.69,0.02360
4603.91,0.02389
4598.12,0.02448
4592.33,0.02419
4586.55,0.02323
4580.76,0.02306
4574.97,0.02300
4569.19,0.02385
4563.4,0.02345
4557.62,0.02338
4551.83,0.02330
4546.04,0.02330
4540.26,0.02319
4534.47,0.02345
4528.68,0.02375
4522.9,0.02312
4517.11,0.02313
4511.33,0.02311
4505.54,0.02396
4499.75,0.02349
4493.97,0.02317
4488.18,0.02327
4482.4,0.02366
4476.61,0.02366
4470.82,0.02377
4465.04,0.02378
4459.25,0.02364
4453.46,0.02388
4447.68,0.02358
4441.89,0.02412
4436.11,0.02342
4430.32,0.02340
4424.53,0.02378
4418.75,0.02311
4412.96,0.02435
4407.17,0.02315
4401.39,0.02302
4395.6,0.02405
4389.82,0.02377
4384.03,0.02442
4378.24,0.02402
4372.46,0.02349
4366.67,0.02321
4360.88,0.02369
4355.1,0.02334
4349.31,0.02327
4343.53,0.02325
4337.74,0.02416
4331.95,0.02325
4326.17,0.02294
4320.38,0.02329
4314.59,0.02380
4308.81,0.02377
4303.02,0.02342
4297.24,0.02402
4291.45,0.02268
4285.66,0.02388
4279.88,0.02385
4274.09,0.02336
4268.3,0.02374
4262.52,0.02410
4256.73,0.02394
4250.95,0.02365
4245.16,0.02378
4239.37,0.02376
4233.59,0.02375
4227.8,0.02356
4222.02,0.02364
4216.23,0.02424
4210.44,0.02358
4204.66,0.02381
4198.87,0.02321
4193.08,0.02364
4187.3,0.02369
4181.51,0.02302
4175.73,0.02421
4169.94,0.02430
4164.15,0.02331
4158.37,0.02376
4152.58,0.02375
4146.79,0.02372
4141.01,0.02366
4135.22,0.02326
4129.44,0.02351
4123.65,0.02326
4117.86,0.02383
4112.08,0.02381
4106.29,0.02333
4100.5,0.02433
4094.72,0.02449
4088.93,0.02381
4083.15,0.02275
4077.36,0.02397
4071.57,0.02410
4065.79,0.02350
4060,0.02344
4054.21,0.02362
4048.43,0.02349
4042.64,0.02331
4036.86,0.02376
4031.07,0.02425
4025.28,0.02411
4019.5,0.02390
4013.71,0.02372
4007.92,0.02370
4002.14,0.02411
3996.35,0.02389
3990.57,0.02389
3984.78,0.02389
3978.99,0.02444
3973.21,0.02407
3967.42,0.02335
3961.63,0.02325
3955.85,0.02322
3950.06,0.02342
3944.28,0.02420
3938.49,0.02378
3932.7,0.02381
3926.92,0.02425
3921.13,0.02415
3915.35,0.02381
3909.56,0.02409
3903.77,0.02363
3897.99,0.02396
3892.2,0.02354
3886.41,0.02393
3880.63,0.02444
3874.84,0.02389
3869.06,0.02350
3863.27,0.02399
3857.48,0.02430
3851.7,0.02295
3845.91,0.02330
3840.12,0.02378
3834.34,0.02371
3828.55,0.02412
3822.77,0.02450
3816.98,0.02414
3811.19,0.02435
3805.41,0.02410
3799.62,0.02490
3793.83,0.02384
3788.05,0.02367
3782.26,0.02365
3776.48,0.02352
3770.69,0.02368
3764.9,0.02385
3759.12,0.02395
3753.33,0.02392
3747.54,0.02465
3741.76,0.02395
3735.97,0.02347
3730.19,0.02390
3724.4,0.02369
3718.61,0.02406
3712.83,0.02393
3707.04,0.02324
3701.25,0.02328
3695.47,0.02366
3689.68,0.02377
3683.9,0.02392
3678.11,0.02403
3672.32,0.02319
3666.54,0.02318
3660.75,0.02324
3654.97,0.02330
3649.18,0.02350
3643.39,0.02356
3637.61,0.02306
3631.82,0.02354
3626.03,0.02322
3620.25,0.02351
3614.46,0.02323
3608.68,0.02324
3602.89,0.02313
3597.1,0.02339
3591.32,0.02195
3585.53,0.02230
3579.74,0.02309
3573.96,0.02303
3568.17,0.02146
3562.39,0.02210
3556.6,0.02269
3550.81,0.02144
3545.03,0.02239
3539.24,0.02252
3533.45,0.02270
3527.67,0.02257
3521.88,0.02226
3516.1,0.02254
3510.31,0.02222
3504.52,0.02285
3498.74,0.02182
3492.95,0.02213
3487.16,0.02276
3481.38,0.02159
3475.59,0.02263
3469.81,0.02227
3464.02,0.02288
3458.23,0.02211
3452.45,0.02211
3446.66,0.02148
3440.87,0.02196
3435.09,0.02173
3429.3,0.02197
3423.52,0.02225
3417.73,0.02279
3411.94,0.02255
3406.16,0.02218
3400.37,0.02188
3394.58,0.02149
3388.8,0.02190
3383.01,0.02123
3377.23,0.02136
3371.44,0.02143
3365.65,0.02077
3359.87,0.02172
3354.08,0.02077
3348.3,0.02160
3342.51,0.02120
3336.72,0.02138
3330.94,0.02152
3325.15,0.02208
3319.36,0.02090
3313.58,0.02222
3307.79,0.02062
3302.01,0.02069
3296.22,0.02083
3290.43,0.02240
3284.65,0.02186
3278.86,0.02175
3273.07,0.02170
3267.29,0.02192
3261.5,0.02181
3255.72,0.02155
3249.93,0.02103
3244.14,0.02183
3238.36,0.02190
3232.57,0.02176
3226.78,0.02256
3221,0.02200
3215.21,0.02208
3209.43,0.02188
3203.64,0.02186
3197.85,0.02255
3192.07,0.02200
3186.28,0.02247
3180.49,0.02255
3174.71,0.02227
3168.92,0.02199
3163.14,0.02174
3157.35,0.02162
3151.56,0.02214
3145.78,0.02213
3139.99,0.02224
3134.2,0.02234
3128.42,0.02212
3122.63,0.02216
3116.85,0.02149
3111.06,0.02250
3105.27,0.02143
3099.49,0.02183
3093.7,0.02218
3087.92,0.02228
3082.13,0.02243
3076.34,0.02212
3070.56,0.02180
3064.77,0.02220
3058.98,0.02192
3053.2,0.02226
3047.41,0.02165
3041.63,0.02240
3035.84,0.02235
3030.05,0.02226
3024.27,0.02218
3018.48,0.02200
3012.69,0.02211
3006.91,0.02197
3001.12,0.02133
2995.34,0.02152
2989.55,0.02137
2983.76,0.02155
2977.98,0.02132
2972.19,0.02138
2966.4,0.02089
2960.62,0.02111
2954.83,0.02067
2949.05,0.02106
2943.26,0.02141
2937.47,0.02128
2931.69,0.02089
2925.9,0.02149
2920.11,0.02125
2914.33,0.02202
2908.54,0.02172
2902.76,0.02158
2896.97,0.02165
2891.18,0.02164
2885.4,0.02177
2879.61,0.02167
2873.82,0.02170
2868.04,0.02197
2862.25,0.02163
2856.47,0.02230
2850.68,0.02251
2844.89,0.02246
2839.11,0.02233
2833.32,0.02253
2827.53,0.02218
2821.75,0.02258
2815.96,0.02218
2810.18,0.02270
2804.39,0.02307
2798.6,0.02281
2792.82,0.02303
2787.03,0.02276
2781.25,0.02275
2775.46,0.02293
2769.67,0.02295
2763.89,0.02305
2758.1,0.02277
2752.31,0.02282
2746.53,0.02315
2740.74,0.02258
2734.96,0.02250
2729.17,0.02281
2723.38,0.02293
2717.6,0.02286
2711.81,0.02285
2706.02,0.02344
2700.24,0.02334
2694.45,0.02304
2688.67,0.02320
2682.88,0.02262
2677.09,0.02285
2671.31,0.02313
2665.52,0.02275
2659.73,0.02264
2653.95,0.02266
2648.16,0.02270
2642.38,0.02287
2636.59,0.02319
2630.8,0.02298
2625.02,0.02283
2619.23,0.02291
2613.44,0.02286
2607.66,0.02300
2601.87,0.02265
2596.09,0.02305
2590.3,0.02310
2584.51,0.02293
2578.73,0.02294
2572.94,0.02286
2567.15,0.02280
2561.37,0.02263
2555.58,0.02255
2549.8,0.02315
2544.01,0.02292
2538.22,0.02324
2532.44,0.02298
2526.65,0.02285
2520.87,0.02330
2515.08,0.02280
2509.29,0.02291
2503.51,0.02294
2497.72,0.02310
2491.93,0.02274
2486.15,0.02227
2480.36,0.02247
2474.58,0.02278
2468.79,0.02297
2463,0.02294
2457.22,0.02282
2451.43,0.02301
2445.64,0.02318
2439.86,0.02279
2434.07,0.02271
2428.29,0.02276
2422.5,0.02282
2416.71,0.02298
2410.93,0.02313
2405.14,0.02268
2399.35,0.02318
2393.57,0.02291
2387.78,0.02300
2382,0.02272
2376.21,0.02307
2370.42,0.02316
2364.64,0.02303
2358.85,0.02289
2353.06,0.02267
2347.28,0.02252
2341.49,0.02315
2335.71,0.02278
2329.92,0.02308
2324.13,0.02350
2318.35,0.02317
2312.56,0.02290
2306.77,0.02278
2300.99,0.02265
2295.2,0.02263
2289.42,0.02286
2283.63,0.02259
2277.84,0.02270
2272.06,0.02291
2266.27,0.02287
2260.48,0.02281
2254.7,0.02238
2248.91,0.02274
2243.13,0.02272
2237.34,0.02296
2231.55,0.02261
2225.77,0.02299
2219.98,0.02232
2214.2,0.02283
2208.41,0.02238
2202.62,0.02254
2196.84,0.02250
2191.05,0.02284
2185.26,0.02263
2179.48,0.02291
2173.69,0.02229
2167.91,0.02269
2162.12,0.02285
2156.33,0.02287
2150.55,0.02256
2144.76,0.02271
2138.97,0.02296
2133.19,0.02261
2127.4,0.02222
2121.62,0.02283
2115.83,0.02295
2110.04,0.02263
2104.26,0.02265
2098.47,0.02250
2092.68,0.02276
2086.9,0.02289
2081.11,0.02246
2075.33,0.02250
2069.54,0.02231
2063.75,0.02271
2057.97,0.02228
2052.18,0.02239
2046.39,0.02269
2040.61,0.02252
2034.82,0.02263
2029.04,0.02257
2023.25,0.02228
2017.46,0.02265
2011.68,0.02287
2005.89,0.02273
2000.1,0.02251
1994.32,0.02274
1988.53,0.02256
1982.75,0.02236
1976.96,0.02264
1971.17,0.02278
1965.39,0.02280
1959.6,0.02276
1953.82,0.02241
1948.03,0.02249
1942.24,0.02237
1936.46,0.02260
1930.67,0.02257
1924.88,0.02246
1919.1,0.02249
1913.31,0.02251
1907.53,0.02250
1901.74,0.02233
1895.95,0.02231
1890.17,0.02265
1884.38,0.02255
1878.59,0.02217
1872.81,0.02231
1867.02,0.02215
1861.24,0.02236
1855.45,0.02215
1849.66,0.02195
1843.88,0.02221
1838.09,0.02231
1832.3,0.02206
1826.52,0.02200
1820.73,0.02171
1814.95,0.02204
1809.16,0.02188
1803.37,0.02119
1797.59,0.02122
1791.8,0.02135
1786.01,0.02103
1780.23,0.02091
1774.44,0.02075
1768.66,0.02035
1762.87,0.01997
1757.08,0.01896
1751.3,0.01910
1745.51,0.01901
1739.72,0.02011
1733.94,0.02136
1728.15,0.02195
1722.37,0.02219
1716.58,0.02250
1710.79,0.02176
1705.01,0.02181
1699.22,0.02117
1693.43,0.02100
1687.65,0.02101
1681.86,0.02071
1676.08,0.02019
1670.29,0.02023
1664.5,0.02031
1658.72,0.02049
1652.93,0.02052
1647.15,0.02002
1641.36,0.01993
1635.57,0.02056
1629.79,0.02061
1624,0.02020
1618.21,0.02029
1612.43,0.02039
1606.64,0.02021
1600.86,0.02047
1595.07,0.02046
1589.28,0.01999
1583.5,0.01996
1577.71,0.01998
1571.92,0.01978
1566.14,0.01973
1560.35,0.01974
1554.57,0.01992
1548.78,0.02021
1542.99,0.02026
1537.21,0.02005
1531.42,0.02013
1525.63,0.02002
1519.85,0.02011
1514.06,0.01995
1508.28,0.02012
1502.49,0.01998
1496.7,0.02002
1490.92,0.02030
1485.13,0.02056
1479.34,0.02024
1473.56,0.01975
1467.77,0.02004
1461.99,0.01996
1456.2,0.01994
1450.41,0.01970
1444.63,0.02025
1438.84,0.02017
1433.05,0.02034
1427.27,0.02030
1421.48,0.01997
1415.7,0.01987
1409.91,0.01970
1404.12,0.01990
1398.34,0.01982
1392.55,0.01951
1386.77,0.01949
1380.98,0.01935
1375.19,0.01940
1369.41,0.01938
1363.62,0.01980
1357.83,0.01940
1352.05,0.01936
1346.26,0.01932
1340.48,0.01913
1334.69,0.01939
1328.9,0.01913
1323.12,0.01882
1317.33,0.01875
1311.54,0.01827
1305.76,0.01862
1299.97,0.01849
1294.19,0.01916
1288.4,0.01924
1282.61,0.01999
1276.83,0.02050
1271.04,0.02107
1265.25,0.02143
1259.47,0.02172
1253.68,0.02162
1247.9,0.02151
1242.11,0.02166
1236.32,0.02135
1230.54,0.02074
1224.75,0.02089
1218.96,0.02114
1213.18,0.02048
1207.39,0.02074
1201.61,0.02008
1195.82,0.02022
1190.03,0.02017
1184.25,0.01988
1178.46,0.02011
1172.67,0.01933
1166.89,0.01924
1161.1,0.01922
1155.32,0.01933
1149.53,0.01926
1143.74,0.01908
1137.96,0.01921
1132.17,0.01934
1126.38,0.01943
1120.6,0.02033
1114.81,0.02030
1109.03,0.01987
1103.24,0.01972
1097.45,0.01931
1091.67,0.02008
1085.88,0.01903
1080.1,0.02019
1074.31,0.02087
1068.52,0.02070
1062.74,0.02145
1056.95,0.02166
1051.16,0.02050
1045.38,0.02003
1039.59,0.02122
1033.81,0.02160
1028.02,0.02106
1022.23,0.02060
1016.45,0.02083
1010.66,0.02177
1004.87,0.02240
999.088,0.02246
993.302,0.02231
987.516,0.02228
981.729,0.02224
975.943,0.02166
970.157,0.02207
964.371,0.02192
958.585,0.02212
952.798,0.02144
947.012,0.02199
941.226,0.02136
935.44,0.02120
929.653,0.02144
923.867,0.02088
918.081,0.02092
912.295,0.02058
906.508,0.02063
900.722,0.02085
894.936,0.02085
889.15,0.02163
883.364,0.02058
877.577,0.02015
871.791,0.02047
866.005,0.02036
860.219,0.02014
854.432,0.02039
848.646,0.01990
842.86,0.01982
837.074,0.02050
831.288,0.02028
825.501,0.02017
819.715,0.01961
813.929,0.02003
808.143,0.02069
802.356,0.02171
796.57,0.02060
790.784,0.02036
784.998,0.02014
779.212,0.01943
773.425,0.01979
767.639,0.02009
761.853,0.01944
756.067,0.01847
750.28,0.01955
744.494,0.01932
738.708,0.01895
732.922,0.02019
727.136,0.02044
721.349,0.01940
715.563,0.01900
709.777,0.01913
703.991,0.01930
698.204,0.01886
692.418,0.01979
686.632,0.01905
680.846,0.01855
675.059,0.01860
669.273,0.01817
663.487,0.01817
657.701,0.01798
651.915,0.01816
646.128,0.01788
640.342,0.01817
634.556,0.01779
628.77,0.01723
622.983,0.01800
617.197,0.01756
611.411,0.01609
605.625,0.01618
599.839,0.01737