File: 01_Data/Nylon/FTIR/IS/Nylon_3.175_S_IS_221212_R5.dpt
7497.02,0.13272
7491.23,0.12288
7485.45,0.12588
7479.66,0.13175
7473.87,0.13450
7468.09,0.11991
7462.3,0.13288
7456.51,0.12434
7450.73,0.13018
7444.94,0.12226
7439.16,0.13151
7433.37,0.13143
7427.58,0.11602
7421.8,0.12122
7416.01,0.12568
7410.22,0.12747
7404.44,0.12605
7398.65,0.11557
7392.87,0.12105
7387.08,0.12129
7381.29,0.12424
7375.51,0.12052
7369.72,0.12111
7363.93,0.12377
7358.15,0.11977
7352.36,0.12156
7346.58,0.11669
7340.79,0.10781
7335,0.10191
7329.22,0.11413
7323.43,0.10567
7317.65,0.10855
7311.86,0.10348
7306.07,0.10840
7300.29,0.09893
7294.5,0.10707
7288.71,0.10181
7282.93,0.09945
7277.14,0.09329
7271.36,0.09512
7265.57,0.09611
7259.78,0.09009
7254,0.08833
7248.21,0.09110
7242.42,0.08539
7236.64,0.07851
7230.85,0.09170
7225.07,0.08508
7219.28,0.08372
7213.49,0.08160
7207.71,0.08387
7201.92,0.07506
7196.13,0.08205
7190.35,0.08311
7184.56,0.08650
7178.78,0.08787
7172.99,0.07617
7167.2,0.08058
7161.42,0.08995
7155.63,0.08956
7149.84,0.08250
7144.06,0.08045
7138.27,0.07944
7132.49,0.08450
7126.7,0.07715
7120.91,0.08212
7115.13,0.07441
7109.34,0.07924
7103.55,0.07929
7097.77,0.08697
7091.98,0.07467
7086.2,0.08189
7080.41,0.08362
7074.62,0.08129
7068.84,0.07858
7063.05,0.07744
7057.26,0.07833
7051.48,0.07572
7045.69,0.07792
7039.91,0.07913
7034.12,0.08748
7028.33,0.07977
7022.55,0.08180
7016.76,0.07894
7010.98,0.08095
7005.19,0.07578
6999.4,0.07678
6993.62,0.08180
6987.83,0.08250
6982.04,0.08309
6976.26,0.08323
6970.47,0.08097
6964.69,0.07951
6958.9,0.08408
6953.11,0.08094
6947.33,0.08205
6941.54,0.08391
6935.75,0.07848
6929.97,0.08395
6924.18,0.08499
6918.4,0.07923
6912.61,0.08105
6906.82,0.08398
6901.04,0.08159
6895.25,0.09169
6889.46,0.08375
6883.68,0.07691
6877.89,0.07745
6872.11,0.08308
6866.32,0.08856
6860.53,0.08716
6854.75,0.07956
6848.96,0.08384
6843.17,0.07842
6837.39,0.07955
6831.6,0.08357
6825.82,0.09155
6820.03,0.08565
6814.24,0.08160
6808.46,0.07960
6802.67,0.07772
6796.88,0.07949
6791.1,0.07865
6785.31,0.07907
6779.53,0.07785
6773.74,0.07848
6767.95,0.07750
6762.17,0.07843
6756.38,0.07678
6750.6,0.07864
6744.81,0.07723
6739.02,0.07299
6733.24,0.07649
6727.45,0.07528
6721.66,0.07233
6715.88,0.07735
6710.09,0.07317
6704.31,0.07357
6698.52,0.07508
6692.73,0.07252
6686.95,0.07403
6681.16,0.07198
6675.37,0.06632
6669.59,0.07289
6663.8,0.06586
6658.02,0.07127
6652.23,0.06893
6646.44,0.06544
6640.66,0.06399
6634.87,0.06723
6629.08,0.06750
6623.3,0.06415
6617.51,0.06769
6611.73,0.06543
6605.94,0.06398
6600.15,0.06695
6594.37,0.06805
6588.58,0.06445
6582.79,0.06529
6577.01,0.06779
6571.22,0.06381
6565.44,0.06829
6559.65,0.06690
6553.86,0.06539
6548.08,0.06515
6542.29,0.06640
6536.5,0.06225
6530.72,0.06123
6524.93,0.05893
6519.15,0.06359
6513.36,0.06423
6507.57,0.06046
6501.79,0.06042
6496,0.06034
6490.21,0.06332
6484.43,0.06372
6478.64,0.06371
6472.86,0.06601
6467.07,0.06320
6461.28,0.06645
6455.5,0.06662
6449.71,0.06709
6443.93,0.06874
6438.14,0.06926
6432.35,0.07080
6426.57,0.07190
6420.78,0.07441
6414.99,0.07441
6409.21,0.07476
6403.42,0.07279
6397.64,0.07263
6391.85,0.07276
6386.06,0.07386
6380.28,0.07095
6374.49,0.06873
6368.7,0.06887
6362.92,0.06969
6357.13,0.06482
6351.35,0.06283
6345.56,0.06668
6339.77,0.06942
6333.99,0.06883
6328.2,0.06902
6322.41,0.07143
6316.63,0.07026
6310.84,0.07418
6305.06,0.07079
6299.27,0.07585
6293.48,0.07566
6287.7,0.07118
6281.91,0.07099
6276.12,0.06975
6270.34,0.06972
6264.55,0.07280
6258.77,0.07046
6252.98,0.07021
6247.19,0.07025
6241.41,0.07172
6235.62,0.06820
6229.83,0.06825
6224.05,0.06951
6218.26,0.06881
6212.48,0.07122
6206.69,0.07080
6200.9,0.07225
6195.12,0.07475
6189.33,0.07318
6183.55,0.07129
6177.76,0.07379
6171.97,0.07603
6166.19,0.07751
6160.4,0.07809
6154.61,0.07416
6148.83,0.07854
6143.04,0.08407
6137.26,0.08488
6131.47,0.08331
6125.68,0.08559
6119.9,0.08422
6114.11,0.08491
6108.32,0.08543
6102.54,0.08606
6096.75,0.08731
6090.97,0.08790
6085.18,0.08801
6079.39,0.08582
6073.61,0.08687
6067.82,0.08813
6062.03,0.08807
6056.25,0.08323
6050.46,0.08508
6044.68,0.08791
6038.89,0.08502
6033.1,0.08486
6027.32,0.08184
6021.53,0.08191
6015.74,0.08347
6009.96,0.08316
6004.17,0.08348
5998.39,0.08377
5992.6,0.08356
5986.81,0.08063
5981.03,0.07906
5975.24,0.07747
5969.45,0.07842
5963.67,0.07976
5957.88,0.07955
5952.1,0.07594
5946.31,0.07221
5940.52,0.07101
5934.74,0.07275
5928.95,0.06887
5923.16,0.06834
5917.38,0.06541
5911.59,0.06536
5905.81,0.06106
5900.02,0.06204
5894.23,0.05823
5888.45,0.05808
5882.66,0.05798
5876.88,0.05694
5871.09,0.05562
5865.3,0.05713
5859.52,0.05469
5853.73,0.05450
5847.94,0.05700
5842.16,0.05206
5836.37,0.05435
5830.59,0.05544
5824.8,0.05620
5819.01,0.05519
5813.23,0.05386
5807.44,0.05309
5801.65,0.05537
5795.87,0.05701
5790.08,0.05648
5784.3,0.05706
5778.51,0.05421
5772.72,0.05441
5766.94,0.05623
5761.15,0.05414
5755.36,0.05871
5749.58,0.05657
5743.79,0.05732
5738.01,0.05837
5732.22,0.05599
5726.43,0.05518
5720.65,0.05554
5714.86,0.05546
5709.07,0.05617
5703.29,0.05734
5697.5,0.05627
5691.72,0.05396
5685.93,0.05538
5680.14,0.05626
5674.36,0.05602
5668.57,0.05866
5662.78,0.05848
5657,0.05676
5651.21,0.05651
5645.43,0.05762
5639.64,0.05993
5633.85,0.05818
5628.07,0.05847
5622.28,0.05871
5616.5,0.05885
5610.71,0.06083
5604.92,0.05996
5599.14,0.05884
5593.35,0.05912
5587.56,0.06160
5581.78,0.05955
5575.99,0.06082
5570.21,0.06135
5564.42,0.06066
5558.63,0.05981
5552.85,0.06113
5547.06,0.06248
5541.27,0.05978
5535.49,0.06079
5529.7,0.06174
5523.92,0.06064
5518.13,0.06152
5512.34,0.06252
5506.56,0.06315
5500.77,0.06259
5494.98,0.06154
5489.2,0.06322
5483.41,0.06175
5477.63,0.06211
5471.84,0.06324
5466.05,0.06226
5460.27,0.06353
5454.48,0.06332
5448.69,0.06224
5442.91,0.06152
5437.12,0.06326
5431.34,0.06380
5425.55,0.06401
5419.76,0.06246
5413.98,0.06259
5408.19,0.06262
5402.4,0.06271
5396.62,0.06403
5390.83,0.06442
5385.05,0.06571
5379.26,0.06646
5373.47,0.06682
5367.69,0.06575
5361.9,0.06594
5356.11,0.06758
5350.33,0.06706
5344.54,0.06619
5338.76,0.06654
5332.97,0.06638
5327.18,0.06582
5321.4,0.06605
5315.61,0.06596
5309.83,0.06298
5304.04,0.06398
5298.25,0.06270
5292.47,0.06174
5286.68,0.06191
5280.89,0.06155
5275.11,0.06176
5269.32,0.06063
5263.54,0.06178
5257.75,0.05974
5251.96,0.05991
5246.18,0.05941
5240.39,0.05962
5234.6,0.05942
5228.82,0.05863
5223.03,0.05971
5217.25,0.05940
5211.46,0.05981
5205.67,0.05901
5199.89,0.05831
5194.1,0.05693
5188.31,0.05726
5182.53,0.05603
5176.74,0.05815
5170.96,0.05693
5165.17,0.05789
5159.38,0.05793
5153.6,0.05682
5147.81,0.05674
5142.02,0.05699
5136.24,0.05762
5130.45,0.05716
5124.67,0.05794
5118.88,0.05823
5113.09,0.05740
5107.31,0.05717
5101.52,0.05687
5095.73,0.05771
5089.95,0.05682
5084.16,0.05754
5078.38,0.05754
5072.59,0.05852
5066.8,0.05751
5061.02,0.05858
5055.23,0.05775
5049.45,0.05734
5043.66,0.05812
5037.87,0.05706
5032.09,0.05734
5026.3,0.05755
5020.51,0.05882
5014.73,0.05758
5008.94,0.05746
5003.16,0.05786
4997.37,0.05828
4991.58,0.05905
4985.8,0.05890
4980.01,0.05704
4974.22,0.05596
4968.44,0.05755
4962.65,0.05741
4956.87,0.05631
4951.08,0.05690
4945.29,0.05674
4939.51,0.05719
4933.72,0.05822
4927.93,0.05639
4922.15,0.05617
4916.36,0.05586
4910.58,0.05738
4904.79,0.05624
4899,0.05748
4893.22,0.05838
4887.43,0.05667
4881.64,0.05573
4875.86,0.05667
4870.07,0.05683
4864.29,0.05692
4858.5,0.05793
4852.71,0.05673
4846.93,0.05757
4841.14,0.05735
4835.35,0.05712
4829.57,0.05779
4823.78,0.05782
4818,0.05635
4812.21,0.05837
4806.42,0.05869
4800.64,0.05792
4794.85,0.05821
4789.06,0.05787
4783.28,0.05886
4777.49,0.05724
4771.71,0.05799
4765.92,0.05746
4760.13,0.05745
4754.35,0.05909
4748.56,0.05781
4742.78,0.05738
4736.99,0.05805
4731.2,0.05675
4725.42,0.05739
4719.63,0.05782
4713.84,0.05852
4708.06,0.05793
4702.27,0.05853
4696.49,0.05770
4690.7,0.05759
4684.91,0.05730
4679.13,0.05795
4673.34,0.05772
4667.55,0.05777
4661.77,0.05831
4655.98,0.05707
4650.2,0.05704
4644.41,0.05714
4638.62,0.05784
4632.84,0.05735
4627.05,0.05820
4621.26,0.05791
4615.48,0.05716
4609.69,0.05686
4603.91,0.05676
4598.12,0.05851
4592.33,0.05840
4586.55,0.05647
4580.76,0.05760
4574.97,0.05886
4569.19,0.05797
4563.4,0.05829
4557.62,0.05779
4551.83,0.05734
4546.04,0.05665
4540.26,0.05700
4534.47,0.05804
4528.68,0.05857
4522.9,0.05811
4517.11,0.05793
4511.33,0.05840
4505.54,0.05808
4499.75,0.05774
4493.97,0.05755
4488.18,0.05790
4482.4,0.05793
4476.61,0.05748
4470.82,0.05696
4465.04,0.05788
4459.25,0.05855
4453.46,0.05782
4447.68,0.05780
4441.89,0.05804
4436.11,0.05787
4430.32,0.05779
4424.53,0.05841
4418.75,0.05833
4412.96,0.05770
4407.17,0.05875
4401.39,0.05792
4395.6,0.05802
4389.82,0.05814
4384.03,0.05768
4378.24,0.05876
4372.46,0.05803
4366.67,0.05812
4360.88,0.05819
4355.1,0.05761
4349.31,0.05790
4343.53,0.05842
4337.74,0.05795
4331.95,0.05860
4326.17,0.05863
4320.38,0.05872
4314.59,0.05819
4308.81,0.05851
4303.02,0.05841
4297.24,0.05825
4291.45,0.05833
4285.66,0.05820
4279.88,0.05846
4274.09,0.05778
4268.3,0.05795
4262.52,0.05819
4256.73,0.05850
4250.95,0.05855
4245.16,0.05824
4239.37,0.05814
4233.59,0.05846
4227.8,0.05750
4222.02,0.05771
4216.23,0.05792
4210.44,0.05838
4204.66,0.05810
4198.87,0.05808
4193.08,0.05877
4187.3,0.05878
4181.51,0.05746
4175.73,0.05754
4169.94,0.05870
4164.15,0.05970
4158.37,0.05838
4152.58,0.05845
4146.79,0.05800
4141.01,0.05823
4135.22,0.05814
4129.44,0.05832
4123.65,0.05817
4117.86,0.05816
4112.08,0.05836
4106.29,0.05762
4100.5,0.05755
4094.72,0.05787
4088.93,0.05780
4083.15,0.05903
4077.36,0.05897
4071.57,0.05813
4065.79,0.05796
4060,0.05860
4054.21,0.05858
4048.43,0.05890
4042.64,0.05849
4036.86,0.05817
4031.07,0.05866
4025.28,0.05823
4019.5,0.05838
4013.71,0.05881
4007.92,0.05846
4002.14,0.05804
3996.35,0.05855
3990.57,0.05897
3984.78,0.05830
3978.99,0.05872
3973.21,0.05892
3967.42,0.05845
3961.63,0.05888
3955.85,0.05868
3950.06,0.05879
3944.28,0.05894
3938.49,0.05866
3932.7,0.05895
3926.92,0.05867
3921.13,0.05910
3915.35,0.05864
3909.56,0.05849
3903.77,0.05882
3897.99,0.05832
3892.2,0.05838
3886.41,0.05864
3880.63,0.05908
3874.84,0.05847
3869.06,0.05834
3863.27,0.05866
3857.48,0.05881
3851.7,0.05843
3845.91,0.05852
3840.12,0.05921
3834.34,0.05841
3828.55,0.05815
3822.77,0.05823
3816.98,0.05849
3811.19,0.05848
3805.41,0.05816
3799.62,0.05836
3793.83,0.05810
3788.05,0.05841
3782.26,0.05836
3776.48,0.05807
3770.69,0.05866
3764.9,0.05806
3759.12,0.05839
3753.33,0.05943
3747.54,0.05819
3741.76,0.05898
3735.97,0.05873
3730.19,0.05870
3724.4,0.05769
3718.61,0.05862
3712.83,0.05863
3707.04,0.05787
3701.25,0.05853
3695.47,0.05832
3689.68,0.05827
3683.9,0.05830
3678.11,0.05837
3672.32,0.05789
3666.54,0.05795
3660.75,0.05756
3654.97,0.05780
3649.18,0.05818
3643.39,0.05767
3637.61,0.05755
3631.82,0.05738
3626.03,0.05727
3620.25,0.05715
3614.46,0.05732
3608.68,0.05685
3602.89,0.05764
3597.1,0.05695
3591.32,0.05727
3585.53,0.05690
3579.74,0.05729
3573.96,0.05726
3568.17,0.05660
3562.39,0.05620
3556.6,0.05655
3550.81,0.05635
3545.03,0.05619
3539.24,0.05551
3533.45,0.05559
3527.67,0.05600
3521.88,0.05609
3516.1,0.05585
3510.31,0.05594
3504.52,0.05609
3498.74,0.05580
3492.95,0.05578
3487.16,0.05535
3481.38,0.05502
3475.59,0.05580
3469.81,0.05502
3464.02,0.05548
3458.23,0.05513
3452.45,0.05476
3446.66,0.05476
3440.87,0.05474
3435.09,0.05504
3429.3,0.05413
3423.52,0.05396
3417.73,0.05369
3411.94,0.05370
3406.16,0.05342
3400.37,0.05226
3394.58,0.05187
3388.8,0.05164
3383.01,0.05152
3377.23,0.05125
3371.44,0.05014
3365.65,0.05004
3359.87,0.04856
3354.08,0.04862
3348.3,0.04763
3342.51,0.04654
3336.72,0.04594
3330.94,0.04479
3325.15,0.04524
3319.36,0.04579
3313.58,0.04812
3307.79,0.05392
3302.01,0.06182
3296.22,0.06769
3290.43,0.07084
3284.65,0.06976
3278.86,0.06854
3273.07,0.06892
3267.29,0.06748
3261.5,0.06743
3255.72,0.06619
3249.93,0.06671
3244.14,0.06550
3238.36,0.06507
3232.57,0.06520
3226.78,0.06263
3221,0.06200
3215.21,0.06305
3209.43,0.06216
3203.64,0.06250
3197.85,0.06215
3192.07,0.06263
3186.28,0.06259
3180.49,0.06249
3174.71,0.06280
3168.92,0.06160
3163.14,0.06158
3157.35,0.06164
3151.56,0.06155
3145.78,0.06201
3139.99,0.06041
3134.2,0.06068
3128.42,0.06039
3122.63,0.06054
3116.85,0.05919
3111.06,0.05922
3105.27,0.05975
3099.49,0.05983
3093.7,0.05968
3087.92,0.05964
3082.13,0.05990
3076.34,0.06008
3070.56,0.05953
3064.77,0.05943
3058.98,0.06019
3053.2,0.06102
3047.41,0.06074
3041.63,0.06064
3035.84,0.06064
3030.05,0.06005
3024.27,0.06011
3018.48,0.05919
3012.69,0.05981
3006.91,0.05918
3001.12,0.05920
2995.34,0.05831
2989.55,0.05781
2983.76,0.05678
2977.98,0.05640
2972.19,0.05530
2966.4,0.05519
2960.62,0.05528
2954.83,0.05516
2949.05,0.05468
2943.26,0.05508
2937.47,0.05739
2931.69,0.06061
2925.9,0.06489
2920.11,0.06617
2914.33,0.06538
2908.54,0.06495
2902.76,0.06478
2896.97,0.06354
2891.18,0.06309
2885.4,0.06191
2879.61,0.06094
2873.82,0.06205
2868.04,0.06289
2862.25,0.06445
2856.47,0.06775
2850.68,0.06959
2844.89,0.06844
2839.11,0.06669
2833.32,0.06564
2827.53,0.06468
2821.75,0.06510
2815.96,0.06476
2810.18,0.06452
2804.39,0.06382
2798.6,0.06370
2792.82,0.06356
2787.03,0.06319
2781.25,0.06315
2775.46,0.06366
2769.67,0.06315
2763.89,0.06321
2758.1,0.06324
2752.31,0.06305
2746.53,0.06304
2740.74,0.06296
2734.96,0.06278
2729.17,0.06270
2723.38,0.06247
2717.6,0.06249
2711.81,0.06245
2706.02,0.06235
2700.24,0.06281
2694.45,0.06235
2688.67,0.06247
2682.88,0.06243
2677.09,0.06227
2671.31,0.06207
2665.52,0.06183
2659.73,0.06209
2653.95,0.06235
2648.16,0.06205
2642.38,0.06186
2636.59,0.06172
2630.8,0.06177
2625.02,0.06160
2619.23,0.06172
2613.44,0.06163
2607.66,0.06158
2601.87,0.06161
2596.09,0.06156
2590.3,0.06204
2584.51,0.06136
2578.73,0.06180
2572.94,0.06166
2567.15,0.06169
2561.37,0.06197
2555.58,0.06161
2549.8,0.06140
2544.01,0.06152
2538.22,0.06141
2532.44,0.06128
2526.65,0.06163
2520.87,0.06094
2515.08,0.06105
2509.29,0.06132
2503.51,0.06149
2497.72,0.06124
2491.93,0.06119
2486.15,0.06094
2480.36,0.06129
2474.58,0.06122
2468.79,0.06107
2463,0.06103
2457.22,0.06085
2451.43,0.06059
2445.64,0.06078
2439.86,0.06110
2434.07,0.06098
2428.29,0.06081
2422.5,0.06091
2416.71,0.06056
2410.93,0.06118
2405.14,0.06064
2399.35,0.06084
2393.57,0.06089
2387.78,0.06064
2382,0.06046
2376.21,0.06071
2370.42,0.06067
2364.64,0.06027
2358.85,0.06059
2353.06,0.06035
2347.28,0.06034
2341.49,0.06045
2335.71,0.06063
2329.92,0.06025
2324.13,0.06027
2318.35,0.06051
2312.56,0.06060
2306.77,0.06028
2300.99,0.06022
2295.2,0.06021
2289.42,0.06063
2283.63,0.06019
2277.84,0.05999
2272.06,0.06035
2266.27,0.06018
2260.48,0.06018
2254.7,0.06022
2248.91,0.06004
2243.13,0.06010
2237.34,0.05970
2231.55,0.05980
2225.77,0.05966
2219.98,0.05965
2214.2,0.05984
2208.41,0.05929
2202.62,0.05963
2196.84,0.05960
2191.05,0.05968
2185.26,0.05966
2179.48,0.05956
2173.69,0.05951
2167.91,0.05916
2162.12,0.05938
2156.33,0.05969
2150.55,0.05924
2144.76,0.05942
2138.97,0.05926
2133.19,0.05922
2127.4,0.05922
2121.62,0.05916
2115.83,0.05907
2110.04,0.05868
2104.26,0.05900
2098.47,0.05885
2092.68,0.05846
2086.9,0.05875
2081.11,0.05900
2075.33,0.05891
2069.54,0.05858
2063.75,0.05876
2057.97,0.05879
2052.18,0.05847
2046.39,0.05855
2040.61,0.05866
2034.82,0.05873
2029.04,0.05816
2023.25,0.05815
2017.46,0.05831
2011.68,0.05807
2005.89,0.05821
2000.1,0.05807
1994.32,0.05772
1988.53,0.05790
1982.75,0.05759
1976.96,0.05780
1971.17,0.05740
1965.39,0.05722
1959.6,0.05725
1953.82,0.05714
1948.03,0.05699
1942.24,0.05717
1936.46,0.05692
1930.67,0.05695
1924.88,0.05693
1919.1,0.05665
1913.31,0.05670
1907.53,0.05666
1901.74,0.05635
1895.95,0.05580
1890.17,0.05610
1884.38,0.05569
1878.59,0.05561
1872.81,0.05549
1867.02,0.05543
1861.24,0.05502
1855.45,0.05471
1849.66,0.05469
1843.88,0.05478
1838.09,0.05445
1832.3,0.05425
1826.52,0.05400
1820.73,0.05356
1814.95,0.05353
1809.16,0.05290
1803.37,0.05259
1797.59,0.05234
1791.8,0.05183
1786.01,0.05180
1780.23,0.05112
1774.44,0.05064
1768.66,0.04994
1762.87,0.04958
1757.08,0.05008
1751.3,0.04989
1745.51,0.04964
1739.72,0.04918
1733.94,0.04809
1728.15,0.04699
1722.37,0.04611
1716.58,0.04537
1710.79,0.04375
1705.01,0.04223
1699.22,0.04091
1693.43,0.03881
1687.65,0.03715
1681.86,0.03509
1676.08,0.03379
1670.29,0.03336
1664.5,0.03488
1658.72,0.04171
1652.93,0.05585
1647.15,0.08095
1641.36,0.11406
1635.57,0.13733
1629.79,0.13426
1624,0.11144
1618.21,0.09694
1612.43,0.08687
1606.64,0.08063
1600.86,0.07573
1595.07,0.07017
1589.28,0.06533
1583.5,0.06045
1577.71,0.05592
1571.92,0.05137
1566.14,0.04797
1560.35,0.04726
1554.57,0.04969
1548.78,0.05893
1542.99,0.07750
1537.21,0.09758
1531.42,0.10213
1525.63,0.09696
1519.85,0.09016
1514.06,0.08488
1508.28,0.08160
1502.49,0.07795
1496.7,0.07545
1490.92,0.07312
1485.13,0.06940
1479.34,0.06841
1473.56,0.07360
1467.77,0.07297
1461.99,0.07612
1456.2,0.07436
1450.41,0.07275
1444.63,0.07136
1438.84,0.07054
1433.05,0.07032
1427.27,0.07023
1421.48,0.07073
1415.7,0.07711
1409.91,0.07576
1404.12,0.07249
1398.34,0.07039
1392.55,0.06858
1386.77,0.06853
1380.98,0.06830
1375.19,0.06860
1369.41,0.07110
1363.62,0.07207
1357.83,0.07185
1352.05,0.07171
1346.26,0.07110
1340.48,0.07040
1334.69,0.06952
1328.9,0.06897
1323.12,0.06872
1317.33,0.06764
1311.54,0.06686
1305.76,0.06657
1299.97,0.06593
1294.19,0.06496
1288.4,0.06403
1282.61,0.06338
1276.83,0.06636
1271.04,0.07072
1265.25,0.07284
1259.47,0.07354
1253.68,0.07316
1247.9,0.07321
1242.11,0.07213
1236.32,0.07187
1230.54,0.07161
1224.75,0.07077
1218.96,0.07068
1213.18,0.06880
1207.39,0.06652
1201.61,0.06942
1195.82,0.07518
1190.03,0.07475
1184.25,0.07356
1178.46,0.07466
1172.67,0.07494
1166.89,0.07363
1161.1,0.07307
1155.32,0.07241
1149.53,0.07164
1143.74,0.07239
1137.96,0.07262
1132.17,0.07257
1126.38,0.07104
1120.6,0.07051
1114.81,0.07085
1109.03,0.07043
1103.24,0.06991
1097.45,0.06978
1091.67,0.06961
1085.88,0.06908
1080.1,0.06924
1074.31,0.06808
1068.52,0.06874
1062.74,0.06908
1056.95,0.06914
1051.16,0.06867
1045.38,0.06800
1039.59,0.06846
1033.81,0.06846
1028.02,0.06895
1022.23,0.06797
1016.45,0.06850
1010.66,0.06856
1004.87,0.06839
999.088,0.06787
993.302,0.06777
987.516,0.06688
981.729,0.06666
975.943,0.06661
970.157,0.06625
964.371,0.06612
958.585,0.06535
952.798,0.06528
947.012,0.06435
941.226,0.06428
935.44,0.06679
929.653,0.06790
923.867,0.06823
918.081,0.06712
912.295,0.06606
906.508,0.06604
900.722,0.06638
894.936,0.06630
889.15,0.06566
883.364,0.06455
877.577,0.06486
871.791,0.06479
866.005,0.06429
860.219,0.06418
854.432,0.06367
848.646,0.06312
842.86,0.06340
837.074,0.06286
831.288,0.06241
825.501,0.06257
819.715,0.06170
813.929,0.06167
808.143,0.06211
802.356,0.06140
796.57,0.06116
790.784,0.06077
784.998,0.06072
779.212,0.05976
773.425,0.05840
767.639,0.05782
761.853,0.05779
756.067,0.05630
750.28,0.05576
744.494,0.05521
738.708,0.05370
732.922,0.05331
727.136,0.05497
721.349,0.05703
715.563,0.05583
709.777,0.05605
703.991,0.05491
698.204,0.05532
692.418,0.05951
686.632,0.06289
680.846,0.06748
675.059,0.06857
669.273,0.06942
663.487,0.06898
657.701,0.06772
651.915,0.06825
646.128,0.06772
640.342,0.06845
634.556,0.06606
628.77,0.06448
622.983,0.06460
617.197,0.06288
611.411,0.06132
605.625,0.06140
599.839,0.06065