File: 01_Data/Nylon/FTIR/IS/Nylon_2.362_Trans_S_IS_221213_R2.dpt
7496.63,0.62393
7490.84,0.62385
7485.06,0.61643
7479.27,0.61835
7473.48,0.62839
7467.7,0.62255
7461.91,0.61395
7456.13,0.61281
7450.34,0.61318
7444.55,0.61040
7438.77,0.62135
7432.98,0.61917
7427.2,0.61207
7421.41,0.61475
7415.62,0.61198
7409.84,0.62132
7404.05,0.61495
7398.27,0.61401
7392.48,0.60840
7386.69,0.61485
7380.91,0.60909
7375.12,0.60144
7369.34,0.60385
7363.55,0.61224
7357.77,0.60039
7351.98,0.60264
7346.19,0.59275
7340.41,0.58739
7334.62,0.59147
7328.84,0.59562
7323.05,0.58657
7317.26,0.57160
7311.48,0.56561
7305.69,0.56734
7299.91,0.55369
7294.12,0.54630
7288.33,0.54292
7282.55,0.53894
7276.76,0.54097
7270.98,0.53317
7265.19,0.53330
7259.4,0.52361
7253.62,0.51326
7247.83,0.50821
7242.05,0.49514
7236.26,0.49261
7230.47,0.49023
7224.69,0.48248
7218.9,0.48216
7213.12,0.48320
7207.33,0.48379
7201.55,0.48360
7195.76,0.47755
7189.97,0.47956
7184.19,0.47546
7178.4,0.48665
7172.62,0.48410
7166.83,0.49275
7161.04,0.48979
7155.26,0.49374
7149.47,0.49727
7143.69,0.48239
7137.9,0.48262
7132.11,0.48447
7126.33,0.48254
7120.54,0.47752
7114.76,0.47743
7108.97,0.47411
7103.18,0.47061
7097.4,0.46683
7091.61,0.46961
7085.83,0.47120
7080.04,0.47337
7074.26,0.46744
7068.47,0.47071
7062.68,0.46774
7056.9,0.47181
7051.11,0.47007
7045.33,0.46966
7039.54,0.47366
7033.75,0.47022
7027.97,0.47340
7022.18,0.48322
7016.4,0.48233
7010.61,0.48008
7004.82,0.48089
6999.04,0.47328
6993.25,0.47767
6987.47,0.47738
6981.68,0.48270
6975.89,0.48623
6970.11,0.48422
6964.32,0.48680
6958.54,0.48559
6952.75,0.48842
6946.96,0.49222
6941.18,0.48819
6935.39,0.48966
6929.61,0.49702
6923.82,0.49564
6918.04,0.49542
6912.25,0.49677
6906.46,0.49889
6900.68,0.50602
6894.89,0.49840
6889.11,0.50142
6883.32,0.50080
6877.53,0.49996
6871.75,0.50156
6865.96,0.50187
6860.18,0.50543
6854.39,0.50277
6848.6,0.49995
6842.82,0.50786
6837.03,0.50108
6831.25,0.50468
6825.46,0.50556
6819.67,0.50773
6813.89,0.50305
6808.1,0.50165
6802.32,0.50037
6796.53,0.49887
6790.74,0.50032
6784.96,0.49773
6779.17,0.48498
6773.39,0.48473
6767.6,0.47663
6761.82,0.47788
6756.03,0.47134
6750.24,0.47134
6744.46,0.47185
6738.67,0.47357
6732.89,0.46869
6727.1,0.47048
6721.31,0.46937
6715.53,0.46881
6709.74,0.46519
6703.96,0.45920
6698.17,0.45805
6692.38,0.45503
6686.6,0.45387
6680.81,0.45156
6675.03,0.45331
6669.24,0.44724
6663.45,0.43676
6657.67,0.43560
6651.88,0.42372
6646.1,0.42135
6640.31,0.41415
6634.52,0.40751
6628.74,0.39373
6622.95,0.38509
6617.17,0.38131
6611.38,0.38226
6605.6,0.37930
6599.81,0.38275
6594.02,0.37959
6588.24,0.38335
6582.45,0.38282
6576.67,0.38076
6570.88,0.37604
6565.09,0.37458
6559.31,0.37025
6553.52,0.36440
6547.74,0.35987
6541.95,0.35302
6536.16,0.34387
6530.38,0.34164
6524.59,0.33158
6518.81,0.32875
6513.02,0.32089
6507.23,0.32266
6501.45,0.32584
6495.66,0.32488
6489.88,0.32595
6484.09,0.32628
6478.3,0.32869
6472.52,0.34381
6466.73,0.35559
6460.95,0.38060
6455.16,0.39974
6449.38,0.41977
6443.59,0.43441
6437.8,0.44605
6432.02,0.45172
6426.23,0.45833
6420.45,0.45634
6414.66,0.45059
6408.87,0.45189
6403.09,0.44941
6397.3,0.44601
6391.52,0.43575
6385.73,0.42682
6379.94,0.42033
6374.16,0.41160
6368.37,0.40949
6362.59,0.40009
6356.8,0.39787
6351.01,0.39671
6345.23,0.39863
6339.44,0.40578
6333.66,0.41216
6327.87,0.41923
6322.09,0.43208
6316.3,0.43913
6310.51,0.44651
6304.73,0.45135
6298.94,0.45698
6293.16,0.45680
6287.37,0.44907
6281.58,0.44651
6275.8,0.44397
6270.01,0.43712
6264.23,0.42687
6258.44,0.42371
6252.65,0.41993
6246.87,0.42316
6241.08,0.42158
6235.3,0.42071
6229.51,0.42246
6223.72,0.42465
6217.94,0.43273
6212.15,0.44129
6206.37,0.44926
6200.58,0.45297
6194.79,0.45603
6189.01,0.46295
6183.22,0.46935
6177.44,0.48258
6171.65,0.49234
6165.87,0.50072
6160.08,0.51336
6154.29,0.51939
6148.51,0.52592
6142.72,0.53496
6136.94,0.54009
6131.15,0.54424
6125.36,0.54665
6119.58,0.54896
6113.79,0.55113
6108.01,0.55493
6102.22,0.55581
6096.43,0.55673
6090.65,0.55748
6084.86,0.55856
6079.08,0.55605
6073.29,0.55729
6067.5,0.55400
6061.72,0.55302
6055.93,0.55309
6050.15,0.55429
6044.36,0.55047
6038.57,0.55144
6032.79,0.55122
6027,0.55045
6021.22,0.55164
6015.43,0.54578
6009.65,0.54428
6003.86,0.53821
5998.07,0.53861
5992.29,0.53273
5986.5,0.53226
5980.72,0.52799
5974.93,0.51924
5969.14,0.51510
5963.36,0.50900
5957.57,0.50357
5951.79,0.49357
5946,0.48487
5940.21,0.47406
5934.43,0.45985
5928.64,0.44263
5922.86,0.42218
5917.07,0.39745
5911.28,0.37381
5905.5,0.34503
5899.71,0.31576
5893.93,0.28701
5888.14,0.25835
5882.35,0.23104
5876.57,0.20399
5870.78,0.18228
5865,0.16120
5859.21,0.14243
5853.43,0.12289
5847.64,0.10379
5841.85,0.09156
5836.07,0.08465
5830.28,0.08260
5824.5,0.08603
5818.71,0.09185
5812.92,0.09941
5807.14,0.10471
5801.35,0.11330
5795.57,0.12251
5789.78,0.13107
5783.99,0.14169
5778.21,0.15120
5772.42,0.16090
5766.64,0.16338
5760.85,0.16543
5755.06,0.16197
5749.28,0.15754
5743.49,0.15157
5737.71,0.14288
5731.92,0.13232
5726.14,0.12435
5720.35,0.11602
5714.56,0.11635
5708.78,0.11823
5702.99,0.11986
5697.21,0.12106
5691.42,0.12879
5685.63,0.13696
5679.85,0.14739
5674.06,0.15889
5668.28,0.17070
5662.49,0.18362
5656.7,0.19443
5650.92,0.20523
5645.13,0.21832
5639.35,0.22865
5633.56,0.24024
5627.77,0.24958
5621.99,0.25588
5616.2,0.26174
5610.42,0.26515
5604.63,0.26562
5598.84,0.26977
5593.06,0.27351
5587.27,0.27659
5581.49,0.27735
5575.7,0.28004
5569.92,0.28343
5564.13,0.28568
5558.34,0.28939
5552.56,0.29130
5546.77,0.29559
5540.99,0.29717
5535.2,0.30093
5529.41,0.30252
5523.63,0.30524
5517.84,0.30945
5512.06,0.31453
5506.27,0.31392
5500.48,0.31761
5494.7,0.32050
5488.91,0.32209
5483.13,0.32763
5477.34,0.32834
5471.55,0.33267
5465.77,0.33524
5459.98,0.33569
5454.2,0.34011
5448.41,0.34104
5442.62,0.34216
5436.84,0.34665
5431.05,0.34758
5425.27,0.34959
5419.48,0.35343
5413.7,0.35077
5407.91,0.35639
5402.12,0.36348
5396.34,0.36876
5390.55,0.37695
5384.77,0.38324
5378.98,0.38921
5373.19,0.39193
5367.41,0.39619
5361.62,0.39903
5355.84,0.40128
5350.05,0.40159
5344.26,0.39980
5338.48,0.40169
5332.69,0.40206
5326.91,0.39997
5321.12,0.40024
5315.33,0.39447
5309.55,0.38704
5303.76,0.37429
5297.98,0.36110
5292.19,0.34692
5286.4,0.33692
5280.62,0.32943
5274.83,0.32200
5269.05,0.31550
5263.26,0.30636
5257.48,0.30009
5251.69,0.29289
5245.9,0.28199
5240.12,0.27738
5234.33,0.26797
5228.55,0.25809
5222.76,0.24674
5216.97,0.23824
5211.19,0.22706
5205.4,0.21470
5199.62,0.20621
5193.83,0.19393
5188.04,0.18502
5182.26,0.17666
5176.47,0.16865
5170.69,0.16030
5164.9,0.15431
5159.11,0.14824
5153.33,0.14355
5147.54,0.13826
5141.76,0.13581
5135.97,0.13374
5130.18,0.13370
5124.4,0.13333
5118.61,0.13483
5112.83,0.13718
5107.04,0.13963
5101.26,0.14518
5095.47,0.15022
5089.68,0.15319
5083.9,0.15933
5078.11,0.16333
5072.33,0.16692
5066.54,0.17161
5060.75,0.17632
5054.97,0.18152
5049.18,0.18590
5043.4,0.18864
5037.61,0.19064
5031.82,0.19252
5026.04,0.19347
5020.25,0.19257
5014.47,0.18953
5008.68,0.18378
5002.89,0.17454
4997.11,0.16273
4991.32,0.14516
4985.54,0.12566
4979.75,0.10510
4973.97,0.08986
4968.18,0.08107
4962.39,0.08046
4956.61,0.08311
4950.82,0.08509
4945.04,0.08633
4939.25,0.08415
4933.46,0.08308
4927.68,0.08189
4921.89,0.07669
4916.11,0.06828
4910.32,0.05715
4904.53,0.04536
4898.75,0.03264
4892.96,0.02376
4887.18,0.01901
4881.39,0.01456
4875.6,0.01143
4869.82,0.01028
4864.03,0.01195
4858.25,0.02020
4852.46,0.03284
4846.67,0.04941
4840.89,0.06897
4835.1,0.09084
4829.32,0.11124
4823.53,0.12686
4817.75,0.13755
4811.96,0.14346
4806.17,0.14296
4800.39,0.13913
4794.6,0.13527
4788.82,0.13364
4783.03,0.13303
4777.24,0.13223
4771.46,0.13032
4765.67,0.12659
4759.89,0.12205
4754.1,0.11619
4748.31,0.11018
4742.53,0.10441
4736.74,0.09667
4730.96,0.08984
4725.17,0.08285
4719.38,0.07345
4713.6,0.06393
4707.81,0.05625
4702.03,0.04786
4696.24,0.04378
4690.45,0.04179
4684.67,0.03986
4678.88,0.03891
4673.1,0.03893
4667.31,0.03953
4661.53,0.03926
4655.74,0.03763
4649.95,0.03734
4644.17,0.03368
4638.38,0.03153
4632.6,0.02929
4626.81,0.02501
4621.02,0.02308
4615.24,0.01967
4609.45,0.01663
4603.67,0.01278
4597.88,0.01034
4592.09,0.00847
4586.31,0.00709
4580.52,0.00754
4574.74,0.00746
4568.95,0.00873
4563.16,0.01040
4557.38,0.01112
4551.59,0.01205
4545.81,0.01274
4540.02,0.01276
4534.23,0.01377
4528.45,0.01482
4522.66,0.01628
4516.88,0.01885
4511.09,0.02190
4505.31,0.02489
4499.52,0.02656
4493.73,0.02820
4487.95,0.03012
4482.16,0.02932
4476.38,0.02864
4470.59,0.02790
4464.8,0.02671
4459.02,0.02418
4453.23,0.02179
4447.45,0.01882
4441.66,0.01631
4435.87,0.01305
4430.09,0.01127
4424.3,0.00910
4418.52,0.00722
4412.73,0.00498
4406.94,0.00358
4401.16,0.00217
4395.37,0.00140
4389.59,0.00051
4383.8,0.00063
4378.01,0.00032
4372.23,0.00069
4366.44,0.00057
4360.66,0.00068
4354.87,0.00042
4349.09,0.00070
4343.3,0.00022
4337.51,0.00077
4331.73,0.00050
4325.94,0.00044
4320.16,0.00018
4314.37,0.00036
4308.58,0.00045
4302.8,0.00034
4297.01,0.00124
4291.23,0.00026
4285.44,0.00064
4279.65,0.00064
4273.87,0.00010
4268.08,0.00049
4262.3,0.00067
4256.51,0.00038
4250.72,0.00061
4244.94,0.00044
4239.15,0.00027
4233.37,0.00050
4227.58,0.00037
4221.8,0.00063
4216.01,0.00026
4210.22,0.00027
4204.44,0.00059
4198.65,0.00029
4192.87,0.00034
4187.08,0.00043
4181.29,0.00076
4175.51,0.00024
4169.72,0.00010
4163.94,0.00042
4158.15,0.00016
4152.36,0.00103
4146.58,0.00061
4140.79,0.00090
4135.01,0.00079
4129.22,0.00111
4123.43,0.00146
4117.65,0.00122
4111.86,0.00066
4106.08,0.00081
4100.29,0.00037
4094.5,0.00098
4088.72,0.00110
4082.93,0.00084
4077.15,0.00122
4071.36,0.00073
4065.58,0.00110
4059.79,0.00052
4054,0.00067
4048.22,0.00024
4042.43,0.00056
4036.65,0.00091
4030.86,0.00060
4025.07,0.00049
4019.29,0.00059
4013.5,0.00066
4007.72,0.00069
4001.93,0.00055
3996.14,0.00069
3990.36,0.00075
3984.57,0.00053
3978.79,0.00065
3973,0.00105
3967.21,0.00204
3961.43,0.00270
3955.64,0.00356
3949.86,0.00418
3944.07,0.00518
3938.28,0.00603
3932.5,0.00684
3926.71,0.00709
3920.93,0.00756
3915.14,0.00954
3909.36,0.01116
3903.57,0.01287
3897.78,0.01496
3892,0.01586
3886.21,0.01550
3880.43,0.01739
3874.64,0.02066
3868.85,0.02115
3863.07,0.02157
3857.28,0.02019
3851.5,0.01679
3845.71,0.01485
3839.92,0.01332
3834.14,0.01619
3828.35,0.01780
3822.57,0.01668
3816.78,0.01698
3810.99,0.01887
3805.21,0.02041
3799.42,0.02144
3793.64,0.02159
3787.85,0.02191
3782.06,0.02418
3776.28,0.02653
3770.49,0.02669
3764.71,0.02718
3758.92,0.02579
3753.14,0.02469
3747.35,0.02240
3741.56,0.02161
3735.78,0.02012
3729.99,0.02019
3724.21,0.01933
3718.42,0.01814
3712.63,0.01539
3706.85,0.01406
3701.06,0.01136
3695.28,0.00851
3689.49,0.00461
3683.7,0.00123
3677.92,0.00078
3672.13,0.00031
3666.35,0.00030
3660.56,0.00022
3654.77,0.00024
3648.99,0.00030
3643.2,0.00047
3637.42,0.00021
3631.63,0.00033
3625.85,0.00042
3620.06,0.00071
3614.27,0.00068
3608.49,0.00076
3602.7,0.00053
3596.92,0.00072
3591.13,0.00020
3585.34,0.00076
3579.56,0.00036
3573.77,0.00049
3567.99,0.00015
3562.2,0.00075
3556.41,0.00024
3550.63,0.00050
3544.84,0.00043
3539.06,0.00026
3533.27,0.00044
3527.48,0.00057
3521.7,0.00061
3515.91,-0.00007
3510.13,0.00053
3504.34,0.00063
3498.55,0.00048
3492.77,0.00008
3486.98,0.00039
3481.2,0.00024
3475.41,0.00053
3469.63,0.00018
3463.84,0.00056
3458.05,0.00011
3452.27,0.00076
3446.48,0.00040
3440.7,0.00048
3434.91,0.00017
3429.12,0.00030
3423.34,0.00064
3417.55,0.00070
3411.77,0.00035
3405.98,0.00065
3400.19,0.00025
3394.41,0.00058
3388.62,0.00037
3382.84,0.00064
3377.05,0.00048
3371.26,0.00049
3365.48,0.00067
3359.69,0.00044
3353.91,0.00058
3348.12,0.00018
3342.33,0.00026
3336.55,0.00056
3330.76,0.00032
3324.98,0.00060
3319.19,0.00027
3313.41,0.00093
3307.62,0.00072
3301.83,0.00014
3296.05,0.00049
3290.26,0.00043
3284.48,0.00045
3278.69,0.00047
3272.9,0.00039
3267.12,0.00043
3261.33,0.00017
3255.55,0.00046
3249.76,0.00034
3243.97,0.00063
3238.19,0.00087
3232.4,0.00025
3226.62,0.00068
3220.83,0.00044
3215.04,0.00054
3209.26,0.00062
3203.47,0.00098
3197.69,0.00073
3191.9,0.00019
3186.11,0.00069
3180.33,0.00028
3174.54,0.00009
3168.76,0.00052
3162.97,0.00054
3157.19,0.00027
3151.4,0.00029
3145.61,0.00050
3139.83,0.00059
3134.04,0.00020
3128.26,0.00022
3122.47,0.00028
3116.68,0.00039
3110.9,0.00069
3105.11,0.00056
3099.33,0.00028
3093.54,0.00030
3087.75,0.00033
3081.97,0.00038
3076.18,0.00027
3070.4,0.00057
3064.61,0.00049
3058.82,0.00023
3053.04,0.00022
3047.25,0.00046
3041.47,0.00034
3035.68,0.00043
3029.89,0.00043
3024.11,0.00008
3018.32,0.00039
3012.54,0.00075
3006.75,0.00023
3000.97,0.00052
2995.18,0.00012
2989.39,0.00093
2983.61,0.00047
2977.82,0.00056
2972.04,0.00033
2966.25,0.00022
2960.46,0.00014
2954.68,0.00008
2948.89,0.00047
2943.11,0.00012
2937.32,0.00058
2931.53,0.00041
2925.75,0.00023
2919.96,0.00012
2914.18,0.00024
2908.39,0.00050
2902.6,0.00003
2896.82,0.00037
2891.03,0.00041
2885.25,0.00026
2879.46,0.00026
2873.68,0.00029
2867.89,0.00019
2862.1,0.00044
2856.32,0.00049
2850.53,0.00017
2844.75,0.00037
2838.96,0.00051
2833.17,0.00037
2827.39,0.00045
2821.6,0.00027
2815.82,0.00045
2810.03,0.00037
2804.24,0.00030
2798.46,0.00013
2792.67,0.00045
2786.89,0.00017
2781.1,0.00051
2775.31,0.00037
2769.53,0.00025
2763.74,0.00049
2757.96,0.00036
2752.17,0.00011
2746.38,0.00031
2740.6,0.00014
2734.81,0.00038
2729.03,0.00005
2723.24,0.00022
2717.46,0.00022
2711.67,0.00004
2705.88,0.00028
2700.1,0.00026
2694.31,0.00020
2688.53,0.00013
2682.74,0.00020
2676.95,0.00032
2671.17,0.00014
2665.38,0.00023
2659.6,0.00020
2653.81,0.00015
2648.02,0.00010
2642.24,0.00038
2636.45,0.00044
2630.67,0.00025
2624.88,0.00035
2619.09,0.00033
2613.31,0.00034
2607.52,0.00022
2601.74,0.00033
2595.95,0.00003
2590.16,0.00022
2584.38,0.00044
2578.59,0.00010
2572.81,0.00030
2567.02,0.00036
2561.24,0.00023
2555.45,0.00031
2549.66,0.00020
2543.88,0.00025
2538.09,0.00033
2532.31,0.00036
2526.52,0.00023
2520.73,0.00007
2514.95,0.00018
2509.16,0.00033
2503.38,0.00014
2497.59,0.00031
2491.8,0.00027
2486.02,0.00037
2480.23,0.00024
2474.45,0.00033
2468.66,0.00036
2462.87,0.00033
2457.09,0.00040
2451.3,0.00048
2445.52,0.00041
2439.73,0.00037
2433.94,0.00052
2428.16,0.00039
2422.37,0.00045
2416.59,0.00058
2410.8,0.00026
2405.02,0.00022
2399.23,0.00097
2393.44,0.00078
2387.66,0.00038
2381.87,0.00050
2376.09,0.00027
2370.3,0.00048
2364.51,0.00026
2358.73,0.00045
2352.94,0.00016
2347.16,0.00066
2341.37,0.00019
2335.58,0.00035
2329.8,0.00012
2324.01,0.00038
2318.23,0.00023
2312.44,0.00040
2306.65,0.00032
2300.87,0.00039
2295.08,0.00039
2289.3,0.00045
2283.51,0.00056
2277.72,0.00054
2271.94,0.00077
2266.15,0.00062
2260.37,0.00039
2254.58,0.00056
2248.8,0.00070
2243.01,0.00053
2237.22,0.00048
2231.44,0.00032
2225.65,0.00026
2219.87,0.00023
2214.08,0.00054
2208.29,0.00022
2202.51,0.00024
2196.72,0.00023
2190.94,0.00019
2185.15,0.00030
2179.36,0.00023
2173.58,0.00031
2167.79,0.00032
2162.01,0.00013
2156.22,0.00010
2150.43,0.00028
2144.65,0.00018
2138.86,0.00030
2133.08,0.00011
2127.29,0.00031
2121.51,0.00014
2115.72,0.00032
2109.93,0.00001
2104.15,0.00030
2098.36,0.00034
2092.58,0.00069
2086.79,0.00014
2081,0.00051
2075.22,0.00050
2069.43,0.00072
2063.65,0.00038
2057.86,0.00033
2052.07,0.00040
2046.29,0.00062
2040.5,0.00083
2034.72,0.00055
2028.93,0.00049
2023.14,0.00090
2017.36,0.00107
2011.57,0.00117
2005.79,0.00127
2000,0.00105
1994.21,0.00124
1988.43,0.00144
1982.64,0.00187
1976.86,0.00143
1971.07,0.00160
1965.29,0.00137
1959.5,0.00151
1953.71,0.00164
1947.93,0.00182
1942.14,0.00222
1936.36,0.00225
1930.57,0.00226
1924.78,0.00232
1919,0.00239
1913.21,0.00224
1907.43,0.00177
1901.64,0.00147
1895.85,0.00109
1890.07,0.00088
1884.28,0.00075
1878.5,0.00078
1872.71,0.00074
1866.92,0.00068
1861.14,0.00084
1855.35,0.00094
1849.57,0.00083
1843.78,0.00067
1837.99,0.00044
1832.21,0.00019
1826.42,0.00020
1820.64,0.00028
1814.85,0.00020
1809.07,0.00016
1803.28,0.00022
1797.49,0.00013
1791.71,0.00013
1785.92,0.00019
1780.14,0.00029
1774.35,0.00050
1768.56,0.00011
1762.78,0.00037
1756.99,-0.00002
1751.21,0.00051
1745.42,0.00021
1739.63,0.00036
1733.85,0.00049
1728.06,0.00033
1722.28,0.00028
1716.49,0.00023
1710.7,0.00018
1704.92,0.00025
1699.13,0.00023
1693.35,0.00011
1687.56,0.00028
1681.77,0.00042
1675.99,0.00017
1670.2,0.00024
1664.42,0.00038
1658.63,0.00022
1652.85,0.00008
1647.06,0.00019
1641.27,0.00037
1635.49,0.00060
1629.7,0.00004
1623.92,0.00030
1618.13,0.00010
1612.34,0.00018
1606.56,0.00031
1600.77,0.00021
1594.99,0.00032
1589.2,0.00007
1583.41,0.00003
1577.63,0.00031
1571.84,0.00029
1566.06,0.00028
1560.27,0.00028
1554.48,-0.00004
1548.7,0.00037
1542.91,0.00044
1537.13,0.00013
1531.34,0.00028
1525.56,0.00015
1519.77,0.00042
1513.98,0.00021
1508.2,0.00004
1502.41,0.00019
1496.63,0.00028
1490.84,0.00011
1485.05,0.00011
1479.27,0.00021
1473.48,0.00034
1467.7,0.00011
1461.91,0.00015
1456.12,0.00031
1450.34,0.00025
1444.55,0.00008
1438.77,0.00026
1432.98,0.00039
1427.19,0.00007
1421.41,0.00040
1415.62,0.00020
1409.84,0.00029
1404.05,0.00052
1398.26,0.00045
1392.48,0.00039
1386.69,0.00015
1380.91,0.00025
1375.12,0.00027
1369.34,0.00028
1363.55,0.00037
1357.76,0.00016
1351.98,0.00013
1346.19,0.00034
1340.41,0.00021
1334.62,0.00026
1328.83,0.00016
1323.05,0.00042
1317.26,0.00004
1311.48,0.00011
1305.69,0.00023
1299.9,0.00029
1294.12,0.00024
1288.33,0.00031
1282.55,0.00013
1276.76,0.00008
1270.97,0.00026
1265.19,0.00030
1259.4,0.00010
1253.62,0.00031
1247.83,0.00025
1242.04,0.00024
1236.26,0.00016
1230.47,0.00047
1224.69,0.00036
1218.9,0.00031
1213.12,0.00056
1207.33,0.00028
1201.54,0.00000
1195.76,0.00041
1189.97,0.00030
1184.19,0.00062
1178.4,0.00026
1172.61,0.00046
1166.83,0.00029
1161.04,0.00040
1155.26,0.00025
1149.47,0.00051
1143.68,0.00041
1137.9,0.00004
1132.11,0.00045
1126.33,0.00062
1120.54,0.00016
1114.75,0.00033
1108.97,0.00034
1103.18,0.00045
1097.4,0.00046
1091.61,0.00044
1085.82,0.00049
1080.04,0.00051
1074.25,0.00033
1068.47,0.00071
1062.68,0.00012
1056.9,0.00045
1051.11,0.00042
1045.32,0.00062
1039.54,0.00029
1033.75,0.00013
1027.97,0.00037
1022.18,0.00055
1016.39,0.00013
1010.61,0.00035
1004.82,0.00027
999.036,0.00024
993.25,0.00050
987.464,0.00067
981.678,0.00026
975.892,0.00034
970.106,0.00015
964.32,0.00048
958.535,0.00038
952.749,0.00049
946.963,0.00023
941.177,0.00024
935.391,0.00059
929.605,0.00005
923.819,0.00019
918.033,0.00030
912.247,0.00019
906.461,0.00065
900.675,0.00072
894.889,0.00089
889.103,0.00043
883.318,0.00093
877.532,-0.00018
871.746,0.00073
865.96,0.00001
860.174,0.00097
854.388,0.00072
848.602,0.00036
842.816,0.00061
837.03,0.00041
831.244,0.00096
825.458,0.00043
819.672,0.00040
813.886,0.00081
808.101,0.00063
802.315,0.00053
796.529,0.00045
790.743,0.00054
784.957,0.00080
779.171,0.00047
773.385,0.00040
767.599,0.00094
761.813,0.00066
756.027,0.00035
750.241,0.00088
744.455,0.00033
738.669,0.00026
732.884,0.00031
727.098,0.00091
721.312,0.00031
715.526,0.00040
709.74,0.00092
703.954,0.00034
698.168,0.00045
692.382,0.00038
686.596,0.00178
680.81,0.00078
675.024,0.00101
669.238,0.00135
663.452,0.00048
657.667,0.00098
651.881,0.00047
646.095,0.00171
640.309,0.00093
634.523,0.00064
628.737,0.00183
622.951,0.00118
617.165,0.00195
611.379,0.00277
605.593,0.00159
599.807,0.00203