File: 01_Data/Nylon/FTIR/IS/Nylon_3.175_S_IS_221212_R4.dpt
7497.02,0.12410
7491.23,0.12767
7485.45,0.13040
7479.66,0.13622
7473.87,0.13315
7468.09,0.11998
7462.3,0.12857
7456.51,0.12394
7450.73,0.12190
7444.94,0.11840
7439.16,0.12162
7433.37,0.11958
7427.58,0.12339
7421.8,0.12374
7416.01,0.11947
7410.22,0.11749
7404.44,0.12483
7398.65,0.12152
7392.87,0.12317
7387.08,0.12352
7381.29,0.12356
7375.51,0.11903
7369.72,0.12478
7363.93,0.12394
7358.15,0.12424
7352.36,0.11949
7346.58,0.11682
7340.79,0.11340
7335,0.11421
7329.22,0.10513
7323.43,0.10621
7317.65,0.10774
7311.86,0.10797
7306.07,0.09560
7300.29,0.10641
7294.5,0.11014
7288.71,0.10075
7282.93,0.10206
7277.14,0.09119
7271.36,0.09933
7265.57,0.08791
7259.78,0.08852
7254,0.09373
7248.21,0.08758
7242.42,0.08871
7236.64,0.09278
7230.85,0.09255
7225.07,0.08107
7219.28,0.08465
7213.49,0.08849
7207.71,0.08460
7201.92,0.09475
7196.13,0.08667
7190.35,0.08893
7184.56,0.08637
7178.78,0.08868
7172.99,0.08376
7167.2,0.08225
7161.42,0.09424
7155.63,0.07998
7149.84,0.08478
7144.06,0.07620
7138.27,0.08149
7132.49,0.08535
7126.7,0.07934
7120.91,0.08473
7115.13,0.07200
7109.34,0.07949
7103.55,0.07619
7097.77,0.08011
7091.98,0.08085
7086.2,0.07398
7080.41,0.07984
7074.62,0.07739
7068.84,0.08197
7063.05,0.07645
7057.26,0.07873
7051.48,0.08168
7045.69,0.08419
7039.91,0.07609
7034.12,0.08588
7028.33,0.07891
7022.55,0.07594
7016.76,0.07627
7010.98,0.08094
7005.19,0.07944
6999.4,0.08038
6993.62,0.08067
6987.83,0.08099
6982.04,0.07427
6976.26,0.08471
6970.47,0.08188
6964.69,0.08083
6958.9,0.07567
6953.11,0.08252
6947.33,0.08048
6941.54,0.08320
6935.75,0.08171
6929.97,0.08014
6924.18,0.08134
6918.4,0.07829
6912.61,0.08272
6906.82,0.07990
6901.04,0.08290
6895.25,0.07794
6889.46,0.07990
6883.68,0.08102
6877.89,0.08178
6872.11,0.08672
6866.32,0.07702
6860.53,0.08477
6854.75,0.08390
6848.96,0.08230
6843.17,0.08739
6837.39,0.08236
6831.6,0.08782
6825.82,0.08124
6820.03,0.08229
6814.24,0.08334
6808.46,0.08071
6802.67,0.08056
6796.88,0.08555
6791.1,0.07917
6785.31,0.07941
6779.53,0.07987
6773.74,0.07860
6767.95,0.07502
6762.17,0.07966
6756.38,0.07330
6750.6,0.07426
6744.81,0.07415
6739.02,0.07595
6733.24,0.07877
6727.45,0.08508
6721.66,0.08077
6715.88,0.07823
6710.09,0.07458
6704.31,0.07975
6698.52,0.07939
6692.73,0.07451
6686.95,0.07206
6681.16,0.07104
6675.37,0.06933
6669.59,0.07042
6663.8,0.07330
6658.02,0.07449
6652.23,0.07117
6646.44,0.06843
6640.66,0.06761
6634.87,0.06759
6629.08,0.06346
6623.3,0.06211
6617.51,0.06737
6611.73,0.06255
6605.94,0.06301
6600.15,0.06048
6594.37,0.06168
6588.58,0.06216
6582.79,0.06394
6577.01,0.06124
6571.22,0.06353
6565.44,0.06632
6559.65,0.06504
6553.86,0.06859
6548.08,0.06343
6542.29,0.06372
6536.5,0.06181
6530.72,0.06527
6524.93,0.06104
6519.15,0.05968
6513.36,0.05949
6507.57,0.06079
6501.79,0.05961
6496,0.06259
6490.21,0.05837
6484.43,0.06299
6478.64,0.06471
6472.86,0.05982
6467.07,0.06006
6461.28,0.06766
6455.5,0.06739
6449.71,0.06796
6443.93,0.07209
6438.14,0.07439
6432.35,0.07223
6426.57,0.07352
6420.78,0.07394
6414.99,0.07499
6409.21,0.07029
6403.42,0.07791
6397.64,0.07514
6391.85,0.07263
6386.06,0.06839
6380.28,0.07103
6374.49,0.06526
6368.7,0.06644
6362.92,0.06852
6357.13,0.06520
6351.35,0.06722
6345.56,0.06862
6339.77,0.06962
6333.99,0.06855
6328.2,0.07001
6322.41,0.07137
6316.63,0.07218
6310.84,0.07432
6305.06,0.07537
6299.27,0.07296
6293.48,0.07247
6287.7,0.07067
6281.91,0.07103
6276.12,0.06969
6270.34,0.06852
6264.55,0.06766
6258.77,0.07102
6252.98,0.06972
6247.19,0.06857
6241.41,0.07095
6235.62,0.07073
6229.83,0.06992
6224.05,0.06772
6218.26,0.06875
6212.48,0.06778
6206.69,0.07432
6200.9,0.07046
6195.12,0.06961
6189.33,0.07221
6183.55,0.07562
6177.76,0.07332
6171.97,0.07832
6166.19,0.08007
6160.4,0.07940
6154.61,0.08289
6148.83,0.08249
6143.04,0.08349
6137.26,0.08618
6131.47,0.08419
6125.68,0.08538
6119.9,0.08742
6114.11,0.08511
6108.32,0.08754
6102.54,0.08486
6096.75,0.08635
6090.97,0.08489
6085.18,0.09017
6079.39,0.08788
6073.61,0.08726
6067.82,0.08321
6062.03,0.08263
6056.25,0.08103
6050.46,0.08846
6044.68,0.08471
6038.89,0.08718
6033.1,0.08628
6027.32,0.08720
6021.53,0.08592
6015.74,0.08517
6009.96,0.08534
6004.17,0.08262
5998.39,0.07908
5992.6,0.08070
5986.81,0.08021
5981.03,0.08213
5975.24,0.07987
5969.45,0.08225
5963.67,0.07936
5957.88,0.07843
5952.1,0.07466
5946.31,0.07627
5940.52,0.07462
5934.74,0.07359
5928.95,0.07242
5923.16,0.06773
5917.38,0.06605
5911.59,0.06513
5905.81,0.06451
5900.02,0.05947
5894.23,0.05977
5888.45,0.05755
5882.66,0.05708
5876.88,0.05768
5871.09,0.05536
5865.3,0.05649
5859.52,0.05335
5853.73,0.05649
5847.94,0.05443
5842.16,0.05363
5836.37,0.05428
5830.59,0.05448
5824.8,0.05444
5819.01,0.05248
5813.23,0.05547
5807.44,0.05514
5801.65,0.05626
5795.87,0.05457
5790.08,0.05348
5784.3,0.05354
5778.51,0.05569
5772.72,0.05758
5766.94,0.05615
5761.15,0.05830
5755.36,0.05724
5749.58,0.05662
5743.79,0.05578
5738.01,0.05470
5732.22,0.05593
5726.43,0.05577
5720.65,0.05647
5714.86,0.05646
5709.07,0.05671
5703.29,0.05642
5697.5,0.05729
5691.72,0.05638
5685.93,0.05715
5680.14,0.05417
5674.36,0.05466
5668.57,0.05500
5662.78,0.05701
5657,0.05720
5651.21,0.05747
5645.43,0.05769
5639.64,0.05833
5633.85,0.05974
5628.07,0.05995
5622.28,0.05874
5616.5,0.05969
5610.71,0.05883
5604.92,0.06065
5599.14,0.05954
5593.35,0.05923
5587.56,0.05790
5581.78,0.05999
5575.99,0.06170
5570.21,0.06030
5564.42,0.05974
5558.63,0.05939
5552.85,0.06036
5547.06,0.05956
5541.27,0.05972
5535.49,0.05910
5529.7,0.06011
5523.92,0.06143
5518.13,0.06040
5512.34,0.05971
5506.56,0.06136
5500.77,0.06091
5494.98,0.06003
5489.2,0.06264
5483.41,0.06243
5477.63,0.06177
5471.84,0.06145
5466.05,0.06391
5460.27,0.06420
5454.48,0.06373
5448.69,0.06147
5442.91,0.06086
5437.12,0.06292
5431.34,0.06300
5425.55,0.06396
5419.76,0.06287
5413.98,0.06344
5408.19,0.06268
5402.4,0.06297
5396.62,0.06493
5390.83,0.06587
5385.05,0.06529
5379.26,0.06621
5373.47,0.06529
5367.69,0.06581
5361.9,0.06526
5356.11,0.06579
5350.33,0.06603
5344.54,0.06748
5338.76,0.06830
5332.97,0.06682
5327.18,0.06591
5321.4,0.06531
5315.61,0.06476
5309.83,0.06519
5304.04,0.06426
5298.25,0.06403
5292.47,0.06293
5286.68,0.06449
5280.89,0.06224
5275.11,0.06099
5269.32,0.06161
5263.54,0.06036
5257.75,0.05983
5251.96,0.05988
5246.18,0.05931
5240.39,0.05918
5234.6,0.06084
5228.82,0.05937
5223.03,0.05912
5217.25,0.05759
5211.46,0.05818
5205.67,0.05593
5199.89,0.05823
5194.1,0.05814
5188.31,0.05748
5182.53,0.05777
5176.74,0.05804
5170.96,0.05817
5165.17,0.05757
5159.38,0.05817
5153.6,0.05657
5147.81,0.05761
5142.02,0.05774
5136.24,0.05627
5130.45,0.05573
5124.67,0.05853
5118.88,0.05533
5113.09,0.05676
5107.31,0.05778
5101.52,0.05784
5095.73,0.05851
5089.95,0.05701
5084.16,0.05812
5078.38,0.05786
5072.59,0.05821
5066.8,0.05587
5061.02,0.05695
5055.23,0.05838
5049.45,0.05847
5043.66,0.05870
5037.87,0.05897
5032.09,0.05832
5026.3,0.05744
5020.51,0.05749
5014.73,0.05845
5008.94,0.05799
5003.16,0.05647
4997.37,0.05804
4991.58,0.05724
4985.8,0.05604
4980.01,0.05818
4974.22,0.05758
4968.44,0.05845
4962.65,0.05664
4956.87,0.05722
4951.08,0.05747
4945.29,0.05708
4939.51,0.05736
4933.72,0.05688
4927.93,0.05808
4922.15,0.05677
4916.36,0.05731
4910.58,0.05714
4904.79,0.05645
4899,0.05731
4893.22,0.05777
4887.43,0.05670
4881.64,0.05671
4875.86,0.05684
4870.07,0.05739
4864.29,0.05759
4858.5,0.05733
4852.71,0.05621
4846.93,0.05723
4841.14,0.05777
4835.35,0.05766
4829.57,0.05788
4823.78,0.05724
4818,0.05834
4812.21,0.05813
4806.42,0.05872
4800.64,0.05767
4794.85,0.05792
4789.06,0.05758
4783.28,0.05763
4777.49,0.05800
4771.71,0.05834
4765.92,0.05835
4760.13,0.05762
4754.35,0.05705
4748.56,0.05725
4742.78,0.05833
4736.99,0.05838
4731.2,0.05764
4725.42,0.05724
4719.63,0.05744
4713.84,0.05840
4708.06,0.05741
4702.27,0.05796
4696.49,0.05772
4690.7,0.05686
4684.91,0.05734
4679.13,0.05796
4673.34,0.05790
4667.55,0.05763
4661.77,0.05769
4655.98,0.05828
4650.2,0.05771
4644.41,0.05717
4638.62,0.05760
4632.84,0.05722
4627.05,0.05801
4621.26,0.05812
4615.48,0.05777
4609.69,0.05846
4603.91,0.05723
4598.12,0.05715
4592.33,0.05744
4586.55,0.05886
4580.76,0.05843
4574.97,0.05780
4569.19,0.05765
4563.4,0.05847
4557.62,0.05825
4551.83,0.05838
4546.04,0.05787
4540.26,0.05770
4534.47,0.05671
4528.68,0.05692
4522.9,0.05775
4517.11,0.05820
4511.33,0.05861
4505.54,0.05786
4499.75,0.05830
4493.97,0.05772
4488.18,0.05851
4482.4,0.05827
4476.61,0.05771
4470.82,0.05757
4465.04,0.05798
4459.25,0.05823
4453.46,0.05789
4447.68,0.05691
4441.89,0.05700
4436.11,0.05752
4430.32,0.05808
4424.53,0.05785
4418.75,0.05817
4412.96,0.05728
4407.17,0.05788
4401.39,0.05719
4395.6,0.05789
4389.82,0.05736
4384.03,0.05752
4378.24,0.05736
4372.46,0.05822
4366.67,0.05791
4360.88,0.05777
4355.1,0.05836
4349.31,0.05767
4343.53,0.05753
4337.74,0.05783
4331.95,0.05823
4326.17,0.05791
4320.38,0.05837
4314.59,0.05885
4308.81,0.05840
4303.02,0.05811
4297.24,0.05787
4291.45,0.05795
4285.66,0.05759
4279.88,0.05844
4274.09,0.05800
4268.3,0.05869
4262.52,0.05820
4256.73,0.05783
4250.95,0.05823
4245.16,0.05815
4239.37,0.05805
4233.59,0.05889
4227.8,0.05781
4222.02,0.05808
4216.23,0.05862
4210.44,0.05839
4204.66,0.05889
4198.87,0.05837
4193.08,0.05812
4187.3,0.05909
4181.51,0.05925
4175.73,0.05855
4169.94,0.05828
4164.15,0.05906
4158.37,0.05838
4152.58,0.05851
4146.79,0.05866
4141.01,0.05863
4135.22,0.05894
4129.44,0.05823
4123.65,0.05879
4117.86,0.05877
4112.08,0.05843
4106.29,0.05885
4100.5,0.05842
4094.72,0.05818
4088.93,0.05870
4083.15,0.05849
4077.36,0.05787
4071.57,0.05835
4065.79,0.05870
4060,0.05865
4054.21,0.05855
4048.43,0.05860
4042.64,0.05818
4036.86,0.05857
4031.07,0.05890
4025.28,0.05795
4019.5,0.05853
4013.71,0.05932
4007.92,0.05924
4002.14,0.05938
3996.35,0.05885
3990.57,0.05820
3984.78,0.05880
3978.99,0.05827
3973.21,0.05881
3967.42,0.05829
3961.63,0.05892
3955.85,0.05872
3950.06,0.05849
3944.28,0.05873
3938.49,0.05939
3932.7,0.05891
3926.92,0.05843
3921.13,0.05815
3915.35,0.05840
3909.56,0.05873
3903.77,0.05862
3897.99,0.05886
3892.2,0.05877
3886.41,0.05887
3880.63,0.05836
3874.84,0.05878
3869.06,0.05876
3863.27,0.05907
3857.48,0.05797
3851.7,0.05887
3845.91,0.05899
3840.12,0.05948
3834.34,0.05889
3828.55,0.05844
3822.77,0.05799
3816.98,0.05832
3811.19,0.05901
3805.41,0.05890
3799.62,0.05858
3793.83,0.05866
3788.05,0.05848
3782.26,0.05865
3776.48,0.05879
3770.69,0.05864
3764.9,0.05888
3759.12,0.05843
3753.33,0.05853
3747.54,0.05861
3741.76,0.05836
3735.97,0.05814
3730.19,0.05807
3724.4,0.05771
3718.61,0.05828
3712.83,0.05845
3707.04,0.05857
3701.25,0.05864
3695.47,0.05791
3689.68,0.05766
3683.9,0.05816
3678.11,0.05817
3672.32,0.05799
3666.54,0.05824
3660.75,0.05816
3654.97,0.05796
3649.18,0.05751
3643.39,0.05778
3637.61,0.05751
3631.82,0.05799
3626.03,0.05743
3620.25,0.05811
3614.46,0.05737
3608.68,0.05708
3602.89,0.05769
3597.1,0.05729
3591.32,0.05743
3585.53,0.05717
3579.74,0.05729
3573.96,0.05671
3568.17,0.05726
3562.39,0.05685
3556.6,0.05678
3550.81,0.05723
3545.03,0.05694
3539.24,0.05624
3533.45,0.05695
3527.67,0.05622
3521.88,0.05606
3516.1,0.05570
3510.31,0.05567
3504.52,0.05598
3498.74,0.05525
3492.95,0.05622
3487.16,0.05602
3481.38,0.05580
3475.59,0.05531
3469.81,0.05502
3464.02,0.05529
3458.23,0.05480
3452.45,0.05453
3446.66,0.05505
3440.87,0.05388
3435.09,0.05395
3429.3,0.05401
3423.52,0.05409
3417.73,0.05359
3411.94,0.05386
3406.16,0.05244
3400.37,0.05270
3394.58,0.05195
3388.8,0.05171
3383.01,0.05121
3377.23,0.05050
3371.44,0.05076
3365.65,0.05001
3359.87,0.04916
3354.08,0.04910
3348.3,0.04752
3342.51,0.04669
3336.72,0.04620
3330.94,0.04532
3325.15,0.04513
3319.36,0.04667
3313.58,0.04939
3307.79,0.05568
3302.01,0.06193
3296.22,0.06832
3290.43,0.07022
3284.65,0.06984
3278.86,0.06896
3273.07,0.06769
3267.29,0.06736
3261.5,0.06743
3255.72,0.06622
3249.93,0.06578
3244.14,0.06552
3238.36,0.06458
3232.57,0.06489
3226.78,0.06418
3221,0.06350
3215.21,0.06271
3209.43,0.06356
3203.64,0.06318
3197.85,0.06296
3192.07,0.06301
3186.28,0.06276
3180.49,0.06237
3174.71,0.06145
3168.92,0.06202
3163.14,0.06222
3157.35,0.06156
3151.56,0.06075
3145.78,0.06121
3139.99,0.06055
3134.2,0.06066
3128.42,0.06031
3122.63,0.06019
3116.85,0.06023
3111.06,0.06027
3105.27,0.05961
3099.49,0.05972
3093.7,0.05984
3087.92,0.05955
3082.13,0.05941
3076.34,0.06009
3070.56,0.05969
3064.77,0.06013
3058.98,0.06052
3053.2,0.06113
3047.41,0.06103
3041.63,0.06080
3035.84,0.06061
3030.05,0.06038
3024.27,0.06015
3018.48,0.05944
3012.69,0.05917
3006.91,0.05885
3001.12,0.05891
2995.34,0.05792
2989.55,0.05730
2983.76,0.05681
2977.98,0.05578
2972.19,0.05563
2966.4,0.05519
2960.62,0.05511
2954.83,0.05529
2949.05,0.05480
2943.26,0.05594
2937.47,0.05749
2931.69,0.06099
2925.9,0.06433
2920.11,0.06653
2914.33,0.06638
2908.54,0.06519
2902.76,0.06469
2896.97,0.06405
2891.18,0.06283
2885.4,0.06180
2879.61,0.06167
2873.82,0.06217
2868.04,0.06299
2862.25,0.06523
2856.47,0.06796
2850.68,0.06958
2844.89,0.06890
2839.11,0.06685
2833.32,0.06601
2827.53,0.06542
2821.75,0.06507
2815.96,0.06500
2810.18,0.06430
2804.39,0.06460
2798.6,0.06438
2792.82,0.06359
2787.03,0.06380
2781.25,0.06340
2775.46,0.06304
2769.67,0.06328
2763.89,0.06281
2758.1,0.06289
2752.31,0.06264
2746.53,0.06291
2740.74,0.06324
2734.96,0.06311
2729.17,0.06281
2723.38,0.06279
2717.6,0.06293
2711.81,0.06285
2706.02,0.06277
2700.24,0.06249
2694.45,0.06233
2688.67,0.06268
2682.88,0.06197
2677.09,0.06251
2671.31,0.06179
2665.52,0.06213
2659.73,0.06224
2653.95,0.06253
2648.16,0.06189
2642.38,0.06253
2636.59,0.06206
2630.8,0.06180
2625.02,0.06139
2619.23,0.06212
2613.44,0.06161
2607.66,0.06160
2601.87,0.06171
2596.09,0.06131
2590.3,0.06173
2584.51,0.06180
2578.73,0.06157
2572.94,0.06169
2567.15,0.06131
2561.37,0.06171
2555.58,0.06161
2549.8,0.06141
2544.01,0.06151
2538.22,0.06126
2532.44,0.06166
2526.65,0.06137
2520.87,0.06111
2515.08,0.06108
2509.29,0.06083
2503.51,0.06131
2497.72,0.06118
2491.93,0.06109
2486.15,0.06080
2480.36,0.06160
2474.58,0.06133
2468.79,0.06127
2463,0.06164
2457.22,0.06121
2451.43,0.06119
2445.64,0.06090
2439.86,0.06139
2434.07,0.06117
2428.29,0.06131
2422.5,0.06107
2416.71,0.06091
2410.93,0.06085
2405.14,0.06097
2399.35,0.06104
2393.57,0.06095
2387.78,0.06091
2382,0.06086
2376.21,0.06086
2370.42,0.06085
2364.64,0.06066
2358.85,0.06106
2353.06,0.06068
2347.28,0.06034
2341.49,0.06086
2335.71,0.06047
2329.92,0.06030
2324.13,0.06036
2318.35,0.06043
2312.56,0.06050
2306.77,0.05999
2300.99,0.05990
2295.2,0.06035
2289.42,0.06028
2283.63,0.06024
2277.84,0.06000
2272.06,0.06014
2266.27,0.06017
2260.48,0.06048
2254.7,0.06030
2248.91,0.05967
2243.13,0.05996
2237.34,0.06002
2231.55,0.06023
2225.77,0.06023
2219.98,0.05985
2214.2,0.05967
2208.41,0.05977
2202.62,0.05931
2196.84,0.05988
2191.05,0.05969
2185.26,0.05999
2179.48,0.05965
2173.69,0.05959
2167.91,0.05952
2162.12,0.05925
2156.33,0.05949
2150.55,0.05939
2144.76,0.05927
2138.97,0.05919
2133.19,0.05928
2127.4,0.05934
2121.62,0.05914
2115.83,0.05914
2110.04,0.05920
2104.26,0.05911
2098.47,0.05895
2092.68,0.05866
2086.9,0.05876
2081.11,0.05865
2075.33,0.05847
2069.54,0.05855
2063.75,0.05889
2057.97,0.05843
2052.18,0.05861
2046.39,0.05837
2040.61,0.05891
2034.82,0.05874
2029.04,0.05816
2023.25,0.05825
2017.46,0.05820
2011.68,0.05803
2005.89,0.05831
2000.1,0.05823
1994.32,0.05795
1988.53,0.05788
1982.75,0.05763
1976.96,0.05785
1971.17,0.05726
1965.39,0.05731
1959.6,0.05739
1953.82,0.05733
1948.03,0.05753
1942.24,0.05732
1936.46,0.05686
1930.67,0.05693
1924.88,0.05680
1919.1,0.05653
1913.31,0.05676
1907.53,0.05642
1901.74,0.05630
1895.95,0.05603
1890.17,0.05575
1884.38,0.05568
1878.59,0.05553
1872.81,0.05563
1867.02,0.05533
1861.24,0.05532
1855.45,0.05511
1849.66,0.05483
1843.88,0.05451
1838.09,0.05411
1832.3,0.05421
1826.52,0.05398
1820.73,0.05360
1814.95,0.05341
1809.16,0.05297
1803.37,0.05269
1797.59,0.05227
1791.8,0.05179
1786.01,0.05160
1780.23,0.05081
1774.44,0.05039
1768.66,0.04978
1762.87,0.04938
1757.08,0.04962
1751.3,0.04955
1745.51,0.05011
1739.72,0.04957
1733.94,0.04796
1728.15,0.04698
1722.37,0.04572
1716.58,0.04491
1710.79,0.04374
1705.01,0.04245
1699.22,0.04078
1693.43,0.03877
1687.65,0.03736
1681.86,0.03486
1676.08,0.03381
1670.29,0.03325
1664.5,0.03510
1658.72,0.04144
1652.93,0.05617
1647.15,0.08124
1641.36,0.11374
1635.57,0.13762
1629.79,0.13413
1624,0.11166
1618.21,0.09709
1612.43,0.08688
1606.64,0.08140
1600.86,0.07580
1595.07,0.07079
1589.28,0.06554
1583.5,0.06059
1577.71,0.05626
1571.92,0.05157
1566.14,0.04820
1560.35,0.04756
1554.57,0.04968
1548.78,0.05880
1542.99,0.07746
1537.21,0.09728
1531.42,0.10207
1525.63,0.09659
1519.85,0.08974
1514.06,0.08482
1508.28,0.08157
1502.49,0.07811
1496.7,0.07542
1490.92,0.07274
1485.13,0.06955
1479.34,0.06817
1473.56,0.07355
1467.77,0.07333
1461.99,0.07607
1456.2,0.07424
1450.41,0.07276
1444.63,0.07113
1438.84,0.07064
1433.05,0.07068
1427.27,0.06990
1421.48,0.07102
1415.7,0.07705
1409.91,0.07555
1404.12,0.07272
1398.34,0.07054
1392.55,0.06896
1386.77,0.06841
1380.98,0.06828
1375.19,0.06882
1369.41,0.07114
1363.62,0.07229
1357.83,0.07198
1352.05,0.07163
1346.26,0.07109
1340.48,0.07091
1334.69,0.07000
1328.9,0.06931
1323.12,0.06881
1317.33,0.06763
1311.54,0.06720
1305.76,0.06644
1299.97,0.06601
1294.19,0.06538
1288.4,0.06438
1282.61,0.06368
1276.83,0.06650
1271.04,0.07106
1265.25,0.07296
1259.47,0.07354
1253.68,0.07295
1247.9,0.07281
1242.11,0.07269
1236.32,0.07179
1230.54,0.07149
1224.75,0.07122
1218.96,0.07110
1213.18,0.06931
1207.39,0.06704
1201.61,0.06918
1195.82,0.07551
1190.03,0.07477
1184.25,0.07371
1178.46,0.07444
1172.67,0.07478
1166.89,0.07374
1161.1,0.07282
1155.32,0.07241
1149.53,0.07199
1143.74,0.07239
1137.96,0.07319
1132.17,0.07234
1126.38,0.07164
1120.6,0.07140
1114.81,0.07088
1109.03,0.07076
1103.24,0.07013
1097.45,0.07014
1091.67,0.06974
1085.88,0.06863
1080.1,0.06878
1074.31,0.06885
1068.52,0.06873
1062.74,0.06863
1056.95,0.06824
1051.16,0.06837
1045.38,0.06861
1039.59,0.06813
1033.81,0.06867
1028.02,0.06854
1022.23,0.06802
1016.45,0.06888
1010.66,0.06864
1004.87,0.06782
999.088,0.06818
993.302,0.06785
987.516,0.06678
981.729,0.06676
975.943,0.06681
970.157,0.06626
964.371,0.06576
958.585,0.06575
952.798,0.06535
947.012,0.06453
941.226,0.06480
935.44,0.06708
929.653,0.06835
923.867,0.06789
918.081,0.06750
912.295,0.06678
906.508,0.06537
900.722,0.06649
894.936,0.06581
889.15,0.06624
883.364,0.06594
877.577,0.06517
871.791,0.06521
866.005,0.06432
860.219,0.06444
854.432,0.06444
848.646,0.06410
842.86,0.06315
837.074,0.06265
831.288,0.06331
825.501,0.06250
819.715,0.06251
813.929,0.06209
808.143,0.06125
802.356,0.06114
796.57,0.06147
790.784,0.06120
784.998,0.06005
779.212,0.05984
773.425,0.05827
767.639,0.05769
761.853,0.05751
756.067,0.05719
750.28,0.05645
744.494,0.05494
738.708,0.05325
732.922,0.05390
727.136,0.05664
721.349,0.05718
715.563,0.05606
709.777,0.05516
703.991,0.05580
698.204,0.05570
692.418,0.05794
686.632,0.06225
680.846,0.06633
675.059,0.06787
669.273,0.06898
663.487,0.06902
657.701,0.06831
651.915,0.06747
646.128,0.06684
640.342,0.06599
634.556,0.06641
628.77,0.06477
622.983,0.06500
617.197,0.06502
611.411,0.06225
605.625,0.06229
599.839,0.06088