File: 01_Data/Nylon/FTIR/IS/Nylon_3.175_T_IS_221212_R8.dpt
7497.02,0.02881
7491.23,0.03233
7485.45,0.02786
7479.66,0.02465
7473.87,0.03463
7468.09,0.03086
7462.3,0.02571
7456.51,0.01782
7450.73,0.02909
7444.94,0.02855
7439.16,0.01760
7433.37,0.02621
7427.58,0.02527
7421.8,0.02346
7416.01,0.03303
7410.22,0.01114
7404.44,0.02416
7398.65,0.02679
7392.87,0.02157
7387.08,0.02995
7381.29,0.01741
7375.51,0.02556
7369.72,0.01833
7363.93,0.02692
7358.15,0.02043
7352.36,0.03243
7346.58,0.02297
7340.79,0.02556
7335,0.02861
7329.22,0.02387
7323.43,0.03373
7317.65,0.02140
7311.86,0.02407
7306.07,0.02603
7300.29,0.02533
7294.5,0.03196
7288.71,0.02676
7282.93,0.02605
7277.14,0.02701
7271.36,0.03344
7265.57,0.02885
7259.78,0.03186
7254,0.02915
7248.21,0.02413
7242.42,0.02595
7236.64,0.03058
7230.85,0.01904
7225.07,0.01930
7219.28,0.02454
7213.49,0.02697
7207.71,0.02281
7201.92,0.02471
7196.13,0.02511
7190.35,0.02913
7184.56,0.01874
7178.78,0.02159
7172.99,0.02529
7167.2,0.02075
7161.42,0.02823
7155.63,0.02592
7149.84,0.02371
7144.06,0.03011
7138.27,0.02320
7132.49,0.02424
7126.7,0.01942
7120.91,0.02970
7115.13,0.02587
7109.34,0.02741
7103.55,0.02837
7097.77,0.02697
7091.98,0.02091
7086.2,0.02293
7080.41,0.01929
7074.62,0.02193
7068.84,0.02209
7063.05,0.02550
7057.26,0.02691
7051.48,0.02670
7045.69,0.02476
7039.91,0.02496
7034.12,0.02841
7028.33,0.02485
7022.55,0.01554
7016.76,0.02039
7010.98,0.02055
7005.19,0.02150
6999.4,0.02892
6993.62,0.02825
6987.83,0.02220
6982.04,0.02138
6976.26,0.01997
6970.47,0.02590
6964.69,0.02424
6958.9,0.02437
6953.11,0.01981
6947.33,0.02295
6941.54,0.02421
6935.75,0.02915
6929.97,0.02766
6924.18,0.02665
6918.4,0.02594
6912.61,0.02640
6906.82,0.02062
6901.04,0.02729
6895.25,0.02726
6889.46,0.02573
6883.68,0.03121
6877.89,0.02849
6872.11,0.02261
6866.32,0.02393
6860.53,0.02348
6854.75,0.01850
6848.96,0.01724
6843.17,0.01429
6837.39,0.02131
6831.6,0.02011
6825.82,0.01955
6820.03,0.02695
6814.24,0.02078
6808.46,0.01705
6802.67,0.02339
6796.88,0.02461
6791.1,0.02504
6785.31,0.02418
6779.53,0.03001
6773.74,0.02606
6767.95,0.02174
6762.17,0.02121
6756.38,0.02362
6750.6,0.02331
6744.81,0.02070
6739.02,0.02165
6733.24,0.02651
6727.45,0.02492
6721.66,0.01622
6715.88,0.02287
6710.09,0.02492
6704.31,0.01994
6698.52,0.02274
6692.73,0.02533
6686.95,0.02214
6681.16,0.01888
6675.37,0.02606
6669.59,0.02312
6663.8,0.02767
6658.02,0.02317
6652.23,0.02640
6646.44,0.02661
6640.66,0.02620
6634.87,0.02360
6629.08,0.02115
6623.3,0.02152
6617.51,0.02324
6611.73,0.02323
6605.94,0.02219
6600.15,0.02301
6594.37,0.02518
6588.58,0.02156
6582.79,0.02330
6577.01,0.02065
6571.22,0.02105
6565.44,0.02077
6559.65,0.02193
6553.86,0.02533
6548.08,0.02408
6542.29,0.02402
6536.5,0.02486
6530.72,0.02718
6524.93,0.01908
6519.15,0.02020
6513.36,0.02343
6507.57,0.02799
6501.79,0.02699
6496,0.02115
6490.21,0.02294
6484.43,0.02523
6478.64,0.02166
6472.86,0.02067
6467.07,0.01996
6461.28,0.02604
6455.5,0.02433
6449.71,0.02525
6443.93,0.01917
6438.14,0.02587
6432.35,0.02500
6426.57,0.02483
6420.78,0.01946
6414.99,0.02120
6409.21,0.02310
6403.42,0.02642
6397.64,0.02302
6391.85,0.02663
6386.06,0.02267
6380.28,0.02518
6374.49,0.02530
6368.7,0.02341
6362.92,0.02927
6357.13,0.02757
6351.35,0.02024
6345.56,0.02514
6339.77,0.02214
6333.99,0.01969
6328.2,0.02226
6322.41,0.02320
6316.63,0.02540
6310.84,0.02641
6305.06,0.02551
6299.27,0.02536
6293.48,0.02616
6287.7,0.02235
6281.91,0.02734
6276.12,0.02411
6270.34,0.02386
6264.55,0.02084
6258.77,0.02159
6252.98,0.02285
6247.19,0.02117
6241.41,0.02158
6235.62,0.02491
6229.83,0.02558
6224.05,0.02314
6218.26,0.01844
6212.48,0.02143
6206.69,0.02000
6200.9,0.02126
6195.12,0.02298
6189.33,0.02647
6183.55,0.02489
6177.76,0.02331
6171.97,0.02431
6166.19,0.02443
6160.4,0.02294
6154.61,0.02237
6148.83,0.01941
6143.04,0.02152
6137.26,0.02314
6131.47,0.02023
6125.68,0.02092
6119.9,0.02136
6114.11,0.02312
6108.32,0.02369
6102.54,0.02065
6096.75,0.02084
6090.97,0.02539
6085.18,0.02318
6079.39,0.02275
6073.61,0.02350
6067.82,0.02292
6062.03,0.02442
6056.25,0.02535
6050.46,0.02540
6044.68,0.02484
6038.89,0.02286
6033.1,0.02492
6027.32,0.02411
6021.53,0.02241
6015.74,0.02039
6009.96,0.02402
6004.17,0.02369
5998.39,0.02745
5992.6,0.02356
5986.81,0.01965
5981.03,0.02212
5975.24,0.02161
5969.45,0.02152
5963.67,0.02071
5957.88,0.02293
5952.1,0.02064
5946.31,0.02140
5940.52,0.02537
5934.74,0.02187
5928.95,0.02457
5923.16,0.02121
5917.38,0.02169
5911.59,0.02302
5905.81,0.02198
5900.02,0.02423
5894.23,0.02173
5888.45,0.01950
5882.66,0.02091
5876.88,0.02507
5871.09,0.02243
5865.3,0.02121
5859.52,0.02092
5853.73,0.01953
5847.94,0.02125
5842.16,0.02218
5836.37,0.02243
5830.59,0.02211
5824.8,0.02378
5819.01,0.02282
5813.23,0.02382
5807.44,0.02271
5801.65,0.02223
5795.87,0.02172
5790.08,0.02679
5784.3,0.02464
5778.51,0.02384
5772.72,0.02324
5766.94,0.02422
5761.15,0.02265
5755.36,0.02417
5749.58,0.02182
5743.79,0.02362
5738.01,0.02398
5732.22,0.02436
5726.43,0.02284
5720.65,0.02177
5714.86,0.02238
5709.07,0.02463
5703.29,0.02512
5697.5,0.02244
5691.72,0.02430
5685.93,0.02254
5680.14,0.02360
5674.36,0.02249
5668.57,0.02004
5662.78,0.02048
5657,0.02231
5651.21,0.02253
5645.43,0.02257
5639.64,0.01980
5633.85,0.02171
5628.07,0.02281
5622.28,0.02318
5616.5,0.02215
5610.71,0.02209
5604.92,0.02264
5599.14,0.02270
5593.35,0.02295
5587.56,0.02228
5581.78,0.02342
5575.99,0.02311
5570.21,0.02183
5564.42,0.02125
5558.63,0.02370
5552.85,0.02334
5547.06,0.02326
5541.27,0.02344
5535.49,0.02268
5529.7,0.02497
5523.92,0.02356
5518.13,0.02350
5512.34,0.02399
5506.56,0.02240
5500.77,0.02313
5494.98,0.02264
5489.2,0.02229
5483.41,0.02347
5477.63,0.02279
5471.84,0.02170
5466.05,0.02246
5460.27,0.02289
5454.48,0.02149
5448.69,0.02270
5442.91,0.02254
5437.12,0.02209
5431.34,0.02388
5425.55,0.01985
5419.76,0.02411
5413.98,0.02251
5408.19,0.02171
5402.4,0.02252
5396.62,0.02219
5390.83,0.02441
5385.05,0.02330
5379.26,0.02261
5373.47,0.02419
5367.69,0.02388
5361.9,0.02282
5356.11,0.02140
5350.33,0.02269
5344.54,0.02165
5338.76,0.02255
5332.97,0.02191
5327.18,0.02078
5321.4,0.02105
5315.61,0.02218
5309.83,0.02352
5304.04,0.02319
5298.25,0.02385
5292.47,0.02247
5286.68,0.02231
5280.89,0.02304
5275.11,0.02166
5269.32,0.02238
5263.54,0.02134
5257.75,0.02162
5251.96,0.02265
5246.18,0.02348
5240.39,0.02446
5234.6,0.02262
5228.82,0.02229
5223.03,0.02351
5217.25,0.02332
5211.46,0.02227
5205.67,0.02328
5199.89,0.02150
5194.1,0.02213
5188.31,0.02343
5182.53,0.02280
5176.74,0.02187
5170.96,0.02265
5165.17,0.02303
5159.38,0.02283
5153.6,0.02160
5147.81,0.02331
5142.02,0.02185
5136.24,0.02224
5130.45,0.02155
5124.67,0.02109
5118.88,0.02344
5113.09,0.02403
5107.31,0.02269
5101.52,0.02195
5095.73,0.02212
5089.95,0.02239
5084.16,0.02252
5078.38,0.02335
5072.59,0.02350
5066.8,0.02327
5061.02,0.02341
5055.23,0.02313
5049.45,0.02332
5043.66,0.02359
5037.87,0.02362
5032.09,0.02223
5026.3,0.02257
5020.51,0.02310
5014.73,0.02325
5008.94,0.02240
5003.16,0.02292
4997.37,0.02384
4991.58,0.02446
4985.8,0.02265
4980.01,0.02284
4974.22,0.02220
4968.44,0.02080
4962.65,0.02346
4956.87,0.02277
4951.08,0.02308
4945.29,0.02243
4939.51,0.02288
4933.72,0.02268
4927.93,0.02293
4922.15,0.02361
4916.36,0.02364
4910.58,0.02253
4904.79,0.02313
4899,0.02219
4893.22,0.02286
4887.43,0.02237
4881.64,0.02261
4875.86,0.02254
4870.07,0.02232
4864.29,0.02405
4858.5,0.02287
4852.71,0.02281
4846.93,0.02392
4841.14,0.02330
4835.35,0.02277
4829.57,0.02351
4823.78,0.02348
4818,0.02374
4812.21,0.02409
4806.42,0.02491
4800.64,0.02293
4794.85,0.02300
4789.06,0.02228
4783.28,0.02256
4777.49,0.02262
4771.71,0.02417
4765.92,0.02253
4760.13,0.02247
4754.35,0.02292
4748.56,0.02353
4742.78,0.02291
4736.99,0.02309
4731.2,0.02295
4725.42,0.02347
4719.63,0.02251
4713.84,0.02276
4708.06,0.02339
4702.27,0.02329
4696.49,0.02334
4690.7,0.02331
4684.91,0.02406
4679.13,0.02418
4673.34,0.02320
4667.55,0.02249
4661.77,0.02208
4655.98,0.02228
4650.2,0.02330
4644.41,0.02204
4638.62,0.02322
4632.84,0.02423
4627.05,0.02295
4621.26,0.02277
4615.48,0.02283
4609.69,0.02296
4603.91,0.02284
4598.12,0.02307
4592.33,0.02237
4586.55,0.02300
4580.76,0.02332
4574.97,0.02362
4569.19,0.02384
4563.4,0.02372
4557.62,0.02363
4551.83,0.02345
4546.04,0.02301
4540.26,0.02358
4534.47,0.02361
4528.68,0.02371
4522.9,0.02334
4517.11,0.02305
4511.33,0.02324
4505.54,0.02338
4499.75,0.02338
4493.97,0.02334
4488.18,0.02407
4482.4,0.02281
4476.61,0.02299
4470.82,0.02448
4465.04,0.02369
4459.25,0.02365
4453.46,0.02296
4447.68,0.02345
4441.89,0.02366
4436.11,0.02351
4430.32,0.02323
4424.53,0.02347
4418.75,0.02270
4412.96,0.02337
4407.17,0.02289
4401.39,0.02310
4395.6,0.02355
4389.82,0.02328
4384.03,0.02313
4378.24,0.02384
4372.46,0.02300
4366.67,0.02353
4360.88,0.02350
4355.1,0.02354
4349.31,0.02346
4343.53,0.02343
4337.74,0.02301
4331.95,0.02349
4326.17,0.02288
4320.38,0.02380
4314.59,0.02278
4308.81,0.02423
4303.02,0.02344
4297.24,0.02365
4291.45,0.02383
4285.66,0.02295
4279.88,0.02330
4274.09,0.02318
4268.3,0.02355
4262.52,0.02315
4256.73,0.02311
4250.95,0.02243
4245.16,0.02352
4239.37,0.02339
4233.59,0.02300
4227.8,0.02346
4222.02,0.02337
4216.23,0.02381
4210.44,0.02331
4204.66,0.02355
4198.87,0.02397
4193.08,0.02436
4187.3,0.02410
4181.51,0.02287
4175.73,0.02360
4169.94,0.02316
4164.15,0.02307
4158.37,0.02335
4152.58,0.02338
4146.79,0.02317
4141.01,0.02376
4135.22,0.02405
4129.44,0.02401
4123.65,0.02404
4117.86,0.02330
4112.08,0.02389
4106.29,0.02428
4100.5,0.02352
4094.72,0.02376
4088.93,0.02342
4083.15,0.02405
4077.36,0.02323
4071.57,0.02326
4065.79,0.02347
4060,0.02399
4054.21,0.02389
4048.43,0.02357
4042.64,0.02329
4036.86,0.02340
4031.07,0.02403
4025.28,0.02355
4019.5,0.02381
4013.71,0.02440
4007.92,0.02399
4002.14,0.02351
3996.35,0.02364
3990.57,0.02347
3984.78,0.02346
3978.99,0.02378
3973.21,0.02389
3967.42,0.02406
3961.63,0.02367
3955.85,0.02302
3950.06,0.02343
3944.28,0.02422
3938.49,0.02389
3932.7,0.02439
3926.92,0.02351
3921.13,0.02353
3915.35,0.02322
3909.56,0.02338
3903.77,0.02342
3897.99,0.02361
3892.2,0.02367
3886.41,0.02396
3880.63,0.02386
3874.84,0.02357
3869.06,0.02298
3863.27,0.02390
3857.48,0.02372
3851.7,0.02381
3845.91,0.02375
3840.12,0.02431
3834.34,0.02413
3828.55,0.02350
3822.77,0.02378
3816.98,0.02339
3811.19,0.02374
3805.41,0.02376
3799.62,0.02398
3793.83,0.02414
3788.05,0.02380
3782.26,0.02318
3776.48,0.02421
3770.69,0.02370
3764.9,0.02406
3759.12,0.02387
3753.33,0.02334
3747.54,0.02367
3741.76,0.02335
3735.97,0.02364
3730.19,0.02326
3724.4,0.02297
3718.61,0.02404
3712.83,0.02341
3707.04,0.02373
3701.25,0.02346
3695.47,0.02340
3689.68,0.02353
3683.9,0.02298
3678.11,0.02344
3672.32,0.02346
3666.54,0.02322
3660.75,0.02369
3654.97,0.02343
3649.18,0.02338
3643.39,0.02281
3637.61,0.02304
3631.82,0.02337
3626.03,0.02291
3620.25,0.02289
3614.46,0.02274
3608.68,0.02276
3602.89,0.02259
3597.1,0.02269
3591.32,0.02225
3585.53,0.02279
3579.74,0.02219
3573.96,0.02250
3568.17,0.02224
3562.39,0.02223
3556.6,0.02218
3550.81,0.02168
3545.03,0.02244
3539.24,0.02186
3533.45,0.02139
3527.67,0.02179
3521.88,0.02186
3516.1,0.02155
3510.31,0.02185
3504.52,0.02186
3498.74,0.02195
3492.95,0.02182
3487.16,0.02212
3481.38,0.02236
3475.59,0.02216
3469.81,0.02128
3464.02,0.02184
3458.23,0.02161
3452.45,0.02206
3446.66,0.02200
3440.87,0.02169
3435.09,0.02160
3429.3,0.02232
3423.52,0.02166
3417.73,0.02114
3411.94,0.02119
3406.16,0.02202
3400.37,0.02132
3394.58,0.02121
3388.8,0.02167
3383.01,0.02135
3377.23,0.02149
3371.44,0.02105
3365.65,0.02134
3359.87,0.02131
3354.08,0.02100
3348.3,0.02169
3342.51,0.02181
3336.72,0.02125
3330.94,0.02076
3325.15,0.02087
3319.36,0.02049
3313.58,0.02058
3307.79,0.02155
3302.01,0.02148
3296.22,0.02060
3290.43,0.02116
3284.65,0.02094
3278.86,0.02127
3273.07,0.02087
3267.29,0.02083
3261.5,0.02070
3255.72,0.02100
3249.93,0.02074
3244.14,0.02179
3238.36,0.02103
3232.57,0.02221
3226.78,0.02244
3221,0.02126
3215.21,0.02076
3209.43,0.02222
3203.64,0.02141
3197.85,0.02114
3192.07,0.02127
3186.28,0.02221
3180.49,0.02201
3174.71,0.02174
3168.92,0.02119
3163.14,0.02144
3157.35,0.02141
3151.56,0.02138
3145.78,0.02162
3139.99,0.02210
3134.2,0.02210
3128.42,0.02226
3122.63,0.02237
3116.85,0.02151
3111.06,0.02190
3105.27,0.02204
3099.49,0.02177
3093.7,0.02148
3087.92,0.02137
3082.13,0.02181
3076.34,0.02160
3070.56,0.02197
3064.77,0.02159
3058.98,0.02224
3053.2,0.02187
3047.41,0.02164
3041.63,0.02154
3035.84,0.02163
3030.05,0.02160
3024.27,0.02182
3018.48,0.02162
3012.69,0.02138
3006.91,0.02152
3001.12,0.02173
2995.34,0.02171
2989.55,0.02128
2983.76,0.02114
2977.98,0.02110
2972.19,0.02040
2966.4,0.02048
2960.62,0.02083
2954.83,0.02028
2949.05,0.02070
2943.26,0.02084
2937.47,0.02138
2931.69,0.02101
2925.9,0.02101
2920.11,0.02135
2914.33,0.02137
2908.54,0.02157
2902.76,0.02209
2896.97,0.02193
2891.18,0.02163
2885.4,0.02189
2879.61,0.02169
2873.82,0.02170
2868.04,0.02139
2862.25,0.02131
2856.47,0.02181
2850.68,0.02260
2844.89,0.02203
2839.11,0.02202
2833.32,0.02229
2827.53,0.02265
2821.75,0.02216
2815.96,0.02239
2810.18,0.02257
2804.39,0.02248
2798.6,0.02262
2792.82,0.02266
2787.03,0.02261
2781.25,0.02252
2775.46,0.02223
2769.67,0.02235
2763.89,0.02280
2758.1,0.02219
2752.31,0.02234
2746.53,0.02226
2740.74,0.02220
2734.96,0.02287
2729.17,0.02258
2723.38,0.02236
2717.6,0.02228
2711.81,0.02252
2706.02,0.02274
2700.24,0.02245
2694.45,0.02279
2688.67,0.02241
2682.88,0.02248
2677.09,0.02252
2671.31,0.02239
2665.52,0.02259
2659.73,0.02260
2653.95,0.02256
2648.16,0.02267
2642.38,0.02227
2636.59,0.02325
2630.8,0.02277
2625.02,0.02276
2619.23,0.02246
2613.44,0.02288
2607.66,0.02272
2601.87,0.02275
2596.09,0.02223
2590.3,0.02254
2584.51,0.02264
2578.73,0.02268
2572.94,0.02249
2567.15,0.02263
2561.37,0.02249
2555.58,0.02237
2549.8,0.02257
2544.01,0.02250
2538.22,0.02270
2532.44,0.02231
2526.65,0.02276
2520.87,0.02283
2515.08,0.02290
2509.29,0.02278
2503.51,0.02254
2497.72,0.02258
2491.93,0.02272
2486.15,0.02243
2480.36,0.02259
2474.58,0.02268
2468.79,0.02251
2463,0.02287
2457.22,0.02212
2451.43,0.02227
2445.64,0.02249
2439.86,0.02271
2434.07,0.02255
2428.29,0.02263
2422.5,0.02299
2416.71,0.02263
2410.93,0.02255
2405.14,0.02291
2399.35,0.02301
2393.57,0.02262
2387.78,0.02290
2382,0.02211
2376.21,0.02278
2370.42,0.02245
2364.64,0.02215
2358.85,0.02292
2353.06,0.02290
2347.28,0.02283
2341.49,0.02237
2335.71,0.02292
2329.92,0.02311
2324.13,0.02260
2318.35,0.02246
2312.56,0.02268
2306.77,0.02257
2300.99,0.02246
2295.2,0.02245
2289.42,0.02287
2283.63,0.02252
2277.84,0.02248
2272.06,0.02238
2266.27,0.02262
2260.48,0.02224
2254.7,0.02238
2248.91,0.02256
2243.13,0.02290
2237.34,0.02243
2231.55,0.02249
2225.77,0.02226
2219.98,0.02236
2214.2,0.02274
2208.41,0.02262
2202.62,0.02273
2196.84,0.02241
2191.05,0.02227
2185.26,0.02256
2179.48,0.02228
2173.69,0.02231
2167.91,0.02242
2162.12,0.02210
2156.33,0.02225
2150.55,0.02233
2144.76,0.02238
2138.97,0.02250
2133.19,0.02202
2127.4,0.02213
2121.62,0.02226
2115.83,0.02261
2110.04,0.02225
2104.26,0.02231
2098.47,0.02249
2092.68,0.02244
2086.9,0.02272
2081.11,0.02236
2075.33,0.02233
2069.54,0.02266
2063.75,0.02219
2057.97,0.02206
2052.18,0.02215
2046.39,0.02204
2040.61,0.02227
2034.82,0.02232
2029.04,0.02237
2023.25,0.02227
2017.46,0.02266
2011.68,0.02247
2005.89,0.02247
2000.1,0.02214
1994.32,0.02243
1988.53,0.02217
1982.75,0.02229
1976.96,0.02222
1971.17,0.02248
1965.39,0.02233
1959.6,0.02202
1953.82,0.02212
1948.03,0.02194
1942.24,0.02212
1936.46,0.02208
1930.67,0.02215
1924.88,0.02251
1919.1,0.02205
1913.31,0.02204
1907.53,0.02245
1901.74,0.02224
1895.95,0.02223
1890.17,0.02201
1884.38,0.02193
1878.59,0.02193
1872.81,0.02193
1867.02,0.02192
1861.24,0.02205
1855.45,0.02194
1849.66,0.02194
1843.88,0.02145
1838.09,0.02175
1832.3,0.02167
1826.52,0.02169
1820.73,0.02134
1814.95,0.02133
1809.16,0.02125
1803.37,0.02108
1797.59,0.02105
1791.8,0.02083
1786.01,0.02087
1780.23,0.02054
1774.44,0.02057
1768.66,0.01994
1762.87,0.01963
1757.08,0.01929
1751.3,0.01856
1745.51,0.01932
1739.72,0.01969
1733.94,0.02050
1728.15,0.02165
1722.37,0.02198
1716.58,0.02181
1710.79,0.02166
1705.01,0.02157
1699.22,0.02108
1693.43,0.02070
1687.65,0.02064
1681.86,0.02023
1676.08,0.02026
1670.29,0.01976
1664.5,0.01991
1658.72,0.01968
1652.93,0.01963
1647.15,0.02006
1641.36,0.01972
1635.57,0.02002
1629.79,0.02016
1624,0.02027
1618.21,0.02034
1612.43,0.02053
1606.64,0.02033
1600.86,0.02037
1595.07,0.02042
1589.28,0.02017
1583.5,0.01965
1577.71,0.01997
1571.92,0.02010
1566.14,0.01993
1560.35,0.01958
1554.57,0.01988
1548.78,0.01942
1542.99,0.01971
1537.21,0.02015
1531.42,0.01959
1525.63,0.01960
1519.85,0.01991
1514.06,0.01968
1508.28,0.02000
1502.49,0.01962
1496.7,0.01977
1490.92,0.02033
1485.13,0.01988
1479.34,0.01946
1473.56,0.01983
1467.77,0.01926
1461.99,0.01961
1456.2,0.02014
1450.41,0.01972
1444.63,0.02006
1438.84,0.02018
1433.05,0.02004
1427.27,0.02013
1421.48,0.01994
1415.7,0.01958
1409.91,0.01912
1404.12,0.01949
1398.34,0.01927
1392.55,0.01910
1386.77,0.01904
1380.98,0.01932
1375.19,0.01919
1369.41,0.01959
1363.62,0.01934
1357.83,0.01935
1352.05,0.01906
1346.26,0.01908
1340.48,0.01923
1334.69,0.01889
1328.9,0.01861
1323.12,0.01819
1317.33,0.01823
1311.54,0.01815
1305.76,0.01795
1299.97,0.01866
1294.19,0.01878
1288.4,0.01913
1282.61,0.01980
1276.83,0.02009
1271.04,0.02063
1265.25,0.02094
1259.47,0.02114
1253.68,0.02113
1247.9,0.02124
1242.11,0.02117
1236.32,0.02055
1230.54,0.02083
1224.75,0.02074
1218.96,0.02073
1213.18,0.02054
1207.39,0.02025
1201.61,0.02000
1195.82,0.01992
1190.03,0.01945
1184.25,0.01960
1178.46,0.01949
1172.67,0.01906
1166.89,0.01947
1161.1,0.01903
1155.32,0.01833
1149.53,0.01872
1143.74,0.01839
1137.96,0.01812
1132.17,0.01920
1126.38,0.01907
1120.6,0.01959
1114.81,0.02015
1109.03,0.02034
1103.24,0.02001
1097.45,0.01910
1091.67,0.01878
1085.88,0.01888
1080.1,0.02004
1074.31,0.02087
1068.52,0.02113
1062.74,0.02063
1056.95,0.02052
1051.16,0.02100
1045.38,0.02056
1039.59,0.02039
1033.81,0.02082
1028.02,0.02136
1022.23,0.02072
1016.45,0.02044
1010.66,0.02095
1004.87,0.02199
999.088,0.02266
993.302,0.02265
987.516,0.02206
981.729,0.02190
975.943,0.02147
970.157,0.02214
964.371,0.02136
958.585,0.02118
952.798,0.02112
947.012,0.02100
941.226,0.02195
935.44,0.02152
929.653,0.02083
923.867,0.02131
918.081,0.02099
912.295,0.02023
906.508,0.02064
900.722,0.02043
894.936,0.02038
889.15,0.02063
883.364,0.01989
877.577,0.02079
871.791,0.02082
866.005,0.02051
860.219,0.02007
854.432,0.02015
848.646,0.02019
842.86,0.01974
837.074,0.01999
831.288,0.02016
825.501,0.02038
819.715,0.01992
813.929,0.02031
808.143,0.02008
802.356,0.01954
796.57,0.02005
790.784,0.01953
784.998,0.01961
779.212,0.01963
773.425,0.01941
767.639,0.01925
761.853,0.01934
756.067,0.01845
750.28,0.01899
744.494,0.01932
738.708,0.01923
732.922,0.01967
727.136,0.01904
721.349,0.01968
715.563,0.01921
709.777,0.01943
703.991,0.01963
698.204,0.01874
692.418,0.01907
686.632,0.01980
680.846,0.01930
675.059,0.01957
669.273,0.01905
663.487,0.01768
657.701,0.01835
651.915,0.01654
646.128,0.01802
640.342,0.01855
634.556,0.01669
628.77,0.01811
622.983,0.01813
617.197,0.01743
611.411,0.01553
605.625,0.01781
599.839,0.01730