File: 01_Data/Nylon/FTIR/IS/Nylon_1.575_Trans_S_IS_221213_R2.dpt
7496.63,0.70580
7490.84,0.71231
7485.06,0.68884
7479.27,0.70333
7473.48,0.71705
7467.7,0.70353
7461.91,0.70269
7456.13,0.70375
7450.34,0.70341
7444.55,0.70102
7438.77,0.70438
7432.98,0.70655
7427.2,0.70386
7421.41,0.70894
7415.62,0.69771
7409.84,0.69919
7404.05,0.70060
7398.27,0.70506
7392.48,0.70613
7386.69,0.70909
7380.91,0.69042
7375.12,0.70218
7369.34,0.69816
7363.55,0.69910
7357.77,0.69654
7351.98,0.69227
7346.19,0.69029
7340.41,0.67438
7334.62,0.68105
7328.84,0.68322
7323.05,0.67279
7317.26,0.67765
7311.48,0.66517
7305.69,0.66069
7299.91,0.66422
7294.12,0.65259
7288.33,0.65036
7282.55,0.64370
7276.76,0.64084
7270.98,0.63457
7265.19,0.62066
7259.4,0.62559
7253.62,0.61002
7247.83,0.60468
7242.05,0.60552
7236.26,0.60291
7230.47,0.59389
7224.69,0.59408
7218.9,0.59546
7213.12,0.59257
7207.33,0.59443
7201.55,0.59894
7195.76,0.58718
7189.97,0.59618
7184.19,0.59390
7178.4,0.60171
7172.62,0.60295
7166.83,0.60348
7161.04,0.60303
7155.26,0.59734
7149.47,0.59744
7143.69,0.58942
7137.9,0.58927
7132.11,0.59101
7126.33,0.59352
7120.54,0.59529
7114.76,0.58557
7108.97,0.58157
7103.18,0.58408
7097.4,0.58792
7091.61,0.58317
7085.83,0.58346
7080.04,0.57917
7074.26,0.57862
7068.47,0.58129
7062.68,0.58453
7056.9,0.59059
7051.11,0.58356
7045.33,0.58826
7039.54,0.58427
7033.75,0.58714
7027.97,0.58527
7022.18,0.58362
7016.4,0.58234
7010.61,0.58630
7004.82,0.58552
6999.04,0.59003
6993.25,0.58943
6987.47,0.59105
6981.68,0.59222
6975.89,0.59103
6970.11,0.58728
6964.32,0.59259
6958.54,0.59709
6952.75,0.59115
6946.96,0.59499
6941.18,0.59144
6935.39,0.59436
6929.61,0.59900
6923.82,0.59685
6918.04,0.59966
6912.25,0.60238
6906.46,0.59901
6900.68,0.60264
6894.89,0.60304
6889.11,0.60553
6883.32,0.60159
6877.53,0.60663
6871.75,0.60745
6865.96,0.60730
6860.18,0.60580
6854.39,0.60065
6848.6,0.60865
6842.82,0.60595
6837.03,0.60830
6831.25,0.60711
6825.46,0.60732
6819.67,0.60888
6813.89,0.61212
6808.1,0.60681
6802.32,0.60353
6796.53,0.59852
6790.74,0.60075
6784.96,0.59801
6779.17,0.59162
6773.39,0.59075
6767.6,0.58427
6761.82,0.58224
6756.03,0.57779
6750.24,0.57878
6744.46,0.57411
6738.67,0.57603
6732.89,0.58240
6727.1,0.57606
6721.31,0.57810
6715.53,0.57433
6709.74,0.56952
6703.96,0.57284
6698.17,0.57174
6692.38,0.56703
6686.6,0.56261
6680.81,0.56227
6675.03,0.55934
6669.24,0.55889
6663.45,0.54906
6657.67,0.54912
6651.88,0.54719
6646.1,0.54167
6640.31,0.53098
6634.52,0.52464
6628.74,0.51782
6622.95,0.51082
6617.17,0.50397
6611.38,0.50086
6605.6,0.50326
6599.81,0.50253
6594.02,0.50252
6588.24,0.50766
6582.45,0.50333
6576.67,0.49906
6570.88,0.50409
6565.09,0.50142
6559.31,0.49415
6553.52,0.49198
6547.74,0.48810
6541.95,0.47891
6536.16,0.47510
6530.38,0.46974
6524.59,0.46024
6518.81,0.45765
6513.02,0.45766
6507.23,0.45677
6501.45,0.45601
6495.66,0.45349
6489.88,0.46181
6484.09,0.45567
6478.3,0.45839
6472.52,0.46922
6466.73,0.48444
6460.95,0.50313
6455.16,0.52128
6449.38,0.54314
6443.59,0.55356
6437.8,0.56607
6432.02,0.56341
6426.23,0.56339
6420.45,0.56960
6414.66,0.56857
6408.87,0.56609
6403.09,0.56205
6397.3,0.55850
6391.52,0.55402
6385.73,0.54526
6379.94,0.53971
6374.16,0.53427
6368.37,0.52715
6362.59,0.52149
6356.8,0.52090
6351.01,0.52153
6345.23,0.51681
6339.44,0.52570
6333.66,0.53393
6327.87,0.54043
6322.09,0.54826
6316.3,0.55769
6310.51,0.56747
6304.73,0.56507
6298.94,0.57076
6293.16,0.56892
6287.37,0.56962
6281.58,0.56572
6275.8,0.55684
6270.01,0.55466
6264.23,0.54870
6258.44,0.54689
6252.65,0.54030
6246.87,0.54143
6241.08,0.53805
6235.3,0.53655
6229.51,0.54054
6223.72,0.54284
6217.94,0.55114
6212.15,0.55843
6206.37,0.56452
6200.58,0.56704
6194.79,0.57013
6189.01,0.57654
6183.22,0.58363
6177.44,0.59062
6171.65,0.60414
6165.87,0.60750
6160.08,0.61561
6154.29,0.62429
6148.51,0.62928
6142.72,0.63360
6136.94,0.64030
6131.15,0.64293
6125.36,0.64456
6119.58,0.64568
6113.79,0.64466
6108.01,0.65263
6102.22,0.65153
6096.43,0.65183
6090.65,0.65344
6084.86,0.65325
6079.08,0.65381
6073.29,0.65457
6067.5,0.64997
6061.72,0.64849
6055.93,0.64881
6050.15,0.64879
6044.36,0.64868
6038.57,0.64534
6032.79,0.64970
6027,0.64895
6021.22,0.64393
6015.43,0.64281
6009.65,0.64353
6003.86,0.63983
5998.07,0.64002
5992.29,0.63492
5986.5,0.63308
5980.72,0.62882
5974.93,0.62240
5969.14,0.62033
5963.36,0.61780
5957.57,0.60838
5951.79,0.60365
5946,0.59563
5940.21,0.58477
5934.43,0.57295
5928.64,0.56000
5922.86,0.54286
5917.07,0.52269
5911.28,0.50291
5905.5,0.47370
5899.71,0.44829
5893.93,0.41788
5888.14,0.38751
5882.35,0.36094
5876.57,0.33209
5870.78,0.30821
5865,0.28552
5859.21,0.26203
5853.43,0.23881
5847.64,0.21546
5841.85,0.19707
5836.07,0.18711
5830.28,0.18402
5824.5,0.18655
5818.71,0.19536
5812.92,0.20494
5807.14,0.21826
5801.35,0.22652
5795.57,0.23485
5789.78,0.24813
5783.99,0.26366
5778.21,0.27331
5772.42,0.28359
5766.64,0.28854
5760.85,0.29022
5755.06,0.28688
5749.28,0.28133
5743.49,0.27449
5737.71,0.26464
5731.92,0.25277
5726.14,0.24036
5720.35,0.23027
5714.56,0.22668
5708.78,0.22859
5702.99,0.23263
5697.21,0.23738
5691.42,0.24198
5685.63,0.25352
5679.85,0.26657
5674.06,0.28116
5668.28,0.29606
5662.49,0.30898
5656.7,0.32305
5650.92,0.33593
5645.13,0.34714
5639.35,0.36047
5633.56,0.37059
5627.77,0.37892
5621.99,0.38604
5616.2,0.39255
5610.42,0.39357
5604.63,0.39738
5598.84,0.39877
5593.06,0.40261
5587.27,0.40665
5581.49,0.40742
5575.7,0.41066
5569.92,0.41361
5564.13,0.41727
5558.34,0.41994
5552.56,0.42210
5546.77,0.42651
5540.99,0.42869
5535.2,0.42971
5529.41,0.43323
5523.63,0.43639
5517.84,0.43865
5512.06,0.44189
5506.27,0.44499
5500.48,0.44717
5494.7,0.44788
5488.91,0.45131
5483.13,0.45675
5477.34,0.45719
5471.55,0.46113
5465.77,0.46301
5459.98,0.46444
5454.2,0.46730
5448.41,0.46720
5442.62,0.46791
5436.84,0.47260
5431.05,0.47552
5425.27,0.47580
5419.48,0.47872
5413.7,0.47638
5407.91,0.48054
5402.12,0.48648
5396.34,0.49464
5390.55,0.50173
5384.77,0.50595
5378.98,0.50956
5373.19,0.51439
5367.41,0.51890
5361.62,0.52191
5355.84,0.52115
5350.05,0.52202
5344.26,0.52056
5338.48,0.51974
5332.69,0.51981
5326.91,0.51866
5321.12,0.51837
5315.33,0.51204
5309.55,0.50366
5303.76,0.49198
5297.98,0.48041
5292.19,0.46417
5286.4,0.45483
5280.62,0.44627
5274.83,0.44029
5269.05,0.43264
5263.26,0.42337
5257.48,0.41692
5251.69,0.40973
5245.9,0.39834
5240.12,0.39334
5234.33,0.38360
5228.55,0.37043
5222.76,0.35986
5216.97,0.35055
5211.19,0.33969
5205.4,0.32550
5199.62,0.31664
5193.83,0.30373
5188.04,0.29184
5182.26,0.28228
5176.47,0.27348
5170.69,0.26283
5164.9,0.25659
5159.11,0.24880
5153.33,0.24092
5147.54,0.23712
5141.76,0.23204
5135.97,0.23042
5130.18,0.23189
5124.4,0.23145
5118.61,0.23423
5112.83,0.23531
5107.04,0.24060
5101.26,0.24617
5095.47,0.25128
5089.68,0.25702
5083.9,0.26372
5078.11,0.26822
5072.33,0.27442
5066.54,0.27871
5060.75,0.28490
5054.97,0.29088
5049.18,0.29533
5043.4,0.30080
5037.61,0.30395
5031.82,0.30619
5026.04,0.30645
5020.25,0.30747
5014.47,0.30419
5008.68,0.29872
5002.89,0.28904
4997.11,0.27632
4991.32,0.25839
4985.54,0.23418
4979.75,0.20933
4973.97,0.18810
4968.18,0.17671
4962.39,0.17483
4956.61,0.17994
4950.82,0.18175
4945.04,0.18410
4939.25,0.18181
4933.46,0.17925
4927.68,0.17732
4921.89,0.17089
4916.11,0.15754
4910.32,0.13913
4904.53,0.11842
4898.75,0.09743
4892.96,0.07844
4887.18,0.06507
4881.39,0.05520
4875.6,0.04591
4869.82,0.04218
4864.03,0.04954
4858.25,0.07085
4852.46,0.09629
4846.67,0.12694
4840.89,0.15716
4835.1,0.19033
4829.32,0.21787
4823.53,0.23753
4817.75,0.25252
4811.96,0.25716
4806.17,0.25765
4800.39,0.25324
4794.6,0.24950
4788.82,0.24791
4783.03,0.24702
4777.24,0.24518
4771.46,0.24261
4765.67,0.23909
4759.89,0.23236
4754.1,0.22549
4748.31,0.21709
4742.53,0.20843
4736.74,0.20023
4730.96,0.19080
4725.17,0.17957
4719.38,0.16680
4713.6,0.15112
4707.81,0.13650
4702.03,0.12724
4696.24,0.11938
4690.45,0.11422
4684.67,0.11112
4678.88,0.11028
4673.1,0.10988
4667.31,0.10978
4661.53,0.11008
4655.74,0.10881
4649.95,0.10443
4644.17,0.10094
4638.38,0.09451
4632.6,0.08899
4626.81,0.08189
4621.02,0.07674
4615.24,0.06978
4609.45,0.06207
4603.67,0.05348
4597.88,0.04643
4592.09,0.04050
4586.31,0.03703
4580.52,0.03647
4574.74,0.03749
4568.95,0.04068
4563.16,0.04476
4557.38,0.04777
4551.59,0.05053
4545.81,0.05188
4540.02,0.05190
4534.23,0.05438
4528.45,0.05724
4522.66,0.06161
4516.88,0.06823
4511.09,0.07435
4505.31,0.08073
4499.52,0.08559
4493.73,0.08838
4487.95,0.09014
4482.16,0.08958
4476.38,0.08850
4470.59,0.08779
4464.8,0.08474
4459.02,0.07900
4453.23,0.07325
4447.45,0.06577
4441.66,0.05997
4435.87,0.05377
4430.09,0.04775
4424.3,0.04049
4418.52,0.03386
4412.73,0.02718
4406.94,0.02053
4401.16,0.01511
4395.37,0.00864
4389.59,0.00488
4383.8,0.00178
4378.01,0.00125
4372.23,0.00046
4366.44,0.00093
4360.66,0.00038
4354.87,0.00064
4349.09,0.00042
4343.3,0.00020
4337.51,0.00064
4331.73,0.00127
4325.94,0.00209
4320.16,0.00365
4314.37,0.00409
4308.58,0.00507
4302.8,0.00587
4297.01,0.00496
4291.23,0.00534
4285.44,0.00443
4279.65,0.00251
4273.87,0.00141
4268.08,0.00099
4262.3,0.00117
4256.51,0.00068
4250.72,0.00133
4244.94,0.00162
4239.15,0.00170
4233.37,0.00124
4227.58,0.00096
4221.8,0.00067
4216.01,0.00123
4210.22,0.00016
4204.44,0.00109
4198.65,0.00104
4192.87,0.00110
4187.08,0.00130
4181.29,0.00112
4175.51,0.00118
4169.72,0.00231
4163.94,0.00307
4158.15,0.00410
4152.36,0.00500
4146.58,0.00598
4140.79,0.00731
4135.01,0.00887
4129.22,0.00959
4123.43,0.00985
4117.65,0.00967
4111.86,0.00989
4106.08,0.00918
4100.29,0.00833
4094.5,0.00756
4088.72,0.00751
4082.93,0.00818
4077.15,0.00837
4071.36,0.00784
4065.58,0.00721
4059.79,0.00623
4054,0.00499
4048.22,0.00534
4042.43,0.00458
4036.65,0.00481
4030.86,0.00344
4025.07,0.00281
4019.29,0.00287
4013.5,0.00221
4007.72,0.00244
4001.93,0.00276
3996.14,0.00354
3990.36,0.00452
3984.57,0.00553
3978.79,0.00810
3973,0.01077
3967.21,0.01527
3961.43,0.01847
3955.64,0.02165
3949.86,0.02409
3944.07,0.02784
3938.28,0.03152
3932.5,0.03338
3926.71,0.03497
3920.93,0.03705
3915.14,0.04046
3909.36,0.04664
3903.57,0.05130
3897.78,0.05667
3892,0.05929
3886.21,0.05873
3880.43,0.06286
3874.64,0.06980
3868.85,0.07195
3863.07,0.07207
3857.28,0.06886
3851.5,0.06007
3845.71,0.05747
3839.92,0.05335
3834.14,0.05936
3828.35,0.06343
3822.57,0.06116
3816.78,0.06137
3810.99,0.06607
3805.21,0.06909
3799.42,0.07061
3793.64,0.07148
3787.85,0.07288
3782.06,0.07668
3776.28,0.08137
3770.49,0.08221
3764.71,0.08209
3758.92,0.08005
3753.14,0.07666
3747.35,0.07197
3741.56,0.06962
3735.78,0.06657
3729.99,0.06590
3724.21,0.06374
3718.42,0.06076
3712.63,0.05566
3706.85,0.05064
3701.06,0.04379
3695.28,0.03545
3689.49,0.02112
3683.7,0.00948
3677.92,0.00384
3672.13,0.00152
3666.35,0.00117
3660.56,0.00116
3654.77,0.00049
3648.99,0.00054
3643.2,0.00050
3637.42,0.00021
3631.63,0.00058
3625.85,0.00022
3620.06,0.00036
3614.27,0.00098
3608.49,0.00004
3602.7,0.00022
3596.92,-0.00009
3591.13,0.00055
3585.34,0.00043
3579.56,0.00043
3573.77,0.00074
3567.99,0.00014
3562.2,0.00024
3556.41,0.00078
3550.63,0.00021
3544.84,0.00072
3539.06,0.00034
3533.27,0.00049
3527.48,0.00048
3521.7,0.00083
3515.91,0.00031
3510.13,0.00041
3504.34,0.00046
3498.55,0.00031
3492.77,0.00047
3486.98,0.00037
3481.2,0.00040
3475.41,0.00028
3469.63,0.00034
3463.84,0.00086
3458.05,0.00018
3452.27,0.00027
3446.48,0.00068
3440.7,0.00033
3434.91,0.00082
3429.12,0.00072
3423.34,0.00012
3417.55,0.00051
3411.77,0.00083
3405.98,0.00046
3400.19,0.00082
3394.41,0.00030
3388.62,0.00061
3382.84,0.00047
3377.05,0.00059
3371.26,0.00044
3365.48,0.00066
3359.69,0.00020
3353.91,0.00042
3348.12,0.00033
3342.33,0.00037
3336.55,0.00033
3330.76,0.00067
3324.98,0.00072
3319.19,0.00059
3313.41,0.00023
3307.62,0.00024
3301.83,0.00034
3296.05,0.00085
3290.26,0.00041
3284.48,0.00065
3278.69,0.00032
3272.9,0.00047
3267.12,0.00035
3261.33,0.00041
3255.55,0.00042
3249.76,0.00058
3243.97,0.00043
3238.19,0.00042
3232.4,0.00007
3226.62,0.00052
3220.83,0.00071
3215.04,0.00040
3209.26,0.00066
3203.47,0.00036
3197.69,0.00043
3191.9,0.00006
3186.11,0.00053
3180.33,0.00051
3174.54,0.00040
3168.76,0.00058
3162.97,0.00041
3157.19,0.00059
3151.4,0.00026
3145.61,0.00078
3139.83,0.00014
3134.04,0.00035
3128.26,0.00041
3122.47,0.00068
3116.68,0.00033
3110.9,0.00018
3105.11,0.00037
3099.33,0.00055
3093.54,0.00038
3087.75,0.00024
3081.97,0.00039
3076.18,0.00025
3070.4,0.00025
3064.61,0.00036
3058.82,0.00015
3053.04,0.00030
3047.25,0.00038
3041.47,0.00024
3035.68,0.00021
3029.89,0.00013
3024.11,0.00044
3018.32,0.00050
3012.54,0.00045
3006.75,0.00028
3000.97,0.00036
2995.18,0.00032
2989.39,0.00039
2983.61,0.00069
2977.82,0.00041
2972.04,0.00031
2966.25,0.00038
2960.46,0.00038
2954.68,0.00027
2948.89,0.00085
2943.11,0.00034
2937.32,0.00033
2931.53,0.00023
2925.75,0.00077
2919.96,0.00019
2914.18,0.00036
2908.39,0.00036
2902.6,0.00025
2896.82,0.00031
2891.03,0.00038
2885.25,0.00033
2879.46,0.00022
2873.68,0.00018
2867.89,0.00047
2862.1,0.00020
2856.32,0.00023
2850.53,0.00039
2844.75,0.00030
2838.96,0.00032
2833.17,0.00005
2827.39,0.00042
2821.6,0.00062
2815.82,0.00046
2810.03,0.00036
2804.24,0.00023
2798.46,0.00019
2792.67,0.00042
2786.89,0.00041
2781.1,0.00015
2775.31,0.00053
2769.53,0.00004
2763.74,0.00033
2757.96,0.00024
2752.17,0.00055
2746.38,0.00036
2740.6,0.00026
2734.81,0.00033
2729.03,0.00040
2723.24,0.00019
2717.46,0.00024
2711.67,0.00033
2705.88,0.00055
2700.1,0.00018
2694.31,0.00010
2688.53,0.00020
2682.74,0.00038
2676.95,0.00019
2671.17,0.00031
2665.38,0.00034
2659.6,0.00026
2653.81,0.00035
2648.02,0.00031
2642.24,0.00024
2636.45,0.00028
2630.67,0.00017
2624.88,0.00010
2619.09,0.00031
2613.31,0.00006
2607.52,0.00033
2601.74,0.00045
2595.95,0.00035
2590.16,0.00054
2584.38,0.00008
2578.59,0.00030
2572.81,0.00017
2567.02,0.00017
2561.24,0.00051
2555.45,0.00008
2549.66,0.00049
2543.88,0.00046
2538.09,0.00058
2532.31,0.00072
2526.52,0.00110
2520.73,0.00081
2514.95,0.00149
2509.16,0.00139
2503.38,0.00164
2497.59,0.00141
2491.8,0.00159
2486.02,0.00153
2480.23,0.00161
2474.45,0.00167
2468.66,0.00198
2462.87,0.00281
2457.09,0.00389
2451.3,0.00465
2445.52,0.00524
2439.73,0.00589
2433.94,0.00597
2428.16,0.00600
2422.37,0.00633
2416.59,0.00636
2410.8,0.00609
2405.02,0.00699
2399.23,0.00730
2393.44,0.00698
2387.66,0.00645
2381.87,0.00588
2376.09,0.00533
2370.3,0.00491
2364.51,0.00478
2358.73,0.00492
2352.94,0.00580
2347.16,0.00577
2341.37,0.00446
2335.58,0.00322
2329.8,0.00259
2324.01,0.00277
2318.23,0.00306
2312.44,0.00425
2306.65,0.00537
2300.87,0.00616
2295.08,0.00667
2289.3,0.00679
2283.51,0.00667
2277.72,0.00634
2271.94,0.00629
2266.15,0.00577
2260.37,0.00541
2254.58,0.00495
2248.8,0.00464
2243.01,0.00453
2237.22,0.00453
2231.44,0.00392
2225.65,0.00329
2219.87,0.00275
2214.08,0.00288
2208.29,0.00292
2202.51,0.00278
2196.72,0.00212
2190.94,0.00202
2185.15,0.00176
2179.36,0.00161
2173.58,0.00173
2167.79,0.00180
2162.01,0.00142
2156.22,0.00133
2150.43,0.00162
2144.65,0.00192
2138.86,0.00207
2133.08,0.00224
2127.29,0.00264
2121.51,0.00316
2115.72,0.00290
2109.93,0.00351
2104.15,0.00316
2098.36,0.00298
2092.58,0.00331
2086.79,0.00353
2081,0.00411
2075.22,0.00439
2069.43,0.00487
2063.65,0.00483
2057.86,0.00456
2052.07,0.00475
2046.29,0.00537
2040.5,0.00578
2034.72,0.00650
2028.93,0.00728
2023.14,0.00852
2017.36,0.01003
2011.57,0.01044
2005.79,0.01041
2000,0.01066
1994.21,0.01129
1988.43,0.01252
1982.64,0.01275
1976.86,0.01275
1971.07,0.01207
1965.29,0.01239
1959.5,0.01374
1953.71,0.01492
1947.93,0.01581
1942.14,0.01691
1936.36,0.01754
1930.57,0.01739
1924.78,0.01712
1919,0.01742
1913.21,0.01659
1907.43,0.01436
1901.64,0.01234
1895.85,0.01147
1890.07,0.00962
1884.28,0.00754
1878.5,0.00718
1872.71,0.00775
1866.92,0.00833
1861.14,0.00926
1855.35,0.00886
1849.57,0.00756
1843.78,0.00669
1837.99,0.00588
1832.21,0.00511
1826.42,0.00426
1820.64,0.00344
1814.85,0.00273
1809.07,0.00213
1803.28,0.00137
1797.49,0.00082
1791.71,0.00053
1785.92,0.00020
1780.14,0.00010
1774.35,0.00033
1768.56,0.00010
1762.78,0.00027
1756.99,0.00039
1751.21,0.00035
1745.42,0.00047
1739.63,0.00035
1733.85,0.00004
1728.06,0.00030
1722.28,0.00010
1716.49,0.00055
1710.7,0.00032
1704.92,0.00020
1699.13,0.00043
1693.35,0.00029
1687.56,0.00030
1681.77,0.00014
1675.99,0.00030
1670.2,0.00042
1664.42,0.00027
1658.63,0.00030
1652.85,0.00049
1647.06,0.00043
1641.27,0.00022
1635.49,0.00049
1629.7,0.00028
1623.92,0.00010
1618.13,0.00041
1612.34,0.00038
1606.56,0.00015
1600.77,0.00034
1594.99,0.00034
1589.2,0.00043
1583.41,0.00045
1577.63,0.00035
1571.84,0.00007
1566.06,0.00022
1560.27,0.00059
1554.48,0.00028
1548.7,0.00022
1542.91,0.00041
1537.13,0.00026
1531.34,0.00038
1525.56,0.00051
1519.77,0.00026
1513.98,0.00024
1508.2,0.00032
1502.41,0.00017
1496.63,0.00012
1490.84,0.00018
1485.05,0.00042
1479.27,0.00017
1473.48,-0.00005
1467.7,0.00009
1461.91,0.00027
1456.12,0.00021
1450.34,0.00048
1444.55,0.00038
1438.77,0.00031
1432.98,0.00039
1427.19,0.00049
1421.41,0.00011
1415.62,0.00043
1409.84,0.00021
1404.05,0.00021
1398.26,0.00032
1392.48,0.00036
1386.69,0.00043
1380.91,0.00037
1375.12,0.00033
1369.34,0.00021
1363.55,0.00021
1357.76,0.00030
1351.98,0.00038
1346.19,0.00043
1340.41,0.00027
1334.62,0.00017
1328.83,0.00030
1323.05,0.00021
1317.26,0.00029
1311.48,0.00033
1305.69,0.00047
1299.9,0.00021
1294.12,0.00020
1288.33,0.00032
1282.55,0.00023
1276.76,0.00047
1270.97,0.00038
1265.19,0.00022
1259.4,0.00029
1253.62,0.00041
1247.83,0.00004
1242.04,0.00059
1236.26,0.00018
1230.47,0.00046
1224.69,0.00035
1218.9,0.00036
1213.12,0.00072
1207.33,0.00033
1201.54,0.00035
1195.76,0.00038
1189.97,0.00021
1184.19,0.00023
1178.4,0.00023
1172.61,0.00035
1166.83,0.00049
1161.04,0.00045
1155.26,-0.00002
1149.47,0.00024
1143.68,0.00072
1137.9,0.00074
1132.11,0.00072
1126.33,0.00047
1120.54,0.00068
1114.75,0.00035
1108.97,0.00050
1103.18,0.00060
1097.4,0.00031
1091.61,0.00064
1085.82,0.00039
1080.04,0.00051
1074.25,0.00046
1068.47,0.00014
1062.68,0.00036
1056.9,0.00071
1051.11,0.00074
1045.32,0.00028
1039.54,0.00057
1033.75,0.00036
1027.97,0.00085
1022.18,0.00079
1016.39,0.00080
1010.61,0.00079
1004.82,0.00051
999.036,0.00051
993.25,0.00021
987.464,0.00062
981.678,0.00052
975.892,0.00063
970.106,0.00039
964.32,0.00037
958.535,0.00051
952.749,0.00032
946.963,0.00066
941.177,0.00048
935.391,0.00047
929.605,0.00031
923.819,0.00107
918.033,0.00087
912.247,0.00031
906.461,0.00052
900.675,-0.00001
894.889,0.00068
889.103,0.00041
883.318,0.00064
877.532,0.00051
871.746,0.00037
865.96,0.00093
860.174,0.00029
854.388,0.00013
848.602,0.00022
842.816,0.00004
837.03,0.00102
831.244,0.00096
825.458,0.00072
819.672,0.00064
813.886,0.00042
808.101,0.00065
802.315,0.00078
796.529,0.00073
790.743,0.00136
784.957,0.00076
779.171,0.00098
773.385,0.00102
767.599,0.00078
761.813,0.00007
756.027,0.00076
750.241,0.00104
744.455,0.00104
738.669,0.00045
732.884,0.00065
727.098,0.00115
721.312,0.00122
715.526,0.00108
709.74,0.00038
703.954,0.00133
698.168,0.00082
692.382,0.00153
686.596,0.00154
680.81,0.00153
675.024,0.00083
669.238,0.00128
663.452,0.00153
657.667,0.00145
651.881,0.00175
646.095,0.00073
640.309,0.00212
634.523,0.00104
628.737,0.00147
622.951,0.00123
617.165,0.00187
611.379,0.00132
605.593,0.00149
599.807,0.00183