File: 01_Data/Nylon/FTIR/IS/Nylon_3.175_T_IS_221212_R1.dpt
7497.02,0.01626
7491.23,0.02946
7485.45,0.02288
7479.66,0.02875
7473.87,0.02838
7468.09,0.02112
7462.3,0.02336
7456.51,0.02876
7450.73,0.02533
7444.94,0.03212
7439.16,0.02741
7433.37,0.02408
7427.58,0.02586
7421.8,0.01370
7416.01,0.02421
7410.22,0.01148
7404.44,0.01937
7398.65,0.02502
7392.87,0.02638
7387.08,0.03383
7381.29,0.01932
7375.51,0.01834
7369.72,0.02417
7363.93,0.02517
7358.15,0.02927
7352.36,0.03406
7346.58,0.03106
7340.79,0.03730
7335,0.02516
7329.22,0.02447
7323.43,0.02293
7317.65,0.02286
7311.86,0.02174
7306.07,0.01784
7300.29,0.02418
7294.5,0.03070
7288.71,0.02514
7282.93,0.02910
7277.14,0.01890
7271.36,0.02394
7265.57,0.02164
7259.78,0.02240
7254,0.02588
7248.21,0.02730
7242.42,0.02196
7236.64,0.03623
7230.85,0.03066
7225.07,0.02508
7219.28,0.02360
7213.49,0.02499
7207.71,0.02963
7201.92,0.02801
7196.13,0.03113
7190.35,0.02616
7184.56,0.02408
7178.78,0.01974
7172.99,0.02694
7167.2,0.03095
7161.42,0.02203
7155.63,0.02873
7149.84,0.02914
7144.06,0.02066
7138.27,0.01774
7132.49,0.02103
7126.7,0.03136
7120.91,0.03164
7115.13,0.02945
7109.34,0.03661
7103.55,0.01672
7097.77,0.02485
7091.98,0.01794
7086.2,0.02264
7080.41,0.02434
7074.62,0.02610
7068.84,0.02707
7063.05,0.02176
7057.26,0.01879
7051.48,0.02328
7045.69,0.02330
7039.91,0.02341
7034.12,0.02785
7028.33,0.02309
7022.55,0.01725
7016.76,0.02238
7010.98,0.02327
7005.19,0.02265
6999.4,0.02347
6993.62,0.03071
6987.83,0.02604
6982.04,0.02749
6976.26,0.02431
6970.47,0.02796
6964.69,0.02432
6958.9,0.03004
6953.11,0.02443
6947.33,0.02561
6941.54,0.02279
6935.75,0.02600
6929.97,0.02343
6924.18,0.02253
6918.4,0.02145
6912.61,0.02777
6906.82,0.02336
6901.04,0.02442
6895.25,0.02084
6889.46,0.02561
6883.68,0.02517
6877.89,0.02669
6872.11,0.03007
6866.32,0.02435
6860.53,0.02173
6854.75,0.02290
6848.96,0.02421
6843.17,0.02234
6837.39,0.02512
6831.6,0.02303
6825.82,0.02791
6820.03,0.02748
6814.24,0.02756
6808.46,0.02371
6802.67,0.02349
6796.88,0.02252
6791.1,0.02417
6785.31,0.02583
6779.53,0.02213
6773.74,0.02415
6767.95,0.02795
6762.17,0.02667
6756.38,0.02309
6750.6,0.02084
6744.81,0.02488
6739.02,0.02236
6733.24,0.02732
6727.45,0.02317
6721.66,0.01897
6715.88,0.02625
6710.09,0.02583
6704.31,0.02685
6698.52,0.02330
6692.73,0.02575
6686.95,0.01941
6681.16,0.02300
6675.37,0.02533
6669.59,0.02005
6663.8,0.01915
6658.02,0.02275
6652.23,0.02027
6646.44,0.02675
6640.66,0.02470
6634.87,0.02448
6629.08,0.02707
6623.3,0.02460
6617.51,0.02413
6611.73,0.02357
6605.94,0.02374
6600.15,0.02374
6594.37,0.02314
6588.58,0.02524
6582.79,0.02425
6577.01,0.02272
6571.22,0.02495
6565.44,0.02337
6559.65,0.01987
6553.86,0.02451
6548.08,0.02286
6542.29,0.02445
6536.5,0.02114
6530.72,0.02766
6524.93,0.02749
6519.15,0.01708
6513.36,0.02404
6507.57,0.02589
6501.79,0.02594
6496,0.02186
6490.21,0.01916
6484.43,0.02312
6478.64,0.02375
6472.86,0.02248
6467.07,0.02670
6461.28,0.01911
6455.5,0.02136
6449.71,0.01919
6443.93,0.02102
6438.14,0.02417
6432.35,0.02212
6426.57,0.02000
6420.78,0.02461
6414.99,0.02036
6409.21,0.02455
6403.42,0.02483
6397.64,0.02220
6391.85,0.02038
6386.06,0.02244
6380.28,0.02190
6374.49,0.02337
6368.7,0.02586
6362.92,0.02309
6357.13,0.01741
6351.35,0.02024
6345.56,0.01952
6339.77,0.01910
6333.99,0.02404
6328.2,0.02180
6322.41,0.02123
6316.63,0.02399
6310.84,0.02214
6305.06,0.02471
6299.27,0.02568
6293.48,0.02248
6287.7,0.02082
6281.91,0.01864
6276.12,0.02208
6270.34,0.02219
6264.55,0.02023
6258.77,0.02548
6252.98,0.02181
6247.19,0.01844
6241.41,0.02099
6235.62,0.02226
6229.83,0.02194
6224.05,0.02118
6218.26,0.02292
6212.48,0.02433
6206.69,0.02028
6200.9,0.02069
6195.12,0.02258
6189.33,0.02390
6183.55,0.02154
6177.76,0.02391
6171.97,0.02615
6166.19,0.02298
6160.4,0.02223
6154.61,0.02295
6148.83,0.02505
6143.04,0.02493
6137.26,0.02364
6131.47,0.02243
6125.68,0.02234
6119.9,0.02137
6114.11,0.02034
6108.32,0.02395
6102.54,0.02114
6096.75,0.02314
6090.97,0.02155
6085.18,0.02105
6079.39,0.02050
6073.61,0.02258
6067.82,0.02291
6062.03,0.02250
6056.25,0.02491
6050.46,0.02028
6044.68,0.02394
6038.89,0.02369
6033.1,0.02683
6027.32,0.02297
6021.53,0.01797
6015.74,0.01905
6009.96,0.01867
6004.17,0.02264
5998.39,0.02235
5992.6,0.02398
5986.81,0.02442
5981.03,0.02659
5975.24,0.02595
5969.45,0.02195
5963.67,0.02136
5957.88,0.02457
5952.1,0.02127
5946.31,0.02196
5940.52,0.02482
5934.74,0.02392
5928.95,0.02184
5923.16,0.02250
5917.38,0.02012
5911.59,0.02232
5905.81,0.02435
5900.02,0.02376
5894.23,0.02355
5888.45,0.02787
5882.66,0.02410
5876.88,0.02123
5871.09,0.02013
5865.3,0.02073
5859.52,0.02407
5853.73,0.02093
5847.94,0.02321
5842.16,0.02096
5836.37,0.02260
5830.59,0.02155
5824.8,0.02247
5819.01,0.02577
5813.23,0.02126
5807.44,0.02283
5801.65,0.02143
5795.87,0.02353
5790.08,0.02301
5784.3,0.02222
5778.51,0.02365
5772.72,0.02237
5766.94,0.02404
5761.15,0.02361
5755.36,0.02193
5749.58,0.02088
5743.79,0.01910
5738.01,0.02326
5732.22,0.02392
5726.43,0.02373
5720.65,0.02386
5714.86,0.02439
5709.07,0.02337
5703.29,0.02246
5697.5,0.02220
5691.72,0.02154
5685.93,0.02253
5680.14,0.02168
5674.36,0.02218
5668.57,0.02399
5662.78,0.02239
5657,0.02367
5651.21,0.02232
5645.43,0.02281
5639.64,0.02410
5633.85,0.02467
5628.07,0.02391
5622.28,0.02281
5616.5,0.02513
5610.71,0.02472
5604.92,0.02212
5599.14,0.02294
5593.35,0.02382
5587.56,0.02282
5581.78,0.02300
5575.99,0.02294
5570.21,0.02197
5564.42,0.02284
5558.63,0.02564
5552.85,0.02285
5547.06,0.02129
5541.27,0.02476
5535.49,0.02258
5529.7,0.02208
5523.92,0.02485
5518.13,0.02220
5512.34,0.02229
5506.56,0.02206
5500.77,0.02469
5494.98,0.02299
5489.2,0.02382
5483.41,0.02379
5477.63,0.02192
5471.84,0.02429
5466.05,0.02210
5460.27,0.02434
5454.48,0.02342
5448.69,0.02280
5442.91,0.02245
5437.12,0.02426
5431.34,0.02279
5425.55,0.02402
5419.76,0.02249
5413.98,0.02430
5408.19,0.02416
5402.4,0.02329
5396.62,0.02349
5390.83,0.02306
5385.05,0.02472
5379.26,0.02220
5373.47,0.02235
5367.69,0.02319
5361.9,0.02444
5356.11,0.02382
5350.33,0.02185
5344.54,0.02312
5338.76,0.02343
5332.97,0.02451
5327.18,0.02222
5321.4,0.02285
5315.61,0.02338
5309.83,0.02239
5304.04,0.02382
5298.25,0.02288
5292.47,0.02314
5286.68,0.02407
5280.89,0.02268
5275.11,0.02363
5269.32,0.02356
5263.54,0.02269
5257.75,0.02319
5251.96,0.02305
5246.18,0.02238
5240.39,0.02263
5234.6,0.02349
5228.82,0.02293
5223.03,0.02273
5217.25,0.02272
5211.46,0.02377
5205.67,0.02302
5199.89,0.02332
5194.1,0.02386
5188.31,0.02292
5182.53,0.02458
5176.74,0.02420
5170.96,0.02208
5165.17,0.02387
5159.38,0.02343
5153.6,0.02135
5147.81,0.02318
5142.02,0.02254
5136.24,0.02379
5130.45,0.02382
5124.67,0.02303
5118.88,0.02449
5113.09,0.02390
5107.31,0.02385
5101.52,0.02214
5095.73,0.02275
5089.95,0.02420
5084.16,0.02267
5078.38,0.02270
5072.59,0.02463
5066.8,0.02474
5061.02,0.02346
5055.23,0.02272
5049.45,0.02231
5043.66,0.02358
5037.87,0.02251
5032.09,0.02265
5026.3,0.02329
5020.51,0.02352
5014.73,0.02328
5008.94,0.02322
5003.16,0.02343
4997.37,0.02345
4991.58,0.02222
4985.8,0.02373
4980.01,0.02238
4974.22,0.02320
4968.44,0.02344
4962.65,0.02349
4956.87,0.02329
4951.08,0.02324
4945.29,0.02334
4939.51,0.02223
4933.72,0.02339
4927.93,0.02261
4922.15,0.02234
4916.36,0.02137
4910.58,0.02326
4904.79,0.02351
4899,0.02284
4893.22,0.02319
4887.43,0.02292
4881.64,0.02265
4875.86,0.02319
4870.07,0.02214
4864.29,0.02431
4858.5,0.02316
4852.71,0.02309
4846.93,0.02339
4841.14,0.02312
4835.35,0.02332
4829.57,0.02253
4823.78,0.02360
4818,0.02277
4812.21,0.02289
4806.42,0.02313
4800.64,0.02313
4794.85,0.02263
4789.06,0.02289
4783.28,0.02326
4777.49,0.02259
4771.71,0.02431
4765.92,0.02328
4760.13,0.02392
4754.35,0.02325
4748.56,0.02479
4742.78,0.02309
4736.99,0.02332
4731.2,0.02365
4725.42,0.02358
4719.63,0.02298
4713.84,0.02337
4708.06,0.02340
4702.27,0.02371
4696.49,0.02357
4690.7,0.02364
4684.91,0.02311
4679.13,0.02365
4673.34,0.02349
4667.55,0.02329
4661.77,0.02349
4655.98,0.02352
4650.2,0.02339
4644.41,0.02342
4638.62,0.02324
4632.84,0.02372
4627.05,0.02359
4621.26,0.02337
4615.48,0.02306
4609.69,0.02279
4603.91,0.02226
4598.12,0.02349
4592.33,0.02364
4586.55,0.02359
4580.76,0.02362
4574.97,0.02380
4569.19,0.02302
4563.4,0.02321
4557.62,0.02360
4551.83,0.02332
4546.04,0.02390
4540.26,0.02355
4534.47,0.02338
4528.68,0.02349
4522.9,0.02423
4517.11,0.02262
4511.33,0.02307
4505.54,0.02275
4499.75,0.02333
4493.97,0.02284
4488.18,0.02320
4482.4,0.02290
4476.61,0.02392
4470.82,0.02389
4465.04,0.02333
4459.25,0.02411
4453.46,0.02419
4447.68,0.02343
4441.89,0.02342
4436.11,0.02382
4430.32,0.02379
4424.53,0.02315
4418.75,0.02316
4412.96,0.02354
4407.17,0.02282
4401.39,0.02367
4395.6,0.02325
4389.82,0.02287
4384.03,0.02391
4378.24,0.02312
4372.46,0.02373
4366.67,0.02384
4360.88,0.02343
4355.1,0.02310
4349.31,0.02329
4343.53,0.02309
4337.74,0.02355
4331.95,0.02332
4326.17,0.02335
4320.38,0.02400
4314.59,0.02399
4308.81,0.02313
4303.02,0.02369
4297.24,0.02375
4291.45,0.02365
4285.66,0.02400
4279.88,0.02319
4274.09,0.02359
4268.3,0.02393
4262.52,0.02379
4256.73,0.02291
4250.95,0.02359
4245.16,0.02356
4239.37,0.02304
4233.59,0.02345
4227.8,0.02392
4222.02,0.02322
4216.23,0.02293
4210.44,0.02371
4204.66,0.02362
4198.87,0.02393
4193.08,0.02344
4187.3,0.02318
4181.51,0.02332
4175.73,0.02261
4169.94,0.02375
4164.15,0.02345
4158.37,0.02335
4152.58,0.02325
4146.79,0.02392
4141.01,0.02434
4135.22,0.02368
4129.44,0.02360
4123.65,0.02354
4117.86,0.02416
4112.08,0.02313
4106.29,0.02398
4100.5,0.02370
4094.72,0.02406
4088.93,0.02352
4083.15,0.02384
4077.36,0.02363
4071.57,0.02362
4065.79,0.02387
4060,0.02387
4054.21,0.02328
4048.43,0.02379
4042.64,0.02409
4036.86,0.02365
4031.07,0.02324
4025.28,0.02355
4019.5,0.02340
4013.71,0.02410
4007.92,0.02365
4002.14,0.02353
3996.35,0.02386
3990.57,0.02323
3984.78,0.02335
3978.99,0.02402
3973.21,0.02384
3967.42,0.02382
3961.63,0.02393
3955.85,0.02322
3950.06,0.02368
3944.28,0.02374
3938.49,0.02354
3932.7,0.02386
3926.92,0.02360
3921.13,0.02376
3915.35,0.02367
3909.56,0.02395
3903.77,0.02421
3897.99,0.02354
3892.2,0.02388
3886.41,0.02378
3880.63,0.02417
3874.84,0.02400
3869.06,0.02401
3863.27,0.02413
3857.48,0.02415
3851.7,0.02373
3845.91,0.02412
3840.12,0.02403
3834.34,0.02401
3828.55,0.02406
3822.77,0.02353
3816.98,0.02396
3811.19,0.02392
3805.41,0.02351
3799.62,0.02415
3793.83,0.02447
3788.05,0.02385
3782.26,0.02372
3776.48,0.02435
3770.69,0.02339
3764.9,0.02344
3759.12,0.02347
3753.33,0.02344
3747.54,0.02459
3741.76,0.02430
3735.97,0.02447
3730.19,0.02402
3724.4,0.02394
3718.61,0.02350
3712.83,0.02393
3707.04,0.02388
3701.25,0.02372
3695.47,0.02374
3689.68,0.02433
3683.9,0.02426
3678.11,0.02330
3672.32,0.02381
3666.54,0.02319
3660.75,0.02372
3654.97,0.02336
3649.18,0.02343
3643.39,0.02410
3637.61,0.02349
3631.82,0.02327
3626.03,0.02334
3620.25,0.02351
3614.46,0.02332
3608.68,0.02294
3602.89,0.02346
3597.1,0.02307
3591.32,0.02311
3585.53,0.02321
3579.74,0.02295
3573.96,0.02268
3568.17,0.02231
3562.39,0.02246
3556.6,0.02245
3550.81,0.02237
3545.03,0.02276
3539.24,0.02178
3533.45,0.02196
3527.67,0.02201
3521.88,0.02158
3516.1,0.02193
3510.31,0.02161
3504.52,0.02168
3498.74,0.02228
3492.95,0.02198
3487.16,0.02262
3481.38,0.02231
3475.59,0.02225
3469.81,0.02217
3464.02,0.02233
3458.23,0.02166
3452.45,0.02154
3446.66,0.02159
3440.87,0.02128
3435.09,0.02192
3429.3,0.02201
3423.52,0.02098
3417.73,0.02210
3411.94,0.02159
3406.16,0.02118
3400.37,0.02133
3394.58,0.02244
3388.8,0.02233
3383.01,0.02186
3377.23,0.02103
3371.44,0.02178
3365.65,0.02142
3359.87,0.02141
3354.08,0.02139
3348.3,0.02118
3342.51,0.02150
3336.72,0.02135
3330.94,0.02159
3325.15,0.02148
3319.36,0.02090
3313.58,0.02014
3307.79,0.02089
3302.01,0.02099
3296.22,0.02168
3290.43,0.02181
3284.65,0.02224
3278.86,0.02196
3273.07,0.02176
3267.29,0.02126
3261.5,0.02202
3255.72,0.02169
3249.93,0.02175
3244.14,0.02213
3238.36,0.02079
3232.57,0.02155
3226.78,0.02180
3221,0.02171
3215.21,0.02125
3209.43,0.02162
3203.64,0.02171
3197.85,0.02266
3192.07,0.02209
3186.28,0.02302
3180.49,0.02168
3174.71,0.02201
3168.92,0.02188
3163.14,0.02207
3157.35,0.02194
3151.56,0.02224
3145.78,0.02242
3139.99,0.02162
3134.2,0.02189
3128.42,0.02182
3122.63,0.02247
3116.85,0.02207
3111.06,0.02243
3105.27,0.02246
3099.49,0.02184
3093.7,0.02242
3087.92,0.02203
3082.13,0.02210
3076.34,0.02207
3070.56,0.02183
3064.77,0.02230
3058.98,0.02258
3053.2,0.02173
3047.41,0.02177
3041.63,0.02238
3035.84,0.02201
3030.05,0.02248
3024.27,0.02221
3018.48,0.02187
3012.69,0.02192
3006.91,0.02140
3001.12,0.02174
2995.34,0.02119
2989.55,0.02160
2983.76,0.02105
2977.98,0.02123
2972.19,0.02135
2966.4,0.02131
2960.62,0.02075
2954.83,0.02039
2949.05,0.02123
2943.26,0.02098
2937.47,0.02070
2931.69,0.02151
2925.9,0.02122
2920.11,0.02148
2914.33,0.02156
2908.54,0.02143
2902.76,0.02135
2896.97,0.02135
2891.18,0.02205
2885.4,0.02174
2879.61,0.02189
2873.82,0.02181
2868.04,0.02135
2862.25,0.02157
2856.47,0.02209
2850.68,0.02179
2844.89,0.02228
2839.11,0.02242
2833.32,0.02244
2827.53,0.02223
2821.75,0.02230
2815.96,0.02235
2810.18,0.02268
2804.39,0.02302
2798.6,0.02264
2792.82,0.02252
2787.03,0.02285
2781.25,0.02228
2775.46,0.02226
2769.67,0.02319
2763.89,0.02284
2758.1,0.02228
2752.31,0.02272
2746.53,0.02240
2740.74,0.02249
2734.96,0.02303
2729.17,0.02241
2723.38,0.02268
2717.6,0.02269
2711.81,0.02305
2706.02,0.02269
2700.24,0.02278
2694.45,0.02265
2688.67,0.02273
2682.88,0.02271
2677.09,0.02305
2671.31,0.02248
2665.52,0.02264
2659.73,0.02273
2653.95,0.02293
2648.16,0.02256
2642.38,0.02284
2636.59,0.02263
2630.8,0.02273
2625.02,0.02308
2619.23,0.02270
2613.44,0.02266
2607.66,0.02295
2601.87,0.02281
2596.09,0.02303
2590.3,0.02282
2584.51,0.02229
2578.73,0.02302
2572.94,0.02318
2567.15,0.02262
2561.37,0.02283
2555.58,0.02267
2549.8,0.02315
2544.01,0.02302
2538.22,0.02240
2532.44,0.02276
2526.65,0.02302
2520.87,0.02270
2515.08,0.02310
2509.29,0.02308
2503.51,0.02309
2497.72,0.02292
2491.93,0.02270
2486.15,0.02335
2480.36,0.02297
2474.58,0.02269
2468.79,0.02250
2463,0.02297
2457.22,0.02266
2451.43,0.02266
2445.64,0.02287
2439.86,0.02270
2434.07,0.02276
2428.29,0.02291
2422.5,0.02284
2416.71,0.02271
2410.93,0.02278
2405.14,0.02278
2399.35,0.02259
2393.57,0.02248
2387.78,0.02276
2382,0.02307
2376.21,0.02269
2370.42,0.02243
2364.64,0.02287
2358.85,0.02258
2353.06,0.02259
2347.28,0.02316
2341.49,0.02288
2335.71,0.02258
2329.92,0.02233
2324.13,0.02267
2318.35,0.02299
2312.56,0.02291
2306.77,0.02296
2300.99,0.02263
2295.2,0.02303
2289.42,0.02269
2283.63,0.02277
2277.84,0.02292
2272.06,0.02232
2266.27,0.02269
2260.48,0.02261
2254.7,0.02278
2248.91,0.02245
2243.13,0.02239
2237.34,0.02229
2231.55,0.02267
2225.77,0.02264
2219.98,0.02256
2214.2,0.02245
2208.41,0.02281
2202.62,0.02299
2196.84,0.02251
2191.05,0.02286
2185.26,0.02266
2179.48,0.02259
2173.69,0.02264
2167.91,0.02286
2162.12,0.02267
2156.33,0.02236
2150.55,0.02269
2144.76,0.02248
2138.97,0.02278
2133.19,0.02244
2127.4,0.02263
2121.62,0.02263
2115.83,0.02257
2110.04,0.02245
2104.26,0.02273
2098.47,0.02255
2092.68,0.02270
2086.9,0.02257
2081.11,0.02266
2075.33,0.02219
2069.54,0.02253
2063.75,0.02289
2057.97,0.02280
2052.18,0.02254
2046.39,0.02247
2040.61,0.02240
2034.82,0.02214
2029.04,0.02236
2023.25,0.02268
2017.46,0.02277
2011.68,0.02264
2005.89,0.02233
2000.1,0.02223
1994.32,0.02265
1988.53,0.02241
1982.75,0.02213
1976.96,0.02239
1971.17,0.02242
1965.39,0.02258
1959.6,0.02268
1953.82,0.02232
1948.03,0.02257
1942.24,0.02209
1936.46,0.02221
1930.67,0.02265
1924.88,0.02238
1919.1,0.02227
1913.31,0.02263
1907.53,0.02256
1901.74,0.02215
1895.95,0.02241
1890.17,0.02211
1884.38,0.02226
1878.59,0.02229
1872.81,0.02230
1867.02,0.02227
1861.24,0.02238
1855.45,0.02207
1849.66,0.02198
1843.88,0.02229
1838.09,0.02182
1832.3,0.02188
1826.52,0.02189
1820.73,0.02161
1814.95,0.02167
1809.16,0.02197
1803.37,0.02134
1797.59,0.02123
1791.8,0.02113
1786.01,0.02105
1780.23,0.02055
1774.44,0.02066
1768.66,0.02013
1762.87,0.01983
1757.08,0.01901
1751.3,0.01879
1745.51,0.01923
1739.72,0.01996
1733.94,0.02131
1728.15,0.02171
1722.37,0.02223
1716.58,0.02213
1710.79,0.02156
1705.01,0.02154
1699.22,0.02061
1693.43,0.02073
1687.65,0.02069
1681.86,0.02030
1676.08,0.02043
1670.29,0.02021
1664.5,0.01971
1658.72,0.01980
1652.93,0.01992
1647.15,0.01977
1641.36,0.02026
1635.57,0.02033
1629.79,0.02010
1624,0.02027
1618.21,0.02011
1612.43,0.02006
1606.64,0.02001
1600.86,0.02085
1595.07,0.02065
1589.28,0.02029
1583.5,0.02015
1577.71,0.01994
1571.92,0.01972
1566.14,0.01959
1560.35,0.01958
1554.57,0.01952
1548.78,0.02021
1542.99,0.01993
1537.21,0.02011
1531.42,0.02033
1525.63,0.01999
1519.85,0.02026
1514.06,0.02008
1508.28,0.02018
1502.49,0.02030
1496.7,0.02044
1490.92,0.02064
1485.13,0.02017
1479.34,0.01973
1473.56,0.01967
1467.77,0.01989
1461.99,0.02000
1456.2,0.01994
1450.41,0.01986
1444.63,0.02007
1438.84,0.01979
1433.05,0.02031
1427.27,0.02016
1421.48,0.02011
1415.7,0.02013
1409.91,0.01974
1404.12,0.01953
1398.34,0.01949
1392.55,0.01950
1386.77,0.01956
1380.98,0.01971
1375.19,0.01979
1369.41,0.01995
1363.62,0.01965
1357.83,0.01999
1352.05,0.01942
1346.26,0.01914
1340.48,0.01932
1334.69,0.01907
1328.9,0.01909
1323.12,0.01864
1317.33,0.01837
1311.54,0.01821
1305.76,0.01808
1299.97,0.01834
1294.19,0.01899
1288.4,0.01941
1282.61,0.02010
1276.83,0.02052
1271.04,0.02095
1265.25,0.02080
1259.47,0.02133
1253.68,0.02130
1247.9,0.02143
1242.11,0.02127
1236.32,0.02120
1230.54,0.02129
1224.75,0.02117
1218.96,0.02074
1213.18,0.02068
1207.39,0.02018
1201.61,0.02019
1195.82,0.02018
1190.03,0.02042
1184.25,0.01950
1178.46,0.01937
1172.67,0.01947
1166.89,0.01932
1161.1,0.01948
1155.32,0.01918
1149.53,0.01846
1143.74,0.01896
1137.96,0.01913
1132.17,0.01940
1126.38,0.01960
1120.6,0.01962
1114.81,0.02065
1109.03,0.02016
1103.24,0.01977
1097.45,0.01920
1091.67,0.02008
1085.88,0.02005
1080.1,0.02033
1074.31,0.02102
1068.52,0.02129
1062.74,0.02149
1056.95,0.02114
1051.16,0.02077
1045.38,0.02076
1039.59,0.02140
1033.81,0.02061
1028.02,0.02056
1022.23,0.02049
1016.45,0.02126
1010.66,0.02156
1004.87,0.02196
999.088,0.02248
993.302,0.02313
987.516,0.02222
981.729,0.02225
975.943,0.02170
970.157,0.02156
964.371,0.02120
958.585,0.02151
952.798,0.02160
947.012,0.02132
941.226,0.02185
935.44,0.02075
929.653,0.02058
923.867,0.02103
918.081,0.02133
912.295,0.02091
906.508,0.02059
900.722,0.02018
894.936,0.02088
889.15,0.02063
883.364,0.02051
877.577,0.01989
871.791,0.02078
866.005,0.02032
860.219,0.02051
854.432,0.02041
848.646,0.02058
842.86,0.02100
837.074,0.02100
831.288,0.01999
825.501,0.02017
819.715,0.02115
813.929,0.02001
808.143,0.01955
802.356,0.01983
796.57,0.02049
790.784,0.02045
784.998,0.01992
779.212,0.01971
773.425,0.01912
767.639,0.02000
761.853,0.01965
756.067,0.01938
750.28,0.01926
744.494,0.02027
738.708,0.02080
732.922,0.02002
727.136,0.01999
721.349,0.02037
715.563,0.01927
709.777,0.01981
703.991,0.01831
698.204,0.01920
692.418,0.01909
686.632,0.01987
680.846,0.01903
675.059,0.01900
669.273,0.01912
663.487,0.01858
657.701,0.01917
651.915,0.01992
646.128,0.01763
640.342,0.01809
634.556,0.01755
628.77,0.01608
622.983,0.01770
617.197,0.01557
611.411,0.01739
605.625,0.01752
599.839,0.01810