File: 01_Data/PET/FTIR/IS/PET_IS_S_220831_R3.dpt
7497.03,0.52299
7491.25,0.51645
7485.46,0.50733
7479.67,0.50529
7473.89,0.49702
7468.1,0.50185
7462.32,0.48722
7456.53,0.47946
7450.74,0.47363
7444.96,0.46997
7439.17,0.45669
7433.38,0.44356
7427.6,0.43872
7421.81,0.42897
7416.03,0.41619
7410.24,0.41043
7404.45,0.39476
7398.67,0.39700
7392.88,0.38862
7387.09,0.38234
7381.31,0.37909
7375.52,0.38121
7369.74,0.36839
7363.95,0.36071
7358.16,0.35682
7352.38,0.35287
7346.59,0.35311
7340.8,0.34621
7335.02,0.35581
7329.23,0.35209
7323.45,0.35232
7317.66,0.35204
7311.87,0.34560
7306.09,0.34954
7300.3,0.35767
7294.51,0.36025
7288.73,0.35091
7282.94,0.35034
7277.16,0.34880
7271.37,0.34602
7265.58,0.34577
7259.8,0.33757
7254.01,0.33787
7248.22,0.34224
7242.44,0.33264
7236.65,0.33787
7230.87,0.33928
7225.08,0.33736
7219.29,0.33145
7213.51,0.33379
7207.72,0.33092
7201.93,0.33174
7196.15,0.32632
7190.36,0.33046
7184.58,0.32250
7178.79,0.32560
7173,0.32413
7167.22,0.32207
7161.43,0.32269
7155.65,0.32051
7149.86,0.31588
7144.07,0.31306
7138.29,0.30465
7132.5,0.30009
7126.71,0.29313
7120.93,0.29038
7115.14,0.29802
7109.36,0.29674
7103.57,0.29339
7097.78,0.29285
7092,0.29303
7086.21,0.29771
7080.42,0.28774
7074.64,0.28979
7068.85,0.28826
7063.07,0.29204
7057.28,0.29257
7051.49,0.29171
7045.71,0.29075
7039.92,0.29799
7034.13,0.29757
7028.35,0.29632
7022.56,0.30206
7016.78,0.30522
7010.99,0.31120
7005.2,0.31325
6999.42,0.31471
6993.63,0.31711
6987.84,0.31469
6982.06,0.32851
6976.27,0.32023
6970.49,0.32856
6964.7,0.33075
6958.91,0.33555
6953.13,0.33678
6947.34,0.34036
6941.55,0.34356
6935.77,0.34707
6929.98,0.34375
6924.2,0.34947
6918.41,0.35263
6912.62,0.35611
6906.84,0.35635
6901.05,0.35971
6895.26,0.36550
6889.48,0.36119
6883.69,0.36466
6877.91,0.36335
6872.12,0.36780
6866.33,0.37045
6860.55,0.36503
6854.76,0.36368
6848.97,0.37197
6843.19,0.37471
6837.4,0.37173
6831.62,0.37519
6825.83,0.37666
6820.04,0.38130
6814.26,0.38171
6808.47,0.38466
6802.68,0.39218
6796.9,0.39259
6791.11,0.39116
6785.33,0.39472
6779.54,0.39660
6773.75,0.40707
6767.97,0.40453
6762.18,0.40915
6756.39,0.41054
6750.61,0.40939
6744.82,0.41791
6739.04,0.41861
6733.25,0.42793
6727.46,0.42014
6721.68,0.42661
6715.89,0.43082
6710.1,0.43151
6704.32,0.42901
6698.53,0.42632
6692.75,0.43161
6686.96,0.43038
6681.17,0.43086
6675.39,0.43237
6669.6,0.43670
6663.82,0.43245
6658.03,0.43694
6652.24,0.43777
6646.46,0.43207
6640.67,0.43807
6634.88,0.43919
6629.1,0.44356
6623.31,0.44359
6617.53,0.44579
6611.74,0.45432
6605.95,0.45032
6600.17,0.45269
6594.38,0.45091
6588.59,0.45437
6582.81,0.45681
6577.02,0.45485
6571.24,0.45836
6565.45,0.45758
6559.66,0.45523
6553.88,0.45315
6548.09,0.45668
6542.3,0.45095
6536.52,0.44925
6530.73,0.45232
6524.95,0.45018
6519.16,0.44962
6513.37,0.44545
6507.59,0.44927
6501.8,0.44958
6496.01,0.44679
6490.23,0.45019
6484.44,0.44793
6478.66,0.44651
6472.87,0.44630
6467.08,0.45043
6461.3,0.44846
6455.51,0.44333
6449.72,0.44369
6443.94,0.43799
6438.15,0.44078
6432.37,0.43731
6426.58,0.44177
6420.79,0.44135
6415.01,0.43419
6409.22,0.43743
6403.43,0.43669
6397.65,0.43725
6391.86,0.43599
6386.08,0.43711
6380.29,0.43659
6374.5,0.43530
6368.72,0.43435
6362.93,0.43751
6357.14,0.43468
6351.36,0.42819
6345.57,0.42486
6339.79,0.41638
6334,0.41680
6328.21,0.41484
6322.43,0.41107
6316.64,0.40934
6310.85,0.40976
6305.07,0.40722
6299.28,0.41016
6293.5,0.40882
6287.71,0.40507
6281.92,0.40289
6276.14,0.39823
6270.35,0.38983
6264.56,0.38040
6258.78,0.37658
6252.99,0.36959
6247.21,0.36558
6241.42,0.36298
6235.63,0.35393
6229.85,0.34995
6224.06,0.34442
6218.27,0.33457
6212.49,0.31409
6206.7,0.29527
6200.92,0.27679
6195.13,0.26121
6189.34,0.26129
6183.56,0.26554
6177.77,0.27060
6171.98,0.26891
6166.2,0.26554
6160.41,0.25550
6154.63,0.24472
6148.84,0.23206
6143.05,0.22350
6137.27,0.22296
6131.48,0.22155
6125.7,0.21320
6119.91,0.20722
6114.12,0.19326
6108.34,0.17923
6102.55,0.16068
6096.76,0.14412
6090.98,0.13594
6085.19,0.12374
6079.41,0.11970
6073.62,0.11303
6067.83,0.10487
6062.05,0.09608
6056.26,0.09458
6050.47,0.09275
6044.69,0.09051
6038.9,0.08542
6033.12,0.08291
6027.33,0.08111
6021.54,0.07890
6015.76,0.08053
6009.97,0.08057
6004.18,0.08625
5998.4,0.08813
5992.61,0.09222
5986.83,0.09383
5981.04,0.09185
5975.25,0.09409
5969.47,0.09870
5963.68,0.10361
5957.89,0.10341
5952.11,0.10703
5946.32,0.10568
5940.54,0.10857
5934.75,0.11113
5928.96,0.11403
5923.18,0.11830
5917.39,0.12784
5911.6,0.13329
5905.82,0.14006
5900.03,0.14025
5894.25,0.13645
5888.46,0.13137
5882.67,0.12669
5876.89,0.12485
5871.1,0.12222
5865.31,0.11902
5859.53,0.11728
5853.74,0.12169
5847.96,0.12493
5842.17,0.12577
5836.38,0.12492
5830.6,0.12461
5824.81,0.12286
5819.02,0.12036
5813.24,0.11925
5807.45,0.11930
5801.67,0.12098
5795.88,0.12257
5790.09,0.12625
5784.31,0.12291
5778.52,0.12523
5772.73,0.12472
5766.95,0.12913
5761.16,0.12910
5755.38,0.13337
5749.59,0.13807
5743.8,0.14137
5738.02,0.14259
5732.23,0.14945
5726.44,0.15207
5720.66,0.15403
5714.87,0.15258
5709.09,0.15255
5703.3,0.15197
5697.51,0.15389
5691.73,0.15633
5685.94,0.15887
5680.15,0.16362
5674.37,0.16286
5668.58,0.16367
5662.8,0.16325
5657.01,0.16220
5651.22,0.16321
5645.44,0.16665
5639.65,0.16964
5633.87,0.17220
5628.08,0.17554
5622.29,0.17748
5616.51,0.18203
5610.72,0.17907
5604.93,0.18032
5599.15,0.17840
5593.36,0.17449
5587.58,0.17361
5581.79,0.17163
5576,0.16711
5570.22,0.16747
5564.43,0.16569
5558.64,0.16480
5552.86,0.16511
5547.07,0.16480
5541.29,0.16526
5535.5,0.16480
5529.71,0.16388
5523.93,0.16671
5518.14,0.16594
5512.35,0.16821
5506.57,0.17013
5500.78,0.16963
5495,0.16738
5489.21,0.16463
5483.42,0.16102
5477.64,0.16272
5471.85,0.16317
5466.06,0.16346
5460.28,0.16757
5454.49,0.17009
5448.71,0.17462
5442.92,0.17923
5437.13,0.18331
5431.35,0.18697
5425.56,0.18822
5419.77,0.18888
5413.99,0.18893
5408.2,0.18779
5402.42,0.18876
5396.63,0.18592
5390.84,0.18378
5385.06,0.18718
5379.27,0.18532
5373.48,0.18255
5367.7,0.18191
5361.91,0.18079
5356.13,0.17918
5350.34,0.17761
5344.55,0.17587
5338.77,0.17855
5332.98,0.17854
5327.19,0.17919
5321.41,0.17881
5315.62,0.17847
5309.84,0.17657
5304.05,0.17144
5298.26,0.16661
5292.48,0.16063
5286.69,0.15263
5280.9,0.14475
5275.12,0.13430
5269.33,0.12605
5263.55,0.12040
5257.76,0.11811
5251.97,0.11425
5246.19,0.11432
5240.4,0.11497
5234.61,0.11664
5228.83,0.11880
5223.04,0.12347
5217.26,0.12838
5211.47,0.13160
5205.68,0.13638
5199.9,0.14197
5194.11,0.14634
5188.32,0.14871
5182.54,0.15062
5176.75,0.15086
5170.97,0.15021
5165.18,0.14927
5159.39,0.14621
5153.61,0.14288
5147.82,0.14107
5142.03,0.13777
5136.25,0.13399
5130.46,0.12805
5124.68,0.12429
5118.89,0.12134
5113.1,0.12505
5107.32,0.13212
5101.53,0.13816
5095.75,0.14362
5089.96,0.15001
5084.17,0.15566
5078.39,0.15935
5072.6,0.16271
5066.81,0.16577
5061.03,0.16684
5055.24,0.16882
5049.46,0.16866
5043.67,0.16822
5037.88,0.16705
5032.1,0.16717
5026.31,0.16753
5020.52,0.16590
5014.74,0.16469
5008.95,0.16537
5003.17,0.16671
4997.38,0.16701
4991.59,0.16903
4985.81,0.17106
4980.02,0.17152
4974.23,0.17040
4968.45,0.17070
4962.66,0.16994
4956.88,0.16654
4951.09,0.16376
4945.3,0.16165
4939.52,0.16081
4933.73,0.15762
4927.94,0.15600
4922.16,0.15547
4916.37,0.15401
4910.59,0.15176
4904.8,0.15155
4899.01,0.14921
4893.23,0.14859
4887.44,0.14666
4881.65,0.14595
4875.87,0.14496
4870.08,0.14360
4864.3,0.14220
4858.51,0.13954
4852.72,0.13922
4846.94,0.13620
4841.15,0.13056
4835.36,0.12502
4829.58,0.12063
4823.79,0.11526
4818.01,0.11084
4812.22,0.10814
4806.43,0.10604
4800.65,0.10366
4794.86,0.10340
4789.07,0.10496
4783.29,0.10609
4777.5,0.10787
4771.72,0.11036
4765.93,0.10982
4760.14,0.10826
4754.36,0.10352
4748.57,0.09758
4742.78,0.09204
4737,0.08840
4731.21,0.08510
4725.43,0.08034
4719.64,0.07681
4713.85,0.07673
4708.07,0.07680
4702.28,0.07406
4696.49,0.07097
4690.71,0.07028
4684.92,0.07115
4679.14,0.07284
4673.35,0.07695
4667.56,0.07947
4661.78,0.08061
4655.99,0.08064
4650.2,0.07855
4644.42,0.07564
4638.63,0.07393
4632.85,0.07282
4627.06,0.07572
4621.27,0.07883
4615.49,0.08391
4609.7,0.08778
4603.92,0.08829
4598.13,0.08515
4592.34,0.08198
4586.56,0.07992
4580.77,0.07776
4574.98,0.07821
4569.2,0.08364
4563.41,0.08856
4557.63,0.09124
4551.84,0.09234
4546.05,0.09171
4540.27,0.09072
4534.48,0.08994
4528.69,0.08921
4522.91,0.08830
4517.12,0.08587
4511.34,0.08399
4505.55,0.08070
4499.76,0.07695
4493.98,0.07368
4488.19,0.07111
4482.4,0.07191
4476.62,0.06975
4470.83,0.06902
4465.05,0.06682
4459.26,0.06589
4453.47,0.06610
4447.69,0.06524
4441.9,0.06569
4436.11,0.06513
4430.33,0.06555
4424.54,0.06563
4418.76,0.06606
4412.97,0.06452
4407.18,0.06651
4401.4,0.06687
4395.61,0.06722
4389.82,0.06686
4384.04,0.06717
4378.25,0.06814
4372.47,0.06741
4366.68,0.06771
4360.89,0.06784
4355.11,0.06737
4349.32,0.06734
4343.53,0.06768
4337.75,0.06707
4331.96,0.06733
4326.18,0.06778
4320.39,0.06742
4314.6,0.06687
4308.82,0.06719
4303.03,0.06606
4297.24,0.06577
4291.46,0.06589
4285.67,0.06632
4279.89,0.06574
4274.1,0.06654
4268.31,0.06608
4262.53,0.06659
4256.74,0.06646
4250.95,0.06651
4245.17,0.06644
4239.38,0.06626
4233.6,0.06666
4227.81,0.06727
4222.02,0.06678
4216.24,0.06685
4210.45,0.06816
4204.66,0.06757
4198.88,0.06691
4193.09,0.06814
4187.31,0.06670
4181.52,0.06658
4175.73,0.06673
4169.95,0.06654
4164.16,0.06747
4158.37,0.06763
4152.59,0.06817
4146.8,0.06765
4141.02,0.06714
4135.23,0.06671
4129.44,0.06666
4123.66,0.06628
4117.87,0.06532
4112.09,0.06526
4106.3,0.06552
4100.51,0.06427
4094.73,0.06430
4088.94,0.06443
4083.15,0.06424
4077.37,0.06528
4071.58,0.06515
4065.8,0.06520
4060.01,0.06693
4054.22,0.06682
4048.44,0.06703
4042.65,0.06750
4036.86,0.06732
4031.08,0.06815
4025.29,0.06895
4019.51,0.06855
4013.72,0.06795
4007.93,0.06800
4002.15,0.06864
3996.36,0.06811
3990.57,0.06813
3984.79,0.06903
3979,0.06882
3973.22,0.06840
3967.43,0.06870
3961.64,0.06898
3955.86,0.06928
3950.07,0.06930
3944.28,0.06972
3938.5,0.06926
3932.71,0.06957
3926.93,0.06974
3921.14,0.06990
3915.35,0.07022
3909.57,0.07002
3903.78,0.07061
3897.99,0.07175
3892.21,0.07149
3886.42,0.07109
3880.64,0.07196
3874.85,0.07257
3869.06,0.07209
3863.28,0.07261
3857.49,0.07270
3851.7,0.07241
3845.92,0.07269
3840.13,0.07306
3834.35,0.07209
3828.56,0.07257
3822.77,0.07253
3816.99,0.07175
3811.2,0.07080
3805.41,0.07049
3799.63,0.07073
3793.84,0.07118
3788.06,0.07185
3782.27,0.07138
3776.48,0.07075
3770.7,0.07019
3764.91,0.07003
3759.12,0.06909
3753.34,0.07024
3747.55,0.07154
3741.77,0.07122
3735.98,0.07121
3730.19,0.07043
3724.41,0.07102
3718.62,0.07101
3712.83,0.07084
3707.05,0.06973
3701.26,0.06780
3695.48,0.06664
3689.69,0.06542
3683.9,0.06433
3678.12,0.06465
3672.33,0.06477
3666.54,0.06420
3660.76,0.06372
3654.97,0.06307
3649.19,0.06320
3643.4,0.06312
3637.61,0.06380
3631.83,0.06377
3626.04,0.06364
3620.25,0.06401
3614.47,0.06278
3608.68,0.06410
3602.9,0.06360
3597.11,0.06279
3591.32,0.06322
3585.54,0.06329
3579.75,0.06346
3573.97,0.06238
3568.18,0.06284
3562.39,0.06262
3556.61,0.06240
3550.82,0.06288
3545.03,0.06296
3539.25,0.06279
3533.46,0.06211
3527.68,0.06317
3521.89,0.06315
3516.1,0.06331
3510.32,0.06316
3504.53,0.06338
3498.74,0.06260
3492.96,0.06369
3487.17,0.06333
3481.39,0.06364
3475.6,0.06300
3469.81,0.06278
3464.03,0.06308
3458.24,0.06256
3452.45,0.06161
3446.67,0.06199
3440.88,0.06181
3435.1,0.06203
3429.31,0.06206
3423.52,0.06195
3417.74,0.06217
3411.95,0.06231
3406.16,0.06288
3400.38,0.06335
3394.59,0.06375
3388.81,0.06386
3383.02,0.06379
3377.23,0.06348
3371.45,0.06375
3365.66,0.06333
3359.87,0.06375
3354.09,0.06341
3348.3,0.06337
3342.52,0.06283
3336.73,0.06293
3330.94,0.06333
3325.16,0.06356
3319.37,0.06370
3313.58,0.06353
3307.8,0.06326
3302.01,0.06310
3296.23,0.06345
3290.44,0.06350
3284.65,0.06320
3278.87,0.06337
3273.08,0.06360
3267.29,0.06407
3261.51,0.06342
3255.72,0.06329
3249.94,0.06290
3244.15,0.06314
3238.36,0.06315
3232.58,0.06315
3226.79,0.06293
3221,0.06319
3215.22,0.06331
3209.43,0.06276
3203.65,0.06283
3197.86,0.06259
3192.07,0.06336
3186.29,0.06242
3180.5,0.06269
3174.71,0.06275
3168.93,0.06296
3163.14,0.06218
3157.36,0.06168
3151.57,0.06221
3145.78,0.06204
3140,0.06239
3134.21,0.06212
3128.42,0.06156
3122.64,0.06226
3116.85,0.06167
3111.07,0.06131
3105.28,0.06130
3099.49,0.06174
3093.71,0.06168
3087.92,0.06114
3082.14,0.06120
3076.35,0.06105
3070.56,0.06109
3064.78,0.06123
3058.99,0.06087
3053.2,0.06123
3047.42,0.06159
3041.63,0.06173
3035.85,0.06125
3030.06,0.06073
3024.27,0.06095
3018.49,0.06103
3012.7,0.06129
3006.91,0.06110
3001.13,0.06069
2995.34,0.06025
2989.56,0.06005
2983.77,0.06020
2977.98,0.06017
2972.2,0.06006
2966.41,0.06085
2960.62,0.06149
2954.84,0.06217
2949.05,0.06218
2943.27,0.06203
2937.48,0.06289
2931.69,0.06398
2925.91,0.06516
2920.12,0.06500
2914.33,0.06438
2908.55,0.06392
2902.76,0.06357
2896.98,0.06363
2891.19,0.06319
2885.4,0.06262
2879.62,0.06281
2873.83,0.06320
2868.04,0.06272
2862.26,0.06320
2856.47,0.06391
2850.69,0.06480
2844.9,0.06477
2839.11,0.06397
2833.33,0.06368
2827.54,0.06315
2821.75,0.06317
2815.97,0.06343
2810.18,0.06310
2804.4,0.06280
2798.61,0.06248
2792.82,0.06322
2787.04,0.06269
2781.25,0.06307
2775.46,0.06307
2769.68,0.06295
2763.89,0.06273
2758.11,0.06286
2752.32,0.06285
2746.53,0.06297
2740.75,0.06297
2734.96,0.06327
2729.17,0.06313
2723.39,0.06313
2717.6,0.06360
2711.82,0.06362
2706.03,0.06391
2700.24,0.06376
2694.46,0.06366
2688.67,0.06359
2682.88,0.06354
2677.1,0.06360
2671.31,0.06356
2665.53,0.06370
2659.74,0.06356
2653.95,0.06404
2648.17,0.06323
2642.38,0.06253
2636.59,0.06263
2630.81,0.06309
2625.02,0.06222
2619.24,0.06200
2613.45,0.06205
2607.66,0.06219
2601.88,0.06240
2596.09,0.06226
2590.3,0.06170
2584.52,0.06166
2578.73,0.06208
2572.95,0.06218
2567.16,0.06164
2561.37,0.06159
2555.59,0.06170
2549.8,0.06170
2544.02,0.06166
2538.23,0.06130
2532.44,0.06172
2526.66,0.06155
2520.87,0.06168
2515.08,0.06167
2509.3,0.06166
2503.51,0.06165
2497.73,0.06201
2491.94,0.06143
2486.15,0.06187
2480.37,0.06203
2474.58,0.06254
2468.79,0.06196
2463.01,0.06182
2457.22,0.06220
2451.44,0.06209
2445.65,0.06173
2439.86,0.06184
2434.08,0.06131
2428.29,0.06120
2422.5,0.06116
2416.72,0.06092
2410.93,0.06091
2405.15,0.06091
2399.36,0.06029
2393.57,0.06057
2387.79,0.06038
2382,0.06067
2376.21,0.06094
2370.43,0.06074
2364.64,0.06084
2358.86,0.06083
2353.07,0.06094
2347.28,0.06100
2341.5,0.06072
2335.71,0.06093
2329.92,0.06092
2324.14,0.06070
2318.35,0.06102
2312.57,0.06104
2306.78,0.06070
2300.99,0.06049
2295.21,0.06041
2289.42,0.05979
2283.63,0.06020
2277.85,0.06021
2272.06,0.05994
2266.28,0.06023
2260.49,0.06014
2254.7,0.05999
2248.92,0.06003
2243.13,0.06003
2237.34,0.05999
2231.56,0.06019
2225.77,0.06006
2219.99,0.06011
2214.2,0.06028
2208.41,0.06018
2202.63,0.06003
2196.84,0.06014
2191.05,0.06013
2185.27,0.05988
2179.48,0.05955
2173.7,0.05959
2167.91,0.05924
2162.12,0.05952
2156.34,0.05917
2150.55,0.05936
2144.76,0.05906
2138.98,0.05907
2133.19,0.05874
2127.41,0.05896
2121.62,0.05902
2115.83,0.05863
2110.05,0.05870
2104.26,0.05919
2098.47,0.05854
2092.69,0.05827
2086.9,0.05845
2081.12,0.05849
2075.33,0.05883
2069.54,0.05864
2063.76,0.05841
2057.97,0.05828
2052.19,0.05841
2046.4,0.05862
2040.61,0.05858
2034.83,0.05854
2029.04,0.05817
2023.25,0.05802
2017.47,0.05810
2011.68,0.05786
2005.9,0.05722
2000.11,0.05728
1994.32,0.05688
1988.54,0.05689
1982.75,0.05658
1976.96,0.05705
1971.18,0.05639
1965.39,0.05657
1959.61,0.05623
1953.82,0.05643
1948.03,0.05633
1942.25,0.05632
1936.46,0.05626
1930.67,0.05588
1924.89,0.05569
1919.1,0.05574
1913.32,0.05561
1907.53,0.05566
1901.74,0.05542
1895.96,0.05507
1890.17,0.05501
1884.38,0.05472
1878.6,0.05424
1872.81,0.05400
1867.03,0.05364
1861.24,0.05321
1855.45,0.05310
1849.67,0.05238
1843.88,0.05204
1838.09,0.05172
1832.31,0.05157
1826.52,0.05124
1820.74,0.05089
1814.95,0.05010
1809.16,0.04953
1803.38,0.04865
1797.59,0.04813
1791.8,0.04751
1786.02,0.04638
1780.23,0.04490
1774.45,0.04335
1768.66,0.04108
1762.87,0.03828
1757.09,0.03540
1751.3,0.03103
1745.51,0.02572
1739.73,0.02641
1733.94,0.04498
1728.16,0.07696
1722.37,0.11028
1716.58,0.13158
1710.8,0.11748
1705.01,0.09766
1699.22,0.08649
1693.44,0.07944
1687.65,0.07545
1681.87,0.07264
1676.08,0.07089
1670.29,0.06963
1664.51,0.06843
1658.72,0.06722
1652.93,0.06653
1647.15,0.06559
1641.36,0.06428
1635.58,0.06414
1629.79,0.06293
1624,0.06265
1618.22,0.06167
1612.43,0.06145
1606.64,0.06119
1600.86,0.06075
1595.07,0.06028
1589.29,0.05900
1583.5,0.05815
1577.71,0.05850
1571.93,0.05907
1566.14,0.05849
1560.35,0.05783
1554.57,0.05740
1548.78,0.05682
1543,0.05634
1537.21,0.05620
1531.42,0.05530
1525.64,0.05473
1519.85,0.05432
1514.07,0.05296
1508.28,0.05225
1502.49,0.05576
1496.71,0.05476
1490.92,0.05373
1485.13,0.05236
1479.35,0.05155
1473.56,0.05098
1467.78,0.05133
1461.99,0.05042
1456.2,0.05031
1450.42,0.05093
1444.63,0.05065
1438.84,0.05106
1433.06,0.04985
1427.27,0.04808
1421.49,0.04492
1415.7,0.04093
1409.91,0.04842
1404.13,0.05534
1398.34,0.05248
1392.55,0.05060
1386.77,0.04873
1380.98,0.04700
1375.2,0.04587
1369.41,0.04649
1363.62,0.04666
1357.84,0.04364
1352.05,0.04057
1346.26,0.03946
1340.48,0.04980
1334.69,0.04825
1328.91,0.04040
1323.12,0.03551
1317.33,0.03157
1311.55,0.02765
1305.76,0.02439
1299.97,0.02400
1294.19,0.03196
1288.4,0.04522
1282.62,0.05983
1276.83,0.07895
1271.04,0.10457
1265.26,0.13050
1259.47,0.14374
1253.68,0.15187
1247.9,0.16054
1242.11,0.15640
1236.33,0.14122
1230.54,0.12267
1224.75,0.10843
1218.97,0.09924
1213.18,0.09205
1207.39,0.08686
1201.61,0.08194
1195.82,0.07766
1190.04,0.07350
1184.25,0.07009
1178.46,0.06669
1172.68,0.06506
1166.89,0.06286
1161.1,0.05823
1155.32,0.05382
1149.53,0.04904
1143.75,0.04468
1137.96,0.04565
1132.17,0.06078
1126.39,0.08147
1120.6,0.09224
1114.81,0.09187
1109.03,0.09219
1103.24,0.10337
1097.46,0.11723
1091.67,0.12108
1085.88,0.11701
1080.1,0.11025
1074.31,0.10223
1068.52,0.09510
1062.74,0.08997
1056.95,0.08512
1051.17,0.08198
1045.38,0.08091
1039.59,0.08096
1033.81,0.07960
1028.02,0.07671
1022.24,0.08281
1016.45,0.09883
1010.66,0.09588
1004.88,0.08887
999.09,0.08456
993.304,0.08235
987.518,0.08075
981.731,0.07960
975.945,0.07884
970.159,0.08013
964.373,0.08013
958.586,0.07883
952.8,0.07725
947.014,0.07594
941.228,0.07526
935.441,0.07416
929.655,0.07356
923.869,0.07267
918.083,0.07116
912.297,0.06955
906.51,0.06882
900.724,0.06849
894.938,0.06898
889.152,0.06830
883.365,0.06783
877.579,0.06645
871.793,0.07211
866.007,0.07480
860.22,0.07370
854.434,0.07291
848.648,0.07339
842.862,0.07358
837.075,0.07334
831.289,0.07300
825.503,0.07262
819.717,0.07159
813.931,0.07046
808.144,0.06955
802.358,0.06942
796.572,0.06897
790.786,0.07033
784.999,0.06984
779.213,0.06870
773.427,0.06748
767.641,0.06526
761.854,0.06373
756.068,0.06118
750.282,0.05637
744.496,0.04882
738.709,0.03722
732.923,0.05298
727.137,0.11741
721.351,0.12767
715.565,0.10092
709.778,0.09206
703.992,0.08818
698.206,0.08488
692.42,0.08158
686.633,0.08038
680.847,0.07867
675.061,0.07832
669.275,0.07734
663.488,0.07780
657.702,0.07505
651.916,0.07542
646.13,0.07305
640.343,0.07426
634.557,0.07249
628.771,0.07144
622.985,0.07074
617.198,0.07242
611.412,0.07103
605.626,0.07101
599.84,0.06789