File: 01_Data/PET/FTIR/IS/PET_IS_S_220831_R7.dpt
7497.03,0.51313
7491.25,0.50492
7485.46,0.50415
7479.67,0.49893
7473.89,0.49913
7468.1,0.49692
7462.32,0.47899
7456.53,0.47393
7450.74,0.46807
7444.96,0.45931
7439.17,0.46290
7433.38,0.44115
7427.6,0.42948
7421.81,0.42812
7416.03,0.40135
7410.24,0.40489
7404.45,0.40042
7398.67,0.39852
7392.88,0.39421
7387.09,0.38435
7381.31,0.38257
7375.52,0.36975
7369.74,0.37071
7363.95,0.37273
7358.16,0.35668
7352.38,0.35922
7346.59,0.35643
7340.8,0.35367
7335.02,0.35476
7329.23,0.35320
7323.45,0.35762
7317.66,0.35093
7311.87,0.35300
7306.09,0.34891
7300.3,0.34808
7294.51,0.34474
7288.73,0.34333
7282.94,0.34977
7277.16,0.35173
7271.37,0.35035
7265.58,0.35009
7259.8,0.34858
7254.01,0.34006
7248.22,0.34091
7242.44,0.33174
7236.65,0.34191
7230.87,0.33646
7225.08,0.33825
7219.29,0.33907
7213.51,0.33533
7207.72,0.33056
7201.93,0.32895
7196.15,0.32803
7190.36,0.32900
7184.58,0.31681
7178.79,0.31712
7173,0.32396
7167.22,0.32787
7161.43,0.31930
7155.65,0.31955
7149.86,0.31689
7144.07,0.30883
7138.29,0.30286
7132.5,0.29157
7126.71,0.30482
7120.93,0.29275
7115.14,0.29102
7109.36,0.28883
7103.57,0.29308
7097.78,0.29067
7092,0.29705
7086.21,0.28778
7080.42,0.29490
7074.64,0.28963
7068.85,0.28840
7063.07,0.28762
7057.28,0.29705
7051.49,0.29386
7045.71,0.29286
7039.92,0.29319
7034.13,0.29056
7028.35,0.30124
7022.56,0.29999
7016.78,0.30443
7010.99,0.31116
7005.2,0.30937
6999.42,0.31771
6993.63,0.31900
6987.84,0.31316
6982.06,0.31829
6976.27,0.32366
6970.49,0.32502
6964.7,0.32465
6958.91,0.33542
6953.13,0.33389
6947.34,0.34132
6941.55,0.34411
6935.77,0.34799
6929.98,0.34845
6924.2,0.35516
6918.41,0.35225
6912.62,0.35939
6906.84,0.35691
6901.05,0.35994
6895.26,0.36288
6889.48,0.36649
6883.69,0.36637
6877.91,0.36613
6872.12,0.36433
6866.33,0.36287
6860.55,0.35950
6854.76,0.36649
6848.97,0.36926
6843.19,0.37415
6837.4,0.36988
6831.62,0.37584
6825.83,0.37684
6820.04,0.38126
6814.26,0.38404
6808.47,0.38666
6802.68,0.39172
6796.9,0.39139
6791.11,0.39635
6785.33,0.39867
6779.54,0.39938
6773.75,0.40013
6767.97,0.40293
6762.18,0.41070
6756.39,0.41038
6750.61,0.41347
6744.82,0.41960
6739.04,0.42002
6733.25,0.42526
6727.46,0.42509
6721.68,0.43070
6715.89,0.43126
6710.1,0.42782
6704.32,0.42904
6698.53,0.43337
6692.75,0.42561
6686.96,0.42981
6681.17,0.42513
6675.39,0.43139
6669.6,0.43637
6663.82,0.43693
6658.03,0.44212
6652.24,0.43789
6646.46,0.43599
6640.67,0.44204
6634.88,0.44012
6629.1,0.43911
6623.31,0.44414
6617.53,0.44133
6611.74,0.44587
6605.95,0.44649
6600.17,0.45006
6594.38,0.45051
6588.59,0.45210
6582.81,0.45300
6577.02,0.45964
6571.24,0.45668
6565.45,0.45599
6559.66,0.45749
6553.88,0.45553
6548.09,0.45561
6542.3,0.45205
6536.52,0.44875
6530.73,0.45050
6524.95,0.45003
6519.16,0.44780
6513.37,0.44781
6507.59,0.44868
6501.8,0.44478
6496.01,0.44420
6490.23,0.44953
6484.44,0.45160
6478.66,0.45262
6472.87,0.45121
6467.08,0.45185
6461.3,0.44487
6455.51,0.44568
6449.72,0.44540
6443.94,0.44089
6438.15,0.43723
6432.37,0.43269
6426.58,0.43735
6420.79,0.43750
6415.01,0.43713
6409.22,0.44014
6403.43,0.43491
6397.65,0.43422
6391.86,0.43823
6386.08,0.43822
6380.29,0.43858
6374.5,0.43246
6368.72,0.43149
6362.93,0.43191
6357.14,0.43009
6351.36,0.42893
6345.57,0.42171
6339.79,0.41708
6334,0.41184
6328.21,0.41171
6322.43,0.40982
6316.64,0.41326
6310.85,0.40893
6305.07,0.41059
6299.28,0.40647
6293.5,0.40238
6287.71,0.40514
6281.92,0.40033
6276.14,0.39415
6270.35,0.38780
6264.56,0.38308
6258.78,0.37799
6252.99,0.37171
6247.21,0.36709
6241.42,0.36309
6235.63,0.35507
6229.85,0.34911
6224.06,0.34136
6218.27,0.33276
6212.49,0.31686
6206.7,0.29350
6200.92,0.27497
6195.13,0.26303
6189.34,0.26135
6183.56,0.26486
6177.77,0.27004
6171.98,0.26744
6166.2,0.26457
6160.41,0.25602
6154.63,0.24217
6148.84,0.23032
6143.05,0.22260
6137.27,0.21931
6131.48,0.21760
6125.7,0.21512
6119.91,0.20657
6114.12,0.19061
6108.34,0.17629
6102.55,0.16085
6096.76,0.14704
6090.98,0.13573
6085.19,0.12670
6079.41,0.11906
6073.62,0.11406
6067.83,0.10638
6062.05,0.09768
6056.26,0.09507
6050.47,0.08894
6044.69,0.08503
6038.9,0.08426
6033.12,0.07929
6027.33,0.07673
6021.54,0.08109
6015.76,0.08343
6009.97,0.08103
6004.18,0.08413
5998.4,0.08779
5992.61,0.09277
5986.83,0.09321
5981.04,0.09411
5975.25,0.09608
5969.47,0.09747
5963.68,0.10352
5957.89,0.10635
5952.11,0.10687
5946.32,0.10390
5940.54,0.10559
5934.75,0.11013
5928.96,0.11425
5923.18,0.12089
5917.39,0.12650
5911.6,0.13431
5905.82,0.13879
5900.03,0.13826
5894.25,0.13600
5888.46,0.13401
5882.67,0.12585
5876.89,0.12309
5871.1,0.12033
5865.31,0.11608
5859.53,0.11773
5853.74,0.11879
5847.96,0.12294
5842.17,0.12382
5836.38,0.12352
5830.6,0.12319
5824.81,0.12170
5819.02,0.12371
5813.24,0.12238
5807.45,0.12136
5801.67,0.12097
5795.88,0.12081
5790.09,0.12329
5784.31,0.12350
5778.52,0.12227
5772.73,0.12857
5766.95,0.12901
5761.16,0.13170
5755.38,0.13198
5749.59,0.13502
5743.8,0.14013
5738.02,0.14499
5732.23,0.15029
5726.44,0.15298
5720.66,0.15494
5714.87,0.15349
5709.09,0.15142
5703.3,0.15332
5697.51,0.15266
5691.73,0.15629
5685.94,0.15932
5680.15,0.16021
5674.37,0.16386
5668.58,0.16336
5662.8,0.16325
5657.01,0.16206
5651.22,0.16314
5645.44,0.16532
5639.65,0.16817
5633.87,0.16965
5628.08,0.17480
5622.29,0.17781
5616.51,0.17975
5610.72,0.18112
5604.93,0.17967
5599.15,0.17726
5593.36,0.17489
5587.58,0.17339
5581.79,0.17382
5576,0.17150
5570.22,0.16647
5564.43,0.16356
5558.64,0.16512
5552.86,0.16666
5547.07,0.16642
5541.29,0.16704
5535.5,0.16432
5529.71,0.16490
5523.93,0.16625
5518.14,0.16611
5512.35,0.16730
5506.57,0.16980
5500.78,0.16935
5495,0.16694
5489.21,0.16558
5483.42,0.16340
5477.64,0.16095
5471.85,0.16317
5466.06,0.16444
5460.28,0.16806
5454.49,0.17164
5448.71,0.17311
5442.92,0.17743
5437.13,0.18234
5431.35,0.18581
5425.56,0.18724
5419.77,0.18837
5413.99,0.18912
5408.2,0.18696
5402.42,0.18818
5396.63,0.18721
5390.84,0.18467
5385.06,0.18510
5379.27,0.18361
5373.48,0.18332
5367.7,0.18217
5361.91,0.17879
5356.13,0.17832
5350.34,0.17578
5344.55,0.17668
5338.77,0.17796
5332.98,0.17855
5327.19,0.17913
5321.41,0.17830
5315.62,0.17812
5309.84,0.17519
5304.05,0.17182
5298.26,0.16820
5292.48,0.16126
5286.69,0.15131
5280.9,0.14395
5275.12,0.13608
5269.33,0.12717
5263.55,0.12061
5257.76,0.11575
5251.97,0.11454
5246.19,0.11411
5240.4,0.11570
5234.61,0.11637
5228.83,0.11969
5223.04,0.12152
5217.26,0.12721
5211.47,0.13191
5205.68,0.13694
5199.9,0.14211
5194.11,0.14621
5188.32,0.14833
5182.54,0.15011
5176.75,0.15014
5170.97,0.15029
5165.18,0.14837
5159.39,0.14652
5153.61,0.14468
5147.82,0.14117
5142.03,0.13859
5136.25,0.13455
5130.46,0.12911
5124.68,0.12362
5118.89,0.12389
5113.1,0.12463
5107.32,0.13134
5101.53,0.13833
5095.75,0.14536
5089.96,0.14888
5084.17,0.15405
5078.39,0.15770
5072.6,0.16241
5066.81,0.16496
5061.03,0.16695
5055.24,0.16800
5049.46,0.16769
5043.67,0.16923
5037.88,0.16735
5032.1,0.16754
5026.31,0.16762
5020.52,0.16688
5014.74,0.16702
5008.95,0.16452
5003.17,0.16679
4997.38,0.16856
4991.59,0.16909
4985.81,0.16996
4980.02,0.17183
4974.23,0.17089
4968.45,0.17108
4962.66,0.16850
4956.88,0.16574
4951.09,0.16404
4945.3,0.16078
4939.52,0.15890
4933.73,0.15785
4927.94,0.15752
4922.16,0.15597
4916.37,0.15398
4910.59,0.15243
4904.8,0.15147
4899.01,0.15005
4893.23,0.14735
4887.44,0.14585
4881.65,0.14467
4875.87,0.14387
4870.08,0.14354
4864.3,0.14210
4858.51,0.14059
4852.72,0.13922
4846.94,0.13589
4841.15,0.12979
4835.36,0.12439
4829.58,0.12037
4823.79,0.11404
4818.01,0.11066
4812.22,0.10865
4806.43,0.10616
4800.65,0.10392
4794.86,0.10373
4789.07,0.10435
4783.29,0.10546
4777.5,0.10838
4771.72,0.10968
4765.93,0.10910
4760.14,0.10679
4754.36,0.10312
4748.57,0.09636
4742.78,0.09275
4737,0.08766
4731.21,0.08464
4725.43,0.08007
4719.64,0.07685
4713.85,0.07619
4708.07,0.07638
4702.28,0.07416
4696.49,0.07129
4690.71,0.07001
4684.92,0.07123
4679.14,0.07305
4673.35,0.07612
4667.56,0.07963
4661.78,0.08028
4655.99,0.08072
4650.2,0.07850
4644.42,0.07565
4638.63,0.07244
4632.85,0.07268
4627.06,0.07497
4621.27,0.07958
4615.49,0.08474
4609.7,0.08691
4603.92,0.08701
4598.13,0.08482
4592.34,0.08215
4586.56,0.08018
4580.77,0.07743
4574.98,0.07701
4569.2,0.08290
4563.41,0.08967
4557.63,0.09199
4551.84,0.09200
4546.05,0.09116
4540.27,0.09101
4534.48,0.09023
4528.69,0.09049
4522.91,0.08766
4517.12,0.08591
4511.34,0.08387
4505.55,0.08091
4499.76,0.07722
4493.98,0.07359
4488.19,0.07182
4482.4,0.07136
4476.62,0.07013
4470.83,0.06939
4465.05,0.06714
4459.26,0.06637
4453.47,0.06554
4447.69,0.06659
4441.9,0.06604
4436.11,0.06549
4430.33,0.06495
4424.54,0.06608
4418.76,0.06622
4412.97,0.06633
4407.18,0.06745
4401.4,0.06702
4395.61,0.06740
4389.82,0.06744
4384.04,0.06828
4378.25,0.06852
4372.47,0.06782
4366.68,0.06745
4360.89,0.06742
4355.11,0.06754
4349.32,0.06771
4343.53,0.06740
4337.75,0.06715
4331.96,0.06764
4326.18,0.06721
4320.39,0.06784
4314.6,0.06758
4308.82,0.06693
4303.03,0.06660
4297.24,0.06566
4291.46,0.06577
4285.67,0.06586
4279.89,0.06478
4274.1,0.06601
4268.31,0.06624
4262.53,0.06630
4256.74,0.06641
4250.95,0.06618
4245.17,0.06630
4239.38,0.06599
4233.6,0.06593
4227.81,0.06742
4222.02,0.06665
4216.24,0.06725
4210.45,0.06773
4204.66,0.06745
4198.88,0.06758
4193.09,0.06790
4187.31,0.06740
4181.52,0.06702
4175.73,0.06733
4169.95,0.06745
4164.16,0.06749
4158.37,0.06783
4152.59,0.06727
4146.8,0.06811
4141.02,0.06691
4135.23,0.06703
4129.44,0.06658
4123.66,0.06701
4117.87,0.06650
4112.09,0.06535
4106.3,0.06460
4100.51,0.06511
4094.73,0.06439
4088.94,0.06428
4083.15,0.06373
4077.37,0.06439
4071.58,0.06553
4065.8,0.06531
4060.01,0.06604
4054.22,0.06697
4048.44,0.06710
4042.65,0.06776
4036.86,0.06787
4031.08,0.06789
4025.29,0.06773
4019.51,0.06849
4013.72,0.06789
4007.93,0.06782
4002.15,0.06761
3996.36,0.06801
3990.57,0.06825
3984.79,0.06921
3979,0.06843
3973.22,0.06821
3967.43,0.06915
3961.64,0.06925
3955.86,0.06999
3950.07,0.06945
3944.28,0.06979
3938.5,0.07026
3932.71,0.07007
3926.93,0.06930
3921.14,0.07007
3915.35,0.07028
3909.57,0.06972
3903.78,0.07041
3897.99,0.07066
3892.21,0.07153
3886.42,0.07206
3880.64,0.07190
3874.85,0.07216
3869.06,0.07194
3863.28,0.07226
3857.49,0.07236
3851.7,0.07248
3845.92,0.07270
3840.13,0.07243
3834.35,0.07212
3828.56,0.07212
3822.77,0.07222
3816.99,0.07195
3811.2,0.07024
3805.41,0.07077
3799.63,0.07031
3793.84,0.07151
3788.06,0.07165
3782.27,0.07148
3776.48,0.07110
3770.7,0.06995
3764.91,0.06988
3759.12,0.06872
3753.34,0.06970
3747.55,0.07062
3741.77,0.07150
3735.98,0.07100
3730.19,0.07070
3724.41,0.07143
3718.62,0.07112
3712.83,0.07053
3707.05,0.06930
3701.26,0.06826
3695.48,0.06652
3689.69,0.06609
3683.9,0.06467
3678.12,0.06482
3672.33,0.06486
3666.54,0.06443
3660.76,0.06406
3654.97,0.06366
3649.19,0.06377
3643.4,0.06355
3637.61,0.06328
3631.83,0.06376
3626.04,0.06375
3620.25,0.06384
3614.47,0.06374
3608.68,0.06371
3602.9,0.06311
3597.11,0.06387
3591.32,0.06366
3585.54,0.06341
3579.75,0.06378
3573.97,0.06417
3568.18,0.06320
3562.39,0.06290
3556.61,0.06269
3550.82,0.06267
3545.03,0.06270
3539.25,0.06262
3533.46,0.06293
3527.68,0.06335
3521.89,0.06316
3516.1,0.06283
3510.32,0.06296
3504.53,0.06332
3498.74,0.06314
3492.96,0.06289
3487.17,0.06333
3481.39,0.06305
3475.6,0.06288
3469.81,0.06295
3464.03,0.06264
3458.24,0.06273
3452.45,0.06197
3446.67,0.06203
3440.88,0.06206
3435.1,0.06207
3429.31,0.06228
3423.52,0.06207
3417.74,0.06214
3411.95,0.06255
3406.16,0.06298
3400.38,0.06322
3394.59,0.06354
3388.81,0.06329
3383.02,0.06395
3377.23,0.06429
3371.45,0.06361
3365.66,0.06341
3359.87,0.06362
3354.09,0.06381
3348.3,0.06361
3342.52,0.06210
3336.73,0.06292
3330.94,0.06362
3325.16,0.06283
3319.37,0.06291
3313.58,0.06321
3307.8,0.06352
3302.01,0.06339
3296.23,0.06322
3290.44,0.06291
3284.65,0.06447
3278.87,0.06361
3273.08,0.06363
3267.29,0.06312
3261.51,0.06314
3255.72,0.06336
3249.94,0.06387
3244.15,0.06323
3238.36,0.06249
3232.58,0.06340
3226.79,0.06351
3221,0.06295
3215.22,0.06332
3209.43,0.06283
3203.65,0.06312
3197.86,0.06260
3192.07,0.06264
3186.29,0.06383
3180.5,0.06288
3174.71,0.06268
3168.93,0.06272
3163.14,0.06222
3157.36,0.06258
3151.57,0.06236
3145.78,0.06274
3140,0.06241
3134.21,0.06236
3128.42,0.06172
3122.64,0.06176
3116.85,0.06205
3111.07,0.06149
3105.28,0.06136
3099.49,0.06190
3093.71,0.06138
3087.92,0.06157
3082.14,0.06119
3076.35,0.06139
3070.56,0.06094
3064.78,0.06140
3058.99,0.06115
3053.2,0.06116
3047.42,0.06142
3041.63,0.06135
3035.85,0.06139
3030.06,0.06152
3024.27,0.06154
3018.49,0.06080
3012.7,0.06087
3006.91,0.06038
3001.13,0.06058
2995.34,0.06009
2989.56,0.06004
2983.77,0.05998
2977.98,0.06032
2972.2,0.06050
2966.41,0.06087
2960.62,0.06139
2954.84,0.06192
2949.05,0.06193
2943.27,0.06276
2937.48,0.06310
2931.69,0.06433
2925.91,0.06558
2920.12,0.06585
2914.33,0.06492
2908.55,0.06393
2902.76,0.06344
2896.98,0.06279
2891.19,0.06330
2885.4,0.06313
2879.62,0.06284
2873.83,0.06261
2868.04,0.06310
2862.26,0.06253
2856.47,0.06396
2850.69,0.06480
2844.9,0.06464
2839.11,0.06378
2833.33,0.06337
2827.54,0.06353
2821.75,0.06303
2815.97,0.06330
2810.18,0.06286
2804.4,0.06277
2798.61,0.06264
2792.82,0.06313
2787.04,0.06295
2781.25,0.06309
2775.46,0.06315
2769.68,0.06301
2763.89,0.06299
2758.11,0.06326
2752.32,0.06302
2746.53,0.06274
2740.75,0.06316
2734.96,0.06301
2729.17,0.06307
2723.39,0.06352
2717.6,0.06340
2711.82,0.06343
2706.03,0.06356
2700.24,0.06382
2694.46,0.06417
2688.67,0.06403
2682.88,0.06335
2677.1,0.06338
2671.31,0.06342
2665.53,0.06346
2659.74,0.06342
2653.95,0.06375
2648.17,0.06333
2642.38,0.06311
2636.59,0.06240
2630.81,0.06238
2625.02,0.06219
2619.24,0.06291
2613.45,0.06255
2607.66,0.06238
2601.88,0.06209
2596.09,0.06214
2590.3,0.06234
2584.52,0.06174
2578.73,0.06167
2572.95,0.06167
2567.16,0.06183
2561.37,0.06187
2555.59,0.06157
2549.8,0.06156
2544.02,0.06140
2538.23,0.06148
2532.44,0.06139
2526.66,0.06142
2520.87,0.06150
2515.08,0.06195
2509.3,0.06147
2503.51,0.06152
2497.73,0.06200
2491.94,0.06155
2486.15,0.06189
2480.37,0.06201
2474.58,0.06160
2468.79,0.06206
2463.01,0.06203
2457.22,0.06191
2451.44,0.06202
2445.65,0.06170
2439.86,0.06124
2434.08,0.06125
2428.29,0.06132
2422.5,0.06141
2416.72,0.06111
2410.93,0.06089
2405.15,0.06059
2399.36,0.06098
2393.57,0.06109
2387.79,0.06051
2382,0.06046
2376.21,0.06080
2370.43,0.06050
2364.64,0.06086
2358.86,0.06096
2353.07,0.06084
2347.28,0.06094
2341.5,0.06075
2335.71,0.06097
2329.92,0.06101
2324.14,0.06081
2318.35,0.06074
2312.57,0.06069
2306.78,0.06047
2300.99,0.06030
2295.21,0.06044
2289.42,0.05987
2283.63,0.06022
2277.85,0.05975
2272.06,0.05987
2266.28,0.06024
2260.49,0.05973
2254.7,0.06006
2248.92,0.06023
2243.13,0.06030
2237.34,0.06034
2231.56,0.06014
2225.77,0.05993
2219.99,0.05996
2214.2,0.06016
2208.41,0.05993
2202.63,0.06016
2196.84,0.06027
2191.05,0.06015
2185.27,0.05986
2179.48,0.05994
2173.7,0.05990
2167.91,0.05966
2162.12,0.05954
2156.34,0.05912
2150.55,0.05904
2144.76,0.05932
2138.98,0.05892
2133.19,0.05906
2127.41,0.05874
2121.62,0.05856
2115.83,0.05894
2110.05,0.05832
2104.26,0.05853
2098.47,0.05872
2092.69,0.05854
2086.9,0.05854
2081.12,0.05898
2075.33,0.05848
2069.54,0.05858
2063.76,0.05860
2057.97,0.05866
2052.19,0.05830
2046.4,0.05832
2040.61,0.05820
2034.83,0.05796
2029.04,0.05781
2023.25,0.05780
2017.47,0.05738
2011.68,0.05733
2005.9,0.05758
2000.11,0.05698
1994.32,0.05676
1988.54,0.05677
1982.75,0.05690
1976.96,0.05672
1971.18,0.05639
1965.39,0.05610
1959.61,0.05599
1953.82,0.05610
1948.03,0.05655
1942.25,0.05619
1936.46,0.05592
1930.67,0.05593
1924.89,0.05556
1919.1,0.05555
1913.32,0.05565
1907.53,0.05564
1901.74,0.05527
1895.96,0.05508
1890.17,0.05485
1884.38,0.05461
1878.6,0.05435
1872.81,0.05423
1867.03,0.05402
1861.24,0.05316
1855.45,0.05313
1849.67,0.05291
1843.88,0.05218
1838.09,0.05165
1832.31,0.05134
1826.52,0.05081
1820.74,0.05069
1814.95,0.04987
1809.16,0.04936
1803.38,0.04882
1797.59,0.04792
1791.8,0.04686
1786.02,0.04584
1780.23,0.04489
1774.45,0.04347
1768.66,0.04135
1762.87,0.03898
1757.09,0.03504
1751.3,0.03062
1745.51,0.02511
1739.73,0.02625
1733.94,0.04525
1728.16,0.07713
1722.37,0.11054
1716.58,0.13162
1710.8,0.11740
1705.01,0.09747
1699.22,0.08593
1693.44,0.07878
1687.65,0.07526
1681.87,0.07298
1676.08,0.07117
1670.29,0.06947
1664.51,0.06860
1658.72,0.06716
1652.93,0.06632
1647.15,0.06545
1641.36,0.06413
1635.58,0.06402
1629.79,0.06285
1624,0.06246
1618.22,0.06178
1612.43,0.06104
1606.64,0.06104
1600.86,0.06066
1595.07,0.06020
1589.29,0.05927
1583.5,0.05778
1577.71,0.05854
1571.93,0.05908
1566.14,0.05852
1560.35,0.05773
1554.57,0.05718
1548.78,0.05714
1543,0.05640
1537.21,0.05578
1531.42,0.05505
1525.64,0.05471
1519.85,0.05424
1514.07,0.05340
1508.28,0.05274
1502.49,0.05534
1496.71,0.05482
1490.92,0.05341
1485.13,0.05246
1479.35,0.05130
1473.56,0.05094
1467.78,0.05099
1461.99,0.05010
1456.2,0.05060
1450.42,0.05090
1444.63,0.05062
1438.84,0.05070
1433.06,0.04994
1427.27,0.04791
1421.49,0.04514
1415.7,0.04141
1409.91,0.04861
1404.13,0.05512
1398.34,0.05272
1392.55,0.05030
1386.77,0.04868
1380.98,0.04723
1375.2,0.04592
1369.41,0.04673
1363.62,0.04721
1357.84,0.04376
1352.05,0.04039
1346.26,0.03949
1340.48,0.04900
1334.69,0.04863
1328.91,0.04085
1323.12,0.03534
1317.33,0.03149
1311.55,0.02759
1305.76,0.02496
1299.97,0.02432
1294.19,0.03188
1288.4,0.04505
1282.62,0.05978
1276.83,0.07936
1271.04,0.10458
1265.26,0.13048
1259.47,0.14357
1253.68,0.15219
1247.9,0.16068
1242.11,0.15624
1236.33,0.14139
1230.54,0.12261
1224.75,0.10830
1218.97,0.09928
1213.18,0.09194
1207.39,0.08609
1201.61,0.08220
1195.82,0.07767
1190.04,0.07322
1184.25,0.06994
1178.46,0.06717
1172.68,0.06554
1166.89,0.06327
1161.1,0.05838
1155.32,0.05408
1149.53,0.04902
1143.75,0.04480
1137.96,0.04615
1132.17,0.06067
1126.39,0.08122
1120.6,0.09298
1114.81,0.09239
1109.03,0.09266
1103.24,0.10197
1097.46,0.11727
1091.67,0.12086
1085.88,0.11597
1080.1,0.11042
1074.31,0.10228
1068.52,0.09615
1062.74,0.09005
1056.95,0.08456
1051.17,0.08112
1045.38,0.08052
1039.59,0.08094
1033.81,0.07957
1028.02,0.07602
1022.24,0.08276
1016.45,0.09832
1010.66,0.09540
1004.88,0.08840
999.09,0.08484
993.304,0.08286
987.518,0.08072
981.731,0.07940
975.945,0.07891
970.159,0.08056
964.373,0.07980
958.586,0.07864
952.8,0.07763
947.014,0.07643
941.228,0.07537
935.441,0.07478
929.655,0.07409
923.869,0.07293
918.083,0.07124
912.297,0.07027
906.51,0.06867
900.724,0.06860
894.938,0.06882
889.152,0.06814
883.365,0.06670
877.579,0.06697
871.793,0.07271
866.007,0.07401
860.22,0.07311
854.434,0.07247
848.648,0.07221
842.862,0.07260
837.075,0.07311
831.289,0.07232
825.503,0.07200
819.717,0.07121
813.931,0.06963
808.144,0.06979
802.358,0.06944
796.572,0.06939
790.786,0.07034
784.999,0.06995
779.213,0.06887
773.427,0.06682
767.641,0.06541
761.854,0.06259
756.068,0.06074
750.282,0.05610
744.496,0.04848
738.709,0.03644
732.923,0.05403
727.137,0.11763
721.351,0.12625
715.565,0.10031
709.778,0.09168
703.992,0.08778
698.206,0.08430
692.42,0.08262
686.633,0.08014
680.847,0.07954
675.061,0.07770
669.275,0.07748
663.488,0.07661
657.702,0.07550
651.916,0.07438
646.13,0.07442
640.343,0.07304
634.557,0.07139
628.771,0.07273
622.985,0.07139
617.198,0.07289
611.412,0.07312
605.626,0.07213
599.84,0.07057