File: 01_Data/PET/FTIR/IS/PET_IS_S_220831_R5.dpt
7497.03,0.50780
7491.25,0.51675
7485.46,0.50015
7479.67,0.49845
7473.89,0.49502
7468.1,0.49911
7462.32,0.48424
7456.53,0.47563
7450.74,0.47084
7444.96,0.46108
7439.17,0.45035
7433.38,0.44065
7427.6,0.43598
7421.81,0.41988
7416.03,0.41612
7410.24,0.40203
7404.45,0.39705
7398.67,0.39549
7392.88,0.39062
7387.09,0.38219
7381.31,0.38367
7375.52,0.37344
7369.74,0.36221
7363.95,0.36142
7358.16,0.35735
7352.38,0.35898
7346.59,0.34948
7340.8,0.34923
7335.02,0.35455
7329.23,0.34208
7323.45,0.34791
7317.66,0.35061
7311.87,0.34725
7306.09,0.35661
7300.3,0.35458
7294.51,0.34713
7288.73,0.35335
7282.94,0.34756
7277.16,0.34438
7271.37,0.34204
7265.58,0.34095
7259.8,0.34324
7254.01,0.34153
7248.22,0.33969
7242.44,0.33951
7236.65,0.33952
7230.87,0.33356
7225.08,0.33151
7219.29,0.33416
7213.51,0.33314
7207.72,0.33036
7201.93,0.33581
7196.15,0.33213
7190.36,0.33091
7184.58,0.31791
7178.79,0.32321
7173,0.31843
7167.22,0.32961
7161.43,0.32106
7155.65,0.31378
7149.86,0.31627
7144.07,0.31212
7138.29,0.30810
7132.5,0.30131
7126.71,0.30165
7120.93,0.29502
7115.14,0.29801
7109.36,0.29814
7103.57,0.29007
7097.78,0.29338
7092,0.29225
7086.21,0.29088
7080.42,0.29140
7074.64,0.28815
7068.85,0.28998
7063.07,0.29281
7057.28,0.29102
7051.49,0.29086
7045.71,0.29597
7039.92,0.29577
7034.13,0.29716
7028.35,0.29175
7022.56,0.29790
7016.78,0.30315
7010.99,0.30407
7005.2,0.30958
6999.42,0.30903
6993.63,0.31707
6987.84,0.31515
6982.06,0.32520
6976.27,0.32441
6970.49,0.33091
6964.7,0.32987
6958.91,0.33794
6953.13,0.34232
6947.34,0.34507
6941.55,0.34631
6935.77,0.34975
6929.98,0.34901
6924.2,0.35198
6918.41,0.35635
6912.62,0.35307
6906.84,0.35160
6901.05,0.35767
6895.26,0.36438
6889.48,0.36748
6883.69,0.36635
6877.91,0.36896
6872.12,0.36581
6866.33,0.36818
6860.55,0.36513
6854.76,0.37482
6848.97,0.37338
6843.19,0.37334
6837.4,0.37383
6831.62,0.37241
6825.83,0.38137
6820.04,0.38016
6814.26,0.38818
6808.47,0.38555
6802.68,0.38873
6796.9,0.38821
6791.11,0.39748
6785.33,0.39342
6779.54,0.40265
6773.75,0.40477
6767.97,0.40383
6762.18,0.40926
6756.39,0.41196
6750.61,0.41675
6744.82,0.41830
6739.04,0.42145
6733.25,0.42556
6727.46,0.42749
6721.68,0.42627
6715.89,0.42733
6710.1,0.43257
6704.32,0.43376
6698.53,0.43223
6692.75,0.43352
6686.96,0.43147
6681.17,0.42904
6675.39,0.43364
6669.6,0.43000
6663.82,0.43176
6658.03,0.43620
6652.24,0.43507
6646.46,0.43460
6640.67,0.44156
6634.88,0.44196
6629.1,0.44451
6623.31,0.44437
6617.53,0.44379
6611.74,0.44961
6605.95,0.44853
6600.17,0.44702
6594.38,0.45471
6588.59,0.45590
6582.81,0.45708
6577.02,0.45446
6571.24,0.45703
6565.45,0.45781
6559.66,0.45373
6553.88,0.45538
6548.09,0.45043
6542.3,0.45350
6536.52,0.45453
6530.73,0.45119
6524.95,0.44988
6519.16,0.44955
6513.37,0.44957
6507.59,0.44517
6501.8,0.44431
6496.01,0.45026
6490.23,0.45061
6484.44,0.44998
6478.66,0.44859
6472.87,0.44988
6467.08,0.44866
6461.3,0.44864
6455.51,0.44964
6449.72,0.43852
6443.94,0.43882
6438.15,0.44085
6432.37,0.43614
6426.58,0.43479
6420.79,0.43515
6415.01,0.43636
6409.22,0.43592
6403.43,0.44100
6397.65,0.43587
6391.86,0.43841
6386.08,0.43861
6380.29,0.43609
6374.5,0.43728
6368.72,0.43790
6362.93,0.43460
6357.14,0.43261
6351.36,0.43165
6345.57,0.42461
6339.79,0.42007
6334,0.41527
6328.21,0.41311
6322.43,0.40748
6316.64,0.41460
6310.85,0.40679
6305.07,0.40869
6299.28,0.40884
6293.5,0.41207
6287.71,0.40595
6281.92,0.40136
6276.14,0.39534
6270.35,0.38999
6264.56,0.38144
6258.78,0.37559
6252.99,0.37481
6247.21,0.36578
6241.42,0.35915
6235.63,0.35360
6229.85,0.35336
6224.06,0.34312
6218.27,0.33294
6212.49,0.31720
6206.7,0.29706
6200.92,0.27271
6195.13,0.25899
6189.34,0.26001
6183.56,0.26482
6177.77,0.26901
6171.98,0.26962
6166.2,0.26342
6160.41,0.25832
6154.63,0.24386
6148.84,0.23003
6143.05,0.22272
6137.27,0.22166
6131.48,0.22337
6125.7,0.21562
6119.91,0.20836
6114.12,0.19493
6108.34,0.17411
6102.55,0.16131
6096.76,0.14441
6090.98,0.13400
6085.19,0.12406
6079.41,0.11922
6073.62,0.11338
6067.83,0.11075
6062.05,0.10136
6056.26,0.09380
6050.47,0.09131
6044.69,0.08641
6038.9,0.08697
6033.12,0.08245
6027.33,0.08052
6021.54,0.07904
6015.76,0.07939
6009.97,0.08163
6004.18,0.08441
5998.4,0.08867
5992.61,0.09219
5986.83,0.09345
5981.04,0.09396
5975.25,0.09359
5969.47,0.09715
5963.68,0.10292
5957.89,0.10673
5952.11,0.10542
5946.32,0.10574
5940.54,0.10501
5934.75,0.10750
5928.96,0.11328
5923.18,0.11958
5917.39,0.12923
5911.6,0.13483
5905.82,0.13695
5900.03,0.13972
5894.25,0.13545
5888.46,0.13184
5882.67,0.12690
5876.89,0.12432
5871.1,0.12153
5865.31,0.11876
5859.53,0.11688
5853.74,0.11905
5847.96,0.12255
5842.17,0.12415
5836.38,0.12562
5830.6,0.12319
5824.81,0.12003
5819.02,0.12108
5813.24,0.11995
5807.45,0.11953
5801.67,0.12076
5795.88,0.12289
5790.09,0.12165
5784.31,0.12222
5778.52,0.12413
5772.73,0.12895
5766.95,0.12989
5761.16,0.13166
5755.38,0.13603
5749.59,0.13746
5743.8,0.14151
5738.02,0.14504
5732.23,0.15070
5726.44,0.15162
5720.66,0.15384
5714.87,0.15378
5709.09,0.15264
5703.3,0.15259
5697.51,0.15406
5691.73,0.15609
5685.94,0.16067
5680.15,0.16056
5674.37,0.16355
5668.58,0.16485
5662.8,0.16225
5657.01,0.16018
5651.22,0.16298
5645.44,0.16557
5639.65,0.16966
5633.87,0.17262
5628.08,0.17665
5622.29,0.17753
5616.51,0.18188
5610.72,0.18083
5604.93,0.18013
5599.15,0.17819
5593.36,0.17535
5587.58,0.17239
5581.79,0.17018
5576,0.16764
5570.22,0.16640
5564.43,0.16459
5558.64,0.16682
5552.86,0.16536
5547.07,0.16540
5541.29,0.16367
5535.5,0.16416
5529.71,0.16529
5523.93,0.16486
5518.14,0.16604
5512.35,0.16869
5506.57,0.16997
5500.78,0.17042
5495,0.16771
5489.21,0.16530
5483.42,0.16429
5477.64,0.16232
5471.85,0.16420
5466.06,0.16470
5460.28,0.16655
5454.49,0.16905
5448.71,0.17451
5442.92,0.17921
5437.13,0.18355
5431.35,0.18821
5425.56,0.18918
5419.77,0.18706
5413.99,0.18708
5408.2,0.18828
5402.42,0.18810
5396.63,0.18818
5390.84,0.18651
5385.06,0.18571
5379.27,0.18379
5373.48,0.18532
5367.7,0.18186
5361.91,0.17906
5356.13,0.17710
5350.34,0.17688
5344.55,0.17661
5338.77,0.17714
5332.98,0.17849
5327.19,0.17908
5321.41,0.17970
5315.62,0.17638
5309.84,0.17579
5304.05,0.17109
5298.26,0.16645
5292.48,0.16028
5286.69,0.15411
5280.9,0.14577
5275.12,0.13578
5269.33,0.12812
5263.55,0.12042
5257.76,0.11773
5251.97,0.11441
5246.19,0.11457
5240.4,0.11524
5234.61,0.11726
5228.83,0.11956
5223.04,0.12117
5217.26,0.12703
5211.47,0.13204
5205.68,0.13667
5199.9,0.14246
5194.11,0.14533
5188.32,0.14797
5182.54,0.14953
5176.75,0.15032
5170.97,0.15001
5165.18,0.14862
5159.39,0.14560
5153.61,0.14374
5147.82,0.14158
5142.03,0.13830
5136.25,0.13274
5130.46,0.12978
5124.68,0.12376
5118.89,0.12195
5113.1,0.12535
5107.32,0.13106
5101.53,0.13781
5095.75,0.14334
5089.96,0.14913
5084.17,0.15593
5078.39,0.15942
5072.6,0.16302
5066.81,0.16542
5061.03,0.16681
5055.24,0.16815
5049.46,0.16969
5043.67,0.17001
5037.88,0.16696
5032.1,0.16623
5026.31,0.16610
5020.52,0.16562
5014.74,0.16564
5008.95,0.16452
5003.17,0.16610
4997.38,0.16932
4991.59,0.17034
4985.81,0.17082
4980.02,0.17173
4974.23,0.17208
4968.45,0.17012
4962.66,0.16822
4956.88,0.16567
4951.09,0.16350
4945.3,0.16088
4939.52,0.15896
4933.73,0.15826
4927.94,0.15660
4922.16,0.15549
4916.37,0.15381
4910.59,0.15277
4904.8,0.15138
4899.01,0.14989
4893.23,0.14759
4887.44,0.14691
4881.65,0.14549
4875.87,0.14366
4870.08,0.14251
4864.3,0.14180
4858.51,0.14121
4852.72,0.13835
4846.94,0.13641
4841.15,0.13041
4835.36,0.12502
4829.58,0.11925
4823.79,0.11539
4818.01,0.11225
4812.22,0.10881
4806.43,0.10577
4800.65,0.10462
4794.86,0.10347
4789.07,0.10337
4783.29,0.10510
4777.5,0.10903
4771.72,0.10961
4765.93,0.11067
4760.14,0.10698
4754.36,0.10212
4748.57,0.09632
4742.78,0.09231
4737,0.08871
4731.21,0.08443
4725.43,0.08093
4719.64,0.07831
4713.85,0.07650
4708.07,0.07620
4702.28,0.07358
4696.49,0.07219
4690.71,0.06996
4684.92,0.07002
4679.14,0.07236
4673.35,0.07623
4667.56,0.07976
4661.78,0.08089
4655.99,0.07998
4650.2,0.07863
4644.42,0.07527
4638.63,0.07305
4632.85,0.07378
4627.06,0.07582
4621.27,0.08009
4615.49,0.08461
4609.7,0.08661
4603.92,0.08869
4598.13,0.08607
4592.34,0.08147
4586.56,0.07868
4580.77,0.07744
4574.98,0.07833
4569.2,0.08344
4563.41,0.08876
4557.63,0.09173
4551.84,0.09195
4546.05,0.09117
4540.27,0.09154
4534.48,0.09145
4528.69,0.08926
4522.91,0.08790
4517.12,0.08661
4511.34,0.08342
4505.55,0.08077
4499.76,0.07751
4493.98,0.07431
4488.19,0.07271
4482.4,0.07151
4476.62,0.07003
4470.83,0.06914
4465.05,0.06729
4459.26,0.06541
4453.47,0.06596
4447.69,0.06677
4441.9,0.06632
4436.11,0.06575
4430.33,0.06480
4424.54,0.06584
4418.76,0.06622
4412.97,0.06635
4407.18,0.06683
4401.4,0.06674
4395.61,0.06759
4389.82,0.06794
4384.04,0.06772
4378.25,0.06785
4372.47,0.06826
4366.68,0.06758
4360.89,0.06746
4355.11,0.06751
4349.32,0.06790
4343.53,0.06696
4337.75,0.06705
4331.96,0.06771
4326.18,0.06730
4320.39,0.06679
4314.6,0.06572
4308.82,0.06591
4303.03,0.06584
4297.24,0.06591
4291.46,0.06526
4285.67,0.06570
4279.89,0.06619
4274.1,0.06593
4268.31,0.06613
4262.53,0.06668
4256.74,0.06619
4250.95,0.06713
4245.17,0.06614
4239.38,0.06696
4233.6,0.06659
4227.81,0.06688
4222.02,0.06678
4216.24,0.06684
4210.45,0.06763
4204.66,0.06756
4198.88,0.06707
4193.09,0.06722
4187.31,0.06710
4181.52,0.06681
4175.73,0.06681
4169.95,0.06726
4164.16,0.06720
4158.37,0.06844
4152.59,0.06772
4146.8,0.06794
4141.02,0.06755
4135.23,0.06778
4129.44,0.06715
4123.66,0.06632
4117.87,0.06644
4112.09,0.06620
4106.3,0.06607
4100.51,0.06545
4094.73,0.06459
4088.94,0.06358
4083.15,0.06445
4077.37,0.06502
4071.58,0.06575
4065.8,0.06662
4060.01,0.06671
4054.22,0.06709
4048.44,0.06730
4042.65,0.06775
4036.86,0.06796
4031.08,0.06822
4025.29,0.06806
4019.51,0.06770
4013.72,0.06856
4007.93,0.06812
4002.15,0.06795
3996.36,0.06796
3990.57,0.06837
3984.79,0.06834
3979,0.06821
3973.22,0.06793
3967.43,0.06844
3961.64,0.06882
3955.86,0.06889
3950.07,0.07011
3944.28,0.07033
3938.5,0.07005
3932.71,0.06929
3926.93,0.06954
3921.14,0.06952
3915.35,0.07005
3909.57,0.07058
3903.78,0.07105
3897.99,0.07093
3892.21,0.07193
3886.42,0.07153
3880.64,0.07178
3874.85,0.07221
3869.06,0.07243
3863.28,0.07220
3857.49,0.07230
3851.7,0.07249
3845.92,0.07273
3840.13,0.07244
3834.35,0.07254
3828.56,0.07273
3822.77,0.07308
3816.99,0.07137
3811.2,0.07039
3805.41,0.07058
3799.63,0.07076
3793.84,0.07164
3788.06,0.07168
3782.27,0.07157
3776.48,0.07130
3770.7,0.07067
3764.91,0.07032
3759.12,0.06959
3753.34,0.06971
3747.55,0.07084
3741.77,0.07124
3735.98,0.07061
3730.19,0.07021
3724.41,0.07072
3718.62,0.07123
3712.83,0.07106
3707.05,0.06931
3701.26,0.06814
3695.48,0.06712
3689.69,0.06525
3683.9,0.06446
3678.12,0.06374
3672.33,0.06425
3666.54,0.06433
3660.76,0.06378
3654.97,0.06330
3649.19,0.06335
3643.4,0.06355
3637.61,0.06390
3631.83,0.06328
3626.04,0.06377
3620.25,0.06352
3614.47,0.06372
3608.68,0.06338
3602.9,0.06369
3597.11,0.06323
3591.32,0.06340
3585.54,0.06284
3579.75,0.06317
3573.97,0.06305
3568.18,0.06251
3562.39,0.06199
3556.61,0.06276
3550.82,0.06321
3545.03,0.06232
3539.25,0.06251
3533.46,0.06274
3527.68,0.06304
3521.89,0.06328
3516.1,0.06299
3510.32,0.06315
3504.53,0.06342
3498.74,0.06362
3492.96,0.06333
3487.17,0.06312
3481.39,0.06326
3475.6,0.06293
3469.81,0.06291
3464.03,0.06305
3458.24,0.06212
3452.45,0.06196
3446.67,0.06102
3440.88,0.06123
3435.1,0.06180
3429.31,0.06185
3423.52,0.06247
3417.74,0.06220
3411.95,0.06342
3406.16,0.06249
3400.38,0.06345
3394.59,0.06317
3388.81,0.06380
3383.02,0.06434
3377.23,0.06392
3371.45,0.06437
3365.66,0.06409
3359.87,0.06280
3354.09,0.06355
3348.3,0.06349
3342.52,0.06311
3336.73,0.06313
3330.94,0.06351
3325.16,0.06327
3319.37,0.06295
3313.58,0.06286
3307.8,0.06331
3302.01,0.06348
3296.23,0.06296
3290.44,0.06340
3284.65,0.06365
3278.87,0.06340
3273.08,0.06304
3267.29,0.06288
3261.51,0.06359
3255.72,0.06344
3249.94,0.06364
3244.15,0.06417
3238.36,0.06375
3232.58,0.06387
3226.79,0.06315
3221,0.06279
3215.22,0.06265
3209.43,0.06304
3203.65,0.06361
3197.86,0.06310
3192.07,0.06286
3186.29,0.06281
3180.5,0.06231
3174.71,0.06238
3168.93,0.06253
3163.14,0.06252
3157.36,0.06250
3151.57,0.06268
3145.78,0.06253
3140,0.06232
3134.21,0.06144
3128.42,0.06209
3122.64,0.06193
3116.85,0.06181
3111.07,0.06116
3105.28,0.06135
3099.49,0.06181
3093.71,0.06133
3087.92,0.06152
3082.14,0.06050
3076.35,0.06101
3070.56,0.06103
3064.78,0.06066
3058.99,0.06128
3053.2,0.06097
3047.42,0.06169
3041.63,0.06173
3035.85,0.06164
3030.06,0.06134
3024.27,0.06120
3018.49,0.06095
3012.7,0.06052
3006.91,0.06069
3001.13,0.06079
2995.34,0.06032
2989.56,0.06033
2983.77,0.05977
2977.98,0.06034
2972.2,0.06032
2966.41,0.06069
2960.62,0.06079
2954.84,0.06146
2949.05,0.06229
2943.27,0.06260
2937.48,0.06300
2931.69,0.06419
2925.91,0.06535
2920.12,0.06601
2914.33,0.06497
2908.55,0.06367
2902.76,0.06375
2896.98,0.06375
2891.19,0.06266
2885.4,0.06233
2879.62,0.06277
2873.83,0.06311
2868.04,0.06289
2862.26,0.06293
2856.47,0.06411
2850.69,0.06501
2844.9,0.06420
2839.11,0.06396
2833.33,0.06334
2827.54,0.06319
2821.75,0.06320
2815.97,0.06303
2810.18,0.06317
2804.4,0.06294
2798.61,0.06269
2792.82,0.06308
2787.04,0.06263
2781.25,0.06323
2775.46,0.06311
2769.68,0.06296
2763.89,0.06326
2758.11,0.06285
2752.32,0.06317
2746.53,0.06306
2740.75,0.06287
2734.96,0.06297
2729.17,0.06299
2723.39,0.06342
2717.6,0.06352
2711.82,0.06352
2706.03,0.06352
2700.24,0.06418
2694.46,0.06419
2688.67,0.06434
2682.88,0.06374
2677.1,0.06380
2671.31,0.06349
2665.53,0.06380
2659.74,0.06392
2653.95,0.06345
2648.17,0.06359
2642.38,0.06320
2636.59,0.06281
2630.81,0.06256
2625.02,0.06230
2619.24,0.06219
2613.45,0.06255
2607.66,0.06227
2601.88,0.06220
2596.09,0.06208
2590.3,0.06179
2584.52,0.06167
2578.73,0.06156
2572.95,0.06130
2567.16,0.06187
2561.37,0.06176
2555.59,0.06180
2549.8,0.06186
2544.02,0.06171
2538.23,0.06141
2532.44,0.06146
2526.66,0.06179
2520.87,0.06161
2515.08,0.06174
2509.3,0.06216
2503.51,0.06168
2497.73,0.06192
2491.94,0.06209
2486.15,0.06185
2480.37,0.06160
2474.58,0.06212
2468.79,0.06211
2463.01,0.06204
2457.22,0.06224
2451.44,0.06163
2445.65,0.06164
2439.86,0.06151
2434.08,0.06163
2428.29,0.06134
2422.5,0.06088
2416.72,0.06114
2410.93,0.06098
2405.15,0.06102
2399.36,0.06098
2393.57,0.06057
2387.79,0.06038
2382,0.06074
2376.21,0.06053
2370.43,0.06067
2364.64,0.06109
2358.86,0.06108
2353.07,0.06100
2347.28,0.06077
2341.5,0.06134
2335.71,0.06111
2329.92,0.06160
2324.14,0.06123
2318.35,0.06116
2312.57,0.06123
2306.78,0.06062
2300.99,0.06042
2295.21,0.06043
2289.42,0.05995
2283.63,0.05996
2277.85,0.06011
2272.06,0.06025
2266.28,0.06001
2260.49,0.06005
2254.7,0.06011
2248.92,0.06026
2243.13,0.06012
2237.34,0.06021
2231.56,0.06012
2225.77,0.05986
2219.99,0.06029
2214.2,0.06015
2208.41,0.06024
2202.63,0.06018
2196.84,0.06032
2191.05,0.05995
2185.27,0.06008
2179.48,0.05981
2173.7,0.05990
2167.91,0.05968
2162.12,0.05930
2156.34,0.05911
2150.55,0.05931
2144.76,0.05917
2138.98,0.05883
2133.19,0.05886
2127.41,0.05864
2121.62,0.05887
2115.83,0.05870
2110.05,0.05881
2104.26,0.05858
2098.47,0.05873
2092.69,0.05889
2086.9,0.05857
2081.12,0.05842
2075.33,0.05856
2069.54,0.05861
2063.76,0.05830
2057.97,0.05857
2052.19,0.05860
2046.4,0.05827
2040.61,0.05818
2034.83,0.05816
2029.04,0.05807
2023.25,0.05807
2017.47,0.05755
2011.68,0.05746
2005.9,0.05716
2000.11,0.05724
1994.32,0.05739
1988.54,0.05716
1982.75,0.05674
1976.96,0.05678
1971.18,0.05659
1965.39,0.05645
1959.61,0.05648
1953.82,0.05632
1948.03,0.05639
1942.25,0.05644
1936.46,0.05628
1930.67,0.05627
1924.89,0.05623
1919.1,0.05583
1913.32,0.05576
1907.53,0.05538
1901.74,0.05555
1895.96,0.05512
1890.17,0.05492
1884.38,0.05440
1878.6,0.05435
1872.81,0.05413
1867.03,0.05383
1861.24,0.05371
1855.45,0.05313
1849.67,0.05310
1843.88,0.05218
1838.09,0.05186
1832.31,0.05169
1826.52,0.05151
1820.74,0.05068
1814.95,0.04991
1809.16,0.04962
1803.38,0.04892
1797.59,0.04770
1791.8,0.04695
1786.02,0.04604
1780.23,0.04507
1774.45,0.04326
1768.66,0.04132
1762.87,0.03878
1757.09,0.03546
1751.3,0.03088
1745.51,0.02533
1739.73,0.02624
1733.94,0.04498
1728.16,0.07700
1722.37,0.11095
1716.58,0.13177
1710.8,0.11721
1705.01,0.09781
1699.22,0.08586
1693.44,0.07940
1687.65,0.07544
1681.87,0.07309
1676.08,0.07118
1670.29,0.06952
1664.51,0.06857
1658.72,0.06733
1652.93,0.06625
1647.15,0.06563
1641.36,0.06431
1635.58,0.06358
1629.79,0.06282
1624,0.06271
1618.22,0.06181
1612.43,0.06169
1606.64,0.06144
1600.86,0.06059
1595.07,0.05962
1589.29,0.05935
1583.5,0.05831
1577.71,0.05877
1571.93,0.05932
1566.14,0.05880
1560.35,0.05852
1554.57,0.05753
1548.78,0.05698
1543,0.05620
1537.21,0.05566
1531.42,0.05564
1525.64,0.05492
1519.85,0.05454
1514.07,0.05350
1508.28,0.05318
1502.49,0.05551
1496.71,0.05511
1490.92,0.05365
1485.13,0.05206
1479.35,0.05143
1473.56,0.05114
1467.78,0.05134
1461.99,0.05046
1456.2,0.05046
1450.42,0.05102
1444.63,0.05113
1438.84,0.05073
1433.06,0.05014
1427.27,0.04858
1421.49,0.04507
1415.7,0.04143
1409.91,0.04838
1404.13,0.05494
1398.34,0.05286
1392.55,0.05056
1386.77,0.04908
1380.98,0.04766
1375.2,0.04601
1369.41,0.04668
1363.62,0.04663
1357.84,0.04354
1352.05,0.04044
1346.26,0.03919
1340.48,0.04933
1334.69,0.04848
1328.91,0.04026
1323.12,0.03510
1317.33,0.03112
1311.55,0.02793
1305.76,0.02468
1299.97,0.02402
1294.19,0.03178
1288.4,0.04545
1282.62,0.05975
1276.83,0.07932
1271.04,0.10461
1265.26,0.13057
1259.47,0.14378
1253.68,0.15226
1247.9,0.16046
1242.11,0.15668
1236.33,0.14154
1230.54,0.12280
1224.75,0.10845
1218.97,0.09948
1213.18,0.09196
1207.39,0.08654
1201.61,0.08211
1195.82,0.07795
1190.04,0.07382
1184.25,0.06957
1178.46,0.06660
1172.68,0.06562
1166.89,0.06283
1161.1,0.05856
1155.32,0.05383
1149.53,0.04896
1143.75,0.04454
1137.96,0.04632
1132.17,0.06100
1126.39,0.08129
1120.6,0.09264
1114.81,0.09275
1109.03,0.09177
1103.24,0.10301
1097.46,0.11761
1091.67,0.12118
1085.88,0.11656
1080.1,0.11088
1074.31,0.10225
1068.52,0.09548
1062.74,0.09026
1056.95,0.08540
1051.17,0.08182
1045.38,0.08070
1039.59,0.08097
1033.81,0.07986
1028.02,0.07647
1022.24,0.08253
1016.45,0.09857
1010.66,0.09554
1004.88,0.08908
999.09,0.08491
993.304,0.08232
987.518,0.08096
981.731,0.07938
975.945,0.07866
970.159,0.08064
964.373,0.08005
958.586,0.07856
952.8,0.07726
947.014,0.07678
941.228,0.07539
935.441,0.07458
929.655,0.07326
923.869,0.07265
918.083,0.07141
912.297,0.07009
906.51,0.06847
900.724,0.06822
894.938,0.06931
889.152,0.06819
883.365,0.06704
877.579,0.06681
871.793,0.07286
866.007,0.07434
860.22,0.07287
854.434,0.07174
848.648,0.07235
842.862,0.07350
837.075,0.07319
831.289,0.07243
825.503,0.07121
819.717,0.07072
813.931,0.07142
808.144,0.07074
802.358,0.06924
796.572,0.06862
790.786,0.07029
784.999,0.07007
779.213,0.06885
773.427,0.06712
767.641,0.06461
761.854,0.06362
756.068,0.06038
750.282,0.05667
744.496,0.04791
738.709,0.03626
732.923,0.05326
727.137,0.11681
721.351,0.12801
715.565,0.10150
709.778,0.09110
703.992,0.08608
698.206,0.08453
692.42,0.08285
686.633,0.07977
680.847,0.07865
675.061,0.07760
669.275,0.07767
663.488,0.07763
657.702,0.07423
651.916,0.07502
646.13,0.07415
640.343,0.07334
634.557,0.07354
628.771,0.07337
622.985,0.06962
617.198,0.07071
611.412,0.07103
605.626,0.07047
599.84,0.07102