File: 01_Data/PET/FTIR/IS/PET_IS_S_220831_R2.dpt
7497.03,0.51897
7491.25,0.51866
7485.46,0.50727
7479.67,0.50661
7473.89,0.49732
7468.1,0.49033
7462.32,0.48770
7456.53,0.47908
7450.74,0.46882
7444.96,0.46856
7439.17,0.45997
7433.38,0.44814
7427.6,0.43040
7421.81,0.42777
7416.03,0.41003
7410.24,0.40992
7404.45,0.40265
7398.67,0.39525
7392.88,0.38807
7387.09,0.37926
7381.31,0.38091
7375.52,0.37939
7369.74,0.36878
7363.95,0.35612
7358.16,0.35305
7352.38,0.36443
7346.59,0.36064
7340.8,0.34986
7335.02,0.34974
7329.23,0.35353
7323.45,0.35264
7317.66,0.35174
7311.87,0.35440
7306.09,0.35228
7300.3,0.35043
7294.51,0.35235
7288.73,0.35149
7282.94,0.34964
7277.16,0.34982
7271.37,0.34442
7265.58,0.34675
7259.8,0.34397
7254.01,0.34531
7248.22,0.34242
7242.44,0.33573
7236.65,0.33135
7230.87,0.33871
7225.08,0.33885
7219.29,0.32997
7213.51,0.33315
7207.72,0.33028
7201.93,0.33197
7196.15,0.32884
7190.36,0.32744
7184.58,0.32537
7178.79,0.32395
7173,0.32813
7167.22,0.32245
7161.43,0.32208
7155.65,0.32050
7149.86,0.30981
7144.07,0.30819
7138.29,0.30968
7132.5,0.30049
7126.71,0.30288
7120.93,0.29353
7115.14,0.29642
7109.36,0.29060
7103.57,0.29166
7097.78,0.29105
7092,0.29312
7086.21,0.29093
7080.42,0.29281
7074.64,0.28724
7068.85,0.28329
7063.07,0.28704
7057.28,0.28839
7051.49,0.28337
7045.71,0.29467
7039.92,0.29549
7034.13,0.29837
7028.35,0.29906
7022.56,0.29707
7016.78,0.29896
7010.99,0.30633
7005.2,0.30852
6999.42,0.30907
6993.63,0.30999
6987.84,0.32087
6982.06,0.32170
6976.27,0.32775
6970.49,0.32968
6964.7,0.32869
6958.91,0.33013
6953.13,0.33807
6947.34,0.34466
6941.55,0.34649
6935.77,0.34560
6929.98,0.34443
6924.2,0.34715
6918.41,0.34935
6912.62,0.35478
6906.84,0.36037
6901.05,0.36153
6895.26,0.36155
6889.48,0.36267
6883.69,0.36342
6877.91,0.36614
6872.12,0.36490
6866.33,0.36372
6860.55,0.36729
6854.76,0.36286
6848.97,0.36676
6843.19,0.36824
6837.4,0.36696
6831.62,0.37322
6825.83,0.37811
6820.04,0.38171
6814.26,0.38053
6808.47,0.38897
6802.68,0.39145
6796.9,0.38921
6791.11,0.39338
6785.33,0.39378
6779.54,0.39716
6773.75,0.39861
6767.97,0.40251
6762.18,0.40145
6756.39,0.40789
6750.61,0.41491
6744.82,0.41080
6739.04,0.41744
6733.25,0.42210
6727.46,0.42556
6721.68,0.42699
6715.89,0.42718
6710.1,0.43316
6704.32,0.42746
6698.53,0.42587
6692.75,0.43472
6686.96,0.42634
6681.17,0.43048
6675.39,0.43438
6669.6,0.43247
6663.82,0.43033
6658.03,0.43394
6652.24,0.43960
6646.46,0.43710
6640.67,0.44030
6634.88,0.43979
6629.1,0.43876
6623.31,0.44718
6617.53,0.44477
6611.74,0.44921
6605.95,0.45134
6600.17,0.44951
6594.38,0.45268
6588.59,0.44828
6582.81,0.45304
6577.02,0.45570
6571.24,0.45260
6565.45,0.45065
6559.66,0.45003
6553.88,0.45145
6548.09,0.44999
6542.3,0.45141
6536.52,0.44906
6530.73,0.44628
6524.95,0.44697
6519.16,0.45174
6513.37,0.44834
6507.59,0.44664
6501.8,0.44734
6496.01,0.44161
6490.23,0.44116
6484.44,0.44885
6478.66,0.44713
6472.87,0.45022
6467.08,0.44465
6461.3,0.44501
6455.51,0.44207
6449.72,0.43867
6443.94,0.43945
6438.15,0.43710
6432.37,0.43615
6426.58,0.43576
6420.79,0.43419
6415.01,0.43677
6409.22,0.43936
6403.43,0.43309
6397.65,0.43362
6391.86,0.43073
6386.08,0.43478
6380.29,0.43620
6374.5,0.43391
6368.72,0.43263
6362.93,0.43384
6357.14,0.43003
6351.36,0.42894
6345.57,0.42492
6339.79,0.41369
6334,0.41111
6328.21,0.40976
6322.43,0.41251
6316.64,0.40951
6310.85,0.41060
6305.07,0.40572
6299.28,0.40884
6293.5,0.40614
6287.71,0.40202
6281.92,0.39775
6276.14,0.39207
6270.35,0.38626
6264.56,0.37882
6258.78,0.37585
6252.99,0.36955
6247.21,0.36498
6241.42,0.35803
6235.63,0.35810
6229.85,0.35060
6224.06,0.34350
6218.27,0.33351
6212.49,0.31809
6206.7,0.29745
6200.92,0.27518
6195.13,0.25871
6189.34,0.25977
6183.56,0.26205
6177.77,0.26597
6171.98,0.26549
6166.2,0.26399
6160.41,0.25441
6154.63,0.24366
6148.84,0.23006
6143.05,0.22242
6137.27,0.22040
6131.48,0.21857
6125.7,0.21505
6119.91,0.20869
6114.12,0.19096
6108.34,0.17684
6102.55,0.16184
6096.76,0.14406
6090.98,0.13526
6085.19,0.12458
6079.41,0.11629
6073.62,0.11409
6067.83,0.10764
6062.05,0.10008
6056.26,0.09482
6050.47,0.08880
6044.69,0.08642
6038.9,0.08354
6033.12,0.08120
6027.33,0.08101
6021.54,0.07889
6015.76,0.08030
6009.97,0.08222
6004.18,0.08500
5998.4,0.08827
5992.61,0.09293
5986.83,0.09250
5981.04,0.09584
5975.25,0.09263
5969.47,0.09910
5963.68,0.10160
5957.89,0.10274
5952.11,0.10374
5946.32,0.10393
5940.54,0.10386
5934.75,0.10854
5928.96,0.11490
5923.18,0.12351
5917.39,0.12564
5911.6,0.13364
5905.82,0.13716
5900.03,0.13773
5894.25,0.13500
5888.46,0.12883
5882.67,0.12449
5876.89,0.12383
5871.1,0.12102
5865.31,0.12052
5859.53,0.11811
5853.74,0.12006
5847.96,0.12228
5842.17,0.12305
5836.38,0.12539
5830.6,0.12639
5824.81,0.12185
5819.02,0.12229
5813.24,0.11771
5807.45,0.11968
5801.67,0.12271
5795.88,0.12170
5790.09,0.12205
5784.31,0.12340
5778.52,0.12575
5772.73,0.12759
5766.95,0.12701
5761.16,0.13013
5755.38,0.13048
5749.59,0.13751
5743.8,0.14160
5738.02,0.14440
5732.23,0.14649
5726.44,0.15195
5720.66,0.15265
5714.87,0.15171
5709.09,0.15119
5703.3,0.15368
5697.51,0.15382
5691.73,0.15621
5685.94,0.15926
5680.15,0.16127
5674.37,0.16151
5668.58,0.16430
5662.8,0.16344
5657.01,0.16375
5651.22,0.16229
5645.44,0.16442
5639.65,0.16782
5633.87,0.17261
5628.08,0.17522
5622.29,0.17813
5616.51,0.17948
5610.72,0.18016
5604.93,0.17899
5599.15,0.17792
5593.36,0.17704
5587.58,0.17375
5581.79,0.16990
5576,0.16692
5570.22,0.16580
5564.43,0.16354
5558.64,0.16601
5552.86,0.16528
5547.07,0.16664
5541.29,0.16356
5535.5,0.16395
5529.71,0.16560
5523.93,0.16521
5518.14,0.16538
5512.35,0.16612
5506.57,0.16884
5500.78,0.16767
5495,0.16809
5489.21,0.16518
5483.42,0.16219
5477.64,0.16180
5471.85,0.16300
5466.06,0.16555
5460.28,0.16637
5454.49,0.16989
5448.71,0.17316
5442.92,0.17806
5437.13,0.18210
5431.35,0.18652
5425.56,0.18887
5419.77,0.18944
5413.99,0.18893
5408.2,0.18795
5402.42,0.18526
5396.63,0.18520
5390.84,0.18528
5385.06,0.18480
5379.27,0.18465
5373.48,0.18290
5367.7,0.18111
5361.91,0.18103
5356.13,0.17694
5350.34,0.17693
5344.55,0.17663
5338.77,0.17739
5332.98,0.17886
5327.19,0.17807
5321.41,0.17880
5315.62,0.17744
5309.84,0.17461
5304.05,0.17188
5298.26,0.16683
5292.48,0.16023
5286.69,0.15211
5280.9,0.14394
5275.12,0.13596
5269.33,0.12611
5263.55,0.12022
5257.76,0.11593
5251.97,0.11430
5246.19,0.11364
5240.4,0.11470
5234.61,0.11705
5228.83,0.11768
5223.04,0.12205
5217.26,0.12661
5211.47,0.13195
5205.68,0.13633
5199.9,0.14199
5194.11,0.14523
5188.32,0.14727
5182.54,0.15071
5176.75,0.15041
5170.97,0.14911
5165.18,0.14917
5159.39,0.14598
5153.61,0.14262
5147.82,0.13930
5142.03,0.13701
5136.25,0.13374
5130.46,0.12905
5124.68,0.12448
5118.89,0.12154
5113.1,0.12453
5107.32,0.13063
5101.53,0.13805
5095.75,0.14409
5089.96,0.14932
5084.17,0.15512
5078.39,0.15915
5072.6,0.16157
5066.81,0.16511
5061.03,0.16654
5055.24,0.16790
5049.46,0.16805
5043.67,0.16808
5037.88,0.16676
5032.1,0.16630
5026.31,0.16599
5020.52,0.16562
5014.74,0.16556
5008.95,0.16394
5003.17,0.16549
4997.38,0.16845
4991.59,0.17005
4985.81,0.16956
4980.02,0.17101
4974.23,0.17047
4968.45,0.17070
4962.66,0.16854
4956.88,0.16748
4951.09,0.16258
4945.3,0.16096
4939.52,0.15842
4933.73,0.15783
4927.94,0.15624
4922.16,0.15574
4916.37,0.15338
4910.59,0.15191
4904.8,0.15136
4899.01,0.14815
4893.23,0.14726
4887.44,0.14609
4881.65,0.14557
4875.87,0.14454
4870.08,0.14327
4864.3,0.14225
4858.51,0.14031
4852.72,0.13686
4846.94,0.13495
4841.15,0.13052
4835.36,0.12489
4829.58,0.11970
4823.79,0.11434
4818.01,0.11064
4812.22,0.10832
4806.43,0.10543
4800.65,0.10336
4794.86,0.10315
4789.07,0.10390
4783.29,0.10565
4777.5,0.10837
4771.72,0.10962
4765.93,0.10956
4760.14,0.10829
4754.36,0.10233
4748.57,0.09735
4742.78,0.09273
4737,0.08797
4731.21,0.08507
4725.43,0.07866
4719.64,0.07755
4713.85,0.07610
4708.07,0.07569
4702.28,0.07503
4696.49,0.07090
4690.71,0.07000
4684.92,0.07055
4679.14,0.07331
4673.35,0.07674
4667.56,0.07848
4661.78,0.07982
4655.99,0.07993
4650.2,0.07826
4644.42,0.07589
4638.63,0.07249
4632.85,0.07319
4627.06,0.07504
4621.27,0.07905
4615.49,0.08435
4609.7,0.08657
4603.92,0.08751
4598.13,0.08624
4592.34,0.08176
4586.56,0.08022
4580.77,0.07766
4574.98,0.07885
4569.2,0.08280
4563.41,0.08927
4557.63,0.09132
4551.84,0.09174
4546.05,0.09082
4540.27,0.09076
4534.48,0.09117
4528.69,0.08983
4522.91,0.08849
4517.12,0.08632
4511.34,0.08388
4505.55,0.08091
4499.76,0.07599
4493.98,0.07347
4488.19,0.07099
4482.4,0.07061
4476.62,0.07048
4470.83,0.06942
4465.05,0.06669
4459.26,0.06560
4453.47,0.06531
4447.69,0.06581
4441.9,0.06502
4436.11,0.06508
4430.33,0.06562
4424.54,0.06504
4418.76,0.06562
4412.97,0.06587
4407.18,0.06551
4401.4,0.06712
4395.61,0.06708
4389.82,0.06710
4384.04,0.06809
4378.25,0.06850
4372.47,0.06768
4366.68,0.06811
4360.89,0.06780
4355.11,0.06756
4349.32,0.06825
4343.53,0.06776
4337.75,0.06724
4331.96,0.06659
4326.18,0.06713
4320.39,0.06695
4314.6,0.06684
4308.82,0.06696
4303.03,0.06651
4297.24,0.06645
4291.46,0.06519
4285.67,0.06527
4279.89,0.06604
4274.1,0.06578
4268.31,0.06591
4262.53,0.06625
4256.74,0.06649
4250.95,0.06610
4245.17,0.06543
4239.38,0.06574
4233.6,0.06644
4227.81,0.06645
4222.02,0.06636
4216.24,0.06651
4210.45,0.06675
4204.66,0.06728
4198.88,0.06715
4193.09,0.06775
4187.31,0.06733
4181.52,0.06726
4175.73,0.06574
4169.95,0.06662
4164.16,0.06717
4158.37,0.06726
4152.59,0.06716
4146.8,0.06722
4141.02,0.06743
4135.23,0.06681
4129.44,0.06650
4123.66,0.06665
4117.87,0.06681
4112.09,0.06567
4106.3,0.06544
4100.51,0.06453
4094.73,0.06471
4088.94,0.06449
4083.15,0.06419
4077.37,0.06517
4071.58,0.06508
4065.8,0.06563
4060.01,0.06589
4054.22,0.06664
4048.44,0.06703
4042.65,0.06755
4036.86,0.06758
4031.08,0.06747
4025.29,0.06829
4019.51,0.06849
4013.72,0.06830
4007.93,0.06750
4002.15,0.06767
3996.36,0.06807
3990.57,0.06814
3984.79,0.06819
3979,0.06878
3973.22,0.06872
3967.43,0.06841
3961.64,0.06813
3955.86,0.06891
3950.07,0.06871
3944.28,0.06929
3938.5,0.06940
3932.71,0.06935
3926.93,0.06968
3921.14,0.06988
3915.35,0.07023
3909.57,0.07002
3903.78,0.07056
3897.99,0.07078
3892.21,0.07121
3886.42,0.07175
3880.64,0.07159
3874.85,0.07209
3869.06,0.07138
3863.28,0.07252
3857.49,0.07228
3851.7,0.07254
3845.92,0.07232
3840.13,0.07229
3834.35,0.07285
3828.56,0.07281
3822.77,0.07251
3816.99,0.07086
3811.2,0.06939
3805.41,0.06970
3799.63,0.06996
3793.84,0.07092
3788.06,0.07112
3782.27,0.07147
3776.48,0.07110
3770.7,0.07043
3764.91,0.06999
3759.12,0.06896
3753.34,0.06949
3747.55,0.07077
3741.77,0.07070
3735.98,0.07014
3730.19,0.06958
3724.41,0.07078
3718.62,0.07111
3712.83,0.07114
3707.05,0.06931
3701.26,0.06796
3695.48,0.06647
3689.69,0.06538
3683.9,0.06424
3678.12,0.06428
3672.33,0.06465
3666.54,0.06438
3660.76,0.06353
3654.97,0.06316
3649.19,0.06313
3643.4,0.06252
3637.61,0.06293
3631.83,0.06322
3626.04,0.06325
3620.25,0.06225
3614.47,0.06328
3608.68,0.06329
3602.9,0.06381
3597.11,0.06342
3591.32,0.06295
3585.54,0.06320
3579.75,0.06309
3573.97,0.06286
3568.18,0.06223
3562.39,0.06251
3556.61,0.06199
3550.82,0.06211
3545.03,0.06237
3539.25,0.06206
3533.46,0.06299
3527.68,0.06291
3521.89,0.06280
3516.1,0.06278
3510.32,0.06242
3504.53,0.06346
3498.74,0.06291
3492.96,0.06326
3487.17,0.06281
3481.39,0.06306
3475.6,0.06272
3469.81,0.06315
3464.03,0.06220
3458.24,0.06202
3452.45,0.06182
3446.67,0.06190
3440.88,0.06199
3435.1,0.06189
3429.31,0.06191
3423.52,0.06220
3417.74,0.06247
3411.95,0.06243
3406.16,0.06241
3400.38,0.06310
3394.59,0.06336
3388.81,0.06402
3383.02,0.06337
3377.23,0.06303
3371.45,0.06390
3365.66,0.06381
3359.87,0.06372
3354.09,0.06350
3348.3,0.06313
3342.52,0.06304
3336.73,0.06233
3330.94,0.06329
3325.16,0.06322
3319.37,0.06280
3313.58,0.06343
3307.8,0.06296
3302.01,0.06303
3296.23,0.06283
3290.44,0.06333
3284.65,0.06337
3278.87,0.06363
3273.08,0.06354
3267.29,0.06318
3261.51,0.06288
3255.72,0.06303
3249.94,0.06260
3244.15,0.06305
3238.36,0.06263
3232.58,0.06327
3226.79,0.06309
3221,0.06235
3215.22,0.06261
3209.43,0.06336
3203.65,0.06314
3197.86,0.06273
3192.07,0.06307
3186.29,0.06356
3180.5,0.06307
3174.71,0.06331
3168.93,0.06225
3163.14,0.06261
3157.36,0.06236
3151.57,0.06281
3145.78,0.06243
3140,0.06184
3134.21,0.06166
3128.42,0.06122
3122.64,0.06143
3116.85,0.06139
3111.07,0.06093
3105.28,0.06150
3099.49,0.06135
3093.71,0.06187
3087.92,0.06098
3082.14,0.06100
3076.35,0.06117
3070.56,0.06095
3064.78,0.06146
3058.99,0.06094
3053.2,0.06114
3047.42,0.06116
3041.63,0.06105
3035.85,0.06070
3030.06,0.06082
3024.27,0.06052
3018.49,0.06041
3012.7,0.06067
3006.91,0.06059
3001.13,0.06076
2995.34,0.06026
2989.56,0.05953
2983.77,0.06001
2977.98,0.05992
2972.2,0.06004
2966.41,0.06080
2960.62,0.06135
2954.84,0.06157
2949.05,0.06203
2943.27,0.06176
2937.48,0.06306
2931.69,0.06405
2925.91,0.06495
2920.12,0.06529
2914.33,0.06499
2908.55,0.06366
2902.76,0.06393
2896.98,0.06284
2891.19,0.06315
2885.4,0.06278
2879.62,0.06246
2873.83,0.06262
2868.04,0.06236
2862.26,0.06287
2856.47,0.06298
2850.69,0.06460
2844.9,0.06388
2839.11,0.06364
2833.33,0.06382
2827.54,0.06327
2821.75,0.06282
2815.97,0.06259
2810.18,0.06298
2804.4,0.06273
2798.61,0.06290
2792.82,0.06267
2787.04,0.06295
2781.25,0.06293
2775.46,0.06302
2769.68,0.06294
2763.89,0.06296
2758.11,0.06310
2752.32,0.06293
2746.53,0.06278
2740.75,0.06255
2734.96,0.06299
2729.17,0.06305
2723.39,0.06318
2717.6,0.06323
2711.82,0.06343
2706.03,0.06325
2700.24,0.06396
2694.46,0.06378
2688.67,0.06369
2682.88,0.06348
2677.1,0.06367
2671.31,0.06396
2665.53,0.06358
2659.74,0.06320
2653.95,0.06276
2648.17,0.06309
2642.38,0.06294
2636.59,0.06259
2630.81,0.06225
2625.02,0.06220
2619.24,0.06178
2613.45,0.06210
2607.66,0.06234
2601.88,0.06182
2596.09,0.06152
2590.3,0.06171
2584.52,0.06162
2578.73,0.06136
2572.95,0.06186
2567.16,0.06156
2561.37,0.06142
2555.59,0.06145
2549.8,0.06158
2544.02,0.06138
2538.23,0.06127
2532.44,0.06127
2526.66,0.06148
2520.87,0.06159
2515.08,0.06186
2509.3,0.06175
2503.51,0.06148
2497.73,0.06135
2491.94,0.06161
2486.15,0.06208
2480.37,0.06168
2474.58,0.06202
2468.79,0.06225
2463.01,0.06157
2457.22,0.06176
2451.44,0.06150
2445.65,0.06168
2439.86,0.06150
2434.08,0.06130
2428.29,0.06075
2422.5,0.06063
2416.72,0.06045
2410.93,0.06072
2405.15,0.06066
2399.36,0.06042
2393.57,0.06035
2387.79,0.06042
2382,0.06038
2376.21,0.06039
2370.43,0.06062
2364.64,0.06061
2358.86,0.06056
2353.07,0.06073
2347.28,0.06097
2341.5,0.06071
2335.71,0.06054
2329.92,0.06068
2324.14,0.06089
2318.35,0.06063
2312.57,0.06038
2306.78,0.06038
2300.99,0.05998
2295.21,0.05976
2289.42,0.06009
2283.63,0.06005
2277.85,0.05984
2272.06,0.05941
2266.28,0.05963
2260.49,0.05977
2254.7,0.05984
2248.92,0.05966
2243.13,0.05973
2237.34,0.05977
2231.56,0.06019
2225.77,0.05984
2219.99,0.05970
2214.2,0.05985
2208.41,0.05949
2202.63,0.05967
2196.84,0.06008
2191.05,0.05991
2185.27,0.05960
2179.48,0.05947
2173.7,0.05949
2167.91,0.05965
2162.12,0.05922
2156.34,0.05897
2150.55,0.05909
2144.76,0.05900
2138.98,0.05879
2133.19,0.05857
2127.41,0.05879
2121.62,0.05837
2115.83,0.05837
2110.05,0.05845
2104.26,0.05871
2098.47,0.05767
2092.69,0.05835
2086.9,0.05862
2081.12,0.05839
2075.33,0.05815
2069.54,0.05855
2063.76,0.05836
2057.97,0.05845
2052.19,0.05800
2046.4,0.05806
2040.61,0.05804
2034.83,0.05784
2029.04,0.05774
2023.25,0.05765
2017.47,0.05781
2011.68,0.05708
2005.9,0.05690
2000.11,0.05706
1994.32,0.05680
1988.54,0.05666
1982.75,0.05635
1976.96,0.05640
1971.18,0.05635
1965.39,0.05604
1959.61,0.05647
1953.82,0.05611
1948.03,0.05626
1942.25,0.05636
1936.46,0.05593
1930.67,0.05572
1924.89,0.05591
1919.1,0.05581
1913.32,0.05544
1907.53,0.05549
1901.74,0.05517
1895.96,0.05498
1890.17,0.05458
1884.38,0.05459
1878.6,0.05404
1872.81,0.05376
1867.03,0.05321
1861.24,0.05328
1855.45,0.05296
1849.67,0.05251
1843.88,0.05188
1838.09,0.05173
1832.31,0.05126
1826.52,0.05123
1820.74,0.05023
1814.95,0.04990
1809.16,0.04915
1803.38,0.04880
1797.59,0.04787
1791.8,0.04692
1786.02,0.04590
1780.23,0.04447
1774.45,0.04341
1768.66,0.04105
1762.87,0.03851
1757.09,0.03543
1751.3,0.03057
1745.51,0.02511
1739.73,0.02625
1733.94,0.04431
1728.16,0.07679
1722.37,0.11022
1716.58,0.13100
1710.8,0.11682
1705.01,0.09749
1699.22,0.08626
1693.44,0.07951
1687.65,0.07505
1681.87,0.07241
1676.08,0.07110
1670.29,0.06960
1664.51,0.06864
1658.72,0.06693
1652.93,0.06606
1647.15,0.06555
1641.36,0.06418
1635.58,0.06375
1629.79,0.06247
1624,0.06216
1618.22,0.06151
1612.43,0.06106
1606.64,0.06113
1600.86,0.06050
1595.07,0.05964
1589.29,0.05887
1583.5,0.05792
1577.71,0.05845
1571.93,0.05898
1566.14,0.05805
1560.35,0.05765
1554.57,0.05722
1548.78,0.05659
1543,0.05690
1537.21,0.05583
1531.42,0.05531
1525.64,0.05466
1519.85,0.05370
1514.07,0.05314
1508.28,0.05274
1502.49,0.05540
1496.71,0.05459
1490.92,0.05342
1485.13,0.05215
1479.35,0.05138
1473.56,0.05066
1467.78,0.05112
1461.99,0.05021
1456.2,0.05029
1450.42,0.05029
1444.63,0.05075
1438.84,0.05050
1433.06,0.05009
1427.27,0.04786
1421.49,0.04451
1415.7,0.04127
1409.91,0.04864
1404.13,0.05473
1398.34,0.05234
1392.55,0.05041
1386.77,0.04867
1380.98,0.04695
1375.2,0.04554
1369.41,0.04657
1363.62,0.04624
1357.84,0.04358
1352.05,0.04029
1346.26,0.03893
1340.48,0.04955
1334.69,0.04815
1328.91,0.04076
1323.12,0.03538
1317.33,0.03138
1311.55,0.02733
1305.76,0.02459
1299.97,0.02388
1294.19,0.03151
1288.4,0.04482
1282.62,0.05936
1276.83,0.07873
1271.04,0.10386
1265.26,0.13007
1259.47,0.14309
1253.68,0.15160
1247.9,0.15960
1242.11,0.15600
1236.33,0.14104
1230.54,0.12185
1224.75,0.10818
1218.97,0.09887
1213.18,0.09156
1207.39,0.08622
1201.61,0.08179
1195.82,0.07774
1190.04,0.07377
1184.25,0.06965
1178.46,0.06695
1172.68,0.06473
1166.89,0.06239
1161.1,0.05880
1155.32,0.05353
1149.53,0.04849
1143.75,0.04484
1137.96,0.04645
1132.17,0.05991
1126.39,0.08097
1120.6,0.09241
1114.81,0.09230
1109.03,0.09204
1103.24,0.10247
1097.46,0.11767
1091.67,0.12041
1085.88,0.11642
1080.1,0.11007
1074.31,0.10271
1068.52,0.09528
1062.74,0.08954
1056.95,0.08498
1051.17,0.08148
1045.38,0.08104
1039.59,0.08111
1033.81,0.07941
1028.02,0.07597
1022.24,0.08229
1016.45,0.09720
1010.66,0.09594
1004.88,0.08924
999.09,0.08516
993.304,0.08192
987.518,0.08004
981.731,0.07843
975.945,0.07820
970.159,0.08028
964.373,0.08013
958.586,0.07834
952.8,0.07692
947.014,0.07622
941.228,0.07560
935.441,0.07449
929.655,0.07376
923.869,0.07251
918.083,0.07095
912.297,0.06983
906.51,0.06828
900.724,0.06822
894.938,0.06839
889.152,0.06813
883.365,0.06580
877.579,0.06632
871.793,0.07203
866.007,0.07400
860.22,0.07203
854.434,0.07244
848.648,0.07247
842.862,0.07286
837.075,0.07297
831.289,0.07265
825.503,0.07254
819.717,0.07188
813.931,0.07094
808.144,0.06971
802.358,0.06917
796.572,0.06898
790.786,0.06966
784.999,0.06945
779.213,0.06837
773.427,0.06708
767.641,0.06548
761.854,0.06427
756.068,0.06075
750.282,0.05585
744.496,0.04779
738.709,0.03704
732.923,0.05194
727.137,0.11798
721.351,0.12783
715.565,0.10032
709.778,0.09205
703.992,0.08715
698.206,0.08549
692.42,0.08166
686.633,0.08074
680.847,0.07979
675.061,0.07819
669.275,0.07680
663.488,0.07538
657.702,0.07586
651.916,0.07337
646.13,0.07384
640.343,0.07308
634.557,0.07187
628.771,0.07352
622.985,0.07443
617.198,0.07334
611.412,0.06965
605.626,0.07123
599.84,0.07263