File: 01_Data/PET/FTIR/IS/PET_IS_T_220831_R6.dpt
7497.03,0.02406
7491.25,0.02489
7485.46,0.01782
7479.67,0.02468
7473.89,0.01882
7468.1,0.02702
7462.32,0.02758
7456.53,0.02525
7450.74,0.02570
7444.96,0.02461
7439.17,0.02496
7433.38,0.02185
7427.6,0.02361
7421.81,0.02508
7416.03,0.02440
7410.24,0.02193
7404.45,0.02740
7398.67,0.02810
7392.88,0.02722
7387.09,0.02719
7381.31,0.02461
7375.52,0.01426
7369.74,0.02653
7363.95,0.01875
7358.16,0.02206
7352.38,0.02670
7346.59,0.02335
7340.8,0.02394
7335.02,0.02169
7329.23,0.01640
7323.45,0.02577
7317.66,0.02481
7311.87,0.02265
7306.09,0.03234
7300.3,0.02135
7294.51,0.02496
7288.73,0.02204
7282.94,0.02747
7277.16,0.02170
7271.37,0.02986
7265.58,0.01900
7259.8,0.02319
7254.01,0.02412
7248.22,0.02858
7242.44,0.02094
7236.65,0.02519
7230.87,0.02803
7225.08,0.02015
7219.29,0.02855
7213.51,0.02783
7207.72,0.02529
7201.93,0.02003
7196.15,0.02039
7190.36,0.01879
7184.58,0.02899
7178.79,0.02634
7173,0.02540
7167.22,0.02032
7161.43,0.01728
7155.65,0.02092
7149.86,0.02463
7144.07,0.02490
7138.29,0.02108
7132.5,0.02282
7126.71,0.02278
7120.93,0.02533
7115.14,0.02477
7109.36,0.02341
7103.57,0.03124
7097.78,0.01977
7092,0.02023
7086.21,0.02154
7080.42,0.03165
7074.64,0.02876
7068.85,0.02817
7063.07,0.02509
7057.28,0.02324
7051.49,0.02724
7045.71,0.02884
7039.92,0.01888
7034.13,0.02452
7028.35,0.02911
7022.56,0.02171
7016.78,0.02227
7010.99,0.02081
7005.2,0.02554
6999.42,0.02493
6993.63,0.02043
6987.84,0.02394
6982.06,0.02389
6976.27,0.02192
6970.49,0.01873
6964.7,0.02105
6958.91,0.02253
6953.13,0.02230
6947.34,0.02581
6941.55,0.02920
6935.77,0.02193
6929.98,0.02367
6924.2,0.02256
6918.41,0.02270
6912.62,0.02584
6906.84,0.02588
6901.05,0.02338
6895.26,0.02134
6889.48,0.01864
6883.69,0.02442
6877.91,0.02255
6872.12,0.02318
6866.33,0.02256
6860.55,0.02326
6854.76,0.03285
6848.97,0.02297
6843.19,0.02403
6837.4,0.01985
6831.62,0.02368
6825.83,0.02181
6820.04,0.02686
6814.26,0.02534
6808.47,0.02219
6802.68,0.02506
6796.9,0.02053
6791.11,0.02460
6785.33,0.02068
6779.54,0.01992
6773.75,0.02100
6767.97,0.02512
6762.18,0.02285
6756.39,0.02262
6750.61,0.02343
6744.82,0.02347
6739.04,0.02501
6733.25,0.02699
6727.46,0.02600
6721.68,0.02533
6715.89,0.02123
6710.1,0.02448
6704.32,0.02211
6698.53,0.02015
6692.75,0.02376
6686.96,0.02164
6681.17,0.02271
6675.39,0.02392
6669.6,0.02390
6663.82,0.02340
6658.03,0.02803
6652.24,0.02516
6646.46,0.01952
6640.67,0.02021
6634.88,0.02233
6629.1,0.01932
6623.31,0.02408
6617.53,0.02147
6611.74,0.02199
6605.95,0.02123
6600.17,0.02240
6594.38,0.02304
6588.59,0.02443
6582.81,0.02390
6577.02,0.02256
6571.24,0.02099
6565.45,0.02248
6559.66,0.01913
6553.88,0.02104
6548.09,0.02406
6542.3,0.02222
6536.52,0.02480
6530.73,0.02258
6524.95,0.02093
6519.16,0.02031
6513.37,0.01994
6507.59,0.02077
6501.8,0.02139
6496.01,0.02514
6490.23,0.02084
6484.44,0.02990
6478.66,0.02198
6472.87,0.02174
6467.08,0.02179
6461.3,0.02608
6455.51,0.02283
6449.72,0.02032
6443.94,0.02471
6438.15,0.02649
6432.37,0.02400
6426.58,0.02733
6420.79,0.02480
6415.01,0.02450
6409.22,0.01960
6403.43,0.01908
6397.65,0.02376
6391.86,0.02131
6386.08,0.01973
6380.29,0.01985
6374.5,0.02417
6368.72,0.01906
6362.93,0.02205
6357.14,0.02321
6351.36,0.02315
6345.57,0.02222
6339.79,0.02194
6334,0.02464
6328.21,0.01798
6322.43,0.02170
6316.64,0.02258
6310.85,0.02485
6305.07,0.01931
6299.28,0.02307
6293.5,0.02449
6287.71,0.02555
6281.92,0.01927
6276.14,0.02519
6270.35,0.02166
6264.56,0.02595
6258.78,0.02185
6252.99,0.02277
6247.21,0.02167
6241.42,0.02034
6235.63,0.02325
6229.85,0.02274
6224.06,0.02193
6218.27,0.02178
6212.49,0.02250
6206.7,0.02309
6200.92,0.02261
6195.13,0.02243
6189.34,0.02203
6183.56,0.02419
6177.77,0.02126
6171.98,0.02179
6166.2,0.02412
6160.41,0.01872
6154.63,0.02056
6148.84,0.02365
6143.05,0.02301
6137.27,0.02188
6131.48,0.01995
6125.7,0.02054
6119.91,0.02308
6114.12,0.02109
6108.34,0.02284
6102.55,0.02026
6096.76,0.02120
6090.98,0.02190
6085.19,0.02156
6079.41,0.02219
6073.62,0.02118
6067.83,0.02017
6062.05,0.02111
6056.26,0.02180
6050.47,0.02385
6044.69,0.02193
6038.9,0.02368
6033.12,0.01946
6027.33,0.02176
6021.54,0.02348
6015.76,0.02246
6009.97,0.02131
6004.18,0.02211
5998.4,0.02179
5992.61,0.01839
5986.83,0.02011
5981.04,0.02261
5975.25,0.02028
5969.47,0.02004
5963.68,0.02426
5957.89,0.02269
5952.11,0.02055
5946.32,0.01934
5940.54,0.02123
5934.75,0.02017
5928.96,0.02175
5923.18,0.02382
5917.39,0.02101
5911.6,0.02054
5905.82,0.02073
5900.03,0.01930
5894.25,0.02237
5888.46,0.02354
5882.67,0.02305
5876.89,0.02113
5871.1,0.02217
5865.31,0.02241
5859.53,0.02070
5853.74,0.02246
5847.96,0.02088
5842.17,0.01946
5836.38,0.01923
5830.6,0.02095
5824.81,0.02037
5819.02,0.02132
5813.24,0.02048
5807.45,0.02375
5801.67,0.02140
5795.88,0.01972
5790.09,0.01971
5784.31,0.01941
5778.52,0.02076
5772.73,0.02189
5766.95,0.02381
5761.16,0.02282
5755.38,0.02468
5749.59,0.02419
5743.8,0.02080
5738.02,0.02203
5732.23,0.02219
5726.44,0.02262
5720.66,0.02070
5714.87,0.02159
5709.09,0.02057
5703.3,0.02323
5697.51,0.02421
5691.73,0.02422
5685.94,0.02179
5680.15,0.02318
5674.37,0.02151
5668.58,0.02136
5662.8,0.02045
5657.01,0.02002
5651.22,0.02220
5645.44,0.02172
5639.65,0.02183
5633.87,0.02299
5628.08,0.02263
5622.29,0.02098
5616.51,0.02127
5610.72,0.02137
5604.93,0.02366
5599.15,0.02301
5593.36,0.02141
5587.58,0.02119
5581.79,0.02187
5576,0.02313
5570.22,0.02282
5564.43,0.02204
5558.64,0.02277
5552.86,0.01953
5547.07,0.02073
5541.29,0.02225
5535.5,0.02221
5529.71,0.02112
5523.93,0.02213
5518.14,0.02073
5512.35,0.02046
5506.57,0.02298
5500.78,0.02173
5495,0.02063
5489.21,0.02228
5483.42,0.02444
5477.64,0.02235
5471.85,0.02152
5466.06,0.02157
5460.28,0.02241
5454.49,0.02226
5448.71,0.02086
5442.92,0.02110
5437.13,0.02256
5431.35,0.02255
5425.56,0.02222
5419.77,0.02493
5413.99,0.02191
5408.2,0.02030
5402.42,0.01962
5396.63,0.02216
5390.84,0.02113
5385.06,0.02300
5379.27,0.02203
5373.48,0.02172
5367.7,0.02260
5361.91,0.02158
5356.13,0.02319
5350.34,0.02235
5344.55,0.02218
5338.77,0.02170
5332.98,0.02003
5327.19,0.02090
5321.41,0.02232
5315.62,0.02129
5309.84,0.02132
5304.05,0.02146
5298.26,0.02093
5292.48,0.02298
5286.69,0.02095
5280.9,0.02123
5275.12,0.02096
5269.33,0.02210
5263.55,0.02349
5257.76,0.02272
5251.97,0.02177
5246.19,0.02148
5240.4,0.02137
5234.61,0.02159
5228.83,0.02251
5223.04,0.02215
5217.26,0.02215
5211.47,0.02078
5205.68,0.02205
5199.9,0.02144
5194.11,0.02061
5188.32,0.02218
5182.54,0.02336
5176.75,0.02253
5170.97,0.02246
5165.18,0.02231
5159.39,0.02170
5153.61,0.02241
5147.82,0.02206
5142.03,0.02189
5136.25,0.02230
5130.46,0.02223
5124.68,0.02247
5118.89,0.02222
5113.1,0.02154
5107.32,0.02287
5101.53,0.02160
5095.75,0.02231
5089.96,0.02285
5084.17,0.02317
5078.39,0.02318
5072.6,0.02225
5066.81,0.02023
5061.03,0.02193
5055.24,0.02147
5049.46,0.02159
5043.67,0.02142
5037.88,0.02190
5032.1,0.02253
5026.31,0.02314
5020.52,0.02216
5014.74,0.02122
5008.95,0.02143
5003.17,0.02171
4997.38,0.02256
4991.59,0.02230
4985.81,0.02248
4980.02,0.02194
4974.23,0.02217
4968.45,0.02205
4962.66,0.02125
4956.88,0.02181
4951.09,0.02174
4945.3,0.02301
4939.52,0.02140
4933.73,0.02303
4927.94,0.02281
4922.16,0.02199
4916.37,0.02144
4910.59,0.02151
4904.8,0.02176
4899.01,0.02430
4893.23,0.02129
4887.44,0.02188
4881.65,0.02150
4875.87,0.02155
4870.08,0.02165
4864.3,0.02153
4858.51,0.02142
4852.72,0.02088
4846.94,0.02224
4841.15,0.02114
4835.36,0.02292
4829.58,0.02257
4823.79,0.02343
4818.01,0.02222
4812.22,0.02265
4806.43,0.02354
4800.65,0.02177
4794.86,0.02186
4789.07,0.02254
4783.29,0.02166
4777.5,0.02316
4771.72,0.02089
4765.93,0.02277
4760.14,0.02246
4754.36,0.02151
4748.57,0.02212
4742.78,0.02245
4737,0.02208
4731.21,0.02154
4725.43,0.02168
4719.64,0.02279
4713.85,0.02210
4708.07,0.02268
4702.28,0.02259
4696.49,0.02206
4690.71,0.02152
4684.92,0.02140
4679.14,0.02120
4673.35,0.02086
4667.56,0.02187
4661.78,0.02237
4655.99,0.02191
4650.2,0.02279
4644.42,0.02205
4638.63,0.02114
4632.85,0.02250
4627.06,0.02252
4621.27,0.02197
4615.49,0.02152
4609.7,0.02206
4603.92,0.02221
4598.13,0.02178
4592.34,0.02216
4586.56,0.02193
4580.77,0.02215
4574.98,0.02193
4569.2,0.02159
4563.41,0.02181
4557.63,0.02189
4551.84,0.02185
4546.05,0.02158
4540.27,0.02217
4534.48,0.02232
4528.69,0.02235
4522.91,0.02163
4517.12,0.02252
4511.34,0.02193
4505.55,0.02203
4499.76,0.02244
4493.98,0.02194
4488.19,0.02258
4482.4,0.02118
4476.62,0.02104
4470.83,0.02261
4465.05,0.02225
4459.26,0.02189
4453.47,0.02208
4447.69,0.02173
4441.9,0.02255
4436.11,0.02168
4430.33,0.02261
4424.54,0.02230
4418.76,0.02171
4412.97,0.02139
4407.18,0.02212
4401.4,0.02190
4395.61,0.02178
4389.82,0.02271
4384.04,0.02267
4378.25,0.02256
4372.47,0.02237
4366.68,0.02230
4360.89,0.02177
4355.11,0.02186
4349.32,0.02189
4343.53,0.02183
4337.75,0.02198
4331.96,0.02234
4326.18,0.02279
4320.39,0.02296
4314.6,0.02172
4308.82,0.02209
4303.03,0.02259
4297.24,0.02201
4291.46,0.02200
4285.67,0.02246
4279.89,0.02265
4274.1,0.02186
4268.31,0.02205
4262.53,0.02181
4256.74,0.02205
4250.95,0.02185
4245.17,0.02209
4239.38,0.02225
4233.6,0.02244
4227.81,0.02170
4222.02,0.02303
4216.24,0.02166
4210.45,0.02177
4204.66,0.02195
4198.88,0.02224
4193.09,0.02253
4187.31,0.02229
4181.52,0.02206
4175.73,0.02226
4169.95,0.02225
4164.16,0.02210
4158.37,0.02221
4152.59,0.02293
4146.8,0.02267
4141.02,0.02194
4135.23,0.02199
4129.44,0.02234
4123.66,0.02174
4117.87,0.02293
4112.09,0.02246
4106.3,0.02175
4100.51,0.02250
4094.73,0.02222
4088.94,0.02205
4083.15,0.02195
4077.37,0.02205
4071.58,0.02226
4065.8,0.02285
4060.01,0.02276
4054.22,0.02229
4048.44,0.02193
4042.65,0.02275
4036.86,0.02156
4031.08,0.02217
4025.29,0.02234
4019.51,0.02210
4013.72,0.02290
4007.93,0.02208
4002.15,0.02301
3996.36,0.02266
3990.57,0.02229
3984.79,0.02258
3979,0.02256
3973.22,0.02147
3967.43,0.02236
3961.64,0.02264
3955.86,0.02175
3950.07,0.02223
3944.28,0.02198
3938.5,0.02242
3932.71,0.02233
3926.93,0.02201
3921.14,0.02190
3915.35,0.02197
3909.57,0.02186
3903.78,0.02209
3897.99,0.02248
3892.21,0.02226
3886.42,0.02234
3880.64,0.02283
3874.85,0.02257
3869.06,0.02240
3863.28,0.02240
3857.49,0.02281
3851.7,0.02206
3845.92,0.02230
3840.13,0.02225
3834.35,0.02187
3828.56,0.02220
3822.77,0.02244
3816.99,0.02243
3811.2,0.02162
3805.41,0.02198
3799.63,0.02332
3793.84,0.02220
3788.06,0.02253
3782.27,0.02290
3776.48,0.02220
3770.7,0.02264
3764.91,0.02190
3759.12,0.02211
3753.34,0.02166
3747.55,0.02241
3741.77,0.02231
3735.98,0.02203
3730.19,0.02237
3724.41,0.02239
3718.62,0.02206
3712.83,0.02255
3707.05,0.02274
3701.26,0.02186
3695.48,0.02203
3689.69,0.02176
3683.9,0.02264
3678.12,0.02227
3672.33,0.02144
3666.54,0.02156
3660.76,0.02198
3654.97,0.02216
3649.19,0.02169
3643.4,0.02251
3637.61,0.02220
3631.83,0.02143
3626.04,0.02179
3620.25,0.02224
3614.47,0.02183
3608.68,0.02171
3602.9,0.02088
3597.11,0.02106
3591.32,0.02216
3585.54,0.02120
3579.75,0.02067
3573.97,0.02107
3568.18,0.02153
3562.39,0.02135
3556.61,0.02114
3550.82,0.02154
3545.03,0.02128
3539.25,0.02103
3533.46,0.02090
3527.68,0.02088
3521.89,0.02108
3516.1,0.02143
3510.32,0.02066
3504.53,0.02139
3498.74,0.02141
3492.96,0.02070
3487.17,0.02120
3481.39,0.02123
3475.6,0.02018
3469.81,0.02074
3464.03,0.02068
3458.24,0.02036
3452.45,0.02026
3446.67,0.02082
3440.88,0.02045
3435.1,0.02139
3429.31,0.02001
3423.52,0.02065
3417.74,0.02091
3411.95,0.02093
3406.16,0.02011
3400.38,0.02026
3394.59,0.02067
3388.81,0.02059
3383.02,0.02018
3377.23,0.02050
3371.45,0.02064
3365.66,0.02006
3359.87,0.02040
3354.09,0.01991
3348.3,0.02021
3342.52,0.02039
3336.73,0.02023
3330.94,0.02043
3325.16,0.01941
3319.37,0.01988
3313.58,0.01982
3307.8,0.01983
3302.01,0.02047
3296.23,0.01975
3290.44,0.02018
3284.65,0.01971
3278.87,0.02016
3273.08,0.02067
3267.29,0.02056
3261.51,0.02053
3255.72,0.02033
3249.94,0.02036
3244.15,0.02073
3238.36,0.02047
3232.58,0.02029
3226.79,0.02080
3221,0.02062
3215.22,0.02064
3209.43,0.02077
3203.65,0.02001
3197.86,0.02030
3192.07,0.02090
3186.29,0.02038
3180.5,0.02097
3174.71,0.02137
3168.93,0.02070
3163.14,0.02066
3157.36,0.02083
3151.57,0.02115
3145.78,0.02083
3140,0.02091
3134.21,0.02050
3128.42,0.02013
3122.64,0.02062
3116.85,0.02034
3111.07,0.02035
3105.28,0.02039
3099.49,0.02076
3093.71,0.02032
3087.92,0.02045
3082.14,0.02096
3076.35,0.02045
3070.56,0.02041
3064.78,0.02074
3058.99,0.02019
3053.2,0.02007
3047.42,0.02053
3041.63,0.02052
3035.85,0.02050
3030.06,0.01999
3024.27,0.02024
3018.49,0.02053
3012.7,0.02021
3006.91,0.02054
3001.13,0.01974
2995.34,0.02009
2989.56,0.01995
2983.77,0.01973
2977.98,0.01926
2972.2,0.01941
2966.41,0.01899
2960.62,0.01946
2954.84,0.01963
2949.05,0.01949
2943.27,0.01933
2937.48,0.01957
2931.69,0.01966
2925.91,0.01940
2920.12,0.01981
2914.33,0.01985
2908.55,0.01988
2902.76,0.01975
2896.98,0.02053
2891.19,0.02008
2885.4,0.02012
2879.62,0.02033
2873.83,0.02014
2868.04,0.02028
2862.26,0.02015
2856.47,0.02055
2850.69,0.02034
2844.9,0.02059
2839.11,0.02133
2833.33,0.02080
2827.54,0.02100
2821.75,0.02093
2815.97,0.02058
2810.18,0.02065
2804.4,0.02096
2798.61,0.02108
2792.82,0.02122
2787.04,0.02092
2781.25,0.02112
2775.46,0.02117
2769.68,0.02109
2763.89,0.02067
2758.11,0.02064
2752.32,0.02103
2746.53,0.02159
2740.75,0.02089
2734.96,0.02069
2729.17,0.02129
2723.39,0.02101
2717.6,0.02072
2711.82,0.02154
2706.03,0.02095
2700.24,0.02057
2694.46,0.02129
2688.67,0.02095
2682.88,0.02150
2677.1,0.02101
2671.31,0.02092
2665.53,0.02089
2659.74,0.02080
2653.95,0.02088
2648.17,0.02109
2642.38,0.02075
2636.59,0.02075
2630.81,0.02099
2625.02,0.02092
2619.24,0.02083
2613.45,0.02070
2607.66,0.02111
2601.88,0.02116
2596.09,0.02096
2590.3,0.02085
2584.52,0.02088
2578.73,0.02095
2572.95,0.02115
2567.16,0.02101
2561.37,0.02118
2555.59,0.02104
2549.8,0.02114
2544.02,0.02146
2538.23,0.02065
2532.44,0.02075
2526.66,0.02090
2520.87,0.02097
2515.08,0.02086
2509.3,0.02112
2503.51,0.02125
2497.73,0.02092
2491.94,0.02108
2486.15,0.02077
2480.37,0.02120
2474.58,0.02087
2468.79,0.02110
2463.01,0.02099
2457.22,0.02079
2451.44,0.02089
2445.65,0.02108
2439.86,0.02101
2434.08,0.02097
2428.29,0.02063
2422.5,0.02088
2416.72,0.02068
2410.93,0.02063
2405.15,0.02080
2399.36,0.02105
2393.57,0.02117
2387.79,0.02079
2382,0.02102
2376.21,0.02076
2370.43,0.02049
2364.64,0.02097
2358.86,0.02115
2353.07,0.02120
2347.28,0.02085
2341.5,0.02078
2335.71,0.02077
2329.92,0.02088
2324.14,0.02126
2318.35,0.02095
2312.57,0.02122
2306.78,0.02093
2300.99,0.02082
2295.21,0.02092
2289.42,0.02085
2283.63,0.02056
2277.85,0.02058
2272.06,0.02084
2266.28,0.02087
2260.49,0.02066
2254.7,0.02094
2248.92,0.02050
2243.13,0.02062
2237.34,0.02131
2231.56,0.02077
2225.77,0.02063
2219.99,0.02087
2214.2,0.02080
2208.41,0.02090
2202.63,0.02086
2196.84,0.02079
2191.05,0.02098
2185.27,0.02070
2179.48,0.02100
2173.7,0.02074
2167.91,0.02071
2162.12,0.02080
2156.34,0.02094
2150.55,0.02069
2144.76,0.02062
2138.98,0.02089
2133.19,0.02125
2127.41,0.02109
2121.62,0.02083
2115.83,0.02085
2110.05,0.02037
2104.26,0.02069
2098.47,0.02024
2092.69,0.02080
2086.9,0.02119
2081.12,0.02060
2075.33,0.02036
2069.54,0.02070
2063.76,0.02075
2057.97,0.02078
2052.19,0.02060
2046.4,0.02066
2040.61,0.02077
2034.83,0.02045
2029.04,0.02034
2023.25,0.02060
2017.47,0.02073
2011.68,0.02069
2005.9,0.02025
2000.11,0.02076
1994.32,0.02063
1988.54,0.02076
1982.75,0.02028
1976.96,0.02056
1971.18,0.02057
1965.39,0.02067
1959.61,0.02064
1953.82,0.02066
1948.03,0.02073
1942.25,0.02013
1936.46,0.02047
1930.67,0.02027
1924.89,0.02050
1919.1,0.02073
1913.32,0.02081
1907.53,0.02071
1901.74,0.02033
1895.96,0.02025
1890.17,0.02015
1884.38,0.02023
1878.6,0.02042
1872.81,0.01969
1867.03,0.02018
1861.24,0.02023
1855.45,0.02042
1849.67,0.02015
1843.88,0.02011
1838.09,0.02000
1832.31,0.02005
1826.52,0.01993
1820.74,0.01955
1814.95,0.01983
1809.16,0.01961
1803.38,0.01948
1797.59,0.01960
1791.8,0.01916
1786.02,0.01899
1780.23,0.01891
1774.45,0.01864
1768.66,0.01844
1762.87,0.01829
1757.09,0.01732
1751.3,0.01728
1745.51,0.01752
1739.73,0.01842
1733.94,0.01947
1728.16,0.01989
1722.37,0.02078
1716.58,0.02053
1710.8,0.02046
1705.01,0.01985
1699.22,0.01983
1693.44,0.01912
1687.65,0.01901
1681.87,0.01880
1676.08,0.01875
1670.29,0.01893
1664.51,0.01834
1658.72,0.01800
1652.93,0.01841
1647.15,0.01822
1641.36,0.01822
1635.58,0.01867
1629.79,0.01858
1624,0.01868
1618.22,0.01922
1612.43,0.01888
1606.64,0.01869
1600.86,0.01850
1595.07,0.01910
1589.29,0.01859
1583.5,0.01820
1577.71,0.01844
1571.93,0.01812
1566.14,0.01810
1560.35,0.01829
1554.57,0.01809
1548.78,0.01835
1543,0.01837
1537.21,0.01821
1531.42,0.01845
1525.64,0.01879
1519.85,0.01859
1514.07,0.01825
1508.28,0.01830
1502.49,0.01854
1496.71,0.01857
1490.92,0.01860
1485.13,0.01837
1479.35,0.01840
1473.56,0.01828
1467.78,0.01820
1461.99,0.01872
1456.2,0.01852
1450.42,0.01843
1444.63,0.01846
1438.84,0.01858
1433.06,0.01859
1427.27,0.01843
1421.49,0.01829
1415.7,0.01838
1409.91,0.01801
1404.13,0.01787
1398.34,0.01778
1392.55,0.01791
1386.77,0.01823
1380.98,0.01793
1375.2,0.01791
1369.41,0.01805
1363.62,0.01826
1357.84,0.01785
1352.05,0.01746
1346.26,0.01789
1340.48,0.01749
1334.69,0.01739
1328.91,0.01712
1323.12,0.01705
1317.33,0.01701
1311.55,0.01693
1305.76,0.01693
1299.97,0.01737
1294.19,0.01776
1288.4,0.01813
1282.62,0.01819
1276.83,0.01843
1271.04,0.01913
1265.26,0.01980
1259.47,0.01955
1253.68,0.02019
1247.9,0.02028
1242.11,0.02010
1236.33,0.01993
1230.54,0.01957
1224.75,0.01953
1218.97,0.01879
1213.18,0.01861
1207.39,0.01884
1201.61,0.01887
1195.82,0.01766
1190.04,0.01773
1184.25,0.01817
1178.46,0.01828
1172.68,0.01700
1166.89,0.01798
1161.1,0.01746
1155.32,0.01749
1149.53,0.01707
1143.75,0.01776
1137.96,0.01733
1132.17,0.01813
1126.39,0.01810
1120.6,0.01862
1114.81,0.01863
1109.03,0.01836
1103.24,0.01857
1097.46,0.01794
1091.67,0.01751
1085.88,0.01811
1080.1,0.01810
1074.31,0.01914
1068.52,0.01958
1062.74,0.01968
1056.95,0.01942
1051.17,0.01947
1045.38,0.01971
1039.59,0.01951
1033.81,0.01883
1028.02,0.01887
1022.24,0.01881
1016.45,0.01963
1010.66,0.01969
1004.88,0.01987
999.09,0.02142
993.304,0.02062
987.518,0.02053
981.731,0.02041
975.945,0.02087
970.159,0.01984
964.373,0.02062
958.586,0.02021
952.8,0.02005
947.014,0.01952
941.228,0.01965
935.441,0.01938
929.655,0.01994
923.869,0.01945
918.083,0.01962
912.297,0.01971
906.51,0.01898
900.724,0.01850
894.938,0.01891
889.152,0.01940
883.365,0.01919
877.579,0.01882
871.793,0.01863
866.007,0.01860
860.22,0.01974
854.434,0.01887
848.648,0.01950
842.862,0.01827
837.075,0.01821
831.289,0.01876
825.503,0.01888
819.717,0.01839
813.931,0.01853
808.144,0.01945
802.358,0.01963
796.572,0.01897
790.786,0.01872
784.999,0.01890
779.213,0.01885
773.427,0.01818
767.641,0.01759
761.854,0.01809
756.068,0.01716
750.282,0.01776
744.496,0.01852
738.709,0.01794
732.923,0.01813
727.137,0.01870
721.351,0.01852
715.565,0.01716
709.778,0.01769
703.992,0.01889
698.206,0.01687
692.42,0.01759
686.633,0.01756
680.847,0.01737
675.061,0.01822
669.275,0.01657
663.488,0.01676
657.702,0.01639
651.916,0.01591
646.13,0.01618
640.343,0.01650
634.557,0.01518
628.771,0.01497
622.985,0.01663
617.198,0.01555
611.412,0.01579
605.626,0.01437
599.84,0.01173