File: 01_Data/PET/FTIR/IS/PET_IS_S_220831_R4.dpt
7497.03,0.51352
7491.25,0.51125
7485.46,0.51155
7479.67,0.49946
7473.89,0.50108
7468.1,0.49414
7462.32,0.48801
7456.53,0.47897
7450.74,0.46534
7444.96,0.46313
7439.17,0.45981
7433.38,0.44644
7427.6,0.43262
7421.81,0.42119
7416.03,0.40700
7410.24,0.41180
7404.45,0.40792
7398.67,0.39803
7392.88,0.38535
7387.09,0.39436
7381.31,0.38679
7375.52,0.37796
7369.74,0.37040
7363.95,0.36290
7358.16,0.36124
7352.38,0.35703
7346.59,0.35016
7340.8,0.36070
7335.02,0.35163
7329.23,0.35360
7323.45,0.35206
7317.66,0.34826
7311.87,0.35765
7306.09,0.35273
7300.3,0.35455
7294.51,0.34732
7288.73,0.35083
7282.94,0.35292
7277.16,0.34206
7271.37,0.34875
7265.58,0.34616
7259.8,0.34215
7254.01,0.33868
7248.22,0.33609
7242.44,0.34007
7236.65,0.34533
7230.87,0.33805
7225.08,0.34046
7219.29,0.34095
7213.51,0.33326
7207.72,0.32943
7201.93,0.32519
7196.15,0.33471
7190.36,0.32350
7184.58,0.32366
7178.79,0.32446
7173,0.32643
7167.22,0.32098
7161.43,0.31732
7155.65,0.32209
7149.86,0.31435
7144.07,0.31255
7138.29,0.30086
7132.5,0.29908
7126.71,0.30138
7120.93,0.30044
7115.14,0.29301
7109.36,0.29366
7103.57,0.29217
7097.78,0.29361
7092,0.29858
7086.21,0.28792
7080.42,0.29567
7074.64,0.29206
7068.85,0.29280
7063.07,0.29321
7057.28,0.29458
7051.49,0.29015
7045.71,0.29300
7039.92,0.29365
7034.13,0.29770
7028.35,0.29367
7022.56,0.30080
7016.78,0.29788
7010.99,0.30259
7005.2,0.30572
6999.42,0.30861
6993.63,0.31582
6987.84,0.32507
6982.06,0.32142
6976.27,0.32405
6970.49,0.32891
6964.7,0.32830
6958.91,0.33341
6953.13,0.33592
6947.34,0.33398
6941.55,0.34224
6935.77,0.34391
6929.98,0.34949
6924.2,0.35285
6918.41,0.35557
6912.62,0.35816
6906.84,0.35774
6901.05,0.35705
6895.26,0.36717
6889.48,0.36829
6883.69,0.36710
6877.91,0.36778
6872.12,0.36556
6866.33,0.36399
6860.55,0.36824
6854.76,0.36795
6848.97,0.37241
6843.19,0.36705
6837.4,0.36489
6831.62,0.37169
6825.83,0.37683
6820.04,0.37821
6814.26,0.38447
6808.47,0.39075
6802.68,0.38811
6796.9,0.39020
6791.11,0.39261
6785.33,0.39190
6779.54,0.39844
6773.75,0.39919
6767.97,0.40460
6762.18,0.40946
6756.39,0.41091
6750.61,0.41504
6744.82,0.41841
6739.04,0.41839
6733.25,0.42954
6727.46,0.43088
6721.68,0.42468
6715.89,0.42930
6710.1,0.42830
6704.32,0.43192
6698.53,0.42990
6692.75,0.43263
6686.96,0.43400
6681.17,0.42853
6675.39,0.43339
6669.6,0.43996
6663.82,0.43319
6658.03,0.43438
6652.24,0.43505
6646.46,0.44020
6640.67,0.44529
6634.88,0.44377
6629.1,0.44998
6623.31,0.44537
6617.53,0.44652
6611.74,0.44819
6605.95,0.44990
6600.17,0.45036
6594.38,0.45429
6588.59,0.45537
6582.81,0.45609
6577.02,0.45446
6571.24,0.45306
6565.45,0.45777
6559.66,0.45070
6553.88,0.45104
6548.09,0.45212
6542.3,0.45297
6536.52,0.44838
6530.73,0.44859
6524.95,0.44700
6519.16,0.45122
6513.37,0.44946
6507.59,0.44899
6501.8,0.45117
6496.01,0.45046
6490.23,0.44696
6484.44,0.45446
6478.66,0.45117
6472.87,0.45044
6467.08,0.45154
6461.3,0.44930
6455.51,0.44679
6449.72,0.44522
6443.94,0.44153
6438.15,0.43960
6432.37,0.43560
6426.58,0.43368
6420.79,0.44080
6415.01,0.44094
6409.22,0.43973
6403.43,0.43857
6397.65,0.43823
6391.86,0.44211
6386.08,0.44030
6380.29,0.43621
6374.5,0.43641
6368.72,0.43540
6362.93,0.43552
6357.14,0.43262
6351.36,0.43181
6345.57,0.42398
6339.79,0.41981
6334,0.41698
6328.21,0.41260
6322.43,0.41130
6316.64,0.41094
6310.85,0.41227
6305.07,0.41040
6299.28,0.40950
6293.5,0.40809
6287.71,0.40523
6281.92,0.40087
6276.14,0.39501
6270.35,0.38694
6264.56,0.38344
6258.78,0.37570
6252.99,0.37238
6247.21,0.36563
6241.42,0.36148
6235.63,0.35472
6229.85,0.35147
6224.06,0.34769
6218.27,0.33555
6212.49,0.32064
6206.7,0.29404
6200.92,0.27409
6195.13,0.26181
6189.34,0.26114
6183.56,0.26697
6177.77,0.27209
6171.98,0.26890
6166.2,0.25844
6160.41,0.25482
6154.63,0.24260
6148.84,0.23340
6143.05,0.22126
6137.27,0.22419
6131.48,0.22186
6125.7,0.21444
6119.91,0.20712
6114.12,0.19163
6108.34,0.17517
6102.55,0.16618
6096.76,0.14769
6090.98,0.13484
6085.19,0.12573
6079.41,0.11773
6073.62,0.11359
6067.83,0.10716
6062.05,0.09886
6056.26,0.09625
6050.47,0.09090
6044.69,0.08690
6038.9,0.08482
6033.12,0.08184
6027.33,0.07795
6021.54,0.07956
6015.76,0.08036
6009.97,0.08018
6004.18,0.08313
5998.4,0.08694
5992.61,0.09320
5986.83,0.09498
5981.04,0.09790
5975.25,0.09619
5969.47,0.09829
5963.68,0.10308
5957.89,0.10552
5952.11,0.10439
5946.32,0.10578
5940.54,0.10623
5934.75,0.10770
5928.96,0.11667
5923.18,0.12211
5917.39,0.12713
5911.6,0.13434
5905.82,0.13858
5900.03,0.13875
5894.25,0.13568
5888.46,0.13288
5882.67,0.12675
5876.89,0.12671
5871.1,0.12243
5865.31,0.11716
5859.53,0.11958
5853.74,0.11945
5847.96,0.12419
5842.17,0.12488
5836.38,0.12352
5830.6,0.12274
5824.81,0.12244
5819.02,0.12053
5813.24,0.12275
5807.45,0.12178
5801.67,0.12101
5795.88,0.12235
5790.09,0.12309
5784.31,0.12238
5778.52,0.12467
5772.73,0.12707
5766.95,0.12841
5761.16,0.13237
5755.38,0.13582
5749.59,0.13737
5743.8,0.14283
5738.02,0.14623
5732.23,0.14811
5726.44,0.15157
5720.66,0.15466
5714.87,0.15315
5709.09,0.15281
5703.3,0.15322
5697.51,0.15403
5691.73,0.15627
5685.94,0.16066
5680.15,0.16241
5674.37,0.16062
5668.58,0.16120
5662.8,0.16335
5657.01,0.16225
5651.22,0.16180
5645.44,0.16342
5639.65,0.16875
5633.87,0.17022
5628.08,0.17588
5622.29,0.17933
5616.51,0.18008
5610.72,0.17885
5604.93,0.17854
5599.15,0.17959
5593.36,0.17671
5587.58,0.17419
5581.79,0.17110
5576,0.16808
5570.22,0.16620
5564.43,0.16526
5558.64,0.16504
5552.86,0.16647
5547.07,0.16554
5541.29,0.16559
5535.5,0.16392
5529.71,0.16573
5523.93,0.16660
5518.14,0.16814
5512.35,0.16900
5506.57,0.16818
5500.78,0.16975
5495,0.16709
5489.21,0.16535
5483.42,0.16359
5477.64,0.16308
5471.85,0.16537
5466.06,0.16555
5460.28,0.16853
5454.49,0.17059
5448.71,0.17386
5442.92,0.17892
5437.13,0.18427
5431.35,0.18650
5425.56,0.18854
5419.77,0.19005
5413.99,0.18914
5408.2,0.18799
5402.42,0.18714
5396.63,0.18600
5390.84,0.18640
5385.06,0.18570
5379.27,0.18606
5373.48,0.18424
5367.7,0.18479
5361.91,0.18086
5356.13,0.17814
5350.34,0.17803
5344.55,0.17821
5338.77,0.17855
5332.98,0.17913
5327.19,0.18041
5321.41,0.18054
5315.62,0.17870
5309.84,0.17461
5304.05,0.17152
5298.26,0.16748
5292.48,0.16072
5286.69,0.15406
5280.9,0.14516
5275.12,0.13457
5269.33,0.12745
5263.55,0.11982
5257.76,0.11787
5251.97,0.11508
5246.19,0.11292
5240.4,0.11499
5234.61,0.11639
5228.83,0.11989
5223.04,0.12320
5217.26,0.12764
5211.47,0.13255
5205.68,0.13848
5199.9,0.14267
5194.11,0.14583
5188.32,0.14924
5182.54,0.15065
5176.75,0.15005
5170.97,0.15073
5165.18,0.14883
5159.39,0.14672
5153.61,0.14366
5147.82,0.13986
5142.03,0.13833
5136.25,0.13427
5130.46,0.13028
5124.68,0.12507
5118.89,0.12175
5113.1,0.12518
5107.32,0.13069
5101.53,0.13754
5095.75,0.14427
5089.96,0.14995
5084.17,0.15567
5078.39,0.15966
5072.6,0.16077
5066.81,0.16510
5061.03,0.16783
5055.24,0.16952
5049.46,0.16947
5043.67,0.16988
5037.88,0.16912
5032.1,0.16784
5026.31,0.16622
5020.52,0.16572
5014.74,0.16571
5008.95,0.16560
5003.17,0.16576
4997.38,0.16790
4991.59,0.17021
4985.81,0.17092
4980.02,0.17222
4974.23,0.17201
4968.45,0.17112
4962.66,0.16944
4956.88,0.16625
4951.09,0.16417
4945.3,0.16057
4939.52,0.15945
4933.73,0.15994
4927.94,0.15674
4922.16,0.15665
4916.37,0.15535
4910.59,0.15306
4904.8,0.15054
4899.01,0.14952
4893.23,0.14934
4887.44,0.14661
4881.65,0.14601
4875.87,0.14453
4870.08,0.14324
4864.3,0.14221
4858.51,0.14042
4852.72,0.13904
4846.94,0.13601
4841.15,0.13255
4835.36,0.12549
4829.58,0.11974
4823.79,0.11513
4818.01,0.11137
4812.22,0.10806
4806.43,0.10593
4800.65,0.10348
4794.86,0.10366
4789.07,0.10523
4783.29,0.10613
4777.5,0.10830
4771.72,0.10958
4765.93,0.11056
4760.14,0.10782
4754.36,0.10275
4748.57,0.09699
4742.78,0.09217
4737,0.08947
4731.21,0.08567
4725.43,0.08010
4719.64,0.07755
4713.85,0.07730
4708.07,0.07613
4702.28,0.07415
4696.49,0.07080
4690.71,0.06997
4684.92,0.07037
4679.14,0.07318
4673.35,0.07610
4667.56,0.07944
4661.78,0.08040
4655.99,0.08067
4650.2,0.07996
4644.42,0.07650
4638.63,0.07301
4632.85,0.07308
4627.06,0.07501
4621.27,0.07977
4615.49,0.08486
4609.7,0.08713
4603.92,0.08766
4598.13,0.08534
4592.34,0.08242
4586.56,0.07980
4580.77,0.07822
4574.98,0.07951
4569.2,0.08423
4563.41,0.09042
4557.63,0.09207
4551.84,0.09258
4546.05,0.09138
4540.27,0.09132
4534.48,0.09086
4528.69,0.08978
4522.91,0.08875
4517.12,0.08642
4511.34,0.08407
4505.55,0.08040
4499.76,0.07726
4493.98,0.07396
4488.19,0.07121
4482.4,0.07047
4476.62,0.06923
4470.83,0.06958
4465.05,0.06746
4459.26,0.06529
4453.47,0.06571
4447.69,0.06668
4441.9,0.06607
4436.11,0.06547
4430.33,0.06557
4424.54,0.06645
4418.76,0.06594
4412.97,0.06619
4407.18,0.06645
4401.4,0.06732
4395.61,0.06687
4389.82,0.06758
4384.04,0.06796
4378.25,0.06851
4372.47,0.06816
4366.68,0.06777
4360.89,0.06781
4355.11,0.06850
4349.32,0.06801
4343.53,0.06769
4337.75,0.06794
4331.96,0.06777
4326.18,0.06729
4320.39,0.06664
4314.6,0.06755
4308.82,0.06750
4303.03,0.06634
4297.24,0.06659
4291.46,0.06617
4285.67,0.06693
4279.89,0.06588
4274.1,0.06576
4268.31,0.06676
4262.53,0.06628
4256.74,0.06673
4250.95,0.06679
4245.17,0.06600
4239.38,0.06659
4233.6,0.06662
4227.81,0.06707
4222.02,0.06721
4216.24,0.06728
4210.45,0.06715
4204.66,0.06754
4198.88,0.06796
4193.09,0.06775
4187.31,0.06700
4181.52,0.06660
4175.73,0.06702
4169.95,0.06695
4164.16,0.06735
4158.37,0.06727
4152.59,0.06802
4146.8,0.06697
4141.02,0.06753
4135.23,0.06727
4129.44,0.06682
4123.66,0.06660
4117.87,0.06638
4112.09,0.06578
4106.3,0.06541
4100.51,0.06541
4094.73,0.06429
4088.94,0.06395
4083.15,0.06414
4077.37,0.06452
4071.58,0.06555
4065.8,0.06625
4060.01,0.06612
4054.22,0.06715
4048.44,0.06722
4042.65,0.06769
4036.86,0.06814
4031.08,0.06845
4025.29,0.06828
4019.51,0.06799
4013.72,0.06776
4007.93,0.06839
4002.15,0.06776
3996.36,0.06813
3990.57,0.06802
3984.79,0.06880
3979,0.06894
3973.22,0.06864
3967.43,0.06854
3961.64,0.06912
3955.86,0.06983
3950.07,0.06915
3944.28,0.06993
3938.5,0.06961
3932.71,0.07026
3926.93,0.07027
3921.14,0.07027
3915.35,0.06938
3909.57,0.07025
3903.78,0.07099
3897.99,0.07142
3892.21,0.07171
3886.42,0.07206
3880.64,0.07211
3874.85,0.07247
3869.06,0.07195
3863.28,0.07223
3857.49,0.07255
3851.7,0.07304
3845.92,0.07333
3840.13,0.07226
3834.35,0.07252
3828.56,0.07264
3822.77,0.07238
3816.99,0.07187
3811.2,0.07079
3805.41,0.07071
3799.63,0.07090
3793.84,0.07150
3788.06,0.07186
3782.27,0.07172
3776.48,0.07083
3770.7,0.07034
3764.91,0.06984
3759.12,0.06914
3753.34,0.06950
3747.55,0.07138
3741.77,0.07139
3735.98,0.07180
3730.19,0.07106
3724.41,0.07191
3718.62,0.07148
3712.83,0.07093
3707.05,0.06993
3701.26,0.06824
3695.48,0.06689
3689.69,0.06480
3683.9,0.06476
3678.12,0.06487
3672.33,0.06471
3666.54,0.06370
3660.76,0.06398
3654.97,0.06364
3649.19,0.06430
3643.4,0.06343
3637.61,0.06335
3631.83,0.06329
3626.04,0.06404
3620.25,0.06315
3614.47,0.06389
3608.68,0.06396
3602.9,0.06353
3597.11,0.06357
3591.32,0.06329
3585.54,0.06344
3579.75,0.06306
3573.97,0.06304
3568.18,0.06340
3562.39,0.06219
3556.61,0.06320
3550.82,0.06315
3545.03,0.06258
3539.25,0.06306
3533.46,0.06330
3527.68,0.06327
3521.89,0.06248
3516.1,0.06326
3510.32,0.06371
3504.53,0.06323
3498.74,0.06302
3492.96,0.06378
3487.17,0.06363
3481.39,0.06308
3475.6,0.06350
3469.81,0.06314
3464.03,0.06212
3458.24,0.06198
3452.45,0.06236
3446.67,0.06301
3440.88,0.06192
3435.1,0.06134
3429.31,0.06178
3423.52,0.06221
3417.74,0.06293
3411.95,0.06277
3406.16,0.06314
3400.38,0.06389
3394.59,0.06407
3388.81,0.06453
3383.02,0.06349
3377.23,0.06417
3371.45,0.06469
3365.66,0.06476
3359.87,0.06391
3354.09,0.06398
3348.3,0.06382
3342.52,0.06338
3336.73,0.06368
3330.94,0.06324
3325.16,0.06359
3319.37,0.06318
3313.58,0.06264
3307.8,0.06350
3302.01,0.06285
3296.23,0.06282
3290.44,0.06332
3284.65,0.06380
3278.87,0.06339
3273.08,0.06349
3267.29,0.06320
3261.51,0.06313
3255.72,0.06301
3249.94,0.06326
3244.15,0.06293
3238.36,0.06377
3232.58,0.06318
3226.79,0.06292
3221,0.06346
3215.22,0.06315
3209.43,0.06229
3203.65,0.06272
3197.86,0.06336
3192.07,0.06342
3186.29,0.06299
3180.5,0.06327
3174.71,0.06348
3168.93,0.06274
3163.14,0.06293
3157.36,0.06270
3151.57,0.06253
3145.78,0.06230
3140,0.06201
3134.21,0.06166
3128.42,0.06237
3122.64,0.06201
3116.85,0.06196
3111.07,0.06186
3105.28,0.06190
3099.49,0.06176
3093.71,0.06173
3087.92,0.06112
3082.14,0.06189
3076.35,0.06159
3070.56,0.06131
3064.78,0.06146
3058.99,0.06104
3053.2,0.06133
3047.42,0.06165
3041.63,0.06190
3035.85,0.06147
3030.06,0.06048
3024.27,0.06090
3018.49,0.06085
3012.7,0.06056
3006.91,0.06069
3001.13,0.06070
2995.34,0.06039
2989.56,0.06058
2983.77,0.05993
2977.98,0.05997
2972.2,0.05989
2966.41,0.06090
2960.62,0.06137
2954.84,0.06235
2949.05,0.06177
2943.27,0.06225
2937.48,0.06310
2931.69,0.06417
2925.91,0.06521
2920.12,0.06570
2914.33,0.06502
2908.55,0.06417
2902.76,0.06380
2896.98,0.06325
2891.19,0.06330
2885.4,0.06258
2879.62,0.06275
2873.83,0.06320
2868.04,0.06284
2862.26,0.06326
2856.47,0.06422
2850.69,0.06526
2844.9,0.06435
2839.11,0.06369
2833.33,0.06312
2827.54,0.06325
2821.75,0.06336
2815.97,0.06308
2810.18,0.06255
2804.4,0.06254
2798.61,0.06283
2792.82,0.06287
2787.04,0.06290
2781.25,0.06338
2775.46,0.06301
2769.68,0.06333
2763.89,0.06331
2758.11,0.06327
2752.32,0.06290
2746.53,0.06325
2740.75,0.06315
2734.96,0.06383
2729.17,0.06323
2723.39,0.06344
2717.6,0.06398
2711.82,0.06364
2706.03,0.06387
2700.24,0.06341
2694.46,0.06387
2688.67,0.06395
2682.88,0.06364
2677.1,0.06381
2671.31,0.06414
2665.53,0.06398
2659.74,0.06408
2653.95,0.06360
2648.17,0.06321
2642.38,0.06289
2636.59,0.06341
2630.81,0.06266
2625.02,0.06247
2619.24,0.06272
2613.45,0.06286
2607.66,0.06244
2601.88,0.06206
2596.09,0.06250
2590.3,0.06223
2584.52,0.06189
2578.73,0.06162
2572.95,0.06184
2567.16,0.06204
2561.37,0.06164
2555.59,0.06154
2549.8,0.06217
2544.02,0.06207
2538.23,0.06156
2532.44,0.06158
2526.66,0.06167
2520.87,0.06200
2515.08,0.06138
2509.3,0.06169
2503.51,0.06149
2497.73,0.06119
2491.94,0.06196
2486.15,0.06194
2480.37,0.06245
2474.58,0.06241
2468.79,0.06214
2463.01,0.06262
2457.22,0.06194
2451.44,0.06217
2445.65,0.06213
2439.86,0.06141
2434.08,0.06158
2428.29,0.06149
2422.5,0.06082
2416.72,0.06126
2410.93,0.06125
2405.15,0.06071
2399.36,0.06090
2393.57,0.06072
2387.79,0.06058
2382,0.06088
2376.21,0.06072
2370.43,0.06066
2364.64,0.06096
2358.86,0.06062
2353.07,0.06089
2347.28,0.06080
2341.5,0.06124
2335.71,0.06103
2329.92,0.06123
2324.14,0.06133
2318.35,0.06129
2312.57,0.06108
2306.78,0.06096
2300.99,0.06092
2295.21,0.06018
2289.42,0.06016
2283.63,0.06050
2277.85,0.06052
2272.06,0.06001
2266.28,0.06017
2260.49,0.06021
2254.7,0.06040
2248.92,0.06023
2243.13,0.06001
2237.34,0.06036
2231.56,0.06028
2225.77,0.06014
2219.99,0.06001
2214.2,0.06042
2208.41,0.05985
2202.63,0.06027
2196.84,0.06065
2191.05,0.06016
2185.27,0.06014
2179.48,0.05971
2173.7,0.05998
2167.91,0.05965
2162.12,0.05944
2156.34,0.05932
2150.55,0.05960
2144.76,0.05903
2138.98,0.05896
2133.19,0.05916
2127.41,0.05884
2121.62,0.05929
2115.83,0.05864
2110.05,0.05924
2104.26,0.05910
2098.47,0.05866
2092.69,0.05860
2086.9,0.05845
2081.12,0.05889
2075.33,0.05869
2069.54,0.05852
2063.76,0.05831
2057.97,0.05867
2052.19,0.05850
2046.4,0.05858
2040.61,0.05831
2034.83,0.05842
2029.04,0.05804
2023.25,0.05814
2017.47,0.05781
2011.68,0.05782
2005.9,0.05747
2000.11,0.05759
1994.32,0.05721
1988.54,0.05700
1982.75,0.05708
1976.96,0.05689
1971.18,0.05636
1965.39,0.05639
1959.61,0.05662
1953.82,0.05624
1948.03,0.05644
1942.25,0.05663
1936.46,0.05626
1930.67,0.05598
1924.89,0.05583
1919.1,0.05584
1913.32,0.05610
1907.53,0.05587
1901.74,0.05532
1895.96,0.05527
1890.17,0.05495
1884.38,0.05494
1878.6,0.05458
1872.81,0.05418
1867.03,0.05394
1861.24,0.05341
1855.45,0.05330
1849.67,0.05294
1843.88,0.05237
1838.09,0.05191
1832.31,0.05167
1826.52,0.05128
1820.74,0.05077
1814.95,0.05024
1809.16,0.04961
1803.38,0.04891
1797.59,0.04818
1791.8,0.04721
1786.02,0.04631
1780.23,0.04510
1774.45,0.04375
1768.66,0.04159
1762.87,0.03880
1757.09,0.03545
1751.3,0.03092
1745.51,0.02546
1739.73,0.02620
1733.94,0.04535
1728.16,0.07763
1722.37,0.11078
1716.58,0.13197
1710.8,0.11775
1705.01,0.09787
1699.22,0.08643
1693.44,0.07914
1687.65,0.07573
1681.87,0.07315
1676.08,0.07153
1670.29,0.06975
1664.51,0.06859
1658.72,0.06757
1652.93,0.06667
1647.15,0.06596
1641.36,0.06489
1635.58,0.06389
1629.79,0.06338
1624,0.06296
1618.22,0.06209
1612.43,0.06135
1606.64,0.06101
1600.86,0.06086
1595.07,0.06017
1589.29,0.05935
1583.5,0.05802
1577.71,0.05895
1571.93,0.05957
1566.14,0.05882
1560.35,0.05824
1554.57,0.05744
1548.78,0.05725
1543,0.05692
1537.21,0.05613
1531.42,0.05517
1525.64,0.05477
1519.85,0.05416
1514.07,0.05344
1508.28,0.05285
1502.49,0.05584
1496.71,0.05488
1490.92,0.05363
1485.13,0.05270
1479.35,0.05172
1473.56,0.05143
1467.78,0.05116
1461.99,0.05030
1456.2,0.05024
1450.42,0.05085
1444.63,0.05089
1438.84,0.05072
1433.06,0.05035
1427.27,0.04794
1421.49,0.04522
1415.7,0.04106
1409.91,0.04866
1404.13,0.05493
1398.34,0.05287
1392.55,0.05039
1386.77,0.04880
1380.98,0.04700
1375.2,0.04603
1369.41,0.04667
1363.62,0.04664
1357.84,0.04361
1352.05,0.04048
1346.26,0.03962
1340.48,0.04950
1334.69,0.04850
1328.91,0.04078
1323.12,0.03522
1317.33,0.03132
1311.55,0.02779
1305.76,0.02524
1299.97,0.02392
1294.19,0.03181
1288.4,0.04489
1282.62,0.05985
1276.83,0.07928
1271.04,0.10457
1265.26,0.13068
1259.47,0.14392
1253.68,0.15218
1247.9,0.16098
1242.11,0.15659
1236.33,0.14176
1230.54,0.12284
1224.75,0.10855
1218.97,0.09959
1213.18,0.09240
1207.39,0.08690
1201.61,0.08214
1195.82,0.07778
1190.04,0.07367
1184.25,0.06957
1178.46,0.06683
1172.68,0.06556
1166.89,0.06254
1161.1,0.05886
1155.32,0.05346
1149.53,0.04938
1143.75,0.04491
1137.96,0.04576
1132.17,0.06060
1126.39,0.08153
1120.6,0.09260
1114.81,0.09247
1109.03,0.09219
1103.24,0.10280
1097.46,0.11803
1091.67,0.12118
1085.88,0.11677
1080.1,0.11061
1074.31,0.10260
1068.52,0.09543
1062.74,0.08986
1056.95,0.08607
1051.17,0.08165
1045.38,0.08049
1039.59,0.08094
1033.81,0.07926
1028.02,0.07657
1022.24,0.08309
1016.45,0.09884
1010.66,0.09583
1004.88,0.08924
999.09,0.08504
993.304,0.08328
987.518,0.08047
981.731,0.07889
975.945,0.07912
970.159,0.08059
964.373,0.08026
958.586,0.07891
952.8,0.07783
947.014,0.07656
941.228,0.07571
935.441,0.07450
929.655,0.07352
923.869,0.07281
918.083,0.07186
912.297,0.06966
906.51,0.06932
900.724,0.06881
894.938,0.06963
889.152,0.06856
883.365,0.06659
877.579,0.06666
871.793,0.07273
866.007,0.07526
860.22,0.07320
854.434,0.07287
848.648,0.07270
842.862,0.07262
837.075,0.07355
831.289,0.07310
825.503,0.07177
819.717,0.07105
813.931,0.07116
808.144,0.07013
802.358,0.06940
796.572,0.06892
790.786,0.07021
784.999,0.06953
779.213,0.06817
773.427,0.06756
767.641,0.06502
761.854,0.06299
756.068,0.06024
750.282,0.05521
744.496,0.04838
738.709,0.03681
732.923,0.05289
727.137,0.11795
721.351,0.12826
715.565,0.10127
709.778,0.09136
703.992,0.08696
698.206,0.08485
692.42,0.08226
686.633,0.07983
680.847,0.07873
675.061,0.07741
669.275,0.07699
663.488,0.07646
657.702,0.07503
651.916,0.07665
646.13,0.07278
640.343,0.07212
634.557,0.07243
628.771,0.07312
622.985,0.07349
617.198,0.07176
611.412,0.07162
605.626,0.07047
599.84,0.07318