File: 01_Data/PET/FTIR/IS/PET_IS_T_220831_R3.dpt
7497.03,0.02360
7491.25,0.01647
7485.46,0.01177
7479.67,0.02255
7473.89,0.02449
7468.1,0.02369
7462.32,0.02470
7456.53,0.02883
7450.74,0.01991
7444.96,0.03204
7439.17,0.02302
7433.38,0.02497
7427.6,0.02986
7421.81,0.02882
7416.03,0.01920
7410.24,0.02663
7404.45,0.02618
7398.67,0.02196
7392.88,0.03174
7387.09,0.02337
7381.31,0.02100
7375.52,0.03340
7369.74,0.01842
7363.95,0.01874
7358.16,0.02052
7352.38,0.01772
7346.59,0.03116
7340.8,0.03146
7335.02,0.02399
7329.23,0.02431
7323.45,0.02928
7317.66,0.02817
7311.87,0.02284
7306.09,0.02216
7300.3,0.02390
7294.51,0.02126
7288.73,0.02339
7282.94,0.02910
7277.16,0.02880
7271.37,0.01892
7265.58,0.02683
7259.8,0.02811
7254.01,0.02290
7248.22,0.02365
7242.44,0.02172
7236.65,0.02110
7230.87,0.02424
7225.08,0.02464
7219.29,0.03040
7213.51,0.02300
7207.72,0.02780
7201.93,0.02437
7196.15,0.02603
7190.36,0.02278
7184.58,0.02357
7178.79,0.02416
7173,0.03038
7167.22,0.02702
7161.43,0.02756
7155.65,0.02774
7149.86,0.02471
7144.07,0.02797
7138.29,0.02222
7132.5,0.02012
7126.71,0.02628
7120.93,0.02050
7115.14,0.02264
7109.36,0.03084
7103.57,0.02212
7097.78,0.02173
7092,0.02854
7086.21,0.01940
7080.42,0.02405
7074.64,0.02542
7068.85,0.02542
7063.07,0.01983
7057.28,0.01773
7051.49,0.02288
7045.71,0.01988
7039.92,0.02138
7034.13,0.02495
7028.35,0.01813
7022.56,0.03154
7016.78,0.02157
7010.99,0.01918
7005.2,0.02280
6999.42,0.02477
6993.63,0.02549
6987.84,0.02270
6982.06,0.02845
6976.27,0.02278
6970.49,0.02425
6964.7,0.02612
6958.91,0.02003
6953.13,0.02388
6947.34,0.02660
6941.55,0.02295
6935.77,0.02259
6929.98,0.02318
6924.2,0.02698
6918.41,0.02938
6912.62,0.02894
6906.84,0.02597
6901.05,0.01952
6895.26,0.02156
6889.48,0.02520
6883.69,0.02077
6877.91,0.02551
6872.12,0.02783
6866.33,0.02762
6860.55,0.02327
6854.76,0.02278
6848.97,0.02374
6843.19,0.02260
6837.4,0.02478
6831.62,0.02199
6825.83,0.02057
6820.04,0.02057
6814.26,0.02382
6808.47,0.02299
6802.68,0.02497
6796.9,0.02145
6791.11,0.02043
6785.33,0.02321
6779.54,0.02077
6773.75,0.02364
6767.97,0.02778
6762.18,0.02312
6756.39,0.02169
6750.61,0.01920
6744.82,0.02211
6739.04,0.02013
6733.25,0.02261
6727.46,0.02434
6721.68,0.02203
6715.89,0.02233
6710.1,0.01885
6704.32,0.02201
6698.53,0.02599
6692.75,0.02517
6686.96,0.02339
6681.17,0.02412
6675.39,0.02180
6669.6,0.02225
6663.82,0.01990
6658.03,0.02137
6652.24,0.02153
6646.46,0.01734
6640.67,0.02137
6634.88,0.02769
6629.1,0.02006
6623.31,0.02094
6617.53,0.02238
6611.74,0.02335
6605.95,0.02720
6600.17,0.02431
6594.38,0.02269
6588.59,0.02170
6582.81,0.01868
6577.02,0.02015
6571.24,0.02038
6565.45,0.02673
6559.66,0.02175
6553.88,0.02283
6548.09,0.02545
6542.3,0.02451
6536.52,0.02425
6530.73,0.02057
6524.95,0.02356
6519.16,0.02016
6513.37,0.02088
6507.59,0.01940
6501.8,0.02061
6496.01,0.02373
6490.23,0.02374
6484.44,0.02073
6478.66,0.02607
6472.87,0.02219
6467.08,0.01944
6461.3,0.01858
6455.51,0.01973
6449.72,0.02009
6443.94,0.01774
6438.15,0.02054
6432.37,0.02269
6426.58,0.02002
6420.79,0.02300
6415.01,0.02265
6409.22,0.02296
6403.43,0.02314
6397.65,0.02187
6391.86,0.02609
6386.08,0.02566
6380.29,0.02474
6374.5,0.01885
6368.72,0.02494
6362.93,0.02067
6357.14,0.02063
6351.36,0.02279
6345.57,0.02431
6339.79,0.02282
6334,0.02145
6328.21,0.02128
6322.43,0.02143
6316.64,0.02158
6310.85,0.02331
6305.07,0.02281
6299.28,0.02148
6293.5,0.01799
6287.71,0.02025
6281.92,0.01871
6276.14,0.02165
6270.35,0.02164
6264.56,0.01975
6258.78,0.02232
6252.99,0.02154
6247.21,0.02151
6241.42,0.02249
6235.63,0.02299
6229.85,0.02354
6224.06,0.01969
6218.27,0.02004
6212.49,0.02029
6206.7,0.02200
6200.92,0.02270
6195.13,0.02441
6189.34,0.02308
6183.56,0.02177
6177.77,0.02290
6171.98,0.02402
6166.2,0.01862
6160.41,0.01915
6154.63,0.02026
6148.84,0.02129
6143.05,0.02011
6137.27,0.02155
6131.48,0.01858
6125.7,0.02019
6119.91,0.01958
6114.12,0.02147
6108.34,0.02080
6102.55,0.02170
6096.76,0.02335
6090.98,0.01983
6085.19,0.02223
6079.41,0.02317
6073.62,0.02008
6067.83,0.01876
6062.05,0.02263
6056.26,0.02176
6050.47,0.02374
6044.69,0.02156
6038.9,0.02360
6033.12,0.02555
6027.33,0.02271
6021.54,0.02180
6015.76,0.02069
6009.97,0.02019
6004.18,0.02205
5998.4,0.02351
5992.61,0.02183
5986.83,0.02152
5981.04,0.02357
5975.25,0.02244
5969.47,0.02015
5963.68,0.02200
5957.89,0.02097
5952.11,0.01924
5946.32,0.02113
5940.54,0.02319
5934.75,0.02094
5928.96,0.02167
5923.18,0.02133
5917.39,0.02014
5911.6,0.02223
5905.82,0.02322
5900.03,0.02012
5894.25,0.02232
5888.46,0.02124
5882.67,0.02197
5876.89,0.02213
5871.1,0.02280
5865.31,0.02143
5859.53,0.02164
5853.74,0.01670
5847.96,0.01881
5842.17,0.02018
5836.38,0.02180
5830.6,0.02206
5824.81,0.02282
5819.02,0.02228
5813.24,0.02303
5807.45,0.02234
5801.67,0.02191
5795.88,0.02040
5790.09,0.02113
5784.31,0.01963
5778.52,0.02055
5772.73,0.02138
5766.95,0.02297
5761.16,0.02228
5755.38,0.02264
5749.59,0.01938
5743.8,0.02073
5738.02,0.02085
5732.23,0.02180
5726.44,0.02229
5720.66,0.02175
5714.87,0.02118
5709.09,0.01998
5703.3,0.02203
5697.51,0.02281
5691.73,0.02104
5685.94,0.02368
5680.15,0.02016
5674.37,0.02143
5668.58,0.02172
5662.8,0.02146
5657.01,0.02189
5651.22,0.02002
5645.44,0.02160
5639.65,0.02149
5633.87,0.02148
5628.08,0.02412
5622.29,0.02168
5616.51,0.02130
5610.72,0.02055
5604.93,0.02278
5599.15,0.02242
5593.36,0.02146
5587.58,0.02070
5581.79,0.02145
5576,0.02398
5570.22,0.02118
5564.43,0.02140
5558.64,0.02389
5552.86,0.02114
5547.07,0.02091
5541.29,0.02090
5535.5,0.02110
5529.71,0.02152
5523.93,0.02159
5518.14,0.02337
5512.35,0.02298
5506.57,0.02328
5500.78,0.02266
5495,0.02228
5489.21,0.02168
5483.42,0.02095
5477.64,0.02031
5471.85,0.02117
5466.06,0.02288
5460.28,0.02219
5454.49,0.02240
5448.71,0.02035
5442.92,0.02110
5437.13,0.02215
5431.35,0.02035
5425.56,0.02087
5419.77,0.02085
5413.99,0.02181
5408.2,0.02256
5402.42,0.02174
5396.63,0.02087
5390.84,0.02194
5385.06,0.02093
5379.27,0.02272
5373.48,0.02134
5367.7,0.02170
5361.91,0.02336
5356.13,0.02130
5350.34,0.02133
5344.55,0.02181
5338.77,0.02226
5332.98,0.02146
5327.19,0.02288
5321.41,0.02274
5315.62,0.02257
5309.84,0.02169
5304.05,0.02124
5298.26,0.02276
5292.48,0.02246
5286.69,0.02321
5280.9,0.02224
5275.12,0.02090
5269.33,0.02178
5263.55,0.02215
5257.76,0.02207
5251.97,0.02255
5246.19,0.02282
5240.4,0.02197
5234.61,0.02295
5228.83,0.02232
5223.04,0.02070
5217.26,0.02154
5211.47,0.02245
5205.68,0.02041
5199.9,0.02214
5194.11,0.02197
5188.32,0.02320
5182.54,0.02190
5176.75,0.02231
5170.97,0.02204
5165.18,0.02304
5159.39,0.02354
5153.61,0.02222
5147.82,0.02293
5142.03,0.02299
5136.25,0.02218
5130.46,0.02297
5124.68,0.02239
5118.89,0.02198
5113.1,0.02102
5107.32,0.02161
5101.53,0.02324
5095.75,0.02371
5089.96,0.02255
5084.17,0.02276
5078.39,0.02233
5072.6,0.02112
5066.81,0.02123
5061.03,0.02178
5055.24,0.02196
5049.46,0.02145
5043.67,0.02201
5037.88,0.02158
5032.1,0.02151
5026.31,0.02198
5020.52,0.02227
5014.74,0.02210
5008.95,0.02237
5003.17,0.02196
4997.38,0.02195
4991.59,0.02259
4985.81,0.02110
4980.02,0.02155
4974.23,0.02029
4968.45,0.02224
4962.66,0.02264
4956.88,0.02221
4951.09,0.02242
4945.3,0.02295
4939.52,0.02292
4933.73,0.02189
4927.94,0.02154
4922.16,0.02125
4916.37,0.02154
4910.59,0.02158
4904.8,0.02080
4899.01,0.02186
4893.23,0.02181
4887.44,0.02281
4881.65,0.02275
4875.87,0.02309
4870.08,0.02228
4864.3,0.02259
4858.51,0.02158
4852.72,0.02162
4846.94,0.02153
4841.15,0.02215
4835.36,0.02128
4829.58,0.02154
4823.79,0.02123
4818.01,0.02164
4812.22,0.02196
4806.43,0.02254
4800.65,0.02241
4794.86,0.02161
4789.07,0.02151
4783.29,0.02225
4777.5,0.02196
4771.72,0.02238
4765.93,0.02202
4760.14,0.02338
4754.36,0.02269
4748.57,0.02250
4742.78,0.02305
4737,0.02214
4731.21,0.02277
4725.43,0.02262
4719.64,0.02187
4713.85,0.02240
4708.07,0.02274
4702.28,0.02216
4696.49,0.02200
4690.71,0.02225
4684.92,0.02227
4679.14,0.02262
4673.35,0.02158
4667.56,0.02185
4661.78,0.02194
4655.99,0.02317
4650.2,0.02350
4644.42,0.02222
4638.63,0.02173
4632.85,0.02233
4627.06,0.02326
4621.27,0.02250
4615.49,0.02256
4609.7,0.02202
4603.92,0.02257
4598.13,0.02176
4592.34,0.02174
4586.56,0.02177
4580.77,0.02255
4574.98,0.02208
4569.2,0.02206
4563.41,0.02116
4557.63,0.02275
4551.84,0.02245
4546.05,0.02361
4540.27,0.02292
4534.48,0.02270
4528.69,0.02244
4522.91,0.02213
4517.12,0.02185
4511.34,0.02196
4505.55,0.02326
4499.76,0.02232
4493.98,0.02178
4488.19,0.02167
4482.4,0.02204
4476.62,0.02243
4470.83,0.02246
4465.05,0.02231
4459.26,0.02261
4453.47,0.02256
4447.69,0.02183
4441.9,0.02222
4436.11,0.02253
4430.33,0.02222
4424.54,0.02177
4418.76,0.02240
4412.97,0.02307
4407.18,0.02266
4401.4,0.02179
4395.61,0.02176
4389.82,0.02249
4384.04,0.02207
4378.25,0.02272
4372.47,0.02262
4366.68,0.02260
4360.89,0.02198
4355.11,0.02172
4349.32,0.02224
4343.53,0.02224
4337.75,0.02353
4331.96,0.02326
4326.18,0.02336
4320.39,0.02257
4314.6,0.02221
4308.82,0.02244
4303.03,0.02249
4297.24,0.02253
4291.46,0.02282
4285.67,0.02280
4279.89,0.02275
4274.1,0.02284
4268.31,0.02300
4262.53,0.02230
4256.74,0.02182
4250.95,0.02327
4245.17,0.02330
4239.38,0.02236
4233.6,0.02203
4227.81,0.02278
4222.02,0.02194
4216.24,0.02236
4210.45,0.02285
4204.66,0.02226
4198.88,0.02213
4193.09,0.02183
4187.31,0.02216
4181.52,0.02189
4175.73,0.02246
4169.95,0.02199
4164.16,0.02218
4158.37,0.02258
4152.59,0.02255
4146.8,0.02210
4141.02,0.02255
4135.23,0.02229
4129.44,0.02289
4123.66,0.02325
4117.87,0.02266
4112.09,0.02242
4106.3,0.02254
4100.51,0.02255
4094.73,0.02256
4088.94,0.02243
4083.15,0.02267
4077.37,0.02278
4071.58,0.02255
4065.8,0.02238
4060.01,0.02305
4054.22,0.02216
4048.44,0.02222
4042.65,0.02199
4036.86,0.02276
4031.08,0.02263
4025.29,0.02233
4019.51,0.02266
4013.72,0.02246
4007.93,0.02208
4002.15,0.02278
3996.36,0.02185
3990.57,0.02173
3984.79,0.02188
3979,0.02315
3973.22,0.02218
3967.43,0.02252
3961.64,0.02253
3955.86,0.02233
3950.07,0.02218
3944.28,0.02219
3938.5,0.02211
3932.71,0.02190
3926.93,0.02232
3921.14,0.02307
3915.35,0.02212
3909.57,0.02226
3903.78,0.02263
3897.99,0.02270
3892.21,0.02283
3886.42,0.02332
3880.64,0.02224
3874.85,0.02229
3869.06,0.02312
3863.28,0.02203
3857.49,0.02247
3851.7,0.02305
3845.92,0.02227
3840.13,0.02221
3834.35,0.02274
3828.56,0.02243
3822.77,0.02269
3816.99,0.02287
3811.2,0.02250
3805.41,0.02237
3799.63,0.02187
3793.84,0.02254
3788.06,0.02257
3782.27,0.02230
3776.48,0.02290
3770.7,0.02277
3764.91,0.02214
3759.12,0.02226
3753.34,0.02304
3747.55,0.02255
3741.77,0.02230
3735.98,0.02264
3730.19,0.02267
3724.41,0.02248
3718.62,0.02221
3712.83,0.02188
3707.05,0.02211
3701.26,0.02270
3695.48,0.02245
3689.69,0.02253
3683.9,0.02192
3678.12,0.02249
3672.33,0.02187
3666.54,0.02267
3660.76,0.02219
3654.97,0.02158
3649.19,0.02149
3643.4,0.02185
3637.61,0.02244
3631.83,0.02227
3626.04,0.02151
3620.25,0.02163
3614.47,0.02145
3608.68,0.02208
3602.9,0.02180
3597.11,0.02209
3591.32,0.02174
3585.54,0.02171
3579.75,0.02149
3573.97,0.02171
3568.18,0.02166
3562.39,0.02113
3556.61,0.02163
3550.82,0.02140
3545.03,0.02145
3539.25,0.02105
3533.46,0.02057
3527.68,0.02057
3521.89,0.02145
3516.1,0.02086
3510.32,0.02155
3504.53,0.02082
3498.74,0.02081
3492.96,0.02095
3487.17,0.02066
3481.39,0.02119
3475.6,0.02086
3469.81,0.02091
3464.03,0.02166
3458.24,0.02111
3452.45,0.02089
3446.67,0.02071
3440.88,0.02093
3435.1,0.02090
3429.31,0.02124
3423.52,0.02033
3417.74,0.02031
3411.95,0.01979
3406.16,0.01980
3400.38,0.02023
3394.59,0.02058
3388.81,0.01992
3383.02,0.02102
3377.23,0.02007
3371.45,0.01925
3365.66,0.01979
3359.87,0.02044
3354.09,0.02028
3348.3,0.02044
3342.52,0.02051
3336.73,0.02062
3330.94,0.02018
3325.16,0.01948
3319.37,0.01995
3313.58,0.01989
3307.8,0.02001
3302.01,0.02114
3296.23,0.02055
3290.44,0.02006
3284.65,0.02106
3278.87,0.02059
3273.08,0.02043
3267.29,0.02069
3261.51,0.02085
3255.72,0.02025
3249.94,0.02054
3244.15,0.01992
3238.36,0.01996
3232.58,0.02136
3226.79,0.02053
3221,0.02070
3215.22,0.02103
3209.43,0.02054
3203.65,0.02109
3197.86,0.02143
3192.07,0.02098
3186.29,0.02070
3180.5,0.02101
3174.71,0.02076
3168.93,0.02089
3163.14,0.02115
3157.36,0.02074
3151.57,0.02123
3145.78,0.02125
3140,0.02037
3134.21,0.02060
3128.42,0.02081
3122.64,0.02069
3116.85,0.02106
3111.07,0.02067
3105.28,0.02124
3099.49,0.02069
3093.71,0.02065
3087.92,0.02071
3082.14,0.02055
3076.35,0.02063
3070.56,0.02029
3064.78,0.02062
3058.99,0.02085
3053.2,0.02070
3047.42,0.02043
3041.63,0.02060
3035.85,0.02037
3030.06,0.02093
3024.27,0.02042
3018.49,0.02046
3012.7,0.02072
3006.91,0.02043
3001.13,0.02045
2995.34,0.02022
2989.56,0.02014
2983.77,0.01993
2977.98,0.01987
2972.2,0.01997
2966.41,0.02004
2960.62,0.02029
2954.84,0.01981
2949.05,0.01923
2943.27,0.01950
2937.48,0.01972
2931.69,0.01983
2925.91,0.01929
2920.12,0.02014
2914.33,0.02014
2908.55,0.02053
2902.76,0.02046
2896.98,0.02046
2891.19,0.02058
2885.4,0.02014
2879.62,0.02016
2873.83,0.01972
2868.04,0.01989
2862.26,0.02025
2856.47,0.02060
2850.69,0.02047
2844.9,0.02068
2839.11,0.02100
2833.33,0.02166
2827.54,0.02128
2821.75,0.02097
2815.97,0.02165
2810.18,0.02150
2804.4,0.02129
2798.61,0.02093
2792.82,0.02159
2787.04,0.02159
2781.25,0.02126
2775.46,0.02099
2769.68,0.02113
2763.89,0.02121
2758.11,0.02105
2752.32,0.02126
2746.53,0.02133
2740.75,0.02159
2734.96,0.02092
2729.17,0.02087
2723.39,0.02105
2717.6,0.02102
2711.82,0.02096
2706.03,0.02127
2700.24,0.02116
2694.46,0.02113
2688.67,0.02115
2682.88,0.02107
2677.1,0.02124
2671.31,0.02133
2665.53,0.02146
2659.74,0.02119
2653.95,0.02117
2648.17,0.02121
2642.38,0.02141
2636.59,0.02129
2630.81,0.02086
2625.02,0.02108
2619.24,0.02137
2613.45,0.02124
2607.66,0.02111
2601.88,0.02103
2596.09,0.02089
2590.3,0.02124
2584.52,0.02126
2578.73,0.02139
2572.95,0.02084
2567.16,0.02103
2561.37,0.02163
2555.59,0.02107
2549.8,0.02101
2544.02,0.02109
2538.23,0.02093
2532.44,0.02138
2526.66,0.02081
2520.87,0.02078
2515.08,0.02119
2509.3,0.02136
2503.51,0.02136
2497.73,0.02160
2491.94,0.02141
2486.15,0.02139
2480.37,0.02091
2474.58,0.02079
2468.79,0.02078
2463.01,0.02099
2457.22,0.02132
2451.44,0.02154
2445.65,0.02102
2439.86,0.02111
2434.08,0.02135
2428.29,0.02097
2422.5,0.02130
2416.72,0.02148
2410.93,0.02115
2405.15,0.02093
2399.36,0.02130
2393.57,0.02096
2387.79,0.02095
2382,0.02132
2376.21,0.02121
2370.43,0.02167
2364.64,0.02114
2358.86,0.02117
2353.07,0.02097
2347.28,0.02099
2341.5,0.02105
2335.71,0.02095
2329.92,0.02068
2324.14,0.02104
2318.35,0.02083
2312.57,0.02120
2306.78,0.02110
2300.99,0.02100
2295.21,0.02105
2289.42,0.02104
2283.63,0.02134
2277.85,0.02123
2272.06,0.02096
2266.28,0.02074
2260.49,0.02102
2254.7,0.02102
2248.92,0.02093
2243.13,0.02118
2237.34,0.02080
2231.56,0.02114
2225.77,0.02107
2219.99,0.02076
2214.2,0.02099
2208.41,0.02131
2202.63,0.02113
2196.84,0.02162
2191.05,0.02098
2185.27,0.02093
2179.48,0.02089
2173.7,0.02071
2167.91,0.02057
2162.12,0.02063
2156.34,0.02069
2150.55,0.02080
2144.76,0.02097
2138.98,0.02106
2133.19,0.02073
2127.41,0.02070
2121.62,0.02080
2115.83,0.02104
2110.05,0.02094
2104.26,0.02103
2098.47,0.02090
2092.69,0.02124
2086.9,0.02135
2081.12,0.02090
2075.33,0.02095
2069.54,0.02104
2063.76,0.02077
2057.97,0.02074
2052.19,0.02089
2046.4,0.02102
2040.61,0.02080
2034.83,0.02100
2029.04,0.02097
2023.25,0.02067
2017.47,0.02047
2011.68,0.02083
2005.9,0.02074
2000.11,0.02109
1994.32,0.02080
1988.54,0.02096
1982.75,0.02074
1976.96,0.02057
1971.18,0.02054
1965.39,0.02077
1959.61,0.02112
1953.82,0.02079
1948.03,0.02099
1942.25,0.02087
1936.46,0.02087
1930.67,0.02070
1924.89,0.02089
1919.1,0.02078
1913.32,0.02079
1907.53,0.02032
1901.74,0.02053
1895.96,0.02059
1890.17,0.02025
1884.38,0.02056
1878.6,0.02098
1872.81,0.02055
1867.03,0.02050
1861.24,0.02033
1855.45,0.02022
1849.67,0.02018
1843.88,0.02024
1838.09,0.02028
1832.31,0.02022
1826.52,0.02005
1820.74,0.01991
1814.95,0.02021
1809.16,0.02003
1803.38,0.01983
1797.59,0.01940
1791.8,0.01962
1786.02,0.01978
1780.23,0.01933
1774.45,0.01911
1768.66,0.01845
1762.87,0.01787
1757.09,0.01745
1751.3,0.01733
1745.51,0.01783
1739.73,0.01845
1733.94,0.01939
1728.16,0.02035
1722.37,0.02050
1716.58,0.02076
1710.8,0.02053
1705.01,0.02001
1699.22,0.01957
1693.44,0.01942
1687.65,0.01920
1681.87,0.01905
1676.08,0.01893
1670.29,0.01900
1664.51,0.01877
1658.72,0.01859
1652.93,0.01860
1647.15,0.01800
1641.36,0.01863
1635.58,0.01854
1629.79,0.01874
1624,0.01841
1618.22,0.01905
1612.43,0.01890
1606.64,0.01916
1600.86,0.01882
1595.07,0.01932
1589.29,0.01890
1583.5,0.01883
1577.71,0.01846
1571.93,0.01832
1566.14,0.01828
1560.35,0.01810
1554.57,0.01831
1548.78,0.01836
1543,0.01864
1537.21,0.01810
1531.42,0.01827
1525.64,0.01855
1519.85,0.01841
1514.07,0.01871
1508.28,0.01870
1502.49,0.01837
1496.71,0.01844
1490.92,0.01835
1485.13,0.01886
1479.35,0.01824
1473.56,0.01809
1467.78,0.01854
1461.99,0.01857
1456.2,0.01897
1450.42,0.01887
1444.63,0.01855
1438.84,0.01872
1433.06,0.01893
1427.27,0.01866
1421.49,0.01880
1415.7,0.01797
1409.91,0.01835
1404.13,0.01812
1398.34,0.01811
1392.55,0.01798
1386.77,0.01794
1380.98,0.01811
1375.2,0.01810
1369.41,0.01805
1363.62,0.01821
1357.84,0.01801
1352.05,0.01814
1346.26,0.01796
1340.48,0.01806
1334.69,0.01769
1328.91,0.01753
1323.12,0.01735
1317.33,0.01704
1311.55,0.01733
1305.76,0.01705
1299.97,0.01715
1294.19,0.01749
1288.4,0.01837
1282.62,0.01883
1276.83,0.01885
1271.04,0.01923
1265.26,0.01983
1259.47,0.02023
1253.68,0.02020
1247.9,0.01993
1242.11,0.01966
1236.33,0.01932
1230.54,0.01962
1224.75,0.01945
1218.97,0.01897
1213.18,0.01954
1207.39,0.01882
1201.61,0.01859
1195.82,0.01875
1190.04,0.01824
1184.25,0.01851
1178.46,0.01865
1172.68,0.01770
1166.89,0.01808
1161.1,0.01754
1155.32,0.01776
1149.53,0.01690
1143.75,0.01757
1137.96,0.01804
1132.17,0.01838
1126.39,0.01825
1120.6,0.01870
1114.81,0.01878
1109.03,0.01867
1103.24,0.01869
1097.46,0.01852
1091.67,0.01849
1085.88,0.01805
1080.1,0.01904
1074.31,0.01926
1068.52,0.02048
1062.74,0.02066
1056.95,0.02038
1051.17,0.01906
1045.38,0.01943
1039.59,0.01965
1033.81,0.01948
1028.02,0.01942
1022.24,0.01941
1016.45,0.01951
1010.66,0.02059
1004.88,0.02050
999.09,0.02112
993.304,0.02121
987.518,0.02066
981.731,0.02062
975.945,0.02024
970.159,0.02044
964.373,0.01983
958.586,0.02015
952.8,0.02041
947.014,0.01946
941.228,0.01928
935.441,0.01933
929.655,0.01920
923.869,0.01989
918.083,0.01927
912.297,0.01907
906.51,0.01953
900.724,0.01936
894.938,0.01909
889.152,0.01958
883.365,0.01918
877.579,0.01958
871.793,0.01927
866.007,0.01849
860.22,0.01880
854.434,0.01930
848.648,0.01916
842.862,0.01957
837.075,0.01900
831.289,0.01872
825.503,0.01897
819.717,0.01952
813.931,0.01856
808.144,0.01817
802.358,0.01888
796.572,0.01874
790.786,0.01938
784.999,0.01896
779.213,0.01842
773.427,0.01837
767.641,0.01845
761.854,0.01841
756.068,0.01842
750.282,0.01786
744.496,0.01784
738.709,0.01905
732.923,0.01887
727.137,0.01869
721.351,0.01769
715.565,0.01814
709.778,0.01635
703.992,0.01698
698.206,0.01895
692.42,0.01944
686.633,0.01793
680.847,0.01739
675.061,0.01798
669.275,0.01727
663.488,0.01835
657.702,0.01684
651.916,0.01644
646.13,0.01716
640.343,0.01737
634.557,0.01521
628.771,0.01749
622.985,0.01549
617.198,0.01465
611.412,0.01649
605.626,0.01728
599.84,0.01837