File: 01_Data/PET/FTIR/IS/PET_IS_S_220831_R1.dpt
7497.03,0.51109
7491.25,0.51385
7485.46,0.50785
7479.67,0.50511
7473.89,0.49650
7468.1,0.49385
7462.32,0.48706
7456.53,0.47713
7450.74,0.46719
7444.96,0.46519
7439.17,0.45093
7433.38,0.44267
7427.6,0.43838
7421.81,0.42830
7416.03,0.41465
7410.24,0.40798
7404.45,0.40784
7398.67,0.40295
7392.88,0.39242
7387.09,0.38528
7381.31,0.38271
7375.52,0.37407
7369.74,0.36180
7363.95,0.36326
7358.16,0.36370
7352.38,0.36542
7346.59,0.35624
7340.8,0.35829
7335.02,0.35244
7329.23,0.34804
7323.45,0.35310
7317.66,0.35734
7311.87,0.35643
7306.09,0.34976
7300.3,0.35518
7294.51,0.35108
7288.73,0.34797
7282.94,0.34139
7277.16,0.34871
7271.37,0.34774
7265.58,0.34390
7259.8,0.34467
7254.01,0.34219
7248.22,0.33907
7242.44,0.34057
7236.65,0.34280
7230.87,0.33319
7225.08,0.33045
7219.29,0.32428
7213.51,0.32967
7207.72,0.32354
7201.93,0.33621
7196.15,0.33219
7190.36,0.32919
7184.58,0.32262
7178.79,0.32418
7173,0.32573
7167.22,0.32508
7161.43,0.32405
7155.65,0.31566
7149.86,0.31086
7144.07,0.30567
7138.29,0.30538
7132.5,0.29854
7126.71,0.29390
7120.93,0.29510
7115.14,0.29730
7109.36,0.28823
7103.57,0.29258
7097.78,0.29335
7092,0.28828
7086.21,0.28101
7080.42,0.29313
7074.64,0.29216
7068.85,0.28324
7063.07,0.28977
7057.28,0.29150
7051.49,0.29162
7045.71,0.29452
7039.92,0.29338
7034.13,0.29654
7028.35,0.29770
7022.56,0.29867
7016.78,0.29918
7010.99,0.30471
7005.2,0.31258
6999.42,0.30955
6993.63,0.32464
6987.84,0.32230
6982.06,0.31960
6976.27,0.32441
6970.49,0.32153
6964.7,0.32458
6958.91,0.33475
6953.13,0.34448
6947.34,0.34015
6941.55,0.34026
6935.77,0.34668
6929.98,0.34906
6924.2,0.35049
6918.41,0.35304
6912.62,0.35749
6906.84,0.36067
6901.05,0.35797
6895.26,0.35636
6889.48,0.36710
6883.69,0.36564
6877.91,0.36686
6872.12,0.36459
6866.33,0.36405
6860.55,0.36195
6854.76,0.37014
6848.97,0.36880
6843.19,0.36600
6837.4,0.37362
6831.62,0.37553
6825.83,0.37617
6820.04,0.37216
6814.26,0.38339
6808.47,0.38495
6802.68,0.38635
6796.9,0.39765
6791.11,0.39049
6785.33,0.39395
6779.54,0.39722
6773.75,0.39855
6767.97,0.40001
6762.18,0.41310
6756.39,0.40804
6750.61,0.40879
6744.82,0.41596
6739.04,0.42152
6733.25,0.42325
6727.46,0.43204
6721.68,0.42810
6715.89,0.43075
6710.1,0.42751
6704.32,0.43415
6698.53,0.43234
6692.75,0.43196
6686.96,0.42954
6681.17,0.42910
6675.39,0.43420
6669.6,0.43604
6663.82,0.43659
6658.03,0.43446
6652.24,0.43368
6646.46,0.43167
6640.67,0.43844
6634.88,0.43934
6629.1,0.44511
6623.31,0.44511
6617.53,0.44479
6611.74,0.44587
6605.95,0.44980
6600.17,0.45313
6594.38,0.44988
6588.59,0.45144
6582.81,0.45595
6577.02,0.45283
6571.24,0.45490
6565.45,0.44987
6559.66,0.45275
6553.88,0.45751
6548.09,0.45188
6542.3,0.45707
6536.52,0.45133
6530.73,0.44577
6524.95,0.44378
6519.16,0.44572
6513.37,0.44605
6507.59,0.45035
6501.8,0.44412
6496.01,0.44672
6490.23,0.44618
6484.44,0.45339
6478.66,0.44834
6472.87,0.44910
6467.08,0.44720
6461.3,0.44139
6455.51,0.44265
6449.72,0.44400
6443.94,0.43789
6438.15,0.44039
6432.37,0.43790
6426.58,0.43903
6420.79,0.43524
6415.01,0.44086
6409.22,0.43882
6403.43,0.43912
6397.65,0.43973
6391.86,0.43825
6386.08,0.43599
6380.29,0.43714
6374.5,0.43547
6368.72,0.43811
6362.93,0.43314
6357.14,0.43130
6351.36,0.42333
6345.57,0.42430
6339.79,0.42195
6334,0.41541
6328.21,0.41088
6322.43,0.40832
6316.64,0.41317
6310.85,0.41169
6305.07,0.40883
6299.28,0.40967
6293.5,0.40584
6287.71,0.40490
6281.92,0.39964
6276.14,0.39152
6270.35,0.38566
6264.56,0.38269
6258.78,0.37700
6252.99,0.36855
6247.21,0.36528
6241.42,0.36110
6235.63,0.35532
6229.85,0.35115
6224.06,0.34361
6218.27,0.33175
6212.49,0.31745
6206.7,0.29365
6200.92,0.27269
6195.13,0.25965
6189.34,0.26219
6183.56,0.26782
6177.77,0.27026
6171.98,0.26928
6166.2,0.26645
6160.41,0.25479
6154.63,0.24237
6148.84,0.23013
6143.05,0.22342
6137.27,0.21998
6131.48,0.21609
6125.7,0.21505
6119.91,0.20585
6114.12,0.19373
6108.34,0.17965
6102.55,0.15911
6096.76,0.14614
6090.98,0.13816
6085.19,0.12371
6079.41,0.11900
6073.62,0.11160
6067.83,0.10640
6062.05,0.09894
6056.26,0.09583
6050.47,0.09056
6044.69,0.08604
6038.9,0.08728
6033.12,0.08261
6027.33,0.07826
6021.54,0.07926
6015.76,0.07923
6009.97,0.08013
6004.18,0.08498
5998.4,0.08477
5992.61,0.09046
5986.83,0.09589
5981.04,0.09396
5975.25,0.09713
5969.47,0.09591
5963.68,0.10150
5957.89,0.10569
5952.11,0.10572
5946.32,0.10546
5940.54,0.10352
5934.75,0.11086
5928.96,0.11340
5923.18,0.12019
5917.39,0.12847
5911.6,0.13761
5905.82,0.13844
5900.03,0.13802
5894.25,0.13442
5888.46,0.13034
5882.67,0.12668
5876.89,0.12155
5871.1,0.12112
5865.31,0.11840
5859.53,0.11855
5853.74,0.12088
5847.96,0.12106
5842.17,0.12307
5836.38,0.12540
5830.6,0.12327
5824.81,0.12291
5819.02,0.12040
5813.24,0.11904
5807.45,0.11960
5801.67,0.11875
5795.88,0.12194
5790.09,0.12260
5784.31,0.12345
5778.52,0.12623
5772.73,0.12706
5766.95,0.12940
5761.16,0.12936
5755.38,0.13100
5749.59,0.13730
5743.8,0.14212
5738.02,0.14559
5732.23,0.14761
5726.44,0.15131
5720.66,0.15497
5714.87,0.15404
5709.09,0.15315
5703.3,0.15383
5697.51,0.15379
5691.73,0.15881
5685.94,0.15968
5680.15,0.16246
5674.37,0.16273
5668.58,0.16127
5662.8,0.16238
5657.01,0.16141
5651.22,0.16168
5645.44,0.16424
5639.65,0.16727
5633.87,0.17129
5628.08,0.17621
5622.29,0.17596
5616.51,0.17972
5610.72,0.17887
5604.93,0.17961
5599.15,0.17749
5593.36,0.17337
5587.58,0.17392
5581.79,0.17316
5576,0.16846
5570.22,0.16591
5564.43,0.16637
5558.64,0.16563
5552.86,0.16614
5547.07,0.16396
5541.29,0.16474
5535.5,0.16548
5529.71,0.16482
5523.93,0.16630
5518.14,0.16631
5512.35,0.16919
5506.57,0.16999
5500.78,0.16880
5495,0.16634
5489.21,0.16389
5483.42,0.16237
5477.64,0.16263
5471.85,0.16370
5466.06,0.16642
5460.28,0.16761
5454.49,0.16919
5448.71,0.17306
5442.92,0.17788
5437.13,0.18451
5431.35,0.18525
5425.56,0.18940
5419.77,0.18999
5413.99,0.18658
5408.2,0.18805
5402.42,0.18601
5396.63,0.18605
5390.84,0.18565
5385.06,0.18557
5379.27,0.18496
5373.48,0.18262
5367.7,0.18189
5361.91,0.17927
5356.13,0.17700
5350.34,0.17600
5344.55,0.17564
5338.77,0.17719
5332.98,0.17833
5327.19,0.17916
5321.41,0.17955
5315.62,0.17715
5309.84,0.17444
5304.05,0.17150
5298.26,0.16562
5292.48,0.16182
5286.69,0.15310
5280.9,0.14451
5275.12,0.13525
5269.33,0.12655
5263.55,0.11981
5257.76,0.11519
5251.97,0.11306
5246.19,0.11375
5240.4,0.11292
5234.61,0.11570
5228.83,0.11779
5223.04,0.12220
5217.26,0.12590
5211.47,0.13263
5205.68,0.13680
5199.9,0.14162
5194.11,0.14549
5188.32,0.14789
5182.54,0.14787
5176.75,0.14999
5170.97,0.14973
5165.18,0.14904
5159.39,0.14664
5153.61,0.14479
5147.82,0.14101
5142.03,0.13795
5136.25,0.13385
5130.46,0.12929
5124.68,0.12439
5118.89,0.12092
5113.1,0.12575
5107.32,0.13234
5101.53,0.13784
5095.75,0.14392
5089.96,0.14939
5084.17,0.15543
5078.39,0.15928
5072.6,0.16135
5066.81,0.16564
5061.03,0.16784
5055.24,0.16843
5049.46,0.16898
5043.67,0.16729
5037.88,0.16751
5032.1,0.16656
5026.31,0.16697
5020.52,0.16579
5014.74,0.16576
5008.95,0.16338
5003.17,0.16543
4997.38,0.16745
4991.59,0.16899
4985.81,0.17057
4980.02,0.17174
4974.23,0.17042
4968.45,0.17039
4962.66,0.16869
4956.88,0.16588
4951.09,0.16371
4945.3,0.16189
4939.52,0.16051
4933.73,0.15820
4927.94,0.15722
4922.16,0.15518
4916.37,0.15340
4910.59,0.15206
4904.8,0.15007
4899.01,0.15015
4893.23,0.14710
4887.44,0.14612
4881.65,0.14448
4875.87,0.14402
4870.08,0.14341
4864.3,0.14165
4858.51,0.14074
4852.72,0.13937
4846.94,0.13525
4841.15,0.13106
4835.36,0.12444
4829.58,0.11901
4823.79,0.11439
4818.01,0.11122
4812.22,0.10834
4806.43,0.10486
4800.65,0.10348
4794.86,0.10391
4789.07,0.10466
4783.29,0.10574
4777.5,0.10757
4771.72,0.10902
4765.93,0.11019
4760.14,0.10730
4754.36,0.10253
4748.57,0.09785
4742.78,0.09254
4737,0.08946
4731.21,0.08435
4725.43,0.08091
4719.64,0.07656
4713.85,0.07642
4708.07,0.07679
4702.28,0.07438
4696.49,0.07100
4690.71,0.07028
4684.92,0.07044
4679.14,0.07394
4673.35,0.07653
4667.56,0.07951
4661.78,0.08102
4655.99,0.08077
4650.2,0.07871
4644.42,0.07552
4638.63,0.07343
4632.85,0.07258
4627.06,0.07485
4621.27,0.07912
4615.49,0.08402
4609.7,0.08728
4603.92,0.08711
4598.13,0.08466
4592.34,0.08169
4586.56,0.07863
4580.77,0.07680
4574.98,0.07932
4569.2,0.08384
4563.41,0.08927
4557.63,0.09150
4551.84,0.09116
4546.05,0.09192
4540.27,0.09187
4534.48,0.09044
4528.69,0.08988
4522.91,0.08838
4517.12,0.08513
4511.34,0.08308
4505.55,0.08078
4499.76,0.07688
4493.98,0.07313
4488.19,0.07148
4482.4,0.07115
4476.62,0.07003
4470.83,0.06860
4465.05,0.06651
4459.26,0.06557
4453.47,0.06489
4447.69,0.06550
4441.9,0.06580
4436.11,0.06499
4430.33,0.06555
4424.54,0.06475
4418.76,0.06544
4412.97,0.06606
4407.18,0.06651
4401.4,0.06559
4395.61,0.06678
4389.82,0.06824
4384.04,0.06818
4378.25,0.06772
4372.47,0.06786
4366.68,0.06698
4360.89,0.06637
4355.11,0.06784
4349.32,0.06829
4343.53,0.06743
4337.75,0.06726
4331.96,0.06732
4326.18,0.06741
4320.39,0.06695
4314.6,0.06732
4308.82,0.06679
4303.03,0.06604
4297.24,0.06607
4291.46,0.06616
4285.67,0.06561
4279.89,0.06580
4274.1,0.06654
4268.31,0.06608
4262.53,0.06630
4256.74,0.06653
4250.95,0.06580
4245.17,0.06583
4239.38,0.06638
4233.6,0.06675
4227.81,0.06660
4222.02,0.06713
4216.24,0.06661
4210.45,0.06743
4204.66,0.06785
4198.88,0.06794
4193.09,0.06848
4187.31,0.06752
4181.52,0.06728
4175.73,0.06687
4169.95,0.06720
4164.16,0.06766
4158.37,0.06727
4152.59,0.06742
4146.8,0.06731
4141.02,0.06739
4135.23,0.06753
4129.44,0.06645
4123.66,0.06643
4117.87,0.06670
4112.09,0.06634
4106.3,0.06562
4100.51,0.06426
4094.73,0.06379
4088.94,0.06390
4083.15,0.06449
4077.37,0.06514
4071.58,0.06604
4065.8,0.06598
4060.01,0.06648
4054.22,0.06689
4048.44,0.06704
4042.65,0.06726
4036.86,0.06805
4031.08,0.06799
4025.29,0.06812
4019.51,0.06809
4013.72,0.06816
4007.93,0.06866
4002.15,0.06828
3996.36,0.06745
3990.57,0.06851
3984.79,0.06826
3979,0.06849
3973.22,0.06852
3967.43,0.06856
3961.64,0.06907
3955.86,0.06945
3950.07,0.06944
3944.28,0.06968
3938.5,0.06964
3932.71,0.06915
3926.93,0.06986
3921.14,0.06911
3915.35,0.06962
3909.57,0.07005
3903.78,0.07096
3897.99,0.07066
3892.21,0.07170
3886.42,0.07182
3880.64,0.07173
3874.85,0.07144
3869.06,0.07260
3863.28,0.07236
3857.49,0.07239
3851.7,0.07299
3845.92,0.07325
3840.13,0.07288
3834.35,0.07273
3828.56,0.07270
3822.77,0.07214
3816.99,0.07173
3811.2,0.07029
3805.41,0.06956
3799.63,0.07024
3793.84,0.07157
3788.06,0.07146
3782.27,0.07153
3776.48,0.07150
3770.7,0.07049
3764.91,0.06956
3759.12,0.06913
3753.34,0.07017
3747.55,0.07104
3741.77,0.07143
3735.98,0.07102
3730.19,0.07051
3724.41,0.07072
3718.62,0.07071
3712.83,0.07021
3707.05,0.06932
3701.26,0.06819
3695.48,0.06669
3689.69,0.06549
3683.9,0.06464
3678.12,0.06361
3672.33,0.06396
3666.54,0.06427
3660.76,0.06381
3654.97,0.06348
3649.19,0.06324
3643.4,0.06279
3637.61,0.06301
3631.83,0.06364
3626.04,0.06313
3620.25,0.06300
3614.47,0.06347
3608.68,0.06247
3602.9,0.06293
3597.11,0.06298
3591.32,0.06366
3585.54,0.06349
3579.75,0.06311
3573.97,0.06308
3568.18,0.06292
3562.39,0.06255
3556.61,0.06309
3550.82,0.06317
3545.03,0.06269
3539.25,0.06246
3533.46,0.06238
3527.68,0.06301
3521.89,0.06306
3516.1,0.06302
3510.32,0.06272
3504.53,0.06300
3498.74,0.06332
3492.96,0.06301
3487.17,0.06319
3481.39,0.06349
3475.6,0.06343
3469.81,0.06223
3464.03,0.06286
3458.24,0.06260
3452.45,0.06220
3446.67,0.06202
3440.88,0.06204
3435.1,0.06149
3429.31,0.06113
3423.52,0.06168
3417.74,0.06202
3411.95,0.06249
3406.16,0.06242
3400.38,0.06296
3394.59,0.06359
3388.81,0.06370
3383.02,0.06383
3377.23,0.06390
3371.45,0.06404
3365.66,0.06366
3359.87,0.06341
3354.09,0.06364
3348.3,0.06266
3342.52,0.06317
3336.73,0.06298
3330.94,0.06279
3325.16,0.06272
3319.37,0.06293
3313.58,0.06326
3307.8,0.06319
3302.01,0.06314
3296.23,0.06313
3290.44,0.06356
3284.65,0.06285
3278.87,0.06391
3273.08,0.06350
3267.29,0.06291
3261.51,0.06332
3255.72,0.06338
3249.94,0.06315
3244.15,0.06238
3238.36,0.06313
3232.58,0.06357
3226.79,0.06324
3221,0.06375
3215.22,0.06349
3209.43,0.06362
3203.65,0.06317
3197.86,0.06287
3192.07,0.06266
3186.29,0.06268
3180.5,0.06306
3174.71,0.06279
3168.93,0.06279
3163.14,0.06271
3157.36,0.06269
3151.57,0.06222
3145.78,0.06182
3140,0.06180
3134.21,0.06200
3128.42,0.06195
3122.64,0.06159
3116.85,0.06107
3111.07,0.06176
3105.28,0.06118
3099.49,0.06140
3093.71,0.06128
3087.92,0.06099
3082.14,0.06142
3076.35,0.06137
3070.56,0.06093
3064.78,0.06052
3058.99,0.06111
3053.2,0.06098
3047.42,0.06087
3041.63,0.06163
3035.85,0.06120
3030.06,0.06087
3024.27,0.06067
3018.49,0.06056
3012.7,0.06046
3006.91,0.06048
3001.13,0.06065
2995.34,0.06054
2989.56,0.06084
2983.77,0.06058
2977.98,0.05997
2972.2,0.06024
2966.41,0.06064
2960.62,0.06127
2954.84,0.06193
2949.05,0.06226
2943.27,0.06216
2937.48,0.06341
2931.69,0.06400
2925.91,0.06502
2920.12,0.06563
2914.33,0.06516
2908.55,0.06432
2902.76,0.06388
2896.98,0.06310
2891.19,0.06300
2885.4,0.06272
2879.62,0.06268
2873.83,0.06270
2868.04,0.06262
2862.26,0.06322
2856.47,0.06390
2850.69,0.06502
2844.9,0.06468
2839.11,0.06339
2833.33,0.06364
2827.54,0.06356
2821.75,0.06270
2815.97,0.06245
2810.18,0.06279
2804.4,0.06289
2798.61,0.06243
2792.82,0.06287
2787.04,0.06287
2781.25,0.06263
2775.46,0.06320
2769.68,0.06333
2763.89,0.06270
2758.11,0.06289
2752.32,0.06276
2746.53,0.06249
2740.75,0.06233
2734.96,0.06313
2729.17,0.06351
2723.39,0.06340
2717.6,0.06322
2711.82,0.06314
2706.03,0.06326
2700.24,0.06369
2694.46,0.06363
2688.67,0.06380
2682.88,0.06379
2677.1,0.06349
2671.31,0.06405
2665.53,0.06396
2659.74,0.06409
2653.95,0.06355
2648.17,0.06324
2642.38,0.06302
2636.59,0.06220
2630.81,0.06181
2625.02,0.06245
2619.24,0.06256
2613.45,0.06281
2607.66,0.06225
2601.88,0.06218
2596.09,0.06183
2590.3,0.06178
2584.52,0.06193
2578.73,0.06123
2572.95,0.06164
2567.16,0.06143
2561.37,0.06140
2555.59,0.06159
2549.8,0.06164
2544.02,0.06127
2538.23,0.06127
2532.44,0.06127
2526.66,0.06129
2520.87,0.06164
2515.08,0.06163
2509.3,0.06088
2503.51,0.06146
2497.73,0.06157
2491.94,0.06190
2486.15,0.06208
2480.37,0.06205
2474.58,0.06217
2468.79,0.06223
2463.01,0.06199
2457.22,0.06195
2451.44,0.06212
2445.65,0.06170
2439.86,0.06126
2434.08,0.06139
2428.29,0.06103
2422.5,0.06136
2416.72,0.06100
2410.93,0.06052
2405.15,0.06054
2399.36,0.06039
2393.57,0.06058
2387.79,0.06036
2382,0.06046
2376.21,0.06108
2370.43,0.06084
2364.64,0.06070
2358.86,0.06089
2353.07,0.06111
2347.28,0.06101
2341.5,0.06141
2335.71,0.06128
2329.92,0.06106
2324.14,0.06086
2318.35,0.06101
2312.57,0.06060
2306.78,0.06067
2300.99,0.06037
2295.21,0.06019
2289.42,0.06007
2283.63,0.05969
2277.85,0.06018
2272.06,0.06019
2266.28,0.05988
2260.49,0.06002
2254.7,0.05994
2248.92,0.06009
2243.13,0.06005
2237.34,0.06056
2231.56,0.06002
2225.77,0.06011
2219.99,0.06000
2214.2,0.05993
2208.41,0.05994
2202.63,0.06046
2196.84,0.06020
2191.05,0.06017
2185.27,0.06002
2179.48,0.06009
2173.7,0.06016
2167.91,0.05999
2162.12,0.05966
2156.34,0.05934
2150.55,0.05887
2144.76,0.05930
2138.98,0.05923
2133.19,0.05872
2127.41,0.05856
2121.62,0.05848
2115.83,0.05870
2110.05,0.05870
2104.26,0.05867
2098.47,0.05844
2092.69,0.05839
2086.9,0.05830
2081.12,0.05830
2075.33,0.05858
2069.54,0.05809
2063.76,0.05826
2057.97,0.05825
2052.19,0.05851
2046.4,0.05827
2040.61,0.05818
2034.83,0.05829
2029.04,0.05835
2023.25,0.05783
2017.47,0.05770
2011.68,0.05763
2005.9,0.05753
2000.11,0.05720
1994.32,0.05687
1988.54,0.05651
1982.75,0.05671
1976.96,0.05690
1971.18,0.05663
1965.39,0.05602
1959.61,0.05596
1953.82,0.05625
1948.03,0.05614
1942.25,0.05626
1936.46,0.05594
1930.67,0.05590
1924.89,0.05609
1919.1,0.05568
1913.32,0.05590
1907.53,0.05572
1901.74,0.05514
1895.96,0.05496
1890.17,0.05483
1884.38,0.05489
1878.6,0.05427
1872.81,0.05393
1867.03,0.05380
1861.24,0.05340
1855.45,0.05327
1849.67,0.05241
1843.88,0.05194
1838.09,0.05194
1832.31,0.05130
1826.52,0.05102
1820.74,0.05051
1814.95,0.04999
1809.16,0.04944
1803.38,0.04866
1797.59,0.04825
1791.8,0.04698
1786.02,0.04594
1780.23,0.04494
1774.45,0.04311
1768.66,0.04109
1762.87,0.03899
1757.09,0.03537
1751.3,0.03109
1745.51,0.02546
1739.73,0.02615
1733.94,0.04456
1728.16,0.07673
1722.37,0.11017
1716.58,0.13163
1710.8,0.11699
1705.01,0.09767
1699.22,0.08612
1693.44,0.07925
1687.65,0.07539
1681.87,0.07300
1676.08,0.07106
1670.29,0.06982
1664.51,0.06839
1658.72,0.06732
1652.93,0.06630
1647.15,0.06525
1641.36,0.06446
1635.58,0.06394
1629.79,0.06285
1624,0.06232
1618.22,0.06134
1612.43,0.06103
1606.64,0.06084
1600.86,0.06065
1595.07,0.05985
1589.29,0.05902
1583.5,0.05840
1577.71,0.05860
1571.93,0.05913
1566.14,0.05888
1560.35,0.05792
1554.57,0.05716
1548.78,0.05686
1543,0.05656
1537.21,0.05571
1531.42,0.05541
1525.64,0.05486
1519.85,0.05445
1514.07,0.05291
1508.28,0.05237
1502.49,0.05548
1496.71,0.05507
1490.92,0.05359
1485.13,0.05205
1479.35,0.05164
1473.56,0.05102
1467.78,0.05148
1461.99,0.05045
1456.2,0.04996
1450.42,0.05113
1444.63,0.05075
1438.84,0.05064
1433.06,0.04998
1427.27,0.04817
1421.49,0.04512
1415.7,0.04136
1409.91,0.04849
1404.13,0.05509
1398.34,0.05265
1392.55,0.05046
1386.77,0.04850
1380.98,0.04702
1375.2,0.04626
1369.41,0.04636
1363.62,0.04636
1357.84,0.04346
1352.05,0.04011
1346.26,0.03993
1340.48,0.04969
1334.69,0.04849
1328.91,0.04088
1323.12,0.03517
1317.33,0.03117
1311.55,0.02749
1305.76,0.02480
1299.97,0.02425
1294.19,0.03154
1288.4,0.04484
1282.62,0.05946
1276.83,0.07897
1271.04,0.10452
1265.26,0.13051
1259.47,0.14366
1253.68,0.15156
1247.9,0.16054
1242.11,0.15604
1236.33,0.14106
1230.54,0.12231
1224.75,0.10813
1218.97,0.09930
1213.18,0.09197
1207.39,0.08611
1201.61,0.08163
1195.82,0.07764
1190.04,0.07336
1184.25,0.06984
1178.46,0.06718
1172.68,0.06541
1166.89,0.06312
1161.1,0.05850
1155.32,0.05332
1149.53,0.04889
1143.75,0.04489
1137.96,0.04623
1132.17,0.06065
1126.39,0.08134
1120.6,0.09244
1114.81,0.09260
1109.03,0.09220
1103.24,0.10250
1097.46,0.11783
1091.67,0.12089
1085.88,0.11637
1080.1,0.11097
1074.31,0.10177
1068.52,0.09528
1062.74,0.08992
1056.95,0.08507
1051.17,0.08154
1045.38,0.08058
1039.59,0.08149
1033.81,0.07989
1028.02,0.07634
1022.24,0.08300
1016.45,0.09870
1010.66,0.09589
1004.88,0.08927
999.09,0.08482
993.304,0.08214
987.518,0.08067
981.731,0.07868
975.945,0.07837
970.159,0.07999
964.373,0.07981
958.586,0.07834
952.8,0.07740
947.014,0.07675
941.228,0.07582
935.441,0.07490
929.655,0.07428
923.869,0.07212
918.083,0.07096
912.297,0.06928
906.51,0.06902
900.724,0.06879
894.938,0.06874
889.152,0.06808
883.365,0.06738
877.579,0.06693
871.793,0.07279
866.007,0.07486
860.22,0.07290
854.434,0.07232
848.648,0.07333
842.862,0.07279
837.075,0.07307
831.289,0.07247
825.503,0.07138
819.717,0.07090
813.931,0.07020
808.144,0.06995
802.358,0.06947
796.572,0.06886
790.786,0.07017
784.999,0.06992
779.213,0.06909
773.427,0.06722
767.641,0.06476
761.854,0.06335
756.068,0.06049
750.282,0.05612
744.496,0.04813
738.709,0.03699
732.923,0.05357
727.137,0.11746
721.351,0.12783
715.565,0.10197
709.778,0.09044
703.992,0.08746
698.206,0.08512
692.42,0.08237
686.633,0.08045
680.847,0.07983
675.061,0.07794
669.275,0.07781
663.488,0.07591
657.702,0.07555
651.916,0.07508
646.13,0.07433
640.343,0.07392
634.557,0.07010
628.771,0.07241
622.985,0.06983
617.198,0.07156
611.412,0.07294
605.626,0.07085
599.84,0.07034