File: 01_Data/PET/FTIR/IS/PET_IS_S_220831_R6.dpt
7497.03,0.51682
7491.25,0.50706
7485.46,0.51968
7479.67,0.50288
7473.89,0.50702
7468.1,0.49182
7462.32,0.48857
7456.53,0.47891
7450.74,0.47551
7444.96,0.46515
7439.17,0.46418
7433.38,0.44308
7427.6,0.43342
7421.81,0.41888
7416.03,0.41889
7410.24,0.41136
7404.45,0.40537
7398.67,0.40139
7392.88,0.39060
7387.09,0.39049
7381.31,0.38191
7375.52,0.37747
7369.74,0.37298
7363.95,0.36583
7358.16,0.35891
7352.38,0.36498
7346.59,0.35526
7340.8,0.35561
7335.02,0.35493
7329.23,0.34486
7323.45,0.34949
7317.66,0.35092
7311.87,0.35446
7306.09,0.34751
7300.3,0.35669
7294.51,0.34647
7288.73,0.34711
7282.94,0.34776
7277.16,0.34413
7271.37,0.34079
7265.58,0.34572
7259.8,0.34712
7254.01,0.35005
7248.22,0.34011
7242.44,0.33884
7236.65,0.33928
7230.87,0.33865
7225.08,0.33889
7219.29,0.33841
7213.51,0.33385
7207.72,0.32907
7201.93,0.32678
7196.15,0.33265
7190.36,0.33095
7184.58,0.32410
7178.79,0.32746
7173,0.32652
7167.22,0.33002
7161.43,0.31727
7155.65,0.32045
7149.86,0.31173
7144.07,0.31148
7138.29,0.30663
7132.5,0.30540
7126.71,0.29347
7120.93,0.29648
7115.14,0.29620
7109.36,0.29367
7103.57,0.28922
7097.78,0.29575
7092,0.29320
7086.21,0.29120
7080.42,0.28963
7074.64,0.28805
7068.85,0.29409
7063.07,0.28871
7057.28,0.29146
7051.49,0.29423
7045.71,0.29067
7039.92,0.29114
7034.13,0.28916
7028.35,0.29758
7022.56,0.29733
7016.78,0.29875
7010.99,0.30794
7005.2,0.31336
6999.42,0.31170
6993.63,0.31777
6987.84,0.32047
6982.06,0.32585
6976.27,0.32512
6970.49,0.32901
6964.7,0.32882
6958.91,0.33553
6953.13,0.33975
6947.34,0.34355
6941.55,0.34324
6935.77,0.34223
6929.98,0.34978
6924.2,0.35088
6918.41,0.35410
6912.62,0.35532
6906.84,0.35668
6901.05,0.35846
6895.26,0.36165
6889.48,0.36744
6883.69,0.36638
6877.91,0.36725
6872.12,0.37060
6866.33,0.36564
6860.55,0.36763
6854.76,0.36596
6848.97,0.36840
6843.19,0.36911
6837.4,0.37281
6831.62,0.37221
6825.83,0.38011
6820.04,0.37951
6814.26,0.38029
6808.47,0.38666
6802.68,0.39152
6796.9,0.38886
6791.11,0.39469
6785.33,0.39303
6779.54,0.39738
6773.75,0.40070
6767.97,0.41022
6762.18,0.40658
6756.39,0.41138
6750.61,0.41684
6744.82,0.42066
6739.04,0.42002
6733.25,0.42846
6727.46,0.42395
6721.68,0.42970
6715.89,0.43643
6710.1,0.42776
6704.32,0.43034
6698.53,0.43120
6692.75,0.43092
6686.96,0.43123
6681.17,0.43182
6675.39,0.43808
6669.6,0.43392
6663.82,0.43584
6658.03,0.43780
6652.24,0.43451
6646.46,0.43464
6640.67,0.43397
6634.88,0.44130
6629.1,0.44482
6623.31,0.45146
6617.53,0.44475
6611.74,0.44832
6605.95,0.45168
6600.17,0.45561
6594.38,0.45147
6588.59,0.45325
6582.81,0.45232
6577.02,0.45266
6571.24,0.45304
6565.45,0.45619
6559.66,0.45921
6553.88,0.44964
6548.09,0.45299
6542.3,0.45485
6536.52,0.45436
6530.73,0.45176
6524.95,0.44703
6519.16,0.44730
6513.37,0.44725
6507.59,0.45340
6501.8,0.44587
6496.01,0.44942
6490.23,0.44459
6484.44,0.44894
6478.66,0.45138
6472.87,0.44960
6467.08,0.44842
6461.3,0.44649
6455.51,0.44306
6449.72,0.44091
6443.94,0.43686
6438.15,0.43774
6432.37,0.43699
6426.58,0.43537
6420.79,0.43696
6415.01,0.43866
6409.22,0.43607
6403.43,0.43653
6397.65,0.43445
6391.86,0.43431
6386.08,0.43595
6380.29,0.43951
6374.5,0.43275
6368.72,0.43393
6362.93,0.43358
6357.14,0.43012
6351.36,0.43001
6345.57,0.42019
6339.79,0.41688
6334,0.41228
6328.21,0.40999
6322.43,0.41157
6316.64,0.41248
6310.85,0.41358
6305.07,0.40624
6299.28,0.40678
6293.5,0.40607
6287.71,0.40400
6281.92,0.39871
6276.14,0.39450
6270.35,0.38949
6264.56,0.38246
6258.78,0.37557
6252.99,0.37102
6247.21,0.36613
6241.42,0.36321
6235.63,0.35588
6229.85,0.35240
6224.06,0.34562
6218.27,0.33061
6212.49,0.31716
6206.7,0.29807
6200.92,0.27291
6195.13,0.25875
6189.34,0.26059
6183.56,0.26667
6177.77,0.26994
6171.98,0.26728
6166.2,0.26604
6160.41,0.25620
6154.63,0.24337
6148.84,0.23123
6143.05,0.22359
6137.27,0.21790
6131.48,0.21816
6125.7,0.21586
6119.91,0.20535
6114.12,0.19166
6108.34,0.17558
6102.55,0.16074
6096.76,0.14500
6090.98,0.13615
6085.19,0.12524
6079.41,0.11686
6073.62,0.11467
6067.83,0.10679
6062.05,0.10043
6056.26,0.09359
6050.47,0.09218
6044.69,0.08848
6038.9,0.08609
6033.12,0.07870
6027.33,0.08048
6021.54,0.08003
6015.76,0.07885
6009.97,0.08147
6004.18,0.08195
5998.4,0.08845
5992.61,0.09170
5986.83,0.09349
5981.04,0.09335
5975.25,0.09493
5969.47,0.09894
5963.68,0.10244
5957.89,0.10702
5952.11,0.10560
5946.32,0.10585
5940.54,0.10487
5934.75,0.10755
5928.96,0.11503
5923.18,0.12371
5917.39,0.12594
5911.6,0.13370
5905.82,0.13772
5900.03,0.13709
5894.25,0.13563
5888.46,0.13239
5882.67,0.12576
5876.89,0.12237
5871.1,0.11898
5865.31,0.11831
5859.53,0.11952
5853.74,0.11839
5847.96,0.12298
5842.17,0.12267
5836.38,0.12532
5830.6,0.12624
5824.81,0.12133
5819.02,0.12156
5813.24,0.12218
5807.45,0.12079
5801.67,0.12056
5795.88,0.12064
5790.09,0.12187
5784.31,0.12375
5778.52,0.12627
5772.73,0.12630
5766.95,0.12827
5761.16,0.13117
5755.38,0.13362
5749.59,0.13551
5743.8,0.13995
5738.02,0.14410
5732.23,0.15075
5726.44,0.15218
5720.66,0.15110
5714.87,0.15364
5709.09,0.15327
5703.3,0.15576
5697.51,0.15529
5691.73,0.15675
5685.94,0.15948
5680.15,0.16111
5674.37,0.16411
5668.58,0.16218
5662.8,0.16279
5657.01,0.16338
5651.22,0.16109
5645.44,0.16407
5639.65,0.16711
5633.87,0.17282
5628.08,0.17487
5622.29,0.17849
5616.51,0.18106
5610.72,0.18305
5604.93,0.17867
5599.15,0.17897
5593.36,0.17653
5587.58,0.17388
5581.79,0.17090
5576,0.16881
5570.22,0.16680
5564.43,0.16480
5558.64,0.16513
5552.86,0.16509
5547.07,0.16363
5541.29,0.16525
5535.5,0.16662
5529.71,0.16408
5523.93,0.16344
5518.14,0.16686
5512.35,0.16865
5506.57,0.17000
5500.78,0.16809
5495,0.16654
5489.21,0.16460
5483.42,0.16404
5477.64,0.16492
5471.85,0.16253
5466.06,0.16513
5460.28,0.16673
5454.49,0.16929
5448.71,0.17290
5442.92,0.17815
5437.13,0.18093
5431.35,0.18572
5425.56,0.18953
5419.77,0.18941
5413.99,0.18883
5408.2,0.18770
5402.42,0.18640
5396.63,0.18634
5390.84,0.18364
5385.06,0.18569
5379.27,0.18443
5373.48,0.18472
5367.7,0.18167
5361.91,0.18026
5356.13,0.17757
5350.34,0.17679
5344.55,0.17798
5338.77,0.17655
5332.98,0.18032
5327.19,0.18034
5321.41,0.18004
5315.62,0.17910
5309.84,0.17443
5304.05,0.17124
5298.26,0.16386
5292.48,0.15971
5286.69,0.15159
5280.9,0.14219
5275.12,0.13446
5269.33,0.12741
5263.55,0.12118
5257.76,0.11864
5251.97,0.11606
5246.19,0.11379
5240.4,0.11376
5234.61,0.11760
5228.83,0.11847
5223.04,0.12175
5217.26,0.12684
5211.47,0.13143
5205.68,0.13689
5199.9,0.14216
5194.11,0.14530
5188.32,0.14708
5182.54,0.14843
5176.75,0.14976
5170.97,0.15129
5165.18,0.14863
5159.39,0.14810
5153.61,0.14365
5147.82,0.14144
5142.03,0.13803
5136.25,0.13400
5130.46,0.12924
5124.68,0.12463
5118.89,0.12217
5113.1,0.12493
5107.32,0.13100
5101.53,0.13783
5095.75,0.14416
5089.96,0.14900
5084.17,0.15373
5078.39,0.15814
5072.6,0.16258
5066.81,0.16413
5061.03,0.16649
5055.24,0.16847
5049.46,0.16895
5043.67,0.16922
5037.88,0.16733
5032.1,0.16681
5026.31,0.16635
5020.52,0.16573
5014.74,0.16417
5008.95,0.16389
5003.17,0.16479
4997.38,0.16741
4991.59,0.16937
4985.81,0.17107
4980.02,0.17186
4974.23,0.17173
4968.45,0.17120
4962.66,0.16874
4956.88,0.16628
4951.09,0.16377
4945.3,0.16162
4939.52,0.15955
4933.73,0.15797
4927.94,0.15761
4922.16,0.15483
4916.37,0.15399
4910.59,0.15315
4904.8,0.15175
4899.01,0.15036
4893.23,0.14898
4887.44,0.14695
4881.65,0.14557
4875.87,0.14453
4870.08,0.14348
4864.3,0.14246
4858.51,0.14012
4852.72,0.13942
4846.94,0.13563
4841.15,0.12992
4835.36,0.12427
4829.58,0.11968
4823.79,0.11451
4818.01,0.11038
4812.22,0.10744
4806.43,0.10574
4800.65,0.10322
4794.86,0.10318
4789.07,0.10453
4783.29,0.10468
4777.5,0.10801
4771.72,0.10913
4765.93,0.10908
4760.14,0.10766
4754.36,0.10279
4748.57,0.09731
4742.78,0.09308
4737,0.08970
4731.21,0.08371
4725.43,0.07994
4719.64,0.07694
4713.85,0.07650
4708.07,0.07743
4702.28,0.07413
4696.49,0.07154
4690.71,0.06997
4684.92,0.06965
4679.14,0.07294
4673.35,0.07572
4667.56,0.07913
4661.78,0.08055
4655.99,0.08031
4650.2,0.07947
4644.42,0.07561
4638.63,0.07295
4632.85,0.07292
4627.06,0.07513
4621.27,0.07987
4615.49,0.08531
4609.7,0.08657
4603.92,0.08706
4598.13,0.08566
4592.34,0.08210
4586.56,0.08006
4580.77,0.07745
4574.98,0.07816
4569.2,0.08349
4563.41,0.08877
4557.63,0.09166
4551.84,0.09177
4546.05,0.09208
4540.27,0.09186
4534.48,0.09014
4528.69,0.08971
4522.91,0.08780
4517.12,0.08641
4511.34,0.08359
4505.55,0.08077
4499.76,0.07773
4493.98,0.07434
4488.19,0.07180
4482.4,0.07073
4476.62,0.07028
4470.83,0.06858
4465.05,0.06675
4459.26,0.06533
4453.47,0.06553
4447.69,0.06648
4441.9,0.06529
4436.11,0.06540
4430.33,0.06560
4424.54,0.06535
4418.76,0.06558
4412.97,0.06646
4407.18,0.06647
4401.4,0.06624
4395.61,0.06743
4389.82,0.06921
4384.04,0.06834
4378.25,0.06851
4372.47,0.06817
4366.68,0.06774
4360.89,0.06730
4355.11,0.06658
4349.32,0.06766
4343.53,0.06813
4337.75,0.06749
4331.96,0.06721
4326.18,0.06733
4320.39,0.06693
4314.6,0.06672
4308.82,0.06598
4303.03,0.06649
4297.24,0.06624
4291.46,0.06642
4285.67,0.06641
4279.89,0.06601
4274.1,0.06636
4268.31,0.06671
4262.53,0.06643
4256.74,0.06739
4250.95,0.06662
4245.17,0.06641
4239.38,0.06669
4233.6,0.06669
4227.81,0.06638
4222.02,0.06638
4216.24,0.06715
4210.45,0.06761
4204.66,0.06733
4198.88,0.06700
4193.09,0.06729
4187.31,0.06678
4181.52,0.06692
4175.73,0.06661
4169.95,0.06733
4164.16,0.06729
4158.37,0.06797
4152.59,0.06827
4146.8,0.06775
4141.02,0.06752
4135.23,0.06795
4129.44,0.06677
4123.66,0.06685
4117.87,0.06633
4112.09,0.06553
4106.3,0.06552
4100.51,0.06460
4094.73,0.06416
4088.94,0.06379
4083.15,0.06417
4077.37,0.06470
4071.58,0.06500
4065.8,0.06497
4060.01,0.06638
4054.22,0.06684
4048.44,0.06682
4042.65,0.06744
4036.86,0.06697
4031.08,0.06802
4025.29,0.06791
4019.51,0.06818
4013.72,0.06857
4007.93,0.06839
4002.15,0.06807
3996.36,0.06802
3990.57,0.06813
3984.79,0.06869
3979,0.06882
3973.22,0.06846
3967.43,0.06891
3961.64,0.06914
3955.86,0.06936
3950.07,0.06972
3944.28,0.06997
3938.5,0.07007
3932.71,0.06957
3926.93,0.06957
3921.14,0.06991
3915.35,0.06922
3909.57,0.07004
3903.78,0.07022
3897.99,0.07060
3892.21,0.07099
3886.42,0.07117
3880.64,0.07183
3874.85,0.07157
3869.06,0.07189
3863.28,0.07185
3857.49,0.07260
3851.7,0.07288
3845.92,0.07240
3840.13,0.07263
3834.35,0.07212
3828.56,0.07258
3822.77,0.07251
3816.99,0.07159
3811.2,0.07001
3805.41,0.07041
3799.63,0.07058
3793.84,0.07156
3788.06,0.07169
3782.27,0.07188
3776.48,0.07100
3770.7,0.07018
3764.91,0.06944
3759.12,0.06898
3753.34,0.06958
3747.55,0.07091
3741.77,0.07135
3735.98,0.07107
3730.19,0.07018
3724.41,0.07055
3718.62,0.07161
3712.83,0.07159
3707.05,0.06980
3701.26,0.06863
3695.48,0.06689
3689.69,0.06548
3683.9,0.06428
3678.12,0.06509
3672.33,0.06441
3666.54,0.06385
3660.76,0.06388
3654.97,0.06349
3649.19,0.06301
3643.4,0.06263
3637.61,0.06275
3631.83,0.06347
3626.04,0.06312
3620.25,0.06347
3614.47,0.06367
3608.68,0.06374
3602.9,0.06389
3597.11,0.06346
3591.32,0.06347
3585.54,0.06366
3579.75,0.06331
3573.97,0.06328
3568.18,0.06319
3562.39,0.06328
3556.61,0.06270
3550.82,0.06268
3545.03,0.06334
3539.25,0.06283
3533.46,0.06290
3527.68,0.06319
3521.89,0.06292
3516.1,0.06341
3510.32,0.06347
3504.53,0.06324
3498.74,0.06307
3492.96,0.06317
3487.17,0.06281
3481.39,0.06329
3475.6,0.06309
3469.81,0.06297
3464.03,0.06305
3458.24,0.06162
3452.45,0.06130
3446.67,0.06172
3440.88,0.06162
3435.1,0.06168
3429.31,0.06240
3423.52,0.06191
3417.74,0.06173
3411.95,0.06275
3406.16,0.06272
3400.38,0.06401
3394.59,0.06329
3388.81,0.06313
3383.02,0.06411
3377.23,0.06431
3371.45,0.06397
3365.66,0.06374
3359.87,0.06403
3354.09,0.06274
3348.3,0.06341
3342.52,0.06294
3336.73,0.06242
3330.94,0.06273
3325.16,0.06340
3319.37,0.06317
3313.58,0.06315
3307.8,0.06314
3302.01,0.06350
3296.23,0.06308
3290.44,0.06297
3284.65,0.06354
3278.87,0.06351
3273.08,0.06345
3267.29,0.06334
3261.51,0.06369
3255.72,0.06313
3249.94,0.06388
3244.15,0.06327
3238.36,0.06294
3232.58,0.06372
3226.79,0.06332
3221,0.06328
3215.22,0.06364
3209.43,0.06313
3203.65,0.06253
3197.86,0.06303
3192.07,0.06228
3186.29,0.06276
3180.5,0.06287
3174.71,0.06320
3168.93,0.06288
3163.14,0.06320
3157.36,0.06268
3151.57,0.06206
3145.78,0.06175
3140,0.06220
3134.21,0.06204
3128.42,0.06152
3122.64,0.06180
3116.85,0.06161
3111.07,0.06159
3105.28,0.06128
3099.49,0.06078
3093.71,0.06102
3087.92,0.06102
3082.14,0.06072
3076.35,0.06112
3070.56,0.06129
3064.78,0.06115
3058.99,0.06113
3053.2,0.06116
3047.42,0.06138
3041.63,0.06130
3035.85,0.06131
3030.06,0.06074
3024.27,0.06090
3018.49,0.06038
3012.7,0.06005
3006.91,0.06003
3001.13,0.05996
2995.34,0.06052
2989.56,0.06007
2983.77,0.06040
2977.98,0.06015
2972.2,0.06118
2966.41,0.06102
2960.62,0.06160
2954.84,0.06209
2949.05,0.06234
2943.27,0.06232
2937.48,0.06280
2931.69,0.06413
2925.91,0.06554
2920.12,0.06548
2914.33,0.06518
2908.55,0.06409
2902.76,0.06388
2896.98,0.06348
2891.19,0.06291
2885.4,0.06265
2879.62,0.06246
2873.83,0.06302
2868.04,0.06257
2862.26,0.06308
2856.47,0.06406
2850.69,0.06487
2844.9,0.06437
2839.11,0.06337
2833.33,0.06316
2827.54,0.06364
2821.75,0.06325
2815.97,0.06245
2810.18,0.06272
2804.4,0.06284
2798.61,0.06312
2792.82,0.06300
2787.04,0.06319
2781.25,0.06273
2775.46,0.06318
2769.68,0.06287
2763.89,0.06293
2758.11,0.06312
2752.32,0.06281
2746.53,0.06305
2740.75,0.06290
2734.96,0.06310
2729.17,0.06290
2723.39,0.06317
2717.6,0.06380
2711.82,0.06346
2706.03,0.06354
2700.24,0.06374
2694.46,0.06392
2688.67,0.06350
2682.88,0.06386
2677.1,0.06368
2671.31,0.06378
2665.53,0.06405
2659.74,0.06376
2653.95,0.06340
2648.17,0.06350
2642.38,0.06259
2636.59,0.06282
2630.81,0.06277
2625.02,0.06241
2619.24,0.06230
2613.45,0.06264
2607.66,0.06258
2601.88,0.06198
2596.09,0.06235
2590.3,0.06192
2584.52,0.06176
2578.73,0.06154
2572.95,0.06181
2567.16,0.06150
2561.37,0.06159
2555.59,0.06137
2549.8,0.06148
2544.02,0.06139
2538.23,0.06192
2532.44,0.06140
2526.66,0.06201
2520.87,0.06169
2515.08,0.06147
2509.3,0.06154
2503.51,0.06169
2497.73,0.06182
2491.94,0.06194
2486.15,0.06233
2480.37,0.06227
2474.58,0.06219
2468.79,0.06207
2463.01,0.06227
2457.22,0.06193
2451.44,0.06187
2445.65,0.06184
2439.86,0.06152
2434.08,0.06125
2428.29,0.06127
2422.5,0.06087
2416.72,0.06117
2410.93,0.06115
2405.15,0.06072
2399.36,0.06081
2393.57,0.06059
2387.79,0.06042
2382,0.06093
2376.21,0.06081
2370.43,0.06071
2364.64,0.06050
2358.86,0.06069
2353.07,0.06048
2347.28,0.06089
2341.5,0.06075
2335.71,0.06106
2329.92,0.06085
2324.14,0.06079
2318.35,0.06063
2312.57,0.06076
2306.78,0.06021
2300.99,0.06048
2295.21,0.05999
2289.42,0.06015
2283.63,0.05995
2277.85,0.06016
2272.06,0.05981
2266.28,0.05991
2260.49,0.06024
2254.7,0.05983
2248.92,0.06011
2243.13,0.05985
2237.34,0.06004
2231.56,0.06021
2225.77,0.06039
2219.99,0.05971
2214.2,0.05997
2208.41,0.06038
2202.63,0.05994
2196.84,0.06018
2191.05,0.05999
2185.27,0.05984
2179.48,0.06000
2173.7,0.05978
2167.91,0.05949
2162.12,0.05919
2156.34,0.05924
2150.55,0.05933
2144.76,0.05876
2138.98,0.05940
2133.19,0.05900
2127.41,0.05844
2121.62,0.05895
2115.83,0.05880
2110.05,0.05859
2104.26,0.05866
2098.47,0.05847
2092.69,0.05807
2086.9,0.05804
2081.12,0.05836
2075.33,0.05829
2069.54,0.05820
2063.76,0.05833
2057.97,0.05827
2052.19,0.05810
2046.4,0.05826
2040.61,0.05823
2034.83,0.05862
2029.04,0.05832
2023.25,0.05806
2017.47,0.05744
2011.68,0.05730
2005.9,0.05724
2000.11,0.05728
1994.32,0.05701
1988.54,0.05671
1982.75,0.05652
1976.96,0.05653
1971.18,0.05658
1965.39,0.05644
1959.61,0.05640
1953.82,0.05637
1948.03,0.05637
1942.25,0.05608
1936.46,0.05590
1930.67,0.05612
1924.89,0.05627
1919.1,0.05591
1913.32,0.05584
1907.53,0.05533
1901.74,0.05545
1895.96,0.05516
1890.17,0.05474
1884.38,0.05470
1878.6,0.05425
1872.81,0.05415
1867.03,0.05378
1861.24,0.05334
1855.45,0.05310
1849.67,0.05272
1843.88,0.05215
1838.09,0.05189
1832.31,0.05157
1826.52,0.05069
1820.74,0.04999
1814.95,0.04987
1809.16,0.04937
1803.38,0.04897
1797.59,0.04805
1791.8,0.04711
1786.02,0.04588
1780.23,0.04458
1774.45,0.04309
1768.66,0.04108
1762.87,0.03867
1757.09,0.03523
1751.3,0.03106
1745.51,0.02522
1739.73,0.02639
1733.94,0.04465
1728.16,0.07668
1722.37,0.11033
1716.58,0.13130
1710.8,0.11729
1705.01,0.09792
1699.22,0.08623
1693.44,0.07916
1687.65,0.07493
1681.87,0.07302
1676.08,0.07153
1670.29,0.06975
1664.51,0.06882
1658.72,0.06726
1652.93,0.06619
1647.15,0.06525
1641.36,0.06456
1635.58,0.06333
1629.79,0.06318
1624,0.06231
1618.22,0.06153
1612.43,0.06164
1606.64,0.06094
1600.86,0.06082
1595.07,0.05964
1589.29,0.05907
1583.5,0.05809
1577.71,0.05876
1571.93,0.05925
1566.14,0.05846
1560.35,0.05854
1554.57,0.05723
1548.78,0.05672
1543,0.05652
1537.21,0.05560
1531.42,0.05501
1525.64,0.05501
1519.85,0.05410
1514.07,0.05315
1508.28,0.05233
1502.49,0.05566
1496.71,0.05483
1490.92,0.05353
1485.13,0.05266
1479.35,0.05126
1473.56,0.05120
1467.78,0.05098
1461.99,0.05027
1456.2,0.05072
1450.42,0.05082
1444.63,0.05069
1438.84,0.05094
1433.06,0.05009
1427.27,0.04829
1421.49,0.04502
1415.7,0.04107
1409.91,0.04814
1404.13,0.05464
1398.34,0.05251
1392.55,0.05014
1386.77,0.04871
1380.98,0.04741
1375.2,0.04603
1369.41,0.04642
1363.62,0.04652
1357.84,0.04329
1352.05,0.04034
1346.26,0.03934
1340.48,0.04944
1334.69,0.04814
1328.91,0.04096
1323.12,0.03525
1317.33,0.03132
1311.55,0.02757
1305.76,0.02475
1299.97,0.02431
1294.19,0.03185
1288.4,0.04497
1282.62,0.05975
1276.83,0.07891
1271.04,0.10409
1265.26,0.13036
1259.47,0.14381
1253.68,0.15205
1247.9,0.16043
1242.11,0.15644
1236.33,0.14123
1230.54,0.12232
1224.75,0.10827
1218.97,0.09880
1213.18,0.09217
1207.39,0.08656
1201.61,0.08191
1195.82,0.07728
1190.04,0.07354
1184.25,0.06990
1178.46,0.06699
1172.68,0.06531
1166.89,0.06272
1161.1,0.05881
1155.32,0.05431
1149.53,0.04882
1143.75,0.04508
1137.96,0.04633
1132.17,0.05989
1126.39,0.08110
1120.6,0.09244
1114.81,0.09188
1109.03,0.09173
1103.24,0.10217
1097.46,0.11737
1091.67,0.12066
1085.88,0.11660
1080.1,0.10994
1074.31,0.10210
1068.52,0.09579
1062.74,0.08988
1056.95,0.08529
1051.17,0.08215
1045.38,0.08102
1039.59,0.08075
1033.81,0.07908
1028.02,0.07558
1022.24,0.08292
1016.45,0.09833
1010.66,0.09576
1004.88,0.08861
999.09,0.08465
993.304,0.08211
987.518,0.08128
981.731,0.07933
975.945,0.07827
970.159,0.08008
964.373,0.08025
958.586,0.07891
952.8,0.07787
947.014,0.07693
941.228,0.07514
935.441,0.07482
929.655,0.07316
923.869,0.07214
918.083,0.07048
912.297,0.06999
906.51,0.06823
900.724,0.06860
894.938,0.06922
889.152,0.06849
883.365,0.06603
877.579,0.06654
871.793,0.07247
866.007,0.07483
860.22,0.07339
854.434,0.07229
848.648,0.07272
842.862,0.07358
837.075,0.07254
831.289,0.07195
825.503,0.07248
819.717,0.07152
813.931,0.07043
808.144,0.07011
802.358,0.06999
796.572,0.06919
790.786,0.06955
784.999,0.06997
779.213,0.06823
773.427,0.06671
767.641,0.06571
761.854,0.06351
756.068,0.06087
750.282,0.05552
744.496,0.04806
738.709,0.03574
732.923,0.05295
727.137,0.11787
721.351,0.12733
715.565,0.10002
709.778,0.09030
703.992,0.08655
698.206,0.08417
692.42,0.08213
686.633,0.08004
680.847,0.07903
675.061,0.07761
669.275,0.07746
663.488,0.07761
657.702,0.07504
651.916,0.07553
646.13,0.07328
640.343,0.07358
634.557,0.07033
628.771,0.07222
622.985,0.07202
617.198,0.07135
611.412,0.07071
605.626,0.07214
599.84,0.06954