File: 01_Data/PET/FTIR/IS/PET_IS_S_220831_R8.dpt
7497.03,0.51492
7491.25,0.50921
7485.46,0.50958
7479.67,0.50704
7473.89,0.49827
7468.1,0.48905
7462.32,0.49164
7456.53,0.47610
7450.74,0.47384
7444.96,0.46332
7439.17,0.45439
7433.38,0.44144
7427.6,0.43493
7421.81,0.42369
7416.03,0.41720
7410.24,0.40375
7404.45,0.39940
7398.67,0.40007
7392.88,0.38595
7387.09,0.39113
7381.31,0.38034
7375.52,0.37942
7369.74,0.36798
7363.95,0.35741
7358.16,0.36149
7352.38,0.36749
7346.59,0.35857
7340.8,0.35239
7335.02,0.35130
7329.23,0.34823
7323.45,0.34649
7317.66,0.35191
7311.87,0.35418
7306.09,0.35130
7300.3,0.35247
7294.51,0.35117
7288.73,0.34576
7282.94,0.34498
7277.16,0.35284
7271.37,0.34486
7265.58,0.34346
7259.8,0.33978
7254.01,0.33636
7248.22,0.33703
7242.44,0.33656
7236.65,0.32983
7230.87,0.34020
7225.08,0.33815
7219.29,0.33439
7213.51,0.32043
7207.72,0.33037
7201.93,0.33057
7196.15,0.32573
7190.36,0.32302
7184.58,0.31835
7178.79,0.32494
7173,0.31933
7167.22,0.32165
7161.43,0.31778
7155.65,0.31285
7149.86,0.31275
7144.07,0.30399
7138.29,0.30571
7132.5,0.29680
7126.71,0.29299
7120.93,0.29178
7115.14,0.29279
7109.36,0.29601
7103.57,0.29567
7097.78,0.29119
7092,0.29047
7086.21,0.29223
7080.42,0.28800
7074.64,0.29158
7068.85,0.28876
7063.07,0.28734
7057.28,0.29030
7051.49,0.28694
7045.71,0.29159
7039.92,0.29408
7034.13,0.29560
7028.35,0.29365
7022.56,0.30156
7016.78,0.29934
7010.99,0.30445
7005.2,0.30710
6999.42,0.32094
6993.63,0.31533
6987.84,0.32290
6982.06,0.31908
6976.27,0.31980
6970.49,0.32764
6964.7,0.33118
6958.91,0.33423
6953.13,0.33399
6947.34,0.34400
6941.55,0.34190
6935.77,0.34883
6929.98,0.34730
6924.2,0.34699
6918.41,0.34594
6912.62,0.35128
6906.84,0.35771
6901.05,0.36008
6895.26,0.36536
6889.48,0.36922
6883.69,0.36444
6877.91,0.36526
6872.12,0.36924
6866.33,0.37128
6860.55,0.37010
6854.76,0.36780
6848.97,0.36626
6843.19,0.36545
6837.4,0.37002
6831.62,0.37426
6825.83,0.37679
6820.04,0.37340
6814.26,0.37945
6808.47,0.38971
6802.68,0.39000
6796.9,0.39415
6791.11,0.39561
6785.33,0.39402
6779.54,0.39196
6773.75,0.39662
6767.97,0.40197
6762.18,0.40342
6756.39,0.40776
6750.61,0.41097
6744.82,0.41830
6739.04,0.41862
6733.25,0.42275
6727.46,0.42820
6721.68,0.42975
6715.89,0.42747
6710.1,0.42594
6704.32,0.42711
6698.53,0.43155
6692.75,0.42583
6686.96,0.42845
6681.17,0.42853
6675.39,0.42804
6669.6,0.42921
6663.82,0.43068
6658.03,0.42855
6652.24,0.43001
6646.46,0.43520
6640.67,0.43654
6634.88,0.43754
6629.1,0.43828
6623.31,0.44219
6617.53,0.44694
6611.74,0.44337
6605.95,0.44811
6600.17,0.45161
6594.38,0.45200
6588.59,0.45294
6582.81,0.45248
6577.02,0.45344
6571.24,0.45393
6565.45,0.45312
6559.66,0.45646
6553.88,0.44980
6548.09,0.45346
6542.3,0.44341
6536.52,0.44560
6530.73,0.44759
6524.95,0.44388
6519.16,0.44531
6513.37,0.44472
6507.59,0.44330
6501.8,0.44549
6496.01,0.44589
6490.23,0.44530
6484.44,0.44778
6478.66,0.44514
6472.87,0.44411
6467.08,0.44725
6461.3,0.44215
6455.51,0.43933
6449.72,0.43714
6443.94,0.43798
6438.15,0.43453
6432.37,0.43631
6426.58,0.43332
6420.79,0.43544
6415.01,0.43410
6409.22,0.43432
6403.43,0.43468
6397.65,0.43884
6391.86,0.43699
6386.08,0.43951
6380.29,0.43312
6374.5,0.43409
6368.72,0.43461
6362.93,0.43154
6357.14,0.42711
6351.36,0.42623
6345.57,0.42513
6339.79,0.41315
6334,0.41096
6328.21,0.40725
6322.43,0.41120
6316.64,0.40701
6310.85,0.40715
6305.07,0.40388
6299.28,0.40425
6293.5,0.40296
6287.71,0.40031
6281.92,0.39904
6276.14,0.38949
6270.35,0.38727
6264.56,0.37972
6258.78,0.37588
6252.99,0.37069
6247.21,0.36614
6241.42,0.35871
6235.63,0.35375
6229.85,0.34934
6224.06,0.34295
6218.27,0.33344
6212.49,0.31468
6206.7,0.29132
6200.92,0.27302
6195.13,0.26119
6189.34,0.26034
6183.56,0.26106
6177.77,0.26679
6171.98,0.26956
6166.2,0.26426
6160.41,0.25631
6154.63,0.24158
6148.84,0.22635
6143.05,0.22329
6137.27,0.21880
6131.48,0.21567
6125.7,0.21440
6119.91,0.20755
6114.12,0.19254
6108.34,0.17673
6102.55,0.16127
6096.76,0.14294
6090.98,0.13306
6085.19,0.12578
6079.41,0.11907
6073.62,0.11311
6067.83,0.10555
6062.05,0.09564
6056.26,0.09329
6050.47,0.09001
6044.69,0.08987
6038.9,0.08452
6033.12,0.08148
6027.33,0.07506
6021.54,0.08198
6015.76,0.07943
6009.97,0.08141
6004.18,0.08464
5998.4,0.08785
5992.61,0.09281
5986.83,0.09302
5981.04,0.09310
5975.25,0.09661
5969.47,0.09753
5963.68,0.10190
5957.89,0.10494
5952.11,0.10601
5946.32,0.10441
5940.54,0.10219
5934.75,0.10970
5928.96,0.11258
5923.18,0.12089
5917.39,0.12587
5911.6,0.13513
5905.82,0.13836
5900.03,0.13911
5894.25,0.13362
5888.46,0.13118
5882.67,0.12537
5876.89,0.12351
5871.1,0.12345
5865.31,0.11826
5859.53,0.11681
5853.74,0.11803
5847.96,0.12228
5842.17,0.12368
5836.38,0.12479
5830.6,0.12454
5824.81,0.12284
5819.02,0.11848
5813.24,0.11706
5807.45,0.11985
5801.67,0.12066
5795.88,0.12318
5790.09,0.12241
5784.31,0.12302
5778.52,0.12366
5772.73,0.12408
5766.95,0.12681
5761.16,0.13108
5755.38,0.13439
5749.59,0.13713
5743.8,0.14169
5738.02,0.14339
5732.23,0.14941
5726.44,0.15174
5720.66,0.15315
5714.87,0.15506
5709.09,0.15342
5703.3,0.15181
5697.51,0.15477
5691.73,0.15692
5685.94,0.15864
5680.15,0.16164
5674.37,0.16299
5668.58,0.16184
5662.8,0.16205
5657.01,0.15960
5651.22,0.16048
5645.44,0.16392
5639.65,0.16767
5633.87,0.17190
5628.08,0.17447
5622.29,0.17619
5616.51,0.17827
5610.72,0.17891
5604.93,0.17893
5599.15,0.17821
5593.36,0.17619
5587.58,0.17399
5581.79,0.17155
5576,0.16654
5570.22,0.16579
5564.43,0.16466
5558.64,0.16397
5552.86,0.16513
5547.07,0.16412
5541.29,0.16443
5535.5,0.16434
5529.71,0.16547
5523.93,0.16517
5518.14,0.16678
5512.35,0.16857
5506.57,0.16869
5500.78,0.16753
5495,0.16651
5489.21,0.16545
5483.42,0.16304
5477.64,0.16336
5471.85,0.16403
5466.06,0.16431
5460.28,0.16712
5454.49,0.16925
5448.71,0.17385
5442.92,0.17889
5437.13,0.18187
5431.35,0.18540
5425.56,0.18807
5419.77,0.18746
5413.99,0.18750
5408.2,0.18666
5402.42,0.18492
5396.63,0.18422
5390.84,0.18507
5385.06,0.18437
5379.27,0.18253
5373.48,0.18305
5367.7,0.18086
5361.91,0.17946
5356.13,0.17766
5350.34,0.17593
5344.55,0.17593
5338.77,0.17693
5332.98,0.17866
5327.19,0.17921
5321.41,0.17707
5315.62,0.17766
5309.84,0.17580
5304.05,0.17228
5298.26,0.16593
5292.48,0.16039
5286.69,0.15192
5280.9,0.14238
5275.12,0.13477
5269.33,0.12639
5263.55,0.12077
5257.76,0.11589
5251.97,0.11448
5246.19,0.11380
5240.4,0.11410
5234.61,0.11708
5228.83,0.11982
5223.04,0.12287
5217.26,0.12702
5211.47,0.13243
5205.68,0.13620
5199.9,0.14186
5194.11,0.14594
5188.32,0.14719
5182.54,0.14933
5176.75,0.14853
5170.97,0.15058
5165.18,0.14833
5159.39,0.14775
5153.61,0.14553
5147.82,0.14252
5142.03,0.13778
5136.25,0.13245
5130.46,0.12949
5124.68,0.12368
5118.89,0.12140
5113.1,0.12342
5107.32,0.13108
5101.53,0.13708
5095.75,0.14336
5089.96,0.14950
5084.17,0.15448
5078.39,0.15842
5072.6,0.16216
5066.81,0.16418
5061.03,0.16722
5055.24,0.16660
5049.46,0.16838
5043.67,0.16779
5037.88,0.16800
5032.1,0.16759
5026.31,0.16650
5020.52,0.16617
5014.74,0.16488
5008.95,0.16347
5003.17,0.16422
4997.38,0.16621
4991.59,0.16784
4985.81,0.16960
4980.02,0.17165
4974.23,0.17117
4968.45,0.16823
4962.66,0.16718
4956.88,0.16592
4951.09,0.16124
4945.3,0.15981
4939.52,0.15913
4933.73,0.15756
4927.94,0.15728
4922.16,0.15508
4916.37,0.15323
4910.59,0.15168
4904.8,0.15011
4899.01,0.14898
4893.23,0.14690
4887.44,0.14526
4881.65,0.14457
4875.87,0.14375
4870.08,0.14193
4864.3,0.14092
4858.51,0.13991
4852.72,0.13892
4846.94,0.13485
4841.15,0.12948
4835.36,0.12430
4829.58,0.11852
4823.79,0.11308
4818.01,0.11014
4812.22,0.10807
4806.43,0.10458
4800.65,0.10346
4794.86,0.10293
4789.07,0.10349
4783.29,0.10557
4777.5,0.10744
4771.72,0.10939
4765.93,0.10913
4760.14,0.10747
4754.36,0.10224
4748.57,0.09727
4742.78,0.09236
4737,0.08874
4731.21,0.08421
4725.43,0.08040
4719.64,0.07807
4713.85,0.07675
4708.07,0.07612
4702.28,0.07432
4696.49,0.07050
4690.71,0.06946
4684.92,0.07070
4679.14,0.07279
4673.35,0.07612
4667.56,0.07917
4661.78,0.07955
4655.99,0.08043
4650.2,0.07828
4644.42,0.07558
4638.63,0.07342
4632.85,0.07261
4627.06,0.07499
4621.27,0.07958
4615.49,0.08449
4609.7,0.08655
4603.92,0.08694
4598.13,0.08509
4592.34,0.08167
4586.56,0.07990
4580.77,0.07793
4574.98,0.07826
4569.2,0.08369
4563.41,0.08890
4557.63,0.09171
4551.84,0.09084
4546.05,0.09092
4540.27,0.09133
4534.48,0.09115
4528.69,0.09000
4522.91,0.08794
4517.12,0.08604
4511.34,0.08361
4505.55,0.08098
4499.76,0.07654
4493.98,0.07302
4488.19,0.07121
4482.4,0.06939
4476.62,0.06953
4470.83,0.06904
4465.05,0.06682
4459.26,0.06596
4453.47,0.06525
4447.69,0.06553
4441.9,0.06547
4436.11,0.06581
4430.33,0.06456
4424.54,0.06493
4418.76,0.06535
4412.97,0.06659
4407.18,0.06630
4401.4,0.06648
4395.61,0.06673
4389.82,0.06710
4384.04,0.06798
4378.25,0.06750
4372.47,0.06712
4366.68,0.06812
4360.89,0.06695
4355.11,0.06691
4349.32,0.06727
4343.53,0.06708
4337.75,0.06706
4331.96,0.06734
4326.18,0.06756
4320.39,0.06674
4314.6,0.06667
4308.82,0.06656
4303.03,0.06586
4297.24,0.06580
4291.46,0.06557
4285.67,0.06521
4279.89,0.06533
4274.1,0.06651
4268.31,0.06642
4262.53,0.06636
4256.74,0.06558
4250.95,0.06604
4245.17,0.06598
4239.38,0.06573
4233.6,0.06666
4227.81,0.06661
4222.02,0.06622
4216.24,0.06694
4210.45,0.06697
4204.66,0.06746
4198.88,0.06743
4193.09,0.06752
4187.31,0.06664
4181.52,0.06693
4175.73,0.06673
4169.95,0.06671
4164.16,0.06727
4158.37,0.06759
4152.59,0.06814
4146.8,0.06749
4141.02,0.06714
4135.23,0.06727
4129.44,0.06645
4123.66,0.06670
4117.87,0.06598
4112.09,0.06525
4106.3,0.06539
4100.51,0.06444
4094.73,0.06441
4088.94,0.06442
4083.15,0.06431
4077.37,0.06459
4071.58,0.06569
4065.8,0.06523
4060.01,0.06612
4054.22,0.06647
4048.44,0.06646
4042.65,0.06720
4036.86,0.06736
4031.08,0.06714
4025.29,0.06788
4019.51,0.06821
4013.72,0.06793
4007.93,0.06802
4002.15,0.06828
3996.36,0.06784
3990.57,0.06806
3984.79,0.06820
3979,0.06781
3973.22,0.06870
3967.43,0.06766
3961.64,0.06860
3955.86,0.06890
3950.07,0.06962
3944.28,0.07011
3938.5,0.07024
3932.71,0.06929
3926.93,0.06960
3921.14,0.06967
3915.35,0.06968
3909.57,0.06986
3903.78,0.07027
3897.99,0.07113
3892.21,0.07120
3886.42,0.07185
3880.64,0.07218
3874.85,0.07173
3869.06,0.07177
3863.28,0.07183
3857.49,0.07201
3851.7,0.07233
3845.92,0.07255
3840.13,0.07205
3834.35,0.07254
3828.56,0.07249
3822.77,0.07271
3816.99,0.07144
3811.2,0.07094
3805.41,0.07007
3799.63,0.07066
3793.84,0.07096
3788.06,0.07176
3782.27,0.07072
3776.48,0.07067
3770.7,0.07065
3764.91,0.07007
3759.12,0.06891
3753.34,0.06960
3747.55,0.07040
3741.77,0.07185
3735.98,0.07070
3730.19,0.06975
3724.41,0.07041
3718.62,0.07068
3712.83,0.07005
3707.05,0.06920
3701.26,0.06796
3695.48,0.06642
3689.69,0.06559
3683.9,0.06441
3678.12,0.06442
3672.33,0.06442
3666.54,0.06380
3660.76,0.06372
3654.97,0.06262
3649.19,0.06325
3643.4,0.06335
3637.61,0.06317
3631.83,0.06298
3626.04,0.06342
3620.25,0.06304
3614.47,0.06345
3608.68,0.06340
3602.9,0.06322
3597.11,0.06374
3591.32,0.06341
3585.54,0.06281
3579.75,0.06313
3573.97,0.06273
3568.18,0.06309
3562.39,0.06254
3556.61,0.06246
3550.82,0.06243
3545.03,0.06229
3539.25,0.06252
3533.46,0.06219
3527.68,0.06290
3521.89,0.06273
3516.1,0.06323
3510.32,0.06273
3504.53,0.06289
3498.74,0.06339
3492.96,0.06329
3487.17,0.06336
3481.39,0.06351
3475.6,0.06303
3469.81,0.06235
3464.03,0.06262
3458.24,0.06240
3452.45,0.06235
3446.67,0.06209
3440.88,0.06110
3435.1,0.06157
3429.31,0.06140
3423.52,0.06125
3417.74,0.06227
3411.95,0.06253
3406.16,0.06321
3400.38,0.06333
3394.59,0.06378
3388.81,0.06371
3383.02,0.06348
3377.23,0.06355
3371.45,0.06325
3365.66,0.06311
3359.87,0.06295
3354.09,0.06371
3348.3,0.06293
3342.52,0.06299
3336.73,0.06277
3330.94,0.06250
3325.16,0.06274
3319.37,0.06351
3313.58,0.06293
3307.8,0.06283
3302.01,0.06274
3296.23,0.06272
3290.44,0.06304
3284.65,0.06331
3278.87,0.06285
3273.08,0.06299
3267.29,0.06344
3261.51,0.06326
3255.72,0.06326
3249.94,0.06266
3244.15,0.06329
3238.36,0.06314
3232.58,0.06294
3226.79,0.06203
3221,0.06232
3215.22,0.06306
3209.43,0.06353
3203.65,0.06257
3197.86,0.06269
3192.07,0.06255
3186.29,0.06227
3180.5,0.06283
3174.71,0.06258
3168.93,0.06222
3163.14,0.06229
3157.36,0.06224
3151.57,0.06259
3145.78,0.06169
3140,0.06164
3134.21,0.06132
3128.42,0.06182
3122.64,0.06150
3116.85,0.06156
3111.07,0.06179
3105.28,0.06145
3099.49,0.06111
3093.71,0.06148
3087.92,0.06161
3082.14,0.06073
3076.35,0.06081
3070.56,0.06086
3064.78,0.06052
3058.99,0.06065
3053.2,0.06079
3047.42,0.06116
3041.63,0.06137
3035.85,0.06077
3030.06,0.06103
3024.27,0.06105
3018.49,0.06074
3012.7,0.06047
3006.91,0.06050
3001.13,0.06031
2995.34,0.05970
2989.56,0.06036
2983.77,0.06020
2977.98,0.05974
2972.2,0.06037
2966.41,0.06063
2960.62,0.06086
2954.84,0.06201
2949.05,0.06154
2943.27,0.06255
2937.48,0.06285
2931.69,0.06354
2925.91,0.06471
2920.12,0.06572
2914.33,0.06485
2908.55,0.06408
2902.76,0.06367
2896.98,0.06327
2891.19,0.06299
2885.4,0.06223
2879.62,0.06207
2873.83,0.06253
2868.04,0.06246
2862.26,0.06289
2856.47,0.06418
2850.69,0.06497
2844.9,0.06423
2839.11,0.06288
2833.33,0.06301
2827.54,0.06302
2821.75,0.06340
2815.97,0.06290
2810.18,0.06285
2804.4,0.06247
2798.61,0.06256
2792.82,0.06243
2787.04,0.06268
2781.25,0.06232
2775.46,0.06272
2769.68,0.06277
2763.89,0.06249
2758.11,0.06257
2752.32,0.06282
2746.53,0.06223
2740.75,0.06248
2734.96,0.06268
2729.17,0.06281
2723.39,0.06330
2717.6,0.06321
2711.82,0.06318
2706.03,0.06334
2700.24,0.06341
2694.46,0.06351
2688.67,0.06378
2682.88,0.06366
2677.1,0.06354
2671.31,0.06361
2665.53,0.06335
2659.74,0.06322
2653.95,0.06321
2648.17,0.06310
2642.38,0.06292
2636.59,0.06250
2630.81,0.06219
2625.02,0.06211
2619.24,0.06229
2613.45,0.06229
2607.66,0.06203
2601.88,0.06187
2596.09,0.06187
2590.3,0.06166
2584.52,0.06137
2578.73,0.06146
2572.95,0.06124
2567.16,0.06206
2561.37,0.06147
2555.59,0.06119
2549.8,0.06127
2544.02,0.06120
2538.23,0.06147
2532.44,0.06125
2526.66,0.06163
2520.87,0.06143
2515.08,0.06098
2509.3,0.06100
2503.51,0.06142
2497.73,0.06132
2491.94,0.06147
2486.15,0.06154
2480.37,0.06208
2474.58,0.06202
2468.79,0.06201
2463.01,0.06214
2457.22,0.06217
2451.44,0.06203
2445.65,0.06233
2439.86,0.06194
2434.08,0.06152
2428.29,0.06107
2422.5,0.06099
2416.72,0.06052
2410.93,0.06073
2405.15,0.06053
2399.36,0.06038
2393.57,0.06079
2387.79,0.06055
2382,0.06030
2376.21,0.05998
2370.43,0.06009
2364.64,0.06028
2358.86,0.06035
2353.07,0.06099
2347.28,0.06037
2341.5,0.06102
2335.71,0.06071
2329.92,0.06022
2324.14,0.06052
2318.35,0.06044
2312.57,0.06049
2306.78,0.06079
2300.99,0.06028
2295.21,0.05975
2289.42,0.05969
2283.63,0.05978
2277.85,0.05965
2272.06,0.05972
2266.28,0.05966
2260.49,0.05990
2254.7,0.05941
2248.92,0.05986
2243.13,0.05994
2237.34,0.06000
2231.56,0.05956
2225.77,0.06013
2219.99,0.05961
2214.2,0.05960
2208.41,0.05984
2202.63,0.05943
2196.84,0.05997
2191.05,0.05977
2185.27,0.05959
2179.48,0.05929
2173.7,0.05922
2167.91,0.05928
2162.12,0.05908
2156.34,0.05876
2150.55,0.05871
2144.76,0.05882
2138.98,0.05852
2133.19,0.05848
2127.41,0.05850
2121.62,0.05850
2115.83,0.05811
2110.05,0.05821
2104.26,0.05801
2098.47,0.05821
2092.69,0.05830
2086.9,0.05848
2081.12,0.05809
2075.33,0.05858
2069.54,0.05838
2063.76,0.05826
2057.97,0.05845
2052.19,0.05830
2046.4,0.05799
2040.61,0.05825
2034.83,0.05791
2029.04,0.05771
2023.25,0.05751
2017.47,0.05715
2011.68,0.05692
2005.9,0.05726
2000.11,0.05716
1994.32,0.05669
1988.54,0.05666
1982.75,0.05664
1976.96,0.05638
1971.18,0.05637
1965.39,0.05639
1959.61,0.05596
1953.82,0.05617
1948.03,0.05609
1942.25,0.05597
1936.46,0.05620
1930.67,0.05578
1924.89,0.05552
1919.1,0.05585
1913.32,0.05572
1907.53,0.05533
1901.74,0.05484
1895.96,0.05484
1890.17,0.05447
1884.38,0.05454
1878.6,0.05400
1872.81,0.05381
1867.03,0.05349
1861.24,0.05312
1855.45,0.05297
1849.67,0.05194
1843.88,0.05177
1838.09,0.05179
1832.31,0.05135
1826.52,0.05090
1820.74,0.05058
1814.95,0.04973
1809.16,0.04920
1803.38,0.04868
1797.59,0.04754
1791.8,0.04693
1786.02,0.04586
1780.23,0.04446
1774.45,0.04313
1768.66,0.04120
1762.87,0.03866
1757.09,0.03545
1751.3,0.03076
1745.51,0.02510
1739.73,0.02624
1733.94,0.04454
1728.16,0.07655
1722.37,0.10966
1716.58,0.13081
1710.8,0.11642
1705.01,0.09740
1699.22,0.08625
1693.44,0.07861
1687.65,0.07498
1681.87,0.07234
1676.08,0.07074
1670.29,0.06946
1664.51,0.06831
1658.72,0.06691
1652.93,0.06612
1647.15,0.06495
1641.36,0.06458
1635.58,0.06351
1629.79,0.06291
1624,0.06188
1618.22,0.06111
1612.43,0.06137
1606.64,0.06080
1600.86,0.06024
1595.07,0.05964
1589.29,0.05869
1583.5,0.05744
1577.71,0.05859
1571.93,0.05890
1566.14,0.05833
1560.35,0.05797
1554.57,0.05726
1548.78,0.05644
1543,0.05643
1537.21,0.05559
1531.42,0.05528
1525.64,0.05478
1519.85,0.05381
1514.07,0.05313
1508.28,0.05226
1502.49,0.05510
1496.71,0.05446
1490.92,0.05318
1485.13,0.05215
1479.35,0.05142
1473.56,0.05081
1467.78,0.05100
1461.99,0.05029
1456.2,0.05046
1450.42,0.05046
1444.63,0.05068
1438.84,0.05041
1433.06,0.04982
1427.27,0.04785
1421.49,0.04510
1415.7,0.04126
1409.91,0.04838
1404.13,0.05492
1398.34,0.05240
1392.55,0.04984
1386.77,0.04843
1380.98,0.04691
1375.2,0.04570
1369.41,0.04611
1363.62,0.04589
1357.84,0.04319
1352.05,0.04041
1346.26,0.03943
1340.48,0.04926
1334.69,0.04837
1328.91,0.04051
1323.12,0.03520
1317.33,0.03141
1311.55,0.02726
1305.76,0.02464
1299.97,0.02375
1294.19,0.03141
1288.4,0.04491
1282.62,0.05955
1276.83,0.07861
1271.04,0.10384
1265.26,0.12987
1259.47,0.14300
1253.68,0.15075
1247.9,0.15988
1242.11,0.15492
1236.33,0.14040
1230.54,0.12193
1224.75,0.10772
1218.97,0.09910
1213.18,0.09186
1207.39,0.08634
1201.61,0.08150
1195.82,0.07753
1190.04,0.07345
1184.25,0.06940
1178.46,0.06704
1172.68,0.06462
1166.89,0.06256
1161.1,0.05859
1155.32,0.05385
1149.53,0.04916
1143.75,0.04445
1137.96,0.04570
1132.17,0.06021
1126.39,0.08124
1120.6,0.09222
1114.81,0.09195
1109.03,0.09120
1103.24,0.10223
1097.46,0.11773
1091.67,0.12046
1085.88,0.11582
1080.1,0.10990
1074.31,0.10228
1068.52,0.09481
1062.74,0.09022
1056.95,0.08496
1051.17,0.08116
1045.38,0.08045
1039.59,0.08033
1033.81,0.07954
1028.02,0.07638
1022.24,0.08254
1016.45,0.09827
1010.66,0.09514
1004.88,0.08824
999.09,0.08493
993.304,0.08244
987.518,0.07963
981.731,0.07844
975.945,0.07839
970.159,0.07992
964.373,0.07982
958.586,0.07899
952.8,0.07779
947.014,0.07637
941.228,0.07522
935.441,0.07365
929.655,0.07248
923.869,0.07230
918.083,0.07111
912.297,0.06918
906.51,0.06875
900.724,0.06914
894.938,0.06875
889.152,0.06785
883.365,0.06632
877.579,0.06616
871.793,0.07209
866.007,0.07438
860.22,0.07225
854.434,0.07220
848.648,0.07327
842.862,0.07275
837.075,0.07308
831.289,0.07301
825.503,0.07242
819.717,0.07077
813.931,0.07016
808.144,0.07012
802.358,0.06988
796.572,0.06835
790.786,0.06996
784.999,0.06927
779.213,0.06840
773.427,0.06691
767.641,0.06498
761.854,0.06280
756.068,0.06074
750.282,0.05649
744.496,0.04863
738.709,0.03695
732.923,0.05367
727.137,0.11687
721.351,0.12628
715.565,0.10062
709.778,0.09016
703.992,0.08667
698.206,0.08387
692.42,0.08220
686.633,0.08029
680.847,0.07885
675.061,0.07811
669.275,0.07761
663.488,0.07674
657.702,0.07586
651.916,0.07464
646.13,0.07363
640.343,0.07356
634.557,0.07222
628.771,0.07312
622.985,0.07093
617.198,0.07289
611.412,0.07078
605.626,0.07152
599.84,0.06936