File: 01_Data/PC/Cone/PC_HRRPUA_50.csv
Time after Ignition,PC_R1,PC_R2,PC_R3,Mean,Std. Dev.
0.0,7.3,2.2,20.2,9.9,9.2
0.5,15.0,5.2,26.0,15.4,10.5
1.0,25.0,8.0,34.6,22.5,13.5
1.5,33.6,10.9,44.2,29.6,17.0
2.0,46.9,13.8,54.7,38.5,21.7
2.5,60.2,16.9,65.4,47.5,26.6
3.0,68.4,20.2,75.7,54.8,30.2
3.5,77.6,23.9,85.4,62.3,33.5
4.0,81.4,29.6,92.9,68.0,33.7
4.5,87.9,36.4,100.6,74.9,34.0
5.0,92.4,42.9,106.9,80.7,33.6
5.5,96.9,55.2,111.3,87.8,29.1
6.0,102.1,63.3,117.2,94.2,27.8
6.5,104.0,81.9,121.5,102.5,19.9
7.0,105.5,91.9,124.8,107.4,16.5
7.5,109.2,104.0,133.4,115.5,15.7
8.0,114.8,107.7,137.2,119.9,15.4
8.5,118.8,124.5,147.2,130.1,15.1
9.0,119.7,128.6,155.9,134.7,18.8
9.5,127.9,140.1,164.8,144.3,18.8
10.0,132.7,153.4,179.9,155.4,23.7
10.5,143.8,174.4,189.3,169.1,23.2
11.0,149.2,182.9,197.6,176.6,24.8
11.5,159.3,201.1,210.2,190.2,27.2
12.0,170.7,219.3,220.3,203.4,28.3
12.5,183.2,234.8,230.0,216.0,28.5
13.0,195.4,257.2,243.7,232.1,32.5
13.5,209.1,277.4,254.7,247.1,34.8
14.0,219.3,291.3,276.4,262.3,38.0
14.5,227.6,310.9,277.8,272.1,41.9
15.0,238.7,324.0,298.0,286.9,43.7
15.5,243.2,341.7,311.7,298.9,50.5
16.0,255.4,357.6,333.7,315.5,53.5
16.5,265.4,366.4,350.1,327.3,54.2
17.0,270.4,378.7,356.1,335.1,57.1
17.5,278.5,395.1,374.3,349.3,62.2
18.0,283.6,401.0,380.2,354.9,62.6
18.5,299.4,425.8,390.0,371.7,65.1
19.0,308.6,434.2,395.8,379.5,64.4
19.5,308.8,446.6,410.5,388.6,71.4
20.0,324.7,449.0,415.6,396.4,64.3
20.5,326.7,454.7,419.7,400.4,66.2
21.0,341.7,463.4,435.2,413.4,63.7
21.5,347.9,469.0,452.0,422.9,65.5
22.0,372.3,485.8,454.6,437.6,58.7
22.5,369.8,487.3,471.3,442.8,63.7
23.0,383.1,484.6,460.1,442.6,52.9
23.5,383.7,500.2,479.8,454.6,62.2
24.0,389.0,489.1,483.8,454.0,56.3
24.5,401.7,488.6,478.4,456.2,47.5
25.0,414.1,501.2,502.8,472.7,50.8
25.5,420.3,508.7,508.4,479.1,51.0
26.0,425.4,499.1,488.8,471.1,39.9
26.5,406.1,503.6,505.6,471.8,56.9
27.0,426.3,510.7,521.2,486.1,52.0
27.5,445.9,507.0,514.7,489.2,37.7
28.0,427.3,509.4,495.6,477.4,44.0
28.5,453.8,512.0,519.8,495.2,36.1
29.0,433.0,505.7,514.9,484.5,44.9
29.5,447.8,522.5,502.8,491.0,38.7
30.0,452.9,507.2,505.8,488.6,30.9
30.5,436.7,516.4,501.7,484.9,42.4
31.0,446.4,514.2,504.1,488.2,36.6
31.5,430.9,516.9,494.0,480.6,44.5
32.0,453.4,503.7,505.0,487.4,29.4
32.5,448.0,501.7,498.4,482.7,30.1
33.0,448.8,492.3,494.0,478.3,25.6
33.5,435.3,494.7,486.0,472.0,32.1
34.0,441.9,509.8,472.4,474.7,34.0
34.5,444.9,488.7,485.5,473.0,24.4
35.0,444.6,501.5,479.1,475.1,28.7
35.5,436.2,490.7,489.5,472.1,31.1
36.0,449.5,489.3,477.7,472.2,20.5
36.5,458.7,492.7,481.8,477.7,17.3
37.0,445.8,489.7,483.8,473.1,23.8
37.5,450.2,483.0,481.9,471.7,18.7
38.0,447.4,473.6,472.8,464.6,14.9
38.5,450.1,480.1,492.6,474.3,21.8
39.0,454.2,477.6,485.9,472.6,16.5
39.5,467.9,472.3,486.9,475.7,10.0
40.0,469.2,465.2,480.8,471.7,8.1
40.5,461.9,462.0,487.2,470.4,14.6
41.0,465.0,456.4,480.0,467.1,12.0
41.5,479.0,458.7,485.6,474.4,14.0
42.0,471.5,447.3,483.7,467.5,18.6
42.5,478.9,440.0,494.3,471.1,28.0
43.0,483.2,437.0,503.4,474.5,34.1
43.5,488.4,433.0,504.4,475.2,37.5
44.0,478.3,428.1,499.8,468.7,36.8
44.5,491.5,433.0,490.3,471.6,33.5
45.0,486.2,427.7,492.0,468.6,35.6
45.5,487.0,430.1,508.3,475.1,40.4
46.0,494.8,423.0,498.9,472.2,42.7
46.5,493.4,429.4,499.6,474.1,38.9
47.0,484.3,418.7,503.0,468.7,44.3
47.5,488.4,417.5,492.2,466.0,42.1
48.0,495.5,412.4,501.2,469.7,49.7
48.5,492.8,417.4,485.5,465.2,41.6
49.0,500.3,417.4,487.5,468.4,44.6
49.5,497.9,414.0,491.4,467.8,46.7
50.0,499.2,413.8,484.0,465.7,45.6
50.5,493.1,404.7,484.8,460.9,48.8
51.0,489.5,407.3,488.2,461.7,47.1
51.5,499.9,397.3,473.1,456.8,53.2
52.0,489.8,403.7,475.5,456.3,46.2
52.5,487.2,403.1,477.8,456.0,46.1
53.0,480.2,413.2,460.1,451.1,34.4
53.5,489.7,399.5,474.8,454.7,48.3
54.0,488.8,410.4,471.4,456.9,41.1
54.5,487.5,409.5,460.7,452.6,39.7
55.0,484.4,408.8,465.2,452.8,39.3
55.5,485.0,403.3,470.4,452.9,43.6
56.0,479.6,401.4,466.8,449.3,42.0
56.5,479.9,402.7,469.0,450.5,41.8
57.0,482.6,398.5,470.7,450.6,45.5
57.5,479.5,408.7,468.8,452.3,38.2
58.0,476.9,405.6,473.8,452.1,40.3
58.5,479.2,402.4,469.7,450.5,41.9
59.0,477.3,402.0,458.3,445.9,39.1
59.5,492.6,405.5,457.3,451.8,43.8
60.0,474.0,405.9,465.1,448.3,37.0
60.5,473.0,404.2,461.6,446.3,36.9
61.0,468.3,403.8,454.6,442.2,34.0
61.5,475.7,401.3,456.4,444.5,38.6
62.0,465.5,400.0,459.2,441.6,36.1
62.5,464.1,405.9,449.3,439.8,30.2
63.0,465.6,401.9,452.7,440.0,33.7
63.5,450.5,395.3,447.1,431.0,30.9
64.0,453.1,390.7,438.8,427.5,32.7
64.5,442.6,396.7,455.4,431.6,30.9
65.0,453.6,397.1,449.4,433.3,31.5
65.5,447.7,400.5,439.9,429.4,25.3
66.0,443.7,404.5,440.3,429.5,21.7
66.5,439.7,394.7,443.3,425.9,27.1
67.0,458.3,389.3,438.2,428.6,35.5
67.5,450.8,399.0,439.2,429.6,27.2
68.0,442.7,395.8,435.7,424.8,25.3
68.5,456.5,400.5,433.5,430.2,28.2
69.0,447.9,392.0,432.1,424.0,28.8
69.5,447.5,395.0,429.1,423.9,26.7
70.0,445.7,404.9,429.2,426.6,20.5
70.5,445.6,406.5,424.1,425.4,19.6
71.0,451.2,400.3,439.7,430.4,26.7
71.5,444.0,405.1,420.0,423.1,19.6
72.0,440.6,399.6,428.6,423.0,21.1
72.5,445.8,390.5,425.8,420.7,28.0
73.0,445.7,392.2,428.8,422.2,27.4
73.5,452.1,393.4,416.8,420.7,29.5
74.0,456.5,385.7,416.8,419.7,35.4
74.5,451.6,385.2,416.0,417.6,33.2
75.0,442.5,386.7,420.4,416.5,28.1
75.5,444.6,383.0,419.1,415.6,30.9
76.0,441.9,383.0,413.8,412.9,29.5
76.5,432.8,372.1,415.4,406.8,31.2
77.0,425.9,379.0,427.1,410.7,27.5
77.5,431.3,373.5,423.5,409.4,31.3
78.0,431.0,373.8,419.0,407.9,30.2
78.5,422.6,365.9,429.2,405.9,34.8
79.0,423.8,364.8,443.4,410.7,40.9
79.5,420.5,362.0,434.1,405.5,38.3
80.0,413.7,370.8,426.7,403.7,29.3
80.5,414.7,362.9,438.1,405.2,38.5
81.0,413.6,361.5,439.9,405.0,39.9
81.5,404.0,357.6,441.9,401.2,42.3
82.0,397.7,360.7,445.5,401.3,42.5
82.5,396.3,355.5,448.1,400.0,46.4
83.0,391.2,357.1,444.6,397.6,44.1
83.5,394.9,354.5,447.6,399.0,46.7
84.0,391.2,354.3,455.4,400.3,51.2
84.5,386.6,354.2,453.0,397.9,50.4
85.0,392.4,352.7,440.0,395.0,43.7
85.5,386.9,351.3,452.2,396.8,51.2
86.0,389.1,353.0,446.0,396.0,46.9
86.5,386.3,354.4,440.8,393.8,43.7
87.0,393.7,345.1,447.4,395.4,51.2
87.5,387.1,350.2,435.9,391.1,43.0
88.0,388.3,343.5,429.8,387.2,43.1
88.5,392.7,342.3,434.8,389.9,46.3
89.0,387.3,340.4,421.4,383.0,40.7
89.5,382.6,342.2,414.7,379.8,36.3
90.0,383.2,348.7,413.4,381.8,32.4
90.5,384.7,345.2,404.8,378.2,30.3
91.0,374.5,346.6,401.6,374.2,27.5
91.5,384.7,345.5,395.7,375.3,26.4
92.0,379.3,342.0,393.0,371.4,26.4
92.5,393.0,344.8,383.1,373.6,25.5
93.0,383.3,337.9,384.8,368.7,26.7
93.5,380.4,346.9,378.1,368.5,18.7
94.0,379.7,343.5,379.4,367.5,20.8
94.5,377.8,345.3,366.1,363.1,16.4
95.0,377.3,341.1,363.3,360.5,18.2
95.5,375.6,349.2,359.3,361.3,13.3
96.0,380.7,348.5,357.9,362.4,16.6
96.5,383.5,336.0,354.7,358.0,23.9
97.0,381.2,345.9,353.8,360.3,18.6
97.5,378.4,350.2,349.3,359.3,16.5
98.0,384.9,341.1,346.1,357.4,24.0
98.5,383.6,351.2,337.3,357.4,23.8
99.0,379.5,348.1,337.1,354.9,22.0
99.5,374.7,358.5,324.7,352.6,25.5
100.0,381.3,351.6,325.7,352.9,27.8
100.5,378.4,353.6,318.5,350.2,30.1
101.0,384.6,350.0,317.6,350.7,33.5
101.5,373.4,361.2,315.9,350.2,30.3
102.0,375.6,361.6,312.0,349.7,33.4
102.5,376.2,372.2,309.4,352.6,37.5
103.0,374.8,367.1,305.2,349.0,38.2
103.5,366.2,370.8,303.8,346.9,37.4
104.0,367.8,374.8,304.1,348.9,38.9
104.5,362.0,375.0,298.5,345.1,40.9
105.0,359.1,374.1,297.7,343.6,40.5
105.5,360.2,386.4,297.4,348.0,45.7
106.0,352.3,387.8,294.8,345.0,46.9
106.5,350.6,383.0,295.6,343.1,44.2
107.0,349.0,392.0,296.1,345.7,48.0
107.5,347.6,394.2,292.3,344.7,51.0
108.0,349.1,394.9,296.4,346.8,49.3
108.5,343.1,396.3,289.1,342.8,53.6
109.0,347.4,388.3,290.6,342.1,49.1
109.5,343.2,394.0,289.3,342.2,52.4
110.0,340.9,391.8,286.9,339.9,52.4
110.5,334.8,389.3,285.2,336.4,52.1
111.0,338.4,390.8,278.9,336.0,56.0
111.5,342.1,390.0,276.4,336.2,57.0
112.0,333.8,393.9,279.5,335.8,57.2
112.5,337.4,388.8,278.4,334.9,55.2
113.0,337.1,385.0,270.9,331.0,57.3
113.5,338.4,383.7,270.3,330.8,57.1
114.0,349.4,385.5,277.3,337.4,55.1
114.5,340.7,378.4,275.2,331.5,52.3
115.0,346.2,392.5,273.0,337.2,60.3
115.5,341.8,392.0,266.5,333.4,63.2
116.0,340.2,386.1,272.4,332.9,57.2
116.5,341.5,391.0,270.8,334.4,60.5
117.0,342.3,385.4,275.7,334.5,55.2
117.5,342.8,381.6,271.6,332.0,55.8
118.0,344.2,386.0,271.1,333.8,58.2
118.5,341.2,385.7,267.5,331.5,59.7
119.0,348.3,379.6,265.2,331.1,59.1
119.5,347.8,378.6,264.8,330.4,58.9
120.0,348.7,376.3,259.9,328.3,60.8
120.5,352.7,377.9,257.6,329.4,63.4
121.0,351.6,371.6,266.3,329.8,55.9
121.5,348.5,365.8,257.7,324.0,58.0
122.0,357.3,367.5,262.1,329.0,58.1
122.5,356.0,367.1,255.1,326.1,61.7
123.0,346.4,365.3,255.7,322.5,58.6
123.5,349.4,367.1,256.0,324.2,59.7
124.0,345.5,364.2,253.2,321.0,59.4
124.5,352.0,365.6,254.5,324.0,60.6
125.0,352.0,369.6,251.9,324.5,63.5
125.5,350.1,357.6,255.5,321.1,56.9
126.0,348.5,351.7,251.2,317.1,57.1
126.5,350.0,347.3,253.2,316.8,55.1
127.0,355.2,351.3,248.4,318.3,60.6
127.5,354.7,350.3,254.7,319.9,56.5
128.0,357.8,346.5,250.2,318.2,59.1
128.5,355.0,347.9,251.2,318.0,58.0
129.0,349.8,343.6,248.7,314.0,56.6
129.5,347.2,343.7,250.2,313.7,55.0
130.0,350.1,345.8,248.7,314.9,57.3
130.5,343.4,344.2,245.2,311.0,56.9
131.0,343.7,341.3,250.5,311.9,53.1
131.5,340.3,332.6,252.0,308.3,48.9
132.0,329.9,334.0,252.2,305.3,46.1
132.5,335.4,331.4,247.9,304.9,49.4
133.0,326.4,330.3,250.5,302.4,45.0
133.5,330.0,326.7,246.9,301.2,47.1
134.0,329.9,326.3,244.8,300.3,48.1
134.5,325.8,329.8,251.6,302.4,44.1
135.0,319.5,324.7,243.3,295.8,45.6
135.5,325.8,323.3,243.2,297.4,47.0
136.0,322.3,321.5,244.6,296.1,44.7
136.5,319.8,318.0,242.5,293.4,44.1
137.0,325.0,313.0,242.3,293.5,44.7
137.5,315.7,315.1,247.4,292.7,39.3
138.0,316.4,316.1,243.1,291.9,42.3
138.5,315.1,311.4,243.0,289.8,40.6
139.0,311.2,310.6,242.0,288.0,39.8
139.5,309.0,310.9,242.8,287.6,38.8
140.0,311.3,306.8,241.1,286.4,39.3
140.5,308.1,314.1,243.4,288.5,39.2
141.0,307.0,309.2,239.8,285.3,39.5
141.5,307.3,309.1,237.6,284.7,40.8
142.0,300.0,306.9,238.5,281.8,37.6
142.5,301.7,303.0,242.3,282.3,34.7
143.0,302.0,304.6,242.1,282.9,35.3
143.5,306.0,303.5,241.1,283.5,36.7
144.0,303.3,305.9,243.3,284.2,35.4
144.5,298.5,300.6,246.7,281.9,30.5
145.0,298.6,300.7,241.8,280.4,33.4
145.5,302.8,296.6,242.3,280.6,33.3
146.0,296.9,298.3,245.3,280.2,30.2
146.5,298.1,293.2,241.1,277.5,31.6
147.0,298.8,297.2,241.1,279.0,32.9
147.5,295.8,293.2,238.2,275.7,32.5
148.0,297.3,291.5,238.9,275.9,32.2
148.5,292.8,294.5,232.3,273.2,35.4
149.0,293.0,290.0,233.8,272.2,33.3
149.5,289.6,291.2,235.6,272.1,31.7
150.0,290.6,286.4,234.8,270.6,31.1
150.5,287.9,284.5,235.1,269.2,29.6
151.0,287.5,289.2,234.5,270.4,31.1
151.5,284.2,281.5,230.6,265.4,30.2
152.0,286.2,279.0,229.1,264.8,31.1
152.5,283.7,279.2,231.9,264.9,28.7
153.0,286.8,283.3,231.0,267.1,31.3
153.5,281.0,268.2,229.4,259.5,26.9
154.0,282.2,267.6,232.7,260.8,25.4
154.5,279.6,267.9,233.3,260.3,24.1
155.0,283.2,262.9,233.7,259.9,24.9
155.5,275.3,264.4,228.4,256.0,24.5
156.0,272.8,266.3,233.1,257.4,21.3
156.5,282.2,264.8,225.4,257.5,29.1
157.0,274.5,263.7,229.5,255.9,23.5
157.5,270.1,260.1,227.8,252.7,22.1
158.0,269.6,257.8,227.3,251.6,21.9
158.5,266.1,255.6,227.8,249.9,19.8
159.0,264.6,250.6,226.0,247.1,19.5
159.5,262.0,254.3,227.7,248.0,18.0
160.0,262.2,254.2,223.3,246.6,20.5
160.5,260.0,252.7,229.1,247.3,16.2
161.0,263.5,254.6,222.5,246.9,21.6
161.5,258.9,255.5,218.9,244.4,22.2
162.0,264.9,253.3,224.7,247.6,20.7
162.5,261.0,250.5,221.5,244.3,20.5
163.0,256.6,252.0,219.2,242.6,20.4
163.5,258.0,250.4,220.1,242.8,20.0
164.0,254.3,250.7,218.3,241.1,19.8
164.5,256.3,247.6,220.6,241.5,18.7
165.0,256.2,249.7,217.8,241.3,20.6
165.5,257.5,250.6,218.1,242.1,21.0
166.0,254.4,247.0,216.9,239.4,19.8
166.5,257.5,248.1,217.7,241.1,20.8
167.0,255.9,247.3,217.1,240.1,20.4
167.5,251.9,249.0,215.4,238.8,20.3
168.0,254.8,247.3,214.6,238.9,21.4
168.5,250.3,250.9,213.8,238.3,21.2
169.0,249.8,248.5,212.7,237.0,21.0
169.5,253.8,245.5,206.6,235.3,25.2
170.0,248.1,246.4,210.8,235.1,21.1
170.5,252.5,247.7,214.4,238.2,20.7
171.0,251.1,249.6,209.5,236.7,23.6
171.5,249.0,247.6,205.3,234.0,24.9
172.0,250.0,249.8,206.4,235.4,25.1
172.5,248.2,257.5,205.6,237.1,27.7
173.0,250.2,252.4,207.1,236.6,25.6
173.5,247.4,257.3,203.0,235.9,28.9
174.0,246.4,253.8,203.8,234.7,27.0
174.5,244.5,256.4,204.7,235.2,27.1
175.0,248.0,257.0,204.8,236.6,27.9
175.5,244.3,261.5,205.2,237.0,28.8
176.0,247.9,264.9,203.6,238.8,31.6
176.5,249.4,263.0,203.0,238.5,31.5
177.0,251.5,259.9,206.2,239.2,28.9
177.5,243.6,259.7,204.5,236.0,28.4
178.0,246.9,259.5,203.9,236.8,29.2
178.5,243.3,262.4,206.2,237.3,28.5
179.0,247.1,258.3,203.3,236.3,29.1
179.5,247.4,262.5,205.7,238.5,29.4
180.0,246.9,256.3,209.5,237.6,24.8
180.5,248.0,254.5,207.4,236.6,25.5
181.0,245.8,256.7,207.6,236.7,25.8
181.5,245.0,254.6,211.1,236.9,22.8
182.0,245.1,250.2,210.6,235.3,21.5
182.5,245.5,248.1,208.0,233.9,22.4
183.0,243.6,245.0,212.6,233.8,18.3
183.5,241.6,246.6,217.3,235.2,15.7
184.0,245.6,243.4,212.0,233.7,18.8
184.5,238.3,240.2,212.7,230.4,15.3
185.0,240.6,238.5,214.9,231.3,14.2
185.5,241.8,237.4,214.4,231.2,14.7
186.0,233.9,234.1,218.5,228.9,8.9
186.5,235.9,243.0,215.9,231.6,14.0
187.0,231.6,234.0,216.3,227.3,9.6
187.5,234.8,229.3,219.0,227.7,8.0
188.0,233.8,231.2,217.8,227.6,8.6
188.5,237.6,231.8,216.9,228.7,10.7
189.0,229.7,229.1,220.8,226.6,5.0
189.5,231.2,228.0,219.4,226.2,6.1
190.0,231.7,229.9,215.9,225.8,8.6
190.5,226.2,222.9,219.8,222.9,3.2
191.0,232.3,229.9,220.7,227.6,6.1
191.5,229.0,223.7,221.8,224.9,3.7
192.0,230.2,225.7,216.0,224.0,7.3
192.5,224.4,226.1,221.1,223.9,2.5
193.0,219.8,223.3,220.7,221.3,1.8
193.5,225.7,224.6,220.5,223.6,2.7
194.0,223.4,221.7,220.3,221.8,1.5
194.5,222.7,221.5,220.7,221.6,1.0
195.0,219.9,221.0,221.5,220.8,0.8
195.5,219.3,224.0,222.3,221.9,2.3
196.0,217.5,222.8,217.6,219.3,3.0
196.5,218.2,222.7,217.5,219.5,2.8
197.0,217.3,222.4,216.6,218.8,3.2
197.5,217.2,220.9,221.7,219.9,2.4
198.0,215.2,217.4,222.1,218.2,3.5
198.5,213.7,221.2,221.1,218.6,4.3
199.0,215.1,217.1,219.8,217.3,2.4
199.5,215.0,220.1,222.3,219.1,3.7
200.0,212.4,214.6,220.9,216.0,4.4
200.5,212.9,212.3,218.4,214.6,3.4
201.0,212.6,211.9,221.0,215.2,5.1
201.5,211.6,206.2,220.6,212.8,7.3
202.0,206.2,210.7,221.2,212.7,7.7
202.5,209.1,207.5,221.8,212.8,7.8
203.0,207.4,203.9,218.1,209.8,7.4
203.5,207.2,205.2,218.2,210.2,7.0
204.0,201.8,202.2,214.1,206.1,7.0
204.5,206.9,204.8,216.5,209.4,6.3
205.0,204.8,202.3,212.5,206.5,5.3
205.5,202.1,201.1,214.9,206.1,7.7
206.0,204.4,198.4,217.1,206.6,9.5
206.5,200.7,200.7,218.3,206.5,10.2
207.0,200.2,200.0,213.4,204.5,7.7
207.5,202.4,198.4,214.9,205.2,8.6
208.0,199.6,198.4,215.0,204.3,9.2
208.5,199.6,192.4,212.4,201.5,10.1
209.0,199.6,191.3,214.1,201.7,11.5
209.5,194.8,195.7,217.7,202.7,13.0
210.0,193.4,195.2,216.9,201.8,13.1
210.5,192.4,195.9,214.6,200.9,12.0
211.0,194.0,195.8,215.4,201.7,11.9
211.5,197.3,193.5,211.4,200.8,9.4
212.0,193.6,192.5,208.2,198.1,8.8
212.5,195.8,191.3,209.7,198.9,9.6
213.0,192.6,193.7,209.8,198.7,9.7
213.5,194.1,190.3,212.1,198.8,11.7
214.0,188.9,191.7,207.4,196.0,10.0
214.5,192.3,184.8,211.1,196.1,13.6
215.0,190.7,185.7,206.4,194.3,10.8
215.5,187.4,188.3,207.9,194.5,11.6
216.0,186.4,185.7,204.6,192.2,10.7
216.5,184.1,186.2,203.3,191.2,10.6
217.0,187.2,185.2,203.9,192.1,10.3
217.5,186.6,185.2,203.5,191.8,10.2
218.0,186.4,183.2,199.1,189.5,8.4
218.5,183.7,181.8,200.0,188.5,10.0
219.0,182.1,181.1,199.6,187.6,10.4
219.5,180.4,182.8,198.2,187.2,9.7
220.0,180.2,182.4,197.9,186.8,9.6
220.5,178.6,180.9,194.3,184.6,8.5
221.0,178.6,179.6,193.4,183.9,8.2
221.5,174.3,177.8,190.5,180.9,8.6
222.0,176.3,175.2,190.9,180.8,8.7
222.5,175.4,173.5,191.8,180.2,10.1
223.0,173.3,172.7,184.7,176.9,6.7
223.5,173.5,172.2,187.2,177.6,8.3
224.0,172.1,169.4,186.0,175.9,8.9
224.5,168.1,166.9,186.7,173.9,11.1
225.0,170.4,166.8,180.8,172.7,7.3
225.5,170.5,169.2,184.2,174.6,8.3
226.0,167.5,166.3,183.8,172.5,9.8
226.5,169.2,163.5,180.6,171.1,8.7
227.0,168.7,168.1,182.7,173.2,8.2
227.5,164.1,165.2,179.0,169.4,8.3
228.0,168.1,163.9,177.6,169.9,7.0
228.5,165.6,164.7,179.1,169.8,8.1
229.0,164.5,162.6,175.3,167.5,6.9
229.5,166.6,162.6,174.2,167.8,5.9
230.0,164.0,162.6,176.5,167.7,7.7
230.5,163.2,163.1,174.2,166.8,6.4
231.0,161.5,160.9,172.9,165.1,6.7
231.5,159.2,160.5,170.4,163.4,6.1
232.0,161.6,160.9,170.2,164.2,5.2
232.5,156.1,157.7,175.4,163.1,10.7
233.0,160.4,156.4,173.4,163.4,8.9
233.5,157.5,157.4,170.9,161.9,7.8
234.0,158.0,156.0,173.5,162.5,9.6
234.5,153.6,154.2,171.5,159.8,10.2
235.0,156.5,153.9,169.2,159.9,8.2
235.5,153.9,150.9,171.3,158.7,11.0
236.0,152.0,152.9,169.1,158.0,9.6
236.5,151.7,151.6,165.8,156.4,8.2
237.0,152.1,152.0,163.9,156.0,6.8
237.5,148.7,149.1,163.9,153.9,8.7
238.0,149.3,148.2,164.2,153.9,8.9
238.5,147.9,148.8,163.5,153.4,8.8
239.0,147.3,151.4,160.0,152.9,6.5
239.5,149.6,148.9,160.8,153.1,6.7
240.0,146.2,150.1,161.3,152.6,7.8
240.5,146.5,148.1,159.5,151.4,7.1
241.0,145.7,148.0,157.4,150.4,6.2
241.5,143.7,146.0,158.3,149.4,7.8
242.0,143.9,146.5,156.5,148.9,6.6
242.5,144.1,147.1,155.0,148.8,5.6
243.0,142.1,144.6,157.7,148.1,8.3
243.5,142.3,144.5,156.1,147.6,7.4
244.0,143.2,145.9,156.9,148.7,7.3
244.5,145.4,146.3,157.0,149.5,6.4
245.0,142.1,142.7,156.1,146.9,7.9
245.5,141.1,144.0,152.9,146.0,6.1
246.0,139.9,142.3,154.7,145.6,8.0
246.5,139.4,141.4,153.3,144.7,7.6
247.0,141.9,139.8,150.8,144.2,5.9
247.5,138.9,139.6,155.3,144.6,9.2
248.0,140.3,138.3,152.9,143.8,7.9
248.5,139.4,138.0,153.5,143.6,8.6
249.0,138.5,138.3,153.6,143.5,8.8
249.5,138.3,137.9,151.6,142.6,7.8
250.0,137.1,137.1,154.2,142.8,9.9
250.5,135.2,136.5,152.1,141.3,9.4
251.0,137.0,136.0,150.2,141.1,7.9
251.5,136.8,134.6,150.2,140.5,8.4
252.0,136.1,131.7,152.6,140.2,11.0
252.5,135.8,133.7,148.9,139.4,8.2
253.0,138.2,132.5,149.0,139.9,8.4
253.5,134.2,131.6,148.1,138.0,8.9
254.0,135.0,131.1,151.2,139.1,10.6
254.5,132.7,128.4,147.5,136.2,10.0
255.0,132.9,128.0,149.8,136.9,11.4
255.5,134.2,127.6,151.8,137.9,12.5
256.0,134.2,127.0,150.1,137.1,11.8
256.5,132.9,126.7,151.3,137.0,12.8
257.0,134.6,125.2,149.0,136.3,12.0
257.5,134.3,124.2,149.8,136.1,12.8
258.0,133.3,124.2,148.2,135.2,12.1
258.5,132.8,124.6,149.1,135.5,12.5
259.0,133.2,123.4,146.1,134.2,11.3
259.5,134.6,124.8,146.6,135.3,10.9
260.0,134.0,122.7,143.8,133.5,10.6
260.5,129.6,120.0,144.4,131.3,12.3
261.0,134.5,121.6,144.7,133.6,11.6
261.5,133.6,119.2,143.8,132.2,12.4
262.0,131.1,120.5,142.5,131.4,11.0
262.5,132.3,121.4,140.8,131.5,9.7
263.0,133.0,118.5,141.3,130.9,11.5
263.5,131.4,119.3,142.7,131.1,11.7
264.0,131.2,120.9,139.8,130.6,9.5
264.5,132.8,120.1,140.5,131.1,10.3
265.0,131.7,120.0,141.3,131.0,10.7
265.5,131.1,121.5,141.4,131.3,9.9
266.0,131.3,118.6,141.6,130.5,11.5
266.5,131.9,120.0,142.9,131.6,11.5
267.0,129.8,119.2,140.5,129.8,10.6
267.5,128.8,118.3,141.9,129.7,11.8
268.0,127.6,116.0,144.2,129.3,14.2
268.5,128.8,117.6,141.9,129.5,12.2
269.0,130.2,116.6,142.0,129.6,12.7
269.5,130.2,116.4,141.4,129.4,12.5
270.0,128.2,116.6,139.1,128.0,11.2
270.5,127.6,118.2,139.5,128.4,10.7
271.0,126.7,117.2,137.3,127.1,10.1
271.5,127.6,117.1,138.3,127.7,10.6
272.0,127.9,117.3,140.5,128.6,11.6
272.5,129.8,117.4,139.1,128.8,10.9
273.0,128.5,117.8,138.2,128.1,10.2
273.5,129.2,115.3,139.4,128.0,12.1
274.0,126.0,118.0,137.3,127.1,9.7
274.5,127.6,115.1,139.4,127.4,12.2
275.0,125.9,116.0,139.8,127.2,12.0
275.5,128.2,117.2,139.0,128.1,10.9
276.0,126.7,117.1,139.6,127.8,11.3
276.5,124.6,117.3,140.1,127.4,11.7
277.0,126.0,116.8,139.0,127.3,11.2
277.5,124.2,116.6,138.9,126.6,11.4
278.0,123.8,117.4,135.9,125.7,9.4
278.5,124.0,118.2,136.5,126.2,9.3
279.0,122.8,116.9,134.7,124.8,9.1
279.5,122.9,117.7,135.6,125.4,9.2
280.0,122.8,114.4,134.9,124.0,10.3
280.5,124.3,114.7,133.2,124.0,9.3
281.0,122.4,111.8,133.6,122.6,10.9
281.5,120.3,111.5,134.1,121.9,11.4
282.0,120.4,111.4,133.3,121.7,11.0
282.5,123.1,112.2,132.3,122.5,10.0
283.0,118.9,112.3,132.8,121.4,10.5
283.5,120.4,112.5,132.1,121.7,9.9
284.0,120.2,113.5,131.7,121.8,9.2
284.5,121.6,110.9,132.5,121.7,10.8
285.0,120.3,112.9,132.6,122.0,10.0
285.5,119.3,112.3,132.5,121.4,10.3
286.0,119.6,111.2,130.5,120.4,9.6
286.5,119.9,112.1,130.3,120.7,9.1
287.0,118.9,112.9,132.1,121.3,9.8
287.5,117.2,113.2,132.7,121.0,10.3
288.0,117.5,110.2,129.3,119.0,9.7
288.5,119.1,109.6,132.2,120.3,11.4
289.0,118.2,109.7,129.7,119.2,10.0
289.5,118.8,110.0,130.7,119.8,10.4
290.0,117.3,109.2,131.0,119.2,11.0
290.5,118.1,110.8,131.0,120.0,10.2
291.0,116.8,107.8,131.9,118.8,12.2
291.5,115.2,108.5,131.4,118.4,11.8
292.0,117.2,107.4,129.6,118.1,11.2
292.5,116.2,108.4,129.9,118.1,10.9
293.0,117.6,107.4,129.1,118.0,10.8
293.5,117.5,107.5,129.7,118.2,11.1
294.0,115.0,106.6,128.0,116.5,10.8
294.5,115.5,105.4,127.7,116.2,11.2
295.0,116.1,106.3,127.4,116.6,10.6
295.5,114.7,105.0,128.9,116.2,12.0
296.0,114.4,106.3,128.3,116.3,11.1
296.5,114.4,105.9,126.8,115.7,10.5
297.0,114.0,105.9,126.6,115.5,10.4
297.5,113.2,102.0,126.6,113.9,12.3
298.0,111.6,103.3,126.6,113.8,11.8
298.5,109.1,103.3,124.8,112.4,11.1
299.0,110.8,102.4,126.5,113.3,12.2
299.5,109.4,102.6,125.7,112.6,11.8
300.0,108.6,104.6,127.5,113.6,12.2
300.5,108.7,102.8,125.8,112.4,12.0
301.0,108.0,101.8,125.5,111.8,12.3
301.5,107.6,103.4,124.2,111.7,11.0
302.0,107.8,104.0,125.0,112.3,11.2
302.5,107.4,103.4,124.5,111.8,11.2
303.0,107.2,103.5,125.7,112.1,11.9
303.5,107.8,103.8,122.9,111.5,10.0
304.0,104.7,104.8,125.0,111.5,11.7
304.5,106.3,106.6,124.2,112.4,10.2
305.0,105.7,106.0,123.5,111.8,10.2
305.5,105.6,105.3,123.3,111.4,10.3
306.0,104.6,105.2,122.5,110.7,10.2
306.5,104.5,105.4,122.5,110.8,10.1
307.0,104.1,106.0,123.5,111.2,10.7
307.5,103.8,107.8,120.5,110.7,8.7
308.0,102.5,107.6,122.8,111.0,10.5
308.5,104.4,104.8,122.4,110.5,10.3
309.0,102.2,106.7,121.1,110.0,9.8
309.5,103.2,107.5,124.0,111.6,11.0
310.0,102.6,107.4,121.1,110.4,9.6
310.5,101.9,109.4,121.6,111.0,10.0
311.0,101.0,106.6,121.6,109.7,10.6
311.5,102.6,108.2,119.9,110.3,8.8
312.0,101.0,107.2,123.5,110.6,11.6
312.5,100.8,107.5,123.0,110.4,11.4
313.0,101.6,108.6,122.7,110.9,10.7
313.5,99.8,108.1,123.2,110.4,11.8
314.0,98.5,108.0,121.8,109.4,11.7
314.5,100.1,107.4,122.2,109.9,11.3
315.0,100.5,109.4,120.5,110.1,10.0
315.5,99.3,108.0,120.5,109.3,10.7
316.0,99.4,107.0,123.7,110.1,12.4
316.5,98.8,104.4,121.7,108.3,12.0
317.0,97.4,106.5,122.0,108.6,12.4
317.5,97.5,104.7,119.1,107.1,11.0
318.0,96.9,106.3,120.9,108.0,12.1
318.5,95.8,102.3,120.8,106.3,13.0
319.0,98.1,102.9,121.6,107.5,12.4
319.5,97.0,102.0,121.5,106.8,13.0
320.0,97.4,103.2,118.7,106.4,11.0
320.5,99.0,102.4,120.4,107.3,11.5
321.0,97.7,100.6,118.8,105.7,11.4
321.5,95.7,101.3,118.2,105.1,11.7
322.0,97.0,99.5,119.5,105.3,12.3
322.5,96.5,100.7,119.6,105.6,12.3
323.0,97.1,99.2,117.4,104.6,11.2
323.5,95.8,100.1,119.7,105.2,12.7
324.0,97.8,99.3,119.6,105.6,12.1
324.5,97.2,98.1,120.6,105.3,13.3
325.0,97.2,98.5,117.9,104.5,11.6
325.5,96.9,98.5,117.9,104.4,11.7
326.0,95.4,98.7,119.0,104.3,12.8
326.5,96.0,97.0,119.8,104.3,13.4
327.0,96.7,97.4,121.0,105.0,13.8
327.5,97.3,97.4,118.1,104.3,12.0
328.0,96.3,96.5,120.0,104.3,13.6
328.5,95.4,96.5,117.9,103.3,12.7
329.0,97.5,94.6,120.8,104.3,14.3
329.5,96.0,96.7,119.7,104.1,13.5
330.0,96.5,95.4,119.3,103.7,13.5
330.5,96.2,95.5,119.6,103.8,13.7
331.0,96.3,95.6,119.3,103.7,13.5
331.5,96.2,94.8,118.5,103.2,13.3
332.0,95.2,95.7,117.5,102.8,12.8
332.5,94.0,96.4,118.9,103.1,13.7
333.0,94.5,97.5,120.0,104.0,13.9
333.5,94.5,95.0,120.6,103.4,14.9
334.0,95.4,95.5,119.4,103.4,13.8
334.5,93.9,98.1,120.6,104.2,14.4
335.0,95.7,96.2,120.6,104.2,14.2
335.5,95.3,96.8,120.5,104.2,14.1
336.0,94.5,95.7,121.1,103.8,15.0
336.5,95.3,98.0,121.5,104.9,14.4
337.0,95.5,96.7,122.7,105.0,15.4
337.5,95.2,95.7,120.7,103.9,14.6
338.0,95.5,96.1,122.0,104.5,15.1
338.5,95.1,97.0,122.2,104.8,15.2
339.0,95.0,97.2,120.3,104.2,14.0
339.5,93.5,96.5,120.6,103.6,14.9
340.0,94.7,95.7,125.9,105.5,17.7
340.5,94.2,98.7,123.2,105.3,15.6
341.0,93.5,97.7,123.9,105.0,16.5
341.5,92.6,98.0,122.7,104.4,16.0
342.0,92.9,96.8,120.3,103.3,14.8
342.5,93.0,99.0,121.1,104.4,14.8
343.0,92.2,96.8,122.6,103.9,16.4
343.5,91.2,95.6,121.6,102.8,16.4
344.0,93.4,96.2,119.5,103.0,14.3
344.5,92.6,95.9,120.8,103.1,15.4
345.0,92.6,96.6,120.9,103.4,15.3
345.5,93.3,96.4,121.1,103.6,15.3
346.0,92.6,94.6,120.5,102.5,15.5
346.5,93.3,94.9,121.9,103.4,16.1
347.0,94.3,93.6,121.0,103.0,15.6
347.5,91.6,93.8,120.1,101.8,15.9
348.0,91.6,92.9,120.6,101.7,16.4
348.5,90.8,93.1,120.4,101.4,16.5
349.0,91.5,93.5,120.8,102.0,16.4
349.5,91.7,94.8,119.9,102.1,15.4
350.0,93.6,92.1,121.7,102.5,16.7
350.5,92.2,94.5,121.6,102.8,16.3
351.0,92.6,93.6,120.3,102.2,15.7
351.5,91.3,91.8,121.2,101.4,17.1
352.0,91.9,91.5,120.0,101.1,16.3
352.5,91.6,93.8,118.8,101.4,15.1
353.0,92.8,92.7,119.9,101.8,15.7
353.5,93.0,92.3,119.6,101.6,15.5
354.0,92.7,90.8,120.3,101.2,16.5
354.5,91.2,90.0,121.9,101.0,18.1
355.0,91.6,90.8,119.2,100.6,16.2
355.5,92.4,90.4,119.1,100.6,16.0
356.0,93.0,90.1,120.2,101.1,16.6
356.5,92.3,90.1,120.9,101.1,17.2
357.0,92.5,89.7,118.7,100.3,16.0
357.5,92.5,91.0,118.3,100.6,15.3
358.0,91.3,89.6,118.5,99.8,16.2
358.5,91.7,91.7,116.8,100.1,14.5
359.0,90.5,90.0,117.8,99.5,15.9
359.5,92.3,90.8,116.9,100.0,14.7
360.0,91.8,89.8,117.3,99.6,15.4
360.5,91.7,90.5,119.1,100.4,16.2
361.0,93.3,92.0,116.8,100.7,13.9
361.5,90.5,89.3,117.7,99.2,16.1
362.0,90.9,90.6,118.1,99.8,15.8
362.5,90.6,91.7,117.8,100.1,15.4
363.0,91.3,91.4,116.3,99.7,14.4
363.5,88.2,90.6,118.2,99.0,16.7
364.0,89.9,89.7,119.0,99.5,16.9
364.5,91.0,90.1,117.4,99.5,15.5
365.0,89.6,90.2,118.6,99.5,16.6
365.5,90.9,90.7,116.7,99.4,15.0
366.0,90.9,90.0,116.4,99.1,15.0
366.5,90.4,91.0,116.9,99.4,15.2
367.0,90.4,88.5,117.7,98.9,16.3
367.5,89.8,89.8,116.0,98.5,15.1
368.0,90.4,89.6,114.4,98.2,14.1
368.5,90.4,88.6,116.1,98.4,15.4
369.0,90.2,88.4,117.1,98.5,16.1
369.5,90.0,88.3,115.8,98.0,15.4
370.0,89.6,88.8,117.8,98.7,16.5
370.5,91.6,87.1,116.2,98.3,15.7
371.0,89.9,89.5,114.7,98.0,14.4
371.5,91.7,87.7,115.9,98.5,15.3
372.0,90.3,88.4,115.4,98.0,15.1
372.5,90.2,88.4,116.0,98.2,15.4
373.0,91.3,88.7,116.4,98.8,15.3
373.5,90.5,89.6,117.5,99.2,15.8
374.0,91.0,89.1,115.5,98.5,14.7
374.5,90.1,88.8,115.9,98.3,15.3
375.0,91.3,90.1,114.9,98.7,14.0
375.5,90.8,89.6,114.9,98.5,14.3
376.0,92.0,90.5,113.9,98.8,13.1
376.5,91.1,88.2,115.7,98.3,15.1
377.0,92.1,88.7,114.0,98.3,13.7
377.5,90.5,90.3,115.2,98.7,14.3
378.0,90.2,88.8,112.9,97.3,13.6
378.5,90.3,87.9,112.6,96.9,13.6
379.0,91.0,88.1,112.1,97.1,13.1
379.5,92.2,88.4,114.2,98.3,13.9
380.0,90.1,87.7,112.5,96.8,13.7
380.5,91.5,87.2,111.4,96.7,12.9
381.0,89.6,87.4,111.5,96.1,13.3
381.5,90.5,85.7,111.9,96.0,14.0
382.0,90.8,85.3,110.4,95.5,13.1
382.5,92.0,84.6,111.9,96.2,14.1
383.0,91.4,84.2,112.7,96.1,14.8
383.5,90.5,84.0,112.7,95.7,15.1
384.0,91.0,84.2,111.5,95.6,14.2
384.5,91.6,81.9,111.3,94.9,15.0
385.0,91.0,82.4,111.6,95.0,15.0
385.5,92.1,82.3,109.8,94.7,13.9
386.0,92.3,82.2,109.9,94.8,14.0
386.5,90.6,81.8,109.2,93.9,14.0
387.0,91.0,81.9,110.2,94.4,14.4
387.5,91.1,81.8,111.1,94.7,15.0
388.0,90.8,81.1,110.0,94.0,14.7
388.5,90.5,82.9,110.2,94.6,14.1
389.0,89.3,82.0,108.0,93.1,13.4
389.5,90.3,81.9,109.3,93.8,14.0
390.0,91.4,82.6,109.0,94.3,13.4
390.5,91.8,81.4,109.6,94.2,14.2
391.0,90.4,81.7,108.4,93.5,13.6
391.5,88.2,80.4,107.5,92.0,14.0
392.0,89.1,81.8,109.4,93.4,14.3
392.5,89.9,81.1,108.5,93.2,14.0
393.0,90.0,80.4,108.4,92.9,14.3
393.5,88.1,80.0,108.4,92.2,14.6
394.0,90.2,82.0,106.6,92.9,12.5
394.5,89.1,79.5,107.9,92.2,14.5
395.0,88.5,81.0,106.5,92.0,13.1
395.5,88.6,78.9,109.6,92.4,15.7
396.0,88.1,79.6,105.3,91.0,13.1
396.5,88.2,79.7,105.6,91.2,13.2
397.0,88.0,78.8,105.4,90.7,13.5
397.5,89.2,79.6,105.8,91.5,13.3
398.0,88.0,78.6,105.1,90.6,13.4
398.5,88.5,78.0,104.9,90.5,13.6
399.0,89.1,78.6,104.3,90.7,12.9
399.5,88.6,77.8,103.4,89.9,12.9
400.0,88.5,77.7,104.1,90.1,13.3
400.5,89.3,77.2,103.9,90.2,13.4
401.0,88.4,78.4,105.8,90.8,13.9
401.5,89.0,77.3,104.5,90.2,13.7
402.0,87.3,76.1,105.1,89.5,14.6
402.5,86.8,76.4,105.2,89.4,14.6
403.0,88.1,77.3,105.5,90.3,14.2
403.5,86.6,76.8,105.3,89.6,14.5
404.0,87.3,76.5,104.0,89.2,13.9
404.5,87.6,76.4,105.5,89.8,14.7
405.0,87.2,76.9,105.7,90.0,14.6
405.5,86.7,76.7,105.6,89.7,14.7
406.0,85.8,75.7,105.1,88.9,15.0
406.5,85.6,76.8,106.5,89.6,15.3
407.0,85.4,77.4,105.9,89.6,14.7
407.5,86.2,77.2,105.1,89.5,14.3
408.0,85.2,76.6,105.1,89.0,14.6
408.5,86.7,76.4,104.6,89.2,14.3
409.0,84.3,76.8,105.1,88.7,14.7
409.5,85.2,76.2,104.4,88.6,14.4
410.0,86.4,75.6,104.9,89.0,14.8
410.5,87.0,76.8,104.1,89.3,13.8
411.0,86.2,75.2,103.5,88.3,14.2
411.5,86.8,76.7,102.2,88.6,12.8
412.0,86.4,74.4,103.8,88.2,14.8
412.5,86.2,75.7,102.7,88.2,13.6
413.0,87.1,75.0,102.7,88.3,13.9
413.5,87.2,75.5,104.3,89.0,14.5
414.0,86.7,75.5,103.1,88.4,13.9
414.5,87.3,74.5,103.8,88.5,14.7
415.0,87.7,75.0,102.8,88.5,13.9
415.5,86.7,75.0,102.6,88.1,13.8
416.0,87.6,75.5,102.3,88.5,13.4
416.5,86.7,74.5,103.6,88.3,14.6
417.0,88.2,74.1,102.9,88.4,14.4
417.5,89.2,74.4,102.5,88.7,14.1
418.0,86.8,72.8,102.7,87.5,14.9
418.5,88.9,75.2,101.9,88.6,13.4
419.0,88.7,73.6,102.2,88.2,14.3
419.5,87.8,71.7,103.5,87.7,15.9
420.0,87.7,73.5,102.7,88.0,14.6
420.5,88.1,73.8,101.3,87.7,13.7
421.0,89.4,73.3,100.6,87.8,13.7
421.5,88.0,74.0,99.8,87.2,12.9
422.0,87.4,72.3,100.8,86.8,14.3
422.5,87.6,72.3,99.1,86.3,13.5
423.0,86.6,72.5,99.1,86.1,13.3
423.5,86.7,72.5,99.7,86.3,13.6
424.0,88.3,72.7,99.0,86.7,13.2
424.5,87.3,71.7,101.4,86.8,14.9
425.0,87.2,72.6,97.7,85.8,12.6
425.5,87.3,71.7,97.9,85.6,13.2
426.0,87.7,71.2,98.4,85.8,13.7
426.5,87.1,71.8,97.7,85.6,13.0
427.0,86.0,70.6,97.1,84.6,13.3
427.5,86.6,71.7,96.1,84.8,12.3
428.0,86.1,68.9,96.3,83.8,13.8
428.5,85.7,69.9,97.1,84.2,13.7
429.0,87.0,71.0,96.6,84.8,12.9
429.5,86.0,69.8,95.0,83.6,12.8
430.0,86.1,69.7,95.9,83.9,13.2
430.5,85.6,69.0,94.8,83.1,13.1
431.0,86.1,69.6,94.1,83.3,12.5
431.5,86.9,69.8,95.2,84.0,12.9
432.0,85.6,68.4,94.6,82.9,13.3
432.5,85.6,69.5,95.9,83.7,13.3
433.0,84.5,68.1,95.1,82.6,13.6
433.5,84.2,68.5,94.8,82.5,13.2
434.0,86.1,68.9,95.7,83.6,13.6
434.5,85.1,69.5,94.6,83.1,12.6
435.0,84.0,66.5,95.4,82.0,14.6
435.5,85.2,67.8,93.9,82.3,13.3
436.0,86.3,68.4,93.5,82.7,12.9
436.5,84.4,67.1,93.5,81.6,13.4
437.0,85.1,68.3,94.3,82.6,13.2
437.5,86.2,67.5,95.2,83.0,14.1
438.0,86.3,67.9,94.6,83.0,13.7
438.5,86.3,68.3,93.2,82.6,12.9
439.0,87.1,66.9,93.8,82.6,14.0
439.5,86.7,67.1,94.2,82.6,14.0
440.0,86.3,66.9,93.3,82.2,13.7
440.5,86.0,66.4,93.9,82.1,14.2
441.0,86.9,66.5,94.7,82.7,14.6
441.5,86.1,67.8,95.4,83.1,14.0
442.0,85.8,67.5,92.6,81.9,13.0
442.5,85.6,66.6,93.5,81.9,13.8
443.0,86.5,67.1,93.2,82.3,13.5
443.5,86.3,67.1,92.7,82.0,13.3
444.0,84.6,66.2,92.9,81.2,13.7
444.5,86.6,66.4,92.0,81.7,13.5
445.0,87.4,65.2,91.7,81.4,14.2
445.5,86.7,66.4,92.8,82.0,13.8
446.0,86.5,65.5,92.2,81.4,14.1
446.5,85.9,65.3,92.5,81.2,14.2
447.0,86.5,65.3,93.6,81.8,14.7
447.5,86.5,65.4,94.0,81.9,14.8
448.0,85.8,65.2,92.1,81.1,14.1
448.5,85.0,64.8,91.7,80.5,14.0
449.0,86.6,66.2,91.3,81.4,13.3
449.5,86.9,65.4,93.1,81.8,14.6
450.0,86.5,66.3,92.9,81.9,13.9
450.5,86.4,64.9,91.8,81.0,14.2
451.0,87.5,65.5,92.4,81.8,14.3
451.5,87.1,65.0,90.9,81.0,14.0
452.0,86.7,64.9,92.4,81.3,14.5
452.5,86.5,64.9,91.0,80.8,14.0
453.0,86.4,65.1,91.8,81.1,14.1
453.5,87.2,65.7,91.5,81.5,13.8
454.0,86.4,64.9,90.8,80.7,13.9
454.5,86.3,65.4,90.7,80.8,13.5
455.0,86.2,65.5,92.1,81.3,13.9
455.5,87.9,66.4,90.3,81.5,13.2
456.0,85.8,64.8,89.9,80.2,13.4
456.5,86.6,66.1,90.6,81.1,13.2
457.0,85.8,66.4,90.2,80.8,12.7
457.5,83.7,66.0,91.0,80.2,12.9
458.0,85.1,65.8,90.8,80.6,13.1
458.5,83.8,66.3,91.7,80.6,13.0
459.0,84.7,65.7,90.1,80.2,12.8
459.5,85.0,66.5,91.3,80.9,12.9
460.0,82.0,65.2,90.8,79.4,13.0
460.5,83.1,66.0,89.9,79.7,12.3
461.0,83.7,66.5,91.0,80.4,12.6
461.5,82.5,66.0,89.2,79.2,11.9
462.0,83.0,67.1,90.6,80.2,12.0
462.5,82.3,65.9,89.5,79.2,12.1
463.0,82.5,66.2,89.7,79.5,12.0
463.5,81.1,65.6,89.3,78.7,12.0
464.0,81.6,66.1,92.4,80.0,13.2
464.5,81.8,64.7,90.5,79.0,13.1
465.0,81.7,64.3,88.5,78.2,12.5
465.5,82.3,65.6,88.1,78.6,11.7
466.0,79.8,65.3,89.4,78.1,12.2
466.5,80.3,65.3,90.6,78.7,12.7
467.0,78.1,65.2,89.8,77.7,12.3
467.5,80.1,65.3,89.3,78.2,12.1
468.0,80.3,65.8,88.2,78.1,11.4
468.5,80.9,65.2,88.2,78.1,11.7
469.0,79.5,65.6,87.9,77.7,11.3
469.5,78.4,65.3,87.2,77.0,11.0
470.0,79.2,66.2,86.1,77.2,10.1
470.5,79.2,65.5,86.6,77.1,10.7
471.0,78.8,66.2,86.9,77.3,10.4
471.5,78.8,65.6,88.3,77.6,11.4
472.0,80.0,65.2,87.5,77.5,11.3
472.5,78.9,65.3,86.0,76.7,10.5
473.0,79.0,65.6,86.5,77.0,10.6
473.5,78.4,66.5,86.6,77.1,10.1
474.0,79.4,65.3,86.0,76.9,10.5
474.5,79.4,66.2,86.8,77.5,10.4
475.0,78.3,66.1,86.3,76.9,10.2
475.5,78.6,66.0,85.2,76.6,9.8
476.0,79.1,66.7,86.3,77.4,10.0
476.5,79.6,66.3,85.3,77.1,9.8
477.0,78.9,66.6,87.3,77.6,10.4
477.5,77.9,67.0,87.6,77.5,10.3
478.0,78.5,65.8,86.7,77.0,10.5
478.5,79.3,64.9,86.1,76.8,10.8
479.0,78.6,64.8,85.8,76.4,10.7
479.5,77.5,64.9,85.5,76.0,10.4
480.0,78.8,67.1,85.9,77.3,9.5
480.5,78.8,64.6,85.9,76.4,10.8
481.0,78.0,65.9,85.2,76.4,9.7
481.5,78.0,65.1,85.2,76.1,10.2
482.0,78.4,64.4,85.1,76.0,10.5
482.5,78.1,64.8,84.8,75.9,10.2
483.0,79.5,64.3,84.5,76.1,10.5
483.5,78.9,64.3,84.4,75.9,10.4
484.0,79.1,63.6,84.5,75.7,10.8
484.5,78.9,63.7,82.7,75.1,10.1
485.0,78.7,64.7,83.6,75.6,9.8
485.5,78.1,64.1,83.3,75.1,9.9
486.0,78.4,64.2,83.5,75.4,10.0
486.5,79.4,64.4,83.4,75.7,10.0
487.0,79.9,64.2,82.9,75.7,10.0
487.5,79.9,63.2,82.5,75.2,10.5
488.0,79.4,63.3,82.2,75.0,10.2
488.5,79.1,64.2,81.2,74.8,9.3
489.0,81.1,63.5,81.8,75.5,10.4
489.5,79.8,63.2,81.1,74.7,10.0
490.0,78.7,63.4,81.1,74.4,9.6
490.5,77.8,62.9,81.5,74.1,9.8
491.0,80.0,62.9,82.6,75.2,10.7