File: 01_Data/PC/Cone/PC_HRRPUA_75.csv
Time after Ignition,PC_R1,PC_R2,PC_R3,Mean,Std. Dev.
0.0,0.5,13.8,15.2,9.8,8.2
0.5,3.9,20.0,22.3,15.4,10.0
1.0,11.1,28.2,28.7,22.6,10.0
1.5,20.9,34.7,35.2,30.3,8.1
2.0,28.9,46.3,43.2,39.5,9.3
2.5,38.3,54.7,51.5,48.2,8.7
3.0,46.4,64.1,58.9,56.5,9.1
3.5,55.6,71.6,65.9,64.4,8.1
4.0,63.1,82.6,73.9,73.2,9.8
4.5,73.2,92.6,82.3,82.7,9.7
5.0,81.2,100.1,94.2,91.8,9.7
5.5,92.4,111.6,104.2,102.7,9.7
6.0,102.7,121.7,112.6,112.3,9.5
6.5,111.8,132.8,123.7,122.8,10.5
7.0,121.8,143.2,134.3,133.1,10.7
7.5,128.2,156.4,144.8,143.2,14.2
8.0,141.9,169.2,150.2,153.8,14.0
8.5,146.9,185.1,163.7,165.2,19.2
9.0,151.8,197.8,174.5,174.7,23.0
9.5,163.1,212.5,186.4,187.3,24.7
10.0,177.7,225.7,201.8,201.7,24.0
10.5,186.7,241.9,217.7,215.5,27.7
11.0,205.0,252.6,230.7,229.4,23.8
11.5,213.5,264.3,250.7,242.8,26.3
12.0,223.7,277.2,261.0,254.0,27.4
12.5,245.3,291.6,274.2,270.4,23.4
13.0,249.7,298.3,288.2,278.7,25.7
13.5,256.7,311.9,295.8,288.1,28.4
14.0,274.6,315.8,316.0,302.1,23.8
14.5,285.8,324.8,332.3,314.3,25.0
15.0,299.3,342.1,334.4,325.3,22.9
15.5,308.7,349.4,349.1,335.8,23.4
16.0,324.3,360.9,361.5,348.9,21.3
16.5,334.7,377.3,373.1,361.7,23.5
17.0,337.7,385.5,371.1,364.8,24.6
17.5,354.0,383.1,394.0,377.0,20.7
18.0,361.5,400.0,405.7,389.1,24.0
18.5,376.4,422.4,407.2,402.0,23.4
19.0,387.0,416.9,420.2,408.0,18.3
19.5,389.5,420.4,434.2,414.7,22.9
20.0,398.6,431.9,428.9,419.8,18.4
20.5,390.6,435.4,442.8,422.9,28.3
21.0,409.5,435.0,443.8,429.4,17.8
21.5,420.2,436.5,450.3,435.7,15.1
22.0,417.2,452.9,454.9,441.7,21.2
22.5,416.9,459.5,463.8,446.7,25.9
23.0,420.1,459.9,477.5,452.5,29.4
23.5,417.7,455.5,468.1,447.1,26.2
24.0,419.0,464.8,477.2,453.7,30.7
24.5,417.7,478.8,465.0,453.8,32.0
25.0,418.0,472.6,468.2,452.9,30.3
25.5,428.5,468.8,464.7,454.0,22.2
26.0,429.4,468.6,473.2,457.1,24.1
26.5,429.5,479.6,470.8,460.0,26.7
27.0,422.0,483.9,461.1,455.7,31.3
27.5,427.5,482.1,467.6,459.1,28.3
28.0,431.8,484.0,460.3,458.7,26.2
28.5,432.5,480.5,463.7,458.9,24.3
29.0,430.1,478.4,472.0,460.2,26.2
29.5,433.2,502.7,478.1,471.3,35.3
30.0,428.0,488.4,479.2,465.2,32.6
30.5,432.4,495.7,472.8,466.9,32.1
31.0,426.8,482.8,475.5,461.7,30.4
31.5,428.0,495.7,467.4,463.7,34.0
32.0,433.6,487.9,479.1,466.9,29.1
32.5,429.5,493.0,460.1,460.9,31.8
33.0,426.3,487.7,467.5,460.5,31.3
33.5,424.6,487.6,467.7,460.0,32.2
34.0,427.2,490.2,460.8,459.4,31.6
34.5,422.9,493.5,465.2,460.5,35.6
35.0,423.9,488.9,471.7,461.5,33.7
35.5,423.4,472.5,455.8,450.6,25.0
36.0,426.1,485.2,455.1,455.5,29.5
36.5,432.6,495.7,456.5,461.6,31.8
37.0,427.4,483.1,456.7,455.8,27.9
37.5,421.8,482.5,459.3,454.5,30.6
38.0,413.6,478.3,453.2,448.3,32.6
38.5,428.9,490.9,461.3,460.4,31.0
39.0,422.8,488.1,457.5,456.2,32.6
39.5,433.6,486.1,456.7,458.8,26.3
40.0,440.1,492.2,465.7,466.0,26.0
40.5,436.8,477.9,462.5,459.0,20.8
41.0,431.2,478.5,462.4,457.4,24.1
41.5,437.2,486.0,462.5,461.9,24.4
42.0,427.1,488.3,478.1,464.5,32.8
42.5,426.3,493.8,472.0,464.1,34.4
43.0,443.6,498.6,459.7,467.3,28.3
43.5,433.3,480.2,464.7,459.4,23.9
44.0,444.5,488.8,473.3,468.9,22.5
44.5,444.9,501.5,464.5,470.3,28.7
45.0,448.4,502.8,481.1,477.4,27.4
45.5,453.9,488.0,478.2,473.4,17.6
46.0,440.0,498.5,489.7,476.1,31.6
46.5,439.6,510.3,478.5,476.2,35.4
47.0,441.4,507.4,475.1,474.6,33.0
47.5,461.1,498.7,484.7,481.5,19.0
48.0,453.3,509.3,494.9,485.8,29.1
48.5,452.9,511.0,488.7,484.2,29.3
49.0,457.6,506.3,486.1,483.3,24.5
49.5,451.1,499.8,509.2,486.7,31.2
50.0,451.6,507.0,487.3,482.0,28.1
50.5,453.2,502.6,501.0,485.6,28.0
51.0,457.5,501.9,495.7,485.0,24.0
51.5,449.6,493.2,508.9,483.9,30.7
52.0,460.1,497.0,510.3,489.1,26.0
52.5,461.4,498.6,500.0,486.7,21.9
53.0,468.1,502.4,513.3,494.6,23.6
53.5,457.6,501.9,513.0,490.8,29.3
54.0,458.7,498.7,516.3,491.2,29.5
54.5,464.4,510.5,522.0,499.0,30.5
55.0,475.8,504.8,512.7,497.8,19.4
55.5,475.3,492.0,514.2,493.8,19.5
56.0,468.9,486.9,522.8,492.9,27.4
56.5,472.9,494.4,523.6,497.0,25.5
57.0,483.0,509.7,522.5,505.1,20.2
57.5,478.6,498.4,518.7,498.6,20.0
58.0,478.6,497.7,528.3,501.5,25.1
58.5,479.9,498.1,516.7,498.3,18.4
59.0,492.1,491.3,520.4,501.3,16.6
59.5,482.1,492.4,529.6,501.4,25.0
60.0,477.8,493.9,521.4,497.7,22.1
60.5,484.5,497.7,533.2,505.1,25.2
61.0,491.1,490.0,520.3,500.5,17.2
61.5,495.3,484.1,528.3,502.6,23.0
62.0,494.3,484.9,535.8,505.0,27.0
62.5,504.9,487.6,521.3,504.6,16.8
63.0,501.5,484.6,539.0,508.4,27.8
63.5,505.2,480.7,535.3,507.0,27.3
64.0,497.8,473.6,528.6,500.0,27.6
64.5,510.9,491.4,533.8,512.0,21.2
65.0,497.2,488.1,530.6,505.3,22.3
65.5,503.4,490.3,526.2,506.6,18.2
66.0,503.4,484.4,532.3,506.7,24.1
66.5,512.1,492.1,525.8,510.0,16.9
67.0,510.2,483.8,524.1,506.0,20.4
67.5,516.0,488.9,527.0,510.6,19.6
68.0,517.6,486.8,516.8,507.1,17.6
68.5,507.5,490.3,526.7,508.2,18.2
69.0,511.8,487.1,532.5,510.5,22.7
69.5,498.6,492.3,525.6,505.5,17.7
70.0,520.2,502.7,550.5,524.5,24.2
70.5,502.6,490.1,541.9,511.5,27.0
71.0,520.7,499.3,538.5,519.5,19.7
71.5,515.7,495.3,542.0,517.7,23.4
72.0,506.8,504.4,545.5,518.9,23.1
72.5,523.7,506.1,549.1,526.3,21.6
73.0,521.9,495.1,538.1,518.4,21.7
73.5,524.2,506.8,536.4,522.5,14.9
74.0,528.6,498.2,521.7,516.2,15.9
74.5,524.1,505.1,520.5,516.6,10.1
75.0,537.0,499.1,535.4,523.8,21.4
75.5,529.7,510.9,513.8,518.1,10.1
76.0,531.2,516.1,518.4,521.9,8.1
76.5,528.4,516.6,524.9,523.3,6.1
77.0,537.6,507.2,506.8,517.2,17.7
77.5,522.9,509.6,509.5,514.0,7.7
78.0,530.1,489.7,493.1,504.3,22.4
78.5,527.4,495.7,505.8,509.6,16.2
79.0,532.3,504.2,501.4,512.6,17.1
79.5,524.5,507.0,506.2,512.6,10.3
80.0,527.9,493.1,487.8,502.9,21.8
80.5,533.2,496.9,488.4,506.2,23.8
81.0,531.3,498.3,477.6,502.4,27.1
81.5,524.8,491.8,490.2,502.3,19.5
82.0,528.0,501.7,467.6,499.1,30.3
82.5,542.5,496.9,471.6,503.7,35.9
83.0,526.1,502.5,470.3,499.6,28.0
83.5,535.1,496.4,463.7,498.4,35.7
84.0,537.0,505.7,463.0,501.9,37.1
84.5,541.1,504.5,452.6,499.4,44.5
85.0,536.6,502.9,452.1,497.2,42.5
85.5,543.3,517.6,460.0,506.9,42.7
86.0,529.4,508.7,455.1,497.7,38.3
86.5,535.0,527.5,460.7,507.7,40.9
87.0,523.3,512.8,456.1,497.4,36.1
87.5,527.3,523.5,456.9,502.6,39.6
88.0,508.3,532.2,450.6,497.0,41.9
88.5,502.6,521.0,449.9,491.2,36.9
89.0,496.1,543.1,449.0,496.1,47.0
89.5,496.4,544.5,449.7,496.9,47.4
90.0,484.4,525.6,464.5,491.5,31.2
90.5,480.8,530.6,462.4,491.2,35.3
91.0,481.9,524.5,451.2,485.9,36.8
91.5,470.9,519.1,451.4,480.5,34.9
92.0,466.4,519.4,461.5,482.4,32.1
92.5,462.3,504.2,454.3,473.6,26.8
93.0,449.3,495.4,451.5,465.4,26.0
93.5,442.2,500.8,452.7,465.2,31.3
94.0,423.7,486.0,440.7,450.1,32.2
94.5,415.9,490.8,443.1,449.9,37.9
95.0,422.7,468.2,441.3,444.1,22.9
95.5,411.4,458.8,425.1,431.8,24.4
96.0,400.8,453.2,430.8,428.2,26.3
96.5,391.8,453.9,426.5,424.0,31.1
97.0,389.5,452.2,430.5,424.0,31.9
97.5,385.3,441.8,409.9,412.3,28.3
98.0,384.6,430.8,420.2,411.9,24.2
98.5,373.5,419.3,418.6,403.8,26.3
99.0,368.9,410.2,408.7,395.9,23.5
99.5,366.8,405.2,405.4,392.5,22.2
100.0,353.7,400.2,404.2,386.0,28.1
100.5,358.4,395.1,400.2,384.6,22.8
101.0,340.8,383.1,401.1,375.0,30.9
101.5,338.3,379.7,389.3,369.1,27.1
102.0,335.3,377.4,394.3,369.0,30.4
102.5,326.3,376.2,381.0,361.2,30.3
103.0,325.3,369.4,375.9,356.8,27.5
103.5,317.2,377.0,379.7,358.0,35.3
104.0,319.7,372.4,375.3,355.8,31.3
104.5,310.2,363.9,373.4,349.2,34.1
105.0,310.7,349.3,367.1,342.4,28.8
105.5,309.3,351.5,363.4,341.4,28.5
106.0,308.9,347.6,370.9,342.5,31.3
106.5,300.7,342.7,362.5,335.3,31.6
107.0,299.6,336.0,363.8,333.1,32.2
107.5,292.8,331.2,355.5,326.5,31.6
108.0,295.6,326.2,360.9,327.6,32.7
108.5,289.1,324.8,357.4,323.8,34.2
109.0,285.8,321.5,354.7,320.7,34.5
109.5,282.7,320.4,347.3,316.8,32.5
110.0,281.9,311.9,349.3,314.4,33.8
110.5,281.8,306.0,347.2,311.7,33.1
111.0,282.7,315.7,341.1,313.2,29.3
111.5,272.4,305.6,338.0,305.3,32.8
112.0,272.8,304.9,336.0,304.6,31.6
112.5,272.4,306.7,331.0,303.3,29.4
113.0,266.8,297.1,326.4,296.8,29.8
113.5,269.0,294.4,326.1,296.5,28.6
114.0,264.3,293.9,323.4,293.9,29.6
114.5,260.0,293.8,316.9,290.2,28.6
115.0,262.7,289.7,316.1,289.5,26.7
115.5,258.6,281.4,311.1,283.7,26.3
116.0,258.5,284.6,312.4,285.2,27.0
116.5,252.8,280.1,303.5,278.8,25.4
117.0,250.4,276.3,309.1,278.6,29.4
117.5,246.2,276.5,311.4,278.0,32.6
118.0,244.2,275.5,303.7,274.5,29.8
118.5,237.7,276.9,305.7,273.4,34.1
119.0,235.7,268.7,302.6,269.0,33.4
119.5,234.1,263.6,301.6,266.4,33.8
120.0,232.0,264.1,298.2,264.8,33.1
120.5,230.1,263.4,298.9,264.1,34.4
121.0,226.6,265.2,300.9,264.2,37.2
121.5,224.7,263.3,301.0,263.0,38.2
122.0,222.2,255.0,290.5,255.9,34.2
122.5,220.0,255.1,289.7,254.9,34.9
123.0,221.8,255.9,294.0,257.2,36.1
123.5,215.5,256.7,288.4,253.5,36.6
124.0,211.9,253.6,287.5,251.0,37.8
124.5,208.4,251.7,286.3,248.8,39.0
125.0,210.4,250.3,290.6,250.4,40.1
125.5,201.8,247.7,287.9,245.8,43.1
126.0,202.2,246.9,284.9,244.7,41.4
126.5,200.7,241.1,286.3,242.7,42.9
127.0,199.9,234.3,285.0,239.7,42.8
127.5,200.2,237.4,285.7,241.1,42.8
128.0,197.2,233.8,284.2,238.4,43.7
128.5,194.9,234.6,282.7,237.4,44.0
129.0,192.9,231.9,279.6,234.8,43.4
129.5,194.0,228.6,283.7,235.4,45.2
130.0,188.8,232.7,284.4,235.3,47.9
130.5,190.9,223.6,283.7,232.7,47.1
131.0,188.6,225.5,279.8,231.3,45.8
131.5,185.6,223.8,280.9,230.1,48.0
132.0,186.7,219.0,280.1,228.6,47.4
132.5,183.3,219.0,282.3,228.2,50.1
133.0,185.0,219.4,273.6,226.0,44.7
133.5,181.7,220.0,279.0,226.9,49.0
134.0,183.4,215.7,273.6,224.2,45.7
134.5,184.5,215.6,273.5,224.6,45.2
135.0,179.3,213.5,273.0,221.9,47.4
135.5,177.0,210.9,273.4,220.5,48.9
136.0,177.0,213.0,268.6,219.5,46.2
136.5,177.4,212.3,268.3,219.4,45.9
137.0,178.6,210.2,266.7,218.5,44.7
137.5,178.2,212.1,270.5,220.3,46.7
138.0,175.6,212.8,267.0,218.5,45.9
138.5,174.1,208.6,264.3,215.6,45.5
139.0,173.0,210.3,261.2,214.8,44.3
139.5,174.6,213.1,261.0,216.2,43.3
140.0,172.0,213.4,263.7,216.4,45.9
140.5,175.4,213.4,260.9,216.6,42.9
141.0,170.9,210.6,256.1,212.5,42.7
141.5,169.5,208.3,258.9,212.2,44.8
142.0,170.9,210.9,260.6,214.1,44.9
142.5,167.7,208.1,258.7,211.5,45.6
143.0,167.0,210.6,255.6,211.1,44.3
143.5,166.4,207.7,249.7,207.9,41.6
144.0,164.4,211.2,254.4,210.0,45.0
144.5,162.6,208.2,251.5,207.4,44.4
145.0,165.5,204.3,255.4,208.4,45.1
145.5,165.2,206.8,257.1,209.7,46.0
146.0,163.8,203.0,252.9,206.6,44.6
146.5,163.7,201.2,258.1,207.6,47.5
147.0,160.1,200.5,250.9,203.8,45.5
147.5,161.3,199.6,251.9,204.3,45.5
148.0,159.6,200.4,249.4,203.1,45.0
148.5,160.5,201.8,253.5,205.3,46.6
149.0,161.7,199.0,255.2,205.3,47.1
149.5,157.7,199.0,253.5,203.4,48.0
150.0,160.7,195.6,254.7,203.7,47.5
150.5,159.5,196.4,255.4,203.8,48.4
151.0,156.9,196.7,253.0,202.2,48.3
151.5,160.1,196.7,258.2,205.0,49.6
152.0,157.5,193.8,253.7,201.7,48.6
152.5,160.3,196.2,257.6,204.7,49.2
153.0,159.1,192.7,251.9,201.2,47.0
153.5,158.4,192.1,258.2,202.9,50.8
154.0,160.1,195.1,254.0,203.1,47.5
154.5,160.3,190.9,253.3,201.5,47.4
155.0,159.4,192.4,258.7,203.5,50.6
155.5,159.8,189.3,256.6,201.9,49.6
156.0,161.2,188.1,255.2,201.5,48.4
156.5,158.6,191.2,258.5,202.8,50.9
157.0,159.7,192.8,254.5,202.3,48.1
157.5,159.4,192.9,254.9,202.4,48.5
158.0,158.9,192.3,259.3,203.5,51.1
158.5,159.0,193.8,259.9,204.2,51.3
159.0,157.9,191.8,257.0,202.2,50.4
159.5,162.6,189.1,257.7,203.1,49.1
160.0,162.2,193.6,256.8,204.2,48.2
160.5,159.3,186.3,261.0,202.2,52.7
161.0,159.3,191.9,254.1,201.8,48.2
161.5,162.2,193.6,255.6,203.8,47.6
162.0,161.0,191.0,247.7,199.9,44.0
162.5,162.7,192.9,255.0,203.5,47.1
163.0,160.2,193.9,254.2,202.7,47.6
163.5,161.2,190.6,254.7,202.2,47.8
164.0,161.6,191.4,254.7,202.6,47.6
164.5,161.7,189.6,256.4,202.5,48.7
165.0,159.8,189.5,251.2,200.2,46.6
165.5,159.7,189.9,260.2,203.3,51.6
166.0,161.2,190.9,249.8,200.6,45.1
166.5,158.9,190.8,254.4,201.4,48.6
167.0,161.8,190.5,249.8,200.7,44.9
167.5,161.4,188.7,254.0,201.4,47.6
168.0,161.6,190.6,251.7,201.3,46.0
168.5,161.5,186.6,247.8,198.6,44.4
169.0,159.3,188.7,249.2,199.1,45.8
169.5,160.2,187.1,256.5,201.2,49.7
170.0,157.3,184.9,248.7,197.0,46.9
170.5,159.9,182.7,248.7,197.1,46.1
171.0,159.3,185.1,248.8,197.8,46.1
171.5,161.4,184.6,247.1,197.7,44.3
172.0,162.1,183.0,246.1,197.1,43.7
172.5,162.9,186.9,249.1,199.6,44.5
173.0,159.9,184.6,248.1,197.5,45.5
173.5,159.3,186.0,247.1,197.5,45.0
174.0,159.2,184.5,250.2,198.0,47.0
174.5,157.2,184.6,256.4,199.4,51.2
175.0,161.2,187.4,242.9,197.2,41.7
175.5,160.0,182.5,247.7,196.7,45.6
176.0,161.3,185.5,249.8,198.9,45.7
176.5,157.6,183.2,253.8,198.2,49.8
177.0,161.0,185.6,249.7,198.7,45.8
177.5,159.7,184.9,249.0,197.8,46.1
178.0,160.2,183.1,248.7,197.3,45.9
178.5,158.1,183.1,253.2,198.1,49.3
179.0,155.2,181.3,250.0,195.5,49.0
179.5,158.2,181.3,251.0,196.8,48.3
180.0,159.9,183.3,248.4,197.2,45.9
180.5,155.0,181.1,246.9,194.3,47.4
181.0,158.8,183.5,251.2,197.8,47.8
181.5,157.8,181.6,249.4,196.3,47.5
182.0,156.8,184.2,244.8,195.3,45.1
182.5,156.9,183.5,247.9,196.1,46.8
183.0,157.6,181.4,244.7,194.6,45.0
183.5,157.4,185.6,245.5,196.2,45.0
184.0,156.4,184.0,249.2,196.5,47.7
184.5,157.8,183.3,243.8,195.0,44.2
185.0,157.1,184.0,241.9,194.3,43.3
185.5,156.2,185.6,249.4,197.0,47.6
186.0,156.9,185.4,240.6,194.3,42.6
186.5,158.5,186.2,241.5,195.4,42.3
187.0,158.4,186.5,245.4,196.8,44.4
187.5,156.6,184.3,246.0,195.6,45.8
188.0,155.8,184.5,250.6,197.0,48.7
188.5,156.3,183.3,246.3,195.3,46.2
189.0,157.0,183.6,246.7,195.8,46.1
189.5,158.0,183.4,243.8,195.1,44.1
190.0,154.7,185.5,243.6,194.6,45.2
190.5,158.1,184.0,245.2,195.8,44.8
191.0,155.5,183.5,246.5,195.1,46.6
191.5,159.1,186.2,241.9,195.7,42.2
192.0,158.1,183.5,240.4,194.0,42.1
192.5,159.3,181.7,241.3,194.1,42.4
193.0,158.5,184.5,243.8,195.6,43.7
193.5,159.0,181.6,246.5,195.7,45.4
194.0,155.7,182.7,245.3,194.6,45.9
194.5,156.7,182.2,240.4,193.1,42.9
195.0,157.0,182.8,241.9,193.9,43.5
195.5,159.4,182.8,236.1,192.8,39.3
196.0,157.6,184.3,240.2,194.0,42.2
196.5,156.4,180.2,239.3,192.0,42.7
197.0,157.3,182.6,234.5,191.5,39.3
197.5,155.3,182.3,238.7,192.1,42.5
198.0,158.7,183.2,237.0,193.0,40.0
198.5,159.5,179.6,232.8,190.6,37.8
199.0,160.7,184.6,228.5,191.3,34.4
199.5,159.4,181.0,231.4,190.6,36.9
200.0,155.6,181.3,229.2,188.7,37.4
200.5,160.1,179.7,228.6,189.5,35.2
201.0,156.0,181.3,228.3,188.5,36.7
201.5,158.3,185.6,231.1,191.7,36.8
202.0,158.6,184.3,225.1,189.3,33.6
202.5,160.9,180.6,226.0,189.2,33.4
203.0,159.4,183.7,224.9,189.3,33.1
203.5,160.5,184.6,225.3,190.1,32.8
204.0,163.4,184.4,222.4,190.1,29.9
204.5,161.0,181.5,221.5,188.0,30.8
205.0,164.4,182.5,219.7,188.9,28.2
205.5,164.3,188.4,216.9,189.9,26.3
206.0,163.8,183.7,216.2,187.9,26.5
206.5,163.8,185.3,218.3,189.1,27.4
207.0,161.3,186.4,221.5,189.8,30.2
207.5,164.5,185.8,218.3,189.5,27.1
208.0,161.9,184.4,217.0,187.8,27.7
208.5,162.4,187.8,219.5,189.9,28.6
209.0,163.2,186.0,218.2,189.2,27.6
209.5,164.0,185.5,213.1,187.5,24.6
210.0,165.2,187.9,216.1,189.7,25.5
210.5,162.7,189.8,215.9,189.5,26.6
211.0,162.4,189.4,213.6,188.5,25.6
211.5,162.9,189.8,214.9,189.2,26.0
212.0,167.2,190.6,214.4,190.7,23.6
212.5,162.9,190.1,213.7,188.9,25.4
213.0,163.4,190.1,210.1,187.9,23.4
213.5,167.2,188.3,208.5,188.0,20.7
214.0,161.8,188.9,212.5,187.7,25.4
214.5,166.2,194.7,209.6,190.2,22.1
215.0,166.8,189.5,210.9,189.1,22.0
215.5,165.2,191.2,207.2,187.9,21.2
216.0,165.1,191.7,203.5,186.8,19.7
216.5,168.3,189.9,209.4,189.2,20.6
217.0,166.7,192.3,207.8,188.9,20.8
217.5,166.1,191.5,211.2,189.6,22.6
218.0,165.1,189.7,209.5,188.1,22.3
218.5,167.4,188.1,207.9,187.8,20.3
219.0,167.6,190.9,204.6,187.7,18.7
219.5,165.9,188.4,205.2,186.5,19.7
220.0,166.0,185.4,201.8,184.4,17.9
220.5,163.6,190.3,202.9,185.6,20.0
221.0,163.8,188.7,202.7,185.1,19.7
221.5,164.0,185.9,202.8,184.2,19.5
222.0,163.5,190.1,201.2,184.9,19.4
222.5,162.9,188.9,203.3,185.0,20.5
223.0,165.9,188.5,201.5,185.3,18.0
223.5,166.1,188.6,200.8,185.2,17.6
224.0,164.0,184.4,199.4,182.6,17.8
224.5,164.0,191.6,199.5,185.1,18.6
225.0,165.3,185.9,199.4,183.6,17.2
225.5,163.9,190.1,197.1,183.7,17.5
226.0,162.8,190.5,199.8,184.4,19.3
226.5,164.9,191.3,198.5,184.9,17.7
227.0,165.5,188.8,196.6,183.6,16.2
227.5,163.1,190.9,198.4,184.2,18.6
228.0,166.5,186.6,199.3,184.1,16.5
228.5,165.6,187.9,193.7,182.4,14.8
229.0,163.6,191.1,198.4,184.4,18.3
229.5,165.6,191.4,196.6,184.5,16.6
230.0,167.7,192.2,196.9,185.6,15.7
230.5,163.5,189.5,195.9,183.0,17.1
231.0,165.4,189.3,196.5,183.7,16.3
231.5,164.2,187.3,195.3,182.2,16.1
232.0,165.2,190.3,195.3,183.6,16.1
232.5,165.0,191.9,194.2,183.7,16.2
233.0,164.8,189.6,197.1,183.9,16.9
233.5,164.8,191.6,194.9,183.8,16.5
234.0,165.2,190.6,192.0,182.6,15.1
234.5,163.3,192.3,194.3,183.3,17.4
235.0,163.8,191.4,197.1,184.1,17.8
235.5,166.2,188.0,197.5,183.9,16.1
236.0,165.4,190.4,193.2,183.0,15.3
236.5,164.3,192.3,195.2,183.9,17.1
237.0,166.3,188.9,195.1,183.5,15.2
237.5,163.2,191.4,194.9,183.2,17.4
238.0,166.3,193.1,192.6,184.0,15.3
238.5,163.2,192.5,195.2,183.6,17.7
239.0,163.2,193.0,197.7,184.7,18.7
239.5,163.0,192.3,194.9,183.4,17.7
240.0,161.6,193.2,194.2,183.0,18.5
240.5,165.8,190.8,197.3,184.6,16.7
241.0,164.0,194.6,192.4,183.7,17.1
241.5,165.4,193.4,194.6,184.5,16.5
242.0,162.9,190.8,198.0,183.9,18.5
242.5,164.2,189.6,191.2,181.7,15.1
243.0,162.0,187.1,197.3,182.1,18.2
243.5,162.4,191.8,194.4,182.9,17.8
244.0,164.4,190.6,196.4,183.8,17.1
244.5,165.4,192.2,192.8,183.5,15.6
245.0,163.3,188.3,195.3,182.3,16.8
245.5,161.1,191.9,190.7,181.2,17.5
246.0,162.3,191.2,192.2,181.9,17.0
246.5,162.6,189.5,190.8,181.0,15.9
247.0,162.0,188.6,192.1,180.9,16.5
247.5,161.6,187.2,190.9,179.9,16.0
248.0,161.9,190.5,192.9,181.7,17.3
248.5,161.5,190.0,191.2,180.9,16.8
249.0,160.8,192.4,185.8,179.7,16.7
249.5,159.4,189.0,191.9,180.1,18.0
250.0,162.2,186.8,190.9,180.0,15.5
250.5,160.0,188.6,193.5,180.7,18.1
251.0,160.3,190.4,188.9,179.8,17.0
251.5,162.5,190.2,189.8,180.8,15.9
252.0,163.6,189.1,191.6,181.4,15.5
252.5,161.6,185.5,188.4,178.5,14.8
253.0,161.5,186.6,188.2,178.8,15.0
253.5,160.7,188.6,189.7,179.7,16.4
254.0,160.3,185.9,188.6,178.3,15.6
254.5,161.5,186.2,190.1,179.3,15.5
255.0,161.9,189.9,187.7,179.8,15.6
255.5,161.4,185.9,187.5,178.3,14.6
256.0,159.4,187.2,185.2,177.3,15.5
256.5,158.9,189.1,186.5,178.2,16.7
257.0,158.5,184.3,184.6,175.8,15.0
257.5,158.8,188.0,185.5,177.5,16.2
258.0,157.7,187.7,188.6,178.0,17.6
258.5,160.3,186.8,187.2,178.1,15.4
259.0,158.5,187.7,185.9,177.4,16.3
259.5,157.1,185.4,183.7,175.4,15.8
260.0,159.7,189.4,187.8,179.0,16.7
260.5,160.0,188.2,184.8,177.7,15.4
261.0,158.5,188.2,186.0,177.6,16.5
261.5,154.5,184.4,188.3,175.7,18.5
262.0,156.9,185.7,186.3,176.3,16.8
262.5,157.9,187.0,184.5,176.5,16.2
263.0,157.1,188.9,181.1,175.7,16.6
263.5,157.0,190.0,181.8,176.3,17.2
264.0,155.8,189.3,185.1,176.8,18.3
264.5,158.8,189.6,186.2,178.2,16.9
265.0,158.4,188.6,183.5,176.8,16.2
265.5,152.5,186.8,182.7,174.0,18.7
266.0,157.0,189.5,186.4,177.7,17.9
266.5,156.7,188.7,186.1,177.2,17.8
267.0,156.3,188.3,184.9,176.5,17.6
267.5,155.8,184.7,182.0,174.2,16.0
268.0,154.7,184.3,187.5,175.5,18.1
268.5,153.2,186.9,185.5,175.2,19.0
269.0,154.0,187.9,184.7,175.5,18.7
269.5,157.3,184.4,188.0,176.6,16.8
270.0,156.1,185.2,183.5,174.9,16.3
270.5,156.7,183.4,186.2,175.4,16.3
271.0,154.4,188.3,184.8,175.8,18.7
271.5,151.6,185.3,184.8,173.9,19.3
272.0,155.3,186.4,184.9,175.5,17.6
272.5,153.9,188.3,186.8,176.3,19.5
273.0,152.2,185.6,188.1,175.3,20.1
273.5,157.6,186.7,185.7,176.7,16.5
274.0,153.7,186.5,184.6,174.9,18.5
274.5,153.8,190.1,187.5,177.1,20.2
275.0,152.8,191.1,184.8,176.2,20.6
275.5,153.3,187.4,188.7,176.5,20.1
276.0,151.0,189.0,186.6,175.6,21.3
276.5,155.1,188.7,186.5,176.8,18.8
277.0,152.4,190.2,186.4,176.3,20.8
277.5,151.3,190.6,189.0,177.0,22.2
278.0,151.9,188.8,190.1,177.0,21.7
278.5,152.8,190.5,190.1,177.8,21.6
279.0,152.0,189.8,188.3,176.7,21.4
279.5,152.0,186.3,187.0,175.1,20.0
280.0,150.2,191.7,189.9,177.3,23.5
280.5,152.1,186.4,192.6,177.0,21.8
281.0,150.3,188.4,193.5,177.4,23.6
281.5,147.7,188.9,189.3,175.3,23.9
282.0,146.8,185.9,192.9,175.2,24.9
282.5,148.5,186.8,196.8,177.4,25.4
283.0,147.1,186.1,195.4,176.2,25.7
283.5,147.9,185.2,191.9,175.0,23.7
284.0,147.2,183.7,194.6,175.2,24.8
284.5,147.7,188.7,196.2,177.5,26.1
285.0,144.4,183.9,195.4,174.6,26.8
285.5,147.3,185.7,199.4,177.5,27.0
286.0,144.5,186.2,197.1,175.9,27.7
286.5,144.9,186.0,199.4,176.8,28.4
287.0,142.9,190.3,201.4,178.2,31.1
287.5,143.0,187.5,198.2,176.2,29.3
288.0,142.5,187.4,196.9,175.6,29.0
288.5,144.3,184.8,200.3,176.5,29.0
289.0,143.8,187.4,198.1,176.4,28.8
289.5,143.2,187.0,201.3,177.2,30.3
290.0,142.7,186.4,196.7,175.3,28.7
290.5,143.3,187.8,197.9,176.3,29.1
291.0,141.4,187.5,201.2,176.7,31.4
291.5,141.0,186.6,201.3,176.3,31.4
292.0,145.3,188.4,204.7,179.5,30.7
292.5,143.3,187.1,198.5,176.3,29.2
293.0,142.6,185.2,202.3,176.7,30.7
293.5,141.5,184.5,199.3,175.1,30.0
294.0,141.9,187.1,199.7,176.2,30.4
294.5,141.7,185.7,201.2,176.2,30.9
295.0,144.0,187.5,200.3,177.3,29.5
295.5,142.3,184.4,201.9,176.2,30.6
296.0,141.0,182.1,203.9,175.7,31.9
296.5,143.0,182.5,201.5,175.7,29.8
297.0,143.2,185.9,204.5,177.8,31.4
297.5,143.3,184.9,205.7,177.9,31.8
298.0,142.9,184.2,207.9,178.3,32.9
298.5,141.7,186.6,207.9,178.7,33.8
299.0,143.4,186.8,208.6,179.6,33.2
299.5,143.0,181.8,206.9,177.2,32.2
300.0,143.8,182.0,213.3,179.7,34.8
300.5,143.5,183.6,215.4,180.8,36.0
301.0,143.7,184.1,213.8,180.5,35.2
301.5,144.0,179.9,218.9,180.9,37.5
302.0,144.2,183.8,220.8,183.0,38.3
302.5,144.0,178.1,225.9,182.6,41.2
303.0,143.6,180.2,220.2,181.4,38.3
303.5,144.0,180.4,226.8,183.8,41.5
304.0,143.5,177.6,225.9,182.3,41.4
304.5,144.2,179.1,225.7,183.0,40.9
305.0,144.8,180.2,227.1,184.1,41.3
305.5,144.2,182.3,228.8,185.1,42.4
306.0,142.5,179.0,231.0,184.2,44.5
306.5,143.5,183.3,229.2,185.3,42.9
307.0,142.6,182.4,230.8,185.3,44.2
307.5,144.2,181.5,229.9,185.2,43.0
308.0,141.4,180.4,230.2,184.0,44.5
308.5,142.1,181.5,231.8,185.1,45.0
309.0,142.2,180.1,232.2,184.8,45.2
309.5,142.4,180.3,233.6,185.4,45.8
310.0,140.7,179.5,230.0,183.4,44.8
310.5,139.2,182.2,229.8,183.7,45.3
311.0,142.6,183.3,227.8,184.6,42.6
311.5,140.2,182.6,227.8,183.5,43.8
312.0,139.4,181.6,230.6,183.9,45.6
312.5,138.7,184.9,228.7,184.1,45.0
313.0,138.8,182.7,230.7,184.1,46.0
313.5,138.9,185.1,231.9,185.3,46.5
314.0,140.8,186.6,231.6,186.3,45.4
314.5,138.4,184.7,231.4,184.9,46.5
315.0,138.1,186.8,228.9,184.6,45.4
315.5,137.7,189.2,228.9,185.3,45.7
316.0,138.0,189.7,230.4,186.0,46.3
316.5,136.9,189.6,230.2,185.6,46.8
317.0,139.3,190.0,232.2,187.2,46.5
317.5,139.1,187.2,230.9,185.7,45.9
318.0,136.4,189.9,232.4,186.2,48.1
318.5,137.9,190.2,230.0,186.0,46.2
319.0,136.7,190.1,231.7,186.1,47.6
319.5,140.2,191.4,230.5,187.4,45.2
320.0,139.8,193.4,231.3,188.2,46.0
320.5,136.1,189.2,232.7,186.0,48.4
321.0,139.3,192.6,233.4,188.5,47.2
321.5,136.6,192.8,233.4,187.6,48.6
322.0,139.7,193.1,227.1,186.6,44.1
322.5,140.4,191.9,234.0,188.7,46.9
323.0,137.1,192.6,230.3,186.7,46.9
323.5,141.3,190.9,229.1,187.1,44.1
324.0,142.3,193.7,228.9,188.3,43.6
324.5,139.8,196.4,229.0,188.4,45.2
325.0,139.6,189.5,228.0,185.7,44.3
325.5,137.9,194.9,228.0,186.9,45.6
326.0,141.6,194.9,229.1,188.5,44.1
326.5,142.7,195.2,228.1,188.7,43.1
327.0,142.4,193.9,230.7,189.0,44.3
327.5,143.7,196.2,228.3,189.4,42.7
328.0,141.8,193.6,230.9,188.8,44.7
328.5,143.3,196.7,233.0,191.0,45.1
329.0,141.5,197.7,234.3,191.2,46.7
329.5,143.8,197.2,231.0,190.6,44.0
330.0,142.0,200.5,230.2,190.9,44.9
330.5,143.7,198.8,232.7,191.8,44.9
331.0,145.0,200.0,225.7,190.3,41.2
331.5,142.0,200.3,232.0,191.4,45.7
332.0,144.0,201.5,234.6,193.4,45.9
332.5,145.0,200.3,226.3,190.5,41.5
333.0,147.2,197.4,226.4,190.3,40.1
333.5,144.7,198.2,230.2,191.0,43.2
334.0,145.9,199.7,223.7,189.8,39.8
334.5,145.6,201.2,226.0,190.9,41.2
335.0,148.6,198.6,222.9,190.0,37.9
335.5,149.6,203.7,228.6,193.9,40.4
336.0,147.8,201.2,224.3,191.1,39.3
336.5,148.9,200.6,223.5,191.0,38.2
337.0,151.7,199.8,223.2,191.6,36.5
337.5,150.7,198.2,224.0,191.0,37.2
338.0,151.9,198.4,222.6,191.0,35.9
338.5,153.8,198.2,224.0,192.0,35.5
339.0,153.0,200.9,221.8,191.9,35.3
339.5,152.6,199.9,222.7,191.7,35.7
340.0,151.7,202.2,217.7,190.5,34.5
340.5,153.3,201.8,222.8,192.6,35.7
341.0,156.8,200.3,221.4,192.8,33.0
341.5,154.1,201.4,220.4,191.9,34.1
342.0,151.8,201.9,222.4,192.0,36.3
342.5,154.9,201.8,219.7,192.1,33.5
343.0,155.1,200.8,220.6,192.2,33.6
343.5,155.3,197.7,216.9,190.0,31.6
344.0,157.7,199.6,217.1,191.5,30.5
344.5,155.9,198.6,216.6,190.4,31.2
345.0,153.4,200.2,217.6,190.4,33.2
345.5,157.2,199.7,216.0,191.0,30.4
346.0,156.1,198.6,217.2,190.6,31.3
346.5,157.2,198.2,213.9,189.8,29.3
347.0,155.8,203.3,219.8,193.0,33.2
347.5,156.0,199.6,217.8,191.1,31.8
348.0,157.6,199.4,218.3,191.8,31.1
348.5,160.5,199.3,216.1,192.0,28.5
349.0,158.1,195.8,216.6,190.2,29.7
349.5,159.7,198.7,219.5,192.6,30.3
350.0,160.3,196.0,214.5,190.3,27.6
350.5,161.6,197.8,218.4,192.6,28.7
351.0,159.2,196.8,218.1,191.3,29.8
351.5,161.3,198.0,217.5,192.3,28.5
352.0,162.9,198.2,215.9,192.4,27.0
352.5,163.9,197.6,214.2,191.9,25.6
353.0,162.8,199.2,214.0,192.0,26.4
353.5,167.6,199.0,215.0,193.9,24.1
354.0,167.6,199.5,215.6,194.3,24.4
354.5,164.5,200.3,217.2,194.0,26.9
355.0,166.6,198.9,219.3,195.0,26.6
355.5,164.8,200.8,213.7,193.1,25.3
356.0,167.5,196.9,209.1,191.1,21.4
356.5,166.8,194.0,215.0,191.9,24.1
357.0,166.4,198.6,211.2,192.1,23.1
357.5,168.5,196.1,210.5,191.7,21.3
358.0,167.2,195.4,213.1,191.9,23.2
358.5,167.6,199.1,209.0,191.9,21.7
359.0,170.7,198.0,208.8,192.5,19.7
359.5,169.8,196.3,213.9,193.3,22.2
360.0,169.2,197.5,209.3,192.0,20.6
360.5,169.5,198.6,209.7,192.6,20.7
361.0,169.7,195.6,205.0,190.1,18.3
361.5,170.0,197.8,211.3,193.0,21.0
362.0,171.9,195.6,210.1,192.5,19.3
362.5,172.6,198.9,212.5,194.7,20.3
363.0,171.7,197.7,206.4,192.0,18.1
363.5,171.7,198.4,211.4,193.9,20.2
364.0,172.6,198.9,205.5,192.3,17.4
364.5,174.2,200.5,207.0,193.9,17.4
365.0,174.5,204.0,208.4,195.6,18.4
365.5,176.5,201.1,206.1,194.6,15.8
366.0,180.5,198.2,205.7,194.8,13.0
366.5,177.5,200.8,211.0,196.4,17.2
367.0,179.9,197.3,207.8,195.0,14.1
367.5,181.7,198.7,207.6,196.0,13.1
368.0,180.5,198.8,204.1,194.5,12.4
368.5,182.7,198.5,204.4,195.2,11.2
369.0,181.9,199.9,209.0,196.9,13.8
369.5,188.2,196.9,207.5,197.5,9.7
370.0,186.6,197.5,202.5,195.5,8.1
370.5,184.5,197.2,204.5,195.4,10.1
371.0,189.1,197.4,205.2,197.2,8.1
371.5,187.2,196.8,202.5,195.5,7.8
372.0,189.3,194.8,204.3,196.2,7.6
372.5,192.4,196.3,202.3,197.0,4.9
373.0,193.1,198.7,203.8,198.6,5.3
373.5,194.6,195.3,206.2,198.7,6.5
374.0,192.5,193.6,204.6,196.9,6.7
374.5,198.2,196.1,205.1,199.8,4.7
375.0,197.0,192.6,206.1,198.5,6.9
375.5,195.8,194.6,206.3,198.9,6.4
376.0,198.8,193.3,203.4,198.5,5.1
376.5,200.2,193.7,206.3,200.0,6.3
377.0,201.5,190.5,206.0,199.3,8.0
377.5,201.2,189.8,205.4,198.8,8.1
378.0,204.0,192.7,206.0,200.9,7.2
378.5,203.5,188.8,201.6,198.0,8.0
379.0,205.0,193.9,205.2,201.4,6.4
379.5,208.1,191.2,206.4,201.9,9.3
380.0,208.7,188.8,208.1,201.9,11.3
380.5,207.4,190.5,203.7,200.6,8.9
381.0,207.1,190.9,202.9,200.3,8.4
381.5,213.4,185.1,202.8,200.4,14.3
382.0,209.0,186.4,204.6,200.0,12.0
382.5,211.1,188.3,204.1,201.2,11.7
383.0,212.1,187.1,205.0,201.4,12.8
383.5,210.9,186.8,205.0,200.9,12.6
384.0,209.0,183.8,205.5,199.4,13.7
384.5,208.9,185.3,204.4,199.6,12.5
385.0,205.9,182.4,208.0,198.8,14.2
385.5,209.2,188.3,206.5,201.3,11.4
386.0,204.8,182.6,201.6,196.3,12.0
386.5,206.3,185.0,205.7,199.0,12.1
387.0,208.0,181.6,203.9,197.8,14.2
387.5,206.9,184.0,208.8,199.9,13.8
388.0,204.9,180.6,204.7,196.7,14.0
388.5,205.0,185.5,205.2,198.5,11.3
389.0,205.1,180.6,203.8,196.5,13.8
389.5,205.8,182.3,207.4,198.5,14.1
390.0,203.5,182.3,207.3,197.7,13.5
390.5,205.9,182.2,201.7,196.6,12.6
391.0,207.0,179.7,202.5,196.4,14.6
391.5,204.9,183.3,203.8,197.4,12.2
392.0,199.1,182.1,200.1,193.8,10.1
392.5,202.9,183.7,206.9,197.8,12.4
393.0,202.3,183.3,203.6,196.4,11.4
393.5,201.5,184.5,199.7,195.2,9.3
394.0,201.1,180.7,202.6,194.8,12.2
394.5,202.5,181.2,201.6,195.1,12.1
395.0,204.0,181.1,202.9,196.0,12.9
395.5,206.4,180.2,202.5,196.3,14.1
396.0,207.4,180.8,199.6,195.9,13.7
396.5,206.4,184.3,200.9,197.2,11.5
397.0,208.9,179.7,205.9,198.2,16.1
397.5,211.2,178.2,198.9,196.1,16.7
398.0,206.2,176.2,201.0,194.5,16.0
398.5,209.7,180.3,199.9,196.6,15.0
399.0,208.7,178.1,200.7,195.8,15.9
399.5,210.6,178.2,196.6,195.1,16.2
400.0,211.0,177.9,198.5,195.8,16.7
400.5,210.2,180.1,197.6,196.0,15.1
401.0,209.9,177.6,197.9,195.1,16.3
401.5,210.1,180.2,198.1,196.1,15.1
402.0,210.0,182.1,197.0,196.3,13.9
402.5,212.9,178.3,194.3,195.2,17.3
403.0,214.2,177.6,191.9,194.6,18.5
403.5,212.9,180.9,192.3,195.4,16.2
404.0,215.9,176.9,193.0,195.2,19.6
404.5,214.9,176.8,195.5,195.7,19.1
405.0,220.4,175.6,194.3,196.7,22.5
405.5,217.2,178.5,192.8,196.2,19.5
406.0,215.5,177.4,191.4,194.8,19.3
406.5,219.0,178.5,193.3,196.9,20.5
407.0,221.5,179.9,188.7,196.7,21.9
407.5,217.5,177.8,190.6,195.3,20.2
408.0,220.1,176.1,186.8,194.4,23.0
408.5,217.7,175.0,187.8,193.5,22.0
409.0,224.0,178.9,186.9,196.6,24.1
409.5,216.3,177.6,185.4,193.1,20.5
410.0,216.5,175.3,188.1,193.3,21.1
410.5,222.3,175.3,188.7,195.5,24.2
411.0,215.8,177.8,182.6,192.1,20.7
411.5,222.0,173.5,184.5,193.3,25.4
412.0,222.2,175.3,182.4,193.3,25.3
412.5,219.9,175.4,182.4,192.5,23.9
413.0,221.3,174.3,183.5,193.1,24.9
413.5,222.9,174.2,183.0,193.4,26.0
414.0,217.5,172.7,181.2,190.5,23.8
414.5,221.1,176.2,183.9,193.7,24.0
415.0,222.3,171.1,179.2,190.9,27.5
415.5,217.5,172.3,180.1,189.9,24.2
416.0,218.8,172.1,182.6,191.2,24.5
416.5,219.4,171.2,181.0,190.5,25.5
417.0,218.6,170.9,180.8,190.1,25.2
417.5,219.9,169.8,177.0,188.9,27.1
418.0,220.1,174.6,181.1,191.9,24.6
418.5,223.2,170.1,176.0,189.8,29.1
419.0,214.7,172.6,177.1,188.2,23.1
419.5,217.3,173.2,176.7,189.1,24.5
420.0,219.2,171.1,175.8,188.7,26.5
420.5,220.2,170.2,176.3,188.9,27.3
421.0,215.4,175.6,177.1,189.4,22.6
421.5,218.3,173.0,178.9,190.0,24.6
422.0,215.4,173.1,176.5,188.3,23.5
422.5,218.6,170.5,176.5,188.5,26.2
423.0,218.5,170.9,176.6,188.7,26.0
423.5,213.0,169.6,177.9,186.8,23.0
424.0,213.1,169.4,175.7,186.1,23.6
424.5,214.5,172.4,176.6,187.8,23.2
425.0,213.0,172.1,176.6,187.2,22.4
425.5,214.0,169.9,175.4,186.4,24.0
426.0,207.3,172.6,176.0,185.3,19.1
426.5,206.4,172.7,174.7,184.6,18.9
427.0,207.1,170.1,173.9,183.7,20.4
427.5,208.7,170.8,174.0,184.5,21.0
428.0,209.0,167.9,172.3,183.1,22.5
428.5,208.3,172.8,173.5,184.9,20.3
429.0,205.9,170.2,171.4,182.5,20.2
429.5,206.4,168.6,172.2,182.4,20.8
430.0,203.4,169.6,173.0,182.0,18.6
430.5,208.3,169.3,169.6,182.4,22.4
431.0,207.6,171.0,168.9,182.5,21.8
431.5,206.1,167.9,173.1,182.4,20.7
432.0,206.6,166.6,171.5,181.6,21.8
432.5,207.0,166.9,172.7,182.2,21.6
433.0,206.8,170.7,172.0,183.2,20.5
433.5,207.9,168.1,168.4,181.5,22.9
434.0,208.1,167.6,169.0,181.6,23.0
434.5,210.5,168.9,169.3,182.9,23.9
435.0,205.5,171.0,168.8,181.8,20.6
435.5,206.7,169.5,170.9,182.3,21.1
436.0,208.5,166.5,169.1,181.4,23.5
436.5,207.8,166.9,171.7,182.2,22.4
437.0,204.3,166.9,174.1,181.8,19.9
437.5,211.7,168.7,170.1,183.5,24.4
438.0,207.1,165.7,169.7,180.8,22.8
438.5,205.7,166.6,171.0,181.1,21.4
439.0,209.2,165.9,165.5,180.2,25.1
439.5,209.9,168.1,168.6,182.2,24.0
440.0,202.4,165.4,169.9,179.2,20.2
440.5,203.1,166.5,169.1,179.6,20.4
441.0,201.2,168.7,166.2,178.7,19.5
441.5,204.1,165.5,170.5,180.0,21.0
442.0,203.8,165.5,170.3,179.9,20.8
442.5,202.3,162.7,167.1,177.3,21.7
443.0,200.9,167.1,168.2,178.7,19.2
443.5,201.3,169.6,166.8,179.2,19.2
444.0,199.3,168.2,166.8,178.1,18.4
444.5,200.7,168.6,168.1,179.1,18.6
445.0,197.1,167.3,167.2,177.2,17.2
445.5,198.8,167.5,169.5,178.6,17.5
446.0,198.7,165.7,167.0,177.1,18.7
446.5,196.7,166.6,167.3,176.9,17.2
447.0,199.0,169.3,167.7,178.7,17.6
447.5,200.2,165.7,167.4,177.8,19.5
448.0,198.6,165.9,166.6,177.1,18.7
448.5,196.9,168.5,164.8,176.8,17.6
449.0,201.6,166.9,165.9,178.2,20.3
449.5,199.9,167.8,166.2,177.9,19.1
450.0,199.6,168.4,164.4,177.5,19.3
450.5,201.9,169.0,167.0,179.3,19.6
451.0,197.6,170.0,163.2,177.0,18.2
451.5,197.2,169.2,165.6,177.3,17.3
452.0,199.3,168.7,164.5,177.5,19.0
452.5,195.2,167.0,162.2,174.8,17.9
453.0,197.1,170.5,163.6,177.1,17.7
453.5,193.4,166.5,162.2,174.1,16.9
454.0,192.4,167.7,162.7,174.3,15.9
454.5,194.9,167.5,162.3,174.9,17.5
455.0,194.7,167.1,160.9,174.2,18.0
455.5,195.3,167.0,160.3,174.2,18.5
456.0,190.2,168.1,162.2,173.5,14.8
456.5,192.2,168.2,162.7,174.4,15.7
457.0,191.9,169.4,161.9,174.4,15.6
457.5,190.3,170.3,162.5,174.4,14.3
458.0,193.4,167.0,161.8,174.0,17.0
458.5,190.5,166.6,163.9,173.7,14.6
459.0,189.8,164.5,160.0,171.4,16.1
459.5,189.5,169.5,161.2,173.4,14.5
460.0,189.1,167.7,161.9,172.9,14.3
460.5,188.5,165.7,162.4,172.2,14.2
461.0,189.6,165.6,162.4,172.5,14.8
461.5,188.4,165.9,159.6,171.3,15.1
462.0,184.5,163.6,161.9,170.0,12.6
462.5,188.8,165.7,162.3,172.2,14.4
463.0,181.9,164.3,162.4,169.5,10.7
463.5,185.9,163.4,162.0,170.4,13.4
464.0,181.7,167.9,159.8,169.8,11.1
464.5,185.7,164.0,159.3,169.7,14.1
465.0,182.1,165.5,160.5,169.4,11.3
465.5,181.7,163.5,158.0,167.7,12.4
466.0,181.0,167.5,160.7,169.7,10.3
466.5,183.7,165.0,158.3,169.0,13.1
467.0,183.3,164.5,156.4,168.1,13.8
467.5,179.7,165.0,155.9,166.9,12.0
468.0,177.7,165.9,157.6,167.0,10.1
468.5,181.4,166.3,157.6,168.4,12.1
469.0,180.9,165.5,154.1,166.8,13.5
469.5,181.3,163.2,156.3,166.9,12.9
470.0,180.3,164.1,156.6,167.0,12.1
470.5,182.0,165.6,155.2,167.6,13.5
471.0,180.5,165.4,152.9,166.3,13.8
471.5,181.8,164.6,155.6,167.3,13.3
472.0,177.4,165.2,155.2,165.9,11.1
472.5,178.0,165.0,155.0,166.0,11.5
473.0,179.4,164.5,152.7,165.5,13.4
473.5,179.7,165.8,155.4,167.0,12.2
474.0,178.0,166.9,151.1,165.3,13.5
474.5,176.9,168.4,152.5,165.9,12.4
475.0,174.3,165.9,154.4,164.9,10.0
475.5,178.0,165.2,153.3,165.5,12.4
476.0,175.5,166.5,153.1,165.1,11.3
476.5,177.9,166.7,154.3,166.3,11.8
477.0,176.9,166.2,151.4,164.8,12.8
477.5,176.6,168.3,153.8,166.2,11.5
478.0,176.3,165.0,153.0,164.8,11.7
478.5,172.6,168.0,150.2,163.6,11.8
479.0,175.3,166.7,149.6,163.8,13.1
479.5,177.7,168.8,152.6,166.4,12.7
480.0,171.5,166.9,149.7,162.7,11.5
480.5,171.8,165.8,151.6,163.1,10.3
481.0,172.9,165.5,149.7,162.7,11.9
481.5,174.2,167.6,150.3,164.0,12.4
482.0,171.0,167.8,149.1,162.6,11.8
482.5,170.2,164.2,148.5,161.0,11.2
483.0,174.3,166.7,148.7,163.2,13.1
483.5,174.1,165.2,148.5,162.6,13.0
484.0,171.6,165.2,147.2,161.3,12.7
484.5,173.7,165.9,146.5,162.0,14.0
485.0,175.1,163.6,147.5,162.1,13.9
485.5,174.0,165.2,146.0,161.7,14.3
486.0,172.5,165.6,146.2,161.4,13.6
486.5,173.5,165.4,147.9,162.3,13.1
487.0,172.5,164.4,144.9,160.6,14.2
487.5,172.5,164.7,145.5,160.9,13.9
488.0,170.6,164.2,146.3,160.4,12.6
488.5,172.6,164.7,143.9,160.4,14.8
489.0,170.4,169.3,144.9,161.5,14.5
489.5,170.4,165.5,143.4,159.8,14.4
490.0,172.8,164.2,142.7,159.9,15.5
490.5,169.1,164.8,142.7,158.9,14.2
491.0,168.2,165.1,145.2,159.5,12.5
491.5,169.9,164.3,143.4,159.2,14.0
492.0,172.8,165.9,143.2,160.6,15.5
492.5,169.8,163.5,144.0,159.1,13.4
493.0,169.5,164.0,141.2,158.2,15.0
493.5,166.5,161.2,140.2,156.0,13.9
494.0,166.6,164.1,142.1,157.6,13.5
494.5,169.0,163.5,140.5,157.7,15.1
495.0,169.5,163.6,140.3,157.8,15.4
495.5,167.0,162.4,141.5,157.0,13.6
496.0,165.1,162.8,141.4,156.5,13.1
496.5,166.3,163.6,140.2,156.7,14.3
497.0,166.5,162.2,139.8,156.2,14.3
497.5,166.8,161.0,138.7,155.5,14.9
498.0,164.8,162.3,138.4,155.2,14.6
498.5,166.4,163.0,140.8,156.7,13.9
499.0,165.5,163.0,141.1,156.5,13.4
499.5,164.9,162.4,136.8,154.7,15.5
500.0,166.1,162.7,135.1,154.6,17.0
500.5,164.8,163.6,139.0,155.8,14.6
501.0,160.7,162.1,135.7,152.8,14.9
501.5,162.5,162.2,140.6,155.1,12.6
502.0,161.5,161.1,136.8,153.1,14.2
502.5,163.9,162.3,135.2,153.8,16.1
503.0,162.0,162.8,136.2,153.7,15.1
503.5,160.0,163.9,134.2,152.7,16.2
504.0,160.7,160.2,134.0,151.6,15.2
504.5,158.1,160.0,133.7,150.6,14.7
505.0,162.8,161.3,135.2,153.1,15.5
505.5,160.0,162.8,134.1,152.3,15.8
506.0,157.3,162.4,135.2,151.7,14.4
506.5,158.9,162.5,134.9,152.1,15.0
507.0,159.0,161.5,135.9,152.1,14.1
507.5,158.8,162.5,136.0,152.4,14.4
508.0,159.9,164.3,133.9,152.7,16.5
508.5,159.8,161.4,130.6,150.6,17.4
509.0,158.9,160.7,130.2,150.0,17.1
509.5,161.3,159.1,130.7,150.4,17.1
510.0,156.3,159.2,129.9,148.5,16.1
510.5,159.7,162.9,128.1,150.2,19.2
511.0,157.4,159.6,127.5,148.2,17.9
511.5,158.7,158.8,128.0,148.5,17.8
512.0,158.4,158.9,127.0,148.1,18.3
512.5,157.9,156.8,128.4,147.7,16.7
513.0,154.9,159.3,123.7,145.9,19.4
513.5,156.3,159.3,125.4,147.0,18.8
514.0,155.6,157.5,125.5,146.2,17.9
514.5,157.2,158.0,125.3,146.8,18.7
515.0,154.2,159.1,122.6,145.3,19.8
515.5,154.9,156.9,122.7,144.8,19.2
516.0,156.0,155.2,122.6,144.6,19.0
516.5,154.1,161.2,120.8,145.4,21.6
517.0,151.6,155.7,121.0,142.8,19.0
517.5,153.9,157.4,121.9,144.4,19.6
518.0,153.1,156.3,120.4,143.3,19.9
518.5,154.1,155.9,121.4,143.8,19.4
519.0,151.2,156.6,119.5,142.4,20.1
519.5,154.2,156.8,119.3,143.4,20.9
520.0,150.7,157.1,116.7,141.5,21.7
520.5,150.5,154.9,118.5,141.3,19.9
521.0,152.1,155.8,116.6,141.5,21.6
521.5,152.7,157.2,114.5,141.5,23.5
522.0,151.8,152.6,116.2,140.2,20.8
522.5,151.6,155.9,115.3,140.9,22.3
523.0,152.1,155.8,112.2,140.0,24.2
523.5,149.3,154.4,113.6,139.1,22.2
524.0,151.3,152.1,112.4,138.6,22.7
524.5,151.6,153.1,113.1,139.3,22.6
525.0,150.5,152.8,112.9,138.7,22.4
525.5,149.5,152.9,112.1,138.2,22.6
526.0,148.3,154.6,109.5,137.5,24.5
526.5,148.6,152.2,110.8,137.2,22.9
527.0,148.1,153.2,110.8,137.4,23.1
527.5,148.3,155.2,110.7,138.0,23.9
528.0,150.3,154.8,109.5,138.2,24.9
528.5,148.4,153.7,108.9,137.0,24.5
529.0,148.4,154.1,107.5,136.7,25.4
529.5,149.9,151.3,107.5,136.2,24.9
530.0,146.4,155.8,106.8,136.3,26.0
530.5,147.6,153.9,107.0,136.2,25.5
531.0,146.9,151.9,108.6,135.8,23.7
531.5,147.7,153.9,105.0,135.5,26.6
532.0,146.6,151.6,105.9,134.7,25.1
532.5,145.3,152.8,105.6,134.6,25.3
533.0,147.3,152.0,104.0,134.4,26.5
533.5,147.1,152.5,101.9,133.8,27.8
534.0,148.1,153.9,103.2,135.0,27.8
534.5,144.8,151.2,101.4,132.5,27.1
535.0,144.6,149.6,101.5,131.9,26.4
535.5,144.5,147.8,100.2,130.8,26.6
536.0,143.6,148.4,101.6,131.2,25.8
536.5,142.8,146.1,99.7,129.5,25.9
537.0,145.1,143.3,100.9,129.8,25.0
537.5,147.5,144.8,98.5,130.3,27.5
538.0,144.4,144.5,99.8,129.6,25.8
538.5,144.1,143.3,96.2,127.9,27.4
539.0,142.7,144.2,98.2,128.4,26.1
539.5,142.3,144.1,96.2,127.5,27.1
540.0,144.5,143.9,96.1,128.2,27.8
540.5,146.2,143.2,95.6,128.4,28.4
541.0,144.0,144.0,95.8,127.9,27.9
541.5,143.4,140.7,94.0,126.0,27.8
542.0,143.2,140.2,93.5,125.6,27.9
542.5,143.1,142.0,92.8,126.0,28.7
543.0,144.2,139.0,93.1,125.4,28.1
543.5,142.8,139.7,92.3,124.9,28.3
544.0,140.3,138.5,90.7,123.2,28.2
544.5,140.8,138.9,92.6,124.1,27.3
545.0,143.1,140.1,90.5,124.6,29.6
545.5,141.5,136.5,89.8,122.6,28.5
546.0,140.8,138.9,89.6,123.1,29.0
546.5,140.2,138.6,89.4,122.7,28.9
547.0,138.6,136.3,89.6,121.5,27.7
547.5,141.2,139.2,90.0,123.5,29.0
548.0,140.4,137.0,89.4,122.2,28.5
548.5,140.4,134.7,88.5,121.2,28.4
549.0,139.2,134.7,90.1,121.3,27.1
549.5,139.5,133.9,88.4,120.6,28.0
550.0,138.6,133.2,88.3,120.0,27.6
550.5,138.8,131.6,87.9,119.4,27.5
551.0,136.8,130.1,87.6,118.2,26.7
551.5,138.7,130.9,87.2,118.9,27.7
552.0,138.1,130.5,88.1,118.9,27.0
552.5,136.8,129.6,86.8,117.8,27.0
553.0,136.7,131.7,87.5,118.6,27.1
553.5,138.6,129.6,88.2,118.8,26.9
554.0,134.8,128.1,86.4,116.4,26.2
554.5,140.0,128.8,88.0,118.9,27.4
555.0,134.8,127.7,87.0,116.5,25.8
555.5,137.9,127.4,88.2,117.8,26.2
556.0,138.2,126.0,86.0,116.7,27.3
556.5,136.7,125.1,86.4,116.1,26.4
557.0,138.2,125.2,86.4,116.6,27.0
557.5,136.1,125.1,86.7,116.0,25.9
558.0,137.1,126.7,85.9,116.6,27.0
558.5,139.2,124.8,86.2,116.7,27.4
559.0,137.1,124.3,85.9,115.8,26.7
559.5,137.9,123.9,85.9,115.9,26.9
560.0,135.1,125.1,85.1,115.1,26.5
560.5,137.2,124.9,85.8,116.0,26.8
561.0,135.5,124.0,84.7,114.7,26.7
561.5,138.7,124.0,86.0,116.2,27.2
562.0,138.1,122.2,85.7,115.4,26.9
562.5,135.6,125.1,86.4,115.7,25.9
563.0,137.8,123.7,85.2,115.6,27.2
563.5,136.4,122.6,85.6,114.9,26.3
564.0,137.0,122.1,84.0,114.4,27.3
564.5,138.0,122.6,87.0,115.9,26.2
565.0,135.6,120.5,86.1,114.1,25.4
565.5,137.1,122.4,85.7,115.1,26.5
566.0,137.6,121.7,85.8,115.0,26.6
566.5,138.3,120.8,86.5,115.2,26.3
567.0,140.7,120.4,85.9,115.7,27.7
567.5,136.6,119.2,87.3,114.4,25.0
568.0,134.1,120.9,86.9,114.0,24.4
568.5,138.3,119.7,85.7,114.6,26.7
569.0,136.6,118.3,86.9,113.9,25.1
569.5,136.1,117.8,88.0,114.0,24.3
570.0,136.0,118.4,88.1,114.2,24.2
570.5,137.1,117.1,86.0,113.4,25.8
571.0,135.3,114.9,85.8,112.0,24.9
571.5,135.6,120.3,87.2,114.4,24.8
572.0,136.2,119.2,86.7,114.0,25.2
572.5,136.6,116.7,87.4,113.5,24.8
573.0,137.3,117.0,86.5,113.6,25.5
573.5,134.5,116.3,87.0,112.6,24.0
574.0,135.1,114.7,86.7,112.2,24.3
574.5,135.2,114.1,86.0,111.7,24.7
575.0,135.3,113.6,87.0,111.9,24.2
575.5,134.3,113.8,85.8,111.3,24.4
576.0,136.2,110.9,86.0,111.0,25.1
576.5,134.2,111.1,85.4,110.2,24.4
577.0,133.6,112.0,85.5,110.4,24.1
577.5,134.6,110.7,85.1,110.1,24.7
578.0,133.6,110.4,84.7,109.6,24.4
578.5,133.8,109.4,85.6,109.6,24.1
579.0,132.4,110.1,84.2,108.9,24.2
579.5,132.4,107.0,83.5,107.7,24.5
580.0,132.4,108.8,84.0,108.4,24.2
580.5,132.5,107.0,82.5,107.3,25.0
581.0,131.7,106.1,83.7,107.2,24.1
581.5,130.0,106.9,82.1,106.3,23.9
582.0,129.3,105.5,83.1,106.0,23.1
582.5,129.4,106.4,82.9,106.2,23.3
583.0,129.2,105.8,83.4,106.1,22.9
583.5,129.3,102.3,84.0,105.2,22.8
584.0,128.7,101.1,83.1,104.3,23.0
584.5,128.9,101.6,83.7,104.7,22.8
585.0,130.2,100.6,83.5,104.8,23.7
585.5,131.3,100.1,82.6,104.7,24.7
586.0,127.8,100.8,81.4,103.3,23.3
586.5,128.2,98.8,83.3,103.4,22.8
587.0,128.8,99.0,84.1,103.9,22.8
587.5,126.5,98.6,83.1,102.7,22.0
588.0,127.9,98.1,83.3,103.1,22.7
588.5,126.9,96.1,83.1,102.0,22.5
589.0,125.8,96.7,81.7,101.4,22.4
589.5,127.6,96.8,82.8,102.4,23.0
590.0,124.5,95.5,81.9,100.6,21.8
590.5,124.4,97.2,83.0,101.6,21.0
591.0,124.9,93.4,83.3,100.6,21.7
591.5,124.3,94.5,81.9,100.2,21.8
592.0,124.6,94.4,82.3,100.4,21.8
592.5,124.1,91.1,84.1,99.8,21.4
593.0,124.0,91.5,83.6,99.7,21.4
593.5,122.3,90.6,84.0,99.0,20.5
594.0,124.5,90.7,83.5,99.6,21.9
594.5,121.9,89.6,84.4,98.6,20.3
595.0,121.0,88.5,84.5,98.0,20.0
595.5,124.1,88.7,83.8,98.9,22.0
596.0,122.9,89.3,84.3,98.8,21.0
596.5,120.4,89.2,84.6,98.0,19.5
597.0,119.9,89.8,,104.9,21.3
597.5,121.7,88.1,,104.9,23.8
598.0,120.6,90.5,,105.5,21.3
598.5,120.7,89.1,,104.9,22.3
599.0,119.6,89.4,,104.5,21.4
599.5,119.3,89.1,,104.2,21.4
600.0,119.4,87.3,,103.3,22.7
600.5,120.3,89.0,,104.7,22.1
601.0,119.2,90.6,,104.9,20.2
601.5,119.5,88.6,,104.0,21.8
602.0,120.1,87.9,,104.0,22.8
602.5,118.9,89.3,,104.1,20.9
603.0,118.0,86.9,,102.4,22.0
603.5,119.7,87.6,,103.7,22.6
604.0,118.7,88.3,,103.5,21.5
604.5,118.4,87.7,,103.0,21.7
605.0,116.3,86.1,,101.2,21.4
605.5,118.2,86.9,,102.6,22.2
606.0,116.7,85.7,,101.2,21.9
606.5,115.9,85.8,,100.8,21.3
607.0,115.8,85.4,,100.6,21.5
607.5,116.0,85.0,,100.5,21.9
608.0,114.6,84.7,,99.7,21.1
608.5,111.9,84.3,,98.1,19.5
609.0,113.2,85.8,,99.5,19.4
609.5,111.4,85.5,,98.4,18.3
610.0,111.6,84.0,,97.8,19.5
610.5,112.8,86.0,,99.4,19.0
611.0,110.4,84.8,,97.6,18.1
611.5,110.5,85.0,,97.7,18.0
612.0,110.1,85.5,,97.8,17.4
612.5,111.7,85.3,,98.5,18.7
613.0,110.7,83.8,,97.2,19.0
613.5,108.7,83.9,,96.3,17.6
614.0,108.3,84.4,,96.3,16.9
614.5,109.4,85.2,,97.3,17.1
615.0,107.1,84.2,,95.6,16.2
615.5,108.0,84.5,,96.3,16.6
616.0,106.6,86.0,,96.3,14.5
616.5,109.5,85.2,,97.3,17.2
617.0,105.2,84.2,,94.7,14.8
617.5,105.2,83.4,,94.3,15.4
618.0,107.5,84.0,,95.8,16.6
618.5,106.4,85.4,,95.9,14.8
619.0,105.3,84.0,,94.7,15.1
619.5,106.6,82.1,,94.4,17.3
620.0,106.0,82.3,,94.1,16.8
620.5,105.4,84.2,,94.8,14.9
621.0,104.8,83.0,,93.9,15.5
621.5,104.1,82.7,,93.4,15.1
622.0,102.7,83.6,,93.1,13.5
622.5,102.1,82.1,,92.1,14.1
623.0,101.9,82.8,,92.3,13.5
623.5,101.5,82.6,,92.1,13.3
624.0,100.8,83.0,,91.9,12.6
624.5,101.0,81.7,,91.4,13.6
625.0,102.0,81.8,,91.9,14.3
625.5,100.6,81.6,,91.1,13.4
626.0,101.0,82.5,,91.7,13.1
626.5,100.4,82.6,,91.5,12.6
627.0,100.7,82.8,,91.8,12.6
627.5,98.9,82.4,,90.7,11.7
628.0,98.1,81.1,,89.6,12.0
628.5,99.6,83.3,,91.5,11.5
629.0,97.8,81.4,,89.6,11.6
629.5,98.5,81.9,,90.2,11.8
630.0,99.2,81.5,,90.3,12.5
630.5,98.1,82.9,,90.5,10.8
631.0,98.1,82.0,,90.0,11.4
631.5,97.0,82.5,,89.8,10.3
632.0,97.7,82.0,,89.9,11.1
632.5,98.5,81.9,,90.2,11.7
633.0,97.3,82.7,,90.0,10.4
633.5,95.5,80.4,,87.9,10.7
634.0,98.0,81.7,,89.9,11.5
634.5,97.6,81.9,,89.8,11.1
635.0,96.3,84.3,,90.3,8.4
635.5,95.6,81.2,,88.4,10.2
636.0,95.4,82.0,,88.7,9.5
636.5,95.8,82.4,,89.1,9.4
637.0,95.5,81.4,,88.5,9.9
637.5,96.9,81.9,,89.4,10.6
638.0,94.7,82.5,,88.6,8.7
638.5,93.5,82.0,,87.7,8.1
639.0,94.7,81.3,,88.0,9.5
639.5,93.3,81.3,,87.3,8.5
640.0,95.2,82.1,,88.6,9.3
640.5,94.0,82.2,,88.1,8.3
641.0,93.7,82.8,,88.3,7.7
641.5,92.8,83.1,,88.0,6.8
642.0,92.8,82.6,,87.7,7.3
642.5,92.7,83.4,,88.1,6.6
643.0,93.2,81.4,,87.3,8.3
643.5,91.6,82.9,,87.3,6.2
644.0,92.4,82.4,,87.4,7.1
644.5,94.1,82.3,,88.2,8.4
645.0,92.3,84.1,,88.2,5.7
645.5,91.4,82.5,,87.0,6.3
646.0,91.3,83.0,,87.2,5.9
646.5,92.4,,,92.4,
647.0,90.1,,,90.1,
647.5,91.9,,,91.9,
648.0,92.4,,,92.4,
648.5,91.6,,,91.6,
649.0,91.7,,,91.7,
649.5,91.1,,,91.1,
650.0,89.8,,,89.8,
650.5,90.5,,,90.5,
651.0,89.4,,,89.4,
651.5,89.0,,,89.0,
652.0,90.2,,,90.2,
652.5,88.6,,,88.6,
653.0,88.1,,,88.1,
653.5,87.2,,,87.2,
654.0,87.8,,,87.8,
654.5,87.8,,,87.8,
655.0,86.5,,,86.5,
655.5,87.8,,,87.8,
656.0,85.9,,,85.9,
656.5,87.4,,,87.4,
657.0,86.5,,,86.5,
657.5,87.4,,,87.4,
658.0,87.4,,,87.4,
658.5,87.1,,,87.1,
659.0,86.9,,,86.9,
659.5,86.7,,,86.7,
660.0,86.1,,,86.1,
660.5,85.6,,,85.6,
661.0,85.5,,,85.5,
661.5,86.0,,,86.0,
662.0,85.2,,,85.2,
662.5,86.1,,,86.1,