File: 01_Data/ABS/Cone/ABS_Cone_HF25Scan_220217_R2.csv
Names,Time,Stack TC,Smoke TC,Exh Press,Smoke Comp,Smoke Meas,CO Meter,CO2 Meter,O2 Meter,Sample Mass,Ext Coeff,Start Test,Flame Verif
Chan Gain,,500,500,1,1,1,1,1,1,1,1,1.0,1.0
Offset,,0,0,0.140898,0,0,0,0,0,0,0,0.0,0.0
Gain,,1,1,25.011,12.9668,12.6588,1,1,1,1.00088,1.01977,1.0,1.0
Units,sec,C,C,Pa,%,%,%,%,%,g,/m,,
Baseline,,16.7909,17.8483,159.489,97.5867,101.431,-0.00426955,0.0402704,21.041,-871.128,-0.345657,,
4,0.75,16.1864,17.017,162.643,96.317,100.139,-0.00454684,0.0413096,21.0437,33.3893,-0.348085,0.0,0.0
8,1.75,16.6444,17.3761,156.717,96.3292,100.163,-0.00452315,0.0411068,21.0445,33.4494,-0.34912,0.0,0.0
12,2.75,15.9766,16.5744,156.819,96.3407,100.17,-0.00450546,0.0408556,21.0452,33.4394,-0.348641,0.0,0.0
16,3.75,16.0044,17.0159,162.386,96.3554,100.115,-0.00450671,0.0405778,21.0456,33.3193,-0.342417,0.0,0.0
20,4.75,15.8824,16.5275,159.063,96.3736,100.131,-0.00451314,0.0403255,21.0459,33.4394,-0.342176,0.0,0.0
24,5.75,16.2486,16.8464,158.341,96.3787,100.104,-0.00453166,0.0401418,21.0468,33.3593,-0.339283,0.0,0.0
28,6.75,15.8423,16.6606,162.158,96.3878,100.285,-0.00454221,0.0400552,21.0474,33.3893,-0.354579,0.0,0.0
32,7.75,16.3633,17.326,163.471,96.4016,100.119,-0.00454153,0.0399795,21.0478,33.3793,-0.338464,0.0,0.0
36,8.75,16.2539,16.943,156.487,96.4191,100.316,-0.00452758,0.0398495,21.048,33.3693,-0.354435,0.0,0.0
40,9.75,15.9953,17.3931,160.593,96.4191,100.228,-0.00450973,0.0397251,21.0482,33.3993,-0.346543,0.0,0.0
44,10.75,15.7753,16.548,164.861,96.4218,100.19,-0.00449784,0.0395988,21.0483,33.3693,-0.342941,0.0,0.0
48,11.75,15.6797,17.2283,155.6,96.4349,100.279,-0.00449929,0.0394699,21.0483,33.3693,-0.349693,0.0,0.0
52,12.75,16.0902,17.3373,159.766,96.4329,100.234,-0.00451642,0.0393515,21.0484,33.3793,-0.345809,0.0,0.0
56,13.75,16.5231,17.2059,160.041,96.4503,100.209,-0.00453888,0.0392977,21.0492,33.3593,-0.342022,0.0,0.0
60,14.75,16.1468,17.403,162.746,96.4531,100.251,-0.00455649,0.0391669,21.0498,33.3593,-0.345488,0.0,0.0
64,15.75,16.7057,17.4902,159.747,96.4586,100.312,-0.00452967,0.0390332,21.0501,33.3493,-0.350385,0.0,0.0
68,16.75,16.232,17.4349,159.274,96.48,100.298,-0.00450125,0.0388978,21.0504,33.3693,-0.347163,0.0,0.0
72,17.75,16.4981,17.0669,156.943,96.4946,100.248,-0.00449494,0.038785,21.0505,33.3593,-0.341395,0.0,0.0
76,18.75,16.6575,17.3159,160.308,96.4891,100.356,-0.00452766,0.0386357,21.0506,33.3493,-0.351521,0.0,0.0
80,19.75,15.9714,16.913,157.691,96.5073,100.258,-0.00458126,0.0385175,21.0507,33.3593,-0.341083,0.0,0.0
84,20.75,16.6009,17.3094,159.748,96.5132,100.329,-0.00462319,0.0384696,21.0507,33.3493,-0.346873,0.0,0.0
88,21.75,16.5283,17.1396,157.514,96.5283,100.293,-0.00465606,0.0384324,21.0507,33.3593,-0.34224,0.0,0.0
92,22.75,16.6954,17.641,161.557,96.5374,100.383,-0.00469047,0.0383516,21.0508,33.3493,-0.349422,0.0,0.0
96,23.75,16.3459,17.3237,159.866,96.5477,100.23,-0.00474609,0.0382556,21.0508,33.3393,-0.334791,0.0,0.0
100,24.75,16.3652,17.0451,156.279,96.5667,100.327,-0.00480322,0.0381248,21.0508,33.3593,-0.341681,0.0,0.0
104,25.75,16.4504,17.2275,155.739,96.5722,100.359,-0.00483109,0.037945,21.0508,33.3693,-0.344061,0.0,0.0
108,26.75,16.495,17.4651,163.147,96.59,100.407,-0.00482962,0.037764,21.0508,33.3493,-0.346715,0.0,0.0
112,27.75,16.1754,17.5288,156.124,96.6043,100.436,-0.00478814,0.037654,21.0508,33.3593,-0.347943,0.0,0.0
116,28.75,16.5783,17.9267,162.004,96.626,100.466,-0.00475501,0.0375868,21.0515,33.3493,-0.348611,0.0,0.0
120,29.75,16.3464,17.6084,163.957,96.6379,100.469,-0.00474916,0.0374863,21.0522,33.3493,-0.347787,0.0,0.0
124,30.75,16.4656,17.6698,155.141,96.6498,100.334,-0.00475445,0.0374052,21.0526,33.3493,-0.334676,0.0,0.0
128,31.75,16.2826,18.1176,157.62,96.6703,100.547,-0.00475957,0.0373998,21.0529,33.3393,-0.351695,0.0,0.0
132,32.75,16.6317,17.2445,162.117,96.687,100.489,-0.00475662,0.0373962,21.0528,33.3393,-0.345035,0.0,0.0
136,33.75,16.6421,17.147,159.539,96.6965,100.531,-0.00474443,0.0373535,21.0527,33.3493,-0.347904,0.0,0.0
140,34.75,16.3984,17.7454,159.623,96.7202,100.539,-0.00472234,0.0372533,21.0527,33.3493,-0.346361,0.0,0.0
144,35.75,15.8598,16.9851,163.565,96.7348,100.468,-0.00469158,0.0371624,21.0526,33.3393,-0.338714,0.0,0.0
148,36.75,16.3854,17.5379,156.858,96.7435,100.58,-0.00463452,0.0371197,21.0526,33.3393,-0.347879,0.0,0.0
152,37.75,15.8379,17.3462,159.221,96.7701,100.505,-0.00458554,0.0370709,21.0526,33.3493,-0.338724,0.0,0.0
156,38.75,16.6427,17.2752,158.076,96.7784,100.45,-0.00455991,0.036988,21.0526,33.3393,-0.333107,0.0,0.0
160,39.75,16.515,17.59,158.503,96.8009,100.582,-0.00455587,0.0369814,21.0526,33.3393,-0.342781,0.0,0.0
164,40.75,17.0666,17.667,158.372,96.8136,100.544,-0.00455474,0.0369395,21.0526,33.3393,-0.338174,0.0,0.0
168,41.75,16.0692,17.1882,162.386,96.8437,100.646,-0.00450259,0.0369018,21.0526,33.3393,-0.344465,0.0,0.0
172,42.75,17.1221,18.0628,159.296,96.8433,100.702,-0.00442457,0.0368395,21.0526,33.3293,-0.349513,0.0,0.0
176,43.75,16.7426,17.5575,157.955,96.8599,100.501,-0.00433479,0.0368073,21.0526,33.3293,-0.330082,0.0,0.0
180,44.75,16.5466,17.8616,159.813,96.8733,100.593,-0.00427639,0.0368051,21.0526,33.3193,-0.337018,0.0,0.0
184,45.75,16.2006,17.4001,159.372,96.8971,100.581,-0.00426966,0.0368375,21.0521,33.3193,-0.333761,0.0,0.0
188,46.75,16.4269,17.7101,162.191,96.9121,100.553,-0.00430533,0.0368111,21.0515,33.3293,-0.3299,0.0,0.0
192,47.75,16.6899,17.6052,159.177,96.9276,100.483,-0.00436419,0.0367937,21.0511,33.3193,-0.322286,0.0,0.0
196,48.75,16.7077,17.8843,160.014,96.9434,100.426,-0.00442255,0.0368011,21.0508,33.3093,-0.315735,0.0,0.0
200,49.75,16.566,17.4297,154.517,96.9529,100.33,-0.00448617,0.0368111,21.0506,33.3093,-0.306252,0.0,0.0
204,50.75,16.5721,17.8932,162.746,96.9774,100.265,-0.00453472,0.0367988,21.0505,33.3193,-0.2982,0.0,0.0
208,51.75,16.832,17.7699,159.186,97.0023,100.441,-0.00457086,0.0367725,21.0502,33.3193,-0.311602,0.0,0.0
212,52.75,16.6564,17.4485,156.939,97.0154,100.358,-0.00456928,0.0367514,21.0496,33.3093,-0.302999,0.0,0.0
216,53.75,16.5097,17.5406,159.014,97.0316,100.178,-0.00454793,0.0367546,21.0494,33.2992,-0.285442,0.0,0.0
220,54.75,17.2644,17.7705,154.466,97.0407,100.357,-0.00453029,0.0367566,21.0492,33.3093,-0.300629,0.0,0.0
224,55.75,16.6938,17.9449,158.452,97.072,100.044,-0.00451643,0.0368115,21.0492,33.3093,-0.269778,0.0,0.0
228,56.75,16.7625,17.7521,156.955,97.0894,100.06,-0.00450106,0.0368839,21.0487,33.3093,-0.269591,0.0,0.0
232,57.75,16.977,17.74,159.812,97.1246,99.9951,-0.00446902,0.0369145,21.048,33.2992,-0.260542,0.0,0.0
236,58.75,16.67,18.2067,161.758,97.1226,100.214,-0.00443482,0.0369303,21.0474,33.3093,-0.280297,0.0,0.0
240,59.75,16.3802,18.2499,165.034,97.1519,100.175,-0.00443131,0.0370578,21.0472,33.3093,-0.274153,0.0,0.0
244,60.75,17.0886,17.9975,156.658,97.1594,100.148,-0.00444664,0.0372204,21.047,33.3093,-0.27101,0.0,0.0
248,61.75,17.1308,18.1612,155.13,97.1852,100.071,-0.00445814,0.0375546,21.0467,33.3093,-0.261773,0.0,0.0
252,62.75,16.4094,17.9464,162.102,97.1982,100.217,-0.00444977,0.0377704,21.0459,33.2992,-0.27358,0.0,0.0
256,63.75,17.0777,18.0154,162.884,97.2239,100.067,-0.00443371,0.0380453,21.0454,33.3193,-0.257859,0.0,0.0
260,64.75,17.1433,18.0901,156.91,97.2354,100.044,-0.00441246,0.0383929,21.0448,33.3093,-0.254731,0.0,0.0
264,65.75,17.5908,17.9706,158.693,97.2643,100.05,-0.00440067,0.0386576,21.0443,33.2992,-0.252557,0.0,0.0
268,66.75,17.2088,18.192,157.911,97.271,99.941,-0.00440638,0.0388787,21.0437,33.2892,-0.242227,0.0,0.0
272,67.75,17.1146,17.8351,156.049,97.2956,100.114,-0.00442518,0.0390687,21.0428,33.2892,-0.255449,0.0,0.0
276,68.75,16.781,18.0685,156.938,97.3078,99.9754,-0.00444958,0.039278,21.0423,33.2792,-0.241921,0.0,0.0
280,69.75,16.8883,18.0693,160.984,97.3158,100.056,-0.00446618,0.0393863,21.0419,33.2692,-0.248449,0.0,0.0
284,70.75,17.3366,18.3198,156.052,97.3379,100.011,-0.00447288,0.0395273,21.0419,33.2692,-0.24237,0.0,0.0
288,71.75,16.9451,17.848,160.171,97.366,100.145,-0.00446442,0.039582,21.0424,33.2692,-0.251737,0.0,0.0
292,72.75,17.5072,18.0968,156.448,97.3842,100.123,-0.00444975,0.039567,21.0428,33.2792,-0.248132,0.0,0.0
296,73.75,16.9296,17.5435,160.74,97.3953,100.158,-0.00444659,0.0394377,21.043,33.2592,-0.250219,0.0,0.0
300,74.75,16.739,18.025,157.338,97.4182,99.7838,-0.00446228,0.0393153,21.0436,33.2492,-0.214616,0.0,0.0
304,75.75,17.188,18.4006,156.601,97.4321,99.9136,-0.00449318,0.0392116,21.0448,33.2592,-0.224973,0.0,0.0
308,76.75,17.4563,18.333,156.569,97.4495,99.9298,-0.00453301,0.0391329,21.0456,33.2592,-0.224827,0.0,0.0
312,77.75,16.6117,18.3666,158.978,97.4669,100.136,-0.00456978,0.0390587,21.0461,33.2692,-0.241711,0.0,0.0
316,78.75,17.0852,18.3176,160.07,97.4772,100.219,-0.00459604,0.0389347,21.0465,33.2492,-0.248115,0.0,0.0
320,79.75,17.3474,18.1741,160.198,97.493,99.703,-0.00461328,0.0387202,21.0467,33.2492,-0.20051,0.0,0.0
324,80.75,17.0866,18.1899,159.463,97.4938,99.9642,-0.00463744,0.0385095,21.0468,33.2392,-0.223837,0.0,0.0
328,81.75,16.729,17.7882,159.043,97.5168,100.111,-0.00466829,0.0383461,21.0469,33.2292,-0.234823,0.0,0.0
332,82.75,17.101,18.3593,157.965,97.5381,100.036,-0.00469359,0.038235,21.0474,33.2392,-0.226198,0.0,0.0
336,83.75,17.4665,18.4055,157.96,97.5571,99.9611,-0.00470818,0.0380905,21.0481,33.2492,-0.217753,0.0,0.0
340,84.75,16.8797,17.8037,157.98,97.5623,99.8147,-0.00471934,0.0379379,21.0486,33.2492,-0.204169,0.0,0.0
344,85.75,16.8192,17.9102,158.406,97.5623,99.9537,-0.00473273,0.0378279,21.0489,33.2292,-0.216625,0.0,0.0
348,86.75,17.6341,18.4818,160.567,97.5844,99.8521,-0.00471367,0.0377726,21.0491,33.2392,-0.205496,0.0,0.0
352,87.75,17.3863,18.2828,156.265,97.5856,99.6578,-0.00466233,0.0377175,21.0492,33.2292,-0.187961,0.0,0.0
356,88.75,17.4146,18.431,160.94,97.6038,99.7196,-0.00457964,0.0376499,21.0493,33.2292,-0.191839,0.0,0.0
360,89.75,17.3581,18.3883,156.319,97.6216,99.4809,-0.00449539,0.0375633,21.0493,33.2292,-0.168765,0.0,0.0
364,90.75,17.5583,18.5336,155.22,97.6379,99.6049,-0.00442726,0.0374904,21.0494,33.2192,-0.178423,0.0,0.0
368,91.75,17.5559,18.2928,159.169,97.6513,99.7181,-0.0043944,0.0375405,21.0492,33.2292,-0.18735,0.0,0.0
372,92.75,17.2799,18.9267,160.007,97.6644,99.5222,-0.00439189,0.0375972,21.0485,33.2192,-0.168566,0.0,0.0
376,93.75,17.5016,18.7214,159.951,97.6715,99.7679,-0.00440602,0.0376035,21.048,33.1992,-0.189971,0.0,0.0
380,94.75,17.2736,18.4663,159.351,97.683,99.5284,-0.00444127,0.0375059,21.0477,33.2192,-0.167419,0.0,0.0
384,95.75,17.1837,18.7714,155.118,97.6925,99.4079,-0.00447959,0.0373465,21.0475,33.2192,-0.155709,0.0,0.0
388,96.75,17.429,18.3209,159.25,97.6917,99.3155,-0.00453259,0.0372418,21.0474,33.1992,-0.14747,0.0,0.0
392,97.75,17.5536,18.6975,156.642,97.6972,99.1232,-0.00457446,0.0372108,21.0476,33.2092,-0.129617,0.0,0.0
396,98.75,17.5727,18.4615,160.244,97.7198,99.5129,-0.00460893,0.037257,21.0483,33.1992,-0.16266,0.0,0.0
400,99.75,16.9309,18.5584,157.788,97.7123,98.9397,-0.00463459,0.0373025,21.0488,33.1891,-0.111665,0.0,0.0
404,100.75,17.2767,18.4224,156.9,97.7142,99.1942,-0.00464285,0.0374518,21.0491,33.1891,-0.134472,0.0,0.0
408,101.75,17.5378,18.5436,155.855,97.7265,98.7376,-0.00461185,0.037512,21.0493,33.1891,-0.0920759,0.0,0.0
412,102.75,17.9349,18.6185,164.427,97.7336,99.2101,-0.00454652,0.0375547,21.0495,33.1791,-0.134125,0.0,0.0
416,103.75,17.0306,18.8356,159.147,97.7439,99.0096,-0.00446081,0.0376065,21.0496,33.1591,-0.115087,0.0,0.0
420,104.75,17.3048,18.2302,156.897,97.7384,98.5506,-0.00440939,0.037704,21.0496,33.1591,-0.0740336,0.0,0.0
424,105.75,17.7028,18.5657,160.034,97.7447,98.7183,-0.00435798,0.0378315,21.0497,33.1491,-0.0886595,0.0,0.0
428,106.75,17.4377,18.3372,156.047,97.7431,98.925,-0.00434135,0.0379591,21.0486,33.1491,-0.107513,0.0,0.0
432,107.75,17.6589,18.912,157.739,97.7653,98.6959,-0.00428117,0.0380117,21.047,33.1291,-0.0847456,0.0,0.0
436,108.75,17.9683,18.5212,158.662,97.7605,98.9447,-0.00404415,0.0385676,21.044,33.1291,-0.107701,0.0,0.0
440,109.75,17.5015,18.8763,161.821,97.7609,98.597,-0.00344552,0.0406509,21.0272,33.0991,-0.0761757,0.0,1.0
444,110.75,17.0656,18.3902,154.466,97.7641,90.431,-0.00237722,0.0489237,20.9801,33.039,0.697469,0.0,1.0
448,111.75,17.7737,19.3014,150.599,97.7657,74.6079,-0.000701939,0.066558,20.901,32.8989,2.41817,0.0,1.0
452,112.75,18.2735,20.1979,145.309,97.7736,68.9209,0.0010673,0.0897743,20.8267,32.8489,3.12814,0.0,1.0
456,113.75,18.9681,21.0248,141.233,97.7681,62.0904,0.00365732,0.127924,20.7213,32.7988,4.06124,0.0,1.0
460,114.75,19.7695,22.0344,131.887,97.7772,60.1275,0.00616984,0.177814,20.5939,32.6587,4.34943,0.0,0.0
464,115.75,20.8683,24.3564,128.34,97.7823,56.7407,0.00900482,0.239071,20.4746,32.5086,4.86852,0.0,0.0
468,116.75,22.747,25.9426,126.807,97.7748,51.2056,0.0117393,0.301734,20.3451,32.4085,5.78601,0.0,0.0
472,117.75,23.98,28.2663,128.461,97.7748,51.8511,0.0141769,0.365753,20.2288,32.2683,5.67395,0.0,0.0
476,118.75,25.8232,29.8767,128.193,97.7934,53.0977,0.0163992,0.424066,20.1206,32.0782,5.46312,0.0,0.0
480,119.75,27.4741,32.3911,120.096,97.7851,49.5934,0.018117,0.48093,20.0372,31.9381,6.07311,0.0,0.0
484,120.75,28.8347,34.9945,127.96,97.7906,53.8526,0.0195824,0.530436,19.9732,31.838,5.33659,0.0,0.0
488,121.75,30.4523,37.0284,124.283,97.7926,53.8279,0.0208047,0.574753,19.919,31.6978,5.34088,0.0,0.0
492,122.75,31.7412,39.3288,128.367,97.7894,52.3703,0.0218514,0.616262,19.8757,31.5877,5.58616,0.0,0.0
496,123.75,32.9042,41.7271,128.37,97.7997,50.8246,0.0227697,0.643497,19.8365,31.3675,5.85508,0.0,0.0
500,124.75,34.9341,43.0588,123.003,97.7997,49.1936,0.0236318,0.678096,19.7999,31.2074,6.14686,0.0,0.0
504,125.75,36.4269,45.342,117.947,97.7859,47.4872,0.0244084,0.707606,19.7702,31.0573,6.46139,0.0,0.0
508,126.75,37.3452,47.5448,123.909,97.8049,48.9981,0.0251226,0.731437,19.7461,30.8971,6.18295,0.0,0.0
512,127.75,38.9268,49.0768,121.223,97.7981,49.4428,0.025785,0.752979,19.7255,30.757,6.10152,0.0,0.0
516,128.75,40.3539,50.8312,120.672,97.8056,49.7503,0.0263909,0.772845,19.7076,30.6069,6.04674,0.0,0.0
520,129.75,41.7632,52.595,120.222,97.8124,48.2135,0.0268792,0.790688,19.6928,30.4868,6.32804,0.0,0.0
524,130.75,43.0012,54.3153,122.383,97.8235,48.0849,0.0272634,0.805365,19.6775,30.2666,6.35295,0.0,0.0
528,131.75,44.3545,56.3406,119.846,97.8203,50.3827,0.0275646,0.820358,19.6605,30.1265,5.93509,0.0,0.0
532,132.75,45.5337,57.8305,122.675,97.81,45.957,0.0278162,0.834247,19.6471,29.9763,6.75659,0.0,0.0
536,133.75,46.6223,59.7142,125.009,97.8211,49.8473,0.0280531,0.846422,19.6369,29.8262,6.03074,0.0,0.0
540,134.75,47.9016,60.9404,115.648,97.8148,47.77,0.0282821,0.857561,19.6291,29.646,6.41092,0.0,0.0
544,135.75,48.2256,61.8771,126.037,97.8112,52.1416,0.0284936,0.866556,19.624,29.4759,5.6273,0.0,0.0
548,136.75,50.0392,64.051,117.779,97.8199,47.7256,0.0286818,0.874011,19.6209,29.3358,6.41971,0.0,0.0
552,137.75,51.258,65.0702,120.72,97.8191,47.442,0.0288354,0.880407,19.6197,29.1656,6.47294,0.0,0.0
556,138.75,52.48,66.9546,124.673,97.8144,47.884,0.0290139,0.885215,19.6189,29.0455,6.38956,0.0,0.0
560,139.75,52.9649,67.4545,119.448,97.8365,48.1992,0.0291765,0.888989,19.6192,28.8353,6.33289,0.0,0.0
564,140.75,54.1878,69.4061,122.267,97.8207,51.4918,0.0293154,0.891779,19.6194,28.7452,5.74034,0.0,0.0
568,141.75,55.3283,70.1511,117.199,97.8191,45.7535,0.0293645,0.895037,19.6189,28.5851,6.79714,0.0,0.0
572,142.75,55.8122,71.7987,120.148,97.8163,48.5353,0.0293201,0.898104,19.6184,28.415,6.26889,0.0,0.0
576,143.75,56.2204,71.6562,123,97.8219,48.6064,0.0292766,0.901307,19.6165,28.2848,6.2563,0.0,0.0
580,144.75,57.9592,73.7852,119.882,97.8314,48.7273,0.0292417,0.905231,19.6145,28.0646,6.23495,0.0,0.0
584,145.75,58.9077,75.2895,118.846,97.8219,49.8415,0.0292953,0.90877,19.6125,27.9045,6.03185,0.0,0.0
588,146.75,59.6811,75.9243,130.321,97.8239,46.6099,0.0293735,0.912459,19.609,27.7744,6.63167,0.0,0.0
592,147.75,59.9115,76.5591,117.002,97.8242,47.8056,0.0295418,0.916225,19.6056,27.6143,6.40513,0.0,0.0
596,148.75,61.2125,78.2635,119.162,97.8361,48.3545,0.0297139,0.920038,19.6002,27.4741,6.30408,0.0,0.0
600,149.75,62.0209,79.0514,119.405,97.8397,47.8372,0.0299087,0.923932,19.5954,27.274,6.40062,0.0,0.0
604,150.75,62.6576,80.2243,124.883,97.8468,49.7453,0.0301294,0.927708,19.5906,27.1639,6.05141,0.0,0.0
608,151.75,63.5241,81.0386,114.28,97.8397,48.3777,0.0304805,0.930983,19.5865,26.9837,6.30012,0.0,0.0
612,152.75,64.6046,82.1876,117.064,97.8444,45.8771,0.0308624,0.934134,19.5797,26.8035,6.77532,0.0,0.0
616,153.75,65.2944,82.9478,125.116,97.8409,45.5518,0.0311744,0.937665,19.5721,26.6534,6.83864,0.0,0.0
620,154.75,66.4394,83.5002,118.78,97.8413,47.0465,0.0314874,0.942205,19.5599,26.4632,6.54987,0.0,0.0
624,155.75,66.693,85.0137,114.559,97.8452,47.5243,0.0318895,0.948343,19.5449,26.3031,6.45983,0.0,0.0
628,156.75,67.5068,85.8314,119.124,97.844,46.6795,0.0323192,0.955416,19.534,26.133,6.62018,0.0,0.0
632,157.75,68.4516,86.6571,112.384,97.848,45.1408,0.0327418,0.959876,19.5251,25.9928,6.92038,0.0,0.0
636,158.75,68.9624,87.8536,121.949,97.848,43.655,0.03318,0.966291,19.5169,25.8027,7.21976,0.0,0.0
640,159.75,69.7424,88.6854,122.198,97.8401,44.9271,0.0335381,0.97183,19.5092,25.6325,6.96209,0.0,0.0
644,160.75,70.3742,89.4261,113.042,97.8464,42.2515,0.0338644,0.978032,19.497,25.4323,7.51193,0.0,0.0
648,161.75,71.373,90.3542,116.765,97.8428,42.408,0.0341024,0.98541,19.4834,25.3222,7.47854,0.0,0.0
652,162.75,72.0985,91.3985,117.18,97.8421,44.6826,0.0342989,0.992973,19.4711,25.1121,7.01109,0.0,0.0
656,163.75,72.8182,92.1945,124.528,97.844,42.2013,0.0345246,1.00008,19.4616,24.9519,7.52235,0.0,0.0
660,164.75,74.5996,92.3238,117.563,97.8448,47.9624,0.0347842,1.00704,19.4554,24.7718,6.37771,0.0,0.0
664,165.75,74.1794,94.0357,114.923,97.8389,43.4186,0.0350292,1.01551,19.4386,24.5616,7.26751,0.0,0.0
668,166.75,75.0747,94.8674,118.677,97.8401,44.8085,0.0353142,1.02471,19.4239,24.3814,6.98573,0.0,0.0
672,167.75,75.6832,95.7886,122.648,97.8452,44.5794,0.0356309,1.03322,19.4123,24.2113,7.03206,0.0,0.0
676,168.75,76.844,97.2656,114.718,97.844,42.6285,0.0359458,1.04195,19.4026,24.0211,7.43224,0.0,0.0
680,169.75,77.1418,98.0728,121.818,97.8409,44.5196,0.0363196,1.05016,19.3902,23.8509,7.04368,0.0,0.0
684,170.75,77.754,98.2358,115.058,97.8405,42.2944,0.0366823,1.05799,19.377,23.6808,7.50231,0.0,0.0
688,171.75,78.5447,99.3463,111.711,97.8436,40.7893,0.0370093,1.06582,19.3631,23.4906,7.82673,0.0,0.0
692,172.75,78.6882,99.6422,110.705,97.8361,45.0782,0.0373142,1.07402,19.3512,23.2804,6.9317,0.0,0.0
696,173.75,79.6172,100.667,114.185,97.8266,42.7862,0.0376035,1.08124,19.3431,23.1403,7.39763,0.0,0.0
700,174.75,79.9806,101.205,119.188,97.8302,44.1139,0.0378312,1.08762,19.3373,22.9902,7.12458,0.0,0.0
704,175.75,81.4281,101.627,108.903,97.8298,41.1567,0.0380835,1.09236,19.3322,22.77,7.74526,0.0,0.0
708,176.75,81.9343,103.412,115.742,97.8314,39.9718,0.0382824,1.09575,19.3285,22.5398,8.0067,0.0,0.0
712,177.75,82.6873,104.234,119.411,97.8302,41.786,0.0384231,1.09911,19.3225,22.3696,7.60955,0.0,0.0
716,178.75,83.0986,104.29,114.158,97.8254,43.5001,0.0385689,1.10306,19.3142,22.1995,7.2495,0.0,0.0
720,179.75,84.8714,105.017,121.959,97.8211,47.7438,0.0387322,1.10869,19.3026,22.0293,6.41642,0.0,0.0
724,180.75,84.5886,106.563,120.817,97.8128,42.9789,0.0389632,1.11459,19.2883,21.8292,7.35615,0.0,0.0
728,181.75,85.2901,107.418,107.055,97.8084,43.4974,0.0391794,1.12259,19.2749,21.659,7.2485,0.0,0.0
732,182.75,85.3273,107.885,112.163,97.8049,42.5548,0.039479,1.12977,19.2655,21.4689,7.44415,0.0,0.0
736,183.75,86.8595,107.777,118.494,97.8021,43.7933,0.0397585,1.13587,19.2573,21.2487,7.18727,0.0,0.0
740,184.75,87.1749,110.125,108.445,97.7977,43.1644,0.040017,1.142,19.2476,21.0985,7.31627,0.0,0.0
744,185.75,87.7756,110.423,115.147,97.7831,40.5675,0.0402879,1.1477,19.2371,20.8583,7.86996,0.0,0.0
748,186.75,87.7233,110.468,114.717,97.7811,42.2082,0.0405852,1.15396,19.2218,20.6882,7.51512,0.0,0.0
752,187.75,87.8815,111.484,108.387,97.7692,41.4306,0.0409053,1.16129,19.2097,20.498,7.68039,0.0,0.0
756,188.75,89.4962,113.299,115.261,97.7657,43.2741,0.0411152,1.16943,19.1954,20.3679,7.29063,0.0,0.0
760,189.75,90.106,113.529,109.563,97.7443,42.2395,0.0415951,1.17817,19.1876,20.1577,7.50513,0.0,0.0
764,190.75,91.5018,113.146,118.86,97.7506,39.368,0.0421516,1.18551,19.1789,19.9675,8.13548,0.0,0.0
768,191.75,91.8623,114.934,115.142,97.7285,38.7472,0.0428493,1.19554,19.1593,19.7273,8.27564,0.0,0.0
772,192.75,92.0444,115.754,109.873,97.7281,40.1743,0.0436624,1.2084,19.1295,19.4871,7.95207,0.0,0.0
776,193.75,92.6499,116.753,106.395,97.7206,38.3818,0.0445861,1.22186,19.0988,19.307,8.35968,0.0,0.0
780,194.75,93.2956,117.741,104.31,97.7087,42.3253,0.0455774,1.23719,19.0741,19.0968,7.48372,0.0,0.0
784,195.75,94.7051,118.279,101.078,97.6956,39.0829,0.0463983,1.25072,19.0572,18.8666,8.19546,0.0,0.0
788,196.75,94.2992,119.568,106.71,97.6925,37.2877,0.0471906,1.26176,19.0414,18.6564,8.6158,0.0,0.0
792,197.75,95.6,120.228,111.708,97.6766,38.4656,0.0477963,1.27329,19.0215,18.4162,8.33615,0.0,0.0
796,198.75,96.3107,120.955,106.785,97.6679,39.0524,0.0483528,1.28615,19.0024,18.2761,8.19991,0.0,0.0
800,199.75,97.1719,122.266,106.39,97.66,37.6636,0.0489544,1.29767,18.9812,18.0058,8.5231,0.0,0.0
804,200.75,97.5263,122.777,111.73,97.6406,36.0619,0.0496574,1.31137,18.9574,17.8056,8.91006,0.0,0.0
808,201.75,97.9881,124.101,105.438,97.6292,38.0252,0.0503709,1.32604,18.924,17.5154,8.4348,0.0,0.0
812,202.75,99.3018,125.136,102.829,97.6125,35.7254,0.0509877,1.34235,18.8908,17.2952,8.99134,0.0,0.0
816,203.75,98.986,125.581,103.749,97.5928,35.9263,0.0516298,1.35883,18.8652,17.125,8.93937,0.0,0.0
820,204.75,100.979,127.106,103.021,97.5848,37.4438,0.0521688,1.37395,18.8423,16.8848,8.56857,0.0,0.0
824,205.75,101.518,128.433,101.844,97.5686,36.9636,0.052621,1.38746,18.8241,16.6847,8.68255,0.0,0.0
828,206.75,102.598,129.181,113.975,97.5552,36.5093,0.0530042,1.39981,18.8103,16.4244,8.79194,0.0,0.0
832,207.75,103.367,129.968,117.169,97.518,36.8817,0.0534152,1.40974,18.7993,16.2643,8.69774,0.0,0.0
836,208.75,104.1,131.386,106.298,97.5172,38.9655,0.0538888,1.41859,18.7878,15.944,8.20603,0.0,0.0
840,209.75,104.31,131.141,111.408,97.5033,34.7376,0.0543682,1.42778,18.7774,15.7839,9.23215,0.0,0.0
844,210.75,104.735,131.707,103.234,97.4835,34.0241,0.0549848,1.43802,18.7602,15.5036,9.41599,0.0,0.0
848,211.75,105.629,133.506,103.603,97.4618,35.7981,0.0557254,1.44791,18.7464,15.2634,8.95935,0.0,0.0
852,212.75,107.014,134.606,98.2862,97.4499,34.8199,0.0563477,1.45942,18.7294,15.0332,9.20609,0.0,0.0
856,213.75,107.735,135.556,106.289,97.4254,33.1819,0.0571472,1.47104,18.7141,14.813,9.63486,0.0,0.0
860,214.75,107.807,135.807,104.616,97.4127,35.9124,0.0578737,1.48086,18.6985,14.6128,8.92631,0.0,0.0
864,215.75,108.921,137.508,97.2474,97.404,36.0345,0.0586246,1.49094,18.6851,14.3626,8.89516,0.0,0.0
868,216.75,109.896,137.963,97.9946,97.3716,33.501,0.0592231,1.50092,18.6675,14.1024,9.5443,0.0,0.0
872,217.75,110.06,139.147,102.582,97.3419,36.5572,0.0598964,1.51078,18.6521,13.8922,8.76063,0.0,0.0
876,218.75,110.747,139.692,106.688,97.3169,35.3604,0.0605478,1.51995,18.641,13.632,9.05609,0.0,0.0
880,219.75,111.852,140.817,106.25,97.296,33.1866,0.0610989,1.52727,18.6338,13.3417,9.62172,0.0,0.0
884,220.75,112.732,141.802,109.29,97.2683,32.1172,0.0616101,1.53299,18.6287,13.1516,9.91215,0.0,0.0
888,221.75,112.528,141.508,106.868,97.2564,33.6957,0.0620643,1.53793,18.6229,12.9614,9.48188,0.0,0.0
892,222.75,113.736,143.277,98.1068,97.2429,34.1574,0.0624196,1.54237,18.6152,12.6611,9.35891,0.0,0.0
896,223.75,114.497,143.873,96.939,97.216,34.4981,0.0626628,1.54866,18.6045,12.4009,9.26765,0.0,0.0
900,224.75,115.028,144.775,102.748,97.1875,34.8829,0.062794,1.55481,18.5956,12.1807,9.16581,0.0,0.0
904,225.75,115.88,145.784,113.153,97.1567,33.4037,0.0628486,1.55997,18.5893,11.9405,9.55057,0.0,0.0
908,226.75,116.32,146.529,103.268,97.1401,31.3624,0.062836,1.56479,18.582,11.7303,10.1131,0.0,0.0
912,227.75,117.062,147.125,98.103,97.1254,34.0446,0.0628135,1.57038,18.5719,11.4501,9.37769,0.0,0.0
916,228.75,117.441,147.748,105.691,97.1052,33.3647,0.0628302,1.57709,18.5593,11.2098,9.55629,0.0,0.0
920,229.75,117.961,148.62,103.834,97.0795,32.9791,0.0629494,1.58413,18.5422,11.0097,9.65789,0.0,0.0
924,230.75,118.665,149.365,105.712,97.0577,34.3795,0.063132,1.59273,18.527,10.7795,9.28388,0.0,0.0
928,231.75,119.55,149.808,104.355,97.0419,33.6088,0.0633664,1.60167,18.517,10.5092,9.48523,0.0,0.0
932,232.75,119.964,150.908,98.8686,97.0289,34.1006,0.0636224,1.609,18.5108,10.279,9.35408,0.0,0.0
936,233.75,120.557,151.367,93.6776,97.0016,30.3854,0.063884,1.61349,18.5051,9.98877,10.3834,0.0,0.0
940,234.75,120.852,152.125,108.503,96.9774,32.9722,0.0641106,1.61635,18.5014,9.80861,9.65036,0.0,0.0
944,235.75,121.443,152.542,94.4271,96.956,30.9764,0.0643274,1.61947,18.4997,9.53838,10.2069,0.0,0.0
948,236.75,122.137,153.478,101.697,96.9319,32.8041,0.0645758,1.62348,18.5004,9.30818,9.69187,0.0,0.0
952,237.75,122.451,154.148,104.909,96.9086,34.9424,0.0648042,1.62686,18.5009,9.04795,9.12485,0.0,0.0
956,238.75,123.394,154.597,98.5938,96.8896,32.4077,0.064994,1.62992,18.5012,8.7677,9.7967,0.0,0.0
960,239.75,123.747,155.066,97.3291,96.8698,34.3571,0.0650716,1.6316,18.5038,8.55752,9.27237,0.0,0.0
964,240.75,124.196,156.028,103.372,96.8417,32.8115,0.0648611,1.63181,18.5093,8.27727,9.68154,0.0,0.0
968,241.75,124.711,156.8,100.262,96.812,33.6084,0.0643651,1.62982,18.524,8.04707,9.46412,0.0,0.0
972,242.75,125.12,157.11,103.011,96.7875,32.1114,0.0636692,1.62479,18.5421,7.83688,9.86944,0.0,0.0
976,243.75,125.352,156.74,107.068,96.7665,32.2942,0.0628506,1.61622,18.5649,7.58666,9.81674,0.0,0.0
980,244.75,125.997,157.624,104.345,96.738,33.6668,0.0620807,1.60492,18.5874,7.35646,9.44176,0.0,0.0
984,245.75,126.436,157.561,103.075,96.7162,33.151,0.061164,1.5952,18.6084,7.14628,9.57784,0.0,0.0
988,246.75,126.316,157.843,100.196,96.6878,35.6659,0.060286,1.58361,18.631,6.88605,8.9211,0.0,0.0
992,247.75,125.997,157.488,99.6517,96.6632,34.2435,0.0594639,1.57149,18.6554,6.70589,9.28289,0.0,0.0
996,248.75,126.76,158.022,110.224,96.6387,34.4796,0.0587135,1.5571,18.6874,6.43565,9.21917,0.0,0.0
1000,249.75,126.635,157.986,108.355,96.6161,34.5742,0.0579607,1.54301,18.7189,6.25549,9.19257,0.0,0.0
1004,250.75,126.624,158.038,102.961,96.5924,36.7681,0.0572504,1.52545,18.7515,6.0353,8.64003,0.0,0.0
1008,251.75,126.493,157.821,98.8144,96.5706,37.3082,0.0563368,1.50608,18.7849,5.77507,8.50757,0.0,0.0
1012,252.75,127.101,157.66,101.173,96.5398,36.5243,0.0550322,1.48699,18.8178,5.64496,8.69465,0.0,0.0
1016,253.75,126.809,157.432,114.358,96.5271,36.189,0.0537136,1.46767,18.8529,5.41476,8.77598,0.0,0.0
1020,254.75,126.154,157.013,114.107,96.4978,38.2972,0.0522745,1.44765,18.8867,5.22459,8.26679,0.0,0.0
1024,255.75,126.295,156.46,104.117,96.4733,38.2489,0.0509202,1.42638,18.9216,4.97437,8.2758,0.0,0.0
1028,256.75,126.897,156.477,110.676,96.4602,34.4869,0.0496384,1.40664,18.9542,4.81423,9.20074,0.0,0.0
1032,257.75,125.812,155.448,113.336,96.4365,38.8276,0.0487463,1.38695,18.9755,4.57402,8.13806,0.0,0.0
1036,258.75,126.03,155.247,117.095,96.4036,38.5664,0.0479209,1.36517,19.0047,4.46392,8.19538,0.0,0.0
1040,259.75,125.911,154.95,117.134,96.3929,39.7261,0.0464958,1.34198,19.0445,4.25374,7.92936,0.0,0.0
1044,260.75,125.345,154.034,108.199,96.3585,39.9811,0.0450546,1.3256,19.0964,4.1036,7.86893,0.0,0.0
1048,261.75,125.117,153.315,110.622,96.3364,44.695,0.0435777,1.29452,19.1473,3.92345,6.86989,0.0,0.0
1052,262.75,124.252,152.089,110.986,96.3174,46.2027,0.0419612,1.26274,19.2073,3.76331,6.57133,0.0,0.0
1056,263.75,124.273,151.614,115.459,96.2905,46.9939,0.0403347,1.23286,19.2679,3.61317,6.41695,0.0,0.0
1060,264.75,123.465,150.451,114.669,96.2814,43.4008,0.0388776,1.20073,19.3322,3.43302,7.12762,0.0,0.0
1064,265.75,123.101,149.998,120.429,96.2552,43.6944,0.0375963,1.16545,19.3915,3.32292,7.06488,0.0,0.0
1068,266.75,122.364,148.677,125.553,96.2307,46.5288,0.0364382,1.13462,19.4456,3.1828,6.50037,0.0,0.0
1072,267.75,121.616,147.406,114.005,96.2141,44.6018,0.0354289,1.1019,19.4963,3.02265,6.87718,0.0,0.0
1076,268.75,121.179,146.342,115.941,96.2006,45.604,0.0344483,1.07102,19.5488,2.85251,6.67717,0.0,0.0
1080,269.75,120.495,145.066,124.268,96.1804,38.9748,0.0334286,1.03835,19.6057,2.72239,8.08043,0.0,0.0
1084,270.75,119.612,143.999,131.13,96.1615,43.9988,0.0322787,1.00558,19.6614,2.58227,6.99406,0.0,0.0
1088,271.75,118.652,142.589,119.596,96.1353,42.3678,0.0311014,0.975438,19.722,2.41212,7.32953,0.0,0.0
1092,272.75,117.272,140.344,128.874,96.1199,43.638,0.0295224,0.940396,19.789,2.34206,7.06385,0.0,0.0
1096,273.75,116.794,139.451,125.347,96.0981,43.1512,0.0275404,0.906305,19.8557,2.23196,7.16217,0.0,0.0
1100,274.75,115.759,137.651,134.118,96.0728,46.3252,0.0250923,0.869835,19.9277,2.1619,6.52491,0.0,0.0
1104,275.75,114.376,135.764,133.966,96.0566,52.526,0.0224275,0.828044,20.019,2.14188,5.39967,0.0,0.0
1108,276.75,112.441,133.022,138.67,96.0372,62.2079,0.0193564,0.773835,20.1161,2.07182,3.88455,0.0,0.0
1112,277.75,111.041,130.949,137.128,96.0107,72.4742,0.0163455,0.716638,20.2474,2.0518,2.51568,0.0,0.0
1116,278.75,109.281,128.781,144.763,95.9953,82.2821,0.0134752,0.65294,20.3678,2.00176,1.37889,0.0,0.0
1120,279.75,108.03,126.414,146.384,95.9695,88.7861,0.0110918,0.589992,20.4747,2.00176,0.695954,0.0,0.0
1124,280.75,105.363,123.029,143.296,95.9557,91.4582,0.00912286,0.530507,20.565,2.01177,0.429411,0.0,0.0
1128,281.75,104.868,121.252,149.387,95.9351,93.8909,0.00708152,0.477604,20.6457,2.00176,0.192671,0.0,0.0
1132,282.75,102.883,118.468,150.326,95.926,96.0469,0.0054084,0.434699,20.7181,2.02178,-0.0112679,0.0,0.0
1136,283.75,101.015,116.306,150.149,95.905,95.79,0.00394435,0.392951,20.7797,2.01177,0.0107351,0.0,0.0
1140,284.75,98.4124,113.528,151.87,95.8963,96.0423,0.00277019,0.349203,20.83,2.01177,-0.0136039,0.0,0.0
1144,285.75,97.5613,111.628,152.917,95.8714,96.4676,0.0017211,0.313418,20.8727,2.00176,-0.0554584,0.0,0.0
1148,286.75,95.0653,108.779,151.818,95.867,96.6685,0.00088418,0.281319,20.9039,2.01177,-0.0744723,0.0,0.0
1152,287.75,94.6782,106.83,151.083,95.854,96.1539,7.10719e-05,0.255604,20.9292,2.00176,-0.0279478,0.0,0.0
1156,288.75,92.7872,104.906,147.882,95.8338,96.3664,-0.000576368,0.231914,20.9496,2.01177,-0.0495755,0.0,0.0
1160,289.75,91.5719,103.185,154.988,95.8306,96.4993,-0.00110828,0.211887,20.9665,2.03178,-0.0621989,0.0,0.0
1164,290.75,89.5233,100.476,150.168,95.8132,96.7859,-0.00154939,0.194903,20.9802,2.04179,-0.0903565,0.0,0.0
1168,291.75,87.9175,98.1145,148.601,95.8085,96.1991,-0.00193307,0.179714,20.9916,2.03178,-0.0363992,0.0,0.0
1172,292.75,86.7655,96.3559,148.815,95.797,97.3303,-0.00230049,0.166554,21.0004,2.04179,-0.142039,0.0,0.0
1176,293.75,85.1597,94.5439,154.347,95.7915,97.2035,-0.0025889,0.155705,21.007,2.04179,-0.130903,0.0,0.0
1180,294.75,83.8378,92.5624,151.162,95.7915,96.3498,-0.00291168,0.145745,21.0128,2.06181,-0.0519869,0.0,0.0
1184,295.75,82.6729,91.2514,152.048,95.7705,97.4037,-0.00317312,0.1375,21.0175,2.0518,-0.151258,0.0,0.0
1188,296.75,81.8331,89.5768,154.127,95.7744,96.9517,-0.00335397,0.129491,21.0214,2.02178,-0.109282,0.0,0.0
1192,297.75,79.9904,87.6982,151.486,95.7871,97.4411,-0.00343909,0.122526,21.024,2.03178,-0.153147,0.0,0.0
1196,298.75,78.8878,86.0426,151.326,95.7764,97.1761,-0.00349641,0.116491,21.027,2.03178,-0.129783,0.0,0.0
1200,299.75,78.0727,84.7753,153.569,95.7831,96.9741,-0.00353402,0.110944,21.0299,2.03178,-0.110537,0.0,0.0
1204,300.75,76.9172,83.0884,154.454,95.782,97.3237,-0.00357408,0.10722,21.0319,2.03178,-0.14284,0.0,0.0
1208,301.75,75.5804,81.9045,148.929,95.7828,96.7871,-0.00362112,0.102285,21.0334,2.02178,-0.093309,0.0,0.0
1212,302.75,74.6892,80.2085,154,95.7926,97.5725,-0.00366934,0.0984781,21.035,2.03178,-0.164679,0.0,0.0
1216,303.75,73.6823,79.0691,152.443,95.7962,97.3438,-0.00370961,0.0946871,21.0361,2.02178,-0.143355,0.0,0.0
1220,304.75,72.9032,77.8672,148.356,95.8037,97.6559,-0.00377148,0.090982,21.0364,2.03178,-0.171292,0.0,0.0
1224,305.75,71.8429,76.6674,151.41,95.8243,97.3156,-0.00384019,0.0879184,21.0364,2.02178,-0.13814,0.0,0.0
1228,306.75,70.9183,75.382,147.118,95.8342,97.3349,-0.00391038,0.0853287,21.0364,2.03178,-0.138992,0.0,0.0
1232,307.75,70.082,74.3991,146.878,95.8473,97.6544,-0.00397274,0.0826304,21.0364,2.02178,-0.167087,0.0,0.0
1236,308.75,68.2184,72.0386,148.506,95.8726,97.9766,-0.00405221,0.0801082,21.037,2.04179,-0.194187,0.0,0.0
1240,309.75,68.1319,71.8424,149.749,95.886,96.8338,-0.00413221,0.0776295,21.0381,2.04179,-0.0879881,0.0,0.0
1244,310.75,67.7198,70.4185,154.096,95.9078,98.1075,-0.00420495,0.0754882,21.0391,2.04179,-0.202851,0.0,0.0
1248,311.75,66.0593,68.443,151.905,95.9284,97.9213,-0.0042817,0.073584,21.0398,2.03178,-0.183939,0.0,0.0
1252,312.75,65.4804,68.2255,150.516,95.9525,97.5157,-0.0043599,0.0718737,21.0402,2.02178,-0.144555,0.0,0.0
1256,313.75,65.0052,67.1373,149.601,95.9826,97.8093,-0.00442134,0.0702067,21.0405,2.01177,-0.168644,0.0,0.0
1260,314.75,64.1677,66.3955,150.357,96.0095,97.7343,-0.00448205,0.0686893,21.0407,2.02178,-0.159279,0.0,0.0
1264,315.75,62.6711,64.9037,150.426,96.0669,98.3165,-0.0045249,0.0673278,21.0409,2.04179,-0.207063,0.0,0.0
1268,316.75,62.6908,64.2677,152.95,96.0752,97.7255,-0.00454932,0.0661264,21.0409,2.03178,-0.152348,0.0,0.0
1272,317.75,62.0509,63.7748,152.434,96.1057,97.766,-0.00455691,0.0646332,21.041,2.02178,-0.153224,0.0,0.0
1276,318.75,61.3959,62.6033,151.195,96.1524,97.9967,-0.00452547,0.063481,21.041,2.03178,-0.169956,0.0,0.0
1280,319.75,60.1325,61.0581,150.082,96.1927,97.8591,-0.00445771,0.0626039,21.041,2.02178,-0.153639,0.0,0.0
1284,320.75,60.16,61.3429,149.89,96.2267,98.3938,-0.00435969,0.0615933,21.041,2.02178,-0.199216,0.0,0.0
1288,321.75,58.6941,59.5996,152.913,96.2719,97.8889,-0.00427526,0.0606203,21.041,2.03178,-0.149001,0.0,0.0
1292,322.75,58.8798,59.9236,146.279,96.2999,97.9924,-0.00422013,0.0596279,21.0411,2.03178,-0.155847,0.0,0.0
1296,323.75,58.5178,58.7913,151.491,96.3387,98.4676,-0.00423408,0.058682,21.0411,2.02178,-0.195517,0.0,0.0
1300,324.75,57.8911,58.2662,149.442,96.368,97.3708,-0.0042985,0.0579249,21.0419,2.02178,-0.0926038,0.0,0.0
1304,325.75,57.1688,57.3969,153.708,96.4013,97.7738,-0.00441677,0.0570194,21.0416,2.03178,-0.12646,0.0,0.0
1308,326.75,56.1068,56.7235,149.443,96.4523,98.5893,-0.00452779,0.0561791,21.0414,2.03178,-0.196026,0.0,0.0
1312,327.75,56.0755,56.1889,151.235,96.4958,98.2682,-0.0045888,0.0553722,21.0415,2.03178,-0.162814,0.0,0.0
1316,328.75,55.4651,55.3767,147.134,96.5307,98.1261,-0.00461923,0.0546215,21.0419,2.04179,-0.146636,0.0,0.0
1320,329.75,55.1011,55.0157,147.669,96.5754,98.1384,-0.00458993,0.0540831,21.0422,2.03178,-0.14362,0.0,0.0
1324,330.75,54.7167,54.9053,153.066,96.6062,98.1747,-0.00455142,0.0533937,21.0424,2.03178,-0.144071,0.0,0.0
1328,331.75,53.8867,53.5506,155.249,96.6525,98.2064,-0.00452953,0.0526955,21.0431,2.02178,-0.142671,0.0,0.0
1332,332.75,53.1415,52.8097,152.69,96.6913,98.0519,-0.00453465,0.0520917,21.0438,2.03178,-0.124996,0.0,0.0
1336,333.75,53.286,52.4455,151.85,96.7455,98.1937,-0.00456326,0.0515649,21.0442,2.03178,-0.132906,0.0,0.0
1340,334.75,52.3535,52.06,147.096,96.7669,98.1713,-0.00458867,0.0510957,21.0445,2.03178,-0.12889,0.0,0.0
1344,335.75,52.0718,51.4609,151.605,96.8092,98.3598,-0.00459508,0.050555,21.0447,2.02178,-0.142139,0.0,0.0
1348,336.75,51.189,50.7329,152.17,96.8425,98.7214,-0.00455886,0.0499984,21.0448,2.03178,-0.171892,0.0,0.0
1352,337.75,51.0808,49.7769,150.024,96.8844,98.7477,-0.00450318,0.0495142,21.0449,2.01177,-0.170399,0.0,0.0
1356,338.75,50.2902,49.6727,153.464,96.9133,98.9791,-0.00443237,0.0490453,21.045,2.03178,-0.18867,0.0,0.0
1360,339.75,50.0753,49.1726,153.255,96.9557,99.1085,-0.00436628,0.0485459,21.045,2.02178,-0.196451,0.0,0.0
1364,340.75,49.8674,48.9173,152.196,96.9778,98.7229,-0.00432183,0.0481021,21.045,2.03178,-0.15954,0.0,0.0
1368,341.75,49.6151,47.6458,151.037,97.0202,99.0397,-0.00430482,0.0477377,21.045,2.03178,-0.184293,0.0,0.0
1372,342.75,49.3436,47.9406,151.309,97.049,99.1796,-0.00433418,0.0473895,21.045,2.03178,-0.194252,0.0,0.0
1376,343.75,49.1201,47.2996,153.695,97.0819,99.3167,-0.00438797,0.047028,21.045,2.03178,-0.203586,0.0,0.0
1380,344.75,48.3322,46.9416,155.431,97.1171,99.3009,-0.00442963,0.0466778,21.0451,2.02178,-0.198915,0.0,0.0
1384,345.75,48.2967,46.1628,153.051,97.1523,98.8771,-0.00443681,0.0463291,21.0451,2.02178,-0.157414,0.0,0.0
1388,346.75,47.7625,46.1255,154.082,97.1907,98.9771,-0.00440864,0.0459936,21.045,2.03178,-0.162928,0.0,0.0
1392,347.75,46.6529,45.2007,149.321,97.22,99.2962,-0.00436845,0.0456886,21.0447,2.03178,-0.189026,0.0,0.0
1396,348.75,47.1167,44.9158,149.287,97.2418,99.0984,-0.00433536,0.0453195,21.0445,2.04179,-0.169187,0.0,0.0
1400,349.75,47.1214,45.1814,147.457,97.2679,99.3801,-0.00432009,0.0449816,21.0444,2.02178,-0.192171,0.0,0.0
1404,350.75,46.2512,44.3515,153.024,97.3003,98.8477,-0.00434439,0.0446881,21.0444,2.03178,-0.141141,0.0,0.0
1408,351.75,45.1667,43.2369,150.707,97.3252,98.7187,-0.00440371,0.0444766,21.0444,2.04179,-0.127165,0.0,0.0
1412,352.75,46.0789,44.3391,148.791,97.3478,99.5833,-0.00449127,0.0443328,21.0444,2.04179,-0.203094,0.0,0.0
1416,353.75,45.5255,43.7152,154.618,97.381,99.4863,-0.00454272,0.0441631,21.0444,2.00176,-0.191326,0.0,0.0
1420,354.75,45.6607,43.5969,152.512,97.3909,99.8494,-0.00457949,0.0439748,21.0444,2.01177,-0.223009,0.0,0.0
1424,355.75,44.4108,41.7835,152.274,97.4111,99.0339,-0.00459595,0.0438172,21.0444,2.02178,-0.147795,0.0,0.0
1428,356.75,44.7857,42.4815,151.76,97.4262,99.0505,-0.00458652,0.0436752,21.0444,2.02178,-0.147915,0.0,0.0
1432,357.75,44.0446,41.9753,151.506,97.4475,99.5643,-0.00457918,0.0433929,21.0446,2.02178,-0.192235,0.0,0.0
1436,358.75,43.5874,40.945,156.313,97.4729,98.5255,-0.00459793,0.0431812,21.0448,2.02178,-0.0960879,0.0,0.0
1440,359.75,44.0112,41.875,152.566,97.4922,99.9159,-0.00463049,0.0430397,21.045,2.02178,-0.21966,0.0,0.0
1444,360.75,43.9196,41.2675,147.073,97.5073,99.2881,-0.00466068,0.0429129,21.0451,2.02178,-0.1619,0.0,0.0
1448,361.75,43.5268,41.2233,150.472,97.5227,99.7838,-0.00467633,0.042774,21.0451,2.03178,-0.205028,0.0,0.0
1452,362.75,43.2947,41.129,150.825,97.5385,100.055,-0.00468461,0.0425472,21.0452,2.04179,-0.227856,0.0,0.0
1456,363.75,43.1937,40.6769,152.75,97.5571,99.6497,-0.00468852,0.0423028,21.0452,2.03178,-0.189846,0.0,0.0
1460,364.75,42.5384,40.114,149.458,97.5662,99.8046,-0.00472311,0.0421663,21.0452,2.03178,-0.202907,0.0,0.0
1464,365.75,42.4013,39.5048,150.117,97.5817,98.8597,-0.00477163,0.0420528,21.0452,2.02178,-0.116396,0.0,0.0
1468,366.75,42.3623,39.756,153.341,97.5852,99.7219,-0.00484203,0.0419387,21.0452,2.02178,-0.193752,0.0,0.0
1472,367.75,42.2571,39.8292,158.137,97.592,99.5284,-0.0048925,0.0417789,21.0459,2.03178,-0.175757,0.0,0.0
1476,368.75,41.3638,39.0518,155.131,97.5868,100.068,-0.00491353,0.0416049,21.0464,2.02178,-0.224603,0.0,0.0
1480,369.75,41.5937,38.9396,154.363,97.5829,99.5052,-0.00493062,0.0414623,21.0468,2.02178,-0.174507,0.0,0.0
1484,370.75,41.1279,38.7156,152.905,97.5868,100.28,-0.00494116,0.0413122,21.0471,2.03178,-0.243542,0.0,0.0
1488,371.75,41.9653,38.761,150.832,97.5836,99.5709,-0.0049561,0.0412093,21.0472,2.02178,-0.180337,0.0,0.0
1492,372.75,40.9493,38.4085,153.275,97.5813,99.2522,-0.00497806,0.0411141,21.0469,2.03178,-0.151877,0.0,0.0
1496,373.75,40.9717,38.0494,152.163,97.5844,100.318,-0.0050009,0.041127,21.0462,2.01177,-0.247171,0.0,0.0
1500,374.75,40.406,37.9206,154.003,97.5801,99.6849,-0.00500128,0.0410427,21.0456,2.03178,-0.190896,0.0,0.0
1504,375.75,40.2524,37.6802,154.833,97.5757,99.8247,-0.00497842,0.0409361,21.0452,2.03178,-0.203836,0.0,0.0
1508,376.75,39.9753,37.4309,156.092,97.5591,100.107,-0.00495842,0.0408014,21.0449,2.03178,-0.230664,0.0,0.0
1512,377.75,39.9027,37.3134,153.824,97.5658,99.4202,-0.00491959,0.0406792,21.0447,2.03178,-0.168425,0.0,0.0
1516,378.75,39.6435,37.3474,154.201,97.5472,100.213,-0.00488604,0.0405989,21.0449,2.03178,-0.241206,0.0,0.0
1520,379.75,40.025,36.9884,153.227,97.5385,100.099,-0.00483358,0.0404746,21.045,2.03178,-0.231792,0.0,0.0
1524,380.75,39.7861,36.6623,153.858,97.5239,99.8854,-0.00478202,0.0403542,21.0455,2.03178,-0.214024,0.0,0.0
1528,381.75,39.4043,36.4497,158.149,97.51,99.7583,-0.00472624,0.0402741,21.0462,2.02178,-0.203904,0.0,0.0
1532,382.75,39.5806,36.4265,158.409,97.4946,100.024,-0.00467089,0.0402282,21.0467,2.02178,-0.229087,0.0,0.0
1536,383.75,38.5979,35.4923,155.077,97.4903,99.6346,-0.00465233,0.040195,21.047,2.02178,-0.194627,0.0,0.0
1540,384.75,39.1475,36.031,152.399,97.474,99.8885,-0.00467229,0.0401323,21.0472,2.02178,-0.218875,0.0,0.0
1544,385.75,38.9556,36.0851,150.578,97.4645,98.9536,-0.00470662,0.0400742,21.0473,2.02178,-0.13563,0.0,0.0
1548,386.75,38.0535,34.9673,150.109,97.4479,99.7795,-0.0047423,0.0400122,21.0474,2.03178,-0.21151,0.0,0.0
1552,387.75,38.2324,35.499,152.975,97.4246,99.4515,-0.00475037,0.0399476,21.0475,2.03178,-0.184201,0.0,0.0
1556,388.75,38.0099,35.1757,153.276,97.4186,100.036,-0.00471154,0.0398487,21.0475,2.04179,-0.237165,0.0,0.0
1560,389.75,38.4478,34.9438,153.158,97.4119,99.9545,-0.00466512,0.0397499,21.0473,2.03178,-0.230491,0.0,0.0
1564,390.75,37.3789,34.5927,150.066,97.3806,99.5655,-0.00455828,0.0396527,21.0471,2.01177,-0.198481,0.0,0.0
1568,391.75,37.4657,35.1384,158.99,97.3818,99.9522,-0.00450594,0.0395934,21.047,2.03178,-0.233047,0.0,0.0
1572,392.75,37.4043,34.751,151.736,97.3644,100.107,-0.00446745,0.0395588,21.0469,2.03178,-0.248465,0.0,0.0
1576,393.75,37.9282,34.7501,151.609,97.3399,99.6165,-0.00446835,0.0394667,21.0468,2.03178,-0.206805,0.0,0.0
1580,394.75,36.6621,33.7186,152.508,97.332,99.8317,-0.00449657,0.0394119,21.0468,2.04179,-0.226834,0.0,0.0
1584,395.75,37.0665,34.3884,153.525,97.3158,99.7753,-0.00452658,0.039409,21.0468,2.04179,-0.22327,0.0,0.0
1588,396.75,37.4789,34.4326,157.616,97.3098,99.2031,-0.00457667,0.0393832,21.0465,2.03178,-0.172373,0.0,0.0
1592,397.75,36.9008,34.4856,155.732,97.2869,99.8881,-0.0046177,0.0393185,21.0461,2.04179,-0.236033,0.0,0.0
1596,398.75,37.253,34.2419,149.269,97.2797,99.3611,-0.0046532,0.0393039,21.0459,2.03178,-0.189374,0.0,0.0
1600,399.75,37.2192,33.6231,152.237,97.2683,99.7606,,0.039362,,2.04179,-0.22632,0.0,0.0
1604,400.75,37.1771,33.9863,150.049,97.26,99.3341,,0.0394002,,2.02178,-0.188759,0.0,0.0
1608,401.75,36.5664,33.7644,152.18,97.2493,99.6806,,0.0393724,,2.03178,-0.220893,0.0,0.0
1612,402.75,36.2713,33.4477,156.873,97.239,99.7304,,,,2.02178,-0.226311,0.0,0.0
1616,403.75,35.9189,33.8397,148.987,97.237,99.4967,,,,2.03178,-0.205504,0.0,0.0
1620,404.75,36.0504,33.524,154.314,97.2259,99.4399,,,,2.03178,-0.201417,0.0,0.0
1624,405.75,36.4155,32.6804,152.528,97.218,99.5021,,,,2.03178,-0.207738,0.0,0.0
1628,406.75,35.9045,33.032,152.161,97.22,99.8564,,,,2.03178,-0.239347,0.0,0.0
1632,407.75,35.8276,33.2632,153.76,97.2699,100.036,,,,2.03178,-0.250873,0.0,0.0
1636,408.75,35.7613,32.9094,155.51,97.3102,99.6798,,,,2.04179,-0.215221,0.0,0.0
1640,409.75,34.9496,32.3594,155.909,97.3466,99.8618,,,,2.02178,-0.228188,0.0,0.0