File: 01_Data/ABS/Cone/ABS_Cone_HF50Scan_220217_R1.csv
Names,Time,Stack TC,Smoke TC,Exh Press,Smoke Comp,Smoke Meas,CO Meter,CO2 Meter,O2 Meter,Sample Mass,Ext Coeff,Start Test,Flame Verif
Chan Gain,,500,500,1,1,1,1,1,1,1,1,1.0,1.0
Offset,,0,0,0.140898,0,0,0,0,0,0,0,0.0,0.0
Gain,,1,1,25.011,12.9668,12.6588,1,1,1,1.00088,1.01977,1.0,1.0
Units,sec,C,C,Pa,%,%,%,%,%,g,/m,,
Baseline,,30.7959,32.5488,151.2,97.6636,99.7548,-0.00431944,0.0370403,21.0403,-871.991,-0.189495,,
3,0.5,28.893,30.1593,148.265,97.7855,99.4407,-0.00437135,0.0407058,21.0355,32.7287,-0.150152,0.0,0.0
6,1.25,29.0924,30.6187,150.232,97.7914,100.239,-0.00435296,0.0408615,21.0359,32.6787,-0.221155,0.0,0.0
9,2,29.2495,30.0044,146.622,97.7843,100.118,-0.00432181,0.0408619,21.0363,32.6887,-0.21101,0.0,0.0
12,2.75,29.3584,30.4304,151.141,97.7855,100.343,-0.00428031,0.0408622,21.0365,32.6186,-0.230967,0.0,0.0
15,3.5,29.2919,30.1957,153.082,97.7918,99.5361,-0.00423088,0.0408059,21.0367,32.6587,-0.158153,0.0,0.0
18,4.25,28.9684,30.1294,152.712,97.7981,99.9773,-0.00418422,0.0407857,21.0368,32.6687,-0.197135,0.0,0.0
21,5,28.8565,30.5242,147.55,97.8013,99.8633,-0.00414567,0.0408066,21.0371,32.6787,-0.186643,0.0,0.0
24,5.75,28.9269,30.4277,150.152,97.7843,100.279,-0.00413783,0.0408219,21.0373,32.6487,-0.225357,0.0,0.0
27,6.5,28.9963,30.8335,150.906,97.8072,99.9514,-0.00414394,0.0407802,21.0375,32.6387,-0.193986,0.0,0.0
30,7.25,29.2878,30.2577,151.048,97.8045,100.016,-0.0041603,0.0407273,21.0377,32.6487,-0.199978,0.0,0.0
33,8,29.4816,30.7518,154.468,97.8076,100,-0.00418395,0.0406521,21.038,32.6086,-0.19834,0.0,0.0
36,8.75,29.1233,30.3638,154.479,97.7985,99.9595,-0.00421421,0.0405834,21.0386,32.6287,-0.195509,0.0,0.0
39,9.5,29.457,30.8775,151.391,97.8211,99.6729,-0.00424742,0.0405096,21.0391,32.6186,-0.167757,0.0,0.0
42,10.25,29.3617,30.2729,151.951,97.8128,100.058,-0.00428123,0.0403615,21.0395,32.6287,-0.203052,0.0,0.0
45,11,28.8978,30.3897,148.902,97.8108,100.039,-0.00432782,0.040205,21.0397,32.6186,-0.20154,0.0,0.0
48,11.75,29.5806,30.8357,153.045,97.808,99.7567,-0.00435163,0.0400077,21.0398,32.6186,-0.176472,0.0,0.0
51,12.5,29.4266,30.4189,147.62,97.8092,100.336,-0.00438861,0.0398074,21.04,32.6086,-0.22814,0.0,0.0
54,13.25,29.4743,30.3192,150.078,97.8207,100.239,-0.00441462,0.0395954,21.0401,32.6086,-0.218442,0.0,0.0
57,14,29.0325,30.354,152.74,97.8084,99.9684,-0.00442506,0.0394127,21.0406,32.5786,-0.195399,0.0,0.0
60,14.75,29.0971,30.7565,152.722,97.8053,99.9356,-0.00441255,0.0392665,21.0412,32.5886,-0.19275,0.0,0.0
63,15.5,29.3528,30.7163,146.818,97.81,99.8672,-0.00438675,0.0390976,21.0416,32.5886,-0.186193,0.0,0.0
66,16.25,29.5491,30.9514,152.507,97.8235,99.8718,-0.00434786,0.0389368,21.0419,32.5686,-0.185377,0.0,0.0
69,17,28.9981,30.8784,149.294,97.8175,99.5694,-0.00430886,0.0387988,21.0421,32.5786,-0.158786,0.0,0.0
72,17.75,29.0562,30.8463,149.007,97.81,99.6516,-0.00425848,0.0386625,21.0423,32.5786,-0.166863,0.0,0.0
75,18.5,29.0824,30.7587,154.969,97.8041,99.4365,-0.00422175,0.0385632,21.0424,32.5786,-0.148069,0.0,0.0
78,19.25,29.5407,30.7807,150.944,97.8294,98.5205,-0.00418788,0.0384512,21.0425,32.5986,-0.0629715,0.0,0.0
81,20,29.3634,30.7373,154.468,97.8322,98.733,-0.00416514,0.0383319,21.0425,32.5686,-0.081989,0.0,0.0
84,20.75,29.4976,30.93,149.987,97.8219,99.0262,-0.00415708,0.0382092,21.042,32.5586,-0.109457,0.0,0.0
87,21.5,28.7735,30.8299,149.397,97.8254,99.0513,-0.00415795,0.038133,21.0417,32.5586,-0.111399,0.0,0.0
90,22.25,29.5689,31.4367,153.117,97.8302,98.7789,-0.00416535,0.0380831,21.0413,32.5386,-0.0863341,0.0,0.0
93,23,29.2301,31.2065,152.134,97.8353,98.8655,-0.00415062,0.0379338,21.0416,32.5486,-0.093697,0.0,0.0
96,23.75,29.7116,31.0176,154.126,97.825,98.2172,-0.00413131,0.0378527,21.0428,32.5386,-0.0357921,0.0,0.0
99,24.5,29.3537,30.986,151.709,97.8302,97.931,-0.00397372,0.0378446,21.0433,32.5286,-0.00921122,0.0,0.0
102,25.25,29.1881,30.628,152.561,97.8345,98.2199,-0.00372801,0.0378352,21.0406,32.4985,-0.0351707,0.0,1.0
105,26,29.7839,31.1213,150.403,97.8357,96.8454,-0.00332516,0.0405431,21.0339,32.5086,0.0910063,0.0,1.0
108,26.75,30.1102,31.2896,148.913,97.829,83.6647,-0.00251766,0.0472151,21.009,32.4385,1.39909,0.0,1.0
111,27.5,29.9391,31.509,148.472,97.8278,77.2765,-0.00143625,0.0540817,20.9823,32.3584,2.10948,0.0,1.0
114,28.25,29.923,31.8976,139.169,97.831,69.9141,-0.000179909,0.0729745,20.9242,32.3184,3.0054,0.0,1.0
117,29,30.5187,33.0461,137.79,97.8436,64.2109,0.0016193,0.0936557,20.8688,32.2183,3.76775,0.0,1.0
120,29.75,31.1217,33.3306,135.384,97.8246,58.2995,0.00332607,0.120545,20.806,32.1683,4.62996,0.0,0.0
123,30.5,31.41,34.7409,130.24,97.8215,59.5118,0.00524599,0.160619,20.7114,32.0682,4.44557,0.0,0.0
126,31.25,32.2156,35.6622,123.822,97.8298,52.6222,0.00743515,0.202345,20.6172,32.0081,5.54693,0.0,0.0
129,32,33.4466,37.0893,122.178,97.8563,50.4793,0.0095386,0.238097,20.5232,31.898,5.92125,0.0,0.0
132,32.75,34.2542,38.3879,120.052,97.8314,50.73,0.0112884,0.286757,20.43,31.7879,5.87465,0.0,0.0
135,33.5,35.4821,39.5934,123.061,97.8191,50.968,0.0132148,0.33424,20.3507,31.6478,5.83167,0.0,0.0
138,34.25,36.4011,41.4314,119.759,97.8326,49.4416,0.0151431,0.379895,20.2738,31.5677,6.10488,0.0,0.0
141,35,37.3041,42.9829,120.596,97.8373,48.7443,0.0169703,0.423301,20.1924,31.4776,6.23237,0.0,0.0
144,35.75,38.7864,44.5279,116.435,97.8428,46.6845,0.0188241,0.467493,20.1232,31.2975,6.61911,0.0,0.0
147,36.5,40.2103,46.2534,124.474,97.827,44.7212,0.0206035,0.505059,20.056,31.2274,7.00199,0.0,0.0
150,37.25,41.1654,48.2668,118.543,97.8266,45.8497,0.0222523,0.545676,19.9702,31.1173,6.77904,0.0,0.0
153,38,42.4007,49.7882,104.823,97.8531,42.9948,0.0240535,0.587477,19.8904,30.9572,7.35655,0.0,0.0
156,38.75,43.8163,51.6215,117.633,97.8389,46.9823,0.0257868,0.629152,19.8153,30.8471,6.56186,0.0,0.0
159,39.5,44.8945,53.4773,120.794,97.8357,41.5847,0.0272295,0.670047,19.7441,30.6769,7.65325,0.0,0.0
162,40.25,46.2844,55.7434,117.183,97.8207,42.0541,0.0289662,0.70934,19.6833,30.5668,7.55147,0.0,0.0
165,41,47.5205,57.601,107.136,97.8599,38.6846,0.030752,0.746533,19.6239,30.4167,8.30212,0.0,0.0
168,41.75,48.8611,59.2883,106.502,97.8381,39.7292,0.0324431,0.787872,19.559,30.2566,8.06178,0.0,0.0
171,42.5,49.9889,61.6476,114.482,97.8373,38.7688,0.0342931,0.828156,19.4974,30.1365,8.2806,0.0,0.0
174,43.25,51.641,63.4858,102.25,97.8306,37.3287,0.0360385,0.861849,19.4353,29.9263,8.61862,0.0,0.0
177,44,52.9472,65.2509,109.833,97.8413,33.7517,0.0376731,0.898815,19.3708,29.8362,9.52065,0.0,0.0
180,44.75,54.7446,67.0897,109.449,97.8452,38.1249,0.0391949,0.935433,19.3168,29.6661,8.43116,0.0,0.0
183,45.5,56.2258,69.4816,104.629,97.8551,37.9429,0.0403044,0.969623,19.2655,29.4859,8.47486,0.0,0.0
186,46.25,57.584,71.9125,108.364,97.8381,38.9056,0.0419587,1.00579,19.223,29.2757,8.24917,0.0,0.0
189,47,58.8851,73.6053,115.086,97.8337,34.8431,0.0431648,1.03984,19.19,29.0855,9.2353,0.0,0.0
192,47.75,60.5267,75.5341,113.631,97.8365,33.5478,0.0445746,1.06794,19.1507,28.9855,9.57444,0.0,0.0
195,48.5,61.5803,78.0798,98.7136,97.8409,33.2329,0.0458028,1.09891,19.1155,28.8053,9.65919,0.0,0.0
198,49.25,62.7878,80.4677,106.47,97.8361,34.5638,0.0471923,1.12596,19.0786,28.6051,9.30751,0.0,0.0
201,50,64.6507,81.7995,98.2992,97.8515,35.0254,0.0477607,1.1577,19.0346,28.5351,9.19023,0.0,0.0
204,50.75,66.2954,83.7479,102.28,97.8468,35.9997,0.0485999,1.184,18.9988,28.2848,8.94437,0.0,0.0
207,51.5,66.8833,86.0439,108.8,97.8421,34.9343,0.0494609,1.20859,18.9642,28.1647,9.21268,0.0,0.0
210,52.25,68.6867,87.1725,99.1067,97.8409,34.7098,0.050272,1.23198,18.9353,27.9445,9.27023,0.0,0.0
213,53,69.7506,89.17,104.737,97.8381,35.039,0.051052,1.25242,18.9092,27.7544,9.18555,0.0,0.0
216,53.75,70.863,90.6754,105.162,97.8496,32.5511,0.0517924,1.26877,18.8902,27.6443,9.84543,0.0,0.0
219,54.5,72.6288,92.7256,105.983,97.848,34.2072,0.0526259,1.28604,18.8725,27.4741,9.40136,0.0,0.0
222,55.25,74.0549,94.4715,116.696,97.8488,31.7367,0.0535624,1.30152,18.8538,27.2439,10.072,0.0,0.0
225,56,74.7722,96.025,106.359,97.8397,33.5845,0.0540411,1.31404,18.8426,27.0938,9.56495,0.0,0.0
228,56.75,76.0773,97.724,103.865,97.8523,32.738,0.0549246,1.32803,18.826,26.9337,9.79444,0.0,0.0
231,57.5,77.0897,99.1336,102.312,97.863,32.5793,0.0557353,1.34007,18.8096,26.7935,9.83891,0.0,0.0
234,58.25,78.5142,101.118,112.611,97.8555,30.796,0.0564884,1.352,18.7928,26.5633,10.3418,0.0,0.0
237,59,79.8632,102.628,103.986,97.8444,31.8321,0.0571934,1.36184,18.7698,26.4232,10.0447,0.0,0.0
240,59.75,80.979,104.258,104.693,97.8606,32.3448,0.0578767,1.37321,18.7486,26.183,9.90331,0.0,0.0
243,60.5,82.1741,105.935,103.172,97.8599,31.0321,0.058447,1.38898,18.7255,25.9928,10.2739,0.0,0.0
246,61.25,82.7464,107.037,106.369,97.8591,33.3959,0.0591452,1.40622,18.7055,25.8127,9.61708,0.0,0.0
249,62,84.742,108.862,106.111,97.865,30.6921,0.0598638,1.42095,18.6852,25.6625,10.3729,0.0,0.0
252,62.75,85.4622,110.793,111.759,97.8575,30.3193,0.0605401,1.43539,18.6651,25.4624,10.4815,0.0,0.0
255,63.5,86.5555,111.872,99.9059,97.8713,30.6724,0.0611937,1.45107,18.6411,25.2822,10.3792,0.0,0.0
258,64.25,87.5483,113.667,97.1069,97.8733,31.5184,0.0619108,1.4647,18.6151,25.042,10.136,0.0,0.0
261,65,88.4147,114.799,106.594,97.8674,32.3552,0.0625069,1.48056,18.587,24.9219,9.90104,0.0,0.0
264,65.75,89.767,116.559,107.026,97.8658,30.6508,0.063281,1.49693,18.559,24.6617,10.385,0.0,0.0
267,66.5,91.0076,118.438,103.041,97.8828,30.7439,0.0641357,1.51276,18.5322,24.4815,10.3594,0.0,0.0
270,67.25,92.4165,119.886,101.873,97.8753,31.571,0.0648827,1.53031,18.5076,24.2913,10.1213,0.0,0.0
273,68,93.4774,121.466,95.6132,97.8899,29.007,0.0657936,1.54754,18.4896,24.1912,10.8803,0.0,0.0
276,68.75,94.6618,123.316,87.5622,97.8781,29.4292,0.0666138,1.5642,18.468,23.891,10.7499,0.0,0.0
279,69.5,95.8661,124.783,90.6702,97.8864,27.9751,0.0673719,1.58011,18.4487,23.6908,11.204,0.0,0.0
282,70.25,96.979,126.353,111.044,97.886,27.6927,0.0681984,1.59519,18.4334,23.4806,11.2947,0.0,0.0
285,71,98.1093,127.503,91.619,97.8852,29.5826,0.06914,1.60767,18.4191,23.2604,10.7041,0.0,0.0
288,71.75,99.0094,128.827,100.83,97.8852,27.2346,0.0701128,1.61676,18.4035,23.1503,11.4438,0.0,0.0
291,72.5,100.247,130.086,95.8941,97.8876,27.8542,0.0710845,1.63242,18.3834,22.8801,11.2428,0.0,0.0
294,73.25,101.218,131.787,103.366,97.8979,29.2071,0.072033,1.64893,18.3484,22.76,10.8195,0.0,0.0
297,74,102.745,133.076,87.5576,97.8971,28.5801,0.0731426,1.66314,18.3148,22.4497,11.0135,0.0,0.0
300,74.75,103.86,135.171,91.6808,97.882,27.3624,0.0739515,1.68161,18.2869,22.2395,11.4016,0.0,0.0
303,75.5,104.93,136.208,108.645,97.8967,26.8069,0.0752008,1.69901,18.2613,22.1094,11.5865,0.0,0.0
306,76.25,105.891,137.713,100.932,97.8911,26.929,0.0765328,1.7154,18.2368,21.8892,11.5453,0.0,0.0
309,77,106.905,138.858,94.3592,97.899,26.4511,0.0776834,1.73082,18.2129,21.609,11.7062,0.0,0.0
312,77.75,107.895,140.237,82.1552,97.8891,26.6856,0.0792942,1.75019,18.1857,21.4188,11.6264,0.0,0.0
315,78.5,109.882,141.365,92.2411,97.8963,24.5613,0.0809327,1.76855,18.1519,21.2987,12.3691,0.0,0.0
318,79.25,110.277,143.582,92.6281,97.903,27.1133,0.0825775,1.78917,18.1104,20.9184,11.4854,0.0,0.0
321,80,111.547,145.238,91.0091,97.901,24.8707,0.0842079,1.81226,18.0598,20.7482,12.2575,0.0,0.0
324,80.75,112.55,147.289,94.8202,97.8919,26.9615,0.0859186,1.83662,18.0118,20.538,11.5346,0.0,0.0
327,81.5,113.999,148.463,99.8608,97.9022,24.6173,0.0871657,1.86139,17.972,20.2978,12.3492,0.0,0.0
330,82.25,114.884,150.302,91.6014,97.9101,25.8423,0.088678,1.88842,17.9391,20.0776,11.9155,0.0,0.0
333,83,116.193,151.714,87.1363,97.9054,25.2848,0.0903354,1.91199,17.9083,19.8674,12.1102,0.0,0.0
336,83.75,117.211,153.322,84.6625,97.8979,21.3475,0.0920528,1.93578,17.8661,19.5472,13.6237,0.0,0.0
339,84.5,118.566,154.787,90.0673,97.9109,22.2434,0.0939096,1.96444,17.8162,19.407,13.2571,0.0,0.0
342,85.25,119.823,156.558,92.6822,97.9018,22.5988,0.0957998,1.99017,17.7565,19.1168,13.1145,0.0,0.0
345,86,121.02,159.083,88.5865,97.8927,25.274,0.0979093,2.02977,17.6868,18.7965,12.1128,0.0,0.0
348,86.75,122.633,160.534,75.0468,97.9058,26.0412,0.0998834,2.06414,17.6139,18.5663,11.8465,0.0,0.0
351,87.5,123.536,162.354,92.3617,97.8975,24.1487,0.101999,2.0986,17.5555,18.3061,12.5207,0.0,0.0
354,88.25,125.049,164.287,82.3246,97.9196,22.5296,0.103542,2.13524,17.5042,18.1359,13.1435,0.0,0.0
357,89,125.673,165.82,84.4488,97.9101,19.8297,0.10578,2.16855,17.4565,17.8457,14.2846,0.0,0.0
360,89.75,126.881,167.328,91.4976,97.9058,23.1585,0.10805,2.19864,17.4136,17.6355,12.896,0.0,0.0
363,90.5,128.786,169.808,86.6844,97.9129,21.1667,0.110366,2.22565,17.376,17.2852,13.7011,0.0,0.0
366,91.25,129.281,171.617,98.7373,97.918,23.8346,0.112721,2.2533,17.3485,17.135,12.6397,0.0,0.0
369,92,130.682,172.567,84.1091,97.9006,19.533,0.114437,2.27686,17.3139,16.8448,14.4185,0.0,0.0
372,92.75,132.424,173.903,83.8901,97.9073,21.4166,0.116893,2.30723,17.2726,16.5145,13.5956,0.0,0.0
375,93.5,134.471,176.721,80.8316,97.9014,20.9824,0.119475,2.33768,17.2358,16.2643,13.7783,0.0,0.0
378,94.25,135.536,178.519,80.0638,97.9097,20.3485,0.121831,2.36343,17.1904,15.974,14.0535,0.0,0.0
381,95,136.841,180.131,88.7499,97.9172,21.7377,0.124159,2.3924,17.1467,15.8139,13.4634,0.0,0.0
384,95.75,137.726,181.949,83.0146,97.9097,18.5996,0.125856,2.41787,17.1102,15.5136,14.8574,0.0,0.0
387,96.5,137.993,183.241,89.2361,97.9054,20.2334,0.12794,2.44968,17.057,15.1433,14.1038,0.0,0.0
390,97.25,139.966,185.232,98.3282,97.9212,18.4169,0.130001,2.48261,17.0073,14.9431,14.9467,0.0,0.0
393,98,141.241,186.887,77.1664,97.907,19.7833,0.132107,2.51076,16.9527,14.6228,14.3052,0.0,0.0
396,98.75,142.641,189.514,87.021,97.9145,17.499,0.134278,2.54765,16.8944,14.3626,15.4034,0.0,0.0
399,99.5,143.853,191.219,83.9412,97.9117,19.4499,0.136539,2.58025,16.8413,14.1024,14.4577,0.0,0.0
402,100.25,144.661,192.484,80.8087,97.9137,17.7227,0.138266,2.61378,16.8016,13.7421,15.2897,0.0,0.0
405,101,146.186,195.449,75.1483,97.92,17.2962,0.140735,2.65371,16.7289,13.5319,15.5082,0.0,0.0
408,101.75,148.054,197.274,68.6269,97.9133,17.9433,0.143682,2.6883,16.6612,13.1315,15.179,0.0,0.0
411,102.5,149.211,199.349,84.6152,97.9153,17.4047,0.146485,2.72288,16.6056,12.8313,15.4518,0.0,0.0
414,103.25,150.398,201.591,85.6288,97.9137,18.374,0.149652,2.75083,16.5481,12.531,14.9669,0.0,0.0
417,104,151.616,203.664,90.8321,97.9121,17.205,0.152937,2.79267,16.4901,12.471,15.5548,0.0,0.0
420,104.75,153.344,205.448,77.4389,97.9145,15.8382,0.156169,2.82726,16.4325,11.9505,16.2954,0.0,0.0
423,105.5,154.245,207.74,88.5949,97.9184,17.0625,0.158325,2.8685,16.3892,11.7503,15.6298,0.0,0.0
426,106.25,156.024,209.436,75.2147,97.9145,17.431,0.161443,2.9052,16.3071,11.3099,15.4383,0.0,0.0
429,107,157.03,211.906,73.0852,97.9176,17.3572,0.164226,2.94331,16.269,10.9897,15.4765,0.0,0.0
432,107.75,158.509,213.537,71.9761,97.9176,17.3221,0.166666,2.98108,16.2109,10.6694,15.4946,0.0,0.0
435,108.5,160.044,215.183,85.6044,97.9165,17.2236,0.168964,3.00038,16.1657,10.4091,15.5455,0.0,0.0
438,109.25,160.908,216.982,87.0653,97.907,13.9866,0.170639,3.03817,16.128,10.0789,17.4069,0.0,0.0
441,110,162.204,218.176,69.0207,97.9129,14.6708,0.172345,3.05558,16.0956,9.86867,16.9802,0.0,0.0
444,110.75,162.534,220.584,75.1292,97.9196,15.0331,0.174001,3.07811,16.0699,9.45831,16.7626,0.0,0.0
447,111.5,164.019,222.198,81.9712,97.9184,16.9574,0.175559,3.09867,16.0429,9.2181,15.685,0.0,0.0
450,112.25,165.199,224.003,73.7286,97.9188,14.2423,0.17741,3.12116,16.0116,8.90782,17.2459,0.0,0.0
453,113,166.438,225.489,80.0798,97.9196,15.6663,0.179242,3.14074,15.978,8.55752,16.3935,0.0,0.0
456,113.75,167.52,227.217,96.7406,97.9224,16.1283,0.180784,3.1643,15.9434,8.24724,16.1338,0.0,0.0
459,114.5,168.609,228.929,93.0509,97.9137,15.0127,0.182707,3.18525,15.9182,7.87692,16.7742,0.0,0.0
462,115.25,169.929,230.618,76.7557,97.9311,17.4693,0.184108,3.21084,15.8808,7.6267,15.4202,0.0,0.0
465,116,171.169,232.588,77.0252,97.9129,18.165,0.185918,3.2361,15.8467,7.29641,15.0691,0.0,0.0
468,116.75,172.553,234.084,80.0187,97.9141,16.9979,0.187238,3.26255,15.8189,6.85602,15.6633,0.0,0.0
471,117.5,173.386,235.341,78.8166,97.9133,18.6514,0.188443,3.28184,15.7942,6.6058,14.8328,0.0,0.0
474,118.25,175.029,237.354,77.3259,97.9109,16.2527,0.189158,3.30241,15.7743,6.27551,16.064,0.0,0.0
477,119,175.987,238.654,77.3419,97.9034,16.5444,0.18961,3.32018,15.7597,6.06533,15.9042,0.0,0.0
480,119.75,176.674,240.058,76.6863,97.9109,16.9798,0.189249,3.33255,15.7492,5.76506,15.6725,0.0,0.0
483,120.5,178.096,240.968,69.3443,97.9014,17.3008,0.188593,3.34131,15.7466,5.40475,15.5041,0.0,0.0
486,121.25,178.756,241.96,78.5868,97.8975,16.8566,0.186909,3.34285,15.7515,5.06445,15.7365,0.0,0.0
489,122,179.527,243.297,84.5167,97.8919,17.4271,0.184772,3.3388,15.7797,4.88429,15.4382,0.0,0.0
492,122.75,180.674,244.517,76.3237,97.9038,18.0874,0.182974,3.3277,15.8064,4.46392,15.1066,0.0,0.0
495,123.5,181.153,245.176,79.9432,97.8986,18.5853,0.17999,3.30947,15.8545,4.34382,14.8632,0.0,0.0
498,124.25,181.082,246.127,83.4917,97.8887,18.9322,0.1758,3.2827,15.903,3.9835,14.6969,0.0,0.0
501,125,182.344,245.959,79.8111,97.8911,18.2952,0.170876,3.25049,15.9612,3.78332,15.0033,0.0,0.0
504,125.75,182.396,246.122,81.7338,97.8891,18.9589,0.165557,3.2257,16.0412,3.47305,14.6843,0.0,0.0
507,126.5,182.848,246.285,89.7444,97.8903,20.1171,0.159707,3.1786,16.1157,3.24285,14.154,0.0,0.0
510,127.25,182.083,245.69,82.3551,97.8792,18.9991,0.153665,3.1364,16.1978,2.88253,14.6645,0.0,0.0
513,128,182.922,245.447,93.5982,97.869,20.7638,0.146722,3.07952,16.3258,2.7324,13.869,0.0,0.0
516,128.75,183.138,244.775,89.5788,97.8777,20.2268,0.140052,3.0163,16.4789,2.45215,14.1042,0.0,0.0
519,129.5,182.999,244.258,85.3319,97.8701,21.7589,0.13254,2.95204,16.6122,2.33205,13.4504,0.0,0.0
522,130.25,182.916,243.092,99.1029,97.8591,23.5298,0.127064,2.87237,16.7463,2.08183,12.7494,0.0,0.0
525,131,182.2,242.817,90.1123,97.8563,24.6424,0.120049,2.78918,16.8683,1.90167,12.3359,0.0,0.0
528,131.75,181.625,241.406,90.2329,97.8504,26.4685,0.11247,2.70291,16.9986,1.7115,11.6959,0.0,0.0
531,132.5,181.232,239.476,102.763,97.8424,29.627,0.104935,2.61449,17.1743,1.5914,10.6867,0.0,0.0
534,133.25,180.462,237.459,110.422,97.844,30.876,0.0963664,2.50629,17.3755,1.44127,10.3175,0.0,0.0
537,134,178.64,235.739,98.3251,97.812,31.7112,0.0879797,2.40875,17.6,1.32116,10.0758,0.0,0.0
540,134.75,177.797,233.424,106.157,97.8239,34.5383,0.0809534,2.2733,17.8432,1.23108,9.31299,0.0,0.0
543,135.5,175.926,230.535,120.844,97.8088,41.4723,0.0728664,2.13679,18.0924,1.16102,7.675,0.0,0.0
546,136.25,174.449,227.479,120.972,97.7962,45.8168,0.0652299,2.00187,18.3366,1.09096,6.78266,0.0,0.0
549,137,172.544,224.366,118.495,97.7748,51.1619,0.0589205,1.8705,18.5693,1.06093,5.79364,0.0,0.0
552,137.75,170.932,220.921,123.703,97.7775,57.1846,0.0523719,1.72244,18.739,0.980861,4.79838,0.0,0.0
555,138.5,168.298,217.73,128.359,97.7823,67.9493,0.046767,1.59381,18.9216,0.950835,3.25594,0.0,0.0
558,139.25,166.792,214.098,128.595,97.7574,77.7645,0.0411361,1.46465,19.1112,0.960844,2.04673,0.0,0.0
561,140,164.763,210.055,135.216,97.7336,85.9045,0.0363724,1.33664,19.3032,0.950835,1.15403,0.0,0.0
564,140.75,161.958,206.352,134.002,97.7467,91.3184,0.031892,1.22889,19.5113,0.950835,0.608526,0.0,0.0
567,141.5,159.459,202.768,140.922,97.7305,93.989,0.0292092,1.15035,19.6479,0.950835,0.349186,0.0,0.0
570,142.25,157.273,199.129,137.614,97.7174,93.1082,0.0259747,1.02992,19.8447,0.950835,0.432215,0.0,0.0
573,143,155.56,195.411,142.339,97.6897,93.7854,0.0233857,0.916935,20.0372,0.940826,0.364852,0.0,0.0
576,143.75,152.819,192.539,136.264,97.6917,93.7325,0.0212621,0.825695,20.1967,0.940826,0.370083,0.0,0.0
579,144.5,151.424,188.809,140.369,97.6846,93.182,0.0197141,0.768423,20.3211,0.930818,0.422122,0.0,0.0
582,145.25,149.938,185.629,141.248,97.6557,93.7503,0.0184322,0.690938,20.4235,0.920809,0.365088,0.0,0.0
585,146,147.212,182.83,140.728,97.6288,93.9523,0.017083,0.624412,20.5296,0.940826,0.343366,0.0,0.0
588,146.75,145.957,179.722,138.57,97.6272,92.5689,0.016558,0.566999,20.575,0.930818,0.475916,0.0,0.0
591,147.5,143.906,176.76,135.357,97.6185,93.7943,0.0158372,0.5158,20.6342,0.930818,0.35748,0.0,0.0
594,148.25,141.571,173.744,137.453,97.5963,93.4972,0.0152001,0.474491,20.6844,0.920809,0.383826,0.0,0.0
597,149,139.672,171.52,139.484,97.5706,93.724,0.0146221,0.421843,20.7283,0.920809,0.359799,0.0,0.0
600,149.75,138.057,168.081,138.812,97.5595,93.3906,0.014088,0.398246,20.7666,0.920809,0.39066,0.0,0.0
603,150.5,136.19,165.682,140.192,97.5429,93.5586,0.0135297,0.368693,20.7962,0.900791,0.373053,0.0,0.0
606,151.25,134.802,162.961,138.912,97.5267,94.4684,0.0131226,0.343235,20.8206,0.890782,0.285,0.0,0.0
609,152,133.065,160.84,137.845,97.4934,93.5274,0.0126437,0.320884,20.84,0.870765,0.37151,0.0,0.0
612,152.75,131.802,157.933,140.089,97.4792,93.3693,0.0121144,0.299954,20.858,0.860756,0.385327,0.0,0.0
615,153.5,130.156,155.951,138.641,97.4725,93.187,0.0116848,0.283409,20.8728,0.880774,0.402197,0.0,0.0
618,154.25,128.051,153.154,138.56,97.4444,93.1947,0.0112345,0.267691,20.8862,0.890782,0.398876,0.0,0.0
621,155,127.049,151.225,136.987,97.404,93.5776,0.0108028,0.254674,20.8972,0.870765,0.358497,0.0,0.0
624,155.75,125.715,149.256,139.173,97.3878,92.752,0.0103736,0.241057,20.9071,0.870765,0.436275,0.0,0.0
627,156.5,124.741,147.149,137.956,97.3664,93.2469,0.00994003,0.229223,20.9163,0.860756,0.386712,0.0,0.0
630,157.25,122.719,144.617,142.314,97.3399,94.1652,0.0094352,0.218836,20.9244,0.840738,0.296614,0.0,0.0
633,158,120.916,142.287,139.789,97.3142,92.7393,0.00906717,0.209647,20.9308,0.860756,0.430742,0.0,0.0
636,158.75,119.61,140.097,140.26,97.277,94.536,0.00855466,0.200299,20.9364,0.870765,0.255669,0.0,0.0
639,159.5,119.064,139.16,143.158,97.2604,93.8665,0.00808529,0.19255,20.9415,0.850747,0.317715,0.0,0.0
642,160.25,117.854,137.408,135.987,97.2346,92.8857,0.00778003,0.185303,20.945,0.850747,0.409316,0.0,0.0
645,161,115.993,135.102,145.594,97.2014,94.609,0.0073802,0.17838,20.949,0.840738,0.241811,0.0,0.0
648,161.75,114.993,133.71,143.058,97.1713,93.2477,0.00708871,0.171775,20.9532,0.820721,0.368697,0.0,0.0
651,162.5,113.117,131.244,138.321,97.1349,92.7899,0.00666199,0.165491,20.9568,0.83073,0.409368,0.0,0.0
654,163.25,112.96,129.948,142.228,97.1302,94.6759,0.00624625,0.161044,20.96,0.820721,0.228936,0.0,0.0
657,164,110.938,127.842,137.729,97.0898,94.4719,0.00584236,0.155906,20.9632,0.810712,0.24451,0.0,0.0
660,164.75,109.997,126.04,143.209,97.0613,93.8353,0.00545181,0.151157,20.9668,0.810712,0.302373,0.0,0.0
663,165.5,108.98,124.932,141.13,97.0344,94.033,0.00508311,0.145978,20.9694,0.820721,0.281057,0.0,0.0
666,166.25,108.504,123.386,139.163,97.0138,93.9272,0.00467069,0.14077,20.9726,0.810712,0.289234,0.0,0.0
669,167,107.179,122.074,137.837,96.9814,94.2633,0.00439714,0.136054,20.9742,0.820721,0.254292,0.0,0.0
672,167.75,106.379,120.185,142.271,96.9351,94.2293,0.00400055,0.132224,20.9774,0.83073,0.253246,0.0,0.0
675,168.5,104.771,119.145,139.566,96.9098,93.3821,0.00357271,0.127928,20.9803,0.800703,0.331698,0.0,0.0
678,169.25,104.078,117.604,139.354,96.882,94.2969,0.00317457,0.124165,20.9833,0.810712,0.241935,0.0,0.0
681,170,103.193,116.142,136.644,96.8563,93.831,0.00279978,0.121484,20.9859,0.810712,0.283866,0.0,0.0
684,170.75,102.255,114.755,136.509,96.8183,94.2061,0.00244483,0.117584,20.9884,0.790694,0.244668,0.0,0.0
687,171.5,101.361,112.807,139.502,96.7807,92.5816,0.00206878,0.114049,20.9907,0.780686,0.396789,0.0,0.0
690,172.25,100.256,112.073,139.868,96.7519,93.6958,0.00179463,0.110873,20.9926,0.810712,0.287113,0.0,0.0
693,173,99.4143,111.284,143.815,96.7238,93.6629,0.00146421,0.107494,20.9944,0.780686,0.287651,0.0,0.0
696,173.75,98.2484,109.548,141.32,96.6917,94.0628,0.00116993,0.104395,20.9964,0.800703,0.24658,0.0,0.0
699,174.5,96.9215,108.376,140.586,96.6604,93.6166,0.000932645,0.101865,20.9986,0.800703,0.286221,0.0,0.0
702,175.25,96.6389,107.598,143.845,96.6343,93.8723,0.000666741,0.0990764,21.0002,0.810712,0.259401,0.0,0.0
705,176,95.1735,106.117,137.851,96.609,93.4907,0.000403059,0.0970436,21.0019,0.780686,0.293501,0.0,0.0
708,176.75,95.0949,105.142,137.632,96.5714,92.8749,0.000181061,0.0943887,21.0039,0.810712,0.349134,0.0,0.0
711,177.5,93.6356,104.062,143.661,96.5409,93.1117,-9.89567e-05,0.0919284,21.0058,0.790694,0.323531,0.0,0.0
714,178.25,93.6912,102.632,140.92,96.5176,93.4597,-0.000364643,0.0896705,21.0076,0.790694,0.28799,0.0,0.0
717,179,92.4915,101.069,139.061,96.4844,93.3323,-0.000584568,0.0876132,21.0094,0.790694,0.29712,0.0,0.0
720,179.75,91.8237,99.9254,143.326,96.4578,93.0908,-0.000847882,0.085577,21.0106,0.780686,0.317833,0.0,0.0
723,180.5,90.8521,99.3224,140.942,96.4127,93.265,-0.00107416,0.0838526,21.0115,0.770677,0.296921,0.0,0.0
726,181.25,90.3711,98.1637,139.889,96.389,92.9931,-0.00126435,0.082185,21.0122,0.800703,0.320841,0.0,0.0
729,182,89.3804,97.3099,137.841,96.3613,92.5469,-0.00142111,0.0805404,21.014,0.790694,0.361295,0.0,0.0
732,182.75,88.4738,96.2457,139.418,96.3348,93.4636,-0.00156408,0.0789614,21.0153,0.780686,0.270661,0.0,0.0
735,183.5,87.8963,95.5942,140.394,96.2889,93.6081,-0.00168388,0.0774729,21.0162,0.790694,0.25258,0.0,0.0
738,184.25,87.6068,94.3298,138.534,96.2786,93.6792,-0.00179783,0.0759489,21.0171,0.780686,0.244834,0.0,0.0
741,185,86.6405,93.6866,140.295,96.2592,93.0827,-0.00189772,0.0745438,21.0182,0.800703,0.300171,0.0,0.0
744,185.75,86.321,92.5506,140.782,96.2307,92.5079,-0.00199931,0.0733941,21.0185,0.780686,0.352938,0.0,0.0
747,186.5,85.161,91.7855,142.275,96.1931,93.3199,-0.00208956,0.0722344,21.0188,0.780686,0.271261,0.0,0.0
750,187.25,84.7323,90.7027,140.006,96.1733,94.1072,-0.00218306,0.071252,21.0189,0.780686,0.194269,0.0,0.0
753,188,84.032,90.0657,137.064,96.1571,92.1837,-0.00225628,0.0701086,21.0195,0.790694,0.377489,0.0,0.0
756,188.75,83.548,89.4133,143.364,96.1258,93.3025,-0.00229969,0.0689526,21.0201,0.780686,0.266671,0.0,0.0
759,189.5,83.1437,88.9877,140.978,96.1017,93.2693,-0.00231429,0.0678698,21.0206,0.790694,0.26761,0.0,0.0
762,190.25,81.7995,87.3733,141.316,96.0716,93.4049,-0.00229961,0.0668405,21.0209,0.780686,0.251814,0.0,0.0
765,191,81.7054,87.027,139.423,96.0598,93.666,-0.00229482,0.0659878,21.0214,0.790694,0.225733,0.0,0.0
768,191.75,81.3154,85.7255,141.584,96.0431,92.0412,-0.00230632,0.0649482,21.0221,0.790694,0.380724,0.0,0.0
771,192.5,80.6386,85.2714,141.755,96.021,92.8297,-0.00232713,0.063964,21.0225,0.770677,0.302355,0.0,0.0
774,193.25,80.3951,84.1378,139.998,95.9937,92.9695,-0.0023726,0.0630449,21.0229,0.770677,0.286345,0.0,0.0
777,194,79.2546,83.2772,141.154,95.9988,94.9923,-0.00240923,0.0621952,21.0233,0.770677,0.0942865,0.0,0.0
780,194.75,78.6845,82.4058,141.942,95.9818,92.8185,-0.00245985,0.0614161,21.0238,0.780686,0.299785,0.0,0.0
783,195.5,78.8009,82.6525,137.251,95.943,93.0703,-0.00250589,0.0609702,21.0248,0.780686,0.271928,0.0,0.0
786,196.25,78.0531,81.7296,140.76,95.9307,93.4312,-0.00254905,0.0601706,21.0255,0.780686,0.236172,0.0,0.0
789,197,77.8844,81.3055,141.3,95.9181,94.2463,-0.00259402,0.0594831,21.026,0.770677,0.157287,0.0,0.0
792,197.75,77.2328,80.8546,140.796,95.9106,92.8799,-0.00263627,0.0588032,21.0263,0.770677,0.287227,0.0,0.0
795,198.5,75.5586,79.5585,140.546,95.9062,93.6328,-0.00267111,0.0580802,21.0266,0.780686,0.214598,0.0,0.0
798,199.25,76.1617,78.9967,137.622,95.8809,93.1221,-0.00270494,0.0574202,21.0268,0.780686,0.26116,0.0,0.0
801,200,76.0034,78.8926,137.248,95.8599,93.2419,-0.00274809,0.0568266,21.027,0.780686,0.247706,0.0,0.0
804,200.75,74.7909,77.6814,138.648,95.8599,92.1745,-0.00277967,0.0562982,21.0271,0.770677,0.3507,0.0,0.0
807,201.5,74.2398,77.2285,146.024,95.8583,93.763,-0.00285168,0.0557802,21.0271,0.780686,0.197701,0.0,0.0
810,202.25,74.4038,76.7824,139.782,95.8334,93.2434,-0.00294298,0.055346,21.0272,0.780686,0.245084,0.0,0.0
813,203,74.2383,76.7034,138.876,95.8227,93.2384,-0.00305003,0.0547171,21.0272,0.770677,0.244568,0.0,0.0
816,203.75,73.7596,75.9504,142.449,95.8433,94.1211,-0.00314937,0.0544554,21.0275,0.770677,0.162197,0.0,0.0
819,204.5,73.3834,75.4524,145.31,95.82,93.8758,-0.00322215,0.0540016,21.0281,0.770677,0.183364,0.0,0.0
822,205.25,73.1999,74.9786,140.622,95.8196,93.4493,-0.00326029,0.0535912,21.0285,0.760668,0.224059,0.0,0.0
825,206,72.513,74.5117,145.188,95.8018,93.0897,-0.00325377,0.0531953,21.0288,0.750659,0.256892,0.0,0.0
828,206.75,71.7496,73.5855,142.193,95.8085,92.5844,-0.00323438,0.0527992,21.0291,0.750659,0.306208,0.0,0.0
831,207.5,71.6452,73.0881,139.333,95.797,93.5084,-0.00319492,0.0524176,21.0292,0.730642,0.216296,0.0,0.0
834,208.25,71.1144,72.8331,137.839,95.8093,92.6724,-0.00316616,0.0520301,21.0294,0.760668,0.297776,0.0,0.0
837,209,70.6744,72.2039,140.673,95.8109,93.3647,-0.00317952,0.0516283,21.0292,0.760668,0.231349,0.0,0.0
840,209.75,70.7111,71.7948,140.48,95.8302,93.6962,-0.00322632,0.0512293,21.0285,0.760668,0.201457,0.0,0.0
843,210.5,69.9398,71.8404,140.611,95.8215,93.2407,-0.00329879,0.0508932,21.0281,0.760668,0.244235,0.0,0.0
846,211.25,69.6801,70.9971,138.815,95.8251,93.6529,-0.00338949,0.0506064,21.0277,0.750659,0.205109,0.0,0.0
849,212,69.4534,70.3011,140.581,95.8211,92.995,-0.00348298,0.0503257,21.0275,0.770677,0.2678,0.0,0.0
852,212.75,68.9626,69.7282,139.981,95.8354,93.5845,-0.00357031,0.0500019,21.0273,0.750659,0.212603,0.0,0.0
855,213.5,69.0044,69.9005,141.113,95.8425,92.983,-0.00364073,0.049687,21.0272,0.760668,0.270948,0.0,0.0
858,214.25,68.4487,69.1733,140.642,95.837,92.8644,-0.00369206,0.0494098,21.0271,0.760668,0.281847,0.0,0.0
861,215,68.3332,68.8832,145.065,95.8635,93.0421,-0.00371091,0.0491133,21.027,0.740651,0.267221,0.0,0.0
864,215.75,68.2475,68.3678,140.843,95.8754,93.8851,-0.00372154,0.0487912,21.027,0.740651,0.18765,0.0,0.0
867,216.5,67.2905,68.1414,143.053,95.8789,93.9519,-0.00372333,0.0485112,21.0269,0.740651,0.181618,0.0,0.0
870,217.25,67.2228,67.4692,140.283,95.8872,93.2766,-0.00372358,0.0482882,21.0269,0.740651,0.246919,0.0,0.0
873,218,67.0709,67.3893,142.129,95.892,94.0948,-0.00372257,0.0481256,21.0269,0.730642,0.169236,0.0,0.0
876,218.75,66.6155,66.7416,139.814,95.9118,93.6823,-0.00372134,0.0478938,21.0269,0.740651,0.210392,0.0,0.0
879,219.5,66.0043,66.6925,141.327,95.9331,93.758,-0.00372043,0.0476851,21.0275,0.740651,0.205157,0.0,0.0
882,220.25,65.5848,66.0016,141.539,95.9466,93.3172,-0.00371471,0.0474951,21.0279,0.740651,0.248565,0.0,0.0
885,221,65.4413,65.9902,143.845,95.9493,93.5455,-0.00371054,0.0473208,21.0283,0.720633,0.226964,0.0,0.0
888,221.75,65.0583,65.7745,141.261,95.9759,94.1559,-0.00370581,0.0470805,21.0285,0.750659,0.171257,0.0,0.0
891,222.5,65.4437,65.3263,139.31,96,94.13,-0.00369881,0.0468844,21.0285,0.750659,0.175967,0.0,0.0
894,223.25,65.1553,65.2272,139.934,96.0111,94.4449,-0.00368908,0.0467058,21.028,0.750659,0.147128,0.0,0.0
897,224,64.5897,64.44,141.288,96.0222,94.8192,-0.00367666,0.0464811,21.0277,0.740651,0.112775,0.0,0.0
900,224.75,64.3849,64.2411,139.838,96.0487,93.2844,-0.00366085,0.0462825,21.0275,0.750659,0.261227,0.0,0.0
903,225.5,64.2364,63.6608,137.731,96.0669,94.2953,-0.00364933,0.0460782,21.0273,0.750659,0.166497,0.0,0.0
906,226.25,63.7987,62.784,135.952,96.0886,93.9059,-0.0036403,0.0458538,21.0272,0.750659,0.205541,0.0,0.0
909,227,62.7098,62.5438,141.201,96.0966,94.2401,-0.00363266,0.0456637,21.0277,0.760668,0.174503,0.0,0.0
912,227.75,62.5136,62.4196,142.368,96.1357,94.6697,-0.00362709,0.0455139,21.0281,0.750659,0.137465,0.0,0.0
915,228.5,63.1629,62.6268,140.037,96.1682,93.4628,-0.00362302,0.0453669,21.0284,0.760668,0.255252,0.0,0.0
918,229.25,62.6244,61.6668,142.403,96.184,94.2699,-0.00363357,0.0452201,21.0286,0.750659,0.179816,0.0,0.0
921,230,62.6711,62.2789,139.922,96.1923,93.1302,-0.0036506,0.0450962,21.0288,0.750659,0.289389,0.0,0.0
924,230.75,62.2734,61.8856,141.636,96.218,94.5665,-0.003679,0.0449869,21.0289,0.770677,0.154871,0.0,0.0
927,231.5,62.7818,61.5861,141.633,96.258,93.6954,-0.00370406,0.0448676,21.029,0.750659,0.241372,0.0,0.0
930,232.25,62.3059,60.9851,142.139,96.2798,94.2888,-0.00372979,0.0447498,21.0288,0.750659,0.186922,0.0,0.0
933,233,61.1587,60.6415,138.857,96.2999,94.2865,-0.00373335,0.0446401,21.0287,0.740651,0.189016,0.0,0.0
936,233.75,61.4869,60.3703,143.88,96.3237,94.4831,-0.00372529,0.0445602,21.0287,0.730642,0.172585,0.0,0.0
939,234.5,61.3071,60.5282,138.439,96.3565,93.8179,-0.00371488,0.0443887,21.0286,0.740651,0.23884,0.0,0.0
942,235.25,61.3414,60.3391,137.699,96.3862,94.3313,-0.00370255,0.0442637,21.0286,0.760668,0.192776,0.0,0.0
945,236,60.7438,59.9089,140.827,96.4135,94.6515,-0.00369154,0.0441587,21.0286,0.730642,0.164991,0.0,0.0
948,236.75,61.0406,60.0088,140.924,96.4278,94.5897,-0.00369365,0.0440583,21.0286,0.730642,0.172156,0.0,0.0
951,237.5,60.3744,58.7633,144.789,96.459,94.4112,-0.00371057,0.0439454,21.0285,0.730642,0.19195,0.0,0.0
954,238.25,60.3472,59.1755,137.606,96.5006,94.4877,-0.00373134,0.0438463,21.0285,0.750659,0.188558,0.0,0.0
957,239,59.692,59.4185,141.539,96.5235,95.7981,-0.00374968,0.0437343,21.0285,0.760668,0.0674805,0.0,0.0
960,239.75,59.6673,59.1983,144.554,96.5386,94.6585,-0.0037546,0.0436288,21.0285,0.740651,0.175928,0.0,0.0
963,240.5,59.8854,58.8768,140.486,96.5635,93.8383,-0.00374872,0.04354,21.0285,0.740651,0.256081,0.0,0.0
966,241.25,58.7883,58.1896,139.542,96.6074,94.6585,-0.0037404,0.0434753,21.0285,0.760668,0.182306,0.0,0.0
969,242,59.5217,58.3173,145.639,96.6335,95.5694,-0.00371894,0.0433885,21.0288,0.720633,0.0990504,0.0,0.0
972,242.75,59.3164,58.2854,143.958,96.6533,94.6079,-0.00368553,0.0432735,21.0293,0.720633,0.19134,0.0,0.0
975,243.5,59.3595,57.771,140.469,96.6925,95.4246,-0.00364199,0.0431301,21.0297,0.730642,0.118078,0.0,0.0
978,244.25,58.7056,57.0121,142.186,96.7242,95.5783,-0.0035854,0.0430117,21.03,0.730642,0.106605,0.0,0.0
981,245,58.6856,57.4336,142.39,96.7542,95.6587,-0.00351579,0.0429016,21.0303,0.720633,0.101868,0.0,0.0
984,245.75,58.5834,57.3093,143.379,96.7558,94.6956,-0.00345747,0.0428082,21.0304,0.730642,0.192533,0.0,0.0
987,246.5,58.3931,56.7671,146.423,96.7855,95.1082,-0.00341327,0.0427066,21.0305,0.720633,0.156386,0.0,0.0
990,247.25,58.2155,56.685,144.546,96.8243,94.888,-0.00339052,0.0425849,21.0306,0.740651,0.180703,0.0,0.0
993,248,58.4214,56.6938,144.655,96.848,95.6587,-0.00337797,0.0424585,21.0307,0.730642,0.110534,0.0,0.0
996,248.75,57.9957,56.3208,141.856,96.8666,94.6457,-0.0034067,0.0423664,21.0307,0.730642,0.207479,0.0,0.0
999,249.5,57.9284,56.2726,142.136,96.8892,95.2762,-0.0034327,0.0422993,21.0308,0.730642,0.150172,0.0,0.0
1002,250.25,57.9558,56.1984,146.063,96.9157,95.5795,,0.0421749,,0.740651,0.124191,0.0,0.0
1005,251,57.4935,55.8507,141.806,96.9442,95.2144,,0.0420912,,0.760668,0.161053,0.0,0.0
1008,251.75,57.2617,55.7335,145.616,96.9513,95.8518,,0.0420421,,0.740651,0.102025,0.0,0.0
1011,252.5,56.8674,55.6483,137.653,96.9675,95.3218,,0.042017,,0.730642,0.153123,0.0,0.0
1014,253.25,56.6988,55.4089,142.232,96.9992,95.2387,,,,0.750659,0.163841,0.0,0.0
1017,254,56.5468,55.2848,138.937,97.0241,95.9438,,,,0.750659,0.100163,0.0,0.0
1020,254.75,56.4286,55.0958,142.916,97.051,95.7923,,,,0.740651,0.116774,0.0,0.0
1023,255.5,56.4698,54.8998,144.088,97.0277,95.4416,,,,0.740651,0.147438,0.0,0.0
1026,256.25,56.4644,54.7131,141.813,97.0708,95.6274,,,,0.720633,0.134016,0.0,0.0
1029,257,55.9151,54.4818,143.099,97.0938,95.695,,,,0.730642,0.129808,0.0,0.0
1032,257.75,56.2504,54.6552,141.968,97.1021,95.9654,,,,0.720633,0.105331,0.0,0.0
1035,258.5,56.1247,54.3688,141.776,97.1215,94.7288,,,,0.720633,0.223136,0.0,0.0
1038,259.25,55.9488,54.3003,138.076,97.1321,95.2496,,,,0.720633,0.175078,0.0,0.0
1041,260,55.6884,53.8172,144.63,97.144,95.6822,,,,0.740651,0.135629,0.0,0.0
1043,260.5,55.6474,53.4605,141.803,97.1519,95.7583,,,,0.750659,0.129245,0.0,0.0