File: 01_Data/ABS/Cone/ABS_Cone_HF75Scan_220218_R2.csv
Names,Time,Stack TC,Smoke TC,Exh Press,Smoke Comp,Smoke Meas,CO Meter,CO2 Meter,O2 Meter,Sample Mass,Ext Coeff,Start Test,Flame Verif
Chan Gain,,500,500,1,1,1,1,1,1,1,1,1.0,1.0
Offset,,0,0,0.134285,0,0,0,0,0,0,0,0.0,0.0
Gain,,1,1,25.011,13.3843,12.7012,1,1,1,1.00088,1.02252,1.0,1.0
Units,sec,C,C,Pa,%,%,%,%,%,g,/m,,
Baseline,,43.463,44.2031,145.493,100.159,93.5002,0.00058303,0.0529158,21.0035,-866.754,0.617189,,
2,0.25,40.9978,41.5885,146.314,99.4518,92.5941,0.000787075,0.0674242,20.981,32.2983,0.640843,0.0,0.0
4,0.75,40.6795,41.041,147.436,99.4035,92.7236,0.000793981,0.0670777,20.9812,32.3483,0.623963,0.0,0.0
6,1.25,41.0415,41.4269,144.524,99.3594,92.6069,0.000803119,0.0666575,20.9819,32.3483,0.631274,0.0,0.0
8,1.75,41.1507,41.6729,143.139,99.3088,92.6933,0.00081052,0.0661917,20.9825,32.3083,0.618333,0.0,0.0
10,2.25,40.5313,41.3556,142.739,99.2724,92.991,0.000826362,0.0657043,20.9829,32.3483,0.586291,0.0,0.0
12,2.75,40.9848,41.4772,148.692,99.2238,91.908,0.000848057,0.0652104,20.9833,32.3783,0.68697,0.0,0.0
14,3.25,40.282,40.9634,148.239,99.2022,92.0677,0.000869372,0.0647811,20.9836,32.3083,0.669442,0.0,0.0
16,3.75,40.3573,40.6892,148.567,99.1756,93.272,0.000886638,0.0644069,20.9838,32.3183,0.550475,0.0,0.0
18,4.25,40.4348,41.3945,144.873,99.1385,92.2073,0.000892744,0.0641038,20.984,32.3483,0.650094,0.0,0.0
20,4.75,40.8302,41.1679,143.725,99.0988,92.2995,0.000890599,0.0640395,20.9837,32.2983,0.63754,0.0,0.0
22,5.25,40.7475,41.295,145.96,99.0878,92.4782,0.000875082,0.0639874,20.9835,32.2582,0.619195,0.0,0.0
24,5.75,40.5478,41.4896,146.439,99.0711,91.7852,0.00085011,0.0641214,20.9824,32.3283,0.68515,0.0,0.0
26,6.25,40.876,41.3565,143.576,99.0625,92.3185,0.000829883,0.0643885,20.9815,32.2983,0.632403,0.0,0.0
28,6.75,40.7261,41.5309,145.248,99.0327,91.1941,0.000786089,0.0647149,20.9806,32.2883,0.739624,0.0,0.0
30,7.25,40.6108,41.838,143.697,99.0274,92.4088,0.000750616,0.0650785,20.9796,32.3083,0.620452,0.0,0.0
32,7.75,40.9612,41.2423,145.148,99.0208,91.9809,0.000706941,0.065373,20.9788,32.2883,0.661492,0.0,0.0
34,8.25,41.0043,41.2156,145.464,99.0265,91.5336,0.000671564,0.0657512,20.9782,32.2883,0.705735,0.0,0.0
36,8.75,40.5163,41.3526,143.416,99.0196,92.2635,0.000642909,0.0660575,20.9777,32.3083,0.633868,0.0,0.0
38,9.25,41.0795,41.6253,148.307,99.0327,91.1227,0.000670776,0.0664592,20.9765,32.3183,0.746642,0.0,0.0
40,9.75,40.9404,41.525,147.661,99.0376,92.2573,0.000693348,0.0667845,20.975,32.3183,0.636099,0.0,0.0
42,10.25,40.6504,41.5401,147.985,99.0629,90.4088,0.000866538,0.0675092,20.9733,32.3283,0.819934,0.0,0.0
44,10.75,41.094,41.3127,142.977,99.058,90.7456,0.00100682,0.0680961,20.9715,32.3383,0.786135,0.0,0.0
46,11.25,40.7046,41.3012,146.01,99.0674,90.8561,0.00150548,0.0702624,20.9663,32.2983,0.776073,0.0,0.0
48,11.75,41.079,41.2099,146.117,99.096,89.9444,0.00190939,0.0735388,20.9587,32.2683,0.869117,0.0,0.0
50,12.25,41.3863,41.6599,150.65,99.1287,89.8518,0.00284459,0.0761927,20.9359,32.1381,0.881317,0.0,0.0
52,12.75,40.9797,41.6297,140.575,99.1474,85.6086,0.00360211,0.0902771,20.9025,32.2382,1.31692,0.0,1.0
54,13.25,40.7777,41.7505,140.285,99.174,76.8339,0.00505314,0.101685,20.8557,32.0881,2.28928,0.0,1.0
56,13.75,40.8504,41.7667,136.017,99.2022,69.2736,0.00622847,0.120006,20.8002,32.1782,3.22091,0.0,1.0
58,14.25,41.1934,42.1035,132.574,99.2377,59.681,0.0077912,0.143019,20.7552,32.0781,4.56102,0.0,1.0
60,14.75,41.0553,42.5823,130.296,99.2692,54.4301,0.00960665,0.173342,20.7187,31.998,5.38993,0.0,1.0
62,15.25,41.7166,42.4168,121.562,99.31,52.4494,0.0110772,0.208418,20.6447,31.928,5.7261,0.0,1.0
64,15.75,41.7035,43.4198,128.286,99.33,49.4473,0.0122683,0.251234,20.5847,31.9079,6.25657,0.0,1.0
66,16.25,42.6258,43.6551,118.204,99.3827,45.7992,0.0144417,0.29888,20.5362,31.7978,6.94877,0.0,1.0
68,16.75,42.657,45.1241,115.019,99.3974,44.1518,0.0172898,0.351557,20.4547,31.7078,7.27867,0.0,1.0
70,17.25,43.7437,45.3934,118.49,99.4534,47.4798,0.0195969,0.406901,20.3886,31.6577,6.63189,0.0,1.0
72,17.75,43.7169,46.2196,112.09,99.4734,44.1576,0.0227297,0.45173,20.3136,31.5776,7.28434,0.0,0.0
74,18.25,44.6325,47.4606,111.721,99.5298,41.1149,0.0252673,0.488041,20.2334,31.4275,7.9298,0.0,0.0
76,18.75,45.3779,48.8686,112.004,99.5612,42.8937,0.0269046,0.542707,20.1992,31.3474,7.55275,0.0,0.0
78,19.25,46.4239,50.6639,117.445,99.5976,42.6405,0.0297045,0.609715,20.0908,31.2273,7.60911,0.0,0.0
80,19.75,47.8518,51.5181,107.016,99.6392,39.2404,0.032446,0.663992,20.0031,31.0972,8.3582,0.0,0.0
82,20.25,48.528,52.9068,111.611,99.6866,35.6426,0.0350927,0.7355,19.8727,31.0272,9.22502,0.0,0.0
84,20.75,49.4418,54.3899,110.357,99.7148,36.4524,0.0376719,0.793422,19.7505,30.9171,9.02607,0.0,0.0
86,21.25,50.3541,55.9713,100.738,99.7761,36.2461,0.040153,0.862369,19.6365,30.7469,9.08246,0.0,0.0
88,21.75,51.0802,57.615,108.864,99.8092,33.603,0.0428892,0.891762,19.5306,30.7269,9.76457,0.0,0.0
90,22.25,52.3326,59.3043,103.185,99.8655,33.7984,0.0451055,0.951278,19.4326,30.4567,9.71764,0.0,0.0
92,22.75,53.7176,60.7217,95.7244,99.8904,30.3917,0.0469008,1.00781,19.3532,30.5267,10.6728,0.0,0.0
94,23.25,55.0369,62.1339,108.538,99.9444,33.1988,0.0494451,1.06187,19.2772,30.3266,9.88528,0.0,0.0
96,23.75,55.8127,63.7445,103.827,99.9725,33.8868,0.0515059,1.1131,19.205,30.2465,9.70383,0.0,0.0
98,24.25,57.1752,65.3614,101.167,100.023,31.7379,0.054078,1.16251,19.1342,30.0663,10.296,0.0,0.0
100,24.75,57.6003,67.6004,105.7,100.036,31.0917,0.0561614,1.20966,19.0656,29.9462,10.4817,0.0,0.0
102,25.25,59.4989,68.9366,100.171,100.082,29.7568,0.0583815,1.25763,18.996,29.8661,10.8794,0.0,0.0
104,25.75,60.0899,70.4516,98.6539,100.105,27.1396,0.0606591,1.30528,18.9269,29.696,11.7072,0.0,0.0
106,26.25,61.482,72.2968,105.423,100.145,27.8862,0.062965,1.34388,18.871,29.5359,11.4674,0.0,0.0
108,26.75,62.6908,74.0403,94.9749,100.171,27.6734,0.0652477,1.39675,18.7899,29.4458,11.5384,0.0,0.0
110,27.25,64.1046,75.5724,93.9559,100.219,27.4358,0.0676494,1.43958,18.7242,29.2756,11.62,0.0,0.0
112,27.75,64.7769,77.7956,90.8418,100.231,25.076,0.0700924,1.48481,18.6439,29.1755,12.4278,0.0,0.0
114,28.25,65.933,78.7807,102.188,100.286,25.7524,0.0711338,1.53094,18.5788,29.0054,12.194,0.0,0.0
116,28.75,67.1253,80.8724,97.9127,100.303,25.7419,0.0740643,1.57572,18.539,28.8453,12.1992,0.0,0.0
118,29.25,69.0481,83.4462,91.1555,100.323,24.8725,0.076438,1.61868,18.4711,28.7852,12.5091,0.0,0.0
120,29.75,70.1656,85.6781,93.4384,100.343,24.833,0.0783606,1.65996,18.4161,28.585,12.5252,0.0,0.0
122,30.25,71.4851,87.6967,84.2265,100.373,26.0291,0.0810303,1.69923,18.3578,28.4049,12.1059,0.0,0.0
124,30.75,72.8417,89.5818,96.7243,100.382,25.1287,0.0831927,1.73104,18.3105,28.3148,12.4225,0.0,0.0
126,31.25,74.2058,91.331,95.1352,100.409,25.7846,0.0856575,1.75005,18.2654,28.1546,12.1938,0.0,0.0
128,31.75,75.6494,93.4796,88.1466,100.412,23.0988,0.0876539,1.78256,18.2228,27.9845,13.1807,0.0,0.0
130,32.25,76.1467,94.9956,88.0894,100.433,23.281,0.0899361,1.81359,18.1758,27.7743,13.1121,0.0,0.0
132,32.75,77.4809,96.8509,93.3797,100.439,25.9881,0.0920374,1.84295,18.1377,27.7143,12.126,0.0,0.0
134,33.25,79.0774,99.1889,86.8269,100.452,24.8562,0.093967,1.86674,18.0966,27.6642,12.5265,0.0,0.0
136,33.75,80.6581,101.123,89.9419,100.463,24.4469,0.0957429,1.89324,18.0633,27.364,12.6764,0.0,0.0
138,34.25,81.7412,103.136,90.1006,100.462,24.5667,0.0973729,1.91471,18.0275,27.2439,12.6325,0.0,0.0
140,34.75,83.0068,104.562,89.835,100.458,24.0198,0.098918,1.93759,17.9984,27.0937,12.8341,0.0,0.0
142,35.25,84.0387,106.186,100.392,100.47,22.4275,0.100372,1.95612,17.9704,27.0237,13.4504,0.0,0.0
144,35.75,85.5054,107.86,97.4258,100.464,24.3213,0.101549,1.97687,17.9437,26.7935,12.7227,0.0,0.0
146,36.25,86.274,109.324,94.7268,100.456,24.3597,0.102503,1.99368,17.9221,26.6433,12.7079,0.0,0.0
148,36.75,87.5172,110.803,87.291,100.457,21.6472,0.104046,2.01182,17.8988,26.5733,13.7668,0.0,0.0
150,37.25,89.2011,112.986,89.5388,100.436,22.0651,0.105296,2.02651,17.88,26.3331,13.5935,0.0,0.0
152,37.75,89.9385,115.085,96.5801,100.432,24.7574,0.106897,2.04196,17.8647,26.213,12.5605,0.0,0.0
154,38.25,91.0971,116.533,80.8009,100.434,20.4425,0.108193,2.05448,17.85,26.0428,14.2784,0.0,0.0
156,38.75,92.3117,118.15,80.8009,100.443,23.7446,0.109244,2.06718,17.8359,25.8526,12.9362,0.0,0.0
158,39.25,93.4032,119.834,86.5857,100.432,21.905,0.110567,2.07978,17.8227,25.6525,13.6584,0.0,0.0
160,39.75,94.9303,121.402,85.0203,100.435,23.9019,0.112065,2.08998,17.8104,25.5424,12.8762,0.0,0.0
162,40.25,95.0206,122.103,88.2451,100.43,21.8732,0.113478,2.10569,17.7924,25.3522,13.6712,0.0,0.0
164,40.75,96.3733,124.03,83.957,100.426,23.3341,0.114803,2.11842,17.7707,25.1921,13.091,0.0,0.0
166,41.25,98.4016,125.777,100.751,100.424,20.5875,0.116269,2.12872,17.746,25.0219,14.2141,0.0,0.0
168,41.75,99.5227,127.434,89.1053,100.418,21.7488,0.117457,2.14851,17.7197,24.8217,13.7214,0.0,0.0
170,42.25,100.2,129.254,92.1928,100.406,21.9635,0.118917,2.16453,17.6874,24.6716,13.6322,0.0,0.0
172,42.75,101.25,130.661,93.5827,100.396,21.8317,0.1201,2.18274,17.6513,24.5515,13.6853,0.0,0.0
174,43.25,102.588,132.311,92.8064,100.381,21.6945,0.121058,2.20218,17.622,24.3513,13.7404,0.0,0.0
176,43.75,103.377,133.657,93.6018,100.37,24.0531,0.122769,2.2233,17.5896,24.2212,12.8138,0.0,0.0
178,44.25,104.608,135.245,87.507,100.354,19.9297,0.124155,2.24522,17.5556,24.001,14.4991,0.0,0.0
180,44.75,105.603,136.719,83.6647,100.342,19.8313,0.126038,2.26927,17.528,23.9209,14.5424,0.0,0.0
182,45.25,106.886,138.285,91.6798,100.325,21.0557,0.127563,2.29442,17.486,23.6507,14.0036,0.0,0.0
184,45.75,108.079,139.652,84.2944,100.322,19.5607,0.128799,2.32087,17.4521,23.5106,14.6639,0.0,0.0
186,46.25,109.051,141.363,83.8586,100.302,19.077,0.130762,2.34776,17.4187,23.2904,14.8867,0.0,0.0
188,46.75,110.297,142.649,84.8043,100.297,21.5356,0.132353,2.36954,17.3863,23.1603,13.7989,0.0,0.0
190,47.25,111.616,144.405,90.1846,100.274,19.9258,0.134461,2.39362,17.3488,23.0202,14.4937,0.0,0.0
192,47.75,112.697,146.008,89.9854,100.269,19.8851,0.13617,2.41891,17.3082,22.7799,14.5116,0.0,0.0
194,48.25,113.584,147.321,86.5796,100.249,18.9394,0.138415,2.44444,17.2683,22.6298,14.9469,0.0,0.0
196,48.75,114.713,149.429,76.4388,100.248,18.6824,0.140233,2.46965,17.2296,22.4096,15.0693,0.0,0.0
198,49.25,116.091,151.011,95.7893,100.219,18.4429,0.142773,2.49008,17.1982,22.2695,15.1825,0.0,0.0
200,49.75,116.894,152.532,87.6207,100.226,17.4482,0.144831,2.51717,17.1559,22.0093,15.6804,0.0,0.0
202,50.25,118.326,154.322,80.0887,100.21,18.2118,0.146497,2.53911,17.1216,21.8091,15.2948,0.0,0.0
204,50.75,119.226,155.782,107.051,100.205,17.2719,0.149973,2.57056,17.0795,21.669,15.7696,0.0,0.0
206,51.25,120.069,157.27,72.9193,100.176,19.4642,0.152788,2.59604,17.0326,21.4788,14.6952,0.0,0.0
208,51.75,121.332,158.568,73.8589,100.182,18.8731,0.156393,2.63352,16.98,21.1785,14.9724,0.0,0.0
210,52.25,121.936,160.014,79.9063,100.161,17.7595,0.159313,2.66388,16.9243,21.0284,15.516,0.0,0.0
212,52.75,123.501,161.555,78.2393,100.169,16.4556,0.162958,2.68847,16.8653,20.8082,16.2007,0.0,0.0
214,53.25,124.885,163.269,72.0003,100.146,17.3331,0.165911,2.73108,16.8051,20.7582,15.7325,0.0,0.0
216,53.75,125.614,165.647,85.953,100.192,16.8354,0.169616,2.7656,16.7441,20.4379,15.998,0.0,0.0
218,54.25,127.055,167.406,80.03,100.228,14.5547,0.172617,2.80134,16.6837,20.2677,17.3069,0.0,0.0
220,54.75,127.888,169.212,90.9448,100.321,16.0932,0.175796,2.83729,16.6348,20.0876,16.4139,0.0,0.0
222,55.25,129.33,170.808,82.8709,100.367,16.5571,0.179044,2.8728,16.5746,19.8774,16.1632,0.0,0.0
224,55.75,130.571,172.367,78.5156,100.441,18.6153,0.182434,2.90732,16.5259,19.7073,15.1188,0.0,0.0
226,56.25,131.829,173.736,77.2089,100.486,17.556,0.185864,2.94387,16.4561,19.4771,15.6484,0.0,0.0
228,56.75,132.874,175.432,78.808,100.55,15.8912,0.188642,2.9812,16.3996,19.2068,16.5477,0.0,0.0
230,57.25,133.565,177.312,71.7232,100.595,15.1958,0.192041,3.02217,16.3538,19.1167,16.953,0.0,0.0
232,57.75,134.939,178.49,86.2362,100.662,16.7335,0.195827,3.065,16.2855,18.8365,16.0945,0.0,0.0
234,58.25,136.095,180.547,80.5223,100.691,14.9447,0.19961,3.10916,16.2302,18.5763,17.1111,0.0,0.0
236,58.75,137.527,182.178,87.7833,100.758,16.0773,0.20332,3.15344,16.1598,18.4461,16.4618,0.0,0.0
238,59.25,138.221,184.482,72.4987,100.785,15.1606,0.207098,3.18931,16.1028,18.0158,16.9909,0.0,0.0
240,59.75,139.781,186.428,78.9492,100.829,13.7834,0.210853,3.23476,16.041,17.9557,17.8489,0.0,0.0
242,60.25,140.82,188.673,82.9869,100.851,15.9408,0.213894,3.27157,15.991,17.6755,16.5465,0.0,0.0
244,60.75,142.2,190.548,83.2266,100.894,15.1303,0.218493,3.31,15.9505,17.4653,17.0185,0.0,0.0
246,61.25,143.757,192.273,79.0889,100.903,14.8896,0.222218,3.34886,15.9017,17.2151,17.1631,0.0,0.0
248,61.75,144.849,194.19,63.5402,100.938,13.9993,0.225235,3.39405,15.8478,17.0049,17.7192,0.0,0.0
250,62.25,145.52,195.79,86.601,100.946,14.1648,0.231144,3.44298,15.7801,16.6946,17.6145,0.0,0.0
252,62.75,147.126,197.828,73.3055,100.977,15.5548,0.23593,3.48261,15.7036,16.5445,16.7776,0.0,0.0
254,63.25,148.484,199.303,76.5159,100.976,13.652,0.241819,3.56519,15.6033,16.1942,17.9479,0.0,0.0
256,63.75,149.801,201.045,76.9135,100.997,13.9101,0.246589,3.63207,15.4876,15.984,17.7818,0.0,0.0
258,64.25,150.828,203.648,69.196,100.996,17.8211,0.251645,3.68625,15.3938,15.6137,15.5593,0.0,0.0
260,64.75,152.425,206.641,70.9424,101.014,14.347,0.256813,3.76077,15.2482,15.4135,17.5059,0.0,0.0
262,65.25,154.151,209.278,71.9797,101.009,14.6342,0.260999,3.8487,15.1302,15.1833,17.3277,0.0,0.0
264,65.75,155.535,212.245,85.0531,101.013,12.3485,0.265773,3.93965,15.0083,15.0131,18.8513,0.0,0.0
266,66.25,157.16,214.058,66.549,101.015,14.3543,0.26964,4.01333,14.9096,14.6228,17.5014,0.0,0.0
268,66.75,158.722,216.475,89.3412,101.005,11.5248,0.274177,4.08052,14.8216,14.4827,19.4698,0.0,0.0
270,67.25,159.632,218.582,66.3277,100.989,13.1578,0.277852,4.14171,14.7432,14.3025,18.2798,0.0,0.0
272,67.75,160.73,220.881,70.2219,100.983,14.3908,0.281334,4.19128,14.6556,13.9422,17.4759,0.0,0.0
274,68.25,162.758,223.451,81.3772,100.964,13.1109,0.28461,4.25469,14.5632,13.7721,18.3096,0.0,0.0
276,68.75,164.127,225.63,79.0453,100.949,13.1435,0.288045,4.30605,14.4824,13.4818,18.286,0.0,0.0
278,69.25,165.553,227.897,51.5445,100.94,19.6142,0.290828,4.36191,14.4116,13.1815,14.6944,0.0,0.0
280,69.75,166.443,230.446,57.682,100.908,13.9505,0.293822,4.40717,14.3447,13.0314,17.7479,0.0,0.0
282,70.25,168.066,232.943,72.9811,100.892,12.3151,0.296247,4.45031,14.2818,12.7912,18.8648,0.0,0.0
284,70.75,169.768,235.318,73.4078,100.858,11.9314,0.298211,4.49109,14.2309,12.4109,19.1458,0.0,0.0
286,71.25,170.666,237.145,75.2374,100.839,12.6198,0.300241,4.53424,14.1896,12.1606,18.6409,0.0,0.0
288,71.75,171.641,238.691,71.521,100.802,13.007,0.302281,4.57828,14.1204,12.0606,18.3665,0.0,0.0
290,72.25,173.15,241.178,71.3668,100.763,15.0617,0.304204,4.62216,14.0644,11.7903,17.0476,0.0,0.0
292,72.75,174.406,243.464,53.6802,100.733,14.128,0.306005,4.6651,14.0123,11.4,17.619,0.0,0.0
294,73.25,176.382,245.601,75.1313,100.695,13.6543,0.307833,4.69988,13.9702,11.1197,17.9214,0.0,0.0
296,73.75,177.387,248.384,62.1533,100.66,14.3419,0.309645,4.73004,13.9315,10.8795,17.4776,0.0,0.0
298,74.25,179.272,250.963,67.1894,100.612,12.0446,0.311512,4.75447,13.9002,10.4992,19.0391,0.0,0.0
300,74.75,180.249,252.717,62.9601,100.555,11.5744,0.313382,4.77473,13.8708,10.3791,19.3912,0.0,0.0
302,75.25,180.659,253.83,68.9854,100.517,13.0427,0.315307,4.79157,13.8471,10.2089,18.3166,0.0,0.0
304,75.75,182.08,255.592,81.368,100.459,12.0601,0.317236,4.80521,13.8028,9.79858,19.014,0.0,0.0
306,76.25,183.697,258.296,69.064,100.424,15.0718,0.319134,4.82736,13.7669,9.46829,17.0113,0.0,0.0
308,76.75,184.896,259.726,84.0746,100.426,11.0453,0.320973,4.8453,13.7235,9.25811,19.7994,0.0,0.0
310,77.25,185.867,261.201,58.9323,100.448,17.4099,0.322462,4.8726,13.6884,9.138,15.72,0.0,0.0
312,77.75,186.753,262.696,74.9206,100.453,11.5019,0.323669,4.89472,13.6448,8.6776,19.4385,0.0,0.0
314,78.25,187.793,264.81,64.0439,100.473,9.97242,0.325833,4.92329,13.6095,8.4474,20.7201,0.0,0.0
316,78.75,189.615,266.397,74.3955,100.486,11.7411,0.327586,4.94643,13.5579,8.25723,19.2568,0.0,0.0
318,79.25,190.426,267.986,70.3204,100.506,16.137,0.330327,4.97907,13.5162,7.997,16.4061,0.0,0.0
320,79.75,191.213,269.52,65.6712,100.535,16.9308,0.332547,5.0055,13.4685,7.67672,15.978,0.0,0.0
322,80.25,191.99,271.306,73.3712,100.546,15.3249,0.335733,5.04068,13.4173,7.44652,16.8729,0.0,0.0
324,80.75,193.482,273.141,54.9892,100.559,14.7144,0.338313,5.08156,13.3607,6.98612,17.2386,0.0,0.0
326,81.25,194.785,274.971,62.0884,100.588,16.3707,0.341479,5.11467,13.301,6.91606,16.2844,0.0,0.0
328,81.75,196.001,277.253,65.4407,100.598,11.1624,0.344043,5.17284,13.2526,6.63581,19.7202,0.0,0.0
330,82.25,197.344,279.238,65.0209,100.635,12.4744,0.346441,5.21995,13.159,6.17541,18.7266,0.0,0.0
332,82.75,198.043,280.781,55.7204,100.647,11.2019,0.348671,5.29375,13.0831,6.1654,19.6928,0.0,0.0
334,83.25,199.594,282.429,55.6616,100.672,24.9648,0.350478,5.35353,13.0217,5.66496,12.5071,0.0,0.0
336,83.75,200.421,284.274,73.3131,100.688,19.1491,0.351941,5.41624,12.9719,5.61492,14.8873,0.0,0.0
338,84.25,202.239,286.623,60.6168,100.721,17.5072,0.35264,5.46704,12.9316,5.18454,15.6943,0.0,0.0
340,84.75,203.534,289.806,71.3325,100.738,11.6388,0.353206,5.49584,12.9005,4.88428,19.3578,0.0,0.0
342,85.25,204.681,292.132,72.3049,100.769,9.61504,0.353665,5.50806,12.8768,4.66408,21.0738,0.0,0.0
344,85.75,206.444,293.967,79.1133,100.78,12.3,0.3518,5.49641,12.8575,4.47392,18.8659,0.0,0.0
346,86.25,207.252,294.863,62.4334,100.821,12.5465,0.350289,5.46759,12.8753,4.08358,18.6916,0.0,0.0
348,86.75,207.68,296.26,65.9147,100.832,11.0976,0.346227,5.44425,12.9199,3.91343,19.7932,0.0,0.0
350,87.25,208.491,297.321,78.2416,100.87,11.6077,0.342937,5.42534,12.9952,3.64319,19.3935,0.0,0.0
352,87.75,209.549,297.9,68.345,100.868,12.2919,0.337922,5.32807,13.0917,3.47304,18.8796,0.0,0.0
354,88.25,209.906,299.057,71.405,100.911,11.912,0.331743,5.24928,13.2258,3.21281,19.165,0.0,0.0
356,88.75,210.253,300.076,82.8724,100.923,12.3279,0.324319,5.18546,13.3849,3.07269,18.8583,0.0,0.0
358,89.25,211.038,300.926,76.1968,100.961,16.7703,0.316126,5.07513,13.5628,2.8525,16.1013,0.0,0.0
360,89.75,212.229,300.618,72.9475,100.968,12.783,0.30676,4.98576,13.751,2.60228,18.5371,0.0,0.0
362,90.25,212.348,301.191,73.5322,100.999,13.6636,0.296717,4.86359,13.964,2.42212,17.9423,0.0,0.0
364,90.75,212.687,301.833,75.8762,101.009,13.1497,0.285437,4.76463,14.1909,2.19192,18.2871,0.0,0.0
366,91.25,213.247,301.74,81.6237,101.041,14.5524,0.27347,4.61382,14.3748,2.08182,17.3808,0.0,0.0
368,91.75,213.211,301.632,78.4759,101.053,15.2664,0.263777,4.49166,14.6225,1.80158,16.9523,0.0,0.0
370,92.25,214.036,301.2,86.704,101.073,14.6392,0.25091,4.32673,14.8232,1.73152,17.3303,0.0,0.0
372,92.75,213.899,300.885,72.8071,101.081,17.7866,0.235973,4.19314,15.0971,1.52133,15.5842,0.0,0.0
374,93.25,213.495,299.988,87.7268,101.11,20.7189,0.220585,4.01371,15.319,1.36119,14.2181,0.0,0.0
376,93.75,212.996,299.743,82.1778,101.113,20.9491,0.20516,3.86837,15.6284,1.24109,14.1192,0.0,0.0
378,94.25,212.899,298.602,94.7238,101.149,24.038,0.189748,3.69878,15.8791,1.16102,12.8888,0.0,0.0
380,94.75,212.473,297.214,99.3195,101.147,27.3241,0.174637,3.51473,16.2409,1.08095,11.7393,0.0,0.0
382,95.25,212.44,296.424,92.0126,101.191,30.9719,0.160008,3.36566,16.5339,1.07094,10.6193,0.0,0.0
384,95.75,211.962,294.296,97.2869,101.167,34.086,0.140039,3.17477,17.0562,0.940824,9.75777,0.0,0.0
386,96.25,210.52,292.845,113.106,101.198,40.8374,0.134668,2.95702,17.1967,0.89078,8.13967,0.0,0.0
388,96.75,209.91,290.611,109.438,101.194,42.4952,0.115383,2.78065,17.6486,0.89078,7.78238,0.0,0.0
390,97.25,208.639,287.5,117.066,101.211,50.2187,0.105527,2.55395,17.9121,0.820719,6.28596,0.0,0.0
392,97.75,206.715,285.596,118.972,101.204,55.0677,0.0996995,2.33767,18.0245,0.81071,5.45857,0.0,0.0
394,98.25,205.691,282.682,121.758,101.215,65.1746,0.0897348,2.13309,18.311,0.780684,3.94817,0.0,0.0
396,98.75,204.486,279.139,123.34,101.212,70.5352,0.0816634,1.86802,18.543,0.770675,3.23894,0.0,0.0
398,99.25,202.538,276.642,125.884,101.222,76.8083,0.0734056,1.77859,18.731,0.770675,2.47561,0.0,0.0
400,99.75,200.757,273.481,130.756,101.212,78.7956,0.0651689,1.56047,18.9504,0.760666,2.24558,0.0,0.0
402,100.25,199.136,270.269,127.029,101.232,78.8316,0.0578588,1.40654,19.128,0.770675,2.24329,0.0,0.0
404,100.75,197.397,267.24,130.853,101.233,80.7844,0.051363,1.34092,19.3252,0.750657,2.02392,0.0,0.0
406,101.25,196.094,264.438,132.621,101.229,80.5402,0.0456816,1.2287,19.4849,0.740648,2.05064,0.0,0.0
408,101.75,194.219,261.708,128.261,101.202,82.0317,0.0407019,1.09794,19.6572,0.73064,1.88374,0.0,0.0
410,102.25,191.899,258.418,133.993,101.215,83.9857,0.0366684,0.992028,19.7967,0.710622,1.67375,0.0,0.0
412,102.75,190.373,255.492,128.94,101.198,84.7908,0.0327859,0.89425,19.9267,0.700613,1.58666,0.0,0.0
414,103.25,189.147,253.447,132.808,101.205,85.7466,0.029641,0.80426,20.0472,0.700613,1.48669,0.0,0.0
416,103.75,187.382,250.067,129.258,101.177,86.7369,0.0267154,0.731369,20.1538,0.710622,1.38127,0.0,0.0
418,104.25,185.9,247.496,129.31,101.184,87.5211,0.0243457,0.660519,20.2482,0.700613,1.30116,0.0,0.0
420,104.75,183.98,244.1,134.34,101.149,87.9412,0.0221808,0.598293,20.3308,0.700613,1.25509,0.0,0.0
422,105.25,182.475,241.856,130.911,101.152,88.7944,0.0204273,0.543536,20.4032,0.700613,1.16875,0.0,0.0
424,105.75,180.906,239.547,131.679,101.137,88.549,0.0190069,0.499183,20.4618,0.680596,1.19226,0.0,0.0
426,106.25,179.484,235.83,131.465,101.128,88.9816,0.0176348,0.455114,20.5093,0.680596,1.14775,0.0,0.0
428,106.75,177.774,234.119,131.355,101.093,89.1843,0.0165234,0.419419,20.5529,0.670587,1.12419,0.0,0.0
430,107.25,176.313,231.252,133.866,101.094,89.6056,0.0156232,0.387764,20.593,0.660578,1.08199,0.0,0.0
432,107.75,175.09,228.987,131.967,101.061,89.9018,0.0147666,0.359658,20.6273,0.640561,1.0495,0.0,0.0
434,108.25,172.725,225.787,134.206,101.059,90.1297,0.0140728,0.334324,20.6568,0.660578,1.0266,0.0,0.0
436,108.75,171.956,223.468,134.168,101.021,89.9173,0.0134866,0.311493,20.6807,0.640561,1.04436,0.0,0.0
438,109.25,170.587,221.276,131.601,101.018,90.0778,0.0129901,0.292999,20.705,0.640561,1.02815,0.0,0.0
440,109.75,169.186,219.445,137.33,100.976,89.7979,0.0125845,0.27802,20.7246,0.640561,1.05232,0.0,0.0
442,110.25,166.741,216.664,135.196,100.963,89.8956,0.0122528,0.260862,20.7464,0.620543,1.04145,0.0,0.0
444,110.75,166.082,214.061,134.004,100.946,89.6983,0.0119863,0.246963,20.764,0.620543,1.05959,0.0,0.0
446,111.25,165.202,212.308,136.38,100.912,90.1181,0.0117722,0.233768,20.7814,0.630552,1.01467,0.0,0.0
448,111.75,163.877,210.378,131.569,100.884,90.0088,0.0115975,0.223079,20.7966,0.610535,1.02312,0.0,0.0
450,112.25,162.221,207.681,133.007,100.84,89.2471,0.011456,0.213385,20.81,0.610535,1.09538,0.0,0.0
452,112.75,160.621,205.532,135.542,100.817,89.6448,0.0113414,0.204599,20.8209,0.610535,1.0535,0.0,0.0
454,113.25,159.752,203.655,134.625,100.787,89.7746,0.0112362,0.196719,20.8297,0.610535,1.03787,0.0,0.0
456,113.75,159.07,201.871,136.176,100.765,89.9712,0.0111397,0.189651,20.8386,0.670587,1.01622,0.0,0.0
458,114.25,157.518,199.022,132.768,100.728,89.4246,0.011052,0.183266,20.8459,0.65057,1.06763,0.0,0.0
460,114.75,155.829,197.221,133.624,100.676,89.5727,0.0109723,0.177501,20.8531,0.660578,1.04817,0.0,0.0
462,115.25,154.996,196.418,133.187,100.649,89.7432,0.010896,0.172831,20.8589,0.660578,1.02867,0.0,0.0
464,115.75,154.016,193.929,136.147,100.612,89.7053,0.0108236,0.167655,20.8645,0.630552,1.02919,0.0,0.0
466,116.25,152.886,192.372,134.59,100.6,89.0948,0.0107465,0.163462,20.869,0.620543,1.08935,0.0,0.0
468,116.75,152.013,190.276,140.407,100.539,89.3754,0.0106673,0.159297,20.8745,0.600526,1.05568,0.0,0.0
470,117.25,150.893,188.863,132.96,100.51,89.3312,0.0105832,0.155232,20.8789,0.590517,1.0576,0.0,0.0
472,117.75,150.002,187.429,131.913,100.488,89.9025,0.0104971,0.151453,20.8834,0.600526,0.998375,0.0,0.0
474,118.25,148.692,184.525,134.961,100.439,89.1754,0.0104068,0.147956,20.8871,0.590517,1.06684,0.0,0.0
476,118.75,148.014,183.267,131.758,100.399,89.1335,0.0103151,0.144624,20.8907,0.580508,1.06752,0.0,0.0
478,119.25,146.784,181.717,130.92,100.364,89.4293,0.0102409,0.141476,20.8943,0.570499,1.03466,0.0,0.0
480,119.75,146,180.072,137.304,100.319,89.3397,0.0101807,0.138925,20.8972,0.580508,1.03963,0.0,0.0
482,120.25,144.781,178.351,132.673,100.285,89.2204,0.0100577,0.135956,20.9004,0.580508,1.04856,0.0,0.0
484,120.75,144.037,176.624,137.423,100.245,89.2692,0.00995811,0.133551,20.9031,0.570499,1.04011,0.0,0.0
486,121.25,142.608,175.352,129.974,100.208,89.0498,0.0098267,0.130702,20.9059,0.570499,1.05885,0.0,0.0
488,121.75,141.956,173.893,131.385,100.168,88.8971,0.00972025,0.128394,20.9088,0.540473,1.07066,0.0,0.0
490,122.25,140.836,172.565,133.872,100.138,88.8777,0.00957818,0.125947,20.9117,0.540473,1.06995,0.0,0.0
492,122.75,139.937,170.694,135.27,100.093,88.9254,0.0094631,0.123444,20.9144,0.560491,1.06108,0.0,0.0
494,123.25,139.097,169.379,135.226,100.058,88.8347,0.00933166,0.121417,20.9166,0.540473,1.06712,0.0,0.0
496,123.75,138.26,167.922,138.656,100.024,88.6777,0.00919079,0.118935,20.9198,0.550482,1.0799,0.0,0.0
498,124.25,136.823,166.485,133.887,99.9832,88.8347,0.00903581,0.116925,20.9223,0.540473,1.06041,0.0,0.0
500,124.75,136.496,164.691,132.81,99.9464,88.6358,0.00887349,0.114615,20.9252,0.540473,1.07721,0.0,0.0
502,125.25,135.381,163.509,135.188,99.9027,88.5812,0.00870598,0.112744,20.9276,0.540473,1.07882,0.0,0.0
504,125.75,134.405,162.195,135.774,99.8716,88.7746,0.00853785,0.110604,20.9305,0.540473,1.05647,0.0,0.0
506,126.25,133.403,160.43,132.562,99.8234,88.7134,0.00840166,0.108871,20.9328,0.540473,1.05833,0.0,0.0
508,126.75,133.091,159.255,130.825,99.801,88.5734,0.00824046,0.107102,20.9346,0.550482,1.07047,0.0,0.0
510,127.25,132.211,158.487,132.612,99.7458,88.8033,0.00806408,0.105341,20.937,0.560491,1.04227,0.0,0.0
512,127.75,131.222,156.951,130.79,99.725,88.6552,0.00788803,0.103609,20.9389,0.540473,1.05536,0.0,0.0
514,128.25,130.061,155.859,133.384,99.6825,88.3525,0.00771557,0.101932,20.941,0.550482,1.08222,0.0,0.0
516,128.75,129.674,154.239,136.024,99.656,88.3882,0.00757587,0.100573,20.9426,0.550482,1.07621,0.0,0.0
518,129.25,128.452,153.101,134.146,99.6057,88.7099,0.00741774,0.0991307,20.9439,0.540473,1.0391,0.0,0.0
520,129.75,127.965,152.078,133.624,99.5857,88.2951,0.00728966,0.0976549,20.945,0.550482,1.07933,0.0,0.0
522,130.25,127.539,150.433,133.645,99.5543,88.6401,0.00718592,0.0961703,20.9468,0.530464,1.04152,0.0,0.0
524,130.75,126.702,149.772,132.543,99.5334,88.5544,0.00702234,0.0947073,20.9481,0.520456,1.04832,0.0,0.0
526,131.25,125.974,148.332,136.125,99.4963,88.2017,0.00688985,0.0935223,20.9492,0.520456,1.08077,0.0,0.0
528,131.75,125.154,147.155,133.461,99.4926,87.992,0.00671978,0.0921823,20.9503,0.540473,1.10179,0.0,0.0
530,132.25,124.712,146.484,132.456,99.4436,88.1719,0.00658202,0.0910968,20.9514,0.540473,1.07905,0.0,0.0
532,132.75,123.257,145.535,134.691,99.4293,88.6122,0.00638353,0.0902177,20.9525,0.520456,1.03308,0.0,0.0
534,133.25,123.333,143.715,135.268,99.3987,88.5541,0.00622275,0.0891355,20.9536,0.530464,1.0362,0.0,0.0
536,133.75,121.97,143.14,139.541,99.3823,88.3831,0.00609252,0.0879258,20.9545,0.520456,1.05206,0.0,0.0
538,134.25,121.67,141.829,137.863,99.3647,88.644,0.0058494,0.086776,20.9555,0.510447,1.02404,0.0,0.0
540,134.75,120.77,140.715,132.73,99.3472,88.3374,0.00565248,0.0856916,20.9565,0.530464,1.05353,0.0,0.0
542,135.25,119.537,139.658,135.768,99.3166,88.3696,0.00542306,0.0846167,20.9578,0.530464,1.0475,0.0,0.0
544,135.75,119.461,138.752,133.986,99.2998,88.4413,0.00523724,0.0837461,20.9592,0.520456,1.03871,0.0,0.0
546,136.25,118.791,137.967,136.043,99.2765,88.4754,0.00503216,0.082871,20.9606,0.520456,1.03315,0.0,0.0
548,136.75,117.97,136.698,134.188,99.2733,88.4072,0.00486604,0.0820094,20.962,0.530464,1.03977,0.0,0.0
550,137.25,117.721,135.387,133.202,99.2459,88.2742,0.00471148,0.0813115,20.9631,0.540473,1.0508,0.0,0.0
552,137.75,117.124,134.874,132.922,99.241,88.2517,0.00456827,0.0805395,20.964,0.550482,1.05264,0.0,0.0
554,138.25,116.316,134.12,133.325,99.2169,88.0358,0.00442568,0.0797284,20.9649,0.540473,1.07243,0.0,0.0
556,138.75,115.537,132.963,132.878,99.2189,88.175,0.00431018,0.0789681,20.9659,0.550482,1.05845,0.0,0.0
558,139.25,114.516,131.631,135.233,99.2124,88.0021,0.00419764,0.0782594,20.9667,0.540473,1.07546,0.0,0.0
560,139.75,113.949,130.901,135.577,99.1997,88.625,0.00410649,0.0775969,20.9678,0.520456,1.01105,0.0,0.0
562,140.25,114.123,130.726,132.954,99.185,88.2874,0.00403265,0.0769807,20.9687,0.510447,1.04396,0.0,0.0
564,140.75,113.351,129.526,136.605,99.1858,87.8556,0.00397285,0.0763931,20.9694,0.520456,1.08801,0.0,0.0
566,141.25,112.701,128.772,134.199,99.1809,88.48,0.00389784,0.0758376,20.97,0.530464,1.02404,0.0,0.0
568,141.75,112.456,127.853,137.494,99.1752,88.242,0.00383709,0.0752919,20.9705,0.550482,1.04768,0.0,0.0
570,142.25,111.487,127.062,136.634,99.1499,88.0866,0.00377903,0.0747637,20.9709,0.530464,1.0612,0.0,0.0
572,142.75,111.084,126.143,132.91,99.1732,88.1009,0.003732,0.0743359,20.9716,0.520456,1.06185,0.0,0.0
574,143.25,110.575,125.255,136.646,99.1511,87.9723,0.00368127,0.0737936,20.9722,0.510447,1.07296,0.0,0.0
576,143.75,110.071,125.216,138.404,99.1748,87.8695,0.00364018,0.0733543,20.9727,0.520456,1.08558,0.0,0.0
578,144.25,109.64,123.59,133.918,99.1495,88.3889,0.00357532,0.0729028,20.9731,0.500438,1.03043,0.0,0.0
580,144.75,109.221,122.885,135.726,99.1732,87.9482,0.00352278,0.072451,20.9734,0.510447,1.07741,0.0,0.0
582,145.25,108.319,122.119,135.483,99.1756,88.2393,0.00345432,0.0720114,20.9737,0.500438,1.04799,0.0,0.0
584,145.75,107.811,121.185,136.515,99.1756,88.0424,0.00337556,0.0715892,20.9742,0.490429,1.06803,0.0,0.0
586,146.25,107.097,120.403,138.398,99.1707,87.825,0.00328988,0.0711737,20.9747,0.500438,1.08977,0.0,0.0
588,146.75,106.886,119.684,131.867,99.201,87.6188,0.00320078,0.0707709,20.9752,0.510447,1.11359,0.0,0.0
590,147.25,106.206,119.168,136.275,99.1944,87.9079,0.0031286,0.0704447,20.9756,0.520456,1.08344,0.0,0.0
592,147.75,105.562,118.475,135.432,99.2108,88.387,0.00304622,0.0700547,20.9759,0.510447,1.03617,0.0,0.0
594,148.25,105.495,117.862,133.558,99.2132,88.144,0.00297949,0.0697388,20.9764,0.510447,1.06109,0.0,0.0
596,148.75,104.915,117.277,137.479,99.2206,87.7777,0.00292166,0.0694168,20.977,0.510447,1.0991,0.0,0.0
598,149.25,104.083,116.389,135.15,99.241,88.594,0.00287482,0.0690964,20.9777,0.490429,1.01792,0.0,0.0
600,149.75,103.741,115.433,138.183,99.2532,87.9168,0.00283025,0.0687708,20.9785,0.510447,1.08785,0.0,0.0
602,150.25,103.604,114.522,136.302,99.2602,88.249,0.0027882,0.0684475,20.9791,0.520456,1.05465,0.0,0.0
604,150.75,102.877,114.447,137.065,99.2871,88.2994,0.00275413,0.0681857,20.9797,0.520456,1.05197,0.0,0.0
606,151.25,103.017,113.437,135.196,99.2929,88.0157,0.00270012,0.067834,20.9801,0.500438,1.08135,0.0,0.0
608,151.75,102.071,112.903,128.452,99.3174,87.7827,0.00265638,0.0675491,20.9804,0.510447,1.10734,0.0,0.0
610,152.25,101.552,112.36,132.536,99.3349,88.361,0.00262094,0.0672207,20.9807,0.520456,1.05003,0.0,0.0
612,152.75,101.212,111.787,136.007,99.3468,88.1909,0.0025357,0.0669547,20.9809,0.510447,1.06838,0.0,0.0
614,153.25,100.623,110.882,134.694,99.3647,87.9354,0.00246666,0.0667099,20.981,0.510447,1.09602,0.0,0.0
616,153.75,100.687,110.465,134.9,99.3946,88.1862,0.00237309,0.0664851,20.981,0.510447,1.07317,0.0,0.0
618,154.25,99.9694,109.984,140.706,99.4052,87.9424,0.00229729,0.0662297,20.981,0.510447,1.09896,0.0,0.0
620,154.75,99.4782,108.986,136,99.4358,88.2676,0.0022359,0.0659567,20.981,0.520456,1.06862,0.0,0.0
622,155.25,99.2768,108.348,139.212,99.4464,88.6955,0.00216243,0.0657355,20.981,0.520456,1.0262,0.0,0.0
624,155.75,98.7474,107.913,137.821,99.4718,88.1579,0.00208154,0.0655564,20.9809,0.500438,1.08301,0.0,0.0
626,156.25,98.3985,107.706,139.574,99.4942,88.3471,0.00201601,0.0652161,20.9809,0.510447,1.06581,0.0,0.0
628,156.75,97.8055,106.909,137.8,99.5146,88.5192,0.00191352,0.0649405,20.9816,0.490429,1.0502,0.0,0.0
630,157.25,97.3046,106.324,137.302,99.5379,88.2017,0.00187936,0.0646805,20.9817,0.490429,1.08452,0.0,0.0
632,157.75,97.2615,105.952,134.199,99.5653,88.1211,0.00182095,0.0644369,20.982,0.510447,1.09519,0.0,0.0
634,158.25,96.47,105.068,135.72,99.582,88.0459,0.00177496,0.0642397,20.9823,0.500438,1.10436,0.0,0.0
636,158.75,96.2013,104.57,134.961,99.6029,88.7409,0.00173888,0.0640798,20.9825,0.480421,1.03571,0.0,0.0
638,159.25,95.8051,103.729,135.047,99.6307,88.83,0.00170967,0.0638528,20.9826,0.480421,1.0292,0.0,0.0
640,159.75,95.1891,103.28,133.993,99.6584,88.692,0.00170854,0.0635466,20.9827,0.480421,1.04565,0.0,0.0
642,160.25,95.1018,102.699,134.401,99.6829,88.3595,0.00170762,0.0634364,20.9828,0.480421,1.08155,0.0,0.0
644,160.75,95.1783,102.081,136.055,99.7152,88.7529,0.00173319,0.063248,20.9832,0.470412,1.0446,0.0,0.0
646,161.25,94.2995,101.55,135.959,99.7581,88.3668,0.00175391,0.0629979,20.9836,0.490429,1.08756,0.0,0.0
648,161.75,94.6816,101.568,136.272,99.7769,88.5986,0.00177068,0.0627953,20.984,0.500438,1.06576,0.0,0.0
650,162.25,93.5508,100.708,136.694,99.7944,88.5657,0.00178929,0.0625895,20.9843,0.500438,1.07067,0.0,0.0
652,162.75,93.601,100.472,137.193,99.8149,88.782,0.00179722,0.0624227,20.9844,0.500438,1.05063,0.0,0.0
654,163.25,93.2471,99.7713,137.224,99.8471,89.1715,0.00180702,0.0622319,20.9847,0.510447,1.01426,0.0,0.0
656,163.75,92.4878,98.7764,133.656,99.8655,89.0219,0.00181496,0.0620774,20.9853,0.510447,1.03097,0.0,0.0
658,164.25,92.379,99.0481,133.339,99.9035,88.6653,0.0018076,0.0619229,20.9858,0.510447,1.07038,0.0,0.0
660,164.75,91.8732,98.9675,134.298,99.9182,89.1308,0.00180165,0.0617713,20.9862,0.520456,1.02473,0.0,0.0
662,165.25,90.9832,97.026,136.091,99.9558,88.8913,0.00179155,0.0616486,20.9865,0.500438,1.05225,0.0,0.0
664,165.75,90.9359,96.5123,136.47,99.9819,88.5889,0.00177862,0.0615669,20.9868,0.500438,1.08515,0.0,0.0
666,166.25,90.6758,97.2472,136.509,100.009,88.8812,0.00176419,0.0614273,20.987,0.500438,1.05806,0.0,0.0
668,166.75,90.5108,96.7026,136.364,100.038,88.9913,0.00174895,0.0612923,20.9872,0.500438,1.04952,0.0,0.0
670,167.25,90.4826,96.4574,135.941,100.069,89.206,0.0017366,0.0611631,20.9874,0.480421,1.03065,0.0,0.0
672,167.75,90.1804,96.0823,135.164,100.073,89.6239,0.00171783,0.0610584,20.9875,0.460403,0.989178,0.0,0.0
674,168.25,89.8151,95.5597,139.195,100.115,88.8099,0.00170263,0.0609737,20.9876,0.460403,1.07471,0.0,0.0
676,168.75,89.3594,94.7051,136.31,100.122,88.9374,0.00168438,0.060905,20.9876,0.470412,1.0625,0.0,0.0
678,169.25,89.1175,94.9579,135.564,100.156,88.7765,0.00166427,0.0608633,20.9877,0.500438,1.08177,0.0,0.0
680,169.75,89.1397,93.9604,136.704,100.163,88.9963,0.00164271,0.0608295,20.9878,0.500438,1.06025,0.0,0.0
682,170.25,88.638,94.3742,135.463,100.216,88.963,0.0016205,0.0607326,20.9878,0.470412,1.06837,0.0,0.0
684,170.75,87.9834,93.2997,136.238,100.198,89.1878,0.00160251,0.060654,20.9878,0.480421,1.04412,0.0,0.0
686,171.25,88.3769,93.1873,140.434,100.245,88.8289,0.00157043,0.0605611,20.9879,0.470412,1.08442,0.0,0.0
688,171.75,88.0379,92.646,135.428,100.254,89.0266,0.00154444,0.0604594,20.9879,0.470412,1.06532,0.0,0.0
690,172.25,87.2624,92.5743,139.196,100.277,89.2227,0.00151088,0.0603771,20.9879,0.470412,1.04767,0.0,0.0
692,172.75,86.9448,92.1973,137.57,100.289,89.149,0.0014837,0.0603383,20.9879,0.490429,1.05617,0.0,0.0
694,173.25,86.7075,91.8154,134.736,100.321,89.2707,0.00145793,0.0602921,20.9882,0.480421,1.04675,0.0,0.0
696,173.75,86.8503,91.243,132.299,100.341,89.7994,0.00143706,0.0602416,20.9886,0.490429,0.995534,0.0,0.0
698,174.25,86.3893,91.1036,134.761,100.36,89.2006,0.00142015,0.0602006,20.9889,0.500438,1.0573,0.0,0.0
700,174.75,85.8868,90.3135,136.231,100.357,89.2816,0.00140646,0.0600561,20.9892,0.490429,1.04887,0.0,0.0
702,175.25,85.823,90.2745,134.276,100.397,89.6072,0.00139537,0.0599391,20.9894,0.490429,1.01983,0.0,0.0
704,175.75,85.5568,89.8667,135.035,100.395,89.0556,0.00138638,0.0598303,20.9896,0.510447,1.07503,0.0,0.0
706,176.25,84.8128,89.1138,137.508,100.422,89.399,0.00137845,0.0597423,20.9893,0.490429,1.04288,0.0,0.0
708,176.75,84.3503,88.4463,137.341,100.437,88.8537,0.00137143,0.0596563,20.9887,0.500438,1.09908,0.0,0.0
710,177.25,85.0062,89.0094,136.939,100.459,89.8153,0.00135949,0.0595734,20.9883,0.490429,1.00453,0.0,0.0
712,177.75,84.9031,89.168,138.903,100.455,89.0045,0.00134982,0.0595063,20.9879,0.500438,1.08547,0.0,0.0
714,178.25,83.802,87.7575,137.972,100.475,89.3758,0.00133936,0.059452,20.9876,0.490429,1.04992,0.0,0.0
716,178.75,83.4641,87.2722,137.426,100.489,89.6723,0.00132852,0.0593384,20.9874,0.480421,1.02149,0.0,0.0
718,179.25,83.6938,87.5868,132.936,100.51,89.2944,0.00131579,0.0592464,20.9872,0.490429,1.0613,0.0,0.0
720,179.75,83.92,87.3943,134.199,100.506,89.0324,0.00130193,0.0591792,20.9875,0.500438,1.08726,0.0,0.0
722,180.25,83.3844,86.9742,136.85,100.519,89.5366,0.00128675,0.0591313,20.9877,0.500438,1.03776,0.0,0.0
724,180.75,83.6489,86.732,136.975,100.527,88.8661,0.00127091,0.0590926,20.9879,0.480421,1.10588,0.0,0.0
726,181.25,83.2218,86.14,134.759,100.547,89.327,0.00125808,0.0590612,20.988,0.480421,1.06131,0.0,0.0
728,181.75,82.6165,85.9558,138.496,100.541,89.8231,0.00124893,0.0590211,20.9882,0.480421,1.01108,0.0,0.0
730,182.25,82.7359,85.6347,139.634,100.557,89.6084,0.00124153,0.0589755,20.9883,0.470412,1.03397,0.0,0.0
732,182.75,82.4499,85.676,138.373,100.55,89.5708,0.00124079,0.0589092,20.9883,0.480421,1.03708,0.0,0.0
734,183.25,82.7697,85.3762,136.306,100.579,89.4332,0.00124492,0.0588292,20.9884,0.470412,1.05349,0.0,0.0
736,183.75,81.9056,85.0857,136.486,100.566,89.758,0.0012542,0.058757,20.9885,0.470412,1.01977,0.0,0.0
738,184.25,82,84.3343,137.48,100.581,90.0444,0.00126703,0.058692,20.9885,0.470412,0.992542,0.0,0.0
740,184.75,81.6694,84.2267,137.467,100.585,89.1351,0.00128467,0.0586393,20.9885,0.470412,1.08395,0.0,0.0
742,185.25,81.1967,83.5055,134.971,100.581,89.9533,0.00130547,0.058582,20.9886,0.460403,1.00166,0.0,0.0
744,185.75,81.278,83.816,136.81,100.574,89.477,0.00132232,0.0585224,20.9886,0.470412,1.04866,0.0,0.0
746,186.25,80.7066,83.325,140.037,100.585,89.5878,0.00134347,0.0584741,20.9886,0.470412,1.03851,0.0,0.0
748,186.75,80.5987,83.4285,134.032,100.575,88.9479,0.0013606,0.0584489,20.9886,0.470412,1.10193,0.0,0.0
750,187.25,80.4573,82.7086,135.974,100.598,89.9797,0.00137323,0.0584285,20.9886,0.480421,1.00056,0.0,0.0
752,187.75,80.1567,82.6912,133.402,100.567,89.551,0.00138346,0.0583703,20.9886,0.460403,1.04059,0.0,0.0
754,188.25,80.0287,82.4075,137.111,100.596,89.4673,0.00138845,0.0583231,20.9886,0.440386,1.0516,0.0,0.0
756,188.75,79.6835,81.8288,138.819,100.555,89.6312,0.00138953,0.0582709,20.9887,0.450394,1.03154,0.0,0.0
758,189.25,79.7708,81.7605,136.351,100.565,89.4529,0.00138999,0.0582287,20.9887,0.450394,1.05027,0.0,0.0
760,189.75,79.6617,81.4327,135.239,100.557,89.7386,0.00137894,0.0581798,20.9887,0.440386,1.02098,0.0,0.0
762,190.25,78.9091,81.3285,136.073,100.555,89.3905,0.00135933,0.0581271,20.9887,0.450394,1.05558,0.0,0.0
764,190.75,78.5736,81.0149,137.411,100.546,89.418,0.00133358,0.0580624,20.9887,0.440386,1.05209,0.0,0.0
766,191.25,79.0919,80.8891,138.272,100.559,89.4572,0.00130384,0.0579903,20.9887,0.450394,1.04933,0.0,0.0
768,191.75,78.9239,80.4761,136.836,100.555,89.2068,0.00127976,0.0579318,20.9887,0.440386,1.07411,0.0,0.0
770,192.25,78.7232,80.3384,138.67,100.54,89.5022,0.00123777,0.0579069,20.9887,0.430377,1.04308,0.0,0.0
772,192.75,78.2038,80.0346,140.874,100.536,89.7149,0.00120376,0.0578643,20.9887,0.440386,1.02141,0.0,0.0
774,193.25,78.283,79.86,135.355,100.539,90.4181,0.00116373,0.0578078,20.9891,0.450394,0.95172,0.0,0.0
776,193.75,77.9458,79.7721,137.745,100.525,88.8886,0.00113131,0.0577423,20.9895,0.450394,1.10343,0.0,0.0
778,194.25,77.7911,79.4149,136.987,100.506,89.32,0.00109756,0.0576892,20.9898,0.430377,1.05833,0.0,0.0
780,194.75,77.6152,79.0673,134.025,100.511,89.113,0.00106628,0.0576463,20.99,0.440386,1.07961,0.0,0.0
782,195.25,76.942,79.0894,140.565,100.484,89.106,0.0010374,0.0576115,20.9902,0.460403,1.07791,0.0,0.0
784,195.75,77.4226,78.5197,136.775,100.466,89.2859,0.00101401,0.0575415,20.9904,0.450394,1.05818,0.0,0.0
786,196.25,76.9841,78.6459,134.645,100.51,89.3692,0.000988494,0.0574849,20.9905,0.470412,1.05371,0.0,0.0
788,196.75,77.1678,78.2385,136.154,100.497,89.5405,0.000961921,0.0574251,20.9906,0.460403,1.03544,0.0,0.0
790,197.25,76.8722,77.5469,137.59,100.505,89.6208,0.000940396,0.0573767,20.9907,0.460403,1.0281,0.0,0.0
792,197.75,76.494,78.3024,136.996,100.502,89.1936,0.000908001,0.0573097,20.9907,0.450394,1.0707,0.0,0.0
794,198.25,76.4451,77.9441,137.199,100.481,89.4467,0.000881761,0.0572554,20.9908,0.440386,1.04335,0.0,0.0
796,198.75,76.5627,77.5336,143.264,100.484,89.7851,0.000860506,0.0571697,20.9908,0.450394,1.00974,0.0,0.0
798,199.25,76.0508,77.3209,136.88,100.481,89.3882,0.000847029,0.0571003,20.9907,0.450394,1.04929,0.0,0.0
800,199.75,76.5,76.8168,136.404,100.477,89.2467,0.000836114,0.0570441,20.9905,0.450394,1.0631,0.0,0.0
802,200.25,76.0115,76.8357,137.211,100.464,90.2312,0.000844728,0.0569568,20.9904,0.450394,0.963565,0.0,0.0
804,200.75,75.9671,76.7429,137.023,100.466,89.4064,0.000851707,0.0568861,20.9903,0.440386,1.04612,0.0,0.0
806,201.25,74.7709,75.7578,139.304,100.465,89.7045,0.000865895,0.0568289,20.9902,0.450394,1.01612,0.0,0.0
808,201.75,74.7032,76.0142,134.641,100.464,89.6529,0.000885069,0.0567686,20.9901,0.430377,1.02116,0.0,0.0
810,202.25,75.3513,76.3279,136.467,100.453,89.2851,0.000899287,0.0567198,20.99,0.460403,1.05713,0.0,0.0
812,202.75,75.2426,75.8966,133.445,100.45,89.0254,0.00090962,0.056651,20.9899,0.450394,1.083,0.0,0.0
814,203.25,75.0666,75.7925,136.517,100.436,89.1564,0.000917991,0.0565689,20.9899,0.460403,1.0685,0.0,0.0
816,203.75,74.8367,75.9761,138.411,100.462,89.2614,0.000920831,0.0564951,20.9899,0.440386,1.06027,0.0,0.0
818,204.25,74.2353,74.6445,138.257,100.437,89.6646,0.000919587,0.0564288,20.9898,0.440386,1.01767,0.0,0.0
820,204.75,74.3475,74.5866,140.598,100.43,89.6161,0.000919891,0.0563677,20.9898,0.440386,1.02189,0.0,0.0
822,205.25,73.8416,75.3256,137.72,100.415,89.3258,0.000921321,0.0563117,20.9902,0.440386,1.04961,0.0,0.0
824,205.75,74.4483,74.9073,137.799,100.42,89.9417,0.000918539,0.0562663,20.9906,0.450394,0.988416,0.0,0.0
826,206.25,74.063,74.8592,136.499,100.405,89.732,0.000912741,0.0562434,20.9909,0.460403,1.00804,0.0,0.0
828,206.75,74.3101,74.7896,135.653,100.405,89.7049,0.000900824,0.0562249,20.9911,0.450394,1.01079,0.0,0.0
830,207.25,74.1002,74.3715,138.56,100.397,89.9591,0.000884673,0.0561952,20.9913,0.430377,0.984598,0.0,0.0
832,207.75,73.7082,74.3255,134.903,100.38,89.5006,0.000871592,0.056158,20.9914,0.440386,1.02894,0.0,0.0
834,208.25,73.3306,73.398,136.283,100.376,89.4661,0.000846037,0.0561279,20.9918,0.420368,1.0321,0.0,0.0
836,208.75,73.0394,73.1156,138.201,100.386,89.4351,0.000825337,0.0561035,20.9923,0.450394,1.03609,0.0,0.0
838,209.25,73.6755,73.4761,139.813,100.37,89.8343,0.000798601,0.0560838,20.9927,0.430377,0.994679,0.0,0.0
840,209.75,73.3688,73.5169,134.279,100.376,89.6425,0.000776946,0.0560539,20.993,0.430377,1.0144,0.0,0.0
842,210.25,73.1497,73.4987,136.059,100.351,89.4839,0.000759404,0.0560297,20.9933,0.430377,1.02802,0.0,0.0
844,210.75,72.7795,73.281,137.471,100.354,88.8579,0.00075018,0.0559545,20.9935,0.440386,1.09128,0.0,0.0
846,211.25,72.7188,73.0605,136.367,100.341,90.2258,0.000742709,0.0558935,20.9937,0.430377,0.95312,0.0,0.0
848,211.75,72.7841,73.0261,132.401,100.339,89.2611,0.00074912,0.055872,20.9938,0.410359,1.04933,0.0,0.0
850,212.25,72.1257,71.9996,137.286,100.344,88.9804,0.000754313,0.0558545,20.9939,0.430377,1.07801,0.0,0.0
852,212.75,72.0247,71.8883,141.565,100.336,89.1971,0.000761145,0.0558331,20.994,0.460403,1.0555,0.0,0.0
854,213.25,72.2291,72.4799,140.53,100.319,89.3471,0.00076904,0.0558091,20.9941,0.430377,1.03889,0.0,0.0
856,213.75,72.304,71.8891,138.618,100.317,89.3448,0.000776091,0.0557897,20.9941,0.420368,1.03894,0.0,0.0
858,214.25,71.3069,71.5957,139.577,100.304,90.0913,0.000782394,0.0557447,20.9942,0.410359,0.963141,0.0,0.0
860,214.75,71.8248,71.7602,134.829,100.304,89.32,0.000786842,0.055682,20.9942,0.420368,1.04027,0.0,0.0
862,215.25,71.7767,71.8764,139.263,100.292,89.8471,0.000788428,0.0556589,20.9943,0.420368,0.98639,0.0,0.0
864,215.75,71.9059,71.6669,137.609,100.29,89.5553,0.000790483,0.0556403,20.9943,0.430377,1.01547,0.0,0.0
866,216.25,71.9097,71.6355,132.873,100.279,89.7491,0.000791557,0.0556105,20.9943,0.420368,0.99509,0.0,0.0
868,216.75,71.7335,71.5018,137.432,100.288,89.2223,,0.0555732,,0.420368,1.04869,0.0,0.0
870,217.25,71.2089,71.8307,138.053,100.281,89.5006,,0.0555138,,0.410359,1.0201,0.0,0.0
872,217.75,71.2061,71.5287,135.212,100.269,88.9041,,0.0554393,,0.420368,1.07902,0.0,0.0
874,218.25,70.99,70.7026,134.319,100.249,89.5801,,0.0554076,,0.420368,1.00929,0.0,0.0
876,218.75,71.2009,71.2904,139.031,100.26,89.4483,,0.0553533,,0.430377,1.02348,0.0,0.0
878,219.25,70.8452,71.0124,133.457,100.25,88.7785,,0.0553093,,0.420368,1.08999,0.0,0.0
880,219.75,70.8133,71.026,137.556,100.252,88.9409,,,,0.420368,1.07374,0.0,0.0
882,220.25,70.7231,70.4679,143.093,100.241,89.1444,,,,0.420368,1.05233,0.0,0.0
884,220.75,70.714,70.7301,135.356,100.244,89.8781,,,,0.410359,0.97902,0.0,0.0
886,221.25,70.8937,70.9626,140.018,100.227,89.4173,,,,0.410359,1.0236,0.0,0.0
888,221.75,70.6894,70.1306,141.373,100.23,89.3293,,,,0.410359,1.03272,0.0,0.0
890,222.25,70.6646,70.3757,138.783,100.22,88.7591,,,,0.410359,1.08924,0.0,0.0
892,222.75,70.5585,70.4925,137.535,100.228,90.1805,,,,0.420368,0.947473,0.0,0.0
894,223.25,69.9165,69.6731,138.239,100.219,88.8138,,,,0.410359,1.08368,0.0,0.0
896,223.75,70.1309,69.9842,136.818,100.227,90.0192,,,,0.430377,0.963453,0.0,0.0
898,224.25,70.05,69.9429,136.552,100.218,89.7173,,,,0.430377,0.992821,0.0,0.0
900,224.75,69.9048,69.742,138.228,100.221,90.034,,,,0.450394,0.961473,0.0,0.0
902,225.25,70.2925,69.4844,136.913,100.223,89.0355,,,,0.450394,1.06161,0.0,0.0
904,225.75,69.7385,69.2531,137.041,100.272,89.0851,,,,0.430377,1.06104,0.0,0.0
906,226.25,69.8259,69.0265,134.4,100.282,90.0626,,,,0.430377,0.964025,0.0,0.0
908,226.75,69.5819,68.7033,134.023,100.336,89.4921,,,,0.400351,1.02592,0.0,0.0
910,227.25,69.3448,69.1849,136.863,100.35,89.9312,,,,0.400351,0.983184,0.0,0.0