File: 01_Data/ABS/Cone/ABS_Cone_HF50Scan_220217_R2.csv
Names,Time,Stack TC,Smoke TC,Exh Press,Smoke Comp,Smoke Meas,CO Meter,CO2 Meter,O2 Meter,Sample Mass,Ext Coeff,Start Test,Flame Verif
Chan Gain,,500,500,1,1,1,1,1,1,1,1,1.0,1.0
Offset,,0,0,0.140898,0,0,0,0,0,0,0,0.0,0.0
Gain,,1,1,25.011,12.9668,12.6588,1,1,1,1.00088,1.01977,1.0,1.0
Units,sec,C,C,Pa,%,%,%,%,%,g,/m,,
Baseline,,34.1316,35.133,147.322,95.8549,97.3714,-0.00433253,0.0380251,21.0453,-872.193,-0.140357,,
3,0.5,32.1457,32.1622,144.741,95.9335,97.8499,-0.00430903,0.0422253,21.0389,32.5486,-0.176928,0.0,0.0
6,1.25,31.8698,32.413,149.231,95.9311,98.1048,-0.0043136,0.0426678,21.0378,32.1482,-0.200427,0.0,0.0
9,2,31.9047,32.0863,148.721,95.9264,98.0619,-0.00431525,0.0430251,21.0374,32.2283,-0.19696,0.0,0.0
12,2.75,31.9372,32.2283,148.31,95.9327,97.6327,-0.00431717,0.0433451,21.0369,32.1783,-0.157131,0.0,0.0
15,3.5,32.0561,32.5512,148.621,95.9387,97.4917,-0.00431856,0.0435615,21.0364,32.0481,-0.143649,0.0,0.0
18,4.25,32.0045,32.8445,147.939,95.9347,97.7197,-0.0043314,0.0438789,21.0361,32.1883,-0.164907,0.0,0.0
21,5,31.7389,32.081,151.389,95.9244,97.6899,-0.00434667,0.0440468,21.0359,32.1182,-0.163144,0.0,0.0
24,5.75,31.7876,32.4057,153.758,95.9557,97.8823,-0.00436345,0.0442408,21.0357,32.1783,-0.177827,0.0,0.0
27,6.5,31.8914,32.5575,146.963,95.945,97.8329,-0.004381,0.0444011,21.0356,32.0982,-0.174303,0.0,0.0
30,7.25,31.7038,32.886,147.811,95.9442,97.3809,-0.00439972,0.0444971,21.0358,32.1783,-0.132954,0.0,0.0
33,8,31.8179,32.79,148.517,95.9395,97.8634,-0.00441464,0.0445314,21.0363,32.0882,-0.17761,0.0,0.0
36,8.75,32.3085,32.4135,147.088,95.9347,97.5219,-0.00442339,0.044477,21.0366,32.1282,-0.146783,0.0,0.0
39,9.5,31.9832,32.4752,147.95,95.9537,97.3167,-0.00441457,0.0443339,21.0373,32.0882,-0.126175,0.0,0.0
42,10.25,32.0054,32.5455,145.257,95.9521,97.8,-0.00440814,0.0441106,21.038,32.0982,-0.170636,0.0,0.0
45,11,31.8676,32.6972,144.59,95.9422,97.518,-0.00436969,0.0437892,21.0386,32.0982,-0.145727,0.0,0.0
48,11.75,31.7605,32.9741,148.172,95.9343,97.5536,-0.00432508,0.0434247,21.0392,32.1082,-0.149725,0.0,0.0
51,12.5,32.2537,32.6302,144.11,95.9513,97.8406,-0.00428612,0.0430519,21.04,32.0982,-0.17442,0.0,0.0
54,13.25,32.1021,32.8789,145.75,95.9434,97.7861,-0.00425879,0.0426105,21.0406,32.0682,-0.170176,0.0,0.0
57,14,31.9337,32.8577,149.882,95.9406,97.7459,-0.004276,0.0421984,21.0415,32.0882,-0.166758,0.0,0.0
60,14.75,31.9405,32.5076,147.434,95.945,97.2016,-0.00432288,0.0417434,21.0423,32.0882,-0.116399,0.0,0.0
63,15.5,32.3028,32.9192,146.983,95.9537,97.0386,-0.00438477,0.0412928,21.0429,32.1082,-0.100571,0.0,0.0
66,16.25,31.9663,32.8048,142.76,95.9493,97.2742,-0.00445226,0.0408477,21.0434,32.0882,-0.122674,0.0,0.0
69,17,32.0525,32.8563,149.21,95.9509,97.3836,-0.00450832,0.0404603,21.0437,32.0882,-0.132575,0.0,0.0
72,17.75,31.8342,33.0443,147.972,95.9398,97.0602,-0.0045609,0.0401185,21.044,32.0682,-0.103857,0.0,0.0
75,18.5,31.7765,32.9421,144.958,95.9735,97.5895,-0.00459213,0.039794,21.0444,32.0381,-0.149367,0.0,0.0
78,19.25,32.3185,32.8359,149.742,95.9541,97.1572,-0.00461187,0.0395228,21.045,32.0481,-0.11146,0.0,0.0
81,20,32.089,33.4116,146.358,95.945,96.7573,-0.00460262,0.0392656,21.0451,32.0582,-0.0754197,0.0,0.0
84,20.75,32.3525,33.1307,149.732,95.9462,96.7152,-0.00457339,0.0390781,21.045,32.0481,-0.0714158,0.0,0.0
87,21.5,32.1385,33.0684,144.272,95.9454,95.9159,-0.00452879,0.0388097,21.0449,32.0381,0.00274547,0.0,0.0
90,22.25,32.562,32.9519,148.405,95.9569,95.5922,-0.00447283,0.0385876,21.0448,32.0481,0.0340588,0.0,0.0
93,23,32.2948,32.9457,144.825,95.9628,96.1883,-0.0043662,0.0384353,21.0435,32.0281,-0.0209953,0.0,0.0
96,23.75,32.2313,33.0457,146.832,95.9379,96.3567,-0.00420685,0.0383599,21.0425,32.0381,-0.0389698,0.0,0.0
99,24.5,32.1775,32.8705,147.736,95.9513,95.7935,-0.00395112,0.0388321,21.0409,32.0481,0.0147272,0.0,0.0
102,25.25,32.1746,32.6831,147.061,95.9569,96.0446,-0.00355226,0.0411742,21.0381,32.0281,-0.00817424,0.0,1.0
105,26,32.3307,33.8747,147.428,95.9509,94.9691,-0.00289821,0.0437332,21.0293,32.0081,0.092008,0.0,1.0
108,26.75,32.4129,33.4909,140.485,95.9359,83.5569,-0.00180762,0.0545466,21.0027,37.4028,1.23582,0.0,1.0
111,27.5,32.8622,33.8649,136.213,95.9501,74.614,-0.000690806,0.0624296,20.976,31.898,2.24975,0.0,1.0
114,28.25,32.8094,34.3363,131.966,95.9604,68.2329,0.000673584,0.0932399,20.903,31.898,3.05045,0.0,1.0
117,29,32.9084,34.21,133.908,95.9608,66.6331,0.00240967,0.122803,20.8308,31.7379,3.26271,0.0,1.0
120,29.75,33.5585,35.7237,128.213,95.941,57.7795,0.00399138,0.156501,20.7455,31.7379,4.53618,0.0,1.0
123,30.5,33.5578,35.4718,128.895,95.9482,55.9086,0.00598458,0.199041,20.6587,31.5677,4.83129,0.0,0.0
126,31.25,34.6928,37.5768,126.942,95.9553,54.3718,0.00787214,0.230053,20.5848,31.5177,5.08128,0.0,0.0
129,32,35.9029,38.6645,126.965,95.9664,52.2185,0.00999122,0.279657,20.4907,31.4076,5.44379,0.0,0.0
132,32.75,36.6718,40.0455,121.348,95.9466,52.186,0.0123646,0.32887,20.4084,31.2875,5.4475,0.0,0.0
135,33.5,38.1325,41.8128,121.007,95.9521,50.3634,0.0143688,0.370309,20.3143,31.1974,5.76603,0.0,0.0
138,34.25,38.3978,42.911,115.152,95.9656,45.9779,0.0162987,0.420636,20.2274,31.1073,6.58223,0.0,0.0
141,35,39.7853,44.6019,119.94,95.9529,46.5137,0.0182642,0.464932,20.1384,30.9972,6.47741,0.0,0.0
144,35.75,40.9698,46.2621,115.474,95.9525,47.4212,0.0200965,0.510232,20.0543,30.8371,6.30453,0.0,0.0
147,36.5,42.4167,48.0065,113.987,95.943,47.235,0.021809,0.558268,19.9787,30.757,6.33884,0.0,0.0
150,37.25,43.5014,49.8895,120.426,95.9478,43.0315,0.0234106,0.602205,19.9072,30.6069,7.17302,0.0,0.0
153,38,44.4544,51.2621,115.089,95.9612,46.3909,0.0249015,0.642957,19.8551,30.4567,6.50184,0.0,0.0
156,38.75,45.6935,52.6828,112.004,95.9493,42.2329,0.0265411,0.681077,19.7951,30.2966,7.34072,0.0,0.0
159,39.5,46.9733,54.4151,112.667,95.9442,42.9279,0.0282829,0.722685,19.7426,30.2065,7.19423,0.0,0.0
162,40.25,48.4583,56.3354,117.573,95.9462,38.8759,0.0300094,0.759297,19.6894,30.1064,8.08134,0.0,0.0
165,41,49.6138,58.5674,116.346,95.9509,37.6068,0.0316509,0.796726,19.6254,29.9063,8.37867,0.0,0.0
168,41.75,51.0367,59.8439,110.592,95.941,37.5728,0.0334783,0.83238,19.5527,29.7461,8.38584,0.0,0.0
171,42.5,52.4147,62.2444,112.35,95.9387,37.5183,0.0352818,0.872682,19.478,29.656,8.39859,0.0,0.0
174,43.25,53.528,64.2927,109.047,95.9335,38.69,0.0370244,0.917414,19.4052,29.4559,8.12302,0.0,0.0
177,44,54.7773,66.1398,106.358,95.9363,36.743,0.038683,0.959899,19.3295,29.3057,8.58517,0.0,0.0
180,44.75,56.4412,68.4265,104.287,95.9557,34.5109,0.0404156,0.999781,19.2685,29.1856,9.14761,0.0,0.0
183,45.5,57.4101,69.8201,111.689,95.9395,38.2241,0.0420886,1.03689,19.2141,29.0455,8.23195,0.0,0.0
186,46.25,59.3594,72.6328,103.516,95.9228,35.6756,0.0436277,1.07523,19.1624,28.8153,8.84763,0.0,0.0
189,47,60.9385,74.9395,111.576,95.947,34.0994,0.0452281,1.10755,19.1248,28.6552,9.25409,0.0,0.0
192,47.75,62.3459,76.8176,106.361,95.9197,33.8081,0.0463948,1.13861,19.0863,28.515,9.32828,0.0,0.0
195,48.5,63.2888,78.284,95.2827,95.9205,37.2425,0.0477123,1.17213,19.0495,28.3849,8.4629,0.0,0.0
198,49.25,64.7338,80.4624,105.489,95.9165,32.5654,0.0488718,1.19977,19.0156,28.1547,9.66301,0.0,0.0
201,50,65.9243,82.2451,96.2193,95.9216,32.7593,0.0500529,1.2254,18.9823,28.0146,9.61038,0.0,0.0
204,50.75,67.4704,84.0471,97.9801,95.9193,33.6212,0.0510912,1.2484,18.9507,27.8244,9.37785,0.0,0.0
207,51.5,69.1151,86.0926,98.7083,95.9161,36.9477,0.0519238,1.27255,18.9212,27.6443,8.53358,0.0,0.0
210,52.25,70.5078,88.4148,106.175,95.9193,36.9002,0.0528173,1.29539,18.8919,27.4641,8.54538,0.0,0.0
213,53,71.8101,89.8718,97.2489,95.9256,34.3652,0.0538532,1.3168,18.8533,27.314,9.18264,0.0,0.0
216,53.75,73.2156,92.1114,101.057,95.9228,35.3194,0.0543315,1.33673,18.8362,27.1739,8.93739,0.0,0.0
219,54.5,74.1793,93.8989,104.836,95.9137,32.152,0.0552129,1.35613,18.8006,27.0137,9.77702,0.0,0.0
222,55.25,75.7915,95.5437,98.0252,95.9106,33.5045,0.0556175,1.37235,18.7847,26.7635,9.40814,0.0,0.0
225,56,76.9835,96.9542,92.2708,95.9161,32.8872,0.05614,1.39559,18.7597,26.6134,9.57501,0.0,0.0
228,56.75,78.3531,99.1009,95.1728,95.9114,33.5903,0.0566152,1.40743,18.7367,26.4332,9.38534,0.0,0.0
231,57.5,79.4285,101.129,106.786,95.9122,33.4218,0.057107,1.4284,18.7155,26.213,9.43038,0.0,0.0
234,58.25,80.8933,102.711,93.1234,95.9102,32.8841,0.0575723,1.4376,18.7001,26.1229,9.5753,0.0,0.0
237,59,81.9232,103.965,96.033,95.9038,32.9834,0.0580943,1.45244,18.6831,25.9328,9.54774,0.0,0.0
240,59.75,82.9225,106.247,99.1976,95.9153,30.9235,0.0586074,1.46633,18.6708,25.7626,10.1257,0.0,0.0
243,60.5,84.7521,107.386,98.9701,95.9106,32.6164,0.0592083,1.47777,18.653,25.5625,9.64846,0.0,0.0
246,61.25,85.6733,109.16,106.127,95.9015,31.3446,0.0599678,1.49223,18.6341,25.3823,10.0034,0.0,0.0
249,62,86.5902,110.377,104.603,95.8951,29.8264,0.0607527,1.50543,18.6139,25.1721,10.4469,0.0,0.0
252,62.75,87.8219,111.815,98.2366,95.9023,32.1257,0.06154,1.51959,18.5924,25.012,9.78327,0.0,0.0
255,63.5,89.1423,113.683,108.16,95.9038,32.9281,0.0623131,1.53449,18.5653,24.8118,9.56274,0.0,0.0
258,64.25,90.7424,115.806,89.8848,95.8971,30.4341,0.0632142,1.54988,18.5305,24.5616,10.2667,0.0,0.0
261,65,91.2007,116.72,99.2762,95.8928,29.4517,0.0638712,1.56548,18.5052,24.3614,10.5598,0.0,0.0
264,65.75,91.8947,117.908,93.302,95.9038,31.2631,0.0649502,1.58488,18.4774,24.2513,10.0269,0.0,0.0
267,66.5,94.1613,120.235,96.9871,95.907,30.2791,0.0661062,1.60409,18.4497,24.0311,10.3133,0.0,0.0
270,67.25,95.0452,122,96.7177,95.8971,30.6998,0.0672836,1.62025,18.4236,23.8309,10.1889,0.0,0.0
273,68,96.9003,123.905,99.4769,95.8833,29.1704,0.0684447,1.63895,18.3976,23.6908,10.6447,0.0,0.0
276,68.75,97.4171,125.103,99.0487,95.9125,29.3582,0.0697323,1.65508,18.3711,23.4406,10.5901,0.0,0.0
279,69.5,98.7267,126.658,94.8652,95.8955,29.2334,0.0708734,1.67111,18.3486,23.2504,10.6266,0.0,0.0
282,70.25,99.7142,128.085,97.9748,95.8829,26.8147,0.0720512,1.68577,18.3304,22.9902,11.398,0.0,0.0
285,71,100.824,129.464,98.2358,95.8848,29.3218,0.0729099,1.69923,18.3139,22.79,10.5986,0.0,0.0
288,71.75,102.476,131.402,89.3383,95.9027,28.8556,0.074341,1.71328,18.2995,22.6099,10.7436,0.0,0.0
291,72.5,103.096,132.736,90.2199,95.8936,27.9369,0.0753843,1.72634,18.288,22.4297,11.0322,0.0,0.0
294,73.25,104.28,134.344,86.4318,95.8924,30.2594,0.076769,1.73586,18.2733,22.1595,10.3177,0.0,0.0
297,74,105.405,136.01,100.297,95.8686,28.8069,0.0781177,1.75208,18.2556,22.0193,10.7556,0.0,0.0
300,74.75,106.805,137.297,95.2789,95.8773,26.9066,0.0794488,1.76784,18.2212,21.8192,11.3668,0.0,0.0
303,75.5,107.828,139.037,92.5143,95.8951,28.7343,0.080971,1.79056,18.1799,21.589,10.7806,0.0,0.0
306,76.25,108.296,139.784,87.0348,95.8702,28.6709,0.0824296,1.81091,18.1314,21.4588,10.798,0.0,0.0
309,77,110.38,141.854,98.5732,95.8615,26.8456,0.0841274,1.83221,18.0829,21.2186,11.3857,0.0,0.0
312,77.75,110.819,143.131,94.9072,95.875,26.6594,0.0855848,1.85788,18.0418,20.9884,11.4492,0.0,0.0
315,78.5,112.588,145.455,93.6684,95.8837,24.0011,0.0870227,1.88361,17.9923,20.6982,12.3896,0.0,0.0
318,79.25,113.748,146.749,93.6012,95.888,25.9617,0.0886822,1.90903,17.9507,20.488,11.6876,0.0,0.0
321,80,114.359,148.327,97.123,95.8801,25.7167,0.0901525,1.93382,17.9108,20.3078,11.7717,0.0,0.0
324,80.75,115.961,149.415,93.4226,95.8655,24.8726,0.0920891,1.96167,17.8728,20.1077,12.0688,0.0,0.0
327,81.5,117.213,151.852,96.1574,95.8722,24.4415,0.0937979,1.98702,17.8414,19.8775,12.2259,0.0,0.0
330,82.25,118.329,153.045,89.4208,95.8702,22.2766,0.0955516,2.01412,17.7952,19.5672,13.0554,0.0,0.0
333,83,119.673,155.14,88.3125,95.8674,24.1514,0.0973525,2.04466,17.7412,19.337,12.3323,0.0,0.0
336,83.75,121.215,156.802,82.7589,95.8544,24.382,0.0990455,2.07152,17.6847,19.0768,12.246,0.0,0.0
339,84.5,121.517,157.761,88.7819,95.8714,26.5029,0.100673,2.10588,17.6293,18.8065,11.5015,0.0,0.0
342,85.25,123.246,160.232,83.4909,95.8694,24.3364,0.102254,2.14086,17.5674,18.5263,12.2642,0.0,0.0
345,86,124.342,161.89,90.3474,95.8647,23.4568,0.10379,2.17058,17.5223,18.3361,12.593,0.0,0.0
348,86.75,125.956,164.167,92.5777,95.8631,25.3513,0.105565,2.20607,17.4661,18.1359,11.8981,0.0,0.0
351,87.5,126.807,165.479,84.0855,95.8714,22.0784,0.107533,2.24071,17.4128,17.9057,13.1354,0.0,0.0
354,88.25,128.406,167.357,86.9798,95.8746,22.6614,0.109426,2.27342,17.3663,17.6755,12.9026,0.0,0.0
357,89,129.889,169.221,81.0545,95.8797,21.8682,0.111212,2.30362,17.3284,17.3252,13.2217,0.0,0.0
360,89.75,131.311,171.475,82.3506,95.8666,25.3069,0.112873,2.33032,17.2958,17.055,11.9141,0.0,0.0
363,90.5,132.341,172.891,93.4272,95.8746,23.0025,0.11468,2.35397,17.2676,16.8148,12.7689,0.0,0.0
366,91.25,133.507,174.696,83.9511,95.8765,21.4711,0.116312,2.37496,17.2394,16.5746,13.3854,0.0,0.0
369,92,134.489,176.321,83.5893,95.8801,21.2984,0.118041,2.39925,17.1994,16.4044,13.4579,0.0,0.0
372,92.75,135.427,177.666,80.8064,95.8678,22.5516,0.119301,2.42321,17.1702,16.1442,12.9454,0.0,0.0
375,93.5,137.158,180.173,90.1627,95.8801,19.9911,0.121017,2.44336,17.1363,15.8139,14.0246,0.0,0.0
378,94.25,138.282,181.528,82.949,95.875,21.5947,0.123629,2.46694,17.1092,15.5537,13.3339,0.0,0.0
381,95,139.439,182.676,88.3041,95.8761,19.6728,0.126252,2.48413,17.0852,15.3134,14.1678,0.0,0.0
384,95.75,140.214,184.73,76.6031,95.8702,19.1714,0.128802,2.50854,17.0514,15.0332,14.3982,0.0,0.0
387,96.5,141.398,186.27,78.6303,95.8754,19.6771,0.131229,2.52634,17.0186,14.6929,14.1658,0.0,0.0
390,97.25,142.785,188.102,82.9474,95.8955,20.785,0.133717,2.551,16.9807,14.4927,13.6777,0.0,0.0
393,98,144.346,189.942,77.8961,95.8773,19.5449,0.135949,2.57809,16.936,14.1424,14.2262,0.0,0.0
396,98.75,145.302,191.42,76.3917,95.8718,17.6794,0.138014,2.60489,16.8823,13.8722,15.1231,0.0,0.0
399,99.5,146.561,193.062,93.5982,95.875,19.9444,0.139963,2.63433,16.8268,13.622,14.045,0.0,0.0
402,100.25,147.679,194.688,78.9738,95.8813,19.9019,0.141851,2.66529,16.774,13.3517,14.0647,0.0,0.0
405,101,148.982,196.77,76.4161,95.8726,17.5512,0.144028,2.69688,16.7267,13.0114,15.1883,0.0,0.0
408,101.75,150.173,198.312,74.1911,95.8738,19.4267,0.146397,2.73247,16.677,12.7512,14.2802,0.0,0.0
411,102.5,151.317,200.164,79.5722,95.8738,19.6295,0.148457,2.76938,16.6254,12.471,14.1873,0.0,0.0
414,103.25,152.346,202.079,80.8591,95.8793,18.8364,0.150857,2.80096,16.5811,12.1807,14.5567,0.0,0.0
417,104,153.563,204.051,70.1694,95.8868,18.1866,0.153035,2.83189,16.5381,11.8404,14.8715,0.0,0.0
420,104.75,155.103,205.766,78.9158,95.8781,17.89,0.154964,2.8597,16.4992,11.5702,15.0178,0.0,0.0
423,105.5,156.512,207.459,75.4948,95.8738,17.6477,0.156639,2.88322,16.4651,11.2699,15.1393,0.0,0.0
426,106.25,157.041,209.232,82.2292,95.9169,17.0335,0.158277,2.90456,16.4378,11.0297,15.4602,0.0,0.0
429,107,158.781,210.121,77.3771,95.8932,17.8111,0.15947,2.92401,16.409,10.7094,15.0587,0.0,0.0
432,107.75,159.698,212.502,93.776,95.8928,15.1459,0.161035,2.94179,16.3832,10.5092,16.5086,0.0,0.0
435,108.5,160.233,213.783,93.128,95.886,16.8685,0.16263,2.96008,16.3588,10.199,15.5444,0.0,0.0
438,109.25,161.853,215.324,77.503,95.892,16.4818,0.164233,2.97342,16.335,9.85866,15.7524,0.0,0.0
441,110,162.827,217.185,80.6469,95.9011,16.7909,0.165823,2.98987,16.3044,9.50835,15.5871,0.0,0.0
444,110.75,163.95,218.459,87.637,95.9027,20.0757,0.16757,3.00666,16.2676,9.26814,13.9889,0.0,0.0
447,111.5,165.51,219.713,82.8047,95.8947,17.6949,0.169029,3.02713,16.2219,8.92784,15.1174,0.0,0.0
450,112.25,165.845,221.555,67.9666,95.9046,15.1575,0.170408,3.05772,16.1671,8.71766,16.5029,0.0,0.0
453,113,166.947,223,68.9123,95.9007,19.0338,0.171729,3.09111,16.1165,8.36735,14.4655,0.0,0.0
456,113.75,168.496,224.868,71.1877,95.9102,19.2425,0.172692,3.12338,16.0751,8.01704,14.3688,0.0,0.0
459,114.5,170.129,226.751,74.1347,95.9086,15.4496,0.173609,3.15239,16.044,7.82687,16.3325,0.0,0.0
462,115.25,170.706,228.926,68.1361,95.9046,15.3538,0.17437,3.17667,16.021,7.42652,16.3878,0.0,0.0
465,116,172.223,230.263,69.7138,95.9189,17.1768,0.174964,3.1957,16.0042,7.06621,15.3855,0.0,0.0
468,116.75,173.019,231.879,70.2687,95.9122,16.2701,0.175327,3.21062,15.992,6.80598,15.8699,0.0,0.0
471,117.5,174.321,233.023,80.2225,95.9145,17.5461,0.175473,3.22195,15.9896,6.50571,15.1948,0.0,0.0
474,118.25,175.316,234.644,67.0782,95.9145,17.2305,0.175083,3.2258,15.9931,6.19544,15.3571,0.0,0.0
477,119,175.471,235.328,71.0648,95.9216,16.7241,0.17453,3.22861,16.0043,5.88517,15.6247,0.0,0.0
480,119.75,176.319,236.016,83.5168,95.9296,17.6732,0.173422,3.21847,16.0359,5.695,15.1316,0.0,0.0
483,120.5,177.456,237.521,81.4919,95.9304,18.5382,0.172196,3.20814,16.0747,5.32468,14.7042,0.0,0.0
486,121.25,177.677,238.244,80.0065,95.9201,18.6869,0.170971,3.1956,16.103,5.05444,14.6318,0.0,0.0
489,122,178.957,238.749,79.9409,95.9454,18.396,0.169514,3.17657,16.1457,4.75418,14.7745,0.0,0.0
492,122.75,180.013,239.721,79.8211,95.9402,16.1898,0.16715,3.1538,16.1942,4.47393,15.9168,0.0,0.0
495,123.5,180.257,239.952,77.1381,95.9553,16.2412,0.165426,3.12627,16.2369,4.18367,15.8899,0.0,0.0
498,124.25,180.979,241.33,80.927,95.9557,16.3157,0.1621,3.09399,16.2901,3.9835,15.849,0.0,0.0
501,125,181.046,241.553,83.1199,95.962,17.2788,0.158185,3.05954,16.3598,3.70325,15.3365,0.0,0.0
504,125.75,182.217,241.509,80.5256,95.9755,18.1758,0.153923,3.01575,16.4473,3.47305,14.885,0.0,0.0
507,126.5,181.796,241.645,84.4862,95.962,20.5559,0.147534,2.96552,16.5916,3.17279,13.783,0.0,0.0
510,127.25,182.314,241.739,82.1613,95.9581,18.9179,0.144174,2.91122,16.7136,2.95259,14.5254,0.0,0.0
513,128,182.342,242.035,85.2441,95.9743,18.6603,0.13916,2.85475,16.7759,2.71238,14.6496,0.0,0.0
516,128.75,182.394,241.527,88.0347,95.9826,20.1263,0.133567,2.7882,16.8934,2.53222,13.9738,0.0,0.0
519,129.5,182.41,240.836,84.3664,95.9822,22.4481,0.127091,2.6989,17.0168,2.29201,12.9972,0.0,0.0
522,130.25,182.225,240.624,93.0181,95.9862,22.7104,0.121296,2.66241,17.1227,2.09184,12.8936,0.0,0.0
525,131,181.844,239.562,95.3125,95.9929,27.5004,0.115231,2.57977,17.2656,1.87164,11.1823,0.0,0.0
528,131.75,181.469,238.959,91.9266,96.0174,26.6335,0.108145,2.5027,17.4398,1.76155,11.4712,0.0,0.0
531,132.5,181.038,237.536,95.6689,96.0036,30.0586,0.100946,2.41773,17.6258,1.58139,10.3877,0.0,0.0
534,133.25,180.533,236.171,105.723,96.0079,32.7755,0.094832,2.31087,17.8112,1.3612,9.61399,0.0,0.0
537,134,180.004,234.501,100.824,96.0083,32.8706,0.0874454,2.20245,17.9946,1.27112,9.58813,0.0,0.0
540,134.75,178.574,232.902,99.6059,96.0166,35.9078,0.0820606,2.09556,18.1489,1.11098,8.79834,0.0,0.0
543,135.5,177.82,230.527,107.263,96.0257,36.2516,0.074687,1.99228,18.3106,1.04091,8.71394,0.0,0.0
546,136.25,177.251,228.73,106.986,96.0293,40.8465,0.0676312,1.88218,18.4781,0.960844,7.64677,0.0,0.0
549,137,175.521,226.572,106.797,96.0285,40.7221,0.06095,1.78709,18.6807,0.83073,7.67398,0.0,0.0
552,137.75,173.642,223.424,116.68,96.0344,37.7837,0.0540104,1.66,18.8822,0.810712,8.34446,0.0,0.0
555,138.5,172.499,221.082,117.249,96.0463,41.3494,0.0478143,1.5473,19.0291,0.710624,7.53888,0.0,0.0
558,139.25,170.785,217.686,121.832,96.0431,52.5897,0.0432974,1.43086,19.2392,0.670589,5.38757,0.0,0.0
561,140,169.052,214.826,126.107,96.0487,58.5537,0.0376361,1.30248,19.4427,0.58051,4.42715,0.0,0.0
564,140.75,167.188,211.899,130.097,96.0637,66.3117,0.0327789,1.18229,19.6348,0.610536,3.31555,0.0,0.0
567,141.5,165.2,208.149,133.668,96.0716,75.0378,0.0289267,1.08334,19.8126,0.58051,2.21041,0.0,0.0
570,142.25,162.343,205.272,140.535,96.0744,83.9339,0.0254754,0.975154,19.9835,0.570501,1.20845,0.0,0.0
573,143,160.628,201.317,138.247,96.0669,89.663,0.0226852,0.87108,20.1256,0.550483,0.617104,0.0,0.0
576,143.75,158.252,197.813,137.721,96.1033,90.8061,0.0202605,0.778381,20.2728,0.540475,0.50717,0.0,0.0
579,144.5,156.316,194.299,136.505,96.1064,91.2852,0.0183484,0.693324,20.3882,0.550483,0.460399,0.0,0.0
582,145.25,153.681,190.952,136.152,96.1041,91.602,0.016855,0.623866,20.4863,0.540475,0.42919,0.0,0.0
585,146,152.264,188.21,139.546,96.1068,91.481,0.0157015,0.558389,20.5768,0.530466,0.441263,0.0,0.0
588,146.75,150.147,185.022,140.706,96.1211,91.7229,0.014785,0.499566,20.6507,0.550483,0.418973,0.0,0.0
591,147.5,148.001,181.785,137.78,96.1377,92.0516,0.0140791,0.448539,20.7106,0.540475,0.388515,0.0,0.0
594,148.25,146.36,178.786,134.41,96.1361,91.5896,0.0135483,0.40343,20.7586,0.540475,0.43338,0.0,0.0
597,149,144.487,176.203,137.534,96.1432,91.9222,0.013111,0.366093,20.795,0.520457,0.401616,0.0,0.0
600,149.75,142.816,173.221,141.726,96.1476,92.5994,0.0127476,0.336975,20.8239,0.520457,0.33636,0.0,0.0
603,150.5,140.38,170.443,138.965,96.165,91.8774,0.0124431,0.310252,20.8488,0.510448,0.408002,0.0,0.0
606,151.25,138.824,168.132,137.264,96.1694,91.566,0.0121226,0.286998,20.8687,0.480422,0.438775,0.0,0.0
609,152,137.232,165.174,133.705,96.171,92.3858,0.0119114,0.268438,20.8794,0.490431,0.359193,0.0,0.0
612,152.75,135.846,162.909,135.723,96.1856,91.9141,0.0116063,0.250415,20.8943,0.490431,0.406344,0.0,0.0
615,153.5,134.472,160.286,136.149,96.2022,92.6624,0.0112449,0.235113,20.9063,0.490431,0.335357,0.0,0.0
618,154.25,132.814,158.356,134.985,96.2157,93.0479,0.010925,0.223036,20.9171,0.50044,0.299467,0.0,0.0
621,155,131.199,156.11,142.667,96.2184,92.3862,0.0105953,0.21493,20.9262,0.480422,0.363572,0.0,0.0
624,155.75,130.263,154.119,134.304,96.224,91.7561,0.010285,0.203698,20.9328,0.480422,0.425303,0.0,0.0
627,156.5,128.44,151.5,136.648,96.2529,92.2189,0.00993907,0.194714,20.9389,0.490431,0.382983,0.0,0.0
630,157.25,127.148,149.182,139.527,96.2584,91.6,0.00952968,0.1856,20.9443,0.490431,0.443732,0.0,0.0
633,158,125.559,147.161,138.24,96.2548,92.1432,0.00927102,0.178955,20.9472,0.460404,0.390514,0.0,0.0
636,158.75,124.08,145.414,134.627,96.2655,92.3611,0.0088653,0.17152,20.9526,0.450396,0.370379,0.0,0.0
639,159.5,122.86,142.677,137.741,96.3079,91.5753,0.00849522,0.164654,20.9578,0.450396,0.450742,0.0,0.0
642,160.25,121.516,141.98,138.863,96.3007,92.2054,0.00810966,0.158427,20.9624,0.430378,0.388743,0.0,0.0
645,161,120.373,139.609,139.11,96.2976,92.6574,0.0077378,0.154519,20.9662,0.420369,0.344706,0.0,0.0
648,161.75,119.304,137.208,141.617,96.3158,92.9208,0.007428,0.148928,20.9698,0.420369,0.320997,0.0,0.0
651,162.5,118.032,135.798,139.25,96.3348,93.0962,0.00720216,0.1439,20.9728,0.440387,0.305893,0.0,0.0
654,163.25,116.96,134.489,138.506,96.3486,92.0651,0.00678991,0.139392,20.9747,0.450396,0.406805,0.0,0.0
657,164,115.513,132.322,137.687,96.3573,92.9015,0.0064368,0.134755,20.976,0.450396,0.326715,0.0,0.0
660,164.75,114.291,130.534,138.525,96.3609,93.0271,0.00608949,0.131374,20.9782,0.450396,0.314965,0.0,0.0
663,165.5,113.243,129.171,140.014,96.3898,93.7634,0.00572578,0.127392,20.98,0.440387,0.247121,0.0,0.0
666,166.25,111.747,127.435,140.458,96.3993,93.1932,0.0053606,0.123841,20.9817,0.450396,0.302568,0.0,0.0
669,167,110.714,126.051,140.914,96.3993,92.2981,0.00500392,0.12023,20.9849,0.440387,0.388901,0.0,0.0
672,167.75,110.405,124.664,136.41,96.4143,92.847,0.00462501,0.116668,20.988,0.440387,0.33725,0.0,0.0
675,168.5,109.102,122.877,134.89,96.4337,91.6236,0.00426923,0.113228,20.9912,0.430378,0.457707,0.0,0.0
678,169.25,107.771,121.478,133.49,96.461,92.2931,0.00397595,0.109752,20.9943,0.430378,0.395114,0.0,0.0
681,170,106.414,119.846,139.204,96.4646,92.9401,0.00366596,0.1065,20.9968,0.430378,0.332946,0.0,0.0
684,170.75,105.732,118.771,136.867,96.4756,92.5917,0.00336108,0.103824,20.999,0.390343,0.367575,0.0,0.0
687,171.5,105.05,117.526,137.912,96.4978,92.375,0.00307404,0.10087,21.0019,0.420369,0.390592,0.0,0.0
690,172.25,103.825,115.921,137.771,96.514,94.0601,0.00276234,0.0983409,21.004,0.390343,0.230384,0.0,0.0
693,173,103.175,114.742,138.426,96.5311,92.8525,0.00246103,0.0958533,21.006,0.380334,0.347553,0.0,0.0
696,173.75,101.905,113.137,140.357,96.5441,93.6181,0.0022098,0.0931178,21.0082,0.380334,0.2753,0.0,0.0
699,174.5,100.995,112.164,137.886,96.554,92.5759,0.00190933,0.0908545,21.0103,0.390343,0.376367,0.0,0.0
702,175.25,100.57,110.954,141.875,96.5746,93.6618,0.00164771,0.0887446,21.012,0.370325,0.273953,0.0,0.0
705,176,99.4024,109.576,138.325,96.5817,93.1801,0.00138421,0.0865168,21.0133,0.370325,0.320741,0.0,0.0
708,176.75,99.0392,108.095,138.669,96.5932,94.0558,0.00114278,0.0844766,21.0142,0.390343,0.238121,0.0,0.0
711,177.5,97.8052,107.235,141.496,96.6086,93.7336,0.000882421,0.0828121,21.0155,0.380334,0.270245,0.0,0.0
714,178.25,96.7863,106.205,138.523,96.6351,94.0315,0.000623375,0.0808721,21.0173,0.41036,0.244319,0.0,0.0
717,179,96.162,104.75,138.228,96.6411,93.7205,0.000382447,0.0791337,21.0193,0.400352,0.274502,0.0,0.0
720,179.75,95.3832,103.927,140.588,96.6537,93.8789,0.000184607,0.0773123,21.0211,0.400352,0.260569,0.0,0.0
723,180.5,94.5296,102.377,140.284,96.6747,93.4323,-4.90996e-05,0.0755566,21.0228,0.390343,0.305165,0.0,0.0
726,181.25,93.5511,101.935,140.505,96.7028,93.379,-0.000290493,0.0739466,21.0243,0.380334,0.31287,0.0,0.0
729,182,92.8949,100.703,137.991,96.7127,93.1801,-0.000522289,0.0725204,21.0254,0.380334,0.332864,0.0,0.0
732,182.75,92.5429,100.194,139.476,96.7218,92.9753,-0.000734948,0.0711604,21.0268,0.360316,0.353384,0.0,0.0
735,183.5,91.8665,98.9959,140.103,96.738,93.1012,-0.00092424,0.0698427,21.0278,0.390343,0.342775,0.0,0.0
738,184.25,90.5442,97.5812,140.049,96.7736,92.9494,-0.00112083,0.0685579,21.0286,0.390343,0.360666,0.0,0.0
741,185,90.139,97.1262,139.833,96.7831,94.1729,-0.00135191,0.0673014,21.0291,0.390343,0.244568,0.0,0.0
744,185.75,89.8923,95.9527,139.381,96.793,94.1447,-0.00152038,0.0661018,21.0295,0.390343,0.248162,0.0,0.0
747,186.5,88.9651,95.5879,139.49,96.7974,94.497,-0.00173078,0.0649755,21.0299,0.390343,0.215149,0.0,0.0
750,187.25,88.0012,93.2026,138.664,96.8445,94.5998,-0.00193708,0.0638749,21.0303,0.390343,0.209778,0.0,0.0
753,188,87.5105,92.8469,145.231,96.8464,93.5822,-0.0021141,0.0629533,21.0306,0.390343,0.306703,0.0,0.0
756,188.75,87.1245,92.7723,140.351,96.8587,93.6436,-0.00226847,0.062106,21.0312,0.400352,0.301967,0.0,0.0
759,189.5,86.325,91.1707,147.181,96.8662,94.4908,-0.00239285,0.0611882,21.0319,0.380334,0.222095,0.0,0.0
762,190.25,85.8699,91.0327,136.719,96.8896,93.9708,-0.00248857,0.0603105,21.0324,0.380334,0.273613,0.0,0.0
765,191,84.6775,90.0678,138.921,96.9216,93.7479,-0.00256189,0.059458,21.0327,0.390343,0.297817,0.0,0.0
768,191.75,84.7887,89.3997,139.273,96.922,94.7269,-0.00262042,0.0587458,21.033,0.400352,0.204929,0.0,0.0
771,192.5,84.0778,88.1366,138.983,96.9323,94.4564,-0.00266459,0.0579803,21.0331,0.400352,0.231451,0.0,0.0
774,193.25,83.4557,87.3272,140.544,96.9517,93.384,-0.00270693,0.057223,21.0337,0.380334,0.335384,0.0,0.0
777,194,82.3792,87.0342,140.844,96.9667,94.4646,-0.00274844,0.056586,21.0343,0.390343,0.23386,0.0,0.0
780,194.75,82.0021,85.9457,138.18,96.9837,94.9598,-0.00278823,0.0558376,21.0348,0.390343,0.188654,0.0,0.0
783,195.5,81.7844,85.3194,140.689,96.9929,93.8665,-0.00282576,0.0551991,21.0351,0.380334,0.293078,0.0,0.0
786,196.25,81.3987,84.3255,141.972,97.0083,94.0732,-0.00285652,0.0546522,21.0353,0.360316,0.274828,0.0,0.0
789,197,80.4695,84.0535,138.679,97.0372,93.9608,-0.00287894,0.0541818,21.0355,0.370325,0.288186,0.0,0.0
792,197.75,80.3809,83.269,134.054,97.0431,95.5613,-0.00290373,0.0537064,21.0358,0.390343,0.137644,0.0,0.0
795,198.5,79.359,83.0333,143.384,97.051,95.1715,-0.00292535,0.0532904,21.0361,0.380334,0.174936,0.0,0.0
798,199.25,78.8578,82.2529,138.206,97.0661,93.9936,-0.002942,0.0528686,21.0363,0.370325,0.287724,0.0,0.0
801,200,78.7017,81.492,138.2,97.0799,94.2386,-0.00295308,0.0524097,21.0364,0.380334,0.265721,0.0,0.0
804,200.75,78.8756,81.0322,140.442,97.0953,94.837,-0.00294765,0.0520752,21.0368,0.380334,0.21052,0.0,0.0
807,201.5,78.0998,80.259,137.825,97.0831,94.5604,-0.00292238,0.0516233,21.0374,0.360316,0.235518,0.0,0.0
810,202.25,77.2267,79.6747,144.396,97.1135,94.1219,-0.00288428,0.0511616,21.0379,0.360316,0.2799,0.0,0.0
813,203,76.8826,79.2939,139.505,97.125,95.2156,-0.0028384,0.0507587,21.0382,0.360316,0.177615,0.0,0.0
816,203.75,76.3436,78.1842,137.361,97.1361,93.8098,-0.00279935,0.0504102,21.0385,0.370325,0.311694,0.0,0.0
819,204.5,76.1959,78.2037,139.702,97.144,94.3788,-0.00276129,0.0501449,21.0387,0.350308,0.258325,0.0,0.0
822,205.25,75.3616,77.117,139.746,97.1511,93.8074,-0.00273523,0.0498192,21.0388,0.370325,0.313299,0.0,0.0
825,206,75.1096,77.1509,141.656,97.1705,93.9523,-0.00272185,0.049519,21.0389,0.370325,0.301281,0.0,0.0
828,206.75,74.989,76.3337,143.298,97.1784,94.8088,-0.00272167,0.0491929,21.039,0.370325,0.220833,0.0,0.0
831,207.5,74.3038,76.0004,139.545,97.178,95.0151,-0.00275194,0.0488757,21.039,0.360316,0.201354,0.0,0.0
834,208.25,73.7492,75.6833,140.447,97.1788,94.6515,-0.002774,0.0485827,21.0391,0.370325,0.235717,0.0,0.0
837,209,73.4916,74.9081,141.969,97.1998,94.1161,-0.00285992,0.0483214,21.0391,0.380334,0.288394,0.0,0.0
840,209.75,72.976,73.9042,140.633,97.2081,94.5113,-0.00297476,0.0481121,21.039,0.390343,0.251675,0.0,0.0
843,210.5,72.8011,73.8848,139.805,97.2101,94.5897,-0.00309683,0.0479176,21.0388,0.390343,0.244438,0.0,0.0
846,211.25,72.0273,73.5508,140.381,97.2113,94.9154,-0.00320202,0.0477044,21.0387,0.350308,0.213801,0.0,0.0
849,212,72.0952,73.2449,139.65,97.222,93.4613,-0.00330639,0.047549,21.0386,0.360316,0.352889,0.0,0.0
852,212.75,71.8764,72.1081,139.337,97.2418,95.3098,-0.00338924,0.0473035,21.0385,0.370325,0.179509,0.0,0.0
855,213.5,71.7483,72.0841,140.472,97.2295,93.6649,-0.00344727,0.0471036,21.0391,0.390343,0.334114,0.0,0.0
858,214.25,71.116,71.5324,139.908,97.2287,95.7363,-0.00349105,0.0469222,21.0395,0.380334,0.138369,0.0,0.0
861,215,70.8306,71.5418,139.496,97.2307,95.3585,-0.00352723,0.0466578,21.0398,0.350308,0.173923,0.0,0.0
864,215.75,70.1936,71.1234,140.631,97.2473,94.5283,-0.00356543,0.0464371,21.04,0.370325,0.253671,0.0,0.0
867,216.5,69.648,69.9193,140.116,97.2449,94.4391,-0.00359638,0.0462287,21.0402,0.360316,0.261901,0.0,0.0
870,217.25,69.073,69.447,138.022,97.2366,94.4232,-0.00362428,0.046039,21.0403,0.360316,0.262637,0.0,0.0
873,218,69.0009,69.746,140.202,97.239,95.5787,-0.00364648,0.0458345,21.0404,0.360316,0.154054,0.0,0.0
876,218.75,68.8046,69.2813,143.264,97.2564,95.2094,-0.00366587,0.0456573,21.0405,0.400352,0.190288,0.0,0.0
879,219.5,69.0537,68.7985,134.833,97.254,94.5499,-0.00367881,0.0455092,21.0405,0.390343,0.252242,0.0,0.0
882,220.25,68.1642,68.0292,139.434,97.2402,94.9324,-0.00368401,0.0453734,21.0405,0.370325,0.214858,0.0,0.0
885,221,67.2293,67.8425,142.399,97.2421,94.47,-0.0036814,0.0452268,21.0406,0.370325,0.25872,0.0,0.0
888,221.75,67.3475,66.8854,140.721,97.2572,93.9929,-0.00367613,0.045092,21.0406,0.390343,0.305394,0.0,0.0
891,222.5,67.4416,66.6742,140.243,97.2564,94.9011,-0.00368294,0.0449462,21.0412,0.390343,0.2193,0.0,0.0
894,223.25,67.2331,66.7548,143.622,97.2453,94.555,-0.00370116,0.0447456,21.0417,0.380334,0.250967,0.0,0.0
897,224,66.845,66.8347,141.817,97.2477,94.6929,-0.00372936,0.0445993,21.042,0.360316,0.238147,0.0,0.0
900,224.75,66.6213,66.4716,142.459,97.2663,95.7618,-0.0037574,0.0445066,21.0423,0.360316,0.139444,0.0,0.0
903,225.5,65.6351,65.0745,143.518,97.2604,95.1479,-0.00379062,0.0444628,21.0425,0.370325,0.196426,0.0,0.0
906,226.25,66.0364,65.7018,144.786,97.2548,95.2615,-0.0038101,0.0443366,21.0426,0.360316,0.185244,0.0,0.0
909,227,65.9682,65.1184,140.829,97.2532,95.8105,-0.00382229,0.0442237,21.0427,0.350308,0.133697,0.0,0.0
912,227.75,65.6298,65.0515,141.921,97.2683,94.1574,-0.0038126,0.0441057,21.0428,0.360316,0.290764,0.0,0.0
915,228.5,65.5943,64.9705,137.192,97.2699,94.706,-0.00379962,0.0440266,21.0428,0.350308,0.238945,0.0,0.0
918,229.25,64.808,64.0666,138.057,97.2659,95.3349,-0.00379262,0.0439809,21.0429,0.350308,0.179373,0.0,0.0
921,230,64.6968,63.9598,141.49,97.2631,95.8352,-0.00379603,0.0438814,21.0429,0.350308,0.132299,0.0,0.0
924,230.75,64.6048,63.7518,137.516,97.2742,95.0827,-0.00381878,0.0437599,21.0429,0.360316,0.203839,0.0,0.0
927,231.5,64.6358,63.3261,142.5,97.2742,95.4137,-0.00383537,0.0436356,21.0429,0.340299,0.172745,0.0,0.0
930,232.25,64.0561,62.9929,137.409,97.2659,94.8196,-0.00386054,0.0434884,21.0429,0.350308,0.22786,0.0,0.0
933,233,64.3754,63.2801,138.842,97.2497,95.2302,-0.00390127,0.0433547,21.0424,0.360316,0.187709,0.0,0.0
936,233.75,63.5178,62.525,140.615,97.26,94.6044,-0.00394615,0.0432459,21.042,0.33029,0.247637,0.0,0.0
939,234.5,63.6547,62.1948,140.255,97.2592,95.7158,-0.00397887,0.0431666,21.042,0.340299,0.143084,0.0,0.0
942,235.25,63.4585,62.2321,137.332,97.2683,95.6548,-0.00400085,0.0430711,21.0423,0.350308,0.149627,0.0,0.0
945,236,63.0426,61.8014,138.954,97.252,93.4524,-0.00401368,0.0429945,21.0426,0.360316,0.356504,0.0,0.0
948,236.75,62.8076,61.7162,140.356,97.2596,95.3593,-0.0040183,0.0429268,21.0428,0.350308,0.176507,0.0,0.0
951,237.5,62.4828,61.4705,142.781,97.2588,96.2165,-0.00401529,0.042802,21.0429,0.370325,0.0963787,0.0,0.0
954,238.25,62.2954,61.1538,141.88,97.2485,94.3224,-0.00400564,0.0426714,21.043,0.390343,0.273287,0.0,0.0
957,239,62.1371,60.747,136.575,97.2437,95.2801,-0.0039986,0.0425454,21.0431,0.360316,0.182483,0.0,0.0
960,239.75,62.0764,60.4659,140.44,97.2386,94.9741,-0.00399347,0.0424297,21.0432,0.350308,0.210781,0.0,0.0
963,240.5,61.6887,60.3323,141.243,97.2449,95.6131,-0.00399801,0.0423718,21.0432,0.350308,0.151384,0.0,0.0
966,241.25,61.5117,60.4197,147.576,97.2382,95.3821,-0.00401234,0.0423409,21.0432,0.340299,0.172404,0.0,0.0
969,242,60.9426,59.5593,142.16,97.22,95.2183,-0.00403556,0.0423184,21.0433,0.340299,0.186103,0.0,0.0
972,242.75,61.2206,59.6155,139.355,97.2144,95.3782,-0.00407106,0.0423019,21.0437,0.340299,0.170581,0.0,0.0
975,243.5,60.9537,59.7175,141.127,97.2311,95.1669,-0.0041005,0.0421957,21.044,0.340299,0.191951,0.0,0.0
978,244.25,60.2747,58.6499,142.341,97.2089,95.0491,-0.00412035,0.0421183,21.0438,0.340299,0.200995,0.0,0.0
981,245,60.4001,58.7988,138.928,97.1959,95.9461,-0.0041295,0.0420479,21.0437,0.340299,0.115767,0.0,0.0
984,245.75,60.5479,59.1703,141.859,97.1907,94.9281,-0.00412495,0.0419728,21.0436,0.33029,0.210706,0.0,0.0
987,246.5,60.3195,58.5064,141.34,97.197,96.2532,-0.00410246,0.0418804,21.0435,0.340299,0.0872878,0.0,0.0
990,247.25,60.0103,57.9851,143.709,97.197,95.9612,-0.0040675,0.0417734,21.0437,0.340299,0.114472,0.0,0.0
993,248,59.595,57.7931,144.324,97.1848,95.3226,-0.00403204,0.0416785,21.0442,0.33029,0.173069,0.0,0.0
996,248.75,59.4356,58.1074,141.361,97.167,95.1402,-0.00398915,0.0415151,21.044,0.340299,0.188557,0.0,0.0
999,249.5,59.3435,56.6132,143.443,97.1721,95.537,-0.00394099,0.041389,21.0438,0.340299,0.151806,0.0,0.0
1002,250.25,59.2974,57.438,139.718,97.1622,95.3036,-0.00390589,0.0412852,21.0437,0.350308,0.17277,0.0,0.0
1005,251,59.3335,56.853,142.304,97.1579,94.9772,-0.0038803,0.0411719,21.0436,0.350308,0.203061,0.0,0.0
1008,251.75,59.1939,57.1519,142.976,97.1484,95.8283,-0.00387346,0.0410893,21.0439,0.350308,0.122387,0.0,0.0
1011,252.5,58.7019,56.5008,141.327,97.1507,94.7612,,0.041029,,0.350308,0.222768,0.0,0.0
1014,253.25,58.5371,56.5887,141.004,97.144,94.6025,,0.0409663,,0.340299,0.237149,0.0,0.0
1017,254,58.791,56.4159,141.959,97.1321,96.0651,,0.0409344,,0.340299,0.0988152,0.0,0.0
1020,254.75,58.35,56.419,142.887,97.1294,95.8078,,0.040935,,0.350308,0.12255,0.0,0.0
1023,255.5,58.4748,56.3393,147.531,97.1116,96.0697,,,,0.33029,0.0964884,0.0,0.0
1026,256.25,57.5751,55.7632,141.728,97.131,95.2615,,,,0.340299,0.173844,0.0,0.0
1029,257,58.2756,56.0693,141.262,97.1242,95.2449,,,,0.340299,0.174785,0.0,0.0
1032,257.75,58.0606,56.1161,142.372,97.0981,95.9963,,,,0.310273,0.102085,0.0,0.0
1035,258.5,57.9638,55.7232,141.133,97.1163,95.88,,,,0.320281,0.114605,0.0,0.0
1038,259.25,57.8933,55.8397,144.694,97.1056,94.4418,,,,0.340299,0.248823,0.0,0.0
1041,260,57.0385,54.9362,137.503,97.0934,95.6691,,,,0.350308,0.132192,0.0,0.0
1044,260.75,57.0312,54.7254,141.253,97.0775,95.1889,,,,0.360316,0.175745,0.0,0.0
1047,261.5,56.7756,54.6929,142.751,97.074,95.4126,,,,0.350308,0.154422,0.0,0.0
1050,262.25,56.9967,54.4692,144.773,97.0692,95.4964,,,,0.350308,0.146128,0.0,0.0
1053,263,56.8885,54.5024,141.065,97.0811,95.9917,,,,0.350308,0.100951,0.0,0.0