File: 01_Data/ABS/Cone/ABS_Cone_HF50Scan_220217_R3.csv
Names,Time,Stack TC,Smoke TC,Exh Press,Smoke Comp,Smoke Meas,CO Meter,CO2 Meter,O2 Meter,Sample Mass,Ext Coeff,Start Test,Flame Verif
Chan Gain,,500,500,1,1,1,1,1,1,1,1,1.0,1.0
Offset,,0,0,0.140898,0,0,0,0,0,0,0,0.0,0.0
Gain,,1,1,25.011,12.9668,12.6588,1,1,1,1.00088,1.01977,1.0,1.0
Units,sec,C,C,Pa,%,%,%,%,%,g,/m,,
Baseline,,40.3826,39.6739,146.18,97.882,98.7505,-0.00471264,0.0386317,21.0453,-872.209,-0.078965,,
3,0.5,37.399,36.9317,150.151,97.5476,98.8156,-0.00472613,0.040371,21.0448,26.8536,-0.11553,0.0,0.0
6,1.25,38.2854,37.1401,143.919,97.5259,98.8539,-0.00471799,0.0405242,21.0444,26.9737,-0.120987,0.0,0.0
9,2,37.601,37.1337,146.869,97.5195,98.867,-0.00470733,0.0406707,21.0438,26.8836,-0.122756,0.0,0.0
12,2.75,37.8614,37.2716,142.973,97.5239,98.7137,-0.00469754,0.0408369,21.0434,26.9036,-0.108471,0.0,0.0
15,3.5,37.6767,37.0929,144.824,97.5184,98.4533,-0.00468533,0.0410555,21.0432,26.8536,-0.0853517,0.0,0.0
18,4.25,37.4833,36.9113,147.883,97.5093,98.5858,-0.00467644,0.04143,21.0427,26.9036,-0.0982181,0.0,0.0
21,5,37.1972,36.9029,147.398,97.4934,98.8365,-0.00467057,0.0417862,21.042,26.8936,-0.122391,0.0,0.0
24,5.75,37.014,37.123,147.256,97.4816,98.2702,-0.00466737,0.0420592,21.0415,26.9036,-0.0720748,0.0,0.0
27,6.5,37.1236,36.5799,143.2,97.4823,98.2122,-0.0046644,0.0422429,21.0411,26.9136,-0.0667267,0.0,0.0
30,7.25,37.2727,36.7215,148.952,97.476,98.2084,-0.00466118,0.0423412,21.0408,26.9036,-0.066956,0.0,0.0
33,8,37.2362,36.7821,147.888,97.4677,98.6982,-0.00466052,0.0424505,21.0406,26.8836,-0.112225,0.0,0.0
36,8.75,37.213,36.9605,150.055,97.4455,97.897,-0.00467779,0.0424954,21.0405,26.8936,-0.0413457,0.0,0.0
39,9.5,37.657,36.9746,144.923,97.44,98.4471,-0.00469795,0.0424687,21.0403,26.8836,-0.0919794,0.0,0.0
42,10.25,37.4736,37.5901,149.656,97.4293,98.5441,-0.00473009,0.0423171,21.0403,26.8836,-0.101768,0.0,0.0
45,11,37.8915,37.6049,151.175,97.4123,98.8813,-0.00478335,0.0420876,21.0399,26.8736,-0.133891,0.0,0.0
48,11.75,37.0676,36.9526,147.819,97.3977,98.6364,-0.00482556,0.0418134,21.0396,26.8636,-0.113052,0.0,0.0
51,12.5,37.3133,36.9384,151.073,97.4083,98.4935,-0.0048433,0.0416134,21.0396,26.8736,-0.0990984,0.0,0.0
54,13.25,37.3429,36.6334,145.256,97.3866,98.4081,-0.00485069,0.0412416,21.04,26.8836,-0.0933403,0.0,0.0
57,14,37.1184,36.8959,148.315,97.3672,98.7291,-0.00483476,0.0409636,21.0403,26.8736,-0.124255,0.0,0.0
60,14.75,37.3158,37.2516,146.976,97.3545,98.3849,-0.00480784,0.0407143,21.0405,26.8436,-0.0941776,0.0,0.0
63,15.5,36.9233,36.5409,143.283,97.3427,97.6575,-0.00477757,0.0404731,21.0406,26.8536,-0.0288833,0.0,0.0
66,16.25,37.6273,36.8045,147.015,97.3284,97.2229,-0.00475262,0.0402278,21.041,26.8536,0.00970614,0.0,0.0
69,17,37.0517,37.3265,147.408,97.3122,97.6003,-0.00471944,0.0399302,21.0416,26.8436,-0.026445,0.0,0.0
72,17.75,37.1525,37.2556,151.595,97.3055,98.1435,-0.00468779,0.0396756,21.0421,26.8436,-0.076707,0.0,0.0
75,18.5,37.783,37.3187,149.429,97.309,97.8939,-0.00466236,0.0394761,21.0424,26.8436,-0.053604,0.0,0.0
78,19.25,37.1595,36.3784,145.273,97.2956,97.4697,-0.00463807,0.0393574,21.0427,26.8336,-0.015997,0.0,0.0
81,20,37.3156,37.2484,149.149,97.2699,97.6065,-0.00461834,0.0391074,21.0429,26.8436,-0.0309039,0.0,0.0
84,20.75,37.6429,37.192,147.646,97.2544,97.0382,-0.00459568,0.0388905,21.043,26.8136,0.0199093,0.0,0.0
87,21.5,37.413,37.1084,145.931,97.2528,96.5182,-0.0045669,0.0386729,21.0431,26.8336,0.0678266,0.0,0.0
90,22.25,37.1606,36.8514,145.136,97.2433,97.1742,-0.00453101,0.0384578,21.0426,26.8136,0.00636395,0.0,0.0
93,23,37.6293,36.3823,147.459,97.2378,96.8883,-0.00444238,0.0382747,21.0422,26.7935,0.0322081,0.0,0.0
96,23.75,37.2736,36.2565,144.951,97.216,96.7863,-0.00430736,0.0381299,21.0419,26.7935,0.0396279,0.0,0.0
99,24.5,36.8958,36.9555,145.344,97.2109,96.8821,-0.00408856,0.0383015,21.0391,26.7735,0.0303038,0.0,0.0
102,25.25,36.92,36.905,147.933,97.2077,96.8354,-0.00363697,0.0402504,21.03,26.7935,0.0343297,0.0,0.0
105,26,37.327,36.6608,147.816,97.1887,96.8141,-0.00323919,0.0423983,21.0233,26.7735,0.0345443,0.0,1.0
108,26.75,36.9345,37.1645,139.006,97.1697,86.88,-0.00256531,0.0531325,20.9865,26.6734,1.00126,0.0,1.0
111,27.5,37.178,36.972,139.695,97.1729,76.6812,-0.00141212,0.0656428,20.9477,26.6934,2.11857,0.0,1.0
114,28.25,37.586,37.8815,136.929,97.1535,69.2218,1.02062e-05,0.0827742,20.8992,26.6934,3.03225,0.0,1.0
117,29,37.79,38.3138,139.375,97.1606,62.2921,0.00155915,0.102767,20.8285,26.6334,3.97648,0.0,1.0
120,29.75,38.2593,38.8319,131.945,97.1242,61.6771,0.00335425,0.134208,20.749,26.5333,4.06189,0.0,1.0
123,30.5,38.6925,39.2589,130.026,97.1246,53.4933,0.00553239,0.171394,20.6793,26.3531,5.33534,0.0,0.0
126,31.25,39.1669,40.2152,128.074,97.1313,52.4495,0.00736992,0.216055,20.5741,26.3131,5.51224,0.0,0.0
129,32,40.6468,42.1462,132.898,97.1104,51.3284,0.00964879,0.263612,20.4975,26.153,5.70358,0.0,0.0
132,32.75,41.0237,42.7573,124.252,97.0862,49.906,0.0113101,0.311137,20.4075,26.1029,5.95275,0.0,0.0
135,33.5,41.9551,44.7084,124.087,97.0882,52.1227,0.0136402,0.363579,20.3342,26.0229,5.56418,0.0,0.0
138,34.25,43.4074,46.251,114.427,97.0969,48.6956,0.0153388,0.415,20.2677,25.9027,6.17336,0.0,0.0
141,35,44.1912,47.4092,116.192,97.0692,47.1353,0.0175416,0.45811,20.1975,25.8027,6.46213,0.0,0.0
144,35.75,45.0928,48.7864,122.188,97.0775,48.0725,0.0193653,0.498818,20.137,25.7026,6.28678,0.0,0.0
147,36.5,46.052,50.4157,116.074,97.0621,43.2602,0.0210674,0.544363,20.0646,25.5424,7.22889,0.0,0.0
150,37.25,47.6148,52.1968,115.421,97.0593,47.1191,0.0229975,0.591878,19.986,25.3923,6.4643,0.0,0.0
153,38,48.7088,53.7079,115.357,97.0593,46.8386,0.0248303,0.632619,19.9043,25.2922,6.5177,0.0,0.0
156,38.75,49.8844,55.4162,114.56,97.0463,45.1786,0.0265954,0.681021,19.8216,25.1421,6.83928,0.0,0.0
159,39.5,51.3063,57.4124,113.232,97.0328,42.5702,0.0283054,0.727636,19.7367,24.9619,7.37002,0.0,0.0
162,40.25,52.9065,59.4898,101.123,97.0293,40.3632,0.030204,0.772167,19.6562,24.8819,7.84591,0.0,0.0
165,41,53.7844,61.2646,109.826,97.0221,40.6769,0.0315881,0.814407,19.5895,24.7017,7.776,0.0,0.0
168,41.75,55.0067,63.0058,111.35,97.0035,37.4252,0.033265,0.855671,19.5237,24.5616,8.51956,0.0,0.0
171,42.5,56.1791,65.0158,107.01,96.9932,36.777,0.0349641,0.895376,19.4602,24.3314,8.67491,0.0,0.0
174,43.25,57.5866,66.9385,107.455,96.9889,37.3549,0.0365308,0.933144,19.4002,24.2613,8.53503,0.0,0.0
177,44,58.8899,68.9539,107.305,96.9932,39.093,0.0382278,0.977192,19.3418,24.1212,8.12862,0.0,0.0
180,44.75,60.8608,71.1707,107.832,96.981,39.9726,0.039667,1.0093,19.2797,23.951,7.92843,0.0,0.0
183,45.5,61.867,73.1367,105.643,96.9782,34.5472,0.0412243,1.05307,19.2117,23.8109,9.23303,0.0,0.0
186,46.25,63.2491,75.0985,107.506,96.9568,37.0455,0.0426377,1.09417,19.1497,23.6107,8.60648,0.0,0.0
189,47,65.1417,77.8585,103.149,96.962,35.0196,0.0435591,1.12805,19.1099,23.4906,9.11002,0.0,0.0
192,47.75,66.7303,79.8656,104.757,96.9501,35.7498,0.045234,1.16457,19.0443,23.3105,8.92434,0.0,0.0
195,48.5,67.6492,81.3903,110.983,96.9438,35.0077,0.0463091,1.19579,19.0192,23.0402,9.1114,0.0,0.0
198,49.25,69.8955,84.2778,109.852,96.9335,33.3925,0.0477173,1.2228,18.9883,22.9301,9.533,0.0,0.0
201,50,70.4507,85.6574,106.619,96.9398,34.0086,0.0490281,1.23934,18.9576,22.77,9.37002,0.0,0.0
204,50.75,71.7041,87.1347,102.538,96.9414,35.9147,0.0503288,1.27032,18.9285,22.6599,8.88235,0.0,0.0
207,51.5,73.854,89.591,100.968,96.9295,34.4011,0.0514153,1.28255,18.9045,22.4097,9.26643,0.0,0.0
210,52.25,74.8493,91.6219,99.7265,96.9165,30.8412,0.0522663,1.30136,18.8851,22.2696,10.2424,0.0,0.0
213,53,75.7525,93.0893,109.019,96.9303,33.445,0.0529713,1.31712,18.8674,22.0994,9.51864,0.0,0.0
216,53.75,77.2583,94.5823,99.2151,96.9192,34.7025,0.0534884,1.3306,18.8523,21.9293,9.18746,0.0,0.0
219,54.5,78.1028,96.2017,102.844,96.9094,31.841,0.0538666,1.34235,18.8401,21.7491,9.95635,0.0,0.0
222,55.25,78.6165,96.8398,99.6891,96.9141,32.7894,0.0542382,1.35409,18.8289,21.5589,9.69423,0.0,0.0
225,56,80.4659,99.2569,93.215,96.9133,32.4893,0.0543761,1.36591,18.8186,21.4689,9.77642,0.0,0.0
228,56.75,81.7345,101.069,99.467,96.907,35.4535,0.0546496,1.3778,18.8067,21.1986,8.99481,0.0,0.0
231,57.5,82.8142,102.234,99.164,96.903,31.9565,0.0550443,1.39223,18.7947,20.9884,9.92337,0.0,0.0
234,58.25,83.9831,103.872,103.41,96.8947,33.763,0.0557438,1.40868,18.7733,20.8783,9.43072,0.0,0.0
237,59,85.4077,106.339,103.613,96.8979,31.9542,0.0565553,1.41464,18.7507,20.6782,9.92354,0.0,0.0
240,59.75,86.3431,107.771,103.977,96.9125,34.5182,0.0574474,1.43532,18.7157,20.488,9.23447,0.0,0.0
243,60.5,87.1589,108.608,97.884,96.905,31.7742,0.058392,1.45549,18.679,20.3078,9.97474,0.0,0.0
246,61.25,89.0575,111.048,100.643,96.9066,32.5093,0.0595546,1.47538,18.643,20.1377,9.77027,0.0,0.0
249,62,89.5759,112.092,96.4047,96.9007,31.8572,0.0604022,1.49503,18.6127,19.9575,9.95098,0.0,0.0
252,62.75,91.1488,113.455,101.545,96.905,32.2617,0.0616446,1.51635,18.5836,19.8074,9.83853,0.0,0.0
255,63.5,92.8804,116.452,101.445,96.8975,28.1428,0.0626685,1.53616,18.5593,19.5772,11.0597,0.0,0.0
258,64.25,94.1055,118.094,98.7999,96.907,32.6658,0.063617,1.55242,18.5328,19.407,9.72736,0.0,0.0
261,65,94.7079,118.966,94.9614,96.9014,30.4379,0.0646325,1.5714,18.5068,19.1869,10.3587,0.0,0.0
264,65.75,96.5266,120.991,88.9193,96.8959,28.8339,0.0656381,1.58523,18.4782,18.9867,10.8425,0.0,0.0
267,66.5,96.732,121.368,103.229,96.8983,28.8633,0.0666394,1.60432,18.4458,18.7264,10.8336,0.0,0.0
270,67.25,98.2213,123.895,98.7114,96.8919,28.4777,0.0676343,1.62521,18.4026,18.6364,10.9533,0.0,0.0
273,68,99.4541,125.517,101.065,96.8876,30.655,0.0688919,1.6434,18.3591,18.3661,10.2939,0.0,0.0
276,68.75,100.348,126.877,91.0076,96.8935,28.4959,0.0698086,1.66846,18.3223,18.236,10.9478,0.0,0.0
279,69.5,101.86,128.725,88.6369,96.8975,27.6093,0.0714192,1.69248,18.2875,18.0058,11.2309,0.0,0.0
282,70.25,103.147,130.092,96.4559,96.8805,26.256,0.0730752,1.71508,18.2545,17.7856,11.6789,0.0,0.0
285,71,104.489,132.122,97.2184,96.8777,28.212,0.074752,1.73604,18.2233,17.5354,11.0359,0.0,0.0
288,71.75,105.52,133.77,87.956,96.8888,28.6222,0.0764263,1.75983,18.1873,17.3452,10.9078,0.0,0.0
291,72.5,106.841,135.473,98.3236,96.8805,27.5734,0.0780106,1.78026,18.157,17.135,11.241,0.0,0.0
294,73.25,108.179,137.472,85.8693,96.8884,27.4652,0.0795688,1.80042,18.1282,16.9048,11.2768,0.0,0.0
297,74,109.543,138.732,98.9724,96.8682,26.5887,0.0811291,1.82057,18.0989,16.6446,11.5651,0.0,0.0
300,74.75,110.722,140.521,87.7507,96.8809,24.8556,0.0829134,1.83842,18.0648,16.4745,12.1692,0.0,0.0
303,75.5,111.358,141.445,100.523,96.884,26.2939,0.0842142,1.85681,18.0344,16.3043,11.6663,0.0,0.0
306,76.25,112.843,143.392,96.591,96.8745,25.9671,0.0859656,1.87981,18.0015,16.0741,11.7773,0.0,0.0
309,77,113.759,145.002,93.5806,96.8809,25.0225,0.0878832,1.9049,17.9592,15.8139,12.1094,0.0,0.0
312,77.75,115.493,147.176,88.9712,96.8753,24.107,0.0897916,1.93041,17.9112,15.5837,12.4423,0.0,0.0
315,78.5,116.339,148.866,99.3685,96.8694,24.253,0.0920864,1.96226,17.8763,15.3935,12.3877,0.0,0.0
318,79.25,117.915,150.683,94.9881,96.8654,22.8661,0.0937594,1.98549,17.835,15.1833,12.9141,0.0,0.0
321,80,118.969,152.588,85.4815,96.8587,24.9758,0.0964588,2.01881,17.7878,14.823,12.124,0.0,0.0
324,80.75,120.478,154.217,89.3948,96.8595,24.6764,0.0987734,2.05288,17.7461,14.5928,12.232,0.0,0.0
327,81.5,121.477,155.969,90.455,96.8666,22.7135,0.10134,2.08189,17.6853,14.3926,12.9741,0.0,0.0
330,82.25,123.137,158.172,82.9535,96.8674,22.9237,0.103701,2.11125,17.6157,14.0624,12.8918,0.0,0.0
333,83,124.461,160.256,91.8213,96.8472,23.609,0.105718,2.1467,17.5649,13.8522,12.6264,0.0,0.0
336,83.75,125.948,161.801,94.9354,96.8365,21.9613,0.107696,2.18356,17.5064,13.652,13.2726,0.0,0.0
339,84.5,127.031,163.975,89.9131,96.829,22.6525,0.109711,2.21859,17.4504,13.4318,12.9947,0.0,0.0
342,85.25,128.048,165.917,81.9697,96.8274,22.7089,0.111412,2.25256,17.4039,13.1516,12.9723,0.0,0.0
345,86,129.52,167.626,86.4051,96.812,21.2073,0.113049,2.2858,17.3528,12.9314,13.5828,0.0,0.0
348,86.75,130.976,169.595,79.6058,96.816,20.4458,0.115057,2.31794,17.2841,12.531,13.9103,0.0,0.0
351,87.5,132.306,171.159,96.5063,96.8013,20.2894,0.117114,2.3549,17.2101,12.3709,13.9777,0.0,0.0
354,88.25,133.573,173.294,77.0473,96.8037,19.4395,0.119218,2.39981,17.1381,12.0306,14.3607,0.0,0.0
357,89,134.947,175.425,78.0777,96.7918,21.6817,0.121353,2.44428,17.0724,11.7803,13.3831,0.0,0.0
360,89.75,136.515,177.597,86.1387,96.7811,20.3632,0.123536,2.48171,17.0187,11.4701,13.9433,0.0,0.0
363,90.5,137.868,179.721,92.2121,96.7918,19.9382,0.126199,2.52269,16.9587,11.2299,14.133,0.0,0.0
366,91.25,138.839,181.519,92.2113,96.7831,19.1331,0.129573,2.55905,16.9079,11.0597,14.5009,0.0,0.0
369,92,140.932,183.758,82.6192,96.7716,19.6052,0.132697,2.58832,16.8678,10.6694,14.2818,0.0,0.0
372,92.75,141.547,185.125,84.703,96.7534,17.7022,0.136111,2.62309,16.8164,10.3991,15.1934,0.0,0.0
375,93.5,143,187.326,74.1102,96.7499,19.2594,0.140598,2.65616,16.7452,10.0789,14.4389,0.0,0.0
378,94.25,143.644,188.82,79.2707,96.7376,16.8299,0.144502,2.69348,16.6789,9.80861,15.644,0.0,0.0
381,95,145.908,191.612,69.394,96.7238,19.516,0.148429,2.74225,16.5958,9.39825,14.3181,0.0,0.0
384,95.75,147.943,194.347,90.4092,96.7032,20.3454,0.152378,2.7907,16.513,9.16805,13.9439,0.0,0.0
387,96.5,148.995,196.363,73.4775,96.7032,19.0149,0.15564,2.83152,16.4526,8.83776,14.5489,0.0,0.0
390,97.25,150.628,198.889,82.9207,96.6973,20.4269,0.15867,2.87931,16.3878,8.55752,13.9076,0.0,0.0
393,98,151.661,201.002,78.7052,96.6893,18.8333,0.161334,2.92854,16.3199,8.23723,14.6334,0.0,0.0
396,98.75,153.466,203.639,85.0052,96.6652,16.614,0.163732,2.97057,16.2504,7.92696,15.7528,0.0,0.0
399,99.5,154.927,205.584,77.0069,96.6557,19.0338,0.165929,3.01895,16.1789,7.60668,14.5356,0.0,0.0
402,100.25,156.229,207.972,79.3906,96.6521,17.3576,0.168437,3.06053,16.1108,7.36647,15.3599,0.0,0.0
405,101,157.796,209.865,85.6998,96.6403,17.7246,0.170976,3.10165,16.0543,6.99614,15.1717,0.0,0.0
408,101.75,158.833,211.406,79.5692,96.6419,16.6213,0.172486,3.14369,16.0128,6.73592,15.7467,0.0,0.0
411,102.5,160.345,213.864,66.4622,96.6114,16.4247,0.174724,3.19306,15.9487,6.34557,15.8504,0.0,0.0
414,103.25,161.852,216.184,94.8965,96.611,16.5603,0.1772,3.23954,15.8796,6.1454,15.7768,0.0,0.0
417,104,163.178,218.306,71.8944,96.5948,16.8342,0.179471,3.28146,15.8255,5.61493,15.6285,0.0,0.0
420,104.75,165.049,220.176,72.3051,96.5762,18.3887,0.181924,3.30288,15.7796,5.39474,14.8367,0.0,0.0
423,105.5,166.297,222.338,78.296,96.5631,16.6309,0.184762,3.33758,15.744,4.96436,15.7342,0.0,0.0
426,106.25,167.19,223.885,70.5228,96.5603,14.4181,0.187739,3.36784,15.717,4.68411,17.0112,0.0,0.0
429,107,168.38,225.62,67.9101,96.5417,18.2469,0.190696,3.39838,15.6663,4.36383,14.9027,0.0,0.0
432,107.75,169.653,227.895,77.4351,96.535,15.2116,0.1939,3.42892,15.6057,4.1036,16.5296,0.0,0.0
435,108.5,171.375,230.267,75.5818,96.5125,15.8765,0.196991,3.46534,15.5515,3.67323,16.1448,0.0,0.0
438,109.25,172.842,232.507,75.4254,96.5037,14.2698,0.19984,3.50182,15.512,3.413,17.0985,0.0,0.0
441,110,174.447,234.993,79.518,96.5045,15.5744,0.202382,3.53025,15.4832,3.12274,16.316,0.0,0.0
444,110.75,175.877,236.573,70.3992,96.4729,15.1301,0.20452,3.55076,15.4622,2.81247,16.5719,0.0,0.0
447,111.5,176.774,238.406,67.5087,96.4673,15.975,0.206567,3.56402,15.4431,2.45215,16.0853,0.0,0.0
450,112.25,178.403,240.495,73.7668,96.4634,15.6045,0.208451,3.5707,15.4318,2.13187,16.2949,0.0,0.0
453,113,178.919,240.856,84.348,96.4389,14.6573,0.209867,3.57611,15.4264,1.79157,16.8528,0.0,0.0
456,113.75,180.269,242.858,75.5315,96.4305,16.369,0.21076,3.58097,15.4252,1.49131,15.8639,0.0,0.0
459,114.5,180.869,244.4,75.362,96.423,18.792,0.211142,3.58365,15.4263,1.05092,14.6284,0.0,0.0
462,115.25,182.61,246.281,69.597,96.406,15.5342,0.210536,3.58192,15.4444,0.860756,16.3299,0.0,0.0
465,116,183.028,247.373,77.8999,96.3945,15.8065,0.209099,3.57499,15.465,0.480422,16.1734,0.0,0.0
468,116.75,184.175,248.218,71.2701,96.3803,17.9498,0.206993,3.55681,15.5054,0.180158,15.0346,0.0,0.0
471,117.5,185.198,249.364,72.7997,96.3668,17.1799,0.204342,3.53204,15.5466,-0.050044,15.4255,0.0,0.0
474,118.25,185.906,250.314,82.7627,96.3455,15.9109,0.200504,3.50909,15.5966,-0.290255,16.11,0.0,0.0
477,119,186.811,251.349,75.5711,96.3368,17.6844,0.194904,3.4696,15.6616,-0.650571,15.1638,0.0,0.0
480,119.75,186.87,251.649,76.1741,96.317,17.2073,0.189879,3.43194,15.733,-0.860756,15.4066,0.0,0.0
483,120.5,187.485,251.73,87.505,96.3011,17.8393,0.184606,3.38935,15.8055,-1.22107,15.0825,0.0,0.0
486,121.25,188.291,252.294,72.3776,96.2889,17.8575,0.180164,3.33418,15.8862,-1.47129,15.0723,0.0,0.0
489,122,188.599,252.927,84.6503,96.2821,18.0352,0.174034,3.28369,16.0035,-1.7115,14.9831,0.0,0.0
492,122.75,188.869,252.749,79.6142,96.2663,17.5898,0.166913,3.21586,16.1302,-2.08183,15.2053,0.0,0.0
495,123.5,188.942,252.248,81.6445,96.2465,19.8706,0.16011,3.14151,16.2765,-2.26199,14.1128,0.0,0.0
498,124.25,188.784,251.63,90.0634,96.2232,20.6757,0.153651,3.09608,16.3832,-2.47217,13.7554,0.0,0.0
501,125,188.822,251.329,82.7139,96.2224,22.2901,0.146377,3.01197,16.4811,-2.67235,13.0827,0.0,0.0
504,125.75,188.87,250.627,81.2034,96.2058,24.2626,0.141074,2.92732,16.587,-2.91256,12.3227,0.0,0.0
507,126.5,188.553,250.276,91.935,96.1939,24.0417,0.131654,2.85566,16.7083,-3.09272,12.4034,0.0,0.0
510,127.25,188.862,249.233,91.961,96.165,24.8135,0.122366,2.75536,16.8429,-3.25286,12.118,0.0,0.0
513,128,187.6,247.469,100.665,96.1607,28.4553,0.113386,2.68224,16.9874,-3.47305,10.8926,0.0,0.0
516,128.75,186.994,246.009,96.7184,96.1638,31.4385,0.104828,2.5656,17.2363,-3.59316,10.0011,0.0,0.0
519,129.5,186.567,244.723,105.296,96.1409,30.4943,0.0961731,2.45358,17.5178,-3.71326,10.2717,0.0,0.0
522,130.25,184.951,242.147,106.136,96.1195,41.0551,0.0900553,2.31086,17.6917,-3.86339,7.6096,0.0,0.0
525,131,183.771,239.373,104.463,96.1191,40.5216,0.0817389,2.1516,17.9763,-3.96348,7.72657,0.0,0.0
528,131.75,182.368,236.792,112.772,96.106,36.8183,0.0745458,2.01505,18.1839,-4.04355,8.58266,0.0,0.0
531,132.5,181.137,234.455,110.556,96.0997,38.3215,0.0673689,1.88055,18.4234,-4.1036,8.22412,0.0,0.0
534,133.25,179.877,231.916,115.722,96.0764,38.8619,0.0602112,1.78118,18.6447,-4.18367,8.09667,0.0,0.0
537,134,178.276,228.995,116.823,96.0574,40.1132,0.0537278,1.66638,18.8478,-4.24373,7.81142,0.0,0.0
540,134.75,176.201,226.05,120.347,96.057,45.6901,0.0478993,1.5343,19.0331,-4.42389,6.64692,0.0,0.0
543,135.5,174.748,222.543,126.212,96.0503,51.6645,0.042688,1.40834,19.2431,-4.45391,5.54701,0.0,0.0
546,136.25,173.004,220.127,119.083,96.0419,54.6782,0.0376273,1.29151,19.4336,-4.48394,5.03909,0.0,0.0
549,137,171.214,216.925,125.176,96.0261,57.4558,0.0335255,1.18523,19.5884,-4.51396,4.59437,0.0,0.0
552,137.75,169.09,213.299,128.289,96.0265,64.8379,0.0298298,1.07754,19.7476,-4.554,3.51314,0.0,0.0
555,138.5,167.052,210.22,130.671,96.0028,76.4626,0.0265645,0.979068,19.8811,-4.56401,2.03574,0.0,0.0
558,139.25,165.086,207.084,130.33,95.9937,79.7107,0.0239407,0.898769,20.0082,-4.56401,1.66274,0.0,0.0
561,140,163.194,203.764,133.25,95.9964,83.254,0.0216705,0.810761,20.1271,-4.56401,1.27395,0.0,0.0
564,140.75,160.909,200.323,138.231,95.9917,90.2985,0.0199363,0.736931,20.2381,-4.57402,0.546923,0.0,0.0
567,141.5,158.962,197.154,137.655,95.9826,91.1917,0.0186187,0.666572,20.3415,-4.57402,0.45803,0.0,0.0
570,142.25,156.32,193.647,132.115,95.9632,91.1322,0.0176248,0.600831,20.4454,-4.60404,0.46206,0.0,0.0
573,143,154.527,190.591,134.02,95.9545,91.1832,0.0168456,0.546745,20.534,-4.58403,0.456244,0.0,0.0
576,143.75,153.045,187.244,133.841,95.9588,91.2608,0.0162215,0.491666,20.6082,-4.58403,0.449036,0.0,0.0
579,144.5,150.661,184.618,136.775,95.9592,91.4049,0.0157427,0.444681,20.669,-4.57402,0.434959,0.0,0.0
582,145.25,149.404,182.025,136.698,95.9355,91.184,0.0152854,0.404557,20.7157,-4.60404,0.454398,0.0,0.0
585,146,147.166,178.865,138.064,95.9367,91.447,0.0148619,0.3678,20.7538,-4.60404,0.428737,0.0,0.0
588,146.75,145.51,175.905,137.655,95.9442,90.907,0.0144777,0.33682,20.7878,-4.60404,0.482424,0.0,0.0
591,147.5,143.624,173.346,138.131,95.9426,91.0681,0.0141103,0.309867,20.8127,-4.59404,0.466438,0.0,0.0
594,148.25,142.331,171.348,135.935,95.9189,90.8861,0.0138052,0.288357,20.8335,-4.59404,0.482115,0.0,0.0
597,149,140.856,168.368,135.302,95.9224,90.715,0.0134477,0.267116,20.8507,-4.63407,0.499307,0.0,0.0
600,149.75,139.532,165.853,138.609,95.9268,92.1204,0.0131294,0.249157,20.8648,-4.64408,0.362189,0.0,0.0
603,150.5,137.568,163.319,135.816,95.9339,91.0364,0.0127376,0.23501,20.8773,-4.65409,0.468739,0.0,0.0
606,151.25,135.618,161.141,137.122,95.9173,91.1415,0.0123328,0.22286,20.8886,-4.6641,0.456871,0.0,0.0
609,152,134.696,159.079,133.126,95.9023,91.6537,0.0119868,0.210862,20.8988,-4.64408,0.405331,0.0,0.0
612,152.75,132.985,157.04,137.951,95.9145,91.3435,0.0115895,0.200265,20.908,-4.6641,0.436804,0.0,0.0
615,153.5,131.977,153.922,134.571,95.9201,91.4177,0.0111796,0.190828,20.9155,-4.6641,0.430059,0.0,0.0
618,154.25,130.347,152.213,139.548,95.9102,91.724,0.010781,0.182369,20.9235,-4.68411,0.39921,0.0,0.0
621,155,129.11,150.545,136.891,95.8943,90.9344,0.0103396,0.174554,20.9302,-4.67411,0.475076,0.0,0.0
624,155.75,127.957,148.879,136.737,95.8908,91.2461,0.0099212,0.168155,20.936,-4.67411,0.444128,0.0,0.0
627,156.5,125.596,145.968,133.708,95.9169,91.3586,0.00951962,0.16121,20.9409,-4.67411,0.435549,0.0,0.0
630,157.25,125,144.789,137.248,95.9122,91.7225,0.00913228,0.154971,20.9458,-4.69412,0.399546,0.0,0.0
633,158,123.759,142.7,136.352,95.8995,91.95,0.00871184,0.149348,20.9501,-4.72415,0.376201,0.0,0.0
636,158.75,122.015,140.505,135.563,95.9129,91.7619,0.00834648,0.144268,20.9544,-4.70413,0.395776,0.0,0.0
639,159.5,121.253,138.93,136.9,95.9157,92.9429,0.00784203,0.139133,20.9583,-4.71414,0.281644,0.0,0.0
642,160.25,119.226,136.906,135.841,95.9165,91.7395,0.00739515,0.13443,20.9615,-4.71414,0.398294,0.0,0.0
645,161,118.896,135.726,136.106,95.9058,91.5309,0.00693408,0.130592,20.9644,-4.71414,0.417661,0.0,0.0
648,161.75,117.737,133.763,136.355,95.9027,91.4741,0.00641732,0.126563,20.9684,-4.72415,0.422918,0.0,0.0
651,162.5,116.877,132.377,137.084,95.9189,90.9858,0.0059253,0.1231,20.9718,-4.71414,0.472311,0.0,0.0
654,163.25,115.462,131.203,134.354,95.9165,92.3201,0.00546523,0.119138,20.9751,-4.73416,0.341856,0.0,0.0
657,164,114.019,129.13,136.023,95.9153,92.062,0.00504054,0.115312,20.9781,-4.74417,0.366785,0.0,0.0
660,164.75,112.56,126.995,136.991,95.9256,92.1409,0.00459837,0.111765,20.9812,-4.73416,0.360089,0.0,0.0
663,165.5,112.266,126.52,137.017,95.9272,92.2286,0.00427604,0.10857,20.9839,-4.71414,0.351728,0.0,0.0
666,166.25,111.338,124.227,136.78,95.9359,92.1694,0.00386598,0.105294,20.9862,-4.70413,0.358274,0.0,0.0
669,167,110.05,123.769,141.728,95.9367,91.5637,0.00352663,0.102284,20.9882,-4.72415,0.417331,0.0,0.0
672,167.75,109.491,122.369,138.907,95.9268,91.8082,0.00321012,0.099825,20.9896,-4.73416,0.39255,0.0,0.0
675,168.5,108.048,119.843,137.42,95.9486,91.4296,0.00285472,0.0969352,20.9915,-4.73416,0.431545,0.0,0.0
678,169.25,107.135,119.445,135.524,95.9493,92.1227,0.00252276,0.0948286,20.9938,-4.74417,0.364067,0.0,0.0
681,170,106.95,117.604,137.621,95.9628,92.13,0.00224969,0.0922364,20.9964,-4.73416,0.364608,0.0,0.0
684,170.75,105.534,116.791,136.094,95.949,91.1202,0.0019384,0.0898088,20.9984,-4.72415,0.461907,0.0,0.0
687,171.5,105.028,115.496,137.635,95.9652,91.194,0.00171147,0.0878098,21.0004,-4.71414,0.45618,0.0,0.0
690,172.25,103.693,114.543,134.29,95.9735,91.0916,0.00140696,0.0855111,21.0022,-4.74417,0.467002,0.0,0.0
693,173,103.224,112.835,137.221,95.9747,91.9794,0.00118498,0.0833794,21.0035,-4.74417,0.380355,0.0,0.0
696,173.75,102.115,111.98,138.783,95.9842,91.7576,0.000933461,0.081631,21.005,-4.74417,0.402831,0.0,0.0
699,174.5,101.081,110.676,133.724,95.9937,92.8042,0.000696804,0.0799969,21.0065,-4.71414,0.302269,0.0,0.0
702,175.25,99.7015,109.649,138.656,96.0162,91.1898,0.000472276,0.0781909,21.008,-4.74417,0.461353,0.0,0.0
705,176,99.6866,108.251,138.796,96.0008,90.9645,0.000258524,0.0762638,21.0097,-4.73416,0.482036,0.0,0.0
708,176.75,98.913,107.64,133.002,96.0099,91.2929,2.5035e-05,0.0746479,21.0114,-4.74417,0.450651,0.0,0.0
711,177.5,97.8635,106.248,136.213,96.0356,92.7227,-0.00019963,0.0731091,21.013,-4.75418,0.314037,0.0,0.0
714,178.25,97.7462,105.273,136.455,96.0408,91.8561,-0.000386624,0.0715493,21.0146,-4.73416,0.398505,0.0,0.0
717,179,96.7976,104.085,138.573,96.0649,92.1691,-0.000609034,0.070092,21.0158,-4.75418,0.370332,0.0,0.0
720,179.75,95.7681,102.958,137.421,96.0669,93.1074,-0.000802321,0.0688931,21.0167,-4.74417,0.279906,0.0,0.0
723,180.5,94.7917,102.114,136.576,96.0693,92.0609,-0.000996494,0.0676007,21.0177,-4.74417,0.381242,0.0,0.0
726,181.25,94.3319,101.829,133.229,96.1009,92.0659,-0.00117356,0.0663787,21.0184,-4.76418,0.383701,0.0,0.0
729,182,93.9737,100.029,136.971,96.1041,92.8745,-0.00133023,0.0653685,21.019,-4.73416,0.305777,0.0,0.0
732,182.75,93.0258,99.4991,135.12,96.1104,92.3649,-0.00146576,0.0642131,21.0206,-4.76418,0.35558,0.0,0.0
735,183.5,92.4686,98.3794,135.876,96.1258,91.7352,-0.00159326,0.0632166,21.0219,-4.75418,0.41821,0.0,0.0
738,184.25,92.0009,97.4502,136.677,96.1567,92.1188,-0.00170751,0.0622267,21.0227,-4.75418,0.383752,0.0,0.0
741,185,91.1037,96.4138,137.177,96.1717,92.091,-0.00181047,0.0612922,21.0234,-4.77419,0.387853,0.0,0.0
744,185.75,90.5994,95.556,137.946,96.1713,92.0022,-0.00190365,0.0604083,21.0239,-4.7842,0.39645,0.0,0.0
747,186.5,90.1051,95.3394,134.878,96.1903,92.6199,-0.00199337,0.0595725,21.0242,-4.77419,0.338357,0.0,0.0
750,187.25,89.5325,94.216,133.295,96.2161,92.7563,-0.00209607,0.0587357,21.0245,-4.77419,0.327588,0.0,0.0
753,188,88.5359,93.5431,140.276,96.2263,92.5079,-0.00223341,0.0579397,21.0251,-4.75418,0.352533,0.0,0.0
756,188.75,88.1701,92.7894,138.58,96.2505,93.0309,-0.00237732,0.0572801,21.0257,-4.75418,0.304338,0.0,0.0
759,189.5,87.5229,92.3369,134.789,96.2628,93.1546,-0.0025009,0.056572,21.0262,-4.76418,0.2936,0.0,0.0
762,190.25,87.0364,91.5273,138.504,96.2707,92.6527,-0.00263658,0.0558832,21.027,-4.77419,0.342653,0.0,0.0
765,191,86.6122,90.23,135.813,96.2944,91.4513,-0.00274496,0.0552376,21.0278,-4.77419,0.461614,0.0,0.0
768,191.75,85.9154,89.8898,137.176,96.3205,92.198,-0.00282801,0.0546476,21.0283,-4.7842,0.391292,0.0,0.0
771,192.5,85.3611,88.904,137.941,96.3304,93.0004,-0.00290543,0.0541267,21.0287,-4.79421,0.314698,0.0,0.0
774,193.25,84.7573,88.3628,137.717,96.353,91.9033,-0.00296187,0.0535917,21.029,-4.7842,0.422951,0.0,0.0
777,194,84.2006,87.6071,140.677,96.3732,93.4852,-0.00304691,0.0530125,21.0292,-4.77419,0.272154,0.0,0.0
780,194.75,83.6002,87.3603,138.484,96.3937,93.5416,-0.00310891,0.0525275,21.0294,-4.79421,0.268668,0.0,0.0
783,195.5,82.9058,85.721,139.194,96.4088,92.5662,-0.00320138,0.0520665,21.0299,-4.77419,0.363836,0.0,0.0
786,196.25,82.6699,85.4654,138.827,96.4234,93.5575,-0.00327352,0.0515979,21.0304,-4.76418,0.269908,0.0,0.0
789,197,82.1891,85.0959,136.922,96.4677,92.3174,-0.00331941,0.0511997,21.0307,-4.75418,0.393379,0.0,0.0
792,197.75,81.5937,84.4033,139.486,96.4705,93.7595,-0.00333795,0.0508188,21.031,-4.75418,0.254978,0.0,0.0
795,198.5,81.5877,83.7366,136.646,96.4895,92.6191,-0.00331938,0.0503442,21.0312,-4.76418,0.36621,0.0,0.0
798,199.25,80.0459,82.9518,140.34,96.5148,92.3908,-0.00327626,0.0499267,21.0313,-4.75418,0.390635,0.0,0.0
801,200,80.3221,82.8888,138.721,96.5485,92.4731,-0.00323221,0.0495429,21.0314,-4.7842,0.385789,0.0,0.0
804,200.75,80.1187,81.9294,142.762,96.5627,93.9535,-0.00317878,0.0491365,21.0315,-4.79421,0.24504,0.0,0.0
807,201.5,79.0184,81.1927,139.489,96.5805,93.8901,-0.00313076,0.0487798,21.0316,-4.7842,0.252723,0.0,0.0
810,202.25,79.4662,80.7367,137.446,96.5983,92.5921,-0.00312951,0.048484,21.0316,-4.76418,0.378904,0.0,0.0
813,203,78.4583,79.5189,138.406,96.6264,92.9401,-0.00316743,0.0482265,21.0316,-4.75418,0.347942,0.0,0.0
816,203.75,78.0257,78.9337,140.424,96.6533,93.6185,-0.0032038,0.0479674,21.0316,-4.76418,0.285377,0.0,0.0
819,204.5,78.0567,79.0145,139.627,96.6715,93.345,-0.00324523,0.0477029,21.0317,-4.75418,0.313235,0.0,0.0
822,205.25,77.7427,78.8604,136.755,96.6751,92.6071,-0.003294,0.0474683,21.0317,-4.75418,0.384555,0.0,0.0
825,206,76.6362,78.5678,139.06,96.7079,92.3684,-0.00334613,0.0472258,21.0317,-4.76418,0.410685,0.0,0.0
828,206.75,77.2176,77.483,137.561,96.7337,93.7452,-0.00339119,0.0469168,21.0317,-4.76418,0.28071,0.0,0.0
831,207.5,76.1015,76.606,137.666,96.7424,93.053,-0.00343351,0.0466519,21.0317,-4.77419,0.347818,0.0,0.0
834,208.25,75.9352,76.7872,134.887,96.7562,93.2674,-0.00346529,0.046414,21.0317,-4.75418,0.328511,0.0,0.0
837,209,75.759,76.3294,135.328,96.7847,93.7916,-0.00348313,0.046193,21.0317,-4.76418,0.281006,0.0,0.0
840,209.75,75.2082,75.8315,141.79,96.8029,94.2386,-0.003486,0.0459392,21.0317,-4.76418,0.24016,0.0,0.0
843,210.5,75.0694,75.2908,136.117,96.816,92.2371,-0.00348872,0.0457147,21.0317,-4.75418,0.433401,0.0,0.0
846,211.25,74.5874,75.3118,138.975,96.8361,93.4474,-0.00349176,0.045419,21.0323,-4.77419,0.318649,0.0,0.0
849,212,74.0722,74.7013,142.246,96.8599,93.683,-0.00350243,0.0451686,21.0328,-4.76418,0.298312,0.0,0.0
852,212.75,74.1511,73.7097,139.057,96.8714,94.4657,-0.00351643,0.0449266,21.0331,-4.76418,0.224948,0.0,0.0
855,213.5,73.853,73.8104,135.804,96.8892,94.142,-0.00353729,0.0447501,21.0334,-4.76418,0.257301,0.0,0.0
858,214.25,73.4219,73.6404,137.539,96.8927,93.6884,-0.00355561,0.0446076,21.0336,-4.77419,0.300828,0.0,0.0
861,215,73.2707,72.9906,139.988,96.9141,93.284,-0.0035743,0.0444798,21.0343,-4.77419,0.341504,0.0,0.0
864,215.75,72.4566,72.3276,140.998,96.939,94.1837,-0.00359636,0.0443338,21.0349,-4.79421,0.257939,0.0,0.0
867,216.5,72.4182,71.9446,138.832,96.9489,94.3927,-0.00361369,0.0442048,21.0353,-4.79421,0.239024,0.0,0.0
870,217.25,72.1438,72.0573,144.12,96.962,92.4978,-0.00362845,0.0440542,21.0356,-4.80422,0.421629,0.0,0.0
873,218,71.4454,71.0187,136.811,96.9826,93.7062,-0.0036361,0.0439305,21.0358,-4.79421,0.307421,0.0,0.0
876,218.75,71.2711,71.2242,141.371,97.0091,93.3605,-0.00363635,0.0438165,21.0351,-4.77419,0.342933,0.0,0.0
879,219.5,71.1301,71.0391,142.088,97.0154,94.4897,-0.0036264,0.0436769,21.0345,-4.77419,0.235972,0.0,0.0
882,220.25,70.0462,70.1298,135.937,97.0233,93.1209,-0.00361603,0.0435751,21.0341,-4.7842,0.367226,0.0,0.0
885,221,70.3025,69.4739,140.418,97.0332,93.3581,-0.00360315,0.0435197,21.0338,-4.7842,0.345381,0.0,0.0
888,221.75,70.2365,69.5647,138.222,97.0609,93.0375,-0.00359749,0.0434397,21.0336,-4.77419,0.37871,0.0,0.0
891,222.5,69.7314,69.2958,138.353,97.0704,93.2025,-0.00359976,0.0433366,21.0335,-4.76418,0.36374,0.0,0.0
894,223.25,69.4233,69.1153,137.445,97.0787,93.8851,-0.00362674,0.0432139,21.0334,-4.77419,0.299228,0.0,0.0
897,224,69.2038,68.5922,139.331,97.0997,93.1464,-0.00366772,0.0430757,21.0335,-4.76418,0.371816,0.0,0.0
900,224.75,69.1248,68.3899,138.711,97.123,94.716,-0.00372038,0.0428917,21.034,-4.77419,0.224485,0.0,0.0
903,225.5,69.0628,68.0522,137.696,97.1274,94.5376,-0.0037822,0.0427312,21.0344,-4.76418,0.241758,0.0,0.0
906,226.25,68.7025,67.6609,139.992,97.1424,94.4124,-0.00386104,0.0426029,21.0347,-4.7842,0.254993,0.0,0.0
909,227,68.4786,67.2301,140.78,97.1583,93.5629,-0.00392917,0.0424905,21.0349,-4.79421,0.337304,0.0,0.0
912,227.75,68.1164,67.2009,141.453,97.1642,92.8076,-0.00398337,0.0423821,21.035,-4.7842,0.410352,0.0,0.0
915,228.5,68.1306,66.5827,139.055,97.1725,93.9581,-0.00401697,0.0422654,21.0351,-4.7842,0.300911,0.0,0.0
918,229.25,67.7284,66.292,133.39,97.1808,93.9477,-0.00402959,0.0421621,21.0352,-4.79421,0.30267,0.0,0.0
921,230,67.1686,65.8509,140.291,97.1777,94.0184,-0.00402282,0.0420749,21.0353,-4.79421,0.295649,0.0,0.0
924,230.75,67.1282,66.0174,140.893,97.2034,93.6123,-0.00400268,0.0419737,21.0353,-4.7842,0.33673,0.0,0.0
927,231.5,66.9161,65.5602,140.814,97.22,94.1242,-0.00398682,0.0418999,21.0353,-4.7842,0.28948,0.0,0.0
930,232.25,66.0333,64.6303,139.292,97.2255,93.6819,-0.00397475,0.0418461,21.0354,-4.7842,0.332127,0.0,0.0
933,233,66.7537,65.0308,139.527,97.2354,93.6502,-0.00396933,0.0417804,21.0354,-4.7842,0.336063,0.0,0.0
936,233.75,65.8897,64.8769,139.403,97.2358,94.5422,-0.00396538,0.0417074,21.0354,-4.77419,0.2513,0.0,0.0
939,234.5,65.9636,64.3945,138.815,97.2505,94.6678,-0.0039625,0.0416304,21.0354,-4.77419,0.240774,0.0,0.0
942,235.25,65.5513,64.7426,137.913,97.2485,94.5743,-0.00396158,0.0415177,21.0354,-4.79421,0.249431,0.0,0.0
945,236,64.8677,64.1292,135.949,97.2548,94.8045,-0.00396142,0.0414077,21.035,-4.80422,0.228262,0.0,0.0
948,236.75,65.5392,63.6043,143.1,97.271,93.9948,-0.0039748,0.04128,21.0344,-4.79421,0.306483,0.0,0.0
951,237.5,64.9023,63.5971,139.28,97.2845,94.864,-0.00400469,0.0411473,21.0341,-4.80422,0.22538,0.0,0.0
954,238.25,65.071,63.7278,137.819,97.2952,94.956,-0.00404439,0.0410337,21.0342,-4.79421,0.217695,0.0,0.0
957,239,65.2295,63.1506,137.219,97.2904,94.5878,-0.00408932,0.0409697,21.0346,-4.80422,0.25201,0.0,0.0
960,239.75,64.8635,62.9842,141.725,97.2877,94.4298,-0.00411852,0.0408834,21.0348,-4.80422,0.26671,0.0,0.0
963,240.5,64.4947,62.4712,139.146,97.2979,93.8886,-0.00413829,0.0408036,21.035,-4.79421,0.319074,0.0,0.0
966,241.25,64.5508,62.2997,139.35,97.2979,94.6612,-0.0041172,0.0407077,21.0351,-4.81423,0.245761,0.0,0.0
969,242,64.1367,62.6873,138.234,97.2952,95.3206,-0.00408668,0.0406378,21.0353,-4.81423,0.183407,0.0,0.0
972,242.75,64.1443,62.3381,140.553,97.2964,94.1346,-0.00401962,0.0406008,21.0357,-4.80422,0.295514,0.0,0.0
975,243.5,63.188,61.941,145.531,97.3003,95.0506,-0.00398954,0.0405976,21.0358,-4.7842,0.209257,0.0,0.0
978,244.25,63.7638,61.9412,139.634,97.3078,94.2923,-0.00395141,0.0405952,21.036,-4.7842,0.281604,0.0,0.0
981,245,63.4569,61.6474,135.539,97.2991,93.9214,-0.00393071,0.0405143,21.0361,-4.77419,0.316055,0.0,0.0
984,245.75,63.3655,61.1857,136.754,97.292,92.876,-0.00392613,0.0403965,21.0362,-4.80422,0.415523,0.0,0.0
987,246.5,63.3547,61.2703,135.359,97.3031,95.0278,-0.00394617,0.0403539,21.0362,-4.82424,0.211657,0.0,0.0
990,247.25,62.4001,61.1176,137.967,97.3039,94.2672,-0.0039876,0.0403177,21.0363,-4.80422,0.283621,0.0,0.0
993,248,62.7114,61.0028,141.036,97.2972,94.0755,-0.00403273,0.0402901,21.0363,-4.81423,0.301205,0.0,0.0
996,248.75,62.5317,60.4527,140.683,97.2857,94.7211,-0.00408057,0.0402581,21.0364,-4.80422,0.238977,0.0,0.0
999,249.5,61.9394,60.8448,139.631,97.2881,94.3243,-0.00414102,0.0401594,21.0364,-4.79421,0.276742,0.0,0.0
1002,250.25,62.1367,60.1147,141.507,97.2884,93.5115,-0.0041834,0.0400742,21.0364,-4.79421,0.354196,0.0,0.0
1005,251,62.0501,60.2206,139.096,97.2896,94.3734,,0.0400065,,-4.80422,0.272236,0.0,0.0
1008,251.75,61.813,59.8511,135.6,97.2691,93.6205,,0.039976,,-4.81423,0.341998,0.0,0.0
1011,252.5,61.2172,59.324,139.351,97.2916,95.0429,,0.0399538,,-4.80422,0.209183,0.0,0.0
1014,253.25,61.7846,59.6006,139.021,97.2782,95.8252,,0.0399375,,-4.80422,0.13462,0.0,0.0
1017,254,61.1516,59.0245,140.985,97.2778,95.3175,,,,-4.79421,0.182096,0.0,0.0
1020,254.75,60.9918,59.3748,138.824,97.2604,94.2266,,,,-4.80422,0.283469,0.0,0.0
1023,255.5,61.3086,59.0493,138.23,97.271,95.2175,,,,-4.82424,0.190872,0.0,0.0
1026,256.25,60.4041,59.1044,142.565,97.2766,95.1823,,,,-4.82424,0.194684,0.0,0.0
1029,257,60.5065,57.9719,139.32,97.2734,94.9664,,,,-4.81423,0.214712,0.0,0.0
1032,257.75,60.4218,57.9445,137.496,97.2659,95.0606,,,,-4.81423,0.205146,0.0,0.0
1035,258.5,60.7235,58.1636,138.557,97.2651,94.8258,,,,-4.80422,0.227203,0.0,0.0
1038,259.25,60.575,58.1562,135.409,97.273,94.011,,,,-4.80422,0.305122,0.0,0.0
1041,260,60.7031,58.1064,138.463,97.2675,94.1798,,,,-4.80422,0.288563,0.0,0.0
1044,260.75,60.3348,58.0717,139.511,97.277,94.0686,,,,-4.79421,0.300011,0.0,0.0
1047,261.5,59.3967,57.3054,142.946,97.258,94.6307,,,,-4.79421,0.244971,0.0,0.0