File: 01_Data/ABS/Cone/ABS_Cone_HF75Scan_220218_R3.csv
Names,Time,Stack TC,Smoke TC,Exh Press,Smoke Comp,Smoke Meas,CO Meter,CO2 Meter,O2 Meter,Sample Mass,Ext Coeff,Start Test,Flame Verif
Chan Gain,,500,500,1,1,1,1,1,1,1,1,1.0,1.0
Offset,,0,0,0.134285,0,0,0,0,0,0,0,0.0,0.0
Gain,,1,1,25.011,13.3843,12.7012,1,1,1,1.00088,1.02252,1.0,1.0
Units,sec,C,C,Pa,%,%,%,%,%,g,/m,,
Baseline,,49.7044,49.0704,142.465,100.966,92.9976,0.000335959,0.0526484,21.0011,-867.086,0.737534,,
2,0.25,45.4054,45.7228,144.976,100.828,93.9097,0.000561257,0.0650547,20.9791,31.1172,0.6376,0.0,0.0
4,0.75,45.0746,44.781,145.098,100.834,93.5767,0.000602144,0.0652186,20.9793,31.0372,0.66993,0.0,0.0
6,1.25,45.557,45.0024,144.685,100.815,92.3383,0.000619575,0.0653051,20.9794,30.9971,0.787791,0.0,0.0
8,1.75,45.7363,44.587,141.189,100.82,94.2887,0.000649382,0.0653017,20.9795,31.0472,0.600739,0.0,0.0
10,2.25,45.5668,45.3518,143.7,100.807,93.2941,0.000678512,0.0652329,20.9797,31.0372,0.69473,0.0,0.0
12,2.75,45.4945,44.6372,142.311,100.817,93.2682,0.000702108,0.0651772,20.9798,30.9671,0.698062,0.0,0.0
14,3.25,45.4054,45.0451,142.945,100.803,93.2841,0.000719973,0.0649229,20.9798,30.9971,0.695262,0.0,0.0
16,3.75,45.4118,45.3702,141.802,100.813,94.269,0.000734444,0.0647169,20.9799,31.0272,0.601966,0.0,0.0
18,4.25,45.1549,44.7723,146.134,100.809,93.262,0.000736194,0.0645191,20.9804,30.9971,0.698005,0.0,0.0
20,4.75,45.0039,44.0056,144.556,100.809,93.243,0.000737611,0.0641807,20.9813,30.9871,0.699795,0.0,0.0
22,5.25,45.6992,45.2514,142.973,100.798,93.9926,0.000726297,0.0639067,20.982,31.0272,0.626954,0.0,0.0
24,5.75,45.7838,45.4636,147.914,100.804,93.4782,0.000717133,0.0635593,20.9825,30.9871,0.676719,0.0,0.0
26,6.25,45.4588,45.1237,143.113,100.787,92.9767,0.000706431,0.0632779,20.983,30.9971,0.723449,0.0,0.0
28,6.75,45.4151,45.3587,143.793,100.798,92.5844,0.000694813,0.0629803,20.9833,30.9971,0.762423,0.0,0.0
30,7.25,45.4126,45.1234,139.219,100.789,92.2298,0.000685402,0.0627393,20.9836,31.0071,0.795976,0.0,0.0
32,7.75,45.8622,45.2766,145.537,100.8,92.6852,0.000682369,0.0625001,20.9839,30.9871,0.752775,0.0,0.0
34,8.25,45.1754,44.379,139.862,100.781,92.729,0.000684043,0.0622667,20.9856,30.9871,0.746901,0.0,0.0
36,8.75,45.4427,44.771,142.611,100.791,91.591,0.0006854,0.0620924,20.9871,30.9771,0.858534,0.0,0.0
38,9.25,45.2452,44.8448,142.345,100.769,91.6135,0.000718002,0.0619643,20.9883,30.9671,0.854405,0.0,0.0
40,9.75,45.4538,45.5679,144.122,100.776,92.0383,0.000772763,0.0618606,20.9887,30.9671,0.813491,0.0,0.0
42,10.25,45.2535,45.4448,139.704,100.773,91.7425,0.000817119,0.061872,20.9892,30.9571,0.842105,0.0,0.0
44,10.75,45.515,44.8298,145.931,100.769,91.2813,0.00108591,0.0619669,20.9885,30.9571,0.886914,0.0,0.0
46,11.25,45.648,45.3974,141.843,100.767,91.6371,0.00130362,0.0620438,20.9872,30.9571,0.851909,0.0,0.0
48,11.75,46.2954,45.4787,143.276,100.763,91.4844,0.00193988,0.0650832,20.9831,30.9671,0.866506,0.0,0.0
50,12.25,45.633,45.0934,144.352,100.758,89.877,0.00245524,0.0675452,20.977,30.9071,1.025,0.0,0.0
52,12.75,45.4619,45.41,141.86,100.756,88.3083,0.00361701,0.0695394,20.9558,30.887,1.18282,0.0,1.0
54,13.25,45.5003,45.4321,136.948,100.745,74.3776,0.00455804,0.0840609,20.9241,30.877,2.72163,0.0,1.0
56,13.75,45.6517,45.3077,135.183,100.753,66.7103,0.00627865,0.0958233,20.8742,30.7769,3.69824,0.0,1.0
58,14.25,45.9059,45.7117,129.551,100.738,58.8833,0.00767234,0.126544,20.812,30.7769,4.8163,0.0,1.0
60,14.75,45.9479,46.022,132.696,100.745,55.2743,0.0094611,0.151427,20.7617,30.5367,5.38428,0.0,1.0
62,15.25,46.3443,46.8717,126.858,100.74,49.502,0.0115039,0.185701,20.6767,30.6568,6.37309,0.0,1.0
64,15.75,46.7109,47.1019,117.271,100.745,46.4581,0.0131585,0.226168,20.6079,30.6168,6.94275,0.0,1.0
66,16.25,47.2004,47.612,115.55,100.733,44.6906,0.0153646,0.273938,20.5521,30.4867,7.28964,0.0,1.0
68,16.75,47.7659,48.4052,115.34,100.746,45.434,0.0179309,0.326124,20.4601,30.3966,7.14275,0.0,1.0
70,17.25,48.2339,49.4631,116.179,100.736,44.9127,0.0205575,0.382055,20.3856,30.3266,7.24542,0.0,1.0
72,17.75,48.4802,49.9393,105.51,100.734,38.1373,0.0231782,0.439654,20.2855,30.2265,8.71197,0.0,1.0
74,18.25,49.4094,51.5705,117.214,100.726,39.6695,0.0258189,0.48631,20.2044,30.1264,8.35797,0.0,1.0
76,18.75,50.8186,53.1621,111.598,100.727,40.3447,0.028424,0.542716,20.0932,30.0663,8.20669,0.0,0.0
78,19.25,51.1434,53.8994,107.228,100.719,38.9997,0.0309804,0.605159,20.0031,29.8862,8.51009,0.0,0.0
80,19.75,52.3773,55.0606,101.109,100.719,38.2075,0.0334528,0.668213,19.8887,29.8061,8.69418,0.0,0.0
82,20.25,53.124,56.5661,105.403,100.715,34.0717,0.0358915,0.730516,19.796,29.696,9.7214,0.0,0.0
84,20.75,54.2025,57.6825,105.298,100.719,33.6654,0.0382592,0.780981,19.7091,29.646,9.82931,0.0,0.0
86,21.25,54.7797,59.6941,105.34,100.716,38.4059,0.040177,0.837633,19.6282,29.4558,8.64738,0.0,0.0
88,21.75,56.126,61.4314,104.389,100.706,34.0034,0.0426883,0.890506,19.5514,29.3657,9.73854,0.0,0.0
90,22.25,57.2438,62.538,111.561,100.708,32.2038,0.0447224,0.939619,19.4791,29.3057,10.2265,0.0,0.0
92,22.75,58.4861,63.8249,100.007,100.711,32.7309,0.04637,0.98731,19.4205,29.1055,10.0811,0.0,0.0
94,23.25,59.2629,65.4239,103.09,100.709,32.3945,0.0489055,1.03306,19.3603,29.0855,10.1737,0.0,0.0
96,23.75,60.3377,66.8019,109.46,100.702,33.234,0.0509592,1.07012,19.3002,28.9554,9.9435,0.0,0.0
98,24.25,61.1174,68.6702,106.54,100.711,32.8767,0.0534874,1.12102,19.2334,28.7352,10.0413,0.0,0.0
100,24.75,62.1709,70.1312,110.568,100.686,30.7246,0.0555352,1.16225,19.163,28.7252,10.6463,0.0,0.0
102,25.25,63.2962,71.5979,95.2024,100.699,30.1432,0.0577163,1.20631,19.106,28.575,10.8188,0.0,0.0
104,25.75,64.5037,73.2613,105.364,100.702,32.4859,0.0599532,1.2516,19.0366,28.3748,10.1477,0.0,0.0
106,26.25,65.4832,75.1461,103.685,100.686,29.9521,0.0625274,1.28828,18.9602,28.2748,10.8746,0.0,0.0
108,26.75,66.6766,76.9868,103.244,100.691,30.565,0.0646125,1.33842,18.8803,28.1346,10.6934,0.0,0.0
110,27.25,67.7061,78.2447,99.508,100.692,24.7826,0.0666999,1.37902,18.8024,27.9545,12.5746,0.0,0.0
112,27.75,69.1789,80.3454,91.6073,100.676,26.514,0.0687493,1.42077,18.7275,27.8744,11.9674,0.0,0.0
114,28.25,69.9987,81.8889,99.0912,100.705,28.0436,0.0708203,1.46254,18.6668,27.7543,11.4669,0.0,0.0
116,28.75,71.5107,83.8191,95.1978,100.676,27.1385,0.0728678,1.50457,18.5962,27.5842,11.7586,0.0,0.0
118,29.25,72.9423,85.7976,92.2576,100.685,25.0679,0.0752334,1.54599,18.5147,27.444,12.4713,0.0,0.0
120,29.75,74.5974,87.8307,90.0128,100.675,25.4284,0.0763595,1.58517,18.4927,27.3039,12.3423,0.0,0.0
122,30.25,75.969,89.3175,91.2402,100.685,22.9872,0.0782853,1.62198,18.4472,27.0937,13.2485,0.0,0.0
124,30.75,76.5628,91.0442,96.6388,100.672,23.9283,0.0798451,1.65725,18.4032,27.0337,12.8874,0.0,0.0
126,31.25,77.9081,92.6768,97.7189,100.683,23.088,0.0817429,1.69074,18.3675,26.9336,13.209,0.0,0.0
128,31.75,79.0225,94.6973,96.5854,100.66,25.6454,0.0838511,1.71786,18.3326,26.6834,12.2647,0.0,0.0
130,32.25,80.0017,96.5451,85.592,100.672,23.8822,0.0859483,1.76552,18.3044,26.5432,12.9047,0.0,0.0
132,32.75,81.2621,98.0807,99.8316,100.657,25.0469,0.0879977,1.77834,18.264,26.3931,12.4762,0.0,0.0
134,33.25,82.9005,99.7702,90.022,100.662,22.6507,0.0896578,1.80026,18.2313,26.273,13.3786,0.0,0.0
136,33.75,83.7857,101.703,88.7428,100.642,25.4408,0.0915919,1.82549,18.1952,26.1129,12.335,0.0,0.0
138,34.25,84.8361,103.358,99.392,100.651,23.6407,0.0931585,1.85266,18.1573,25.9427,12.994,0.0,0.0
140,34.75,86.1499,105.218,89.9472,100.632,23.9574,0.0949744,1.87466,18.1152,25.8026,12.8729,0.0,0.0
142,35.25,87.3993,107.168,93.1461,100.651,21.2077,0.0964452,1.90255,18.071,25.5724,13.9682,0.0,0.0
144,35.75,88.7232,108.933,91.1952,100.633,21.4786,0.0979141,1.92514,18.0352,25.5123,13.8527,0.0,0.0
146,36.25,89.5908,110.463,88.2047,100.644,22.9302,0.0993538,1.95305,17.9923,25.3622,13.267,0.0,0.0
148,36.75,90.814,112.115,94.978,100.627,23.2376,0.10052,1.97565,17.9576,25.112,13.1462,0.0,0.0
150,37.25,91.4683,113.92,92.9301,100.633,22.6976,0.101844,2.0037,17.9294,24.9418,13.3576,0.0,0.0
152,37.75,92.782,115.248,85.1813,100.614,22.7903,0.103258,2.02643,17.8935,24.9018,13.3193,0.0,0.0
154,38.25,94.2828,117.558,90.725,100.638,23.2225,0.104702,2.05391,17.8644,24.7617,13.1529,0.0,0.0
156,38.75,95.4156,119.038,89.8022,100.615,21.0232,0.106141,2.07616,17.8261,24.4914,14.0433,0.0,0.0
158,39.25,95.9578,120.064,93.1667,100.628,20.3565,0.107678,2.09419,17.7951,24.4314,14.3335,0.0,0.0
160,39.75,97.5118,121.757,92.1897,100.61,22.5821,0.109258,2.1199,17.7565,24.2212,13.4012,0.0,0.0
162,40.25,99.165,124.131,92.4935,100.625,20.7049,0.110869,2.14073,17.7253,24.0611,14.181,0.0,0.0
164,40.75,100.087,125.592,94.8383,100.612,20.5107,0.11247,2.16136,17.6874,23.9209,14.2644,0.0,0.0
166,41.25,101.489,127.047,87.681,100.6,19.9561,0.114091,2.18146,17.6568,23.7608,14.5092,0.0,0.0
168,41.75,102.609,129.03,93.1957,100.604,23.8957,0.115695,2.2015,17.6181,23.5406,12.8936,0.0,0.0
170,42.25,103.488,130.576,83.941,100.608,21.7697,0.116994,2.22111,17.5868,23.3304,13.7297,0.0,0.0
172,42.75,104.74,132.179,82.645,100.593,20.4836,0.118893,2.24282,17.5518,23.3104,14.2745,0.0,0.0
174,43.25,105.074,133.173,87.0078,100.602,20.5716,0.120431,2.26565,17.5147,22.9601,14.2369,0.0,0.0
176,43.75,106.21,134.71,82.5961,100.59,20.1274,0.122323,2.29034,17.4847,22.83,14.4316,0.0,0.0
178,44.25,107.857,136.967,84.618,100.597,19.084,0.124439,2.31593,17.4438,22.7599,14.9098,0.0,0.0
180,44.75,109.305,138.972,98.5943,100.589,21.8682,0.126152,2.33666,17.4107,22.4697,13.6875,0.0,0.0
182,45.25,110.687,140.63,84.2952,100.587,17.2134,0.128715,2.3671,17.3724,22.3295,15.8342,0.0,0.0
184,45.75,111.57,141.822,96.8472,100.587,18.5556,0.13079,2.39176,17.3309,22.1794,15.1607,0.0,0.0
186,46.25,112.401,143.495,95.7931,100.596,18.9173,0.133237,2.42784,17.2861,21.8591,14.9883,0.0,0.0
188,46.75,114.15,145.182,89.3511,100.58,17.9254,0.135908,2.45706,17.2395,21.7791,15.47,0.0,0.0
190,47.25,114.28,146.321,87.5971,100.593,19.5689,0.138633,2.48073,17.2019,21.5389,14.6844,0.0,0.0
192,47.75,115.729,147.652,76.5647,100.58,17.699,0.141346,2.51736,17.1409,21.4087,15.584,0.0,0.0
194,48.25,117.059,150.253,97.9746,100.59,16.1261,0.144013,2.54704,17.0916,21.2586,16.4197,0.0,0.0
196,48.75,118.468,151.858,85.2256,100.589,21.0654,0.146596,2.58355,17.0337,20.9383,14.023,0.0,0.0
198,49.25,119.99,153.597,90.1235,100.58,17.5669,0.149096,2.61312,16.9868,20.8683,15.6512,0.0,0.0
200,49.75,121.586,155.716,85.3111,100.579,18.7049,0.151487,2.64211,16.9386,20.7181,15.0881,0.0,0.0
202,50.25,122.601,157.249,87.2971,100.575,15.8032,0.153424,2.67012,16.8995,20.4779,16.5997,0.0,0.0
204,50.75,123.187,159.133,88.5199,100.584,18.7719,0.155779,2.6928,16.8678,20.2177,15.0564,0.0,0.0
206,51.25,124.756,161.007,93.5476,100.571,17.4072,0.158395,2.71829,16.8292,20.1376,15.7323,0.0,0.0
208,51.75,125.726,162.353,87.3788,100.577,17.0641,0.161277,2.73893,16.7979,19.8474,15.9114,0.0,0.0
210,52.25,127.033,164.071,84.6829,100.577,14.8656,0.164298,2.76862,16.7604,19.6272,17.1485,0.0,0.0
212,52.75,128.25,165.697,82.4465,100.578,17.0746,0.166746,2.79267,16.7189,19.447,15.906,0.0,0.0
214,53.25,128.932,167.12,83.2861,100.572,16.5831,0.170532,2.82297,16.6853,19.1868,16.1674,0.0,0.0
216,53.75,130.359,168.903,80.3421,100.57,15.2303,0.173599,2.85726,16.6438,19.0066,16.9305,0.0,0.0
218,54.25,131.678,170.776,82.7197,100.561,17.6409,0.176084,2.88503,16.5972,18.9566,15.6118,0.0,0.0
220,54.75,132.212,172.496,88.5832,100.564,15.9997,0.180913,2.9315,16.5411,18.5863,16.4879,0.0,0.0
222,55.25,134.135,174.687,78.0645,100.562,18.258,0.184825,2.96913,16.4792,18.3361,15.3035,0.0,0.0
224,55.75,135.27,176.445,79.9048,100.568,16.1532,0.189839,3.02217,16.4112,18.256,16.4027,0.0,0.0
226,56.25,136.535,178.231,90.7105,100.549,13.8136,0.193899,3.06512,16.34,18.0358,17.8044,0.0,0.0
228,56.75,137.914,180.506,80.4918,100.566,16.3091,0.19563,3.09992,16.3096,17.7355,16.3163,0.0,0.0
230,57.25,138.746,181.993,63.8676,100.545,17.3141,0.200686,3.14724,16.216,17.4353,15.7781,0.0,0.0
232,57.75,140.353,184.484,69.8731,100.552,15.8881,0.20478,3.20278,16.1401,17.2451,16.5496,0.0,0.0
234,58.25,141.443,186.527,80.7375,100.541,16.8176,0.209251,3.26331,16.0787,17.185,16.0387,0.0,0.0
236,58.75,143.124,188.56,80.8604,100.554,17.8576,0.21391,3.32633,15.9702,16.8948,15.5017,0.0,0.0
238,59.25,144.191,190.251,74.2894,100.533,17.2409,0.218357,3.401,15.8824,16.5345,15.815,0.0,0.0
240,59.75,145.684,193.266,76.364,100.539,14.7435,0.222565,3.43284,15.7808,16.5145,17.2191,0.0,0.0
242,60.25,147.044,195.349,72.7201,100.533,14.9168,0.225973,3.48727,15.6984,16.1041,17.1138,0.0,0.0
244,60.75,149.103,198.05,69.4853,100.533,15.2629,0.229925,3.5437,15.608,15.8239,16.908,0.0,0.0
246,61.25,149.789,200.097,73.1307,100.524,14.2981,0.233127,3.60051,15.5348,15.7838,17.4929,0.0,0.0
248,61.75,151.422,202.736,76.7815,100.534,15.6734,0.236806,3.65768,15.4549,15.3635,16.6701,0.0,0.0
250,62.25,152.759,204.403,77.2051,100.523,13.6911,0.239785,3.71404,15.3718,15.3134,17.8819,0.0,0.0
252,62.75,154.399,206.759,69.9303,100.533,15.1834,0.243284,3.75969,15.2891,14.873,16.9548,0.0,0.0
254,63.25,155.456,208.722,71.0867,100.52,14.0749,0.246118,3.81538,15.2083,14.7329,17.6337,0.0,0.0
256,63.75,156.621,210.948,77.2234,100.535,13.8532,0.248988,3.86048,15.1429,14.5227,17.7775,0.0,0.0
258,64.25,157.984,213.193,92.118,100.511,13.4353,0.251828,3.91652,15.063,14.3125,18.05,0.0,0.0
260,64.75,159.526,215.645,68.5144,100.521,17.7378,0.254129,3.96191,14.9983,13.8521,15.5591,0.0,0.0
262,65.25,160.833,217.521,57.9629,100.513,15.399,0.258042,4.01748,14.9327,13.692,16.8266,0.0,0.0
264,65.75,162.393,219.262,60.4176,100.519,12.757,0.261212,4.0625,14.8676,13.4418,18.5154,0.0,0.0
266,66.25,163.687,221.783,89.3351,100.511,12.4252,0.265702,4.10952,14.8001,13.3117,18.7511,0.0,0.0
268,66.75,164.947,224.495,72.7934,100.52,13.6334,0.269339,4.15712,14.732,12.8713,17.9195,0.0,0.0
270,67.25,166.078,226.116,75.3641,100.515,12.4837,0.273567,4.19568,14.6769,12.7512,18.7092,0.0,0.0
272,67.75,167.47,228.214,72.5178,100.515,14.5474,0.278146,4.25491,14.5941,12.4309,17.3371,0.0,0.0
274,68.25,168.62,229.95,77.0196,100.505,14.4524,0.282702,4.30288,14.5271,12.2007,17.3949,0.0,0.0
276,68.75,170.001,231.728,47.3389,100.516,21.3592,0.287154,4.37767,14.4141,11.8203,13.8922,0.0,0.0
278,69.25,171.567,234.005,79.5659,100.499,12.8225,0.291304,4.43824,14.3225,11.7303,18.4676,0.0,0.0
280,69.75,172.884,236.678,80.1971,100.519,13.1167,0.295155,4.50059,14.213,11.5501,18.266,0.0,0.0
282,70.25,174.643,239.505,69.1495,100.511,11.3573,0.298621,4.56304,14.1243,10.8895,19.5571,0.0,0.0
284,70.75,176.093,241.843,77.1265,100.514,11.5108,0.301741,4.6342,13.9968,10.9396,19.4369,0.0,0.0
286,71.25,177.728,244.601,57.4958,100.506,19.6646,0.304267,4.71036,13.8936,10.4892,14.6328,0.0,0.0
288,71.75,178.19,246.187,59.6391,100.514,13.8392,0.307162,4.79025,13.7852,10.1789,17.7846,0.0,0.0
290,72.25,179.961,248.593,73.5849,100.497,11.7326,0.309507,4.87134,13.6751,10.1189,19.2643,0.0,0.0
292,72.75,181.538,251.51,66.1613,100.506,18.5359,0.312466,4.955,13.586,9.74854,15.163,0.0,0.0
294,73.25,182.642,253.579,51.0973,100.514,22.5174,0.314863,5.03894,13.4743,9.29814,13.4184,0.0,0.0
296,73.75,184.092,256.302,79.4713,100.517,16.8649,0.317704,5.10694,13.3839,9.25811,16.0114,0.0,0.0
298,74.25,186.12,258.863,87.6513,100.507,14.2299,0.320816,5.20613,13.2613,9.0179,17.5343,0.0,0.0
300,74.75,187.237,261.531,55.8677,100.522,28.437,0.324105,5.28649,13.1621,8.47742,11.3256,0.0,0.0
302,75.25,188.045,263.457,56.976,100.504,25.4206,0.32746,5.37783,13.0055,8.39735,12.3298,0.0,0.0
304,75.75,189.747,266.095,57.3882,100.522,13.7791,0.330178,5.47545,12.8786,8.01702,17.8244,0.0,0.0
306,76.25,191.668,269.773,85.0554,100.507,19.6417,0.333314,5.5699,12.7759,7.90692,14.6433,0.0,0.0
308,76.75,194.046,273.368,81.6054,100.513,15.1199,0.335855,5.66025,12.692,7.50657,16.9907,0.0,0.0
310,77.25,195.662,277.007,74.7863,100.508,17.5649,0.337913,5.73545,12.6233,7.3064,15.6458,0.0,0.0
312,77.75,196.938,279.301,74.423,100.512,13.4935,0.340013,5.79817,12.5672,7.02615,18.0114,0.0,0.0
314,78.25,198.236,281.716,58.0606,100.509,13.1578,0.341714,5.84898,12.5212,6.67585,18.2371,0.0,0.0
316,78.75,200.307,284.937,85.7507,100.513,10.7376,0.343092,5.86871,12.484,6.37558,20.0606,0.0,0.0
318,79.25,201.009,286.423,66.3444,100.51,12.276,0.343956,5.88469,12.4377,6.15539,18.8594,0.0,0.0
320,79.75,202.702,287.751,60.7931,100.507,14.5218,0.344656,5.89764,12.3858,5.85513,17.3522,0.0,0.0
322,80.25,203.997,290.01,66.9497,100.517,20.296,0.344769,5.90384,12.3438,5.63493,14.3503,0.0,0.0
324,80.75,204.913,291.479,59.5231,100.516,21.6569,0.344861,5.90886,12.3097,5.09446,13.7681,0.0,0.0
326,81.25,205.927,293.562,75.1641,100.504,21.8275,0.344139,5.91292,12.2634,5.12449,13.6967,0.0,0.0
328,81.75,206.949,295.553,85.0981,100.503,15.6796,0.343554,5.95917,12.2091,4.86426,16.6638,0.0,0.0
330,82.25,208.771,298.661,47.5961,100.51,20.9945,0.342067,5.99664,12.1652,4.23371,14.0462,0.0,0.0
332,82.75,210.314,301.582,69.393,100.503,19.5948,0.340863,6.03634,12.1296,4.35381,14.6644,0.0,0.0
334,83.25,211.077,302.868,49.6135,100.509,17.4145,0.338535,6.07692,12.1007,3.78331,15.723,0.0,0.0
336,83.75,212.511,304.785,70.6821,100.511,22.6814,0.33665,6.10826,12.0773,3.79332,13.3531,0.0,0.0
338,84.25,213.937,307.757,40.7419,100.508,26.0342,0.333932,6.13228,12.0584,3.36294,12.1162,0.0,0.0
340,84.75,215.5,309.776,59.0491,100.504,17.0975,0.330658,6.13662,12.0633,3.17278,15.8874,0.0,0.0
342,85.25,216.977,311.902,51.7369,100.517,14.7609,0.328006,6.14014,12.0672,2.98261,17.2066,0.0,0.0
344,85.75,217.622,313.72,96.9983,100.501,14.2923,0.324076,6.10908,12.0704,2.7424,17.4945,0.0,0.0
346,86.25,218.682,314.783,67.21,100.514,17.8595,0.319288,6.08392,12.1224,2.41211,15.4971,0.0,0.0
348,86.75,220.347,316.928,57.2683,100.503,12.6985,0.313801,6.02458,12.1646,2.07181,18.5552,0.0,0.0
350,87.25,220.455,317.264,69.1609,100.504,12.4744,0.307909,5.94146,12.3168,2.03178,18.715,0.0,0.0
352,87.75,221.71,318.421,76.5861,100.515,12.0384,0.303135,5.87413,12.4401,1.82159,19.0351,0.0,0.0
354,88.25,222.222,318.985,77.8928,100.513,14.0524,0.294331,5.7293,12.5941,1.38121,17.6474,0.0,0.0
356,88.75,222.329,318.861,63.8363,100.5,13.0993,0.287199,5.61199,12.7676,1.35118,18.2762,0.0,0.0
358,89.25,223.157,319.417,77.3043,100.513,14.3009,0.276253,5.46969,12.9081,1.22107,17.4902,0.0,0.0
360,89.75,222.7,318.741,71.4095,100.506,15.1753,0.267387,5.31188,13.1667,0.980859,16.9573,0.0,0.0
362,90.25,223.11,318.649,78.3607,100.51,14.1307,0.254901,5.14022,13.4435,0.750657,17.5973,0.0,0.0
364,90.75,223.834,318.584,79.1843,100.513,17.5176,0.244788,4.96172,13.7284,0.620543,15.6704,0.0,0.0
366,91.25,223.686,318.306,83.2647,100.516,16.7587,0.231228,4.81714,14.0421,0.540473,16.068,0.0,0.0
368,91.75,222.747,316.747,84.9424,100.512,18.8646,0.220245,4.59211,14.3709,0.390342,15.0059,0.0,0.0
370,92.25,223.315,316.025,82.7449,100.521,23.4965,0.211348,4.40983,14.6372,0.290254,13.0373,0.0,0.0
372,92.75,222.75,315.331,89.4808,100.522,25.7419,0.196488,4.20914,14.9366,0.180158,12.2187,0.0,0.0
374,93.25,222.26,313.505,94.2879,100.532,28.6199,0.184452,3.99884,15.2544,0.140123,11.269,0.0,0.0
376,93.75,221.585,312.049,96.8106,100.516,29.8692,0.171918,3.78013,15.5118,-0.0300263,10.8844,0.0,0.0
378,94.25,221.217,310.493,105.055,100.532,35.0205,0.159261,3.55946,15.8542,-0.0600526,9.45867,0.0,0.0
380,94.75,220.034,308.116,99.4011,100.518,38.147,0.146212,3.32995,16.1315,-0.0800701,8.69043,0.0,0.0
382,95.25,218.521,305.52,108.449,100.526,38.852,0.133125,3.09837,16.4716,-0.140123,8.52693,0.0,0.0
384,95.75,217.646,302.834,115.337,100.543,43.5053,0.122524,2.91079,16.747,-0.170149,7.51378,0.0,0.0
386,96.25,216.685,300.437,117.019,100.534,49.3144,0.110451,2.70863,17.0541,-0.210184,6.3888,0.0,0.0
388,96.75,214.299,297.102,116.995,100.526,58.4814,0.100671,2.49969,17.3783,-0.220193,4.85888,0.0,0.0
390,97.25,213.469,295.064,123.897,100.535,71.1469,0.0902179,2.2884,17.7662,-0.210184,3.10124,0.0,0.0
392,97.75,211.295,291.22,128.455,100.521,82.1562,0.081751,2.07941,18.0804,-0.230202,1.80955,0.0,0.0
394,98.25,209.933,288.674,128.549,100.549,88.0323,0.0729942,1.91013,18.3742,-0.220193,1.19244,0.0,0.0
396,98.75,208.05,285.389,129.334,100.545,89.3397,0.0659012,1.71473,18.6475,-0.24021,1.05981,0.0,0.0
398,99.25,206.266,282.014,124.538,100.55,89.0552,0.0601559,1.55646,18.8688,-0.270237,1.08889,0.0,0.0
400,99.75,204.912,279.002,130.309,100.531,89.3901,0.0536812,1.39046,19.0481,-0.260228,1.05351,0.0,0.0
402,100.25,202.36,275.74,131.785,100.546,89.2956,0.0484368,1.25599,19.2224,-0.260228,1.06432,0.0,0.0
404,100.75,200.313,271.691,132.639,100.539,89.7836,0.0441888,1.12082,19.3897,-0.280245,1.01488,0.0,0.0
406,101.25,198.873,269.371,133.547,100.552,89.4642,0.039688,1.01133,19.5442,-0.280245,1.04798,0.0,0.0
408,101.75,196.833,265.849,131.51,100.554,89.5076,0.0360424,0.922646,19.6863,-0.290254,1.04377,0.0,0.0
410,102.25,195.239,263.083,126.736,100.564,89.9576,0.0328273,0.826382,19.8173,-0.280245,0.999665,0.0,0.0
412,102.75,193.344,259.957,131.646,100.55,89.7359,0.0299872,0.748407,19.9376,-0.300263,1.0206,0.0,0.0
414,103.25,191.751,256.896,128.387,100.555,89.6312,0.0275017,0.685248,20.0492,-0.280245,1.03154,0.0,0.0
416,103.75,189.732,254.639,130.899,100.557,89.6657,0.0253219,0.624431,20.1524,-0.310272,1.0282,0.0,0.0
418,104.25,188.073,251.122,131.456,100.562,90.0638,0.0233049,0.566477,20.236,-0.290254,0.988935,0.0,0.0
420,104.75,186.899,248.657,128.544,100.559,89.6188,0.0216711,0.515951,20.3198,-0.300263,1.03314,0.0,0.0
422,105.25,184.916,246.692,135.279,100.574,89.6797,0.020228,0.4718,20.3877,-0.310272,1.02837,0.0,0.0
424,105.75,183.743,243.594,132.656,100.561,89.608,0.0189514,0.433431,20.4508,-0.32028,1.03437,0.0,0.0
426,106.25,181.99,240.489,132.718,100.573,89.7626,0.0179174,0.400006,20.5019,-0.340298,1.02,0.0,0.0
428,106.75,180.812,238.386,138.784,100.562,89.5917,0.0169039,0.370987,20.5464,-0.330289,1.03608,0.0,0.0
430,107.25,179.446,236.006,128.695,100.576,89.6928,0.0160829,0.345731,20.5851,-0.330289,1.02723,0.0,0.0
432,107.75,177.903,233.443,132.326,100.57,89.6991,0.0153728,0.32328,20.6165,-0.330289,1.02606,0.0,0.0
434,108.25,176.377,231.165,129.935,100.587,89.9173,0.014757,0.303302,20.6474,-0.32028,1.0058,0.0,0.0
436,108.75,174.669,228.788,132.188,100.571,89.4851,0.0142153,0.28712,20.6723,-0.330289,1.04759,0.0,0.0
438,109.25,173.643,226.347,131.321,100.591,89.7107,0.0137378,0.271169,20.6966,-0.340298,1.02672,0.0,0.0
440,109.75,172.51,224.132,130.455,100.578,89.6184,0.0133255,0.258249,20.7163,-0.350307,1.03486,0.0,0.0
442,110.25,171.084,221.497,130.956,100.591,89.8444,0.0129684,0.246426,20.7343,-0.380333,1.0134,0.0,0.0
444,110.75,170.118,219.437,131.795,100.584,89.6142,0.0126792,0.235626,20.7508,-0.360315,1.03576,0.0,0.0
446,111.25,167.935,217.129,130.296,100.594,89.7847,0.012403,0.225843,20.7656,-0.370324,1.01965,0.0,0.0
448,111.75,166.573,214.81,132.042,100.583,89.7998,0.0121792,0.216985,20.7789,-0.390342,1.01716,0.0,0.0
450,112.25,166.186,213.46,128.728,100.6,89.6242,0.0119731,0.20981,20.7908,-0.360315,1.03624,0.0,0.0
452,112.75,164.604,211.227,129.002,100.6,89.5126,0.0118061,0.202216,20.8016,-0.360315,1.04742,0.0,0.0
454,113.25,163.763,209.343,134.144,100.592,89.8351,0.0116708,0.196066,20.8102,-0.350307,1.01444,0.0,0.0
456,113.75,162.745,207.068,129.138,100.593,89.6142,0.0115429,0.189589,20.8195,-0.32028,1.03663,0.0,0.0
458,114.25,161.008,205.383,131.554,100.598,89.987,0.0114393,0.184343,20.827,-0.32028,0.999788,0.0,0.0
460,114.75,160.046,203.828,130.183,100.595,89.9692,0.011337,0.178723,20.8341,-0.32028,1.00135,0.0,0.0
462,115.25,158.837,201.518,131.524,100.621,89.8041,0.0112542,0.17417,20.8406,-0.370324,1.02008,0.0,0.0
464,115.75,157.822,199.537,132.968,100.603,89.9867,0.0111733,0.169733,20.8469,-0.360315,1.00026,0.0,0.0
466,116.25,157.054,197.804,132.681,100.608,89.8758,0.0110954,0.165464,20.8528,-0.350307,1.01183,0.0,0.0
468,116.75,155.815,195.878,129.073,100.6,89.8029,0.0110143,0.162006,20.8585,-0.380333,1.01834,0.0,0.0
470,117.25,154.766,193.873,133.878,100.611,89.5591,0.0109326,0.157859,20.864,-0.390342,1.04367,0.0,0.0
472,117.75,153.683,192.11,129.192,100.602,89.8022,0.0108128,0.1545,20.8685,-0.390342,1.01864,0.0,0.0
474,118.25,153.053,190.658,129.848,100.609,89.658,0.0107158,0.151059,20.8734,-0.420368,1.03363,0.0,0.0
476,118.75,151.24,188.611,135.677,100.608,89.1172,0.0105973,0.147622,20.8774,-0.420368,1.08778,0.0,0.0
478,119.25,150.661,187.436,131.404,100.616,89.5897,0.0104655,0.144248,20.8825,-0.390342,1.04112,0.0,0.0
480,119.75,149.605,185.883,132.309,100.608,89.8165,0.0103588,0.140985,20.8866,-0.410359,1.01768,0.0,0.0
482,120.25,148.541,183.973,132.587,100.618,89.7211,0.0102182,0.137753,20.8899,-0.410359,1.02811,0.0,0.0
484,120.75,147.375,182.365,133.16,100.616,89.9301,0.0100555,0.134606,20.8934,-0.400351,1.00711,0.0,0.0
486,121.25,146.447,180.994,130.78,100.637,89.5254,0.00988415,0.131523,20.8963,-0.400351,1.04938,0.0,0.0
488,121.75,145.464,179.081,128.936,100.619,89.6994,0.00970964,0.128545,20.9,-0.400351,1.03039,0.0,0.0
490,122.25,144.542,177.366,132.552,100.625,89.7696,0.00963524,0.126133,20.9016,-0.410359,1.02393,0.0,0.0
492,122.75,143.764,176.122,132.341,100.626,89.7944,0.00940173,0.12352,20.9043,-0.410359,1.02149,0.0,0.0
494,123.25,142.945,175.186,131.329,100.631,89.5537,0.00921258,0.120809,20.9069,-0.430377,1.04604,0.0,0.0
496,123.75,141.934,173.24,132.251,100.633,90.4406,0.00905937,0.118068,20.9095,-0.440386,0.95783,0.0,0.0
498,124.25,141.037,172.46,132.509,100.636,89.2525,0.00884892,0.115356,20.912,-0.440386,1.07673,0.0,0.0
500,124.75,140.617,170.164,133.52,100.629,89.9359,0.00860074,0.11316,20.9144,-0.460403,1.00766,0.0,0.0
502,125.25,139.199,168.997,130.924,100.636,90.0723,0.00833807,0.111783,20.9164,-0.450394,0.994716,0.0,0.0
504,125.75,138.141,167.695,133.829,100.633,89.6646,0.00806981,0.10943,20.9186,-0.440386,1.03508,0.0,0.0
506,126.25,137.696,166.129,130.551,100.646,89.7657,0.00785252,0.107523,20.9211,-0.420368,1.02621,0.0,0.0
508,126.75,137.003,164.95,130.42,100.633,89.5835,0.00757768,0.104918,20.9236,-0.450394,1.04319,0.0,0.0
510,127.25,136.061,162.852,132.379,100.658,89.5789,0.00735505,0.102809,20.926,-0.420368,1.04595,0.0,0.0
512,127.75,134.964,162.221,131.254,100.642,89.3417,0.00710063,0.100751,20.928,-0.440386,1.06832,0.0,0.0
514,128.25,134.409,160.57,130.386,100.652,89.4347,0.00682787,0.0987698,20.931,-0.410359,1.05986,0.0,0.0
516,128.75,133.901,159.405,130.697,100.663,89.475,0.00660693,0.0971652,20.9333,-0.420368,1.0568,0.0,0.0
518,129.25,133.187,158.241,133.853,100.666,89.1517,0.00633738,0.0952457,20.9357,-0.410359,1.08952,0.0,0.0
520,129.75,131.771,157.504,135.833,100.655,89.5956,0.00611904,0.0936908,20.9381,-0.410359,1.04396,0.0,0.0
522,130.25,131.492,156.07,134.611,100.666,89.7932,0.00584926,0.09215,20.9403,-0.410359,1.02521,0.0,0.0
524,130.75,130.523,154.869,133.963,100.67,89.5987,0.00563074,0.0906487,20.9422,-0.420368,1.04503,0.0,0.0
526,131.25,129.768,153.545,133.067,100.682,89.4494,0.00539403,0.0894327,20.9441,-0.410359,1.06103,0.0,0.0
528,131.75,129.495,152.522,132.52,100.673,89.6758,0.0052023,0.087998,20.9457,-0.420368,1.03753,0.0,0.0
530,132.25,128.888,151.488,131.075,100.681,90.0615,0.00499498,0.0868359,20.9476,-0.420368,0.999763,0.0,0.0
532,132.75,128.088,150.476,132.847,100.686,90.0002,0.00482705,0.0855015,20.9495,-0.430377,1.00634,0.0,0.0
534,133.25,127.035,149.472,132.862,100.683,89.7208,0.00465302,0.0844206,20.9511,-0.450394,1.03394,0.0,0.0
536,133.75,125.971,148.531,133.73,100.696,89.5727,0.00451205,0.0832225,20.9523,-0.440386,1.04996,0.0,0.0
538,134.25,125.874,147.363,133.406,100.693,89.6316,0.00439787,0.082252,20.9533,-0.450394,1.0438,0.0,0.0
540,134.75,125.208,146.072,130.82,100.69,89.4576,0.00428259,0.0812136,20.9544,-0.430377,1.06095,0.0,0.0
542,135.25,123.801,144.979,135.192,100.691,89.6452,0.00418922,0.0803724,20.9555,-0.440386,1.04223,0.0,0.0
544,135.75,123.366,144.47,132.278,100.704,89.4324,0.00410026,0.079551,20.9563,-0.430377,1.06471,0.0,0.0
546,136.25,123.025,143.163,131.95,100.698,89.5359,0.00401623,0.0787595,20.9575,-0.440386,1.05375,0.0,0.0
548,136.75,122.199,142.409,131.816,100.719,89.5025,0.00393219,0.0781185,20.9584,-0.430377,1.05899,0.0,0.0
550,137.25,121.565,140.973,132.646,100.706,89.594,0.00384974,0.0773051,20.9596,-0.440386,1.0487,0.0,0.0
552,137.75,120.03,139.514,134.438,100.718,89.4692,0.003765,0.0766463,20.9608,-0.430377,1.06222,0.0,0.0
554,138.25,120.714,139.04,128.077,100.713,89.4304,0.00368021,0.0758748,20.962,-0.420368,1.0657,0.0,0.0
556,138.75,120.001,138.124,132.306,100.719,89.3634,0.00359293,0.0752499,20.963,-0.440386,1.07298,0.0,0.0
558,139.25,119.004,137.221,133.557,100.731,89.8909,0.0035055,0.0746185,20.9638,-0.430377,1.0212,0.0,0.0
560,139.75,119.237,136.523,131.826,100.729,90.0859,0.00341609,0.0739945,20.9646,-0.440386,1.00162,0.0,0.0
562,140.25,118.34,135.591,133.764,100.725,89.9177,0.00332695,0.0734302,20.9656,-0.450394,1.01803,0.0,0.0
564,140.75,117.416,135.209,132.465,100.734,89.6273,0.00325474,0.0729201,20.9663,-0.440386,1.04783,0.0,0.0
566,141.25,116.819,133.014,133.059,100.741,89.4184,0.00319625,0.0724113,20.9669,-0.440386,1.06942,0.0,0.0
568,141.75,115.497,132.82,135.59,100.729,89.3425,0.00310479,0.0719131,20.9674,-0.440386,1.07595,0.0,0.0
570,142.25,115.839,132.042,129.184,100.728,89.4963,0.00303071,0.0714213,20.968,-0.460403,1.06044,0.0,0.0
572,142.75,115.311,131.616,133.025,100.742,89.5715,0.00293673,0.0709436,20.9688,-0.450394,1.05418,0.0,0.0
574,143.25,114.46,130.32,134.13,100.738,90.0173,0.0028606,0.0705566,20.9693,-0.450394,1.00926,0.0,0.0
576,143.75,114.288,130.083,133.678,100.749,89.3611,0.00275369,0.0701549,20.9698,-0.430377,1.07583,0.0,0.0
578,144.25,114.079,129.118,132.043,100.754,89.5359,0.00266709,0.0697501,20.9707,-0.450394,1.05877,0.0,0.0
580,144.75,113.45,128.696,135.469,100.767,89.7777,0.00256304,0.0693488,20.9713,-0.450394,1.03574,0.0,0.0
582,145.25,111.651,127.038,131.798,100.76,89.399,0.00247876,0.0689576,20.9719,-0.480421,1.073,0.0,0.0
584,145.75,111.457,125.892,133.954,100.77,89.5766,0.00241049,0.068604,20.9728,-0.470412,1.05612,0.0,0.0
586,146.25,111.826,125.862,131.985,100.767,89.6797,0.00233763,0.0682845,20.9735,-0.470412,1.04551,0.0,0.0
588,146.75,110.971,124.742,131.266,100.772,89.7595,0.00227861,0.0679743,20.9734,-0.470412,1.03803,0.0,0.0
590,147.25,110.623,124.561,134.086,100.764,89.425,0.00224586,0.0676767,20.9728,-0.460403,1.07076,0.0,0.0
592,147.75,109.988,123.458,129.118,100.777,89.8669,0.00221933,0.0673843,20.9723,-0.480421,1.02775,0.0,0.0
594,148.25,109.432,123.045,133.875,100.783,89.6649,0.00219785,0.0671012,20.9719,-0.470412,1.0484,0.0,0.0
596,148.75,109.52,122.693,133.838,100.807,89.5905,0.00220429,0.0668718,20.9716,-0.470412,1.05799,0.0,0.0
598,149.25,107.934,120.822,139.567,100.787,89.87,0.00220952,0.0666861,20.9713,-0.480421,1.02827,0.0,0.0
600,149.75,107.773,120.308,135.982,100.809,89.927,0.00222631,0.066424,20.9711,-0.460403,1.02459,0.0,0.0
602,150.25,107.675,120.221,132.116,100.804,89.5905,0.00223991,0.0662117,20.9709,-0.480421,1.05777,0.0,0.0
604,150.75,107.369,119.186,137.348,100.824,89.3266,0.00225344,0.0659884,20.9708,-0.470412,1.08602,0.0,0.0
606,151.25,106.419,118.705,130.219,100.808,89.9398,0.0022644,0.0657612,20.9709,-0.480421,1.02324,0.0,0.0
608,151.75,106.359,118.026,134.758,100.835,89.9029,0.00226072,0.0655185,20.9712,-0.450394,1.02927,0.0,0.0
610,152.25,105.987,117.099,138.774,100.83,89.9045,0.00224643,0.0652691,20.9715,-0.470412,1.02868,0.0,0.0
612,152.75,105.346,117.071,130.531,100.849,89.901,0.00221307,0.065067,20.9717,-0.470412,1.0307,0.0,0.0
614,153.25,105.04,115.655,132.059,100.84,89.3808,0.00216642,0.0648197,20.9719,-0.470412,1.08195,0.0,0.0
616,153.75,104.662,115.118,132.796,100.857,89.5192,0.00211215,0.0646194,20.972,-0.470412,1.06964,0.0,0.0
618,154.25,104.348,114.718,136.088,100.843,90.3266,0.00205334,0.0643456,20.9721,-0.470412,0.987868,0.0,0.0
620,154.75,104.035,114.436,132.518,100.867,90.5006,0.0020057,0.0641238,20.9726,-0.480421,0.972745,0.0,0.0
622,155.25,103.986,113.518,132.301,100.863,90.1405,0.00192955,0.0639296,20.9731,-0.470412,1.00811,0.0,0.0
624,155.75,103.056,113.416,133.607,100.873,89.6149,0.00186786,0.063759,20.9734,-0.470412,1.06147,0.0,0.0
626,156.25,102.352,112.708,132.527,100.871,89.332,0.00184156,0.0635988,20.9736,-0.480421,1.08961,0.0,0.0
628,156.75,102.395,112.418,133.968,100.896,89.9692,0.00176656,0.0634492,20.9738,-0.470412,1.02815,0.0,0.0
630,157.25,101.607,111.238,134.622,100.889,89.6828,0.0017058,0.0632841,20.974,-0.460403,1.0561,0.0,0.0
632,157.75,101.324,111.025,134.435,100.91,89.4808,0.00163159,0.0631107,20.9742,-0.460403,1.07817,0.0,0.0
634,158.25,100.859,110.561,135.215,100.907,89.9948,0.00157147,0.0629703,20.9743,-0.480421,1.02651,0.0,0.0
636,158.75,100.402,109.283,133.132,100.923,89.8774,0.00150778,0.0628199,20.9745,-0.480421,1.03963,0.0,0.0
638,159.25,100.213,108.987,131.455,100.921,89.6475,0.00145619,0.0627384,20.9745,-0.480421,1.06249,0.0,0.0
640,159.75,99.814,108.804,136.377,100.925,89.6463,0.00140441,0.0625991,20.9746,-0.470412,1.06297,0.0,0.0
642,160.25,99.593,107.922,134.087,100.925,90.182,0.00136246,0.0623748,20.9747,-0.480421,1.00946,0.0,0.0
644,160.75,99.58,107.584,128.7,100.925,89.7475,0.00132599,0.0621931,20.9747,-0.480421,1.05278,0.0,0.0
646,161.25,99.4875,107.41,134.822,100.93,89.6146,0.00129645,0.062032,20.975,-0.480421,1.06652,0.0,0.0
648,161.75,98.3202,106.85,132.189,100.891,90.0859,0.00127252,0.0619015,20.9754,-0.480421,1.01602,0.0,0.0
650,162.25,98.0565,106.124,134.245,100.939,90.2037,0.00125688,0.0617401,20.9758,-0.490429,1.00857,0.0,0.0
652,162.75,97.7215,105.719,134.593,100.956,89.963,0.00124422,0.0615727,20.9761,-0.490429,1.03403,0.0,0.0
654,163.25,97.4414,105.131,132.004,100.96,90.2506,0.0012402,0.0614042,20.9763,-0.460403,1.00576,0.0,0.0
656,163.75,97.1433,104.686,138.072,100.976,89.644,0.00123695,0.0612676,20.9765,-0.470412,1.06771,0.0,0.0
658,164.25,96.4099,104.253,135.128,100.966,90.308,0.00123557,0.0611431,20.9766,-0.470412,1.00064,0.0,0.0
660,164.75,96.7025,103.474,132.483,100.972,89.7378,0.00123445,0.0610423,20.9768,-0.500438,1.05796,0.0,0.0
662,165.25,96.2808,103.431,131.46,100.977,90.1115,0.0012273,0.0609606,20.9766,-0.480421,1.02116,0.0,0.0
664,165.75,95.9251,102.254,135.27,100.973,89.7487,0.0012215,0.0608651,20.9763,-0.460403,1.05695,0.0,0.0
666,166.25,95.1088,102.233,130.601,100.985,89.3731,0.00121056,0.0607614,20.976,-0.480421,1.09565,0.0,0.0
668,166.75,95.1221,101.861,134.786,100.986,89.6304,0.0012017,0.060648,20.9758,-0.500438,1.06997,0.0,0.0
670,167.25,94.7899,101.267,134.168,100.993,90.4309,0.00118992,0.0605299,20.9757,-0.490429,0.990807,0.0,0.0
672,167.75,94.5367,100.928,132.733,100.993,89.4688,0.00117624,0.0604341,20.9755,-0.490429,1.08674,0.0,0.0
674,168.25,94.3576,100.688,136.258,100.994,89.6626,0.00116516,0.0603566,20.9759,-0.480421,1.0674,0.0,0.0
676,168.75,93.6647,100.003,133.299,101,89.9405,0.00115618,0.060266,20.9761,-0.470412,1.04019,0.0,0.0
678,169.25,93.7754,99.4557,135.344,101.012,89.5804,0.00115016,0.0601926,20.9765,-0.480421,1.0773,0.0,0.0
680,169.75,92.8548,99.1307,130.907,101.012,89.8603,0.00114528,0.0600774,20.977,-0.480421,1.04928,0.0,0.0
682,170.25,93.173,98.5461,132.525,101.019,89.782,0.00115007,0.0599841,20.9774,-0.510447,1.05775,0.0,0.0
684,170.75,92.6723,98.6981,136.673,101.023,89.387,0.00115396,0.0599086,20.9777,-0.500438,1.09759,0.0,0.0
686,171.25,92.1474,98.4863,130.808,101.048,89.4343,0.0011546,0.0598474,20.9779,-0.480421,1.0951,0.0,0.0
688,171.75,92.2112,97.6779,135.25,101.027,89.5851,0.00115512,0.0597978,20.9781,-0.490429,1.07814,0.0,0.0
690,172.25,91.8751,96.9397,133.665,101.031,89.4382,0.001147,0.0597577,20.9783,-0.510447,1.09322,0.0,0.0
692,172.75,91.6702,96.9747,133.533,101.035,89.4905,0.00113274,0.0596885,20.9784,-0.510447,1.0883,0.0,0.0
694,173.25,90.5811,96.2357,132.161,101.049,90.0231,0.00111067,0.0595996,20.9785,-0.490429,1.03635,0.0,0.0
696,173.75,90.3367,95.6323,134.087,101.055,90.1421,0.00108334,0.0594982,20.9788,-0.490429,1.02504,0.0,0.0
698,174.25,91.0005,95.7728,136.971,101.054,89.6553,0.00104807,0.0593897,20.9793,-0.490429,1.07351,0.0,0.0
700,174.75,90.4605,95.4293,131.214,101.054,90.375,0.00100768,0.0592799,20.9797,-0.510447,1.00175,0.0,0.0
702,175.25,90.4281,94.8029,133.632,101.057,90.1909,0.000974968,0.0591712,20.98,-0.500438,1.02033,0.0,0.0
704,175.75,89.4452,94.6285,134.427,101.069,90.3374,0.000926826,0.0590831,20.9803,-0.510447,1.00686,0.0,0.0
706,176.25,89.2061,93.3631,133.719,101.083,89.7874,0.000868349,0.0590257,20.9805,-0.500438,1.06283,0.0,0.0
708,176.75,88.8184,93.1619,134.075,101.063,89.9801,0.000813119,0.0589792,20.9806,-0.490429,1.04187,0.0,0.0
710,177.25,89.2736,93.3369,131.949,101.091,90.1398,0.000761303,0.0589137,20.9808,-0.480421,1.02843,0.0,0.0
712,177.75,89.0957,93.6082,134.505,101.091,90.0549,0.000719332,0.0588606,20.9809,-0.490429,1.03692,0.0,0.0
714,178.25,88.9248,92.8831,131.443,101.104,90.4351,0.000681601,0.0587759,20.981,-0.490429,1.00025,0.0,0.0
716,178.75,88.9082,92.0788,133.059,101.104,89.7103,0.000651039,0.0587073,20.981,-0.490429,1.07243,0.0,0.0
718,179.25,88.0686,92.5675,136.654,101.119,89.9072,0.000628774,0.0586517,20.9811,-0.490429,1.05414,0.0,0.0
720,179.75,87.9248,91.9729,134.933,101.11,90.1064,0.000610739,0.058551,20.9811,-0.480421,1.03345,0.0,0.0
722,180.25,87.498,91.2726,134.155,101.141,90.5952,0.000606092,0.0584695,20.9814,-0.450394,0.98768,0.0,0.0
724,180.75,86.7857,90.7286,134.621,101.128,90.2921,0.000602328,0.0583895,20.9818,-0.440386,1.01658,0.0,0.0
726,181.25,87.8683,90.6507,133.756,101.145,90.482,0.000605506,0.0583248,20.9822,-0.430377,0.999219,0.0,0.0
728,181.75,87.1478,90.3724,136.296,101.142,90.0463,0.000608081,0.0582723,20.9825,-0.430377,1.04226,0.0,0.0
730,182.25,87.1912,90.4247,135.435,101.157,89.946,0.000610166,0.0582298,20.9827,-0.420368,1.05357,0.0,0.0
732,182.75,86.6515,89.7682,136.934,101.16,89.982,0.000614347,0.0581808,20.9829,-0.440386,1.05023,0.0,0.0
734,183.25,86.1411,89.5337,136.431,101.166,89.9828,0.000617733,0.0581278,20.9831,-0.450394,1.05077,0.0,0.0
736,183.75,86.2457,89.8105,136.451,101.159,90.5987,0.000625721,0.0580923,20.9832,-0.410359,0.988892,0.0,0.0
738,184.25,85.1181,88.5103,141.89,101.166,89.5208,0.000636913,0.0580701,20.9833,-0.430377,1.0969,0.0,0.0
740,184.75,84.9794,88.0068,138.712,101.168,89.5646,0.000664672,0.0580594,20.9834,-0.440386,1.09266,0.0,0.0
742,185.25,85.8757,88.9018,134.875,101.174,90.1216,0.000687157,0.0580574,20.9834,-0.350307,1.03763,0.0,0.0
744,185.75,85.6244,89.0679,134.461,101.156,90.3216,0.00072158,0.0580557,20.9835,-0.510447,1.01615,0.0,0.0
746,186.25,85.4684,87.9767,133.955,101.186,90.0522,0.000749462,0.0580251,20.9835,-0.500438,1.04555,0.0,0.0
748,186.75,85.0723,87.8243,134.644,101.176,90.8867,0.000780777,0.057974,20.9836,-0.460403,0.961983,0.0,0.0
750,187.25,84.9875,87.5263,133.754,101.195,90.1464,0.000794127,0.0579325,20.9836,-0.430377,1.03697,0.0,0.0
752,187.75,84.0787,87.1811,138.234,101.191,90.6592,0.00081827,0.0578989,20.9836,-0.420368,0.985731,0.0,0.0
754,188.25,84.686,86.9939,133.015,101.202,90.3026,0.000839007,0.0578791,20.9836,-0.390342,1.0221,0.0,0.0
756,188.75,84.3681,86.8727,131.782,101.205,90.0235,0.000855804,0.0578696,20.9836,-0.410359,1.05015,0.0,0.0
758,189.25,84.3021,86.4657,133.503,101.209,89.818,0.000864157,0.057848,20.9836,-0.360315,1.07097,0.0,0.0
760,189.75,83.3055,86.3353,137.534,101.212,90.2371,0.000866197,0.0578305,20.9837,-0.410359,1.02947,0.0,0.0
762,190.25,83.4305,85.8066,135.996,101.224,90.5797,0.000867192,0.0578303,20.9837,-0.440386,0.996565,0.0,0.0
764,190.75,83.4037,85.5698,135.852,101.228,89.6607,0.000867408,0.0578301,20.9837,-0.480421,1.0884,0.0,0.0
766,191.25,83.3637,85.5679,132.146,101.228,90.4588,0.000867583,0.0578299,20.9837,-0.470412,1.00887,0.0,0.0
768,191.75,82.8888,85.1354,133.522,101.218,90.2626,0.000867725,0.0578436,20.9837,-0.470412,1.02747,0.0,0.0
770,192.25,82.9771,85.0196,134.414,101.231,90.5262,0.000879065,0.0578548,20.9834,-0.480421,1.00252,0.0,0.0
772,192.75,82.7236,84.4927,134.438,101.228,89.9324,0.000888251,0.0578565,20.983,-0.480421,1.06126,0.0,0.0
774,193.25,82.2013,84.3212,136.94,101.258,89.9006,0.000916906,0.0578513,20.9826,-0.480421,1.06707,0.0,0.0
776,193.75,82.1451,84.1784,132.878,101.231,90.6274,0.000940116,0.057847,20.9823,-0.450394,0.992425,0.0,0.0
778,194.25,82.1766,84.2055,137.478,101.238,90.6022,0.00096943,0.0578436,20.9821,-0.460403,0.995571,0.0,0.0
780,194.75,81.8116,83.6229,133.345,101.225,90.3638,0.00100264,0.0578965,20.9819,-0.440386,1.01808,0.0,0.0
782,195.25,81.3985,83.6707,131.095,101.238,90.2119,0.00103019,0.0579393,20.9817,-0.440386,1.03429,0.0,0.0
784,195.75,81.6217,83.1335,136.115,101.228,90.3533,0.0010531,0.0579879,20.9816,-0.460403,1.01937,0.0,0.0
786,196.25,81.27,83.0694,134.831,101.256,90.7402,0.00107166,0.0580273,20.9815,-0.470412,0.983548,0.0,0.0
788,196.75,81.1182,82.6446,132.031,101.239,90.6096,0.00107355,0.0580372,20.9814,-0.460403,0.994949,0.0,0.0
790,197.25,80.8688,82.7342,130.619,101.25,89.982,0.00106326,0.0580255,20.9813,-0.480421,1.05826,0.0,0.0
792,197.75,80.8024,82.4284,138.576,101.246,90.1615,0.00103915,0.0580379,20.9813,-0.490429,1.04003,0.0,0.0
794,198.25,80.8444,81.9157,133.715,101.249,90.789,0.00100545,0.0580678,20.9812,-0.480421,0.978071,0.0,0.0
796,198.75,80.6242,81.6939,135.292,101.251,90.1952,0.00097815,0.058092,20.9812,-0.500438,1.03711,0.0,0.0
798,199.25,80.2495,81.353,135.773,101.259,90.4386,0.000932349,0.0581255,20.9812,-0.510447,1.01362,0.0,0.0
800,199.75,80.2936,81.7228,135.512,101.256,90.4456,0.00089525,0.0581526,20.9811,-0.500438,1.01268,0.0,0.0
802,200.25,79.9611,81.7293,136.715,101.262,90.056,0.000861461,0.0581673,20.9811,-0.500438,1.05194,0.0,0.0
804,200.75,79.8637,81.218,137.682,101.257,90.3328,0.000834092,0.0581726,20.9811,-0.530464,1.02394,0.0,0.0
806,201.25,79.6115,80.8704,131.849,101.258,90.1491,0.000824387,0.0581768,20.9811,-0.520456,1.04231,0.0,0.0
808,201.75,79.3386,80.7559,135.606,101.252,90.4313,0.000816527,0.0581942,20.9811,-0.520456,1.01374,0.0,0.0
810,202.25,79.3617,80.4327,135.548,101.264,91.0216,0.000827616,0.0582083,20.9811,-0.480421,0.956426,0.0,0.0
812,202.75,79.299,80.3612,136.18,101.257,90.4374,0.000836598,0.0582058,20.9811,-0.500438,1.01356,0.0,0.0
814,203.25,79.2578,80.0001,131.823,101.262,89.9161,0.000843873,0.0582038,20.9811,-0.480421,1.06585,0.0,0.0
816,203.75,78.7335,79.7296,140.41,101.261,90.1917,0.000874719,0.0581465,20.981,-0.490429,1.03836,0.0,0.0
818,204.25,78.2508,80.0361,133.45,101.253,89.9956,0.000899703,0.0581001,20.981,-0.480421,1.0572,0.0,0.0
820,204.75,78.6996,79.9612,137.045,101.263,90.2095,0.000924539,0.0580552,20.9813,-0.490429,1.03673,0.0,0.0
822,205.25,78.2581,79.4551,135.636,101.269,90.5739,0.000948795,0.0580122,20.9817,-0.500438,1.00116,0.0,0.0
824,205.75,78.2563,79.179,130.445,101.264,91.0344,0.000959705,0.0579701,20.982,-0.480421,0.955238,0.0,0.0
826,206.25,78.3752,78.9326,135.943,101.266,89.9975,0.000968542,0.0579294,20.9823,-0.490429,1.05809,0.0,0.0
828,206.75,78.2384,78.6476,134.546,101.261,90.5157,0.000951996,0.0578964,20.9825,-0.480421,1.00619,0.0,0.0
830,207.25,77.8491,78.6852,134.508,101.26,90.7076,0.000938593,0.0578624,20.9827,-0.490429,0.987129,0.0,0.0
832,207.75,77.7031,78.592,133.287,101.267,90.2247,0.000901554,0.0578282,20.9828,-0.480421,1.03556,0.0,0.0
834,208.25,77.4064,78.5461,136.921,101.259,89.5983,0.000871553,0.0577932,20.9829,-0.490429,1.09736,0.0,0.0
836,208.75,77.5343,78.4276,132.175,101.267,90.6785,,0.0577583,,-0.480421,0.990547,0.0,0.0
838,209.25,77.5821,78.2084,133.294,101.271,91.184,,0.0577154,,-0.490429,0.941052,0.0,0.0
840,209.75,77.1506,77.7827,134.007,101.263,90.3247,,0.0576675,,-0.490429,1.02529,0.0,0.0
842,210.25,77.0445,77.5447,132.656,101.269,90.6185,,0.0576213,,-0.480421,0.996672,0.0,0.0
844,210.75,76.9317,77.9217,135.119,101.279,90.0091,,0.0575773,,-0.480421,1.05809,0.0,0.0
846,211.25,76.9814,77.2762,135.296,101.273,90.2882,,0.0575417,,-0.500438,1.02985,0.0,0.0
848,211.75,76.652,77.7006,136.335,101.291,90.9565,,,,-0.500438,0.965269,0.0,0.0
850,212.25,76.0446,76.376,137.062,101.262,90.6437,,,,-0.480421,0.993636,0.0,0.0
852,212.75,76.014,76.1562,136.141,101.278,90.2623,,,,-0.480421,1.0328,0.0,0.0
854,213.25,76.4353,76.6685,136.614,101.275,90.5375,,,,-0.490429,1.00524,0.0,0.0
856,213.75,76.1772,76.6817,136.405,101.284,90.8034,,,,-0.480421,0.979729,0.0,0.0
858,214.25,75.722,76.2822,134.908,101.288,90.0231,,,,-0.480421,1.0575,0.0,0.0
860,214.75,76.5381,75.8489,135.04,101.288,90.813,,,,-0.480421,0.979133,0.0,0.0
862,215.25,76.0258,76.0918,135.025,101.27,90.3576,,,,-0.490429,1.02267,0.0,0.0
864,215.75,75.5201,76.2665,136.613,101.299,90.4301,,,,-0.490429,1.01805,0.0,0.0
866,216.25,75.0547,75.4565,134.675,101.268,90.1859,,,,-0.490429,1.03952,0.0,0.0
868,216.75,75.2614,75.4008,135.582,101.279,90.553,,,,-0.480421,1.0041,0.0,0.0
870,217.25,75.4071,75.9218,135.835,101.272,90.5902,,,,-0.480421,0.999763,0.0,0.0
872,217.75,75.2708,75.2854,135.274,101.28,90.6002,,,,-0.490429,0.999452,0.0,0.0
874,218.25,74.909,75.1891,134.334,101.288,90.665,,,,-0.490429,0.993806,0.0,0.0
876,218.75,74.9793,75.2637,135.048,101.288,90.5018,,,,-0.500438,1.00996,0.0,0.0
878,219.25,75.2383,75.0579,135.251,101.278,90.444,,,,-0.510447,1.01475,0.0,0.0
879,219.5,75.1338,74.8302,136.759,101.278,90.6425,,,,-0.500438,0.995126,0.0,0.0