File: 01_Data/ABS/Cone/ABS_Cone_HF25Scan_220217_R1.csv
Names,Time,Stack TC,Smoke TC,Exh Press,Smoke Comp,Smoke Meas,CO Meter,CO2 Meter,O2 Meter,Sample Mass,Ext Coeff,Start Test,Flame Verif
Chan Gain,,500,500,1,1,1,1,1,1,1,1,1.0,1.0
Offset,,0,0,0.140898,0,0,0,0,0,0,0,0.0,0.0
Gain,,1,1,25.011,12.9668,12.6588,1,1,1,1.00088,1.01977,1.0,1.0
Units,sec,C,C,Pa,%,%,%,%,%,g,/m,,
Baseline,,17.9799,18.9041,160.475,97.389,101.114,-0.00444739,0.0381312,21.049,-871.195,-0.335731,,
4,0.75,16.533,16.4934,160.889,97.2069,101.049,-0.00438803,0.044986,21.0421,33.5595,-0.346748,0.0,0.0
8,1.75,16.7493,17.5629,161.853,97.1875,101.041,-0.00439963,0.0451683,21.0408,33.4394,-0.347849,0.0,0.0
12,2.75,15.9951,16.3754,160.2,97.1784,100.853,-0.00442224,0.0453828,21.0397,33.5395,-0.332015,0.0,0.0
16,3.75,16.5698,16.8663,163.814,97.1836,100.749,-0.0044435,0.045778,21.0383,33.5495,-0.322285,0.0,0.0
20,4.75,16.6583,16.9062,157.185,97.1749,100.89,-0.00446455,0.046277,21.0373,33.5194,-0.335597,0.0,0.0
24,5.75,16.0512,17.3895,163.858,97.1642,100.955,-0.00450606,0.046791,21.0366,33.5595,-0.342368,0.0,0.0
28,6.75,16.5481,17.0727,162.647,97.1547,100.972,-0.0045679,0.0472274,21.0361,33.5294,-0.344714,0.0,0.0
32,7.75,16.8178,16.8908,162.346,97.1527,100.84,-0.00463395,0.0475988,21.0354,33.5495,-0.333252,0.0,0.0
36,8.75,16.7805,17.0846,160.668,97.1583,101.013,-0.00468693,0.0480582,21.0343,33.5395,-0.348014,0.0,0.0
40,9.75,16.7636,17.4431,166.683,97.1432,100.892,-0.00470291,0.0485995,21.033,33.5094,-0.338683,0.0,0.0
44,10.75,16.6292,17.2754,157.174,97.148,100.859,-0.00467692,0.0492664,21.0322,33.5595,-0.335334,0.0,0.0
48,11.75,16.1957,17.5885,159.982,97.1345,100.925,-0.00461598,0.05004,21.0316,33.5395,-0.342464,0.0,0.0
52,12.75,16.6506,18.0095,157.684,97.1278,100.661,-0.00455945,0.0507396,21.0313,33.5495,-0.319599,0.0,0.0
56,13.75,16.3871,17.4727,157.37,97.125,100.762,-0.00453036,0.051172,21.0311,33.5294,-0.328844,0.0,0.0
60,14.75,16.7294,17.5519,158.774,97.1361,100.879,-0.00453944,0.0514343,21.0309,33.5395,-0.338174,0.0,0.0
64,15.75,16.7355,17.64,160.037,97.1092,100.879,-0.00455039,0.0517264,21.0308,33.5395,-0.340687,0.0,0.0
68,16.75,16.7758,17.3915,160.994,97.1108,100.831,-0.00457043,0.0521102,21.0303,33.5395,-0.336258,0.0,0.0
72,17.75,16.7189,17.4806,161.388,97.1171,100.669,-0.004575,0.0526261,21.0292,33.5294,-0.321338,0.0,0.0
76,18.75,16.2906,17.8033,155.932,97.0957,100.775,-0.00456972,0.0532036,21.0283,33.5294,-0.332673,0.0,0.0
80,19.75,16.8001,17.5799,159.565,97.0918,100.708,-0.00455363,0.0538557,21.0277,33.5395,-0.327137,0.0,0.0
84,20.75,16.7543,17.3396,162.826,97.0807,100.611,-0.00454153,0.0542992,21.0274,33.5495,-0.319507,0.0,0.0
88,21.75,17.1452,17.741,158.986,97.0756,100.757,-0.00452391,0.0544708,21.0272,33.5495,-0.33292,0.0,0.0
92,22.75,16.6929,17.2418,160.703,97.0676,100.79,-0.00451877,0.054247,21.0289,33.5495,-0.336667,0.0,0.0
96,23.75,16.8535,17.7412,160.886,97.0538,100.701,-0.00455397,0.053866,21.0311,33.5395,-0.33002,0.0,0.0
100,24.75,16.9499,17.3375,160.38,97.0415,100.709,-0.00460705,0.0530648,21.034,33.5395,-0.331803,0.0,0.0
104,25.75,17.0029,17.5836,162.19,97.0348,100.667,-0.00464188,0.0521596,21.0362,33.5495,-0.328751,0.0,0.0
108,26.75,16.5652,17.5899,157.307,97.0225,100.789,-0.00465053,0.0511309,21.0382,33.5395,-0.340722,0.0,0.0
112,27.75,17.0579,17.8726,161.054,97.0111,100.795,-0.00463878,0.0500375,21.0405,33.5495,-0.34226,0.0,0.0
116,28.75,16.6052,17.7131,162.23,97.0067,100.643,-0.00462036,0.0489631,21.0421,33.5495,-0.329144,0.0,0.0
120,29.75,17.0627,18.0278,162.225,96.9913,100.431,-0.00459401,0.0478271,21.0434,33.5194,-0.311765,0.0,0.0
124,30.75,17.2501,18.1513,161.82,96.9849,100.745,-0.00456594,0.0468553,21.0448,33.5294,-0.340246,0.0,0.0
128,31.75,16.8641,17.8976,164.503,96.9651,100.716,-0.00453992,0.0459493,21.0457,33.5094,-0.339463,0.0,0.0
132,32.75,16.8442,18.1372,161.991,96.9679,100.708,-0.00453467,0.0452236,21.0463,33.5294,-0.338521,0.0,0.0
136,33.75,17.0482,17.682,157.399,96.9509,100.707,-0.00453947,0.0445198,21.0467,33.5294,-0.340022,0.0,0.0
140,34.75,17.3934,17.8949,164.171,96.9303,100.711,-0.00454061,0.0438701,21.0469,33.5194,-0.342299,0.0,0.0
144,35.75,16.8775,18.1268,162.608,96.9224,100.555,-0.00453369,0.0433089,21.0471,33.5194,-0.329122,0.0,0.0
148,36.75,16.9805,17.9224,161.005,96.9078,100.561,-0.00452565,0.0428728,21.0468,33.5194,-0.330988,0.0,0.0
152,37.75,17.1128,18.0748,159.508,96.8908,100.606,-0.00451823,0.0423915,21.0462,33.5094,-0.336613,0.0,0.0
156,38.75,17.0876,17.7609,161.725,96.8729,100.459,-0.0045129,0.041994,21.0458,33.4994,-0.325127,0.0,0.0
160,39.75,17.3757,18.1704,156.585,96.8627,100.475,-0.00450772,0.0416854,21.0463,33.5194,-0.327556,0.0,0.0
164,40.75,17.2486,18.092,159.096,96.8627,100.373,-0.00449881,0.041449,21.0472,33.5294,-0.318403,0.0,0.0
168,41.75,17.211,18.3217,157.504,96.8385,100.447,-0.00449635,0.041273,21.0478,33.5294,-0.327273,0.0,0.0
172,42.75,17.3745,18.4548,161.166,96.8318,100.5,-0.00451871,0.0410859,21.0483,33.5194,-0.332642,0.0,0.0
176,43.75,16.9552,17.931,160.65,96.8061,100.253,-0.00456464,0.0409122,21.0489,33.4894,-0.312986,0.0,0.0
180,44.75,17.4543,18.2277,164.339,96.7867,100.365,-0.00463933,0.0407505,21.0492,33.4994,-0.324768,0.0,0.0
184,45.75,16.9992,18.344,162.235,96.7827,100.114,-0.0047081,0.0406696,21.0494,33.4794,-0.30269,0.0,0.0
188,46.75,17.2279,18.4191,159.217,96.7574,100.038,-0.00475321,0.0406543,21.0496,33.4894,-0.298263,0.0,0.0
192,47.75,17.2003,18.6694,166.377,96.7483,100.007,-0.00476593,0.0407072,21.0488,33.5094,-0.29634,0.0,0.0
196,48.75,17.0168,18.2858,163.818,96.7214,100.01,-0.00475622,0.0409035,21.0476,33.4994,-0.299105,0.0,0.0
200,49.75,17.417,18.4956,162.142,96.7143,99.9846,-0.00473778,0.0411774,21.0468,33.4794,-0.297484,0.0,0.0
204,50.75,16.9394,18.3876,162.517,96.6973,99.8205,-0.00472223,0.0415244,21.0463,33.4894,-0.284356,0.0,0.0
208,51.75,16.9001,18.1039,159.077,96.681,99.7629,-0.00471461,0.0418709,21.0459,33.4894,-0.280697,0.0,0.0
212,52.75,17.2772,18.6977,157.282,96.6719,99.7038,-0.0047125,0.042146,21.0457,33.4894,-0.276238,0.0,0.0
216,53.75,17.2127,18.407,165.249,96.651,99.2661,-0.00473463,0.0423027,21.0449,33.4894,-0.238822,0.0,0.0
220,54.75,17.1682,17.9129,160.944,96.6458,99.4925,-0.00474409,0.0423336,21.0441,33.4694,-0.259677,0.0,0.0
224,55.75,17.7801,18.2374,161.099,96.626,99.331,-0.00472778,0.0423906,21.0435,33.4394,-0.246977,0.0,0.0
228,56.75,17.7581,18.8684,161.747,96.6086,99.2939,-0.00467459,0.0424795,21.043,33.4594,-0.245248,0.0,0.0
232,57.75,17.1195,18.5387,161.453,96.6054,99.4639,-0.00459041,0.0426814,21.0425,33.4594,-0.260841,0.0,0.0
236,58.75,17.6347,18.3336,162.069,96.5829,99.5346,-0.00450485,0.042866,21.0416,33.4594,-0.269287,0.0,0.0
240,59.75,17.4255,18.7714,156.176,96.569,99.2599,-0.004442,0.0432283,21.041,33.4594,-0.24585,0.0,0.0
244,60.75,17.0104,17.8916,158.827,96.5686,99.1726,-0.0044038,0.0436357,21.0398,33.4594,-0.238015,0.0,0.0
248,61.75,17.8391,18.3769,163.719,96.5429,99.3097,-0.0043757,0.0441184,21.0387,33.4394,-0.252759,0.0,0.0
252,62.75,17.6061,18.3065,158.735,96.5342,98.8473,-0.00436287,0.0448206,21.0371,33.4594,-0.211816,0.0,0.0
256,63.75,16.9425,18.132,160.437,96.5188,99.0073,-0.00437311,0.0455712,21.035,33.4394,-0.227709,0.0,0.0
260,64.75,17.859,18.5486,156.428,96.501,99.0926,-0.00439759,0.0462245,21.0336,33.4294,-0.23707,0.0,0.0
264,65.75,17.5306,18.4726,161.649,96.4816,99.146,-0.00442733,0.0469887,21.0327,33.4193,-0.243679,0.0,0.0
268,66.75,17.5448,18.9953,161.131,96.4753,99.1069,-0.0044579,0.0475657,21.0322,33.4193,-0.240743,0.0,0.0
272,67.75,17.106,18.1178,157.816,96.478,98.9165,-0.00450306,0.0479268,21.0317,33.4093,-0.22328,0.0,0.0
276,68.75,17.4905,18.44,156.272,96.4392,98.9118,-0.00453723,0.048127,21.0319,33.4093,-0.226458,0.0,0.0
280,69.75,17.536,18.3474,160.327,96.4309,98.9362,-0.0045664,0.0481718,21.0328,33.3993,-0.22943,0.0,0.0
284,70.75,17.8721,18.5602,158.512,96.423,99.1042,-0.00460425,0.0481225,21.0346,33.4093,-0.245345,0.0,0.0
288,71.75,17.3927,18.1522,159.731,96.3989,98.7291,-0.00464712,0.0478505,21.0365,33.4093,-0.213662,0.0,0.0
292,72.75,17.4581,19.1774,158.048,96.3898,98.8786,-0.00468226,0.0473597,21.0382,33.4193,-0.228042,0.0,0.0
296,73.75,17.9969,18.773,159.505,96.3625,98.7214,-0.00469937,0.0468561,21.0397,33.4394,-0.21634,0.0,0.0
300,74.75,17.958,19.1258,159.453,96.3506,98.8238,-0.00468952,0.046338,21.0406,33.4494,-0.226715,0.0,0.0
304,75.75,17.6118,19.0349,157.521,96.3356,98.4564,-0.00467605,0.0459132,21.0411,33.4394,-0.194794,0.0,0.0
308,76.75,17.778,18.6832,161.515,96.3138,98.4711,-0.00464839,0.0454429,21.0416,33.4193,-0.198148,0.0,0.0
312,77.75,17.7222,18.8614,160.756,96.3091,98.7168,-0.00461096,0.0450153,21.0414,33.4193,-0.220881,0.0,0.0
316,78.75,17.4345,18.6711,161.763,96.2897,98.6202,-0.00457219,0.0446974,21.041,33.3993,-0.213926,0.0,0.0
320,79.75,17.9532,19.2439,163.294,96.2798,98.823,-0.00453727,0.044358,21.0411,33.3893,-0.233222,0.0,0.0
324,80.75,17.7966,18.8977,161.308,96.2501,98.2748,-0.00450445,0.0439979,21.0416,33.3893,-0.186222,0.0,0.0
328,81.75,17.5436,19.2962,157.742,96.2366,98.3115,-0.00445132,0.043632,21.0419,33.3793,-0.190811,0.0,0.0
332,82.75,17.8582,18.9092,158.251,96.2267,98.3432,-0.00437576,0.043324,21.0421,33.3793,-0.194614,0.0,0.0
336,83.75,18.571,19.0112,160.898,96.2172,98.1516,-0.00429731,0.0430263,21.0422,33.3793,-0.17805,0.0,0.0
340,84.75,17.9991,18.9483,156.611,96.1919,98.0233,-0.00426088,0.0426425,21.0423,33.3793,-0.168708,0.0,0.0
344,85.75,18.1027,19.0002,162.594,96.1895,98.1415,-0.0042675,0.0422646,21.0423,33.3593,-0.179711,0.0,0.0
348,86.75,17.2839,19.0232,161.072,96.1793,98.1477,-0.00435876,0.0420228,21.0436,33.3593,-0.181231,0.0,0.0
352,87.75,18.201,19.0696,161.952,96.1686,98.1589,-0.00444903,0.0418855,21.0445,33.3693,-0.183246,0.0,0.0
356,88.75,17.7747,19.1294,164.684,96.1607,98.1056,-0.00449981,0.0419474,21.045,33.3693,-0.179122,0.0,0.0
360,89.75,18.203,18.8575,159.157,96.1488,97.6544,-0.00449034,0.0420288,21.0454,33.3493,-0.13899,0.0,0.0
364,90.75,17.4934,19.1748,160.09,96.1377,97.7591,-0.0044327,0.0420683,21.0456,33.3593,-0.149605,0.0,0.0
368,91.75,17.9798,19.2219,159.928,96.1231,97.7942,-0.00436035,0.0420603,21.0458,33.3593,-0.154184,0.0,0.0
372,92.75,18.7074,19.2554,159.288,96.1195,97.6845,-0.00430297,0.0420272,21.0459,33.3793,-0.144474,0.0,0.0
376,93.75,18.4014,18.9845,156.989,96.114,97.5767,-0.00425739,0.0419377,21.0459,33.3593,-0.135114,0.0,0.0
380,94.75,18.4474,18.994,157.85,96.0997,97.6586,-0.00422612,0.0418789,21.046,33.3493,-0.143945,0.0,0.0
384,95.75,18.0769,19.0169,158.868,96.0839,97.2793,-0.00417132,0.0419121,21.046,33.3493,-0.110602,0.0,0.0
388,96.75,17.575,19.2214,159.029,96.0835,97.4697,-0.00410836,0.04191,21.046,33.3293,-0.128135,0.0,0.0
392,97.75,17.9562,19.2423,160.869,96.0768,96.8848,-0.00403445,0.0418709,21.046,33.3193,-0.0749213,0.0,0.0
396,98.75,17.9414,18.9893,163.543,96.0653,97.1298,-0.00396902,0.0418483,21.046,33.3393,-0.0985755,0.0,0.0
400,99.75,17.7957,18.9329,163.71,96.0625,97.0602,-0.00391999,0.0418094,21.046,33.3193,-0.092426,0.0,0.0
404,100.75,18.3902,19.2464,159.318,96.0554,97.1912,-0.00388523,0.0416574,21.046,33.3293,-0.105152,0.0,0.0
408,101.75,17.9537,19.2277,164.169,96.0431,97.0907,-0.00386383,0.0414427,21.046,33.3193,-0.0970446,0.0,0.0
412,102.75,18.4881,19.2457,163.907,96.0328,97.0054,-0.00385498,0.0412703,21.0467,33.3193,-0.0901335,0.0,0.0
416,103.75,17.6443,18.6314,158.17,96.0265,96.6349,-0.0038482,0.0410507,21.0473,33.3093,-0.0564945,0.0,0.0
420,104.75,18.5854,20.0832,163.847,96.0206,96.7898,-0.00383767,0.040771,21.0476,33.2992,-0.071376,0.0,0.0
424,105.75,18.0743,19.2647,159.32,96.0127,96.5626,-0.00383076,0.0405158,21.0479,33.2892,-0.0510945,0.0,0.0
428,106.75,18.4553,19.5892,156.301,96.0016,96.1226,-0.0038348,0.0402766,21.048,33.2792,-0.0112711,0.0,0.0
432,107.75,18.0607,18.9745,160.613,95.9953,96.4506,-0.00382979,0.0401009,21.0481,33.2792,-0.0423324,0.0,0.0
436,108.75,17.7287,19.3475,159.054,95.9869,96.4085,-0.0038213,0.0399409,21.0482,33.2492,-0.0392012,0.0,0.0
440,109.75,18.2852,19.6591,160.995,95.9707,96.0906,-0.00378615,0.0398039,21.0483,33.2492,-0.0111644,0.0,0.0
444,110.75,17.7762,19.5299,158.696,95.9707,95.4945,-0.00363613,0.0397331,21.0496,33.2492,0.0445006,0.0,0.0
448,111.75,17.6795,18.6999,157.161,95.9691,95.4249,-0.00330646,0.0398182,21.0499,33.2592,0.050869,0.0,0.0
452,112.75,18.0459,19.423,161.92,95.9573,95.141,-0.00269004,0.0414828,21.0433,33.2092,0.0764191,0.0,1.0
456,113.75,18.1214,19.7518,158.532,95.9581,92.6697,-0.00183483,0.0488809,21.0208,33.1391,0.311917,0.0,1.0
460,114.75,18.7912,19.9748,150.158,95.9565,73.9786,5.55228e-06,0.0634353,20.9331,33.039,2.32686,0.0,1.0
464,115.75,19.1147,20.9074,144.037,95.9513,62.498,0.00142954,0.0870317,20.8479,32.9489,3.83493,0.0,1.0
468,116.75,20.0825,21.6996,143.697,95.9418,59.1687,0.00417078,0.10912,20.7349,32.9489,4.32372,0.0,1.0
472,117.75,20.1242,23.0341,134.908,95.9414,54.0647,0.00727267,0.149188,20.6305,32.7388,5.13066,0.0,1.0
476,118.75,22.0862,24.3749,129.955,95.9367,53.2913,0.0101466,0.195846,20.4963,32.5986,5.25911,0.0,1.0
480,119.75,23.1586,26.2986,124.822,95.9319,50.7717,0.0129179,0.248999,20.3603,32.3684,5.69191,0.0,1.0
484,120.75,25.1945,29.2458,127.23,95.9422,51.3489,0.0154277,0.304785,20.2193,32.3384,5.59176,0.0,1.0
488,121.75,26.8017,31.4111,119.664,95.9296,51.4922,0.0175937,0.364103,20.0972,32.1983,5.56565,0.0,0.0
492,122.75,28.4436,33.9906,124.48,95.9292,49.5911,0.01927,0.420631,20.0075,32.0381,5.90212,0.0,0.0
496,123.75,30.2507,36.2694,122.835,95.9153,49.0457,0.0208425,0.468448,19.9344,31.878,5.99976,0.0,0.0
500,124.75,31.3622,38.365,122.687,95.9209,47.8763,0.0222161,0.512702,19.8769,31.6978,6.21615,0.0,0.0
504,125.75,33.2612,40.6836,131.113,95.9149,49.2137,0.0234343,0.551372,19.8289,31.5677,5.96913,0.0,0.0
508,126.75,34.6221,42.5985,115.544,95.9228,47.9006,0.0244285,0.588631,19.7905,31.3876,6.21178,0.0,0.0
512,127.75,36.372,44.801,123.709,95.9102,46.9344,0.0253736,0.620409,19.7572,31.2274,6.39288,0.0,0.0
516,128.75,37.498,46.8715,127.131,95.8896,47.2613,0.0261752,0.649389,19.73,31.0673,6.32889,0.0,0.0
520,129.75,39.0931,49.1675,119.686,95.8971,47.6893,0.0268653,0.676646,19.7069,30.9972,6.24894,0.0,0.0
524,130.75,40.5514,50.801,137.677,95.9019,47.6248,0.0274796,0.700801,19.6842,30.787,6.26149,0.0,0.0
528,131.75,41.7635,52.6077,127.922,95.8999,47.8485,0.0279836,0.72241,19.6649,30.6469,6.21939,0.0,0.0
532,132.75,42.99,54.6489,114.87,95.9082,43.7786,0.0284263,0.743559,19.6472,30.4167,7.01535,0.0,0.0
536,133.75,44.3292,56.274,119.627,95.8817,46.9344,0.0289331,0.764334,19.6325,30.2866,6.39022,0.0,0.0
540,134.75,46.121,58.0543,128.311,95.8702,45.004,0.0294528,0.782847,19.6203,30.1465,6.76486,0.0,0.0
544,135.75,47.1616,59.87,123.79,95.8552,46.1108,0.029899,0.798565,19.6105,29.9563,6.54612,0.0,0.0
548,136.75,48.1398,61.0906,125.457,95.8536,47.143,0.0302122,0.81531,19.604,29.8062,6.34793,0.0,0.0
552,137.75,49.8751,62.9288,126.791,95.8512,45.8226,0.0304212,0.829216,19.5966,29.616,6.60183,0.0,0.0
556,138.75,50.6674,64.6018,120.146,95.8536,43.4101,0.0305185,0.839954,19.5943,29.4959,7.08588,0.0,0.0
560,139.75,52.1743,66.1866,120.895,95.8457,42.9017,0.0305501,0.849928,19.5934,29.2957,7.19052,0.0,0.0
564,140.75,54.1007,67.5985,125.34,95.8385,42.8611,0.0305286,0.857919,19.5935,29.1756,7.19831,0.0,0.0
568,141.75,54.4591,69.0041,116.99,95.8326,41.4684,0.0304524,0.86478,19.5937,28.9955,7.49325,0.0,0.0
572,142.75,55.6621,69.4757,122.474,95.8263,47.8794,0.0303405,0.87089,19.5938,28.8553,6.20674,0.0,0.0
576,143.75,56.4374,70.9857,125.475,95.818,45.6206,0.0302041,0.876708,19.5937,28.6752,6.63826,0.0,0.0
580,144.75,56.9557,72.7807,124.456,95.8073,47.1786,0.0300075,0.882775,19.593,28.5251,6.33687,0.0,0.0
584,145.75,58.2247,73.6304,123.014,95.793,46.3125,0.0297895,0.887503,19.5926,28.3749,6.50128,0.0,0.0
588,146.75,59.0871,75.2277,125.928,95.7847,46.3534,0.0295784,0.892322,19.5923,28.1848,6.4926,0.0,0.0
592,147.75,60.1833,76.6467,122.09,95.7768,45.9493,0.0293961,0.897164,19.5921,28.0546,6.57019,0.0,0.0
596,148.75,60.9358,76.9532,124.425,95.7752,44.1541,0.0292346,0.90108,19.592,27.9145,6.92654,0.0,0.0
600,149.75,61.8783,78.2651,120.204,95.7717,46.8641,0.0290768,0.904677,19.5919,27.6943,6.39336,0.0,0.0
604,150.75,62.0454,78.8309,121.236,95.7483,47.7434,0.0289772,0.908336,19.591,27.5342,6.22491,0.0,0.0
608,151.75,63.312,80.0828,120.592,95.742,43.475,0.0289906,0.9119,19.5897,27.364,7.06209,0.0,0.0
612,152.75,64.2088,81.318,126.099,95.7349,44.3959,0.0291293,0.915462,19.5866,27.2139,6.87391,0.0,0.0
616,153.75,64.8269,82.3952,122.653,95.7175,47.7484,0.0293666,0.919097,19.5828,27.0738,6.22108,0.0,0.0
620,154.75,65.285,83.0148,123.696,95.6989,42.6421,0.0296689,0.922913,19.5803,26.8936,7.2311,0.0,0.0
624,155.75,66.4034,83.6946,117.551,95.7032,40.9461,0.0298983,0.926036,19.5775,26.7035,7.59454,0.0,0.0
628,156.75,67.071,84.9075,121.272,95.6989,39.6705,0.0302351,0.929209,19.5744,26.5233,7.87725,0.0,0.0
632,157.75,67.6016,85.7428,124.117,95.6712,45.2798,0.0305112,0.932834,19.5721,26.3832,6.69161,0.0,0.0
636,158.75,68.3205,86.7506,117.239,95.6617,39.9498,0.03087,0.936762,19.5667,26.183,7.81101,0.0,0.0
640,159.75,69.0877,87.2547,121.307,95.6446,41.2633,0.0312117,0.940595,19.5594,26.0128,7.52004,0.0,0.0
644,160.75,69.4512,87.985,120.22,95.6324,38.4254,0.0316534,0.947149,19.5435,25.8927,8.15629,0.0,0.0
648,161.75,69.8236,88.436,118.513,95.6106,38.0059,0.0321038,0.954164,19.5252,25.7326,8.25246,0.0,0.0
652,162.75,71.1648,89.6175,122.618,95.6007,44.8665,0.0325061,0.961895,19.508,25.4924,6.76705,0.0,0.0
656,163.75,71.8542,90.7989,116.319,95.5944,40.5239,0.0328584,0.970227,19.496,25.3222,7.67709,0.0,0.0
660,164.75,72.3114,91.5611,117.627,95.5706,43.9196,0.0331296,0.976934,19.4882,25.1621,6.95504,0.0,0.0
664,165.75,72.6419,91.955,124.935,95.5604,44.394,0.0333812,0.982399,19.4822,25.052,6.85798,0.0,0.0
668,166.75,73.7084,92.9927,124.515,95.554,42.0228,0.0335945,0.987618,19.4759,24.8418,7.34841,0.0,0.0
672,167.75,74.4302,93.9533,122.275,95.537,45.0442,0.0337648,0.993241,19.4678,24.6516,6.72573,0.0,0.0
676,168.75,75.211,95.0799,116.255,95.5251,41.8938,0.0339548,0.998804,19.4606,24.5115,7.37322,0.0,0.0
680,169.75,75.03,95.2383,119.023,95.5168,42.8646,0.0342008,1.00406,19.4529,24.3514,7.16751,0.0,0.0
684,170.75,76.3999,96.5846,116.801,95.499,43.7021,0.0344918,1.00967,19.4466,24.1612,6.99275,0.0,0.0
688,171.75,77.3917,97.687,112.83,95.4951,41.5828,0.0348551,1.01444,19.4422,23.961,7.43705,0.0,0.0
692,172.75,77.8704,98.2824,115.487,95.4788,39.5867,0.0352976,1.01868,19.4391,23.7809,7.87558,0.0,0.0
696,173.75,77.4678,98.1879,113.957,95.4753,40.2063,0.0357491,1.02187,19.4338,23.6308,7.73631,0.0,0.0
700,174.75,78.8872,99.173,114.821,95.4464,43.1601,0.0361727,1.02633,19.4221,23.4506,7.09945,0.0,0.0
704,175.75,79.4102,99.9963,112.092,95.444,42.5559,0.0365357,1.03175,19.4109,23.2905,7.22534,0.0,0.0
708,176.75,80.6644,101.069,116.31,95.4258,43.631,0.0368402,1.03757,19.4029,23.0703,7.00045,0.0,0.0
712,177.75,81.1515,102.146,123.79,95.4286,39.6045,0.0370685,1.04306,19.3977,22.8901,7.86686,0.0,0.0
716,178.75,81.6637,102.617,118.297,95.4076,42.4794,0.0373476,1.04789,19.3922,22.75,7.23802,0.0,0.0
720,179.75,82.2115,103.13,116.049,95.4116,40.2998,0.0374777,1.0533,19.384,22.5398,7.70956,0.0,0.0
724,180.75,82.6692,103.743,113.255,95.3898,40.7777,0.0375396,1.0603,19.3762,22.3096,7.60207,0.0,0.0
728,181.75,83.2047,104.866,116.942,95.3803,42.4416,0.0375866,1.06669,19.3648,22.1595,7.24343,0.0,0.0
732,182.75,84.1407,105.76,116.906,95.3767,43.536,0.0376507,1.0743,19.3512,21.9393,7.01535,0.0,0.0
736,183.75,84.4458,106.513,111.276,95.3641,41.0493,0.0377672,1.08099,19.3353,21.7791,7.54028,0.0,0.0
740,184.75,85.2882,107.028,121.123,95.3542,39.0659,0.0379258,1.08904,19.3196,21.5689,7.98235,0.0,0.0
744,185.75,85.7863,107.885,115.781,95.3431,42.9635,0.0381009,1.09727,19.3073,21.3788,7.13061,0.0,0.0
748,186.75,86.535,108.221,118.06,95.3407,42.2743,0.0383373,1.10552,19.2954,21.2186,7.27505,0.0,0.0
752,187.75,86.9227,109.474,114.075,95.3269,40.5691,0.0386297,1.11301,19.282,21.0485,7.64205,0.0,0.0
756,188.75,87.8414,110.075,121.639,95.319,41.4151,0.0389779,1.12128,19.2693,20.8883,7.45668,0.0,0.0
760,189.75,88.2748,110.653,108.35,95.3079,40.9674,0.0393439,1.13053,19.2522,20.6481,7.55288,0.0,0.0
764,190.75,89.1653,111.729,113.073,95.3067,37.7258,0.0397474,1.13945,19.2323,20.468,8.29015,0.0,0.0
768,191.75,89.5889,112.664,111.361,95.2988,40.7194,0.0402615,1.14909,19.214,20.2878,7.60634,0.0,0.0
772,192.75,90.4438,113.552,101.223,95.2913,40.3385,0.0407775,1.15902,19.1999,20.0776,7.68971,0.0,0.0
776,193.75,91.0779,114.453,116.814,95.2818,40.7035,0.0413547,1.16843,19.188,19.8875,7.60822,0.0,0.0
780,194.75,91.7394,114.942,110.464,95.2766,39.4828,0.04185,1.17645,19.1754,19.6673,7.88013,0.0,0.0
784,195.75,92.2444,115.522,109.071,95.2735,38.7773,0.0422802,1.18479,19.1569,19.4471,8.0411,0.0,0.0
788,196.75,93.1992,116.735,108.855,95.2648,41.1432,0.0425159,1.19431,19.1477,19.2469,7.51053,0.0,0.0
792,197.75,94.0312,117.422,117.771,95.2612,39.0138,0.0427234,1.20241,19.1358,19.0868,7.98557,0.0,0.0
796,198.75,94.0887,117.622,114.996,95.26,38.7561,0.0429592,1.21113,19.1247,18.8766,8.04474,0.0,0.0
800,199.75,94.5266,118.748,120.821,95.2489,42.2677,0.0435855,1.21915,19.1079,18.6564,7.26782,0.0,0.0
804,200.75,94.7066,118.906,103.325,95.245,38.7024,0.0444682,1.22713,19.0887,18.4462,8.05573,0.0,0.0
808,201.75,96.109,120.159,111.866,95.241,38.9438,0.0453537,1.23861,19.0715,18.186,7.99973,0.0,0.0
812,202.75,96.8707,121.272,108.552,95.2406,36.6758,0.0461098,1.24915,19.0515,17.9858,8.53645,0.0,0.0
816,203.75,97.3802,121.992,114.631,95.2379,39.8393,0.0468317,1.26206,19.0322,17.8257,7.79607,0.0,0.0
820,204.75,97.7139,122.652,107.038,95.2355,34.9474,0.0473912,1.27382,19.0097,17.5554,8.96778,0.0,0.0
824,205.75,99.1139,124.283,106.551,95.2288,36.974,0.0478334,1.28594,18.9852,17.3753,8.46288,0.0,0.0
828,206.75,99.9383,125.115,106.184,95.2303,37.6211,0.0483739,1.2999,18.9627,17.2051,8.30784,0.0,0.0
832,207.75,100.255,125.892,110.366,95.2295,36.8546,0.0491154,1.31359,18.9387,16.9449,8.49189,0.0,0.0
836,208.75,100.642,126.17,115.619,95.2224,36.274,0.0500498,1.3281,18.9122,16.6847,8.63327,0.0,0.0
840,209.75,102.025,127.628,103.07,95.2224,35.8209,0.0510638,1.34233,18.8823,16.4745,8.74572,0.0,0.0
844,210.75,102.609,128.56,105.92,95.22,35.6594,0.0519987,1.35764,18.8558,16.2643,8.78592,0.0,0.0
848,211.75,102.934,129.585,104.315,95.2185,34.6353,0.0529241,1.37096,18.835,15.984,9.04644,0.0,0.0
852,212.75,104.395,130.926,106.806,95.22,36.7751,0.0536608,1.38382,18.8185,15.8039,8.51033,0.0,0.0
856,213.75,105.076,131.23,105.877,95.2291,34.5352,0.0543075,1.39713,18.8021,15.5637,9.07332,0.0,0.0
860,214.75,105.694,132.515,106.91,95.2197,32.9826,0.0550806,1.41192,18.7795,15.3034,9.48391,0.0,0.0
864,215.75,106.233,133.684,104.96,95.2232,37.4264,0.0557489,1.42495,18.7587,15.1133,8.35358,0.0,0.0
868,216.75,107.196,134.537,106.766,95.2189,34.6468,0.0561756,1.43383,18.7444,14.8631,9.04348,0.0,0.0
872,217.75,108.069,135.654,110.282,95.209,32.5221,0.0566274,1.44705,18.7278,14.6829,9.60867,0.0,0.0
876,218.75,108.519,136.404,95.7361,95.2145,31.1897,0.057069,1.4589,18.7091,14.4127,9.9834,0.0,0.0
880,219.75,109.078,136.668,98.748,95.2212,31.2001,0.0575043,1.46849,18.689,14.1224,9.98104,0.0,0.0
884,220.75,110.054,138.064,106.556,95.2185,30.7976,0.0581466,1.48178,18.6679,13.9122,10.0969,0.0,0.0
888,221.75,110.419,139.204,96.449,95.2082,31.1881,0.0587794,1.49412,18.6469,13.702,9.98324,0.0,0.0
892,222.75,111.077,139.549,106.175,95.22,30.6091,0.0593162,1.50768,18.6277,13.4618,10.152,0.0,0.0
896,223.75,112.484,140.885,108.663,95.2149,34.067,0.0596571,1.52052,18.6117,13.1916,9.19409,0.0,0.0
900,224.75,112.887,141.648,98.7617,95.2204,34.675,0.0598719,1.53164,18.5999,12.9414,9.03635,0.0,0.0
904,225.75,113.39,142.749,103.372,95.2204,35.3975,0.0600759,1.54196,18.5899,12.6611,8.8519,0.0,0.0
908,226.75,114.234,143.374,103.356,95.2193,32.5271,0.0602628,1.5519,18.5836,12.481,9.60826,0.0,0.0
912,227.75,114.606,143.912,103.088,95.2256,33.6953,0.0606456,1.55987,18.5738,12.2307,9.29321,0.0,0.0
916,228.75,115.6,145.16,100.279,95.2307,30.7528,0.0611606,1.56997,18.5584,12.0105,10.1111,0.0,0.0
920,229.75,116.673,146.475,105.544,95.2359,31.4319,0.0617774,1.58003,18.5443,11.7403,9.9162,0.0,0.0
924,230.75,117.275,147.133,107.253,95.2442,31.4941,0.0625078,1.58932,18.5321,11.5001,9.8993,0.0,0.0
928,231.75,117.823,148.035,99.2373,95.2418,31.9152,0.0632989,1.59833,18.5225,11.3099,9.78027,0.0,0.0
932,232.75,118.259,148.91,113.475,95.2454,31.7661,0.0640449,1.60602,18.515,11.0797,9.82249,0.0,0.0
936,233.75,118.774,149.644,112.801,95.2517,29.9616,0.0646484,1.61306,18.5087,10.7294,10.3462,0.0,0.0
940,234.75,119.277,150.341,96.4253,95.2596,31.882,0.0650084,1.61915,18.5022,10.4692,9.79126,0.0,0.0
944,235.75,120.072,150.955,96.9932,95.2628,33.7378,0.0651669,1.62484,18.4972,10.259,9.28543,0.0,0.0
948,236.75,120.196,151.336,99.1594,95.2675,29.5996,0.0651587,1.63018,18.4938,10.0388,10.4565,0.0,0.0
952,237.75,121.802,152.669,102.413,95.281,32.2069,0.0650469,1.63473,18.4917,9.7886,9.70257,0.0,0.0
956,238.75,122.263,153.356,100.42,95.294,29.2407,0.0648874,1.63816,18.4946,9.52837,10.5681,0.0,0.0
960,239.75,122.434,154.032,101.587,95.2897,30.5754,0.0646996,1.63983,18.5015,9.30818,10.1684,0.0,0.0
964,240.75,122.51,154.196,116.065,95.2988,32.1161,0.0644688,1.6401,18.5073,9.05796,9.72949,0.0,0.0
968,241.75,123.46,155.146,108.402,95.3075,31.9859,0.064168,1.63938,18.5116,8.82775,9.76664,0.0,0.0
972,242.75,124.348,156.04,102.437,95.3138,31.9592,0.0637593,1.63761,18.5192,8.59755,9.77469,0.0,0.0
976,243.75,124.79,156.029,114.752,95.3273,32.4703,0.0632986,1.63437,18.5364,8.35734,9.63403,0.0,0.0
980,244.75,124.67,156.231,103.591,95.3439,31.1932,0.0628302,1.62844,18.558,8.05708,9.99455,0.0,0.0
984,245.75,125.352,157.051,106.895,95.3542,35.1112,0.0623371,1.62175,18.581,7.84689,8.93709,0.0,0.0
988,246.75,125.627,156.951,104.197,95.376,32.7477,0.0618651,1.61385,18.6024,7.6267,9.56251,0.0,0.0
992,247.75,125.704,157.065,103.454,95.4076,31.6529,0.0612264,1.60578,18.6164,7.40651,9.86965,0.0,0.0
996,248.75,126.195,157.341,109.673,95.4009,32.5897,0.0605289,1.59811,18.628,7.24636,9.60811,0.0,0.0
1000,249.75,126.264,157.523,99.7876,95.4333,35.0223,0.0596082,1.58858,18.646,6.9461,8.96718,0.0,0.0
1004,250.75,126.763,157.792,107.871,95.4428,33.1858,0.0585865,1.57987,18.6722,6.73592,9.4499,0.0,0.0
1008,251.75,126.816,157.905,108.479,95.4638,32.8721,0.0573727,1.56681,18.7134,6.44566,9.53683,0.0,0.0
1012,252.75,126.664,157.923,109.517,95.4622,32.1698,0.0567306,1.55371,18.737,6.22547,9.72987,0.0,0.0
1016,253.75,126.902,158.184,107.336,95.5026,33.6783,0.0559433,1.5402,18.7664,6.05532,9.32371,0.0,0.0
1020,254.75,127.635,157.821,108.168,95.5251,33.7869,0.0552095,1.52297,18.7937,5.89518,9.29704,0.0,0.0
1024,255.75,127.268,157.596,107.955,95.5513,35.5249,0.0545121,1.51333,18.8168,5.61493,8.85077,0.0,0.0
1028,256.75,127.358,157.773,105.131,95.5675,34.9431,0.0537644,1.50098,18.8391,5.43477,9,0.0,0.0
1032,257.75,127.219,157.497,115.761,95.5952,37.0609,0.0528794,1.48427,18.8776,5.22459,8.47623,0.0,0.0
1036,258.75,127.334,157.38,106.639,95.613,37.73,0.0519754,1.46695,18.918,4.99439,8.31784,0.0,0.0
1040,259.75,127.024,156.939,113.126,95.6348,34.4823,0.0510264,1.44876,18.9556,4.81423,9.12506,0.0,0.0
1044,260.75,126.782,156.561,112.593,95.6593,36.6321,0.0500358,1.43074,18.9882,4.63407,8.58634,0.0,0.0
1048,261.75,126.855,155.8,111.076,95.6953,40.3141,0.0491408,1.41249,19.017,4.42389,7.73295,0.0,0.0
1052,262.75,126.613,155.591,113.908,95.7254,37.4055,0.0477651,1.39284,19.0515,4.26374,8.40562,0.0,0.0
1056,263.75,126.252,154.761,116.158,95.7357,39.866,0.046336,1.37008,19.0857,4.07358,7.83672,0.0,0.0
1060,264.75,126.103,154.797,121.839,95.7883,39.4368,0.0448299,1.35303,19.129,3.91344,7.93846,0.0,0.0
1064,265.75,126.121,153.673,119.521,95.7966,44.3353,0.043405,1.32957,19.1784,3.70325,6.8919,0.0,0.0
1068,266.75,125.076,152.782,112.25,95.8326,37.7154,0.0421006,1.30271,19.2427,3.57314,8.34185,0.0,0.0
1072,267.75,125.013,152.334,112.468,95.8682,45.2234,0.0410933,1.27169,19.3007,3.36295,6.72116,0.0,0.0
1076,268.75,124.049,150.773,112.81,95.8928,45.4502,0.0398413,1.24239,19.3538,3.25286,6.67871,0.0,0.0
1080,269.75,123.75,149.947,123.638,95.9252,42.4141,0.0385375,1.21242,19.4077,3.06269,7.30018,0.0,0.0
1084,270.75,122.435,149.025,115.839,95.9585,45.3691,0.0371218,1.18079,19.452,2.90255,6.70082,0.0,0.0
1088,271.75,122.42,147.839,118.528,96.0083,46.1912,0.0357265,1.15051,19.5003,2.77243,6.54482,0.0,0.0
1092,272.75,122.039,147.204,121.15,96.0332,45.7326,0.034232,1.12159,19.5502,2.63231,6.63639,0.0,0.0
1096,273.75,121.305,145.924,119.132,96.0621,41.7319,0.0325039,1.09418,19.6076,2.46216,7.45799,0.0,0.0
1100,274.75,118.843,143.404,128.213,96.0954,44.3832,0.0307431,1.06035,19.6803,2.40211,6.9101,0.0,0.0
1104,275.75,119.331,143.428,126.121,96.131,49.6916,0.0285339,1.0214,19.7535,2.33205,5.90282,0.0,0.0
1108,276.75,118.452,141.562,129.551,96.167,50.572,0.0257731,0.977469,19.836,2.17191,5.74906,0.0,0.0
1112,277.75,116.576,138.979,131.861,96.1951,53.6521,0.0227173,0.929671,19.9539,2.11185,5.22281,0.0,0.0
1116,278.75,115.723,137.149,137.145,96.2414,60.4895,0.0196084,0.886218,20.0554,2.08183,4.15412,0.0,0.0
1120,279.75,113.655,134.993,137.325,96.2655,70.3186,0.0165125,0.828823,20.1897,2.06181,2.8095,0.0,0.0
1124,280.75,112.434,132.646,145.571,96.317,82.6066,0.0137777,0.768014,20.3286,2.04179,1.37361,0.0,0.0
1128,281.75,110.594,129.411,146.369,96.3407,93.2241,0.011361,0.702982,20.4462,2.04179,0.294166,0.0,0.0
1132,282.75,108.699,127.175,148.381,96.3724,95.0661,0.00920703,0.642917,20.5501,2.04179,0.122082,0.0,0.0
1136,283.75,106.176,124.381,149.38,96.4147,96.7686,0.00732879,0.589016,20.6401,2.03178,-0.0327697,0.0,0.0
1140,284.75,105.027,121.336,146.641,96.429,96.9644,0.00568477,0.535761,20.7133,2.04179,-0.0495353,0.0,0.0
1144,285.75,102.913,118.773,152.172,96.4634,97.1043,0.00428565,0.487987,20.7769,2.04179,-0.0592346,0.0,0.0
1148,286.75,100.708,116.493,151.661,96.4966,97.8665,0.0031431,0.44586,20.8306,2.02178,-0.126093,0.0,0.0
1152,287.75,99.2352,114.167,150.223,96.5255,97.9939,0.002417,0.408929,20.8652,2.03178,-0.13506,0.0,0.0
1156,288.75,97.0456,111.131,148.839,96.5631,98.3544,0.00169133,0.374281,20.9012,2.03178,-0.164419,0.0,0.0
1160,289.75,95.407,108.51,149.349,96.5876,97.4848,0.000945179,0.344035,20.929,2.01177,-0.0827047,0.0,0.0
1164,290.75,93.7231,106.837,154.187,96.6177,98.1245,0.000277812,0.324439,20.9506,2.03178,-0.138431,0.0,0.0
1168,291.75,92.7129,104.873,148.253,96.651,98.9045,-0.000312158,0.300491,20.9683,2.01177,-0.206178,0.0,0.0
1172,292.75,91.0245,102.588,152.31,96.6699,98.5008,-0.000812786,0.27985,20.9823,2.02178,-0.167834,0.0,0.0
1176,293.75,89.9117,100.701,151.381,96.7095,98.8489,-0.0012248,0.261088,20.9932,2.03178,-0.195726,0.0,0.0
1180,294.75,88.2208,98.5178,152.986,96.7222,98.1388,-0.00152503,0.244453,21.0012,2.03178,-0.130067,0.0,0.0
1184,295.75,86.7558,96.4258,149.767,96.7499,98.3922,-0.00179494,0.229505,21.0072,2.03178,-0.150576,0.0,0.0
1188,296.75,85.4485,94.6981,149.078,96.7815,98.658,-0.00199925,0.215985,21.0119,2.03178,-0.17178,0.0,0.0
1192,297.75,83.8392,93.0115,147.43,96.8049,99.0938,-0.00217429,0.205531,21.0156,2.03178,-0.209047,0.0,0.0
1196,298.75,82.7652,91.0542,150.456,96.8322,98.631,-0.00233051,0.196893,21.0197,2.03178,-0.164648,0.0,0.0
1200,299.75,81.1195,89.2148,151.631,96.8417,98.3892,-0.0024728,0.186885,21.0231,2.04179,-0.141811,0.0,0.0
1204,300.75,80.8062,88.1259,151.999,96.8765,98.5665,-0.00262793,0.177271,21.0261,2.03178,-0.154702,0.0,0.0
1208,301.75,79.341,86.5215,149.384,96.8991,98.6233,-0.00278354,0.168764,21.0283,2.03178,-0.157771,0.0,0.0
1212,302.75,77.5466,83.8059,149.54,96.9157,98.378,-0.00292059,0.160765,21.0301,2.02178,-0.133959,0.0,0.0
1216,303.75,77.0439,83.1888,149.031,96.9406,98.6403,-0.00304258,0.153974,21.0321,2.03178,-0.155478,0.0,0.0
1220,304.75,75.8572,81.841,151.607,96.9651,98.976,-0.00315995,0.147378,21.0338,2.03178,-0.183607,0.0,0.0
1224,305.75,74.5354,80.7311,155.314,96.9897,98.8176,-0.0032719,0.141439,21.0349,2.03178,-0.167018,0.0,0.0
1228,306.75,73.1155,78.6696,154.926,97.0221,98.8639,-0.00338111,0.136436,21.0356,2.02178,-0.168221,0.0,0.0
1232,307.75,72.623,78.206,155.199,97.0336,98.7878,-0.00349802,0.131515,21.0377,2.03178,-0.160274,0.0,0.0
1236,308.75,71.8474,76.3507,152.011,97.0558,99.3009,-0.0036117,0.12665,21.039,2.03178,-0.204566,0.0,0.0
1240,309.75,71.1827,75.4748,149.471,97.0854,98.9566,-0.00370603,0.122251,21.0399,2.03178,-0.17077,0.0,0.0
1244,310.75,69.4858,73.5053,151.346,97.1036,99.4276,-0.00378481,0.118029,21.0409,2.03178,-0.211562,0.0,0.0
1248,311.75,69.0085,73.1586,151.403,97.1199,99.2468,-0.0038461,0.114335,21.042,2.04179,-0.193786,0.0,0.0
1252,312.75,67.7885,71.3977,152.533,97.1218,98.918,-0.0038978,0.110717,21.0426,2.03178,-0.163924,0.0,0.0
1256,313.75,67.5075,70.9982,152.125,97.1448,99.3638,-0.00395133,0.107426,21.0435,2.03178,-0.202035,0.0,0.0
1260,314.75,66.9054,69.9447,152.039,97.1527,99.1583,-0.00401356,0.104088,21.0444,2.02178,-0.182785,0.0,0.0
1264,315.75,65.531,68.9302,156.681,97.1598,98.969,-0.0040303,0.101045,21.0451,2.03178,-0.165036,0.0,0.0
1268,316.75,65.0857,68.0421,153.28,97.1614,99.2854,-0.00404067,0.0982593,21.0455,2.04179,-0.193442,0.0,0.0
1272,317.75,64.1875,66.3976,149.024,97.1828,99.4538,-0.00397462,0.0958595,21.0457,2.04179,-0.206637,0.0,0.0
1276,318.75,63.3617,65.989,151.065,97.1875,99.3797,-0.00391634,0.0933575,21.0459,2.03178,-0.199526,0.0,0.0
1280,319.75,62.6683,64.8425,152.044,97.1773,99.5686,-0.00383603,0.0910052,21.0453,2.03178,-0.217461,0.0,0.0
1284,320.75,62.19,64.0797,150.868,97.1796,99.7567,-0.00376966,0.0892707,21.0458,2.04179,-0.234129,0.0,0.0
1288,321.75,60.9978,63.082,152.06,97.1844,98.969,-0.0037336,0.0871162,21.046,2.0518,-0.162778,0.0,0.0
1292,322.75,60.1726,62.2118,149.333,97.1816,99.7177,-0.00374187,0.0849885,21.0462,2.03178,-0.230448,0.0,0.0
1296,323.75,60.8261,61.4843,152.842,97.178,99.044,-0.00377249,0.0830146,21.0463,2.02178,-0.170131,0.0,0.0
1300,324.75,59.5481,60.4711,154.034,97.1788,99.3994,-0.00389406,0.0811178,21.0464,2.03178,-0.2021,0.0,0.0
1304,325.75,58.9399,60.21,152.379,97.1689,99.1344,-0.00400161,0.0793242,21.0465,2.03178,-0.17913,0.0,0.0
1308,326.75,58.1453,59.1923,152.973,97.1563,99.7416,-0.0041236,0.0781316,21.0465,2.03178,-0.234927,0.0,0.0
1312,327.75,57.7655,58.545,150.426,97.1523,99.4021,-0.00421687,0.0762005,21.0465,2.03178,-0.204785,0.0,0.0
1316,328.75,56.9607,57.5875,152.838,97.1511,99.428,-0.00425532,0.0751142,21.0465,2.04179,-0.207222,0.0,0.0
1320,329.75,56.609,56.896,152.028,97.1499,99.6451,-0.00424724,0.0736252,21.0466,2.03178,-0.226844,0.0,0.0
1324,330.75,56.2308,56.4295,155.148,97.1298,99.9464,-0.0042237,0.0722861,21.0474,2.04179,-0.255712,0.0,0.0
1328,331.75,55.3973,55.8067,151.37,97.1076,99.9136,-0.00419476,0.0710697,21.0479,2.03178,-0.254814,0.0,0.0
1332,332.75,55.452,54.9601,153.016,97.1048,99.4724,-0.00415356,0.06985,21.0482,2.03178,-0.215483,0.0,0.0
1336,333.75,54.4325,54.126,152.599,97.0922,99.5481,-0.00410972,0.0687606,21.048,2.03178,-0.223457,0.0,0.0
1340,334.75,53.6673,53.738,153.411,97.0708,99.6455,-0.00408251,0.067789,21.0475,2.04179,-0.234169,0.0,0.0
1344,335.75,53.3295,53.0287,153.338,97.0447,99.5141,-0.00408369,0.0666928,21.0472,2.0518,-0.224777,0.0,0.0
1348,336.75,53.3978,52.401,156.988,97.0372,99.6988,-0.00410393,0.0656601,21.047,2.0518,-0.242054,0.0,0.0
1352,337.75,52.3884,51.3885,157.374,97.0202,99.4299,-0.00412968,0.0647413,21.0468,2.04179,-0.219465,0.0,0.0
1356,338.75,52.2285,51.724,156.403,97.0039,99.6288,-0.00414876,0.0638491,21.0476,2.04179,-0.238842,0.0,0.0
1360,339.75,52.0633,51.3595,153.219,96.9849,99.6339,-0.00415698,0.0629746,21.0483,2.04179,-0.241045,0.0,0.0
1364,340.75,51.2193,50.9285,151.22,96.9644,99.2282,-0.00414739,0.0620603,21.0488,2.04179,-0.206451,0.0,0.0
1368,341.75,50.4268,49.3623,152.467,96.9541,99.0718,-0.00413424,0.0612498,21.0491,2.04179,-0.193284,0.0,0.0
1372,342.75,50.8685,49.3413,153.97,96.9347,99.0513,-0.00410952,0.0603787,21.0486,2.03178,-0.193225,0.0,0.0
1376,343.75,50.4083,49.1836,151.574,96.9153,99.1116,-0.0040998,0.0596877,21.0482,2.04179,-0.200455,0.0,0.0
1380,344.75,50.0046,49.2481,153.482,96.9034,99.404,-0.00410559,0.0589878,21.048,2.04179,-0.227906,0.0,0.0
1384,345.75,48.7484,47.2065,152.318,96.8856,99.4685,-0.00413808,0.0582727,21.0479,2.04179,-0.235354,0.0,0.0
1388,346.75,49.0358,47.4772,155.306,96.865,99.7304,-0.00416881,0.057582,21.0478,2.0518,-0.260778,0.0,0.0
1392,347.75,48.8434,47.2728,147.233,96.8543,99.5431,-0.00418585,0.057006,21.0477,2.0518,-0.244944,0.0,0.0
1396,348.75,47.6367,46.4874,154.462,96.8445,99.6613,-0.00419663,0.0564405,21.0477,2.02178,-0.256473,0.0,0.0
1400,349.75,47.9911,46.5439,149.645,96.8322,99.2607,-0.00421539,0.0557331,21.0473,2.01177,-0.221577,0.0,0.0
1404,350.75,47.4892,46.0874,151.155,96.8148,99.5079,-0.00424636,0.0551363,21.0471,2.01177,-0.24544,0.0,0.0
1408,351.75,47.3987,45.9657,153.706,96.812,99.5539,-0.00427883,0.0546155,21.047,2.03178,-0.249827,0.0,0.0
1412,352.75,46.8389,45.5772,155.332,96.7887,99.4666,-0.00430013,0.0540917,21.0469,2.01177,-0.244136,0.0,0.0
1416,353.75,46.9111,45.0923,151.312,96.793,99.6524,-0.00429723,0.0536089,21.0468,2.02178,-0.26043,0.0,0.0
1420,354.75,46.2139,44.75,150.024,96.8168,99.2205,-0.00426039,0.0531431,21.0468,2.00176,-0.219381,0.0,0.0
1424,355.75,46.1901,44.2962,152.091,96.8729,99.4368,-0.00419091,0.0526817,21.0474,2.03178,-0.233674,0.0,0.0
1428,356.75,46.2322,43.9439,153.165,96.9276,99.7304,-0.00411338,0.0521669,21.048,2.01177,-0.255006,0.0,0.0
1432,357.75,45.5307,43.676,151.415,96.9786,99.7729,-0.00406167,0.0516921,21.0483,2.02178,-0.254108,0.0,0.0
1436,358.75,45.5872,43.6242,154.086,97.0281,99.8355,-0.00402911,0.0512676,21.0486,2.02178,-0.255155,0.0,0.0
1440,359.75,45.1599,42.7658,154.304,97.076,99.5122,-0.00405917,0.0508931,21.0487,2.02178,-0.221722,0.0,0.0
1444,360.75,45.3242,42.2146,152.53,97.1313,99.6261,-0.00411316,0.0505794,21.0488,2.03178,-0.226857,0.0,0.0
1448,361.75,44.7019,42.347,149.892,97.1579,99.8413,-0.00417644,0.0501467,21.0483,2.03178,-0.243716,0.0,0.0
1452,362.75,44.4212,41.5012,154.391,97.2026,100.205,-0.0042264,0.0497754,21.0477,2.0518,-0.272111,0.0,0.0
1456,363.75,44.0526,41.5301,151.039,97.2485,99.7625,-0.00427216,0.0494684,21.0474,2.02178,-0.228313,0.0,0.0
1460,364.75,43.6494,41.6003,154.969,97.2793,100.289,-0.00430842,0.049158,21.0479,2.03178,-0.272564,0.0,0.0
1464,365.75,43.3903,40.9319,150.91,97.3241,100.188,-0.0043474,0.0489095,21.0484,2.03178,-0.259455,0.0,0.0
1468,366.75,43.5441,40.8809,152.265,97.3609,99.9205,-0.00437972,0.0486784,21.0487,2.0518,-0.232137,0.0,0.0
1472,367.75,42.8791,40.6279,154.273,97.3636,99.9676,-0.00440106,0.0484135,21.0489,2.06181,-0.236102,0.0,0.0
1476,368.75,43.2175,40.5267,156.642,97.3882,100.074,-0.00439806,0.0481297,21.049,2.0518,-0.243383,0.0,0.0
1480,369.75,42.8972,40.0897,154.137,97.4087,100.266,-0.00436493,0.0478722,21.0492,2.02178,-0.258605,0.0,0.0
1484,370.75,42.3863,40.1819,156.581,97.4206,100.13,-0.00433193,0.0476654,21.0495,2.07182,-0.24534,0.0,0.0
1488,371.75,42.5823,39.8009,152.772,97.4349,100.372,-0.00433089,0.0474787,21.0497,2.06181,-0.265646,0.0,0.0
1492,372.75,42.0414,39.7262,149.275,97.4368,99.9796,-0.00434076,0.047244,21.0498,2.07182,-0.230449,0.0,0.0
1496,373.75,41.8432,39.3043,154.339,97.4384,100.283,-0.00437722,0.0470033,21.0499,2.07182,-0.257431,0.0,0.0
1500,374.75,41.7024,39.2063,152.612,97.4321,100.499,-0.00441401,0.0468112,21.05,2.0518,-0.27722,0.0,0.0
1504,375.75,40.7659,38.2887,154.646,97.4266,100.121,-0.004436,0.0466271,21.0494,2.06181,-0.24407,0.0,0.0
1508,376.75,41.2819,38.8372,152.612,97.4285,100.398,-0.00443114,0.0463973,21.0488,2.07182,-0.268568,0.0,0.0
1512,377.75,40.4237,37.8967,152.789,97.4214,99.9495,-0.00439081,0.046186,21.0485,2.04179,-0.22917,0.0,0.0
1516,378.75,41.0178,38.3937,154.614,97.3961,100.033,-0.0043206,0.0460095,21.0482,2.04179,-0.238961,0.0,0.0
1520,379.75,40.9302,38.1822,156.773,97.3818,99.9707,-0.00426545,0.0458497,21.0481,2.04179,-0.234706,0.0,0.0
1524,380.75,40.7002,37.7832,156.896,97.3557,100.429,-0.00417352,0.0457618,21.048,2.03178,-0.277974,0.0,0.0
1528,381.75,39.3055,36.6836,154.716,97.3351,99.8881,-0.00408129,0.0457042,21.0476,2.04179,-0.231595,0.0,0.0
1532,382.75,40.2827,37.7255,151.771,97.2904,100.377,-0.004052,0.0455709,21.0468,2.02178,-0.279397,0.0,0.0
1536,383.75,39.6927,36.5628,156.047,97.2623,100.226,-0.00404179,0.0453916,21.046,2.0518,-0.26851,0.0,0.0
1540,384.75,39.7476,37.0058,153.821,97.2224,100.366,-0.00407171,0.0451481,21.0455,2.0518,-0.284625,0.0,0.0
1544,385.75,38.8386,36.3037,150.357,97.182,100.077,-0.00413036,0.0450365,21.0452,2.06181,-0.262548,0.0,0.0
1548,386.75,39.5902,36.9256,153.088,97.1349,99.4473,-0.00418636,0.0449495,21.045,2.09184,-0.210454,0.0,0.0
1552,387.75,39.4785,36.7734,154.073,97.0767,99.7938,-0.00424589,0.0448585,21.0449,2.06181,-0.246929,0.0,0.0
1556,388.75,39.1039,36.3934,156.793,97.0205,99.885,-0.00429339,0.0447988,21.045,2.07182,-0.260278,0.0,0.0
1560,389.75,38.7679,36.3283,150.864,96.9663,100.038,-0.0043434,0.0447597,21.0453,2.07182,-0.279001,0.0,0.0
1564,390.75,39.0496,36.112,155.762,96.9101,99.6064,-0.00440502,0.0447131,21.0455,2.07182,-0.245484,0.0,0.0
1568,391.75,38.9686,36.3906,150.982,96.8405,99.671,-0.00445978,0.0446316,21.0457,2.06181,-0.257706,0.0,0.0
1572,392.75,38.4897,35.9554,158.779,96.7673,99.5187,-0.00449528,0.0446021,21.0458,2.0518,-0.2508,0.0,0.0
1576,393.75,38.4574,35.6258,150.72,96.7095,99.9016,-0.00450642,0.0446016,21.0458,2.0518,-0.290488,0.0,0.0
1580,394.75,38.7968,35.7092,152.663,96.7447,99.9027,-0.00449659,0.0445874,21.0458,2.0518,-0.287335,0.0,0.0
1584,395.75,38.2995,35.5541,152.293,96.7439,99.4813,-0.00449228,0.0445165,21.0459,2.04179,-0.24959,0.0,0.0
1588,396.75,38.3141,34.9502,150.342,96.7677,99.8622,-0.00449588,0.0444151,21.0459,2.04179,-0.281581,0.0,0.0
1592,397.75,38.0241,35.2228,153.205,96.7938,99.8297,,0.0443094,,2.04179,-0.276258,0.0,0.0
1596,398.75,37.961,34.445,155.062,96.8092,99.8266,,0.0442231,,2.0518,-0.274556,0.0,0.0
1600,399.75,37.4894,35.2577,149.634,96.8318,99.9097,,0.0441456,,2.04179,-0.279912,0.0,0.0
1604,400.75,37.8995,34.4012,154.383,96.8599,99.7984,,,,2.0518,-0.26735,0.0,0.0
1608,401.75,37.3557,34.6021,150.693,96.8797,99.9178,,,,2.0518,-0.276216,0.0,0.0
1612,402.75,37.4403,34.5403,154.286,96.9101,99.8344,,,,2.06181,-0.265929,0.0,0.0
1616,403.75,37.2003,34.5465,156.378,96.9343,99.9263,,,,2.0518,-0.271936,0.0,0.0
1620,404.75,36.9595,34.2752,151.187,96.9715,99.7231,,,,2.08183,-0.250295,0.0,0.0
1624,405.75,36.6756,34.2717,155.368,96.9972,100.102,,,,2.08183,-0.281853,0.0,0.0
1628,406.75,36.776,34.1451,154.599,97.0293,100.045,,,,2.0518,-0.273752,0.0,0.0
1632,407.75,36.7145,33.9234,153.66,97.0522,100.094,,,,2.04179,-0.276091,0.0,0.0