File: 01_Data/ABS/Cone/ABS_Cone_HF25Scan_220217_R3.csv
Names,Time,Stack TC,Smoke TC,Exh Press,Smoke Comp,Smoke Meas,CO Meter,CO2 Meter,O2 Meter,Sample Mass,Ext Coeff,Start Test,Flame Verif
Chan Gain,,500,500,1,1,1,1,1,1,1,1,1.0,1.0
Offset,,0,0,0.140898,0,0,0,0,0,0,0,0.0,0.0
Gain,,1,1,25.011,12.9668,12.6588,1,1,1,1.00088,1.01977,1.0,1.0
Units,sec,C,C,Pa,%,%,%,%,%,g,/m,,
Baseline,,24.8273,23.9501,156.402,96.0764,99.5525,-0.00462198,0.0379709,21.0452,-871.198,-0.317924,,
4,0.75,21.9265,21.5964,155.464,97.4214,101.034,-0.00466616,0.0403407,21.0413,33.4994,-0.325699,0.0,0.0
8,1.75,22.2824,21.5055,154.246,97.4511,101.181,-0.00462072,0.0404848,21.0408,33.3293,-0.33603,0.0,0.0
12,2.75,22.5014,21.1854,155.6,97.44,101.012,-0.00457571,0.0407656,21.0404,33.5094,-0.322041,0.0,0.0
16,3.75,22.5685,21.1571,157.39,97.455,101.2,-0.00454884,0.0410564,21.0402,33.3993,-0.337307,0.0,0.0
20,4.75,22.421,21.57,159.363,97.4515,101.081,-0.00453303,0.0413285,21.0401,33.4594,-0.32711,0.0,0.0
24,5.75,22.0768,21.8633,157.248,97.4634,101.122,-0.00456979,0.0415749,21.0397,33.4794,-0.329609,0.0,0.0
28,6.75,22.3485,21.97,157.732,97.4638,101.078,-0.00461924,0.0417366,21.0394,33.4193,-0.325676,0.0,0.0
32,7.75,21.9998,21.6742,154.117,97.4689,100.979,-0.00466319,0.0417898,21.0392,33.4594,-0.316447,0.0,0.0
36,8.75,22.2444,21.8538,152.201,97.4756,101.003,-0.00471933,0.0417026,21.0395,33.4394,-0.318019,0.0,0.0
40,9.75,22.1391,21.603,155.677,97.4827,101.202,-0.00476467,0.0415465,21.0401,33.4494,-0.334901,0.0,0.0
44,10.75,22.4032,21.7885,157.985,97.4918,100.774,-0.00480961,0.0413989,21.0404,33.4294,-0.296185,0.0,0.0
48,11.75,22.1056,21.5331,155.805,97.4843,101.297,-0.00483695,0.0410951,21.0407,33.4294,-0.343152,0.0,0.0
52,12.75,22.8102,21.9353,156.337,97.5002,100.974,-0.00481847,0.0407523,21.0414,33.4294,-0.313203,0.0,0.0
56,13.75,22.5858,22.3194,153.686,97.4926,101.1,-0.00475278,0.0404482,21.0421,33.4294,-0.325008,0.0,0.0
60,14.75,22.3943,22.1385,156.009,97.5057,101.2,-0.00466041,0.0401359,21.0426,33.4294,-0.332693,0.0,0.0
64,15.75,22.5182,21.5582,161.295,97.5025,101.093,-0.00456338,0.0397776,21.0429,33.4294,-0.32345,0.0,0.0
68,16.75,22.4252,22.4116,158.997,97.5049,101.248,-0.00448789,0.0394509,21.0431,33.4193,-0.33693,0.0,0.0
72,17.75,21.6478,21.781,156.01,97.5116,101.262,-0.0044269,0.0391932,21.0432,33.4294,-0.33761,0.0,0.0
76,18.75,22.5147,22.053,156.118,97.5128,101.221,-0.00438419,0.038961,21.0433,33.4394,-0.333883,0.0,0.0
80,19.75,22.2481,21.9347,162.433,97.5089,101.181,-0.00436073,0.0387071,21.0433,33.4193,-0.330661,0.0,0.0
84,20.75,22.342,21.9453,154.043,97.5152,101.156,-0.00436676,0.0385216,21.0434,33.4193,-0.327928,0.0,0.0
88,21.75,22.3955,21.7945,157.609,97.5136,101.139,-0.00439857,0.0383949,21.0434,33.4193,-0.326569,0.0,0.0
92,22.75,22.5581,21.9072,154.181,97.5089,101.147,-0.0044397,0.0382458,21.0434,33.4294,-0.327723,0.0,0.0
96,23.75,22.1123,22.1698,156.117,97.5097,101.061,-0.00447569,0.0380945,21.0434,33.4294,-0.319959,0.0,0.0
100,24.75,22.2202,22.087,152.637,97.4974,101.091,-0.00449389,0.0379883,21.0434,33.4193,-0.32382,0.0,0.0
104,25.75,22.717,21.7466,154.513,97.5029,101.129,-0.00449538,0.0379017,21.0434,33.4193,-0.326662,0.0,0.0
108,26.75,22.4084,21.4665,156.856,97.5021,101.124,-0.00448662,0.0377972,21.0434,33.4193,-0.326221,0.0,0.0
112,27.75,21.9692,21.9192,154.732,97.4851,101.3,-0.00447935,0.0377473,21.0434,33.4193,-0.343353,0.0,0.0
116,28.75,22.1189,22.0507,154.943,97.4954,101.253,-0.00447458,0.0377197,21.0437,33.4193,-0.33828,0.0,0.0
120,29.75,22.6488,21.9071,158.006,97.48,101.139,-0.00447501,0.0377204,21.0444,33.4093,-0.329588,0.0,0.0
124,30.75,22.2629,21.6391,156.12,97.4974,101.038,-0.00448813,0.037726,21.0449,33.4193,-0.319102,0.0,0.0
128,31.75,21.8951,22.1479,153.789,97.4697,101.017,-0.00452105,0.0377535,21.0452,33.4193,-0.319762,0.0,0.0
132,32.75,22.6686,22.1994,158.301,97.4883,101.005,-0.00456407,0.0378193,21.0454,33.4093,-0.31696,0.0,0.0
136,33.75,22.1289,22.0077,158.583,97.4641,101.103,-0.0046073,0.0378436,21.0455,33.4093,-0.32793,0.0,0.0
140,34.75,22.5345,22.0365,160.344,97.4641,101.144,-0.00465066,0.0377754,21.0456,33.3993,-0.331485,0.0,0.0
144,35.75,22.1551,22.255,162.229,97.461,101.049,-0.00469261,0.0376929,21.0456,33.3993,-0.323434,0.0,0.0
148,36.75,22.8199,21.2164,160.5,97.4523,100.849,-0.00473727,0.0376997,21.0461,33.3993,-0.306467,0.0,0.0
152,37.75,22.3646,21.6786,155.723,97.4527,100.933,-0.00477731,0.037723,21.0468,33.3993,-0.313898,0.0,0.0
156,38.75,22.2793,22.6214,159.918,97.4404,101.014,-0.00481681,0.0377416,21.0472,33.3893,-0.322176,0.0,0.0
160,39.75,22.614,21.9963,156.117,97.4333,101.142,-0.00486781,0.0377876,21.0475,33.3893,-0.334215,0.0,0.0
164,40.75,22.4328,22.1648,157.946,97.4337,101.019,-0.00491425,0.0377939,21.0469,33.3893,-0.323272,0.0,0.0
168,41.75,22.1721,21.9404,157.161,97.4222,100.946,-0.00492314,0.0377264,21.0465,33.3893,-0.317858,0.0,0.0
172,42.75,22.2801,22.0424,155.456,97.4206,101.046,-0.00489859,0.0376445,21.0463,33.3993,-0.326832,0.0,0.0
176,43.75,22.4645,22.1951,159.359,97.4178,100.809,-0.00485034,0.0375806,21.0461,33.3793,-0.306097,0.0,0.0
180,44.75,22.6576,22.1505,155.539,97.4182,101.018,-0.00480349,0.0375387,21.046,33.3693,-0.324587,0.0,0.0
184,45.75,22.4784,21.888,155.98,97.4119,100.748,-0.00475178,0.037498,21.0459,33.3793,-0.301224,0.0,0.0
188,46.75,22.3097,22.1961,154.075,97.3973,100.743,-0.00469319,0.0374537,21.0459,33.3693,-0.302089,0.0,0.0
192,47.75,22.4014,21.7639,161.401,97.3969,100.891,-0.00461359,0.0374216,21.0461,33.3793,-0.315287,0.0,0.0
196,48.75,22.6067,21.6256,156.105,97.3969,100.863,-0.00452348,0.0374344,21.0468,33.3793,-0.312787,0.0,0.0
200,49.75,21.8012,21.9526,152.251,97.3826,100.788,-0.00444686,0.0374427,21.0472,33.3893,-0.30748,0.0,0.0
204,50.75,22.4945,21.7587,162.619,97.3712,100.57,-0.00438899,0.0374721,21.0475,33.3893,-0.289141,0.0,0.0
208,51.75,21.9612,21.5266,158.055,97.368,100.621,-0.00436523,0.0374436,21.0477,33.3893,-0.294001,0.0,0.0
212,52.75,21.97,22.1926,156.129,97.368,100.429,-0.00437174,0.0373873,21.0478,33.3893,-0.276916,0.0,0.0
216,53.75,22.4045,21.8004,154.777,97.3597,100.386,-0.00441305,0.0373403,21.0471,33.3693,-0.273859,0.0,0.0
220,54.75,22.742,22.0154,156.097,97.3624,100.123,-0.00447747,0.0373094,21.0467,33.3793,-0.250062,0.0,0.0
224,55.75,21.8978,21.6358,155.84,97.3387,100.393,-0.00455776,0.0372139,21.0464,33.3693,-0.276405,0.0,0.0
228,56.75,22.2188,21.7586,160.654,97.3359,100.212,-0.00465507,0.0371705,21.0461,33.3693,-0.260468,0.0,0.0
232,57.75,22.104,22.2963,156.55,97.3312,100.398,-0.00474627,0.0371742,21.046,33.3693,-0.27751,0.0,0.0
236,58.75,22.3485,21.4809,157.421,97.3324,99.9255,-0.00481793,0.0371201,21.0459,33.3693,-0.235205,0.0,0.0
240,59.75,21.9774,21.7063,154.786,97.3245,99.7509,-0.00485273,0.0370694,21.0459,33.3593,-0.220288,0.0,0.0
244,60.75,22.3277,21.9416,155.896,97.3229,99.7733,-0.00484298,0.037023,21.0458,33.3393,-0.222442,0.0,0.0
248,61.75,22.002,22.046,155.508,97.3059,100.073,-0.00480171,0.0369888,21.0458,33.3493,-0.250878,0.0,0.0
252,62.75,21.5304,22.1286,156.561,97.294,99.9421,-0.0047421,0.0369833,21.0462,33.3493,-0.24022,0.0,0.0
256,63.75,22.4941,21.6886,161.624,97.2952,100.043,-0.00471136,0.0369797,21.0467,33.3593,-0.249097,0.0,0.0
260,64.75,21.9932,21.7691,156.719,97.2908,99.9476,-0.00468037,0.0369773,21.0472,33.3593,-0.240995,0.0,0.0
264,65.75,22.2425,21.7049,156.829,97.2782,99.8827,-0.00468788,0.0369332,21.0475,33.3493,-0.23635,0.0,0.0
268,66.75,21.9141,22.1049,156.775,97.2738,99.7563,-0.00473352,0.0368875,21.0477,33.3493,-0.225429,0.0,0.0
272,67.75,22.2289,22.5044,150.305,97.2623,99.7911,-0.00478035,0.0368264,21.0478,33.3593,-0.229602,0.0,0.0
276,68.75,22.4305,22.2852,155.168,97.2596,99.6671,-0.0048199,0.0368076,21.0479,33.3493,-0.218734,0.0,0.0
280,69.75,22.1114,22.1887,155.43,97.252,99.6354,-0.00482871,0.0368236,21.0474,33.3393,-0.216581,0.0,0.0
284,70.75,22.3158,21.9418,156.397,97.2449,99.8657,-0.00481254,0.0368719,21.0467,33.3293,-0.237884,0.0,0.0
288,71.75,22.1628,22.0371,153.015,97.2501,99.7092,-0.00477827,0.0369682,21.0464,33.3393,-0.223386,0.0,0.0
292,72.75,22.2004,22.5621,156.834,97.2402,99.506,-0.00473019,0.0370722,21.0462,33.3493,-0.206047,0.0,0.0
296,73.75,21.8144,21.9431,160.155,97.2263,99.6312,-0.0046713,0.0371574,21.0461,33.3393,-0.218567,0.0,0.0
300,74.75,21.9986,22.3181,152.383,97.2196,99.6532,-0.00458768,0.0371417,21.046,33.3393,-0.221162,0.0,0.0
304,75.75,22.5615,22.0316,151.326,97.2125,99.5017,-0.00448573,0.0371501,21.0459,33.3193,-0.208213,0.0,0.0
308,76.75,22.0827,22.2402,154.616,97.2065,99.4573,-0.00442709,0.0371469,21.0461,33.3193,-0.204765,0.0,0.0
312,77.75,22.3207,22.3268,160.09,97.199,99.5921,-0.00442524,0.0371109,21.0468,33.3193,-0.217574,0.0,0.0
316,78.75,22.08,22.0725,155.621,97.1931,99.6632,-0.00445197,0.0370873,21.0472,33.3193,-0.224503,0.0,0.0
320,79.75,22.0662,22.4507,156.754,97.1915,99.3376,-0.00451661,0.0370479,21.0475,33.3093,-0.195371,0.0,0.0
324,80.75,22.2599,22.4158,158.842,97.1875,99.241,-0.00459972,0.0369982,21.0477,33.3093,-0.187034,0.0,0.0
328,81.75,21.5652,21.9422,160.039,97.1808,99.5609,-0.00466711,0.0369656,21.0478,33.3093,-0.216439,0.0,0.0
332,82.75,22.3115,21.9436,155.941,97.182,99.4971,-0.00469847,0.0369574,21.0479,33.2992,-0.210601,0.0,0.0
336,83.75,21.7508,22.193,154.908,97.1784,99.37,-0.00469442,0.0369495,21.048,33.2992,-0.199495,0.0,0.0
340,84.75,22.0721,22.3824,156.776,97.1737,99.331,-0.00466704,0.0369336,21.048,33.2992,-0.196418,0.0,0.0
344,85.75,21.816,21.9129,155.804,97.1598,98.9006,-0.00464272,0.0369302,21.048,33.2892,-0.158853,0.0,0.0
348,86.75,22.3307,22.7545,156.77,97.1662,99.064,-0.00458773,0.0369278,21.0481,33.2892,-0.173039,0.0,0.0
352,87.75,22.3473,21.9446,157.419,97.163,99.1892,-0.00452684,0.0368956,21.0478,33.2892,-0.184625,0.0,0.0
356,88.75,21.9256,22.0907,161.122,97.1769,99.4573,-0.00446714,0.0368733,21.0476,33.2892,-0.207496,0.0,0.0
360,89.75,21.7675,21.4314,156.407,97.1848,99.3546,-0.00440682,0.0368848,21.0475,33.2992,-0.197521,0.0,0.0
364,90.75,22.0303,22.5163,159.024,97.2113,98.908,-0.00437204,0.0369401,21.047,33.2892,-0.154782,0.0,0.0
368,91.75,22.2337,22.4623,157.97,97.2414,99.0494,-0.0043483,0.0370241,21.0462,33.2592,-0.164794,0.0,0.0
372,92.75,21.4512,22.1491,156.172,97.2528,98.8408,-0.00433189,0.0370874,21.0458,33.2592,-0.144879,0.0,0.0
376,93.75,22.6374,22.3619,158.063,97.2687,98.9474,-0.00430791,0.0371325,21.0455,33.2692,-0.153066,0.0,0.0
380,94.75,22.1382,22.3047,158.351,97.2968,98.8114,-0.00427913,0.0372195,21.0453,33.2692,-0.138181,0.0,0.0
384,95.75,22.6654,22.782,156.234,97.3118,98.7816,-0.00426177,0.0372527,21.0451,33.2492,-0.134105,0.0,0.0
388,96.75,22.2214,22.2638,160.662,97.3288,98.9084,-0.00427613,0.0372933,21.0451,33.2492,-0.144009,0.0,0.0
392,97.75,22.2931,22.1977,159.084,97.3514,98.7979,-0.00430212,0.0373249,21.045,33.2492,-0.131938,0.0,0.0
396,98.75,22.2733,22.6215,154.534,97.3775,98.816,-0.00433072,0.0373333,21.0448,33.2392,-0.131182,0.0,0.0
400,99.75,21.9002,22.881,155.378,97.3822,98.7589,-0.00434493,0.0373287,21.0447,33.2292,-0.125569,0.0,0.0
404,100.75,22.2794,22.4534,159.475,97.4087,98.5317,-0.00433497,0.0373973,21.0446,33.2292,-0.102534,0.0,0.0
408,101.75,22.3321,22.6454,157.487,97.4151,98.9327,-0.00430143,0.0374423,21.0445,33.2292,-0.138285,0.0,0.0
412,102.75,22.1389,22.5128,156.68,97.4242,98.4815,-0.00424851,0.037485,21.0445,33.2292,-0.0965568,0.0,0.0
416,103.75,22.3675,22.5642,156.73,97.4357,98.5047,-0.004199,0.0375793,21.044,33.1992,-0.0976084,0.0,0.0
420,104.75,22.0032,22.4362,156.213,97.4463,98.3907,-0.00416255,0.0377767,21.0429,33.2092,-0.0862727,0.0,0.0
424,105.75,22.2198,22.397,156.556,97.4649,98.2821,-0.00410948,0.0380733,21.0416,33.2092,-0.0746906,0.0,0.0
428,106.75,22.234,22.2098,157.013,97.4776,98.0504,-0.00407596,0.0383874,21.0405,33.2092,-0.0524068,0.0,0.0
432,107.75,22.2219,22.4852,155.562,97.4883,98.3501,-0.00377651,0.0403095,21.0363,33.1591,-0.0787347,0.0,0.0
436,108.75,22.3711,22.4195,152.966,97.5164,97.8456,-0.00310096,0.0439488,21.0247,33.1691,-0.0301495,0.0,1.0
440,109.75,22.4338,22.8303,149.395,97.5085,83.5051,-0.00193668,0.0537888,20.9791,33.069,1.38681,0.0,1.0
444,110.75,22.5381,23.2492,144.344,97.5239,72.0605,-0.000111423,0.0740342,20.8833,33.009,2.70678,0.0,1.0
448,111.75,23.4453,24.3644,137.707,97.5354,67.9049,0.00205517,0.110579,20.775,32.8989,3.23917,0.0,1.0
452,112.75,23.7591,25.0309,131.209,97.5508,62.2623,0.00452289,0.157845,20.6503,32.8188,4.01661,0.0,1.0
456,113.75,25.3087,26.8558,135.275,97.567,60.0511,0.0068451,0.213558,20.5449,32.6787,4.34157,0.0,1.0
460,114.75,26.4975,28.5094,129.339,97.5947,55.7081,0.00965812,0.275245,20.4285,32.5086,5.01564,0.0,1.0
464,115.75,28.0741,31.2076,121.332,97.5896,54.9806,0.0123616,0.334902,20.3057,32.3784,5.13274,0.0,1.0
468,116.75,29.7867,32.9046,122.377,97.6133,54.903,0.0146759,0.400903,20.1992,32.2483,5.14756,0.0,0.0
472,117.75,31.3551,34.4295,122.406,97.622,52.9857,0.0168358,0.462615,20.0934,32.0882,5.46633,0.0,0.0
476,118.75,32.0218,37.6398,121.082,97.6244,50.2965,0.0186559,0.517395,19.9991,31.9681,5.93247,0.0,0.0
480,119.75,34.4067,39.6517,123.848,97.6367,54.2779,0.0201735,0.569757,19.9327,31.7879,5.25213,0.0,0.0
484,120.75,35.1147,41.7619,120.543,97.6588,50.4032,0.0211692,0.614629,19.8715,31.6478,5.91668,0.0,0.0
488,121.75,37.3732,44.321,129.79,97.6624,53.4898,0.0222945,0.654778,19.831,31.4676,5.38532,0.0,0.0
492,122.75,38.7572,46.4721,128.082,97.6687,50.4549,0.0232675,0.687358,19.7994,31.3876,5.9084,0.0,0.0
496,123.75,40.5641,47.8936,120.735,97.6838,50.2568,0.0241566,0.716354,19.7681,31.1774,5.94499,0.0,0.0
500,124.75,41.2941,49.3439,121.512,97.6889,50.3997,0.0249251,0.743995,19.7387,31.0273,5.92005,0.0,0.0
504,125.75,42.6068,52.6907,127.083,97.7036,51.1283,0.0256666,0.769878,19.7077,30.8771,5.793,0.0,0.0
508,126.75,44.3303,53.9499,122.152,97.7162,50.1942,0.0264001,0.791224,19.6819,30.727,5.9591,0.0,0.0
512,127.75,45.1262,56.0857,115.335,97.7186,46.3302,0.0269197,0.811764,19.6576,30.5869,6.67588,0.0,0.0
516,128.75,46.5526,57.1975,126.173,97.7467,47.719,0.0275114,0.830879,19.6352,30.4467,6.41424,0.0,0.0
520,129.75,48.5288,59.6227,118.712,97.7526,49.2284,0.0279436,0.847249,19.6217,30.2466,6.13623,0.0,0.0
524,130.75,49.9235,61.2665,116.27,97.7522,47.9798,0.0285015,0.861955,19.6061,30.0964,6.366,0.0,0.0
528,131.75,50.3817,63.3482,121.221,97.7673,48.3561,0.0289987,0.874521,19.59375,29.8963,6.2975,0.0,0.0
532,132.75,51.9402,64.8217,122.838,97.7712,47.2512,0.0294166,0.882832,19.5853,29.7762,6.50462,0.0,0.0
536,133.75,53.4019,66.2816,118.018,97.8116,48.0857,0.0297104,0.892586,19.5771,29.596,6.35172,0.0,0.0
540,134.75,54.599,67.5672,125.475,97.7803,51.1457,0.0298632,0.902188,19.5693,29.4158,5.79699,0.0,0.0
544,135.75,55.5845,68.5895,114.107,97.7926,49.3157,0.0298816,0.910481,19.5637,29.2657,6.12404,0.0,0.0
548,136.75,56.5753,70.6396,121.507,97.8049,48.3059,0.0298406,0.917806,19.56,29.1456,6.31023,0.0,0.0
552,137.75,58.0761,71.6951,123.235,97.8112,48.973,0.0297726,0.923444,19.5567,28.9454,6.18811,0.0,0.0
556,138.75,58.8321,72.8712,116.094,97.8132,50.8667,0.0297263,0.927636,19.5546,28.8153,5.84891,0.0,0.0
560,139.75,59.5984,74.5708,123.685,97.8333,49.9044,0.029728,0.931341,19.5532,28.6151,6.0216,0.0,0.0
564,140.75,60.6456,76.1404,115.15,97.8326,50.8266,0.029749,0.935179,19.5523,28.455,5.85775,0.0,0.0
568,141.75,61.7623,77.161,115.007,97.8306,51.7966,0.0297198,0.938525,19.5517,28.3349,5.68845,0.0,0.0
572,142.75,62.5658,78.3416,117.847,97.8405,46.1116,0.0296765,0.940832,19.5514,28.1647,6.72935,0.0,0.0
576,143.75,63.6827,79.3853,114.253,97.8413,47.2798,0.0296261,0.94226,19.5511,28.0346,6.50562,0.0,0.0
580,144.75,64.2673,80.3039,119.627,97.8436,48.7602,0.0296554,0.943583,19.5532,27.8545,6.23004,0.0,0.0
584,145.75,65.0279,81.3752,119.643,97.8432,48.6296,0.0297695,0.94559,19.5543,27.6943,6.25399,0.0,0.0
588,146.75,66.1072,82.5263,123.29,97.8468,46.9182,0.029916,0.94823,19.5515,27.5642,6.5748,0.0,0.0
592,147.75,67.4479,83.1996,120.686,97.8575,46.5605,0.0301158,0.951874,19.5472,27.4041,6.64424,0.0,0.0
596,148.75,67.6684,84.4554,115.532,97.8599,49.4119,0.0302637,0.955742,19.5422,27.1839,6.11276,0.0,0.0
600,149.75,68.1852,85.8877,119.827,97.8626,47.2833,0.0304776,0.959762,19.5369,27.0438,6.50691,0.0,0.0
604,150.75,69.1248,86.3439,118.692,97.8666,47.0615,0.0307349,0.963969,19.5311,26.8736,6.54932,0.0,0.0
608,151.75,69.7234,87.7694,112.969,97.8614,45.3594,0.0310358,0.968372,19.5236,26.6934,6.87838,0.0,0.0
612,152.75,70.4099,88.5882,115.086,97.869,47.663,0.0314199,0.973133,19.5031,26.5233,6.43593,0.0,0.0
616,153.75,72.3013,89.123,123.387,97.8761,48.0999,0.0316651,0.981766,19.4868,26.3732,6.35496,0.0,0.0
620,154.75,73.2185,90.1591,120.778,97.8674,47.6951,0.0318412,0.990261,19.4783,26.193,6.42977,0.0,0.0
624,155.75,72.4707,91.1422,117.889,97.8828,48.9413,0.0320774,0.998595,19.47,26.0429,6.20045,0.0,0.0
628,156.75,74.0463,92.4156,111.606,97.8753,44.3442,0.0323584,1.00347,19.4634,25.8827,7.08214,0.0,0.0
632,157.75,75.062,93.0293,111.219,97.8789,44.1495,0.0326647,1.00611,19.4584,25.6725,7.12183,0.0,0.0
636,158.75,75.7278,93.7582,116.711,97.88,42.6482,0.0329566,1.0105,19.4534,25.5524,7.4314,0.0,0.0
640,159.75,75.7583,95.1266,114.632,97.8832,45.8999,0.0332847,1.01534,19.4453,25.3222,6.77442,0.0,0.0
644,160.75,76.9339,95.8674,110.086,97.8717,44.2148,0.033664,1.01972,19.4368,25.1621,7.10796,0.0,0.0
648,161.75,77.8077,96.9613,113.101,97.8824,43.3618,0.0340203,1.02495,19.424,24.9819,7.28319,0.0,0.0
652,162.75,78.4402,97.4027,110.543,97.8812,46.4005,0.0344298,1.03205,19.4112,24.8118,6.67719,0.0,0.0
656,163.75,79.3559,98.5646,119.246,97.8824,42.5439,0.0348837,1.04048,19.3975,24.6316,7.45352,0.0,0.0
660,164.75,79.8741,99.1369,119.941,97.8785,43.2888,0.0353214,1.04901,19.3827,24.4815,7.29791,0.0,0.0
664,165.75,80.5462,100.612,116.033,97.8816,43.818,0.0357382,1.05752,19.3685,24.2913,7.18949,0.0,0.0
668,166.75,81.3445,101.441,112.221,97.8844,43.9841,0.0360493,1.06583,19.3534,24.1112,7.1559,0.0,0.0
672,167.75,81.4788,102.163,110.434,97.8789,42.999,0.0363938,1.07434,19.3421,23.941,7.35802,0.0,0.0
676,168.75,82.9105,103.087,115.896,97.88,42.7,0.0367606,1.08168,19.3342,23.7108,7.42055,0.0,0.0
680,169.75,83.5752,103.869,108.415,97.8769,41.3657,0.0371429,1.08774,19.328,23.5106,7.70425,0.0,0.0
684,170.75,83.9795,104.789,109.547,97.8741,41.8632,0.0376321,1.09364,19.3214,23.3405,7.59704,0.0,0.0
688,171.75,84.815,105.977,115.864,97.8745,44.8958,0.0381002,1.09862,19.3145,23.1703,6.97147,0.0,0.0
692,172.75,85.6405,106.601,116.323,97.8646,40.8523,0.038434,1.10282,19.3083,22.9602,7.81485,0.0,0.0
696,173.75,86.4763,106.827,105.582,97.8662,41.9455,0.0386053,1.10687,19.3011,22.8401,7.57875,0.0,0.0
700,174.75,86.7727,108.221,116.877,97.8721,44.931,0.0386836,1.11091,19.2958,22.5998,6.96425,0.0,0.0
704,175.75,87.7026,108.838,122.52,97.8646,41.3973,0.0387277,1.11507,19.2883,22.4497,7.69628,0.0,0.0
708,176.75,88.2937,109.539,115.521,97.8567,41.1053,0.0389293,1.12012,19.2799,22.2696,7.75889,0.0,0.0
712,177.75,88.6762,110.76,118.422,97.8476,42.8584,0.0393119,1.1265,19.2675,22.0594,7.38446,0.0,0.0
716,178.75,89.5788,111.202,106.312,97.8658,42.8514,0.0398407,1.13406,19.2517,21.8592,7.38758,0.0,0.0
720,179.75,90.3112,112.047,110.782,97.8531,42.8004,0.0404322,1.14276,19.231,21.669,7.39707,0.0,0.0
724,180.75,90.8388,112.742,116.531,97.8397,43.7589,0.0410013,1.1523,19.2077,21.4488,7.19773,0.0,0.0
728,181.75,91.337,113.563,115.243,97.8341,40.7738,0.0415867,1.16389,19.1881,21.2687,7.82926,0.0,0.0
732,182.75,91.8993,114.701,112.152,97.8365,41.5951,0.0420563,1.17457,19.1735,21.0885,7.65108,0.0,0.0
736,183.75,92.8483,115.502,115.226,97.8278,39.4704,0.0425219,1.18305,19.1631,20.8984,8.1193,0.0,0.0
740,184.75,93.7452,115.946,110.322,97.8246,38.7882,0.0429114,1.19184,19.1507,20.6882,8.27499,0.0,0.0
744,185.75,93.8929,117.088,107.057,97.8286,40.9245,0.0432479,1.20164,19.1347,20.468,7.79575,0.0,0.0
748,186.75,94.6956,118.157,111.245,97.8029,40.6421,0.0436025,1.21196,19.1144,20.2578,7.85534,0.0,0.0
752,187.75,95.4647,118.96,109.42,97.8025,40.3558,0.0439881,1.22303,19.0931,20.0076,7.91854,0.0,0.0
756,188.75,96.1848,119.68,106.506,97.7962,37.8645,0.0444034,1.23358,19.0759,19.8074,8.48798,0.0,0.0
760,189.75,97.0629,120.226,114.381,97.7898,40.5602,0.0446454,1.24597,19.0575,19.6372,7.87219,0.0,0.0
764,190.75,97.8002,121.33,103.891,97.7772,41.5163,0.0450968,1.25923,19.0393,19.407,7.66261,0.0,0.0
768,191.75,98.4329,122.31,99.4159,97.7582,37.5786,0.0457789,1.27163,19.0239,19.2269,8.5523,0.0,0.0
772,192.75,98.4767,122.709,112.619,97.738,40.8117,0.0466077,1.28039,19.0047,19.0167,7.81216,0.0,0.0
776,193.75,99.8875,124.617,104.005,97.721,35.739,0.0475078,1.29359,18.9806,18.7765,8.99789,0.0,0.0
780,194.75,100.647,125.431,107.222,97.7222,42.0444,0.0483195,1.30927,18.9534,18.5463,7.54451,0.0,0.0
784,195.75,101.482,126.325,110.328,97.7008,36.2033,0.049099,1.32337,18.9275,18.3661,8.88056,0.0,0.0
788,196.75,101.678,127.566,108.684,97.6755,36.9559,0.0497642,1.33841,18.9049,18.1559,8.69421,0.0,0.0
792,197.75,102.566,128.49,103.744,97.6667,36.3003,0.0504578,1.35121,18.8879,17.9458,8.85352,0.0,0.0
796,198.75,103.56,129.297,100.144,97.6303,36.8801,0.0512638,1.36245,18.8731,17.7056,8.70842,0.0,0.0
800,199.75,104.044,130.094,109.291,97.6042,36.5923,0.0521579,1.37291,18.8571,17.4854,8.77611,0.0,0.0
804,200.75,105.171,130.971,106.719,97.5627,35.7254,0.0530612,1.38366,18.8347,17.2251,8.98677,0.0,0.0
808,201.75,105.827,132.052,110.834,97.5492,36.8187,0.0539313,1.39523,18.8086,17.035,8.7159,0.0,0.0
812,202.75,106.661,132.896,107.502,97.5089,32.033,0.05473,1.4076,18.7813,16.7647,9.95774,0.0,0.0
816,203.75,107.555,133.48,103.144,97.4756,35.3438,0.0553895,1.4229,18.7584,16.4745,9.07487,0.0,0.0
820,204.75,108.285,134.941,101.021,97.4329,34.0202,0.0561092,1.43668,18.7361,16.3844,9.41236,0.0,0.0
824,205.75,108.853,136.254,102.364,97.4048,34.6557,0.0567475,1.45106,18.7151,16.0641,9.24422,0.0,0.0
828,206.75,109.329,136.973,110.553,97.3557,33.7344,0.0574041,1.4654,18.6956,15.8339,9.48076,0.0,0.0
832,207.75,110.513,137.777,116.44,97.3225,34.9659,0.0579694,1.47937,18.6712,15.6337,9.15694,0.0,0.0
836,208.75,111.052,138.945,100.487,97.2714,33.5752,0.0584638,1.49292,18.6467,15.3735,9.51531,0.0,0.0
840,209.75,111.869,139.887,101.309,97.2323,33.6737,0.0589345,1.50556,18.6272,15.1233,9.4855,0.0,0.0
844,210.75,112.717,141.045,108.874,97.2259,33.3276,0.0594271,1.51752,18.6132,14.9031,9.57735,0.0,0.0
848,211.75,113.331,141.868,99.7059,97.2176,34.196,0.0600588,1.52807,18.6023,14.6729,9.34647,0.0,0.0
852,212.75,114.461,142.569,107.755,97.2493,36.3791,0.0606024,1.53875,18.5901,14.4026,8.7958,0.0,0.0
856,213.75,115.068,143.896,96.6933,97.2623,33.5223,0.0611923,1.54965,18.5772,14.1925,9.52859,0.0,0.0
860,214.75,115.975,145.064,95.2934,97.2702,35.7478,0.0617816,1.56075,18.5614,13.8922,8.95431,0.0,0.0
864,215.75,116.554,145.751,105.92,97.2908,35.0405,0.0622623,1.57005,18.5492,13.6019,9.13498,0.0,0.0
868,216.75,117.187,146.479,100.12,97.294,34.6322,0.0626295,1.57977,18.5335,13.4118,9.24013,0.0,0.0
872,217.75,117.955,147.18,114.761,97.3142,34.5333,0.0629059,1.59044,18.5171,13.1816,9.26756,0.0,0.0
876,218.75,117.79,148.446,101.758,97.3324,34.5908,0.0631591,1.60074,18.5047,12.9314,9.25434,0.0,0.0
880,219.75,119.552,149.578,103.067,97.3383,32.796,0.0633726,1.60876,18.4966,12.6511,9.73151,0.0,0.0
884,220.75,119.91,150.279,99.9303,97.3597,30.4283,0.0635106,1.61442,18.4912,12.4209,10.4038,0.0,0.0
888,221.75,120.611,150.969,106.701,97.3708,33.034,0.063591,1.61791,18.4877,12.1707,9.66982,0.0,0.0
892,222.75,120.647,151.104,92.7906,97.3905,32.7678,0.063609,1.62021,18.4854,11.9005,9.744,0.0,0.0
896,223.75,121.985,152.52,101.029,97.4103,30.1783,0.0635608,1.62304,18.4818,11.7403,10.4822,0.0,0.0
900,224.75,122.433,153.577,103.627,97.4297,31.6239,0.0634913,1.62633,18.4775,11.42,10.0655,0.0,0.0
904,225.75,122.77,154.171,101.294,97.4463,34.4011,0.063361,1.63,18.4727,11.2299,9.31399,0.0,0.0
908,226.75,123.134,154.249,101.93,97.4634,32.5113,0.063187,1.63488,18.467,11.0097,9.82099,0.0,0.0
912,227.75,124.496,155.385,95.143,97.5021,33.4651,0.0629732,1.64032,18.4627,10.7094,9.56589,0.0,0.0
916,228.75,125.013,156.313,99.5746,97.512,31.7614,0.0627369,1.64598,18.4599,10.4492,10.0342,0.0,0.0
920,229.75,125.643,156.878,105.931,97.5275,32.8868,0.0626194,1.64919,18.4548,10.269,9.72415,0.0,0.0
924,230.75,125.265,156.815,105.663,97.5492,33.1842,0.0626291,1.64977,18.4515,9.99878,9.64559,0.0,0.0
928,231.75,126.193,157.853,116.212,97.5635,31.8654,0.062786,1.65015,18.4493,9.75857,10.0097,0.0,0.0
932,232.75,127.194,158.19,101.668,97.5892,32.135,0.0629609,1.65234,18.4457,9.48833,9.93667,0.0,0.0
936,233.75,127.523,158.984,100.506,97.6066,33.3009,0.0630055,1.65561,18.4415,9.15804,9.61946,0.0,0.0
940,234.75,128.118,159.827,101.229,97.6442,32.9532,0.0629253,1.65889,18.4387,8.9979,9.71679,0.0,0.0
944,235.75,128.321,160.404,103.593,97.6557,33.6428,0.0628014,1.66112,18.4369,8.77771,9.53259,0.0,0.0
948,236.75,128.9,160.829,95.6728,97.6727,32.4811,0.0625352,1.66093,18.4432,8.52749,9.84848,0.0,0.0
952,237.75,129.569,161.003,98.9487,97.6972,31.9291,0.0622779,1.65798,18.4543,8.31731,10.0041,0.0,0.0
956,238.75,129.541,161.57,95.7552,97.7131,33.3117,0.0619928,1.65295,18.4676,8.02705,9.62631,0.0,0.0
960,239.75,130.048,161.777,103.828,97.7364,33.9352,0.0616721,1.64621,18.4814,7.82687,9.46256,0.0,0.0
964,240.75,130.115,162.076,102.722,97.7467,34.4548,0.061259,1.63947,18.5022,7.61669,9.32757,0.0,0.0
968,241.75,130.708,162.208,106.066,97.7696,34.0573,0.0607812,1.62968,18.5276,7.33644,9.43348,0.0,0.0
972,242.75,131.113,162.705,105.503,97.7938,35.4894,0.060258,1.61792,18.5562,7.14628,9.06723,0.0,0.0
976,243.75,131.198,162.567,109.217,97.8068,34.6268,0.0597297,1.60458,18.583,6.87604,9.28855,0.0,0.0
980,244.75,131.182,162.384,102.338,97.8227,33.9426,0.0591969,1.59099,18.601,6.66585,9.46851,0.0,0.0
984,245.75,131.399,162.697,98.6572,97.8365,34.6777,0.0583645,1.57676,18.623,6.42564,9.2781,0.0,0.0
988,246.75,131.312,162.848,102.19,97.8531,37.4596,0.057281,1.56181,18.6495,6.21546,8.58935,0.0,0.0
992,247.75,131.726,162.177,105.389,97.8555,34.7067,0.0561994,1.54877,18.6783,5.98526,9.27237,0.0,0.0
996,248.75,131.375,162.013,103.279,97.8713,35.9105,0.0549947,1.53134,18.7093,5.83512,8.96881,0.0,0.0
1000,249.75,131.378,162.027,107.996,97.888,36.7948,0.0538416,1.51027,18.7505,5.60492,8.75273,0.0,0.0
1004,250.75,131.324,161.547,104.376,97.8967,36.3068,0.0526663,1.48744,18.7988,5.42476,8.87293,0.0,0.0
1008,251.75,131.112,161.321,109.738,97.9038,38.1345,0.051745,1.4651,18.839,5.21458,8.43425,0.0,0.0
1012,252.75,130.837,161.253,106.228,97.9054,39.4209,0.0505457,1.44212,18.8774,4.96436,8.13761,0.0,0.0
1016,253.75,130.947,160.502,114.571,97.9224,38.3273,0.0492579,1.41793,18.9165,4.81423,8.39084,0.0,0.0
1020,254.75,130.004,159.434,114.365,97.9188,39.635,0.0477102,1.3927,18.9627,4.63407,8.0904,0.0,0.0
1024,255.75,130.158,159.203,118.49,97.9303,42.1576,0.0460431,1.36577,19.019,4.48394,7.53949,0.0,0.0
1028,256.75,129.549,158.507,119.304,97.9307,39.939,0.0442977,1.33731,19.0763,4.30378,8.02313,0.0,0.0
1032,257.75,128.883,157.232,118.549,97.9323,44.3082,0.0425124,1.30416,19.131,4.15365,7.0946,0.0,0.0
1036,258.75,128.642,156.502,116.397,97.9311,44.0382,0.0412063,1.27074,19.1886,3.95347,7.14917,0.0,0.0
1040,259.75,128.328,155.621,115.306,97.9453,46.8066,0.0394771,1.23809,19.2366,3.84338,6.60511,0.0,0.0
1044,260.75,127.814,154.416,122.507,97.9445,50.2718,0.0377291,1.2062,19.2867,3.65321,5.96615,0.0,0.0
1048,261.75,126.557,153.461,117.04,97.9386,48.8428,0.0362301,1.17524,19.3394,3.52309,6.22357,0.0,0.0
1052,262.75,126.656,152.669,116.466,97.9287,48.387,0.0347981,1.1468,19.3922,3.39298,6.30654,0.0,0.0
1056,263.75,125.977,151.528,119.435,97.9172,47.461,0.0334106,1.11381,19.4539,3.21282,6.47835,0.0,0.0
1060,264.75,125.102,150.447,113.43,97.9157,50.0678,0.0321281,1.08146,19.5123,3.12274,5.99988,0.0,0.0
1064,265.75,123.964,148.822,125.659,97.9117,49.0955,0.0311483,1.04898,19.5622,2.98262,6.17496,0.0,0.0
1068,266.75,123.81,147.614,117.989,97.9034,48.7845,0.0301654,1.01759,19.6051,2.88253,6.23104,0.0,0.0
1072,267.75,123.051,146.389,117.587,97.8899,44.2302,0.0292678,0.989163,19.6467,2.7324,7.10649,0.0,0.0
1076,268.75,121.971,144.44,113.963,97.886,43.2671,0.028378,0.960638,19.6871,2.6223,7.30307,0.0,0.0
1080,269.75,121.141,143.954,126.682,97.869,42.6189,0.027497,0.933364,19.7261,2.51221,7.43655,0.0,0.0
1084,270.75,120.115,142.653,124.588,97.8448,47.4316,0.0265922,0.907138,19.7721,2.35207,6.47726,0.0,0.0
1088,271.75,119.552,141.318,125.602,97.8278,51.2871,0.0255385,0.876108,19.8243,2.23196,5.77663,0.0,0.0
1092,272.75,118.283,139.544,125.057,97.8013,53.1943,0.024492,0.846398,19.8769,2.1619,5.44759,0.0,0.0
1096,273.75,117.326,138.097,129.789,97.7768,52.9722,0.0231836,0.812339,19.9326,2.12186,5.48278,0.0,0.0
1100,274.75,116.452,136.027,132.354,97.7661,55.6667,0.0214987,0.779805,19.9965,2.02178,5.03797,0.0,0.0
1104,275.75,115.189,134.527,131.48,97.7411,58.6908,0.019555,0.739552,20.0637,1.98174,4.56247,0.0,0.0
1108,276.75,113.578,132.443,133.23,97.7233,62.7367,0.0175706,0.695955,20.1496,1.90167,3.96451,0.0,0.0
1112,277.75,112.448,129.996,139.739,97.6925,68.4345,0.0155187,0.65123,20.2489,1.84162,3.18407,0.0,0.0
1116,278.75,110.824,128.046,138.757,97.6553,78.4432,0.013417,0.60219,20.3509,1.81159,1.95964,0.0,0.0
1120,279.75,109.064,125.879,147.003,97.6347,84.4315,0.0112304,0.551868,20.4428,1.80158,1.29969,0.0,0.0
1124,280.75,107.446,123.415,147.226,97.6022,91.8419,0.00918151,0.501844,20.517,1.80158,0.544167,0.0,0.0
1128,281.75,105.929,120.428,150.147,97.5631,96.2041,0.00751564,0.456091,20.5809,1.79157,0.125473,0.0,0.0
1132,282.75,103.348,118.033,145.983,97.5164,96.7009,0.00582832,0.412548,20.6474,1.80158,0.0751164,0.0,0.0
1136,283.75,102.181,115.155,148.706,97.4918,96.7376,0.00421338,0.369798,20.7208,1.81159,0.06947,0.0,0.0
1140,284.75,100.16,113.478,147.947,97.4649,97.0177,0.00289629,0.333253,20.7832,1.81159,0.0411395,0.0,0.0
1144,285.75,98.6418,111.101,150.381,97.4226,97.382,0.001767,0.295533,20.8369,1.8216,0.00372511,0.0,0.0
1148,286.75,96.9381,108.687,146.157,97.3961,97.6733,0.000893649,0.263282,20.8766,1.81159,-0.0254258,0.0,0.0
1152,287.75,95.5652,106.769,151.398,97.3514,97.7571,7.88036e-05,0.23765,20.9092,1.80158,-0.0372082,0.0,0.0
1156,288.75,93.9473,104.588,150.803,97.3245,97.5972,-0.000612413,0.214036,20.9345,1.81159,-0.0250344,0.0,0.0
1160,289.75,92.1414,102.887,147.62,97.2714,97.156,-0.0011662,0.194484,20.9552,1.80158,0.010619,0.0,0.0
1164,290.75,90.7552,100.715,151.076,97.2358,97.2182,-0.00164095,0.177035,20.972,1.8216,0.0016186,0.0,0.0
1168,291.75,89.6208,99.0178,148.118,97.1947,97.7765,-0.00205956,0.162814,20.9843,1.8216,-0.0533851,0.0,0.0
1172,292.75,87.7875,96.6222,148.015,97.1511,97.2414,-0.00242419,0.150508,20.9946,1.8216,-0.00830713,0.0,0.0
1176,293.75,87.431,95.3214,145.643,97.11,96.6117,-0.00272142,0.139743,21.0021,1.83161,0.0460168,0.0,0.0
1180,294.75,86.0011,93.2702,152.479,97.0617,97.4187,-0.00298399,0.130459,21.0075,1.8216,-0.032843,0.0,0.0
1184,295.75,84.8687,91.5448,151.383,97.0178,96.7373,-0.00321826,0.123539,21.0111,1.84162,0.0259018,0.0,0.0
1188,296.75,82.9409,89.8291,151,96.9818,96.942,-0.00340457,0.116587,21.0154,1.81159,0.00366755,0.0,0.0
1192,297.75,82.5905,88.3576,153.155,96.9355,97.868,-0.00353593,0.110363,21.019,1.8216,-0.085645,0.0,0.0
1196,298.75,81.4097,86.887,150.282,96.8824,97.975,-0.00360384,0.104523,21.0215,1.84162,-0.100315,0.0,0.0
1200,299.75,80.0386,85.5142,150.172,96.8425,97.4991,-0.00367739,0.0995432,21.0245,1.83161,-0.0604455,0.0,0.0
1204,300.75,78.5153,83.5566,153.41,96.7938,97.4937,-0.00374694,0.0950526,21.0266,1.8216,-0.0644456,0.0,0.0
1208,301.75,78.1238,82.5813,147.779,96.7507,97.4801,-0.0038198,0.0917831,21.0279,1.8216,-0.0671929,0.0,0.0
1212,302.75,76.8468,81.3035,148.447,96.6984,96.9374,-0.00389566,0.0881137,21.0289,1.81159,-0.0220754,0.0,0.0
1216,303.75,76.1903,79.891,150.932,96.6533,98.0233,-0.00395704,0.0848962,21.0303,1.8216,-0.125902,0.0,0.0
1220,304.75,75.4739,78.0346,148.845,96.6082,96.7658,-0.00400338,0.0818675,21.0316,1.83161,-0.0145838,0.0,0.0
1224,305.75,74.2387,77.5808,154.465,96.5603,97.8529,-0.00404324,0.0790225,21.0327,1.8216,-0.118953,0.0,0.0
1228,306.75,73.3848,76.4936,151.251,96.5132,96.7666,-0.00407231,0.0764001,21.0328,1.80158,-0.023454,0.0,0.0
1232,307.75,72.5166,75.6971,151.52,96.4658,95.9948,-0.00408755,0.0745204,21.0327,1.8216,0.0437833,0.0,0.0
1236,308.75,71.9538,74.0947,151.372,96.4202,96.4514,-0.00408683,0.0721991,21.0334,1.8216,-0.00288819,0.0,0.0
1240,309.75,70.7151,72.8165,146.95,96.3712,96.6735,-0.00410136,0.0700706,21.0338,1.83161,-0.0280195,0.0,0.0
1244,310.75,69.989,72.265,150.848,96.3419,97.1232,-0.00414303,0.0682557,21.0342,1.83161,-0.0722505,0.0,0.0
1248,311.75,69.2442,70.8662,149.2,96.296,96.5688,-0.00418751,0.0666192,21.0344,1.83161,-0.0253081,0.0,0.0
1252,312.75,68.348,69.6446,149.63,96.2612,96.4695,-0.00419812,0.064996,21.0345,1.8216,-0.0193429,0.0,0.0
1256,313.75,67.7185,68.7629,148.977,96.2244,96.502,-0.00416801,0.0634516,21.0346,1.83161,-0.0257712,0.0,0.0
1260,314.75,66.6617,68.0114,151.19,96.184,96.1694,-0.00412187,0.0621005,21.0346,1.8216,0.00136058,0.0,0.0
1264,315.75,65.8496,67.0704,148.262,96.146,96.2876,-0.00408157,0.0608056,21.0347,1.8216,-0.0131617,0.0,0.0
1268,316.75,65.6614,66.2587,152.779,96.1152,96.4688,-0.00407076,0.0597512,21.0355,1.83161,-0.032851,0.0,0.0
1272,317.75,65.0698,65.6862,150.458,96.0926,96.2872,-0.00408142,0.0586264,21.0352,1.8216,-0.0180975,0.0,0.0
1276,318.75,64.0887,64.4395,149.881,96.0471,96.3455,-0.00411206,0.0575277,21.0359,1.83161,-0.0277526,0.0,0.0
1280,319.75,64.2106,64.0697,151.182,96.0245,96.0288,-0.00417392,0.0565796,21.0363,1.85163,-0.000392965,0.0,0.0
1284,320.75,62.475,62.9258,144.748,96,96.4773,-0.00425705,0.0556691,21.0366,1.83161,-0.0443625,0.0,0.0
1288,321.75,62.023,62.261,147.177,95.9648,96.4811,-0.00440614,0.0548214,21.0367,1.84162,-0.0480026,0.0,0.0
1292,322.75,61.5223,61.6266,149.956,95.947,96.5955,-0.00457497,0.054044,21.0369,1.8216,-0.0602582,0.0,0.0
1296,323.75,60.8954,60.8837,148.765,95.9125,95.9102,-0.00468956,0.0533555,21.0369,1.83161,0.000222868,0.0,0.0
1300,324.75,60.3354,60.0973,146.656,95.8995,96.4757,-0.00473525,0.0527195,21.037,1.83161,-0.0535889,0.0,0.0
1304,325.75,60.0924,59.6764,152.586,95.8809,95.6668,-0.00469464,0.052115,21.037,1.8216,0.0199987,0.0,0.0
1308,326.75,59.2422,58.7731,149.767,95.8603,96.7013,-0.00457898,0.0514785,21.037,1.83161,-0.0781387,0.0,0.0
1312,327.75,59.2681,57.9607,153.383,95.8457,96.2876,-0.00446282,0.0509169,21.0371,1.8216,-0.0411496,0.0,0.0
1316,328.75,57.5368,56.5217,147.942,95.8283,96.7029,-0.00437122,0.0504285,21.0371,1.8216,-0.0812734,0.0,0.0
1320,329.75,58.0169,56.7957,151.172,95.8176,95.9669,-0.00432352,0.0499162,21.0374,1.8216,-0.0139339,0.0,0.0
1324,330.75,56.6789,55.8545,149.603,95.8168,96.5317,-0.00434076,0.0495801,21.0376,1.8216,-0.0664989,0.0,0.0
1328,331.75,56.9179,55.2763,150.99,95.8006,96.0172,-0.00437529,0.0490959,21.0377,1.81159,-0.0202027,0.0,0.0
1332,332.75,55.4999,54.2202,148.412,95.8021,95.9619,-0.00442345,0.0486583,21.0378,1.8216,-0.0149064,0.0,0.0
1336,333.75,55.8372,54.3038,149.73,95.7887,96.2493,-0.00446147,0.0483146,21.0385,1.83161,-0.0429158,0.0,0.0
1340,334.75,55.2353,53.9211,150.629,95.799,96.7998,-0.00448213,0.0480586,21.0391,1.84162,-0.0929718,0.0,0.0
1344,335.75,54.5108,53.0987,157.039,95.7883,96.1945,-0.00448977,0.0476916,21.0395,1.83161,-0.0378528,0.0,0.0
1348,336.75,53.8095,51.4771,151.9,95.8057,96.7689,-0.00449117,0.0472931,21.0398,1.8216,-0.0894878,0.0,0.0
1352,337.75,54.3719,52.0924,153.386,95.8025,95.6795,-0.00449804,0.0468757,21.04,1.81159,0.0114934,0.0,0.0
1356,338.75,54.0909,51.4952,149.736,95.8053,96.5561,-0.00451719,0.0464828,21.0401,1.8216,-0.0698262,0.0,0.0
1360,339.75,53.2047,50.878,151.028,95.818,96.6739,-0.0045377,0.0461293,21.0401,1.81159,-0.0795534,0.0,0.0
1364,340.75,52.3499,50.2414,152.284,95.8385,96.4703,-0.00455945,0.0458597,21.0402,1.81159,-0.0587741,0.0,0.0
1368,341.75,52.344,49.9733,150.582,95.8385,96.8134,-0.00458284,0.0455782,21.0402,1.8216,-0.0905272,0.0,0.0
1372,342.75,51.9745,49.7244,148.23,95.8568,96.2223,-0.0046089,0.0452927,21.0402,1.83161,-0.0340477,0.0,0.0
1376,343.75,51.8186,49.2476,148.674,95.8647,96.682,-0.00463106,0.0449719,21.0403,1.8216,-0.075945,0.0,0.0
1380,344.75,51.0963,49.0386,150.008,95.8765,96.8014,-0.00464696,0.0447046,21.0403,1.8216,-0.0858754,0.0,0.0
1384,345.75,51.712,48.7521,146.567,95.8963,96.8041,-0.00465065,0.0445077,21.0403,1.8216,-0.0842794,0.0,0.0
1388,346.75,50.7958,48.1995,149.393,95.9098,97.0498,-0.00464956,0.0443786,21.0403,1.81159,-0.1057,0.0,0.0
1392,347.75,50.0252,47.5948,152.153,95.9232,96.3482,-0.0046472,0.0441981,21.0403,1.8216,-0.0395461,0.0,0.0
1396,348.75,49.9707,47.0948,153.248,95.9434,96.8408,-0.0046447,0.0440009,21.0403,1.8216,-0.0832784,0.0,0.0
1400,349.75,49.891,46.6566,148.28,95.9699,96.0828,-0.00465591,0.0438546,21.0403,1.84162,-0.0105184,0.0,0.0
1404,350.75,49.6419,46.9533,150.658,95.9869,96.4232,-0.00467184,0.0437586,21.0403,1.83161,-0.0405631,0.0,0.0
1408,351.75,48.8834,46.4066,149.588,96.0222,96.8423,-0.00468727,0.0435825,21.0403,1.8216,-0.0760822,0.0,0.0
1412,352.75,48.4939,46.5111,148.785,96.0479,97.0073,-0.00471142,0.0433968,21.0401,1.8216,-0.0889105,0.0,0.0
1416,353.75,48.466,45.1188,151.653,96.076,96.2849,-0.00473183,0.0432165,21.0398,1.83161,-0.019429,0.0,0.0
1420,354.75,48.2732,45.1257,150.614,96.0831,96.4097,-0.00473664,0.0430767,21.0397,1.8216,-0.0303512,0.0,0.0
1424,355.75,47.7803,44.768,158.203,96.1009,96.6642,-0.00471838,0.0429473,21.0395,1.8216,-0.052284,0.0,0.0
1428,356.75,47.4428,44.4505,152.372,96.1496,96.9212,-0.00467432,0.0427958,21.0395,1.81159,-0.071497,0.0,0.0
1432,357.75,46.8452,44.3367,152.143,96.1899,96.6936,-0.00462327,0.0426414,21.0402,1.8216,-0.0467167,0.0,0.0
1436,358.75,46.9033,44.1146,148.97,96.201,97.355,-0.00459917,0.042442,21.0407,1.83161,-0.106663,0.0,0.0
1440,359.75,46.2478,43.7723,151.7,96.2331,97.3917,-0.00460823,0.0422507,21.0404,1.81159,-0.107055,0.0,0.0
1444,360.75,46.3373,43.4688,150.319,96.2738,97.2194,-0.00465909,0.0421082,21.04,1.80158,-0.0874276,0.0,0.0
1448,361.75,46.0071,42.7756,151.199,96.3023,97.5551,-0.004723,0.0418712,21.0398,1.81159,-0.115616,0.0,0.0
1452,362.75,45.744,42.8935,150.677,96.336,96.5174,-0.00478013,0.041644,21.0396,1.81159,-0.0168362,0.0,0.0
1456,363.75,46.4067,42.6164,149.264,96.3771,97.3179,-0.00483047,0.0414232,21.0395,1.80158,-0.0868962,0.0,0.0
1460,364.75,45.1557,41.7765,151.528,96.4111,97.6648,-0.00483986,0.0412306,21.0394,1.81159,-0.115569,0.0,0.0
1464,365.75,44.5738,41.055,150.086,96.4353,97.2592,-0.00481011,0.0410853,21.0394,1.81159,-0.0760994,0.0,0.0
1468,366.75,44.9984,41.1282,151.404,96.4764,97.6293,-0.00473817,0.0409717,21.0394,1.81159,-0.106257,0.0,0.0
1472,367.75,44.8343,41.8318,153.469,96.5164,97.4303,-0.00465376,0.0408935,21.0394,1.8216,-0.0843036,0.0,0.0
1476,368.75,44.703,41.2052,154.176,96.5469,97.5922,-0.00459279,0.0408664,21.0393,1.81159,-0.0963299,0.0,0.0
1480,369.75,44.6576,41.0377,149.145,96.5908,97.7374,-0.00455758,0.0407457,21.0393,1.81159,-0.105565,0.0,0.0
1484,370.75,44.2289,40.825,146.936,96.6221,97.535,-0.00457733,0.0406734,21.0393,1.81159,-0.0841239,0.0,0.0
1488,371.75,43.9427,40.6868,152.159,96.651,97.7278,-0.00460957,0.040643,21.0393,1.81159,-0.0991119,0.0,0.0
1492,372.75,43.7861,40.4746,151.357,96.6874,98.2068,-0.00462215,0.0405665,21.0393,1.81159,-0.139484,0.0,0.0
1496,373.75,43.231,40.5266,151.959,96.7265,97.4357,-0.0046047,0.0405011,21.0393,1.81159,-0.0653473,0.0,0.0
1500,374.75,43.4487,40.1185,148.42,96.7515,97.6644,-0.00458764,0.0404318,21.0393,1.8216,-0.0840135,0.0,0.0
1504,375.75,43.322,39.8455,149.271,96.774,97.9457,-0.00456215,0.0403385,21.0393,1.83161,-0.107651,0.0,0.0
1508,376.75,42.9794,39.2668,151.847,96.8092,97.6857,-0.0045439,0.0402163,21.0393,1.8216,-0.0806197,0.0,0.0
1512,377.75,42.9944,39.5319,152.523,96.8377,98.7256,-0.00451674,0.0401041,21.0393,1.81159,-0.172716,0.0,0.0
1516,378.75,42.7656,38.9867,151.703,96.8603,98.3691,-0.004456,0.0399551,21.0393,1.81159,-0.138266,0.0,0.0
1520,379.75,42.2542,39.5923,152.695,96.9078,98.0836,-0.00435717,0.0398503,21.0393,1.81159,-0.107883,0.0,0.0
1524,380.75,42.4949,38.9208,148.004,96.9307,98.512,-0.00423408,0.0397922,21.0393,1.8216,-0.144752,0.0,0.0
1528,381.75,42.2299,38.6669,154.026,96.9644,98.6198,-0.00414508,0.0397541,21.0393,1.8216,-0.15143,0.0,0.0
1532,382.75,41.7115,38.7013,151.149,96.9794,97.3905,-0.00411612,0.0396813,21.0393,1.81159,-0.0378427,0.0,0.0
1536,383.75,42.0369,38.6015,150.498,97.0194,98.2617,-0.00411625,0.0396097,21.0393,1.8216,-0.113815,0.0,0.0
1540,384.75,41.6778,37.8671,149.969,97.0518,98.1543,-0.00415183,0.0395866,21.0393,1.8216,-0.101042,0.0,0.0
1544,385.75,41.1079,37.9516,151.827,97.0851,98.1531,-0.00420497,0.0395714,21.0393,1.81159,-0.0978731,0.0,0.0
1548,386.75,40.8577,37.8826,147.841,97.1068,98.5143,-0.00425121,0.0395504,21.0393,1.8216,-0.128727,0.0,0.0
1552,387.75,41.0624,37.4541,152.911,97.1278,98.009,-0.00427805,0.0395099,21.0393,1.81159,-0.0807945,0.0,0.0
1556,388.75,41.0647,37.2296,155.992,97.1531,98.7994,-0.00428658,0.0394494,21.0393,1.80158,-0.150313,0.0,0.0
1560,389.75,40.6322,37.2045,151.215,97.1638,98.1261,-0.00429649,0.0392903,21.0393,1.81159,-0.0881555,0.0,0.0
1564,390.75,40.4479,36.9705,152.671,97.1903,98.6766,-0.00431819,0.0392097,21.0393,1.8216,-0.13576,0.0,0.0
1568,391.75,40.2492,36.8875,151.637,97.2204,98.7519,,0.0392286,,1.8216,-0.139819,0.0,0.0
1572,392.75,40.5364,36.9414,153.765,97.2437,98.806,,0.0392648,,1.83161,-0.142568,0.0,0.0
1576,393.75,40.2375,36.6312,154.944,97.2386,98.1214,,0.0392698,,1.8216,-0.0808505,0.0,0.0
1580,394.75,39.2361,35.9271,149.375,97.2604,98.6364,,,,1.80158,-0.125672,0.0,0.0
1584,395.75,39.8751,36.3213,153.954,97.2675,98.607,,,,1.83161,-0.122354,0.0,0.0
1588,396.75,39.88,35.7706,152.707,97.2813,98.6264,,,,1.8216,-0.122832,0.0,0.0
1592,397.75,39.6024,36.1823,150.08,97.2805,98.6302,,,,1.83161,-0.123255,0.0,0.0
1596,398.75,38.9533,35.3777,151.261,97.2983,98.4541,,,,1.83161,-0.105627,0.0,0.0
1600,399.75,39.3257,35.9928,153.082,97.3074,98.9543,,,,1.84162,-0.150129,0.0,0.0
1604,400.75,39.1383,35.878,149.785,97.3256,98.7368,,,,1.84162,-0.128773,0.0,0.0
1608,401.75,39.0094,35.8847,151.871,97.3407,98.733,,,,1.83161,-0.127041,0.0,0.0
1610,402.25,38.3682,35.1703,148.532,97.3387,97.9422,,,,1.83161,-0.0552878,0.0,0.0