File: 01_Data/ABS/Cone/ABS_Cone_HF75Scan_220218_R1.csv
Names,Time,Stack TC,Smoke TC,Exh Press,Smoke Comp,Smoke Meas,CO Meter,CO2 Meter,O2 Meter,Sample Mass,Ext Coeff,Start Test,Flame Verif
Chan Gain,,500,500,1,1,1,1,1,1,1,1,1.0,1.0
Offset,,0,0,0.134285,0,0,0,0,0,0,0,0.0,0.0
Gain,,1,1,25.011,13.3843,12.7012,1,1,1,1.00088,1.02252,1.0,1.0
Units,sec,C,C,Pa,%,%,%,%,%,g,/m,,
Baseline,,31.3759,33.3453,151.753,99.7772,95.9427,0.000908753,0.0490518,21.0124,-866.351,0.351576,,
2,0.25,29.1598,30.253,146.516,98.8031,95.1965,0.000821487,0.0527598,21.0109,31.948,0.333537,0.0,0.0
4,0.75,28.805,29.6304,153.974,98.7827,95.0097,0.000809163,0.0526956,21.0111,31.8779,0.349303,0.0,0.0
6,1.25,29.6606,30.6586,150.328,98.8064,95.2233,0.000801806,0.0525464,21.0113,32.028,0.331314,0.0,0.0
8,1.75,29.8024,31.1412,156.652,98.8035,94.8798,0.000798208,0.0524256,21.0114,31.998,0.363461,0.0,0.0
10,2.25,29.3963,30.8074,149.618,98.8047,95.702,0.000796674,0.0523277,21.0115,31.9079,0.286188,0.0,0.0
12,2.75,29.5502,31.1368,152.379,98.8084,95.074,0.000792805,0.0522068,21.0116,31.968,0.345567,0.0,0.0
14,3.25,29.4,30.8322,154.926,98.8056,95.502,0.00078967,0.0521088,21.0117,31.988,0.305027,0.0,0.0
16,3.75,29.6418,31.1608,150.044,98.8015,95.1388,0.00077093,0.0519711,21.0117,31.9079,0.338833,0.0,0.0
18,4.25,29.5283,31.0159,152.453,98.8133,95.0496,0.000755749,0.0518069,21.0118,31.9179,0.348317,0.0,0.0
20,4.75,29.7838,31.157,150.545,98.8178,94.3969,0.000721031,0.0516082,21.0118,31.958,0.410533,0.0,0.0
22,5.25,29.7169,31.2973,147.705,98.8146,94.7764,0.00069291,0.0514924,21.0119,31.938,0.374251,0.0,0.0
24,5.75,29.6761,31.4411,156.319,98.8146,95.6717,0.000662283,0.0512943,21.0119,31.9079,0.289912,0.0,0.0
26,6.25,29.5305,31.6215,149.682,98.8199,94.9101,0.000630412,0.0510645,21.0119,31.958,0.362086,0.0,0.0
28,6.75,29.6871,31.3892,151.047,98.8158,94.3263,0.000604597,0.0508784,21.0119,31.968,0.417053,0.0,0.0
30,7.25,29.9424,31.4985,148.289,98.8264,94.9814,0.000597381,0.0506722,21.0118,31.938,0.355942,0.0,0.0
32,7.75,29.8199,31.1404,151.237,98.8248,94.5748,0.000591537,0.0505051,21.0117,31.978,0.394274,0.0,0.0
34,8.25,29.6031,31.4419,148.622,98.8399,94.9484,0.000621568,0.0503767,21.0116,31.958,0.360278,0.0,0.0
36,8.75,29.9773,31.5678,153.178,98.8366,93.929,0.000677183,0.0502788,21.0111,31.928,0.456802,0.0,0.0
38,9.25,30.0073,31.6097,149.467,98.8374,94.1252,0.000786679,0.0501996,21.0106,31.928,0.438167,0.0,0.0
40,9.75,30.0895,31.6258,154.469,98.8337,94.16,0.000933374,0.0502602,21.009,31.938,0.43451,0.0,0.0
42,10.25,30.0008,31.8764,144.899,98.8346,93.8941,0.00119765,0.0503093,21.0076,31.928,0.45995,0.0,0.0
44,10.75,29.8759,31.7502,146.772,98.8317,93.9104,0.00154261,0.0521694,21.0016,31.9179,0.458134,0.0,0.0
46,11.25,30.0592,31.6286,147.51,98.8656,93.5348,0.00209259,0.0536761,20.9968,31.9079,0.497156,0.0,0.0
48,11.75,30.2252,31.8154,146.332,98.8448,92.7271,0.00278158,0.0594155,20.9675,31.8979,0.573064,0.0,0.0
50,12.25,30.3481,31.5944,149.667,98.8578,90.101,0.00374922,0.0681316,20.9439,31.6777,0.831934,0.0,1.0
52,12.75,30.5195,32.0537,141.825,98.8489,81.4906,0.00490162,0.0826237,20.8879,34.9006,1.73204,0.0,1.0
54,13.25,30.3776,32.131,146.975,98.8672,73.3202,0.00583507,0.101051,20.8425,31.7178,2.68135,0.0,1.0
56,13.75,30.4919,32.2346,139.566,98.855,62.9032,0.00759524,0.126349,20.7644,31.7178,4.05472,0.0,1.0
58,14.25,30.9051,32.7011,133.704,98.8656,54.6433,0.00902099,0.156175,20.7012,31.6677,5.31833,0.0,1.0
60,14.75,30.8754,33.1062,136.808,98.864,49.5954,0.0109535,0.180334,20.65,31.6577,6.18757,0.0,1.0
62,15.25,31.557,33.5242,131.221,98.8815,50.0772,0.0132187,0.224868,20.5619,31.3575,6.10245,0.0,1.0
64,15.75,31.8076,34.3149,124.055,98.8689,46.1488,0.0150535,0.26094,20.4906,31.4175,6.83406,0.0,1.0
66,16.25,32.7573,35.4687,131.893,98.8856,42.2475,0.017737,0.316311,20.4122,31.3975,7.62782,0.0,1.0
68,16.75,32.9242,36.1942,116.724,98.8836,41.1979,0.0199106,0.361161,20.3303,31.1773,7.8533,0.0,1.0
70,17.25,33.3643,36.7064,125.064,98.9016,43.1192,0.0222207,0.411834,20.2453,31.1973,7.44607,0.0,0.0
72,17.75,34.0085,38.8353,121.846,98.9052,41.6424,0.0245864,0.46579,20.1598,31.0972,7.75898,0.0,0.0
74,18.25,35.0958,39.3461,117.269,98.9142,37.409,0.0273158,0.509494,20.0906,30.857,8.72141,0.0,0.0
76,18.75,36.0071,40.7569,111.572,98.9052,38.4834,0.0295266,0.572486,19.9932,30.807,8.46661,0.0,0.0
78,19.25,36.7963,42.0794,113.158,98.9126,37.4128,0.0321272,0.623509,19.8984,30.807,8.72033,0.0,0.0
80,19.75,37.8092,43.4946,117.366,98.9158,37.107,0.0342336,0.676029,19.8074,30.6969,8.79425,0.0,0.0
82,20.25,38.3186,44.9227,106.722,98.9293,38.9784,0.0367564,0.728642,19.7149,30.4266,8.35416,0.0,0.0
84,20.75,39.7481,46.4749,110.942,98.9179,34.7302,0.0387998,0.781203,19.6232,30.4467,9.38818,0.0,0.0
86,21.25,40.6207,47.8773,115.26,98.9363,37.2233,0.0404549,0.832727,19.549,30.3466,8.76804,0.0,0.0
88,21.75,41.6782,49.0472,111.271,98.9293,37.157,0.0424741,0.884174,19.4888,30.1964,8.78339,0.0,0.0
90,22.25,42.9438,50.6,108.925,98.9351,32.8794,0.0447202,0.934588,19.427,30.1864,9.88095,0.0,0.0
92,22.75,43.8546,51.6066,102.394,98.9355,34.5484,0.0465396,0.983562,19.3651,29.9863,9.43685,0.0,0.0
94,23.25,43.8977,53.4817,106.194,98.9493,33.6267,0.0494974,1.03056,19.3069,29.8661,9.68066,0.0,0.0
96,23.75,45.6908,54.8805,102.898,98.9387,31.9898,0.0518932,1.06862,19.2525,29.7761,10.1273,0.0,0.0
98,24.25,47.7328,57.4072,112.635,98.9641,29.6944,0.0547796,1.1185,19.195,29.676,10.7975,0.0,0.0
100,24.75,48.7153,58.9771,113.372,98.9444,31.5669,0.0571175,1.1589,19.1365,29.4758,10.2472,0.0,0.0
102,25.25,50.0467,60.6512,104.551,98.9726,28.1071,0.0594619,1.19162,19.089,29.3857,11.291,0.0,0.0
104,25.75,51.4322,62.1809,106.166,98.9604,28.0218,0.0617666,1.23438,19.0075,29.2756,11.3171,0.0,0.0
106,26.25,52.2907,64.9822,103.269,98.973,29.3122,0.0636333,1.28363,18.9415,29.1455,10.9145,0.0,0.0
108,26.75,53.4749,66.3031,103.318,98.9526,31.8972,0.0660635,1.33204,18.8555,29.0054,10.1546,0.0,0.0
110,27.25,54.3754,67.6182,92.7042,98.9657,27.9598,0.068032,1.37892,18.7859,28.8252,11.3375,0.0,0.0
112,27.75,55.2674,69.6736,95.3657,98.9751,24.7741,0.0703467,1.42428,18.7209,28.7452,12.4234,0.0,0.0
114,28.25,57.2646,72.0947,97.125,98.9894,26.4524,0.0722216,1.46767,18.6606,28.565,11.8367,0.0,0.0
116,28.75,59.2486,73.826,94.1361,98.9837,27.5102,0.074138,1.50981,18.6117,28.4149,11.4845,0.0,0.0
118,29.25,60.2656,76.3141,95.5649,98.9926,24.9799,0.0760481,1.55024,18.5535,28.2948,12.3508,0.0,0.0
120,29.75,61.8812,77.5128,101.938,98.9869,24.521,0.0778631,1.58299,18.5063,28.1246,12.5166,0.0,0.0
122,30.25,62.7282,80.1717,104.591,99.0016,26.0497,0.0795743,1.62307,18.4534,27.9545,11.9754,0.0,0.0
124,30.75,64.0773,81.2702,90.9272,98.9951,27.6129,0.0812157,1.65553,18.4105,27.8544,11.4521,0.0,0.0
126,31.25,64.8247,82.9802,96.4266,99.0229,25.9303,0.082775,1.68685,18.3647,27.7443,12.0186,0.0,0.0
128,31.75,65.9853,84.8625,96.4641,99.0127,25.2322,0.0842623,1.71673,18.3276,27.5842,12.2624,0.0,0.0
130,32.25,67.8155,87.1218,95.3336,99.0147,25.5357,0.0856688,1.74094,18.2851,27.424,12.1554,0.0,0.0
132,32.75,69.1895,89.5278,107.833,99.0143,24.7946,0.0870477,1.76878,18.2507,27.3339,12.4195,0.0,0.0
134,33.25,70.4089,91.1819,101.895,99.0159,23.7876,0.0883803,1.79473,18.2148,27.1638,12.7915,0.0,0.0
136,33.75,71.8062,93.1171,100.512,99.02,24.1938,0.0897103,1.81879,18.1815,27.0137,12.64,0.0,0.0
138,34.25,72.6936,94.6505,88.8649,99.0314,24.633,0.091013,1.84124,18.1507,26.8435,12.4797,0.0,0.0
140,34.75,74.3143,96.4995,109.25,99.0457,23.7535,0.0920683,1.86209,18.1258,26.7234,12.8071,0.0,0.0
142,35.25,74.7417,98.1171,100.583,99.0388,23.6709,0.0936548,1.88184,18.1014,26.5332,12.8377,0.0,0.0
144,35.75,76.3815,100.094,93.1369,99.0515,23.4248,0.0949399,1.90041,18.0779,26.4231,12.9326,0.0,0.0
146,36.25,77.9062,102.26,98.3005,99.038,24.9756,0.0957882,1.91793,18.0588,26.3331,12.3564,0.0,0.0
148,36.75,79.2471,103.643,96.3122,99.0368,23.0151,0.0972387,1.93437,18.0481,26.0828,13.0895,0.0,0.0
150,37.25,80.7152,105.882,101.075,99.0355,24.4155,0.0984137,1.94768,18.0298,26.0028,12.5596,0.0,0.0
152,37.75,81.9819,106.728,93.672,99.0437,23.6977,0.0997461,1.96337,18.0115,25.8226,12.828,0.0,0.0
154,38.25,82.5764,108.673,88.4985,99.0433,21.5914,0.101168,1.97608,17.9935,25.6224,13.6629,0.0,0.0
156,38.75,83.7493,110.658,94.6894,99.0429,22.3186,0.102554,1.98991,17.9723,25.4723,13.3657,0.0,0.0
158,39.25,85.2021,112.396,104.701,99.0368,22.9488,0.103887,2.00429,17.9493,25.3822,13.1154,0.0,0.0
160,39.75,86.0963,114.117,98.4676,99.0519,24.6628,0.105357,2.01043,17.9222,25.142,12.4707,0.0,0.0
162,40.25,87.4332,115.918,104.233,99.0433,23.9748,0.106548,2.02899,17.8927,24.9719,12.7237,0.0,0.0
164,40.75,88.8574,117.152,101.382,99.0609,24.1364,0.107925,2.04402,17.8592,24.8417,12.665,0.0,0.0
166,41.25,89.4735,118.708,90.1144,99.0462,20.7193,0.109041,2.06219,17.8235,24.6916,14.033,0.0,0.0
168,41.75,90.8192,120.888,89.2687,99.0551,19.9402,0.109944,2.0823,17.7945,24.4714,14.3775,0.0,0.0
170,42.25,91.9601,122.237,89.6243,99.0613,19.7464,0.111371,2.10351,17.7638,24.3813,14.4657,0.0,0.0
172,42.75,92.849,123.483,100.082,99.0813,24.0047,0.112526,2.12514,17.7324,24.1812,12.716,0.0,0.0
174,43.25,95.2498,125.383,103.976,99.0564,20.9546,0.114099,2.14734,17.6999,24.031,13.9326,0.0,0.0
176,43.75,95.7225,127.15,97.5113,99.0625,19.9693,0.115373,2.16952,17.6673,23.8709,14.3651,0.0,0.0
178,44.25,96.2415,129.066,85.8377,99.0653,20.2786,0.117199,2.19334,17.6409,23.6207,14.2275,0.0,0.0
180,44.75,98.0701,130.386,89.9121,99.0735,21.6709,0.118678,2.21788,17.6115,23.4405,13.6327,0.0,0.0
182,45.25,99.0941,132.228,78.4004,99.0658,21.3654,0.119876,2.23777,17.5806,23.3204,13.7593,0.0,0.0
184,45.75,100.087,133.805,91.8501,99.0943,19.4743,0.121636,2.26653,17.5555,23.1703,14.5932,0.0,0.0
186,46.25,101.516,135.545,83.6746,99.0641,21.6806,0.123773,2.28983,17.5166,23.0302,13.6278,0.0,0.0
188,46.75,102.728,137.162,85.6668,99.0825,20.1538,0.126009,2.31933,17.4852,22.7799,14.2845,0.0,0.0
190,47.25,104.061,138.826,78.5111,99.0747,21.979,0.128277,2.34323,17.4423,22.6298,13.5061,0.0,0.0
192,47.75,105.044,140.521,76.7807,99.0813,19.772,0.130113,2.36258,17.4076,22.4897,14.4559,0.0,0.0
194,48.25,106.126,142.426,89.3282,99.0719,19.5863,0.132786,2.3889,17.3661,22.2895,14.5397,0.0,0.0
196,48.75,107.868,143.594,86.0499,99.0817,18.8467,0.134951,2.4198,17.3205,22.0793,14.8858,0.0,0.0
198,49.25,108.955,145.531,86.814,99.0747,17.8777,0.136705,2.45063,17.2836,21.8792,15.3586,0.0,0.0
200,49.75,110.029,147.547,90.9624,99.0927,21.7178,0.139445,2.48082,17.2435,21.739,13.615,0.0,0.0
202,50.25,110.975,149.001,83.9639,99.0854,19.0084,0.141665,2.50528,17.2019,21.4988,14.8095,0.0,0.0
204,50.75,112.319,150.805,85.237,99.1041,20.5495,0.145439,2.53562,17.1378,21.3787,14.112,0.0,0.0
206,51.25,113.087,153.042,91.773,99.1123,21.1681,0.147369,2.56019,17.1003,21.1685,13.8467,0.0,0.0
208,51.75,114.56,154.397,88.8809,99.1074,17.9533,0.148623,2.58009,17.0721,20.9183,15.3237,0.0,0.0
210,52.25,115.811,156.136,93.6399,99.0993,16.8261,0.150766,2.61229,17.0239,20.8082,15.9046,0.0,0.0
212,52.75,117.116,158.026,81.2764,99.1115,17.5862,0.152894,2.63838,16.9725,20.598,15.5094,0.0,0.0
214,53.25,117.791,159.554,82.1931,99.1135,18.446,0.154968,2.66623,16.9197,20.3178,15.0815,0.0,0.0
216,53.75,119.25,161.445,83.5387,99.1258,18.2766,0.15735,2.70706,16.8661,20.1176,15.1653,0.0,0.0
218,54.25,120.453,162.982,82.7014,99.1086,18.7471,0.159279,2.7401,16.813,19.9675,14.9358,0.0,0.0
220,54.75,121.779,165.028,76.712,99.1254,17.1975,0.161252,2.75419,16.7627,19.6772,15.7112,0.0,0.0
222,55.25,122.83,166.322,69.4601,99.1131,16.4455,0.163219,2.78469,16.7155,19.5471,16.1111,0.0,0.0
224,55.75,124.143,168.155,90.0945,99.1356,17.2261,0.164812,2.81516,16.6772,19.367,15.6971,0.0,0.0
226,56.25,125.299,169.982,85.1821,99.114,18.6215,0.167471,2.8477,16.6333,19.2068,14.9965,0.0,0.0
228,56.75,126.414,171.149,64.8408,99.134,16.9808,0.169626,2.88112,16.5862,18.9266,15.8257,0.0,0.0
230,57.25,127.719,172.942,82.1557,99.1274,17.7172,0.172613,2.91782,16.5295,18.7364,15.4443,0.0,0.0
232,57.75,128.407,174.805,84.6753,99.1442,16.7304,0.175033,2.9562,16.467,18.5562,15.9598,0.0,0.0
234,58.25,130.027,176.708,72.7621,99.1274,17.0982,0.178016,2.98729,16.4163,18.3461,15.7633,0.0,0.0
236,58.75,131.223,178.546,81.4023,99.1507,16.792,0.181352,3.03767,16.345,18.1459,15.9275,0.0,0.0
238,59.25,132.088,180.785,73.4429,99.1356,16.3432,0.184054,3.07848,16.2873,17.8656,16.1691,0.0,0.0
240,59.75,133.817,182.666,82.4663,99.1548,16.1091,0.187851,3.13575,16.219,17.7055,16.3003,0.0,0.0
242,60.25,134.346,183.944,70.3493,99.134,16.8819,0.190926,3.18214,16.1444,17.4353,15.878,0.0,0.0
244,60.75,135.606,185.788,74.7634,99.1544,15.5559,0.19517,3.23192,16.0685,17.2851,16.6136,0.0,0.0
246,61.25,137.734,188.473,80.8909,99.1409,14.0559,0.198607,3.28323,15.9931,17.0549,17.5219,0.0,0.0
248,61.75,139.404,190.444,88.4138,99.1479,15.1722,0.203319,3.3248,15.9058,16.8147,16.837,0.0,0.0
250,62.25,140.082,191.243,76.2479,99.1401,16.1963,0.207135,3.38626,15.8115,16.6946,16.2505,0.0,0.0
252,62.75,141.04,194.211,78.695,99.1446,14.8854,0.210227,3.43604,15.7352,16.2442,17.0079,0.0,0.0
254,63.25,142.114,196.547,74.8885,99.1381,13.9516,0.21532,3.50184,15.652,16.0841,17.5884,0.0,0.0
256,63.75,143.801,198.295,70.7867,99.1425,17.7893,0.219446,3.55514,15.5654,15.9139,15.4092,0.0,0.0
258,64.25,145.581,200.6,87.7123,99.1503,14.3644,0.224557,3.6212,15.4796,15.6237,17.328,0.0,0.0
260,64.75,146.74,202.673,80.9993,99.1528,15.661,0.228697,3.6747,15.396,15.3935,16.5531,0.0,0.0
262,65.25,147.723,204.92,75.3816,99.1617,14.2377,0.233406,3.729,15.3186,15.1733,17.4085,0.0,0.0
264,65.75,149.431,206.954,65.2507,99.1462,14.6365,0.237221,3.78285,15.2474,14.833,17.1593,0.0,0.0
266,66.25,150.342,208.801,69.0327,99.1703,14.8075,0.241656,3.82647,15.1742,14.7329,17.0573,0.0,0.0
268,66.75,151.733,210.794,70.2776,99.1499,12.8539,0.245248,3.87184,15.101,14.3526,18.3245,0.0,0.0
270,67.25,154.131,213.572,78.2973,99.1564,13.9865,0.248922,3.91763,15.0417,14.1324,17.5677,0.0,0.0
272,67.75,154.879,215.93,69.4914,99.1438,13.3031,0.252586,3.96348,14.9936,13.8621,18.0158,0.0,0.0
274,68.25,156.148,217.698,81.3046,99.1642,12.7748,0.255554,4.0085,14.9294,13.732,18.3812,0.0,0.0
276,68.75,157.672,219.8,86.8086,99.1446,13.4194,0.257958,4.05412,14.8773,13.5318,17.9379,0.0,0.0
278,69.25,158.859,222.221,74.826,99.1319,12.9345,0.262029,4.09929,14.8221,13.0915,18.2668,0.0,0.0
280,69.75,159.912,223.807,61.9365,99.1405,15.0656,0.265327,4.14329,14.7657,12.8312,16.8996,0.0,0.0
282,70.25,160.748,225.608,96.4434,99.1417,12.3663,0.267999,4.1856,14.72,12.8012,18.6707,0.0,0.0
284,70.75,161.737,227.895,77.154,99.1466,14.8346,0.271434,4.21987,14.6758,12.4109,17.0388,0.0,0.0
286,71.25,163.981,230.249,78.5462,99.143,15.7459,0.274216,4.25646,14.6334,12.1206,16.5037,0.0,0.0
288,71.75,165.502,232.497,77.5844,99.1315,13.3113,0.27694,4.29405,14.599,12.0305,18.0092,0.0,0.0
290,72.25,166.815,234.75,61.4282,99.1344,19.4708,0.279571,4.3245,14.5529,11.5201,14.5984,0.0,0.0
292,72.75,168.154,236.435,73.965,99.1327,12.0411,0.282323,4.34916,14.5156,11.42,18.9089,0.0,0.0
294,73.25,169.361,238.544,77.0677,99.1385,12.3876,0.285112,4.39622,14.4434,11.0196,18.6549,0.0,0.0
296,73.75,170.212,240.134,64.534,99.1291,10.8837,0.288085,4.43434,14.3461,10.8895,19.815,0.0,0.0
298,74.25,171.404,242.536,63.2173,99.1368,19.2464,0.291136,4.48584,14.2322,10.6093,14.7026,0.0,0.0
300,74.75,172.558,244.128,71.0752,99.1303,23.8601,0.294464,4.54612,14.14,10.2189,12.7746,0.0,0.0
302,75.25,173.553,245.703,80.6963,99.1323,18.308,0.297932,4.60788,14.0492,10.1589,15.1505,0.0,0.0
304,75.75,175.09,248.292,55.6029,99.1299,18.4696,0.301707,4.66953,13.9633,9.73853,15.0715,0.0,0.0
306,76.25,176.479,251.16,77.4394,99.1331,13.8974,0.305633,4.72696,13.8824,9.65846,17.6229,0.0,0.0
308,76.75,177.729,253.106,62.8303,99.1274,10.7918,0.308814,4.78023,13.817,9.18804,19.8909,0.0,0.0
310,77.25,179.77,255.486,74.5069,99.1319,11.5515,0.313034,4.83393,13.7431,9.07795,19.2811,0.0,0.0
312,77.75,180.711,257.095,73.5337,99.1074,11.8872,0.316452,4.88694,13.6645,8.84775,19.022,0.0,0.0
314,78.25,181.856,259.683,78.0928,99.1197,11.6426,0.319462,4.94408,13.5818,8.4474,19.2095,0.0,0.0
316,78.75,183.014,261.503,90.0571,99.1213,14.0431,0.321901,5.00315,13.4977,8.17716,17.5283,0.0,0.0
318,79.25,183.798,262.985,59.4383,99.1274,17.1552,0.323876,5.051,13.4296,7.86689,15.7334,0.0,0.0
320,79.75,185.756,265.588,86.085,99.1144,14.6408,0.32523,5.13162,13.3454,7.86689,17.1538,0.0,0.0
322,80.25,186.684,267.352,76.5647,99.1258,15.7947,0.326328,5.19692,13.251,7.16627,16.4744,0.0,0.0
324,80.75,187.891,270.41,77.8455,99.1107,28.056,0.327368,5.26907,13.1539,7.14626,11.3198,0.0,0.0
326,81.25,189.494,272.118,88.126,99.1238,12.7555,0.328211,5.34483,13.0567,6.79595,18.3911,0.0,0.0
328,81.75,191.122,274.864,66.0559,99.1029,15.0497,0.329587,5.41629,12.9683,6.55574,16.9057,0.0,0.0
330,82.25,192.358,277.309,52.8475,99.1176,27.2439,0.330702,5.48326,12.8881,6.33555,11.5839,0.0,0.0
332,82.75,193.816,279.928,63.0211,99.1082,23.5612,0.332597,5.53751,12.8231,6.09534,12.8857,0.0,0.0
334,83.25,195.025,281.729,69.5739,99.1009,13.6357,0.334131,5.59103,12.7704,5.64494,17.7905,0.0,0.0
336,83.75,196.46,283.944,77.3562,99.0952,16.1951,0.335374,5.63439,12.7278,5.47479,16.2471,0.0,0.0
338,84.25,197.468,286.32,51.2133,99.1025,14.2768,0.337534,5.67084,12.6933,5.18454,17.3785,0.0,0.0
340,84.75,198.281,288.69,55.2457,99.1029,17.3126,0.339284,5.70036,12.6653,4.85425,15.6493,0.0,0.0
342,85.25,200.464,290.878,59.6307,99.1005,11.5794,0.340428,5.71578,12.6536,4.76417,19.2566,0.0,0.0
344,85.75,201.336,292.128,50.75,99.087,19.1646,0.340916,5.72828,12.6539,4.27374,14.7363,0.0,0.0
346,86.25,202.679,294.103,67.5634,99.089,11.6453,0.3403,5.72394,12.6752,4.28375,19.2047,0.0,0.0
348,86.75,203.878,295.975,71.0592,99.0845,10.3325,0.339801,5.70742,12.7113,3.97348,20.2771,0.0,0.0
350,87.25,204.813,298.259,60.6458,99.0968,16.7316,0.337075,5.69404,12.7871,3.38296,15.9549,0.0,0.0
352,87.75,205.353,299.289,67.0421,99.0719,12.8861,0.334868,5.64036,12.8906,3.44301,18.295,0.0,0.0
354,88.25,206.763,300.531,73.5948,99.0862,15.2253,0.329649,5.59687,13.0152,3.13274,16.8001,0.0,0.0
356,88.75,207.442,301.383,62.4708,99.0739,15.6183,0.325422,5.55444,13.1528,2.89253,16.5704,0.0,0.0
358,89.25,207.811,302.402,82.8854,99.0858,13.9977,0.317769,5.48188,13.3094,2.64231,17.5541,0.0,0.0
360,89.75,209.105,303.226,93.9193,99.0739,12.4996,0.311571,5.37158,13.4767,2.35206,18.5683,0.0,0.0
362,90.25,209.198,303.871,64.5065,99.085,13.7066,0.30655,5.28223,13.6122,2.15188,17.7425,0.0,0.0
364,90.75,209.89,304.244,77.8386,99.0703,12.6923,0.302483,5.14918,13.7219,2.07181,18.4308,0.0,0.0
366,91.25,210.401,304.675,66.7467,99.0747,13.3737,0.299188,5.04141,13.9138,1.81159,17.9622,0.0,0.0
368,91.75,211.19,304.804,88.4458,99.0698,12.6392,0.281881,4.87835,14.0692,1.63143,18.4684,0.0,0.0
370,92.25,210.968,305.153,82.8571,99.0813,14.6726,0.267863,4.74626,14.2584,1.46128,17.1314,0.0,0.0
372,92.75,211.75,304.581,81.2741,99.0723,16.2056,0.250076,4.63928,14.4686,1.35118,16.2392,0.0,0.0
374,93.25,211.264,304.497,77.4539,99.0764,17.9909,0.235669,4.4373,14.7109,1.12098,15.3022,0.0,0.0
376,93.75,211.682,303.88,87.9925,99.067,21.2499,0.217337,4.2737,14.9719,1.06093,13.808,0.0,0.0
378,94.25,211.385,302.842,85.3973,99.0772,21.6705,0.202489,4.14118,15.2926,0.930815,13.6332,0.0,0.0
380,94.75,210.94,301.865,97.0701,99.0613,24.633,0.18506,4.03384,15.6506,0.850745,12.4824,0.0,0.0
382,95.25,210.202,300.324,95.2718,99.0776,28.1168,0.170943,3.76541,16.0531,0.680596,11.2974,0.0,0.0
384,95.75,210.346,298.132,104.544,99.058,31.6879,0.156549,3.54798,16.4804,0.670587,10.2232,0.0,0.0
386,96.25,209.419,296.341,109.86,99.0674,33.2685,0.142225,3.27209,16.8265,0.630552,9.7874,0.0,0.0
388,96.75,208.125,294.232,115.156,99.0555,34.9418,0.128616,3.04863,17.2356,0.590517,9.34617,0.0,0.0
390,97.25,207.105,291.814,117.375,99.0674,39.5695,0.115787,2.78621,17.5669,0.500438,8.23167,0.0,0.0
392,97.75,205.342,289.734,116.787,99.0502,47.2306,0.105395,2.57366,17.8869,0.490429,6.64267,0.0,0.0
394,98.25,203.956,285.975,121.024,99.0604,54.2572,0.0950209,2.33239,18.1924,0.510447,5.39958,0.0,0.0
396,98.75,202.357,282.66,122.075,99.0449,63.14,0.0848577,2.13695,18.4838,0.480421,4.03823,0.0,0.0
398,99.25,200.989,280.452,129.741,99.0568,72.4183,0.0757453,1.94518,18.7592,0.490429,2.80955,0.0,0.0
400,99.75,199.318,277.497,132.963,99.0449,83.3101,0.0675719,1.75972,18.9823,0.470412,1.55176,0.0,0.0
402,100.25,197.623,273.635,134.08,99.0453,87.3207,0.0602586,1.60949,19.2245,0.460403,1.13007,0.0,0.0
404,100.75,195.434,269.894,132.971,99.0412,86.9838,0.0537111,1.43691,19.4207,0.450394,1.16436,0.0,0.0
406,101.25,194.308,267.486,136.338,99.04,87.7393,0.0484077,1.29711,19.6016,0.450394,1.08669,0.0,0.0
408,101.75,191.557,263.63,136.106,99.0319,88.4603,0.0431518,1.16719,19.768,0.440386,1.01255,0.0,0.0
410,102.25,188.67,259.91,136.712,99.0363,88.6277,0.0388946,1.04695,19.9163,0.440386,0.995994,0.0,0.0
412,102.75,187.058,256.534,135.514,99.0274,88.2692,0.0351696,0.931437,20.0485,0.420368,1.03154,0.0,0.0
414,103.25,185.895,254.485,134.515,99.0404,89.1417,0.0319034,0.837876,20.1643,0.420368,0.944498,0.0,0.0
416,103.75,184.086,250.613,139.884,99.0106,89.0893,0.0303131,0.762092,20.2178,0.420368,0.947064,0.0,0.0
418,104.25,182.212,248.063,135.45,99.0294,88.8079,0.0275937,0.682945,20.3093,0.410359,0.977143,0.0,0.0
420,104.75,180.606,244.637,138.833,99.0265,89.1572,0.0253911,0.618837,20.3945,0.400351,0.941681,0.0,0.0
422,105.25,179.256,242.021,137.353,99.0139,88.6831,0.0234101,0.557286,20.4635,0.380333,0.988351,0.0,0.0
424,105.75,177.85,239.337,138.535,99.0053,88.7463,0.0216285,0.507431,20.5265,0.370324,0.981187,0.0,0.0
426,106.25,175.238,235.944,140.097,99.0155,89.5599,0.0200661,0.460269,20.5776,0.400351,0.900258,0.0,0.0
428,106.75,173.316,233.291,134.102,98.9971,88.9812,0.0186932,0.440164,20.6243,0.380333,0.956737,0.0,0.0
430,107.25,173.079,231.172,136.37,99.0053,88.8467,0.0175075,0.402912,20.6621,0.380333,0.971045,0.0,0.0
432,107.75,171.423,227.869,138.172,98.9955,89.6285,0.0164808,0.370154,20.6967,0.380333,0.891575,0.0,0.0
434,108.25,169.593,225.601,138.121,99.0078,88.7603,0.0156104,0.343619,20.7248,0.350307,0.979998,0.0,0.0
436,108.75,168.144,223.313,134.926,98.9882,88.6955,0.0148705,0.319448,20.7502,0.350307,0.984766,0.0,0.0
438,109.25,166.353,220.001,137.884,98.9792,88.8657,0.0142476,0.297458,20.7708,0.330289,0.96676,0.0,0.0
440,109.75,164.494,217.73,137.088,98.9877,88.5971,0.0137219,0.278194,20.7897,0.340298,0.994691,0.0,0.0
442,110.25,163.442,216.49,138.887,98.9743,88.256,0.0132733,0.261283,20.805,0.360315,1.02807,0.0,0.0
444,110.75,162.458,213.66,140.752,98.9788,89.7506,0.0128895,0.246441,20.8183,0.340298,0.877848,0.0,0.0
446,111.25,161.181,211.407,141.246,98.9747,89.3235,0.0125785,0.233387,20.83,0.370324,0.920267,0.0,0.0
448,111.75,159.759,208.625,136.685,98.9661,89.1835,0.0123266,0.221846,20.8394,0.350307,0.933552,0.0,0.0
450,112.25,158.501,207.261,136.253,98.962,88.9983,0.0119291,0.211627,20.8488,0.350307,0.951835,0.0,0.0
452,112.75,157.228,204.566,134.55,98.973,89.5882,0.0118221,0.202556,20.8565,0.32028,0.893575,0.0,0.0
454,113.25,155.803,202.717,137.34,98.9551,89.6308,0.0115947,0.194495,20.8626,0.330289,0.887678,0.0,0.0
456,113.75,154.665,200.249,135.256,98.951,89.2626,0.0114106,0.187965,20.8683,0.32028,0.924233,0.0,0.0
458,114.25,152.985,197.897,138.375,98.9461,89.0266,0.0112614,0.181671,20.8736,0.310272,0.94754,0.0,0.0
460,114.75,152.239,195.961,139.785,98.944,89.2339,0.0111144,0.17567,20.8779,0.310272,0.926486,0.0,0.0
462,115.25,150.681,194.264,137.888,98.9518,89.9072,0.0109718,0.16789,20.8827,0.290254,0.859769,0.0,0.0
464,115.75,149.727,191.814,137.295,98.9457,89.4452,0.0108467,0.165263,20.8866,0.290254,0.905426,0.0,0.0
466,116.25,148.578,189.934,139.834,98.9351,89.3959,0.0107367,0.160771,20.8915,0.290254,0.909401,0.0,0.0
468,116.75,147.576,188.064,133.155,98.9375,88.9812,0.0106393,0.157132,20.8956,0.290254,0.951332,0.0,0.0
470,117.25,146.751,185.919,137.734,98.9436,88.8564,0.010553,0.153304,20.9001,0.290254,0.964478,0.0,0.0
472,117.75,145.112,184.492,136.167,98.9306,88.8436,0.0104749,0.149411,20.9038,0.290254,0.964584,0.0,0.0
474,118.25,143.906,182.309,136.047,98.9232,90.0103,0.0104042,0.14563,20.9091,0.300263,0.846896,0.0,0.0
476,118.75,142.744,180.91,135.254,98.9334,88.98,0.0103469,0.142002,20.9133,0.290254,0.951079,0.0,0.0
478,119.25,142.305,178.779,137.697,98.9224,89.9983,0.0102653,0.138536,20.9172,0.290254,0.848019,0.0,0.0
480,119.75,140.879,177.414,136.589,98.9277,89.801,0.0101992,0.135253,20.9208,0.290254,0.868185,0.0,0.0
482,120.25,139.899,174.943,139.443,98.9175,89.1172,0.0101065,0.132083,20.9244,0.280245,0.935815,0.0,0.0
484,120.75,138.786,173.828,141.595,98.9232,89.2235,0.0100315,0.129055,20.928,0.250219,0.925649,0.0,0.0
486,121.25,137.719,171.876,134.34,98.9093,89.2804,0.00994126,0.126602,20.9308,0.270237,0.918664,0.0,0.0
488,121.75,136.794,170.518,135.128,98.9175,89.1514,0.00988883,0.123518,20.9325,0.260228,0.932382,0.0,0.0
490,122.25,135.324,168.796,137.457,98.915,89.8246,0.00979919,0.12102,20.9354,0.280245,0.864675,0.0,0.0
492,122.75,134.824,167.408,134.464,98.9175,88.6417,0.00968622,0.118436,20.9378,0.290254,0.983811,0.0,0.0
494,123.25,133.91,165.856,138.979,98.8848,88.9781,0.0095584,0.115838,20.941,0.280245,0.946868,0.0,0.0
496,123.75,133.445,164.404,134.68,98.9069,89.3533,0.009418,0.113338,20.9436,0.290254,0.911125,0.0,0.0
498,124.25,131.966,162.854,138.287,98.8938,89.1049,0.00927109,0.110957,20.9471,0.290254,0.934913,0.0,0.0
500,124.75,131.107,161.133,139.572,98.9101,89.6394,0.00911121,0.109942,20.9504,0.290254,0.882751,0.0,0.0
502,125.25,130.134,159.646,142.249,98.8905,89.2897,0.00894492,0.107685,20.9534,0.280245,0.916025,0.0,0.0
504,125.75,128.711,158.03,137.7,98.895,89.0769,0.00881021,0.105387,20.9559,0.270237,0.937835,0.0,0.0
506,126.25,128.549,156.637,139.066,98.8828,89.1359,0.00858616,0.103125,20.9584,0.260228,0.930793,0.0,0.0
508,126.75,127.449,155.713,137.121,98.8975,89.1731,0.00840467,0.100932,20.9609,0.260228,0.928383,0.0,0.0
510,127.25,126.767,153.99,133.886,98.8873,89.3409,0.0081662,0.0988214,20.9633,0.260228,0.910591,0.0,0.0
512,127.75,126.141,152.854,139.342,98.8905,89.7979,0.00797305,0.0968115,20.9657,0.260228,0.865124,0.0,0.0
514,128.25,125.167,151.55,137.487,98.8803,89.1269,0.00771892,0.0951834,20.9679,0.250219,0.931468,0.0,0.0
516,128.75,124.242,150.244,139.669,98.8848,89.1107,0.00751308,0.0932455,20.9698,0.270237,0.933514,0.0,0.0
518,129.25,123.432,149.128,136.999,98.8705,89.0444,0.00724252,0.0916757,20.9719,0.260228,0.938891,0.0,0.0
520,129.75,122.645,147.498,141.698,98.8791,88.9521,0.00702337,0.0897437,20.974,0.280245,0.948966,0.0,0.0
522,130.25,121.944,146.434,138.623,98.8762,89.5723,0.00672827,0.0881788,20.9762,0.290254,0.886388,0.0,0.0
524,130.75,120.472,145.319,138.212,98.8852,89.339,0.00648924,0.0864901,20.9784,0.290254,0.910601,0.0,0.0
526,131.25,119.84,144.012,139.207,98.8689,88.6982,0.00619239,0.0851222,20.9804,0.280245,0.973678,0.0,0.0
528,131.75,119.386,142.994,140.333,98.8824,89.5246,0.00595194,0.0836497,20.9822,0.270237,0.89172,0.0,0.0
530,132.25,118.365,141.661,137.805,98.8672,89.3533,0.00575717,0.0824569,20.9837,0.260228,0.90753,0.0,0.0
532,132.75,117.915,140.341,138.1,98.875,89.3622,0.00553119,0.0810984,20.9849,0.260228,0.90734,0.0,0.0
534,133.25,117.32,139.047,135.888,98.8652,89.1266,0.00518254,0.079998,20.9863,0.260228,0.930135,0.0,0.0
536,133.75,116.584,138.067,138.738,98.8734,88.9037,0.00508875,0.0789298,20.9874,0.250219,0.953335,0.0,0.0
538,134.25,115.473,137.308,141.087,98.8623,88.1692,0.00486626,0.0779054,20.9884,0.250219,1.02675,0.0,0.0
540,134.75,115.306,136.326,137.98,98.8766,89.2293,0.00468604,0.0770757,20.9894,0.250219,0.920842,0.0,0.0
542,135.25,113.894,134.353,139.129,98.864,89.3738,0.00449071,0.0760259,20.9903,0.250219,0.905172,0.0,0.0
544,135.75,113.443,133.679,139.656,98.8783,89.5095,0.00424973,0.0751755,20.9913,0.220193,0.892864,0.0,0.0
546,136.25,112.885,133.126,139.992,98.8648,88.6451,0.00417524,0.0744867,20.9921,0.230202,0.978678,0.0,0.0
548,136.75,112.22,131.744,138.946,98.864,89.0393,0.00404788,0.0736221,20.993,0.220193,0.938806,0.0,0.0
550,137.25,111.733,131.096,139.23,98.8509,88.9506,0.00394471,0.0729218,20.9939,0.210184,0.946566,0.0,0.0
552,137.75,111.327,130.382,135.441,98.8632,89.5525,0.00381568,0.0720891,20.9937,0.220193,0.887183,0.0,0.0
554,138.25,110.359,128.998,137.201,98.8538,88.3858,0.00371116,0.0714146,20.9926,0.210184,1.00395,0.0,0.0
556,138.75,109.951,128.097,137.521,98.8611,89.1448,0.00359621,0.0706588,20.992,0.210184,0.927932,0.0,0.0
558,139.25,109.239,127.054,140.641,98.8403,89.1862,0.00350311,0.0700466,20.9917,0.210184,0.92187,0.0,0.0
560,139.75,108.502,126.21,138.365,98.8538,88.9428,0.0034058,0.0695507,20.9914,0.230202,0.947608,0.0,0.0
562,140.25,108.359,125.604,136.746,98.8513,89.0998,0.00330727,0.0690022,20.9917,0.220193,0.931569,0.0,0.0
564,140.75,107.69,124.116,135.409,98.8513,89.0959,0.00322746,0.0684256,20.9919,0.220193,0.931958,0.0,0.0
566,141.25,106.606,123.192,140.845,98.8419,89.3804,0.00313636,0.0678778,20.9923,0.220193,0.902509,0.0,0.0
568,141.75,105.922,122.225,141.754,98.8578,89.4281,0.00306258,0.0673614,20.9928,0.230202,0.899171,0.0,0.0
570,142.25,105.511,121.464,141.106,98.8366,89.6998,0.0029942,0.0668403,20.9932,0.210184,0.870033,0.0,0.0
572,142.75,105.386,120.934,137.332,98.8468,89.2308,0.00293106,0.0663258,20.994,0.230202,0.917982,0.0,0.0
574,143.25,104.42,119.617,137.802,98.8378,88.4335,0.00287594,0.065909,20.9947,0.230202,0.997672,0.0,0.0
576,143.75,104.343,119.085,138.648,98.8374,89.0568,0.00282772,0.0654181,20.9952,0.230202,0.93464,0.0,0.0
578,144.25,103.526,118.236,137.335,98.8317,89.8448,0.00278866,0.0650204,20.9956,0.220193,0.855104,0.0,0.0
580,144.75,102.721,117.448,140.446,98.8354,89.8339,0.00275073,0.064545,20.996,0.210184,0.856522,0.0,0.0
582,145.25,102.515,116.823,137.598,98.824,89.4835,0.00272,0.06416,20.9962,0.220193,0.890538,0.0,0.0
584,145.75,101.469,115.999,136.325,98.8166,89.0603,0.0026838,0.0637454,20.9967,0.220193,0.932398,0.0,0.0
586,146.25,101.684,115.342,139.923,98.8215,89.3219,0.00265447,0.0633172,20.9973,0.220193,0.906532,0.0,0.0
588,146.75,100.633,114.396,141.958,98.8297,89.3184,0.00263072,0.0629704,20.9977,0.210184,0.907623,0.0,0.0
590,147.25,100.613,113.815,134.519,98.8252,89.3498,0.00257879,0.062592,20.9981,0.210184,0.904063,0.0,0.0
592,147.75,99.7671,112.807,136.072,98.8366,88.6358,0.00253673,0.0622855,20.9984,0.190167,0.977063,0.0,0.0
594,148.25,98.9849,111.928,140.459,98.8146,89.4184,0.00246874,0.0619397,20.9989,0.180158,0.896214,0.0,0.0
596,148.75,98.5273,111.208,139.475,98.8097,89.3285,0.00241368,0.0616597,20.9995,0.190167,0.904795,0.0,0.0
598,149.25,97.8912,110.855,139.797,98.8088,88.8265,0.00233519,0.0614108,21,0.190167,0.955263,0.0,0.0
600,149.75,97.676,109.782,135.844,98.8092,88.6316,0.00226238,0.0611895,21.0004,0.210184,0.975009,0.0,0.0
602,150.25,96.8758,109.318,139.411,98.8097,89.3645,0.00219508,0.0610102,21.0012,0.210184,0.901176,0.0,0.0
604,150.75,96.6019,108.309,142.679,98.8072,89.4425,0.00214123,0.0606701,21.0018,0.210184,0.893137,0.0,0.0
606,151.25,96.1476,107.754,139.347,98.8052,89.2238,0.0020982,0.0603947,21.0023,0.210184,0.914901,0.0,0.0
608,151.75,95.8444,107.508,139.685,98.7994,90.0785,0.00207986,0.0600463,21.0025,0.200175,0.828872,0.0,0.0
610,152.25,95.7698,106.788,143.542,98.7933,88.7207,0.00205727,0.0597641,21.0031,0.200175,0.964546,0.0,0.0
612,152.75,95.1918,106.294,140.368,98.7986,89.1769,0.00203898,0.0594521,21.0038,0.190167,0.919024,0.0,0.0
614,153.25,94.9612,105.414,139.952,98.8031,89.6111,0.00202416,0.0591994,21.0044,0.200175,0.875873,0.0,0.0
616,153.75,93.9825,105.043,143.454,98.7835,89.8925,0.00200885,0.0589529,21.0048,0.180158,0.84597,0.0,0.0
618,154.25,93.6841,103.915,138.782,98.7962,89.0141,0.00199349,0.0587313,21.0052,0.210184,0.935191,0.0,0.0
620,154.75,93.2514,103.544,138,98.7925,89.1975,0.00195818,0.0586265,21.0056,0.200175,0.916402,0.0,0.0
622,155.25,92.8966,102.92,138.117,98.8007,89.3432,0.00194593,0.0584471,21.0057,0.200175,0.9025,0.0,0.0
624,155.75,92.1322,102.066,136.362,98.7807,89.9386,0.00192497,0.0583019,21.0059,0.210184,0.84111,0.0,0.0
626,156.25,92.0304,101.481,141.924,98.799,89.2762,0.00189671,0.058073,21.0061,0.200175,0.909087,0.0,0.0
628,156.75,91.6263,100.76,137.539,98.7757,88.9335,0.00186855,0.0578876,21.0062,0.210184,0.941464,0.0,0.0
630,157.25,90.8659,100.756,139.233,98.7782,89.825,0.00184099,0.0577374,21.0063,0.220193,0.852221,0.0,0.0
632,157.75,90.7651,100.263,140.014,98.786,89.0971,0.00181273,0.0573854,21.0064,0.220193,0.925909,0.0,0.0
634,158.25,89.7772,99.4114,138.287,98.7733,89.5866,0.00178451,0.0572907,21.0065,0.210184,0.875611,0.0,0.0
636,158.75,89.9472,99.1981,139.013,98.7766,89.237,0.00175374,0.0570593,21.0065,0.190167,0.91098,0.0,0.0
638,159.25,89.3869,98.2976,140.193,98.7704,89.6564,0.0017217,0.0568718,21.0066,0.200175,0.868368,0.0,0.0
640,159.75,89.2449,97.6147,140.845,98.7729,90.3809,0.00169575,0.0566366,21.0071,0.200175,0.796407,0.0,0.0
642,160.25,88.6752,96.5583,142.509,98.77,89.9568,0.00167472,0.0564461,21.0075,0.210184,0.838329,0.0,0.0
644,160.75,87.5836,95.7747,138.958,98.7684,88.7986,0.00166576,0.0562084,21.0076,0.190167,0.954411,0.0,0.0
646,161.25,88.2394,96.193,142.052,98.7864,89.5719,0.00162416,0.0560085,21.0074,0.200175,0.878272,0.0,0.0
648,161.75,87.8129,95.5824,137.68,98.7672,89.2591,0.00159046,0.0558401,21.0072,0.190167,0.907907,0.0,0.0
650,162.25,87.4054,95.2636,137.063,98.7794,89.4669,0.00155817,0.0557036,21.0071,0.190167,0.888167,0.0,0.0
652,162.75,87.5227,94.7961,136.308,98.7664,89.3816,0.001532,0.0555931,21.007,0.200175,0.895534,0.0,0.0
654,163.25,87.0892,94.4365,138.727,98.7709,89.5188,0.00150622,0.0554816,21.0069,0.200175,0.882183,0.0,0.0
656,163.75,86.2808,93.6936,140.947,98.7549,89.2204,0.0014812,0.0554237,21.0068,0.220193,0.910691,0.0,0.0
658,164.25,85.698,92.5411,139.581,98.7655,89.1998,0.00146093,0.0553247,21.0067,0.180158,0.91372,0.0,0.0
660,164.75,84.8387,92.1509,140.32,98.7512,89.8087,0.00143327,0.0551611,21.0066,0.190167,0.851398,0.0,0.0
662,165.25,85.3109,91.9674,140.775,98.7525,89.2328,0.00141086,0.0550286,21.0064,0.190167,0.90922,0.0,0.0
664,165.75,85.1883,91.4971,139.761,98.7521,88.5897,0.00138146,0.0548102,21.0065,0.200175,0.974055,0.0,0.0
666,166.25,84.538,91.5652,141.306,98.7545,89.4921,0.00135764,0.0546332,21.0068,0.210184,0.883378,0.0,0.0
668,166.75,84.6994,90.8425,136.858,98.7496,89.5804,0.00133086,0.0545041,21.007,0.220193,0.87408,0.0,0.0
670,167.25,83.9988,90.2788,138.283,98.7566,90.6006,0.00130916,0.0544123,21.0072,0.200175,0.773139,0.0,0.0
672,167.75,83.7269,90.2505,142.383,98.7443,90.1119,0.00129158,0.0543379,21.0073,0.180158,0.820547,0.0,0.0
674,168.25,82.6915,88.8364,140.246,98.7533,89.4122,0.00128734,0.0542849,21.0075,0.190167,0.891274,0.0,0.0
676,168.75,82.4237,88.4446,139.832,98.7419,89.577,0.00128391,0.0542486,21.0075,0.200175,0.873724,0.0,0.0
678,169.25,82.5678,88.6452,138.935,98.7566,89.6812,0.00129113,0.0541776,21.0076,0.210184,0.864626,0.0,0.0
680,169.75,82.2204,88.2708,139.575,98.7451,89.1103,0.00129698,0.05412,21.0077,0.210184,0.920873,0.0,0.0
682,170.25,82.2205,87.9885,136.023,98.7529,88.4006,0.00130171,0.0540587,21.0077,0.220193,0.993301,0.0,0.0
684,170.75,82.2426,87.6565,138.218,98.741,88.6366,0.00130555,0.053996,21.0078,0.220193,0.968305,0.0,0.0
686,171.25,81.3187,87.2663,139.714,98.7533,89.2707,0.00130615,0.0539451,21.008,0.220193,0.905477,0.0,0.0
688,171.75,81.404,87.0047,138.698,98.7439,89.9204,0.0013027,0.0539178,21.0085,0.200175,0.839588,0.0,0.0
690,172.25,80.7749,85.8393,140.275,98.7476,89.2665,0.00129635,0.0538957,21.0087,0.230202,0.905386,0.0,0.0
692,172.75,79.8879,84.9424,140.92,98.7267,90.2696,0.00129364,0.0538223,21.009,0.210184,0.803262,0.0,0.0
694,173.25,80.4944,85.9337,141.735,98.7439,89.158,0.00128151,0.0537628,21.0092,0.190167,0.915964,0.0,0.0
696,173.75,80.3952,85.3541,140.669,98.7463,89.7847,0.00127169,0.0536729,21.0094,0.200175,0.853353,0.0,0.0
698,174.25,80.2781,85.0077,139.588,98.7447,90.7979,0.00126373,0.0536001,21.0096,0.220193,0.752552,0.0,0.0
700,174.75,79.697,84.4422,138.411,98.7325,90.1336,0.00124977,0.0534995,21.0097,0.200175,0.817309,0.0,0.0
702,175.25,80.0535,84.5553,137.938,98.7476,89.6987,0.00123845,0.0534566,21.0098,0.210184,0.862065,0.0,0.0
704,175.75,79.2237,83.5265,142.884,98.7349,90.0836,0.00121417,0.0533694,21.0099,0.220193,0.822509,0.0,0.0
706,176.25,79.1659,83.4672,139.229,98.7484,91.0313,0.0011809,0.0532988,21.0102,0.210184,0.729865,0.0,0.0
708,176.75,79.3394,83.0286,134.952,98.7337,88.6196,0.00112835,0.0532415,21.0103,0.200175,0.969364,0.0,0.0
710,177.25,78.6678,82.9041,142.518,98.741,89.3998,0.00106274,0.0531405,21.0105,0.180158,0.891405,0.0,0.0
712,177.75,77.9964,82.8384,139.271,98.7292,89.4746,0.000986638,0.0530586,21.0106,0.190167,0.882827,0.0,0.0
714,178.25,78.4678,82.3488,137.466,98.7361,89.6808,0.000904345,0.0529412,21.0107,0.170149,0.862809,0.0,0.0
716,178.75,78.1365,81.6033,142.104,98.7239,89.2324,0.00082131,0.0528,21.0108,0.150131,0.906662,0.0,0.0
718,179.25,77.4483,81.6221,140.498,98.7463,89.9603,0.000739313,0.0526711,21.0109,0.150131,0.835829,0.0,0.0
720,179.75,77.3679,81.2159,138.585,98.7267,88.9773,0.000661768,0.0525535,21.0109,0.16014,0.932596,0.0,0.0
722,180.25,77.2232,80.8143,138.897,98.7423,89.4211,0.000588941,0.0524509,21.0114,0.130114,0.889378,0.0,0.0
724,180.75,76.9956,80.503,140.697,98.7308,89.77,0.000529951,0.0523613,21.0118,0.150131,0.853415,0.0,0.0
726,181.25,76.8677,80.174,140.045,98.7451,89.8991,0.00048086,0.0522887,21.0121,0.16014,0.841826,0.0,0.0
728,181.75,76.5646,80.2713,141.839,98.7337,89.6979,0.000439918,0.0521882,21.0124,0.140123,0.860881,0.0,0.0
730,182.25,76.4848,79.5313,139.391,98.7541,89.9297,0.000417228,0.0521069,21.0126,0.170149,0.839588,0.0,0.0
732,182.75,75.8847,79.7422,141.032,98.7369,89.6587,0.000408275,0.0520132,21.0128,0.140123,0.865093,0.0,0.0
734,183.25,76.1149,78.9368,139.726,98.7492,90.3425,0.000401023,0.0519373,21.0129,0.150131,0.798064,0.0,0.0
736,183.75,75.6038,78.9463,137.366,98.741,90.0006,0.000395148,0.0518343,21.013,0.140123,0.831328,0.0,0.0
738,184.25,75.3623,78.2588,142.044,98.7553,90.1696,0.000411543,0.0517508,21.0128,0.170149,0.8158,0.0,0.0
740,184.75,75.1653,78.449,141.484,98.7631,89.9638,0.000424823,0.0516539,21.0123,0.170149,0.837003,0.0,0.0
742,185.25,74.8242,78.4877,135.549,98.7655,89.6149,0.000439343,0.0515492,21.0119,0.170149,0.872073,0.0,0.0
744,185.75,74.5837,77.6502,139.409,98.7635,89.4122,0.000451104,0.0514644,21.0114,0.180158,0.8922,0.0,0.0
746,186.25,74.7432,77.2993,136.771,98.7639,89.5134,0.000466527,0.0513956,21.011,0.180158,0.882095,0.0,0.0
748,186.75,73.8963,76.8923,142.474,98.7774,89.1401,0.000484327,0.0513677,21.0111,0.170149,0.9208,0.0,0.0
750,187.25,74.4087,76.9222,138.569,98.7733,90.1987,0.000503989,0.0513451,21.0112,0.16014,0.814542,0.0,0.0
752,187.75,73.8216,76.8791,141.448,98.7835,89.9359,0.000524635,0.0513118,21.0113,0.180158,0.841639,0.0,0.0
754,188.25,73.8011,76.0242,141.99,98.7921,90.0033,0.000541358,0.0512712,21.0114,0.210184,0.835695,0.0,0.0
756,188.75,73.4249,76.0263,139.782,98.8043,90.6235,0.000560804,0.0512311,21.0114,0.180158,0.775214,0.0,0.0
758,189.25,73.4061,75.9356,139.467,98.8101,90.7801,0.000581865,0.051192,21.0115,0.180158,0.760248,0.0,0.0
760,189.75,73.0837,75.4695,141.053,98.8162,90.7309,0.000598925,0.0511604,21.0115,0.170149,0.765669,0.0,0.0
762,190.25,73.1215,75.4501,135.548,98.8276,90.325,0.000627697,0.0510931,21.0113,0.170149,0.806916,0.0,0.0
764,190.75,72.607,75.1541,141.716,98.8333,89.7095,0.000651003,0.0510386,21.0109,0.190167,0.868768,0.0,0.0
766,191.25,73.0989,74.9875,143.248,98.8382,90.3452,0.000693569,0.0509945,21.0106,0.180158,0.805879,0.0,0.0
768,191.75,72.3175,74.9717,138.538,98.8587,90.9968,0.000736582,0.0509587,21.0104,0.200175,0.743276,0.0,0.0
770,192.25,72.4183,74.5783,140.353,98.8611,89.7506,0.000779105,0.0509298,21.0102,0.200175,0.867181,0.0,0.0
772,192.75,72.0914,73.7543,140.926,98.8766,89.9188,0.000813548,0.0508786,21.01,0.230202,0.851793,0.0,0.0
774,193.25,72.0261,74.2901,139.939,98.8799,90.0607,0.000842694,0.0508371,21.0099,0.210184,0.837949,0.0,0.0
776,193.75,71.9615,73.988,144.639,98.8885,91.0359,0.000863019,0.0507481,21.0098,0.190167,0.742123,0.0,0.0
778,194.25,71.8758,73.7689,141.713,98.9158,90.632,0.000876528,0.0506759,21.0099,0.200175,0.784488,0.0,0.0
780,194.75,71.2375,73.2024,142.748,98.9081,89.3839,0.00088747,0.0506313,21.0103,0.190167,0.908162,0.0,0.0
782,195.25,71.2809,72.9218,139.948,98.9306,90.1119,0.000896333,0.0505952,21.0105,0.180158,0.837449,0.0,0.0
784,195.75,71.1007,72.7372,141.246,98.9489,89.682,0.000892286,0.0505798,21.0107,0.190167,0.882004,0.0,0.0
786,196.25,70.402,71.9447,139.592,98.9444,90.1805,0.000889008,0.0505674,21.0109,0.180158,0.831881,0.0,0.0
788,196.75,69.8991,71.2219,141.15,98.9877,89.9797,0.000881103,0.0505712,21.0111,0.200175,0.855797,0.0,0.0
790,197.25,70.6085,72.1835,142.399,98.9943,91.3832,0.000869974,0.0505743,21.0112,0.200175,0.71756,0.0,0.0
792,197.75,70.4436,72.3016,140.681,99.0376,90.8499,0.000849739,0.0505621,21.0113,0.230202,0.773986,0.0,0.0
794,198.25,70.3963,72.0636,142.545,99.0188,91.1084,0.000833349,0.0505392,21.0113,0.200175,0.746796,0.0,0.0
796,198.75,70.0327,71.4654,141.123,99.0609,90.8192,0.000808857,0.0505206,21.0114,0.220193,0.779118,0.0,0.0
798,199.25,69.3169,71.1559,142.46,99.069,91.103,0.000789018,0.0504982,21.0115,0.200175,0.751879,0.0,0.0
800,199.75,69.3608,70.5091,139.678,99.0894,90.9398,0.000767965,0.0504735,21.0115,0.180158,0.769809,0.0,0.0
802,200.25,69.5533,71.275,141.604,99.114,91.0433,0.000750912,0.0504974,21.0115,0.200175,0.761825,0.0,0.0
804,200.75,69.5783,71.0742,140.764,99.1405,91.0324,0.000738345,0.0505561,21.0116,0.200175,0.765297,0.0,0.0
806,201.25,69.1647,70.7164,136.018,99.1474,91.458,0.000728165,0.0506474,21.0116,0.170149,0.724088,0.0,0.0
808,201.75,69.2956,70.6742,141.664,99.2005,91.091,0.000719919,0.0507609,21.0116,0.180158,0.764963,0.0,0.0
810,202.25,69.3202,70.2691,139.24,99.1981,91.0196,0.000715733,0.0508747,21.0116,0.16014,0.771766,0.0,0.0
812,202.75,69.1717,70.6984,141.767,99.2532,90.9553,0.000712342,0.0509865,21.0116,0.180158,0.783093,0.0,0.0
814,203.25,68.3978,69.3966,139.06,99.2704,90.9541,0.000704611,0.0511049,21.0114,0.170149,0.784758,0.0,0.0
816,203.75,68.2707,69.598,141.461,99.3161,91.2096,0.000698349,0.0512008,21.011,0.16014,0.763736,0.0,0.0
818,204.25,68.982,69.7564,141.074,99.3166,91.2189,0.000677085,0.0513004,21.0107,0.150131,0.762858,0.0,0.0
820,204.75,68.2485,69.6272,144.507,99.3676,90.8894,0.00065986,0.0514008,21.0104,0.140123,0.799923,0.0,0.0
822,205.25,68.5214,69.0729,137.868,99.3741,92.1391,0.00063672,0.0514821,21.0102,0.140123,0.67803,0.0,0.0
824,205.75,68.402,68.8743,139.203,99.4109,91.0534,0.000609706,0.0515757,21.01,0.170149,0.787665,0.0,0.0
826,206.25,67.8748,69.4062,140.591,99.4362,90.6448,0.000587825,0.0516515,21.0099,0.170149,0.830284,0.0,0.0
828,206.75,68.3592,68.8433,138.076,99.4689,91.739,0.000570101,0.0517268,21.0098,0.150131,0.725604,0.0,0.0
830,207.25,67.0669,68.3416,142.455,99.4914,91.2712,0.000574421,0.0517878,21.0099,0.16014,0.77349,0.0,0.0
832,207.75,67.0406,68.2669,143.437,99.5191,91.5375,0.00057792,0.0518511,21.0102,0.170149,0.749862,0.0,0.0
834,208.25,67.3758,68.2325,139.952,99.5514,91.7549,0.000613148,0.0519024,21.0105,0.170149,0.731489,0.0,0.0
836,208.75,67.5715,68.3123,137.556,99.6,90.6669,0.000641683,0.0519439,21.0107,0.170149,0.842861,0.0,0.0
838,209.25,67.392,68.2208,140.784,99.6168,91.3076,0.000664797,0.0519775,21.0108,0.180158,0.781207,0.0,0.0
840,209.75,67.2925,67.7047,137.619,99.6682,91.2596,0.000710951,0.0519639,21.011,0.170149,0.790563,0.0,0.0
842,210.25,66.9702,68.1012,142.995,99.7177,92.2166,,0.0519529,,0.170149,0.701439,0.0,0.0
844,210.75,66.771,67.5633,136.877,99.7524,91.5724,,0.0519302,,0.180158,0.767441,0.0,0.0
846,211.25,66.9726,67.9232,140.912,99.7826,90.9975,,0.0519117,,0.170149,0.826639,0.0,0.0
848,211.75,66.9564,67.5623,142.208,99.823,91.3762,,0.0518748,,0.180158,0.793023,0.0,0.0
850,212.25,66.8126,67.8117,145.401,99.8529,92.1239,,0.0518253,,0.200175,0.722607,0.0,0.0
852,212.75,66.3409,66.8882,136.412,99.8872,91.2879,,0.0517851,,0.200175,0.807463,0.0,0.0
854,213.25,66.3384,67.006,140.657,99.9121,91.0863,,,,0.210184,0.829525,0.0,0.0
856,213.75,66.056,67.1447,138.643,99.9664,91.9774,,,,0.200175,0.747077,0.0,0.0
858,214.25,66.2184,67.0122,137.173,99.9938,91.6003,,,,0.190167,0.786387,0.0,0.0
860,214.75,66.4396,67.003,138.514,100.039,92.0154,,,,0.190167,0.749895,0.0,0.0
862,215.25,66.1002,66.3643,140.757,100.061,91.4162,,,,0.190167,0.810477,0.0,0.0
864,215.75,66.0014,66.4299,139.164,100.111,93.2112,,,,0.220193,0.640491,0.0,0.0
866,216.25,65.6732,66.0313,139.505,100.127,91.7262,,,,0.200175,0.78596,0.0,0.0
868,216.75,65.3561,66.0752,135.622,100.167,92.7282,,,,0.190167,0.692135,0.0,0.0
870,217.25,65.2853,65.9912,140.211,100.182,92.2414,,,,0.170149,0.740667,0.0,0.0
872,217.75,65.2288,65.7381,141.254,100.209,91.5522,,,,0.180158,0.810419,0.0,0.0
874,218.25,65.2755,65.3812,138.865,100.225,92.8317,,,,0.180158,0.687285,0.0,0.0
876,218.75,65.1718,65.4345,138.313,100.283,92.6961,,,,0.180158,0.705592,0.0,0.0
878,219.25,64.9962,65.7036,141.113,100.269,92.3034,,,,0.190167,0.742497,0.0,0.0
880,219.75,64.8013,65.0318,138.279,100.308,92.1022,,,,0.210184,0.765537,0.0,0.0
882,220.25,64.5961,65.0585,136.329,100.308,92.5084,,,,0.190167,0.726065,0.0,0.0
884,220.75,64.9898,65.2335,142.458,100.35,92.522,,,,0.16014,0.728511,0.0,0.0