File: 01_Data/Cellulose_Insulation/FTIR/IS/Cellulose_Insulation_IS_S_220913_R7.dpt
7497.03,0.53120
7491.25,0.52959
7485.46,0.51533
7479.67,0.51770
7473.89,0.52751
7468.1,0.52167
7462.32,0.52960
7456.53,0.51596
7450.74,0.52478
7444.96,0.52696
7439.17,0.53036
7433.38,0.51462
7427.6,0.52845
7421.81,0.51718
7416.03,0.51513
7410.24,0.52215
7404.45,0.52232
7398.67,0.51923
7392.88,0.52395
7387.09,0.51749
7381.31,0.52518
7375.52,0.52100
7369.74,0.51944
7363.95,0.52079
7358.16,0.51630
7352.38,0.51952
7346.59,0.51361
7340.8,0.51890
7335.02,0.51720
7329.23,0.51714
7323.45,0.52013
7317.66,0.51112
7311.87,0.52097
7306.09,0.51769
7300.3,0.51453
7294.51,0.51535
7288.73,0.51468
7282.94,0.52343
7277.16,0.51389
7271.37,0.51886
7265.58,0.50954
7259.8,0.51864
7254.01,0.51876
7248.22,0.51134
7242.44,0.51879
7236.65,0.52329
7230.87,0.51307
7225.08,0.51753
7219.29,0.52092
7213.51,0.51516
7207.72,0.51732
7201.93,0.51704
7196.15,0.51728
7190.36,0.51467
7184.58,0.51791
7178.79,0.51424
7173,0.51727
7167.22,0.52013
7161.43,0.51470
7155.65,0.52096
7149.86,0.51778
7144.07,0.52247
7138.29,0.51611
7132.5,0.51260
7126.71,0.51144
7120.93,0.52062
7115.14,0.51511
7109.36,0.50785
7103.57,0.51356
7097.78,0.50755
7092,0.50752
7086.21,0.50965
7080.42,0.51197
7074.64,0.50528
7068.85,0.50451
7063.07,0.49991
7057.28,0.50482
7051.49,0.50816
7045.71,0.50378
7039.92,0.49820
7034.13,0.50431
7028.35,0.49790
7022.56,0.49573
7016.78,0.49665
7010.99,0.49386
7005.2,0.49539
6999.42,0.49635
6993.63,0.49757
6987.84,0.49739
6982.06,0.49361
6976.27,0.49227
6970.49,0.48718
6964.7,0.48912
6958.91,0.48832
6953.13,0.49029
6947.34,0.48806
6941.55,0.49221
6935.77,0.48798
6929.98,0.48504
6924.2,0.48841
6918.41,0.48994
6912.62,0.48491
6906.84,0.48533
6901.05,0.48866
6895.26,0.48603
6889.48,0.48278
6883.69,0.48892
6877.91,0.48579
6872.12,0.48878
6866.33,0.48755
6860.55,0.48683
6854.76,0.49224
6848.97,0.49171
6843.19,0.49035
6837.4,0.48642
6831.62,0.48571
6825.83,0.48016
6820.04,0.48581
6814.26,0.47846
6808.47,0.48624
6802.68,0.48536
6796.9,0.48944
6791.11,0.48929
6785.33,0.48263
6779.54,0.48869
6773.75,0.48625
6767.97,0.48889
6762.18,0.48667
6756.39,0.48915
6750.61,0.48336
6744.82,0.48486
6739.04,0.48463
6733.25,0.48698
6727.46,0.48968
6721.68,0.48658
6715.89,0.48618
6710.1,0.48422
6704.32,0.48783
6698.53,0.48517
6692.75,0.48388
6686.96,0.48950
6681.17,0.48524
6675.39,0.48974
6669.6,0.48278
6663.82,0.48332
6658.03,0.48817
6652.24,0.48699
6646.46,0.48882
6640.67,0.48574
6634.88,0.48738
6629.1,0.48466
6623.31,0.48700
6617.53,0.48754
6611.74,0.48998
6605.95,0.49120
6600.17,0.48842
6594.38,0.49323
6588.59,0.49142
6582.81,0.49232
6577.02,0.49211
6571.24,0.48934
6565.45,0.48559
6559.66,0.48901
6553.88,0.48966
6548.09,0.48763
6542.3,0.48866
6536.52,0.48866
6530.73,0.49103
6524.95,0.48936
6519.16,0.48749
6513.37,0.49380
6507.59,0.49302
6501.8,0.49205
6496.01,0.49015
6490.23,0.49176
6484.44,0.49499
6478.66,0.48843
6472.87,0.49027
6467.08,0.49365
6461.3,0.48553
6455.51,0.48889
6449.72,0.48994
6443.94,0.49350
6438.15,0.49380
6432.37,0.49190
6426.58,0.48774
6420.79,0.49114
6415.01,0.48868
6409.22,0.49231
6403.43,0.48451
6397.65,0.48961
6391.86,0.48840
6386.08,0.49121
6380.29,0.49379
6374.5,0.49183
6368.72,0.49114
6362.93,0.49455
6357.14,0.49623
6351.36,0.49450
6345.57,0.49338
6339.79,0.49312
6334,0.48980
6328.21,0.49329
6322.43,0.49365
6316.64,0.49544
6310.85,0.49449
6305.07,0.49668
6299.28,0.49569
6293.5,0.49205
6287.71,0.48978
6281.92,0.49650
6276.14,0.49566
6270.35,0.50027
6264.56,0.49904
6258.78,0.49882
6252.99,0.49615
6247.21,0.49750
6241.42,0.49654
6235.63,0.50030
6229.85,0.50243
6224.06,0.50149
6218.27,0.50316
6212.49,0.49770
6206.7,0.50302
6200.92,0.50507
6195.13,0.50351
6189.34,0.50053
6183.56,0.50310
6177.77,0.50656
6171.98,0.50557
6166.2,0.50674
6160.41,0.50838
6154.63,0.50957
6148.84,0.51069
6143.05,0.50954
6137.27,0.50997
6131.48,0.51011
6125.7,0.50916
6119.91,0.50945
6114.12,0.50956
6108.34,0.51094
6102.55,0.51134
6096.76,0.51163
6090.98,0.51376
6085.19,0.51287
6079.41,0.51208
6073.62,0.50935
6067.83,0.51574
6062.05,0.51104
6056.26,0.51450
6050.47,0.51204
6044.69,0.51214
6038.9,0.51021
6033.12,0.51304
6027.33,0.51122
6021.54,0.51098
6015.76,0.51394
6009.97,0.51082
6004.18,0.51259
5998.4,0.51347
5992.61,0.51334
5986.83,0.51295
5981.04,0.51104
5975.25,0.51320
5969.47,0.51235
5963.68,0.51029
5957.89,0.51302
5952.11,0.51493
5946.32,0.51428
5940.54,0.51115
5934.75,0.50989
5928.96,0.51345
5923.18,0.51446
5917.39,0.51247
5911.6,0.51517
5905.82,0.51193
5900.03,0.51065
5894.25,0.50886
5888.46,0.51038
5882.67,0.50977
5876.89,0.50919
5871.1,0.50984
5865.31,0.50876
5859.53,0.51036
5853.74,0.51078
5847.96,0.50967
5842.17,0.51174
5836.38,0.51069
5830.6,0.51070
5824.81,0.50834
5819.02,0.50810
5813.24,0.51036
5807.45,0.51154
5801.67,0.51151
5795.88,0.51123
5790.09,0.50913
5784.31,0.50691
5778.52,0.51153
5772.73,0.50823
5766.95,0.50867
5761.16,0.50857
5755.38,0.51076
5749.59,0.50837
5743.8,0.51040
5738.02,0.51278
5732.23,0.51295
5726.44,0.51221
5720.66,0.51257
5714.87,0.51062
5709.09,0.51098
5703.3,0.51068
5697.51,0.51182
5691.73,0.51162
5685.94,0.50965
5680.15,0.50905
5674.37,0.50951
5668.58,0.51102
5662.8,0.51074
5657.01,0.51251
5651.22,0.51167
5645.44,0.50949
5639.65,0.51461
5633.87,0.51110
5628.08,0.51281
5622.29,0.51197
5616.51,0.51115
5610.72,0.51214
5604.93,0.51192
5599.15,0.51383
5593.36,0.51151
5587.58,0.51315
5581.79,0.51115
5576,0.51326
5570.22,0.51334
5564.43,0.51264
5558.64,0.51318
5552.86,0.51268
5547.07,0.51480
5541.29,0.51360
5535.5,0.51433
5529.71,0.51257
5523.93,0.51416
5518.14,0.51362
5512.35,0.51322
5506.57,0.51354
5500.78,0.51405
5495,0.51601
5489.21,0.51436
5483.42,0.51322
5477.64,0.51431
5471.85,0.51396
5466.06,0.51498
5460.28,0.51683
5454.49,0.51594
5448.71,0.51658
5442.92,0.51483
5437.13,0.51608
5431.35,0.51648
5425.56,0.51686
5419.77,0.51770
5413.99,0.51652
5408.2,0.51535
5402.42,0.51661
5396.63,0.51799
5390.84,0.51759
5385.06,0.52019
5379.27,0.51945
5373.48,0.52053
5367.7,0.51808
5361.91,0.52010
5356.13,0.51833
5350.34,0.52149
5344.55,0.51974
5338.77,0.51811
5332.98,0.52116
5327.19,0.51910
5321.41,0.51880
5315.62,0.51927
5309.84,0.51714
5304.05,0.51497
5298.26,0.51403
5292.48,0.51247
5286.69,0.50868
5280.9,0.50786
5275.12,0.50475
5269.33,0.50198
5263.55,0.49956
5257.76,0.49472
5251.97,0.49351
5246.19,0.48983
5240.4,0.48734
5234.61,0.48425
5228.83,0.48241
5223.04,0.47876
5217.26,0.47853
5211.47,0.47846
5205.68,0.47817
5199.9,0.47645
5194.11,0.47698
5188.32,0.47685
5182.54,0.47571
5176.75,0.47653
5170.97,0.47779
5165.18,0.47985
5159.39,0.47983
5153.61,0.48182
5147.82,0.48274
5142.03,0.48225
5136.25,0.48307
5130.46,0.48418
5124.68,0.48482
5118.89,0.48643
5113.1,0.48795
5107.32,0.48788
5101.53,0.48823
5095.75,0.48780
5089.96,0.48928
5084.17,0.49069
5078.39,0.49040
5072.6,0.49058
5066.81,0.49040
5061.03,0.49219
5055.24,0.49117
5049.46,0.49128
5043.67,0.49032
5037.88,0.48973
5032.1,0.48969
5026.31,0.48884
5020.52,0.48723
5014.74,0.48768
5008.95,0.48707
5003.17,0.48495
4997.38,0.48387
4991.59,0.48058
4985.81,0.48045
4980.02,0.47890
4974.23,0.47688
4968.45,0.47479
4962.66,0.47250
4956.88,0.47076
4951.09,0.46916
4945.3,0.46769
4939.52,0.46404
4933.73,0.46189
4927.94,0.45754
4922.16,0.45416
4916.37,0.45332
4910.59,0.45042
4904.8,0.44771
4899.01,0.44684
4893.23,0.44283
4887.44,0.43982
4881.65,0.43775
4875.87,0.43368
4870.08,0.43140
4864.3,0.43047
4858.51,0.42645
4852.72,0.42496
4846.94,0.42259
4841.15,0.42049
4835.36,0.41873
4829.58,0.41702
4823.79,0.41388
4818.01,0.41147
4812.22,0.41004
4806.43,0.40923
4800.65,0.40595
4794.86,0.40565
4789.07,0.40405
4783.29,0.40262
4777.5,0.40208
4771.72,0.40152
4765.93,0.40040
4760.14,0.39989
4754.36,0.39903
4748.57,0.39811
4742.78,0.39806
4737,0.39725
4731.21,0.39807
4725.43,0.39795
4719.64,0.39755
4713.85,0.39807
4708.07,0.39829
4702.28,0.39789
4696.49,0.39893
4690.71,0.39978
4684.92,0.40034
4679.14,0.40149
4673.35,0.40267
4667.56,0.40368
4661.78,0.40376
4655.99,0.40548
4650.2,0.40545
4644.42,0.40717
4638.63,0.40794
4632.85,0.41015
4627.06,0.41058
4621.27,0.41257
4615.49,0.41335
4609.7,0.41493
4603.92,0.41818
4598.13,0.41964
4592.34,0.42033
4586.56,0.42188
4580.77,0.42357
4574.98,0.42468
4569.2,0.42634
4563.41,0.42804
4557.63,0.42889
4551.84,0.43147
4546.05,0.43307
4540.27,0.43369
4534.48,0.43374
4528.69,0.43422
4522.91,0.43446
4517.12,0.43715
4511.34,0.43984
4505.55,0.44006
4499.76,0.44098
4493.98,0.44001
4488.19,0.43922
4482.4,0.43989
4476.62,0.43837
4470.83,0.43632
4465.05,0.43471
4459.26,0.43226
4453.47,0.42964
4447.69,0.42696
4441.9,0.42307
4436.11,0.41965
4430.33,0.41605
4424.54,0.41287
4418.76,0.40761
4412.97,0.40365
4407.18,0.40015
4401.4,0.39809
4395.61,0.39699
4389.82,0.39966
4384.04,0.40015
4378.25,0.40167
4372.47,0.40415
4366.68,0.40568
4360.89,0.40602
4355.11,0.40641
4349.32,0.40625
4343.53,0.40425
4337.75,0.40392
4331.96,0.40162
4326.18,0.39976
4320.39,0.39817
4314.6,0.39648
4308.82,0.39493
4303.03,0.39319
4297.24,0.39155
4291.46,0.39051
4285.67,0.38912
4279.89,0.38843
4274.1,0.38900
4268.31,0.38933
4262.53,0.39036
4256.74,0.39162
4250.95,0.39215
4245.17,0.39303
4239.38,0.39369
4233.6,0.39427
4227.81,0.39526
4222.02,0.39605
4216.24,0.39578
4210.45,0.39587
4204.66,0.39751
4198.88,0.39748
4193.09,0.39766
4187.31,0.39805
4181.52,0.39972
4175.73,0.40036
4169.95,0.40147
4164.16,0.40220
4158.37,0.40287
4152.59,0.40160
4146.8,0.40084
4141.02,0.39975
4135.23,0.39828
4129.44,0.39665
4123.66,0.39372
4117.87,0.39077
4112.09,0.38770
4106.3,0.38392
4100.51,0.37977
4094.73,0.37462
4088.94,0.37087
4083.15,0.36676
4077.37,0.36145
4071.58,0.35739
4065.8,0.35337
4060.01,0.34834
4054.22,0.34315
4048.44,0.33828
4042.65,0.33453
4036.86,0.33052
4031.08,0.32788
4025.29,0.32566
4019.51,0.32483
4013.72,0.32495
4007.93,0.32587
4002.15,0.32646
3996.36,0.32759
3990.57,0.32950
3984.79,0.33132
3979,0.33316
3973.22,0.33404
3967.43,0.33560
3961.64,0.33765
3955.86,0.33951
3950.07,0.34231
3944.28,0.34496
3938.5,0.34752
3932.71,0.34959
3926.93,0.35237
3921.14,0.35485
3915.35,0.35627
3909.57,0.35855
3903.78,0.35986
3897.99,0.36168
3892.21,0.36391
3886.42,0.36577
3880.64,0.36688
3874.85,0.36857
3869.06,0.37003
3863.28,0.37296
3857.49,0.37586
3851.7,0.37753
3845.92,0.37893
3840.13,0.38142
3834.35,0.38190
3828.56,0.38261
3822.77,0.38275
3816.99,0.38323
3811.2,0.38208
3805.41,0.38217
3799.63,0.38206
3793.84,0.38088
3788.06,0.38051
3782.27,0.38022
3776.48,0.37859
3770.7,0.37763
3764.91,0.37563
3759.12,0.37340
3753.34,0.37208
3747.55,0.36826
3741.77,0.36428
3735.98,0.35988
3730.19,0.35383
3724.41,0.34591
3718.62,0.33459
3712.83,0.32011
3707.05,0.29737
3701.26,0.26789
3695.48,0.24347
3689.69,0.24595
3683.9,0.25151
3678.12,0.24786
3672.33,0.23181
3666.54,0.21565
3660.76,0.20390
3654.97,0.18733
3649.19,0.17697
3643.4,0.16948
3637.61,0.15985
3631.83,0.14838
3626.04,0.13228
3620.25,0.11859
3614.47,0.11643
3608.68,0.11078
3602.9,0.10355
3597.11,0.09625
3591.32,0.08934
3585.54,0.08371
3579.75,0.07852
3573.97,0.07316
3568.18,0.06912
3562.39,0.06455
3556.61,0.06233
3550.82,0.05809
3545.03,0.05512
3539.25,0.05325
3533.46,0.05089
3527.68,0.04846
3521.89,0.04686
3516.1,0.04523
3510.32,0.04331
3504.53,0.04246
3498.74,0.04099
3492.96,0.03942
3487.17,0.03882
3481.39,0.03763
3475.6,0.03702
3469.81,0.03609
3464.03,0.03521
3458.24,0.03466
3452.45,0.03464
3446.67,0.03440
3440.88,0.03362
3435.1,0.03383
3429.31,0.03295
3423.52,0.03278
3417.74,0.03248
3411.95,0.03308
3406.16,0.03279
3400.38,0.03258
3394.59,0.03257
3388.81,0.03278
3383.02,0.03220
3377.23,0.03223
3371.45,0.03273
3365.66,0.03238
3359.87,0.03325
3354.09,0.03285
3348.3,0.03264
3342.52,0.03349
3336.73,0.03338
3330.94,0.03407
3325.16,0.03550
3319.37,0.03642
3313.58,0.03683
3307.8,0.03734
3302.01,0.03755
3296.23,0.03838
3290.44,0.03877
3284.65,0.04003
3278.87,0.04077
3273.08,0.04135
3267.29,0.04272
3261.51,0.04423
3255.72,0.04642
3249.94,0.04779
3244.15,0.04900
3238.36,0.05114
3232.58,0.05273
3226.79,0.05434
3221,0.05557
3215.22,0.05733
3209.43,0.05887
3203.65,0.06140
3197.86,0.06265
3192.07,0.06453
3186.29,0.06654
3180.5,0.06766
3174.71,0.06978
3168.93,0.07221
3163.14,0.07442
3157.36,0.07607
3151.57,0.07865
3145.78,0.08068
3140,0.08311
3134.21,0.08471
3128.42,0.08691
3122.64,0.08865
3116.85,0.09126
3111.07,0.09317
3105.28,0.09521
3099.49,0.09680
3093.71,0.09864
3087.92,0.10028
3082.14,0.10127
3076.35,0.10321
3070.56,0.10476
3064.78,0.10655
3058.99,0.10811
3053.2,0.11005
3047.42,0.11107
3041.63,0.11278
3035.85,0.11375
3030.06,0.11442
3024.27,0.11467
3018.49,0.11548
3012.7,0.11396
3006.91,0.11289
3001.13,0.11084
2995.34,0.10861
2989.56,0.10627
2983.77,0.10141
2977.98,0.09390
2972.2,0.08473
2966.41,0.07905
2960.62,0.07578
2954.84,0.07206
2949.05,0.06830
2943.27,0.06437
2937.48,0.06336
2931.69,0.06246
2925.91,0.06140
2920.12,0.06099
2914.33,0.05941
2908.55,0.05845
2902.76,0.05888
2896.98,0.06013
2891.19,0.06266
2885.4,0.06394
2879.62,0.06568
2873.83,0.06685
2868.04,0.06806
2862.26,0.07068
2856.47,0.07360
2850.69,0.07726
2844.9,0.08326
2839.11,0.08965
2833.33,0.09651
2827.54,0.10272
2821.75,0.10964
2815.97,0.11518
2810.18,0.12001
2804.4,0.12533
2798.61,0.12885
2792.82,0.13236
2787.04,0.13395
2781.25,0.13637
2775.46,0.13795
2769.68,0.13973
2763.89,0.14123
2758.11,0.14281
2752.32,0.14384
2746.53,0.14434
2740.75,0.14492
2734.96,0.14666
2729.17,0.14722
2723.39,0.14941
2717.6,0.15181
2711.82,0.15433
2706.03,0.15775
2700.24,0.16057
2694.46,0.16343
2688.67,0.16635
2682.88,0.16917
2677.1,0.17147
2671.31,0.17383
2665.53,0.17594
2659.74,0.17744
2653.95,0.17918
2648.17,0.18126
2642.38,0.18322
2636.59,0.18534
2630.81,0.18768
2625.02,0.18953
2619.24,0.19135
2613.45,0.19329
2607.66,0.19527
2601.88,0.19731
2596.09,0.19892
2590.3,0.20043
2584.52,0.20147
2578.73,0.20289
2572.95,0.20383
2567.16,0.20390
2561.37,0.20401
2555.59,0.20419
2549.8,0.20438
2544.02,0.20441
2538.23,0.20477
2532.44,0.20549
2526.66,0.20666
2520.87,0.20755
2515.08,0.20898
2509.3,0.21160
2503.51,0.21569
2497.73,0.21980
2491.94,0.22340
2486.15,0.22616
2480.37,0.22941
2474.58,0.23233
2468.79,0.23500
2463.01,0.23649
2457.22,0.23872
2451.44,0.24073
2445.65,0.24332
2439.86,0.24599
2434.08,0.24816
2428.29,0.25096
2422.5,0.25446
2416.72,0.25693
2410.93,0.25980
2405.15,0.26194
2399.36,0.26412
2393.57,0.26607
2387.79,0.26824
2382,0.27041
2376.21,0.27204
2370.43,0.27377
2364.64,0.27476
2358.86,0.27586
2353.07,0.27733
2347.28,0.27890
2341.5,0.28065
2335.71,0.28206
2329.92,0.28256
2324.14,0.28311
2318.35,0.28316
2312.57,0.28385
2306.78,0.28322
2300.99,0.28224
2295.21,0.28103
2289.42,0.28054
2283.63,0.27920
2277.85,0.27816
2272.06,0.27552
2266.28,0.27338
2260.49,0.27043
2254.7,0.26920
2248.92,0.26859
2243.13,0.26906
2237.34,0.26835
2231.56,0.26768
2225.77,0.26808
2219.99,0.26874
2214.2,0.26919
2208.41,0.26912
2202.63,0.26865
2196.84,0.26722
2191.05,0.26549
2185.27,0.26280
2179.48,0.25972
2173.7,0.25638
2167.91,0.25315
2162.12,0.25067
2156.34,0.24832
2150.55,0.24667
2144.76,0.24498
2138.98,0.24365
2133.19,0.24364
2127.41,0.24388
2121.62,0.24475
2115.83,0.24548
2110.05,0.24608
2104.26,0.24738
2098.47,0.24827
2092.69,0.24868
2086.9,0.24902
2081.12,0.24897
2075.33,0.24738
2069.54,0.24586
2063.76,0.24456
2057.97,0.24390
2052.19,0.24364
2046.4,0.24416
2040.61,0.24528
2034.83,0.24800
2029.04,0.25173
2023.25,0.25540
2017.47,0.25904
2011.68,0.26251
2005.9,0.26439
2000.11,0.26606
1994.32,0.26765
1988.54,0.27030
1982.75,0.27217
1976.96,0.27345
1971.18,0.27496
1965.39,0.27590
1959.61,0.27746
1953.82,0.27906
1948.03,0.28098
1942.25,0.28307
1936.46,0.28504
1930.67,0.28656
1924.89,0.28791
1919.1,0.28818
1913.32,0.28851
1907.53,0.28844
1901.74,0.28864
1895.96,0.28754
1890.17,0.28684
1884.38,0.28560
1878.6,0.28498
1872.81,0.28389
1867.03,0.28243
1861.24,0.28078
1855.45,0.27862
1849.67,0.27645
1843.88,0.27357
1838.09,0.27122
1832.31,0.26835
1826.52,0.26523
1820.74,0.26139
1814.95,0.25831
1809.16,0.25402
1803.38,0.24779
1797.59,0.23854
1791.8,0.23330
1786.02,0.22915
1780.23,0.22102
1774.45,0.20932
1768.66,0.19137
1762.87,0.17057
1757.09,0.14816
1751.3,0.13125
1745.51,0.12017
1739.73,0.11592
1733.94,0.11550
1728.16,0.11818
1722.37,0.12313
1716.58,0.13084
1710.8,0.13850
1705.01,0.14465
1699.22,0.14705
1693.44,0.14468
1687.65,0.13983
1681.87,0.13149
1676.08,0.12185
1670.29,0.11236
1664.51,0.10566
1658.72,0.10341
1652.93,0.10441
1647.15,0.10490
1641.36,0.10356
1635.58,0.10388
1629.79,0.10404
1624,0.10368
1618.22,0.10194
1612.43,0.09830
1606.64,0.09487
1600.86,0.09468
1595.07,0.09515
1589.29,0.09760
1583.5,0.10520
1577.71,0.11686
1571.93,0.13107
1566.14,0.14008
1560.35,0.14354
1554.57,0.14232
1548.78,0.13837
1543,0.13242
1537.21,0.12195
1531.42,0.10942
1525.64,0.09224
1519.85,0.07190
1514.07,0.05965
1508.28,0.05742
1502.49,0.05964
1496.71,0.06191
1490.92,0.06015
1485.13,0.05552
1479.35,0.05060
1473.56,0.04622
1467.78,0.04241
1461.99,0.04023
1456.2,0.03975
1450.42,0.03867
1444.63,0.03827
1438.84,0.03695
1433.06,0.03529
1427.27,0.03559
1421.49,0.03710
1415.7,0.03947
1409.91,0.04085
1404.13,0.04090
1398.34,0.04130
1392.55,0.04091
1386.77,0.03948
1380.98,0.03801
1375.2,0.03721
1369.41,0.03774
1363.62,0.03907
1357.84,0.04036
1352.05,0.04085
1346.26,0.04082
1340.48,0.04028
1334.69,0.04035
1328.91,0.04138
1323.12,0.04104
1317.33,0.04132
1311.55,0.04338
1305.76,0.04633
1299.97,0.04708
1294.19,0.04622
1288.4,0.04406
1282.62,0.04154
1276.83,0.04132
1271.04,0.04098
1265.26,0.04107
1259.47,0.04225
1253.68,0.04336
1247.9,0.04333
1242.11,0.04331
1236.33,0.04312
1230.54,0.04310
1224.75,0.04401
1218.97,0.04444
1213.18,0.04346
1207.39,0.04223
1201.61,0.04285
1195.82,0.04323
1190.04,0.04138
1184.25,0.03743
1178.46,0.03252
1172.68,0.02940
1166.89,0.03004
1161.1,0.03238
1155.32,0.03302
1149.53,0.03246
1143.75,0.03181
1137.96,0.03068
1132.17,0.02873
1126.39,0.02849
1120.6,0.02811
1114.81,0.02990
1109.03,0.03087
1103.24,0.03156
1097.46,0.03069
1091.67,0.03037
1085.88,0.03024
1080.1,0.03102
1074.31,0.03330
1068.52,0.03565
1062.74,0.04033
1056.95,0.04377
1051.17,0.04289
1045.38,0.04211
1039.59,0.04315
1033.81,0.04587
1028.02,0.04794
1022.24,0.04858
1016.45,0.04937
1010.66,0.05199
1004.88,0.05407
999.09,0.05610
993.304,0.05932
987.518,0.06318
981.731,0.07074
975.945,0.07647
970.159,0.08045
964.373,0.08524
958.586,0.09160
952.8,0.09827
947.014,0.10185
941.228,0.10369
935.441,0.10595
929.655,0.10767
923.869,0.10705
918.083,0.10388
912.297,0.09874
906.51,0.09553
900.724,0.09186
894.938,0.09298
889.152,0.10104
883.365,0.10550
877.579,0.10461
871.793,0.10865
866.007,0.11559
860.22,0.11756
854.434,0.11772
848.648,0.12112
842.862,0.12358
837.075,0.12136
831.289,0.11751
825.503,0.11205
819.717,0.10573
813.931,0.10105
808.144,0.10043
802.358,0.09850
796.572,0.09941
790.786,0.09829
784.999,0.09572
779.213,0.09513
773.427,0.09210
767.641,0.08860
761.854,0.08576
756.068,0.08335
750.282,0.08159
744.496,0.07857
738.709,0.07514
732.923,0.07101
727.137,0.06650
721.351,0.06260
715.565,0.05898
709.778,0.05712
703.992,0.05613
698.206,0.05367
692.42,0.05385
686.633,0.05341
680.847,0.05167
675.061,0.04799
669.275,0.04588
663.488,0.04693
657.702,0.04847
651.916,0.04917
646.13,0.04861
640.343,0.04687
634.557,0.04671
628.771,0.04279
622.985,0.04356
617.198,0.04481
611.412,0.04481
605.626,0.04482
599.84,0.04678