File: 01_Data/Cellulose_Insulation/FTIR/IS/Cellulose_Insulation_IS_S_220913_R2.dpt
7497.03,0.52358
7491.25,0.52790
7485.46,0.52902
7479.67,0.51819
7473.89,0.53306
7468.1,0.53252
7462.32,0.51938
7456.53,0.52569
7450.74,0.52766
7444.96,0.52106
7439.17,0.52420
7433.38,0.52559
7427.6,0.52958
7421.81,0.53552
7416.03,0.52631
7410.24,0.52265
7404.45,0.52504
7398.67,0.51712
7392.88,0.52517
7387.09,0.51432
7381.31,0.51324
7375.52,0.52426
7369.74,0.51800
7363.95,0.52187
7358.16,0.52542
7352.38,0.51594
7346.59,0.51183
7340.8,0.52164
7335.02,0.52418
7329.23,0.51303
7323.45,0.52227
7317.66,0.52133
7311.87,0.51498
7306.09,0.51471
7300.3,0.51892
7294.51,0.52351
7288.73,0.52559
7282.94,0.51639
7277.16,0.51378
7271.37,0.51969
7265.58,0.51916
7259.8,0.51524
7254.01,0.51743
7248.22,0.51969
7242.44,0.51596
7236.65,0.52570
7230.87,0.52249
7225.08,0.51197
7219.29,0.51051
7213.51,0.51300
7207.72,0.51556
7201.93,0.52015
7196.15,0.51538
7190.36,0.51213
7184.58,0.51303
7178.79,0.51620
7173,0.52286
7167.22,0.51547
7161.43,0.51176
7155.65,0.51744
7149.86,0.51864
7144.07,0.51111
7138.29,0.51821
7132.5,0.51687
7126.71,0.50716
7120.93,0.51537
7115.14,0.51192
7109.36,0.51601
7103.57,0.51016
7097.78,0.52135
7092,0.50808
7086.21,0.50359
7080.42,0.50580
7074.64,0.50287
7068.85,0.50814
7063.07,0.50051
7057.28,0.50437
7051.49,0.50681
7045.71,0.50261
7039.92,0.50219
7034.13,0.50244
7028.35,0.49462
7022.56,0.49605
7016.78,0.49370
7010.99,0.49359
7005.2,0.49446
6999.42,0.49792
6993.63,0.49198
6987.84,0.49699
6982.06,0.49140
6976.27,0.49241
6970.49,0.49018
6964.7,0.49002
6958.91,0.48984
6953.13,0.48410
6947.34,0.48787
6941.55,0.49017
6935.77,0.48927
6929.98,0.49378
6924.2,0.48670
6918.41,0.48938
6912.62,0.48335
6906.84,0.48666
6901.05,0.48741
6895.26,0.49042
6889.48,0.48361
6883.69,0.49267
6877.91,0.48837
6872.12,0.48661
6866.33,0.48723
6860.55,0.49070
6854.76,0.48020
6848.97,0.48576
6843.19,0.48737
6837.4,0.48702
6831.62,0.48247
6825.83,0.48927
6820.04,0.47663
6814.26,0.48531
6808.47,0.48520
6802.68,0.47927
6796.9,0.47844
6791.11,0.48444
6785.33,0.48295
6779.54,0.48892
6773.75,0.48581
6767.97,0.48441
6762.18,0.48259
6756.39,0.48811
6750.61,0.48722
6744.82,0.48548
6739.04,0.48835
6733.25,0.48195
6727.46,0.48475
6721.68,0.48603
6715.89,0.48393
6710.1,0.48049
6704.32,0.48264
6698.53,0.48394
6692.75,0.48954
6686.96,0.48742
6681.17,0.48243
6675.39,0.48603
6669.6,0.48938
6663.82,0.48441
6658.03,0.48485
6652.24,0.48707
6646.46,0.48296
6640.67,0.48770
6634.88,0.49151
6629.1,0.49117
6623.31,0.48763
6617.53,0.48681
6611.74,0.49253
6605.95,0.48702
6600.17,0.48752
6594.38,0.48489
6588.59,0.49131
6582.81,0.49157
6577.02,0.49068
6571.24,0.48956
6565.45,0.49340
6559.66,0.49084
6553.88,0.48835
6548.09,0.49076
6542.3,0.49029
6536.52,0.49193
6530.73,0.49038
6524.95,0.48529
6519.16,0.49039
6513.37,0.48359
6507.59,0.48614
6501.8,0.48696
6496.01,0.48896
6490.23,0.48726
6484.44,0.48606
6478.66,0.49228
6472.87,0.49179
6467.08,0.49295
6461.3,0.49108
6455.51,0.48642
6449.72,0.48532
6443.94,0.48982
6438.15,0.48882
6432.37,0.49237
6426.58,0.49064
6420.79,0.48854
6415.01,0.49230
6409.22,0.48780
6403.43,0.48778
6397.65,0.48809
6391.86,0.49083
6386.08,0.49287
6380.29,0.49235
6374.5,0.49225
6368.72,0.48975
6362.93,0.49020
6357.14,0.49171
6351.36,0.48876
6345.57,0.48666
6339.79,0.49349
6334,0.49341
6328.21,0.49457
6322.43,0.49246
6316.64,0.49576
6310.85,0.49258
6305.07,0.49174
6299.28,0.49417
6293.5,0.49656
6287.71,0.49419
6281.92,0.49549
6276.14,0.49514
6270.35,0.49563
6264.56,0.49556
6258.78,0.49564
6252.99,0.49766
6247.21,0.49405
6241.42,0.49899
6235.63,0.49649
6229.85,0.50134
6224.06,0.49979
6218.27,0.49831
6212.49,0.50146
6206.7,0.50381
6200.92,0.50039
6195.13,0.50260
6189.34,0.50720
6183.56,0.50606
6177.77,0.50491
6171.98,0.50906
6166.2,0.50708
6160.41,0.50334
6154.63,0.50499
6148.84,0.50703
6143.05,0.50763
6137.27,0.50908
6131.48,0.50923
6125.7,0.50511
6119.91,0.50940
6114.12,0.51333
6108.34,0.51150
6102.55,0.51049
6096.76,0.50920
6090.98,0.50822
6085.19,0.50908
6079.41,0.51206
6073.62,0.51158
6067.83,0.50870
6062.05,0.51397
6056.26,0.51382
6050.47,0.51359
6044.69,0.51069
6038.9,0.51122
6033.12,0.51142
6027.33,0.51342
6021.54,0.51056
6015.76,0.51332
6009.97,0.51156
6004.18,0.51319
5998.4,0.51146
5992.61,0.51164
5986.83,0.51248
5981.04,0.51021
5975.25,0.51314
5969.47,0.51240
5963.68,0.51443
5957.89,0.51344
5952.11,0.51197
5946.32,0.51129
5940.54,0.51107
5934.75,0.51242
5928.96,0.51090
5923.18,0.50862
5917.39,0.51225
5911.6,0.51077
5905.82,0.51301
5900.03,0.50993
5894.25,0.51173
5888.46,0.51050
5882.67,0.50864
5876.89,0.50732
5871.1,0.51113
5865.31,0.50933
5859.53,0.50942
5853.74,0.51037
5847.96,0.51224
5842.17,0.51093
5836.38,0.51111
5830.6,0.50813
5824.81,0.51052
5819.02,0.51093
5813.24,0.51209
5807.45,0.50856
5801.67,0.50685
5795.88,0.50880
5790.09,0.51061
5784.31,0.51105
5778.52,0.50754
5772.73,0.51113
5766.95,0.50916
5761.16,0.50889
5755.38,0.50955
5749.59,0.51025
5743.8,0.50956
5738.02,0.51108
5732.23,0.51101
5726.44,0.51158
5720.66,0.51192
5714.87,0.51224
5709.09,0.51025
5703.3,0.50940
5697.51,0.51071
5691.73,0.51031
5685.94,0.50932
5680.15,0.51111
5674.37,0.50766
5668.58,0.50895
5662.8,0.50930
5657.01,0.51117
5651.22,0.51140
5645.44,0.51076
5639.65,0.51011
5633.87,0.50813
5628.08,0.50918
5622.29,0.51096
5616.51,0.51163
5610.72,0.51402
5604.93,0.51070
5599.15,0.51239
5593.36,0.51289
5587.58,0.51177
5581.79,0.51218
5576,0.51140
5570.22,0.51298
5564.43,0.51383
5558.64,0.51051
5552.86,0.51039
5547.07,0.51210
5541.29,0.51321
5535.5,0.51285
5529.71,0.51282
5523.93,0.51312
5518.14,0.51349
5512.35,0.51450
5506.57,0.51460
5500.78,0.51364
5495,0.51358
5489.21,0.51438
5483.42,0.51403
5477.64,0.51514
5471.85,0.51409
5466.06,0.51532
5460.28,0.51479
5454.49,0.51380
5448.71,0.51510
5442.92,0.51694
5437.13,0.51555
5431.35,0.51644
5425.56,0.51756
5419.77,0.52007
5413.99,0.51775
5408.2,0.52004
5402.42,0.51791
5396.63,0.51955
5390.84,0.51853
5385.06,0.51983
5379.27,0.51891
5373.48,0.51828
5367.7,0.52046
5361.91,0.51860
5356.13,0.51892
5350.34,0.51863
5344.55,0.51758
5338.77,0.51869
5332.98,0.51807
5327.19,0.51588
5321.41,0.51608
5315.62,0.51511
5309.84,0.51392
5304.05,0.51218
5298.26,0.51058
5292.48,0.50972
5286.69,0.50538
5280.9,0.50444
5275.12,0.50107
5269.33,0.49640
5263.55,0.49353
5257.76,0.48746
5251.97,0.48274
5246.19,0.47862
5240.4,0.47536
5234.61,0.47228
5228.83,0.46793
5223.04,0.46691
5217.26,0.46491
5211.47,0.46375
5205.68,0.46295
5199.9,0.46101
5194.11,0.45933
5188.32,0.46129
5182.54,0.46126
5176.75,0.46098
5170.97,0.46250
5165.18,0.46356
5159.39,0.46476
5153.61,0.46511
5147.82,0.46763
5142.03,0.46814
5136.25,0.47022
5130.46,0.47100
5124.68,0.47104
5118.89,0.47446
5113.1,0.47484
5107.32,0.47507
5101.53,0.47758
5095.75,0.47737
5089.96,0.47868
5084.17,0.47936
5078.39,0.47984
5072.6,0.48023
5066.81,0.48153
5061.03,0.48080
5055.24,0.48147
5049.46,0.48138
5043.67,0.48123
5037.88,0.48266
5032.1,0.48296
5026.31,0.48216
5020.52,0.48171
5014.74,0.48011
5008.95,0.48020
5003.17,0.47863
4997.38,0.47843
4991.59,0.47670
4985.81,0.47536
4980.02,0.47548
4974.23,0.47273
4968.45,0.46995
4962.66,0.46780
4956.88,0.46668
4951.09,0.46597
4945.3,0.46363
4939.52,0.46077
4933.73,0.45987
4927.94,0.45751
4922.16,0.45403
4916.37,0.45205
4910.59,0.44885
4904.8,0.44646
4899.01,0.44351
4893.23,0.44150
4887.44,0.43882
4881.65,0.43667
4875.87,0.43389
4870.08,0.43111
4864.3,0.42859
4858.51,0.42586
4852.72,0.42437
4846.94,0.42279
4841.15,0.42000
4835.36,0.41705
4829.58,0.41670
4823.79,0.41317
4818.01,0.41170
4812.22,0.40980
4806.43,0.40773
4800.65,0.40615
4794.86,0.40575
4789.07,0.40458
4783.29,0.40322
4777.5,0.40142
4771.72,0.40080
4765.93,0.39882
4760.14,0.39898
4754.36,0.39781
4748.57,0.39778
4742.78,0.39547
4737,0.39582
4731.21,0.39678
4725.43,0.39578
4719.64,0.39633
4713.85,0.39754
4708.07,0.39747
4702.28,0.39659
4696.49,0.39857
4690.71,0.39911
4684.92,0.39969
4679.14,0.40026
4673.35,0.40100
4667.56,0.40162
4661.78,0.40359
4655.99,0.40419
4650.2,0.40601
4644.42,0.40573
4638.63,0.40706
4632.85,0.40783
4627.06,0.40905
4621.27,0.41169
4615.49,0.41336
4609.7,0.41389
4603.92,0.41642
4598.13,0.41757
4592.34,0.41921
4586.56,0.42156
4580.77,0.42294
4574.98,0.42404
4569.2,0.42616
4563.41,0.42713
4557.63,0.42867
4551.84,0.42885
4546.05,0.43116
4540.27,0.43147
4534.48,0.43259
4528.69,0.43305
4522.91,0.43419
4517.12,0.43618
4511.34,0.43784
4505.55,0.43825
4499.76,0.43940
4493.98,0.43942
4488.19,0.43930
4482.4,0.43872
4476.62,0.43641
4470.83,0.43558
4465.05,0.43336
4459.26,0.43148
4453.47,0.42881
4447.69,0.42575
4441.9,0.42205
4436.11,0.41914
4430.33,0.41500
4424.54,0.41100
4418.76,0.40707
4412.97,0.40296
4407.18,0.39893
4401.4,0.39673
4395.61,0.39671
4389.82,0.39772
4384.04,0.39883
4378.25,0.40123
4372.47,0.40266
4366.68,0.40461
4360.89,0.40456
4355.11,0.40529
4349.32,0.40524
4343.53,0.40343
4337.75,0.40314
4331.96,0.40094
4326.18,0.39913
4320.39,0.39701
4314.6,0.39549
4308.82,0.39527
4303.03,0.39210
4297.24,0.39031
4291.46,0.38965
4285.67,0.38764
4279.89,0.38842
4274.1,0.38761
4268.31,0.38872
4262.53,0.38951
4256.74,0.39079
4250.95,0.39062
4245.17,0.39188
4239.38,0.39243
4233.6,0.39322
4227.81,0.39388
4222.02,0.39419
4216.24,0.39424
4210.45,0.39482
4204.66,0.39490
4198.88,0.39652
4193.09,0.39624
4187.31,0.39652
4181.52,0.39690
4175.73,0.39798
4169.95,0.39961
4164.16,0.39986
4158.37,0.40072
4152.59,0.39922
4146.8,0.39825
4141.02,0.39625
4135.23,0.39505
4129.44,0.39286
4123.66,0.39091
4117.87,0.38774
4112.09,0.38485
4106.3,0.38087
4100.51,0.37685
4094.73,0.37209
4088.94,0.36774
4083.15,0.36265
4077.37,0.35903
4071.58,0.35454
4065.8,0.35027
4060.01,0.34583
4054.22,0.34126
4048.44,0.33676
4042.65,0.33228
4036.86,0.32938
4031.08,0.32501
4025.29,0.32336
4019.51,0.32238
4013.72,0.32238
4007.93,0.32266
4002.15,0.32362
3996.36,0.32517
3990.57,0.32627
3984.79,0.32812
3979,0.32992
3973.22,0.33159
3967.43,0.33360
3961.64,0.33507
3955.86,0.33768
3950.07,0.33877
3944.28,0.34150
3938.5,0.34342
3932.71,0.34614
3926.93,0.34826
3921.14,0.35004
3915.35,0.35248
3909.57,0.35432
3903.78,0.35685
3897.99,0.35912
3892.21,0.36019
3886.42,0.36182
3880.64,0.36313
3874.85,0.36378
3869.06,0.36600
3863.28,0.36837
3857.49,0.37118
3851.7,0.37340
3845.92,0.37464
3840.13,0.37562
3834.35,0.37596
3828.56,0.37700
3822.77,0.37698
3816.99,0.37694
3811.2,0.37602
3805.41,0.37615
3799.63,0.37561
3793.84,0.37518
3788.06,0.37416
3782.27,0.37216
3776.48,0.37098
3770.7,0.37004
3764.91,0.36740
3759.12,0.36498
3753.34,0.36244
3747.55,0.35901
3741.77,0.35506
3735.98,0.35068
3730.19,0.34332
3724.41,0.33578
3718.62,0.32478
3712.83,0.30926
3707.05,0.28730
3701.26,0.25804
3695.48,0.23570
3689.69,0.23620
3683.9,0.23977
3678.12,0.23387
3672.33,0.21626
3666.54,0.19974
3660.76,0.18731
3654.97,0.16984
3649.19,0.15869
3643.4,0.15018
3637.61,0.14124
3631.83,0.13048
3626.04,0.11710
3620.25,0.10464
3614.47,0.10290
3608.68,0.09773
3602.9,0.09151
3597.11,0.08638
3591.32,0.08048
3585.54,0.07562
3579.75,0.07150
3573.97,0.06735
3568.18,0.06329
3562.39,0.06015
3556.61,0.05752
3550.82,0.05509
3545.03,0.05261
3539.25,0.05043
3533.46,0.04836
3527.68,0.04710
3521.89,0.04475
3516.1,0.04359
3510.32,0.04250
3504.53,0.04158
3498.74,0.03942
3492.96,0.03814
3487.17,0.03751
3481.39,0.03715
3475.6,0.03644
3469.81,0.03541
3464.03,0.03446
3458.24,0.03458
3452.45,0.03390
3446.67,0.03378
3440.88,0.03357
3435.1,0.03361
3429.31,0.03296
3423.52,0.03290
3417.74,0.03239
3411.95,0.03289
3406.16,0.03261
3400.38,0.03218
3394.59,0.03183
3388.81,0.03262
3383.02,0.03217
3377.23,0.03182
3371.45,0.03179
3365.66,0.03234
3359.87,0.03135
3354.09,0.03168
3348.3,0.03225
3342.52,0.03371
3336.73,0.03369
3330.94,0.03443
3325.16,0.03565
3319.37,0.03551
3313.58,0.03650
3307.8,0.03690
3302.01,0.03646
3296.23,0.03749
3290.44,0.03787
3284.65,0.03882
3278.87,0.04007
3273.08,0.04091
3267.29,0.04178
3261.51,0.04371
3255.72,0.04489
3249.94,0.04558
3244.15,0.04701
3238.36,0.04818
3232.58,0.04979
3226.79,0.05181
3221,0.05215
3215.22,0.05430
3209.43,0.05623
3203.65,0.05785
3197.86,0.05918
3192.07,0.06064
3186.29,0.06216
3180.5,0.06406
3174.71,0.06557
3168.93,0.06756
3163.14,0.06922
3157.36,0.07088
3151.57,0.07274
3145.78,0.07449
3140,0.07702
3134.21,0.07858
3128.42,0.08042
3122.64,0.08239
3116.85,0.08438
3111.07,0.08657
3105.28,0.08794
3099.49,0.09010
3093.71,0.09127
3087.92,0.09306
3082.14,0.09497
3076.35,0.09655
3070.56,0.09838
3064.78,0.09964
3058.99,0.10161
3053.2,0.10318
3047.42,0.10479
3041.63,0.10610
3035.85,0.10752
3030.06,0.10855
3024.27,0.10888
3018.49,0.10946
3012.7,0.10883
3006.91,0.10762
3001.13,0.10701
2995.34,0.10468
2989.56,0.10233
2983.77,0.09846
2977.98,0.09225
2972.2,0.08374
2966.41,0.07742
2960.62,0.07505
2954.84,0.07193
2949.05,0.06805
2943.27,0.06507
2937.48,0.06282
2931.69,0.06230
2925.91,0.06182
2920.12,0.06098
2914.33,0.05948
2908.55,0.05833
2902.76,0.05856
2896.98,0.06091
2891.19,0.06191
2885.4,0.06340
2879.62,0.06515
2873.83,0.06635
2868.04,0.06788
2862.26,0.07114
2856.47,0.07300
2850.69,0.07730
2844.9,0.08263
2839.11,0.08805
2833.33,0.09535
2827.54,0.10208
2821.75,0.10800
2815.97,0.11323
2810.18,0.11833
2804.4,0.12264
2798.61,0.12732
2792.82,0.12968
2787.04,0.13231
2781.25,0.13367
2775.46,0.13592
2769.68,0.13699
2763.89,0.13881
2758.11,0.13987
2752.32,0.14104
2746.53,0.14167
2740.75,0.14246
2734.96,0.14390
2729.17,0.14507
2723.39,0.14693
2717.6,0.14889
2711.82,0.15223
2706.03,0.15506
2700.24,0.15783
2694.46,0.16098
2688.67,0.16342
2682.88,0.16634
2677.1,0.16928
2671.31,0.17087
2665.53,0.17271
2659.74,0.17452
2653.95,0.17671
2648.17,0.17844
2642.38,0.18053
2636.59,0.18270
2630.81,0.18463
2625.02,0.18667
2619.24,0.18863
2613.45,0.19092
2607.66,0.19268
2601.88,0.19422
2596.09,0.19607
2590.3,0.19749
2584.52,0.19882
2578.73,0.20008
2572.95,0.20038
2567.16,0.20143
2561.37,0.20171
2555.59,0.20107
2549.8,0.20157
2544.02,0.20175
2538.23,0.20229
2532.44,0.20329
2526.66,0.20423
2520.87,0.20527
2515.08,0.20627
2509.3,0.20904
2503.51,0.21309
2497.73,0.21668
2491.94,0.22038
2486.15,0.22367
2480.37,0.22680
2474.58,0.22972
2468.79,0.23171
2463.01,0.23384
2457.22,0.23585
2451.44,0.23827
2445.65,0.24050
2439.86,0.24278
2434.08,0.24540
2428.29,0.24803
2422.5,0.25071
2416.72,0.25354
2410.93,0.25588
2405.15,0.25815
2399.36,0.26013
2393.57,0.26259
2387.79,0.26373
2382,0.26546
2376.21,0.26751
2370.43,0.26909
2364.64,0.26993
2358.86,0.27135
2353.07,0.27200
2347.28,0.27361
2341.5,0.27520
2335.71,0.27616
2329.92,0.27705
2324.14,0.27697
2318.35,0.27770
2312.57,0.27751
2306.78,0.27696
2300.99,0.27614
2295.21,0.27527
2289.42,0.27400
2283.63,0.27300
2277.85,0.27171
2272.06,0.26940
2266.28,0.26711
2260.49,0.26418
2254.7,0.26298
2248.92,0.26281
2243.13,0.26243
2237.34,0.26200
2231.56,0.26155
2225.77,0.26157
2219.99,0.26214
2214.2,0.26240
2208.41,0.26230
2202.63,0.26197
2196.84,0.26074
2191.05,0.25902
2185.27,0.25612
2179.48,0.25293
2173.7,0.24977
2167.91,0.24634
2162.12,0.24374
2156.34,0.24174
2150.55,0.24033
2144.76,0.23829
2138.98,0.23724
2133.19,0.23675
2127.41,0.23716
2121.62,0.23775
2115.83,0.23844
2110.05,0.23974
2104.26,0.24033
2098.47,0.24098
2092.69,0.24175
2086.9,0.24212
2081.12,0.24182
2075.33,0.24081
2069.54,0.23904
2063.76,0.23824
2057.97,0.23767
2052.19,0.23745
2046.4,0.23780
2040.61,0.23924
2034.83,0.24183
2029.04,0.24512
2023.25,0.24932
2017.47,0.25272
2011.68,0.25605
2005.9,0.25809
2000.11,0.25908
1994.32,0.26144
1988.54,0.26353
1982.75,0.26573
1976.96,0.26697
1971.18,0.26828
1965.39,0.26964
1959.61,0.27087
1953.82,0.27266
1948.03,0.27474
1942.25,0.27701
1936.46,0.27888
1930.67,0.28030
1924.89,0.28126
1919.1,0.28212
1913.32,0.28261
1907.53,0.28274
1901.74,0.28214
1895.96,0.28196
1890.17,0.28086
1884.38,0.28005
1878.6,0.27926
1872.81,0.27797
1867.03,0.27672
1861.24,0.27501
1855.45,0.27312
1849.67,0.27080
1843.88,0.26824
1838.09,0.26571
1832.31,0.26312
1826.52,0.26007
1820.74,0.25683
1814.95,0.25364
1809.16,0.24926
1803.38,0.24280
1797.59,0.23434
1791.8,0.22974
1786.02,0.22605
1780.23,0.21866
1774.45,0.20820
1768.66,0.19097
1762.87,0.17098
1757.09,0.14962
1751.3,0.13265
1745.51,0.12076
1739.73,0.11509
1733.94,0.11425
1728.16,0.11583
1722.37,0.12006
1716.58,0.12711
1710.8,0.13382
1705.01,0.13863
1699.22,0.14030
1693.44,0.13744
1687.65,0.13218
1681.87,0.12283
1676.08,0.11302
1670.29,0.10402
1664.51,0.09722
1658.72,0.09368
1652.93,0.09391
1647.15,0.09365
1641.36,0.09298
1635.58,0.09361
1629.79,0.09434
1624,0.09519
1618.22,0.09477
1612.43,0.09267
1606.64,0.09031
1600.86,0.09081
1595.07,0.09166
1589.29,0.09425
1583.5,0.10170
1577.71,0.11359
1571.93,0.12692
1566.14,0.13489
1560.35,0.13859
1554.57,0.13726
1548.78,0.13400
1543,0.12883
1537.21,0.11936
1531.42,0.10719
1525.64,0.09090
1519.85,0.07137
1514.07,0.05972
1508.28,0.05756
1502.49,0.05960
1496.71,0.06193
1490.92,0.06049
1485.13,0.05578
1479.35,0.05058
1473.56,0.04620
1467.78,0.04199
1461.99,0.04041
1456.2,0.03966
1450.42,0.03853
1444.63,0.03805
1438.84,0.03695
1433.06,0.03499
1427.27,0.03536
1421.49,0.03744
1415.7,0.03969
1409.91,0.04058
1404.13,0.04104
1398.34,0.04131
1392.55,0.04078
1386.77,0.03958
1380.98,0.03757
1375.2,0.03722
1369.41,0.03784
1363.62,0.03923
1357.84,0.04029
1352.05,0.04179
1346.26,0.04212
1340.48,0.04093
1334.69,0.04088
1328.91,0.04185
1323.12,0.04175
1317.33,0.04160
1311.55,0.04352
1305.76,0.04592
1299.97,0.04741
1294.19,0.04700
1288.4,0.04469
1282.62,0.04183
1276.83,0.04103
1271.04,0.04109
1265.26,0.04156
1259.47,0.04208
1253.68,0.04332
1247.9,0.04363
1242.11,0.04346
1236.33,0.04310
1230.54,0.04336
1224.75,0.04424
1218.97,0.04463
1213.18,0.04360
1207.39,0.04217
1201.61,0.04299
1195.82,0.04285
1190.04,0.04131
1184.25,0.03751
1178.46,0.03261
1172.68,0.03033
1166.89,0.03054
1161.1,0.03247
1155.32,0.03305
1149.53,0.03229
1143.75,0.03139
1137.96,0.03063
1132.17,0.02885
1126.39,0.02831
1120.6,0.02861
1114.81,0.02932
1109.03,0.03105
1103.24,0.03151
1097.46,0.03150
1091.67,0.03067
1085.88,0.03066
1080.1,0.03143
1074.31,0.03293
1068.52,0.03600
1062.74,0.04022
1056.95,0.04236
1051.17,0.04257
1045.38,0.04198
1039.59,0.04295
1033.81,0.04697
1028.02,0.04844
1022.24,0.04924
1016.45,0.05106
1010.66,0.05230
1004.88,0.05396
999.09,0.05617
993.304,0.05980
987.518,0.06360
981.731,0.07026
975.945,0.07677
970.159,0.08102
964.373,0.08534
958.586,0.09133
952.8,0.09847
947.014,0.10231
941.228,0.10294
935.441,0.10536
929.655,0.10662
923.869,0.10541
918.083,0.10261
912.297,0.09757
906.51,0.09393
900.724,0.09014
894.938,0.09146
889.152,0.09947
883.365,0.10330
877.579,0.10224
871.793,0.10527
866.007,0.11087
860.22,0.11210
854.434,0.11301
848.648,0.11564
842.862,0.11688
837.075,0.11505
831.289,0.11037
825.503,0.10642
819.717,0.10004
813.931,0.09427
808.144,0.09344
802.358,0.09332
796.572,0.09385
790.786,0.09252
784.999,0.09062
779.213,0.08813
773.427,0.08544
767.641,0.08263
761.854,0.08094
756.068,0.07828
750.282,0.07623
744.496,0.07404
738.709,0.07181
732.923,0.06744
727.137,0.06315
721.351,0.05937
715.565,0.05748
709.778,0.05555
703.992,0.05365
698.206,0.05318
692.42,0.05292
686.633,0.05131
680.847,0.04780
675.061,0.04600
669.275,0.04665
663.488,0.04631
657.702,0.04909
651.916,0.04841
646.13,0.04796
640.343,0.04569
634.557,0.04374
628.771,0.04246
622.985,0.04087
617.198,0.04429
611.412,0.04458
605.626,0.04428
599.84,0.04580