File: 01_Data/Cellulose_Insulation/FTIR/IS/Cellulose_Insulation_IS_S_220913_R3.dpt
7497.03,0.52512
7491.25,0.53674
7485.46,0.52557
7479.67,0.52457
7473.89,0.53177
7468.1,0.52749
7462.32,0.52281
7456.53,0.52472
7450.74,0.53380
7444.96,0.53908
7439.17,0.52376
7433.38,0.52509
7427.6,0.52338
7421.81,0.51902
7416.03,0.52232
7410.24,0.52172
7404.45,0.52906
7398.67,0.51932
7392.88,0.51796
7387.09,0.51090
7381.31,0.51368
7375.52,0.52222
7369.74,0.51926
7363.95,0.52667
7358.16,0.52801
7352.38,0.52127
7346.59,0.53304
7340.8,0.52180
7335.02,0.52278
7329.23,0.51413
7323.45,0.51542
7317.66,0.51343
7311.87,0.51637
7306.09,0.51505
7300.3,0.52078
7294.51,0.52386
7288.73,0.52194
7282.94,0.51831
7277.16,0.51591
7271.37,0.51591
7265.58,0.52556
7259.8,0.52552
7254.01,0.51972
7248.22,0.51421
7242.44,0.51343
7236.65,0.52584
7230.87,0.52277
7225.08,0.51937
7219.29,0.52013
7213.51,0.51749
7207.72,0.51912
7201.93,0.51639
7196.15,0.52098
7190.36,0.52160
7184.58,0.51703
7178.79,0.52235
7173,0.51521
7167.22,0.51676
7161.43,0.51581
7155.65,0.50757
7149.86,0.51440
7144.07,0.51711
7138.29,0.51663
7132.5,0.51157
7126.71,0.51130
7120.93,0.51277
7115.14,0.51115
7109.36,0.50988
7103.57,0.50978
7097.78,0.50965
7092,0.50984
7086.21,0.50908
7080.42,0.50905
7074.64,0.50391
7068.85,0.49856
7063.07,0.50350
7057.28,0.50936
7051.49,0.50631
7045.71,0.49949
7039.92,0.50265
7034.13,0.49659
7028.35,0.49987
7022.56,0.49652
7016.78,0.49029
7010.99,0.48857
7005.2,0.49372
6999.42,0.49133
6993.63,0.49487
6987.84,0.48936
6982.06,0.49479
6976.27,0.49081
6970.49,0.49585
6964.7,0.48759
6958.91,0.48599
6953.13,0.48421
6947.34,0.48481
6941.55,0.48697
6935.77,0.49297
6929.98,0.48993
6924.2,0.48236
6918.41,0.48950
6912.62,0.48788
6906.84,0.48458
6901.05,0.48341
6895.26,0.48577
6889.48,0.48669
6883.69,0.48715
6877.91,0.49508
6872.12,0.49226
6866.33,0.48695
6860.55,0.48528
6854.76,0.48606
6848.97,0.48523
6843.19,0.48697
6837.4,0.48463
6831.62,0.48526
6825.83,0.48596
6820.04,0.48698
6814.26,0.48880
6808.47,0.48968
6802.68,0.48369
6796.9,0.48037
6791.11,0.47845
6785.33,0.48203
6779.54,0.48037
6773.75,0.48652
6767.97,0.48664
6762.18,0.48425
6756.39,0.48031
6750.61,0.48756
6744.82,0.47777
6739.04,0.48134
6733.25,0.48404
6727.46,0.48564
6721.68,0.48629
6715.89,0.48182
6710.1,0.48178
6704.32,0.48341
6698.53,0.48333
6692.75,0.48337
6686.96,0.48172
6681.17,0.48917
6675.39,0.48653
6669.6,0.48436
6663.82,0.48300
6658.03,0.48753
6652.24,0.48470
6646.46,0.48890
6640.67,0.48919
6634.88,0.48530
6629.1,0.48675
6623.31,0.48882
6617.53,0.48479
6611.74,0.48533
6605.95,0.48777
6600.17,0.48541
6594.38,0.47951
6588.59,0.48979
6582.81,0.49194
6577.02,0.48758
6571.24,0.49115
6565.45,0.49065
6559.66,0.49419
6553.88,0.49019
6548.09,0.48427
6542.3,0.49229
6536.52,0.49035
6530.73,0.48762
6524.95,0.49079
6519.16,0.49086
6513.37,0.49056
6507.59,0.48582
6501.8,0.48468
6496.01,0.49221
6490.23,0.48650
6484.44,0.48928
6478.66,0.48922
6472.87,0.49069
6467.08,0.48703
6461.3,0.49092
6455.51,0.49294
6449.72,0.48732
6443.94,0.48979
6438.15,0.48655
6432.37,0.49152
6426.58,0.48710
6420.79,0.49021
6415.01,0.49253
6409.22,0.48857
6403.43,0.49180
6397.65,0.49123
6391.86,0.48749
6386.08,0.49043
6380.29,0.49004
6374.5,0.49544
6368.72,0.49406
6362.93,0.49109
6357.14,0.49233
6351.36,0.49127
6345.57,0.49046
6339.79,0.49235
6334,0.49295
6328.21,0.48705
6322.43,0.49001
6316.64,0.49638
6310.85,0.49431
6305.07,0.49438
6299.28,0.49400
6293.5,0.49580
6287.71,0.49230
6281.92,0.49465
6276.14,0.49274
6270.35,0.49658
6264.56,0.49757
6258.78,0.49673
6252.99,0.50026
6247.21,0.50029
6241.42,0.49843
6235.63,0.49891
6229.85,0.49897
6224.06,0.50085
6218.27,0.49910
6212.49,0.49721
6206.7,0.50005
6200.92,0.50052
6195.13,0.49887
6189.34,0.50217
6183.56,0.50462
6177.77,0.50580
6171.98,0.50660
6166.2,0.50658
6160.41,0.50368
6154.63,0.50811
6148.84,0.50731
6143.05,0.50735
6137.27,0.50747
6131.48,0.51150
6125.7,0.50786
6119.91,0.50872
6114.12,0.50551
6108.34,0.51014
6102.55,0.51036
6096.76,0.50964
6090.98,0.50958
6085.19,0.50830
6079.41,0.50955
6073.62,0.51097
6067.83,0.51056
6062.05,0.51467
6056.26,0.51401
6050.47,0.51279
6044.69,0.51029
6038.9,0.50944
6033.12,0.51358
6027.33,0.51157
6021.54,0.50755
6015.76,0.51145
6009.97,0.51344
6004.18,0.51085
5998.4,0.51306
5992.61,0.51350
5986.83,0.51191
5981.04,0.50782
5975.25,0.50798
5969.47,0.51233
5963.68,0.51312
5957.89,0.51304
5952.11,0.50996
5946.32,0.51145
5940.54,0.50958
5934.75,0.51213
5928.96,0.51191
5923.18,0.50971
5917.39,0.51332
5911.6,0.51466
5905.82,0.51036
5900.03,0.51015
5894.25,0.51155
5888.46,0.51140
5882.67,0.51291
5876.89,0.50755
5871.1,0.50631
5865.31,0.50860
5859.53,0.50871
5853.74,0.50940
5847.96,0.50811
5842.17,0.51200
5836.38,0.50885
5830.6,0.51171
5824.81,0.50947
5819.02,0.51089
5813.24,0.50838
5807.45,0.50852
5801.67,0.50981
5795.88,0.50999
5790.09,0.50851
5784.31,0.50993
5778.52,0.50798
5772.73,0.51016
5766.95,0.50958
5761.16,0.50911
5755.38,0.50959
5749.59,0.50880
5743.8,0.50910
5738.02,0.51115
5732.23,0.51088
5726.44,0.50941
5720.66,0.51095
5714.87,0.51185
5709.09,0.51149
5703.3,0.50937
5697.51,0.50791
5691.73,0.50800
5685.94,0.51017
5680.15,0.50770
5674.37,0.51025
5668.58,0.50910
5662.8,0.51041
5657.01,0.51059
5651.22,0.50990
5645.44,0.50945
5639.65,0.51102
5633.87,0.50977
5628.08,0.50889
5622.29,0.50854
5616.51,0.51011
5610.72,0.50981
5604.93,0.51146
5599.15,0.51217
5593.36,0.51037
5587.58,0.51085
5581.79,0.51029
5576,0.51112
5570.22,0.50992
5564.43,0.51096
5558.64,0.51105
5552.86,0.51140
5547.07,0.51393
5541.29,0.51236
5535.5,0.51293
5529.71,0.51367
5523.93,0.51518
5518.14,0.51335
5512.35,0.51278
5506.57,0.51090
5500.78,0.51081
5495,0.51444
5489.21,0.51328
5483.42,0.51415
5477.64,0.51595
5471.85,0.51342
5466.06,0.51455
5460.28,0.51432
5454.49,0.51542
5448.71,0.51561
5442.92,0.51445
5437.13,0.51534
5431.35,0.51666
5425.56,0.51698
5419.77,0.51563
5413.99,0.51585
5408.2,0.51653
5402.42,0.51861
5396.63,0.51868
5390.84,0.51765
5385.06,0.51567
5379.27,0.51651
5373.48,0.51778
5367.7,0.51974
5361.91,0.51752
5356.13,0.51724
5350.34,0.51741
5344.55,0.51781
5338.77,0.51703
5332.98,0.51682
5327.19,0.51558
5321.41,0.51477
5315.62,0.51334
5309.84,0.51327
5304.05,0.51209
5298.26,0.51124
5292.48,0.50862
5286.69,0.50655
5280.9,0.50325
5275.12,0.50051
5269.33,0.49878
5263.55,0.49348
5257.76,0.48793
5251.97,0.48343
5246.19,0.48121
5240.4,0.47794
5234.61,0.47381
5228.83,0.47150
5223.04,0.46911
5217.26,0.46668
5211.47,0.46661
5205.68,0.46426
5199.9,0.46477
5194.11,0.46442
5188.32,0.46485
5182.54,0.46372
5176.75,0.46516
5170.97,0.46649
5165.18,0.46709
5159.39,0.46988
5153.61,0.46769
5147.82,0.46960
5142.03,0.47259
5136.25,0.47233
5130.46,0.47291
5124.68,0.47577
5118.89,0.47575
5113.1,0.47688
5107.32,0.47840
5101.53,0.47974
5095.75,0.47926
5089.96,0.48006
5084.17,0.48131
5078.39,0.48114
5072.6,0.48230
5066.81,0.48310
5061.03,0.48454
5055.24,0.48411
5049.46,0.48412
5043.67,0.48529
5037.88,0.48287
5032.1,0.48339
5026.31,0.48345
5020.52,0.48271
5014.74,0.48136
5008.95,0.48070
5003.17,0.48058
4997.38,0.47794
4991.59,0.47754
4985.81,0.47580
4980.02,0.47413
4974.23,0.47309
4968.45,0.47160
4962.66,0.46839
4956.88,0.46718
4951.09,0.46588
4945.3,0.46397
4939.52,0.46157
4933.73,0.45848
4927.94,0.45690
4922.16,0.45377
4916.37,0.45200
4910.59,0.44874
4904.8,0.44604
4899.01,0.44326
4893.23,0.44162
4887.44,0.43766
4881.65,0.43548
4875.87,0.43208
4870.08,0.43093
4864.3,0.42714
4858.51,0.42487
4852.72,0.42394
4846.94,0.42174
4841.15,0.41798
4835.36,0.41725
4829.58,0.41475
4823.79,0.41426
4818.01,0.41202
4812.22,0.40982
4806.43,0.40660
4800.65,0.40612
4794.86,0.40347
4789.07,0.40348
4783.29,0.40234
4777.5,0.40164
4771.72,0.39985
4765.93,0.39943
4760.14,0.39805
4754.36,0.39630
4748.57,0.39587
4742.78,0.39641
4737,0.39526
4731.21,0.39687
4725.43,0.39598
4719.64,0.39716
4713.85,0.39695
4708.07,0.39676
4702.28,0.39689
4696.49,0.39799
4690.71,0.39851
4684.92,0.39896
4679.14,0.40028
4673.35,0.40095
4667.56,0.40181
4661.78,0.40297
4655.99,0.40470
4650.2,0.40434
4644.42,0.40593
4638.63,0.40625
4632.85,0.40744
4627.06,0.40904
4621.27,0.41101
4615.49,0.41249
4609.7,0.41473
4603.92,0.41592
4598.13,0.41770
4592.34,0.41887
4586.56,0.41989
4580.77,0.42294
4574.98,0.42421
4569.2,0.42522
4563.41,0.42669
4557.63,0.42759
4551.84,0.42912
4546.05,0.43090
4540.27,0.43092
4534.48,0.43154
4528.69,0.43225
4522.91,0.43251
4517.12,0.43610
4511.34,0.43775
4505.55,0.43897
4499.76,0.43823
4493.98,0.43781
4488.19,0.43852
4482.4,0.43732
4476.62,0.43572
4470.83,0.43510
4465.05,0.43288
4459.26,0.43084
4453.47,0.42850
4447.69,0.42533
4441.9,0.42162
4436.11,0.41845
4430.33,0.41491
4424.54,0.41061
4418.76,0.40648
4412.97,0.40256
4407.18,0.39941
4401.4,0.39720
4395.61,0.39628
4389.82,0.39814
4384.04,0.39887
4378.25,0.40103
4372.47,0.40282
4366.68,0.40345
4360.89,0.40519
4355.11,0.40422
4349.32,0.40350
4343.53,0.40301
4337.75,0.40167
4331.96,0.40077
4326.18,0.39873
4320.39,0.39703
4314.6,0.39501
4308.82,0.39354
4303.03,0.39208
4297.24,0.39048
4291.46,0.38959
4285.67,0.38815
4279.89,0.38792
4274.1,0.38770
4268.31,0.38799
4262.53,0.38874
4256.74,0.39062
4250.95,0.39167
4245.17,0.39170
4239.38,0.39196
4233.6,0.39379
4227.81,0.39421
4222.02,0.39407
4216.24,0.39352
4210.45,0.39421
4204.66,0.39503
4198.88,0.39472
4193.09,0.39572
4187.31,0.39662
4181.52,0.39712
4175.73,0.39756
4169.95,0.39976
4164.16,0.40048
4158.37,0.39951
4152.59,0.39946
4146.8,0.39829
4141.02,0.39686
4135.23,0.39555
4129.44,0.39368
4123.66,0.39084
4117.87,0.38833
4112.09,0.38513
4106.3,0.38159
4100.51,0.37729
4094.73,0.37256
4088.94,0.36765
4083.15,0.36367
4077.37,0.35958
4071.58,0.35531
4065.8,0.35063
4060.01,0.34632
4054.22,0.34099
4048.44,0.33598
4042.65,0.33185
4036.86,0.32862
4031.08,0.32498
4025.29,0.32349
4019.51,0.32278
4013.72,0.32242
4007.93,0.32245
4002.15,0.32379
3996.36,0.32538
3990.57,0.32753
3984.79,0.32896
3979,0.32994
3973.22,0.33151
3967.43,0.33303
3961.64,0.33562
3955.86,0.33736
3950.07,0.33948
3944.28,0.34153
3938.5,0.34369
3932.71,0.34700
3926.93,0.34886
3921.14,0.35120
3915.35,0.35306
3909.57,0.35475
3903.78,0.35731
3897.99,0.35914
3892.21,0.36018
3886.42,0.36183
3880.64,0.36340
3874.85,0.36476
3869.06,0.36670
3863.28,0.36927
3857.49,0.37133
3851.7,0.37352
3845.92,0.37485
3840.13,0.37656
3834.35,0.37668
3828.56,0.37742
3822.77,0.37761
3816.99,0.37785
3811.2,0.37737
3805.41,0.37625
3799.63,0.37636
3793.84,0.37618
3788.06,0.37450
3782.27,0.37434
3776.48,0.37272
3770.7,0.37063
3764.91,0.36945
3759.12,0.36661
3753.34,0.36498
3747.55,0.36051
3741.77,0.35647
3735.98,0.35312
3730.19,0.34541
3724.41,0.33779
3718.62,0.32655
3712.83,0.31101
3707.05,0.28894
3701.26,0.26067
3695.48,0.23752
3689.69,0.23851
3683.9,0.24314
3678.12,0.23651
3672.33,0.21930
3666.54,0.20312
3660.76,0.19087
3654.97,0.17350
3649.19,0.16281
3643.4,0.15422
3637.61,0.14533
3631.83,0.13523
3626.04,0.12141
3620.25,0.10837
3614.47,0.10651
3608.68,0.10159
3602.9,0.09512
3597.11,0.08865
3591.32,0.08275
3585.54,0.07731
3579.75,0.07316
3573.97,0.06868
3568.18,0.06548
3562.39,0.06196
3556.61,0.05861
3550.82,0.05533
3545.03,0.05376
3539.25,0.05043
3533.46,0.04853
3527.68,0.04721
3521.89,0.04587
3516.1,0.04421
3510.32,0.04311
3504.53,0.04118
3498.74,0.04011
3492.96,0.03867
3487.17,0.03777
3481.39,0.03718
3475.6,0.03639
3469.81,0.03556
3464.03,0.03472
3458.24,0.03414
3452.45,0.03396
3446.67,0.03334
3440.88,0.03318
3435.1,0.03306
3429.31,0.03266
3423.52,0.03279
3417.74,0.03297
3411.95,0.03266
3406.16,0.03291
3400.38,0.03292
3394.59,0.03268
3388.81,0.03221
3383.02,0.03252
3377.23,0.03230
3371.45,0.03177
3365.66,0.03236
3359.87,0.03296
3354.09,0.03257
3348.3,0.03183
3342.52,0.03247
3336.73,0.03324
3330.94,0.03462
3325.16,0.03520
3319.37,0.03517
3313.58,0.03646
3307.8,0.03691
3302.01,0.03701
3296.23,0.03726
3290.44,0.03861
3284.65,0.03827
3278.87,0.04046
3273.08,0.04151
3267.29,0.04192
3261.51,0.04302
3255.72,0.04474
3249.94,0.04599
3244.15,0.04747
3238.36,0.04913
3232.58,0.05070
3226.79,0.05259
3221,0.05341
3215.22,0.05474
3209.43,0.05641
3203.65,0.05803
3197.86,0.06018
3192.07,0.06112
3186.29,0.06243
3180.5,0.06510
3174.71,0.06647
3168.93,0.06769
3163.14,0.06973
3157.36,0.07179
3151.57,0.07437
3145.78,0.07617
3140,0.07801
3134.21,0.07950
3128.42,0.08247
3122.64,0.08410
3116.85,0.08548
3111.07,0.08789
3105.28,0.08970
3099.49,0.09174
3093.71,0.09398
3087.92,0.09461
3082.14,0.09663
3076.35,0.09822
3070.56,0.09944
3064.78,0.10124
3058.99,0.10308
3053.2,0.10515
3047.42,0.10659
3041.63,0.10806
3035.85,0.10966
3030.06,0.10995
3024.27,0.11037
3018.49,0.11087
3012.7,0.10955
3006.91,0.10868
3001.13,0.10768
2995.34,0.10602
2989.56,0.10347
2983.77,0.09892
2977.98,0.09230
2972.2,0.08397
2966.41,0.07756
2960.62,0.07487
2954.84,0.07069
2949.05,0.06791
2943.27,0.06494
2937.48,0.06370
2931.69,0.06228
2925.91,0.06128
2920.12,0.06008
2914.33,0.05947
2908.55,0.05843
2902.76,0.05892
2896.98,0.06039
2891.19,0.06204
2885.4,0.06397
2879.62,0.06483
2873.83,0.06584
2868.04,0.06779
2862.26,0.07077
2856.47,0.07296
2850.69,0.07684
2844.9,0.08269
2839.11,0.08829
2833.33,0.09492
2827.54,0.10188
2821.75,0.10789
2815.97,0.11384
2810.18,0.11861
2804.4,0.12348
2798.61,0.12673
2792.82,0.12971
2787.04,0.13227
2781.25,0.13417
2775.46,0.13647
2769.68,0.13709
2763.89,0.13929
2758.11,0.14066
2752.32,0.14123
2746.53,0.14170
2740.75,0.14328
2734.96,0.14395
2729.17,0.14566
2723.39,0.14724
2717.6,0.14967
2711.82,0.15204
2706.03,0.15515
2700.24,0.15800
2694.46,0.16130
2688.67,0.16391
2682.88,0.16694
2677.1,0.16920
2671.31,0.17179
2665.53,0.17333
2659.74,0.17430
2653.95,0.17632
2648.17,0.17928
2642.38,0.18123
2636.59,0.18340
2630.81,0.18512
2625.02,0.18699
2619.24,0.18940
2613.45,0.19069
2607.66,0.19292
2601.88,0.19484
2596.09,0.19636
2590.3,0.19803
2584.52,0.19944
2578.73,0.20075
2572.95,0.20118
2567.16,0.20128
2561.37,0.20169
2555.59,0.20174
2549.8,0.20216
2544.02,0.20194
2538.23,0.20282
2532.44,0.20364
2526.66,0.20468
2520.87,0.20567
2515.08,0.20654
2509.3,0.20946
2503.51,0.21295
2497.73,0.21755
2491.94,0.22067
2486.15,0.22381
2480.37,0.22673
2474.58,0.22983
2468.79,0.23237
2463.01,0.23455
2457.22,0.23603
2451.44,0.23821
2445.65,0.24083
2439.86,0.24278
2434.08,0.24570
2428.29,0.24850
2422.5,0.25119
2416.72,0.25384
2410.93,0.25618
2405.15,0.25899
2399.36,0.26069
2393.57,0.26253
2387.79,0.26464
2382,0.26636
2376.21,0.26797
2370.43,0.26997
2364.64,0.27099
2358.86,0.27174
2353.07,0.27301
2347.28,0.27468
2341.5,0.27658
2335.71,0.27720
2329.92,0.27837
2324.14,0.27833
2318.35,0.27891
2312.57,0.27867
2306.78,0.27837
2300.99,0.27732
2295.21,0.27639
2289.42,0.27524
2283.63,0.27387
2277.85,0.27275
2272.06,0.27068
2266.28,0.26776
2260.49,0.26555
2254.7,0.26424
2248.92,0.26420
2243.13,0.26377
2237.34,0.26306
2231.56,0.26254
2225.77,0.26311
2219.99,0.26326
2214.2,0.26342
2208.41,0.26365
2202.63,0.26365
2196.84,0.26205
2191.05,0.25989
2185.27,0.25777
2179.48,0.25448
2173.7,0.25094
2167.91,0.24803
2162.12,0.24509
2156.34,0.24345
2150.55,0.24137
2144.76,0.24009
2138.98,0.23851
2133.19,0.23814
2127.41,0.23857
2121.62,0.23926
2115.83,0.24029
2110.05,0.24076
2104.26,0.24161
2098.47,0.24256
2092.69,0.24329
2086.9,0.24416
2081.12,0.24313
2075.33,0.24201
2069.54,0.24083
2063.76,0.23948
2057.97,0.23899
2052.19,0.23851
2046.4,0.23891
2040.61,0.24002
2034.83,0.24279
2029.04,0.24648
2023.25,0.25024
2017.47,0.25411
2011.68,0.25701
2005.9,0.25908
2000.11,0.26031
1994.32,0.26249
1988.54,0.26509
1982.75,0.26736
1976.96,0.26844
1971.18,0.26953
1965.39,0.27037
1959.61,0.27191
1953.82,0.27394
1948.03,0.27612
1942.25,0.27813
1936.46,0.27965
1930.67,0.28120
1924.89,0.28225
1919.1,0.28325
1913.32,0.28354
1907.53,0.28367
1901.74,0.28350
1895.96,0.28316
1890.17,0.28194
1884.38,0.28119
1878.6,0.28020
1872.81,0.27880
1867.03,0.27770
1861.24,0.27615
1855.45,0.27398
1849.67,0.27182
1843.88,0.26930
1838.09,0.26636
1832.31,0.26435
1826.52,0.26107
1820.74,0.25758
1814.95,0.25417
1809.16,0.24997
1803.38,0.24357
1797.59,0.23487
1791.8,0.23036
1786.02,0.22632
1780.23,0.21879
1774.45,0.20793
1768.66,0.19073
1762.87,0.17056
1757.09,0.14910
1751.3,0.13201
1745.51,0.12051
1739.73,0.11500
1733.94,0.11391
1728.16,0.11629
1722.37,0.12077
1716.58,0.12800
1710.8,0.13468
1705.01,0.13990
1699.22,0.14187
1693.44,0.13863
1687.65,0.13436
1681.87,0.12516
1676.08,0.11515
1670.29,0.10573
1664.51,0.09909
1658.72,0.09565
1652.93,0.09603
1647.15,0.09672
1641.36,0.09544
1635.58,0.09544
1629.79,0.09634
1624,0.09726
1618.22,0.09658
1612.43,0.09401
1606.64,0.09133
1600.86,0.09186
1595.07,0.09269
1589.29,0.09509
1583.5,0.10249
1577.71,0.11418
1571.93,0.12753
1566.14,0.13564
1560.35,0.14001
1554.57,0.13884
1548.78,0.13504
1543,0.12977
1537.21,0.11987
1531.42,0.10770
1525.64,0.09118
1519.85,0.07133
1514.07,0.05933
1508.28,0.05764
1502.49,0.05947
1496.71,0.06165
1490.92,0.06030
1485.13,0.05568
1479.35,0.05044
1473.56,0.04637
1467.78,0.04207
1461.99,0.04061
1456.2,0.03923
1450.42,0.03878
1444.63,0.03804
1438.84,0.03689
1433.06,0.03529
1427.27,0.03522
1421.49,0.03762
1415.7,0.03956
1409.91,0.04055
1404.13,0.04114
1398.34,0.04110
1392.55,0.04080
1386.77,0.03964
1380.98,0.03767
1375.2,0.03681
1369.41,0.03805
1363.62,0.03877
1357.84,0.03970
1352.05,0.04091
1346.26,0.04157
1340.48,0.04103
1334.69,0.04108
1328.91,0.04169
1323.12,0.04121
1317.33,0.04147
1311.55,0.04359
1305.76,0.04562
1299.97,0.04729
1294.19,0.04666
1288.4,0.04427
1282.62,0.04154
1276.83,0.04107
1271.04,0.04135
1265.26,0.04174
1259.47,0.04238
1253.68,0.04299
1247.9,0.04374
1242.11,0.04398
1236.33,0.04304
1230.54,0.04321
1224.75,0.04403
1218.97,0.04426
1213.18,0.04300
1207.39,0.04180
1201.61,0.04219
1195.82,0.04347
1190.04,0.04096
1184.25,0.03722
1178.46,0.03271
1172.68,0.02973
1166.89,0.03022
1161.1,0.03180
1155.32,0.03312
1149.53,0.03276
1143.75,0.03176
1137.96,0.03106
1132.17,0.02923
1126.39,0.02781
1120.6,0.02832
1114.81,0.02956
1109.03,0.03075
1103.24,0.03115
1097.46,0.03097
1091.67,0.03007
1085.88,0.03115
1080.1,0.03118
1074.31,0.03335
1068.52,0.03589
1062.74,0.04062
1056.95,0.04300
1051.17,0.04280
1045.38,0.04228
1039.59,0.04352
1033.81,0.04652
1028.02,0.04766
1022.24,0.04852
1016.45,0.05011
1010.66,0.05227
1004.88,0.05364
999.09,0.05596
993.304,0.05957
987.518,0.06351
981.731,0.06992
975.945,0.07633
970.159,0.08023
964.373,0.08473
958.586,0.09107
952.8,0.09758
947.014,0.10166
941.228,0.10340
935.441,0.10525
929.655,0.10709
923.869,0.10591
918.083,0.10214
912.297,0.09824
906.51,0.09445
900.724,0.09031
894.938,0.09195
889.152,0.09949
883.365,0.10290
877.579,0.10288
871.793,0.10585
866.007,0.11154
860.22,0.11348
854.434,0.11421
848.648,0.11673
842.862,0.11937
837.075,0.11653
831.289,0.11186
825.503,0.10794
819.717,0.10234
813.931,0.09746
808.144,0.09497
802.358,0.09408
796.572,0.09549
790.786,0.09372
784.999,0.09124
779.213,0.08929
773.427,0.08758
767.641,0.08484
761.854,0.08227
756.068,0.07930
750.282,0.07767
744.496,0.07450
738.709,0.07152
732.923,0.06776
727.137,0.06504
721.351,0.06034
715.565,0.05739
709.778,0.05652
703.992,0.05475
698.206,0.05375
692.42,0.05307
686.633,0.05137
680.847,0.05013
675.061,0.04754
669.275,0.04556
663.488,0.04832
657.702,0.04907
651.916,0.04937
646.13,0.04814
640.343,0.04708
634.557,0.04250
628.771,0.04379
622.985,0.04450
617.198,0.04366
611.412,0.04502
605.626,0.04422
599.84,0.04766