File: 01_Data/Cellulose_Insulation/FTIR/IS/Cellulose_Insulation_IS_S_220913_R8.dpt
7497.03,0.53216
7491.25,0.53948
7485.46,0.53552
7479.67,0.52619
7473.89,0.53030
7468.1,0.52656
7462.32,0.53558
7456.53,0.53583
7450.74,0.53067
7444.96,0.54118
7439.17,0.53485
7433.38,0.53486
7427.6,0.53324
7421.81,0.53022
7416.03,0.51801
7410.24,0.52466
7404.45,0.52541
7398.67,0.52284
7392.88,0.52422
7387.09,0.52702
7381.31,0.52827
7375.52,0.52216
7369.74,0.51854
7363.95,0.51715
7358.16,0.52610
7352.38,0.53878
7346.59,0.53287
7340.8,0.52864
7335.02,0.52190
7329.23,0.53321
7323.45,0.52972
7317.66,0.52067
7311.87,0.52351
7306.09,0.51334
7300.3,0.52363
7294.51,0.53487
7288.73,0.52364
7282.94,0.53551
7277.16,0.53632
7271.37,0.52203
7265.58,0.51883
7259.8,0.52122
7254.01,0.52371
7248.22,0.52920
7242.44,0.53429
7236.65,0.52328
7230.87,0.51821
7225.08,0.52285
7219.29,0.51985
7213.51,0.51596
7207.72,0.52540
7201.93,0.51909
7196.15,0.53019
7190.36,0.52971
7184.58,0.52616
7178.79,0.52736
7173,0.52066
7167.22,0.52164
7161.43,0.52456
7155.65,0.52549
7149.86,0.51599
7144.07,0.52610
7138.29,0.51341
7132.5,0.52072
7126.71,0.52021
7120.93,0.51285
7115.14,0.51368
7109.36,0.51642
7103.57,0.51767
7097.78,0.52018
7092,0.51935
7086.21,0.51207
7080.42,0.51085
7074.64,0.51651
7068.85,0.50891
7063.07,0.51840
7057.28,0.50955
7051.49,0.51354
7045.71,0.51368
7039.92,0.51105
7034.13,0.51143
7028.35,0.49771
7022.56,0.50197
7016.78,0.50414
7010.99,0.50052
7005.2,0.50417
6999.42,0.49833
6993.63,0.49602
6987.84,0.49592
6982.06,0.49944
6976.27,0.49320
6970.49,0.49944
6964.7,0.49725
6958.91,0.49259
6953.13,0.49223
6947.34,0.49737
6941.55,0.48978
6935.77,0.48724
6929.98,0.49378
6924.2,0.49156
6918.41,0.48860
6912.62,0.49823
6906.84,0.49274
6901.05,0.49415
6895.26,0.50092
6889.48,0.49447
6883.69,0.49553
6877.91,0.49340
6872.12,0.50121
6866.33,0.49051
6860.55,0.49246
6854.76,0.48771
6848.97,0.49056
6843.19,0.49358
6837.4,0.49281
6831.62,0.49424
6825.83,0.49484
6820.04,0.50123
6814.26,0.49099
6808.47,0.48915
6802.68,0.49339
6796.9,0.50010
6791.11,0.49425
6785.33,0.49198
6779.54,0.49075
6773.75,0.48628
6767.97,0.48837
6762.18,0.48726
6756.39,0.48796
6750.61,0.48803
6744.82,0.49565
6739.04,0.49051
6733.25,0.49190
6727.46,0.49042
6721.68,0.49097
6715.89,0.49207
6710.1,0.48969
6704.32,0.49039
6698.53,0.48155
6692.75,0.48822
6686.96,0.48964
6681.17,0.49247
6675.39,0.49238
6669.6,0.48802
6663.82,0.49157
6658.03,0.48487
6652.24,0.49518
6646.46,0.49213
6640.67,0.49235
6634.88,0.49358
6629.1,0.48972
6623.31,0.49440
6617.53,0.49501
6611.74,0.49352
6605.95,0.49395
6600.17,0.48906
6594.38,0.49704
6588.59,0.49635
6582.81,0.49444
6577.02,0.49644
6571.24,0.49718
6565.45,0.49619
6559.66,0.49590
6553.88,0.49774
6548.09,0.49913
6542.3,0.49766
6536.52,0.49830
6530.73,0.49616
6524.95,0.50139
6519.16,0.49153
6513.37,0.49644
6507.59,0.50198
6501.8,0.49270
6496.01,0.49961
6490.23,0.49642
6484.44,0.49719
6478.66,0.49517
6472.87,0.49607
6467.08,0.49930
6461.3,0.49654
6455.51,0.49737
6449.72,0.49410
6443.94,0.49710
6438.15,0.49573
6432.37,0.49844
6426.58,0.49939
6420.79,0.49854
6415.01,0.49755
6409.22,0.49765
6403.43,0.49391
6397.65,0.49699
6391.86,0.49544
6386.08,0.49524
6380.29,0.49580
6374.5,0.49462
6368.72,0.49899
6362.93,0.49781
6357.14,0.49828
6351.36,0.49901
6345.57,0.50123
6339.79,0.49635
6334,0.49903
6328.21,0.49753
6322.43,0.50009
6316.64,0.49825
6310.85,0.49837
6305.07,0.49646
6299.28,0.49823
6293.5,0.50032
6287.71,0.50016
6281.92,0.50171
6276.14,0.50352
6270.35,0.50621
6264.56,0.50375
6258.78,0.50180
6252.99,0.50541
6247.21,0.50659
6241.42,0.50720
6235.63,0.50554
6229.85,0.50877
6224.06,0.50600
6218.27,0.51131
6212.49,0.50743
6206.7,0.50880
6200.92,0.50878
6195.13,0.51035
6189.34,0.51229
6183.56,0.51175
6177.77,0.51359
6171.98,0.51508
6166.2,0.51428
6160.41,0.51612
6154.63,0.51923
6148.84,0.51370
6143.05,0.51630
6137.27,0.51771
6131.48,0.51577
6125.7,0.51639
6119.91,0.52074
6114.12,0.51738
6108.34,0.51587
6102.55,0.51834
6096.76,0.51980
6090.98,0.51858
6085.19,0.51806
6079.41,0.51945
6073.62,0.51848
6067.83,0.51977
6062.05,0.52028
6056.26,0.52089
6050.47,0.52131
6044.69,0.51646
6038.9,0.52161
6033.12,0.52164
6027.33,0.51831
6021.54,0.52072
6015.76,0.52263
6009.97,0.52223
6004.18,0.51805
5998.4,0.51873
5992.61,0.52246
5986.83,0.52057
5981.04,0.51958
5975.25,0.51991
5969.47,0.52144
5963.68,0.52239
5957.89,0.52023
5952.11,0.52032
5946.32,0.51878
5940.54,0.52128
5934.75,0.51931
5928.96,0.51908
5923.18,0.52221
5917.39,0.51957
5911.6,0.52096
5905.82,0.52144
5900.03,0.52060
5894.25,0.51950
5888.46,0.51814
5882.67,0.51669
5876.89,0.51931
5871.1,0.51830
5865.31,0.51660
5859.53,0.51602
5853.74,0.51801
5847.96,0.51960
5842.17,0.52009
5836.38,0.52216
5830.6,0.51837
5824.81,0.51798
5819.02,0.52018
5813.24,0.51882
5807.45,0.51759
5801.67,0.51708
5795.88,0.51667
5790.09,0.51969
5784.31,0.51653
5778.52,0.51734
5772.73,0.51870
5766.95,0.51784
5761.16,0.51817
5755.38,0.51799
5749.59,0.52085
5743.8,0.52094
5738.02,0.51817
5732.23,0.51777
5726.44,0.51890
5720.66,0.51925
5714.87,0.52036
5709.09,0.52093
5703.3,0.52005
5697.51,0.52208
5691.73,0.51877
5685.94,0.51842
5680.15,0.51894
5674.37,0.52058
5668.58,0.52125
5662.8,0.51945
5657.01,0.51827
5651.22,0.51934
5645.44,0.52062
5639.65,0.51915
5633.87,0.52347
5628.08,0.52009
5622.29,0.52210
5616.51,0.52066
5610.72,0.51830
5604.93,0.51868
5599.15,0.51979
5593.36,0.52077
5587.58,0.52197
5581.79,0.51973
5576,0.52043
5570.22,0.51958
5564.43,0.52014
5558.64,0.51955
5552.86,0.51960
5547.07,0.52276
5541.29,0.52114
5535.5,0.52181
5529.71,0.52167
5523.93,0.52145
5518.14,0.52294
5512.35,0.52076
5506.57,0.52399
5500.78,0.52267
5495,0.52287
5489.21,0.52386
5483.42,0.52216
5477.64,0.52401
5471.85,0.52366
5466.06,0.52566
5460.28,0.52419
5454.49,0.52269
5448.71,0.52504
5442.92,0.52355
5437.13,0.52597
5431.35,0.52758
5425.56,0.52598
5419.77,0.52704
5413.99,0.52882
5408.2,0.52875
5402.42,0.52829
5396.63,0.52690
5390.84,0.52723
5385.06,0.52785
5379.27,0.52833
5373.48,0.52916
5367.7,0.52732
5361.91,0.52737
5356.13,0.52712
5350.34,0.52768
5344.55,0.52795
5338.77,0.52846
5332.98,0.52747
5327.19,0.52572
5321.41,0.52644
5315.62,0.52585
5309.84,0.52476
5304.05,0.52346
5298.26,0.52141
5292.48,0.51997
5286.69,0.51649
5280.9,0.51578
5275.12,0.51196
5269.33,0.50736
5263.55,0.50513
5257.76,0.50013
5251.97,0.49704
5246.19,0.49393
5240.4,0.48859
5234.61,0.48612
5228.83,0.48460
5223.04,0.48046
5217.26,0.47901
5211.47,0.47935
5205.68,0.47908
5199.9,0.47582
5194.11,0.47596
5188.32,0.47546
5182.54,0.47639
5176.75,0.47687
5170.97,0.47951
5165.18,0.47923
5159.39,0.47855
5153.61,0.48205
5147.82,0.48143
5142.03,0.48405
5136.25,0.48344
5130.46,0.48612
5124.68,0.48701
5118.89,0.48797
5113.1,0.48899
5107.32,0.49120
5101.53,0.49165
5095.75,0.49180
5089.96,0.49224
5084.17,0.49131
5078.39,0.49345
5072.6,0.49491
5066.81,0.49513
5061.03,0.49581
5055.24,0.49691
5049.46,0.49675
5043.67,0.49465
5037.88,0.49441
5032.1,0.49449
5026.31,0.49412
5020.52,0.49407
5014.74,0.49253
5008.95,0.48988
5003.17,0.48902
4997.38,0.49024
4991.59,0.48846
4985.81,0.48594
4980.02,0.48368
4974.23,0.48254
4968.45,0.48163
4962.66,0.47851
4956.88,0.47669
4951.09,0.47545
4945.3,0.47131
4939.52,0.47012
4933.73,0.46705
4927.94,0.46551
4922.16,0.46309
4916.37,0.45999
4910.59,0.45540
4904.8,0.45466
4899.01,0.45152
4893.23,0.44955
4887.44,0.44615
4881.65,0.44215
4875.87,0.44045
4870.08,0.43711
4864.3,0.43582
4858.51,0.43209
4852.72,0.42959
4846.94,0.42815
4841.15,0.42650
4835.36,0.42413
4829.58,0.42170
4823.79,0.41894
4818.01,0.41705
4812.22,0.41570
4806.43,0.41465
4800.65,0.41249
4794.86,0.41063
4789.07,0.40960
4783.29,0.40796
4777.5,0.40637
4771.72,0.40605
4765.93,0.40541
4760.14,0.40377
4754.36,0.40334
4748.57,0.40247
4742.78,0.40160
4737,0.40137
4731.21,0.40116
4725.43,0.40165
4719.64,0.40100
4713.85,0.40212
4708.07,0.40208
4702.28,0.40351
4696.49,0.40440
4690.71,0.40502
4684.92,0.40638
4679.14,0.40583
4673.35,0.40719
4667.56,0.40875
4661.78,0.40873
4655.99,0.41019
4650.2,0.41080
4644.42,0.41217
4638.63,0.41339
4632.85,0.41455
4627.06,0.41567
4621.27,0.41659
4615.49,0.41883
4609.7,0.41993
4603.92,0.42194
4598.13,0.42446
4592.34,0.42629
4586.56,0.42793
4580.77,0.42953
4574.98,0.43092
4569.2,0.43130
4563.41,0.43399
4557.63,0.43467
4551.84,0.43668
4546.05,0.43799
4540.27,0.43933
4534.48,0.43904
4528.69,0.43916
4522.91,0.44065
4517.12,0.44310
4511.34,0.44539
4505.55,0.44565
4499.76,0.44518
4493.98,0.44596
4488.19,0.44654
4482.4,0.44523
4476.62,0.44440
4470.83,0.44275
4465.05,0.44146
4459.26,0.43744
4453.47,0.43644
4447.69,0.43280
4441.9,0.43009
4436.11,0.42611
4430.33,0.42213
4424.54,0.41769
4418.76,0.41480
4412.97,0.40845
4407.18,0.40501
4401.4,0.40299
4395.61,0.40288
4389.82,0.40299
4384.04,0.40542
4378.25,0.40786
4372.47,0.40922
4366.68,0.41122
4360.89,0.41166
4355.11,0.41098
4349.32,0.40979
4343.53,0.40923
4337.75,0.40849
4331.96,0.40724
4326.18,0.40435
4320.39,0.40203
4314.6,0.40061
4308.82,0.39905
4303.03,0.39714
4297.24,0.39579
4291.46,0.39529
4285.67,0.39412
4279.89,0.39229
4274.1,0.39270
4268.31,0.39306
4262.53,0.39463
4256.74,0.39479
4250.95,0.39596
4245.17,0.39644
4239.38,0.39708
4233.6,0.39877
4227.81,0.39961
4222.02,0.39981
4216.24,0.39951
4210.45,0.39941
4204.66,0.40047
4198.88,0.40186
4193.09,0.40257
4187.31,0.40273
4181.52,0.40321
4175.73,0.40429
4169.95,0.40608
4164.16,0.40633
4158.37,0.40643
4152.59,0.40583
4146.8,0.40346
4141.02,0.40303
4135.23,0.40159
4129.44,0.39996
4123.66,0.39657
4117.87,0.39389
4112.09,0.39079
4106.3,0.38656
4100.51,0.38284
4094.73,0.37785
4088.94,0.37341
4083.15,0.36886
4077.37,0.36445
4071.58,0.36028
4065.8,0.35571
4060.01,0.34994
4054.22,0.34505
4048.44,0.34017
4042.65,0.33653
4036.86,0.33231
4031.08,0.32869
4025.29,0.32688
4019.51,0.32605
4013.72,0.32570
4007.93,0.32632
4002.15,0.32750
3996.36,0.32878
3990.57,0.33109
3984.79,0.33280
3979,0.33345
3973.22,0.33541
3967.43,0.33679
3961.64,0.33959
3955.86,0.34154
3950.07,0.34327
3944.28,0.34635
3938.5,0.34909
3932.71,0.35109
3926.93,0.35337
3921.14,0.35605
3915.35,0.35812
3909.57,0.35972
3903.78,0.36296
3897.99,0.36424
3892.21,0.36621
3886.42,0.36757
3880.64,0.36926
3874.85,0.37052
3869.06,0.37258
3863.28,0.37537
3857.49,0.37823
3851.7,0.38160
3845.92,0.38142
3840.13,0.38377
3834.35,0.38536
3828.56,0.38454
3822.77,0.38541
3816.99,0.38517
3811.2,0.38349
3805.41,0.38438
3799.63,0.38398
3793.84,0.38297
3788.06,0.38174
3782.27,0.38073
3776.48,0.37912
3770.7,0.37774
3764.91,0.37581
3759.12,0.37313
3753.34,0.37105
3747.55,0.36867
3741.77,0.36304
3735.98,0.35906
3730.19,0.35065
3724.41,0.34253
3718.62,0.32934
3712.83,0.31284
3707.05,0.28615
3701.26,0.25468
3695.48,0.23016
3689.69,0.23269
3683.9,0.23924
3678.12,0.23482
3672.33,0.21835
3666.54,0.20262
3660.76,0.19096
3654.97,0.17369
3649.19,0.16339
3643.4,0.15682
3637.61,0.14783
3631.83,0.13760
3626.04,0.12303
3620.25,0.10776
3614.47,0.10795
3608.68,0.10372
3602.9,0.09716
3597.11,0.08996
3591.32,0.08445
3585.54,0.07930
3579.75,0.07428
3573.97,0.06967
3568.18,0.06625
3562.39,0.06270
3556.61,0.05970
3550.82,0.05596
3545.03,0.05362
3539.25,0.05166
3533.46,0.04913
3527.68,0.04767
3521.89,0.04564
3516.1,0.04427
3510.32,0.04254
3504.53,0.04115
3498.74,0.03976
3492.96,0.03891
3487.17,0.03788
3481.39,0.03703
3475.6,0.03623
3469.81,0.03552
3464.03,0.03510
3458.24,0.03449
3452.45,0.03420
3446.67,0.03364
3440.88,0.03323
3435.1,0.03264
3429.31,0.03334
3423.52,0.03229
3417.74,0.03264
3411.95,0.03246
3406.16,0.03257
3400.38,0.03217
3394.59,0.03175
3388.81,0.03205
3383.02,0.03189
3377.23,0.03208
3371.45,0.03236
3365.66,0.03204
3359.87,0.03166
3354.09,0.03146
3348.3,0.03206
3342.52,0.03285
3336.73,0.03338
3330.94,0.03432
3325.16,0.03459
3319.37,0.03507
3313.58,0.03603
3307.8,0.03636
3302.01,0.03701
3296.23,0.03701
3290.44,0.03757
3284.65,0.03864
3278.87,0.03941
3273.08,0.04055
3267.29,0.04163
3261.51,0.04361
3255.72,0.04505
3249.94,0.04603
3244.15,0.04737
3238.36,0.04884
3232.58,0.04996
3226.79,0.05146
3221,0.05357
3215.22,0.05505
3209.43,0.05666
3203.65,0.05821
3197.86,0.05963
3192.07,0.06200
3186.29,0.06302
3180.5,0.06465
3174.71,0.06686
3168.93,0.06858
3163.14,0.07051
3157.36,0.07301
3151.57,0.07462
3145.78,0.07643
3140,0.07879
3134.21,0.08007
3128.42,0.08235
3122.64,0.08479
3116.85,0.08620
3111.07,0.08852
3105.28,0.09058
3099.49,0.09237
3093.71,0.09428
3087.92,0.09590
3082.14,0.09717
3076.35,0.09955
3070.56,0.10066
3064.78,0.10236
3058.99,0.10454
3053.2,0.10614
3047.42,0.10775
3041.63,0.10873
3035.85,0.11034
3030.06,0.11101
3024.27,0.11142
3018.49,0.11107
3012.7,0.11046
3006.91,0.10998
3001.13,0.10882
2995.34,0.10681
2989.56,0.10358
2983.77,0.09917
2977.98,0.09244
2972.2,0.08436
2966.41,0.07742
2960.62,0.07444
2954.84,0.07116
2949.05,0.06768
2943.27,0.06438
2937.48,0.06260
2931.69,0.06095
2925.91,0.05994
2920.12,0.05872
2914.33,0.05783
2908.55,0.05736
2902.76,0.05762
2896.98,0.05957
2891.19,0.06112
2885.4,0.06280
2879.62,0.06425
2873.83,0.06489
2868.04,0.06678
2862.26,0.06955
2856.47,0.07252
2850.69,0.07625
2844.9,0.08179
2839.11,0.08798
2833.33,0.09527
2827.54,0.10189
2821.75,0.10818
2815.97,0.11384
2810.18,0.11896
2804.4,0.12324
2798.61,0.12683
2792.82,0.13011
2787.04,0.13255
2781.25,0.13454
2775.46,0.13637
2769.68,0.13762
2763.89,0.13902
2758.11,0.14042
2752.32,0.14188
2746.53,0.14276
2740.75,0.14285
2734.96,0.14401
2729.17,0.14565
2723.39,0.14794
2717.6,0.14988
2711.82,0.15271
2706.03,0.15556
2700.24,0.15857
2694.46,0.16209
2688.67,0.16403
2682.88,0.16744
2677.1,0.17028
2671.31,0.17187
2665.53,0.17406
2659.74,0.17562
2653.95,0.17736
2648.17,0.17962
2642.38,0.18173
2636.59,0.18395
2630.81,0.18590
2625.02,0.18833
2619.24,0.19040
2613.45,0.19205
2607.66,0.19378
2601.88,0.19584
2596.09,0.19746
2590.3,0.19893
2584.52,0.20003
2578.73,0.20150
2572.95,0.20202
2567.16,0.20256
2561.37,0.20239
2555.59,0.20250
2549.8,0.20285
2544.02,0.20291
2538.23,0.20339
2532.44,0.20396
2526.66,0.20468
2520.87,0.20498
2515.08,0.20661
2509.3,0.20897
2503.51,0.21372
2497.73,0.21796
2491.94,0.22190
2486.15,0.22518
2480.37,0.22815
2474.58,0.23121
2468.79,0.23403
2463.01,0.23600
2457.22,0.23772
2451.44,0.23985
2445.65,0.24250
2439.86,0.24525
2434.08,0.24787
2428.29,0.25061
2422.5,0.25360
2416.72,0.25694
2410.93,0.25882
2405.15,0.26119
2399.36,0.26304
2393.57,0.26577
2387.79,0.26744
2382,0.26909
2376.21,0.27100
2370.43,0.27306
2364.64,0.27420
2358.86,0.27568
2353.07,0.27616
2347.28,0.27826
2341.5,0.28000
2335.71,0.28091
2329.92,0.28155
2324.14,0.28225
2318.35,0.28284
2312.57,0.28271
2306.78,0.28237
2300.99,0.28108
2295.21,0.27982
2289.42,0.27924
2283.63,0.27819
2277.85,0.27698
2272.06,0.27464
2266.28,0.27192
2260.49,0.26939
2254.7,0.26792
2248.92,0.26712
2243.13,0.26761
2237.34,0.26656
2231.56,0.26630
2225.77,0.26649
2219.99,0.26686
2214.2,0.26736
2208.41,0.26749
2202.63,0.26662
2196.84,0.26566
2191.05,0.26406
2185.27,0.26104
2179.48,0.25786
2173.7,0.25409
2167.91,0.25083
2162.12,0.24834
2156.34,0.24596
2150.55,0.24456
2144.76,0.24243
2138.98,0.24092
2133.19,0.24091
2127.41,0.24168
2121.62,0.24255
2115.83,0.24309
2110.05,0.24412
2104.26,0.24493
2098.47,0.24566
2092.69,0.24681
2086.9,0.24719
2081.12,0.24663
2075.33,0.24548
2069.54,0.24405
2063.76,0.24258
2057.97,0.24203
2052.19,0.24197
2046.4,0.24242
2040.61,0.24397
2034.83,0.24626
2029.04,0.25004
2023.25,0.25405
2017.47,0.25775
2011.68,0.26085
2005.9,0.26288
2000.11,0.26408
1994.32,0.26652
1988.54,0.26912
1982.75,0.27113
1976.96,0.27235
1971.18,0.27338
1965.39,0.27462
1959.61,0.27585
1953.82,0.27779
1948.03,0.27994
1942.25,0.28224
1936.46,0.28401
1930.67,0.28561
1924.89,0.28629
1919.1,0.28727
1913.32,0.28737
1907.53,0.28777
1901.74,0.28762
1895.96,0.28692
1890.17,0.28628
1884.38,0.28522
1878.6,0.28400
1872.81,0.28282
1867.03,0.28151
1861.24,0.27971
1855.45,0.27762
1849.67,0.27525
1843.88,0.27319
1838.09,0.27007
1832.31,0.26748
1826.52,0.26434
1820.74,0.26054
1814.95,0.25717
1809.16,0.25261
1803.38,0.24531
1797.59,0.23526
1791.8,0.23066
1786.02,0.22744
1780.23,0.22049
1774.45,0.21066
1768.66,0.19401
1762.87,0.17439
1757.09,0.15376
1751.3,0.13640
1745.51,0.12462
1739.73,0.11930
1733.94,0.11839
1728.16,0.12049
1722.37,0.12498
1716.58,0.13174
1710.8,0.13808
1705.01,0.14316
1699.22,0.14465
1693.44,0.14148
1687.65,0.13679
1681.87,0.12776
1676.08,0.11775
1670.29,0.10879
1664.51,0.10181
1658.72,0.09843
1652.93,0.09938
1647.15,0.09901
1641.36,0.09786
1635.58,0.09811
1629.79,0.09824
1624,0.09899
1618.22,0.09829
1612.43,0.09551
1606.64,0.09320
1600.86,0.09383
1595.07,0.09444
1589.29,0.09691
1583.5,0.10373
1577.71,0.11494
1571.93,0.12788
1566.14,0.13579
1560.35,0.13886
1554.57,0.13753
1548.78,0.13249
1543,0.12726
1537.21,0.11725
1531.42,0.10554
1525.64,0.09002
1519.85,0.07139
1514.07,0.05978
1508.28,0.05763
1502.49,0.05940
1496.71,0.06139
1490.92,0.05922
1485.13,0.05412
1479.35,0.04874
1473.56,0.04473
1467.78,0.04116
1461.99,0.03967
1456.2,0.03885
1450.42,0.03792
1444.63,0.03799
1438.84,0.03571
1433.06,0.03445
1427.27,0.03478
1421.49,0.03682
1415.7,0.03895
1409.91,0.04013
1404.13,0.04065
1398.34,0.04081
1392.55,0.04027
1386.77,0.03884
1380.98,0.03712
1375.2,0.03679
1369.41,0.03717
1363.62,0.03820
1357.84,0.03952
1352.05,0.04066
1346.26,0.04085
1340.48,0.04017
1334.69,0.04015
1328.91,0.04115
1323.12,0.04066
1317.33,0.04083
1311.55,0.04273
1305.76,0.04527
1299.97,0.04662
1294.19,0.04582
1288.4,0.04397
1282.62,0.04131
1276.83,0.04143
1271.04,0.04144
1265.26,0.04130
1259.47,0.04211
1253.68,0.04269
1247.9,0.04332
1242.11,0.04293
1236.33,0.04231
1230.54,0.04292
1224.75,0.04334
1218.97,0.04366
1213.18,0.04229
1207.39,0.04105
1201.61,0.04163
1195.82,0.04145
1190.04,0.03946
1184.25,0.03575
1178.46,0.03173
1172.68,0.02904
1166.89,0.02930
1161.1,0.03206
1155.32,0.03190
1149.53,0.03155
1143.75,0.03126
1137.96,0.02899
1132.17,0.02784
1126.39,0.02729
1120.6,0.02810
1114.81,0.02866
1109.03,0.03007
1103.24,0.03047
1097.46,0.03037
1091.67,0.02965
1085.88,0.03009
1080.1,0.03097
1074.31,0.03346
1068.52,0.03557
1062.74,0.04007
1056.95,0.04295
1051.17,0.04231
1045.38,0.04189
1039.59,0.04313
1033.81,0.04692
1028.02,0.04802
1022.24,0.04822
1016.45,0.04937
1010.66,0.05101
1004.88,0.05273
999.09,0.05514
993.304,0.05866
987.518,0.06200
981.731,0.06857
975.945,0.07473
970.159,0.07864
964.373,0.08260
958.586,0.08901
952.8,0.09528
947.014,0.09980
941.228,0.10062
935.441,0.10261
929.655,0.10386
923.869,0.10298
918.083,0.10001
912.297,0.09545
906.51,0.09192
900.724,0.08859
894.938,0.09042
889.152,0.09792
883.365,0.10220
877.579,0.10087
871.793,0.10507
866.007,0.11249
860.22,0.11325
854.434,0.11266
848.648,0.11773
842.862,0.11851
837.075,0.11688
831.289,0.11332
825.503,0.10780
819.717,0.10198
813.931,0.09765
808.144,0.09609
802.358,0.09531
796.572,0.09535
790.786,0.09358
784.999,0.09112
779.213,0.08975
773.427,0.08797
767.641,0.08432
761.854,0.08265
756.068,0.07846
750.282,0.07732
744.496,0.07364
738.709,0.07034
732.923,0.06692
727.137,0.06387
721.351,0.06042
715.565,0.05657
709.778,0.05466
703.992,0.05341
698.206,0.05263
692.42,0.05312
686.633,0.05114
680.847,0.04918
675.061,0.04543
669.275,0.04535
663.488,0.04604
657.702,0.04732
651.916,0.04719
646.13,0.04787
640.343,0.04551
634.557,0.04408
628.771,0.04259
622.985,0.04275
617.198,0.04337
611.412,0.04572
605.626,0.04773
599.84,0.04776