File: 01_Data/Cellulose_Insulation/FTIR/IS/Cellulose_Insulation_IS_S_220913_R6.dpt
7497.03,0.53365
7491.25,0.52708
7485.46,0.51053
7479.67,0.52441
7473.89,0.52238
7468.1,0.53579
7462.32,0.52771
7456.53,0.52263
7450.74,0.52051
7444.96,0.52515
7439.17,0.52345
7433.38,0.52306
7427.6,0.52415
7421.81,0.52304
7416.03,0.52279
7410.24,0.53189
7404.45,0.52233
7398.67,0.51545
7392.88,0.52308
7387.09,0.52323
7381.31,0.51616
7375.52,0.52856
7369.74,0.51428
7363.95,0.52112
7358.16,0.52182
7352.38,0.53187
7346.59,0.53135
7340.8,0.51792
7335.02,0.51544
7329.23,0.52317
7323.45,0.51141
7317.66,0.51388
7311.87,0.52134
7306.09,0.51555
7300.3,0.52400
7294.51,0.52200
7288.73,0.52388
7282.94,0.51396
7277.16,0.51515
7271.37,0.52323
7265.58,0.51980
7259.8,0.53004
7254.01,0.51762
7248.22,0.51951
7242.44,0.51570
7236.65,0.51980
7230.87,0.52080
7225.08,0.52447
7219.29,0.51620
7213.51,0.52199
7207.72,0.51991
7201.93,0.52225
7196.15,0.52182
7190.36,0.51703
7184.58,0.51156
7178.79,0.51957
7173,0.52077
7167.22,0.50427
7161.43,0.52262
7155.65,0.52362
7149.86,0.51385
7144.07,0.52019
7138.29,0.51785
7132.5,0.51819
7126.71,0.51405
7120.93,0.51328
7115.14,0.50975
7109.36,0.51353
7103.57,0.51284
7097.78,0.50982
7092,0.51283
7086.21,0.51413
7080.42,0.51455
7074.64,0.50400
7068.85,0.50867
7063.07,0.50070
7057.28,0.50960
7051.49,0.50271
7045.71,0.50015
7039.92,0.50377
7034.13,0.50635
7028.35,0.50430
7022.56,0.49712
7016.78,0.49076
7010.99,0.49415
7005.2,0.49530
6999.42,0.49251
6993.63,0.49556
6987.84,0.50023
6982.06,0.49045
6976.27,0.48579
6970.49,0.49163
6964.7,0.48975
6958.91,0.49455
6953.13,0.48933
6947.34,0.49148
6941.55,0.49163
6935.77,0.49589
6929.98,0.49123
6924.2,0.48786
6918.41,0.48792
6912.62,0.48984
6906.84,0.48824
6901.05,0.48621
6895.26,0.48935
6889.48,0.48278
6883.69,0.48339
6877.91,0.48330
6872.12,0.49363
6866.33,0.49056
6860.55,0.48903
6854.76,0.49016
6848.97,0.48358
6843.19,0.48903
6837.4,0.48535
6831.62,0.48632
6825.83,0.48341
6820.04,0.48482
6814.26,0.48895
6808.47,0.48985
6802.68,0.48872
6796.9,0.48457
6791.11,0.48596
6785.33,0.48534
6779.54,0.48536
6773.75,0.48212
6767.97,0.48423
6762.18,0.48679
6756.39,0.48591
6750.61,0.48738
6744.82,0.49141
6739.04,0.48465
6733.25,0.48183
6727.46,0.48477
6721.68,0.48166
6715.89,0.47922
6710.1,0.48438
6704.32,0.48096
6698.53,0.48622
6692.75,0.48624
6686.96,0.48850
6681.17,0.49124
6675.39,0.48696
6669.6,0.47941
6663.82,0.48640
6658.03,0.48564
6652.24,0.48756
6646.46,0.48489
6640.67,0.48524
6634.88,0.48697
6629.1,0.48653
6623.31,0.49071
6617.53,0.48720
6611.74,0.48983
6605.95,0.49216
6600.17,0.48934
6594.38,0.48809
6588.59,0.49603
6582.81,0.48887
6577.02,0.49122
6571.24,0.48793
6565.45,0.48864
6559.66,0.48941
6553.88,0.49099
6548.09,0.49249
6542.3,0.49220
6536.52,0.49144
6530.73,0.49466
6524.95,0.49428
6519.16,0.48784
6513.37,0.48697
6507.59,0.49127
6501.8,0.49128
6496.01,0.48889
6490.23,0.49130
6484.44,0.48734
6478.66,0.49318
6472.87,0.48643
6467.08,0.48159
6461.3,0.48846
6455.51,0.49258
6449.72,0.49006
6443.94,0.49088
6438.15,0.49146
6432.37,0.48784
6426.58,0.49300
6420.79,0.48529
6415.01,0.48754
6409.22,0.48728
6403.43,0.48539
6397.65,0.48801
6391.86,0.49171
6386.08,0.49078
6380.29,0.48595
6374.5,0.48927
6368.72,0.48853
6362.93,0.49252
6357.14,0.49212
6351.36,0.48742
6345.57,0.48755
6339.79,0.49401
6334,0.49067
6328.21,0.49174
6322.43,0.49334
6316.64,0.49047
6310.85,0.49104
6305.07,0.49440
6299.28,0.49661
6293.5,0.49443
6287.71,0.49495
6281.92,0.49584
6276.14,0.49404
6270.35,0.49607
6264.56,0.49623
6258.78,0.49886
6252.99,0.49752
6247.21,0.49653
6241.42,0.49726
6235.63,0.49832
6229.85,0.50069
6224.06,0.49886
6218.27,0.50061
6212.49,0.50554
6206.7,0.50220
6200.92,0.50502
6195.13,0.50666
6189.34,0.50389
6183.56,0.50610
6177.77,0.50338
6171.98,0.50585
6166.2,0.50330
6160.41,0.50785
6154.63,0.50726
6148.84,0.50515
6143.05,0.50597
6137.27,0.50617
6131.48,0.51013
6125.7,0.51031
6119.91,0.50699
6114.12,0.50981
6108.34,0.50811
6102.55,0.51184
6096.76,0.51127
6090.98,0.51204
6085.19,0.50965
6079.41,0.51085
6073.62,0.51197
6067.83,0.51049
6062.05,0.51329
6056.26,0.51049
6050.47,0.51070
6044.69,0.50726
6038.9,0.51261
6033.12,0.51382
6027.33,0.51149
6021.54,0.51094
6015.76,0.51167
6009.97,0.51165
6004.18,0.51095
5998.4,0.50914
5992.61,0.51019
5986.83,0.50811
5981.04,0.50980
5975.25,0.51308
5969.47,0.51093
5963.68,0.50902
5957.89,0.51109
5952.11,0.50837
5946.32,0.50977
5940.54,0.51386
5934.75,0.51204
5928.96,0.51145
5923.18,0.50941
5917.39,0.51203
5911.6,0.51056
5905.82,0.51067
5900.03,0.50774
5894.25,0.51158
5888.46,0.50985
5882.67,0.50905
5876.89,0.51036
5871.1,0.50811
5865.31,0.50866
5859.53,0.50800
5853.74,0.50774
5847.96,0.50830
5842.17,0.50789
5836.38,0.50920
5830.6,0.50965
5824.81,0.50841
5819.02,0.50928
5813.24,0.50871
5807.45,0.50735
5801.67,0.50960
5795.88,0.50796
5790.09,0.50986
5784.31,0.51042
5778.52,0.50947
5772.73,0.50887
5766.95,0.50934
5761.16,0.51148
5755.38,0.51100
5749.59,0.50968
5743.8,0.50926
5738.02,0.50979
5732.23,0.50896
5726.44,0.51018
5720.66,0.50829
5714.87,0.51178
5709.09,0.51125
5703.3,0.50926
5697.51,0.51187
5691.73,0.50711
5685.94,0.51018
5680.15,0.51076
5674.37,0.50964
5668.58,0.50914
5662.8,0.51014
5657.01,0.51034
5651.22,0.50963
5645.44,0.51027
5639.65,0.51021
5633.87,0.51070
5628.08,0.51015
5622.29,0.51065
5616.51,0.51112
5610.72,0.50962
5604.93,0.50945
5599.15,0.51054
5593.36,0.50984
5587.58,0.50919
5581.79,0.51154
5576,0.50910
5570.22,0.50948
5564.43,0.51025
5558.64,0.51060
5552.86,0.51157
5547.07,0.51284
5541.29,0.51207
5535.5,0.51189
5529.71,0.51384
5523.93,0.51136
5518.14,0.51240
5512.35,0.51295
5506.57,0.51198
5500.78,0.51411
5495,0.51132
5489.21,0.51254
5483.42,0.51426
5477.64,0.51321
5471.85,0.51392
5466.06,0.51474
5460.28,0.51391
5454.49,0.51426
5448.71,0.51299
5442.92,0.51257
5437.13,0.51544
5431.35,0.51601
5425.56,0.51594
5419.77,0.51594
5413.99,0.51618
5408.2,0.51712
5402.42,0.51718
5396.63,0.51566
5390.84,0.51779
5385.06,0.51616
5379.27,0.51815
5373.48,0.51915
5367.7,0.51683
5361.91,0.51641
5356.13,0.51698
5350.34,0.51715
5344.55,0.51740
5338.77,0.51740
5332.98,0.51648
5327.19,0.51822
5321.41,0.51519
5315.62,0.51597
5309.84,0.51316
5304.05,0.51430
5298.26,0.51215
5292.48,0.51003
5286.69,0.50784
5280.9,0.50641
5275.12,0.50383
5269.33,0.50078
5263.55,0.49608
5257.76,0.49517
5251.97,0.49025
5246.19,0.48648
5240.4,0.48336
5234.61,0.48106
5228.83,0.48050
5223.04,0.47809
5217.26,0.47617
5211.47,0.47479
5205.68,0.47485
5199.9,0.47359
5194.11,0.47294
5188.32,0.47390
5182.54,0.47404
5176.75,0.47385
5170.97,0.47672
5165.18,0.47560
5159.39,0.47732
5153.61,0.47675
5147.82,0.47858
5142.03,0.47968
5136.25,0.48032
5130.46,0.48160
5124.68,0.48335
5118.89,0.48145
5113.1,0.48412
5107.32,0.48559
5101.53,0.48602
5095.75,0.48801
5089.96,0.48574
5084.17,0.48544
5078.39,0.48784
5072.6,0.48825
5066.81,0.48789
5061.03,0.48839
5055.24,0.48811
5049.46,0.48814
5043.67,0.48731
5037.88,0.48773
5032.1,0.48829
5026.31,0.48747
5020.52,0.48528
5014.74,0.48361
5008.95,0.48346
5003.17,0.48113
4997.38,0.48117
4991.59,0.47993
4985.81,0.47840
4980.02,0.47644
4974.23,0.47498
4968.45,0.47408
4962.66,0.46998
4956.88,0.46887
4951.09,0.46632
4945.3,0.46560
4939.52,0.46360
4933.73,0.45862
4927.94,0.45680
4922.16,0.45425
4916.37,0.45203
4910.59,0.44819
4904.8,0.44632
4899.01,0.44481
4893.23,0.44065
4887.44,0.43898
4881.65,0.43572
4875.87,0.43226
4870.08,0.43062
4864.3,0.42791
4858.51,0.42688
4852.72,0.42349
4846.94,0.42035
4841.15,0.41877
4835.36,0.41740
4829.58,0.41430
4823.79,0.41290
4818.01,0.41145
4812.22,0.40900
4806.43,0.40807
4800.65,0.40653
4794.86,0.40506
4789.07,0.40377
4783.29,0.40193
4777.5,0.40024
4771.72,0.39961
4765.93,0.39948
4760.14,0.39871
4754.36,0.39640
4748.57,0.39586
4742.78,0.39679
4737,0.39643
4731.21,0.39551
4725.43,0.39494
4719.64,0.39677
4713.85,0.39718
4708.07,0.39662
4702.28,0.39761
4696.49,0.39887
4690.71,0.39836
4684.92,0.39926
4679.14,0.40018
4673.35,0.40043
4667.56,0.40267
4661.78,0.40207
4655.99,0.40342
4650.2,0.40464
4644.42,0.40711
4638.63,0.40565
4632.85,0.40826
4627.06,0.40870
4621.27,0.41096
4615.49,0.41239
4609.7,0.41482
4603.92,0.41632
4598.13,0.41768
4592.34,0.41984
4586.56,0.42043
4580.77,0.42168
4574.98,0.42335
4569.2,0.42485
4563.41,0.42635
4557.63,0.42781
4551.84,0.42880
4546.05,0.43173
4540.27,0.43139
4534.48,0.43186
4528.69,0.43161
4522.91,0.43370
4517.12,0.43542
4511.34,0.43720
4505.55,0.43850
4499.76,0.43781
4493.98,0.43824
4488.19,0.43832
4482.4,0.43719
4476.62,0.43634
4470.83,0.43452
4465.05,0.43311
4459.26,0.42968
4453.47,0.42757
4447.69,0.42563
4441.9,0.42129
4436.11,0.41890
4430.33,0.41486
4424.54,0.40990
4418.76,0.40677
4412.97,0.40208
4407.18,0.39885
4401.4,0.39634
4395.61,0.39580
4389.82,0.39638
4384.04,0.39848
4378.25,0.40019
4372.47,0.40210
4366.68,0.40355
4360.89,0.40417
4355.11,0.40414
4349.32,0.40296
4343.53,0.40298
4337.75,0.40139
4331.96,0.39952
4326.18,0.39830
4320.39,0.39701
4314.6,0.39536
4308.82,0.39359
4303.03,0.39124
4297.24,0.39052
4291.46,0.38906
4285.67,0.38790
4279.89,0.38683
4274.1,0.38744
4268.31,0.38751
4262.53,0.38749
4256.74,0.38979
4250.95,0.39043
4245.17,0.39128
4239.38,0.39310
4233.6,0.39291
4227.81,0.39348
4222.02,0.39430
4216.24,0.39489
4210.45,0.39506
4204.66,0.39505
4198.88,0.39593
4193.09,0.39653
4187.31,0.39681
4181.52,0.39704
4175.73,0.39802
4169.95,0.39960
4164.16,0.40072
4158.37,0.40116
4152.59,0.40082
4146.8,0.39936
4141.02,0.39772
4135.23,0.39658
4129.44,0.39544
4123.66,0.39282
4117.87,0.38989
4112.09,0.38631
4106.3,0.38208
4100.51,0.37826
4094.73,0.37343
4088.94,0.36930
4083.15,0.36538
4077.37,0.36095
4071.58,0.35600
4065.8,0.35116
4060.01,0.34691
4054.22,0.34171
4048.44,0.33761
4042.65,0.33312
4036.86,0.32940
4031.08,0.32603
4025.29,0.32453
4019.51,0.32325
4013.72,0.32358
4007.93,0.32390
4002.15,0.32522
3996.36,0.32639
3990.57,0.32816
3984.79,0.32977
3979,0.33122
3973.22,0.33212
3967.43,0.33438
3961.64,0.33648
3955.86,0.33883
3950.07,0.34109
3944.28,0.34390
3938.5,0.34595
3932.71,0.34806
3926.93,0.35080
3921.14,0.35255
3915.35,0.35534
3909.57,0.35688
3903.78,0.35957
3897.99,0.36086
3892.21,0.36192
3886.42,0.36414
3880.64,0.36510
3874.85,0.36667
3869.06,0.36949
3863.28,0.37125
3857.49,0.37445
3851.7,0.37614
3845.92,0.37783
3840.13,0.37932
3834.35,0.38027
3828.56,0.38127
3822.77,0.38158
3816.99,0.38130
3811.2,0.37986
3805.41,0.38025
3799.63,0.38002
3793.84,0.37911
3788.06,0.37910
3782.27,0.37779
3776.48,0.37681
3770.7,0.37545
3764.91,0.37375
3759.12,0.37235
3753.34,0.36995
3747.55,0.36700
3741.77,0.36193
3735.98,0.35877
3730.19,0.35269
3724.41,0.34385
3718.62,0.33277
3712.83,0.31702
3707.05,0.29517
3701.26,0.26553
3695.48,0.24247
3689.69,0.24426
3683.9,0.24956
3678.12,0.24557
3672.33,0.22892
3666.54,0.21339
3660.76,0.20106
3654.97,0.18427
3649.19,0.17322
3643.4,0.16644
3637.61,0.15750
3631.83,0.14612
3626.04,0.13097
3620.25,0.11604
3614.47,0.11531
3608.68,0.10983
3602.9,0.10239
3597.11,0.09504
3591.32,0.08822
3585.54,0.08258
3579.75,0.07716
3573.97,0.07202
3568.18,0.06792
3562.39,0.06424
3556.61,0.06112
3550.82,0.05845
3545.03,0.05531
3539.25,0.05299
3533.46,0.05079
3527.68,0.04880
3521.89,0.04660
3516.1,0.04560
3510.32,0.04428
3504.53,0.04155
3498.74,0.04082
3492.96,0.03992
3487.17,0.03835
3481.39,0.03743
3475.6,0.03730
3469.81,0.03655
3464.03,0.03484
3458.24,0.03576
3452.45,0.03465
3446.67,0.03455
3440.88,0.03441
3435.1,0.03331
3429.31,0.03341
3423.52,0.03293
3417.74,0.03311
3411.95,0.03213
3406.16,0.03241
3400.38,0.03237
3394.59,0.03328
3388.81,0.03293
3383.02,0.03286
3377.23,0.03285
3371.45,0.03237
3365.66,0.03249
3359.87,0.03242
3354.09,0.03260
3348.3,0.03298
3342.52,0.03301
3336.73,0.03334
3330.94,0.03485
3325.16,0.03537
3319.37,0.03615
3313.58,0.03657
3307.8,0.03688
3302.01,0.03772
3296.23,0.03857
3290.44,0.03825
3284.65,0.03896
3278.87,0.04022
3273.08,0.04081
3267.29,0.04305
3261.51,0.04452
3255.72,0.04634
3249.94,0.04721
3244.15,0.04935
3238.36,0.05047
3232.58,0.05183
3226.79,0.05319
3221,0.05471
3215.22,0.05660
3209.43,0.05877
3203.65,0.06057
3197.86,0.06268
3192.07,0.06379
3186.29,0.06567
3180.5,0.06705
3174.71,0.06926
3168.93,0.07148
3163.14,0.07374
3157.36,0.07602
3151.57,0.07706
3145.78,0.07972
3140,0.08183
3134.21,0.08423
3128.42,0.08654
3122.64,0.08776
3116.85,0.09012
3111.07,0.09240
3105.28,0.09402
3099.49,0.09574
3093.71,0.09710
3087.92,0.09924
3082.14,0.10139
3076.35,0.10217
3070.56,0.10375
3064.78,0.10598
3058.99,0.10725
3053.2,0.10886
3047.42,0.11041
3041.63,0.11193
3035.85,0.11369
3030.06,0.11381
3024.27,0.11408
3018.49,0.11427
3012.7,0.11315
3006.91,0.11175
3001.13,0.11012
2995.34,0.10815
2989.56,0.10557
2983.77,0.10056
2977.98,0.09298
2972.2,0.08531
2966.41,0.07817
2960.62,0.07489
2954.84,0.07189
2949.05,0.06792
2943.27,0.06509
2937.48,0.06350
2931.69,0.06218
2925.91,0.06145
2920.12,0.06036
2914.33,0.05947
2908.55,0.05851
2902.76,0.05908
2896.98,0.06057
2891.19,0.06253
2885.4,0.06405
2879.62,0.06516
2873.83,0.06554
2868.04,0.06758
2862.26,0.07022
2856.47,0.07326
2850.69,0.07711
2844.9,0.08317
2839.11,0.08900
2833.33,0.09568
2827.54,0.10196
2821.75,0.10859
2815.97,0.11500
2810.18,0.11996
2804.4,0.12424
2798.61,0.12832
2792.82,0.13183
2787.04,0.13405
2781.25,0.13568
2775.46,0.13737
2769.68,0.13877
2763.89,0.14065
2758.11,0.14198
2752.32,0.14305
2746.53,0.14367
2740.75,0.14480
2734.96,0.14562
2729.17,0.14696
2723.39,0.14885
2717.6,0.15094
2711.82,0.15380
2706.03,0.15669
2700.24,0.15998
2694.46,0.16294
2688.67,0.16593
2682.88,0.16876
2677.1,0.17106
2671.31,0.17294
2665.53,0.17443
2659.74,0.17643
2653.95,0.17846
2648.17,0.17999
2642.38,0.18215
2636.59,0.18432
2630.81,0.18660
2625.02,0.18847
2619.24,0.19064
2613.45,0.19238
2607.66,0.19420
2601.88,0.19621
2596.09,0.19751
2590.3,0.19919
2584.52,0.20083
2578.73,0.20169
2572.95,0.20240
2567.16,0.20286
2561.37,0.20296
2555.59,0.20329
2549.8,0.20305
2544.02,0.20342
2538.23,0.20338
2532.44,0.20505
2526.66,0.20572
2520.87,0.20680
2515.08,0.20805
2509.3,0.21078
2503.51,0.21433
2497.73,0.21861
2491.94,0.22263
2486.15,0.22572
2480.37,0.22815
2474.58,0.23115
2468.79,0.23370
2463.01,0.23583
2457.22,0.23718
2451.44,0.23961
2445.65,0.24185
2439.86,0.24424
2434.08,0.24764
2428.29,0.25001
2422.5,0.25325
2416.72,0.25542
2410.93,0.25820
2405.15,0.26049
2399.36,0.26245
2393.57,0.26473
2387.79,0.26659
2382,0.26859
2376.21,0.27059
2370.43,0.27235
2364.64,0.27368
2358.86,0.27453
2353.07,0.27525
2347.28,0.27761
2341.5,0.27898
2335.71,0.28057
2329.92,0.28121
2324.14,0.28147
2318.35,0.28194
2312.57,0.28170
2306.78,0.28153
2300.99,0.28061
2295.21,0.27993
2289.42,0.27890
2283.63,0.27779
2277.85,0.27619
2272.06,0.27423
2266.28,0.27137
2260.49,0.26906
2254.7,0.26789
2248.92,0.26680
2243.13,0.26708
2237.34,0.26667
2231.56,0.26583
2225.77,0.26642
2219.99,0.26704
2214.2,0.26755
2208.41,0.26759
2202.63,0.26676
2196.84,0.26550
2191.05,0.26419
2185.27,0.26145
2179.48,0.25830
2173.7,0.25502
2167.91,0.25147
2162.12,0.24865
2156.34,0.24697
2150.55,0.24542
2144.76,0.24338
2138.98,0.24231
2133.19,0.24192
2127.41,0.24223
2121.62,0.24313
2115.83,0.24409
2110.05,0.24484
2104.26,0.24578
2098.47,0.24675
2092.69,0.24745
2086.9,0.24776
2081.12,0.24709
2075.33,0.24582
2069.54,0.24437
2063.76,0.24336
2057.97,0.24249
2052.19,0.24201
2046.4,0.24228
2040.61,0.24389
2034.83,0.24649
2029.04,0.24994
2023.25,0.25398
2017.47,0.25768
2011.68,0.26075
2005.9,0.26313
2000.11,0.26379
1994.32,0.26620
1988.54,0.26849
1982.75,0.27073
1976.96,0.27213
1971.18,0.27323
1965.39,0.27425
1959.61,0.27558
1953.82,0.27726
1948.03,0.27925
1942.25,0.28170
1936.46,0.28304
1930.67,0.28509
1924.89,0.28599
1919.1,0.28648
1913.32,0.28701
1907.53,0.28669
1901.74,0.28629
1895.96,0.28584
1890.17,0.28516
1884.38,0.28423
1878.6,0.28338
1872.81,0.28210
1867.03,0.28080
1861.24,0.27929
1855.45,0.27741
1849.67,0.27484
1843.88,0.27245
1838.09,0.26980
1832.31,0.26714
1826.52,0.26392
1820.74,0.26052
1814.95,0.25709
1809.16,0.25273
1803.38,0.24639
1797.59,0.23696
1791.8,0.23198
1786.02,0.22791
1780.23,0.22001
1774.45,0.20873
1768.66,0.19095
1762.87,0.17006
1757.09,0.14817
1751.3,0.13150
1745.51,0.12007
1739.73,0.11518
1733.94,0.11544
1728.16,0.11741
1722.37,0.12230
1716.58,0.13045
1710.8,0.13753
1705.01,0.14342
1699.22,0.14586
1693.44,0.14361
1687.65,0.13886
1681.87,0.13016
1676.08,0.12048
1670.29,0.11091
1664.51,0.10423
1658.72,0.10213
1652.93,0.10303
1647.15,0.10346
1641.36,0.10252
1635.58,0.10206
1629.79,0.10280
1624,0.10257
1618.22,0.10110
1612.43,0.09744
1606.64,0.09421
1600.86,0.09380
1595.07,0.09453
1589.29,0.09705
1583.5,0.10429
1577.71,0.11662
1571.93,0.13034
1566.14,0.13917
1560.35,0.14278
1554.57,0.14121
1548.78,0.13733
1543,0.13195
1537.21,0.12171
1531.42,0.10889
1525.64,0.09212
1519.85,0.07175
1514.07,0.05935
1508.28,0.05743
1502.49,0.05930
1496.71,0.06168
1490.92,0.06053
1485.13,0.05555
1479.35,0.05076
1473.56,0.04623
1467.78,0.04217
1461.99,0.04028
1456.2,0.03921
1450.42,0.03813
1444.63,0.03812
1438.84,0.03656
1433.06,0.03508
1427.27,0.03581
1421.49,0.03764
1415.7,0.03926
1409.91,0.04058
1404.13,0.04124
1398.34,0.04119
1392.55,0.04054
1386.77,0.03921
1380.98,0.03769
1375.2,0.03682
1369.41,0.03708
1363.62,0.03853
1357.84,0.04022
1352.05,0.04095
1346.26,0.04146
1340.48,0.04055
1334.69,0.04054
1328.91,0.04158
1323.12,0.04139
1317.33,0.04122
1311.55,0.04308
1305.76,0.04584
1299.97,0.04731
1294.19,0.04617
1288.4,0.04410
1282.62,0.04193
1276.83,0.04131
1271.04,0.04167
1265.26,0.04153
1259.47,0.04246
1253.68,0.04324
1247.9,0.04364
1242.11,0.04335
1236.33,0.04284
1230.54,0.04327
1224.75,0.04390
1218.97,0.04437
1213.18,0.04303
1207.39,0.04263
1201.61,0.04290
1195.82,0.04329
1190.04,0.04135
1184.25,0.03756
1178.46,0.03287
1172.68,0.02965
1166.89,0.03042
1161.1,0.03307
1155.32,0.03322
1149.53,0.03251
1143.75,0.03151
1137.96,0.03055
1132.17,0.02862
1126.39,0.02824
1120.6,0.02914
1114.81,0.02979
1109.03,0.03149
1103.24,0.03122
1097.46,0.03158
1091.67,0.03059
1085.88,0.03154
1080.1,0.03191
1074.31,0.03343
1068.52,0.03579
1062.74,0.04003
1056.95,0.04288
1051.17,0.04284
1045.38,0.04239
1039.59,0.04295
1033.81,0.04593
1028.02,0.04796
1022.24,0.04910
1016.45,0.04971
1010.66,0.05208
1004.88,0.05332
999.09,0.05620
993.304,0.05949
987.518,0.06358
981.731,0.07001
975.945,0.07619
970.159,0.08061
964.373,0.08560
958.586,0.09138
952.8,0.09788
947.014,0.10210
941.228,0.10293
935.441,0.10588
929.655,0.10745
923.869,0.10665
918.083,0.10392
912.297,0.09871
906.51,0.09528
900.724,0.09206
894.938,0.09267
889.152,0.10108
883.365,0.10486
877.579,0.10412
871.793,0.10799
866.007,0.11424
860.22,0.11620
854.434,0.11707
848.648,0.12070
842.862,0.12172
837.075,0.11966
831.289,0.11603
825.503,0.11145
819.717,0.10587
813.931,0.10007
808.144,0.09840
802.358,0.09917
796.572,0.09914
790.786,0.09844
784.999,0.09641
779.213,0.09370
773.427,0.09046
767.641,0.08855
761.854,0.08540
756.068,0.08238
750.282,0.08017
744.496,0.07823
738.709,0.07552
732.923,0.07116
727.137,0.06620
721.351,0.06245
715.565,0.05907
709.778,0.05788
703.992,0.05700
698.206,0.05517
692.42,0.05500
686.633,0.05307
680.847,0.05075
675.061,0.04937
669.275,0.04809
663.488,0.04871
657.702,0.04786
651.916,0.04948
646.13,0.04896
640.343,0.04850
634.557,0.04523
628.771,0.04469
622.985,0.04256
617.198,0.04454
611.412,0.04758
605.626,0.04537
599.84,0.04941