File: 01_Data/Cellulose_Insulation/FTIR/IS/Cellulose_Insulation_IS_T_220913_R5.dpt
7497.03,0.02329
7491.25,0.01895
7485.46,0.01834
7479.67,0.03347
7473.89,0.02275
7468.1,0.02411
7462.32,0.02652
7456.53,0.01579
7450.74,0.03644
7444.96,0.02989
7439.17,0.02491
7433.38,0.02449
7427.6,0.02097
7421.81,0.03060
7416.03,0.01914
7410.24,0.02586
7404.45,0.01992
7398.67,0.03064
7392.88,0.02474
7387.09,0.02095
7381.31,0.02825
7375.52,0.01993
7369.74,0.02731
7363.95,0.02977
7358.16,0.02430
7352.38,0.02540
7346.59,0.02212
7340.8,0.01694
7335.02,0.01859
7329.23,0.02342
7323.45,0.02970
7317.66,0.02357
7311.87,0.02662
7306.09,0.02815
7300.3,0.02168
7294.51,0.02874
7288.73,0.02968
7282.94,0.02536
7277.16,0.02233
7271.37,0.02639
7265.58,0.02432
7259.8,0.02581
7254.01,0.02432
7248.22,0.01957
7242.44,0.02560
7236.65,0.02618
7230.87,0.03068
7225.08,0.02320
7219.29,0.02749
7213.51,0.02571
7207.72,0.02380
7201.93,0.02632
7196.15,0.02380
7190.36,0.02815
7184.58,0.02889
7178.79,0.03292
7173,0.02080
7167.22,0.02035
7161.43,0.02599
7155.65,0.02773
7149.86,0.02458
7144.07,0.02566
7138.29,0.02971
7132.5,0.02311
7126.71,0.02472
7120.93,0.02800
7115.14,0.02530
7109.36,0.03234
7103.57,0.02575
7097.78,0.02130
7092,0.01573
7086.21,0.01545
7080.42,0.02508
7074.64,0.02889
7068.85,0.02857
7063.07,0.02597
7057.28,0.03269
7051.49,0.02609
7045.71,0.02389
7039.92,0.02390
7034.13,0.02187
7028.35,0.02379
7022.56,0.02439
7016.78,0.02728
7010.99,0.02495
7005.2,0.02246
6999.42,0.02375
6993.63,0.03153
6987.84,0.03082
6982.06,0.02323
6976.27,0.03179
6970.49,0.03035
6964.7,0.02598
6958.91,0.02992
6953.13,0.02490
6947.34,0.01853
6941.55,0.02337
6935.77,0.02259
6929.98,0.02159
6924.2,0.02763
6918.41,0.02822
6912.62,0.01621
6906.84,0.02352
6901.05,0.02926
6895.26,0.02157
6889.48,0.02438
6883.69,0.02418
6877.91,0.02947
6872.12,0.02404
6866.33,0.02542
6860.55,0.02490
6854.76,0.02533
6848.97,0.02393
6843.19,0.02195
6837.4,0.02455
6831.62,0.02255
6825.83,0.02204
6820.04,0.02494
6814.26,0.02370
6808.47,0.02372
6802.68,0.02429
6796.9,0.02315
6791.11,0.02515
6785.33,0.02376
6779.54,0.02607
6773.75,0.02090
6767.97,0.02659
6762.18,0.02161
6756.39,0.02155
6750.61,0.02288
6744.82,0.02102
6739.04,0.02070
6733.25,0.02023
6727.46,0.02558
6721.68,0.02458
6715.89,0.02185
6710.1,0.02901
6704.32,0.02278
6698.53,0.02726
6692.75,0.02592
6686.96,0.02107
6681.17,0.02226
6675.39,0.02677
6669.6,0.02797
6663.82,0.02187
6658.03,0.02459
6652.24,0.02233
6646.46,0.02293
6640.67,0.02416
6634.88,0.02218
6629.1,0.02198
6623.31,0.02508
6617.53,0.01989
6611.74,0.02038
6605.95,0.01902
6600.17,0.02287
6594.38,0.02611
6588.59,0.02448
6582.81,0.02049
6577.02,0.02747
6571.24,0.02019
6565.45,0.02185
6559.66,0.02645
6553.88,0.01949
6548.09,0.02572
6542.3,0.02168
6536.52,0.02147
6530.73,0.02030
6524.95,0.02233
6519.16,0.02081
6513.37,0.02077
6507.59,0.02112
6501.8,0.02235
6496.01,0.01881
6490.23,0.02453
6484.44,0.02638
6478.66,0.02145
6472.87,0.02189
6467.08,0.02088
6461.3,0.02426
6455.51,0.01849
6449.72,0.02442
6443.94,0.02143
6438.15,0.02063
6432.37,0.02346
6426.58,0.01956
6420.79,0.02340
6415.01,0.02266
6409.22,0.02330
6403.43,0.02328
6397.65,0.02514
6391.86,0.02485
6386.08,0.02290
6380.29,0.02045
6374.5,0.01914
6368.72,0.02349
6362.93,0.02593
6357.14,0.02303
6351.36,0.02227
6345.57,0.02151
6339.79,0.02260
6334,0.02189
6328.21,0.01957
6322.43,0.02210
6316.64,0.02383
6310.85,0.02246
6305.07,0.01949
6299.28,0.02391
6293.5,0.02456
6287.71,0.02507
6281.92,0.02108
6276.14,0.01886
6270.35,0.02273
6264.56,0.02535
6258.78,0.02188
6252.99,0.02015
6247.21,0.02112
6241.42,0.01794
6235.63,0.02185
6229.85,0.02262
6224.06,0.02199
6218.27,0.02361
6212.49,0.02259
6206.7,0.02464
6200.92,0.02368
6195.13,0.02374
6189.34,0.02290
6183.56,0.02182
6177.77,0.02113
6171.98,0.02210
6166.2,0.01865
6160.41,0.02172
6154.63,0.01977
6148.84,0.01926
6143.05,0.02480
6137.27,0.02113
6131.48,0.02278
6125.7,0.02182
6119.91,0.02080
6114.12,0.02119
6108.34,0.01963
6102.55,0.01866
6096.76,0.01981
6090.98,0.01976
6085.19,0.02079
6079.41,0.02377
6073.62,0.02227
6067.83,0.02445
6062.05,0.02045
6056.26,0.02034
6050.47,0.02190
6044.69,0.02280
6038.9,0.02281
6033.12,0.02186
6027.33,0.02066
6021.54,0.02199
6015.76,0.01921
6009.97,0.02162
6004.18,0.02521
5998.4,0.02184
5992.61,0.02230
5986.83,0.02204
5981.04,0.02296
5975.25,0.02218
5969.47,0.02221
5963.68,0.02331
5957.89,0.02098
5952.11,0.02077
5946.32,0.02211
5940.54,0.02127
5934.75,0.02154
5928.96,0.02102
5923.18,0.02262
5917.39,0.01963
5911.6,0.02319
5905.82,0.02144
5900.03,0.02141
5894.25,0.02195
5888.46,0.02419
5882.67,0.02029
5876.89,0.02545
5871.1,0.02431
5865.31,0.02155
5859.53,0.02104
5853.74,0.02048
5847.96,0.02095
5842.17,0.02096
5836.38,0.02420
5830.6,0.02111
5824.81,0.01934
5819.02,0.02005
5813.24,0.02064
5807.45,0.02304
5801.67,0.02358
5795.88,0.02597
5790.09,0.02144
5784.31,0.02174
5778.52,0.02131
5772.73,0.02046
5766.95,0.02013
5761.16,0.02260
5755.38,0.02272
5749.59,0.02251
5743.8,0.02197
5738.02,0.02195
5732.23,0.02269
5726.44,0.02084
5720.66,0.02128
5714.87,0.02317
5709.09,0.02252
5703.3,0.02215
5697.51,0.02223
5691.73,0.02053
5685.94,0.02113
5680.15,0.02229
5674.37,0.02162
5668.58,0.02142
5662.8,0.01973
5657.01,0.02189
5651.22,0.02015
5645.44,0.02136
5639.65,0.02102
5633.87,0.02074
5628.08,0.02281
5622.29,0.01959
5616.51,0.02076
5610.72,0.02100
5604.93,0.02184
5599.15,0.02258
5593.36,0.02149
5587.58,0.02325
5581.79,0.02143
5576,0.02188
5570.22,0.01955
5564.43,0.02353
5558.64,0.02373
5552.86,0.02267
5547.07,0.02130
5541.29,0.01995
5535.5,0.02228
5529.71,0.02289
5523.93,0.02164
5518.14,0.02186
5512.35,0.02133
5506.57,0.02031
5500.78,0.02048
5495,0.02181
5489.21,0.02068
5483.42,0.02220
5477.64,0.02209
5471.85,0.02327
5466.06,0.01977
5460.28,0.02096
5454.49,0.02286
5448.71,0.02177
5442.92,0.02468
5437.13,0.02225
5431.35,0.02093
5425.56,0.02222
5419.77,0.02212
5413.99,0.02359
5408.2,0.02132
5402.42,0.02215
5396.63,0.02191
5390.84,0.02148
5385.06,0.02191
5379.27,0.02279
5373.48,0.02160
5367.7,0.02086
5361.91,0.02195
5356.13,0.02213
5350.34,0.02065
5344.55,0.02235
5338.77,0.02221
5332.98,0.02219
5327.19,0.02226
5321.41,0.02382
5315.62,0.02192
5309.84,0.02286
5304.05,0.02247
5298.26,0.02203
5292.48,0.02314
5286.69,0.02273
5280.9,0.02197
5275.12,0.02215
5269.33,0.02265
5263.55,0.02243
5257.76,0.02196
5251.97,0.02210
5246.19,0.02191
5240.4,0.02176
5234.61,0.02328
5228.83,0.02413
5223.04,0.02182
5217.26,0.02099
5211.47,0.02190
5205.68,0.02129
5199.9,0.02156
5194.11,0.02088
5188.32,0.02198
5182.54,0.02284
5176.75,0.02178
5170.97,0.02276
5165.18,0.02199
5159.39,0.02130
5153.61,0.02303
5147.82,0.02430
5142.03,0.02348
5136.25,0.02039
5130.46,0.02184
5124.68,0.02151
5118.89,0.02186
5113.1,0.02223
5107.32,0.02283
5101.53,0.02220
5095.75,0.02194
5089.96,0.02260
5084.17,0.02201
5078.39,0.02109
5072.6,0.02385
5066.81,0.02234
5061.03,0.02439
5055.24,0.02272
5049.46,0.02267
5043.67,0.02325
5037.88,0.02266
5032.1,0.02172
5026.31,0.02266
5020.52,0.02189
5014.74,0.02230
5008.95,0.02051
5003.17,0.02150
4997.38,0.02360
4991.59,0.02396
4985.81,0.02211
4980.02,0.02118
4974.23,0.02176
4968.45,0.02314
4962.66,0.02318
4956.88,0.02260
4951.09,0.02335
4945.3,0.02221
4939.52,0.02080
4933.73,0.02286
4927.94,0.02247
4922.16,0.02183
4916.37,0.02234
4910.59,0.02215
4904.8,0.02173
4899.01,0.02155
4893.23,0.02379
4887.44,0.02372
4881.65,0.02321
4875.87,0.02246
4870.08,0.02150
4864.3,0.02254
4858.51,0.02240
4852.72,0.02139
4846.94,0.02184
4841.15,0.02233
4835.36,0.02224
4829.58,0.02239
4823.79,0.02205
4818.01,0.02315
4812.22,0.02245
4806.43,0.02279
4800.65,0.02298
4794.86,0.02239
4789.07,0.02294
4783.29,0.02211
4777.5,0.02183
4771.72,0.02208
4765.93,0.02209
4760.14,0.02327
4754.36,0.02231
4748.57,0.02193
4742.78,0.02206
4737,0.02261
4731.21,0.02326
4725.43,0.02270
4719.64,0.02256
4713.85,0.02263
4708.07,0.02323
4702.28,0.02250
4696.49,0.02288
4690.71,0.02212
4684.92,0.02204
4679.14,0.02292
4673.35,0.02282
4667.56,0.02269
4661.78,0.02273
4655.99,0.02253
4650.2,0.02374
4644.42,0.02230
4638.63,0.02296
4632.85,0.02218
4627.06,0.02265
4621.27,0.02195
4615.49,0.02260
4609.7,0.02186
4603.92,0.02246
4598.13,0.02254
4592.34,0.02326
4586.56,0.02263
4580.77,0.02179
4574.98,0.02279
4569.2,0.02263
4563.41,0.02221
4557.63,0.02247
4551.84,0.02275
4546.05,0.02153
4540.27,0.02306
4534.48,0.02274
4528.69,0.02318
4522.91,0.02273
4517.12,0.02258
4511.34,0.02234
4505.55,0.02249
4499.76,0.02297
4493.98,0.02298
4488.19,0.02244
4482.4,0.02244
4476.62,0.02222
4470.83,0.02190
4465.05,0.02341
4459.26,0.02253
4453.47,0.02179
4447.69,0.02249
4441.9,0.02178
4436.11,0.02247
4430.33,0.02262
4424.54,0.02195
4418.76,0.02226
4412.97,0.02238
4407.18,0.02207
4401.4,0.02182
4395.61,0.02226
4389.82,0.02225
4384.04,0.02232
4378.25,0.02269
4372.47,0.02247
4366.68,0.02259
4360.89,0.02239
4355.11,0.02261
4349.32,0.02349
4343.53,0.02240
4337.75,0.02197
4331.96,0.02142
4326.18,0.02299
4320.39,0.02210
4314.6,0.02162
4308.82,0.02117
4303.03,0.02257
4297.24,0.02268
4291.46,0.02173
4285.67,0.02197
4279.89,0.02200
4274.1,0.02232
4268.31,0.02333
4262.53,0.02272
4256.74,0.02258
4250.95,0.02264
4245.17,0.02283
4239.38,0.02247
4233.6,0.02183
4227.81,0.02269
4222.02,0.02289
4216.24,0.02282
4210.45,0.02325
4204.66,0.02322
4198.88,0.02292
4193.09,0.02298
4187.31,0.02253
4181.52,0.02298
4175.73,0.02254
4169.95,0.02200
4164.16,0.02298
4158.37,0.02288
4152.59,0.02306
4146.8,0.02327
4141.02,0.02202
4135.23,0.02270
4129.44,0.02256
4123.66,0.02295
4117.87,0.02297
4112.09,0.02207
4106.3,0.02257
4100.51,0.02258
4094.73,0.02256
4088.94,0.02244
4083.15,0.02264
4077.37,0.02239
4071.58,0.02248
4065.8,0.02274
4060.01,0.02234
4054.22,0.02338
4048.44,0.02237
4042.65,0.02201
4036.86,0.02233
4031.08,0.02314
4025.29,0.02252
4019.51,0.02293
4013.72,0.02280
4007.93,0.02268
4002.15,0.02304
3996.36,0.02271
3990.57,0.02289
3984.79,0.02244
3979,0.02261
3973.22,0.02248
3967.43,0.02267
3961.64,0.02226
3955.86,0.02293
3950.07,0.02319
3944.28,0.02336
3938.5,0.02279
3932.71,0.02356
3926.93,0.02221
3921.14,0.02216
3915.35,0.02287
3909.57,0.02257
3903.78,0.02331
3897.99,0.02254
3892.21,0.02222
3886.42,0.02265
3880.64,0.02270
3874.85,0.02297
3869.06,0.02268
3863.28,0.02246
3857.49,0.02293
3851.7,0.02315
3845.92,0.02242
3840.13,0.02289
3834.35,0.02282
3828.56,0.02257
3822.77,0.02284
3816.99,0.02331
3811.2,0.02284
3805.41,0.02251
3799.63,0.02287
3793.84,0.02232
3788.06,0.02281
3782.27,0.02278
3776.48,0.02250
3770.7,0.02245
3764.91,0.02237
3759.12,0.02266
3753.34,0.02254
3747.55,0.02235
3741.77,0.02196
3735.98,0.02254
3730.19,0.02257
3724.41,0.02297
3718.62,0.02213
3712.83,0.02254
3707.05,0.02206
3701.26,0.02292
3695.48,0.02239
3689.69,0.02271
3683.9,0.02263
3678.12,0.02319
3672.33,0.02242
3666.54,0.02219
3660.76,0.02233
3654.97,0.02229
3649.19,0.02200
3643.4,0.02233
3637.61,0.02239
3631.83,0.02300
3626.04,0.02195
3620.25,0.02259
3614.47,0.02201
3608.68,0.02147
3602.9,0.02113
3597.11,0.02141
3591.32,0.02202
3585.54,0.02152
3579.75,0.02126
3573.97,0.02122
3568.18,0.02161
3562.39,0.02170
3556.61,0.02134
3550.82,0.02141
3545.03,0.02121
3539.25,0.02182
3533.46,0.02137
3527.68,0.02136
3521.89,0.02144
3516.1,0.02153
3510.32,0.02128
3504.53,0.02135
3498.74,0.02159
3492.96,0.02099
3487.17,0.02078
3481.39,0.02109
3475.6,0.02174
3469.81,0.02033
3464.03,0.02029
3458.24,0.02117
3452.45,0.02034
3446.67,0.02086
3440.88,0.02070
3435.1,0.02085
3429.31,0.02095
3423.52,0.02084
3417.74,0.02066
3411.95,0.02068
3406.16,0.02059
3400.38,0.02084
3394.59,0.02055
3388.81,0.02053
3383.02,0.02049
3377.23,0.02106
3371.45,0.02103
3365.66,0.02092
3359.87,0.02022
3354.09,0.02036
3348.3,0.02078
3342.52,0.02038
3336.73,0.02008
3330.94,0.02031
3325.16,0.02001
3319.37,0.02014
3313.58,0.01956
3307.8,0.02029
3302.01,0.01985
3296.23,0.02102
3290.44,0.02073
3284.65,0.02006
3278.87,0.02051
3273.08,0.02086
3267.29,0.02012
3261.51,0.02076
3255.72,0.02089
3249.94,0.02055
3244.15,0.02059
3238.36,0.02110
3232.58,0.02041
3226.79,0.02087
3221,0.02050
3215.22,0.02124
3209.43,0.02048
3203.65,0.02072
3197.86,0.02086
3192.07,0.02047
3186.29,0.02084
3180.5,0.02090
3174.71,0.02082
3168.93,0.02074
3163.14,0.02101
3157.36,0.02056
3151.57,0.02030
3145.78,0.02092
3140,0.02074
3134.21,0.02117
3128.42,0.02143
3122.64,0.02194
3116.85,0.02180
3111.07,0.02109
3105.28,0.02073
3099.49,0.02146
3093.71,0.02094
3087.92,0.02052
3082.14,0.02059
3076.35,0.02057
3070.56,0.02016
3064.78,0.02049
3058.99,0.02074
3053.2,0.02045
3047.42,0.02131
3041.63,0.02054
3035.85,0.02055
3030.06,0.02089
3024.27,0.02078
3018.49,0.02026
3012.7,0.02084
3006.91,0.02065
3001.13,0.02044
2995.34,0.02043
2989.56,0.01991
2983.77,0.02030
2977.98,0.02014
2972.2,0.01955
2966.41,0.01973
2960.62,0.01942
2954.84,0.01946
2949.05,0.01945
2943.27,0.01937
2937.48,0.01970
2931.69,0.01918
2925.91,0.01975
2920.12,0.02044
2914.33,0.02041
2908.55,0.02037
2902.76,0.02015
2896.98,0.02058
2891.19,0.02078
2885.4,0.02048
2879.62,0.02043
2873.83,0.02082
2868.04,0.02093
2862.26,0.02095
2856.47,0.02059
2850.69,0.02048
2844.9,0.02096
2839.11,0.02112
2833.33,0.02142
2827.54,0.02154
2821.75,0.02098
2815.97,0.02148
2810.18,0.02141
2804.4,0.02099
2798.61,0.02122
2792.82,0.02156
2787.04,0.02109
2781.25,0.02141
2775.46,0.02120
2769.68,0.02139
2763.89,0.02099
2758.11,0.02144
2752.32,0.02152
2746.53,0.02140
2740.75,0.02120
2734.96,0.02143
2729.17,0.02171
2723.39,0.02128
2717.6,0.02131
2711.82,0.02186
2706.03,0.02146
2700.24,0.02151
2694.46,0.02081
2688.67,0.02169
2682.88,0.02142
2677.1,0.02159
2671.31,0.02127
2665.53,0.02204
2659.74,0.02139
2653.95,0.02134
2648.17,0.02142
2642.38,0.02138
2636.59,0.02141
2630.81,0.02098
2625.02,0.02083
2619.24,0.02141
2613.45,0.02137
2607.66,0.02151
2601.88,0.02106
2596.09,0.02101
2590.3,0.02159
2584.52,0.02109
2578.73,0.02113
2572.95,0.02142
2567.16,0.02142
2561.37,0.02158
2555.59,0.02124
2549.8,0.02108
2544.02,0.02135
2538.23,0.02098
2532.44,0.02120
2526.66,0.02075
2520.87,0.02103
2515.08,0.02119
2509.3,0.02123
2503.51,0.02133
2497.73,0.02151
2491.94,0.02088
2486.15,0.02131
2480.37,0.02146
2474.58,0.02148
2468.79,0.02141
2463.01,0.02106
2457.22,0.02120
2451.44,0.02092
2445.65,0.02130
2439.86,0.02127
2434.08,0.02129
2428.29,0.02114
2422.5,0.02105
2416.72,0.02120
2410.93,0.02134
2405.15,0.02151
2399.36,0.02147
2393.57,0.02140
2387.79,0.02136
2382,0.02138
2376.21,0.02133
2370.43,0.02166
2364.64,0.02163
2358.86,0.02133
2353.07,0.02099
2347.28,0.02118
2341.5,0.02132
2335.71,0.02133
2329.92,0.02115
2324.14,0.02152
2318.35,0.02146
2312.57,0.02138
2306.78,0.02109
2300.99,0.02117
2295.21,0.02143
2289.42,0.02128
2283.63,0.02097
2277.85,0.02137
2272.06,0.02091
2266.28,0.02139
2260.49,0.02118
2254.7,0.02134
2248.92,0.02125
2243.13,0.02123
2237.34,0.02106
2231.56,0.02115
2225.77,0.02125
2219.99,0.02116
2214.2,0.02081
2208.41,0.02136
2202.63,0.02122
2196.84,0.02098
2191.05,0.02138
2185.27,0.02096
2179.48,0.02147
2173.7,0.02121
2167.91,0.02090
2162.12,0.02093
2156.34,0.02114
2150.55,0.02120
2144.76,0.02105
2138.98,0.02127
2133.19,0.02120
2127.41,0.02112
2121.62,0.02132
2115.83,0.02138
2110.05,0.02091
2104.26,0.02115
2098.47,0.02113
2092.69,0.02127
2086.9,0.02100
2081.12,0.02107
2075.33,0.02118
2069.54,0.02081
2063.76,0.02104
2057.97,0.02096
2052.19,0.02096
2046.4,0.02093
2040.61,0.02108
2034.83,0.02087
2029.04,0.02098
2023.25,0.02079
2017.47,0.02122
2011.68,0.02084
2005.9,0.02070
2000.11,0.02068
1994.32,0.02080
1988.54,0.02111
1982.75,0.02136
1976.96,0.02093
1971.18,0.02060
1965.39,0.02060
1959.61,0.02092
1953.82,0.02099
1948.03,0.02078
1942.25,0.02093
1936.46,0.02089
1930.67,0.02067
1924.89,0.02122
1919.1,0.02104
1913.32,0.02045
1907.53,0.02070
1901.74,0.02067
1895.96,0.02045
1890.17,0.02085
1884.38,0.02064
1878.6,0.02043
1872.81,0.02067
1867.03,0.02072
1861.24,0.02035
1855.45,0.02006
1849.67,0.02016
1843.88,0.02007
1838.09,0.02028
1832.31,0.02048
1826.52,0.02024
1820.74,0.02001
1814.95,0.02007
1809.16,0.02000
1803.38,0.01964
1797.59,0.01944
1791.8,0.01969
1786.02,0.01931
1780.23,0.01922
1774.45,0.01893
1768.66,0.01885
1762.87,0.01869
1757.09,0.01768
1751.3,0.01766
1745.51,0.01800
1739.73,0.01888
1733.94,0.01944
1728.16,0.02051
1722.37,0.02124
1716.58,0.02107
1710.8,0.02060
1705.01,0.02002
1699.22,0.02012
1693.44,0.02000
1687.65,0.01973
1681.87,0.01914
1676.08,0.01925
1670.29,0.01927
1664.51,0.01917
1658.72,0.01883
1652.93,0.01882
1647.15,0.01872
1641.36,0.01851
1635.58,0.01903
1629.79,0.01896
1624,0.01904
1618.22,0.01894
1612.43,0.01897
1606.64,0.01912
1600.86,0.01888
1595.07,0.01902
1589.29,0.01887
1583.5,0.01846
1577.71,0.01850
1571.93,0.01883
1566.14,0.01816
1560.35,0.01871
1554.57,0.01760
1548.78,0.01860
1543,0.01876
1537.21,0.01875
1531.42,0.01878
1525.64,0.01815
1519.85,0.01916
1514.07,0.01843
1508.28,0.01859
1502.49,0.01882
1496.71,0.01931
1490.92,0.01921
1485.13,0.01865
1479.35,0.01845
1473.56,0.01838
1467.78,0.01830
1461.99,0.01878
1456.2,0.01896
1450.42,0.01887
1444.63,0.01897
1438.84,0.01906
1433.06,0.01898
1427.27,0.01904
1421.49,0.01869
1415.7,0.01839
1409.91,0.01863
1404.13,0.01861
1398.34,0.01817
1392.55,0.01848
1386.77,0.01852
1380.98,0.01828
1375.2,0.01852
1369.41,0.01832
1363.62,0.01825
1357.84,0.01829
1352.05,0.01801
1346.26,0.01818
1340.48,0.01849
1334.69,0.01796
1328.91,0.01772
1323.12,0.01727
1317.33,0.01720
1311.55,0.01730
1305.76,0.01733
1299.97,0.01756
1294.19,0.01801
1288.4,0.01813
1282.62,0.01879
1276.83,0.01914
1271.04,0.01913
1265.26,0.02000
1259.47,0.02024
1253.68,0.02036
1247.9,0.02045
1242.11,0.02015
1236.33,0.01944
1230.54,0.01970
1224.75,0.01943
1218.97,0.01942
1213.18,0.01921
1207.39,0.01899
1201.61,0.01926
1195.82,0.01860
1190.04,0.01815
1184.25,0.01890
1178.46,0.01876
1172.68,0.01814
1166.89,0.01817
1161.1,0.01735
1155.32,0.01693
1149.53,0.01787
1143.75,0.01811
1137.96,0.01811
1132.17,0.01828
1126.39,0.01887
1120.6,0.01901
1114.81,0.01917
1109.03,0.01916
1103.24,0.01842
1097.46,0.01834
1091.67,0.01869
1085.88,0.01849
1080.1,0.01845
1074.31,0.01933
1068.52,0.02033
1062.74,0.02009
1056.95,0.01969
1051.17,0.02009
1045.38,0.02008
1039.59,0.01998
1033.81,0.01919
1028.02,0.01918
1022.24,0.01934
1016.45,0.01949
1010.66,0.02021
1004.88,0.02082
999.09,0.02108
993.304,0.02152
987.518,0.02073
981.731,0.02078
975.945,0.02093
970.159,0.02070
964.373,0.02017
958.586,0.01982
952.8,0.02042
947.014,0.01992
941.228,0.01998
935.441,0.01986
929.655,0.01939
923.869,0.01937
918.083,0.02017
912.297,0.01949
906.51,0.01971
900.724,0.01990
894.938,0.01903
889.152,0.01917
883.365,0.01896
877.579,0.01934
871.793,0.01874
866.007,0.01939
860.22,0.01917
854.434,0.01961
848.648,0.01887
842.862,0.01901
837.075,0.01895
831.289,0.02017
825.503,0.01958
819.717,0.01940
813.931,0.01887
808.144,0.01844
802.358,0.01952
796.572,0.01980
790.786,0.01968
784.999,0.01895
779.213,0.01830
773.427,0.01901
767.641,0.01919
761.854,0.01879
756.068,0.01808
750.282,0.01824
744.496,0.01838
738.709,0.01852
732.923,0.01809
727.137,0.01847
721.351,0.01774
715.565,0.01735
709.778,0.01787
703.992,0.01813
698.206,0.01871
692.42,0.01832
686.633,0.01799
680.847,0.01863
675.061,0.01723
669.275,0.01831
663.488,0.01920
657.702,0.01769
651.916,0.01750
646.13,0.01817
640.343,0.01842
634.557,0.01701
628.771,0.01537
622.985,0.01586
617.198,0.01662
611.412,0.01581
605.626,0.01831
599.84,0.01774