File: 01_Data/Cellulose_Insulation/FTIR/IS/Cellulose_Insulation_IS_S_220913_R1.dpt
7497.03,0.53235
7491.25,0.53197
7485.46,0.52867
7479.67,0.52570
7473.89,0.53251
7468.1,0.51964
7462.32,0.53214
7456.53,0.52599
7450.74,0.51919
7444.96,0.52840
7439.17,0.51978
7433.38,0.52662
7427.6,0.52831
7421.81,0.51687
7416.03,0.52053
7410.24,0.52219
7404.45,0.51985
7398.67,0.52055
7392.88,0.52602
7387.09,0.52813
7381.31,0.51947
7375.52,0.52735
7369.74,0.52079
7363.95,0.51658
7358.16,0.52063
7352.38,0.52524
7346.59,0.52627
7340.8,0.52103
7335.02,0.51988
7329.23,0.51260
7323.45,0.52053
7317.66,0.51921
7311.87,0.52419
7306.09,0.52492
7300.3,0.52829
7294.51,0.52299
7288.73,0.52109
7282.94,0.51722
7277.16,0.51697
7271.37,0.51813
7265.58,0.51770
7259.8,0.51647
7254.01,0.51965
7248.22,0.51096
7242.44,0.51434
7236.65,0.52176
7230.87,0.51916
7225.08,0.52097
7219.29,0.51128
7213.51,0.51442
7207.72,0.51642
7201.93,0.52017
7196.15,0.52842
7190.36,0.51679
7184.58,0.51987
7178.79,0.51904
7173,0.51529
7167.22,0.51393
7161.43,0.51887
7155.65,0.51268
7149.86,0.51619
7144.07,0.51009
7138.29,0.52012
7132.5,0.51769
7126.71,0.51665
7120.93,0.51767
7115.14,0.51326
7109.36,0.51056
7103.57,0.50900
7097.78,0.51353
7092,0.50793
7086.21,0.50874
7080.42,0.50402
7074.64,0.49741
7068.85,0.49847
7063.07,0.50045
7057.28,0.49981
7051.49,0.50393
7045.71,0.50444
7039.92,0.50014
7034.13,0.49834
7028.35,0.50007
7022.56,0.49650
7016.78,0.49885
7010.99,0.49457
7005.2,0.49577
6999.42,0.48867
6993.63,0.49363
6987.84,0.48751
6982.06,0.48988
6976.27,0.48852
6970.49,0.49361
6964.7,0.49046
6958.91,0.48346
6953.13,0.48674
6947.34,0.48996
6941.55,0.48823
6935.77,0.48592
6929.98,0.48509
6924.2,0.49098
6918.41,0.49008
6912.62,0.49465
6906.84,0.48738
6901.05,0.48133
6895.26,0.48638
6889.48,0.48667
6883.69,0.48461
6877.91,0.48456
6872.12,0.48417
6866.33,0.48329
6860.55,0.48520
6854.76,0.48093
6848.97,0.48727
6843.19,0.48983
6837.4,0.48593
6831.62,0.48020
6825.83,0.48487
6820.04,0.48749
6814.26,0.48643
6808.47,0.48188
6802.68,0.47885
6796.9,0.48135
6791.11,0.48577
6785.33,0.48083
6779.54,0.48033
6773.75,0.48831
6767.97,0.48251
6762.18,0.48712
6756.39,0.48487
6750.61,0.48611
6744.82,0.47784
6739.04,0.48163
6733.25,0.48415
6727.46,0.48504
6721.68,0.48273
6715.89,0.48173
6710.1,0.48296
6704.32,0.48425
6698.53,0.48213
6692.75,0.48436
6686.96,0.48056
6681.17,0.47762
6675.39,0.48354
6669.6,0.48124
6663.82,0.48120
6658.03,0.48273
6652.24,0.48020
6646.46,0.48449
6640.67,0.48373
6634.88,0.48294
6629.1,0.49058
6623.31,0.48796
6617.53,0.48598
6611.74,0.48790
6605.95,0.48260
6600.17,0.48321
6594.38,0.48359
6588.59,0.48435
6582.81,0.48312
6577.02,0.48700
6571.24,0.48698
6565.45,0.48950
6559.66,0.48971
6553.88,0.48672
6548.09,0.48928
6542.3,0.49280
6536.52,0.48625
6530.73,0.48834
6524.95,0.48975
6519.16,0.48923
6513.37,0.48877
6507.59,0.48836
6501.8,0.48721
6496.01,0.49038
6490.23,0.49310
6484.44,0.48674
6478.66,0.48745
6472.87,0.49125
6467.08,0.48555
6461.3,0.48970
6455.51,0.48987
6449.72,0.48730
6443.94,0.48581
6438.15,0.48672
6432.37,0.49227
6426.58,0.48400
6420.79,0.49053
6415.01,0.48827
6409.22,0.49110
6403.43,0.49257
6397.65,0.49096
6391.86,0.48956
6386.08,0.49216
6380.29,0.49086
6374.5,0.48978
6368.72,0.48664
6362.93,0.49148
6357.14,0.48777
6351.36,0.49158
6345.57,0.49315
6339.79,0.48973
6334,0.48926
6328.21,0.49450
6322.43,0.48681
6316.64,0.49118
6310.85,0.49423
6305.07,0.49059
6299.28,0.49307
6293.5,0.49040
6287.71,0.49237
6281.92,0.49313
6276.14,0.49722
6270.35,0.49523
6264.56,0.49383
6258.78,0.49923
6252.99,0.49514
6247.21,0.49662
6241.42,0.49911
6235.63,0.49881
6229.85,0.49896
6224.06,0.50144
6218.27,0.49914
6212.49,0.49970
6206.7,0.50104
6200.92,0.50339
6195.13,0.50330
6189.34,0.50389
6183.56,0.50470
6177.77,0.50616
6171.98,0.50556
6166.2,0.50180
6160.41,0.50215
6154.63,0.50755
6148.84,0.50697
6143.05,0.50554
6137.27,0.50556
6131.48,0.50910
6125.7,0.50796
6119.91,0.51056
6114.12,0.51236
6108.34,0.50895
6102.55,0.50973
6096.76,0.50835
6090.98,0.51082
6085.19,0.51097
6079.41,0.51086
6073.62,0.51032
6067.83,0.51121
6062.05,0.51198
6056.26,0.51036
6050.47,0.51339
6044.69,0.50989
6038.9,0.50990
6033.12,0.51365
6027.33,0.51198
6021.54,0.50999
6015.76,0.51282
6009.97,0.50983
6004.18,0.51033
5998.4,0.51453
5992.61,0.51339
5986.83,0.51184
5981.04,0.50947
5975.25,0.51253
5969.47,0.51176
5963.68,0.50901
5957.89,0.51225
5952.11,0.51120
5946.32,0.51047
5940.54,0.51317
5934.75,0.50874
5928.96,0.50811
5923.18,0.51325
5917.39,0.51321
5911.6,0.51104
5905.82,0.50887
5900.03,0.51019
5894.25,0.51262
5888.46,0.50964
5882.67,0.51143
5876.89,0.50913
5871.1,0.51035
5865.31,0.50719
5859.53,0.50724
5853.74,0.50674
5847.96,0.50822
5842.17,0.50999
5836.38,0.50967
5830.6,0.50967
5824.81,0.50926
5819.02,0.51002
5813.24,0.51033
5807.45,0.50901
5801.67,0.51119
5795.88,0.50701
5790.09,0.50830
5784.31,0.51075
5778.52,0.50789
5772.73,0.50956
5766.95,0.50880
5761.16,0.50936
5755.38,0.50982
5749.59,0.51103
5743.8,0.50918
5738.02,0.50874
5732.23,0.51269
5726.44,0.51159
5720.66,0.51068
5714.87,0.51181
5709.09,0.51206
5703.3,0.51120
5697.51,0.51046
5691.73,0.50974
5685.94,0.50983
5680.15,0.51016
5674.37,0.51056
5668.58,0.50989
5662.8,0.50989
5657.01,0.51054
5651.22,0.50986
5645.44,0.50892
5639.65,0.51028
5633.87,0.50889
5628.08,0.50820
5622.29,0.50761
5616.51,0.50853
5610.72,0.51156
5604.93,0.51050
5599.15,0.51085
5593.36,0.51039
5587.58,0.51054
5581.79,0.51156
5576,0.51244
5570.22,0.51188
5564.43,0.51167
5558.64,0.51210
5552.86,0.50975
5547.07,0.51205
5541.29,0.51230
5535.5,0.51247
5529.71,0.51260
5523.93,0.51231
5518.14,0.51030
5512.35,0.51021
5506.57,0.51132
5500.78,0.51203
5495,0.51433
5489.21,0.51332
5483.42,0.51379
5477.64,0.51271
5471.85,0.51174
5466.06,0.51485
5460.28,0.51479
5454.49,0.51315
5448.71,0.51411
5442.92,0.51510
5437.13,0.51567
5431.35,0.51552
5425.56,0.51593
5419.77,0.51592
5413.99,0.51753
5408.2,0.51614
5402.42,0.51602
5396.63,0.51935
5390.84,0.51970
5385.06,0.51756
5379.27,0.51841
5373.48,0.51915
5367.7,0.51740
5361.91,0.51762
5356.13,0.51820
5350.34,0.51811
5344.55,0.51714
5338.77,0.51780
5332.98,0.51516
5327.19,0.51437
5321.41,0.51580
5315.62,0.51480
5309.84,0.51030
5304.05,0.51070
5298.26,0.50757
5292.48,0.50668
5286.69,0.50196
5280.9,0.49976
5275.12,0.49647
5269.33,0.49155
5263.55,0.48684
5257.76,0.48131
5251.97,0.47597
5246.19,0.47069
5240.4,0.46833
5234.61,0.46500
5228.83,0.46090
5223.04,0.45722
5217.26,0.45459
5211.47,0.45381
5205.68,0.45230
5199.9,0.45311
5194.11,0.45107
5188.32,0.45124
5182.54,0.45177
5176.75,0.45127
5170.97,0.45213
5165.18,0.45429
5159.39,0.45515
5153.61,0.45386
5147.82,0.45517
5142.03,0.45982
5136.25,0.46219
5130.46,0.46301
5124.68,0.46329
5118.89,0.46502
5113.1,0.46608
5107.32,0.46600
5101.53,0.46861
5095.75,0.46942
5089.96,0.47195
5084.17,0.47243
5078.39,0.47278
5072.6,0.47425
5066.81,0.47535
5061.03,0.47509
5055.24,0.47587
5049.46,0.47760
5043.67,0.47683
5037.88,0.47635
5032.1,0.47582
5026.31,0.47703
5020.52,0.47557
5014.74,0.47630
5008.95,0.47515
5003.17,0.47459
4997.38,0.47423
4991.59,0.47389
4985.81,0.47200
4980.02,0.47126
4974.23,0.46906
4968.45,0.46795
4962.66,0.46712
4956.88,0.46598
4951.09,0.46299
4945.3,0.46026
4939.52,0.45863
4933.73,0.45584
4927.94,0.45610
4922.16,0.45204
4916.37,0.44941
4910.59,0.44750
4904.8,0.44581
4899.01,0.44347
4893.23,0.44030
4887.44,0.43880
4881.65,0.43619
4875.87,0.43298
4870.08,0.43051
4864.3,0.42749
4858.51,0.42521
4852.72,0.42329
4846.94,0.42081
4841.15,0.41784
4835.36,0.41581
4829.58,0.41391
4823.79,0.41310
4818.01,0.41045
4812.22,0.40938
4806.43,0.40672
4800.65,0.40606
4794.86,0.40432
4789.07,0.40298
4783.29,0.40236
4777.5,0.40070
4771.72,0.40008
4765.93,0.39836
4760.14,0.39791
4754.36,0.39699
4748.57,0.39606
4742.78,0.39593
4737,0.39470
4731.21,0.39645
4725.43,0.39471
4719.64,0.39496
4713.85,0.39567
4708.07,0.39607
4702.28,0.39660
4696.49,0.39600
4690.71,0.39740
4684.92,0.39841
4679.14,0.39884
4673.35,0.39977
4667.56,0.40125
4661.78,0.40214
4655.99,0.40306
4650.2,0.40411
4644.42,0.40514
4638.63,0.40622
4632.85,0.40807
4627.06,0.40922
4621.27,0.40991
4615.49,0.41148
4609.7,0.41336
4603.92,0.41539
4598.13,0.41745
4592.34,0.41908
4586.56,0.41966
4580.77,0.42162
4574.98,0.42318
4569.2,0.42500
4563.41,0.42659
4557.63,0.42643
4551.84,0.42841
4546.05,0.42984
4540.27,0.43129
4534.48,0.43075
4528.69,0.43098
4522.91,0.43321
4517.12,0.43533
4511.34,0.43666
4505.55,0.43747
4499.76,0.43803
4493.98,0.43879
4488.19,0.43825
4482.4,0.43656
4476.62,0.43456
4470.83,0.43335
4465.05,0.43174
4459.26,0.43011
4453.47,0.42746
4447.69,0.42453
4441.9,0.42154
4436.11,0.41739
4430.33,0.41470
4424.54,0.41144
4418.76,0.40697
4412.97,0.40216
4407.18,0.39903
4401.4,0.39680
4395.61,0.39584
4389.82,0.39684
4384.04,0.39879
4378.25,0.40066
4372.47,0.40299
4366.68,0.40476
4360.89,0.40404
4355.11,0.40481
4349.32,0.40484
4343.53,0.40321
4337.75,0.40147
4331.96,0.39939
4326.18,0.39785
4320.39,0.39655
4314.6,0.39533
4308.82,0.39248
4303.03,0.39124
4297.24,0.39006
4291.46,0.38897
4285.67,0.38802
4279.89,0.38738
4274.1,0.38639
4268.31,0.38800
4262.53,0.38810
4256.74,0.38919
4250.95,0.38995
4245.17,0.39044
4239.38,0.39070
4233.6,0.39169
4227.81,0.39332
4222.02,0.39348
4216.24,0.39316
4210.45,0.39308
4204.66,0.39393
4198.88,0.39414
4193.09,0.39525
4187.31,0.39538
4181.52,0.39557
4175.73,0.39654
4169.95,0.39784
4164.16,0.39799
4158.37,0.39820
4152.59,0.39710
4146.8,0.39635
4141.02,0.39515
4135.23,0.39315
4129.44,0.39175
4123.66,0.38942
4117.87,0.38551
4112.09,0.38188
4106.3,0.37930
4100.51,0.37483
4094.73,0.37016
4088.94,0.36611
4083.15,0.36093
4077.37,0.35747
4071.58,0.35248
4065.8,0.34835
4060.01,0.34441
4054.22,0.33908
4048.44,0.33424
4042.65,0.32992
4036.86,0.32714
4031.08,0.32327
4025.29,0.32197
4019.51,0.32057
4013.72,0.32044
4007.93,0.32082
4002.15,0.32171
3996.36,0.32281
3990.57,0.32465
3984.79,0.32618
3979,0.32735
3973.22,0.32929
3967.43,0.33037
3961.64,0.33251
3955.86,0.33502
3950.07,0.33753
3944.28,0.33904
3938.5,0.34050
3932.71,0.34437
3926.93,0.34670
3921.14,0.34821
3915.35,0.35023
3909.57,0.35190
3903.78,0.35364
3897.99,0.35505
3892.21,0.35708
3886.42,0.35852
3880.64,0.36118
3874.85,0.36136
3869.06,0.36353
3863.28,0.36634
3857.49,0.36833
3851.7,0.37125
3845.92,0.37122
3840.13,0.37380
3834.35,0.37402
3828.56,0.37387
3822.77,0.37371
3816.99,0.37347
3811.2,0.37215
3805.41,0.37267
3799.63,0.37155
3793.84,0.36994
3788.06,0.36892
3782.27,0.36800
3776.48,0.36653
3770.7,0.36517
3764.91,0.36253
3759.12,0.36106
3753.34,0.35798
3747.55,0.35488
3741.77,0.34900
3735.98,0.34608
3730.19,0.33790
3724.41,0.33032
3718.62,0.31836
3712.83,0.30292
3707.05,0.28145
3701.26,0.25339
3695.48,0.23113
3689.69,0.23093
3683.9,0.23285
3678.12,0.22664
3672.33,0.20793
3666.54,0.19075
3660.76,0.17760
3654.97,0.16074
3649.19,0.14970
3643.4,0.14029
3637.61,0.13155
3631.83,0.12302
3626.04,0.10954
3620.25,0.09851
3614.47,0.09664
3608.68,0.09251
3602.9,0.08688
3597.11,0.08102
3591.32,0.07645
3585.54,0.07170
3579.75,0.06742
3573.97,0.06373
3568.18,0.06026
3562.39,0.05775
3556.61,0.05537
3550.82,0.05316
3545.03,0.05115
3539.25,0.04881
3533.46,0.04724
3527.68,0.04574
3521.89,0.04383
3516.1,0.04268
3510.32,0.04032
3504.53,0.03987
3498.74,0.03866
3492.96,0.03801
3487.17,0.03719
3481.39,0.03584
3475.6,0.03544
3469.81,0.03461
3464.03,0.03432
3458.24,0.03382
3452.45,0.03301
3446.67,0.03255
3440.88,0.03254
3435.1,0.03263
3429.31,0.03309
3423.52,0.03216
3417.74,0.03179
3411.95,0.03189
3406.16,0.03218
3400.38,0.03181
3394.59,0.03173
3388.81,0.03170
3383.02,0.03252
3377.23,0.03151
3371.45,0.03128
3365.66,0.03255
3359.87,0.03187
3354.09,0.03134
3348.3,0.03206
3342.52,0.03256
3336.73,0.03327
3330.94,0.03309
3325.16,0.03476
3319.37,0.03572
3313.58,0.03626
3307.8,0.03641
3302.01,0.03636
3296.23,0.03723
3290.44,0.03759
3284.65,0.03846
3278.87,0.03899
3273.08,0.03993
3267.29,0.04058
3261.51,0.04203
3255.72,0.04343
3249.94,0.04501
3244.15,0.04591
3238.36,0.04697
3232.58,0.04822
3226.79,0.05008
3221,0.05080
3215.22,0.05246
3209.43,0.05362
3203.65,0.05513
3197.86,0.05675
3192.07,0.05829
3186.29,0.05947
3180.5,0.06068
3174.71,0.06226
3168.93,0.06423
3163.14,0.06653
3157.36,0.06810
3151.57,0.06995
3145.78,0.07137
3140,0.07308
3134.21,0.07443
3128.42,0.07671
3122.64,0.07832
3116.85,0.08031
3111.07,0.08231
3105.28,0.08401
3099.49,0.08654
3093.71,0.08755
3087.92,0.08837
3082.14,0.09027
3076.35,0.09181
3070.56,0.09346
3064.78,0.09583
3058.99,0.09717
3053.2,0.09937
3047.42,0.10061
3041.63,0.10181
3035.85,0.10348
3030.06,0.10468
3024.27,0.10519
3018.49,0.10601
3012.7,0.10584
3006.91,0.10506
3001.13,0.10418
2995.34,0.10294
2989.56,0.09999
2983.77,0.09623
2977.98,0.09031
2972.2,0.08264
2966.41,0.07665
2960.62,0.07432
2954.84,0.07133
2949.05,0.06697
2943.27,0.06445
2937.48,0.06279
2931.69,0.06197
2925.91,0.06091
2920.12,0.06038
2914.33,0.05959
2908.55,0.05882
2902.76,0.05863
2896.98,0.06040
2891.19,0.06175
2885.4,0.06373
2879.62,0.06510
2873.83,0.06637
2868.04,0.06749
2862.26,0.07109
2856.47,0.07339
2850.69,0.07688
2844.9,0.08222
2839.11,0.08860
2833.33,0.09467
2827.54,0.10095
2821.75,0.10683
2815.97,0.11252
2810.18,0.11716
2804.4,0.12152
2798.61,0.12504
2792.82,0.12829
2787.04,0.13045
2781.25,0.13229
2775.46,0.13421
2769.68,0.13557
2763.89,0.13709
2758.11,0.13844
2752.32,0.14011
2746.53,0.14049
2740.75,0.14133
2734.96,0.14226
2729.17,0.14330
2723.39,0.14525
2717.6,0.14754
2711.82,0.15012
2706.03,0.15327
2700.24,0.15592
2694.46,0.15897
2688.67,0.16185
2682.88,0.16504
2677.1,0.16694
2671.31,0.16961
2665.53,0.17124
2659.74,0.17284
2653.95,0.17502
2648.17,0.17660
2642.38,0.17893
2636.59,0.18098
2630.81,0.18331
2625.02,0.18557
2619.24,0.18777
2613.45,0.18943
2607.66,0.19083
2601.88,0.19226
2596.09,0.19433
2590.3,0.19584
2584.52,0.19695
2578.73,0.19780
2572.95,0.19869
2567.16,0.19956
2561.37,0.20027
2555.59,0.20012
2549.8,0.20019
2544.02,0.20041
2538.23,0.20081
2532.44,0.20191
2526.66,0.20248
2520.87,0.20337
2515.08,0.20439
2509.3,0.20755
2503.51,0.21117
2497.73,0.21543
2491.94,0.21873
2486.15,0.22165
2480.37,0.22489
2474.58,0.22784
2468.79,0.23040
2463.01,0.23225
2457.22,0.23376
2451.44,0.23604
2445.65,0.23816
2439.86,0.24100
2434.08,0.24320
2428.29,0.24586
2422.5,0.24880
2416.72,0.25089
2410.93,0.25334
2405.15,0.25559
2399.36,0.25744
2393.57,0.25943
2387.79,0.26101
2382,0.26312
2376.21,0.26408
2370.43,0.26567
2364.64,0.26681
2358.86,0.26758
2353.07,0.26872
2347.28,0.26998
2341.5,0.27131
2335.71,0.27261
2329.92,0.27284
2324.14,0.27362
2318.35,0.27388
2312.57,0.27346
2306.78,0.27322
2300.99,0.27199
2295.21,0.27109
2289.42,0.26970
2283.63,0.26871
2277.85,0.26767
2272.06,0.26535
2266.28,0.26248
2260.49,0.26029
2254.7,0.25888
2248.92,0.25891
2243.13,0.25828
2237.34,0.25766
2231.56,0.25729
2225.77,0.25744
2219.99,0.25775
2214.2,0.25754
2208.41,0.25785
2202.63,0.25694
2196.84,0.25604
2191.05,0.25402
2185.27,0.25172
2179.48,0.24860
2173.7,0.24529
2167.91,0.24177
2162.12,0.23946
2156.34,0.23743
2150.55,0.23602
2144.76,0.23421
2138.98,0.23278
2133.19,0.23188
2127.41,0.23270
2121.62,0.23354
2115.83,0.23415
2110.05,0.23510
2104.26,0.23583
2098.47,0.23654
2092.69,0.23716
2086.9,0.23793
2081.12,0.23727
2075.33,0.23639
2069.54,0.23492
2063.76,0.23387
2057.97,0.23300
2052.19,0.23296
2046.4,0.23390
2040.61,0.23514
2034.83,0.23753
2029.04,0.24070
2023.25,0.24452
2017.47,0.24842
2011.68,0.25162
2005.9,0.25363
2000.11,0.25521
1994.32,0.25705
1988.54,0.25955
1982.75,0.26133
1976.96,0.26315
1971.18,0.26421
1965.39,0.26542
1959.61,0.26666
1953.82,0.26830
1948.03,0.27073
1942.25,0.27305
1936.46,0.27488
1930.67,0.27666
1924.89,0.27711
1919.1,0.27817
1913.32,0.27873
1907.53,0.27836
1901.74,0.27812
1895.96,0.27782
1890.17,0.27708
1884.38,0.27641
1878.6,0.27515
1872.81,0.27437
1867.03,0.27313
1861.24,0.27129
1855.45,0.26957
1849.67,0.26709
1843.88,0.26518
1838.09,0.26211
1832.31,0.25969
1826.52,0.25632
1820.74,0.25324
1814.95,0.24996
1809.16,0.24631
1803.38,0.23981
1797.59,0.23145
1791.8,0.22721
1786.02,0.22325
1780.23,0.21617
1774.45,0.20673
1768.66,0.19059
1762.87,0.17115
1757.09,0.14974
1751.3,0.13253
1745.51,0.12054
1739.73,0.11492
1733.94,0.11390
1728.16,0.11445
1722.37,0.11806
1716.58,0.12498
1710.8,0.13064
1705.01,0.13523
1699.22,0.13645
1693.44,0.13245
1687.65,0.12651
1681.87,0.11767
1676.08,0.10859
1670.29,0.09885
1664.51,0.09205
1658.72,0.08849
1652.93,0.08853
1647.15,0.08825
1641.36,0.08727
1635.58,0.08787
1629.79,0.08845
1624,0.09016
1618.22,0.09085
1612.43,0.08934
1606.64,0.08758
1600.86,0.08836
1595.07,0.08946
1589.29,0.09172
1583.5,0.09946
1577.71,0.11115
1571.93,0.12381
1566.14,0.13204
1560.35,0.13657
1554.57,0.13506
1548.78,0.13181
1543,0.12751
1537.21,0.11797
1531.42,0.10610
1525.64,0.08999
1519.85,0.07143
1514.07,0.05950
1508.28,0.05801
1502.49,0.06018
1496.71,0.06201
1490.92,0.06077
1485.13,0.05606
1479.35,0.05106
1473.56,0.04627
1467.78,0.04203
1461.99,0.04025
1456.2,0.03914
1450.42,0.03852
1444.63,0.03806
1438.84,0.03692
1433.06,0.03498
1427.27,0.03588
1421.49,0.03784
1415.7,0.03959
1409.91,0.04063
1404.13,0.04117
1398.34,0.04114
1392.55,0.04085
1386.77,0.03959
1380.98,0.03767
1375.2,0.03716
1369.41,0.03786
1363.62,0.03915
1357.84,0.04074
1352.05,0.04205
1346.26,0.04201
1340.48,0.04161
1334.69,0.04157
1328.91,0.04242
1323.12,0.04176
1317.33,0.04185
1311.55,0.04416
1305.76,0.04660
1299.97,0.04783
1294.19,0.04702
1288.4,0.04440
1282.62,0.04226
1276.83,0.04157
1271.04,0.04135
1265.26,0.04181
1259.47,0.04203
1253.68,0.04352
1247.9,0.04368
1242.11,0.04386
1236.33,0.04315
1230.54,0.04377
1224.75,0.04437
1218.97,0.04455
1213.18,0.04354
1207.39,0.04223
1201.61,0.04288
1195.82,0.04332
1190.04,0.04167
1184.25,0.03770
1178.46,0.03331
1172.68,0.02983
1166.89,0.03052
1161.1,0.03226
1155.32,0.03306
1149.53,0.03313
1143.75,0.03170
1137.96,0.03065
1132.17,0.02910
1126.39,0.02816
1120.6,0.02866
1114.81,0.02973
1109.03,0.03096
1103.24,0.03152
1097.46,0.03107
1091.67,0.03031
1085.88,0.03132
1080.1,0.03154
1074.31,0.03232
1068.52,0.03583
1062.74,0.04022
1056.95,0.04310
1051.17,0.04313
1045.38,0.04228
1039.59,0.04294
1033.81,0.04656
1028.02,0.04804
1022.24,0.04852
1016.45,0.05009
1010.66,0.05214
1004.88,0.05410
999.09,0.05618
993.304,0.06015
987.518,0.06388
981.731,0.07117
975.945,0.07737
970.159,0.08105
964.373,0.08510
958.586,0.09157
952.8,0.09707
947.014,0.10088
941.228,0.10251
935.441,0.10413
929.655,0.10570
923.869,0.10530
918.083,0.10227
912.297,0.09684
906.51,0.09239
900.724,0.08920
894.938,0.09075
889.152,0.09753
883.365,0.10130
877.579,0.09976
871.793,0.10215
866.007,0.10814
860.22,0.10873
854.434,0.10940
848.648,0.11247
842.862,0.11254
837.075,0.11045
831.289,0.10619
825.503,0.10251
819.717,0.09681
813.931,0.09202
808.144,0.09047
802.358,0.09027
796.572,0.09045
790.786,0.08883
784.999,0.08661
779.213,0.08432
773.427,0.08159
767.641,0.07974
761.854,0.07670
756.068,0.07485
750.282,0.07311
744.496,0.07135
738.709,0.06773
732.923,0.06463
727.137,0.06072
721.351,0.05818
715.565,0.05451
709.778,0.05417
703.992,0.05227
698.206,0.05333
692.42,0.05135
686.633,0.05015
680.847,0.04825
675.061,0.04525
669.275,0.04621
663.488,0.04552
657.702,0.04750
651.916,0.04734
646.13,0.04550
640.343,0.04478
634.557,0.04360
628.771,0.04266
622.985,0.04399
617.198,0.04345
611.412,0.04475
605.626,0.04577
599.84,0.04496