File: 01_Data/Cellulose_Insulation/FTIR/IS/Cellulose_Insulation_IS_S_220913_R4.dpt
7497.03,0.53365
7491.25,0.52340
7485.46,0.52764
7479.67,0.52317
7473.89,0.52993
7468.1,0.51628
7462.32,0.51939
7456.53,0.52836
7450.74,0.51771
7444.96,0.52693
7439.17,0.52965
7433.38,0.51997
7427.6,0.52242
7421.81,0.52119
7416.03,0.52532
7410.24,0.51858
7404.45,0.52064
7398.67,0.51903
7392.88,0.51149
7387.09,0.52548
7381.31,0.52166
7375.52,0.51916
7369.74,0.51284
7363.95,0.51759
7358.16,0.51676
7352.38,0.52101
7346.59,0.52487
7340.8,0.51448
7335.02,0.51540
7329.23,0.51146
7323.45,0.51259
7317.66,0.52322
7311.87,0.51784
7306.09,0.51949
7300.3,0.52470
7294.51,0.53358
7288.73,0.52102
7282.94,0.51882
7277.16,0.52276
7271.37,0.51788
7265.58,0.52481
7259.8,0.52224
7254.01,0.51346
7248.22,0.52322
7242.44,0.52576
7236.65,0.52243
7230.87,0.52517
7225.08,0.52510
7219.29,0.52018
7213.51,0.52765
7207.72,0.52488
7201.93,0.51361
7196.15,0.52572
7190.36,0.52052
7184.58,0.51947
7178.79,0.53005
7173,0.52098
7167.22,0.52182
7161.43,0.51840
7155.65,0.51687
7149.86,0.51406
7144.07,0.51139
7138.29,0.51941
7132.5,0.52172
7126.71,0.51732
7120.93,0.51512
7115.14,0.50806
7109.36,0.51316
7103.57,0.51113
7097.78,0.50930
7092,0.51305
7086.21,0.51286
7080.42,0.50320
7074.64,0.50243
7068.85,0.50402
7063.07,0.50388
7057.28,0.50460
7051.49,0.50123
7045.71,0.49548
7039.92,0.50642
7034.13,0.50102
7028.35,0.50608
7022.56,0.50064
7016.78,0.49756
7010.99,0.49373
7005.2,0.49047
6999.42,0.48804
6993.63,0.49140
6987.84,0.49150
6982.06,0.49142
6976.27,0.49066
6970.49,0.49350
6964.7,0.49271
6958.91,0.49431
6953.13,0.49108
6947.34,0.48651
6941.55,0.48879
6935.77,0.49020
6929.98,0.48793
6924.2,0.49416
6918.41,0.48829
6912.62,0.48349
6906.84,0.48980
6901.05,0.48858
6895.26,0.48524
6889.48,0.48794
6883.69,0.48657
6877.91,0.48711
6872.12,0.49103
6866.33,0.48077
6860.55,0.48468
6854.76,0.48726
6848.97,0.49028
6843.19,0.48822
6837.4,0.48837
6831.62,0.48837
6825.83,0.48746
6820.04,0.48066
6814.26,0.48765
6808.47,0.48573
6802.68,0.48323
6796.9,0.48396
6791.11,0.48562
6785.33,0.48550
6779.54,0.48951
6773.75,0.48212
6767.97,0.48516
6762.18,0.48528
6756.39,0.48439
6750.61,0.48619
6744.82,0.48836
6739.04,0.47993
6733.25,0.48437
6727.46,0.48086
6721.68,0.48856
6715.89,0.48707
6710.1,0.48393
6704.32,0.48713
6698.53,0.48964
6692.75,0.48319
6686.96,0.48573
6681.17,0.48913
6675.39,0.48373
6669.6,0.48598
6663.82,0.48835
6658.03,0.48754
6652.24,0.48555
6646.46,0.48789
6640.67,0.48824
6634.88,0.48451
6629.1,0.49090
6623.31,0.48939
6617.53,0.48752
6611.74,0.49053
6605.95,0.49220
6600.17,0.49087
6594.38,0.49024
6588.59,0.49208
6582.81,0.48866
6577.02,0.48755
6571.24,0.48944
6565.45,0.48418
6559.66,0.48949
6553.88,0.48999
6548.09,0.48883
6542.3,0.49231
6536.52,0.49520
6530.73,0.48810
6524.95,0.48682
6519.16,0.49134
6513.37,0.49113
6507.59,0.49150
6501.8,0.48653
6496.01,0.48806
6490.23,0.49047
6484.44,0.48922
6478.66,0.49342
6472.87,0.48889
6467.08,0.48936
6461.3,0.49070
6455.51,0.48814
6449.72,0.49082
6443.94,0.49314
6438.15,0.49271
6432.37,0.49135
6426.58,0.48826
6420.79,0.49181
6415.01,0.49249
6409.22,0.48785
6403.43,0.48869
6397.65,0.49144
6391.86,0.49290
6386.08,0.49018
6380.29,0.49100
6374.5,0.48712
6368.72,0.49092
6362.93,0.49207
6357.14,0.48838
6351.36,0.48933
6345.57,0.49089
6339.79,0.48840
6334,0.49336
6328.21,0.49538
6322.43,0.49335
6316.64,0.49224
6310.85,0.49400
6305.07,0.49436
6299.28,0.49066
6293.5,0.49577
6287.71,0.49400
6281.92,0.49307
6276.14,0.49519
6270.35,0.49384
6264.56,0.49802
6258.78,0.49407
6252.99,0.49661
6247.21,0.49878
6241.42,0.50042
6235.63,0.50180
6229.85,0.50007
6224.06,0.50313
6218.27,0.50106
6212.49,0.49973
6206.7,0.50063
6200.92,0.50359
6195.13,0.50478
6189.34,0.50288
6183.56,0.50507
6177.77,0.50539
6171.98,0.50319
6166.2,0.50673
6160.41,0.50672
6154.63,0.50595
6148.84,0.50644
6143.05,0.50598
6137.27,0.50747
6131.48,0.50541
6125.7,0.50551
6119.91,0.50934
6114.12,0.51437
6108.34,0.51207
6102.55,0.51052
6096.76,0.51048
6090.98,0.51183
6085.19,0.50661
6079.41,0.50841
6073.62,0.51123
6067.83,0.51117
6062.05,0.51362
6056.26,0.50853
6050.47,0.51042
6044.69,0.51201
6038.9,0.51160
6033.12,0.51054
6027.33,0.51205
6021.54,0.51474
6015.76,0.51232
6009.97,0.51479
6004.18,0.51269
5998.4,0.51136
5992.61,0.51151
5986.83,0.51177
5981.04,0.51029
5975.25,0.50898
5969.47,0.50917
5963.68,0.50967
5957.89,0.50835
5952.11,0.51010
5946.32,0.51368
5940.54,0.50992
5934.75,0.51042
5928.96,0.51103
5923.18,0.50997
5917.39,0.50949
5911.6,0.50969
5905.82,0.51368
5900.03,0.51054
5894.25,0.50765
5888.46,0.50918
5882.67,0.51189
5876.89,0.50981
5871.1,0.51026
5865.31,0.51113
5859.53,0.50964
5853.74,0.50852
5847.96,0.50857
5842.17,0.51144
5836.38,0.50975
5830.6,0.50991
5824.81,0.50929
5819.02,0.50809
5813.24,0.50899
5807.45,0.50746
5801.67,0.50842
5795.88,0.50964
5790.09,0.50885
5784.31,0.51032
5778.52,0.50795
5772.73,0.50966
5766.95,0.50890
5761.16,0.51013
5755.38,0.50924
5749.59,0.51121
5743.8,0.51050
5738.02,0.51016
5732.23,0.51024
5726.44,0.50964
5720.66,0.51096
5714.87,0.50787
5709.09,0.51012
5703.3,0.50974
5697.51,0.50926
5691.73,0.50993
5685.94,0.51088
5680.15,0.50941
5674.37,0.51001
5668.58,0.51001
5662.8,0.51202
5657.01,0.51066
5651.22,0.50876
5645.44,0.51068
5639.65,0.51039
5633.87,0.51071
5628.08,0.51035
5622.29,0.50758
5616.51,0.51124
5610.72,0.50896
5604.93,0.50939
5599.15,0.50999
5593.36,0.51117
5587.58,0.50989
5581.79,0.50935
5576,0.51134
5570.22,0.51143
5564.43,0.51217
5558.64,0.51111
5552.86,0.51248
5547.07,0.51183
5541.29,0.51143
5535.5,0.51100
5529.71,0.51270
5523.93,0.51194
5518.14,0.51228
5512.35,0.51297
5506.57,0.51259
5500.78,0.51243
5495,0.51340
5489.21,0.51435
5483.42,0.51460
5477.64,0.51263
5471.85,0.51428
5466.06,0.51524
5460.28,0.51292
5454.49,0.51467
5448.71,0.51537
5442.92,0.51408
5437.13,0.51528
5431.35,0.51547
5425.56,0.51752
5419.77,0.51723
5413.99,0.51788
5408.2,0.51821
5402.42,0.51656
5396.63,0.51743
5390.84,0.51898
5385.06,0.51675
5379.27,0.51701
5373.48,0.51839
5367.7,0.51829
5361.91,0.51702
5356.13,0.51812
5350.34,0.51761
5344.55,0.51673
5338.77,0.51748
5332.98,0.51601
5327.19,0.51660
5321.41,0.51624
5315.62,0.51525
5309.84,0.51478
5304.05,0.51243
5298.26,0.51129
5292.48,0.51034
5286.69,0.50635
5280.9,0.50526
5275.12,0.50230
5269.33,0.49974
5263.55,0.49573
5257.76,0.49150
5251.97,0.48678
5246.19,0.48360
5240.4,0.48153
5234.61,0.47850
5228.83,0.47577
5223.04,0.47316
5217.26,0.47093
5211.47,0.47050
5205.68,0.47011
5199.9,0.46928
5194.11,0.46728
5188.32,0.46856
5182.54,0.46739
5176.75,0.46848
5170.97,0.47026
5165.18,0.47059
5159.39,0.47235
5153.61,0.47321
5147.82,0.47293
5142.03,0.47436
5136.25,0.47654
5130.46,0.47776
5124.68,0.47943
5118.89,0.47803
5113.1,0.48089
5107.32,0.48039
5101.53,0.48210
5095.75,0.48306
5089.96,0.48286
5084.17,0.48322
5078.39,0.48436
5072.6,0.48536
5066.81,0.48596
5061.03,0.48588
5055.24,0.48560
5049.46,0.48611
5043.67,0.48600
5037.88,0.48540
5032.1,0.48483
5026.31,0.48396
5020.52,0.48527
5014.74,0.48324
5008.95,0.48143
5003.17,0.48060
4997.38,0.47917
4991.59,0.47793
4985.81,0.47726
4980.02,0.47486
4974.23,0.47292
4968.45,0.47163
4962.66,0.46922
4956.88,0.46808
4951.09,0.46604
4945.3,0.46559
4939.52,0.46210
4933.73,0.45909
4927.94,0.45644
4922.16,0.45389
4916.37,0.45178
4910.59,0.44962
4904.8,0.44613
4899.01,0.44375
4893.23,0.44087
4887.44,0.43758
4881.65,0.43401
4875.87,0.43297
4870.08,0.42966
4864.3,0.42756
4858.51,0.42559
4852.72,0.42362
4846.94,0.42115
4841.15,0.41907
4835.36,0.41824
4829.58,0.41514
4823.79,0.41357
4818.01,0.41043
4812.22,0.40895
4806.43,0.40702
4800.65,0.40509
4794.86,0.40360
4789.07,0.40465
4783.29,0.40261
4777.5,0.40110
4771.72,0.39921
4765.93,0.39915
4760.14,0.39720
4754.36,0.39670
4748.57,0.39749
4742.78,0.39619
4737,0.39659
4731.21,0.39585
4725.43,0.39613
4719.64,0.39622
4713.85,0.39576
4708.07,0.39666
4702.28,0.39779
4696.49,0.39764
4690.71,0.39756
4684.92,0.39813
4679.14,0.39895
4673.35,0.40090
4667.56,0.40173
4661.78,0.40248
4655.99,0.40269
4650.2,0.40366
4644.42,0.40558
4638.63,0.40628
4632.85,0.40818
4627.06,0.40958
4621.27,0.41061
4615.49,0.41235
4609.7,0.41400
4603.92,0.41507
4598.13,0.41779
4592.34,0.41986
4586.56,0.42013
4580.77,0.42198
4574.98,0.42361
4569.2,0.42530
4563.41,0.42683
4557.63,0.42751
4551.84,0.42891
4546.05,0.43002
4540.27,0.43108
4534.48,0.43231
4528.69,0.43275
4522.91,0.43390
4517.12,0.43578
4511.34,0.43754
4505.55,0.43867
4499.76,0.43882
4493.98,0.43921
4488.19,0.43857
4482.4,0.43737
4476.62,0.43630
4470.83,0.43497
4465.05,0.43371
4459.26,0.43055
4453.47,0.42823
4447.69,0.42595
4441.9,0.42219
4436.11,0.41856
4430.33,0.41490
4424.54,0.41123
4418.76,0.40616
4412.97,0.40157
4407.18,0.39901
4401.4,0.39684
4395.61,0.39645
4389.82,0.39705
4384.04,0.39871
4378.25,0.39983
4372.47,0.40129
4366.68,0.40338
4360.89,0.40429
4355.11,0.40460
4349.32,0.40386
4343.53,0.40256
4337.75,0.40058
4331.96,0.39950
4326.18,0.39822
4320.39,0.39615
4314.6,0.39399
4308.82,0.39352
4303.03,0.39156
4297.24,0.38991
4291.46,0.38893
4285.67,0.38911
4279.89,0.38768
4274.1,0.38735
4268.31,0.38771
4262.53,0.38880
4256.74,0.38977
4250.95,0.39074
4245.17,0.39109
4239.38,0.39196
4233.6,0.39287
4227.81,0.39367
4222.02,0.39385
4216.24,0.39442
4210.45,0.39469
4204.66,0.39465
4198.88,0.39530
4193.09,0.39584
4187.31,0.39636
4181.52,0.39647
4175.73,0.39819
4169.95,0.39883
4164.16,0.39930
4158.37,0.40032
4152.59,0.40057
4146.8,0.39764
4141.02,0.39695
4135.23,0.39610
4129.44,0.39456
4123.66,0.39194
4117.87,0.38791
4112.09,0.38564
4106.3,0.38146
4100.51,0.37719
4094.73,0.37327
4088.94,0.36824
4083.15,0.36418
4077.37,0.35992
4071.58,0.35565
4065.8,0.35076
4060.01,0.34624
4054.22,0.34166
4048.44,0.33662
4042.65,0.33291
4036.86,0.32862
4031.08,0.32597
4025.29,0.32390
4019.51,0.32263
4013.72,0.32297
4007.93,0.32330
4002.15,0.32410
3996.36,0.32536
3990.57,0.32693
3984.79,0.32887
3979,0.33029
3973.22,0.33226
3967.43,0.33380
3961.64,0.33565
3955.86,0.33767
3950.07,0.34016
3944.28,0.34251
3938.5,0.34398
3932.71,0.34690
3926.93,0.34925
3921.14,0.35154
3915.35,0.35372
3909.57,0.35578
3903.78,0.35742
3897.99,0.35945
3892.21,0.36094
3886.42,0.36291
3880.64,0.36459
3874.85,0.36563
3869.06,0.36726
3863.28,0.36991
3857.49,0.37244
3851.7,0.37525
3845.92,0.37637
3840.13,0.37805
3834.35,0.37824
3828.56,0.37839
3822.77,0.37909
3816.99,0.37900
3811.2,0.37824
3805.41,0.37804
3799.63,0.37774
3793.84,0.37670
3788.06,0.37675
3782.27,0.37626
3776.48,0.37450
3770.7,0.37344
3764.91,0.37174
3759.12,0.36885
3753.34,0.36683
3747.55,0.36332
3741.77,0.35886
3735.98,0.35495
3730.19,0.34793
3724.41,0.34081
3718.62,0.32958
3712.83,0.31417
3707.05,0.29188
3701.26,0.26219
3695.48,0.23987
3689.69,0.24081
3683.9,0.24598
3678.12,0.24140
3672.33,0.22387
3666.54,0.20793
3660.76,0.19560
3654.97,0.17848
3649.19,0.16739
3643.4,0.15958
3637.61,0.15018
3631.83,0.14095
3626.04,0.12530
3620.25,0.11152
3614.47,0.11040
3608.68,0.10542
3602.9,0.09824
3597.11,0.09184
3591.32,0.08567
3585.54,0.07956
3579.75,0.07496
3573.97,0.07045
3568.18,0.06677
3562.39,0.06304
3556.61,0.05989
3550.82,0.05669
3545.03,0.05355
3539.25,0.05161
3533.46,0.04959
3527.68,0.04800
3521.89,0.04616
3516.1,0.04413
3510.32,0.04261
3504.53,0.04198
3498.74,0.04044
3492.96,0.03955
3487.17,0.03836
3481.39,0.03802
3475.6,0.03702
3469.81,0.03587
3464.03,0.03542
3458.24,0.03415
3452.45,0.03471
3446.67,0.03414
3440.88,0.03372
3435.1,0.03351
3429.31,0.03274
3423.52,0.03311
3417.74,0.03289
3411.95,0.03232
3406.16,0.03140
3400.38,0.03246
3394.59,0.03207
3388.81,0.03302
3383.02,0.03264
3377.23,0.03251
3371.45,0.03239
3365.66,0.03325
3359.87,0.03307
3354.09,0.03237
3348.3,0.03253
3342.52,0.03327
3336.73,0.03386
3330.94,0.03386
3325.16,0.03494
3319.37,0.03645
3313.58,0.03622
3307.8,0.03703
3302.01,0.03747
3296.23,0.03823
3290.44,0.03846
3284.65,0.03935
3278.87,0.04098
3273.08,0.04115
3267.29,0.04253
3261.51,0.04387
3255.72,0.04549
3249.94,0.04717
3244.15,0.04898
3238.36,0.04962
3232.58,0.05093
3226.79,0.05230
3221,0.05372
3215.22,0.05557
3209.43,0.05681
3203.65,0.05928
3197.86,0.06090
3192.07,0.06254
3186.29,0.06457
3180.5,0.06533
3174.71,0.06746
3168.93,0.06979
3163.14,0.07145
3157.36,0.07326
3151.57,0.07488
3145.78,0.07840
3140,0.07987
3134.21,0.08178
3128.42,0.08400
3122.64,0.08560
3116.85,0.08787
3111.07,0.09002
3105.28,0.09161
3099.49,0.09318
3093.71,0.09507
3087.92,0.09699
3082.14,0.09855
3076.35,0.10012
3070.56,0.10128
3064.78,0.10347
3058.99,0.10483
3053.2,0.10668
3047.42,0.10789
3041.63,0.10976
3035.85,0.11101
3030.06,0.11201
3024.27,0.11213
3018.49,0.11274
3012.7,0.11173
3006.91,0.10985
3001.13,0.10864
2995.34,0.10734
2989.56,0.10427
2983.77,0.09986
2977.98,0.09302
2972.2,0.08432
2966.41,0.07780
2960.62,0.07567
2954.84,0.07232
2949.05,0.06861
2943.27,0.06469
2937.48,0.06316
2931.69,0.06224
2925.91,0.06138
2920.12,0.06014
2914.33,0.05923
2908.55,0.05845
2902.76,0.05884
2896.98,0.06032
2891.19,0.06187
2885.4,0.06398
2879.62,0.06504
2873.83,0.06593
2868.04,0.06795
2862.26,0.07071
2856.47,0.07356
2850.69,0.07757
2844.9,0.08287
2839.11,0.08866
2833.33,0.09540
2827.54,0.10206
2821.75,0.10843
2815.97,0.11406
2810.18,0.11922
2804.4,0.12386
2798.61,0.12772
2792.82,0.13074
2787.04,0.13309
2781.25,0.13466
2775.46,0.13649
2769.68,0.13799
2763.89,0.13972
2758.11,0.14100
2752.32,0.14247
2746.53,0.14289
2740.75,0.14381
2734.96,0.14434
2729.17,0.14622
2723.39,0.14806
2717.6,0.15031
2711.82,0.15281
2706.03,0.15602
2700.24,0.15913
2694.46,0.16195
2688.67,0.16486
2682.88,0.16787
2677.1,0.17034
2671.31,0.17218
2665.53,0.17368
2659.74,0.17526
2653.95,0.17712
2648.17,0.17909
2642.38,0.18148
2636.59,0.18389
2630.81,0.18559
2625.02,0.18773
2619.24,0.19000
2613.45,0.19190
2607.66,0.19310
2601.88,0.19540
2596.09,0.19692
2590.3,0.19821
2584.52,0.19962
2578.73,0.20072
2572.95,0.20196
2567.16,0.20230
2561.37,0.20229
2555.59,0.20228
2549.8,0.20258
2544.02,0.20240
2538.23,0.20321
2532.44,0.20418
2526.66,0.20529
2520.87,0.20604
2515.08,0.20682
2509.3,0.20963
2503.51,0.21395
2497.73,0.21729
2491.94,0.22151
2486.15,0.22493
2480.37,0.22759
2474.58,0.23056
2468.79,0.23313
2463.01,0.23463
2457.22,0.23665
2451.44,0.23871
2445.65,0.24101
2439.86,0.24362
2434.08,0.24660
2428.29,0.24899
2422.5,0.25213
2416.72,0.25451
2410.93,0.25729
2405.15,0.25968
2399.36,0.26163
2393.57,0.26387
2387.79,0.26587
2382,0.26774
2376.21,0.26928
2370.43,0.27095
2364.64,0.27185
2358.86,0.27301
2353.07,0.27409
2347.28,0.27560
2341.5,0.27752
2335.71,0.27837
2329.92,0.27922
2324.14,0.28005
2318.35,0.27999
2312.57,0.28016
2306.78,0.27972
2300.99,0.27861
2295.21,0.27755
2289.42,0.27691
2283.63,0.27555
2277.85,0.27451
2272.06,0.27235
2266.28,0.26990
2260.49,0.26696
2254.7,0.26581
2248.92,0.26540
2243.13,0.26529
2237.34,0.26450
2231.56,0.26444
2225.77,0.26474
2219.99,0.26506
2214.2,0.26550
2208.41,0.26533
2202.63,0.26480
2196.84,0.26363
2191.05,0.26164
2185.27,0.25933
2179.48,0.25580
2173.7,0.25260
2167.91,0.24987
2162.12,0.24680
2156.34,0.24445
2150.55,0.24275
2144.76,0.24133
2138.98,0.23996
2133.19,0.23924
2127.41,0.23992
2121.62,0.24109
2115.83,0.24177
2110.05,0.24258
2104.26,0.24339
2098.47,0.24442
2092.69,0.24534
2086.9,0.24524
2081.12,0.24500
2075.33,0.24358
2069.54,0.24214
2063.76,0.24101
2057.97,0.24038
2052.19,0.24014
2046.4,0.24048
2040.61,0.24206
2034.83,0.24464
2029.04,0.24800
2023.25,0.25173
2017.47,0.25548
2011.68,0.25862
2005.9,0.26050
2000.11,0.26195
1994.32,0.26397
1988.54,0.26663
1982.75,0.26864
1976.96,0.27025
1971.18,0.27131
1965.39,0.27222
1959.61,0.27366
1953.82,0.27579
1948.03,0.27738
1942.25,0.28002
1936.46,0.28186
1930.67,0.28281
1924.89,0.28405
1919.1,0.28477
1913.32,0.28534
1907.53,0.28525
1901.74,0.28480
1895.96,0.28416
1890.17,0.28335
1884.38,0.28271
1878.6,0.28163
1872.81,0.28052
1867.03,0.27923
1861.24,0.27719
1855.45,0.27548
1849.67,0.27309
1843.88,0.27055
1838.09,0.26774
1832.31,0.26557
1826.52,0.26237
1820.74,0.25905
1814.95,0.25530
1809.16,0.25134
1803.38,0.24469
1797.59,0.23626
1791.8,0.23102
1786.02,0.22714
1780.23,0.21941
1774.45,0.20795
1768.66,0.19068
1762.87,0.17073
1757.09,0.14917
1751.3,0.13158
1745.51,0.12053
1739.73,0.11525
1733.94,0.11444
1728.16,0.11686
1722.37,0.12155
1716.58,0.12883
1710.8,0.13634
1705.01,0.14136
1699.22,0.14405
1693.44,0.14127
1687.65,0.13628
1681.87,0.12760
1676.08,0.11784
1670.29,0.10822
1664.51,0.10110
1658.72,0.09809
1652.93,0.09908
1647.15,0.09935
1641.36,0.09864
1635.58,0.09838
1629.79,0.09911
1624,0.09943
1618.22,0.09841
1612.43,0.09510
1606.64,0.09281
1600.86,0.09279
1595.07,0.09355
1589.29,0.09589
1583.5,0.10335
1577.71,0.11536
1571.93,0.12849
1566.14,0.13737
1560.35,0.14114
1554.57,0.13952
1548.78,0.13620
1543,0.13086
1537.21,0.12090
1531.42,0.10820
1525.64,0.09184
1519.85,0.07143
1514.07,0.05918
1508.28,0.05760
1502.49,0.05969
1496.71,0.06178
1490.92,0.06028
1485.13,0.05558
1479.35,0.05063
1473.56,0.04612
1467.78,0.04228
1461.99,0.04028
1456.2,0.03895
1450.42,0.03865
1444.63,0.03831
1438.84,0.03669
1433.06,0.03531
1427.27,0.03554
1421.49,0.03752
1415.7,0.03974
1409.91,0.04040
1404.13,0.04103
1398.34,0.04130
1392.55,0.04096
1386.77,0.03973
1380.98,0.03762
1375.2,0.03678
1369.41,0.03752
1363.62,0.03904
1357.84,0.04002
1352.05,0.04113
1346.26,0.04117
1340.48,0.04077
1334.69,0.04108
1328.91,0.04211
1323.12,0.04122
1317.33,0.04131
1311.55,0.04305
1305.76,0.04563
1299.97,0.04687
1294.19,0.04662
1288.4,0.04427
1282.62,0.04180
1276.83,0.04156
1271.04,0.04142
1265.26,0.04168
1259.47,0.04237
1253.68,0.04333
1247.9,0.04376
1242.11,0.04374
1236.33,0.04260
1230.54,0.04282
1224.75,0.04396
1218.97,0.04430
1213.18,0.04331
1207.39,0.04199
1201.61,0.04271
1195.82,0.04317
1190.04,0.04110
1184.25,0.03694
1178.46,0.03311
1172.68,0.02950
1166.89,0.03026
1161.1,0.03253
1155.32,0.03305
1149.53,0.03307
1143.75,0.03146
1137.96,0.03023
1132.17,0.02908
1126.39,0.02852
1120.6,0.02929
1114.81,0.02979
1109.03,0.03161
1103.24,0.03157
1097.46,0.03068
1091.67,0.03134
1085.88,0.03077
1080.1,0.03104
1074.31,0.03334
1068.52,0.03539
1062.74,0.04021
1056.95,0.04303
1051.17,0.04368
1045.38,0.04207
1039.59,0.04330
1033.81,0.04656
1028.02,0.04809
1022.24,0.04951
1016.45,0.05022
1010.66,0.05229
1004.88,0.05405
999.09,0.05702
993.304,0.06005
987.518,0.06289
981.731,0.07079
975.945,0.07705
970.159,0.08076
964.373,0.08597
958.586,0.09205
952.8,0.09817
947.014,0.10184
941.228,0.10385
935.441,0.10552
929.655,0.10751
923.869,0.10693
918.083,0.10305
912.297,0.09794
906.51,0.09475
900.724,0.09069
894.938,0.09268
889.152,0.10001
883.365,0.10388
877.579,0.10363
871.793,0.10641
866.007,0.11312
860.22,0.11488
854.434,0.11496
848.648,0.11933
842.862,0.12018
837.075,0.11835
831.289,0.11358
825.503,0.10889
819.717,0.10275
813.931,0.09897
808.144,0.09612
802.358,0.09561
796.572,0.09635
790.786,0.09537
784.999,0.09393
779.213,0.09175
773.427,0.08934
767.641,0.08619
761.854,0.08279
756.068,0.08056
750.282,0.07839
744.496,0.07666
738.709,0.07364
732.923,0.06932
727.137,0.06527
721.351,0.06251
715.565,0.05860
709.778,0.05795
703.992,0.05546
698.206,0.05497
692.42,0.05416
686.633,0.05299
680.847,0.05089
675.061,0.04834
669.275,0.04665
663.488,0.04832
657.702,0.04958
651.916,0.04966
646.13,0.04739
640.343,0.04660
634.557,0.04360
628.771,0.04507
622.985,0.04482
617.198,0.04387
611.412,0.04324
605.626,0.04622
599.84,0.04751