File: 01_Data/Cellulose_Insulation/FTIR/IS/Cellulose_Insulation_IS_S_220913_R5.dpt
7497.03,0.52589
7491.25,0.52347
7485.46,0.52104
7479.67,0.51587
7473.89,0.51842
7468.1,0.52378
7462.32,0.53687
7456.53,0.52960
7450.74,0.52139
7444.96,0.51553
7439.17,0.51929
7433.38,0.52789
7427.6,0.52785
7421.81,0.51883
7416.03,0.51962
7410.24,0.52095
7404.45,0.51932
7398.67,0.52428
7392.88,0.51366
7387.09,0.51330
7381.31,0.51883
7375.52,0.52159
7369.74,0.51989
7363.95,0.52216
7358.16,0.51832
7352.38,0.52456
7346.59,0.52354
7340.8,0.52082
7335.02,0.52255
7329.23,0.52332
7323.45,0.52106
7317.66,0.52029
7311.87,0.51613
7306.09,0.52024
7300.3,0.51694
7294.51,0.51087
7288.73,0.51378
7282.94,0.51708
7277.16,0.52381
7271.37,0.52236
7265.58,0.52134
7259.8,0.52561
7254.01,0.52082
7248.22,0.51468
7242.44,0.51115
7236.65,0.51738
7230.87,0.51720
7225.08,0.51567
7219.29,0.51738
7213.51,0.51731
7207.72,0.52417
7201.93,0.53053
7196.15,0.51525
7190.36,0.51375
7184.58,0.51542
7178.79,0.51764
7173,0.51989
7167.22,0.51487
7161.43,0.51606
7155.65,0.52511
7149.86,0.51552
7144.07,0.51542
7138.29,0.52149
7132.5,0.51464
7126.71,0.51464
7120.93,0.51756
7115.14,0.51834
7109.36,0.51185
7103.57,0.50790
7097.78,0.51107
7092,0.51525
7086.21,0.50793
7080.42,0.50885
7074.64,0.50575
7068.85,0.50245
7063.07,0.50039
7057.28,0.50372
7051.49,0.50211
7045.71,0.50103
7039.92,0.50134
7034.13,0.50188
7028.35,0.50050
7022.56,0.49875
7016.78,0.49446
7010.99,0.49243
7005.2,0.49351
6999.42,0.48875
6993.63,0.49287
6987.84,0.50532
6982.06,0.49266
6976.27,0.48883
6970.49,0.49080
6964.7,0.49606
6958.91,0.49146
6953.13,0.48992
6947.34,0.49310
6941.55,0.49119
6935.77,0.48891
6929.98,0.48420
6924.2,0.48181
6918.41,0.48873
6912.62,0.49525
6906.84,0.49403
6901.05,0.48939
6895.26,0.49152
6889.48,0.49100
6883.69,0.48158
6877.91,0.48748
6872.12,0.48666
6866.33,0.48606
6860.55,0.48138
6854.76,0.48866
6848.97,0.48533
6843.19,0.48970
6837.4,0.48541
6831.62,0.48964
6825.83,0.48704
6820.04,0.48945
6814.26,0.48630
6808.47,0.48795
6802.68,0.48534
6796.9,0.48726
6791.11,0.48857
6785.33,0.48252
6779.54,0.48583
6773.75,0.48288
6767.97,0.48195
6762.18,0.48602
6756.39,0.48728
6750.61,0.48284
6744.82,0.48761
6739.04,0.48937
6733.25,0.48407
6727.46,0.48097
6721.68,0.48155
6715.89,0.48093
6710.1,0.48370
6704.32,0.48648
6698.53,0.49012
6692.75,0.48776
6686.96,0.48093
6681.17,0.48585
6675.39,0.48984
6669.6,0.48950
6663.82,0.48965
6658.03,0.48472
6652.24,0.48606
6646.46,0.48264
6640.67,0.48907
6634.88,0.49079
6629.1,0.48785
6623.31,0.48943
6617.53,0.48892
6611.74,0.49027
6605.95,0.48770
6600.17,0.48943
6594.38,0.48819
6588.59,0.49367
6582.81,0.48753
6577.02,0.49181
6571.24,0.49021
6565.45,0.49018
6559.66,0.49119
6553.88,0.49243
6548.09,0.49147
6542.3,0.49624
6536.52,0.49094
6530.73,0.48790
6524.95,0.49581
6519.16,0.49051
6513.37,0.48347
6507.59,0.48951
6501.8,0.49236
6496.01,0.48873
6490.23,0.48899
6484.44,0.48438
6478.66,0.48842
6472.87,0.49296
6467.08,0.48658
6461.3,0.48920
6455.51,0.48961
6449.72,0.49007
6443.94,0.49027
6438.15,0.48826
6432.37,0.48913
6426.58,0.49563
6420.79,0.48792
6415.01,0.49156
6409.22,0.49487
6403.43,0.49017
6397.65,0.48906
6391.86,0.49306
6386.08,0.49264
6380.29,0.49171
6374.5,0.49095
6368.72,0.48967
6362.93,0.49228
6357.14,0.49077
6351.36,0.49018
6345.57,0.49320
6339.79,0.49185
6334,0.49614
6328.21,0.49521
6322.43,0.49287
6316.64,0.49213
6310.85,0.49425
6305.07,0.49063
6299.28,0.49351
6293.5,0.49423
6287.71,0.49147
6281.92,0.49569
6276.14,0.49886
6270.35,0.49501
6264.56,0.49635
6258.78,0.49997
6252.99,0.49677
6247.21,0.49838
6241.42,0.49685
6235.63,0.49818
6229.85,0.50382
6224.06,0.49911
6218.27,0.50462
6212.49,0.50209
6206.7,0.49995
6200.92,0.50483
6195.13,0.50408
6189.34,0.50583
6183.56,0.50467
6177.77,0.50516
6171.98,0.50457
6166.2,0.50876
6160.41,0.50703
6154.63,0.50779
6148.84,0.50955
6143.05,0.50651
6137.27,0.50770
6131.48,0.51049
6125.7,0.50908
6119.91,0.50782
6114.12,0.50799
6108.34,0.51268
6102.55,0.51113
6096.76,0.51269
6090.98,0.51089
6085.19,0.51049
6079.41,0.51169
6073.62,0.51128
6067.83,0.51111
6062.05,0.51346
6056.26,0.51040
6050.47,0.51148
6044.69,0.51064
6038.9,0.51391
6033.12,0.51170
6027.33,0.51323
6021.54,0.51439
6015.76,0.51194
6009.97,0.51088
6004.18,0.51380
5998.4,0.51115
5992.61,0.51208
5986.83,0.51453
5981.04,0.51496
5975.25,0.51399
5969.47,0.51353
5963.68,0.51304
5957.89,0.51251
5952.11,0.51235
5946.32,0.51122
5940.54,0.51698
5934.75,0.51604
5928.96,0.51395
5923.18,0.51161
5917.39,0.51276
5911.6,0.51072
5905.82,0.51309
5900.03,0.51097
5894.25,0.51015
5888.46,0.51189
5882.67,0.50908
5876.89,0.51082
5871.1,0.51228
5865.31,0.51124
5859.53,0.51270
5853.74,0.50880
5847.96,0.51083
5842.17,0.50961
5836.38,0.51208
5830.6,0.51000
5824.81,0.51182
5819.02,0.51059
5813.24,0.50950
5807.45,0.51073
5801.67,0.51108
5795.88,0.51136
5790.09,0.50881
5784.31,0.50826
5778.52,0.51324
5772.73,0.50977
5766.95,0.50916
5761.16,0.50981
5755.38,0.50871
5749.59,0.51226
5743.8,0.51083
5738.02,0.51095
5732.23,0.51053
5726.44,0.51267
5720.66,0.51129
5714.87,0.51005
5709.09,0.51100
5703.3,0.51087
5697.51,0.51242
5691.73,0.50971
5685.94,0.51174
5680.15,0.51054
5674.37,0.51299
5668.58,0.51137
5662.8,0.51177
5657.01,0.51052
5651.22,0.51093
5645.44,0.51153
5639.65,0.51156
5633.87,0.50843
5628.08,0.51076
5622.29,0.51161
5616.51,0.51114
5610.72,0.50925
5604.93,0.51383
5599.15,0.51006
5593.36,0.51037
5587.58,0.51139
5581.79,0.51240
5576,0.51459
5570.22,0.51250
5564.43,0.51075
5558.64,0.51261
5552.86,0.51083
5547.07,0.51234
5541.29,0.51405
5535.5,0.51130
5529.71,0.51363
5523.93,0.51176
5518.14,0.51273
5512.35,0.51368
5506.57,0.51432
5500.78,0.51236
5495,0.51433
5489.21,0.51476
5483.42,0.51384
5477.64,0.51554
5471.85,0.51566
5466.06,0.51393
5460.28,0.51471
5454.49,0.51589
5448.71,0.51581
5442.92,0.51537
5437.13,0.51650
5431.35,0.51768
5425.56,0.51628
5419.77,0.51622
5413.99,0.51906
5408.2,0.51996
5402.42,0.51817
5396.63,0.51924
5390.84,0.51805
5385.06,0.51819
5379.27,0.51909
5373.48,0.51729
5367.7,0.51950
5361.91,0.51862
5356.13,0.52076
5350.34,0.51857
5344.55,0.51863
5338.77,0.51859
5332.98,0.51881
5327.19,0.51906
5321.41,0.51705
5315.62,0.51684
5309.84,0.51563
5304.05,0.51534
5298.26,0.51375
5292.48,0.51073
5286.69,0.50865
5280.9,0.50683
5275.12,0.50390
5269.33,0.50093
5263.55,0.49767
5257.76,0.49536
5251.97,0.49170
5246.19,0.48730
5240.4,0.48426
5234.61,0.48171
5228.83,0.47948
5223.04,0.47741
5217.26,0.47417
5211.47,0.47431
5205.68,0.47359
5199.9,0.47418
5194.11,0.47393
5188.32,0.47403
5182.54,0.47321
5176.75,0.47442
5170.97,0.47479
5165.18,0.47273
5159.39,0.47459
5153.61,0.47590
5147.82,0.47775
5142.03,0.47847
5136.25,0.47882
5130.46,0.48199
5124.68,0.48297
5118.89,0.48317
5113.1,0.48406
5107.32,0.48499
5101.53,0.48573
5095.75,0.48778
5089.96,0.48720
5084.17,0.48773
5078.39,0.48665
5072.6,0.48849
5066.81,0.48822
5061.03,0.48977
5055.24,0.48936
5049.46,0.48760
5043.67,0.48895
5037.88,0.48738
5032.1,0.48694
5026.31,0.48865
5020.52,0.48812
5014.74,0.48421
5008.95,0.48471
5003.17,0.48438
4997.38,0.48190
4991.59,0.47999
4985.81,0.47860
4980.02,0.47769
4974.23,0.47487
4968.45,0.47427
4962.66,0.47180
4956.88,0.46952
4951.09,0.46859
4945.3,0.46578
4939.52,0.46340
4933.73,0.46033
4927.94,0.45724
4922.16,0.45619
4916.37,0.45349
4910.59,0.44947
4904.8,0.44813
4899.01,0.44679
4893.23,0.44337
4887.44,0.43989
4881.65,0.43569
4875.87,0.43430
4870.08,0.43298
4864.3,0.42910
4858.51,0.42697
4852.72,0.42621
4846.94,0.42375
4841.15,0.42013
4835.36,0.41823
4829.58,0.41622
4823.79,0.41415
4818.01,0.41309
4812.22,0.40925
4806.43,0.40803
4800.65,0.40686
4794.86,0.40676
4789.07,0.40566
4783.29,0.40325
4777.5,0.40231
4771.72,0.40201
4765.93,0.39959
4760.14,0.39878
4754.36,0.39872
4748.57,0.39819
4742.78,0.39761
4737,0.39764
4731.21,0.39793
4725.43,0.39707
4719.64,0.39778
4713.85,0.39823
4708.07,0.39778
4702.28,0.39827
4696.49,0.39953
4690.71,0.40042
4684.92,0.40081
4679.14,0.40196
4673.35,0.40262
4667.56,0.40355
4661.78,0.40397
4655.99,0.40409
4650.2,0.40547
4644.42,0.40577
4638.63,0.40785
4632.85,0.40972
4627.06,0.41119
4621.27,0.41225
4615.49,0.41387
4609.7,0.41500
4603.92,0.41792
4598.13,0.41922
4592.34,0.42155
4586.56,0.42212
4580.77,0.42352
4574.98,0.42416
4569.2,0.42657
4563.41,0.42877
4557.63,0.42895
4551.84,0.43111
4546.05,0.43187
4540.27,0.43330
4534.48,0.43383
4528.69,0.43464
4522.91,0.43476
4517.12,0.43791
4511.34,0.43926
4505.55,0.44004
4499.76,0.43994
4493.98,0.44048
4488.19,0.43989
4482.4,0.43936
4476.62,0.43759
4470.83,0.43596
4465.05,0.43414
4459.26,0.43176
4453.47,0.42871
4447.69,0.42680
4441.9,0.42249
4436.11,0.41945
4430.33,0.41645
4424.54,0.41211
4418.76,0.40709
4412.97,0.40258
4407.18,0.39997
4401.4,0.39742
4395.61,0.39617
4389.82,0.39789
4384.04,0.39998
4378.25,0.40105
4372.47,0.40364
4366.68,0.40518
4360.89,0.40704
4355.11,0.40574
4349.32,0.40579
4343.53,0.40498
4337.75,0.40241
4331.96,0.40156
4326.18,0.39939
4320.39,0.39793
4314.6,0.39632
4308.82,0.39480
4303.03,0.39283
4297.24,0.39157
4291.46,0.39055
4285.67,0.38887
4279.89,0.38853
4274.1,0.38881
4268.31,0.38955
4262.53,0.38973
4256.74,0.39211
4250.95,0.39210
4245.17,0.39255
4239.38,0.39389
4233.6,0.39421
4227.81,0.39549
4222.02,0.39552
4216.24,0.39599
4210.45,0.39628
4204.66,0.39591
4198.88,0.39737
4193.09,0.39790
4187.31,0.39833
4181.52,0.39922
4175.73,0.40023
4169.95,0.40134
4164.16,0.40210
4158.37,0.40318
4152.59,0.40162
4146.8,0.39992
4141.02,0.39864
4135.23,0.39769
4129.44,0.39515
4123.66,0.39319
4117.87,0.39017
4112.09,0.38602
4106.3,0.38342
4100.51,0.38015
4094.73,0.37514
4088.94,0.37088
4083.15,0.36638
4077.37,0.36210
4071.58,0.35682
4065.8,0.35322
4060.01,0.34806
4054.22,0.34307
4048.44,0.33818
4042.65,0.33434
4036.86,0.33001
4031.08,0.32761
4025.29,0.32493
4019.51,0.32427
4013.72,0.32385
4007.93,0.32506
4002.15,0.32575
3996.36,0.32757
3990.57,0.32865
3984.79,0.33070
3979,0.33225
3973.22,0.33417
3967.43,0.33544
3961.64,0.33800
3955.86,0.34015
3950.07,0.34168
3944.28,0.34483
3938.5,0.34643
3932.71,0.34962
3926.93,0.35195
3921.14,0.35399
3915.35,0.35621
3909.57,0.35743
3903.78,0.35981
3897.99,0.36138
3892.21,0.36270
3886.42,0.36543
3880.64,0.36616
3874.85,0.36751
3869.06,0.36947
3863.28,0.37240
3857.49,0.37424
3851.7,0.37642
3845.92,0.37823
3840.13,0.38025
3834.35,0.38101
3828.56,0.38141
3822.77,0.38111
3816.99,0.38120
3811.2,0.38066
3805.41,0.38018
3799.63,0.38004
3793.84,0.37999
3788.06,0.37944
3782.27,0.37851
3776.48,0.37760
3770.7,0.37609
3764.91,0.37366
3759.12,0.37182
3753.34,0.37015
3747.55,0.36621
3741.77,0.36151
3735.98,0.35782
3730.19,0.35131
3724.41,0.34404
3718.62,0.33217
3712.83,0.31685
3707.05,0.29508
3701.26,0.26558
3695.48,0.24230
3689.69,0.24326
3683.9,0.24891
3678.12,0.24475
3672.33,0.22771
3666.54,0.21227
3660.76,0.19989
3654.97,0.18316
3649.19,0.17240
3643.4,0.16475
3637.61,0.15534
3631.83,0.14414
3626.04,0.12885
3620.25,0.11498
3614.47,0.11346
3608.68,0.10849
3602.9,0.09988
3597.11,0.09332
3591.32,0.08769
3585.54,0.08196
3579.75,0.07643
3573.97,0.07151
3568.18,0.06778
3562.39,0.06326
3556.61,0.06041
3550.82,0.05721
3545.03,0.05474
3539.25,0.05258
3533.46,0.05046
3527.68,0.04844
3521.89,0.04652
3516.1,0.04521
3510.32,0.04360
3504.53,0.04214
3498.74,0.04106
3492.96,0.03940
3487.17,0.03931
3481.39,0.03782
3475.6,0.03673
3469.81,0.03585
3464.03,0.03514
3458.24,0.03462
3452.45,0.03465
3446.67,0.03405
3440.88,0.03424
3435.1,0.03337
3429.31,0.03299
3423.52,0.03312
3417.74,0.03362
3411.95,0.03300
3406.16,0.03217
3400.38,0.03262
3394.59,0.03199
3388.81,0.03228
3383.02,0.03249
3377.23,0.03251
3371.45,0.03224
3365.66,0.03307
3359.87,0.03294
3354.09,0.03333
3348.3,0.03239
3342.52,0.03257
3336.73,0.03384
3330.94,0.03461
3325.16,0.03582
3319.37,0.03590
3313.58,0.03677
3307.8,0.03659
3302.01,0.03683
3296.23,0.03873
3290.44,0.03847
3284.65,0.03979
3278.87,0.04057
3273.08,0.04156
3267.29,0.04242
3261.51,0.04390
3255.72,0.04550
3249.94,0.04730
3244.15,0.04861
3238.36,0.05047
3232.58,0.05089
3226.79,0.05321
3221,0.05486
3215.22,0.05676
3209.43,0.05853
3203.65,0.06022
3197.86,0.06179
3192.07,0.06395
3186.29,0.06509
3180.5,0.06745
3174.71,0.06938
3168.93,0.07152
3163.14,0.07386
3157.36,0.07518
3151.57,0.07749
3145.78,0.07948
3140,0.08061
3134.21,0.08369
3128.42,0.08557
3122.64,0.08731
3116.85,0.08927
3111.07,0.09109
3105.28,0.09289
3099.49,0.09494
3093.71,0.09721
3087.92,0.09858
3082.14,0.10039
3076.35,0.10144
3070.56,0.10316
3064.78,0.10497
3058.99,0.10660
3053.2,0.10846
3047.42,0.10993
3041.63,0.11165
3035.85,0.11305
3030.06,0.11348
3024.27,0.11402
3018.49,0.11368
3012.7,0.11338
3006.91,0.11161
3001.13,0.10949
2995.34,0.10862
2989.56,0.10575
2983.77,0.10044
2977.98,0.09323
2972.2,0.08466
2966.41,0.07805
2960.62,0.07550
2954.84,0.07224
2949.05,0.06855
2943.27,0.06495
2937.48,0.06326
2931.69,0.06215
2925.91,0.06141
2920.12,0.06014
2914.33,0.05940
2908.55,0.05891
2902.76,0.05928
2896.98,0.06017
2891.19,0.06200
2885.4,0.06418
2879.62,0.06552
2873.83,0.06627
2868.04,0.06849
2862.26,0.07087
2856.47,0.07359
2850.69,0.07827
2844.9,0.08316
2839.11,0.08918
2833.33,0.09591
2827.54,0.10263
2821.75,0.10909
2815.97,0.11471
2810.18,0.12002
2804.4,0.12465
2798.61,0.12817
2792.82,0.13203
2787.04,0.13426
2781.25,0.13575
2775.46,0.13763
2769.68,0.13927
2763.89,0.14080
2758.11,0.14182
2752.32,0.14333
2746.53,0.14410
2740.75,0.14411
2734.96,0.14523
2729.17,0.14729
2723.39,0.14904
2717.6,0.15111
2711.82,0.15369
2706.03,0.15655
2700.24,0.15949
2694.46,0.16269
2688.67,0.16548
2682.88,0.16844
2677.1,0.17140
2671.31,0.17314
2665.53,0.17517
2659.74,0.17652
2653.95,0.17866
2648.17,0.18060
2642.38,0.18253
2636.59,0.18457
2630.81,0.18686
2625.02,0.18865
2619.24,0.19111
2613.45,0.19309
2607.66,0.19437
2601.88,0.19586
2596.09,0.19811
2590.3,0.19987
2584.52,0.20089
2578.73,0.20203
2572.95,0.20293
2567.16,0.20343
2561.37,0.20336
2555.59,0.20393
2549.8,0.20402
2544.02,0.20389
2538.23,0.20439
2532.44,0.20506
2526.66,0.20614
2520.87,0.20748
2515.08,0.20846
2509.3,0.21124
2503.51,0.21481
2497.73,0.21896
2491.94,0.22286
2486.15,0.22610
2480.37,0.22892
2474.58,0.23112
2468.79,0.23444
2463.01,0.23604
2457.22,0.23726
2451.44,0.24024
2445.65,0.24232
2439.86,0.24507
2434.08,0.24763
2428.29,0.25063
2422.5,0.25344
2416.72,0.25627
2410.93,0.25883
2405.15,0.26146
2399.36,0.26319
2393.57,0.26537
2387.79,0.26756
2382,0.26929
2376.21,0.27104
2370.43,0.27291
2364.64,0.27376
2358.86,0.27474
2353.07,0.27598
2347.28,0.27777
2341.5,0.27950
2335.71,0.28045
2329.92,0.28135
2324.14,0.28213
2318.35,0.28248
2312.57,0.28234
2306.78,0.28178
2300.99,0.28095
2295.21,0.27973
2289.42,0.27879
2283.63,0.27812
2277.85,0.27665
2272.06,0.27401
2266.28,0.27164
2260.49,0.26885
2254.7,0.26751
2248.92,0.26752
2243.13,0.26735
2237.34,0.26708
2231.56,0.26649
2225.77,0.26657
2219.99,0.26696
2214.2,0.26793
2208.41,0.26764
2202.63,0.26692
2196.84,0.26615
2191.05,0.26435
2185.27,0.26108
2179.48,0.25867
2173.7,0.25466
2167.91,0.25161
2162.12,0.24883
2156.34,0.24672
2150.55,0.24544
2144.76,0.24333
2138.98,0.24203
2133.19,0.24142
2127.41,0.24251
2121.62,0.24312
2115.83,0.24386
2110.05,0.24504
2104.26,0.24583
2098.47,0.24700
2092.69,0.24722
2086.9,0.24752
2081.12,0.24725
2075.33,0.24604
2069.54,0.24434
2063.76,0.24319
2057.97,0.24218
2052.19,0.24194
2046.4,0.24277
2040.61,0.24407
2034.83,0.24663
2029.04,0.25003
2023.25,0.25355
2017.47,0.25791
2011.68,0.26077
2005.9,0.26296
2000.11,0.26414
1994.32,0.26673
1988.54,0.26893
1982.75,0.27095
1976.96,0.27240
1971.18,0.27315
1965.39,0.27417
1959.61,0.27544
1953.82,0.27721
1948.03,0.27929
1942.25,0.28169
1936.46,0.28338
1930.67,0.28511
1924.89,0.28603
1919.1,0.28664
1913.32,0.28750
1907.53,0.28744
1901.74,0.28688
1895.96,0.28637
1890.17,0.28576
1884.38,0.28434
1878.6,0.28388
1872.81,0.28205
1867.03,0.28112
1861.24,0.27924
1855.45,0.27748
1849.67,0.27500
1843.88,0.27273
1838.09,0.27003
1832.31,0.26743
1826.52,0.26413
1820.74,0.26084
1814.95,0.25734
1809.16,0.25335
1803.38,0.24640
1797.59,0.23759
1791.8,0.23276
1786.02,0.22848
1780.23,0.22029
1774.45,0.20896
1768.66,0.19157
1762.87,0.17070
1757.09,0.14921
1751.3,0.13136
1745.51,0.12127
1739.73,0.11595
1733.94,0.11548
1728.16,0.11785
1722.37,0.12258
1716.58,0.12960
1710.8,0.13750
1705.01,0.14289
1699.22,0.14580
1693.44,0.14283
1687.65,0.13843
1681.87,0.12930
1676.08,0.11974
1670.29,0.10995
1664.51,0.10343
1658.72,0.10108
1652.93,0.10169
1647.15,0.10188
1641.36,0.10119
1635.58,0.10086
1629.79,0.10199
1624,0.10164
1618.22,0.10056
1612.43,0.09689
1606.64,0.09371
1600.86,0.09374
1595.07,0.09445
1589.29,0.09674
1583.5,0.10417
1577.71,0.11634
1571.93,0.12999
1566.14,0.13849
1560.35,0.14218
1554.57,0.14109
1548.78,0.13717
1543,0.13161
1537.21,0.12163
1531.42,0.10871
1525.64,0.09205
1519.85,0.07129
1514.07,0.05952
1508.28,0.05759
1502.49,0.05981
1496.71,0.06189
1490.92,0.06046
1485.13,0.05537
1479.35,0.05084
1473.56,0.04596
1467.78,0.04217
1461.99,0.04020
1456.2,0.03959
1450.42,0.03855
1444.63,0.03810
1438.84,0.03706
1433.06,0.03503
1427.27,0.03552
1421.49,0.03693
1415.7,0.03925
1409.91,0.04064
1404.13,0.04097
1398.34,0.04112
1392.55,0.04073
1386.77,0.03908
1380.98,0.03771
1375.2,0.03719
1369.41,0.03747
1363.62,0.03871
1357.84,0.03983
1352.05,0.04122
1346.26,0.04141
1340.48,0.04072
1334.69,0.04095
1328.91,0.04162
1323.12,0.04139
1317.33,0.04153
1311.55,0.04329
1305.76,0.04571
1299.97,0.04702
1294.19,0.04651
1288.4,0.04383
1282.62,0.04183
1276.83,0.04155
1271.04,0.04105
1265.26,0.04132
1259.47,0.04240
1253.68,0.04332
1247.9,0.04377
1242.11,0.04360
1236.33,0.04319
1230.54,0.04337
1224.75,0.04396
1218.97,0.04433
1213.18,0.04330
1207.39,0.04199
1201.61,0.04281
1195.82,0.04280
1190.04,0.04096
1184.25,0.03695
1178.46,0.03286
1172.68,0.02977
1166.89,0.03088
1161.1,0.03252
1155.32,0.03343
1149.53,0.03268
1143.75,0.03169
1137.96,0.03052
1132.17,0.02913
1126.39,0.02754
1120.6,0.02872
1114.81,0.02912
1109.03,0.03089
1103.24,0.03161
1097.46,0.03150
1091.67,0.03104
1085.88,0.03047
1080.1,0.03169
1074.31,0.03347
1068.52,0.03504
1062.74,0.04018
1056.95,0.04325
1051.17,0.04315
1045.38,0.04224
1039.59,0.04380
1033.81,0.04596
1028.02,0.04849
1022.24,0.04870
1016.45,0.04939
1010.66,0.05210
1004.88,0.05389
999.09,0.05657
993.304,0.06001
987.518,0.06345
981.731,0.07099
975.945,0.07652
970.159,0.08001
964.373,0.08508
958.586,0.09144
952.8,0.09811
947.014,0.10225
941.228,0.10356
935.441,0.10551
929.655,0.10713
923.869,0.10650
918.083,0.10383
912.297,0.09886
906.51,0.09591
900.724,0.09142
894.938,0.09252
889.152,0.10079
883.365,0.10452
877.579,0.10425
871.793,0.10808
866.007,0.11419
860.22,0.11544
854.434,0.11626
848.648,0.12007
842.862,0.12130
837.075,0.11916
831.289,0.11497
825.503,0.11081
819.717,0.10465
813.931,0.10010
808.144,0.09811
802.358,0.09782
796.572,0.09826
790.786,0.09673
784.999,0.09488
779.213,0.09404
773.427,0.09079
767.641,0.08732
761.854,0.08496
756.068,0.08277
750.282,0.07879
744.496,0.07709
738.709,0.07472
732.923,0.07049
727.137,0.06525
721.351,0.06314
715.565,0.05998
709.778,0.05728
703.992,0.05672
698.206,0.05448
692.42,0.05507
686.633,0.05240
680.847,0.05037
675.061,0.04838
669.275,0.04768
663.488,0.04783
657.702,0.04846
651.916,0.04905
646.13,0.04851
640.343,0.04787
634.557,0.04542
628.771,0.04323
622.985,0.04487
617.198,0.04330
611.412,0.04525
605.626,0.04583
599.84,0.04597