File: 01_Data/Particleboard/Cone/Particleboard_Cone_HF50Scan_230705_R3.csv
Names,Time,Stack TC,Smoke TC,Exh Press,Smoke Comp,Smoke Meas,CO Meter,CO2 Meter,O2 Meter,Sample Mass,Ext Coeff,Start Test,Flame Verif
Chan Gain,,500,500,1,1,1,1,1,1,1,1,1.0,1.0
Offset,,0,0,0.138104,0,0,0,0,0,0,0,0.0,0.0
Gain,,1,1,25.011,12.9522,294.665,1,1,1,1.00088,0.812795,1.0,1.0
Units,sec,C,C,Pa,%,%,%,%,%,g,/m,,
Baseline,,53.3247,56.1287,166.757,100.338,110.431,0.000221205,0.0427077,20.9286,-446.753,-0.682794,,
13,3,52.0985,53.7756,170.261,100.952,111.569,0.000200554,0.0429618,20.9305,206.271,-0.713001,0.0,0.0
26,6.25,52.5105,54.3393,160.127,100.978,112.541,5.72505e-05,0.045743,20.9296,206.281,-0.772925,0.0,0.0
39,9.5,52.4415,55.0232,162.691,100.972,115.391,0.00043698,0.0474745,20.927,206.101,-0.951717,0.0,0.0
52,12.75,52.6369,55.6448,171.019,100.984,111.12,0.000841652,0.0468396,20.9257,206.001,-0.681921,0.0,0.0
65,16,52.6887,55.8561,170.879,100.992,109.744,0.000692384,0.0472539,20.927,206.011,-0.592561,0.0,0.0
78,19.25,52.875,55.6607,165.398,100.955,109.6,0.000496929,0.0487411,20.9264,205.841,-0.585803,0.0,0.0
91,22.5,53.0744,55.8249,165.663,100.946,109.222,0.000545877,0.0479961,20.9256,205.791,-0.561834,0.0,0.0
104,25.75,53.1072,56.052,162.245,100.922,108.701,0.000388319,0.0461437,20.9265,205.71,-0.529381,0.0,0.0
117,29,53.4291,56.001,166.217,100.908,110.239,0.000320967,0.0449279,20.9291,205.56,-0.630567,0.0,0.0
130,32.25,53.1925,56.1265,163.382,100.886,104.663,0.000310731,0.0447114,20.9295,205.46,-0.262048,0.0,0.0
143,35.5,53.8133,57.3612,159.811,100.865,113.854,0.000272006,0.0453139,20.9292,205.38,-0.863634,0.0,1.0
156,38.75,53.906,59.123,153.503,100.819,117.72,0.000503891,0.0466679,20.9289,205,-1.10503,0.0,0.0
169,42,56.6324,63.5316,149.803,100.812,121.012,0.000623029,0.0564726,20.9273,204.6,-1.30208,0.0,0.0
182,45.25,58.6432,68.49,145.711,100.772,119.573,0.000999228,0.104851,20.9131,204.149,-1.21968,0.0,0.0
195,48.5,61.1306,73.5322,141.387,100.738,122.28,0.00156724,0.189135,20.837,203.499,-1.38168,0.0,0.0
208,51.75,63.3628,78.7461,144.732,100.699,121.362,0.00201022,0.285508,20.7444,203.008,-1.33074,0.0,0.0
221,55,66.031,82.5094,142.361,100.657,120.976,0.0025093,0.374278,20.6236,202.388,-1.31092,0.0,0.0
234,58.25,68.8021,86.1806,143.94,100.595,115.823,0.0029497,0.447434,20.5174,201.717,-1.00499,0.0,0.0
247,61.5,71.465,89.8654,143.309,100.547,120.742,0.00342575,0.496705,20.4281,201.106,-1.30494,0.0,0.0
260,64.75,73.6199,93.3054,145.111,100.482,118.467,0.00387343,0.531362,20.3712,200.456,-1.17392,0.0,0.0
273,68,76.047,95.9798,140.906,100.4,117.343,0.00448526,0.55437,20.3299,199.685,-1.11181,0.0,0.0
286,71.25,77.8943,98.6421,143.029,100.348,117.774,0.00520619,0.580907,20.3026,199.075,-1.14166,0.0,0.0
299,74.5,79.5765,100.513,138.064,100.272,114.762,0.00592583,0.60381,20.2671,198.414,-0.96229,0.0,0.0
312,77.75,81.3079,101.616,142.066,100.183,116.084,0.00600506,0.61069,20.2462,197.673,-1.05033,0.0,0.0
325,81,82.347,102.52,139.954,100.142,113.683,0.00599218,0.612155,20.2367,197.093,-0.904185,0.0,0.0
338,84.25,83.914,102.998,147.3,100.065,111.749,0.00621252,0.608353,20.2342,196.422,-0.787377,0.0,0.0
351,87.5,84.6475,103.295,147.956,99.9823,112.694,0.00633065,0.597557,20.2399,195.712,-0.853283,0.0,0.0
364,90.75,85.4993,103.705,142.776,99.9302,115.571,0.00640122,0.586222,20.2541,195.171,-1.03677,0.0,0.0
377,94,86.4378,103.886,143.821,99.8622,111.551,0.00649235,0.572799,20.2708,194.541,-0.789235,0.0,0.0
390,97.25,86.3814,103.864,142.591,99.7815,110.625,0.00665591,0.562065,20.2851,193.87,-0.735548,0.0,0.0
403,100.5,87.0527,103.643,146.9,99.7448,111.282,0.00667502,0.551647,20.299,193.3,-0.780358,0.0,0.0
416,103.75,87.6466,103.418,152.811,99.6728,110.382,0.00670463,0.537167,20.3135,192.669,-0.727653,0.0,0.0
429,107,87.8516,102.809,151.785,99.5803,115.949,0.00665092,0.523616,20.3312,192.068,-1.08504,0.0,0.0
442,110.25,87.1091,102.304,146.5,99.525,115.122,0.00644451,0.508323,20.3484,191.648,-1.03795,0.0,0.0
455,113.5,87.5565,101.297,147.963,99.4811,116.983,0.00602819,0.49221,20.3673,191.098,-1.15545,0.0,0.0
468,116.75,87.0757,100.648,154.213,99.4139,114.618,0.00588954,0.471425,20.3857,190.507,-1.01465,0.0,0.0
481,120,87.2532,99.9494,145.321,99.3681,113.107,0.00576517,0.455526,20.4101,190.037,-0.923343,0.0,0.0
494,123.25,87.7446,98.8835,147.071,99.3056,115.436,0.00546138,0.439342,20.4275,189.556,-1.07315,0.0,0.0
507,126.5,86.9859,98.4026,147.991,99.2815,113.791,0.00510944,0.421426,20.4469,188.966,-0.972508,0.0,0.0
520,129.75,86.9516,97.5207,147.851,99.2582,115.823,0.00489145,0.407584,20.468,188.605,-1.1004,0.0,0.0
533,133,86.48,96.6235,148.693,99.2135,114.978,0.00437655,0.394459,20.485,188.125,-1.05138,0.0,0.0
546,136.25,85.9984,95.9306,153.219,99.204,113.503,0.004201,0.382567,20.5023,187.535,-0.96002,0.0,0.0
559,139.5,86.1515,94.7935,152.401,99.21,114.843,0.00424128,0.371867,20.5144,187.204,-1.04327,0.0,0.0
572,142.75,85.4645,94.7089,147.632,99.2076,113.404,0.00418187,0.360553,20.527,186.764,-0.953549,0.0,0.0
585,146,85.4783,94.0239,148.789,99.2029,114.681,0.00388523,0.349402,20.5434,186.243,-1.03372,0.0,0.0
598,149.25,85.2469,93.3295,149.763,99.2531,112.774,0.00369237,0.341026,20.5586,185.923,-0.910596,0.0,0.0
611,152.5,84.8375,92.6642,152.997,99.2977,114.195,0.00357433,0.335269,20.5711,185.513,-0.996653,0.0,0.0
624,155.75,84.7198,91.9992,147.34,99.3159,115.238,0.00350952,0.329602,20.5768,185.082,-1.06018,0.0,0.0
637,159,84.1634,92.0697,149.67,99.3776,115.166,0.00325819,0.322903,20.584,184.752,-1.0513,0.0,0.0
650,162.25,83.8656,90.6503,150.921,99.4594,116.183,0.00311065,0.316886,20.5934,184.332,-1.10807,0.0,0.0
663,165.5,83.6799,90.5783,152.259,99.5274,118.701,0.00316295,0.310732,20.5991,183.831,-1.25606,0.0,0.0
676,168.75,83.0591,90.1561,153.286,99.6183,116.713,0.00297389,0.302949,20.6051,183.571,-1.12917,0.0,0.0
689,172,82.696,90.1365,147.874,99.6807,115.904,0.00275797,0.297726,20.6144,183.181,-1.07509,0.0,0.0
702,175.25,82.4516,89.1847,151.579,99.7365,116.677,0.00295489,0.29436,20.6214,182.75,-1.11852,0.0,0.0
715,178.5,82.1177,88.981,154.506,99.8396,117.594,0.00299989,0.291219,20.6251,182.49,-1.16698,0.0,0.0
728,181.75,81.918,88.3879,154.289,99.9353,115.265,0.00294183,0.287876,20.6284,182.11,-1.01752,0.0,0.0
741,185,81.8703,88.0258,152.726,100.009,117.028,0.00306332,0.286745,20.6329,181.719,-1.12047,0.0,0.0
754,188.25,81.6632,87.8708,149.936,100.079,118.53,0.00319104,0.285849,20.6344,181.349,-1.20637,0.0,0.0
767,191.5,81.648,87.6234,150.421,100.179,117.513,0.00296994,0.28277,20.635,181.039,-1.13786,0.0,0.0
780,194.75,81.2717,87.5893,153.903,100.24,117.846,0.0027678,0.278361,20.6384,180.648,-1.15372,0.0,0.0
793,198,80.9929,87.5144,153.93,100.299,116.461,0.0028106,0.275292,20.6446,180.268,-1.06519,0.0,0.0
806,201.25,80.9649,86.929,152.847,100.353,115.697,0.00280596,0.274239,20.6481,179.978,-1.01443,0.0,0.0
819,204.5,80.6359,86.9923,151.305,100.391,118.035,0.00253872,0.274696,20.6485,179.668,-1.1544,0.0,0.0
832,207.75,80.7802,86.7685,156.393,100.383,118.692,0.00223854,0.271116,20.6487,179.217,-1.19451,0.0,0.0
845,211,80.0757,86.7591,155.456,100.405,116.812,0.00240403,0.267629,20.6516,178.937,-1.07913,0.0,0.0
858,214.25,80.6443,86.5888,157.829,100.424,117.46,0.00248996,0.264703,20.6563,178.587,-1.11717,0.0,0.0
871,217.5,80.1294,86.1681,154.375,100.397,114.816,0.00246732,0.263301,20.659,178.136,-0.956765,0.0,0.0
884,220.75,80.3777,86.1653,154.093,100.421,117.999,0.00244858,0.263187,20.6622,177.856,-1.15004,0.0,0.0
897,224,79.9154,85.9517,158.438,100.405,116.74,0.00237183,0.263321,20.6624,177.606,-1.07471,0.0,0.0
910,227.25,79.6599,85.8545,151.196,100.386,115.086,0.00226175,0.262152,20.6621,177.225,-0.974284,0.0,0.0
923,230.5,79.5122,85.1643,150.872,100.357,114.915,0.00227497,0.262475,20.662,176.915,-0.965741,0.0,0.0
936,233.75,79.0575,85.0332,149.944,100.364,115.778,0.00242168,0.260182,20.6624,176.635,-1.01862,0.0,0.0
949,237,79.5538,85.1761,157.163,100.328,116.857,0.00241478,0.257675,20.6644,176.295,-1.08733,0.0,0.0
962,240.25,78.9607,85.0958,152.903,100.301,118.404,0.00227899,0.254454,20.6688,175.894,-1.18304,0.0,0.0
975,243.5,79.1582,85.4427,155.937,100.28,115.472,0.0023727,0.252575,20.6751,175.684,-1.00576,0.0,0.0
988,246.75,79.0863,85.0207,147.38,100.212,117.9,0.00239371,0.251656,20.6772,175.354,-1.15895,0.0,0.0
1001,250,78.9569,85.223,150.902,100.162,116.83,0.00218632,0.250326,20.6778,174.964,-1.09749,0.0,0.0
1014,253.25,79.0795,84.9978,148.657,100.139,114.789,0.002052,0.249184,20.6797,174.683,-0.973444,0.0,0.0
1027,256.5,79.1159,84.925,152.718,100.09,115.814,0.0019433,0.248448,20.681,174.393,-1.04033,0.0,0.0
1040,259.75,78.6502,84.907,150.126,100.033,116.102,0.00205096,0.248477,20.6829,173.973,-1.06207,0.0,0.0
1053,263,78.6164,84.3331,154.599,99.9902,117.316,0.00200399,0.248443,20.6812,173.602,-1.13931,0.0,0.0
1066,266.25,78.5362,84.2767,152.378,99.9515,119.591,0.00187787,0.245967,20.6805,173.372,-1.27902,0.0,0.0
1079,269.5,78.4384,84.272,150.015,99.9005,116.335,0.00193168,0.244312,20.6826,173.002,-1.08589,0.0,0.0
1092,272.75,78.5446,84.6707,152.329,99.8495,115.418,0.00203713,0.244999,20.6844,172.691,-1.03309,0.0,0.0
1105,276,78.8169,84.0765,154.012,99.7954,116.335,0.00221621,0.246417,20.6823,172.431,-1.0934,0.0,0.0
1118,279.25,78.6247,84.1278,150.035,99.7586,117.54,0.00224898,0.246597,20.6802,172.061,-1.16949,0.0,0.0
1131,282.5,78.6299,84.5365,151.212,99.7282,115.616,0.00219162,0.245068,20.6803,171.781,-1.05397,0.0,0.0
1144,285.75,78.8001,84.0317,150.342,99.6882,114.042,0.00212132,0.243197,20.6834,171.49,-0.959117,0.0,0.0
1157,289,78.4896,84.9842,149.664,99.6641,115.364,0.00199284,0.242628,20.6857,171.16,-1.04301,0.0,0.0
1170,292.25,78.5403,84.4281,151.345,99.7305,115.319,0.00197019,0.242091,20.6867,170.87,-1.03548,0.0,0.0
1183,295.5,78.3392,84.0495,152.317,99.8021,118.521,0.00187945,0.240808,20.6886,170.56,-1.2256,0.0,0.0
1196,298.75,78.1683,84.5006,150.077,99.8187,119.051,0.00164761,0.239132,20.6906,170.189,-1.25626,0.0,0.0
1209,302,78.2087,83.8355,153.904,99.9187,116.785,0.00167725,0.236435,20.692,169.889,-1.1121,0.0,0.0
1222,305.25,77.9111,83.6921,156.232,99.974,113.485,0.00193064,0.236519,20.6953,169.609,-0.903766,0.0,0.0
1235,308.5,77.9238,83.7622,153.848,100.047,117.154,0.00209237,0.235928,20.6962,169.309,-1.12541,0.0,0.0
1248,311.75,78.0098,83.2778,153.842,100.125,119.474,0.00218288,0.235048,20.6971,169.018,-1.2597,0.0,0.0
1261,315,77.9982,83.558,149.828,100.185,117.594,0.00195898,0.234286,20.6985,168.768,-1.14232,0.0,0.0
1274,318.25,77.7432,83.2433,151.527,100.233,118.781,0.00189144,0.232818,20.6985,168.378,-1.21055,0.0,0.0
1287,321.5,77.668,82.8619,160.126,100.31,115.014,0.00191637,0.232562,20.6994,168.097,-0.975275,0.0,0.0
1300,324.75,78.1267,83.3428,152.269,100.353,117.199,0.00193328,0.233069,20.6996,167.847,-1.1064,0.0,0.0
1313,328,77.5542,83.0815,154.232,100.367,117.046,0.00182866,0.23074,20.7001,167.477,-1.09609,0.0,0.0
1326,331.25,77.4701,83.2746,155.362,100.415,116.551,0.00181597,0.228658,20.7011,167.207,-1.0625,0.0,0.0
1339,334.5,77.6869,83.1282,154.129,100.423,115.184,0.00181795,0.228576,20.7025,166.956,-0.977827,0.0,0.0
1352,337.75,77.6716,82.7226,154.511,100.422,117.918,0.00172228,0.228109,20.7038,166.616,-1.14512,0.0,0.0
1365,341,77.5703,82.8853,153.337,100.406,117.639,0.00171658,0.229777,20.7031,166.336,-1.1294,0.0,0.0
1378,344.25,77.5886,83.1085,157.05,100.388,119.905,0.00188599,0.228445,20.7002,166.076,-1.26667,0.0,0.0
1391,347.5,77.7097,82.818,153.023,100.311,115.625,0.00189702,0.226912,20.701,165.685,-1.01297,0.0,0.0
1404,350.75,77.729,82.6014,151.511,100.2,116.488,0.00173221,0.223832,20.7036,165.495,-1.0739,0.0,0.0
1417,354,77.2604,82.4615,155.312,100.098,115.445,0.00144127,0.223116,20.7087,165.245,-1.01703,0.0,0.0
1430,357.25,76.9011,82.4955,153.276,100.035,115.733,0.0013888,0.221941,20.711,164.835,-1.03931,0.0,0.0
1443,360.5,77.1308,82.8512,152.956,100.116,115.409,0.00154295,0.220556,20.7122,164.594,-1.01354,0.0,0.0
1456,363.75,77.1134,82.3267,155.883,100.199,115.787,0.00142552,0.219036,20.7142,164.364,-1.03093,0.0,0.0
1469,367,77.1646,82.6977,153.639,100.263,118.044,0.00124439,0.217808,20.7162,164.064,-1.16399,0.0,0.0
1482,370.25,77.3481,82.6242,152.62,100.35,119.15,0.00136711,0.217548,20.7165,163.854,-1.22433,0.0,0.0
1495,373.5,77.1585,82.3143,154.602,100.44,119.366,0.00133433,0.216568,20.7171,163.553,-1.23086,0.0,0.0
1508,376.75,76.8189,82.3576,155.487,100.528,118.08,0.00126408,0.215196,20.7193,163.233,-1.14738,0.0,0.0
1521,380,76.7269,82.086,159.799,100.617,116.497,0.00122455,0.213189,20.7223,163.023,-1.04487,0.0,0.0
1534,383.25,76.691,81.7067,157.66,100.692,115.157,0.0012565,0.211,20.7249,162.763,-0.957044,0.0,0.0
1547,386.5,76.9114,81.4795,157.038,100.755,117.055,0.00144137,0.208849,20.7273,162.463,-1.06911,0.0,0.0
1560,389.75,76.6486,81.2544,152.333,100.823,116.093,0.00163323,0.207171,20.7298,162.242,-1.00543,0.0,0.0
1573,393,76.323,81.2469,158.14,100.891,115.023,0.00152082,0.207161,20.731,161.992,-0.934595,0.0,0.0
1586,396.25,76.211,80.7075,153.032,100.904,115.625,0.00138269,0.205417,20.7329,161.672,-0.97095,0.0,0.0
1599,399.5,76.5966,80.7689,152.132,100.936,117.684,0.00130524,0.203816,20.7339,161.502,-1.09458,0.0,0.0
1612,402.75,76.0123,81.0052,155.546,100.935,114.771,0.00124972,0.201448,20.7357,161.211,-0.915872,0.0,0.0
1625,406,76.1749,80.5579,154.567,100.899,115.922,0.00136134,0.20094,20.7371,160.921,-0.989617,0.0,0.0
1638,409.25,75.5744,80.9862,154.122,100.851,116.452,0.00155381,0.200252,20.7385,160.731,-1.02553,0.0,0.0
1651,412.5,75.9746,80.8333,157.06,100.817,119.501,0.0016452,0.19811,20.7402,160.451,-1.2122,0.0,0.0
1664,415.75,75.835,80.855,150.975,100.714,118.404,0.00169889,0.197036,20.7411,160.13,-1.15368,0.0,0.0
1677,419,75.4941,80.2525,161.225,100.619,115.769,0.00172025,0.195484,20.7426,159.9,-0.999983,0.0,0.0
1690,422.25,75.8141,80.1183,154.667,100.474,116.56,0.00154177,0.19393,20.7448,159.72,-1.05887,0.0,0.0
1703,425.5,75.3256,79.587,155.858,100.337,115.931,0.00142326,0.191174,20.7458,159.44,-1.02997,0.0,0.0
1716,428.75,74.94,79.8979,154.46,100.202,115.427,0.00139732,0.190605,20.7488,159.23,-1.00852,0.0,0.0
1729,432,75.6897,79.5322,153.703,100.074,114.474,0.00142421,0.190449,20.7496,158.969,-0.958485,0.0,0.0
1742,435.25,74.8678,79.1866,160.27,99.929,114.096,0.00119803,0.189051,20.7503,158.719,-0.945294,0.0,0.0
1755,438.5,74.7246,79.6404,158.043,99.8329,116.344,0.00113911,0.187038,20.7515,158.539,-1.09127,0.0,0.0
1768,441.75,75.1103,79.1345,157.709,99.7408,116.21,0.00137489,0.185948,20.7534,158.279,-1.08958,0.0,0.0
1781,445,75.0278,78.909,157.862,99.6317,116.003,0.00129137,0.184822,20.7564,158.019,-1.08468,0.0,0.0
1794,448.25,74.4933,79.11,160.053,99.5736,117.487,0.00137698,0.184506,20.7583,157.828,-1.17945,0.0,0.0
1807,451.5,74.7532,78.5863,157.307,99.4914,120.724,0.00139092,0.184483,20.759,157.548,-1.37914,0.0,0.0
1820,454.75,74.6708,78.7273,154.675,99.4242,116.56,0.00118222,0.185189,20.7588,157.268,-1.13373,0.0,0.0
1833,458,74.5766,78.7648,155.925,99.374,117.127,0.00129704,0.184214,20.7582,157.108,-1.1719,0.0,0.0
1846,461.25,74.5482,78.4499,153.071,99.3191,115.571,0.00156228,0.181313,20.7592,156.898,-1.08051,0.0,0.0
1859,464.5,74.2103,79.0851,151.896,99.2744,115.436,0.00147332,0.180852,20.7605,156.647,-1.07539,0.0,0.0
1872,467.75,74.4836,78.9869,156.189,99.2416,116.569,0.0012245,0.181126,20.7615,156.457,-1.14739,0.0,0.0
1885,471,74.5149,78.8467,150.763,99.2289,110.472,0.00132907,0.182722,20.7626,156.197,-0.765282,0.0,0.0
1898,474.25,74.396,78.8316,158.063,99.2115,116.03,0.00137112,0.181861,20.7619,155.897,-1.11647,0.0,0.0
1911,477.5,74.0373,78.2582,159.953,99.2017,115.391,0.0012949,0.180654,20.7633,155.707,-1.07784,0.0,0.0
1924,480.75,74.3374,78.4289,159.302,99.1961,114.258,0.00124576,0.180376,20.7654,155.516,-1.00788,0.0,0.0
1937,484,74.3469,78.793,154.918,99.1906,114.348,0.00118967,0.178963,20.7654,155.246,-1.01389,0.0,0.0
1950,487.25,73.8013,78.617,154.269,99.2119,114.15,0.00116452,0.178396,20.7669,155.056,-1.00001,0.0,0.0
1963,490.5,74.0345,78.4918,154.284,99.2329,113.773,0.00129112,0.179265,20.767,154.866,-0.974873,0.0,0.0
1976,493.75,74.3311,78.2054,152.488,99.2736,116.686,0.0015428,0.178361,20.7651,154.586,-1.15223,0.0,0.0
1989,497,73.7369,78.17,157.653,99.355,114.843,0.00157672,0.177765,20.7656,154.375,-1.03285,0.0,0.0
2002,500.25,73.7773,78.1069,154.431,99.4448,114.87,0.00141857,0.178259,20.7659,154.175,-1.02809,0.0,0.0
2015,503.5,73.6519,77.7335,155.725,99.51,114.348,0.00125102,0.177395,20.7659,153.935,-0.990967,0.0,0.0
2028,506.75,73.8184,77.4605,155.356,99.657,116.138,0.00104465,0.175837,20.7676,153.785,-1.09115,0.0,0.0
2041,510,73.8743,77.7971,157.076,99.7997,113.476,0.00112863,0.175868,20.7691,153.535,-0.915642,0.0,0.0
2054,513.25,74.0663,77.6619,158.478,99.8969,115.922,0.00111981,0.176521,20.7691,153.294,-1.06075,0.0,0.0
2067,516.5,73.6219,78.283,156.142,100.016,113.593,0.000886646,0.177202,20.7692,153.144,-0.907526,0.0,0.0
2080,519.75,73.9261,77.9153,157.837,100.129,115.391,0.000873321,0.17728,20.7685,152.834,-1.01147,0.0,0.0
2093,523,73.3768,77.7874,155.552,100.201,115.859,0.00115692,0.177641,20.7684,152.614,-1.03521,0.0,0.0
2106,526.25,73.9172,78.1238,156.309,100.293,112.819,0.00122712,0.177223,20.7683,152.514,-0.839095,0.0,0.0
2119,529.5,73.2373,77.8007,154.58,100.32,115.643,0.0010677,0.177079,20.7688,152.234,-1.01346,0.0,0.0
2132,532.75,73.648,77.6942,152.784,100.359,115.508,0.00108172,0.177814,20.7689,151.923,-1.00233,0.0,0.0
2145,536,73.8749,77.505,155.07,100.395,116.201,0.00119785,0.178136,20.7685,151.813,-1.04242,0.0,0.0
2158,539.25,73.4771,77.3715,157.421,100.393,114.627,0.00137941,0.177983,20.7671,151.523,-0.94531,0.0,0.0
2171,542.5,73.3822,77.2887,157.227,100.391,116.138,0.0015092,0.178567,20.7661,151.293,-1.03886,0.0,0.0
2184,545.75,73.4897,77.5956,153.257,100.428,114.555,0.00133375,0.177755,20.7661,151.113,-0.938364,0.0,0.0
2197,549,73.3412,77.4341,158.816,100.408,114.429,0.00128235,0.177153,20.7671,150.822,-0.931928,0.0,0.0
2210,552.25,73.624,77.3303,153.517,100.394,117.145,0.00157544,0.178612,20.7674,150.602,-1.1002,0.0,0.0
2223,555.5,73.2242,77.7536,158.605,100.377,116.803,0.00157008,0.180752,20.7658,150.502,-1.08055,0.0,0.0
2236,558.75,73.3541,77.4824,157.311,100.355,116.722,0.00167712,0.180214,20.7634,150.272,-1.07718,0.0,0.0
2249,562,73.587,77.5151,157.121,100.314,115.472,0.00192846,0.180632,20.7632,150.042,-1.00331,0.0,0.0
2262,565.25,73.3583,77.494,158.556,100.285,115.274,0.00183588,0.180817,20.7645,149.851,-0.993165,0.0,0.0
2275,568.5,73.7707,77.2354,157.305,100.253,113.314,0.00163387,0.180024,20.7648,149.581,-0.873121,0.0,0.0
2288,571.75,73.2914,77.5337,151.26,100.195,115.104,0.00138163,0.180702,20.7634,149.341,-0.988998,0.0,0.0
2301,575,73.3844,78.0685,159.842,100.164,113.161,0.00133487,0.181346,20.7628,149.221,-0.86988,0.0,0.0
2314,578.25,73.9871,77.7352,155.357,100.136,115.535,0.0013841,0.182792,20.762,148.931,-1.01988,0.0,0.0
2327,581.5,73.1293,77.8748,155.264,100.093,117.415,0.00128549,0.183743,20.7613,148.71,-1.13802,0.0,0.0
2340,584.75,73.8767,78.0998,154.532,100.076,118.674,0.00117549,0.18382,20.7617,148.57,-1.21527,0.0,0.0
2353,588,73.575,78.0784,155.906,100.024,116.174,0.00124509,0.184379,20.7619,148.27,-1.06717,0.0,0.0
2366,591.25,73.0228,78.2473,162.191,100.002,117.208,0.00132013,0.184608,20.761,148.05,-1.13187,0.0,0.0
2379,594.5,73.6881,77.9024,151.885,99.9934,117.442,0.00123034,0.185563,20.7599,147.85,-1.14673,0.0,0.0
2392,597.75,73.3083,77.9481,155.499,99.9582,115.976,0.00130842,0.18581,20.759,147.599,-1.05969,0.0,0.0
2405,601,73.8805,78.0426,156.35,99.94,116.677,0.00157273,0.185806,20.7571,147.339,-1.10398,0.0,0.0
2418,604.25,73.5695,77.876,161.287,99.9179,116.605,0.00166956,0.186691,20.7566,147.169,-1.10116,0.0,0.0
2431,607.5,73.2267,78.09,155.689,99.8602,115.166,0.00163479,0.187577,20.7565,146.879,-1.01676,0.0,0.0
2444,610.75,73.894,78.4447,157.626,99.8381,117.648,0.00136991,0.189143,20.7548,146.689,-1.17036,0.0,0.0
2457,614,73.8035,78.3959,154.801,99.8242,114.663,0.00133587,0.190858,20.7529,146.519,-0.988085,0.0,0.0
2470,617.25,73.7041,77.7943,154.114,99.7428,117.037,0.00137811,0.191909,20.7508,146.188,-1.14001,0.0,0.0
2483,620.5,73.5574,78.1447,155.244,99.7183,118.305,0.00129428,0.190956,20.751,146.018,-1.21859,0.0,0.0
2496,623.75,73.9758,78.0475,155.754,99.7052,115.724,0.00117675,0.190273,20.7519,145.818,-1.06227,0.0,0.0
2509,627,74.0538,78.2332,153.12,99.6566,117.891,0.00126679,0.192236,20.7521,145.468,-1.19803,0.0,0.0
2522,630.25,74.1513,78.8787,155.652,99.644,115.544,0.00130426,0.194128,20.7518,145.257,-1.05556,0.0,0.0
2535,633.5,74.0253,78.9657,154.659,99.6471,114.321,0.00136369,0.19487,20.7498,145.167,-0.979465,0.0,0.0
2548,636.75,74.1731,78.9239,159.225,99.6345,114.582,0.00139049,0.195044,20.749,144.867,-0.996615,0.0,0.0
2561,640,74.2277,79.0581,157.318,99.7175,115.913,0.00145603,0.19543,20.7489,144.647,-1.07301,0.0,0.0
2574,643.25,74.2803,78.855,155.35,99.7349,118.467,0.00149568,0.196645,20.748,144.427,-1.22715,0.0,0.0
2587,646.5,74.2858,78.9226,154.397,99.744,119.438,0.00154273,0.196964,20.7475,144.156,-1.28471,0.0,0.0
2600,649.75,74.0999,79.6884,162.189,99.8009,117.693,0.00155669,0.196861,20.7473,143.946,-1.17574,0.0,0.0
2613,653,74.3964,79.1658,155.751,99.8444,118.215,0.0012784,0.197207,20.7463,143.726,-1.20416,0.0,0.0
2626,656.25,74.4055,79.0332,157.557,99.8566,118.485,0.00120833,0.198714,20.7459,143.436,-1.21954,0.0,0.0
2639,659.5,74.4978,79.035,163.526,99.9049,114.339,0.00129034,0.200398,20.7444,143.236,-0.96217,0.0,0.0
2652,662.75,74.35,79.4947,154.297,99.9381,115.337,0.00115336,0.200459,20.7425,143.005,-1.02177,0.0,0.0
2665,666,74.1791,79.6995,156.244,99.9705,113.287,0.00128617,0.201238,20.7421,142.685,-0.891579,0.0,0.0
2678,669.25,74.4085,80.1997,153.597,100.018,117.028,0.00135391,0.2034,20.7412,142.475,-1.1198,0.0,0.0
2691,672.5,74.6971,79.7578,156.344,100.084,112.99,0.00123389,0.204243,20.7387,142.295,-0.864792,0.0,0.0
2704,675.75,74.5678,79.5095,150.893,100.117,117.199,0.00132719,0.206521,20.7391,141.975,-1.12316,0.0,0.0
2717,679,74.5014,79.9055,152.301,100.185,116.947,0.00154051,0.207798,20.7367,141.774,-1.10296,0.0,0.0
2730,682.25,74.9639,80.1109,156.098,100.221,116.425,0.00160524,0.208938,20.7357,141.534,-1.06856,0.0,0.0
2743,685.5,75.0203,80.1434,155.941,100.231,118.368,0.00161684,0.209705,20.7355,141.254,-1.18582,0.0,0.0
2756,688.75,75.1883,80.0498,154.032,100.268,116.929,0.00152418,0.211077,20.7342,141.044,-1.09601,0.0,0.0
2769,692,75.1934,80.2703,152.943,100.303,114.807,0.00139139,0.212797,20.732,140.794,-0.96292,0.0,0.0
2782,695.25,75.2429,80.9602,153.452,100.312,118.485,0.00137019,0.21272,20.7289,140.493,-1.18707,0.0,0.0
2795,698.5,75.6662,80.6131,151.83,100.344,115.652,0.00132091,0.215376,20.7279,140.243,-1.0123,0.0,0.0
2808,701.75,75.8173,80.898,148.696,100.35,114.969,0.0012186,0.217378,20.7248,140.053,-0.96965,0.0,0.0
2821,705,75.7904,80.6574,153.882,100.346,117.244,0.00122702,0.219028,20.7236,139.683,-1.10961,0.0,0.0
2834,708.25,76.0443,81.3914,155.219,100.355,118.062,0.00133265,0.22254,20.7221,139.432,-1.15853,0.0,0.0
2847,711.5,76.2346,81.3731,151.269,100.358,117.1,0.00129726,0.223873,20.7192,139.222,-1.10002,0.0,0.0
2860,714.75,76.0062,81.7428,150.536,100.339,116.138,0.00117033,0.224564,20.7169,138.922,-1.04251,0.0,0.0
2873,718,76.3855,81.9364,154.588,100.332,117.091,0.00139832,0.227055,20.7164,138.632,-1.10132,0.0,0.0
2886,721.25,76.0264,81.5019,155.3,100.316,118.539,0.00163584,0.22978,20.7128,138.441,-1.19006,0.0,0.0
2899,724.5,76.6855,82.147,151.991,100.286,119.87,0.00183446,0.231514,20.7087,138.081,-1.27177,0.0,0.0
2912,727.75,76.6964,82.5514,151.065,100.234,117.343,0.00201605,0.232566,20.7058,137.851,-1.12361,0.0,0.0
2925,731,76.5433,82.6054,154.081,100.199,118.826,0.00189161,0.236328,20.7047,137.571,-1.21567,0.0,0.0
2938,734.25,77.363,82.8414,155.306,100.126,112.873,0.00157689,0.238779,20.7004,137.27,-0.854428,0.0,0.0
2951,737.5,76.7269,83.3232,150.366,100.035,115.778,0.00161882,0.239249,20.6968,136.97,-1.04205,0.0,0.0
2964,740.75,77.4943,83.4393,153.579,99.9768,118.161,0.00177542,0.241779,20.6958,136.72,-1.19146,0.0,0.0
2977,744,77.3805,83.575,154.938,100.034,115.373,0.00164372,0.245378,20.6954,136.41,-1.01715,0.0,0.0
2990,747.25,77.7258,83.7246,149.982,100.095,116.839,0.00163438,0.247198,20.6931,136.139,-1.10282,0.0,0.0
3003,750.5,77.8055,84.0293,151.742,100.184,117.127,0.00171469,0.249242,20.6904,135.849,-1.11405,0.0,0.0
3016,753.75,77.7363,84.1166,156.158,100.262,117.72,0.00163832,0.250635,20.6877,135.509,-1.14452,0.0,0.0
3029,757,77.8881,84.1765,149.451,100.404,113.53,0.00150512,0.25275,20.6857,135.309,-0.875958,0.0,0.0
3042,760.25,78.3798,84.4914,148.524,100.501,116.03,0.00166936,0.253682,20.6826,134.958,-1.0244,0.0,0.0
3055,763.5,78.1427,84.3788,150.94,100.618,116.56,0.00172038,0.254488,20.6805,134.618,-1.04866,0.0,0.0
3068,766.75,78.0369,84.6283,150.724,100.739,116.452,0.00163967,0.255166,20.6777,134.338,-1.03344,0.0,0.0
3081,770,78.8267,84.4965,150.434,100.805,117.19,0.00154459,0.252893,20.676,134.018,-1.0738,0.0,0.0
3094,773.25,78.4999,84.8054,151.08,100.852,118.44,0.00145413,0.256406,20.6765,133.737,-1.14612,0.0,0.0
3107,776.5,78.3239,85.2499,152.333,100.903,114.789,0.00149408,0.261327,20.6729,133.397,-0.919306,0.0,0.0
3120,779.75,78.7878,84.627,154.519,100.926,117.648,0.00163111,0.262572,20.6671,133.167,-1.0931,0.0,0.0
3133,783,78.966,85.0181,154.96,100.889,117.334,0.00166059,0.261674,20.6662,132.807,-1.0766,0.0,0.0
3146,786.25,78.8953,85.1759,150.702,100.87,116.542,0.00188554,0.26134,20.667,132.566,-1.02972,0.0,0.0
3159,789.5,79.0541,85.2369,157.035,100.822,117.702,0.00200767,0.263729,20.6681,132.216,-1.10369,0.0,0.0
3172,792.75,78.9512,85.7262,149.589,100.787,117.001,0.00211595,0.266852,20.6674,131.896,-1.06359,0.0,0.0
3185,796,79.2921,85.5655,152.441,100.736,117.801,0.00205857,0.269286,20.6637,131.656,-1.11577,0.0,0.0
3198,799.25,79.2468,85.6646,149.193,100.692,119.861,0.00213125,0.268911,20.6607,131.285,-1.24244,0.0,0.0
3211,802.5,79.779,85.4826,150.931,100.648,119.888,0.00203299,0.268079,20.6598,131.035,-1.2472,0.0,0.0
3224,805.75,79.6707,85.4895,151.361,100.59,119.015,0.00192137,0.268043,20.661,130.765,-1.19923,0.0,0.0
3237,809,79.2892,85.4934,149.813,100.553,117.531,0.00175919,0.268631,20.662,130.454,-1.11236,0.0,0.0
3250,812.25,79.6887,85.3719,150.137,100.487,116.794,0.0016736,0.267293,20.6606,130.114,-1.07223,0.0,0.0
3263,815.5,79.5899,85.11,152.17,100.455,117.675,0.00171231,0.266353,20.6615,129.894,-1.12807,0.0,0.0
3276,818.75,79.5479,85.7204,146.674,100.387,114.762,0.00153284,0.265063,20.6623,129.584,-0.954172,0.0,0.0
3289,822,79.2946,85.4061,154.925,100.302,114.195,0.00176876,0.262581,20.6643,129.273,-0.924899,0.0,0.0
3302,825.25,80.0978,85.9447,154.003,100.248,114.645,0.00198169,0.262387,20.669,129.013,-0.956738,0.0,0.0
3315,828.5,79.7658,85.6887,152.538,100.173,113.845,0.00190386,0.264682,20.668,128.683,-0.912163,0.0,0.0
3328,831.75,79.816,85.7123,149.055,100.1,113.647,0.00193202,0.265854,20.6648,128.433,-0.904941,0.0,0.0
3341,835,79.6852,85.3921,150.179,99.989,115.328,0.00205349,0.26341,20.6638,128.142,-1.01758,0.0,0.0
3354,838.25,79.4871,85.8055,154.198,99.8649,112.541,0.00202355,0.264639,20.665,127.842,-0.851981,0.0,0.0
3367,841.5,80.0949,86.1611,152.849,99.7748,114.555,0.00202765,0.263594,20.664,127.552,-0.984902,0.0,0.0
3380,844.75,79.9301,85.8144,152.943,99.7029,116.282,0.00194345,0.261403,20.6667,127.252,-1.0967,0.0,0.0
3393,848,79.6687,85.882,152.636,99.6056,116.12,0.00185991,0.263128,20.6677,126.911,-1.09373,0.0,0.0
3406,851.25,79.8199,85.7618,152.596,99.5341,116.21,0.00191605,0.263921,20.6652,126.631,-1.10437,0.0,0.0
3419,854.5,79.852,85.6202,154.627,99.4803,116.506,0.0018668,0.262824,20.664,126.391,-1.1264,0.0,0.0
3432,857.75,79.9993,85.9599,153.911,99.4112,116.704,0.00175415,0.263492,20.6655,126.121,-1.14346,0.0,0.0
3445,861,80.1264,85.7348,151.843,99.3704,112.361,0.00183664,0.262036,20.667,125.76,-0.875969,0.0,0.0
3458,864.25,79.8798,85.7834,153.42,99.3313,115.337,0.00176104,0.261504,20.6674,125.52,-1.06519,0.0,0.0
3471,867.5,80.3073,85.8329,150.505,99.2697,113.863,0.00173314,0.259481,20.6683,125.21,-0.977865,0.0,0.0
3484,870.75,80.0648,86.1148,148.947,99.238,116.74,0.00186016,0.259629,20.6712,124.89,-1.15808,0.0,0.0
3497,874,80.1449,86.0608,155.023,99.2278,114.708,0.00187371,0.260141,20.672,124.719,-1.03361,0.0,0.0
3510,877.25,80.1549,85.8119,149.431,99.1981,116.192,0.00185739,0.260697,20.6705,124.319,-1.12737,0.0,0.0
3523,880.5,80.2005,86.1075,149.254,99.1942,114.798,0.00194451,0.260853,20.6698,124.079,-1.04161,0.0,0.0
3536,883.75,79.8507,85.856,149.175,99.1989,114.546,0.00194261,0.260485,20.6702,123.829,-1.02562,0.0,0.0
3549,887,80.059,85.9193,145.726,99.1993,114.753,0.00201253,0.259988,20.6703,123.448,-1.03845,0.0,0.0
3562,890.25,80.0613,85.9363,149.132,99.2254,115.706,0.00189594,0.257973,20.6711,123.208,-1.09555,0.0,0.0
3575,893.5,80.2327,85.6421,149.855,99.2527,114.708,0.00191537,0.257325,20.6723,122.958,-1.03182,0.0,0.0
3588,896.75,80.0706,86.1062,149.827,99.2744,114.744,0.00213523,0.257843,20.6738,122.658,-1.03249,0.0,0.0
3601,900,80.1255,86.0622,151.25,99.2914,114.627,0.00238974,0.258455,20.6744,122.397,-1.02401,0.0,0.0
3614,903.25,80.1413,85.7895,151.586,99.3452,116.794,0.00230339,0.258948,20.6738,122.077,-1.15369,0.0,0.0
3627,906.5,79.9927,85.7502,151.118,99.3523,115.517,0.00222787,0.259158,20.6735,121.777,-1.0748,0.0,0.0
3640,909.75,80.2348,85.5294,150.278,99.3791,113.692,0.00227147,0.25966,20.6721,121.497,-0.959299,0.0,0.0
3653,913,80.6275,85.8358,156.847,99.4475,110.868,0.00226228,0.257829,20.6713,121.286,-0.775084,0.0,0.0
3666,916.25,80.1223,85.7942,155.019,99.493,115.544,0.00230396,0.257554,20.6722,120.946,-1.06637,0.0,0.0
3679,919.5,80.1498,86.0629,152.294,99.5594,115.283,0.00207049,0.259162,20.673,120.716,-1.0455,0.0,0.0
3692,922.75,79.9124,85.6511,150.665,99.6282,113.224,0.00189582,0.260375,20.6725,120.426,-0.91207,0.0,0.0
3705,926,80.032,86.0058,151.805,99.6677,112.783,0.00234656,0.260174,20.6696,120.065,-0.881441,0.0,0.0
3718,929.25,80.5503,86.0649,156.676,99.7317,119.096,0.00236712,0.259219,20.6701,119.845,-1.26516,0.0,0.0
3731,932.5,80.5592,86.2621,150.606,99.8143,116.83,0.00222919,0.261216,20.6701,119.525,-1.12229,0.0,0.0
3744,935.75,80.6129,85.7962,152.495,99.8452,117.558,0.00209122,0.261621,20.669,119.195,-1.1644,0.0,0.0
3757,939,80.5538,86.1537,153.98,99.9064,117.127,0.00202701,0.261434,20.6687,118.934,-1.1338,0.0,0.0
3770,942.25,80.3386,86.6705,152.385,99.959,112.882,0.0021262,0.261257,20.6683,118.684,-0.866883,0.0,0.0
3783,945.5,80.3777,86.2401,151.438,99.9993,115.436,0.00209317,0.263356,20.6671,118.364,-1.02352,0.0,0.0
3796,948.75,80.5993,86.1373,154.148,100.071,115.319,0.00207282,0.266335,20.664,118.094,-1.01116,0.0,0.0
3809,952,80.0224,86.4406,149.188,100.123,119.465,0.00203124,0.267279,20.6615,117.803,-1.25925,0.0,0.0
3822,955.25,80.5666,86.5608,152.346,100.161,118.844,0.00188537,0.266816,20.6608,117.503,-1.21945,0.0,0.0
3835,958.5,80.9492,86.7908,157.876,100.218,114.636,0.00166022,0.268685,20.6604,117.223,-0.958344,0.0,0.0
3848,961.75,80.6241,86.9492,148.253,100.273,119.15,0.0017007,0.269629,20.6573,116.933,-1.22978,0.0,0.0
3861,965,80.5228,85.9403,154.632,100.287,118.305,0.00188741,0.270296,20.6569,116.622,-1.17807,0.0,0.0
3874,968.25,81.158,87.1786,150.095,100.323,116.785,0.0018912,0.271138,20.6568,116.282,-1.08333,0.0,0.0
3887,971.5,81.0677,87.0987,156.259,100.363,114.501,0.00192336,0.27139,20.6555,116.012,-0.939609,0.0,0.0
3900,974.75,80.837,87.21,148.78,100.357,115.247,0.00203173,0.273627,20.6534,115.681,-0.986383,0.0,0.0
3913,978,80.7604,87.6456,158.672,100.384,117.082,0.00231299,0.274464,20.65,115.411,-1.09707,0.0,0.0
3926,981.25,81.2172,87.2183,151.137,100.388,116.003,0.00234213,0.27577,20.6472,115.131,-1.03074,0.0,0.0
3939,984.5,81.0519,87.3831,151.828,100.379,117.082,0.00234209,0.275058,20.646,114.801,-1.09743,0.0,0.0
3952,987.75,81.2508,87.3931,148.157,100.395,113.467,0.00238558,0.276034,20.647,114.52,-0.872676,0.0,0.0
3965,991,81.4556,87.9135,153.933,100.401,115.22,0.0024497,0.278839,20.6457,114.22,-0.981626,0.0,0.0
3978,994.25,81.3116,87.573,143.756,100.388,110.58,0.00270934,0.280605,20.6418,113.94,-0.689454,0.0,0.0
3991,997.5,81.2669,87.4945,152.371,100.401,113.926,0.00274257,0.280031,20.639,113.66,-0.901015,0.0,0.0
4004,1000.75,81.2625,87.7195,148.831,100.399,116.407,0.00247411,0.281416,20.6386,113.389,-1.05481,0.0,0.0
4017,1004,81.6922,87.9582,147.319,100.371,114.555,0.00244601,0.279476,20.6389,113.029,-0.942434,0.0,0.0
4030,1007.25,81.8665,88.2408,151.74,100.355,116.237,0.00268712,0.27903,20.6407,112.739,-1.04749,0.0,0.0
4043,1010.5,81.6832,88.2227,154.046,100.342,115.796,0.00257744,0.279285,20.6414,112.509,-1.0213,0.0,0.0
4056,1013.75,81.4042,87.9255,150.53,100.282,114.015,0.00251942,0.279145,20.6416,112.138,-0.915123,0.0,0.0
4069,1017,81.7126,87.7947,149.981,100.258,113.188,0.00244842,0.277566,20.6416,111.938,-0.864886,0.0,0.0
4082,1020.25,81.5867,87.6575,151.643,100.231,117.531,0.00245327,0.276077,20.6423,111.638,-1.13527,0.0,0.0
4095,1023.5,82.2985,87.4598,150.002,100.137,115.409,0.00246098,0.275796,20.642,111.248,-1.01205,0.0,0.0
4108,1026.75,81.7616,87.5201,151.33,100.089,115.769,0.00233447,0.275317,20.6414,111.037,-1.03761,0.0,0.0
4121,1030,81.5174,87.7429,149.387,99.9875,115.193,0.00236925,0.276155,20.6413,110.737,-1.00935,0.0,0.0
4134,1033.25,81.3671,87.4356,147.341,99.8796,116.039,0.00237526,0.271741,20.6417,110.387,-1.06918,0.0,0.0
4147,1036.5,81.4221,87.3919,152.793,99.7859,115.265,0.00246088,0.271328,20.6451,110.207,-1.02819,0.0,0.0
4160,1039.75,81.6076,86.9914,152.487,99.6882,112.262,0.00224016,0.268664,20.6475,109.916,-0.846924,0.0,0.0
4173,1043,81.7546,87.2087,155.051,99.6207,114.618,0.00203809,0.266091,20.651,109.616,-0.999843,0.0,0.0
4186,1046.25,81.2033,86.962,149.631,99.6732,113.242,0.00201989,0.26563,20.6547,109.396,-0.909979,0.0,0.0
4199,1049.5,81.5535,87.3038,158.835,99.8128,110.895,0.00224261,0.263468,20.6567,109.106,-0.750683,0.0,0.0
4212,1052.75,81.857,86.7356,148.353,99.9132,113.782,0.00212922,0.261612,20.6596,108.805,-0.926727,0.0,0.0
4225,1056,81.1787,86.5681,154.222,100.013,113.395,0.00200991,0.258921,20.6624,108.625,-0.895323,0.0,0.0
4238,1059.25,81.2205,86.5643,153.498,100.15,113.503,0.00184499,0.255302,20.6645,108.325,-0.892362,0.0,0.0
4251,1062.5,80.9763,86.4782,154.545,100.219,114.123,0.00182161,0.252701,20.6695,108.075,-0.92628,0.0,0.0
4264,1065.75,80.7288,86.5757,151.63,100.3,113.881,0.00202077,0.251921,20.6726,107.865,-0.90539,0.0,0.0
4277,1069,80.8271,86.4707,148.65,100.335,115.274,0.00190418,0.251041,20.6722,107.554,-0.989596,0.0,0.0
4290,1072.25,80.8589,86.1581,151.133,100.33,114.861,0.00202315,0.251068,20.6711,107.274,-0.964331,0.0,0.0
4303,1075.5,81.0803,85.7475,148.559,100.323,120.274,0.00216341,0.248116,20.6728,107.114,-1.29316,0.0,0.0
4316,1078.75,80.7311,85.9585,153.984,100.294,113.863,0.00193607,0.247369,20.6767,106.854,-0.904657,0.0,0.0
4329,1082,80.9142,85.8217,150.855,100.24,113.602,0.00177548,0.244458,20.6781,106.614,-0.892159,0.0,0.0
4342,1085.25,80.5006,85.5402,152.985,100.186,112.28,0.00168118,0.240408,20.6814,106.453,-0.812534,0.0,0.0
4355,1088.5,79.9274,85.3602,155.052,100.103,110.616,0.00174841,0.237367,20.6848,106.223,-0.712043,0.0,0.0
4368,1091.75,80.6753,84.8339,152.391,100.035,115.463,0.00191464,0.23515,20.6881,105.993,-1.02262,0.0,0.0
4381,1095,80.5864,85.109,155.281,99.9586,115.13,0.0019966,0.233153,20.6898,105.813,-1.00751,0.0,0.0
4394,1098.25,79.9979,84.6928,157.48,99.9365,114.942,0.0019829,0.229682,20.6922,105.563,-0.997384,0.0,0.0
4407,1101.5,80.2321,84.3285,153.826,99.989,115.679,0.00173099,0.225687,20.6968,105.392,-1.03923,0.0,0.0
4420,1104.75,79.7297,83.8523,155.019,100.067,113.97,0.00168869,0.222281,20.7012,105.252,-0.927614,0.0,0.0
4433,1108,79.6934,84.0488,155.552,100.148,113.755,0.00162788,0.217582,20.7036,105.042,-0.90833,0.0,0.0
4446,1111.25,79.162,83.3065,152.862,100.235,113.943,0.00143105,0.211736,20.7082,104.912,-0.913911,0.0,0.0
4459,1114.5,79.1711,82.2896,155.184,100.325,114.357,0.00159754,0.207101,20.7147,104.842,-0.933397,0.0,0.0
4472,1117.75,78.4246,82.0991,156.57,100.399,111.507,0.00161796,0.202702,20.7188,104.592,-0.748167,0.0,0.0
4485,1121,78.1379,81.4311,152.599,100.474,111.605,0.00164121,0.19446,20.7248,104.492,-0.749158,0.0,0.0
4498,1124.25,77.1472,80.7184,160.77,100.568,114.546,0.00163443,0.182168,20.7321,104.462,-0.927906,0.0,0.0
4511,1127.5,76.4668,79.8682,156.77,100.629,113.107,0.00166898,0.172918,20.7465,104.322,-0.83344,0.0,0.0
4524,1130.75,76.7399,79.4039,158.63,100.697,115.679,0.00183681,0.162522,20.7574,104.221,-0.988927,0.0,0.0
4537,1134,76.8145,78.7973,157.83,100.765,115.832,0.00213046,0.15134,20.7693,104.221,-0.993559,0.0,0.0
4550,1137.25,75.7558,77.6321,161.042,100.802,113.314,0.00240821,0.143485,20.7822,104.081,-0.83421,0.0,0.0
4563,1140.5,75.6716,77.6146,152.287,100.836,115.175,0.00285314,0.13846,20.7924,104.021,-0.947977,0.0,0.0
4576,1143.75,75.1521,77.217,155.564,100.871,115.193,0.00331107,0.133884,20.7981,104.061,-0.946603,0.0,0.0
4589,1147,75.019,76.7661,155.687,100.874,116.3,0.00374102,0.129023,20.8038,103.961,-1.01454,0.0,0.0
4602,1150.25,74.464,76.1659,160.471,100.877,115.256,0.00403356,0.125847,20.8098,103.851,-0.950079,0.0,0.0
4615,1153.5,73.6645,75.7154,160.7,100.863,112.586,0.00436909,0.123736,20.8155,103.851,-0.783955,0.0,0.0
4628,1156.75,73.8592,75.0893,162.949,100.82,115.706,0.00455646,0.120767,20.8191,103.711,-0.981919,0.0,0.0
4641,1160,73.4098,74.6092,157.429,100.773,113.062,0.00463508,0.118946,20.8246,103.611,-0.820391,0.0,0.0
4654,1163.25,72.9873,74.1857,156.108,100.71,112.064,0.00492934,0.117696,20.8279,103.661,-0.761642,0.0,0.0
4667,1166.5,72.4277,74.1395,159.449,100.624,114.384,0.00524608,0.11641,20.8289,103.511,-0.913817,0.0,0.0
4680,1169.75,72.2615,73.9039,159.987,100.535,113.566,0.00536979,0.115217,20.8313,103.461,-0.868931,0.0,0.0
4693,1173,72.282,73.8562,156.611,100.454,114.816,0.00542494,0.112565,20.8341,103.491,-0.952753,0.0,0.0
4706,1176.25,71.7549,73.2749,158.425,100.313,114.006,0.00547208,0.111483,20.8375,103.391,-0.91234,0.0,0.0
4719,1179.5,71.0529,73.1168,163.199,100.165,114.195,0.00518605,0.111318,20.8383,103.321,-0.934684,0.0,0.0
4732,1182.75,71.446,73.1221,160.214,100.038,112.397,0.00505343,0.111092,20.8384,103.351,-0.830482,0.0,0.0
4745,1186,70.7493,72.168,158.183,99.9021,109.708,0.00560938,0.11063,20.8387,103.201,-0.667576,0.0,0.0
4758,1189.25,70.8473,72.2956,157.344,99.7586,111.803,0.00626897,0.109367,20.8403,103.11,-0.812707,0.0,0.0
4771,1192.5,70.5251,72.0213,157.802,99.621,112.631,0.00634447,0.109078,20.8407,103.171,-0.875109,0.0,0.0
4784,1195.75,70.2017,71.7518,162.993,99.4598,112.954,0.00638569,0.10901,20.8408,103.02,-0.907123,0.0,0.0
4797,1199,70.0588,71.8616,159.241,99.391,113.098,0.00629627,0.108169,20.8414,103,-0.921132,0.0,0.0
4810,1202.25,70.0487,71.6094,156.139,99.3108,112.756,0.00604243,0.107865,20.8425,103.01,-0.905315,0.0,0.0
4823,1205.5,69.6725,71.4313,159.668,99.2471,113.143,0.00614481,0.106891,20.842,102.88,-0.934294,0.0,0.0
4836,1208.75,69.9187,71.4142,155.703,99.2246,109.025,0.00643284,0.105735,20.8446,102.88,-0.671538,0.0,0.0
4849,1212,69.4596,71.4846,158.769,99.2333,112.451,0.006522,0.105527,20.846,102.9,-0.89152,0.0,0.0
4862,1215.25,69.2339,70.8937,162.289,99.2475,110.185,0.00631654,0.105091,20.8447,102.77,-0.745352,0.0,0.0
4875,1218.5,69.3063,70.9096,162.918,99.31,109.897,0.00633501,0.104744,20.8448,102.77,-0.722222,0.0,0.0
4888,1221.75,68.9306,70.6548,157.968,99.4013,113.206,0.0063445,0.103988,20.8457,102.78,-0.927194,0.0,0.0
4901,1225,68.5483,70.7369,161.484,99.4625,112.289,0.00639489,0.103225,20.8457,102.65,-0.864798,0.0,0.0
4914,1228.25,68.5653,70.4804,159.394,99.5922,111.102,0.00654709,0.1037,20.8477,102.62,-0.77974,0.0,0.0
4927,1231.5,68.576,70.5684,163.376,99.7147,113.737,0.00649001,0.10322,20.8487,102.61,-0.938083,0.0,0.0
4940,1234.75,68.4724,69.8909,161.551,99.7886,111.794,0.0063048,0.103016,20.8503,102.49,-0.809987,0.0,0.0
4953,1238,68.2368,70.3442,160.267,99.9045,112.792,0.00620822,0.103411,20.8507,102.49,-0.865093,0.0,0.0
4966,1241.25,67.8581,69.6672,158.425,99.9934,113.539,0.00649469,0.102153,20.8525,102.49,-0.905773,0.0,0.0
4979,1244.5,68.0858,69.594,158.592,100.075,111.848,0.00671455,0.101129,20.8537,102.35,-0.793009,0.0,0.0
4992,1247.75,67.8115,69.8021,156.905,100.184,112.523,0.00674572,0.101462,20.854,102.4,-0.828132,0.0,0.0
5005,1251,67.8957,69.9264,158.931,100.27,113.692,0.00668426,0.102784,20.8521,102.4,-0.895665,0.0,0.0
5018,1254.25,68.0157,69.4467,159.175,100.339,113.485,0.00689272,0.10244,20.851,102.22,-0.877766,0.0,0.0
5031,1257.5,67.6698,69.7425,162.611,100.369,112.226,0.00701543,0.101402,20.8507,102.28,-0.796095,0.0,0.0
5044,1260.75,67.3432,69.7052,157.434,100.412,110.832,0.00688733,0.100689,20.8507,102.25,-0.70393,0.0,0.0
5057,1264,67.3731,69.2529,163.218,100.423,110.347,0.00673544,0.100304,20.8527,102.14,-0.671866,0.0,0.0
5070,1267.25,67.0729,69.3521,161.652,100.444,112.514,0.00678562,0.100294,20.8536,102.17,-0.80902,0.0,0.0
5083,1270.5,67.31,69.2524,156.573,100.438,111.237,0.0069047,0.100261,20.8538,102.14,-0.72809,0.0,0.0
5096,1273.75,66.8139,69.2514,160.837,100.401,108.683,0.00686763,0.0995835,20.8554,101.989,-0.565129,0.0,0.0
5109,1277,66.9325,69.0706,159.875,100.388,111.174,0.00699491,0.0993447,20.8574,102.02,-0.727619,0.0,0.0
5122,1280.25,66.7865,68.84,162.61,100.314,111.399,0.00684864,0.099615,20.8583,101.999,-0.747302,0.0,0.0
5135,1283.5,67.0015,68.8388,162.556,100.24,112.927,0.006987,0.10054,20.858,101.869,-0.849705,0.0,0.0
5148,1286.75,66.9548,68.6209,161.748,100.176,112.864,0.0071908,0.100549,20.8567,101.899,-0.850314,0.0,0.0
5161,1290,66.6177,68.7162,162.344,100.112,112.792,0.00713548,0.10029,20.8563,101.879,-0.850327,0.0,0.0
5174,1293.25,66.5103,68.5851,161.429,100.014,113.431,0.00691205,0.100381,20.8562,101.799,-0.8975,0.0,0.0
5187,1296.5,66.2211,68.6167,162.158,99.9689,112.028,0.00703208,0.101591,20.8549,101.819,-0.812016,0.0,0.0
5200,1299.75,66.5942,68.7166,162.714,99.8815,110.221,0.00703106,0.100641,20.8533,101.759,-0.702277,0.0,0.0
5213,1303,66.1729,68.144,161.405,99.8183,111.956,0.00693648,0.100038,20.8551,101.609,-0.818184,0.0,0.0
5226,1306.25,66.1344,68.5108,156.595,99.7606,111.3,0.00695743,0.100026,20.8559,101.669,-0.780379,0.0,0.0
5239,1309.5,66.3012,68.2349,163.82,99.7163,111.003,0.00718437,0.0988717,20.8561,101.619,-0.764509,0.0,0.0
5252,1312.75,65.992,68.461,158.279,99.6353,111.56,0.00732744,0.0978489,20.8562,101.479,-0.806026,0.0,0.0
5265,1316,66.2875,68.1826,162.036,99.6203,109.438,0.00757163,0.0976515,20.8579,101.549,-0.670165,0.0,0.0
5278,1319.25,66.1684,68.162,158.785,99.7218,109.942,0.00775651,0.0980863,20.8592,101.469,-0.695631,0.0,0.0
5291,1322.5,66.1338,68.4939,159.073,99.81,111.551,0.00762555,0.0981528,20.8605,101.349,-0.79296,0.0,0.0
5304,1325.75,66.4055,68.5774,163.674,99.8997,112.747,0.0077256,0.0971341,20.8608,101.429,-0.862589,0.0,0.0
5317,1329,66.017,68.0883,160.762,99.9464,113.53,0.00792389,0.0964979,20.8613,101.319,-0.908563,0.0,0.0
5330,1332.25,65.6754,68.1765,166.032,99.9993,111.264,0.00815684,0.0967684,20.8628,101.279,-0.761033,0.0,0.0
5343,1335.5,65.5535,67.9476,170.892,100.061,112.046,0.00837575,0.0963128,20.8631,101.329,-0.806567,0.0,0.0
5356,1338.75,65.8483,68.3431,159.814,100.098,113.782,0.00835228,0.0968237,20.8632,101.169,-0.913566,0.0,0.0
5369,1342,65.3493,68.0075,164.133,100.153,112.927,0.00832377,0.0962746,20.8632,101.169,-0.855865,0.0,0.0
5382,1345.25,66.0633,67.7635,158.466,100.223,111.821,0.0085222,0.0957881,20.8632,101.219,-0.780765,0.0,0.0
5395,1348.5,65.302,68.1049,160.487,100.251,113.404,0.00842263,0.0957218,20.8632,101.089,-0.878973,0.0,0.0
5408,1351.75,65.3442,67.5956,161.087,100.282,111.785,0.0084952,0.0965776,20.8632,101.049,-0.774283,0.0,0.0
5421,1355,64.2449,66.9487,162.106,100.299,113.881,0.00855748,0.0959811,20.8632,101.109,-0.905418,0.0,0.0
5434,1358.25,64.5117,67.6366,160.913,100.299,114.735,0.00854299,0.0955434,20.8627,100.949,-0.958703,0.0,0.0
5447,1361.5,64.6285,67.1811,161.787,100.282,112.046,0.00828836,0.0960287,20.8625,100.929,-0.790869,0.0,0.0
5460,1364.75,64.3678,66.3468,159.9,100.25,113.152,0.00828421,0.0954425,20.8628,100.969,-0.863154,0.0,0.0
5473,1368,64.3645,66.8102,156.647,100.169,111.848,0.00851658,0.0948525,20.8646,100.828,-0.786311,0.0,0.0
5486,1371.25,64.2619,66.4962,160.203,100.08,112.712,0.00855675,0.0948438,20.866,100.808,-0.847434,0.0,0.0
5499,1374.5,64.4082,66.9716,159.256,99.9784,115.032,0.00863096,0.0951046,20.8663,100.879,-0.999972,0.0,0.0
5512,1377.75,64.2035,66.7883,156.087,99.9234,112.226,0.00869526,0.094225,20.8664,100.758,-0.827838,0.0,0.0
5525,1381,64.0167,66.3963,160.362,99.9977,112.918,0.00882986,0.0944022,20.8677,100.708,-0.866392,0.0,0.0
5538,1384.25,64.4087,66.4817,159.485,100.086,112.046,0.00886299,0.094517,20.8685,100.748,-0.804793,0.0,0.0
5551,1387.5,64.1171,66.4934,161.342,100.159,111.866,0.00865643,0.0951044,20.8687,100.618,-0.78816,0.0,0.0
5564,1390.75,63.8351,66.297,161.046,100.249,112.756,0.00858103,0.0945332,20.8669,100.578,-0.838263,0.0,0.0
5577,1394,64.1973,66.6717,158.823,100.369,111.093,0.00848799,0.0937799,20.8677,100.608,-0.723746,0.0,0.0
5590,1397.25,63.7264,66.5107,166.739,100.442,114.906,0.00841342,0.0936607,20.8684,100.508,-0.959177,0.0,0.0
5603,1400.5,64.0511,66.5095,162.132,100.529,113.656,0.00830965,0.0944203,20.8685,100.498,-0.875051,0.0,0.0
5616,1403.75,64.3546,66.471,163.145,100.621,110.535,0.00853714,0.0943291,20.8686,100.528,-0.670011,0.0,0.0
5629,1407,64.1547,66.6518,161.79,100.693,110.409,0.00858295,0.0938712,20.8686,100.418,-0.656818,0.0,0.0
5642,1410.25,64.0969,66.5121,162.855,100.761,110.661,0.00834842,0.0938655,20.8686,100.368,-0.668247,0.0,0.0
5655,1413.5,64.1702,66.3525,162.315,100.814,112.595,0.00839548,0.0943169,20.8684,100.448,-0.787962,0.0,0.0
5668,1416.75,63.9511,66.7126,158.186,100.834,114.798,0.00822793,0.0942681,20.8668,100.308,-0.924726,0.0,0.0
5681,1420,63.9118,66.5182,161.001,100.862,110.212,0.00812859,0.0943219,20.8664,100.288,-0.632062,0.0,0.0
5694,1423.25,64.0604,66.6366,159.16,100.884,112.586,0.00821241,0.0945738,20.8663,100.368,-0.782418,0.0,0.0
5707,1426.5,63.4813,66.1334,157.04,100.863,112.882,0.00817125,0.0944313,20.8663,100.238,-0.802695,0.0,0.0
5720,1429.75,63.8628,66.2993,162.077,100.844,110.58,0.00833849,0.0946101,20.8663,100.178,-0.657103,0.0,0.0
5733,1433,63.7907,66.29,162.317,100.784,111.138,0.0083618,0.0949279,20.8664,100.198,-0.69721,0.0,0.0
5746,1436.25,63.6154,66.5028,157.892,100.708,112.001,0.00826051,0.0949771,20.8668,100.118,-0.757748,0.0,0.0
5759,1439.5,63.3377,66.6374,164.976,100.616,112.028,0.00825841,0.094693,20.8669,100.098,-0.766044,0.0,0.0
5772,1442.75,63.424,65.9958,162.091,100.529,113.485,0.00865713,0.0943504,20.8669,100.118,-0.864269,0.0,0.0
5785,1446,63.6357,66.1384,162.026,100.412,113.881,0.00875383,0.0946203,20.8669,100.008,-0.897387,0.0,0.0
5798,1449.25,63.6916,65.4646,160.437,100.302,108.485,0.00851984,0.0945076,20.8657,100.088,-0.55916,0.0,0.0
5811,1452.5,62.9111,66.1868,162.723,100.159,113.521,0.00848128,0.0938706,20.8642,100.118,-0.892816,0.0,0.0
5824,1455.75,64.0685,65.9991,161.451,100.005,109.852,0.00843259,0.0931814,20.8657,99.9177,-0.669562,0.0,0.0
5837,1459,63.5877,66.6886,160.161,99.8906,112.972,0.00847931,0.0937513,20.8666,99.9377,-0.87744,0.0,0.0
5850,1462.25,64.1508,66.2065,158.87,99.7898,115.05,0.00825888,0.0941101,20.868,99.9077,-1.01454,0.0,0.0
5863,1465.5,63.6298,66.0043,158.202,99.657,111.668,0.00784954,0.0940431,20.8685,99.7976,-0.811364,0.0,0.0
5876,1468.75,63.4097,66.5618,159.382,99.5444,111.255,0.0078321,0.0940242,20.8686,99.8576,-0.792968,0.0,0.0
5889,1472,64.0273,66.2368,161.732,99.4657,115.157,0.0081388,0.094296,20.867,99.8376,-1.04442,0.0,0.0
5890,1472.25,63.5037,66.1486,159.372,99.4487,108.791,0.00814461,0.0943395,20.8669,99.7375,-0.640146,0.0,0.0