File: 01_Data/Particleboard/Cone/Particleboard_Cone_HF25Scan_230705_R3.csv
Names,Time,Stack TC,Smoke TC,Exh Press,Smoke Comp,Smoke Meas,CO Meter,CO2 Meter,O2 Meter,Sample Mass,Ext Coeff,Start Test,Flame Verif
Chan Gain,,500,500,1,1,1,1,1,1,1,1,1.0,1.0
Offset,,0,0,0.236064,0,0,0,0,0,0,0,0.0,0.0
Gain,,1,1,25.011,12.9459,33.7291,1,1,1,1.00086,0.833623,1.0,1.0
Units,sec,C,C,Pa,%,%,%,%,%,g,/m,,
Baseline,,46.9884,48.1589,180.643,100.633,106.029,0.000790313,0.04278,20.9689,-445.249,-0.381863,,
16,3.75,45.4432,46.6387,178.721,100.791,106.252,0.000708912,0.0460458,20.965,208.44,-0.385821,0.0,0.0
32,7.75,45.7269,46.726,182.716,100.773,106.027,0.000646447,0.0471944,20.9629,208.38,-0.371652,0.0,0.0
48,11.75,45.7476,46.8987,181.426,100.782,105.869,0.000599394,0.0494938,20.9601,208.34,-0.360051,0.0,0.0
64,15.75,46.2153,46.8675,185.839,100.791,106.253,0.000837176,0.0503439,20.9571,208.28,-0.385921,0.0,0.0
80,19.75,46.0432,47.3779,184.789,100.791,106.157,0.000928786,0.0486434,20.9578,208.27,-0.37933,0.0,0.0
96,23.75,46.3447,47.4876,180.651,100.815,106.518,0.000756739,0.0465483,20.9618,208.2,-0.402398,0.0,0.0
112,27.75,46.3061,47.5235,179.277,100.793,105.117,0.000700642,0.0449523,20.9655,208.14,-0.30722,0.0,0.0
128,31.75,45.796,47.5715,178.722,100.789,105.77,0.000750498,0.0440226,20.9683,208.13,-0.352706,0.0,0.0
144,35.75,46.3931,47.3872,182.426,100.794,106.058,0.000726707,0.0433687,20.969,207.97,-0.37229,0.0,0.0
160,39.75,46.4755,47.0896,179.315,100.809,105.793,0.000603781,0.0432028,20.9691,207.92,-0.352839,0.0,0.0
176,43.75,46.1778,47.2282,183.92,100.813,105.063,0.000776571,0.0431338,20.9707,207.9,-0.301934,0.0,0.0
192,47.75,46.1984,47.4706,179.844,100.827,105.931,0.00106009,0.042937,20.9697,207.88,-0.361049,0.0,0.0
208,51.75,46.1477,47.5203,181.961,100.817,106.494,0.00108269,0.0427368,20.9692,207.85,-0.400559,0.0,0.0
224,55.75,46.4137,47.8664,179.566,100.836,106.479,0.000896366,0.0428535,20.9691,207.84,-0.398193,0.0,0.0
240,59.75,46.5861,48.0036,177.756,100.823,105.441,0.000863536,0.0428285,20.9697,207.769,-0.327434,0.0,0.0
256,63.75,46.0003,47.6282,179.739,100.812,105.775,0.000589558,0.0428715,20.9699,207.739,-0.351458,0.0,0.0
272,67.75,46.9647,47.9871,179.442,100.816,105.44,0.000485266,0.0427843,20.97,207.679,-0.327907,0.0,0.0
288,71.75,46.6074,47.7911,180.659,100.823,105.154,0.000683105,0.0429722,20.9693,207.659,-0.30762,0.0,0.0
304,75.75,46.7615,47.6063,176.513,100.821,105.374,0.000776055,0.0431102,20.9692,207.599,-0.322964,0.0,0.0
320,79.75,46.674,47.5387,182.464,100.813,104.993,0.000829327,0.0432335,20.9686,207.519,-0.29706,0.0,0.0
336,83.75,46.4533,47.7283,179.011,100.826,104.994,0.000650731,0.0435226,20.9673,207.489,-0.296215,0.0,0.0
352,87.75,46.7473,48.1313,174.555,100.827,106.884,0.000515449,0.043867,20.9684,207.449,-0.426552,0.0,0.0
368,91.75,46.6591,48.0796,181.537,100.836,105.109,0.000389539,0.0442413,20.9682,207.419,-0.303495,0.0,0.0
384,95.75,47.0178,48.2345,181.587,100.826,104.734,0.000383884,0.0443744,20.967,207.389,-0.278099,0.0,0.0
400,99.75,46.6661,48.1945,180.078,100.821,104.522,0.000503882,0.0445885,20.9672,207.339,-0.263622,0.0,0.0
416,103.75,46.754,47.9117,179.929,100.82,105.313,0.00043784,0.0448804,20.9676,207.259,-0.318835,0.0,0.0
432,107.75,46.7385,48.0921,183.678,100.809,104.176,0.000300635,0.0452811,20.967,207.199,-0.240203,0.0,0.0
448,111.75,46.8759,47.8589,178.751,100.774,104.525,0.000569143,0.0458959,20.9668,207.169,-0.267278,0.0,0.0
464,115.75,46.8668,48.3417,182.247,100.748,103.622,0.000624824,0.0460953,20.9685,207.029,-0.20567,0.0,0.0
480,119.75,46.9987,47.933,182.452,100.731,104.792,0.000727893,0.0467433,20.9695,206.839,-0.289059,0.0,0.0
496,123.75,47.1976,48.1121,177.988,100.709,104.257,0.000756091,0.0473739,20.9697,206.819,-0.253162,0.0,0.0
512,127.75,46.8786,48.0089,180.385,100.69,103.766,0.000815519,0.0477844,20.969,206.819,-0.220049,0.0,0.0
528,131.75,46.6954,48.5926,180.006,100.667,103.26,0.000628606,0.0482503,20.9677,206.779,-0.18601,0.0,0.0
544,135.75,47.3763,48.538,177.199,100.635,104.042,0.000708354,0.0490185,20.9675,206.659,-0.243481,0.0,0.0
560,139.75,47.0087,48.9161,178.748,100.602,102.365,0.0010707,0.0499505,20.9666,206.548,-0.127053,0.0,0.0
576,143.75,47.509,48.5872,176.976,100.561,103.783,0.001564,0.0509801,20.9662,206.438,-0.230613,0.0,0.0
592,147.75,47.122,48.3963,178.444,100.526,106.402,0.00166536,0.051836,20.965,206.248,-0.415386,0.0,1.0
608,151.75,47.7253,50.0227,167.137,100.454,105.254,0.00176888,0.0528123,20.964,205.858,-0.341371,0.0,1.0
624,155.75,48.9411,52.5154,168.148,100.392,105.723,0.00234011,0.0681815,20.9622,205.357,-0.378354,0.0,0.0
640,159.75,50.9804,55.2704,160.407,100.335,105.529,0.00261406,0.135277,20.9423,204.807,-0.369074,0.0,0.0
656,163.75,53.0622,58.1052,161.345,100.258,105.557,0.00260755,0.231743,20.8607,204.296,-0.376616,0.0,0.0
672,167.75,55.0178,60.5765,167.039,100.195,104.692,0.00333915,0.290373,20.743,203.796,-0.321083,0.0,0.0
688,171.75,56.6779,63.0651,156.924,100.133,104.15,0.00344977,0.323617,20.6727,203.236,-0.287595,0.0,0.0
704,175.75,58.659,65.1299,162.612,100.047,103.866,0.00338171,0.343673,20.6341,202.645,-0.273942,0.0,0.0
720,179.75,59.7462,66.8373,161.161,99.9858,103.807,0.00358954,0.353402,20.6096,202.075,-0.274259,0.0,0.0
736,183.75,61.2171,68.449,163.736,99.9139,102.053,0.00398322,0.361744,20.5979,201.484,-0.154908,0.0,0.0
752,187.75,62.3805,69.6511,168.911,99.9036,104.404,0.00444672,0.363825,20.5925,200.793,-0.322206,0.0,0.0
768,191.75,63.0884,70.8763,162.303,99.8617,102.54,0.00478916,0.362541,20.592,200.263,-0.193529,0.0,0.0
784,195.75,64.0992,71.4559,164.583,99.8258,102.807,0.00488925,0.357819,20.5922,199.602,-0.21515,0.0,0.0
800,199.75,64.8792,72.091,165.114,99.7894,103.091,0.00467748,0.355072,20.5955,199.092,-0.237992,0.0,0.0
816,203.75,65.3507,72.7049,168.581,99.7839,103.99,0.00502831,0.349827,20.5985,198.552,-0.301934,0.0,0.0
832,207.75,65.5284,73.0939,164.136,99.7705,104.125,0.00498675,0.345262,20.6059,198.051,-0.312394,0.0,0.0
848,211.75,66.6775,73.3182,162.964,99.7408,104.24,0.00477572,0.339354,20.6113,197.501,-0.322657,0.0,0.0
864,215.75,66.6589,73.7798,164.863,99.7195,102.749,0.00486044,0.335724,20.6171,196.99,-0.218837,0.0,0.0
880,219.75,67.0308,74.0103,168.721,99.6978,105.614,0.00485515,0.331761,20.6206,196.42,-0.421511,0.0,0.0
896,223.75,67.0831,73.9955,163.246,99.6776,104.496,0.00491547,0.326881,20.6256,195.849,-0.345179,0.0,0.0
912,227.75,67.7886,73.9175,172.81,99.6788,102.92,0.00467823,0.321306,20.6302,195.329,-0.233972,0.0,0.0
928,231.75,67.8391,73.8477,172.642,99.6745,103.741,0.00437325,0.315566,20.6364,194.738,-0.292421,0.0,0.0
944,235.75,67.7613,74.0476,162.103,99.6788,105.006,0.00447492,0.310041,20.6431,194.228,-0.380733,0.0,0.0
960,239.75,67.6537,73.7638,165.562,99.6539,104.549,0.00439914,0.309441,20.649,193.707,-0.350663,0.0,0.0
976,243.75,67.6809,73.7597,166.24,99.6571,104.573,0.00454953,0.304113,20.6502,193.267,-0.352087,0.0,0.0
992,247.75,68.1941,73.9503,165.839,99.6512,105.496,0.00432078,0.298663,20.6558,192.827,-0.416802,0.0,0.0
1008,251.75,67.4138,74.1124,167.16,99.6314,105.602,0.00395008,0.292557,20.6615,192.416,-0.425598,0.0,0.0
1024,255.75,68.0143,73.4003,167.753,99.6492,105.237,0.00373679,0.287514,20.6707,191.946,-0.398946,0.0,0.0
1040,259.75,67.9778,73.4075,160.504,99.6342,104.039,0.00375602,0.282844,20.6773,191.606,-0.316317,0.0,0.0
1056,263.75,68.1094,72.8838,167.563,99.6275,105.118,0.00380217,0.276954,20.682,191.235,-0.392311,0.0,0.0
1072,267.75,67.758,72.9792,166.311,99.6338,104.562,0.00362658,0.27097,20.6895,190.775,-0.353005,0.0,0.0
1088,271.75,67.5625,72.0525,167.58,99.631,105.379,0.00391212,0.265153,20.6961,190.364,-0.410143,0.0,0.0
1104,275.75,67.4289,72.2655,166.772,99.6215,105.542,0.00382543,0.260783,20.7028,189.974,-0.422188,0.0,0.0
1120,279.75,67.4158,71.9169,171.993,99.6164,104.485,0.00339306,0.254848,20.7073,189.594,-0.348953,0.0,0.0
1136,283.75,67.4176,71.6289,172.703,99.6168,106.292,0.00333364,0.252535,20.712,189.063,-0.474271,0.0,0.0
1152,287.75,66.8074,71.2127,169.37,99.6002,105.636,0.00311543,0.248305,20.7162,188.743,-0.43024,0.0,0.0
1168,291.75,66.3901,71.1121,171.025,99.6211,104.41,0.00318756,0.243138,20.7201,188.393,-0.343344,0.0,0.0
1184,295.75,66.7453,70.5518,170.031,99.6192,105.136,0.00313704,0.238183,20.7266,188.052,-0.394137,0.0,0.0
1200,299.75,66.4593,70.5135,168.618,99.6286,105.881,0.00277584,0.233761,20.7318,187.672,-0.445091,0.0,0.0
1216,303.75,66.0272,70.2586,160.507,99.6369,106.463,0.00267749,0.229215,20.7366,187.342,-0.484537,0.0,0.0
1232,307.75,66.0969,69.7061,169.46,99.633,104.653,0.00274341,0.226371,20.7425,186.982,-0.359468,0.0,0.0
1248,311.75,65.7442,69.5063,168.229,99.65,105.302,0.00280454,0.222556,20.7469,186.581,-0.403392,0.0,0.0
1264,315.75,65.8328,69.1944,167.78,99.6662,105.342,0.00280703,0.218852,20.7521,186.281,-0.404991,0.0,0.0
1280,319.75,65.4584,68.8761,169.432,99.6796,103.721,0.00280287,0.218158,20.7538,185.901,-0.290593,0.0,0.0
1296,323.75,65.2658,68.8463,174.281,99.6911,106.598,0.00290795,0.214299,20.7558,185.62,-0.489822,0.0,0.0
1312,327.75,64.784,68.2351,169.743,99.7191,105.572,0.00297151,0.211398,20.7611,185.21,-0.417095,0.0,0.0
1328,331.75,64.8892,68.2923,173.017,99.7472,104.563,0.00290354,0.207953,20.7656,184.9,-0.34476,0.0,0.0
1344,335.75,64.897,68.0319,171.736,99.7701,106.115,0.00273327,0.2068,20.7689,184.589,-0.450837,0.0,0.0
1360,339.75,64.4162,67.8132,169.834,99.8218,106.93,0.00286997,0.203428,20.771,184.339,-0.503008,0.0,0.0
1376,343.75,64.552,67.9084,171.389,99.8471,107.44,0.00292584,0.201231,20.7742,184.009,-0.535917,0.0,0.0
1392,347.75,63.9343,67.1553,169.151,99.8827,106.026,0.00316207,0.199076,20.7757,183.719,-0.436486,0.0,0.0
1408,351.75,63.9104,66.796,174.816,99.9313,107.386,0.00317602,0.197586,20.7795,183.418,-0.526112,0.0,0.0
1424,355.75,63.8522,67.2436,166.365,99.9759,106.258,0.00319965,0.19586,20.7805,183.098,-0.445619,0.0,0.0
1440,359.75,63.5488,66.671,172.202,100.038,104.854,0.003126,0.192679,20.7823,182.828,-0.343847,0.0,0.0
1456,363.75,63.3881,66.7182,173.369,100.095,106.495,0.00294459,0.190621,20.786,182.488,-0.453171,0.0,0.0
1472,367.75,63.47,65.7268,165.508,100.177,105.778,0.00282398,0.18769,20.7875,182.157,-0.397812,0.0,0.0
1488,371.75,63.0045,65.8477,170.863,100.24,106.966,0.00299795,0.183671,20.793,181.817,-0.474887,0.0,0.0
1504,375.75,63.1329,65.6667,174.41,100.326,106.327,0.00313077,0.182346,20.798,181.597,-0.424834,0.0,0.0
1520,379.75,62.5977,65.4778,171.705,100.389,105.99,0.00322993,0.180599,20.8004,181.277,-0.397014,0.0,0.0
1536,383.75,62.6186,65.2626,174.826,100.465,107.06,0.00325234,0.177732,20.8021,181.026,-0.464935,0.0,0.0
1552,387.75,62.5237,64.9439,167.549,100.548,105.921,0.00352318,0.174853,20.8056,180.776,-0.380666,0.0,0.0
1568,391.75,62.3957,64.8894,172.134,100.595,106.426,0.00350956,0.172234,20.8074,180.546,-0.411985,0.0,0.0
1584,395.75,62.0136,64.5873,169.983,100.674,106.663,0.00356056,0.171709,20.8097,180.236,-0.422592,0.0,0.0
1600,399.75,61.9298,64.858,166.686,100.716,107.593,0.00357449,0.171421,20.8087,179.975,-0.482968,0.0,0.0
1616,403.75,61.5175,64.3303,170.836,100.747,107.949,0.00343025,0.170504,20.8088,179.715,-0.504897,0.0,0.0
1632,407.75,61.8974,64.863,168.013,100.786,107.306,0.00352129,0.168192,20.8103,179.415,-0.458377,0.0,0.0
1648,411.75,61.9236,64.209,178.96,100.804,105.35,0.00354522,0.166967,20.8125,179.105,-0.322525,0.0,0.0
1664,415.75,61.3267,63.6837,171.11,100.834,106.224,0.00364996,0.166764,20.8143,178.875,-0.380813,0.0,0.0
1680,419.75,61.437,63.9181,172.521,100.826,106.379,0.00349418,0.164867,20.8162,178.604,-0.39205,0.0,0.0
1696,423.75,60.793,63.5492,171.91,100.818,105.72,0.00338486,0.162898,20.8192,178.414,-0.347155,0.0,0.0
1712,427.75,60.8949,63.3861,170.323,100.8,105.899,0.00339058,0.163208,20.821,178.164,-0.360852,0.0,0.0
1728,431.75,61.2804,63.3353,173.927,100.761,107.114,0.00344989,0.163788,20.82,177.874,-0.447154,0.0,0.0
1744,435.75,61.0272,63.1679,172.59,100.718,108.11,0.00341566,0.163157,20.8192,177.623,-0.517888,0.0,0.0
1760,439.75,60.7321,62.9647,170.059,100.654,106.039,0.00338192,0.161577,20.8202,177.373,-0.381066,0.0,0.0
1776,443.75,60.6305,62.9651,171.729,100.583,105.698,0.00355183,0.159847,20.8219,177.153,-0.362701,0.0,0.0
1792,447.75,60.5213,63.1901,166.927,100.491,105.704,0.00356171,0.161522,20.8236,176.863,-0.369795,0.0,0.0
1808,451.75,60.473,62.6943,174.768,100.412,106.519,0.00339779,0.16036,20.8239,176.583,-0.431785,0.0,0.0
1824,455.75,60.2397,62.3177,173.332,100.318,106.945,0.0034613,0.158883,20.8237,176.352,-0.467803,0.0,0.0
1840,459.75,60.1843,62.4615,168.954,100.228,105.843,0.00365028,0.158051,20.8253,176.082,-0.398574,0.0,0.0
1856,463.75,60.2336,63.1604,170.424,100.149,105.788,0.00366716,0.157433,20.826,175.872,-0.400629,0.0,0.0
1872,467.75,60.3743,62.47,167.491,100.089,107.355,0.00375041,0.157314,20.8261,175.662,-0.512484,0.0,0.0
1888,471.75,59.7802,62.7726,170.894,100.05,105.41,0.00391259,0.156683,20.8261,175.432,-0.381613,0.0,0.0
1904,475.75,60.0893,62.184,170.435,100.033,105.476,0.00393792,0.155061,20.8278,175.181,-0.387395,0.0,0.0
1920,479.75,59.9146,62.3526,170.778,100.152,105.697,0.00405679,0.154425,20.8302,174.881,-0.394062,0.0,0.0
1936,483.75,59.7973,62.2551,170.108,100.253,104.033,0.00389562,0.152867,20.8307,174.591,-0.270686,0.0,0.0
1952,487.75,59.6874,62.1964,171.251,100.31,104.597,0.00410505,0.151484,20.8323,174.371,-0.306008,0.0,0.0
1968,491.75,59.9985,61.3905,171.255,100.373,105.979,0.00466387,0.151616,20.8337,174.19,-0.397441,0.0,0.0
1984,495.75,59.2944,61.629,175.535,100.423,105.657,0.00448124,0.15097,20.8334,173.85,-0.371494,0.0,0.0
2000,499.75,59.213,61.3992,172.188,100.524,106.536,0.00419411,0.147801,20.8349,173.64,-0.424749,0.0,0.0
2016,503.75,59.2738,61.6474,170.488,100.619,106.035,0.00421184,0.147365,20.8373,173.49,-0.383338,0.0,0.0
2032,507.75,59.189,61.209,172.609,100.686,105.174,0.00448623,0.146861,20.8383,173.27,-0.318901,0.0,0.0
2048,511.75,59.0577,61.027,175.723,100.718,106.791,0.00473842,0.145197,20.8393,173.049,-0.428123,0.0,0.0
2064,515.75,59.1537,61.0028,173.413,100.747,105.757,0.00488174,0.14444,20.8409,172.849,-0.354849,0.0,0.0
2080,519.75,59.3774,60.8498,169.874,100.752,105.204,0.00492111,0.142362,20.8421,172.659,-0.316156,0.0,0.0
2096,523.75,58.6804,60.8199,174.401,100.737,104.889,0.00490446,0.141809,20.845,172.389,-0.295349,0.0,0.0
2112,527.75,58.7472,59.7536,173.479,100.709,105.096,0.00522067,0.140168,20.8456,172.179,-0.311766,0.0,0.0
2128,531.75,58.2283,60.8772,173.978,100.674,105.562,0.0054903,0.136655,20.8475,171.939,-0.346692,0.0,0.0
2144,535.75,58.4338,60.4088,171.353,100.645,105.401,0.00582325,0.13651,20.8504,171.648,-0.337655,0.0,0.0
2160,539.75,58.4183,60.1397,173.615,100.608,106.539,0.00614371,0.135102,20.8514,171.478,-0.418871,0.0,0.0
2176,543.75,57.8019,59.5348,174.026,100.586,105.734,0.00631427,0.133403,20.8532,171.258,-0.364963,0.0,0.0
2192,547.75,57.7668,59.5614,179.385,100.543,105.22,0.00650511,0.128638,20.8553,171.048,-0.332514,0.0,0.0
2208,551.75,57.6279,59.4377,173.089,100.522,104.53,0.0068258,0.12789,20.8596,170.858,-0.28585,0.0,0.0
2224,555.75,57.7495,58.9417,175.303,100.515,104.464,0.0072517,0.126485,20.8637,170.647,-0.281757,0.0,0.0
2240,559.75,56.9512,58.3684,173.493,100.504,103.219,0.00754632,0.124274,20.8651,170.487,-0.194927,0.0,0.0
2256,563.75,56.8322,57.7577,182.232,100.473,103.109,0.0079058,0.116312,20.8681,170.267,-0.189362,0.0,0.0
2272,567.75,56.2484,57.4558,176.791,100.452,103.203,0.00907302,0.102694,20.881,170.047,-0.197527,0.0,0.0
2288,571.75,55.8906,56.7928,178.075,100.415,102.128,0.0100844,0.0968166,20.8968,169.797,-0.123718,0.0,0.0
2304,575.75,55.2056,56.3917,173.572,100.353,103.378,0.0106732,0.0936613,20.9047,169.607,-0.217137,0.0,0.0
2320,579.75,55.444,56.1192,179.498,100.339,102.96,0.0107446,0.092562,20.909,169.366,-0.188524,0.0,0.0
2336,583.75,54.8032,55.6356,175.794,100.369,102.128,0.0107023,0.0926472,20.9106,169.166,-0.127085,0.0,0.0
2352,587.75,54.2532,55.3483,176.748,100.385,101.853,0.0106687,0.0903967,20.9109,169.016,-0.106171,0.0,0.0
2368,591.75,54.2262,55.0696,179.053,100.432,102.006,0.0104051,0.0872216,20.9137,169.046,-0.113676,0.0,0.0
2384,595.75,53.9659,54.0248,175.529,100.443,102.869,0.0107587,0.0868331,20.9164,168.636,-0.174549,0.0,0.0
2400,599.75,53.6545,54.0576,179.723,100.467,101.941,0.0108138,0.0860938,20.9183,168.415,-0.106466,0.0,0.0
2416,603.75,53.3541,54.0669,175.547,100.529,102.903,0.0108178,0.0855582,20.9187,168.265,-0.170666,0.0,0.0
2432,607.75,52.966,53.8571,182.284,100.556,103.314,0.0104615,0.0845931,20.9199,168.095,-0.197868,0.0,0.0
2448,611.75,53.1541,53.3973,178.273,100.613,102.816,0.0102399,0.0839774,20.9204,167.925,-0.158385,0.0,0.0
2464,615.75,52.9711,53.5512,182.439,100.661,103.178,0.0102003,0.0845903,20.9203,167.765,-0.180578,0.0,0.0
2480,619.75,52.5385,53.3242,181.5,100.732,103.888,0.0102227,0.0844736,20.9203,167.565,-0.225635,0.0,0.0
2496,623.75,52.6088,52.9896,178.28,100.8,104.304,0.0100323,0.083408,20.9201,167.315,-0.249859,0.0,0.0
2512,627.75,52.3429,52.6679,176.09,100.862,105.79,0.0101848,0.083617,20.9215,167.154,-0.348787,0.0,0.0
2528,631.75,52.344,52.6266,180.069,100.926,103.446,0.0101727,0.0835664,20.9221,167.034,-0.180317,0.0,0.0
2544,635.75,51.9147,52.6238,176.825,100.97,103.584,0.00992463,0.0827487,20.9222,166.864,-0.186884,0.0,0.0
2560,639.75,51.8998,52.6407,183.639,101.011,104.84,0.00979046,0.0825207,20.9233,166.724,-0.2721,0.0,0.0
2576,643.75,52.3334,52.4271,180.9,101.051,103.589,0.00991499,0.0834772,20.9237,166.514,-0.181355,0.0,0.0
2592,647.75,51.3706,52.9493,173.279,101.083,105.327,0.00993328,0.0831874,20.9216,166.354,-0.300747,0.0,0.0
2608,651.75,51.5127,51.8485,176.254,101.101,104.905,0.00955492,0.0825908,20.9213,166.214,-0.270103,0.0,0.0
2624,655.75,51.3805,52.5315,178.966,101.148,103.397,0.00932213,0.083363,20.9208,166.063,-0.160827,0.0,0.0
2640,659.75,51.9221,52.6297,178.117,101.139,104.809,0.00960406,0.0834478,20.919,165.813,-0.260642,0.0,0.0
2656,663.75,50.7722,52.3926,177.001,101.138,105.035,0.00957727,0.0836518,20.9187,165.533,-0.276452,0.0,0.0
2672,667.75,51.5688,52.1376,178.134,101.14,102.589,0.00951318,0.0834794,20.9201,165.433,-0.104056,0.0,0.0
2688,671.75,50.9825,52.2352,179.276,101.147,104.734,0.00962159,0.0830339,20.9197,165.283,-0.254869,0.0,0.0
2704,675.75,51.4067,52.4413,175.562,101.155,104.983,0.00983195,0.0840758,20.9196,165.203,-0.271568,0.0,0.0
2720,679.75,51.1426,52.3845,176.461,101.149,105.338,0.0100075,0.0845327,20.9182,165.083,-0.296691,0.0,0.0
2736,683.75,51.2086,52.4399,178.76,101.163,104.433,0.00994281,0.0841711,20.9176,164.912,-0.232611,0.0,0.0
2752,687.75,51.3392,52.339,178.424,101.165,103.759,0.00969254,0.0843916,20.9192,164.762,-0.185105,0.0,0.0
2768,691.75,51.5375,52.2272,176.058,101.173,105.006,0.00956155,0.0837894,20.9192,164.592,-0.271933,0.0,0.0
2784,695.75,51.2905,51.6219,175.591,101.171,103.362,0.00952456,0.0841736,20.9196,164.432,-0.156723,0.0,0.0
2800,699.75,50.6588,51.9331,176.417,101.15,105.298,0.00954114,0.0843675,20.9197,164.252,-0.293847,0.0,0.0
2816,703.75,50.9139,51.5874,180.599,101.118,105.271,0.00964847,0.0844685,20.9195,164.072,-0.29433,0.0,0.0
2832,707.75,51.4809,52.1193,176.618,101.086,104.673,0.0098386,0.0845894,20.919,163.872,-0.254955,0.0,0.0
2848,711.75,50.7799,51.9164,174.285,101.077,104.552,0.00994073,0.0847639,20.9197,163.721,-0.247223,0.0,0.0
2864,715.75,51.01,51.8423,176.508,101.044,104.135,0.00986024,0.0845737,20.9206,163.581,-0.220352,0.0,0.0
2880,719.75,51.2985,52.135,176.441,101.027,104.541,0.00964091,0.0843057,20.9206,163.401,-0.250033,0.0,0.0
2896,723.75,50.543,51.9883,177.02,100.992,104.389,0.00945572,0.0843602,20.9206,163.231,-0.241915,0.0,0.0
2912,727.75,50.7623,51.6629,176.489,100.955,106.065,0.00948694,0.0847214,20.9206,163.081,-0.361131,0.0,0.0
2928,731.75,51.192,51.5824,177.4,100.909,103.987,0.00976186,0.0843711,20.9206,162.961,-0.219692,0.0,0.0
2944,735.75,50.5559,51.8424,179.498,100.874,103.639,0.0100722,0.0854701,20.9206,162.771,-0.197791,0.0,0.0
2960,739.75,51.1249,51.5093,177.365,100.872,104.661,0.0103279,0.085764,20.9186,162.59,-0.269671,0.0,0.0
2976,743.75,50.5218,51.5587,177.822,100.828,103.722,0.0101999,0.085216,20.919,162.35,-0.206865,0.0,0.0
2992,747.75,50.8479,51.7014,176.765,100.792,103.87,0.0100954,0.0851175,20.9197,162.18,-0.219973,0.0,0.0
3008,751.75,50.4043,51.4141,181.716,100.764,103.576,0.0101549,0.0855516,20.9199,162.02,-0.201298,0.0,0.0
3024,755.75,50.6999,51.3947,179.178,100.774,105.028,0.0102473,0.0848347,20.9199,161.89,-0.302306,0.0,0.0
3040,759.75,50.823,51.9852,178.579,100.783,104.758,0.01019,0.0852882,20.9197,161.75,-0.282846,0.0,0.0
3056,763.75,50.4057,51.3897,174.975,100.794,103.585,0.0103127,0.085884,20.9188,161.59,-0.1997,0.0,0.0
3072,767.75,50.7658,51.3758,176.301,100.855,104.466,0.0100716,0.0846444,20.9191,161.409,-0.257225,0.0,0.0
3088,771.75,50.0824,51.0895,176.973,100.893,103.376,0.00988162,0.084621,20.921,161.289,-0.177743,0.0,0.0
3104,775.75,50.6442,51.3527,178.111,100.943,104.214,0.0101713,0.0849064,20.9216,161.109,-0.233195,0.0,0.0
3120,779.75,50.5094,51.1377,176.678,101.003,105.88,0.0101017,0.0851863,20.9218,160.899,-0.344827,0.0,0.0
3136,783.75,50.529,51.9184,176.443,101.061,103.991,0.0101991,0.0855367,20.9205,160.779,-0.209025,0.0,0.0
3152,787.75,50.5917,51.3607,178.824,101.099,104.108,0.0104285,0.0857688,20.9191,160.569,-0.214427,0.0,0.0
3168,791.75,50.0696,51.5292,185.869,101.132,104.037,0.0102606,0.0860028,20.9188,160.359,-0.207094,0.0,0.0
3184,795.75,50.6057,51.7651,176.828,101.186,105.364,0.0102263,0.0854424,20.9179,160.208,-0.295893,0.0,0.0
3200,799.75,50.5741,51.6851,178.672,101.238,104.692,0.010243,0.0854122,20.9197,160.068,-0.245356,0.0,0.0
3216,803.75,50.3731,51.3587,176.012,101.241,104.627,0.0105823,0.0857718,20.92,159.918,-0.240625,0.0,0.0
3232,807.75,50.5584,51.4999,177.372,101.263,105.174,0.0104561,0.0864668,20.9193,159.778,-0.277071,0.0,0.0
3248,811.75,50.4819,51.8396,177.979,101.25,105.096,0.0100976,0.0869998,20.9201,159.608,-0.272571,0.0,0.0
3264,815.75,50.346,51.4436,180.708,101.272,103.959,0.0100302,0.0867201,20.9206,159.448,-0.191532,0.0,0.0
3280,819.75,50.42,51.6446,175.253,101.261,105.179,0.0104217,0.0864534,20.9206,159.288,-0.277571,0.0,0.0
3296,823.75,50.2135,51.5019,177.5,101.284,104.279,0.0106204,0.0862287,20.9211,159.067,-0.21313,0.0,0.0
3312,827.75,49.9196,50.9692,176.51,101.268,105.324,0.0105295,0.0863606,20.9211,158.937,-0.28717,0.0,0.0
3328,831.75,49.8932,51.1017,176.087,101.278,104.4,0.0105554,0.0866999,20.9191,158.757,-0.221969,0.0,0.0
3344,835.75,49.8813,51.2533,185.173,101.258,104.822,0.0101515,0.0864364,20.9179,158.557,-0.252982,0.0,0.0
3360,839.75,50.2002,51.3539,176.453,101.233,104.254,0.0101755,0.0870331,20.919,158.347,-0.215005,0.0,0.0
3376,843.75,50.2106,51.3568,175.587,101.219,105.482,0.0105435,0.0868642,20.9195,158.287,-0.301663,0.0,0.0
3392,847.75,50.1855,51.259,173.583,101.195,104.08,0.0105152,0.086701,20.9196,158.107,-0.205562,0.0,0.0
3408,851.75,50.5257,51.6685,182.089,101.171,104.37,0.0103451,0.0862918,20.9191,157.936,-0.227613,0.0,0.0
3424,855.75,49.8893,51.225,176.728,101.132,104.648,0.0101958,0.0872835,20.9166,157.776,-0.249943,0.0,0.0
3440,859.75,50.1014,51.1917,177.261,101.075,105.548,0.0103528,0.0864857,20.9169,157.596,-0.316625,0.0,0.0
3456,863.75,50.4221,51.176,178.209,101.011,104.804,0.0102778,0.0859662,20.9184,157.436,-0.269587,0.0,0.0
3472,867.75,49.8092,51.5732,173.387,100.947,104.805,0.0104492,0.0867534,20.9198,157.256,-0.274264,0.0,0.0
3488,871.75,49.9817,51.284,175.457,100.88,104.16,0.01064,0.0873554,20.9213,157.096,-0.233962,0.0,0.0
3504,875.75,50.4737,51.5092,176.493,100.781,103.618,0.0102998,0.0865024,20.9183,156.896,-0.202971,0.0,0.0
3520,879.75,49.9364,51.4416,178.307,100.679,104.389,0.0104195,0.0869309,20.9167,156.775,-0.264606,0.0,0.0
3536,883.75,50.3336,51.4403,179.224,100.573,103.833,0.0103581,0.0869306,20.9148,156.615,-0.233231,0.0,0.0
3552,887.75,50.3043,51.5835,176.991,100.481,104.356,0.0102687,0.0865755,20.9141,156.455,-0.276661,0.0,0.0
3568,891.75,50.1825,51.5027,177.943,100.392,104.234,0.0102739,0.086353,20.9152,156.305,-0.274617,0.0,0.0
3584,895.75,49.9527,51.3125,175.254,100.328,102.748,0.0101637,0.0866525,20.9161,156.125,-0.174284,0.0,0.0
3600,899.75,50.492,51.538,175.838,100.294,103.847,0.0100752,0.0868598,20.9182,155.945,-0.254583,0.0,0.0
3616,903.75,50.0404,51.7315,176.103,100.346,103.357,0.0100588,0.086593,20.9175,155.795,-0.216199,0.0,0.0
3632,907.75,50.0729,51.7942,176.487,100.311,103.347,0.00978026,0.0875837,20.9171,155.624,-0.218005,0.0,0.0
3648,911.75,49.9282,51.1882,177.963,100.249,104.328,0.00979785,0.0904092,20.9155,155.424,-0.291667,0.0,0.0
3664,915.75,50.1164,51.6622,178.02,100.218,102.641,0.0103131,0.0914641,20.9131,155.244,-0.174671,0.0,0.0
3680,919.75,49.8095,51.3617,176.1,100.177,104.397,0.0104069,0.0906407,20.9123,155.014,-0.301747,0.0,0.0
3696,923.75,50.2504,51.0332,177.499,100.151,103.098,0.0105398,0.0889382,20.9131,154.914,-0.212061,0.0,0.0
3712,927.75,50.0478,51.5316,178.116,100.13,104.3,0.0104594,0.0880636,20.9156,154.734,-0.298341,0.0,0.0
3728,931.75,50.6302,51.8532,174.504,100.078,102.867,0.0104751,0.0871215,20.9177,154.644,-0.201027,0.0,0.0
3744,935.75,50.1409,51.5958,179.032,100.041,103.847,0.010295,0.0879182,20.9185,154.493,-0.273013,0.0,0.0
3760,939.75,50.3736,51.6256,179.408,100.011,103.75,0.0100105,0.0890751,20.918,154.323,-0.268391,0.0,0.0
3776,943.75,50.416,51.5257,180.365,99.981,102.171,0.0100516,0.0886141,20.9157,154.163,-0.158471,0.0,0.0
3792,947.75,50.6292,51.5511,177.315,99.9396,103.614,0.0102171,0.0894974,20.9164,154.003,-0.263995,0.0,0.0
3808,951.75,50.9289,51.5026,178.451,99.919,104.18,0.0103093,0.0907209,20.9153,153.843,-0.305344,0.0,0.0
3824,955.75,50.618,51.5897,176.184,99.8673,103.301,0.0104754,0.0904576,20.9145,153.693,-0.24717,0.0,0.0
3840,959.75,49.9741,51.5912,178.681,99.8546,102.578,0.0103929,0.0912146,20.9143,153.463,-0.196765,0.0,0.0
3856,963.75,50.4922,51.9695,175.084,99.8467,102.59,0.0104685,0.0909215,20.913,153.292,-0.198224,0.0,0.0
3872,967.75,50.4079,51.4843,178.602,99.8131,102.705,0.0109211,0.089809,20.914,153.132,-0.208824,0.0,0.0
3888,971.75,50.28,51.4776,174.091,99.7934,102.971,0.0107818,0.0888755,20.9166,153.002,-0.229228,0.0,0.0
3904,975.75,50.1242,51.5565,178.306,99.7859,103.272,0.0106939,0.0883572,20.9178,152.872,-0.251092,0.0,0.0
3920,979.75,49.8516,51.6035,180.858,99.7819,102.929,0.0105665,0.0887958,20.9193,152.732,-0.22707,0.0,0.0
3936,983.75,50.3276,51.5992,177.741,99.7827,104.023,0.0104968,0.0897406,20.9178,152.542,-0.304336,0.0,0.0
3952,987.75,50.6633,51.5806,177.225,99.7776,103.815,0.0106359,0.090354,20.9174,152.372,-0.290082,0.0,0.0
3968,991.75,50.4642,51.4452,181.104,99.7748,104.183,0.0107928,0.0904113,20.9141,152.201,-0.316123,0.0,0.0
3984,995.75,50.5967,51.5549,178.785,99.7661,104.75,0.0108599,0.0928376,20.9132,152.061,-0.35646,0.0,0.0
4000,999.75,50.1314,51.7634,177.347,99.7689,104.206,0.0105547,0.0954912,20.9113,151.841,-0.318218,0.0,0.0
4016,1003.75,50.5834,51.9849,177.438,99.7705,104.606,0.0106185,0.0974077,20.9093,151.691,-0.346074,0.0,0.0
4032,1007.75,50.4614,52.3529,176.116,99.7748,103.99,0.0104561,0.0978198,20.9068,151.551,-0.3026,0.0,0.0
4048,1011.75,50.6498,51.785,178.913,99.7815,104.232,0.010575,0.0968659,20.9063,151.421,-0.319097,0.0,0.0
4064,1015.75,50.9592,52.3572,176.406,99.8191,104.211,0.0103955,0.0961563,20.9081,151.201,-0.314831,0.0,0.0
4080,1019.75,50.4603,51.8755,175.547,99.8629,102.676,0.0102757,0.0970618,20.9088,151.111,-0.203125,0.0,0.0
4096,1023.75,50.5931,52.2048,178.76,99.8823,104.133,0.0101192,0.0967158,20.9075,150.92,-0.304782,0.0,0.0
4112,1027.75,50.4192,52.3624,175.475,99.8689,105.044,0.00983212,0.0977374,20.9087,150.8,-0.369457,0.0,0.0
4128,1031.75,50.7679,52.3188,183.951,99.8764,104.804,0.00973178,0.0980882,20.9073,150.62,-0.352193,0.0,0.0
4144,1035.75,50.6636,52.9206,177.395,99.8685,104.013,0.00965593,0.0994067,20.9056,150.4,-0.297333,0.0,0.0
4160,1039.75,50.8596,52.6266,174.101,99.8665,105.252,0.00971698,0.0982123,20.9054,150.27,-0.384091,0.0,0.0
4176,1043.75,51.2339,52.5317,177.298,99.8206,104.558,0.00963819,0.0994461,20.9055,150.05,-0.339088,0.0,0.0
4192,1047.75,50.5586,52.7161,178.565,99.8013,104.205,0.00951759,0.09893,20.9055,149.869,-0.315772,0.0,0.0
4208,1051.75,51.1684,52.6235,179.503,99.793,104.946,0.00958335,0.102519,20.9071,149.709,-0.368203,0.0,0.0
4224,1055.75,50.92,53.0676,177.774,99.8048,104.345,0.0094699,0.105485,20.9016,149.569,-0.325328,0.0,0.0
4240,1059.75,51.4146,53.3439,180.228,99.7894,105.64,0.00911713,0.105974,20.8986,149.419,-0.416645,0.0,0.0
4256,1063.75,51.1313,52.9069,174.451,99.7796,104.191,0.00912561,0.106603,20.8958,149.229,-0.316353,0.0,0.0
4272,1067.75,51.2841,52.8659,171.607,99.7381,104.125,0.00931157,0.106851,20.8952,149.089,-0.314769,0.0,0.0
4288,1071.75,51.1662,53.2258,179.311,99.716,105.202,0.00929189,0.108486,20.895,148.929,-0.391615,0.0,0.0
4304,1075.75,51.5308,53.3284,179.127,99.6863,103.904,0.00916358,0.108456,20.8931,148.759,-0.303006,0.0,0.0
4320,1079.75,51.7575,53.1635,175.061,99.6484,105.657,0.00897538,0.109933,20.8947,148.568,-0.428127,0.0,0.0
4336,1083.75,51.8029,53.4898,174.32,99.6425,104.787,0.00889236,0.109479,20.8914,148.368,-0.368115,0.0,0.0
4352,1087.75,51.3078,53.352,175.813,99.6184,103.938,0.00906269,0.109319,20.892,148.168,-0.310382,0.0,0.0
4368,1091.75,51.8537,54.0223,177.309,99.6393,104.954,0.00908924,0.111245,20.8929,148.038,-0.379975,0.0,0.0
4384,1095.75,51.9953,53.7393,176.864,99.6555,106.111,0.00898923,0.111905,20.89,147.848,-0.458955,0.0,0.0
4400,1099.75,52.3804,54.2143,177.815,99.6919,104.508,0.00911829,0.112457,20.8892,147.658,-0.345,0.0,0.0
4416,1103.75,51.8061,54.0577,178.146,99.7547,105.635,0.00907425,0.113076,20.8891,147.527,-0.418837,0.0,0.0
4432,1107.75,51.7671,53.9312,172.335,99.8155,105.45,0.00917634,0.113166,20.8894,147.327,-0.401541,0.0,0.0
4448,1111.75,52.0517,54.4748,182.64,99.8886,106.702,0.00912505,0.113921,20.8885,147.207,-0.482475,0.0,0.0
4464,1115.75,52.0407,54.4473,181.6,99.97,105.627,0.00918861,0.116809,20.8881,147.007,-0.4025,0.0,0.0
4480,1119.75,52.5301,54.8859,169.641,100.043,106.629,0.00890692,0.118352,20.8861,146.847,-0.466264,0.0,0.0
4496,1123.75,52.7383,54.8689,176.268,100.107,105.809,0.00871726,0.117806,20.8852,146.597,-0.40511,0.0,0.0
4512,1127.75,52.8322,55.0049,173.657,100.158,105.803,0.0080366,0.125352,20.8831,146.396,-0.400904,0.0,0.0
4528,1131.75,53.2152,55.087,174.184,100.209,106.828,0.0071284,0.129489,20.8717,146.236,-0.467757,0.0,0.0
4544,1135.75,53.256,55.7789,171.847,100.268,105.803,0.00719156,0.129308,20.868,146.066,-0.392919,0.0,0.0
4560,1139.75,53.3498,55.9449,171.543,100.359,105.76,0.0071392,0.13037,20.8674,145.916,-0.383305,0.0,0.0
4576,1143.75,53.254,56.0919,173.849,100.409,107.374,0.00700292,0.132926,20.8652,145.696,-0.490431,0.0,0.0
4592,1147.75,54.0165,56.369,178.853,100.475,105.797,0.0069867,0.133908,20.863,145.526,-0.377438,0.0,0.0
4608,1151.75,53.2665,56.2897,169.643,100.514,106.528,0.00679655,0.134587,20.8602,145.316,-0.424931,0.0,0.0
4624,1155.75,54.1158,56.3309,174.982,100.549,106.952,0.00647567,0.136181,20.8588,145.165,-0.451398,0.0,0.0
4640,1159.75,54.7835,57.4955,172.129,100.584,107.002,0.00667525,0.137798,20.8573,145.025,-0.452346,0.0,0.0
4656,1163.75,54.689,57.8013,170.449,100.595,106.345,0.00635916,0.144937,20.8551,144.735,-0.406525,0.0,0.0
4672,1167.75,54.9509,57.4187,175.872,100.619,108.274,0.00560577,0.147393,20.8479,144.545,-0.536165,0.0,0.0
4688,1171.75,55.11,57.5955,174.654,100.597,107.497,0.00537296,0.14842,20.8433,144.305,-0.485156,0.0,0.0
4704,1175.75,54.6878,58.2063,172.124,100.626,106.692,0.00535203,0.149008,20.8405,144.115,-0.428069,0.0,0.0
4720,1179.75,55.6798,58.1805,174.598,100.606,107.11,0.00499492,0.150384,20.8392,143.944,-0.458121,0.0,0.0
4736,1183.75,55.6034,58.2486,172.12,100.629,107.392,0.00456848,0.151069,20.8376,143.724,-0.475656,0.0,0.0
4752,1187.75,55.4815,58.572,170.039,100.641,107.528,0.00444823,0.152679,20.8374,143.574,-0.484041,0.0,0.0
4768,1191.75,56.0234,58.6525,179.324,100.683,107.828,0.00459971,0.153548,20.8358,143.404,-0.50134,0.0,0.0
4784,1195.75,55.6773,59.1851,170.638,100.712,107.291,0.00417543,0.155237,20.8344,143.144,-0.462786,0.0,0.0
4800,1199.75,56.4633,59.2416,168.252,100.738,106.671,0.00402459,0.157489,20.8323,142.923,-0.418438,0.0,0.0
4816,1203.75,56.2557,59.4717,176.264,100.76,106.013,0.004295,0.158448,20.8296,142.683,-0.371603,0.0,0.0
4832,1207.75,56.0197,59.4256,172.954,100.774,107.397,0.00433305,0.158753,20.8289,142.483,-0.465478,0.0,0.0
4848,1211.75,56.7654,59.253,173.726,100.793,106.774,0.00391438,0.160016,20.8288,142.163,-0.421535,0.0,0.0
4864,1215.75,56.9136,60.2027,174.281,100.822,107.16,0.00373714,0.161642,20.8272,141.973,-0.445802,0.0,0.0
4880,1219.75,56.9248,59.9256,175.629,100.841,107.53,0.00384485,0.162001,20.8255,141.762,-0.469641,0.0,0.0
4896,1223.75,56.9922,60.1038,176.853,100.863,108.075,0.00373034,0.163942,20.8226,141.572,-0.505002,0.0,0.0
4912,1227.75,57.3026,60.3054,169.4,100.862,106.592,0.00370642,0.164724,20.8209,141.372,-0.404046,0.0,0.0
4928,1231.75,57.3628,60.5694,173.248,100.888,108.462,0.0033112,0.164697,20.8193,141.162,-0.529308,0.0,0.0
4944,1235.75,57.401,60.8686,170.681,100.89,106.846,0.0032009,0.167412,20.8189,140.932,-0.419392,0.0,0.0
4960,1239.75,57.6821,60.6975,167.725,100.884,108.758,0.0033901,0.168791,20.8164,140.692,-0.549554,0.0,0.0
4976,1243.75,57.6408,61.3024,175.909,100.879,106.89,0.0035642,0.170076,20.8162,140.441,-0.423193,0.0,0.0
4992,1247.75,57.8931,60.8312,171.25,100.892,107.405,0.00328166,0.169307,20.8163,140.231,-0.457373,0.0,0.0
5008,1251.75,58.0242,61.3638,172.9,100.852,107.639,0.00328799,0.171585,20.8167,139.921,-0.476256,0.0,0.0
5024,1255.75,57.9051,61.3141,170.662,100.833,107.487,0.00354038,0.169772,20.8146,139.631,-0.467302,0.0,0.0
5040,1259.75,57.667,61.3347,171.007,100.829,106.149,0.00335773,0.169447,20.8157,139.43,-0.375954,0.0,0.0
5056,1263.75,58.3817,61.5089,170.664,100.827,106.796,0.00332335,0.172697,20.8159,139.23,-0.420593,0.0,0.0
5072,1267.75,58.4012,61.9796,169.367,100.816,105.19,0.00305815,0.174593,20.8113,139.02,-0.310582,0.0,0.0
5088,1271.75,58.3305,62.1712,170.22,100.81,106.68,0.00287078,0.175834,20.8089,138.79,-0.413856,0.0,0.0
5104,1275.75,58.4619,61.7807,170.682,100.813,107.568,0.00287975,0.175322,20.807,138.54,-0.474236,0.0,0.0
5120,1279.75,58.6874,61.5993,170.082,100.79,107.743,0.00275631,0.175642,20.8079,138.299,-0.487842,0.0,0.0
5136,1283.75,58.9751,62.0675,172.427,100.778,108.014,0.00293137,0.17682,20.8081,138.059,-0.507081,0.0,0.0
5152,1287.75,59.1912,61.9984,167.671,100.786,106.281,0.00297789,0.176762,20.8064,137.879,-0.388177,0.0,0.0
5168,1291.75,59.3009,62.4524,168.153,100.772,107.388,0.00276687,0.179358,20.8051,137.579,-0.465019,0.0,0.0
5184,1295.75,59.4451,62.2367,171.943,100.776,108.127,0.00273393,0.180567,20.8027,137.189,-0.514828,0.0,0.0
5200,1299.75,59.5551,62.3194,172.928,100.779,108.048,0.00278482,0.178951,20.8033,136.978,-0.509265,0.0,0.0
5216,1303.75,59.3609,62.3804,169.232,100.788,107.401,0.00268003,0.179718,20.8031,136.698,-0.464755,0.0,0.0
5232,1307.75,59.572,62.5773,170.46,100.797,107.379,0.00262984,0.181896,20.8024,136.528,-0.462553,0.0,0.0
5248,1311.75,59.6694,62.6789,170.245,100.814,107.758,0.00263465,0.184265,20.8006,136.188,-0.487072,0.0,0.0
5264,1315.75,59.6198,62.9125,168.551,100.824,108.48,0.00274235,0.185668,20.7979,135.957,-0.535227,0.0,0.0
5280,1319.75,60.1155,62.7884,174.674,100.825,107.155,0.00303523,0.185808,20.7952,135.707,-0.445292,0.0,0.0
5296,1323.75,59.8158,63.0151,171.46,100.838,107.206,0.00281917,0.184873,20.7939,135.497,-0.447816,0.0,0.0
5312,1327.75,60.2514,63.6335,169.474,100.835,107.134,0.00281423,0.186297,20.7955,135.247,-0.4431,0.0,0.0
5328,1331.75,59.8641,63.6334,166.984,100.832,107.52,0.00254877,0.186744,20.7945,134.937,-0.469629,0.0,0.0
5344,1335.75,59.8412,63.1991,168.499,100.819,108.039,0.00258996,0.189519,20.7945,134.666,-0.505715,0.0,0.0
5360,1339.75,60.1434,63.6663,170.56,100.795,107.585,0.00288081,0.188878,20.7926,134.366,-0.476703,0.0,0.0
5376,1343.75,60.3899,63.5172,170.353,100.789,105.959,0.00262635,0.189751,20.7933,134.056,-0.365847,0.0,0.0
5392,1347.75,60.2818,63.7953,169.8,100.79,107.821,0.00246042,0.190787,20.7924,133.816,-0.493149,0.0,0.0
5408,1351.75,60.6291,64.04,165.899,100.783,107.248,0.0023713,0.191571,20.7922,133.595,-0.45462,0.0,0.0
5424,1355.75,60.9791,63.819,169.108,100.783,107.401,0.00221898,0.193355,20.791,133.325,-0.465099,0.0,0.0
5440,1359.75,60.7498,64.3231,167.009,100.789,107.916,0.00239241,0.194792,20.7897,133.005,-0.499655,0.0,0.0
5456,1363.75,61.0725,63.9494,172.879,100.802,108.281,0.00231313,0.196578,20.7873,132.725,-0.523301,0.0,0.0
5472,1367.75,61.3901,64.3739,170.934,100.78,106.457,0.0023596,0.198019,20.7854,132.444,-0.400679,0.0,0.0
5488,1371.75,61.3213,64.7851,168.666,100.778,107.415,0.00262461,0.200865,20.7836,132.144,-0.466354,0.0,0.0
5504,1375.75,61.5567,64.8973,169.013,100.757,108.969,0.00261854,0.202438,20.7805,131.834,-0.572955,0.0,0.0
5520,1379.75,61.1674,64.6124,171.15,100.727,107.977,0.00240724,0.204216,20.7796,131.504,-0.508271,0.0,0.0
5536,1383.75,61.5601,65.1443,168.742,100.714,107.015,0.0021944,0.205835,20.7785,131.223,-0.443817,0.0,0.0
5552,1387.75,61.4549,65.4443,172.103,100.716,106.36,0.00221746,0.208875,20.7758,130.813,-0.398675,0.0,0.0
5568,1391.75,61.8569,65.7107,168.533,100.695,106.37,0.00228951,0.20934,20.7739,130.583,-0.400903,0.0,0.0
5584,1395.75,62.6188,65.2901,169.816,100.682,107.958,0.00210172,0.212334,20.772,130.273,-0.510286,0.0,0.0
5600,1399.75,62.3828,65.8641,166.895,100.657,107.043,0.00211192,0.214869,20.7682,129.962,-0.449819,0.0,0.0
5616,1403.75,62.4964,65.7355,164.614,100.629,109.187,0.0021534,0.219427,20.7654,129.662,-0.59688,0.0,0.0
5632,1407.75,62.8311,66.1558,167.813,100.606,106.4,0.00208775,0.220399,20.7621,129.332,-0.409442,0.0,0.0
5648,1411.75,62.7435,66.5791,165.56,100.537,107.735,0.0020545,0.222551,20.7595,128.971,-0.505651,0.0,0.0
5664,1415.75,62.6745,67.3872,163.084,100.482,106.378,0.00186248,0.226922,20.7567,128.691,-0.417007,0.0,0.0
5680,1419.75,63.3756,67.325,166.694,100.418,106.078,0.00192749,0.230011,20.7507,128.341,-0.400948,0.0,0.0
5696,1423.75,63.5203,67.7258,169.066,100.381,105.904,0.0020933,0.232755,20.749,127.931,-0.391651,0.0,0.0
5712,1427.75,63.6523,67.1282,167.403,100.341,107.872,0.00223016,0.235928,20.7459,127.52,-0.529233,0.0,0.0
5728,1431.75,64.0837,68.0442,169.061,100.318,107.401,0.00229735,0.238039,20.742,127.12,-0.498916,0.0,0.0
5744,1435.75,64.227,68.4789,167.854,100.305,107.407,0.00218803,0.240958,20.7378,126.83,-0.500217,0.0,0.0
5760,1439.75,64.4419,68.7958,171.199,100.307,106.41,0.00212604,0.243904,20.733,126.499,-0.43189,0.0,0.0
5776,1443.75,64.807,68.9616,165.032,100.316,108.117,0.00228306,0.247492,20.7284,126.129,-0.547577,0.0,0.0
5792,1447.75,64.6254,68.9892,167.502,100.332,107.567,0.00236111,0.24977,20.7278,125.749,-0.509183,0.0,0.0
5808,1451.75,65.1133,69.4305,170.599,100.327,106.473,0.00231074,0.255045,20.7249,125.378,-0.434793,0.0,0.0
5824,1455.75,65.3862,69.5847,170.618,100.327,106.073,0.002223,0.258976,20.7176,124.948,-0.407213,0.0,0.0
5840,1459.75,65.6129,69.8405,167.832,100.299,108.156,0.00228177,0.259614,20.7142,124.608,-0.551461,0.0,0.0
5856,1463.75,65.7052,69.8832,168.208,100.273,106.532,0.00207526,0.261644,20.7119,124.127,-0.442768,0.0,0.0
5872,1467.75,65.8575,70.1882,169.899,100.262,106.722,0.00196461,0.265442,20.7113,123.697,-0.456577,0.0,0.0
5888,1471.75,66.4338,70.6805,167.104,100.233,106.729,0.00230982,0.268082,20.7064,123.287,-0.459203,0.0,0.0
5904,1475.75,66.7102,71.2757,166.398,100.209,105.735,0.00229096,0.272561,20.7024,122.936,-0.392544,0.0,0.0
5920,1479.75,66.6838,71.5538,166.432,100.175,106.728,0.00202086,0.275992,20.6963,122.526,-0.463342,0.0,0.0
5936,1483.75,66.9872,71.9066,165.192,100.139,107.597,0.00200856,0.280382,20.6901,122.125,-0.525306,0.0,0.0
5952,1487.75,67.7912,72.3643,168.402,100.102,104.607,0.00223146,0.283478,20.6853,121.705,-0.321864,0.0,0.0
5968,1491.75,68.1375,72.4689,172.315,100.075,105.082,0.00235368,0.289888,20.6826,121.235,-0.356994,0.0,0.0
5984,1495.75,68.2453,73.4341,160.845,100.129,105.042,0.00250254,0.296736,20.6773,120.754,-0.350304,0.0,0.0
6000,1499.75,68.3658,73.9116,156.389,100.2,105.527,0.00287846,0.302437,20.6688,120.284,-0.378814,0.0,0.0
6016,1503.75,69.2752,74.6183,159.933,100.305,105.85,0.00291617,0.310837,20.6587,119.814,-0.393482,0.0,0.0
6032,1507.75,69.708,75.2302,166.296,100.356,105.607,0.00290573,0.318083,20.6475,119.323,-0.372966,0.0,0.0
6048,1511.75,70.4449,75.6823,159.161,100.414,105.62,0.0034692,0.324242,20.6384,118.733,-0.369591,0.0,0.0
6064,1515.75,69.9116,75.8296,162.228,100.455,103.778,0.00368192,0.33149,20.6308,118.222,-0.238011,0.0,0.0
6080,1519.75,70.9972,76.7476,161.809,100.487,104.289,0.00401786,0.34095,20.6198,117.732,-0.271568,0.0,0.0
6096,1523.75,71.9287,77.4236,151.721,100.528,104.491,0.00441859,0.349012,20.6074,117.131,-0.282711,0.0,0.0
6112,1527.75,72.2833,78.2219,163.351,100.556,102.341,0.00450076,0.358298,20.5946,116.661,-0.128665,0.0,0.0
6128,1531.75,72.8753,78.6546,163.636,100.608,105.234,0.00491682,0.366288,20.5818,116.07,-0.328705,0.0,0.0
6144,1535.75,73.2404,79.528,163.33,100.631,103.128,0.00504291,0.369961,20.5689,115.48,-0.179213,0.0,0.0
6160,1539.75,73.5051,80.1681,160.807,100.669,104.791,0.00511799,0.377577,20.5674,114.899,-0.293435,0.0,0.0
6176,1543.75,73.7807,80.0393,164.813,100.686,101.884,0.00528106,0.385157,20.5579,114.369,-0.0864907,0.0,0.0
6192,1547.75,74.313,80.2061,160.207,100.712,101.537,0.00562215,0.387821,20.546,113.778,-0.0596579,0.0,0.0
6208,1551.75,74.9455,81.3394,158.875,100.715,100.408,0.00590559,0.385497,20.542,113.198,0.022348,0.0,0.0
6224,1555.75,75.5218,81.4823,158.458,100.746,102.978,0.00612294,0.393118,20.5396,112.797,-0.160301,0.0,0.0
6240,1559.75,75.5985,81.4526,162.346,100.764,101.197,0.00637145,0.394622,20.5305,112.367,-0.0313512,0.0,0.0
6256,1563.75,75.0277,81.4906,160.333,100.771,101.296,0.00656296,0.385967,20.5306,111.877,-0.0380178,0.0,0.0
6272,1567.75,75.4135,81.1532,169.814,100.77,102.547,0.00658578,0.378211,20.5387,111.386,-0.127805,0.0,0.0
6288,1571.75,75.3004,80.3217,170.187,100.764,102.022,0.00664805,0.360054,20.5446,111.096,-0.0907334,0.0,0.0
6304,1575.75,74.5132,79.4056,167.872,100.759,103.458,0.0064015,0.340265,20.5665,110.806,-0.193309,0.0,0.0
6320,1579.75,73.6107,78.555,169.915,100.757,104.227,0.00573234,0.315227,20.5909,110.545,-0.247569,0.0,0.0
6336,1583.75,73.0817,77.4423,169.247,100.746,103.758,0.00465419,0.288892,20.6142,110.335,-0.215367,0.0,0.0
6352,1587.75,71.8753,76.1909,169.093,100.715,105.085,0.00349728,0.25703,20.6476,110.055,-0.310592,0.0,0.0
6368,1591.75,71.2087,75.0316,168.361,100.683,105.944,0.0031053,0.230721,20.6823,109.865,-0.372467,0.0,0.0
6384,1595.75,69.9761,72.9258,171.253,100.667,106.259,0.00325473,0.208762,20.7132,109.705,-0.395352,0.0,0.0
6400,1599.75,69.6159,72.0972,172.302,100.638,106.955,0.00322908,0.19124,20.7403,109.635,-0.445176,0.0,0.0
6416,1603.75,69.1093,71.412,167.926,100.619,106.084,0.00333026,0.178835,20.7611,109.555,-0.386715,0.0,0.0
6432,1607.75,68.1256,70.4672,170.078,100.582,105.616,0.00353328,0.16891,20.776,109.374,-0.357118,0.0,0.0
6448,1611.75,67.4898,69.3788,168.943,100.572,105.876,0.00379627,0.160074,20.7883,109.274,-0.375844,0.0,0.0
6464,1615.75,66.5302,68.1853,173.849,100.567,106.316,0.00404433,0.152286,20.8,109.194,-0.406454,0.0,0.0
6480,1619.75,66.0451,67.391,171.642,100.551,106.472,0.00418755,0.145315,20.8104,109.074,-0.418413,0.0,0.0
6496,1623.75,65.3335,66.7234,169.95,100.519,108.193,0.00435756,0.13996,20.8199,108.944,-0.537968,0.0,0.0
6512,1627.75,64.1154,66.0668,175.928,100.511,106.565,0.00426144,0.133421,20.8285,108.834,-0.427647,0.0,0.0
6528,1631.75,63.9693,65.3056,177.747,100.491,106.621,0.00449106,0.130488,20.8336,108.714,-0.432968,0.0,0.0
6544,1635.75,63.2263,64.4021,175.107,100.489,107.981,0.00459637,0.126835,20.8391,108.544,-0.525836,0.0,0.0
6560,1639.75,62.9978,63.6323,176.871,100.491,107.893,0.0049584,0.123726,20.8435,108.494,-0.519765,0.0,0.0
6576,1643.75,62.4218,63.395,176.599,100.491,106.651,0.00505274,0.119124,20.8485,108.434,-0.435015,0.0,0.0
6592,1647.75,62.373,62.7938,170.324,100.48,107.744,0.00522209,0.117051,20.8537,108.424,-0.51039,0.0,0.0
6608,1651.75,61.8101,62.628,175.429,100.436,106.782,0.00551659,0.115345,20.8577,108.324,-0.447998,0.0,0.0
6624,1655.75,61.3667,62.0217,178.137,100.399,106.544,0.00537874,0.113536,20.8594,108.173,-0.434401,0.0,0.0
6640,1659.75,60.6595,61.2325,174.549,100.382,108.258,0.00544089,0.111948,20.8614,108.133,-0.552329,0.0,0.0
6656,1663.75,59.9918,60.9942,177.66,100.379,106.891,0.00557901,0.109572,20.8638,108.113,-0.459667,0.0,0.0
6672,1667.75,59.7347,60.5812,177.429,100.398,107.917,0.00548013,0.107309,20.8674,108.043,-0.5281,0.0,0.0
6688,1671.75,59.5935,60.2826,175.071,100.384,107.303,0.00539353,0.106333,20.8707,107.963,-0.487406,0.0,0.0
6704,1675.75,59.0916,59.9371,173.065,100.371,107.812,0.00561209,0.106458,20.8715,107.843,-0.522939,0.0,0.0
6720,1679.75,59.1552,58.9418,175.906,100.37,106.781,0.00602394,0.103756,20.8729,107.753,-0.452733,0.0,0.0
6736,1683.75,58.1112,58.8674,173.247,100.388,105.619,0.0062758,0.100636,20.8791,107.713,-0.371419,0.0,0.0
6752,1687.75,58.3851,58.4242,172.579,100.415,107.546,0.00636704,0.100004,20.8833,107.703,-0.50164,0.0,0.0
6768,1691.75,57.5588,58.4011,171.779,100.439,107.065,0.00646235,0.0968537,20.8862,107.613,-0.467127,0.0,0.0
6784,1695.75,57.3551,57.8215,175.074,100.434,106.695,0.00687005,0.0961157,20.8893,107.593,-0.442219,0.0,0.0
6800,1699.75,57.0557,57.5133,177.871,100.439,107.369,0.0068571,0.095765,20.8901,107.503,-0.487866,0.0,0.0
6816,1703.75,56.9789,57.417,179.933,100.474,107.998,0.00661794,0.0936368,20.8914,107.443,-0.528085,0.0,0.0
6832,1707.75,56.9421,57.2115,177.884,100.481,106.606,0.00646499,0.0918574,20.895,107.343,-0.432657,0.0,0.0
6848,1711.75,56.0627,56.7873,176.629,100.464,107.022,0.00663743,0.0915945,20.8978,107.253,-0.462362,0.0,0.0
6864,1715.75,55.7574,56.1492,174.641,100.446,108.414,0.00678487,0.0903285,20.9008,107.213,-0.558229,0.0,0.0
6880,1719.75,55.9084,56.2897,177.471,100.409,109.09,0.0066736,0.0904235,20.9023,107.103,-0.606308,0.0,0.0
6896,1723.75,55.7906,56.1206,175.917,100.4,106.847,0.00677711,0.0902546,20.9006,106.962,-0.455056,0.0,0.0
6912,1727.75,55.546,56.0374,175.114,100.358,106.872,0.00676797,0.0901269,20.8999,106.982,-0.459896,0.0,0.0
6928,1731.75,54.5123,54.8395,174.334,100.394,107.313,0.00681825,0.0910912,20.8991,107.062,-0.487359,0.0,0.0
6944,1735.75,54.3076,54.8294,174.307,100.528,106.474,0.00666299,0.0906925,20.8974,106.942,-0.420221,0.0,0.0
6960,1739.75,54.0504,54.5195,178.147,100.578,106.377,0.00681392,0.0895124,20.8991,106.872,-0.409953,0.0,0.0
6976,1743.75,54.6424,54.576,178.056,100.651,106.186,0.00700861,0.087797,20.9011,106.842,-0.391412,0.0,0.0
6992,1747.75,54.0285,54.4345,175.617,100.687,107.664,0.00702927,0.0875632,20.9035,106.752,-0.489888,0.0,0.0
7008,1751.75,53.8988,54.8631,177.918,100.717,107.063,0.00680454,0.0901276,20.9036,106.692,-0.446794,0.0,0.0
7024,1755.75,53.9319,54.4511,177.171,100.728,108.123,0.00676154,0.0910347,20.902,106.742,-0.518076,0.0,0.0
7040,1759.75,53.5519,54.8378,173.019,100.738,106.863,0.00656421,0.0896693,20.901,106.662,-0.431622,0.0,0.0
7056,1763.75,53.1277,54.5318,176.781,100.736,108.595,0.00657302,0.0886745,20.9027,106.532,-0.549358,0.0,0.0
7072,1767.75,53.4514,54.0222,175.532,100.74,107.436,0.00680626,0.0879005,20.9031,106.492,-0.470606,0.0,0.0
7088,1771.75,53.3566,54.024,176.457,100.753,106.822,0.00703292,0.0875579,20.903,106.462,-0.427743,0.0,0.0
7104,1775.75,52.8525,54.5269,180.723,100.746,107.212,0.00688594,0.0869949,20.9043,106.342,-0.454858,0.0,0.0
7120,1779.75,52.9139,53.719,171.639,100.76,107.183,0.00680486,0.0870076,20.9046,106.382,-0.451889,0.0,0.0
7136,1783.75,53.3026,53.8055,175.98,100.766,107.854,0.00674604,0.0864165,20.9053,106.402,-0.497131,0.0,0.0
7152,1787.75,53.1413,53.5219,181.442,100.762,108.011,0.00644618,0.0870087,20.9074,106.352,-0.50799,0.0,0.0
7168,1791.75,53.1284,53.6857,176.699,100.76,107.964,0.006255,0.0870591,20.907,106.292,-0.504996,0.0,0.0
7184,1795.75,53.399,53.9049,179.782,100.757,107.691,0.00650277,0.0877564,20.9058,106.242,-0.486686,0.0,0.0
7200,1799.75,53.1958,53.4451,177.198,100.778,107.577,0.00658944,0.0870759,20.9056,106.172,-0.477417,0.0,0.0
7216,1803.75,52.585,53.5504,175.068,100.755,107.112,0.00638862,0.0880233,20.9064,106.142,-0.447443,0.0,0.0
7232,1807.75,52.8629,53.5562,178.824,100.757,107.286,0.00646453,0.0867126,20.9064,105.972,-0.459109,0.0,0.0
7248,1811.75,52.4762,53.2574,176.748,100.765,107.946,0.00641769,0.0864116,20.9064,106.002,-0.503369,0.0,0.0
7264,1815.75,52.7936,53.0323,173.488,100.767,107.591,0.00612278,0.0870385,20.9059,105.982,-0.479129,0.0,0.0
7280,1819.75,52.1371,53.6377,180.408,100.756,107.469,0.00625009,0.0868364,20.9064,105.911,-0.471672,0.0,0.0
7296,1823.75,52.6403,53.3339,177.87,100.751,106.83,0.0064078,0.0875018,20.9065,105.871,-0.428393,0.0,0.0
7312,1827.75,52.3418,53.034,176.912,100.749,107.458,0.00646242,0.0879239,20.9049,105.831,-0.471389,0.0,0.0
7328,1831.75,52.4132,53.1492,176.43,100.748,107.449,0.00623578,0.0872921,20.9043,105.781,-0.470902,0.0,0.0
7344,1835.75,52.6399,52.915,180.856,100.746,107.99,0.00620832,0.0873977,20.9057,105.751,-0.507771,0.0,0.0
7360,1839.75,52.2016,53.19,176.306,100.755,107.519,0.00580201,0.0869961,20.9059,105.721,-0.475119,0.0,0.0
7376,1843.75,51.9672,52.98,178.308,100.761,106.574,0.0059197,0.0878493,20.9055,105.661,-0.410168,0.0,0.0
7392,1847.75,52.1569,53.0623,176.003,100.745,106.503,0.0062608,0.087368,20.9051,105.601,-0.406412,0.0,0.0
7396,1848.75,51.9953,53.0761,179.898,100.748,107.362,0.00623631,0.0871448,20.9051,105.601,-0.464958,0.0,0.0