File: 01_Data/Particleboard/Cone/Particleboard_Cone_HF25Scan_230705_R2.csv
Names,Time,Stack TC,Smoke TC,Exh Press,Smoke Comp,Smoke Meas,CO Meter,CO2 Meter,O2 Meter,Sample Mass,Ext Coeff,Start Test,Flame Verif
Chan Gain,,500,500,1,1,1,1,1,1,1,1,1.0,1.0
Offset,,0,0,0.236064,0,0,0,0,0,0,0,0.0,0.0
Gain,,1,1,25.011,12.9459,33.7291,1,1,1,1.00086,0.833623,1.0,1.0
Units,sec,C,C,Pa,%,%,%,%,%,g,/m,,
Baseline,,46.3357,47.4613,180.677,100.232,100.79,0.000982158,0.0437829,20.9641,-444.869,-0.0404673,,
16,3.75,44.7821,45.4622,176.835,100.392,100.728,0.00084759,0.0468193,20.9608,212.554,-0.0244309,0.0,0.0
32,7.75,45.2185,46.2708,185.664,100.409,101.03,0.000997014,0.0461949,20.9601,212.524,-0.0451133,0.0,0.0
48,11.75,45.0622,46.0918,183.864,100.401,101.107,0.000816904,0.0461101,20.9633,212.413,-0.0512166,0.0,0.0
64,15.75,45.1795,46.3458,178.763,100.44,101.839,0.000733373,0.0455373,20.9624,212.413,-0.101137,0.0,0.0
80,19.75,45.2422,46.638,181.149,100.424,100.761,0.000875733,0.0449972,20.9637,212.373,-0.0244908,0.0,0.0
96,23.75,45.42,46.4599,181.31,100.425,101.033,0.000774161,0.044616,20.9642,212.323,-0.0441284,0.0,0.0
112,27.75,45.485,46.9154,182.319,100.424,101.709,0.000531434,0.0438953,20.9643,212.283,-0.092969,0.0,0.0
128,31.75,45.8437,46.8271,181.165,100.436,100.456,0.00073755,0.0436011,20.9649,212.263,-0.00140796,0.0,0.0
144,35.75,45.4568,46.8492,178.293,100.435,101.079,0.000948039,0.0432644,20.965,212.173,-0.0467607,0.0,0.0
160,39.75,45.4989,46.6589,176.79,100.406,100.927,0.00100635,0.042998,20.9645,212.123,-0.0378312,0.0,0.0
176,43.75,45.9709,47.0271,183.651,100.445,100.107,0.00117935,0.0428954,20.9659,212.013,0.0246689,0.0,0.0
192,47.75,45.8198,46.7606,181.065,100.452,99.8791,0.0010183,0.0428646,20.9664,211.963,0.0418514,0.0,0.0
208,51.75,45.5791,46.388,180.036,100.438,101.521,0.000905329,0.0429215,20.9664,211.943,-0.0784069,0.0,0.0
224,55.75,45.5123,47.3118,179.76,100.441,100.73,0.000772473,0.0429915,20.9668,211.923,-0.0210416,0.0,0.0
240,59.75,45.906,47.298,176.238,100.475,101.489,0.000595448,0.043254,20.966,211.863,-0.0734047,0.0,0.0
256,63.75,45.8393,47.1797,178.408,100.508,100.786,0.000603502,0.0434401,20.9652,211.873,-0.0201592,0.0,0.0
272,67.75,45.5739,47.1455,182.077,100.539,101.104,0.000960996,0.0435054,20.965,211.873,-0.0409574,0.0,0.0
288,71.75,46.0925,47.3066,180.984,100.507,101.386,0.00095702,0.0435703,20.965,211.843,-0.0636846,0.0,0.0
304,75.75,46.0883,47.3692,183.335,100.493,100.635,0.00115969,0.0436384,20.965,211.763,-0.010293,0.0,0.0
320,79.75,45.8289,47.5809,173.43,100.472,100.793,0.00119484,0.0438517,20.9656,211.713,-0.0233548,0.0,0.0
336,83.75,45.9831,47.334,179.285,100.439,100.192,0.000880553,0.0438891,20.9675,211.593,0.017971,0.0,0.0
352,87.75,46.2807,47.5629,180.901,100.426,100.176,0.000910003,0.0440267,20.9667,211.593,0.0182527,0.0,0.0
368,91.75,46.1632,47.9617,177.684,100.439,100.313,0.00104873,0.0443824,20.9672,211.563,0.00911159,0.0,0.0
384,95.75,45.9911,47.7504,180.603,100.449,100.023,0.000827986,0.0446461,20.9674,211.513,0.0310794,0.0,0.0
400,99.75,46.1122,47.4675,181.446,100.451,100.077,0.000789445,0.0447927,20.966,211.483,0.0273103,0.0,0.0
416,103.75,46.0089,47.8183,181.488,100.471,99.6619,0.000878357,0.0452173,20.967,211.393,0.0591216,0.0,0.0
432,107.75,46.6185,47.4676,179.567,100.495,100.523,0.00107277,0.0453765,20.9666,211.393,-0.00206713,0.0,0.0
448,111.75,46.228,47.0547,180.157,100.509,99.7895,0.00111415,0.0458109,20.9664,211.353,0.0525512,0.0,0.0
464,115.75,46.4904,47.5188,178.945,100.546,99.138,0.000916475,0.0461116,20.9678,211.253,0.103127,0.0,0.0
480,119.75,46.231,47.8641,183.137,100.566,99.2708,0.00117566,0.0467222,20.9669,211.142,0.0948042,0.0,0.0
496,123.75,46.6884,47.823,180.652,100.595,99.3871,0.00137329,0.0471645,20.9667,211.022,0.0883383,0.0,0.0
512,127.75,46.389,48.4042,175.614,100.609,99.8956,0.00138984,0.0479385,20.9665,210.972,0.0520267,0.0,0.0
528,131.75,46.5781,47.7796,179.157,100.64,98.1457,0.00108217,0.0483187,20.965,210.922,0.18355,0.0,0.0
544,135.75,46.3157,47.2775,184.437,100.651,99.3963,0.00116642,0.0492388,20.9629,210.842,0.0917334,0.0,0.0
560,139.75,46.6334,47.5676,181.322,100.659,99.5291,0.00128563,0.0500218,20.9624,210.792,0.0825449,0.0,0.0
576,143.75,46.6657,48.0523,175.048,100.638,98.5307,0.00125517,0.0508024,20.9626,210.652,0.154722,0.0,0.0
592,147.75,46.0894,47.882,179.001,100.607,98.1848,0.00163894,0.0513902,20.9624,210.552,0.178196,0.0,0.0
608,151.75,46.801,48.2754,178.237,100.576,102.895,0.002071,0.0527073,20.9612,210.332,-0.166691,0.0,1.0
624,155.75,47.1528,50.0075,167.781,100.506,103.727,0.00232523,0.0541148,20.9592,209.911,-0.230646,0.0,1.0
640,159.75,49.1178,52.5795,167.262,100.411,101.208,0.00271829,0.0735892,20.9572,209.501,-0.0578174,0.0,0.0
656,163.75,50.9687,55.6037,167.168,100.347,102.335,0.00282574,0.151633,20.9203,208.85,-0.143467,0.0,0.0
672,167.75,53.1088,58.0127,163.683,100.282,101.577,0.00273511,0.237936,20.8191,208.38,-0.0938254,0.0,0.0
688,171.75,55.3093,61.2422,164.841,100.373,102.188,0.00278228,0.288572,20.7365,207.84,-0.131012,0.0,0.0
704,175.75,56.2093,63.4171,164.061,100.349,100.453,0.00318436,0.321677,20.6783,207.319,-0.00758917,0.0,0.0
720,179.75,58.5499,65.2913,156.026,100.252,102.735,0.00346697,0.342517,20.6389,206.729,-0.178906,0.0,0.0
736,183.75,59.8733,67.4131,159.866,100.247,98.6892,0.00382061,0.352925,20.6161,206.108,0.114521,0.0,0.0
752,187.75,61.4354,69.0195,163.324,100.29,100.425,0.00432832,0.361899,20.6041,205.508,-0.00981076,0.0,0.0
768,191.75,62.2266,70.6351,164.673,100.305,100.412,0.00450498,0.369108,20.5923,204.907,-0.00778769,0.0,0.0
784,195.75,63.7302,70.9647,164.364,100.348,99.7051,0.00476932,0.368015,20.5897,204.296,0.0469737,0.0,0.0
800,199.75,64.4329,71.8531,160.537,100.387,98.9517,0.00505395,0.366169,20.5877,203.646,0.105322,0.0,0.0
816,203.75,65.0903,72.1636,161.758,100.437,101.894,0.00535929,0.360449,20.5925,203.005,-0.105283,0.0,0.0
832,207.75,65.1441,72.9829,163.792,100.513,99.174,0.00560828,0.351936,20.5989,202.445,0.0980845,0.0,0.0
848,211.75,66.0307,73.4294,166.067,100.577,100.341,0.0054789,0.346234,20.6063,201.944,0.0171466,0.0,0.0
864,215.75,66.2639,73.7468,159.263,100.657,100.206,0.00493206,0.341973,20.6132,201.354,0.0328369,0.0,0.0
880,219.75,67.0764,74.3468,162.99,100.708,102.335,0.00514971,0.339151,20.6177,200.803,-0.1172,0.0,0.0
896,223.75,67.2417,74.372,169.552,100.765,102.426,0.00522605,0.33762,20.621,200.283,-0.11954,0.0,0.0
912,227.75,67.9025,74.6809,163.386,100.835,100.311,0.00485426,0.338802,20.6207,199.682,0.0380558,0.0,0.0
928,231.75,68.672,75.1485,161.776,100.88,102.547,0.00468835,0.339049,20.618,199.212,-0.119839,0.0,0.0
944,235.75,68.4436,74.8561,164.936,100.92,101.916,0.00457853,0.336303,20.6174,198.622,-0.0718429,0.0,0.0
960,239.75,68.4035,75.5894,158.935,100.956,103.353,0.00432571,0.327087,20.6212,198.051,-0.17159,0.0,0.0
976,243.75,68.4672,75.1329,167.281,100.994,103.677,0.00413646,0.324621,20.6303,197.561,-0.191748,0.0,0.0
992,247.75,68.4833,74.6466,159.449,101.012,102.847,0.00427309,0.319104,20.6351,197.1,-0.131637,0.0,0.0
1008,251.75,68.3527,75.3197,166.625,101.049,102.124,0.00423519,0.312835,20.6418,196.6,-0.0773915,0.0,0.0
1024,255.75,68.8861,75.2711,166.204,101.086,102.05,0.00401267,0.303857,20.6472,196.209,-0.0693956,0.0,0.0
1040,259.75,69.0264,74.3855,170.791,101.119,102.001,0.00352694,0.300405,20.6567,195.729,-0.0634824,0.0,0.0
1056,263.75,68.2797,74.7419,167.007,101.132,104.215,0.00351508,0.293715,20.6604,195.279,-0.2196,0.0,0.0
1072,267.75,68.7548,74.4827,167.139,101.141,104.63,0.00340472,0.284212,20.6692,194.838,-0.248035,0.0,0.0
1088,271.75,68.1532,74.0424,172.546,101.149,104.308,0.00313049,0.279405,20.6803,194.358,-0.224941,0.0,0.0
1104,275.75,68.6468,73.573,169.549,101.146,103.764,0.00300042,0.273559,20.6857,193.948,-0.186868,0.0,0.0
1120,279.75,68.6699,73.2875,167.169,101.151,103.171,0.00334018,0.268735,20.6917,193.497,-0.144594,0.0,0.0
1136,283.75,68.1408,72.8153,169.557,101.153,104.224,0.00328503,0.261303,20.6981,193.137,-0.218679,0.0,0.0
1152,287.75,67.7138,72.0158,165.138,101.157,104.897,0.00309859,0.254303,20.7097,192.797,-0.265472,0.0,0.0
1168,291.75,67.6569,71.8744,163.733,101.156,103.235,0.00317904,0.249749,20.7165,192.436,-0.148773,0.0,0.0
1184,295.75,67.2533,71.655,168.842,101.15,103.334,0.00299545,0.244298,20.7224,192.046,-0.156169,0.0,0.0
1200,299.75,66.8388,71.5035,170.344,101.148,102.954,0.00288711,0.236424,20.7285,191.716,-0.129413,0.0,0.0
1216,303.75,66.9829,70.928,164.286,101.139,103.272,0.0029234,0.231042,20.7379,191.315,-0.152569,0.0,0.0
1232,307.75,66.7716,70.5316,169.919,101.124,104.61,0.00289903,0.224699,20.7426,191.005,-0.247796,0.0,0.0
1248,311.75,66.039,69.959,167.781,101.084,102.283,0.00298279,0.219488,20.7489,190.585,-0.0861886,0.0,0.0
1264,315.75,66.0013,69.539,173.759,101.067,103.944,0.00287528,0.215322,20.7552,190.244,-0.205266,0.0,0.0
1280,319.75,65.3722,69.3897,171.914,101.006,103.139,0.00299729,0.210093,20.7621,189.924,-0.152822,0.0,0.0
1296,323.75,65.8549,68.4686,167.915,100.968,105.919,0.00321789,0.20859,20.7665,189.644,-0.350074,0.0,0.0
1312,327.75,65.4833,68.646,172.686,100.916,103.216,0.00312749,0.205728,20.7698,189.354,-0.164817,0.0,0.0
1328,331.75,65.4668,68.4747,171.53,100.825,104.64,0.00332383,0.20255,20.7724,189.023,-0.271541,0.0,0.0
1344,335.75,65.0479,67.4578,172.306,100.743,103.603,0.00351641,0.199291,20.7777,188.753,-0.204706,0.0,0.0
1360,339.75,64.5139,67.3887,166.033,100.666,104.172,0.00379885,0.197489,20.7817,188.443,-0.250396,0.0,0.0
1376,343.75,64.1776,67.2664,169.873,100.558,104.29,0.00360783,0.195352,20.7838,188.113,-0.266467,0.0,0.0
1392,347.75,63.534,67.1092,168.6,100.434,103.518,0.0032623,0.192934,20.7863,187.822,-0.221163,0.0,0.0
1408,351.75,63.8943,66.6707,169.027,100.325,105.716,0.00325148,0.19088,20.7883,187.482,-0.382763,0.0,0.0
1424,355.75,63.7348,66.0894,170.454,100.234,103.026,0.00312873,0.190438,20.7905,187.172,-0.200893,0.0,0.0
1440,359.75,63.2924,66.3389,170.863,100.167,103.34,0.00297662,0.188383,20.7929,186.901,-0.228015,0.0,0.0
1456,363.75,63.2119,66.4108,170.495,100.11,103.363,0.00324389,0.18637,20.7956,186.641,-0.233872,0.0,0.0
1472,367.75,63.1158,65.7211,171.292,100.055,102.823,0.0035314,0.185246,20.7979,186.331,-0.199525,0.0,0.0
1488,371.75,63.0917,65.3431,173.67,99.9905,101.077,0.00367332,0.182952,20.7999,186.081,-0.0790439,0.0,0.0
1504,375.75,62.7038,65.4309,171.064,99.9439,104.471,0.00367727,0.180506,20.8023,185.78,-0.323942,0.0,0.0
1520,379.75,62.5237,65.0228,170.646,99.8704,101.958,0.00329954,0.179652,20.8034,185.47,-0.1513,0.0,0.0
1536,383.75,62.4473,64.9854,171.953,99.8029,102.647,0.00325761,0.177313,20.8045,185.18,-0.205471,0.0,0.0
1552,387.75,62.2753,64.8003,171.208,99.7306,102.022,0.00317811,0.175955,20.8082,184.85,-0.166123,0.0,0.0
1568,391.75,61.725,64.64,166.591,99.6899,103.357,0.00352263,0.174644,20.8092,184.549,-0.264177,0.0,0.0
1584,395.75,61.5941,64.4705,171.971,99.6168,102.257,0.0035825,0.17248,20.8112,184.349,-0.191273,0.0,0.0
1600,399.75,62.0878,64.2052,170.833,99.58,102.126,0.00360558,0.172911,20.8133,184.099,-0.184617,0.0,0.0
1616,403.75,61.9865,64.1729,174.368,99.5358,102.406,0.00369535,0.172273,20.8128,183.839,-0.207886,0.0,0.0
1632,407.75,61.9527,64.4247,175.392,99.4947,102.188,0.00379797,0.171004,20.8129,183.589,-0.195307,0.0,0.0
1648,411.75,61.5039,64.0277,176.503,99.471,103.284,0.00348068,0.170456,20.813,183.288,-0.275077,0.0,0.0
1664,415.75,61.787,64.4268,170.971,99.4422,102.004,0.00336598,0.169143,20.8123,183.068,-0.185973,0.0,0.0
1680,419.75,61.6627,63.7331,169.265,99.4335,102.94,0.00370449,0.1676,20.8147,182.818,-0.253456,0.0,0.0
1696,423.75,61.43,63.4874,171.942,99.4347,101.713,0.00363517,0.166595,20.8174,182.468,-0.165686,0.0,0.0
1712,427.75,61.3309,63.3331,169.59,99.4441,102.873,0.00338926,0.166988,20.8185,182.177,-0.247916,0.0,0.0
1728,431.75,60.8419,63.5035,169.462,99.4461,102.696,0.00316231,0.164788,20.8202,181.957,-0.235176,0.0,0.0
1744,435.75,61.0249,63.3688,171.17,99.4702,103.608,0.00321987,0.162679,20.8222,181.737,-0.298056,0.0,0.0
1760,439.75,60.7062,62.9431,174.394,99.4904,102.387,0.00345446,0.163461,20.8235,181.487,-0.209829,0.0,0.0
1776,443.75,60.1088,62.5925,172.579,99.5311,103.898,0.00383454,0.161962,20.8227,181.167,-0.313969,0.0,0.0
1792,447.75,60.4762,62.7795,172.297,99.5749,102.708,0.00383176,0.161885,20.8246,180.926,-0.226518,0.0,0.0
1808,451.75,60.4706,62.479,166.801,99.6361,102.696,0.00398997,0.161071,20.8251,180.686,-0.221216,0.0,0.0
1824,455.75,60.794,63.0442,176.089,99.695,101.553,0.00427501,0.161564,20.8251,180.396,-0.135011,0.0,0.0
1840,459.75,60.5619,63.3484,171.018,99.7989,103.222,0.00401792,0.160648,20.8252,180.086,-0.246637,0.0,0.0
1856,463.75,60.4122,62.8249,172.979,99.8653,104.805,0.00377942,0.160537,20.8252,179.875,-0.353075,0.0,0.0
1872,467.75,60.2107,62.6149,167.678,99.919,101.516,0.0035789,0.159967,20.8251,179.685,-0.11593,0.0,0.0
1888,471.75,59.9553,62.6221,170.257,100.002,103.1,0.00377998,0.157988,20.826,179.385,-0.22309,0.0,0.0
1904,475.75,60.1872,62.5585,170.744,100.092,104.817,0.00375797,0.158199,20.8287,179.075,-0.337307,0.0,0.0
1920,479.75,59.9099,62.4405,176.132,100.166,102.055,0.00404586,0.157973,20.8275,178.915,-0.13666,0.0,0.0
1936,483.75,59.9461,62.3988,168.78,100.249,104.539,0.00418508,0.156945,20.8291,178.664,-0.306385,0.0,0.0
1952,487.75,59.8664,62.7445,169.544,100.329,102.772,0.0042884,0.156563,20.8308,178.414,-0.175911,0.0,0.0
1968,491.75,60.0846,62.1236,173.717,100.372,102.572,0.00428414,0.156957,20.8322,178.164,-0.158522,0.0,0.0
1984,495.75,59.9357,62.267,172.279,100.437,103.907,0.004234,0.155082,20.8328,177.894,-0.248365,0.0,0.0
2000,499.75,60.1178,62.5146,174.9,100.479,103.86,0.00428449,0.155138,20.8329,177.613,-0.241984,0.0,0.0
2016,503.75,59.8626,61.8765,173.906,100.534,103.238,0.00454977,0.155322,20.8329,177.463,-0.194084,0.0,0.0
2032,507.75,59.6498,61.5953,169.599,100.578,104.484,0.00426095,0.154594,20.8329,177.193,-0.278659,0.0,0.0
2048,511.75,59.6625,61.8566,173.098,100.6,104.623,0.00427767,0.154482,20.8329,176.943,-0.286741,0.0,0.0
2064,515.75,59.6447,62.2508,170.304,100.609,104.099,0.00421079,0.153967,20.8326,176.673,-0.249398,0.0,0.0
2080,519.75,59.6831,61.7678,172.033,100.644,103.47,0.00405522,0.154595,20.8344,176.462,-0.202501,0.0,0.0
2096,523.75,59.3464,61.2759,170.718,100.663,104.436,0.00423622,0.153363,20.8339,176.232,-0.26907,0.0,0.0
2112,527.75,59.2832,61.3897,175.413,100.672,104.376,0.00436138,0.152182,20.8347,175.962,-0.264258,0.0,0.0
2128,531.75,59.1125,61.1639,170.928,100.689,103.463,0.00441775,0.150191,20.8364,175.632,-0.198749,0.0,0.0
2144,535.75,59.0538,61.2027,174.138,100.689,102.778,0.00461472,0.150363,20.837,175.392,-0.150108,0.0,0.0
2160,539.75,59.0168,61.0174,169.943,100.698,103.905,0.00463703,0.149631,20.8381,175.231,-0.229232,0.0,0.0
2176,543.75,58.4836,61.0686,173.701,100.674,104.111,0.00463091,0.148136,20.8393,175.041,-0.245428,0.0,0.0
2192,547.75,58.7786,60.8786,170.825,100.689,104.489,0.00483095,0.144802,20.841,174.831,-0.270923,0.0,0.0
2208,551.75,58.5361,60.6802,171.847,100.649,102.892,0.00507992,0.14569,20.8437,174.621,-0.16116,0.0,0.0
2224,555.75,58.7934,60.8559,168.916,100.639,103.124,0.00500022,0.145444,20.8425,174.421,-0.178318,0.0,0.0
2240,559.75,58.294,60.7445,177.453,100.595,103.359,0.00526593,0.143827,20.8433,174.13,-0.198259,0.0,0.0
2256,563.75,58.5641,60.5295,177.643,100.543,104.131,0.00539831,0.142715,20.8458,173.84,-0.256435,0.0,0.0
2272,567.75,58.9464,60.5032,177.466,100.488,103.379,0.00566041,0.140169,20.8475,173.64,-0.207428,0.0,0.0
2288,571.75,57.9375,60.0451,172.756,100.438,102.644,0.00589662,0.138756,20.8502,173.48,-0.158852,0.0,0.0
2304,575.75,58.2376,59.9065,168.595,100.372,104.662,0.00576866,0.139256,20.8504,173.24,-0.306092,0.0,0.0
2320,579.75,57.7351,60.1734,170.693,100.303,102.928,0.00588714,0.134178,20.8511,173.07,-0.188878,0.0,0.0
2336,583.75,58.2885,59.9123,177.398,100.245,104.177,0.00611045,0.134035,20.8565,172.869,-0.281314,0.0,0.0
2352,587.75,57.7198,59.4151,173.388,100.163,102.027,0.00594198,0.135005,20.858,172.659,-0.134841,0.0,0.0
2368,591.75,57.5708,59.1236,171.829,100.11,102.383,0.00623721,0.132676,20.8564,172.429,-0.164217,0.0,0.0
2384,595.75,57.2788,58.8245,173.291,100.032,102.288,0.0066597,0.127813,20.8614,172.209,-0.163065,0.0,0.0
2400,599.75,57.001,58.9394,169.467,99.9779,102.491,0.00719244,0.123833,20.8663,171.949,-0.181504,0.0,0.0
2416,603.75,56.8609,58.774,179.612,99.9459,102.973,0.00783268,0.121907,20.8708,171.768,-0.218208,0.0,0.0
2432,607.75,56.5398,58.0009,179.144,99.9273,103.067,0.00807406,0.120727,20.8721,171.588,-0.226215,0.0,0.0
2448,611.75,56.5233,57.9032,177.573,99.9933,100.885,0.00827552,0.120616,20.8732,171.388,-0.0649031,0.0,0.0
2464,615.75,56.448,57.8761,180.007,100.096,103.193,0.00834129,0.118053,20.8745,171.228,-0.222813,0.0,0.0
2480,619.75,56.5074,57.8392,180.834,100.17,103.386,0.008387,0.116585,20.8765,170.998,-0.231061,0.0,0.0
2496,623.75,56.1985,57.1817,174.608,100.236,103.565,0.00859123,0.114998,20.8788,170.798,-0.238932,0.0,0.0
2512,627.75,55.7573,57.2135,175.783,100.314,103.263,0.00836448,0.114689,20.8819,170.567,-0.211858,0.0,0.0
2528,631.75,55.5752,57.1445,178.769,100.392,102.341,0.00824218,0.113723,20.8835,170.367,-0.140655,0.0,0.0
2544,635.75,55.2824,56.3658,170.425,100.476,102.278,0.00837026,0.112697,20.8838,170.117,-0.130012,0.0,0.0
2560,639.75,55.6355,56.6162,170.741,100.524,102.002,0.00865338,0.111628,20.8856,169.967,-0.10671,0.0,0.0
2576,643.75,55.0732,56.5318,174.494,100.576,103.491,0.00876325,0.111808,20.8861,169.787,-0.208952,0.0,0.0
2592,647.75,54.7232,56.3797,171.421,100.598,104.686,0.00887278,0.110988,20.8862,169.627,-0.2913,0.0,0.0
2608,651.75,54.7049,56.4081,176.394,100.627,102.475,0.00888794,0.111177,20.8879,169.416,-0.133051,0.0,0.0
2624,655.75,54.5815,56.7365,176.848,100.633,103.019,0.00905159,0.111849,20.8884,169.176,-0.1713,0.0,0.0
2640,659.75,54.9479,55.9247,175.452,100.661,104.004,0.00936074,0.111715,20.887,169.006,-0.238881,0.0,0.0
2656,663.75,54.59,56.1005,171.419,100.683,102.803,0.0093099,0.109828,20.8863,168.806,-0.152397,0.0,0.0
2672,667.75,54.6289,56.1363,177.472,100.687,102.061,0.00932661,0.109045,20.8899,168.666,-0.0991291,0.0,0.0
2688,671.75,54.5477,55.2852,173.172,100.689,103.032,0.00901631,0.110866,20.8901,168.425,-0.168203,0.0,0.0
2704,675.75,54.3441,55.543,172.632,100.672,103.175,0.00911357,0.110132,20.8864,168.195,-0.179556,0.0,0.0
2720,679.75,54.3933,55.3208,177.333,100.637,104.2,0.00885075,0.108054,20.8874,168.005,-0.254413,0.0,0.0
2736,683.75,54.4681,55.6911,181.169,100.621,101.918,0.0086487,0.11048,20.8893,167.915,-0.0936643,0.0,0.0
2752,687.75,54.5382,55.7431,174.117,100.583,102.937,0.00856814,0.110253,20.8857,167.715,-0.169172,0.0,0.0
2768,691.75,53.8461,55.914,174.978,100.559,103.205,0.00826835,0.110736,20.8848,167.495,-0.18994,0.0,0.0
2784,695.75,54.0737,55.0936,175.978,100.497,102.027,0.00833039,0.111621,20.8857,167.264,-0.110538,0.0,0.0
2800,699.75,54.1795,54.9836,173.607,100.437,102.176,0.00858523,0.110885,20.8874,167.034,-0.125496,0.0,0.0
2816,703.75,53.9062,55.5626,177.37,100.33,102.582,0.0085714,0.109437,20.889,166.854,-0.162336,0.0,0.0
2832,707.75,53.8917,54.8515,173.984,100.298,102.603,0.00903253,0.109232,20.8906,166.644,-0.166136,0.0,0.0
2848,711.75,53.4944,55.0579,176.709,100.337,102.868,0.00902922,0.107412,20.8892,166.514,-0.182188,0.0,0.0
2864,715.75,53.534,54.8034,174.087,100.4,101.811,0.00917712,0.105913,20.8907,166.354,-0.102047,0.0,0.0
2880,719.75,53.7422,54.429,177.548,100.475,101.854,0.00939588,0.105892,20.8929,166.174,-0.0996858,0.0,0.0
2896,723.75,53.2527,54.8664,176.057,100.532,101.712,0.00929901,0.105477,20.894,165.993,-0.085341,0.0,0.0
2912,727.75,53.3229,53.9466,176.119,100.612,101.703,0.00947287,0.10264,20.8954,165.783,-0.0789016,0.0,0.0
2928,731.75,52.983,54.4024,175.2,100.685,102.311,0.00943046,0.0992645,20.8998,165.673,-0.117143,0.0,0.0
2944,735.75,53.32,53.8637,176.021,100.747,101.901,0.00975195,0.0995069,20.9034,165.553,-0.0832837,0.0,0.0
2960,739.75,53.2466,54.0832,176.34,100.819,101.655,0.0100084,0.0998608,20.9043,165.313,-0.0603914,0.0,0.0
2976,743.75,53.0355,53.8224,176.819,100.902,103.14,0.00973529,0.099533,20.9025,165.163,-0.160421,0.0,0.0
2992,747.75,53.4719,54.0668,179.745,100.952,102.587,0.00975745,0.0994363,20.9015,164.772,-0.117491,0.0,0.0
3008,751.75,52.948,53.9147,177.313,101.013,102.317,0.00969698,0.0988258,20.9012,164.702,-0.0937914,0.0,0.0
3024,755.75,52.5947,53.5843,176.003,101.049,102.373,0.00963585,0.0986876,20.9015,164.542,-0.0952061,0.0,0.0
3040,759.75,52.5288,53.6786,176.464,101.096,103.605,0.00948749,0.0985797,20.9012,164.452,-0.17926,0.0,0.0
3056,763.75,52.6794,53.5044,177.464,101.102,101.625,0.00956356,0.101064,20.9011,164.282,-0.0376989,0.0,0.0
3072,767.75,52.9713,53.5347,170.872,101.124,102.731,0.00962581,0.100006,20.901,164.122,-0.115346,0.0,0.0
3088,771.75,52.761,54.0569,175.136,101.132,102.747,0.00950601,0.100226,20.9026,163.872,-0.115845,0.0,0.0
3104,775.75,52.6385,53.8304,181.375,101.157,102.096,0.00944654,0.100935,20.9016,163.741,-0.0675711,0.0,0.0
3120,779.75,52.4628,53.6383,179.766,101.159,102.697,0.00918589,0.101173,20.9008,163.561,-0.110357,0.0,0.0
3136,783.75,52.2438,53.3969,179.504,101.177,102.934,0.00906941,0.0999303,20.9015,163.351,-0.125938,0.0,0.0
3152,787.75,52.3602,53.5992,176.965,101.178,102.868,0.00905177,0.0995764,20.9031,163.131,-0.121143,0.0,0.0
3168,791.75,52.2398,53.3113,176.141,101.192,103.234,0.00937235,0.100365,20.9038,162.971,-0.146073,0.0,0.0
3184,795.75,52.2696,53.2943,175.936,101.201,102.947,0.00977583,0.100482,20.9023,162.841,-0.125017,0.0,0.0
3200,799.75,52.4522,53.2804,179.987,101.2,102.39,0.00963807,0.0999488,20.9023,162.691,-0.0854684,0.0,0.0
3216,803.75,52.419,53.8332,179.387,101.206,103.893,0.00967569,0.100669,20.9039,162.47,-0.191633,0.0,0.0
3232,807.75,52.6122,53.7121,178.328,101.208,103.423,0.00959794,0.100841,20.9036,162.34,-0.158307,0.0,0.0
3248,811.75,52.4774,53.5488,182.768,101.215,104.23,0.00943175,0.101397,20.9015,162.14,-0.21463,0.0,0.0
3264,815.75,52.2979,53.3814,177.287,101.226,102.531,0.00951281,0.100973,20.9,161.97,-0.0936775,0.0,0.0
3280,819.75,52.5311,53.5797,179.3,101.22,103.752,0.00964059,0.101038,20.9014,161.76,-0.180702,0.0,0.0
3296,823.75,52.345,53.7834,174.841,101.224,104.056,0.00961453,0.100525,20.9019,161.58,-0.201787,0.0,0.0
3312,827.75,52.0603,53.3722,174.566,101.23,103.093,0.00931062,0.101359,20.9017,161.429,-0.133337,0.0,0.0
3328,831.75,52.4258,53.8521,179.908,101.23,101.905,0.00914778,0.101863,20.9,161.279,-0.0485932,0.0,0.0
3344,835.75,52.415,53.7718,180.423,101.218,102.12,0.00927822,0.100899,20.9021,161.099,-0.0648982,0.0,0.0
3360,839.75,52.5293,53.7305,176.146,101.221,102.222,0.00924132,0.101385,20.9034,160.919,-0.0719349,0.0,0.0
3376,843.75,52.3351,53.1422,174.681,101.231,102.145,0.00940151,0.101127,20.9036,160.799,-0.0656964,0.0,0.0
3392,847.75,52.1649,53.6716,177.922,101.245,102.647,0.00955363,0.101805,20.9036,160.589,-0.100542,0.0,0.0
3408,851.75,52.1377,53.7123,178.825,101.214,102.631,0.00929539,0.101576,20.9023,160.399,-0.101623,0.0,0.0
3424,855.75,51.9465,53.3991,175.2,101.216,102.636,0.00936199,0.102139,20.9007,160.158,-0.101876,0.0,0.0
3440,859.75,51.7725,53.4851,175.851,101.21,102.845,0.00960974,0.102238,20.8993,159.978,-0.117176,0.0,0.0
3456,863.75,52.4274,54.1707,176.321,101.216,102.43,0.00943961,0.102806,20.899,159.838,-0.087136,0.0,0.0
3472,867.75,52.0364,53.3438,173.958,101.216,102.312,0.00906726,0.102184,20.8996,159.718,-0.0787831,0.0,0.0
3488,871.75,52.1793,53.1874,171.899,101.225,102.116,0.00887365,0.101844,20.901,159.508,-0.06409,0.0,0.0
3504,875.75,52.4026,53.175,178.047,101.199,103.117,0.0091454,0.102144,20.9006,159.338,-0.137287,0.0,0.0
3520,879.75,51.8984,53.2166,179.356,101.197,102.156,0.00929244,0.102632,20.8993,159.167,-0.0689908,0.0,0.0
3536,883.75,51.9941,53.1611,175.574,101.216,102.404,0.00948675,0.102486,20.9005,158.997,-0.085356,0.0,0.0
3552,887.75,51.6815,53.1511,172.075,101.192,101.704,0.00968277,0.102772,20.9012,158.827,-0.0369156,0.0,0.0
3568,891.75,52.0817,53.1686,180.375,101.185,102.747,0.00938445,0.102438,20.8994,158.607,-0.11199,0.0,0.0
3584,895.75,52.0214,53.3787,177.328,101.169,103.732,0.00897748,0.102898,20.899,158.377,-0.182934,0.0,0.0
3600,899.75,51.8625,53.2245,174.011,101.175,102.134,0.00899803,0.103418,20.899,158.207,-0.0690136,0.0,0.0
3616,903.75,52.1173,53.5213,174.009,101.195,102.248,0.00881797,0.103616,20.8985,158.117,-0.0756596,0.0,0.0
3632,907.75,52.1542,53.3498,178.802,101.183,101.697,0.00917432,0.103291,20.8983,157.926,-0.0370545,0.0,0.0
3648,911.75,52.358,53.2346,176.547,101.195,102.449,0.00919704,0.102576,20.8983,157.766,-0.0900742,0.0,0.0
3664,915.75,52.0303,53.2321,177.922,101.211,103.552,0.00904617,0.102518,20.8983,157.546,-0.167227,0.0,0.0
3680,919.75,51.9333,53.3829,176.207,101.216,102.581,0.00938531,0.102851,20.8983,157.406,-0.0979876,0.0,0.0
3696,923.75,51.8857,53.5604,178.168,101.216,102.801,0.00953711,0.102837,20.8983,157.246,-0.113645,0.0,0.0
3712,927.75,52.1794,53.4172,182.088,101.211,102.898,0.00968682,0.102966,20.8989,157.046,-0.120895,0.0,0.0
3728,931.75,52.3037,53.6335,175.752,101.21,103.095,0.00984469,0.105213,20.8986,156.815,-0.134911,0.0,0.0
3744,935.75,52.0482,53.786,175.645,101.224,101.994,0.00987389,0.105969,20.8958,156.655,-0.0554442,0.0,0.0
3760,939.75,51.7935,53.7705,172.304,101.23,103.036,0.00953174,0.107608,20.8933,156.525,-0.129321,0.0,0.0
3776,943.75,52.2495,53.9584,175.816,101.24,102.599,0.00946635,0.108629,20.8901,156.375,-0.0974942,0.0,0.0
3792,947.75,51.9146,53.544,176.896,101.234,102.219,0.00932493,0.108091,20.8903,156.185,-0.0707721,0.0,0.0
3808,951.75,51.8483,53.3962,179.589,101.234,102.321,0.00933593,0.106928,20.8924,156.005,-0.078087,0.0,0.0
3824,955.75,52.6022,53.9619,173.839,101.228,104.496,0.00940912,0.10614,20.8942,155.855,-0.232295,0.0,0.0
3840,959.75,51.8556,53.6103,174.286,101.229,103.019,0.0092254,0.106029,20.8944,155.644,-0.128164,0.0,0.0
3856,963.75,52.2232,53.4036,177.053,101.219,102.125,0.00907165,0.106521,20.8944,155.474,-0.0651814,0.0,0.0
3872,967.75,52.0566,53.6978,169.607,101.213,102.356,0.00912363,0.106087,20.8951,155.284,-0.0820719,0.0,0.0
3888,971.75,51.8883,53.7941,176.426,101.201,102.424,0.00935034,0.106376,20.895,155.054,-0.0878091,0.0,0.0
3904,975.75,52.1764,53.7676,177.557,101.212,102.243,0.00947209,0.106494,20.893,154.854,-0.074166,0.0,0.0
3920,979.75,51.9316,53.6923,177.95,101.194,102.52,0.00972845,0.105927,20.8922,154.774,-0.0952273,0.0,0.0
3936,983.75,51.7034,53.2559,176.761,101.175,103.105,0.00976718,0.105744,20.8933,154.554,-0.138181,0.0,0.0
3952,987.75,52.1175,54.0697,179.352,101.152,102.745,0.00973394,0.105808,20.8947,154.343,-0.114213,0.0,0.0
3968,991.75,52.2,53.4288,171.943,101.132,101.77,0.0099301,0.106409,20.8952,154.203,-0.0459628,0.0,0.0
3984,995.75,52.0763,54.4029,175.684,101.113,102.533,0.00990922,0.107217,20.8944,154.053,-0.101992,0.0,0.0
4000,999.75,52.0959,53.7628,178.503,101.109,102.314,0.00983982,0.106982,20.895,153.933,-0.0866693,0.0,0.0
4016,1003.75,51.9849,54.0566,174.562,101.116,102.547,0.00979627,0.107491,20.896,153.723,-0.102762,0.0,0.0
4032,1007.75,52.3274,53.8067,174.365,101.083,102.508,0.00960244,0.107537,20.8957,153.553,-0.102401,0.0,0.0
4048,1011.75,52.0898,53.7415,179.1,101.081,102.521,0.00971943,0.107671,20.8945,153.372,-0.10347,0.0,0.0
4064,1015.75,52.1156,53.8066,172.231,101.068,102.487,0.00936861,0.107454,20.8943,153.172,-0.102019,0.0,0.0
4080,1019.75,52.1234,53.5561,178.268,101.062,102.398,0.00962479,0.108326,20.8937,152.962,-0.0959983,0.0,0.0
4096,1023.75,51.9874,53.5306,179.766,101.051,102.936,0.0101518,0.108553,20.8926,152.752,-0.135171,0.0,0.0
4112,1027.75,52.5884,54.1444,176.3,101.06,103.252,0.0100506,0.108852,20.8913,152.602,-0.156956,0.0,0.0
4128,1031.75,52.5688,54.1867,181.492,101.068,102.288,0.00955945,0.109283,20.8911,152.452,-0.0877001,0.0,0.0
4144,1035.75,52.1112,53.852,174.539,101.069,102.489,0.00970422,0.109688,20.891,152.312,-0.102051,0.0,0.0
4160,1039.75,52.7723,53.851,177.434,101.079,102.62,0.00953163,0.109527,20.8925,152.101,-0.110687,0.0,0.0
4176,1043.75,52.2852,53.8234,173.233,101.071,103.869,0.00965379,0.110903,20.8939,151.911,-0.199692,0.0,0.0
4192,1047.75,52.5168,53.5549,179.653,101.069,102.186,0.0096925,0.110457,20.894,151.691,-0.0803544,0.0,0.0
4208,1051.75,52.4251,54.0235,176.983,101.069,102.187,0.0098917,0.10991,20.8923,151.551,-0.0803993,0.0,0.0
4224,1055.75,52.0195,54.0897,175.053,101.072,100.772,0.00997479,0.110993,20.892,151.391,0.02179,0.0,0.0
4240,1059.75,52.4514,54.1962,176.074,101.051,102.603,0.00993725,0.11188,20.8919,151.161,-0.111441,0.0,0.0
4256,1063.75,52.4683,54.3022,179.843,101.022,102.152,0.00993347,0.113064,20.8904,150.97,-0.0812966,0.0,0.0
4272,1067.75,52.8035,54.5251,175.393,100.983,102.886,0.00998035,0.113799,20.8889,150.77,-0.136534,0.0,0.0
4288,1071.75,52.6042,54.3261,174.925,100.95,102.381,0.0101984,0.113468,20.8873,150.58,-0.102945,0.0,0.0
4304,1075.75,52.9386,54.6449,179.066,100.905,101.72,0.0100943,0.113813,20.8871,150.42,-0.0587822,0.0,0.0
4320,1079.75,52.3484,53.9665,175.461,100.848,101.379,0.00988182,0.113619,20.8877,150.28,-0.0383999,0.0,0.0
4336,1083.75,52.9258,54.8343,180.482,100.791,101.764,0.00987744,0.113705,20.8891,150.08,-0.0702132,0.0,0.0
4352,1087.75,52.9213,54.7756,175.861,100.719,101.326,0.0100257,0.115366,20.8883,149.879,-0.0439582,0.0,0.0
4368,1091.75,52.166,54.5166,178.663,100.648,101.512,0.0100648,0.115708,20.8853,149.689,-0.0625108,0.0,0.0
4384,1095.75,52.4654,54.8244,176.575,100.578,101.611,0.0100048,0.115183,20.8847,149.529,-0.0747248,0.0,0.0
4400,1099.75,52.2366,54.9084,176.132,100.527,101.102,0.010135,0.113995,20.887,149.319,-0.0416999,0.0,0.0
4416,1103.75,52.8451,54.7432,177.047,100.45,102.437,0.010319,0.114868,20.8874,149.099,-0.143206,0.0,0.0
4432,1107.75,52.9094,54.4846,174.094,100.4,102.68,0.0104948,0.114706,20.8869,148.879,-0.164179,0.0,0.0
4448,1111.75,52.8426,54.5974,176.556,100.394,101.906,0.010425,0.114516,20.8877,148.748,-0.109306,0.0,0.0
4464,1115.75,52.8212,54.7285,173.884,100.408,102.301,0.0100993,0.114966,20.8878,148.558,-0.136607,0.0,0.0
4480,1119.75,52.8483,54.6906,179.144,100.414,100.821,0.00999862,0.11549,20.8879,148.318,-0.0295419,0.0,0.0
4496,1123.75,53.122,54.7707,176.248,100.422,101.337,0.0100364,0.116402,20.8866,148.158,-0.0663029,0.0,0.0
4512,1127.75,52.9231,54.6807,178.486,100.464,101.615,0.0100147,0.117094,20.8857,147.998,-0.083281,0.0,0.0
4528,1131.75,52.9727,54.7711,174.475,100.483,100.281,0.0101097,0.11655,20.8852,147.798,0.0147624,0.0,0.0
4544,1135.75,53.1115,54.976,173.659,100.484,101.551,0.0103381,0.11728,20.8849,147.588,-0.0771919,0.0,0.0
4560,1139.75,53.1319,54.9647,174.052,100.503,103.521,0.0103594,0.117684,20.8836,147.337,-0.216348,0.0,0.0
4576,1143.75,53.4361,55.1341,175.471,100.492,101.667,0.0105513,0.117556,20.8846,147.117,-0.0849878,0.0,0.0
4592,1147.75,53.34,55.1226,174.941,100.503,101.867,0.0103807,0.123189,20.8848,146.887,-0.0985601,0.0,0.0
4608,1151.75,53.5137,55.4347,175.877,100.512,101.274,0.00959201,0.128708,20.877,146.737,-0.0552426,0.0,0.0
4624,1155.75,53.9152,55.4677,174.669,100.516,103.514,0.00928517,0.129987,20.8695,146.537,-0.214862,0.0,0.0
4640,1159.75,53.8419,56.0155,177.864,100.522,102.758,0.00920423,0.132093,20.8662,146.316,-0.160892,0.0,0.0
4656,1163.75,53.8361,56.2147,181.082,100.501,104.214,0.00922108,0.13315,20.8644,146.126,-0.265234,0.0,0.0
4672,1167.75,54.2408,56.9333,175.818,100.513,101.576,0.00942921,0.134735,20.8639,145.876,-0.0769461,0.0,0.0
4688,1171.75,54.4774,56.5293,168.832,100.511,103.99,0.00914354,0.137242,20.8625,145.696,-0.248854,0.0,0.0
4704,1175.75,55.0334,57.328,173.723,100.528,104.57,0.00828018,0.147408,20.8578,145.416,-0.288256,0.0,0.0
4720,1179.75,55.4883,57.7564,173.66,100.537,102.932,0.00751006,0.154226,20.8455,145.185,-0.172168,0.0,0.0
4736,1183.75,55.6138,58.396,172.171,100.537,103.528,0.00665543,0.161138,20.8374,144.925,-0.214385,0.0,0.0
4752,1187.75,56.0543,59.3252,174.596,100.544,102.407,0.006247,0.166706,20.8276,144.685,-0.134261,0.0,0.0
4768,1191.75,55.8714,59.4298,173.597,100.537,103.482,0.00578394,0.167941,20.822,144.505,-0.211084,0.0,0.0
4784,1195.75,56.7002,59.2167,172.836,100.525,104.528,0.0058075,0.169596,20.8202,144.285,-0.285534,0.0,0.0
4800,1199.75,56.8651,59.9277,167.931,100.499,104.244,0.00549836,0.173386,20.8171,144.044,-0.267601,0.0,0.0
4816,1203.75,57.138,60.449,172.714,100.448,104.011,0.00443084,0.174643,20.8111,143.784,-0.254902,0.0,0.0
4832,1207.75,56.5801,60.6598,170.169,100.389,104.032,0.00397525,0.176177,20.8096,143.554,-0.260708,0.0,0.0
4848,1211.75,57.6236,60.7351,175.935,100.335,104.417,0.0040373,0.178641,20.8076,143.294,-0.291604,0.0,0.0
4864,1215.75,57.8633,61.292,167.796,100.261,103.798,0.00407233,0.181147,20.805,143.024,-0.253523,0.0,0.0
4880,1219.75,57.8449,61.3292,171.331,100.171,105.233,0.00385312,0.184566,20.8006,142.643,-0.360462,0.0,0.0
4896,1223.75,58.5114,61.9156,170.454,100.09,104.16,0.00355572,0.188206,20.7968,142.413,-0.291492,0.0,0.0
4912,1227.75,58.6761,61.9195,171.759,100.005,103.22,0.00355851,0.189763,20.7921,142.163,-0.231424,0.0,0.0
4928,1231.75,59.0578,62.5921,170.42,99.9498,103.314,0.00327761,0.190677,20.7901,141.943,-0.242074,0.0,0.0
4944,1235.75,59.3421,62.7137,171.277,99.855,102.409,0.0035772,0.193128,20.7886,141.742,-0.184693,0.0,0.0
4960,1239.75,59.8115,63.1756,173.463,99.7922,102.484,0.00329481,0.196659,20.7844,141.402,-0.194658,0.0,0.0
4976,1243.75,59.2571,63.5196,170.698,99.7377,103.049,0.00312911,0.197143,20.7817,141.122,-0.238864,0.0,0.0
4992,1247.75,60.1948,63.4799,168.202,99.6729,101.028,0.00302204,0.199304,20.7826,140.812,-0.0987355,0.0,0.0
5008,1251.75,60.2794,63.8186,172.283,99.6306,102.11,0.00292314,0.199828,20.7811,140.531,-0.179725,0.0,0.0
5024,1255.75,60.6402,64.3383,167.46,99.6073,103.084,0.00287139,0.201779,20.7808,140.111,-0.250912,0.0,0.0
5040,1259.75,60.0611,63.7072,172.31,99.5635,104.371,0.00267418,0.20371,20.7776,139.871,-0.344839,0.0,0.0
5056,1263.75,60.7054,64.9039,174.736,99.5725,105.064,0.00283051,0.205163,20.7752,139.661,-0.392547,0.0,0.0
5072,1267.75,60.8448,64.853,166.341,99.5429,102.241,0.00261916,0.208862,20.773,139.35,-0.195594,0.0,0.0
5088,1271.75,61.4686,64.9769,168.69,99.5421,101.934,0.00251086,0.210914,20.7702,139.1,-0.173606,0.0,0.0
5104,1275.75,61.5874,64.8892,168.908,99.5362,102.362,0.00257346,0.211652,20.7673,138.72,-0.204696,0.0,0.0
5120,1279.75,61.4975,65.2747,169.013,99.5378,103.006,0.00255131,0.21239,20.7655,138.41,-0.250467,0.0,0.0
5136,1283.75,61.8488,65.6607,169.997,99.5421,103.315,0.00232493,0.215084,20.7636,138.129,-0.272037,0.0,0.0
5152,1287.75,61.8278,65.7637,167.834,99.5239,103.53,0.00198754,0.215413,20.7629,137.799,-0.288583,0.0,0.0
5168,1291.75,62.136,65.808,165.169,99.5259,102.237,0.00213571,0.21789,20.7628,137.389,-0.196548,0.0,0.0
5184,1295.75,62.3953,66.0262,165.411,99.5196,103.877,0.00206418,0.219329,20.7604,137.078,-0.313363,0.0,0.0
5200,1299.75,62.6119,66.5583,170.222,99.5382,103.437,0.00194577,0.222306,20.7574,136.798,-0.280991,0.0,0.0
5216,1303.75,62.8455,66.4555,172.133,99.5401,102.628,0.00208394,0.22446,20.7537,136.478,-0.223426,0.0,0.0
5232,1307.75,63.0209,66.9884,166.491,99.5362,102.129,0.00236425,0.225092,20.7505,136.188,-0.188059,0.0,0.0
5248,1311.75,63.145,66.8912,171.564,99.5322,102.096,0.00245015,0.2247,20.7493,135.887,-0.18599,0.0,0.0
5264,1315.75,63.6233,67.086,166.946,99.5595,103.246,0.00220716,0.226208,20.751,135.527,-0.265877,0.0,0.0
5280,1319.75,63.2468,67.3968,166.245,99.552,103.324,0.0023101,0.22528,20.7507,135.137,-0.271967,0.0,0.0
5296,1323.75,63.5646,67.205,170.077,99.5682,103.199,0.00231484,0.226402,20.752,134.796,-0.261884,0.0,0.0
5312,1327.75,63.2603,67.048,169.554,99.5733,102.991,0.00231562,0.226862,20.7508,134.466,-0.246759,0.0,0.0
5328,1331.75,63.5786,67.4098,172.069,99.5812,102.007,0.00236827,0.226305,20.7511,134.076,-0.175976,0.0,0.0
5344,1335.75,63.8433,67.9181,169.093,99.5868,102.697,0.00242746,0.227292,20.7513,133.856,-0.224915,0.0,0.0
5360,1339.75,64.0649,68.0913,173.549,99.6188,102.536,0.0021477,0.230111,20.7504,133.555,-0.211049,0.0,0.0
5376,1343.75,63.6713,68.1671,165.288,99.6034,102.334,0.00210941,0.230646,20.7461,133.295,-0.197778,0.0,0.0
5392,1347.75,64.4778,67.9289,172.841,99.6105,103.281,0.00231744,0.230476,20.7458,132.925,-0.264613,0.0,0.0
5408,1351.75,64.3876,68.2594,169.135,99.6271,102.494,0.00216093,0.231813,20.7459,132.615,-0.20743,0.0,0.0
5424,1355.75,64.2062,68.3214,169.235,99.629,103.952,0.00214492,0.231948,20.743,132.214,-0.310613,0.0,0.0
5440,1359.75,63.7089,68.0302,165.474,99.6583,101.633,0.00230802,0.232625,20.7422,131.844,-0.143486,0.0,0.0
5456,1363.75,64.3662,68.1083,171.186,99.661,101.914,0.00230133,0.230208,20.7443,131.544,-0.163473,0.0,0.0
5472,1367.75,64.4903,67.9697,171.362,99.6832,102.025,0.0020757,0.232055,20.7461,131.163,-0.169822,0.0,0.0
5488,1371.75,64.788,68.1429,165.178,99.6966,101.638,0.00197691,0.232653,20.7449,130.863,-0.141044,0.0,0.0
5504,1375.75,64.7,68.6704,172.244,99.7144,102.3,0.00177023,0.233009,20.7443,130.523,-0.187205,0.0,0.0
5520,1379.75,64.7802,68.4911,174.222,99.729,101.684,0.00213202,0.235411,20.7437,130.192,-0.141926,0.0,0.0
5536,1383.75,65.1226,68.6121,167.164,99.7574,104.779,0.00240834,0.236603,20.7415,129.852,-0.359109,0.0,0.0
5552,1387.75,65.033,68.6955,171.926,99.7843,103.582,0.00228494,0.234909,20.7402,129.542,-0.273113,0.0,0.0
5568,1391.75,65.0622,68.7962,169.037,99.8159,101.749,0.00236281,0.236416,20.7419,129.212,-0.140292,0.0,0.0
5584,1395.75,65.3575,68.9222,169.769,99.8361,100.493,0.00214751,0.239641,20.7393,128.861,-0.0479289,0.0,0.0
5600,1399.75,65.134,68.9704,172.851,99.8455,103.582,0.00217475,0.24393,20.7349,128.381,-0.268626,0.0,0.0
5616,1403.75,65.4465,69.2953,168.929,99.8847,102.827,0.00225991,0.244621,20.7309,128.001,-0.212303,0.0,0.0
5632,1407.75,65.7173,69.7914,166.146,99.9336,101.542,0.0021873,0.247076,20.7308,127.64,-0.116788,0.0,0.0
5648,1411.75,65.7958,69.755,167.294,99.9743,102.672,0.0021912,0.250168,20.7284,127.36,-0.194679,0.0,0.0
5664,1415.75,65.765,69.9818,167.687,100.01,102.127,0.00240165,0.252481,20.7256,126.99,-0.153193,0.0,0.0
5680,1419.75,66.1624,69.8422,172.05,100.06,102.449,0.00237196,0.256732,20.7229,126.649,-0.172587,0.0,0.0
5696,1423.75,66.1689,70.7054,164.542,100.1,103.258,0.00251595,0.258378,20.7189,126.209,-0.227163,0.0,0.0
5712,1427.75,65.8854,70.7041,163.72,100.102,102.983,0.00257072,0.261888,20.7161,125.779,-0.207428,0.0,0.0
5728,1431.75,66.3181,70.918,170.451,100.141,100.644,0.00273362,0.265995,20.7124,125.388,-0.0366545,0.0,0.0
5744,1435.75,66.8633,70.9468,161.347,100.186,101.289,0.00255953,0.266013,20.7073,125.028,-0.0801094,0.0,0.0
5760,1439.75,67.0745,71.3118,163.863,100.172,103.34,0.00262122,0.269654,20.7036,124.528,-0.227639,0.0,0.0
5776,1443.75,67.1671,71.3373,166.931,100.192,103.334,0.00263691,0.274554,20.6987,124.037,-0.225761,0.0,0.0
5792,1447.75,66.9276,71.1833,164.16,100.194,102.154,0.00303629,0.278271,20.6948,123.717,-0.141689,0.0,0.0
5808,1451.75,67.1961,71.8891,164.65,100.228,101.425,0.00290354,0.277804,20.6917,123.347,-0.0868272,0.0,0.0
5824,1455.75,68.2036,72.4651,169.786,100.262,102.804,0.00279534,0.281033,20.6898,122.946,-0.183122,0.0,0.0
5840,1459.75,68.153,73.1881,165.351,100.265,101.278,0.00276675,0.287539,20.6816,122.556,-0.0735267,0.0,0.0
5856,1463.75,68.5675,73.0801,166.846,100.289,100.427,0.00287753,0.290222,20.6756,122.095,-0.0100181,0.0,0.0
5872,1467.75,68.4852,73.0976,165.559,100.296,101.542,0.00298506,0.291902,20.6704,121.655,-0.090297,0.0,0.0
5888,1471.75,68.6523,73.4436,161.936,100.323,100.246,0.00343881,0.293738,20.6672,121.225,0.00566221,0.0,0.0
5904,1475.75,68.6193,73.5783,164.286,100.35,100.822,0.00389575,0.293828,20.6647,120.754,-0.0343367,0.0,0.0
5920,1479.75,69.5215,73.4729,160.726,100.371,99.7381,0.00380211,0.295359,20.666,120.314,0.0462851,0.0,0.0
5936,1483.75,69.3253,74.1065,163.393,100.387,100.716,0.00352068,0.299146,20.6633,119.864,-0.0239368,0.0,0.0
5952,1487.75,69.5871,74.5082,167.054,100.431,99.5518,0.00332488,0.3029,20.6593,119.533,0.0643027,0.0,0.0
5968,1491.75,70.0424,74.3614,162.851,100.469,99.3912,0.00340923,0.303674,20.6542,119.093,0.0788679,0.0,0.0
5984,1495.75,69.7438,75.0897,161.906,100.511,102.942,0.00361362,0.304925,20.6511,118.663,-0.174767,0.0,0.0
6000,1499.75,70.4439,75.304,162.58,100.557,103.85,0.00389247,0.306212,20.6515,118.222,-0.23567,0.0,0.0
6016,1503.75,70.6756,74.9672,162.671,100.549,102.478,0.00414269,0.308583,20.6499,117.782,-0.138958,0.0,0.0
6032,1507.75,70.8683,75.4779,165.378,100.586,101.531,0.00402447,0.307699,20.6467,117.351,-0.0683986,0.0,0.0
6048,1511.75,70.3001,75.5874,169.651,100.636,101.919,0.00390462,0.308948,20.6477,116.851,-0.0926189,0.0,0.0
6064,1515.75,70.814,75.7436,161.21,100.635,100.15,0.00417244,0.309672,20.6452,116.451,0.0353627,0.0,0.0
6080,1519.75,70.8345,76.0884,162.359,100.671,100.05,0.00437424,0.309694,20.6441,116.03,0.0452395,0.0,0.0
6096,1523.75,71.3293,75.9092,160.218,100.706,99.8606,0.00438749,0.309227,20.643,115.7,0.0616486,0.0,0.0
6112,1527.75,71.2289,75.769,167.938,100.719,100.219,0.00438681,0.30842,20.6409,115.29,0.0363828,0.0,0.0
6128,1531.75,71.5553,76.0988,167.604,100.732,100.32,0.00417442,0.306562,20.6404,114.899,0.0299734,0.0,0.0
6144,1535.75,71.1506,75.5355,167.94,100.764,99.489,0.00422931,0.303461,20.6422,114.499,0.0930968,0.0,0.0
6160,1539.75,71.008,75.5445,167.586,100.766,99.1617,0.00416109,0.299652,20.645,114.089,0.117339,0.0,0.0
6176,1543.75,70.8981,75.0452,162.986,100.763,99.1689,0.00393539,0.293251,20.6495,113.718,0.116607,0.0,0.0
6192,1547.75,70.4792,74.773,167.492,100.779,101.853,0.00369799,0.287046,20.6575,113.408,-0.0775346,0.0,0.0
6208,1551.75,70.7645,74.6898,165.639,100.77,99.4653,0.00373223,0.282865,20.6636,113.028,0.0952672,0.0,0.0
6224,1555.75,70.4122,74.8175,169.617,100.753,100.393,0.00356354,0.275848,20.6682,112.647,0.0261969,0.0,0.0
6240,1559.75,69.8116,73.5291,166.555,100.749,100.671,0.00331942,0.27075,20.6764,112.507,0.00572319,0.0,0.0
6256,1563.75,69.5358,73.3284,168.284,100.745,101.446,0.00344507,0.259032,20.6803,112.347,-0.0507057,0.0,0.0
6272,1567.75,69.2351,72.1629,170.212,100.735,101.322,0.00317304,0.237338,20.6934,112.207,-0.0424851,0.0,0.0
6288,1571.75,68.6367,71.1883,169.464,100.725,101.353,0.00322681,0.221078,20.7207,112.027,-0.0454304,0.0,0.0
6304,1575.75,67.6399,70.3916,169.154,100.702,101.719,0.00337439,0.201164,20.7416,111.887,-0.0734677,0.0,0.0
6320,1579.75,67.3549,69.125,171.34,100.677,102.136,0.00344272,0.184235,20.7629,111.767,-0.105228,0.0,0.0
6336,1583.75,66.3177,68.3695,177.232,100.673,102.602,0.00379942,0.168568,20.7821,111.626,-0.13875,0.0,0.0
6352,1587.75,65.6523,67.4161,175.335,100.643,103.179,0.004016,0.157265,20.8,111.446,-0.181971,0.0,0.0
6368,1591.75,65.0279,66.4047,174.189,100.621,102.501,0.00426154,0.148598,20.8108,111.296,-0.135374,0.0,0.0
6384,1595.75,64.0952,65.5792,172.13,100.596,103.973,0.00462873,0.140812,20.8221,111.206,-0.241446,0.0,0.0
6400,1599.75,63.7845,65.1359,174.29,100.582,103.155,0.00511733,0.134867,20.8329,111.196,-0.184715,0.0,0.0
6416,1603.75,63.0715,64.1547,168.529,100.578,103.196,0.00545637,0.129066,20.84,111.116,-0.187877,0.0,0.0
6432,1607.75,62.701,63.5647,173.535,100.542,102.66,0.00564438,0.125545,20.8482,110.986,-0.152493,0.0,0.0
6448,1611.75,61.9934,63.1091,175.697,100.533,103.977,0.00578467,0.1226,20.8529,110.976,-0.246333,0.0,0.0
6464,1615.75,61.6932,62.4693,172.272,100.502,101.185,0.00577722,0.119615,20.8577,110.886,-0.0495669,0.0,0.0
6480,1619.75,61.1385,62.0349,169.292,100.456,104.109,0.00556987,0.118061,20.8618,110.796,-0.26117,0.0,0.0
6496,1623.75,60.5877,61.1337,174.179,100.417,102.809,0.00552163,0.114152,20.8642,110.676,-0.1721,0.0,0.0
6512,1627.75,60.0735,61.0623,172.053,100.388,101.503,0.00574746,0.109502,20.8709,110.535,-0.0807713,0.0,0.0
6528,1631.75,59.6282,59.9795,178.01,100.36,103.631,0.00582947,0.107888,20.8762,110.525,-0.234538,0.0,0.0
6544,1635.75,59.4173,59.4984,174.506,100.324,103.708,0.00584054,0.105507,20.8788,110.465,-0.242632,0.0,0.0
6560,1639.75,59.3141,59.1414,175.117,100.291,102.357,0.0057299,0.104726,20.8817,110.405,-0.1491,0.0,0.0
6576,1643.75,58.7512,59.2681,177.626,100.251,105.399,0.0058993,0.104551,20.8837,110.315,-0.366216,0.0,0.0
6592,1647.75,58.2107,58.812,176.573,100.225,102.403,0.00608716,0.103333,20.8848,110.305,-0.157221,0.0,0.0
6608,1651.75,57.6627,57.9094,170.895,100.207,103.442,0.00612145,0.101906,20.8854,110.215,-0.232309,0.0,0.0
6624,1655.75,57.744,57.7154,172.67,100.181,102.202,0.00608236,0.101174,20.8874,110.155,-0.146103,0.0,0.0
6640,1659.75,56.9686,57.9467,177.148,100.153,101.742,0.00603563,0.100422,20.889,110.055,-0.115098,0.0,0.0
6656,1663.75,56.8083,56.9046,177.415,100.131,102.169,0.00581776,0.0984601,20.892,109.935,-0.14738,0.0,0.0
6672,1667.75,56.4632,57.0716,177.822,100.104,101.891,0.00588725,0.0995205,20.8939,109.825,-0.129453,0.0,0.0
6688,1671.75,55.9423,56.5284,177.181,100.095,102.792,0.00611123,0.100736,20.8934,109.865,-0.194443,0.0,0.0
6704,1675.75,56.1039,56.1733,172.546,100.083,101.545,0.00611178,0.0968493,20.8932,109.755,-0.105988,0.0,0.0
6720,1679.75,55.3547,56.0541,177.939,100.072,102.355,0.00634672,0.0942805,20.899,109.775,-0.164929,0.0,0.0
6736,1683.75,55.1425,56.2098,176.667,100.043,103.575,0.00628035,0.0944153,20.9004,109.685,-0.253708,0.0,0.0
6752,1687.75,55.1894,55.5695,177.719,100.051,102.301,0.00652112,0.0917115,20.9009,109.625,-0.162606,0.0,0.0
6768,1691.75,54.2508,55.5719,177.812,100.012,102.857,0.00664954,0.0900003,20.9031,109.595,-0.205089,0.0,0.0
6784,1695.75,54.3165,55.14,178,100.006,102.588,0.00666818,0.0897348,20.9049,109.505,-0.186426,0.0,0.0
6800,1699.75,54.3433,54.5787,176.025,99.9779,103.818,0.00674255,0.089345,20.9055,109.425,-0.275634,0.0,0.0
6816,1703.75,53.9707,54.4506,174.478,99.9704,102.412,0.00700738,0.0883822,20.9056,109.344,-0.17647,0.0,0.0
6832,1707.75,53.8378,54.2393,179.674,99.9834,100.798,0.00670232,0.0870464,20.9084,109.324,-0.0593556,0.0,0.0
6848,1711.75,53.9649,54.0419,173.389,100.038,101.253,0.00655846,0.0862824,20.9112,109.334,-0.0883296,0.0,0.0
6864,1715.75,53.4642,53.6122,176.704,100.098,101.965,0.00672111,0.0864429,20.9117,109.324,-0.135071,0.0,0.0
6880,1719.75,53.3106,53.8376,178.386,100.162,101.218,0.00701354,0.0869219,20.9118,109.194,-0.07671,0.0,0.0
6896,1723.75,53.6409,53.7692,182.777,100.213,101.628,0.00721633,0.0875744,20.9118,109.164,-0.102556,0.0,0.0
6912,1727.75,52.9961,53.8871,175.41,100.25,102.52,0.0069619,0.0876326,20.9118,109.154,-0.16378,0.0,0.0
6928,1731.75,52.8348,53.7441,177.361,100.292,102.693,0.00651522,0.0870811,20.9107,109.084,-0.17305,0.0,0.0
6944,1735.75,52.9515,53.2053,174.17,100.318,101.728,0.00660948,0.0871249,20.9105,108.974,-0.102015,0.0,0.0
6960,1739.75,53.0035,53.3162,174.287,100.343,101.813,0.00696197,0.0871709,20.9098,108.934,-0.106339,0.0,0.0
6976,1743.75,52.3556,53.5628,181.536,100.409,102.692,0.00672196,0.0872932,20.9099,108.964,-0.164426,0.0,0.0
6992,1747.75,52.6432,53.2853,177.728,100.462,104.677,0.00659867,0.0876893,20.9096,108.874,-0.30051,0.0,0.0
7008,1751.75,53.0433,53.1354,178.139,100.524,101.607,0.00668339,0.087973,20.9097,108.824,-0.0783641,0.0,0.0
7024,1755.75,52.4111,53.2694,177.312,100.554,102.276,0.00658277,0.0882354,20.9091,108.784,-0.124231,0.0,0.0
7040,1759.75,52.2116,53.1501,179.587,100.583,102.75,0.00635877,0.0880664,20.9078,108.724,-0.155852,0.0,0.0
7056,1763.75,52.5309,52.9722,175.158,100.615,102.687,0.00653071,0.0875421,20.9075,108.714,-0.149056,0.0,0.0
7072,1767.75,52.4339,52.9009,184.571,100.595,102.897,0.00629693,0.0868578,20.909,108.674,-0.165429,0.0,0.0
7088,1771.75,51.8421,52.7523,176.75,100.597,102.48,0.00626353,0.0869573,20.9096,108.484,-0.1356,0.0,0.0
7104,1775.75,52.276,53.1057,176.412,100.599,102.415,0.00631654,0.0873317,20.9091,108.444,-0.130856,0.0,0.0
7120,1779.75,51.8751,52.5086,176.583,100.606,104.162,0.00622671,0.0879853,20.9094,108.364,-0.254008,0.0,0.0
7136,1783.75,51.7624,52.535,180.404,100.58,103.521,0.00632494,0.0877075,20.9096,108.464,-0.210717,0.0,0.0
7152,1787.75,52.0005,52.6189,176.749,100.574,102.425,0.00647316,0.0865428,20.9112,108.404,-0.133356,0.0,0.0
7168,1791.75,51.6863,52.725,181.951,100.575,102.295,0.00649598,0.0869313,20.9109,108.354,-0.124004,0.0,0.0
7184,1795.75,52.0011,52.1962,175.445,100.557,103.281,0.00631034,0.0880382,20.9099,108.334,-0.19545,0.0,0.0
7200,1799.75,51.6234,52.5806,178.044,100.547,101.25,0.00641448,0.087632,20.9093,108.294,-0.0509471,0.0,0.0
7216,1803.75,51.8796,52.6265,177.176,100.525,103.317,0.00636767,0.0880155,20.909,108.203,-0.200357,0.0,0.0
7232,1807.75,51.6586,52.5039,171.195,100.487,102.994,0.00611138,0.0873227,20.9089,108.213,-0.180176,0.0,0.0
7235,1808.5,51.7595,52.2177,173.808,100.48,102.764,0.00611471,0.0872616,20.9089,108.223,-0.164407,0.0,0.0