File: 01_Data/Particleboard/Cone/Particleboard_HRRPUA_75.csv
Time after Ignition,Particleboard_R1,Particleboard_R2,Particleboard_R3,Mean,Std. Dev.
0.0,-1.3,2.9,3.7,1.7,2.7
1.0,-1.4,2.4,2.9,1.3,2.3
2.0,-1.4,1.9,2.3,0.9,2.0
3.0,-1.5,1.6,1.9,0.7,1.9
4.0,-1.5,1.4,1.6,0.5,1.7
5.0,-1.1,1.3,1.4,0.6,1.4
6.0,-0.9,1.2,1.3,0.6,1.2
7.0,-0.7,1.2,1.3,0.6,1.1
8.0,-0.6,1.2,1.2,0.6,1.1
9.0,-0.4,1.4,1.5,0.8,1.0
10.0,0.2,1.6,4.0,1.9,1.9
11.0,1.0,3.1,11.7,5.3,5.7
12.0,4.5,6.9,23.6,11.6,10.4
13.0,10.1,15.2,38.1,21.2,14.9
14.0,24.6,25.7,56.9,35.7,18.3
15.0,46.9,41.7,86.4,58.3,24.4
16.0,77.1,61.0,112.4,83.5,26.3
17.0,106.0,90.7,140.3,112.3,25.4
18.0,135.3,118.1,164.6,139.3,23.5
19.0,167.4,155.4,183.9,168.9,14.3
20.0,199.1,174.2,213.3,195.6,19.8
21.0,229.9,200.5,239.0,223.1,20.1
22.0,268.2,225.8,260.7,251.6,22.6
23.0,290.5,251.3,277.7,273.2,20.0
24.0,309.3,279.1,298.6,295.7,15.3
25.0,335.3,301.6,308.8,315.2,17.8
26.0,353.3,325.0,323.6,333.9,16.7
27.0,367.7,341.3,342.7,350.5,14.8
28.0,382.7,352.3,358.3,364.4,16.1
29.0,404.3,380.7,378.9,388.0,14.2
30.0,400.9,380.5,403.7,395.0,12.7
31.0,414.9,395.1,415.4,408.4,11.6
32.0,423.2,395.2,420.3,412.9,15.4
33.0,425.6,410.5,423.2,419.8,8.1
34.0,429.7,417.9,435.5,427.7,9.0
35.0,434.5,422.5,436.1,431.1,7.4
36.0,430.2,428.5,431.3,430.0,1.4
37.0,450.9,433.4,420.1,434.8,15.5
38.0,441.1,418.1,423.2,427.5,12.0
39.0,443.8,428.7,415.0,429.2,14.4
40.0,438.8,425.8,420.4,428.3,9.4
41.0,439.5,432.0,423.8,431.8,7.9
42.0,442.1,432.8,409.9,428.3,16.5
43.0,433.3,426.7,406.5,422.2,13.9
44.0,430.7,428.1,407.7,422.2,12.6
45.0,438.1,419.7,417.1,424.9,11.4
46.0,425.3,417.5,406.0,416.3,9.7
47.0,424.8,403.7,410.0,412.8,10.8
48.0,424.7,409.2,396.1,410.0,14.3
49.0,420.0,405.0,403.5,409.5,9.1
50.0,411.8,394.3,389.5,398.5,11.8
51.0,407.5,390.6,388.2,395.4,10.5
52.0,396.5,395.6,392.0,394.7,2.4
53.0,395.7,369.8,386.3,384.0,13.1
54.0,394.4,381.7,389.3,388.5,6.4
55.0,384.3,374.0,373.8,377.4,6.0
56.0,393.4,372.7,381.0,382.4,10.5
57.0,384.6,363.8,371.0,373.1,10.6
58.0,380.4,360.2,368.8,369.8,10.1
59.0,376.6,354.2,366.1,365.6,11.2
60.0,367.5,348.7,357.6,358.0,9.4
61.0,375.8,348.9,359.9,361.5,13.5
62.0,355.4,349.4,346.8,350.5,4.4
63.0,352.7,340.9,347.0,346.9,5.9
64.0,351.7,343.8,350.0,348.5,4.2
65.0,346.3,342.1,342.9,343.8,2.2
66.0,346.1,325.8,334.8,335.5,10.2
67.0,336.9,327.8,331.8,332.2,4.6
68.0,335.8,322.8,335.0,331.2,7.3
69.0,326.1,326.5,331.2,327.9,2.8
70.0,329.2,323.2,322.3,324.9,3.7
71.0,326.3,322.3,313.2,320.6,6.7
72.0,320.4,314.1,311.3,315.2,4.7
73.0,312.3,307.7,303.3,307.8,4.5
74.0,310.0,304.9,298.2,304.4,5.9
75.0,303.2,299.6,298.3,300.4,2.5
76.0,297.5,299.5,294.5,297.2,2.5
77.0,298.2,295.2,285.6,293.0,6.6
78.0,285.7,293.4,285.4,288.2,4.5
79.0,282.0,292.3,275.8,283.4,8.3
80.0,279.7,288.3,277.9,282.0,5.6
81.0,282.0,283.2,274.3,279.8,4.9
82.0,275.2,280.9,270.2,275.4,5.3
83.0,275.6,273.4,264.5,271.2,5.9
84.0,273.2,274.8,264.7,270.9,5.4
85.0,266.6,264.8,259.6,263.7,3.6
86.0,269.8,261.0,259.4,263.4,5.6
87.0,265.5,264.9,255.2,261.8,5.8
88.0,261.0,260.2,257.3,259.5,2.0
89.0,262.5,255.3,256.4,258.1,3.9
90.0,261.6,255.8,248.6,255.3,6.5
91.0,261.4,254.5,237.7,251.2,12.1
92.0,257.1,250.4,242.0,249.8,7.6
93.0,247.1,249.8,237.6,244.8,6.4
94.0,247.1,247.9,239.1,244.7,4.9
95.0,245.7,239.7,234.9,240.1,5.4
96.0,233.9,237.2,234.2,235.1,1.8
97.0,242.4,229.0,232.2,234.5,7.0
98.0,237.4,232.7,233.7,234.6,2.5
99.0,232.4,226.5,229.4,229.4,2.9
100.0,234.6,229.1,226.9,230.2,4.0
101.0,232.4,230.0,224.5,229.0,4.0
102.0,236.1,227.4,228.8,230.7,4.7
103.0,225.4,225.8,226.4,225.9,0.5
104.0,227.9,220.3,221.8,223.3,4.0
105.0,226.7,222.7,221.2,223.5,2.8
106.0,223.6,218.7,217.1,219.8,3.4
107.0,228.2,217.6,217.4,221.1,6.2
108.0,220.1,216.5,209.8,215.5,5.2
109.0,222.4,217.8,211.7,217.3,5.3
110.0,218.8,215.0,219.9,217.9,2.5
111.0,215.6,211.9,211.7,213.0,2.2
112.0,218.8,215.8,211.0,215.2,3.9
113.0,208.6,212.1,211.7,210.8,1.9
114.0,210.0,208.5,214.2,210.9,3.0
115.0,206.7,211.5,207.5,208.6,2.6
116.0,205.8,208.1,205.0,206.3,1.6
117.0,203.9,205.9,204.2,204.7,1.0
118.0,208.5,203.2,199.1,203.6,4.7
119.0,205.5,202.6,202.0,203.4,1.9
120.0,205.7,199.4,198.6,201.3,3.9
121.0,207.4,200.5,200.3,202.7,4.0
122.0,205.1,199.0,196.4,200.2,4.5
123.0,200.7,199.3,196.6,198.9,2.1
124.0,202.1,195.2,197.3,198.2,3.6
125.0,204.1,191.0,193.0,196.0,7.1
126.0,206.5,193.8,195.4,198.6,6.9
127.0,203.8,190.1,190.9,194.9,7.7
128.0,203.3,189.3,187.7,193.5,8.6
129.0,202.4,185.9,187.6,192.0,9.1
130.0,198.6,188.1,191.5,192.8,5.4
131.0,197.7,187.3,192.4,192.5,5.2
132.0,199.0,182.9,191.8,191.2,8.1
133.0,201.2,189.0,188.3,192.8,7.3
134.0,199.3,184.1,185.7,189.7,8.3
135.0,196.9,187.2,187.7,190.6,5.5
136.0,194.5,185.7,186.8,189.0,4.8
137.0,192.9,189.4,180.7,187.7,6.3
138.0,192.8,186.5,184.3,187.9,4.4
139.0,191.3,186.0,185.4,187.6,3.2
140.0,188.4,184.5,178.7,183.9,4.9
141.0,189.1,180.6,180.7,183.5,4.9
142.0,187.4,186.6,182.8,185.6,2.4
143.0,188.7,182.8,181.6,184.3,3.8
144.0,183.8,179.3,185.1,182.7,3.1
145.0,187.0,179.7,181.9,182.9,3.8
146.0,184.9,181.5,182.4,182.9,1.8
147.0,185.0,180.4,182.2,182.5,2.3
148.0,186.7,178.6,179.4,181.6,4.5
149.0,184.0,179.3,180.2,181.2,2.5
150.0,184.2,175.6,179.3,179.7,4.3
151.0,186.7,176.0,181.0,181.2,5.4
152.0,188.8,176.3,179.2,181.4,6.6
153.0,184.8,176.4,178.0,179.7,4.4
154.0,184.8,169.3,176.9,177.0,7.7
155.0,182.8,176.3,176.4,178.5,3.7
156.0,186.0,170.1,174.1,176.7,8.3
157.0,182.7,172.0,175.8,176.8,5.4
158.0,182.3,175.9,176.7,178.3,3.5
159.0,184.3,172.8,176.0,177.7,5.9
160.0,184.3,173.6,175.3,177.7,5.8
161.0,179.6,167.5,176.9,174.7,6.3
162.0,181.7,166.8,172.6,173.7,7.5
163.0,180.1,165.2,170.6,172.0,7.6
164.0,179.0,167.3,169.9,172.0,6.2
165.0,177.8,167.0,170.6,171.8,5.5
166.0,178.3,167.5,170.1,172.0,5.6
167.0,181.3,167.4,170.0,172.9,7.4
168.0,175.9,168.3,168.5,170.9,4.3
169.0,174.9,169.6,169.4,171.3,3.1
170.0,174.3,168.4,169.0,170.5,3.2
171.0,177.4,165.6,169.5,170.8,6.0
172.0,171.3,168.1,169.3,169.5,1.6
173.0,172.7,165.3,168.2,168.7,3.7
174.0,174.0,167.9,169.3,170.4,3.2
175.0,170.6,165.8,170.4,169.0,2.7
176.0,175.0,163.0,169.4,169.1,6.0
177.0,172.8,164.4,167.7,168.3,4.3
178.0,169.4,163.5,170.8,167.9,3.9
179.0,170.6,161.4,168.0,166.7,4.7
180.0,173.8,161.3,174.0,169.7,7.3
181.0,170.2,161.9,168.8,167.0,4.5
182.0,170.7,161.2,167.6,166.5,4.8
183.0,171.4,164.3,169.1,168.3,3.7
184.0,169.4,164.4,166.0,166.6,2.6
185.0,171.7,165.8,169.8,169.1,3.0
186.0,169.4,166.5,168.7,168.2,1.5
187.0,172.1,165.8,165.6,167.8,3.7
188.0,169.4,166.1,166.2,167.2,1.9
189.0,169.7,164.0,167.0,166.9,2.8
190.0,168.9,165.8,162.9,165.9,3.0
191.0,165.1,164.2,164.1,164.4,0.6
192.0,169.7,162.9,163.7,165.4,3.7
193.0,166.6,163.1,165.4,165.0,1.8
194.0,166.8,163.5,161.0,163.8,2.9
195.0,164.0,163.1,161.9,163.0,1.1
196.0,165.8,164.1,162.6,164.2,1.6
197.0,164.9,163.4,161.6,163.3,1.6
198.0,166.6,159.7,162.8,163.0,3.4
199.0,167.9,160.4,163.3,163.8,3.8
200.0,166.0,162.9,161.3,163.4,2.4
201.0,165.9,160.9,165.3,164.0,2.7
202.0,167.0,160.7,164.0,163.9,3.1
203.0,167.5,160.4,165.8,164.6,3.7
204.0,164.8,160.6,163.3,162.9,2.1
205.0,164.4,160.7,163.2,162.8,1.9
206.0,161.9,157.4,162.8,160.7,2.9
207.0,165.0,157.0,165.6,162.5,4.8
208.0,159.8,155.7,162.7,159.4,3.5
209.0,164.6,156.5,161.4,160.8,4.1
210.0,160.8,153.5,163.4,159.2,5.1
211.0,162.5,154.1,163.6,160.1,5.2
212.0,161.5,153.7,162.7,159.3,4.9
213.0,163.1,156.9,161.9,160.6,3.3
214.0,165.2,153.9,159.4,159.5,5.6
215.0,164.1,155.1,159.4,159.5,4.5
216.0,161.3,156.3,162.2,159.9,3.2
217.0,160.7,155.0,159.3,158.3,3.0
218.0,159.1,158.1,162.0,159.7,2.0
219.0,160.8,153.7,160.4,158.3,4.0
220.0,160.6,152.7,160.6,157.9,4.5
221.0,160.8,156.1,159.1,158.7,2.3
222.0,160.8,154.4,159.3,158.2,3.4
223.0,157.3,153.1,163.6,158.0,5.3
224.0,157.9,152.5,159.2,156.5,3.5
225.0,158.6,150.2,159.0,155.9,5.0
226.0,157.1,151.4,160.2,156.2,4.5
227.0,155.4,152.7,158.1,155.4,2.7
228.0,156.7,151.2,159.5,155.8,4.2
229.0,156.8,150.5,156.7,154.7,3.6
230.0,155.6,149.6,160.1,155.1,5.3
231.0,158.7,149.8,159.8,156.1,5.5
232.0,155.6,148.9,158.7,154.4,5.0
233.0,156.5,148.5,160.8,155.3,6.2
234.0,154.3,148.9,156.7,153.3,4.0
235.0,152.6,151.5,159.9,154.6,4.6
236.0,152.4,150.5,156.8,153.2,3.3
237.0,154.4,147.8,159.0,153.7,5.6
238.0,153.5,147.0,156.4,152.3,4.8
239.0,152.7,151.2,155.8,153.2,2.4
240.0,152.0,148.4,154.0,151.5,2.8
241.0,151.6,147.5,156.5,151.9,4.5
242.0,154.9,148.2,153.8,152.3,3.6
243.0,155.6,150.0,157.2,154.3,3.8
244.0,154.8,145.0,157.3,152.4,6.5
245.0,153.6,144.6,153.9,150.7,5.3
246.0,152.0,145.7,154.0,150.6,4.3
247.0,150.6,148.6,154.5,151.2,3.0
248.0,152.5,145.7,153.4,150.5,4.2
249.0,148.7,145.1,152.2,148.6,3.6
250.0,152.5,146.0,153.3,150.6,4.0
251.0,149.2,146.6,155.0,150.3,4.3
252.0,145.2,145.5,152.4,147.7,4.1
253.0,149.6,145.2,154.5,149.8,4.7
254.0,147.0,145.5,154.9,149.1,5.0
255.0,145.0,145.9,153.3,148.0,4.6
256.0,144.1,147.4,153.0,148.2,4.5
257.0,146.8,143.7,151.2,147.2,3.8
258.0,143.1,144.3,149.0,145.5,3.1
259.0,144.3,142.9,152.3,146.5,5.1
260.0,145.0,140.7,147.9,144.6,3.6
261.0,147.0,140.8,146.3,144.7,3.4
262.0,144.9,141.9,148.1,145.0,3.1
263.0,144.8,142.9,145.1,144.3,1.2
264.0,144.3,140.6,147.1,144.0,3.3
265.0,142.8,140.7,145.4,143.0,2.4
266.0,144.2,144.4,145.6,144.7,0.7
267.0,145.2,142.2,146.4,144.6,2.2
268.0,145.7,139.9,143.9,143.2,3.0
269.0,143.8,140.2,144.5,142.8,2.3
270.0,145.3,141.1,145.4,143.9,2.4
271.0,142.0,140.8,140.2,141.0,1.0
272.0,143.5,140.4,145.1,143.0,2.4
273.0,142.1,139.2,141.8,141.0,1.6
274.0,142.4,138.9,138.2,139.8,2.2
275.0,143.7,138.1,140.4,140.8,2.8
276.0,142.4,136.6,138.0,139.0,3.0
277.0,141.4,136.3,138.9,138.9,2.5
278.0,141.4,135.7,138.3,138.5,2.8
279.0,137.6,135.7,141.2,138.2,2.8
280.0,139.6,136.5,137.4,137.8,1.6
281.0,138.8,137.5,135.9,137.4,1.5
282.0,138.4,137.0,138.3,137.9,0.8
283.0,138.7,136.4,137.0,137.4,1.2
284.0,137.8,135.3,136.6,136.6,1.2
285.0,138.9,136.3,136.0,137.1,1.6
286.0,137.3,135.2,139.4,137.3,2.1
287.0,137.3,134.6,135.8,135.9,1.3
288.0,136.8,133.9,135.4,135.3,1.5
289.0,135.9,133.5,135.5,135.0,1.3
290.0,136.7,135.3,136.5,136.2,0.8
291.0,135.1,133.3,134.9,134.4,1.0
292.0,135.9,134.1,134.8,134.9,0.9
293.0,136.9,132.4,133.9,134.4,2.3
294.0,137.7,133.6,134.0,135.1,2.3
295.0,134.5,131.0,131.7,132.4,1.8
296.0,135.6,130.6,131.2,132.5,2.7
297.0,137.0,132.0,132.7,133.9,2.7
298.0,135.6,131.9,131.4,133.0,2.3
299.0,135.7,132.8,130.7,133.1,2.5
300.0,132.9,130.3,131.8,131.7,1.3
301.0,134.4,132.5,131.0,132.7,1.7
302.0,134.8,131.6,130.0,132.1,2.4
303.0,132.7,134.1,130.5,132.5,1.8
304.0,131.5,132.8,130.0,131.5,1.4
305.0,132.8,131.1,127.9,130.6,2.5
306.0,132.5,131.6,129.0,131.0,1.8
307.0,134.7,129.8,129.4,131.3,2.9
308.0,136.5,128.9,127.5,130.9,4.8
309.0,133.1,129.4,127.3,130.0,2.9
310.0,131.4,132.2,128.1,130.6,2.2
311.0,132.5,130.0,125.4,129.3,3.6
312.0,131.6,128.4,125.3,128.5,3.1
313.0,131.8,126.9,124.7,127.8,3.6
314.0,131.3,127.4,125.1,127.9,3.1
315.0,130.8,125.7,124.2,126.9,3.5
316.0,130.2,126.7,125.0,127.3,2.6
317.0,128.4,125.1,125.7,126.4,1.8
318.0,129.4,125.8,128.4,127.9,1.9
319.0,127.7,126.7,126.0,126.8,0.9
320.0,127.2,126.4,127.6,127.1,0.6
321.0,128.4,125.7,129.1,127.7,1.8
322.0,127.0,127.7,126.6,127.1,0.5
323.0,127.0,126.9,128.8,127.6,1.1
324.0,126.9,126.9,124.8,126.2,1.2
325.0,130.4,125.0,125.2,126.9,3.1
326.0,127.0,124.4,125.0,125.5,1.3
327.0,127.5,125.7,123.3,125.5,2.1
328.0,127.5,126.7,124.8,126.3,1.4
329.0,127.7,127.1,126.7,127.2,0.5
330.0,130.3,126.0,124.6,127.0,3.0
331.0,128.5,125.9,126.4,126.9,1.4
332.0,127.7,126.6,124.0,126.1,1.9
333.0,127.7,125.2,123.9,125.6,2.0
334.0,130.7,124.6,124.5,126.6,3.6
335.0,128.2,123.4,124.2,125.2,2.6
336.0,127.8,124.4,127.5,126.5,1.9
337.0,128.3,123.4,123.9,125.2,2.7
338.0,127.2,124.0,124.8,125.3,1.6
339.0,128.2,122.8,124.2,125.1,2.8
340.0,126.2,124.6,125.4,125.4,0.8
341.0,129.3,123.5,122.3,125.0,3.7
342.0,128.1,124.5,121.6,124.7,3.2
343.0,124.8,123.5,122.2,123.5,1.3
344.0,125.5,124.1,121.6,123.7,1.9
345.0,125.2,122.2,126.1,124.5,2.1
346.0,125.4,121.2,122.6,123.1,2.1
347.0,125.2,122.5,122.7,123.5,1.5
348.0,126.9,124.5,121.6,124.3,2.7
349.0,122.4,124.8,120.9,122.7,1.9
350.0,124.5,124.0,121.2,123.3,1.8
351.0,123.7,123.8,121.4,123.0,1.4
352.0,125.6,123.5,124.7,124.6,1.0
353.0,124.2,124.3,122.9,123.8,0.8
354.0,125.6,122.2,123.1,123.6,1.8
355.0,124.9,122.5,122.7,123.4,1.3
356.0,125.6,122.4,121.9,123.3,2.0
357.0,127.9,123.2,122.4,124.5,3.0
358.0,128.4,123.8,122.2,124.8,3.2
359.0,125.5,125.2,120.6,123.8,2.7
360.0,128.8,124.3,122.2,125.1,3.3
361.0,127.1,123.6,121.3,124.0,2.9
362.0,127.8,124.1,122.0,124.6,2.9
363.0,129.0,123.4,123.4,125.3,3.2
364.0,129.7,121.8,124.0,125.2,4.1
365.0,128.3,120.9,125.0,124.8,3.7
366.0,127.2,122.8,123.4,124.5,2.4
367.0,127.7,124.2,124.3,125.4,2.0
368.0,126.8,123.1,123.7,124.5,2.0
369.0,126.6,120.7,122.0,123.1,3.1
370.0,128.8,121.3,122.9,124.3,4.0
371.0,127.0,121.1,124.3,124.1,2.9
372.0,126.1,121.5,122.8,123.5,2.4
373.0,125.4,120.9,122.8,123.1,2.2
374.0,124.6,123.0,121.5,123.1,1.5
375.0,127.9,122.1,121.0,123.7,3.7
376.0,124.1,122.1,122.6,122.9,1.1
377.0,124.9,123.6,121.8,123.4,1.6
378.0,126.6,121.4,121.0,123.0,3.1
379.0,128.4,119.8,121.7,123.3,4.5
380.0,126.8,122.3,122.4,123.8,2.6
381.0,128.0,120.9,122.2,123.7,3.8
382.0,126.1,122.7,122.4,123.7,2.1
383.0,124.7,123.0,119.9,122.5,2.4
384.0,124.1,123.2,119.5,122.3,2.5
385.0,126.2,125.4,120.0,123.9,3.4
386.0,123.8,124.7,122.2,123.6,1.3
387.0,125.7,125.4,120.6,123.9,2.9
388.0,126.0,125.2,120.5,123.9,3.0
389.0,128.0,128.6,121.6,126.1,3.8
390.0,125.4,129.2,122.3,125.6,3.5
391.0,125.5,124.1,122.8,124.1,1.4
392.0,124.6,125.3,124.3,124.7,0.5
393.0,127.3,125.6,124.6,125.8,1.4
394.0,130.3,126.1,122.8,126.4,3.7
395.0,125.2,126.5,124.9,125.5,0.9
396.0,125.9,125.5,122.9,124.7,1.6
397.0,127.6,124.7,125.3,125.9,1.5
398.0,126.9,125.1,126.4,126.2,0.9
399.0,125.9,122.8,123.2,124.0,1.7
400.0,127.8,123.7,125.9,125.8,2.0
401.0,126.7,123.4,125.1,125.1,1.7
402.0,129.3,125.8,123.4,126.2,3.0
403.0,127.4,122.6,123.1,124.4,2.6
404.0,129.5,124.1,121.8,125.1,4.0
405.0,131.2,124.2,122.0,125.8,4.8
406.0,129.5,123.3,124.1,125.6,3.4
407.0,130.2,124.4,122.5,125.7,4.0
408.0,128.9,125.1,124.6,126.2,2.3
409.0,130.4,125.1,121.9,125.8,4.3
410.0,128.3,125.6,127.0,127.0,1.3
411.0,130.1,125.8,126.3,127.4,2.3
412.0,131.9,125.7,124.5,127.3,4.0
413.0,131.0,126.5,124.6,127.4,3.3
414.0,132.1,127.6,124.5,128.0,3.8
415.0,132.1,123.8,123.7,126.5,4.8
416.0,130.3,124.8,123.3,126.2,3.7
417.0,130.5,124.5,122.6,125.9,4.1
418.0,130.7,127.1,121.6,126.5,4.6
419.0,129.6,124.0,121.2,124.9,4.3
420.0,128.6,123.7,123.0,125.1,3.0
421.0,129.8,127.5,122.7,126.7,3.7
422.0,130.5,126.5,121.5,126.1,4.5
423.0,129.7,126.9,122.8,126.5,3.4
424.0,129.4,126.6,122.5,126.1,3.5
425.0,131.8,129.1,124.1,128.3,3.9
426.0,130.3,126.7,128.9,128.6,1.8
427.0,129.2,126.1,124.7,126.7,2.3
428.0,129.5,128.7,125.8,128.0,1.9
429.0,132.3,125.3,122.9,126.8,4.9
430.0,132.6,128.1,125.5,128.8,3.6
431.0,132.5,126.4,126.2,128.4,3.6
432.0,130.8,128.4,125.6,128.3,2.6
433.0,133.4,126.6,123.7,127.9,5.0
434.0,132.9,126.9,124.2,128.0,4.4
435.0,133.6,131.7,126.9,130.7,3.5
436.0,131.0,132.0,125.3,129.4,3.6
437.0,133.4,129.7,125.9,129.6,3.7
438.0,133.5,128.7,125.8,129.3,3.9
439.0,133.5,127.6,127.6,129.6,3.4
440.0,135.0,128.7,128.5,130.7,3.7
441.0,133.0,129.2,126.9,129.7,3.1
442.0,133.4,130.7,127.6,130.6,2.9
443.0,131.0,130.4,126.2,129.2,2.6
444.0,132.5,129.2,127.3,129.7,2.7
445.0,133.1,128.7,126.5,129.4,3.4
446.0,134.1,130.0,125.5,129.9,4.3
447.0,137.6,131.9,126.0,131.8,5.8
448.0,133.1,131.6,127.1,130.6,3.2
449.0,134.8,131.3,127.7,131.3,3.5
450.0,135.8,131.0,127.8,131.5,4.0
451.0,134.3,129.9,130.1,131.4,2.5
452.0,132.4,132.0,128.6,131.0,2.1
453.0,134.4,130.6,127.5,130.8,3.5
454.0,133.4,130.6,128.4,130.8,2.5
455.0,136.3,131.3,127.7,131.7,4.3
456.0,133.8,131.7,127.6,131.0,3.1
457.0,134.1,134.3,128.2,132.2,3.4
458.0,135.1,132.5,129.2,132.3,3.0
459.0,133.4,132.5,127.5,131.1,3.2
460.0,131.9,133.5,127.3,130.9,3.2
461.0,133.3,135.1,126.7,131.7,4.4
462.0,134.2,135.9,126.9,132.3,4.8
463.0,132.9,133.0,127.4,131.1,3.2
464.0,132.1,135.7,125.9,131.2,5.0
465.0,133.3,134.1,127.0,131.5,3.9
466.0,132.0,134.1,128.2,131.4,3.0
467.0,133.6,134.0,127.6,131.7,3.6
468.0,134.7,134.4,127.1,132.1,4.4
469.0,135.5,135.4,127.3,132.8,4.7
470.0,132.6,135.1,127.6,131.8,3.8
471.0,135.8,134.4,130.2,133.5,2.9
472.0,136.6,136.8,127.6,133.7,5.3
473.0,135.0,136.4,126.0,132.5,5.7
474.0,136.1,139.1,128.6,134.6,5.5
475.0,135.8,136.6,128.8,133.7,4.2
476.0,136.4,138.1,128.3,134.3,5.2
477.0,137.9,137.0,129.9,134.9,4.4
478.0,135.0,138.5,130.0,134.5,4.3
479.0,138.0,137.4,126.6,134.0,6.4
480.0,137.1,138.3,128.8,134.7,5.1
481.0,137.3,136.7,128.2,134.1,5.1
482.0,137.5,138.6,129.2,135.1,5.2
483.0,134.6,141.3,129.8,135.2,5.8
484.0,135.9,140.0,130.9,135.6,4.6
485.0,133.9,138.7,129.7,134.1,4.5
486.0,134.5,139.0,128.2,133.9,5.4
487.0,135.3,138.9,131.2,135.1,3.9
488.0,134.1,138.5,129.4,134.0,4.5
489.0,134.7,137.6,130.3,134.2,3.7
490.0,136.4,138.4,130.8,135.2,3.9
491.0,136.3,137.9,131.3,135.2,3.4
492.0,135.3,140.0,129.8,135.1,5.1
493.0,134.7,139.1,130.9,134.9,4.1
494.0,135.3,138.9,131.0,135.1,3.9
495.0,136.0,137.5,130.3,134.6,3.8
496.0,133.7,139.6,130.1,134.5,4.8
497.0,135.7,139.1,132.4,135.7,3.4
498.0,135.0,138.6,134.4,136.0,2.3
499.0,136.2,138.8,132.3,135.8,3.3
500.0,134.9,140.4,131.9,135.7,4.3
501.0,135.9,142.1,131.7,136.6,5.3
502.0,134.3,138.8,131.4,134.8,3.7
503.0,136.8,140.2,131.7,136.3,4.3
504.0,133.9,137.5,133.6,135.0,2.2
505.0,134.7,138.8,130.4,134.6,4.2
506.0,135.8,138.9,131.1,135.3,3.9
507.0,135.1,139.8,131.0,135.3,4.4
508.0,134.1,139.2,132.1,135.1,3.7
509.0,135.3,141.0,132.0,136.1,4.6
510.0,134.1,140.4,131.5,135.3,4.6
511.0,134.9,140.5,132.4,136.0,4.2
512.0,135.1,141.2,130.9,135.7,5.2
513.0,135.2,139.7,131.7,135.5,4.0
514.0,134.6,140.2,131.0,135.3,4.6
515.0,135.3,140.2,131.7,135.7,4.3
516.0,136.1,140.4,131.5,136.0,4.5
517.0,133.6,142.1,134.0,136.6,4.8
518.0,135.8,140.4,131.6,135.9,4.4
519.0,134.4,141.2,132.2,135.9,4.7
520.0,134.7,143.1,129.9,135.9,6.7
521.0,133.0,143.0,130.7,135.6,6.6
522.0,135.1,142.3,130.2,135.9,6.1
523.0,134.9,141.1,134.3,136.8,3.8
524.0,135.3,141.2,133.8,136.8,3.9
525.0,137.3,143.7,133.6,138.2,5.1
526.0,134.1,143.1,131.9,136.4,5.9
527.0,134.2,142.1,134.5,136.9,4.4
528.0,136.5,143.5,131.3,137.1,6.1
529.0,135.5,141.8,132.8,136.7,4.6
530.0,135.8,141.3,132.8,136.7,4.3
531.0,134.4,141.8,131.8,136.0,5.2
532.0,135.7,143.1,130.9,136.6,6.2
533.0,138.3,141.3,133.9,137.8,3.7
534.0,134.0,142.1,132.4,136.2,5.2
535.0,134.9,141.7,133.5,136.7,4.4
536.0,135.0,142.3,133.1,136.8,4.9
537.0,137.4,141.9,131.0,136.7,5.5
538.0,133.6,142.2,131.1,135.6,5.8
539.0,134.7,140.6,132.1,135.8,4.3
540.0,134.0,142.0,131.8,135.9,5.4
541.0,135.5,140.9,134.4,136.9,3.5
542.0,134.5,143.1,132.8,136.8,5.5
543.0,136.0,143.2,133.3,137.5,5.1
544.0,132.3,141.9,133.4,135.9,5.3
545.0,133.3,143.9,130.7,136.0,7.0
546.0,132.3,144.5,132.2,136.3,7.1
547.0,133.4,142.6,133.1,136.3,5.4
548.0,132.9,144.7,132.3,136.7,7.0
549.0,133.6,143.3,131.2,136.1,6.4
550.0,135.0,142.2,131.6,136.3,5.4
551.0,135.9,141.8,131.3,136.3,5.3
552.0,133.3,142.4,132.5,136.0,5.5
553.0,135.2,141.6,132.2,136.3,4.8
554.0,134.9,143.6,131.0,136.5,6.5
555.0,134.6,142.4,129.7,135.6,6.4
556.0,133.1,142.9,131.3,135.8,6.2
557.0,131.9,140.2,133.8,135.3,4.4
558.0,134.0,142.7,132.2,136.3,5.6
559.0,134.7,139.5,130.7,134.9,4.4
560.0,132.3,142.0,131.3,135.2,5.9
561.0,131.9,141.9,133.6,135.8,5.3
562.0,131.5,140.3,131.4,134.4,5.1
563.0,134.5,140.0,131.3,135.3,4.4
564.0,132.6,143.4,132.0,136.0,6.4
565.0,131.9,142.9,132.5,135.8,6.2
566.0,131.1,141.8,130.4,134.4,6.4
567.0,133.5,143.8,133.4,136.9,6.0
568.0,132.6,143.1,133.5,136.4,5.8
569.0,133.1,142.7,132.7,136.2,5.7
570.0,131.6,142.6,131.3,135.2,6.4
571.0,134.9,142.2,129.6,135.6,6.3
572.0,130.9,142.1,131.0,134.7,6.4
573.0,132.1,143.3,130.7,135.4,6.9
574.0,133.9,141.9,131.0,135.6,5.6
575.0,131.2,143.5,130.9,135.2,7.2
576.0,134.4,142.1,133.1,136.5,4.9
577.0,133.3,141.2,133.6,136.0,4.5
578.0,133.1,140.9,135.3,136.4,4.0
579.0,130.7,139.4,129.7,133.3,5.4
580.0,131.2,139.1,132.6,134.3,4.2
581.0,133.0,139.5,134.7,135.7,3.4
582.0,129.7,142.0,132.6,134.8,6.5
583.0,132.6,141.2,135.3,136.4,4.4
584.0,131.7,143.2,132.6,135.8,6.4
585.0,130.9,141.7,133.2,135.3,5.7
586.0,134.0,139.6,133.0,135.5,3.6
587.0,132.9,139.1,137.0,136.3,3.2
588.0,132.5,140.0,134.4,135.6,3.9
589.0,132.6,139.8,135.4,135.9,3.6
590.0,132.1,139.7,133.3,135.0,4.1
591.0,131.9,140.2,133.2,135.1,4.5
592.0,134.0,139.1,132.9,135.3,3.3
593.0,132.9,135.5,134.0,134.1,1.3
594.0,131.9,139.0,131.6,134.1,4.2
595.0,132.5,139.4,134.4,135.4,3.5
596.0,130.9,138.4,133.3,134.2,3.8
597.0,132.9,138.1,134.0,135.0,2.7
598.0,131.3,138.5,134.2,134.7,3.6
599.0,132.5,138.9,132.8,134.7,3.6
600.0,131.4,138.7,131.7,133.9,4.2
601.0,132.1,138.5,132.0,134.2,3.7
602.0,130.1,136.8,132.9,133.3,3.4
603.0,131.0,139.8,133.0,134.6,4.6
604.0,128.9,136.0,134.0,132.9,3.7
605.0,131.4,137.1,131.6,133.4,3.2
606.0,128.2,137.2,133.9,133.1,4.6
607.0,129.7,139.8,132.3,134.0,5.3
608.0,129.9,138.2,134.2,134.1,4.2
609.0,132.2,137.7,132.7,134.2,3.1
610.0,128.6,138.3,132.4,133.1,4.9
611.0,130.1,137.8,132.6,133.5,3.9
612.0,130.4,137.3,133.5,133.7,3.5
613.0,129.0,138.1,131.8,133.0,4.7
614.0,129.9,139.4,133.7,134.3,4.8
615.0,131.1,139.5,132.4,134.3,4.5
616.0,131.0,138.7,133.0,134.2,4.0
617.0,131.0,137.4,131.4,133.3,3.6
618.0,130.3,139.0,132.5,133.9,4.5
619.0,130.2,135.7,131.2,132.4,3.0
620.0,128.8,137.0,131.5,132.5,4.2
621.0,130.6,137.1,128.2,132.0,4.6
622.0,132.0,138.5,132.9,134.4,3.5
623.0,129.9,136.8,132.3,133.0,3.5
624.0,129.2,133.9,130.8,131.3,2.4
625.0,131.3,135.5,128.9,131.9,3.4
626.0,128.5,135.6,131.5,131.9,3.6
627.0,129.6,136.5,127.7,131.3,4.6
628.0,130.9,137.3,128.0,132.1,4.8
629.0,130.8,135.5,130.0,132.1,3.0
630.0,129.7,137.6,130.7,132.6,4.3
631.0,131.0,133.9,127.2,130.7,3.4
632.0,131.4,135.0,129.4,132.0,2.8
633.0,129.5,134.8,129.6,131.3,3.0
634.0,130.7,135.2,129.9,131.9,2.8
635.0,130.0,134.4,128.7,131.0,3.0
636.0,128.7,134.2,130.9,131.3,2.8
637.0,128.7,133.9,130.4,131.0,2.6
638.0,128.8,135.5,131.3,131.8,3.4
639.0,128.6,132.5,129.8,130.3,2.0
640.0,130.3,129.9,129.5,129.9,0.4
641.0,130.6,132.6,131.3,131.5,1.0
642.0,130.4,132.9,130.2,131.2,1.5
643.0,129.9,131.5,131.2,130.8,0.8
644.0,129.9,133.1,129.6,130.8,2.0
645.0,128.5,132.1,129.3,130.0,1.9
646.0,129.2,134.7,128.0,130.6,3.6
647.0,131.1,133.5,128.9,131.2,2.3
648.0,126.6,133.0,126.8,128.8,3.6
649.0,128.7,135.4,127.8,130.6,4.1
650.0,129.0,133.1,128.7,130.2,2.4
651.0,129.9,131.0,127.8,129.6,1.6
652.0,129.2,131.5,126.2,129.0,2.7
653.0,129.1,132.2,124.8,128.7,3.8
654.0,129.8,132.0,126.1,129.3,3.0
655.0,130.3,131.1,124.9,128.8,3.4
656.0,128.7,129.5,125.4,127.9,2.2
657.0,129.1,130.5,126.4,128.6,2.1
658.0,128.8,130.5,126.3,128.6,2.1
659.0,128.4,130.7,127.3,128.8,1.7
660.0,131.1,128.9,126.2,128.8,2.5
661.0,128.3,127.2,125.0,126.8,1.7
662.0,130.2,130.4,128.6,129.7,1.0
663.0,126.5,130.4,128.3,128.4,2.0
664.0,125.5,128.9,126.6,127.0,1.7
665.0,126.4,129.4,125.5,127.1,2.0
666.0,125.3,128.5,127.9,127.2,1.7
667.0,124.3,127.3,126.2,125.9,1.5
668.0,125.6,126.3,127.4,126.4,0.9
669.0,123.9,125.6,124.6,124.7,0.9
670.0,126.6,127.7,126.6,127.0,0.6
671.0,124.7,124.0,125.7,124.8,0.9
672.0,127.2,127.1,127.0,127.1,0.1
673.0,126.4,128.0,125.4,126.6,1.3
674.0,125.7,126.2,125.1,125.6,0.6
675.0,126.8,125.9,126.9,126.5,0.5
676.0,127.8,127.5,127.0,127.4,0.4
677.0,128.9,129.6,124.9,127.8,2.5
678.0,128.6,124.8,125.2,126.2,2.1
679.0,125.9,128.5,125.3,126.6,1.7
680.0,126.2,128.5,125.2,126.6,1.7
681.0,127.1,128.8,125.4,127.1,1.7
682.0,125.9,128.9,123.5,126.1,2.7
683.0,126.7,128.5,125.4,126.9,1.5
684.0,126.0,130.1,123.1,126.4,3.5
685.0,125.6,129.2,124.5,126.5,2.5
686.0,126.0,126.0,124.5,125.5,0.9
687.0,125.3,127.6,125.6,126.2,1.2
688.0,124.8,127.0,125.8,125.9,1.1
689.0,126.0,128.7,127.2,127.3,1.4
690.0,126.2,125.9,127.8,126.6,1.0
691.0,127.7,125.6,125.5,126.3,1.3
692.0,126.3,127.9,125.6,126.6,1.2
693.0,127.8,130.3,126.5,128.2,1.9
694.0,130.2,128.2,127.5,128.6,1.4
695.0,127.6,128.1,122.9,126.2,2.8
696.0,129.0,127.2,126.4,127.6,1.3
697.0,129.7,127.4,122.8,126.6,3.5
698.0,129.6,126.5,123.9,126.7,2.8
699.0,130.0,127.2,124.2,127.1,2.9
700.0,127.4,126.1,123.9,125.8,1.8
701.0,127.8,127.5,124.4,126.6,1.9
702.0,126.3,127.2,124.9,126.2,1.2
703.0,127.4,128.3,122.6,126.1,3.0
704.0,129.0,126.2,122.7,126.0,3.1
705.0,127.4,128.8,124.3,126.8,2.3
706.0,127.7,125.8,123.8,125.8,2.0
707.0,129.3,126.8,121.8,126.0,3.8
708.0,126.7,127.7,123.0,125.8,2.5
709.0,126.4,126.3,125.5,126.0,0.5
710.0,128.1,126.2,124.3,126.2,1.9
711.0,127.1,126.0,123.3,125.5,1.9
712.0,126.6,126.7,125.2,126.2,0.8
713.0,125.7,125.7,124.0,125.1,0.9
714.0,125.3,126.2,124.3,125.3,1.0
715.0,123.9,125.2,122.8,124.0,1.2
716.0,124.7,125.2,126.8,125.6,1.1
717.0,127.6,127.6,125.7,127.0,1.1
718.0,123.4,125.3,126.8,125.2,1.7
719.0,124.1,128.1,126.0,126.1,2.0
720.0,125.5,125.5,126.3,125.8,0.5
721.0,123.9,126.4,127.6,126.0,1.9
722.0,123.3,127.4,125.4,125.4,2.0
723.0,124.2,127.5,126.8,126.1,1.7
724.0,125.2,126.7,125.8,125.9,0.8
725.0,123.7,127.3,126.9,126.0,2.0
726.0,122.8,127.5,126.1,125.5,2.4
727.0,125.3,127.2,123.7,125.4,1.7
728.0,125.1,129.5,124.2,126.3,2.8
729.0,123.5,126.4,123.8,124.6,1.5
730.0,124.7,128.0,123.9,125.5,2.2
731.0,125.1,128.3,124.4,125.9,2.1
732.0,123.7,129.4,124.1,125.7,3.2
733.0,126.7,128.1,124.3,126.4,1.9
734.0,124.1,127.7,122.5,124.7,2.7
735.0,124.5,128.0,123.5,125.3,2.4
736.0,122.9,128.4,122.9,124.7,3.2
737.0,126.8,127.3,124.4,126.2,1.6
738.0,124.0,130.7,123.9,126.2,3.9
739.0,124.9,128.8,123.4,125.7,2.8
740.0,125.3,127.8,122.4,125.2,2.7
741.0,125.2,127.0,125.5,125.9,1.0
742.0,124.8,128.1,125.1,126.0,1.8
743.0,127.5,129.7,127.6,128.3,1.2
744.0,124.7,128.8,123.3,125.6,2.9
745.0,126.5,127.1,122.7,125.5,2.4
746.0,124.7,128.1,126.4,126.4,1.7
747.0,126.1,125.7,125.6,125.8,0.3
748.0,125.1,128.4,128.0,127.2,1.8
749.0,124.1,125.8,125.6,125.1,0.9
750.0,127.1,125.9,125.4,126.2,0.9
751.0,126.6,128.0,127.0,127.2,0.7
752.0,125.7,127.1,127.6,126.8,1.0
753.0,127.3,127.4,126.9,127.2,0.3
754.0,125.3,126.1,124.8,125.4,0.6
755.0,124.7,124.5,123.6,124.3,0.6
756.0,126.4,127.3,127.0,126.9,0.4
757.0,123.6,126.0,126.1,125.2,1.4
758.0,122.6,128.2,124.7,125.2,2.8
759.0,123.7,127.9,126.0,125.9,2.1
760.0,122.8,129.3,124.4,125.5,3.4
761.0,123.6,128.9,121.9,124.8,3.6
762.0,123.6,132.6,121.7,126.0,5.8
763.0,126.3,128.9,121.8,125.7,3.6
764.0,123.2,127.1,121.0,123.8,3.1
765.0,124.8,126.9,123.3,125.0,1.8
766.0,123.8,128.4,124.8,125.7,2.5
767.0,124.8,127.7,125.5,126.0,1.5
768.0,125.9,128.6,125.1,126.5,1.9
769.0,122.7,126.2,125.0,124.6,1.8
770.0,123.0,127.5,126.8,125.8,2.4
771.0,123.2,128.1,126.4,125.9,2.5
772.0,123.3,126.5,124.6,124.8,1.6
773.0,124.7,126.2,127.5,126.1,1.4
774.0,126.6,125.8,126.4,126.3,0.4
775.0,122.6,124.5,125.4,124.2,1.4
776.0,123.0,123.6,123.6,123.4,0.4
777.0,123.7,126.3,126.3,125.4,1.5
778.0,122.8,123.5,125.5,123.9,1.4
779.0,122.3,124.3,123.9,123.5,1.1
780.0,122.0,124.9,124.4,123.8,1.5
781.0,120.9,124.1,124.9,123.3,2.1
782.0,120.8,123.6,124.3,122.9,1.8
783.0,123.8,122.2,124.2,123.4,1.1
784.0,120.3,123.2,122.2,121.9,1.5
785.0,122.6,125.0,122.3,123.3,1.5
786.0,119.8,124.6,122.5,122.3,2.4
787.0,122.2,125.7,122.3,123.4,2.0
788.0,121.0,125.9,122.0,123.0,2.6
789.0,119.5,126.1,121.2,122.3,3.4
790.0,120.5,127.3,124.9,124.2,3.5
791.0,120.4,127.0,123.8,123.7,3.3
792.0,121.2,125.4,122.9,123.2,2.1
793.0,120.6,124.8,122.2,122.5,2.1
794.0,122.2,127.6,124.5,124.8,2.7
795.0,119.7,125.3,121.5,122.1,2.9
796.0,122.4,123.0,122.9,122.8,0.3
797.0,119.6,123.8,122.0,121.8,2.1
798.0,123.3,122.4,123.7,123.1,0.7
799.0,120.8,122.0,124.3,122.4,1.8
800.0,119.3,121.8,125.7,122.2,3.2
801.0,121.4,122.8,124.4,122.8,1.5
802.0,120.6,121.2,124.3,122.0,2.0
803.0,119.9,119.8,125.0,121.6,3.0
804.0,118.2,121.4,122.9,120.8,2.4
805.0,118.9,121.7,124.7,121.8,2.9
806.0,117.7,124.5,122.5,121.6,3.5
807.0,116.2,122.1,124.1,120.8,4.1
808.0,118.7,123.8,124.1,122.2,3.1
809.0,118.1,120.8,123.4,120.8,2.7
810.0,116.8,123.8,122.4,121.0,3.7
811.0,118.1,125.0,121.8,121.6,3.5
812.0,117.1,123.7,121.5,120.8,3.4
813.0,116.7,124.1,121.5,120.7,3.7
814.0,117.2,121.4,120.9,119.8,2.3
815.0,116.8,123.8,120.2,120.3,3.5
816.0,117.1,122.0,118.9,119.3,2.5
817.0,117.7,120.8,120.1,119.5,1.6
818.0,116.0,120.3,118.9,118.4,2.2
819.0,116.1,121.1,119.7,119.0,2.6
820.0,116.9,119.8,120.1,119.0,1.8
821.0,116.2,120.3,119.3,118.6,2.1
822.0,117.3,119.8,120.5,119.2,1.7
823.0,116.9,118.9,118.4,118.0,1.1
824.0,116.2,118.4,121.0,118.5,2.4
825.0,116.2,119.6,119.8,118.5,2.0
826.0,117.7,118.7,123.3,119.9,3.0
827.0,115.7,118.6,120.5,118.2,2.5
828.0,117.4,117.4,121.0,118.6,2.1
829.0,116.9,119.6,120.8,119.1,2.0
830.0,116.5,116.4,120.4,117.8,2.2
831.0,115.0,116.0,121.0,117.3,3.2
832.0,114.8,117.9,118.9,117.2,2.1
833.0,116.1,116.8,119.1,117.3,1.6
834.0,113.2,116.7,119.4,116.4,3.1
835.0,114.1,116.1,119.6,116.6,2.8
836.0,113.8,117.5,118.7,116.7,2.6
837.0,111.7,116.4,121.0,116.4,4.7
838.0,113.4,115.5,120.3,116.4,3.6
839.0,112.9,113.4,119.9,115.4,3.9
840.0,112.4,114.9,121.7,116.3,4.8
841.0,112.3,114.8,120.6,115.9,4.3
842.0,111.5,114.4,119.4,115.1,4.0
843.0,111.1,112.9,119.0,114.3,4.1
844.0,109.8,113.7,119.6,114.4,4.9
845.0,113.9,112.8,117.4,114.7,2.4
846.0,112.1,112.6,118.1,114.3,3.3
847.0,112.5,113.8,118.9,115.0,3.4
848.0,113.6,112.9,116.0,114.2,1.6
849.0,112.2,113.0,117.1,114.1,2.6
850.0,110.6,111.9,117.6,113.4,3.7
851.0,113.8,112.0,115.2,113.6,1.6
852.0,111.7,112.8,114.6,113.0,1.5
853.0,111.8,112.6,114.7,113.0,1.5
854.0,111.3,112.8,114.5,112.9,1.6
855.0,110.9,111.3,112.8,111.7,1.0
856.0,109.6,112.4,114.2,112.1,2.3
857.0,111.3,111.8,114.4,112.5,1.7
858.0,109.6,110.4,112.5,110.9,1.5
859.0,108.8,112.7,114.7,112.0,3.0
860.0,108.4,110.9,114.1,111.1,2.9
861.0,108.6,110.4,112.7,110.6,2.0
862.0,107.6,109.8,114.1,110.5,3.3
863.0,107.5,110.5,112.1,110.0,2.3
864.0,107.6,111.2,110.9,109.9,2.0
865.0,107.6,108.7,112.6,109.6,2.7
866.0,106.2,110.7,110.2,109.0,2.5
867.0,106.5,108.6,110.2,108.4,1.8
868.0,107.1,107.5,108.4,107.7,0.7
869.0,106.6,106.9,109.5,107.7,1.6
870.0,106.4,106.2,110.0,107.5,2.1
871.0,106.7,104.5,107.9,106.3,1.7
872.0,105.9,104.8,106.1,105.6,0.7
873.0,107.0,104.1,105.6,105.5,1.5
874.0,107.0,103.5,104.9,105.1,1.8
875.0,106.0,103.7,102.8,104.2,1.6
876.0,104.5,100.3,102.4,102.4,2.1
877.0,103.8,102.5,101.3,102.5,1.3
878.0,104.0,98.8,100.8,101.2,2.6
879.0,102.8,98.1,101.7,100.8,2.5
880.0,103.8,96.6,98.7,99.7,3.7
881.0,102.4,96.6,98.5,99.2,2.9
882.0,102.7,95.4,95.8,98.0,4.1
883.0,100.5,93.6,95.1,96.4,3.6
884.0,99.3,92.1,91.6,94.3,4.3
885.0,97.3,91.5,89.6,92.8,4.0
886.0,97.8,90.3,89.2,92.4,4.7
887.0,95.5,87.7,85.9,89.7,5.1
888.0,92.3,86.1,83.4,87.3,4.6
889.0,90.3,82.5,81.7,84.8,4.8
890.0,89.4,78.2,79.1,82.2,6.2
891.0,88.6,76.7,76.4,80.6,7.0
892.0,86.8,74.6,75.9,79.1,6.7
893.0,84.9,72.7,74.3,77.3,6.6
894.0,82.7,72.2,73.2,76.0,5.8
895.0,80.3,69.9,69.8,73.3,6.0
896.0,78.8,69.2,67.6,71.9,6.0
897.0,74.3,66.4,66.5,69.1,4.5
898.0,72.4,64.9,65.8,67.7,4.1
899.0,71.9,64.3,64.3,66.8,4.4
900.0,70.5,62.9,63.5,65.6,4.2
901.0,68.7,62.0,62.2,64.3,3.8
902.0,67.3,60.9,60.5,62.9,3.8
903.0,67.1,60.3,61.0,62.8,3.7
904.0,65.4,59.5,59.3,61.4,3.5
905.0,63.8,59.3,57.4,60.2,3.3
906.0,63.7,59.3,56.5,59.8,3.6
907.0,62.2,58.3,55.6,58.7,3.3
908.0,61.5,56.8,55.0,57.7,3.3
909.0,60.3,55.9,54.7,57.0,3.0
910.0,58.8,55.8,53.6,56.1,2.6
911.0,57.8,55.9,53.3,55.7,2.2
912.0,57.6,54.6,53.3,55.2,2.2
913.0,56.6,54.7,53.5,54.9,1.6
914.0,56.6,54.8,53.3,54.9,1.6
915.0,56.3,53.4,53.1,54.3,1.8
916.0,55.2,53.9,52.9,54.0,1.1
917.0,54.7,53.1,53.5,53.8,0.8
918.0,54.2,51.9,52.9,53.0,1.2
919.0,54.8,52.0,52.9,53.2,1.4
920.0,53.9,51.5,53.0,52.8,1.2
921.0,54.3,51.1,53.0,52.8,1.6
922.0,54.3,52.0,52.6,53.0,1.2
923.0,53.4,51.3,52.8,52.5,1.1
924.0,54.5,51.4,53.1,53.0,1.6
925.0,54.0,51.5,51.7,52.4,1.4
926.0,53.7,50.6,52.2,52.2,1.5
927.0,53.5,50.9,51.6,52.0,1.3
928.0,53.3,50.9,51.7,52.0,1.2
929.0,53.0,50.7,51.7,51.8,1.2
930.0,52.1,50.7,51.1,51.3,0.7
931.0,51.4,51.2,50.5,51.0,0.4
932.0,51.5,51.6,50.4,51.2,0.6
933.0,50.1,51.4,50.1,50.5,0.7
934.0,50.5,50.6,50.0,50.4,0.4
935.0,51.4,50.9,50.5,50.9,0.4
936.0,50.7,50.8,49.9,50.4,0.5
937.0,51.3,50.5,50.3,50.7,0.5
938.0,50.7,51.2,50.0,50.6,0.6
939.0,50.0,50.4,49.5,50.0,0.4
940.0,50.6,50.4,49.9,50.3,0.4
941.0,51.5,50.1,49.7,50.5,1.0
942.0,51.0,49.9,49.2,50.0,0.9
943.0,51.3,50.2,49.2,50.2,1.0
944.0,51.0,50.1,49.4,50.2,0.8
945.0,51.1,50.0,49.3,50.1,0.9
946.0,51.5,49.9,49.3,50.2,1.2
947.0,50.7,49.3,49.5,49.8,0.8
948.0,51.7,48.3,50.0,50.0,1.7
949.0,51.3,48.7,49.4,49.8,1.4
950.0,50.3,48.7,50.6,49.9,1.0
951.0,49.4,48.7,49.3,49.1,0.4
952.0,50.0,48.5,48.7,49.1,0.8
953.0,49.9,48.1,50.2,49.4,1.2
954.0,49.5,49.1,49.8,49.5,0.4
955.0,48.6,48.7,49.4,48.9,0.4
956.0,47.2,48.8,48.9,48.3,0.9
957.0,48.1,48.7,50.3,49.0,1.1
958.0,48.0,47.9,49.0,48.3,0.6
959.0,48.3,47.5,49.7,48.5,1.1
960.0,48.5,47.4,50.6,48.8,1.7
961.0,49.1,47.7,50.1,49.0,1.2
962.0,49.8,47.1,50.7,49.2,1.9
963.0,49.7,47.3,50.5,49.2,1.7
964.0,49.2,47.8,50.0,49.0,1.1
965.0,49.2,48.2,50.4,49.3,1.1
966.0,48.6,48.3,49.7,48.9,0.8
967.0,48.5,48.8,50.0,49.1,0.8
968.0,48.1,49.5,50.0,49.2,1.0
969.0,48.3,50.4,49.0,49.3,1.1
970.0,48.2,49.4,48.9,48.8,0.6
971.0,48.4,49.4,48.3,48.7,0.6
972.0,47.4,49.0,49.1,48.5,1.0
973.0,47.4,48.5,47.6,47.8,0.6
974.0,47.6,47.6,47.7,47.6,0.1
975.0,47.6,48.0,46.2,47.3,0.9
976.0,46.7,48.0,46.5,47.1,0.8
977.0,46.3,47.9,46.1,46.8,1.0
978.0,46.6,47.7,46.7,47.0,0.6
979.0,46.9,47.7,47.2,47.3,0.4
980.0,46.7,47.6,46.2,46.8,0.7
981.0,47.0,47.6,46.1,46.9,0.8
982.0,46.9,47.0,45.7,46.5,0.7
983.0,46.7,46.9,46.0,46.5,0.5
984.0,46.7,47.6,45.8,46.7,0.9
985.0,46.2,47.1,46.0,46.4,0.6
986.0,46.0,46.9,46.5,46.4,0.4
987.0,45.2,46.6,47.1,46.3,1.0
988.0,45.2,46.8,47.0,46.3,1.0
989.0,44.8,46.5,46.7,46.0,1.0
990.0,43.5,46.9,47.1,45.9,2.0
991.0,43.5,47.6,47.0,46.0,2.2
992.0,42.9,47.6,47.1,45.9,2.6
993.0,42.9,48.5,46.8,46.1,2.9
994.0,42.9,48.2,46.7,45.9,2.8
995.0,44.1,48.4,46.9,46.5,2.2
996.0,43.3,48.6,47.5,46.5,2.8
997.0,43.4,49.1,45.8,46.1,2.8
998.0,43.2,48.6,45.8,45.9,2.7
999.0,43.6,47.7,45.9,45.7,2.1
1000.0,44.0,47.7,45.7,45.8,1.9
1001.0,44.1,47.0,46.0,45.7,1.5
1002.0,43.8,46.9,46.0,45.6,1.6
1003.0,44.0,46.4,45.2,45.2,1.2
1004.0,44.6,46.0,45.5,45.4,0.7
1005.0,45.0,45.8,45.0,45.3,0.4
1006.0,46.1,45.7,44.7,45.5,0.7
1007.0,45.9,44.9,45.5,45.4,0.5
1008.0,46.8,44.3,44.2,45.1,1.5
1009.0,47.1,44.5,44.5,45.4,1.5
1010.0,46.4,44.0,44.5,45.0,1.2
1011.0,46.2,44.2,43.8,44.8,1.3
1012.0,46.2,43.6,43.8,44.6,1.5
1013.0,45.9,42.7,44.0,44.2,1.6
1014.0,46.4,42.6,43.9,44.3,1.9
1015.0,46.0,42.6,44.2,44.2,1.7
1016.0,44.7,42.3,45.0,44.0,1.5
1017.0,44.3,42.9,44.5,43.9,0.9
1018.0,44.1,42.5,44.2,43.6,1.0
1019.0,43.7,42.9,43.7,43.5,0.4
1020.0,43.7,42.7,43.8,43.4,0.7
1021.0,43.6,42.7,44.3,43.6,0.8
1022.0,43.6,43.3,43.7,43.5,0.2
1023.0,43.1,43.3,43.9,43.4,0.4
1024.0,42.8,43.5,44.1,43.5,0.6
1025.0,43.0,44.1,44.9,44.0,0.9
1026.0,43.5,43.9,44.7,44.0,0.6
1027.0,43.7,44.0,44.4,44.0,0.3
1028.0,44.1,44.5,45.4,44.7,0.7
1029.0,43.7,45.0,45.7,44.8,1.0
1030.0,43.5,45.1,45.5,44.7,1.0
1031.0,43.9,45.1,44.5,44.5,0.6
1032.0,43.6,45.8,44.7,44.7,1.1
1033.0,44.1,44.9,45.2,44.8,0.6
1034.0,43.7,45.0,44.7,44.5,0.7
1035.0,44.0,44.6,45.1,44.6,0.6
1036.0,43.7,45.3,45.4,44.8,1.0
1037.0,43.7,45.2,45.5,44.8,1.0
1038.0,43.7,45.2,46.3,45.1,1.3
1039.0,44.1,44.5,44.7,44.4,0.3
1040.0,44.3,44.1,44.9,44.4,0.4
1041.0,43.7,43.9,44.6,44.1,0.5
1042.0,44.2,44.6,45.0,44.6,0.4
1043.0,43.5,44.4,44.1,44.0,0.5
1044.0,44.2,44.2,43.5,44.0,0.4
1045.0,43.6,44.5,44.1,44.1,0.4
1046.0,43.4,44.2,42.9,43.5,0.6
1047.0,43.4,43.7,43.3,43.5,0.2
1048.0,42.9,44.0,43.0,43.3,0.6
1049.0,42.8,43.7,43.6,43.4,0.5
1050.0,42.7,44.3,43.5,43.5,0.8
1051.0,42.7,43.8,44.1,43.5,0.7
1052.0,42.9,43.6,43.4,43.3,0.4
1053.0,43.6,44.4,44.2,44.0,0.4
1054.0,43.8,44.7,44.1,44.2,0.4
1055.0,44.4,43.6,44.4,44.1,0.5
1056.0,44.4,44.3,44.1,44.2,0.2
1057.0,44.2,43.9,44.4,44.2,0.3
1058.0,44.4,43.2,43.4,43.7,0.7
1059.0,44.7,43.4,43.9,44.0,0.7
1060.0,44.4,42.6,44.2,43.7,1.0
1061.0,44.3,42.9,43.5,43.6,0.7
1062.0,44.2,42.1,44.4,43.6,1.3
1063.0,44.3,43.4,43.9,43.8,0.5
1064.0,44.0,43.4,43.7,43.7,0.3
1065.0,44.2,43.9,43.2,43.8,0.5
1066.0,44.2,43.8,43.7,43.9,0.3
1067.0,45.0,43.1,43.8,44.0,1.0
1068.0,44.7,43.3,44.0,44.0,0.7
1069.0,45.2,42.9,43.6,43.9,1.2
1070.0,44.1,42.8,43.5,43.5,0.6
1071.0,43.8,42.7,44.0,43.5,0.7
1072.0,43.2,41.9,43.0,42.7,0.7
1073.0,44.2,42.0,43.4,43.2,1.1
1074.0,43.5,41.7,43.4,42.8,1.0
1075.0,43.0,41.8,43.7,42.8,1.0
1076.0,43.3,41.9,43.3,42.8,0.8
1077.0,43.4,41.6,42.7,42.6,0.9
1078.0,43.6,42.6,43.0,43.0,0.5
1079.0,44.3,42.0,43.1,43.2,1.1
1080.0,43.9,42.4,42.8,43.0,0.8
1081.0,43.2,42.7,43.1,43.0,0.3
1082.0,43.0,42.1,42.9,42.7,0.5
1083.0,43.8,42.6,42.6,43.0,0.7
1084.0,43.8,42.4,42.9,43.1,0.7
1085.0,43.6,42.6,42.7,43.0,0.5
1086.0,42.6,42.6,42.9,42.7,0.2
1087.0,43.1,42.8,42.9,43.0,0.2
1088.0,42.2,42.7,43.3,42.8,0.6
1089.0,43.1,42.7,42.7,42.8,0.2
1090.0,42.0,42.4,43.2,42.5,0.6
1091.0,42.3,42.1,42.4,42.3,0.2
1092.0,41.5,42.2,41.8,41.8,0.3
1093.0,42.1,42.9,42.5,42.5,0.4
1094.0,42.2,41.8,42.1,42.0,0.2
1095.0,41.3,41.5,41.5,41.5,0.1
1096.0,41.0,41.8,41.4,41.4,0.4
1097.0,41.0,41.3,42.1,41.5,0.6
1098.0,40.9,41.8,42.6,41.7,0.9
1099.0,40.9,41.1,42.0,41.3,0.6
1100.0,41.1,41.5,42.1,41.6,0.5
1101.0,40.8,41.8,41.6,41.4,0.6
1102.0,41.7,41.7,41.0,41.5,0.4
1103.0,41.4,41.7,41.6,41.6,0.1
1104.0,41.6,41.3,41.1,41.3,0.3
1105.0,40.6,41.1,40.8,40.8,0.3
1106.0,40.5,41.2,40.9,40.9,0.3
1107.0,40.0,41.1,40.6,40.6,0.5
1108.0,40.3,41.1,40.6,40.7,0.4
1109.0,41.2,40.8,40.0,40.7,0.6
1110.0,40.6,40.5,40.4,40.5,0.1
1111.0,40.2,41.0,40.7,40.6,0.4
1112.0,40.1,40.2,40.3,40.2,0.1
1113.0,40.6,40.4,40.4,40.5,0.1
1114.0,40.4,39.4,40.4,40.1,0.6
1115.0,40.1,39.8,41.0,40.3,0.6
1116.0,40.6,40.1,40.1,40.3,0.3
1117.0,40.5,40.1,40.3,40.3,0.2
1118.0,40.4,39.5,40.2,40.0,0.5
1119.0,40.3,39.7,40.4,40.1,0.4
1120.0,39.9,40.3,40.5,40.3,0.3
1121.0,40.2,39.5,40.3,40.0,0.4
1122.0,40.0,39.7,40.6,40.1,0.5
1123.0,40.6,39.7,40.0,40.1,0.4
1124.0,41.1,39.7,40.0,40.3,0.7
1125.0,39.6,39.4,39.4,39.5,0.1
1126.0,39.3,40.5,41.2,40.3,0.9
1127.0,39.1,39.6,40.5,39.8,0.7
1128.0,39.1,39.9,40.8,39.9,0.8
1129.0,39.3,40.1,40.3,39.9,0.5
1130.0,38.7,39.4,40.6,39.6,0.9
1131.0,39.0,39.2,40.8,39.7,1.0
1132.0,39.5,39.0,39.9,39.4,0.5
1133.0,38.9,39.0,40.0,39.3,0.6
1134.0,38.5,39.1,39.9,39.2,0.7
1135.0,38.8,39.2,39.8,39.3,0.5
1136.0,38.9,38.6,39.9,39.2,0.7
1137.0,39.0,38.4,39.8,39.1,0.7
1138.0,40.0,39.1,40.0,39.7,0.5
1139.0,39.6,39.3,39.8,39.5,0.3
1140.0,39.5,39.1,40.2,39.6,0.5
1141.0,39.2,39.3,38.8,39.1,0.3
1142.0,39.4,40.0,39.1,39.5,0.4
1143.0,39.5,40.7,39.8,40.0,0.7
1144.0,39.2,40.4,39.5,39.7,0.6
1145.0,38.9,40.9,39.3,39.7,1.1
1146.0,39.2,41.4,38.9,39.8,1.4
1147.0,39.1,41.4,39.0,39.8,1.3
1148.0,39.4,42.0,38.9,40.1,1.6
1149.0,38.8,42.5,39.2,40.1,2.0
1150.0,39.6,42.8,39.7,40.7,1.8
1151.0,38.9,42.6,39.6,40.4,2.0
1152.0,39.3,42.4,40.2,40.6,1.6
1153.0,39.1,42.7,39.7,40.5,1.9
1154.0,39.1,42.8,40.0,40.6,1.9
1155.0,38.8,42.2,39.7,40.2,1.8
1156.0,37.9,42.5,40.6,40.4,2.3
1157.0,38.8,42.2,40.3,40.4,1.7
1158.0,38.9,41.5,41.0,40.5,1.4
1159.0,39.1,41.4,40.1,40.2,1.2
1160.0,39.5,41.2,39.8,40.2,0.9
1161.0,39.1,40.6,39.7,39.8,0.8
1162.0,38.8,40.5,39.4,39.6,0.9
1163.0,39.0,39.8,39.2,39.3,0.4
1164.0,38.4,39.7,38.9,39.0,0.7
1165.0,38.0,39.7,38.8,38.8,0.8
1166.0,38.5,39.1,38.9,38.8,0.3
1167.0,37.7,39.4,39.0,38.7,0.9
1168.0,38.4,40.4,38.8,39.2,1.1
1169.0,38.3,39.7,38.5,38.8,0.8
1170.0,37.3,39.8,38.6,38.5,1.2
1171.0,37.1,40.2,38.6,38.6,1.5
1172.0,36.8,40.8,38.6,38.7,2.0
1173.0,36.7,40.8,39.1,38.8,2.0
1174.0,36.7,40.6,39.1,38.8,1.9
1175.0,36.1,40.1,38.9,38.4,2.1
1176.0,36.3,40.8,38.4,38.5,2.3
1177.0,36.1,41.1,38.1,38.4,2.5
1178.0,36.4,41.5,38.3,38.7,2.6
1179.0,36.3,41.4,38.5,38.7,2.6
1180.0,36.2,41.7,37.9,38.6,2.9
1181.0,36.7,40.6,38.0,38.5,2.0
1182.0,36.8,40.1,38.1,38.4,1.7
1183.0,37.1,39.9,38.7,38.6,1.4
1184.0,36.7,39.1,38.1,38.0,1.2
1185.0,37.9,39.1,38.2,38.4,0.7
1186.0,37.3,38.8,38.1,38.1,0.7
1187.0,37.5,38.6,38.2,38.1,0.6
1188.0,37.4,38.6,37.8,37.9,0.6
1189.0,37.3,38.7,38.3,38.1,0.7
1190.0,37.1,38.5,38.1,37.9,0.7
1191.0,37.6,39.1,37.8,38.2,0.8
1192.0,37.4,38.9,37.3,37.8,0.9
1193.0,38.1,38.8,38.1,38.3,0.4
1194.0,37.7,39.7,37.4,38.3,1.2
1195.0,37.2,39.6,37.0,38.0,1.5
1196.0,37.3,38.9,37.4,37.9,0.9
1197.0,38.3,38.8,37.5,38.2,0.6
1198.0,38.3,38.8,37.3,38.1,0.7
1199.0,38.7,38.9,37.5,38.4,0.8
1200.0,38.4,38.7,37.5,38.2,0.7
1201.0,38.3,38.2,37.7,38.1,0.3
1202.0,38.0,38.2,36.9,37.7,0.7
1203.0,37.9,38.0,36.9,37.6,0.6
1204.0,38.1,37.8,36.8,37.6,0.7
1205.0,37.3,38.4,37.3,37.7,0.6
1206.0,37.5,37.8,37.3,37.5,0.3
1207.0,37.0,38.0,37.1,37.3,0.6
1208.0,36.7,38.4,37.2,37.5,0.9
1209.0,37.3,38.1,37.6,37.6,0.4
1210.0,37.1,38.3,38.8,38.1,0.8
1211.0,36.7,38.4,38.4,37.8,1.0
1212.0,37.0,38.2,38.5,37.9,0.8
1213.0,36.7,38.3,37.9,37.6,0.8
1214.0,36.1,38.2,38.1,37.5,1.2
1215.0,36.4,38.2,38.0,37.5,1.0
1216.0,36.2,38.0,37.1,37.1,0.9
1217.0,36.0,38.4,37.2,37.2,1.2
1218.0,36.2,39.0,37.5,37.6,1.4
1219.0,37.3,38.2,37.0,37.5,0.6
1220.0,36.9,38.0,37.0,37.3,0.6
1221.0,36.5,38.2,36.5,37.1,1.0
1222.0,37.3,38.3,36.8,37.5,0.8
1223.0,36.9,38.2,36.2,37.1,1.0
1224.0,36.8,38.0,37.0,37.3,0.7
1225.0,36.8,38.4,36.2,37.2,1.1
1226.0,37.1,37.5,36.3,37.0,0.6
1227.0,37.1,37.4,36.4,37.0,0.5
1228.0,36.6,37.5,36.6,36.9,0.5
1229.0,36.7,38.1,36.5,37.1,0.9
1230.0,37.1,38.0,36.2,37.1,0.9
1231.0,36.8,38.3,36.7,37.2,0.9
1232.0,37.1,39.0,36.7,37.6,1.3
1233.0,36.9,39.1,37.4,37.8,1.2
1234.0,36.8,38.5,37.3,37.5,0.9
1235.0,36.8,38.4,37.3,37.5,0.8
1236.0,37.0,38.3,37.8,37.7,0.7
1237.0,36.9,37.8,37.7,37.5,0.5
1238.0,36.4,37.7,37.9,37.3,0.8
1239.0,36.8,38.3,37.8,37.7,0.8
1240.0,36.6,38.3,37.3,37.4,0.9
1241.0,36.5,38.0,37.5,37.3,0.8
1242.0,36.1,37.8,37.1,37.0,0.9
1243.0,36.4,37.7,37.6,37.3,0.7
1244.0,36.4,38.1,37.4,37.3,0.9
1245.0,36.0,38.1,37.6,37.2,1.1
1246.0,36.8,37.7,37.8,37.4,0.6
1247.0,35.9,37.8,37.5,37.1,1.0
1248.0,36.2,37.9,37.0,37.1,0.9
1249.0,36.7,37.1,37.6,37.1,0.5
1250.0,35.7,37.2,36.8,36.6,0.8
1251.0,36.3,37.5,36.7,36.9,0.6
1252.0,36.5,37.7,36.7,37.0,0.6
1253.0,36.3,37.6,36.4,36.8,0.7
1254.0,36.5,38.2,36.5,37.1,1.0
1255.0,36.4,37.8,36.1,36.8,0.9
1256.0,36.6,37.7,36.5,36.9,0.7
1257.0,37.3,38.0,36.0,37.1,1.0
1258.0,37.3,37.9,36.6,37.3,0.7
1259.0,37.1,38.2,37.0,37.4,0.7
1259.75,36.8,37.9,36.5,37.1,0.7