File: 01_Data/Particleboard/Cone/Particleboard_Cone_HF50Scan_230705_R2.csv
Names,Time,Stack TC,Smoke TC,Exh Press,Smoke Comp,Smoke Meas,CO Meter,CO2 Meter,O2 Meter,Sample Mass,Ext Coeff,Start Test,Flame Verif
Chan Gain,,500,500,1,1,1,1,1,1,1,1,1.0,1.0
Offset,,0,0,0.138104,0,0,0,0,0,0,0,0.0,0.0
Gain,,1,1,25.011,13.0255,26.639,1,1,1,1.00088,0.812795,1.0,1.0
Units,sec,C,C,Pa,%,%,%,%,%,g,/m,,
Baseline,,56.238,59.1959,165.399,101.271,103.033,0.000352877,0.0433636,20.9303,-447.026,-0.122819,,
13,3,54.7979,56.7598,163.61,100.831,10.3863,0.000374909,0.0439408,20.932,207.332,16.2057,0.0,0.0
26,6.25,55.1112,57.0425,166.9,100.834,10.3262,0.000112899,0.045723,20.9318,207.302,16.2473,0.0,0.0
39,9.5,55.2002,57.6447,160.893,100.834,10.44,0.000275726,0.0469258,20.9302,207.142,16.1691,0.0,0.0
52,12.75,55.2018,58.1476,166.341,100.86,10.3668,0.000594685,0.0464904,20.9285,207.062,16.2211,0.0,0.0
65,16,55.1009,58.05,169.505,100.885,10.0457,0.000604578,0.0462087,20.9289,207.012,16.4472,0.0,0.0
78,19.25,55.3796,57.6884,164.549,100.873,9.99287,0.000486362,0.0458928,20.9296,206.851,16.484,0.0,0.0
91,22.5,55.3672,58.1667,165.745,100.92,10.1912,0.000224847,0.0452396,20.9309,206.831,16.3471,0.0,0.0
104,25.75,55.6511,57.9923,165.256,100.958,9.97987,0.000158131,0.0450427,20.9312,206.731,16.4993,0.0,0.0
117,29,56.0257,58.485,164.862,100.952,10.2262,0.000374512,0.0455066,20.9313,206.601,16.325,0.0,0.0
130,32.25,55.3513,59.1044,160.745,100.986,10.4018,0.000609341,0.0461026,20.9317,206.381,16.206,0.0,1.0
143,35.5,55.9101,60.7995,155.224,101,10.7327,0.000613655,0.047058,20.9319,206.251,15.9838,0.0,1.0
156,38.75,56.8588,63.0316,158.412,101.017,11.1725,0.000512371,0.0500009,20.9318,205.851,15.6986,0.0,0.0
169,42,59.3579,67.6339,150.341,101.019,11.1928,0.000866636,0.0742071,20.9286,205.43,15.6858,0.0,0.0
182,45.25,61.6022,73.0189,142.565,101.022,11.2586,0.00154445,0.13891,20.8811,204.95,15.6442,0.0,0.0
195,48.5,64.2721,78.095,142.644,100.994,11.1554,0.00184901,0.235944,20.8042,204.239,15.7079,0.0,0.0
208,51.75,67.3548,83.1624,144.292,101.008,11.131,0.00232542,0.340561,20.6769,203.639,15.7245,0.0,0.0
221,55,70.5157,88.2006,137.688,100.991,11.2611,0.00301428,0.417817,20.5674,203.028,15.6405,0.0,0.0
234,58.25,73.0309,92.2206,138.985,100.962,11.1822,0.00377323,0.48202,20.4763,202.267,15.6885,0.0,0.0
247,61.5,75.3625,95.5819,147.343,100.972,11.0733,0.00433666,0.539697,20.3878,201.647,15.759,0.0,0.0
260,64.75,77.9342,98.7196,140.364,100.996,10.9733,0.00483961,0.580825,20.3167,201.006,15.8254,0.0,0.0
273,68,80.1573,100.701,144.22,101,10.7001,0.00522859,0.60246,20.2671,200.276,16.0054,0.0,0.0
286,71.25,81.6124,102.47,138.388,100.994,10.6343,0.00589612,0.615292,20.2424,199.635,16.0489,0.0,0.0
299,74.5,82.5745,103.397,145.281,101.006,10.5091,0.00650193,0.617031,20.2288,198.965,16.1343,0.0,0.0
312,77.75,84.4243,104.769,139.238,100.957,11.0465,0.00686068,0.613875,20.2264,198.184,15.7752,0.0,0.0
325,81,85.6691,105.658,138.818,100.96,10.4912,0.0069969,0.605795,20.2307,197.673,16.1432,0.0,0.0
338,84.25,86.2242,106.139,142.436,100.91,10.7571,0.0068926,0.597265,20.2418,196.903,15.9612,0.0,0.0
351,87.5,87.855,106.823,140.69,100.869,10.7514,0.00664528,0.600308,20.2494,196.312,15.9621,0.0,0.0
364,90.75,88.6505,107.029,152.108,100.834,10.5367,0.00674411,0.593105,20.2514,195.722,16.1034,0.0,0.0
377,94,89.2294,106.547,144.446,100.794,10.418,0.00688368,0.578753,20.2633,195.171,16.1813,0.0,0.0
390,97.25,89.167,106.237,141.976,100.758,10.5904,0.00691696,0.562315,20.2795,194.531,16.0618,0.0,0.0
403,100.5,89.945,105.449,146.859,100.719,10.814,0.00691334,0.543545,20.2958,193.94,15.9101,0.0,0.0
416,103.75,89.523,105.02,140.445,100.7,10.6603,0.00674946,0.523242,20.3217,193.47,16.0108,0.0,0.0
429,107,89.6945,104.162,148.04,100.627,10.8953,0.00653068,0.500518,20.3506,192.849,15.8502,0.0,0.0
442,110.25,89.4672,103.592,147.877,100.62,10.6579,0.0064817,0.485374,20.3773,192.349,16.0067,0.0,0.0
455,113.5,89.6776,102.585,147.227,100.592,10.575,0.00628055,0.470829,20.3951,191.908,16.0604,0.0,0.0
468,116.75,89.1889,101.848,145.416,100.552,11.0213,0.00609579,0.455668,20.4127,191.308,15.7629,0.0,0.0
481,120,89.656,100.914,148.795,100.553,10.575,0.00569213,0.434941,20.4288,190.867,16.0577,0.0,0.0
494,123.25,89.093,99.7728,144.675,100.531,10.7001,0.0053866,0.417231,20.4527,190.487,15.9722,0.0,0.0
507,126.5,88.9477,99.5193,149.241,100.483,10.879,0.00517825,0.403374,20.474,189.907,15.8506,0.0,0.0
520,129.75,88.8995,98.754,151.527,100.495,11.1456,0.00496459,0.391613,20.4925,189.576,15.6788,0.0,0.0
533,133,88.2449,97.7447,148.622,100.482,10.979,0.0046957,0.381689,20.5055,189.106,15.7853,0.0,0.0
546,136.25,88.0712,97.2928,151.021,100.46,10.7384,0.0044418,0.370646,20.5198,188.645,15.9418,0.0,0.0
559,139.5,88.195,96.8292,147.245,100.458,10.5928,0.00413142,0.358144,20.5336,188.265,16.0389,0.0,0.0
572,142.75,86.99,96.191,151.165,100.48,10.7066,0.00390133,0.350766,20.5481,187.845,15.9642,0.0,0.0
585,146,86.8981,95.5609,143.969,100.492,11.0343,0.00387609,0.343703,20.5557,187.344,15.7502,0.0,0.0
598,149.25,86.9044,95.1167,148.237,100.511,10.6424,0.00395128,0.336685,20.5666,187.024,16.0093,0.0,0.0
611,152.5,86.539,94.8638,147.013,100.512,10.7701,0.00398548,0.334856,20.5739,186.604,15.9244,0.0,0.0
624,155.75,86.1713,93.8909,149.766,100.524,10.7066,0.00367227,0.331321,20.5769,186.113,15.9674,0.0,0.0
637,159,85.7064,93.489,152.572,100.559,10.7327,0.00345134,0.326839,20.5818,185.793,15.9526,0.0,0.0
650,162.25,85.7492,93.2703,150.429,100.579,10.6497,0.00353346,0.321367,20.5877,185.373,16.0093,0.0,0.0
663,165.5,85.2961,92.6467,145.745,100.606,10.8839,0.0035313,0.316759,20.5939,184.932,15.8561,0.0,0.0
676,168.75,85.2247,92.3786,150.568,100.637,10.6416,0.00345838,0.312228,20.5982,184.602,16.0188,0.0,0.0
689,172,85.3676,91.8661,154.242,100.66,10.9351,0.00333739,0.308654,20.6038,184.182,15.8265,0.0,0.0
702,175.25,85.0001,91.7699,149.74,100.672,10.9766,0.00324382,0.307015,20.6078,183.811,15.8004,0.0,0.0
715,178.5,84.298,91.3003,148.767,100.722,10.8026,0.00325249,0.303545,20.6098,183.501,15.9178,0.0,0.0
728,181.75,84.3636,90.9927,150.86,100.74,10.9782,0.00336719,0.29848,20.6143,183.091,15.8041,0.0,0.0
741,185,84.4615,91.0154,156.533,100.766,11.0717,0.0031157,0.293714,20.6198,182.69,15.7455,0.0,0.0
754,188.25,84.0036,90.5337,149.012,100.827,10.8083,0.00284935,0.292167,20.6258,182.42,15.9215,0.0,0.0
767,191.5,83.7333,90.8667,151.989,100.836,10.8766,0.00273559,0.289668,20.6282,181.97,15.8772,0.0,0.0
780,194.75,83.7181,90.2917,147.977,100.865,10.8757,0.00269778,0.286449,20.632,181.599,15.8798,0.0,0.0
793,198,83.4781,89.9745,153.129,100.935,10.9335,0.00272115,0.283178,20.6348,181.309,15.847,0.0,0.0
806,201.25,83.5867,90.0092,152.929,100.988,10.5823,0.00275147,0.280888,20.6383,180.949,16.0835,0.0,0.0
819,204.5,83.0411,89.5959,151.594,101.007,10.8424,0.00280202,0.27779,20.6425,180.618,15.9117,0.0,0.0
832,207.75,82.8149,89.3161,151.136,101.057,10.9188,0.00278414,0.274604,20.6464,180.328,15.8651,0.0,0.0
845,211,83.1911,89.1368,152.696,101.111,10.8863,0.00251753,0.272856,20.6495,179.908,15.8902,0.0,0.0
858,214.25,82.3038,88.9905,154.569,101.146,10.7936,0.00251028,0.272145,20.6515,179.548,15.9536,0.0,0.0
871,217.5,82.4992,88.2838,150.694,101.197,11.0001,0.00252166,0.270971,20.6536,179.237,15.8222,0.0,0.0
884,220.75,82.4828,88.6101,145.658,101.219,11.0554,0.00239205,0.269117,20.6558,178.847,15.7879,0.0,0.0
897,224,82.6731,88.3264,154.168,101.255,10.8091,0.00226728,0.266295,20.6579,178.467,15.9511,0.0,0.0
910,227.25,81.9588,88.2201,147.905,101.278,11.044,0.0024202,0.267302,20.659,178.246,15.7995,0.0,0.0
923,230.5,82.2152,88.5493,153.623,101.292,10.8522,0.00252356,0.266239,20.6593,177.826,15.9254,0.0,0.0
936,233.75,82.4512,88.4083,148.809,101.287,11.2611,0.00242486,0.262821,20.6605,177.496,15.6613,0.0,0.0
949,237,82.1758,87.9131,148.17,101.302,11.1562,0.00223418,0.261524,20.6646,177.215,15.7291,0.0,0.0
962,240.25,82.2553,88.5189,149.72,101.29,11.0302,0.00218172,0.262735,20.6667,176.815,15.8092,0.0,0.0
975,243.5,81.8249,87.9354,151.498,101.273,11.0196,0.00214565,0.261227,20.6675,176.495,15.8148,0.0,0.0
988,246.75,82.0148,88.113,150.724,101.256,11.0001,0.00208326,0.258398,20.6701,176.235,15.8263,0.0,0.0
1001,250,81.9761,88.1008,148.733,101.222,11.0034,0.00208423,0.256787,20.6721,175.834,15.8218,0.0,0.0
1014,253.25,81.5097,87.505,146.898,101.185,10.8562,0.00195709,0.255545,20.6741,175.534,15.9152,0.0,0.0
1027,256.5,81.4635,87.2868,153.232,101.128,10.9766,0.00217191,0.255342,20.6746,175.284,15.8325,0.0,0.0
1040,259.75,81.1755,87.5012,155.731,101.047,10.7343,0.00220909,0.254443,20.6764,174.883,15.986,0.0,0.0
1053,263,81.2758,87.0923,154.643,100.99,10.7156,0.00211465,0.250954,20.6769,174.533,15.9944,0.0,0.0
1066,266.25,81.1155,86.5129,155.41,100.917,10.753,0.00207558,0.249956,20.6798,174.323,15.9644,0.0,0.0
1079,269.5,81.0829,86.6424,150.578,100.822,10.8229,0.00205193,0.246641,20.6829,173.973,15.9115,0.0,0.0
1092,272.75,81.1257,86.7542,155.141,100.74,11.053,0.00206348,0.246724,20.6851,173.652,15.7557,0.0,0.0
1105,276,81.4258,87.0092,150.06,100.693,11.0952,0.00234894,0.247148,20.686,173.372,15.7252,0.0,0.0
1118,279.25,80.9781,87.1237,152.694,100.567,11.1684,0.00229869,0.246353,20.6842,172.972,15.6694,0.0,0.0
1131,282.5,80.9782,86.5498,148.22,100.459,10.9887,0.00212265,0.245325,20.6847,172.722,15.7774,0.0,0.0
1144,285.75,80.759,86.8566,154.32,100.365,11.0172,0.00192407,0.243716,20.6857,172.431,15.7522,0.0,0.0
1157,289,80.5823,86.6953,143.177,100.252,11.1448,0.00182823,0.242177,20.6884,172.081,15.6621,0.0,0.0
1170,292.25,80.9788,86.4076,153.676,100.136,10.9961,0.00211804,0.241316,20.6905,171.811,15.7496,0.0,0.0
1183,295.5,80.6918,86.5115,148.873,100.084,10.9717,0.00215988,0.23862,20.6924,171.52,15.7618,0.0,0.0
1196,298.75,80.8187,86.4349,152.095,100.012,11.0058,0.00205807,0.238063,20.6946,171.16,15.7345,0.0,0.0
1209,302,80.7418,86.635,148.477,99.9568,10.9733,0.00195483,0.238416,20.6956,170.92,15.7516,0.0,0.0
1222,305.25,80.7473,86.1637,149.941,99.9497,11.0026,0.00201578,0.236491,20.6948,170.65,15.7321,0.0,0.0
1235,308.5,80.5082,85.7558,149.302,99.9079,10.8197,0.00209101,0.234985,20.6977,170.309,15.8487,0.0,0.0
1248,311.75,80.4946,85.6702,151.78,99.8698,11.0578,0.00208918,0.233671,20.6997,170.029,15.6907,0.0,0.0
1261,315,80.2527,85.7985,151.394,99.8412,10.7172,0.00212186,0.230852,20.7027,169.789,15.9117,0.0,0.0
1274,318.25,80.0176,85.9263,151.517,99.8137,11.0896,0.00198158,0.229347,20.7058,169.389,15.6663,0.0,0.0
1287,321.5,80.0386,85.3605,157.162,99.7839,10.7668,0.00162311,0.228186,20.7066,169.158,15.8747,0.0,0.0
1300,324.75,79.6562,85.5081,154.783,99.737,10.5993,0.00165655,0.226821,20.7068,168.908,15.9832,0.0,0.0
1313,328,79.8829,85.1354,149.869,99.6965,10.5741,0.00187918,0.225236,20.7099,168.518,15.9972,0.0,0.0
1326,331.25,79.3154,84.6403,158.648,99.6663,10.6562,0.00187039,0.22334,20.7114,168.348,15.9399,0.0,0.0
1339,334.5,79.7745,84.7547,152.52,99.6671,10.6359,0.00177148,0.221154,20.7136,168.077,15.9536,0.0,0.0
1352,337.75,79.4676,84.1171,156.192,99.6142,10.4685,0.001828,0.218889,20.7161,167.737,16.063,0.0,0.0
1365,341,79.4054,84.3203,152.981,99.6277,10.5912,0.0015572,0.21822,20.7173,167.487,15.9808,0.0,0.0
1378,344.25,79.2768,83.9534,153.777,99.6166,10.5603,0.00153624,0.217291,20.7175,167.207,16.0008,0.0,0.0
1391,347.5,79.0746,84.0923,156.215,99.6015,10.4449,0.0016711,0.213167,20.72,166.896,16.0781,0.0,0.0
1404,350.75,78.2805,83.5275,157.916,99.6122,10.4611,0.00194456,0.211334,20.7262,166.686,16.0678,0.0,0.0
1417,354,78.6433,82.9619,155.286,99.6325,10.6367,0.00190045,0.212114,20.7276,166.426,15.9506,0.0,0.0
1430,357.25,78.1275,83.0211,154.517,99.6341,10.7148,0.00164503,0.210897,20.7269,166.086,15.8986,0.0,0.0
1443,360.5,78.2769,83.0536,154.393,99.6524,10.6847,0.00146089,0.209318,20.7282,165.835,15.9199,0.0,0.0
1456,363.75,78.9402,83.1976,154.62,99.6842,10.7099,0.00117837,0.206512,20.73,165.655,15.9054,0.0,0.0
1469,367,78.3748,82.9227,154.687,99.6933,10.6684,0.00119111,0.206926,20.7327,165.305,15.9337,0.0,0.0
1482,370.25,77.8804,82.6849,159.407,99.7342,10.766,0.00141337,0.208371,20.7329,165.085,15.8717,0.0,0.0
1495,373.5,77.7787,82.9506,155.725,99.7803,10.8863,0.00163395,0.20526,20.7326,164.865,15.7958,0.0,0.0
1508,376.75,77.9407,82.5267,151.772,99.7887,10.9611,0.00163639,0.202396,20.736,164.584,15.7476,0.0,0.0
1521,380,77.8607,82.4587,156.382,99.8336,10.8822,0.00156998,0.202075,20.7388,164.294,15.8022,0.0,0.0
1534,383.25,77.5936,82.4992,154.14,99.8785,10.8953,0.00158843,0.201605,20.7381,164.104,15.7969,0.0,0.0
1547,386.5,77.6239,82.615,155.317,99.898,10.5465,0.00168839,0.199948,20.7382,163.814,16.0303,0.0,0.0
1560,389.75,77.5998,82.324,156.327,99.9509,11.0131,0.00186227,0.197179,20.741,163.604,15.7254,0.0,0.0
1573,393,77.6651,82.0794,156.802,99.9978,10.6798,0.00187549,0.195493,20.7445,163.363,15.9478,0.0,0.0
1586,396.25,77.6163,81.7061,155.183,100.029,10.6546,0.00169461,0.194978,20.7462,163.063,15.9669,0.0,0.0
1599,399.5,77.391,81.5492,154.763,100.055,10.5823,0.00178831,0.194659,20.7474,162.833,16.0173,0.0,0.0
1612,402.75,77.0665,81.9162,154.522,100.07,10.692,0.00199082,0.193578,20.7471,162.633,15.9449,0.0,0.0
1625,406,77.3374,81.3895,159.601,100.105,10.94,0.00193118,0.193616,20.7482,162.332,15.7839,0.0,0.0
1638,409.25,77.2648,81.8396,153.6,100.139,10.7343,0.00168755,0.193215,20.7469,162.112,15.9216,0.0,0.0
1651,412.5,77.1205,81.7267,156.805,100.145,10.8611,0.00168528,0.191288,20.7474,161.922,15.8383,0.0,0.0
1664,415.75,76.9891,81.7225,156.002,100.156,10.6302,0.00185086,0.191068,20.7497,161.572,15.9923,0.0,0.0
1677,419,76.9071,81.5256,154.981,100.175,10.6424,0.00190194,0.190244,20.7506,161.402,15.9854,0.0,0.0
1690,422.25,76.8226,81.6347,156.144,100.197,10.5254,0.00190644,0.188361,20.7517,161.161,16.0659,0.0,0.0
1703,425.5,76.6377,81.288,157.728,100.209,10.7725,0.00188445,0.188601,20.7549,160.861,15.9013,0.0,0.0
1716,428.75,76.7797,81.2408,158.865,100.232,10.7042,0.00184597,0.187311,20.7571,160.741,15.9482,0.0,0.0
1729,432,76.726,80.8463,151.482,100.24,10.7505,0.00193852,0.18617,20.7586,160.471,15.918,0.0,0.0
1742,435.25,76.5047,80.7968,153.928,100.238,10.8375,0.00191674,0.185655,20.7597,160.191,15.8604,0.0,0.0
1755,438.5,76.2542,80.8719,156.931,100.253,10.8327,0.00175432,0.184184,20.761,160.05,15.8647,0.0,0.0
1768,441.75,76.1186,80.5166,154.546,100.255,10.5847,0.00167673,0.184321,20.7621,159.77,16.0299,0.0,0.0
1781,445,76.4441,80.2372,161.771,100.251,10.6188,0.00159844,0.18328,20.7615,159.51,16.0067,0.0,0.0
1794,448.25,76.0557,80.2176,159.134,100.283,10.7034,0.00168056,0.182656,20.7607,159.35,15.9524,0.0,0.0
1807,451.5,76.4369,80.4117,150.655,100.296,10.9977,0.00180492,0.181988,20.761,159.03,15.76,0.0,0.0
1820,454.75,75.7615,80.6465,152.394,100.294,10.7327,0.00179837,0.18266,20.7606,158.829,15.9338,0.0,0.0
1833,458,76.0113,80.4111,158.524,100.337,10.7408,0.00153738,0.18119,20.7604,158.689,15.9314,0.0,0.0
1846,461.25,75.5655,79.9845,153.77,100.362,10.6457,0.00145426,0.179652,20.7617,158.439,15.9966,0.0,0.0
1859,464.5,76.0862,79.6217,157.36,100.386,10.5343,0.00147468,0.178972,20.7636,158.169,16.0733,0.0,0.0
1872,467.75,75.1775,79.6818,154.822,100.421,10.5441,0.00147101,0.179782,20.765,157.999,16.0691,0.0,0.0
1885,471,75.4996,80.1478,159.804,100.46,10.518,0.00167437,0.179328,20.7674,157.688,16.0896,0.0,0.0
1898,474.25,75.4285,79.2863,157.027,100.489,10.6831,0.00181956,0.178046,20.768,157.458,15.9806,0.0,0.0
1911,477.5,75.503,79.1493,154.209,100.54,10.575,0.00175038,0.177478,20.7692,157.318,16.0567,0.0,0.0
1924,480.75,75.1881,79.5609,158.927,100.571,10.8188,0.00177055,0.176761,20.7702,157.008,15.8964,0.0,0.0
1937,484,75.0986,78.9588,155.86,100.588,11.031,0.00184053,0.176257,20.7704,156.778,15.7591,0.0,0.0
1950,487.25,75.3851,79.184,155.001,100.621,10.6733,0.00177639,0.176842,20.7712,156.637,15.9965,0.0,0.0
1963,490.5,74.7198,79.4059,154.722,100.647,10.6554,0.00173003,0.175512,20.7713,156.387,16.0103,0.0,0.0
1976,493.75,74.929,79.3173,153.45,100.664,10.5945,0.0016697,0.175016,20.7719,156.167,16.0524,0.0,0.0
1989,497,75.1046,79.2309,157.285,100.693,10.8798,0.00178954,0.175114,20.7728,156.007,15.865,0.0,0.0
2002,500.25,75.1282,79.4717,161.32,100.699,10.7839,0.00186784,0.175037,20.7729,155.717,15.9285,0.0,0.0
2015,503.5,75.2405,79.551,156.685,100.724,10.7034,0.00176665,0.175311,20.7729,155.526,15.9837,0.0,0.0
2028,506.75,75.1057,79.6191,157.917,100.753,10.7514,0.00189006,0.176565,20.7725,155.386,15.9539,0.0,0.0
2041,510,74.9422,79.5212,151.37,100.757,10.8294,0.00204519,0.176682,20.7717,155.156,15.9026,0.0,0.0
2054,513.25,75.1959,79.0855,150.514,100.761,10.8538,0.00215609,0.176094,20.7722,154.886,15.8868,0.0,0.0
2067,516.5,74.5088,79.0641,155.193,100.789,10.6286,0.00216741,0.17519,20.7721,154.776,16.0383,0.0,0.0
2080,519.75,74.6031,79.3591,151.084,100.806,10.6424,0.00197027,0.175562,20.7718,154.496,16.0302,0.0,0.0
2093,523,74.3877,79.066,155.418,100.802,10.6579,0.00192858,0.175928,20.7707,154.275,16.0196,0.0,0.0
2106,526.25,74.3863,78.9907,156.259,100.804,10.6099,0.00180349,0.175684,20.7697,154.165,16.0519,0.0,0.0
2119,529.5,74.8075,79.3175,155.775,100.794,10.8131,0.00191727,0.175824,20.7706,153.875,15.9159,0.0,0.0
2132,532.75,75.1549,79.4392,158.063,100.794,10.953,0.00202198,0.176462,20.7709,153.665,15.8243,0.0,0.0
2145,536,74.9886,79.0649,161.364,100.834,10.8953,0.00186888,0.176152,20.7697,153.495,15.8648,0.0,0.0
2158,539.25,74.8564,79.1489,155.058,100.806,10.5652,0.0015944,0.175562,20.7703,153.244,16.0822,0.0,0.0
2171,542.5,74.6863,79.1552,160.977,100.805,10.7847,0.00142285,0.174411,20.7719,153.014,15.9355,0.0,0.0
2184,545.75,74.682,79.3933,155.055,100.833,10.8148,0.00137409,0.174894,20.7729,152.854,15.9176,0.0,0.0
2197,549,74.5325,79.0789,155.924,100.842,10.679,0.00133192,0.175545,20.7736,152.554,16.0083,0.0,0.0
2210,552.25,74.6973,79.3347,157.366,100.839,10.74,0.00185127,0.176699,20.7739,152.354,15.9675,0.0,0.0
2223,555.5,74.4053,79.1293,156.467,100.833,10.8554,0.00205338,0.177346,20.7724,152.254,15.8909,0.0,0.0
2236,558.75,74.3454,78.8066,156.956,100.833,10.9294,0.00180357,0.177103,20.7715,151.893,15.8424,0.0,0.0
2249,562,74.8152,79.0946,159.714,100.827,10.931,0.00167293,0.176577,20.771,151.793,15.841,0.0,0.0
2262,565.25,74.7842,79.2913,156.923,100.84,10.7977,0.00163897,0.177136,20.7701,151.613,15.9294,0.0,0.0
2275,568.5,74.4574,79.1193,154.971,100.813,10.7042,0.00150321,0.176605,20.7714,151.293,15.9894,0.0,0.0
2288,571.75,74.2109,79.1854,155.733,100.804,10.5628,0.00161326,0.175962,20.7726,151.173,16.0837,0.0,0.0
2301,575,74.3469,78.8805,156.77,100.792,10.5091,0.00163019,0.176128,20.7729,150.982,16.1191,0.0,0.0
2314,578.25,74.6608,78.9273,152.272,100.755,10.8953,0.00176015,0.176618,20.7727,150.682,15.8593,0.0,0.0
2327,581.5,74.3507,78.4422,154.01,100.744,10.7863,0.00185216,0.176554,20.7723,150.552,15.9301,0.0,0.0
2340,584.75,74.4843,78.7499,153.146,100.709,10.7392,0.00199456,0.178096,20.772,150.342,15.9589,0.0,0.0
2353,588,74.456,79.2346,156.72,100.684,10.8245,0.00207618,0.177962,20.7708,150.082,15.9006,0.0,0.0
2366,591.25,74.0229,78.6255,159.493,100.672,10.7806,0.00185697,0.178142,20.7697,149.922,15.9287,0.0,0.0
2379,594.5,74.1823,78.3394,154.287,100.63,10.505,0.00171197,0.177473,20.7703,149.731,16.1104,0.0,0.0
2392,597.75,74.5492,78.8383,153.786,100.584,10.5497,0.00168893,0.177881,20.7704,149.401,16.0769,0.0,0.0
2405,601,74.5935,79.184,154.914,100.574,10.4717,0.00173978,0.17808,20.7704,149.271,16.1291,0.0,0.0
2418,604.25,74.5889,79.0052,158.515,100.546,10.4099,0.00201533,0.179569,20.7704,149.061,16.1693,0.0,0.0
2431,607.5,73.9897,79.092,159.026,100.627,10.6351,0.00194359,0.180657,20.7697,148.761,16.0224,0.0,0.0
2444,610.75,74.4955,79.3213,159.239,100.71,10.5912,0.00173657,0.18101,20.7687,148.61,16.0579,0.0,0.0
2457,614,74.2225,79.0447,158.894,100.692,10.653,0.00160754,0.180725,20.7687,148.49,16.0151,0.0,0.0
2470,617.25,74.6875,79.3574,156.681,100.668,10.6359,0.00163122,0.179801,20.7695,148.16,16.0248,0.0,0.0
2483,620.5,74.3591,78.8543,153.352,100.643,10.6977,0.00173536,0.181308,20.7702,148.01,15.9817,0.0,0.0
2496,623.75,74.5306,79.2971,151.44,100.631,10.6229,0.00173413,0.183071,20.7686,147.83,16.031,0.0,0.0
2509,627,74.5521,79.5343,157.225,100.578,10.727,0.00153646,0.181508,20.7669,147.499,15.9577,0.0,0.0
2522,630.25,74.3335,79.0254,159.915,100.573,10.5075,0.00127356,0.18287,20.7677,147.359,16.1048,0.0,0.0
2535,633.5,74.7376,79.1503,152.501,100.531,10.9026,0.00126085,0.184803,20.7651,147.099,15.8386,0.0,0.0
2548,636.75,74.5077,79.5846,157.238,100.501,10.6489,0.00173798,0.186028,20.763,146.809,16.0043,0.0,0.0
2561,640,74.0814,79.2486,150.482,100.472,10.6725,0.0020578,0.186553,20.7598,146.719,15.9865,0.0,0.0
2574,643.25,74.541,79.1346,154.189,100.41,10.6359,0.00173741,0.18584,20.7605,146.519,16.0065,0.0,0.0
2587,646.5,74.5626,79.2906,155.374,100.385,10.6294,0.00163953,0.185331,20.7609,146.248,16.0091,0.0,0.0
2600,649.75,74.4374,79.0609,152.398,100.381,10.605,0.00173369,0.186043,20.761,146.128,16.0252,0.0,0.0
2613,653,74.5226,79.403,163.714,100.365,10.7831,0.00169952,0.18748,20.7594,145.908,15.9054,0.0,0.0
2626,656.25,74.741,79.1183,158.63,100.339,10.8335,0.00174675,0.188041,20.7589,145.598,15.8703,0.0,0.0
2639,659.5,74.7148,79.6063,154.925,100.305,10.7904,0.00183158,0.189361,20.7585,145.398,15.8963,0.0,0.0
2652,662.75,74.6969,79.2265,154.85,100.278,10.6904,0.00169386,0.189772,20.7569,145.187,15.9608,0.0,0.0
2665,666,74.9368,80.3002,156.321,100.248,10.4075,0.00155902,0.189378,20.7565,144.887,16.1498,0.0,0.0
2678,669.25,74.9148,80.0671,155,100.214,10.6115,0.00150688,0.189651,20.7564,144.757,16.009,0.0,0.0
2691,672.5,74.7113,79.9958,153.377,100.203,10.7993,0.00158338,0.190988,20.7568,144.537,15.8831,0.0,0.0
2704,675.75,75.2234,80.2357,154.31,100.134,10.5083,0.00166343,0.1929,20.7545,144.257,16.073,0.0,0.0
2717,679,75.0713,80.4107,156.88,100.114,10.4197,0.00156546,0.193789,20.7529,144.056,16.1319,0.0,0.0
2730,682.25,75.0565,79.5924,153.859,100.069,10.5684,0.00149306,0.196053,20.7509,143.836,16.0277,0.0,0.0
2743,685.5,75.2396,80.5238,162.838,100.042,10.5278,0.00179522,0.196684,20.7496,143.586,16.0532,0.0,0.0
2756,688.75,75.2462,80.0297,153.233,100.076,10.7026,0.00205307,0.196354,20.7493,143.406,15.9383,0.0,0.0
2769,692,75.2366,80.2681,157.966,100.145,10.5351,0.00195615,0.1969,20.7494,143.186,16.0556,0.0,0.0
2782,695.25,75.5091,80.6284,153.968,100.183,10.8123,0.00165011,0.197623,20.7486,142.875,15.8731,0.0,0.0
2795,698.5,74.9361,80.6673,152.989,100.247,10.792,0.00137598,0.197453,20.7479,142.765,15.8911,0.0,0.0
2808,701.75,75.0474,80.5035,155.617,100.303,10.6197,0.00157083,0.198174,20.7489,142.495,16.0098,0.0,0.0
2821,705,75.3251,80.7463,157.12,100.325,10.6319,0.00169039,0.199312,20.748,142.215,16.0032,0.0,0.0
2834,708.25,75.2592,80.183,151.41,100.378,10.6481,0.00162141,0.199961,20.7473,142.045,15.9961,0.0,0.0
2847,711.5,75.2449,80.7462,155.965,100.422,10.8831,0.00164758,0.200904,20.7461,141.824,15.8436,0.0,0.0
2860,714.75,75.5432,80.5531,153.634,100.446,10.7132,0.00165976,0.200056,20.7468,141.514,15.9575,0.0,0.0
2873,718,76.0188,80.7953,158.247,100.499,10.6026,0.00161366,0.200178,20.7469,141.324,16.0352,0.0,0.0
2886,721.25,75.6404,81.2626,156.689,100.56,10.7676,0.00171374,0.201717,20.7463,141.104,15.9294,0.0,0.0
2899,724.5,76.0016,81.2551,153.376,100.625,10.6896,0.00176537,0.20369,20.7435,140.814,15.9859,0.0,0.0
2912,727.75,75.93,81.0213,156.594,100.674,10.857,0.00166745,0.204957,20.7411,140.653,15.8785,0.0,0.0
2925,731,76.079,80.8907,154.276,100.686,10.5888,0.00146876,0.206785,20.7383,140.413,16.0578,0.0,0.0
2938,734.25,76.1197,81.1411,150.264,100.72,10.9741,0.00145505,0.207505,20.7365,140.123,15.8053,0.0,0.0
2951,737.5,75.9322,81.4974,153.523,100.738,10.9245,0.00167644,0.206737,20.7359,139.923,15.8389,0.0,0.0
2964,740.75,76.0692,81.718,156.832,100.746,10.7432,0.00173102,0.207979,20.7363,139.683,15.9588,0.0,0.0
2977,744,76.0698,81.475,162.415,100.737,10.74,0.00148532,0.208989,20.7357,139.382,15.9603,0.0,0.0
2990,747.25,76.0526,81.2778,154.883,100.746,10.6912,0.0014481,0.210271,20.7353,139.182,15.9934,0.0,0.0
3003,750.5,76.2332,81.3884,152.637,100.727,10.7172,0.0013378,0.211695,20.7345,138.932,15.9747,0.0,0.0
3016,753.75,76.6052,81.2678,159.103,100.704,10.6067,0.00141519,0.212252,20.7329,138.612,16.047,0.0,0.0
3029,757,76.3895,82.0223,155.918,100.711,10.6546,0.00156211,0.214978,20.7312,138.441,16.0153,0.0,0.0
3042,760.25,76.5075,82.2388,155.099,100.694,10.6912,0.00150022,0.216064,20.7291,138.181,15.9897,0.0,0.0
3055,763.5,76.7816,82.2669,153.918,100.705,10.8123,0.0013005,0.217287,20.728,137.861,15.9101,0.0,0.0
3068,766.75,76.7996,82.1728,152.317,100.712,10.831,0.00121586,0.21906,20.7259,137.691,15.8983,0.0,0.0
3081,770,77.1699,82.8339,159.73,100.692,10.7725,0.00132561,0.220517,20.7226,137.361,15.9356,0.0,0.0
3094,773.25,77.0332,82.9395,153.058,100.649,10.8091,0.00133288,0.221235,20.7199,137.11,15.9083,0.0,0.0
3107,776.5,76.9171,83.0318,156.87,100.636,10.7522,0.00153836,0.22255,20.7186,136.9,15.945,0.0,0.0
3120,779.75,77.0606,83.1409,154.872,100.568,10.8018,0.00147063,0.22408,20.7167,136.65,15.9074,0.0,0.0
3133,783,77.3485,83.4335,156.964,100.499,10.5912,0.00136201,0.226252,20.7142,136.38,16.0429,0.0,0.0
3146,786.25,77.792,83.6455,148.927,100.47,10.7286,0.00133185,0.227469,20.7123,136.159,15.9489,0.0,0.0
3159,789.5,77.102,83.4725,155.745,100.405,11.0115,0.00136375,0.227808,20.7121,135.889,15.7587,0.0,0.0
3172,792.75,77.7238,83.7838,156.789,100.371,10.6717,0.00146211,0.229866,20.711,135.579,15.9798,0.0,0.0
3185,796,77.7034,83.7739,149.353,100.42,10.9335,0.00163645,0.231338,20.7093,135.339,15.8105,0.0,0.0
3198,799.25,77.5525,83.8122,154.767,100.449,10.7384,0.00160999,0.232143,20.7067,135.099,15.941,0.0,0.0
3211,802.5,78.0745,84.3793,150.228,100.491,10.9416,0.0015336,0.233915,20.7056,134.788,15.8103,0.0,0.0
3224,805.75,78.3039,84.269,150.668,100.543,10.6497,0.00160915,0.235606,20.7023,134.598,16.0067,0.0,0.0
3237,809,78.1285,84.3831,154.877,100.58,10.5823,0.0018517,0.23635,20.6998,134.318,16.0547,0.0,0.0
3250,812.25,77.9576,84.3749,158.299,100.633,10.5197,0.00180543,0.238178,20.6985,133.998,16.1007,0.0,0.0
3263,815.5,78.1389,84.2476,153.483,100.686,10.5904,0.00161654,0.23754,20.698,133.787,16.0567,0.0,0.0
3276,818.75,78.2311,84.4765,157.433,100.729,10.5644,0.00153833,0.237865,20.7,133.497,16.0773,0.0,0.0
3289,822,78.2326,83.8885,154.15,100.755,10.5985,0.0016565,0.23948,20.6996,133.197,16.0561,0.0,0.0
3302,825.25,78.4561,84.3559,151.158,100.83,10.8091,0.00170293,0.240962,20.6973,132.987,15.9211,0.0,0.0
3315,828.5,78.9375,84.1416,148.532,100.864,10.6327,0.00167544,0.241741,20.6956,132.656,16.0409,0.0,0.0
3328,831.75,78.442,84.8884,149.776,100.888,10.7985,0.00173259,0.243129,20.6942,132.356,15.9322,0.0,0.0
3341,835,78.6117,84.8689,152.793,100.951,10.5335,0.00169908,0.243698,20.6939,132.156,16.1138,0.0,0.0
3354,838.25,78.7873,85.0307,150.767,100.969,10.8928,0.00173111,0.244488,20.6937,131.816,15.876,0.0,0.0
3367,841.5,78.7319,84.6234,149.151,100.985,10.9221,0.00185817,0.245919,20.6911,131.505,15.8579,0.0,0.0
3380,844.75,79.0332,84.9428,151.54,101.005,10.7188,0.00187404,0.245816,20.6904,131.285,15.9933,0.0,0.0
3393,848,78.7896,85.3201,156.299,101.034,10.8075,0.0017235,0.24692,20.6894,130.955,15.9366,0.0,0.0
3406,851.25,79.1939,85.4107,151.009,101.027,10.8749,0.00154641,0.24719,20.6882,130.675,15.8918,0.0,0.0
3419,854.5,78.9532,85.0208,149.75,101.06,11.0546,0.00141942,0.247945,20.6879,130.484,15.7772,0.0,0.0
3432,857.75,79.3685,85.5273,154.221,101.056,10.727,0.00138477,0.24923,20.6861,130.154,15.9915,0.0,0.0
3445,861,79.4951,85.5136,153.422,101.04,10.8798,0.00145778,0.249429,20.6855,129.884,15.8895,0.0,0.0
3458,864.25,79.272,85.4872,151.169,101.039,10.6953,0.00173935,0.249401,20.6851,129.664,16.0114,0.0,0.0
3471,867.5,78.9946,85.4331,151.649,101.034,10.944,0.0019606,0.249996,20.6838,129.313,15.8471,0.0,0.0
3484,870.75,79.5312,85.6423,151.778,101.039,10.9205,0.00195431,0.250671,20.6834,129.043,15.8628,0.0,0.0
3497,874,79.7434,85.8448,150.134,101.046,10.8018,0.00193567,0.250169,20.685,128.803,15.9412,0.0,0.0
3510,877.25,79.8733,85.9537,154.637,101.058,10.6083,0.00200446,0.252401,20.6854,128.443,16.0709,0.0,0.0
3523,880.5,79.7412,85.7397,153.546,101.075,10.6928,0.00182015,0.254451,20.6825,128.162,16.0156,0.0,0.0
3536,883.75,79.7391,85.7861,151.543,101.101,10.9148,0.00162998,0.254674,20.6809,127.892,15.8709,0.0,0.0
3549,887,80.1993,86.1977,151.051,101.112,11.1465,0.00155,0.256229,20.6791,127.602,15.7219,0.0,0.0
3562,890.25,80.2076,86.4209,150.694,101.112,10.7896,0.00185069,0.25699,20.6759,127.342,15.954,0.0,0.0
3575,893.5,80.108,86.4277,152.237,101.15,11.0245,0.00210855,0.261606,20.6741,127.081,15.803,0.0,0.0
3588,896.75,79.824,86.0563,151.669,101.155,10.6806,0.00203247,0.265855,20.6675,126.741,16.0293,0.0,0.0
3601,900,80.0066,86.4943,154.653,101.188,10.7132,0.00191794,0.266274,20.6632,126.441,16.0099,0.0,0.0
3614,903.25,80.2202,86.1552,151.423,101.201,10.6977,0.0017666,0.263189,20.6627,126.191,16.0212,0.0,0.0
3627,906.5,80.1232,86.4959,151.642,101.217,10.7351,0.00173599,0.26077,20.6656,125.82,15.9975,0.0,0.0
3640,909.75,80.3192,86.488,149.9,101.211,10.4424,0.00201725,0.261498,20.6691,125.59,16.1941,0.0,0.0
3653,913,80.4904,86.7573,154.642,101.238,10.5481,0.00201279,0.263853,20.668,125.3,16.1242,0.0,0.0
3666,916.25,80.8219,86.8478,143.795,101.255,10.8286,0.00212242,0.265987,20.6638,124.96,15.9383,0.0,0.0
3679,919.5,80.779,87.0993,145.812,101.287,11.1286,0.00203535,0.266117,20.661,124.729,15.7457,0.0,0.0
3692,922.75,80.7915,86.9896,151.589,101.305,11.1611,0.00172615,0.266123,20.6603,124.439,15.7262,0.0,0.0
3705,926,80.7907,87.401,146.643,101.302,10.7384,0.00155449,0.268163,20.6601,124.109,16.0013,0.0,0.0
3718,929.25,81.0354,87.3608,151.527,101.295,10.8652,0.00163295,0.269111,20.6585,123.869,15.917,0.0,0.0
3731,932.5,80.9282,87.2848,148.876,101.3,10.8449,0.00205312,0.268753,20.661,123.578,15.9307,0.0,0.0
3744,935.75,80.4353,87.3658,150.899,101.31,10.8245,0.00215074,0.268943,20.6621,123.188,15.9448,0.0,0.0
3757,939,80.5663,87.065,149.993,101.318,10.9546,0.0019504,0.267222,20.6623,122.908,15.8602,0.0,0.0
3770,942.25,80.3878,86.706,150.308,101.318,10.7855,0.00203852,0.266989,20.6636,122.648,15.9711,0.0,0.0
3783,945.5,80.7554,87.1106,154.058,101.327,10.6831,0.0021359,0.269307,20.6638,122.297,16.0398,0.0,0.0
3796,948.75,80.9066,87.0775,155.888,101.333,10.5912,0.00227069,0.26945,20.6617,122.017,16.1018,0.0,0.0
3809,952,80.678,87.3087,152.052,101.335,10.957,0.00220281,0.269987,20.6605,121.777,15.8598,0.0,0.0
3822,955.25,80.7067,86.8296,151.33,101.314,10.7188,0.00212353,0.267836,20.6605,121.397,16.0151,0.0,0.0
3835,958.5,81.1573,86.9932,152.646,101.339,10.6562,0.00201735,0.26869,20.6621,121.086,16.0586,0.0,0.0
3848,961.75,80.869,87.1047,155.158,101.333,10.8489,0.00208398,0.268983,20.6627,120.836,15.9304,0.0,0.0
3861,965,80.9449,86.7344,150.298,101.316,10.6627,0.0021643,0.270791,20.6626,120.526,16.0526,0.0,0.0
3874,968.25,80.8642,87.2442,152.958,101.31,10.6327,0.00210331,0.269474,20.661,120.276,16.0724,0.0,0.0
3887,971.5,81.2835,87.1753,155.338,101.304,10.6839,0.00204345,0.267139,20.6624,119.955,16.0376,0.0,0.0
3900,974.75,80.8253,87.5365,151.414,101.275,11.1148,0.00194422,0.271804,20.6645,119.605,15.7537,0.0,0.0
3913,978,80.9349,86.8895,152.972,101.276,10.7449,0.00184586,0.272848,20.6574,119.335,15.9951,0.0,0.0
3926,981.25,81.1536,87.0546,150.093,101.244,10.7741,0.0020669,0.271966,20.6545,119.014,15.9735,0.0,0.0
3939,984.5,80.9465,87.4072,149.35,101.226,10.6676,0.00202332,0.271182,20.6549,118.704,16.043,0.0,0.0
3952,987.75,81.2895,87.6608,154.78,101.203,10.7343,0.00182992,0.270443,20.656,118.484,15.997,0.0,0.0
3965,991,81.0745,87.7938,152.859,101.194,10.5636,0.00182653,0.274587,20.6552,118.114,16.1107,0.0,0.0
3978,994.25,81.7922,88.0781,152.253,101.146,10.5018,0.0018869,0.27651,20.652,117.813,16.1491,0.0,0.0
3991,997.5,81.1246,87.8833,149.409,101.133,10.6302,0.00185444,0.276392,20.6513,117.563,16.0615,0.0,0.0
4004,1000.75,81.605,88.3048,150.76,101.091,10.4912,0.00203571,0.275159,20.6508,117.243,16.1524,0.0,0.0
4017,1004,81.2285,88.1106,151.472,101.079,10.7831,0.00220654,0.277745,20.6506,116.903,15.9559,0.0,0.0
4030,1007.25,81.7868,87.8934,150.67,101.072,10.6221,0.00228832,0.278934,20.647,116.642,16.0627,0.0,0.0
4043,1010.5,81.7072,88.6213,151.775,101.037,10.5725,0.00213197,0.277211,20.6461,116.302,16.0936,0.0,0.0
4056,1013.75,81.9915,88.2223,147.816,101.012,11.0757,0.002036,0.277944,20.6476,116.022,15.7602,0.0,0.0
4069,1017,81.9294,88.0692,153.681,100.987,10.8164,0.00194196,0.280166,20.6465,115.732,15.9274,0.0,0.0
4082,1020.25,82.1449,88.4532,153.748,100.937,10.7888,0.00208928,0.27986,20.6442,115.401,15.9422,0.0,0.0
4095,1023.5,82.035,88.4541,150.34,100.922,10.8733,0.00241042,0.279129,20.6447,115.141,15.8854,0.0,0.0
4108,1026.75,82.0899,88.2837,153.758,100.893,10.9717,0.00236817,0.27861,20.6446,114.911,15.8191,0.0,0.0
4121,1030,82.1778,88.0979,157.105,100.838,10.8172,0.00231381,0.277121,20.6452,114.47,15.9163,0.0,0.0
4134,1033.25,82.0033,88.4709,153.249,100.802,10.627,0.00226196,0.275685,20.6463,114.26,16.0403,0.0,0.0
4147,1036.5,81.739,88.2648,152.716,100.774,10.8717,0.00211063,0.274881,20.6486,114.04,15.876,0.0,0.0
4160,1039.75,81.8959,88.205,155.543,100.709,10.3189,0.00206126,0.275135,20.6512,113.67,16.2435,0.0,0.0
4173,1043,81.6678,88.2938,150.943,100.676,10.5652,0.00198915,0.27464,20.6505,113.369,16.0729,0.0,0.0
4186,1046.25,82.013,88.1762,157.044,100.619,10.7188,0.00205496,0.274128,20.6504,113.159,15.966,0.0,0.0
4199,1049.5,81.7606,88.0894,155.854,100.561,10.9107,0.00228128,0.272309,20.6509,112.829,15.8354,0.0,0.0
4212,1052.75,82.0333,87.9949,161.005,100.534,10.4872,0.00241097,0.270444,20.6523,112.579,16.1158,0.0,0.0
4225,1056,82.4444,88.2401,149.455,100.521,10.7319,0.00247956,0.27075,20.6542,112.339,15.9504,0.0,0.0
4238,1059.25,82.4975,87.7517,156.084,100.488,10.7099,0.00238172,0.271355,20.6531,111.978,15.9627,0.0,0.0
4251,1062.5,81.8161,87.7944,157.139,100.427,10.7286,0.00237334,0.269865,20.6531,111.718,15.9459,0.0,0.0
4264,1065.75,81.8183,87.5466,149.237,100.377,10.4441,0.00221119,0.268833,20.6551,111.478,16.1339,0.0,0.0
4277,1069,81.9766,87.956,152.517,100.307,10.5595,0.00221638,0.266036,20.6554,111.188,16.0506,0.0,0.0
4290,1072.25,81.6583,87.7946,154.796,100.28,10.5977,0.00238378,0.263758,20.6571,110.907,16.0229,0.0,0.0
4303,1075.5,81.7602,87.1621,153.226,100.227,10.588,0.00244182,0.26461,20.6589,110.647,16.0257,0.0,0.0
4316,1078.75,81.5318,87.9112,150.008,100.168,10.6636,0.00261508,0.263841,20.6582,110.387,15.9708,0.0,0.0
4329,1082,81.5744,87.6816,148.979,100.115,10.6497,0.00228547,0.260391,20.66,110.117,15.9763,0.0,0.0
4342,1085.25,81.4811,87.5091,149.299,100.072,10.5327,0.00195985,0.260551,20.6638,109.916,16.052,0.0,0.0
4355,1088.5,81.412,87.6639,156.002,100.006,10.753,0.00198175,0.260307,20.6632,109.576,15.8997,0.0,0.0
4368,1091.75,81.7061,87.1685,150.365,99.9739,10.8221,0.00186842,0.256305,20.6636,109.366,15.8518,0.0,0.0
4381,1095,81.7553,87.4677,149.865,99.9211,10.801,0.00179903,0.253467,20.6675,109.206,15.862,0.0,0.0
4394,1098.25,81.1349,87.2611,152.737,99.8793,10.8367,0.00186126,0.252793,20.6701,108.896,15.8354,0.0,0.0
4407,1101.5,81.5075,87.1382,151.008,99.8348,10.7489,0.00199126,0.250052,20.6733,108.665,15.8902,0.0,0.0
4420,1104.75,81.4948,87.3963,151.531,99.836,10.5237,0.00204729,0.245792,20.6765,108.525,16.0413,0.0,0.0
4433,1108,80.9381,87.09,154.19,99.807,10.7725,0.00188891,0.243188,20.6805,108.255,15.8726,0.0,0.0
4446,1111.25,81.3391,86.3668,154.931,99.7728,10.8042,0.0019124,0.242251,20.6828,108.015,15.8492,0.0,0.0
4459,1114.5,80.947,86.575,155.825,99.7597,10.5587,0.00188048,0.238128,20.6845,107.825,16.0122,0.0,0.0
4472,1117.75,80.7184,86.0099,156.917,99.7299,10.475,0.00193621,0.234493,20.6891,107.564,16.0668,0.0,0.0
4485,1121,80.5215,85.5381,153.38,99.739,10.3457,0.00192047,0.232114,20.6929,107.364,16.156,0.0,0.0
4498,1124.25,80.3681,85.4486,154.611,99.7374,10.7701,0.00188981,0.2279,20.6966,107.244,15.8693,0.0,0.0
4511,1127.5,80.1995,85.0432,153.971,99.7235,10.2473,0.00174778,0.225572,20.7001,106.994,16.223,0.0,0.0
4524,1130.75,79.7617,84.6008,151.904,99.7493,10.2408,0.00176275,0.222234,20.7016,106.844,16.2294,0.0,0.0
4537,1134,79.543,84.0482,153.927,99.7545,10.4002,0.00189436,0.216048,20.7049,106.734,16.1197,0.0,0.0
4550,1137.25,79.5928,83.5806,157.202,99.7569,10.34,0.00188565,0.208535,20.7114,106.553,16.1612,0.0,0.0
4563,1140.5,78.7566,83.0146,157.202,99.7831,10.7132,0.00182441,0.20001,20.7191,106.473,15.9103,0.0,0.0
4576,1143.75,78.8197,82.1883,156.757,99.8137,10.6684,0.00188419,0.189493,20.7288,106.383,15.9423,0.0,0.0
4589,1147,78.104,81.5036,155.86,99.8205,10.5286,0.00177372,0.179698,20.7419,106.213,16.0369,0.0,0.0
4602,1150.25,77.8739,80.6554,155.37,99.8467,10.5026,0.00186443,0.169771,20.7512,106.143,16.0564,0.0,0.0
4615,1153.5,76.8896,80.0629,157.65,99.8817,10.4221,0.00203684,0.157853,20.7641,106.143,16.1137,0.0,0.0
4628,1156.75,76.956,79.4599,161.926,99.9155,10.7294,0.00199229,0.146251,20.7784,105.983,15.9089,0.0,0.0
4641,1160,76.1634,78.052,156.668,99.9405,10.5774,0.00248252,0.140925,20.7913,105.933,16.0125,0.0,0.0
4654,1163.25,75.6362,78.2991,157.335,99.9767,10.5741,0.00320466,0.135833,20.7953,105.903,16.0172,0.0,0.0
4667,1166.5,75.4883,77.0093,157.34,99.9564,10.6489,0.00374819,0.130235,20.8023,105.763,15.9655,0.0,0.0
4680,1169.75,75.2231,77.0938,156.351,99.9934,10.3969,0.00429793,0.125306,20.8106,105.743,16.1389,0.0,0.0
4693,1173,74.723,76.0167,153.516,100.014,10.6636,0.00468737,0.122297,20.8167,105.683,15.9598,0.0,0.0
4706,1176.25,74.5263,76.2276,154.361,100.006,10.7286,0.00498643,0.121212,20.8205,105.573,15.9159,0.0,0.0
4719,1179.5,73.7919,75.7889,160.368,100.045,10.5042,0.00521829,0.11942,20.8224,105.603,16.0694,0.0,0.0
4732,1182.75,73.9499,75.2666,159.123,100.052,10.379,0.00531965,0.117843,20.8237,105.523,16.1554,0.0,0.0
4745,1186,73.024,74.6442,162.628,100.063,10.4042,0.00531353,0.116491,20.8278,105.402,16.1389,0.0,0.0
4758,1189.25,73.3091,74.7554,161.938,100.075,10.3148,0.00556991,0.116277,20.8315,105.372,16.2013,0.0,0.0
4771,1192.5,72.5777,74.1881,157.617,100.119,10.4376,0.005537,0.113963,20.8327,105.342,16.1201,0.0,0.0
4784,1195.75,72.539,73.7785,158.617,100.124,10.3514,0.00564988,0.113807,20.8347,105.212,16.1795,0.0,0.0
4797,1199,72.0553,73.6886,161.892,100.172,10.3335,0.00577155,0.113073,20.8356,105.222,16.1953,0.0,0.0
4810,1202.25,72.1086,73.7195,159.877,100.238,10.1977,0.00573867,0.112125,20.8375,105.152,16.2943,0.0,0.0
4823,1205.5,71.7685,73.0029,162.394,100.244,10.288,0.00590335,0.111624,20.8381,105.052,16.2319,0.0,0.0
4836,1208.75,71.6249,73.4354,161.514,100.288,10.3124,0.00620059,0.111432,20.838,105.072,16.2181,0.0,0.0
4849,1212,71.1292,73.0399,155.582,100.33,10.1481,0.00613608,0.110775,20.8383,105.062,16.3356,0.0,0.0
4862,1215.25,70.9528,72.8846,156.047,100.344,10.6375,0.00599067,0.110427,20.839,104.902,16.0008,0.0,0.0
4875,1218.5,70.7886,72.2705,161.441,100.419,10.4733,0.00606357,0.11011,20.8403,104.912,16.117,0.0,0.0
4888,1221.75,70.4477,72.2124,157.658,100.45,10.5351,0.00640864,0.109408,20.842,104.892,16.0773,0.0,0.0
4901,1225,70.2543,72.037,158.707,100.485,10.4888,0.00661198,0.108843,20.8428,104.742,16.1112,0.0,0.0
4914,1228.25,70.1558,71.689,156.321,100.529,10.501,0.00661451,0.106545,20.8433,104.792,16.106,0.0,0.0
4927,1231.5,69.8269,72.0472,158.907,100.562,10.3034,0.00651516,0.106521,20.8442,104.762,16.2438,0.0,0.0
4940,1234.75,69.6664,71.6656,157.303,100.602,10.7075,0.00672397,0.106604,20.8444,104.662,15.9724,0.0,0.0
4953,1238,69.7569,71.5375,158.005,100.66,10.4083,0.00688392,0.106716,20.8444,104.652,16.1785,0.0,0.0
4966,1241.25,69.6939,71.4418,160.354,100.714,10.1929,0.00692667,0.10521,20.8452,104.612,16.3315,0.0,0.0
4979,1244.5,69.3984,71.5036,158.759,100.742,10.6058,0.00680886,0.104891,20.8464,104.472,16.0502,0.0,0.0
4992,1247.75,68.9213,71.0452,161.901,100.763,10.4782,0.00684729,0.103841,20.8471,104.452,16.138,0.0,0.0
5005,1251,68.6365,70.8471,157.583,100.796,10.5107,0.00695263,0.103618,20.8487,104.482,16.1183,0.0,0.0
5018,1254.25,68.8397,71.212,160.574,100.806,10.3709,0.00686454,0.103891,20.8495,104.342,16.2145,0.0,0.0
5031,1257.5,68.4218,70.7207,162.531,100.842,10.275,0.00677197,0.103609,20.8483,104.342,16.2833,0.0,0.0
5044,1260.75,68.2648,70.5059,161.872,100.875,10.2766,0.00709976,0.103929,20.8488,104.352,16.2845,0.0,0.0
5057,1264,68.4431,70.0932,157.765,100.875,10.1628,0.00715275,0.10281,20.8489,104.221,16.3639,0.0,0.0
5070,1267.25,68.1371,69.6209,161.977,100.898,10.6587,0.00730788,0.100931,20.8508,104.241,16.0258,0.0,0.0
5083,1270.5,68.5197,69.8899,162.059,100.926,10.2579,0.0076771,0.10189,20.8546,104.211,16.3011,0.0,0.0
5096,1273.75,68.0434,70.1435,155.249,100.964,10.3872,0.00780207,0.101449,20.854,104.071,16.2145,0.0,0.0
5109,1277,67.6659,70.2341,160.54,100.972,10.4506,0.00770745,0.100199,20.8564,104.141,16.1717,0.0,0.0
5122,1280.25,67.5198,69.7683,162.258,100.973,10.3132,0.00779905,0.100391,20.8581,104.091,16.2661,0.0,0.0
5135,1283.5,67.4696,69.1495,162.783,100.973,10.3823,0.00797761,0.0997284,20.8586,103.931,16.2185,0.0,0.0
5148,1286.75,66.926,69.4348,159.252,100.989,10.4335,0.00806085,0.0996238,20.8587,103.981,16.1845,0.0,0.0
5161,1290,67.5595,69.4104,159.271,100.981,10.2433,0.00799128,0.100965,20.8587,103.931,16.3152,0.0,0.0
5174,1293.25,67.1865,69.2509,158.968,100.979,10.3798,0.00793023,0.100976,20.8571,103.821,16.2206,0.0,0.0
5187,1296.5,66.9762,69.0455,163.496,100.992,10.6741,0.00777196,0.102018,20.8566,103.841,16.0222,0.0,0.0
5200,1299.75,67.2124,68.9239,165.513,100.972,10.4091,0.00764556,0.103018,20.8559,103.831,16.2001,0.0,0.0
5213,1303,67.1899,69.402,160.987,100.974,10.4164,0.00769114,0.10236,20.8553,103.721,16.1952,0.0,0.0
5226,1306.25,67.2414,69.3953,158.175,100.961,10.4644,0.0078037,0.103119,20.8552,103.741,16.1615,0.0,0.0
5239,1309.5,66.592,68.9557,163.012,100.968,10.2376,0.00778975,0.103232,20.8552,103.701,16.3182,0.0,0.0
5252,1312.75,67.1577,68.6548,159.141,100.943,10.514,0.00770579,0.10362,20.8552,103.591,16.1265,0.0,0.0
5265,1316,66.5841,68.8659,160.122,100.938,10.3603,0.00760594,0.103968,20.8538,103.621,16.2311,0.0,0.0
5278,1319.25,66.794,68.7535,161.964,100.944,10.3839,0.00754122,0.102467,20.8542,103.571,16.2153,0.0,0.0
5291,1322.5,66.3891,68.9738,158.265,100.909,10.6611,0.00753773,0.100401,20.8566,103.451,16.025,0.0,0.0
5304,1325.75,66.2425,68.6517,160.187,100.903,10.2709,0.00753934,0.0995394,20.859,103.491,16.2904,0.0,0.0
5317,1329,66.2927,68.8329,163.169,100.89,10.3156,0.00759809,0.0993845,20.8603,103.441,16.2586,0.0,0.0
5330,1332.25,66.301,68.8306,162.186,100.873,10.5115,0.00766337,0.0992994,20.8617,103.331,16.1232,0.0,0.0
5343,1335.5,65.5077,68.6979,157.999,100.88,10.2254,0.00769935,0.0984537,20.8603,103.371,16.3205,0.0,0.0
5356,1338.75,65.7558,68.6817,162.096,100.845,10.3693,0.00784723,0.0988073,20.86,103.341,16.2184,0.0,0.0
5369,1342,66.0918,68.3388,168.437,100.795,10.4286,0.00783164,0.0995422,20.8599,103.211,16.1742,0.0,0.0
5382,1345.25,66.0248,68.105,166.8,100.778,10.5359,0.00771187,0.0993048,20.8582,103.251,16.1,0.0,0.0
5395,1348.5,66.0194,68.5363,160.126,100.756,10.5278,0.00773622,0.0983555,20.8577,103.201,16.1039,0.0,0.0
5408,1351.75,66.1148,68.5243,164.364,100.681,10.4132,0.00778766,0.0991,20.8575,103.11,16.1767,0.0,0.0
5421,1355,65.7972,68.568,162.919,100.681,10.4668,0.00771846,0.0999435,20.8562,103.14,16.1401,0.0,0.0
5434,1358.25,65.8611,68.6124,163.67,100.627,10.1839,0.00772939,0.0999338,20.8555,103.09,16.3316,0.0,0.0
5447,1361.5,66.2838,67.7865,154.663,100.584,10.5099,0.00780016,0.0994816,20.8559,103.01,16.1038,0.0,0.0
5460,1364.75,65.6429,67.3852,160.009,100.558,10.314,0.00786632,0.0988375,20.8574,103.05,16.2362,0.0,0.0
5473,1368,64.7717,67.6867,169.306,100.539,10.2034,0.0078401,0.0985866,20.8592,102.98,16.3117,0.0,0.0
5486,1371.25,65.4626,67.3547,163.478,100.485,10.5628,0.00780179,0.0992624,20.8591,102.9,16.0611,0.0,0.0
5499,1374.5,65.333,67.1256,163.37,100.445,10.1896,0.0076858,0.100237,20.8574,102.89,16.3146,0.0,0.0
5512,1377.75,64.9731,67.4389,161.349,100.442,10.162,0.00786094,0.0992085,20.8568,102.86,16.3338,0.0,0.0
5525,1381,64.8401,67.2883,161.674,100.385,10.3229,0.00811146,0.0979978,20.8583,102.74,16.2177,0.0,0.0
5538,1384.25,64.9682,67.1745,159.599,100.36,10.1961,0.00831964,0.0967615,20.8606,102.81,16.3041,0.0,0.0
5551,1387.5,64.6913,66.9803,161.841,100.364,10.4815,0.00849335,0.0961693,20.8611,102.77,16.1076,0.0,0.0
5564,1390.75,64.3244,67.1277,159.81,100.335,10.3042,0.00855772,0.0967253,20.8607,102.66,16.2271,0.0,0.0
5577,1394,64.6125,66.7475,159.586,100.349,10.3912,0.00864721,0.0966572,20.8606,102.68,16.1681,0.0,0.0
5590,1397.25,64.7109,67.5411,162.324,100.331,10.3839,0.0085799,0.0963341,20.8615,102.61,16.1719,0.0,0.0
5603,1400.5,64.9006,66.8505,159.402,100.301,10.3213,0.00847236,0.0960881,20.8626,102.52,16.2129,0.0,0.0
5616,1403.75,64.8689,67.3811,159.283,100.288,10.4189,0.00842658,0.0954339,20.8634,102.6,16.1449,0.0,0.0
5629,1407,64.751,66.9368,160.244,100.28,10.2864,0.00833029,0.0952195,20.8636,102.53,16.2356,0.0,0.0
5642,1410.25,64.7137,67.0206,160.832,100.268,10.4912,0.00832472,0.0958224,20.8637,102.45,16.0941,0.0,0.0
5655,1413.5,64.5184,67.0762,160.417,100.273,10.2864,0.00832315,0.095664,20.8618,102.42,16.2351,0.0,0.0
5668,1416.75,64.8192,66.9124,160.937,100.237,10.3384,0.00834857,0.0950418,20.8627,102.45,16.1965,0.0,0.0
5681,1420,64.4047,66.836,160.046,100.18,10.3611,0.00816004,0.0947566,20.8624,102.28,16.1768,0.0,0.0
5694,1423.25,64.3202,67.308,167.419,100.194,10.6847,0.00798137,0.0954226,20.8626,102.32,15.9585,0.0,0.0
5707,1426.5,64.0391,67.0336,158.904,100.172,9.92214,0.00796245,0.0953752,20.8613,102.3,16.4849,0.0,0.0
5720,1429.75,64.83,67.0426,164.14,100.14,10.1912,0.00801066,0.095513,20.861,102.18,16.2918,0.0,0.0
5733,1433,64.1197,66.8023,161.274,100.161,10.2465,0.00831073,0.0953949,20.8609,102.22,16.2548,0.0,0.0
5746,1436.25,64.5331,67.1252,158.096,100.145,10.2059,0.00844828,0.0946405,20.8621,102.2,16.282,0.0,0.0
5759,1439.5,63.9842,66.879,160.971,100.148,10.4855,0.00819556,0.0946106,20.8634,102.09,16.0894,0.0,0.0
5772,1442.75,64.0753,66.8012,160.258,100.155,10.4993,0.00816494,0.0950878,20.8634,102.15,16.0806,0.0,0.0
5785,1446,64.4091,66.7777,160.023,100.166,10.4083,0.00837895,0.0957176,20.8621,102.08,16.1435,0.0,0.0
5798,1449.25,64.4488,66.5025,163.805,100.183,10.179,0.00833056,0.0956984,20.861,101.989,16.3035,0.0,0.0
5811,1452.5,64.1316,66.8977,166.723,100.179,10.2725,0.00822191,0.0957653,20.8608,102.009,16.238,0.0,0.0
5824,1455.75,64.3641,66.4777,167.035,100.176,10.3798,0.00815881,0.096023,20.8613,101.849,16.1637,0.0,0.0
5837,1459,64.2034,67.117,162.227,100.198,10.3083,0.00832692,0.095773,20.8628,101.819,16.2145,0.0,0.0
5850,1462.25,64.1386,66.9538,161.158,100.19,10.2392,0.00846152,0.0954169,20.8633,101.899,16.2619,0.0,0.0
5863,1465.5,64.2056,66.9416,162.148,100.179,10.2685,0.00840449,0.0958879,20.8627,101.809,16.2408,0.0,0.0
5876,1468.75,64.144,67.5185,162.831,100.176,9.99856,0.00846571,0.0962277,20.8615,101.749,16.4305,0.0,0.0
5889,1472,64.1346,67.3676,165.101,100.189,10.2945,0.00837979,0.0965916,20.8613,101.819,16.2235,0.0,0.0
5902,1475.25,63.9039,66.5944,163.566,100.2,10.1181,0.00846096,0.0968588,20.8612,101.669,16.3475,0.0,0.0
5915,1478.5,64.0729,66.6928,160.58,100.189,10.3213,0.00843852,0.0966825,20.8612,101.649,16.2049,0.0,0.0
5928,1481.75,64.6093,66.8657,159.16,100.211,10.5254,0.00815069,0.0954814,20.8621,101.709,16.0669,0.0,0.0
5941,1485,64.3791,67.1595,161.627,100.197,10.5904,0.00812427,0.0951317,20.8644,101.599,16.0219,0.0,0.0
5948,1486.75,63.8832,67.1735,162.254,100.216,10.3335,0.00814794,0.0955749,20.8648,101.639,16.1984,0.0,0.0