File: 01_Data/Particleboard/Cone/Particleboard_Cone_HF25Scan_230705_R1.csv
Names,Time,Stack TC,Smoke TC,Exh Press,Smoke Comp,Smoke Meas,CO Meter,CO2 Meter,O2 Meter,Sample Mass,Ext Coeff,Start Test,Flame Verif
Chan Gain,,500,500,1,1,1,1,1,1,1,1,1.0,1.0
Offset,,0,0,0.236064,0,0,0,0,0,0,0,0.0,0.0
Gain,,1,1,25.011,12.8603,34.579,1,1,1,1.00086,0.833623,1.0,1.0
Units,sec,C,C,Pa,%,%,%,%,%,g,/m,,
Baseline,,41.97,43.159,183.146,98.8057,99.4154,0.00086959,0.0420682,20.9675,-444.311,-0.0448873,,
15,3.5,40.4899,41.4627,179.354,99.5738,100.945,0.00097758,0.0434986,20.9672,181.797,-0.0999938,0.0,0.0
30,7.25,40.7004,41.6486,186.172,99.5082,100.672,0.00095805,0.0429854,20.9687,181.797,-0.0850588,0.0,0.0
45,11,40.8063,42.3913,184.499,99.4411,99.8378,0.000733158,0.0433931,20.9682,181.757,-0.0291095,0.0,0.0
60,14.75,41.1163,41.8784,181.282,99.3803,99.8684,0.000648161,0.0443669,20.9679,181.687,-0.0358249,0.0,0.0
75,18.5,41.3656,41.9584,181.794,99.323,99.9222,0.000678838,0.0452678,20.9662,181.647,-0.0439823,0.0,0.0
90,22.25,41.2704,42.5778,181.238,99.2673,99.7037,0.000810829,0.0459399,20.9644,181.557,-0.0320823,0.0,0.0
105,26,41.337,42.2102,179.212,99.2256,100.028,0.000827426,0.0451419,20.9636,181.527,-0.0588696,0.0,0.0
120,29.75,41.4706,42.5767,185.759,99.1703,99.1191,0.000889573,0.044102,20.9652,181.447,0.00377617,0.0,0.0
135,33.5,41.7496,42.8251,184.305,99.1495,99.2975,0.000874166,0.0444074,20.9667,181.427,-0.0109033,0.0,0.0
150,37.25,41.8837,42.8174,177.391,99.1212,99.8378,0.000895889,0.0476961,20.9651,181.357,-0.0526687,0.0,0.0
165,41,41.6779,43.1522,182.809,99.0847,99.9697,0.000739488,0.0494356,20.9614,181.317,-0.0650165,0.0,0.0
180,44.75,42.0322,43.3221,180.947,99.0671,99.8726,0.000806943,0.0510747,20.9587,181.227,-0.0592155,0.0,0.0
195,48.5,42.0775,43.1131,177.714,99.0997,98.9165,0.00100501,0.0513774,20.9579,181.257,0.0135278,0.0,0.0
210,52.25,42.1673,43.4189,186.808,99.2276,99.9021,0.00091268,0.0491792,20.9575,181.217,-0.0495396,0.0,0.0
225,56,41.7813,43.4124,178.379,99.3493,99.4779,0.000891262,0.0459335,20.9602,181.156,-0.00946162,0.0,0.0
240,59.75,42.4702,43.72,181.255,99.4756,99.2753,0.00114787,0.0441672,20.9644,181.156,0.0147433,0.0,0.0
255,63.5,41.8868,43.1783,180.533,99.5953,99.537,0.00102634,0.043511,20.9658,181.106,0.00428497,0.0,0.0
270,67.25,42.282,43.8516,189.201,99.6566,100.285,0.000802683,0.0431975,20.966,181.046,-0.0459808,0.0,0.0
285,71,42.3859,43.6465,179.833,99.7394,99.7987,0.000703227,0.0430831,20.967,181.056,-0.0043481,0.0,0.0
300,74.75,42.5816,44.0611,182.41,99.7912,98.8479,0.000743759,0.0431865,20.9682,181.006,0.0694508,0.0,0.0
315,78.5,42.4886,43.6715,183.737,99.83,99.8916,0.000905083,0.0433994,20.97,180.956,-0.00450554,0.0,0.0
330,82.25,42.5313,43.6533,179.884,99.874,100.006,0.000788983,0.0439651,20.9693,180.936,-0.0096244,0.0,0.0
345,86,42.3752,43.7271,185.502,99.9105,99.0199,0.000938414,0.045141,20.9674,180.876,0.0654743,0.0,0.0
360,89.75,42.1948,43.8406,181.439,99.9258,98.4786,0.00104118,0.0463351,20.9659,180.826,0.106681,0.0,0.0
375,93.5,42.7354,44.0914,185.334,99.9011,99.3133,0.00087857,0.0460605,20.9647,180.776,0.0431514,0.0,0.0
390,97.25,42.7355,43.8848,183.013,99.8748,99.0083,0.000788563,0.0456229,20.966,180.716,0.0637168,0.0,0.0
405,101,42.7411,44.3041,181.95,99.8454,98.9851,0.000904078,0.0456552,20.9676,180.646,0.063277,0.0,0.0
420,104.75,42.943,44.1179,183.274,99.8057,98.7519,0.00115124,0.0458432,20.968,180.606,0.0776216,0.0,0.0
435,108.5,42.6846,43.8963,183.08,99.7802,98.8004,0.00101548,0.0461979,20.9681,180.556,0.0721582,0.0,0.0
450,112.25,42.8196,44.1985,177.696,99.7413,98.3931,0.00108744,0.0466201,20.9681,180.486,0.0995208,0.0,0.0
465,116,42.8672,44.1791,178.552,99.6574,97.5278,0.00106821,0.0471834,20.9681,180.416,0.157955,0.0,0.0
480,119.75,42.9223,44.1002,183.099,99.5836,97.9815,0.00097604,0.0476487,20.9681,180.286,0.118595,0.0,0.0
495,123.5,42.9694,44.5975,182.697,99.5094,96.902,0.0011338,0.0481682,20.9656,180.256,0.19416,0.0,0.0
510,127.25,43.0243,43.9512,186.742,99.4195,96.9009,0.00139496,0.0489539,20.9639,180.136,0.187633,0.0,0.0
525,131,43.5262,44.617,185.332,99.4427,95.9681,0.00126072,0.0497694,20.9635,180.036,0.260074,0.0,0.0
540,134.75,43.1093,44.4924,181.218,99.4945,95.6072,0.00131127,0.0511531,20.9634,179.895,0.291433,0.0,0.0
555,138.5,43.216,44.7283,174.971,99.5404,100.251,0.001405,0.0535036,20.9616,179.695,-0.0520466,0.0,1.0
570,142.25,44.4788,46.4693,166.996,99.5961,101.094,0.00162299,0.0564032,20.9597,179.255,-0.109122,0.0,1.0
585,146,46.1398,49.6658,163.05,99.6585,103.982,0.0023515,0.0684295,20.9587,178.774,-0.310532,0.0,0.0
600,149.75,48.4838,54.1195,162.694,99.7048,104.138,0.00288608,0.154998,20.9334,178.094,-0.31811,0.0,0.0
615,153.5,51.4407,57.7278,160.329,99.7653,101.7,0.00289225,0.274538,20.8069,177.503,-0.140472,0.0,0.0
630,157.25,53.4593,60.7074,160.781,99.8202,102.049,0.00308014,0.358083,20.6648,176.813,-0.161442,0.0,0.0
645,161,55.9822,63.9735,158.292,99.9003,100.505,0.00361674,0.40068,20.591,176.172,-0.0441064,0.0,0.0
660,164.75,57.8393,66.7452,157.31,99.991,100.074,0.00396351,0.431235,20.5335,175.532,-0.00608013,0.0,0.0
675,168.5,59.4374,68.2667,155.7,100.053,99.6953,0.00407804,0.443779,20.5066,174.901,0.0261882,0.0,0.0
690,172.25,60.9253,70.4831,162.303,100.095,103.447,0.00439031,0.445881,20.4938,174.271,-0.240885,0.0,0.0
705,176,62.021,71.7717,156.215,100.135,99.8726,0.00481654,0.441127,20.4934,173.71,0.019217,0.0,0.0
720,179.75,62.8042,72.4804,159.293,100.162,99.0062,0.00483287,0.434193,20.4987,173.1,0.0848769,0.0,0.0
735,183.5,63.8724,73.0819,165.182,100.214,100.517,0.00484882,0.422797,20.5085,172.459,-0.02211,0.0,0.0
750,187.25,64.8861,73.3778,166.723,100.255,100.278,0.00490965,0.411094,20.5228,171.888,-0.00168478,0.0,0.0
765,191,65.3307,73.6788,161.971,100.293,99.9897,0.00476576,0.400937,20.5348,171.368,0.0221298,0.0,0.0
780,194.75,65.5036,74.6595,159.608,100.319,101.306,0.00472539,0.38812,20.5487,170.848,-0.0715621,0.0,0.0
795,198.5,66.4608,74.1727,163.954,100.33,100.533,0.00487367,0.375239,20.5644,170.297,-0.0148185,0.0,0.0
810,202.25,66.4465,74.2426,167.42,100.331,100.094,0.00482307,0.365217,20.5782,169.797,0.017297,0.0,0.0
825,206,66.2581,73.9887,163.209,100.325,101.712,0.004756,0.35278,20.5899,169.286,-0.100429,0.0,0.0
840,209.75,66.9023,73.9229,165.153,100.314,102.384,0.00499927,0.341859,20.6038,168.796,-0.149369,0.0,0.0
855,213.5,66.7871,73.5758,168.396,100.289,101.268,0.00496663,0.333521,20.6138,168.335,-0.0710229,0.0,0.0
870,217.25,66.4475,73.4454,167.181,100.27,101.651,0.0047271,0.325586,20.626,167.835,-0.100004,0.0,0.0
885,221,66.5659,73.1081,172.819,100.235,103.378,0.00442225,0.318098,20.6344,167.395,-0.225778,0.0,0.0
900,224.75,66.2292,73.0012,164.105,100.201,103.899,0.00432325,0.309798,20.6438,166.984,-0.265023,0.0,0.0
915,228.5,66.2768,72.8841,170.833,100.14,101.309,0.00396473,0.303698,20.6512,166.574,-0.0848471,0.0,0.0
930,232.25,65.9422,71.9893,168.606,100.07,103.849,0.00380736,0.296397,20.6594,166.144,-0.271058,0.0,0.0
945,236,66.3647,71.5403,171.708,100.002,101.71,0.00388628,0.288259,20.6679,165.723,-0.123801,0.0,0.0
960,239.75,65.7648,71.4212,168.241,99.9333,103.571,0.00356517,0.280581,20.6774,165.323,-0.261476,0.0,0.0
975,243.5,65.9422,71.2072,168.429,99.8367,102.452,0.00322465,0.275475,20.6856,164.872,-0.189064,0.0,0.0
990,247.25,65.6586,70.8163,169.225,99.7547,100.541,0.00333925,0.272051,20.6904,164.462,-0.0573821,0.0,0.0
1005,251,65.527,70.5426,168.252,99.6538,104.265,0.00325717,0.268444,20.6938,164.122,-0.330739,0.0,0.0
1020,254.75,65.3891,70.3033,171.344,99.5451,101.338,0.00320038,0.264938,20.6978,163.781,-0.130556,0.0,0.0
1035,258.5,65.2143,69.6715,166.897,99.4187,101.922,0.00299226,0.25981,20.7018,163.401,-0.181834,0.0,0.0
1050,262.25,65.0163,69.9767,170.533,99.2837,101.425,0.00293696,0.255324,20.7073,163.041,-0.156024,0.0,0.0
1065,266,65.299,69.2102,169.933,99.1468,102.434,0.00298602,0.248401,20.7124,162.691,-0.238494,0.0,0.0
1080,269.75,64.6028,68.4168,173.335,99.0169,100.429,0.00302914,0.242083,20.72,162.33,-0.10353,0.0,0.0
1095,273.5,64.626,68.1987,171.737,98.8807,102.28,0.00296445,0.237107,20.7275,162.02,-0.247139,0.0,0.0
1110,277.25,64.1243,67.6703,169.214,98.7563,100.306,0.00299162,0.231821,20.7317,161.69,-0.113882,0.0,0.0
1125,281,63.6546,67.8409,173.278,98.6636,101.903,0.00294607,0.227402,20.7377,161.369,-0.236222,0.0,0.0
1140,284.75,63.3031,67.4712,173.084,98.6008,101.548,0.0028956,0.221341,20.7464,161.089,-0.21539,0.0,0.0
1155,288.5,63.1631,67.0459,172.77,98.5541,99.7744,0.00312799,0.215822,20.7549,160.769,-0.0899872,0.0,0.0
1170,292.25,62.6109,66.4614,170.515,98.5129,101.218,0.0029367,0.212379,20.7616,160.479,-0.19809,0.0,0.0
1185,296,62.8946,66.309,172.966,98.4898,101.171,0.00264844,0.2096,20.7646,160.138,-0.196377,0.0,0.0
1200,299.75,62.3727,65.7857,173.565,98.4705,99.5771,0.00260475,0.207041,20.7663,159.838,-0.0817153,0.0,0.0
1215,303.5,62.0973,65.5306,170.993,98.4556,100.415,0.00244454,0.204576,20.7693,159.528,-0.144095,0.0,0.0
1230,307.25,62.1378,65.2606,168.539,98.4513,103.286,0.00245272,0.201592,20.7725,159.278,-0.350584,0.0,0.0
1245,311,61.6016,64.9886,173.109,98.4674,101.41,0.00255777,0.200025,20.7763,158.977,-0.215332,0.0,0.0
1260,314.75,61.8719,64.8864,171.166,98.5031,101.299,0.00286037,0.198795,20.7783,158.677,-0.204686,0.0,0.0
1275,318.5,61.764,65.0774,172.748,98.5278,100.914,0.00284348,0.19747,20.7794,158.387,-0.174993,0.0,0.0
1290,322.25,62.0212,64.6443,176.422,98.5875,101.707,0.00271941,0.196444,20.781,158.077,-0.22777,0.0,0.0
1305,326,61.4214,64.6192,172.614,98.6566,100.619,0.00267911,0.196139,20.7818,157.806,-0.144003,0.0,0.0
1320,329.75,61.1915,63.9704,170.064,98.7386,100.659,0.0027125,0.194126,20.7843,157.466,-0.14084,0.0,0.0
1335,333.5,61.2409,63.954,168.414,98.8351,102.016,0.00295061,0.192571,20.7881,157.226,-0.23162,0.0,0.0
1350,337.25,60.588,63.9647,174.358,98.9388,102.176,0.00289217,0.191897,20.7893,156.916,-0.235447,0.0,0.0
1365,341,60.6578,63.9895,169.587,99.0687,101.868,0.00283488,0.191371,20.7896,156.645,-0.203766,0.0,0.0
1380,344.75,60.7783,63.8573,171.469,99.184,101.18,0.00266858,0.190824,20.7911,156.395,-0.145697,0.0,0.0
1395,348.5,60.3435,63.5266,171.018,99.2982,102.663,0.0027637,0.189997,20.7918,156.135,-0.243658,0.0,0.0
1410,352.25,60.4706,62.9673,170.29,99.3791,100.502,0.00255089,0.188634,20.7924,155.855,-0.0821261,0.0,0.0
1425,356,60.1949,63.108,172.893,99.4764,102.445,0.00246091,0.18501,20.7951,155.604,-0.215048,0.0,0.0
1440,359.75,60.157,62.9132,172.227,99.5502,100.824,0.00269002,0.183249,20.7995,155.344,-0.0930034,0.0,0.0
1455,363.5,59.933,62.6659,172.895,99.6401,100.686,0.00287464,0.181637,20.8015,155.084,-0.0763718,0.0,0.0
1470,367.25,59.7105,62.1552,179.29,99.6844,102.329,0.00274831,0.180429,20.8037,154.794,-0.191483,0.0,0.0
1485,371,59.6329,62.4488,171.96,99.706,100.823,0.00275142,0.179458,20.8057,154.503,-0.081491,0.0,0.0
1500,374.75,59.6457,62.6696,181.374,99.726,102.127,0.00275185,0.178512,20.8054,154.273,-0.173939,0.0,0.0
1515,378.5,59.7996,61.8865,170.165,99.7394,102.351,0.00285703,0.176839,20.8051,154.023,-0.189038,0.0,0.0
1530,382.25,59.6334,61.6801,170.405,99.6966,102.071,0.0029066,0.17619,20.8068,153.773,-0.172092,0.0,0.0
1545,386,59.6037,62.2643,176.839,99.6833,102.431,0.00295536,0.175148,20.807,153.473,-0.198806,0.0,0.0
1560,389.75,59.292,61.85,175.348,99.6464,103.858,0.00297049,0.174096,20.8076,153.282,-0.302736,0.0,0.0
1575,393.5,58.9902,61.5204,171.748,99.6063,102.332,0.00297809,0.173075,20.8092,153.032,-0.197441,0.0,0.0
1590,397.25,59.0058,61.5465,171.154,99.5443,102.333,0.00274122,0.171141,20.8122,152.782,-0.20207,0.0,0.0
1605,401,59.0336,61.6745,171.628,99.4725,102.445,0.00260519,0.170381,20.8151,152.512,-0.215337,0.0,0.0
1620,404.75,59.17,60.8612,174.049,99.4038,101.439,0.00290355,0.169006,20.8158,152.221,-0.148173,0.0,0.0
1635,408.5,58.3557,61.1467,175.668,99.3065,102.382,0.00332131,0.168281,20.8159,152.021,-0.22303,0.0,0.0
1650,412.25,58.8215,60.6362,179.415,99.2598,102.725,0.00344282,0.166754,20.8177,151.791,-0.250925,0.0,0.0
1665,416,58.4302,61.0396,173.089,99.2162,102.318,0.00332812,0.163372,20.82,151.551,-0.225081,0.0,0.0
1680,419.75,58.5113,60.7311,174.768,99.1742,102.377,0.00353769,0.164772,20.8225,151.301,-0.232399,0.0,0.0
1695,423.5,58.011,60.7744,171.436,99.1577,101.573,0.00402458,0.164478,20.8222,151.04,-0.175952,0.0,0.0
1710,427.25,58.3449,60.4856,173.119,99.1338,101.312,0.00400489,0.164335,20.8232,150.78,-0.158929,0.0,0.0
1725,431,58.5381,60.7758,171.604,99.1008,100.958,0.00382271,0.164391,20.8228,150.53,-0.135801,0.0,0.0
1740,434.75,58.1265,60.8355,169.693,99.091,100.167,0.0036159,0.164286,20.8216,150.34,-0.0789734,0.0,0.0
1755,438.5,58.3203,60.5254,171.216,99.0828,101.477,0.00338604,0.163315,20.8213,150.11,-0.174566,0.0,0.0
1770,442.25,58.0986,60.3778,172.713,99.0761,99.5613,0.00321449,0.162597,20.8214,149.889,-0.0357202,0.0,0.0
1785,446,57.4993,60.1169,177.067,99.0643,101.785,0.00310384,0.162549,20.8233,149.659,-0.198098,0.0,0.0
1800,449.75,57.8275,60.4054,176.048,99.0573,100.36,0.0032637,0.162409,20.8237,149.399,-0.0955492,0.0,0.0
1815,453.5,57.287,60.1228,174.189,99.0561,101.34,0.00387299,0.159291,20.8238,149.139,-0.166719,0.0,0.0
1830,457.25,57.8541,60.0302,175.854,99.0506,99.5275,0.00420227,0.157574,20.827,148.989,-0.0351228,0.0,0.0
1845,461,57.5402,59.513,175.26,99.0655,101.323,0.00404986,0.156766,20.8301,148.728,-0.164729,0.0,0.0
1860,464.75,57.6192,59.7014,171.444,99.1079,100.426,0.00391176,0.154675,20.8309,148.468,-0.0965786,0.0,0.0
1875,468.5,57.1184,59.7852,171.904,99.122,101.096,0.00424726,0.155369,20.8334,148.248,-0.144167,0.0,0.0
1890,472.25,57.5231,59.2769,173.847,99.146,102.39,0.00447301,0.154991,20.8328,148.038,-0.235463,0.0,0.0
1905,476,57.3928,59.2128,173.649,99.1715,100.549,0.00473732,0.151961,20.835,147.818,-0.100873,0.0,0.0
1920,479.75,56.9525,58.9804,174.416,99.1817,103.124,0.00497086,0.150795,20.8374,147.577,-0.285021,0.0,0.0
1935,483.5,56.6941,58.691,171.682,99.2033,100.636,0.00509603,0.150792,20.8388,147.317,-0.104819,0.0,0.0
1950,487.25,57.029,59.0269,170.656,99.199,100.398,0.00506156,0.150665,20.8384,147.037,-0.0878647,0.0,0.0
1965,491,57.2766,58.7322,173.031,99.2186,100.352,0.00534874,0.149789,20.8385,146.947,-0.0830355,0.0,0.0
1980,494.75,56.7963,58.9086,175.722,99.2582,101.32,0.00538122,0.149428,20.8385,146.687,-0.150367,0.0,0.0
1995,498.5,56.8588,58.7594,177.373,99.2932,101.441,0.00504109,0.148544,20.8385,146.487,-0.156471,0.0,0.0
2010,502.25,56.8886,58.7216,174.995,99.3579,101.269,0.00521579,0.145743,20.8412,146.266,-0.139294,0.0,0.0
2025,506,56.6485,58.7777,179.583,99.4132,101.264,0.00573976,0.145368,20.8447,146.026,-0.134917,0.0,0.0
2040,509.75,56.7836,58.5162,172.348,99.4788,101.863,0.00546847,0.145514,20.8439,145.806,-0.173178,0.0,0.0
2055,513.5,56.8059,58.3777,174.452,99.5679,99.8546,0.00524969,0.145809,20.8431,145.606,-0.0210298,0.0,0.0
2070,517.25,56.5542,58.4508,176.303,99.6444,101.095,0.00539574,0.145492,20.8429,145.386,-0.105654,0.0,0.0
2085,521,56.2665,58.4926,174.475,99.7417,101.338,0.00550369,0.144121,20.844,145.175,-0.116127,0.0,0.0
2100,524.75,56.5536,58.2656,174.208,99.8116,101.094,0.00543249,0.144044,20.845,144.975,-0.093319,0.0,0.0
2115,528.5,56.1418,58.242,178.97,99.8603,101.911,0.00578893,0.143804,20.8452,144.715,-0.148673,0.0,0.0
2130,532.25,56.2858,58.3767,175.505,99.8948,101.668,0.00616234,0.143492,20.8439,144.535,-0.128633,0.0,0.0
2145,536,56.5895,57.9079,173.707,99.8866,100.943,0.0062201,0.142608,20.8462,144.315,-0.0769056,0.0,0.0
2160,539.75,55.9199,57.7967,172.702,99.883,101.27,0.00632312,0.141598,20.8493,144.084,-0.100824,0.0,0.0
2175,543.5,55.7163,57.9539,176.546,99.8614,101.556,0.00670174,0.141244,20.8509,143.904,-0.123025,0.0,0.0
2190,547.25,56.0418,57.3488,172.503,99.8183,101.517,0.00724699,0.140481,20.8518,143.674,-0.123375,0.0,0.0
2205,551,55.8987,57.6162,178.205,99.7684,101.496,0.00697519,0.139905,20.8516,143.494,-0.125507,0.0,0.0
2220,554.75,55.7084,56.9242,176.441,99.6817,99.6299,0.00674503,0.139166,20.8516,143.274,0.00380318,0.0,0.0
2235,558.5,55.1439,56.8236,180.254,99.611,99.6193,0.00682908,0.138071,20.8529,143.084,-0.000606739,0.0,0.0
2250,562.25,55.0994,56.9205,176.593,99.5255,100.159,0.00697776,0.136128,20.8537,142.843,-0.0463659,0.0,0.0
2265,566,55.1482,56.542,176.285,99.4333,101.132,0.00761472,0.130302,20.8571,142.653,-0.123837,0.0,0.0
2280,569.75,54.9615,56.2803,177.212,99.4768,99.5022,0.00818448,0.126995,20.8643,142.463,-0.00186353,0.0,0.0
2295,573.5,55.0093,55.9594,178.206,99.5114,101.218,0.00829144,0.12616,20.8689,142.263,-0.12435,0.0,0.0
2310,577.25,54.3376,55.8982,177.273,99.5369,101.733,0.00833214,0.124515,20.8701,142.083,-0.159585,0.0,0.0
2325,581,54.1644,56.0186,175.237,99.5769,100.742,0.00826179,0.121618,20.8725,141.893,-0.0850707,0.0,0.0
2340,584.75,54.0115,55.1854,174.122,99.6287,101.818,0.00829841,0.12457,20.8732,141.672,-0.158983,0.0,0.0
2355,588.5,53.8728,55.5785,180.005,99.6778,99.6636,0.00818291,0.125818,20.8714,141.492,0.00103727,0.0,0.0
2370,592.25,53.8793,55.6724,179.956,99.7166,102.018,0.00847787,0.123987,20.8713,141.322,-0.166843,0.0,0.0
2385,596,53.9639,55.2043,172.811,99.7806,101.45,0.00855438,0.123367,20.8719,141.112,-0.121346,0.0,0.0
2400,599.75,53.4489,55.0199,176.693,99.8328,100.615,0.00864016,0.120408,20.8732,140.892,-0.0571066,0.0,0.0
2415,603.5,53.3896,54.5537,179.187,99.8799,100.389,0.00894459,0.117815,20.8757,140.722,-0.0371495,0.0,0.0
2430,607.25,53.4583,54.8168,178.985,99.9301,99.8504,0.00919093,0.116867,20.8781,140.501,0.00583555,0.0,0.0
2445,611,53.3456,54.4586,179.753,99.9937,99.9106,0.00932815,0.115795,20.8802,140.301,0.00608204,0.0,0.0
2460,614.75,53.0068,54.3417,176.083,100.05,100.341,0.00909939,0.115318,20.881,140.131,-0.0212584,0.0,0.0
2475,618.5,53.0663,53.9926,179.665,100.111,100.108,0.00880112,0.114397,20.8825,139.911,0.000258895,0.0,0.0
2490,622.25,52.421,53.8804,174.3,100.15,101.848,0.00888387,0.113593,20.8815,139.741,-0.122921,0.0,0.0
2505,626,52.3794,54.0514,175.334,100.211,102.526,0.00925605,0.112635,20.8838,139.581,-0.16699,0.0,0.0
2520,629.75,52.4607,53.846,175.765,100.249,101.317,0.00964655,0.112062,20.8876,139.41,-0.0775227,0.0,0.0
2535,633.5,52.3381,53.5019,179.808,100.301,100.91,0.00946285,0.112013,20.8887,139.21,-0.0442862,0.0,0.0
2550,637.25,52.4823,53.0107,176.652,100.325,101.037,0.00927616,0.113215,20.8878,139,-0.0517117,0.0,0.0
2565,641,52.4621,53.0917,178.966,100.34,100.949,0.0094285,0.113756,20.8862,138.81,-0.0442257,0.0,0.0
2580,644.75,52.05,53.0798,173.175,100.334,100.079,0.00960843,0.113979,20.8858,138.64,0.0186049,0.0,0.0
2595,648.5,52.1077,53.848,181.732,100.327,100.755,0.00975227,0.117202,20.8841,138.43,-0.0310908,0.0,0.0
2610,652.25,52.2342,53.0842,178.392,100.312,100.166,0.00955167,0.12144,20.8792,138.259,0.0106542,0.0,0.0
2625,656,52.2687,52.6055,182.073,100.266,100.447,0.00965984,0.121182,20.8759,138.119,-0.0131857,0.0,0.0
2640,659.75,51.9536,52.7827,176.125,100.245,100.763,0.00972498,0.118145,20.8752,137.919,-0.0377138,0.0,0.0
2655,663.5,52.1176,53.0946,180.678,100.217,101.788,0.00988199,0.11864,20.8769,137.739,-0.11376,0.0,0.0
2670,667.25,51.8288,52.9434,176.729,100.133,99.8842,0.00978642,0.119668,20.8756,137.559,0.0181953,0.0,0.0
2685,671,51.3283,52.7423,178.256,100.055,99.7618,0.00966034,0.117209,20.876,137.359,0.0214276,0.0,0.0
2700,674.75,51.7833,52.676,180.986,99.9576,101.732,0.00949422,0.113018,20.8795,137.178,-0.128666,0.0,0.0
2715,678.5,51.7536,52.4077,176.209,99.8544,99.4051,0.00960588,0.109505,20.8856,137.018,0.0329766,0.0,0.0
2730,682.25,51.5195,52.1738,176.174,99.715,99.1655,0.00972677,0.107747,20.8896,136.848,0.040409,0.0,0.0
2745,686,51.4428,52.7148,178.225,99.6036,100.947,0.0097484,0.105561,20.8932,136.678,-0.0979567,0.0,0.0
2760,689.75,51.0209,52.0834,180.446,99.469,99.365,0.00987018,0.103684,20.8958,136.498,0.00764792,0.0,0.0
2775,693.5,51.2817,52.2096,177.533,99.3324,99.8114,0.0102017,0.104191,20.8979,136.298,-0.0351754,0.0,0.0
2790,697.25,51.1621,52.1021,175.429,99.1993,99.0241,0.0100725,0.106285,20.8955,136.108,0.0129266,0.0,0.0
2805,701,51.0256,52.3268,177.086,99.124,99.5623,0.00993104,0.107038,20.8937,135.957,-0.0322648,0.0,0.0
2820,704.75,51.0057,52.4398,178.862,99.0176,98.8901,0.00988883,0.106609,20.8919,135.787,0.00942327,0.0,0.0
2835,708.5,50.6334,52.0469,181.213,98.9317,100.221,0.0100287,0.106258,20.8925,135.627,-0.0946696,0.0,0.0
2850,712.25,51.1486,52.2398,178.669,98.8606,98.9249,0.010002,0.105945,20.8935,135.447,-0.00475414,0.0,0.0
2865,716,51.0082,52.2475,181.604,98.7975,100.386,0.00981358,0.106213,20.8937,135.367,-0.116676,0.0,0.0
2880,719.75,51.0793,52.3367,179.177,98.7355,100.312,0.00991559,0.106303,20.8943,135.077,-0.115806,0.0,0.0
2895,723.5,50.9419,52.6389,180.081,98.7107,98.1852,0.00994588,0.107165,20.8944,134.846,0.0390348,0.0,0.0
2910,727.25,51.0694,51.789,176.815,98.6758,98.0375,0.00955888,0.107669,20.8926,134.766,0.0474579,0.0,0.0
2925,731,51.0038,52.2431,173.053,98.646,98.6569,0.00959039,0.107034,20.8922,134.586,-0.000810304,0.0,0.0
2940,734.75,50.696,51.9629,177.577,98.6142,97.4054,0.00961956,0.105162,20.8939,134.396,0.0901914,0.0,0.0
2955,738.5,50.8871,52.483,178.555,98.5981,97.5573,0.0098242,0.103426,20.8974,134.226,0.0775984,0.0,0.0
2970,742.25,51.0484,52.5082,178.674,98.5706,97.2217,0.0101074,0.104032,20.8988,134.046,0.100757,0.0,0.0
2985,746,50.742,52.0783,179.816,98.5604,100.006,0.0101963,0.105859,20.896,133.886,-0.106439,0.0,0.0
3000,749.75,50.8026,52.5768,178.525,98.5545,98.849,0.00988649,0.104909,20.8948,133.695,-0.0218141,0.0,0.0
3015,753.5,50.7084,52.0024,178.44,98.531,97.1563,0.00975909,0.104426,20.8945,133.515,0.102739,0.0,0.0
3030,757.25,50.7082,51.7166,178.053,98.5216,99.1107,0.00935211,0.10675,20.8934,133.345,-0.0435947,0.0,0.0
3045,761,50.7015,52.1437,175.965,98.5172,97.2165,0.00943038,0.107179,20.8924,133.195,0.0971934,0.0,0.0
3060,764.75,50.4916,52.0427,178.707,98.5196,97.8834,0.00942658,0.107529,20.8922,133.025,0.0473747,0.0,0.0
3075,768.5,50.9413,51.3647,176.503,98.5059,98.3794,0.00935549,0.107213,20.8921,132.845,0.00939541,0.0,0.0
3090,772.25,50.573,51.8899,176.354,98.5027,97.9647,0.00961182,0.107203,20.8921,132.635,0.0400535,0.0,0.0
3105,776,50.6842,51.7244,181.318,98.5078,99.4494,0.00999677,0.10775,20.8937,132.504,-0.0695641,0.0,0.0
3120,779.75,50.8264,52.0538,175.642,98.5035,97.6861,0.0100403,0.108892,20.8923,132.344,0.0609372,0.0,0.0
3135,783.5,50.4831,51.649,179.269,98.5074,98.1852,0.00995216,0.110219,20.8903,132.154,0.023959,0.0,0.0
3150,787.25,50.8784,52.2024,176.605,98.5129,97.3389,0.0100362,0.110738,20.8901,131.964,0.0876716,0.0,0.0
3165,791,50.6707,51.9694,177.731,98.5117,99.9422,0.00973816,0.110375,20.8904,131.804,-0.10542,0.0,0.0
3180,794.75,50.5978,51.9888,179.376,98.5318,98.3234,0.00963203,0.110372,20.8904,131.654,0.0154775,0.0,0.0
3195,798.5,50.4207,51.9705,178.637,98.5671,99.2373,0.0097509,0.109148,20.8904,131.484,-0.0495537,0.0,0.0
3210,802.25,50.6729,51.8038,176.768,98.6067,97.9794,0.00939653,0.108871,20.8922,131.333,0.046668,0.0,0.0
3225,806,50.6735,51.5188,179.358,98.6405,99.4093,0.00920056,0.108259,20.8926,131.183,-0.0567745,0.0,0.0
3240,809.75,50.7267,51.6611,174.987,98.6836,98.7297,0.00914491,0.107708,20.8927,130.983,-0.00341313,0.0,0.0
3255,813.5,50.7063,51.7163,182.327,98.7237,98.9334,0.00923546,0.107512,20.8915,130.803,-0.0155169,0.0,0.0
3270,817.25,50.2853,51.6283,179.063,98.7665,98.7688,0.00938944,0.107008,20.892,130.623,-0.000171294,0.0,0.0
3285,821,50.1611,51.814,173.943,98.8085,100.015,0.00958571,0.107321,20.8921,130.483,-0.088754,0.0,0.0
3300,824.75,50.7418,51.6913,178.147,98.8697,98.5113,0.00958336,0.106917,20.8931,130.283,0.0265556,0.0,0.0
3315,828.5,50.1961,52.0258,177.416,98.9246,98.2559,0.00954681,0.107298,20.8935,130.142,0.0495994,0.0,0.0
3330,832.25,50.8146,51.9137,183.735,98.978,99.327,0.00934819,0.106972,20.8935,129.952,-0.0257391,0.0,0.0
3345,836,50.7005,52.1276,175.311,99.0235,100.202,0.00929189,0.106404,20.8946,129.822,-0.0864991,0.0,0.0
3360,839.75,50.4517,51.5133,176.75,99.0918,100.295,0.00926696,0.106214,20.8955,129.672,-0.0882308,0.0,0.0
3375,843.5,50.722,52.0886,178.311,99.1628,99.2246,0.00922798,0.10671,20.8959,129.492,-0.00455526,0.0,0.0
3390,847.25,50.431,51.9732,175.692,99.2307,99.8578,0.00959923,0.106534,20.8946,129.332,-0.0460637,0.0,0.0
3405,851,50.6037,51.7302,177.575,99.29,98.4902,0.00957188,0.105348,20.8946,129.142,0.0591449,0.0,0.0
3420,854.75,50.4506,51.7374,177.435,99.3583,100.161,0.00961846,0.10544,20.895,128.951,-0.0588143,0.0,0.0
3435,858.5,50.7555,51.8848,175.112,99.425,100.411,0.00957135,0.107644,20.8942,128.811,-0.0721418,0.0,0.0
3450,862.25,50.7952,51.7794,174.261,99.4894,99.67,0.00931116,0.111333,20.8902,128.631,-0.0132608,0.0,0.0
3465,866,50.6879,52.4109,179.372,99.5534,100.81,0.00928549,0.112558,20.8856,128.461,-0.0917017,0.0,0.0
3480,869.75,50.5425,51.8277,179.046,99.6201,100.588,0.00946934,0.114177,20.8846,128.331,-0.0707096,0.0,0.0
3495,873.5,50.6351,52.4309,174.724,99.6656,99.5887,0.00905661,0.116069,20.8827,128.141,0.00564392,0.0,0.0
3510,877.25,50.8535,52.6353,175.965,99.6939,99.5075,0.00889443,0.116518,20.8803,127.981,0.0136853,0.0,0.0
3525,881,50.7201,52.4598,176.01,99.719,101.238,0.00878833,0.115744,20.8808,127.78,-0.110558,0.0,0.0
3540,884.75,51.0732,52.3895,179.654,99.7221,100.655,0.00889077,0.116248,20.8818,127.63,-0.0680545,0.0,0.0
3555,888.5,50.835,52.7073,176.988,99.7315,99.156,0.00879293,0.117663,20.8813,127.47,0.0423185,0.0,0.0
3570,892.25,51.0494,52.4261,175.325,99.7515,100.43,0.00894795,0.121631,20.8793,127.3,-0.0495489,0.0,0.0
3585,896,51.2598,52.6877,176.46,99.7519,101.128,0.00881611,0.124761,20.8745,127.13,-0.100209,0.0,0.0
3600,899.75,50.9063,52.9432,174.523,99.7464,100.896,0.00877772,0.126906,20.8723,126.95,-0.0838057,0.0,0.0
3615,903.5,51.1642,53.2474,178.904,99.7272,99.9348,0.00867163,0.127974,20.8695,126.82,-0.0152076,0.0,0.0
3630,907.25,51.2858,52.6516,176.623,99.7186,101.996,0.00850414,0.127926,20.8685,126.649,-0.165111,0.0,0.0
3645,911,51.4797,53.0808,177.937,99.7107,101.098,0.00822613,0.126374,20.8697,126.429,-0.101018,0.0,0.0
3660,914.75,51.1349,53.2707,179.124,99.7041,101.615,0.00811886,0.125384,20.8699,126.319,-0.138813,0.0,0.0
3675,918.5,51.6223,53.4361,179.063,99.6797,99.6784,0.00862194,0.123807,20.8716,126.149,9.67598e-05,0.0,0.0
3690,922.25,51.7254,53.1783,177.005,99.668,100.755,0.00862298,0.122543,20.874,125.989,-0.079307,0.0,0.0
3705,926,51.6861,53.2991,177.437,99.6338,99.6467,0.00839598,0.12319,20.8737,125.779,-0.000948924,0.0,0.0
3720,929.75,51.4481,53.4628,177.867,99.593,100.941,0.00834042,0.122351,20.8726,125.639,-0.0982756,0.0,0.0
3735,933.5,51.2148,53.3719,179.272,99.5604,101.406,0.00832288,0.121595,20.8724,125.458,-0.134304,0.0,0.0
3750,937.25,51.7177,53.5796,171.637,99.507,100.686,0.0085222,0.120974,20.8736,125.298,-0.0861427,0.0,0.0
3765,941,51.6215,53.7415,179.149,99.4501,100.009,0.00869273,0.120589,20.8755,125.138,-0.0409561,0.0,0.0
3780,944.75,51.896,53.4709,181.144,99.3999,101.236,0.00832893,0.12054,20.8767,124.938,-0.133841,0.0,0.0
3795,948.5,52.0063,53.6097,176.371,99.3461,100.661,0.00831511,0.122409,20.8773,124.768,-0.0961374,0.0,0.0
3810,952.25,51.6925,53.1651,174.558,99.2857,100.03,0.00842979,0.122464,20.8742,124.267,-0.0546006,0.0,0.0
3825,956,51.7655,53.3255,179.627,99.2347,100.169,0.00851633,0.121715,20.8732,124.4375,-0.0685349,0.0,0.0
3840,959.75,52.0045,53.3649,177.364,99.4443,100.219,0.00856961,0.120103,20.8753,124.287,-0.0567275,0.0,0.0
3855,963.5,51.8033,53.8747,177.592,99.4187,100.095,0.00878277,0.121816,20.8772,124.117,-0.0495897,0.0,0.0
3870,967.25,51.6166,53.6023,176.586,99.3826,100.666,0.00863453,0.130056,20.8739,123.927,-0.0938347,0.0,0.0
3885,971,52.2981,53.702,174.119,99.3473,100.672,0.00873132,0.134694,20.8656,123.787,-0.0968931,0.0,0.0
3900,974.75,51.8731,53.9625,178.566,99.3112,99.5813,0.00848428,0.134678,20.8612,123.607,-0.0198624,0.0,0.0
3915,978.5,51.7946,53.6352,178.384,99.2594,98.9482,0.0081203,0.13214,20.8613,123.427,0.022965,0.0,0.0
3930,982.25,51.8826,53.6115,175.729,99.239,98.887,0.00802691,0.128041,20.8644,123.266,0.0259858,0.0,0.0
3945,986,52.1572,53.6292,174.533,99.2198,99.2257,0.00797709,0.126097,20.8684,123.106,-0.000437614,0.0,0.0
3960,989.75,52.1691,54.0331,180.704,99.2017,100.274,0.0081318,0.126619,20.8702,122.916,-0.0785871,0.0,0.0
3975,993.5,51.9459,54.1995,177.115,99.1719,100.411,0.0084687,0.129462,20.8686,122.756,-0.0907838,0.0,0.0
3990,997.25,52.2761,53.9952,174.989,99.1526,99.9443,0.00834108,0.131589,20.8632,122.586,-0.0581544,0.0,0.0
4005,1001,51.8341,54.0216,174.28,99.1181,99.8884,0.00829101,0.133151,20.8603,122.416,-0.0566089,0.0,0.0
4020,1004.75,52.302,54.1161,177.573,99.0981,100.219,0.00803428,0.1323,20.8597,122.226,-0.0822262,0.0,0.0
4035,1008.5,52.4578,54.1901,175.887,99.0844,100.065,0.00772515,0.132995,20.8596,122.065,-0.071989,0.0,0.0
4050,1012.25,52.3944,54.3545,175.155,99.1063,100.622,0.00754187,0.134461,20.8591,121.875,-0.110972,0.0,0.0
4065,1016,52.5319,54.0939,173.906,99.2139,100.682,0.00730983,0.136469,20.8567,121.715,-0.107412,0.0,0.0
4080,1019.75,52.6863,54.6053,175.086,99.2916,100.869,0.00692097,0.138212,20.8555,121.525,-0.11524,0.0,0.0
4095,1023.5,52.4371,54.0263,173.53,99.3924,100.468,0.00696583,0.13898,20.8527,121.375,-0.0786871,0.0,0.0
4110,1027.25,52.6316,54.8324,171.937,99.4808,99.4156,0.00710094,0.14026,20.8511,121.195,0.00478764,0.0,0.0
4125,1031,52.6019,55.2654,173.378,99.5561,100.514,0.00672723,0.141677,20.8499,121.025,-0.0700349,0.0,0.0
4140,1034.75,52.9206,55.0788,175.706,99.584,100.48,0.00667531,0.14309,20.8482,120.854,-0.0655311,0.0,0.0
4155,1038.5,52.8602,55.0607,176.995,99.6205,100.109,0.00661624,0.144144,20.8458,120.694,-0.0357688,0.0,0.0
4170,1042.25,53.1543,55.2502,174.855,99.6421,101.24,0.00665746,0.143687,20.8466,120.494,-0.116353,0.0,0.0
4185,1046,53.2964,55.4417,177.232,99.6813,100.533,0.00665034,0.142787,20.8476,120.334,-0.0622268,0.0,0.0
4200,1049.75,53.3492,55.4958,175.687,99.7147,100.357,0.00695611,0.142567,20.8488,120.164,-0.0469502,0.0,0.0
4215,1053.5,53.4757,55.7562,177.277,99.7578,100.565,0.00714839,0.145787,20.8479,119.974,-0.0589171,0.0,0.0
4230,1057.25,53.4587,55.566,177.655,99.7963,100.682,0.00702064,0.150019,20.8426,119.803,-0.0646107,0.0,0.0
4245,1061,53.5797,55.4504,175.973,99.8194,100.167,0.00670796,0.15028,20.8386,119.643,-0.0254163,0.0,0.0
4260,1064.75,53.2859,55.7129,175.768,99.8273,101.794,0.00640464,0.147418,20.839,119.493,-0.142678,0.0,0.0
4275,1068.5,53.1992,55.524,173.389,99.8489,102.144,0.0063652,0.145041,20.8425,119.303,-0.166146,0.0,0.0
4290,1072.25,53.4248,55.7595,175.484,99.8508,99.7755,0.00628836,0.144422,20.8461,119.133,0.0055211,0.0,0.0
4305,1076,53.5794,55.7709,175.823,99.8862,101.133,0.00647877,0.144075,20.8478,118.943,-0.0906814,0.0,0.0
4320,1079.75,53.2953,56.1423,176.91,99.8858,102.134,0.00669707,0.142556,20.8486,118.743,-0.162765,0.0,0.0
4335,1083.5,53.4104,55.8626,169.787,99.8901,99.6478,0.0063604,0.141542,20.8498,118.592,0.0177579,0.0,0.0
4350,1087.25,53.6522,56.34,177.311,99.8732,100.205,0.00604035,0.140373,20.8523,118.362,-0.0242512,0.0,0.0
4365,1091,53.4926,56.2051,170.179,99.8426,101.512,0.00615812,0.139294,20.855,118.162,-0.121289,0.0,0.0
4380,1094.75,53.9268,55.9791,175.899,99.8147,102.015,0.00618026,0.139447,20.8561,118.012,-0.159425,0.0,0.0
4395,1098.5,53.8671,56.4026,176.93,99.7841,101.292,0.00618285,0.140219,20.8547,117.852,-0.109668,0.0,0.0
4410,1102.25,54.0893,56.0931,173.613,99.7292,102.205,0.00570547,0.14029,20.8535,117.662,-0.179298,0.0,0.0
4425,1106,54.3,56.5367,174.759,99.6393,102.271,0.00560716,0.140728,20.8533,117.502,-0.190646,0.0,0.0
4440,1109.75,54.3474,56.5764,175.059,99.5502,99.9929,0.00585617,0.140755,20.8528,117.281,-0.0324435,0.0,0.0
4455,1113.5,54.4512,56.5793,174.385,99.4631,100.588,0.00581759,0.141508,20.8526,117.141,-0.082242,0.0,0.0
4470,1117.25,54.0047,56.4014,173.922,99.4435,99.1909,0.00579615,0.141493,20.8507,116.971,0.0185979,0.0,0.0
4485,1121,54.2899,56.5026,177.908,99.4898,101.407,0.00592299,0.141789,20.8503,116.781,-0.13957,0.0,0.0
4500,1124.75,54.3182,56.2253,179.106,99.5353,101.671,0.00594406,0.14265,20.8502,116.641,-0.155224,0.0,0.0
4515,1128.5,54.6701,56.8668,169.545,99.5592,102.091,0.00609475,0.142917,20.8498,116.421,-0.183611,0.0,0.0
4530,1132.25,54.5544,56.8191,174.297,99.5961,100.353,0.0061452,0.14337,20.849,116.23,-0.0553401,0.0,0.0
4545,1136,54.1538,56.9054,176.904,99.6279,103.173,0.00578466,0.143778,20.8486,116.02,-0.25571,0.0,0.0
4560,1139.75,54.5107,57.2088,171.585,99.6766,102.079,0.00602729,0.143255,20.8485,115.85,-0.174165,0.0,0.0
4575,1143.5,54.4199,57.0895,176.372,99.737,100.791,0.00620229,0.144574,20.8479,115.65,-0.0768444,0.0,0.0
4590,1147.25,54.5562,56.89,172.44,99.8112,100.088,0.00603256,0.145752,20.846,115.48,-0.0202396,0.0,0.0
4605,1151,54.797,57.3739,173.649,99.8873,101.518,0.00581928,0.146458,20.8457,115.29,-0.118393,0.0,0.0
4620,1154.75,54.5591,57.0269,173.57,99.9525,101.393,0.00572692,0.148127,20.8461,115.119,-0.10465,0.0,0.0
4635,1158.5,54.8576,57.2676,172.406,99.9996,101.964,0.0054739,0.149453,20.8437,114.899,-0.142263,0.0,0.0
4650,1162.25,55.0429,57.254,172.39,100.035,101.449,0.00557919,0.149099,20.8416,114.709,-0.102655,0.0,0.0
4665,1166,54.9504,57.3377,173.39,100.088,101.944,0.0054916,0.14991,20.8408,114.489,-0.134371,0.0,0.0
4680,1169.75,55.033,57.5374,171.184,100.131,99.4484,0.00551073,0.151505,20.8389,114.309,0.0500279,0.0,0.0
4695,1173.5,55.1113,57.5298,171.7,100.18,101.727,0.00565903,0.152671,20.8374,114.079,-0.112026,0.0,0.0
4710,1177.25,55.5554,57.9097,171.289,100.216,102.724,0.00544936,0.152952,20.8362,113.908,-0.180755,0.0,0.0
4725,1181,55.5579,58.0789,176.648,100.236,102.424,0.00503394,0.153578,20.8382,113.728,-0.1579,0.0,0.0
4740,1184.75,55.8272,58.1719,176.12,100.285,102.594,0.00499365,0.154795,20.8374,113.518,-0.166499,0.0,0.0
4755,1188.5,55.5658,58.204,171.112,100.316,100.947,0.00514661,0.155455,20.8366,113.318,-0.0458181,0.0,0.0
4770,1192.25,55.8817,58.2624,176.586,100.354,102.808,0.00492924,0.156649,20.8362,113.108,-0.176717,0.0,0.0
4785,1196,55.7193,58.1739,176.39,100.366,101.156,0.00465579,0.157097,20.8345,112.918,-0.0573337,0.0,0.0
4800,1199.75,55.9573,58.6921,172.537,100.353,100.821,0.00440429,0.158865,20.8339,112.707,-0.0340267,0.0,0.0
4815,1203.5,55.7611,58.9695,174.377,100.355,100.144,0.00434641,0.160305,20.8302,112.467,0.0154192,0.0,0.0
4830,1207.25,56.1097,59.0244,174.146,100.331,102.543,0.00408208,0.16071,20.8287,112.267,-0.159483,0.0,0.0
4845,1211,56.3327,59.2273,171.457,100.312,102.725,0.00419316,0.162601,20.8272,112.057,-0.173788,0.0,0.0
4860,1214.75,56.3855,59.4765,177.824,100.284,102.535,0.00420861,0.163776,20.8262,111.857,-0.162314,0.0,0.0
4875,1218.5,56.7349,59.2261,175.221,100.251,102.727,0.00396851,0.164691,20.8253,111.636,-0.178432,0.0,0.0
4890,1222.25,56.6229,59.7162,174.855,100.218,103.845,0.00366542,0.165823,20.824,111.416,-0.259957,0.0,0.0
4905,1226,56.6362,59.5899,175.168,100.17,103.314,0.00365154,0.167338,20.8245,111.196,-0.225977,0.0,0.0
4920,1229.75,56.6983,59.6653,172.973,100.105,102.916,0.00353343,0.169438,20.822,110.976,-0.202493,0.0,0.0
4935,1233.5,56.8702,59.5127,173.652,100.018,102.284,0.00359587,0.170512,20.8201,110.736,-0.163781,0.0,0.0
4950,1237.25,57.0736,59.5611,173.51,99.9011,101.917,0.00354639,0.171284,20.8182,110.505,-0.146064,0.0,0.0
4965,1241,57.1788,59.8415,173.277,99.7928,102.356,0.00325304,0.173408,20.8179,110.285,-0.185427,0.0,0.0
4980,1244.75,56.9983,59.9121,174.003,99.6373,101.161,0.00309519,0.174623,20.8155,110.055,-0.11098,0.0,0.0
4995,1248.5,57.5807,60.136,173.661,99.4745,101.957,0.00313382,0.176017,20.8144,109.805,-0.180234,0.0,0.0
5010,1252.25,57.607,60.0887,172.32,99.3379,102.374,0.00309255,0.177763,20.8125,109.575,-0.220116,0.0,0.0
5025,1256,57.3495,60.7841,173.104,99.186,102.731,0.00302545,0.178732,20.8104,109.344,-0.256813,0.0,0.0
5040,1259.75,57.6487,60.8515,168.97,99.0808,100.344,0.0029515,0.178717,20.8098,109.124,-0.0926573,0.0,0.0
5055,1263.5,58.2713,61.1561,172.105,99.0267,101.264,0.00292842,0.180757,20.8085,108.844,-0.163408,0.0,0.0
5070,1267.25,58.3404,61.3524,175.18,98.9545,99.8705,0.00299655,0.183138,20.8063,108.624,-0.0673793,0.0,0.0
5085,1271,58.1447,61.325,174.083,98.8709,100.723,0.00303937,0.183755,20.8061,108.354,-0.135726,0.0,0.0
5100,1274.75,58.4269,61.1255,170.473,98.8116,101.289,0.00269255,0.185229,20.805,108.093,-0.181059,0.0,0.0
5115,1278.5,58.7188,61.6698,173.188,98.7582,100.743,0.00234108,0.186378,20.8028,107.863,-0.145517,0.0,0.0
5130,1282.25,58.1784,61.6131,169.544,98.7092,101.561,0.00241906,0.187662,20.8021,107.593,-0.208273,0.0,0.0
5145,1286,58.7431,61.9142,174.386,98.6793,101.325,0.00252286,0.189917,20.8005,107.363,-0.193444,0.0,0.0
5160,1289.75,58.8,62.0203,168.599,98.6542,100.504,0.00248915,0.191158,20.7987,107.083,-0.135814,0.0,0.0
5175,1293.5,59.046,62.2087,172.513,98.6468,99.4273,0.00263672,0.1931,20.796,106.812,-0.0576289,0.0,0.0
5190,1297.25,59.2474,62.5726,169.63,98.6197,100.768,0.00293724,0.195069,20.7913,106.532,-0.15762,0.0,0.0
5205,1301,59.4672,62.7183,175.483,98.5965,100.125,0.00269751,0.196653,20.7891,106.232,-0.112475,0.0,0.0
5220,1304.75,59.2112,62.5499,171.833,98.5793,101.219,0.00249433,0.198328,20.7873,106.012,-0.193244,0.0,0.0
5235,1308.5,59.6728,62.7979,170.037,98.5804,101.484,0.00260569,0.199412,20.7856,105.711,-0.212267,0.0,0.0
5250,1312.25,59.648,63.3128,171.407,98.5957,102.087,0.00267171,0.201287,20.7831,105.461,-0.254421,0.0,0.0
5265,1316,59.8155,63.3648,164.826,98.6165,100.167,0.00256331,0.20376,20.7818,105.161,-0.114073,0.0,0.0
5280,1319.75,60.3388,63.7816,170.686,98.633,102.377,0.00237853,0.207066,20.7794,104.871,-0.272414,0.0,0.0
5295,1323.5,59.9074,63.401,173.71,98.673,100.315,0.00195502,0.20849,20.7751,104.59,-0.120661,0.0,0.0
5310,1327.25,60.6223,64.6707,172.035,98.7253,100.836,0.00182799,0.21008,20.7736,104.26,-0.154695,0.0,0.0
5325,1331,60.4986,64.4535,173.548,98.7853,101.08,0.00223499,0.212972,20.7716,103.96,-0.167905,0.0,0.0
5340,1334.75,60.783,64.2334,170.567,98.896,101.383,0.00221161,0.215289,20.7685,103.69,-0.181595,0.0,0.0
5355,1338.5,61.3135,64.1888,170.674,98.998,100.973,0.00205963,0.21654,20.7653,103.389,-0.144462,0.0,0.0
5370,1342.25,60.9519,64.4033,170.74,99.0804,100.046,0.00207495,0.218897,20.7652,103.099,-0.0708909,0.0,0.0
5385,1346,61.1846,64.9161,168.588,99.1687,100.369,0.00243046,0.222833,20.7626,102.739,-0.0879401,0.0,0.0
5400,1349.75,61.4349,65.237,161.924,99.2398,101.47,0.00247796,0.224905,20.7579,102.418,-0.162532,0.0,0.0
5415,1353.5,61.8129,65.4705,167.957,99.2975,101.479,0.00235084,0.228619,20.7544,102.058,-0.158891,0.0,0.0
5430,1357.25,62.0524,65.6988,166.268,99.3528,101.012,0.00248604,0.228691,20.7514,101.778,-0.121129,0.0,0.0
5445,1361,62.3519,66.3076,170.763,99.3944,101.032,0.00252508,0.231384,20.7506,101.468,-0.119519,0.0,0.0
5460,1364.75,62.5786,66.2053,166.462,99.4521,103.915,0.0024301,0.234183,20.7489,101.147,-0.321018,0.0,0.0
5475,1368.5,62.577,66.9375,170.047,99.5031,101.218,0.00222776,0.237595,20.7459,100.817,-0.124956,0.0,0.0
5490,1372.25,62.5303,66.9163,167.982,99.5161,101.068,0.00230094,0.240131,20.7428,100.477,-0.11317,0.0,0.0
5505,1376,62.7952,66.9803,171.439,99.5561,101.488,0.00252101,0.241914,20.7404,100.106,-0.140554,0.0,0.0
5520,1379.75,63.0819,67.1691,171.285,99.5863,102.755,0.00262583,0.244302,20.7383,99.7662,-0.229012,0.0,0.0
5535,1383.5,64.1304,67.1385,167.343,99.6181,101.577,0.00238317,0.246718,20.7352,99.4359,-0.142385,0.0,0.0
5550,1387.25,63.4907,67.3725,162.567,99.6562,101.157,0.00246799,0.249157,20.7321,99.0656,-0.109293,0.0,0.0
5565,1391,63.7972,67.7762,164.87,99.6511,99.4906,0.002628,0.25285,20.7277,98.6953,0.0117874,0.0,0.0
5580,1394.75,64.0033,68.132,175.943,99.6644,100.455,0.00245487,0.256699,20.7226,98.3349,-0.0577823,0.0,0.0
5595,1398.5,64.0129,68.5479,166.384,99.6636,99.2732,0.00260208,0.260996,20.7174,97.9947,0.0287041,0.0,0.0
5610,1402.25,64.4127,69.0131,171.021,99.6931,98.0691,0.00267075,0.264739,20.7117,97.5943,0.120097,0.0,0.0
5625,1406,64.8283,68.954,168.69,99.7264,101.993,0.00237349,0.267622,20.7078,97.204,-0.164308,0.0,0.0
5640,1409.75,64.7795,69.4751,167.82,99.761,100.221,0.00247758,0.27019,20.7054,96.7736,-0.0336287,0.0,0.0
5655,1413.5,64.8691,69.4528,162.053,99.7743,101.153,0.00268192,0.272744,20.7026,96.3833,-0.100324,0.0,0.0
5670,1417.25,65.9081,69.737,165.787,99.7771,101.215,0.00252619,0.276826,20.6994,96.023,-0.104623,0.0,0.0
5685,1421,66.0667,69.9131,174.778,99.8002,101.162,0.00260985,0.279342,20.6939,95.5926,-0.0991128,0.0,0.0
5700,1424.75,66.068,70.6812,169.279,99.8147,101.576,0.00308458,0.28487,20.6908,95.2323,-0.12789,0.0,0.0
5715,1428.5,66.2225,70.5156,166.632,99.8379,100.142,0.0031533,0.290892,20.6812,94.8119,-0.0222163,0.0,0.0
5730,1432.25,65.9628,70.7576,164.713,99.8457,98.0037,0.00311277,0.293501,20.6772,94.4116,0.136168,0.0,0.0
5745,1436,66.4349,71.5545,165.86,99.83,98.7762,0.00308926,0.295174,20.6753,94.0012,0.077607,0.0,0.0
5760,1439.75,67.1891,71.3214,168.632,99.8383,100.653,0.00309054,0.298633,20.6717,93.5808,-0.0594646,0.0,0.0
5775,1443.5,66.9123,71.687,165.421,99.8336,99.6077,0.00319147,0.301666,20.6665,93.1405,0.016563,0.0,0.0
5790,1447.25,67.1105,72.091,165.198,99.8442,99.4093,0.00343353,0.304004,20.6621,92.7001,0.0319178,0.0,0.0
5805,1451,67.6485,72.7454,170.682,99.8379,98.0005,0.00326923,0.306577,20.6588,92.2597,0.135828,0.0,0.0
5820,1454.75,67.7826,72.8743,165.44,99.863,98.5197,0.00322177,0.310419,20.6554,91.8293,0.0990297,0.0,0.0
5835,1458.5,68.0957,73.213,164.65,99.8461,97.5362,0.00336217,0.316464,20.6511,91.3889,0.17116,0.0,0.0
5850,1462.25,68.351,73.5485,164.17,99.8536,98.1557,0.00341079,0.319349,20.6424,90.9386,0.125413,0.0,0.0
5865,1466,68.4584,73.8781,160.769,99.8457,96.6899,0.00355831,0.324473,20.6373,90.4281,0.234859,0.0,0.0
5880,1469.75,69.1768,74.2423,169.149,99.8406,97.6185,0.00367496,0.329364,20.6305,89.9777,0.16459,0.0,0.0
5895,1473.5,69.4056,74.4702,163.575,99.8524,97.7737,0.00395011,0.334603,20.6228,89.4773,0.153841,0.0,0.0
5910,1477.25,69.8008,74.9038,162.071,99.8532,97.6512,0.00419937,0.341951,20.6155,88.9969,0.163059,0.0,0.0
5925,1481,69.9794,75.7257,160.359,99.8489,97.7167,0.00456263,0.348209,20.6068,88.5365,0.157845,0.0,0.0
5940,1484.75,70.6277,75.9376,162.095,99.8575,95.5586,0.00486259,0.353116,20.6001,87.996,0.32178,0.0,0.0
5955,1488.5,71.0623,76.7564,161.437,99.8497,96.768,0.00505329,0.361665,20.5923,87.4856,0.229243,0.0,0.0
5970,1492.25,71.5737,77.3236,162.601,99.8297,96.0367,0.00494977,0.366443,20.5799,87.0052,0.283249,0.0,0.0
5985,1496,71.4443,77.4194,162.336,99.834,94.3746,0.00533927,0.371444,20.5731,86.5247,0.411226,0.0,0.0
6000,1499.75,71.8485,77.5453,167.403,99.8281,95.7433,0.00574457,0.377332,20.5654,86.0143,0.305506,0.0,0.0
6015,1503.5,72.5926,78.3472,163.443,99.8128,94.2607,0.00574308,0.379042,20.5565,85.5739,0.418509,0.0,0.0
6030,1507.25,72.7264,77.9794,162.913,99.7971,95.6188,0.0058811,0.379689,20.552,85.1536,0.312752,0.0,0.0
6045,1511,72.8836,78.3634,169.335,99.7751,97.2766,0.00578071,0.376943,20.5494,84.7132,0.185445,0.0,0.0
6060,1514.75,72.4429,77.9351,164.133,99.7327,96.4757,0.00560793,0.366122,20.5521,84.3629,0.242795,0.0,0.0
6075,1518.5,72.3541,77.2715,162.616,99.6927,96.7089,0.00556049,0.353732,20.5634,84.0626,0.222204,0.0,0.0
6090,1522.25,71.7218,76.523,168.503,99.6687,98.6685,0.00534195,0.33129,20.5766,83.8224,0.0737557,0.0,0.0
6105,1526,71.2556,74.9156,166.608,99.6264,96.8144,0.00454894,0.299739,20.602,83.5922,0.209362,0.0,0.0
6120,1529.75,70.2,73.9342,166.794,99.6161,98.9577,0.00386174,0.269118,20.6412,83.4121,0.048498,0.0,0.0
6135,1533.5,69.6495,72.5206,168.744,99.5639,96.6445,0.00358112,0.238784,20.6763,83.2419,0.217625,0.0,0.0
6150,1537.25,68.3276,72.0584,172.265,99.5369,97.4634,0.00347679,0.215544,20.7108,83.0918,0.153936,0.0,0.0
6165,1541,68.0687,70.6537,172.142,99.5322,97.9288,0.00377176,0.200409,20.7374,82.9617,0.118758,0.0,0.0
6180,1544.75,67.2256,70.3504,171.283,99.4839,98.8901,0.0047261,0.192915,20.7521,82.8015,0.0437753,0.0,0.0
6195,1548.5,66.2838,68.6644,173.145,99.4721,99.9317,0.00545845,0.182978,20.7594,82.6914,-0.0337057,0.0,0.0
6210,1552.25,65.7663,67.509,170.797,99.4352,98.5176,0.00600816,0.173571,20.7709,82.5213,0.0677945,0.0,0.0
6225,1556,64.7661,66.807,173.781,99.3999,99.385,0.0064639,0.162686,20.7834,82.3712,0.00109305,0.0,0.0
6240,1559.75,64.1245,65.9235,173.058,99.3599,98.3446,0.00668749,0.153473,20.7987,82.3311,0.0751079,0.0,0.0
6255,1563.5,63.4559,64.9721,169.679,99.3202,101.923,0.00684593,0.149075,20.8112,82.221,-0.189159,0.0,0.0
6270,1567.25,63.0601,64.0944,173.471,99.299,101.287,0.00693989,0.143539,20.8161,82.131,-0.144923,0.0,0.0
6285,1571,62.6341,63.7107,169.851,99.2716,100.285,0.00722618,0.141354,20.8247,81.9708,-0.0742866,0.0,0.0
6300,1574.75,62.0769,62.9447,177.364,99.2437,99.6309,0.00705915,0.137641,20.8304,81.9008,-0.0284759,0.0,0.0
6315,1578.5,61.784,62.4426,173.785,99.2084,100.178,0.00670921,0.136092,20.8349,81.7907,-0.0710894,0.0,0.0
6330,1582.25,61.1113,61.92,176.873,99.1848,99.708,0.00687679,0.133418,20.8378,81.7106,-0.0384665,0.0,0.0
6345,1586,60.7276,61.1906,171.702,99.1632,99.7354,0.00698484,0.131066,20.8426,81.6005,-0.0420695,0.0,0.0
6360,1589.75,60.5879,60.9625,174.908,99.2033,100.541,0.00709675,0.129178,20.8456,81.5404,-0.0979152,0.0,0.0
6375,1593.5,59.848,60.4763,174.784,99.2939,100.239,0.00733968,0.127678,20.8487,81.4704,-0.0692517,0.0,0.0
6390,1597.25,59.1859,60.146,176.473,99.3858,100.467,0.00715306,0.126348,20.8504,81.3703,-0.0791008,0.0,0.0
6405,1601,58.8053,59.5482,173.423,99.4961,101.648,0.00694202,0.123444,20.8515,81.2702,-0.156438,0.0,0.0
6420,1604.75,58.8218,59.3712,177.119,99.5902,99.5644,0.00694227,0.122746,20.8548,81.1801,0.00189574,0.0,0.0
6435,1608.5,58.7071,59.0539,178.595,99.7001,101.244,0.00707633,0.121905,20.8562,81.08,-0.112397,0.0,0.0
6450,1612.25,58.2492,58.7794,172.041,99.77,100.748,0.00685029,0.121445,20.858,81,-0.0713644,0.0,0.0
6465,1616,57.6864,58.4286,172.701,99.843,100.756,0.00718856,0.119466,20.8591,80.9299,-0.0665519,0.0,0.0
6480,1619.75,57.3137,58.1989,184.592,99.8689,100.344,0.00751599,0.116886,20.8611,80.8398,-0.0347252,0.0,0.0
6495,1623.5,56.8217,57.6232,182.152,99.9007,100.373,0.00728523,0.116396,20.8631,80.7698,-0.0344738,0.0,0.0
6510,1627.25,56.701,57.6244,178.089,99.9085,100.052,0.00721224,0.115314,20.8653,80.6997,-0.0104908,0.0,0.0
6525,1631,56.4313,57.3549,174.093,99.9289,100.784,0.00725459,0.113886,20.8659,80.6297,-0.0623275,0.0,0.0
6540,1634.75,56.415,57.0138,176.304,99.9556,101.518,0.00740524,0.115387,20.8678,80.5496,-0.113395,0.0,0.0
6555,1638.5,55.9551,56.5482,177.831,99.9325,100.923,0.00724089,0.11537,20.8664,80.4795,-0.072092,0.0,0.0
6570,1642.25,55.5077,56.2846,177.236,99.9501,101.929,0.00730452,0.114579,20.8671,80.3895,-0.143382,0.0,0.0
6585,1646,55.4394,56.0161,177.295,99.9203,100.069,0.00713343,0.113201,20.869,80.3394,-0.0108627,0.0,0.0
6600,1649.75,55.3902,56.0046,177.27,99.9352,101.318,0.00754947,0.110317,20.8709,80.2593,-0.100508,0.0,0.0
6615,1653.5,55.3387,55.8508,179.788,99.9305,100.664,0.00772367,0.108125,20.8759,80.1993,-0.0534791,0.0,0.0
6630,1657.25,54.9879,55.3284,174.9,99.936,100.077,0.00792259,0.107557,20.8775,80.0892,-0.0103306,0.0,0.0
6645,1661,54.5851,54.6529,177.235,99.925,99.8483,0.00782406,0.10759,20.8784,80.0391,0.00561605,0.0,0.0
6660,1664.75,53.5954,54.3388,176.432,99.9078,100.442,0.00823069,0.104107,20.8793,79.9491,-0.0390291,0.0,0.0
6675,1668.5,53.4431,53.6723,173.517,99.8917,100.542,0.00902404,0.10052,20.8851,79.899,-0.0474248,0.0,0.0
6690,1672.25,53.7366,53.8979,174.504,99.8583,100.792,0.00966989,0.0988535,20.8901,79.819,-0.0680347,0.0,0.0
6705,1676,52.9209,53.4867,175.908,99.8155,98.9461,0.00954939,0.0984306,20.8915,79.7989,0.0639761,0.0,0.0
6720,1679.75,52.4874,53.1168,174.961,99.748,98.9355,0.0097261,0.0979798,20.8928,79.6888,0.0598098,0.0,0.0
6735,1683.5,52.699,52.9148,176.146,99.6864,100.045,0.00969069,0.0984255,20.8927,79.6488,-0.0262268,0.0,0.0
6750,1687.25,52.5861,52.7914,179.243,99.5938,99.518,0.00920709,0.0983477,20.8922,79.4887,0.00556553,0.0,0.0
6765,1691,52.7357,52.6406,178.167,99.5027,98.9271,0.00902614,0.0972702,20.8927,79.4787,0.0424286,0.0,0.0
6780,1694.75,51.8944,52.6238,178.201,99.5789,99.7143,0.00917266,0.0969982,20.8931,79.4486,-0.00993777,0.0,0.0
6795,1698.5,52.121,52.796,176.319,99.6385,100.588,0.00899943,0.0979352,20.8929,79.4086,-0.0693555,0.0,0.0
6810,1702.25,51.8414,52.2598,180.827,99.6891,99.1877,0.00877381,0.0990283,20.8916,79.3485,0.0368746,0.0,0.0
6825,1706,51.9893,52.4212,178.495,99.7633,99.2753,0.00899396,0.0982467,20.8908,79.2585,0.0358597,0.0,0.0
6840,1709.75,51.7276,52.149,178.406,99.8226,100.818,0.008957,0.0974877,20.8918,79.1984,-0.0725643,0.0,0.0
6855,1713.5,51.4957,51.8327,177.647,99.8771,100.145,0.00888337,0.0978091,20.8944,79.1384,-0.0195735,0.0,0.0
6870,1717.25,51.6583,51.9348,180.179,99.925,99.8029,0.00905478,0.0975808,20.895,79.0783,0.00894008,0.0,0.0
6885,1721,51.365,51.9105,176.912,99.9564,100.37,0.00899622,0.0969569,20.8951,79.0283,-0.0301651,0.0,0.0
6900,1724.75,51.1885,51.6117,175.98,100,101.016,0.00864497,0.0970697,20.8953,78.9582,-0.0739564,0.0,0.0
6915,1728.5,51.2806,51.7083,178.559,100.034,101.282,0.0083866,0.096739,20.8968,78.8982,-0.0906845,0.0,0.0
6930,1732.25,51.2458,52.1359,177.018,100.04,100.751,0.00827624,0.0971066,20.8972,78.8681,-0.0517253,0.0,0.0
6945,1736,51.2467,52.2605,177.024,100.071,99.5898,0.0085835,0.0973681,20.8966,78.7881,0.0352803,0.0,0.0
6960,1739.75,51.3594,52.352,175.119,100.089,100.07,0.00874586,0.0977469,20.8949,78.758,0.00137108,0.0,0.0
6975,1743.5,51.2159,51.7781,180.431,100.098,100.653,0.00879805,0.0991453,20.8945,78.688,-0.0404889,0.0,0.0
6990,1747.25,51.2576,51.8651,181.543,100.092,101.146,0.00865497,0.0997888,20.8924,78.6479,-0.0766048,0.0,0.0
7005,1751,50.8323,51.6697,178.649,100.08,98.4923,0.00838854,0.0991142,20.8924,78.5779,0.116942,0.0,0.0
7020,1754.75,50.9564,51.7364,178.275,100.073,99.4304,0.00842741,0.098234,20.8933,78.5078,0.0471045,0.0,0.0
7035,1758.5,50.7438,51.669,182.016,100.081,100.015,0.00849374,0.0974438,20.8947,78.4878,0.00480854,0.0,0.0
7050,1762.25,50.9569,51.7188,177.789,100.088,99.6003,0.00823326,0.097385,20.895,78.4077,0.0357097,0.0,0.0
7065,1766,51.0684,51.3466,180.584,100.088,100.957,0.00826804,0.0980077,20.8951,78.3076,-0.0632226,0.0,0.0
7080,1769.75,50.6185,51.6601,182.997,100.089,101.47,0.00819219,0.0976387,20.8951,78.2676,-0.100247,0.0,0.0
7095,1773.5,50.6652,51.2141,174.771,100.082,101.105,0.00828451,0.0972566,20.8953,78.2376,-0.0743743,0.0,0.0
7108,1776.75,50.5715,51.4212,179.108,100.094,99.2964,0.00829094,0.0977679,20.8969,78.2076,0.0584877,0.0,0.0