File: 01_Data/Particleboard/Cone/Particleboard_HRRPUA_50.csv
Time after Ignition,Particleboard_R1,Particleboard_R2,Particleboard_R3,Mean,Std. Dev.
0.0,-1.4,-0.6,-0.5,-0.8,0.5
1.0,-1.4,-0.7,-0.5,-0.9,0.5
2.0,-1.4,-0.7,-0.3,-0.8,0.6
3.0,-1.3,-0.8,-0.3,-0.8,0.5
4.0,-1.2,-0.8,-0.2,-0.7,0.5
5.0,-1.2,-0.8,-0.2,-0.7,0.5
6.0,-1.2,-0.8,-0.1,-0.7,0.5
7.0,-0.8,-0.7,0.1,-0.5,0.5
8.0,-0.6,-0.4,0.4,-0.2,0.5
9.0,-0.2,-0.1,0.7,0.1,0.5
10.0,0.3,0.6,1.2,0.7,0.5
11.0,2.5,2.7,2.6,2.6,0.1
12.0,9.4,8.7,7.2,8.4,1.1
13.0,20.8,19.2,16.5,18.8,2.2
14.0,39.2,28.5,28.1,31.9,6.3
15.0,63.8,36.8,39.9,46.8,14.8
16.0,85.9,47.8,50.9,61.5,21.1
17.0,106.4,61.5,64.3,77.4,25.1
18.0,120.4,74.6,76.8,90.6,25.8
19.0,138.2,92.5,94.4,108.4,25.9
20.0,152.4,115.8,108.6,125.6,23.5
21.0,171.0,129.3,122.0,140.8,26.4
22.0,185.7,143.8,144.3,157.9,24.1
23.0,195.5,160.1,155.4,170.3,21.9
24.0,205.0,174.5,171.6,183.7,18.5
25.0,214.3,182.1,186.7,194.4,17.5
26.0,227.6,191.5,193.8,204.3,20.2
27.0,232.0,205.6,208.7,215.4,14.4
28.0,237.3,218.2,220.1,225.2,10.5
29.0,245.7,233.9,232.8,237.4,7.2
30.0,259.1,242.1,234.7,245.3,12.5
31.0,274.0,248.8,243.4,255.4,16.3
32.0,280.3,260.0,254.5,264.9,13.6
33.0,277.8,270.4,260.3,269.5,8.8
34.0,291.2,274.2,260.4,275.3,15.4
35.0,297.5,283.8,269.2,283.5,14.2
36.0,299.1,294.4,266.9,286.8,17.4
37.0,303.9,296.2,267.6,289.2,19.1
38.0,302.9,299.6,278.5,293.6,13.2
39.0,300.5,304.2,280.6,295.1,12.7
40.0,306.5,307.8,278.7,297.6,16.4
41.0,308.2,303.8,284.4,298.8,12.7
42.0,306.9,313.8,296.3,305.6,8.8
43.0,310.0,309.3,304.9,308.1,2.8
44.0,308.2,305.6,296.8,303.5,6.0
45.0,316.0,305.9,302.0,308.0,7.2
46.0,314.2,305.7,306.4,308.8,4.7
47.0,313.7,306.1,303.1,307.6,5.5
48.0,306.3,311.3,305.8,307.8,3.0
49.0,308.5,306.3,305.3,306.7,1.6
50.0,307.7,307.2,304.7,306.5,1.6
51.0,303.7,299.2,310.4,304.4,5.7
52.0,307.0,298.8,299.8,301.9,4.5
53.0,303.9,298.7,310.1,304.2,5.7
54.0,299.7,291.1,303.3,298.0,6.2
55.0,302.7,294.4,302.6,299.9,4.8
56.0,293.0,298.5,299.9,297.2,3.7
57.0,300.4,299.3,300.8,300.2,0.8
58.0,292.7,299.7,295.0,295.8,3.6
59.0,292.2,306.5,297.4,298.7,7.2
60.0,286.5,299.8,296.8,294.4,7.0
61.0,287.4,293.0,297.1,292.5,4.9
62.0,285.5,291.5,285.7,287.6,3.4
63.0,284.1,290.7,287.0,287.3,3.3
64.0,279.5,289.9,282.3,283.9,5.4
65.0,279.7,289.2,281.1,283.4,5.1
66.0,271.7,291.1,283.5,282.1,9.8
67.0,273.2,281.9,282.5,279.2,5.2
68.0,266.4,282.9,278.8,276.1,8.6
69.0,261.1,278.5,271.4,270.3,8.7
70.0,266.2,277.5,272.2,272.0,5.7
71.0,259.2,272.5,270.1,267.3,7.1
72.0,256.7,264.0,266.7,262.5,5.2
73.0,255.1,266.8,264.8,262.2,6.3
74.0,247.8,258.2,259.2,255.1,6.3
75.0,244.0,258.8,270.7,257.8,13.4
76.0,242.9,252.2,258.2,251.1,7.7
77.0,241.6,248.9,258.1,249.5,8.3
78.0,238.3,245.6,256.3,246.7,9.0
79.0,235.8,241.6,256.6,244.7,10.7
80.0,235.6,245.8,246.9,242.8,6.2
81.0,231.3,238.3,249.9,239.8,9.4
82.0,232.1,239.8,244.7,238.9,6.4
83.0,224.4,233.6,241.9,233.3,8.8
84.0,227.7,230.6,242.8,233.7,8.0
85.0,224.3,229.0,236.3,229.9,6.1
86.0,219.2,229.9,233.6,227.6,7.5
87.0,222.1,222.3,231.2,225.2,5.2
88.0,216.0,222.1,230.7,222.9,7.4
89.0,216.1,223.3,225.8,221.7,5.0
90.0,208.2,217.7,223.4,216.4,7.7
91.0,211.3,214.7,220.5,215.5,4.7
92.0,205.6,210.5,220.3,212.1,7.5
93.0,206.7,209.4,216.1,210.7,4.8
94.0,205.8,206.0,215.5,209.1,5.5
95.0,204.4,206.6,212.1,207.7,4.0
96.0,204.2,202.9,211.9,206.3,4.8
97.0,204.3,198.0,205.7,202.7,4.1
98.0,199.5,198.1,204.3,200.6,3.3
99.0,199.9,194.6,204.4,199.6,4.9
100.0,195.5,191.0,198.7,195.1,3.9
101.0,195.1,191.6,196.9,194.6,2.7
102.0,191.0,190.1,195.1,192.1,2.7
103.0,188.6,186.8,194.8,190.0,4.2
104.0,185.6,186.2,191.3,187.7,3.1
105.0,188.1,184.5,188.6,187.1,2.3
106.0,183.2,180.7,187.7,183.9,3.6
107.0,184.9,180.3,184.5,183.2,2.5
108.0,182.6,176.8,185.8,181.7,4.5
109.0,181.9,176.5,182.1,180.2,3.2
110.0,179.1,174.9,178.2,177.4,2.2
111.0,178.1,173.3,175.1,175.5,2.4
112.0,176.3,168.5,172.8,172.5,3.9
113.0,176.8,170.5,173.9,173.7,3.1
114.0,172.6,170.2,173.8,172.2,1.9
115.0,176.3,168.1,170.9,171.8,4.2
116.0,172.0,168.0,167.5,169.1,2.5
117.0,171.3,164.4,162.7,166.2,4.6
118.0,172.0,162.3,165.1,166.5,5.0
119.0,169.5,163.1,161.7,164.8,4.1
120.0,170.7,162.6,162.0,165.1,4.9
121.0,169.4,160.8,160.5,163.6,5.0
122.0,167.4,160.9,161.0,163.1,3.7
123.0,166.6,160.9,160.3,162.6,3.5
124.0,164.7,159.8,159.9,161.5,2.8
125.0,163.2,159.7,159.6,160.8,2.0
126.0,162.0,157.6,157.3,159.0,2.6
127.0,160.3,155.7,154.6,156.9,3.0
128.0,159.0,156.8,153.8,156.5,2.6
129.0,159.8,154.6,152.7,155.7,3.7
130.0,156.7,156.5,150.7,154.6,3.4
131.0,155.0,154.4,151.3,153.6,2.0
132.0,155.6,153.3,149.2,152.7,3.2
133.0,152.7,153.4,150.4,152.2,1.6
134.0,153.6,150.3,148.1,150.7,2.8
135.0,152.0,152.2,148.4,150.9,2.1
136.0,154.3,148.6,145.8,149.5,4.3
137.0,151.4,150.8,146.0,149.4,2.9
138.0,153.1,151.8,148.1,151.0,2.6
139.0,153.1,150.7,143.6,149.1,4.9
140.0,151.6,148.7,141.6,147.3,5.1
141.0,150.9,147.1,140.5,146.2,5.3
142.0,150.9,145.0,140.6,145.5,5.1
143.0,149.6,146.2,141.3,145.7,4.2
144.0,151.1,146.8,138.6,145.5,6.3
145.0,148.2,147.6,139.1,145.0,5.1
146.0,148.5,144.6,138.2,143.8,5.2
147.0,148.8,146.8,139.1,144.9,5.1
148.0,146.2,143.6,137.0,142.3,4.8
149.0,147.2,145.2,138.7,143.7,4.4
150.0,146.2,143.9,134.1,141.4,6.4
151.0,147.0,143.3,134.9,141.7,6.2
152.0,141.6,142.2,137.0,140.3,2.8
153.0,145.5,141.9,134.4,140.6,5.7
154.0,140.7,141.9,134.3,139.0,4.1
155.0,143.6,138.0,134.1,138.5,4.8
156.0,141.3,137.9,134.8,138.0,3.3
157.0,144.0,136.4,135.7,138.7,4.6
158.0,139.2,139.3,134.6,137.7,2.7
159.0,138.4,137.5,136.8,137.6,0.8
160.0,139.7,136.9,134.0,136.9,2.9
161.0,137.8,135.3,133.5,135.5,2.2
162.0,136.9,136.2,132.7,135.3,2.2
163.0,137.0,134.7,131.8,134.5,2.6
164.0,138.4,137.0,130.9,135.4,4.0
165.0,137.8,136.6,131.3,135.3,3.5
166.0,136.7,135.1,129.4,133.7,3.9
167.0,136.5,135.5,129.7,133.9,3.7
168.0,135.0,133.4,129.3,132.5,3.0
169.0,139.2,134.2,129.0,134.1,5.1
170.0,135.1,133.6,131.1,133.3,2.0
171.0,135.5,133.6,127.1,132.1,4.4
172.0,134.3,132.9,129.7,132.3,2.4
173.0,131.6,131.3,129.8,130.9,1.0
174.0,133.3,130.5,129.9,131.3,1.8
175.0,130.7,131.0,130.4,130.7,0.3
176.0,132.9,129.8,128.6,130.4,2.3
177.0,131.0,129.4,129.4,129.9,0.9
178.0,130.4,132.3,126.9,129.9,2.7
179.0,132.0,128.7,125.8,128.8,3.1
180.0,134.4,125.1,124.8,128.1,5.5
181.0,133.0,128.2,127.6,129.6,3.0
182.0,131.9,126.6,126.6,128.4,3.1
183.0,132.1,127.6,126.3,128.7,3.0
184.0,132.5,127.7,123.9,128.0,4.3
185.0,130.9,129.4,122.4,127.6,4.5
186.0,129.4,126.9,123.0,126.5,3.2
187.0,129.0,127.6,124.3,127.0,2.4
188.0,129.0,125.5,123.9,126.1,2.6
189.0,128.8,123.2,122.1,124.7,3.6
190.0,128.3,126.1,123.7,126.0,2.3
191.0,127.4,127.1,120.8,125.1,3.7
192.0,127.3,125.7,123.4,125.5,1.9
193.0,128.3,123.9,121.8,124.7,3.3
194.0,129.6,124.4,122.4,125.5,3.7
195.0,128.6,125.0,122.6,125.4,3.0
196.0,127.7,124.8,122.8,125.1,2.4
197.0,126.9,124.4,124.0,125.1,1.6
198.0,127.7,123.4,123.9,125.0,2.4
199.0,125.6,124.3,125.0,125.0,0.6
200.0,125.8,123.7,122.5,124.0,1.7
201.0,126.8,125.6,122.6,125.0,2.2
202.0,125.6,122.4,120.7,122.9,2.5
203.0,125.4,122.6,122.0,123.3,1.8
204.0,124.4,120.5,120.9,121.9,2.1
205.0,124.2,122.3,121.1,122.5,1.5
206.0,125.0,121.1,121.0,122.4,2.3
207.0,124.5,122.0,120.1,122.2,2.2
208.0,123.7,120.7,118.8,121.1,2.4
209.0,124.4,121.1,117.9,121.1,3.3
210.0,123.0,118.8,119.5,120.4,2.2
211.0,123.8,121.5,118.0,121.1,3.0
212.0,123.3,121.0,117.0,120.4,3.2
213.0,122.3,119.8,118.4,120.2,1.9
214.0,123.0,120.4,116.1,119.8,3.5
215.0,123.4,118.9,113.8,118.7,4.8
216.0,124.7,120.1,115.9,120.2,4.4
217.0,122.0,117.3,114.2,117.8,3.9
218.0,122.1,117.4,116.2,118.5,3.1
219.0,122.3,118.9,113.7,118.3,4.3
220.0,122.6,118.1,113.5,118.0,4.5
221.0,120.5,115.8,114.2,116.8,3.3
222.0,121.3,116.0,115.0,117.4,3.4
223.0,120.8,117.2,113.8,117.3,3.5
224.0,118.2,115.0,114.3,115.8,2.1
225.0,118.8,116.1,112.9,115.9,3.0
226.0,120.3,115.6,113.6,116.5,3.4
227.0,120.2,116.2,115.5,117.3,2.6
228.0,120.1,118.1,114.3,117.5,3.0
229.0,120.4,117.6,115.8,117.9,2.3
230.0,117.3,116.4,117.0,116.9,0.4
231.0,119.4,117.8,114.3,117.1,2.6
232.0,118.3,116.9,114.1,116.5,2.2
233.0,119.1,118.4,114.6,117.3,2.4
234.0,118.6,114.7,113.7,115.7,2.6
235.0,119.0,115.7,114.8,116.5,2.2
236.0,118.6,115.9,113.5,116.0,2.6
237.0,119.1,112.1,114.3,115.2,3.6
238.0,119.3,116.4,113.6,116.4,2.9
239.0,120.2,112.8,113.7,115.6,4.0
240.0,119.5,113.1,112.6,115.1,3.8
241.0,121.5,113.9,112.9,116.1,4.7
242.0,121.0,110.5,113.7,115.1,5.4
243.0,120.0,112.0,114.0,115.3,4.2
244.0,121.1,112.4,114.9,116.1,4.5
245.0,119.1,111.8,115.5,115.5,3.7
246.0,118.1,115.5,113.9,115.8,2.1
247.0,119.4,113.7,113.7,115.6,3.3
248.0,119.8,113.5,114.6,115.9,3.3
249.0,117.9,113.6,114.9,115.4,2.2
250.0,116.6,113.7,114.2,114.9,1.5
251.0,117.6,112.5,114.5,114.9,2.6
252.0,117.2,113.8,114.5,115.2,1.8
253.0,115.9,113.2,114.8,114.6,1.3
254.0,115.7,113.4,115.2,114.8,1.2
255.0,116.5,112.5,112.7,113.9,2.3
256.0,115.6,111.9,111.7,113.1,2.2
257.0,114.6,109.6,111.1,111.8,2.6
258.0,114.5,111.7,112.6,112.9,1.4
259.0,114.7,112.9,111.4,113.0,1.7
260.0,113.3,110.0,112.8,112.1,1.8
261.0,113.9,109.4,110.5,111.3,2.3
262.0,111.5,108.1,112.8,110.8,2.4
263.0,111.8,111.5,111.2,111.5,0.3
264.0,113.5,107.9,111.8,111.1,2.9
265.0,112.8,110.5,111.2,111.5,1.1
266.0,112.5,110.1,112.1,111.5,1.3
267.0,113.7,108.5,110.4,110.9,2.6
268.0,114.3,108.4,109.8,110.8,3.1
269.0,112.3,109.1,110.4,110.6,1.6
270.0,111.5,107.3,106.5,108.5,2.7
271.0,113.2,109.1,110.0,110.8,2.2
272.0,114.3,109.0,109.3,110.8,2.9
273.0,110.8,109.5,108.6,109.6,1.1
274.0,111.2,108.6,108.4,109.4,1.6
275.0,111.0,108.7,109.3,109.7,1.2
276.0,111.7,106.6,107.6,108.6,2.7
277.0,109.3,106.7,108.3,108.1,1.3
278.0,111.5,108.5,108.7,109.6,1.7
279.0,107.3,107.0,107.2,107.1,0.2
280.0,108.9,106.1,106.9,107.3,1.5
281.0,109.9,104.8,107.2,107.3,2.6
282.0,109.7,106.6,107.0,107.7,1.7
283.0,109.6,104.4,106.1,106.7,2.6
284.0,108.8,104.6,107.0,106.8,2.1
285.0,106.8,104.6,106.1,105.8,1.2
286.0,108.0,104.4,106.8,106.4,1.8
287.0,106.9,102.5,108.1,105.9,2.9
288.0,106.6,102.5,106.4,105.2,2.3
289.0,108.0,103.6,107.6,106.4,2.4
290.0,107.8,102.9,107.2,106.0,2.7
291.0,106.9,102.9,108.0,105.9,2.6
292.0,103.9,103.5,107.0,104.8,1.9
293.0,104.4,103.9,104.8,104.4,0.5
294.0,105.6,102.8,105.3,104.6,1.6
295.0,104.3,102.2,107.0,104.5,2.4
296.0,105.5,103.8,107.0,105.4,1.6
297.0,104.0,102.4,106.1,104.2,1.9
298.0,104.6,101.9,106.3,104.3,2.2
299.0,105.4,101.4,104.8,103.9,2.2
300.0,103.7,100.4,105.2,103.1,2.4
301.0,104.0,102.8,105.3,104.0,1.2
302.0,103.0,100.6,104.0,102.5,1.7
303.0,104.4,101.0,104.5,103.3,2.0
304.0,104.5,100.7,103.7,103.0,2.0
305.0,104.3,101.0,104.5,103.3,1.9
306.0,103.6,100.1,104.4,102.7,2.3
307.0,103.8,98.8,105.6,102.7,3.5
308.0,103.7,98.7,104.1,102.2,3.0
309.0,103.3,100.7,105.0,103.0,2.1
310.0,104.3,100.3,106.6,103.8,3.2
311.0,103.1,98.5,107.3,103.0,4.4
312.0,102.5,98.4,105.1,102.0,3.3
313.0,103.2,99.3,106.2,102.9,3.5
314.0,101.2,99.1,105.4,101.9,3.2
315.0,99.9,99.5,106.9,102.1,4.2
316.0,101.8,98.6,106.4,102.3,3.9
317.0,103.7,96.5,106.0,102.0,5.0
318.0,100.8,95.7,104.3,100.3,4.3
319.0,101.1,96.1,104.0,100.4,4.0
320.0,101.1,93.8,103.2,99.3,4.9
321.0,99.9,94.2,101.0,98.4,3.6
322.0,101.2,94.8,102.9,99.6,4.3
323.0,99.5,95.5,102.2,99.1,3.4
324.0,100.7,95.1,101.1,98.9,3.3
325.0,100.2,94.5,102.1,98.9,4.0
326.0,99.3,95.1,101.3,98.6,3.2
327.0,98.3,93.3,99.1,96.9,3.2
328.0,98.9,93.8,100.2,97.6,3.4
329.0,100.0,93.1,99.8,97.6,3.9
330.0,98.0,94.4,99.9,97.5,2.8
331.0,97.6,94.7,101.6,98.0,3.4
332.0,97.1,93.2,99.8,96.7,3.3
333.0,97.2,92.4,98.5,96.0,3.2
334.0,97.9,93.4,99.3,96.9,3.1
335.0,98.0,92.2,98.1,96.1,3.4
336.0,97.1,93.2,98.2,96.2,2.6
337.0,97.4,92.3,98.3,96.0,3.2
338.0,97.7,91.9,98.4,96.0,3.6
339.0,97.0,91.6,98.4,95.7,3.6
340.0,94.8,92.9,97.8,95.2,2.5
341.0,95.1,92.8,97.5,95.1,2.3
342.0,95.1,93.0,99.4,95.8,3.3
343.0,95.2,90.6,96.5,94.1,3.1
344.0,94.7,91.5,97.2,94.5,2.8
345.0,95.1,89.8,97.6,94.2,4.0
346.0,94.1,89.5,97.0,93.5,3.8
347.0,94.5,89.0,95.7,93.1,3.5
348.0,94.6,90.1,95.1,93.3,2.8
349.0,94.4,88.9,95.2,92.8,3.4
350.0,95.5,89.7,96.0,93.7,3.5
351.0,93.1,91.2,95.0,93.1,1.9
352.0,92.7,89.8,94.5,92.3,2.3
353.0,93.9,89.8,94.2,92.7,2.4
354.0,94.0,91.0,93.0,92.7,1.5
355.0,94.5,89.2,93.2,92.3,2.8
356.0,91.3,87.9,94.2,91.1,3.2
357.0,90.7,87.0,92.5,90.1,2.8
358.0,92.2,88.8,93.5,91.5,2.5
359.0,92.1,88.3,92.7,91.0,2.4
360.0,91.4,86.8,92.4,90.2,3.0
361.0,90.9,87.9,91.7,90.2,2.0
362.0,89.6,86.6,93.0,89.7,3.2
363.0,89.5,87.6,91.0,89.4,1.7
364.0,89.2,85.3,91.1,88.5,2.9
365.0,90.7,85.2,90.2,88.7,3.0
366.0,88.6,85.2,91.1,88.3,3.0
367.0,89.6,85.8,91.5,89.0,2.9
368.0,90.8,84.2,91.3,88.8,4.0
369.0,89.2,85.3,88.1,87.5,2.0
370.0,89.4,86.1,90.6,88.7,2.3
371.0,88.5,85.5,89.7,87.9,2.2
372.0,89.8,85.5,89.9,88.4,2.5
373.0,88.6,84.9,90.0,87.8,2.7
374.0,89.1,84.7,89.8,87.9,2.8
375.0,87.6,85.3,90.3,87.8,2.5
376.0,88.6,85.8,88.8,87.7,1.7
377.0,87.3,85.6,89.6,87.5,2.0
378.0,88.7,87.0,89.3,88.3,1.2
379.0,88.8,85.7,89.4,88.0,2.0
380.0,86.7,85.1,88.5,86.8,1.7
381.0,88.6,86.2,88.7,87.8,1.4
382.0,87.9,85.3,87.6,86.9,1.4
383.0,86.4,84.6,87.7,86.3,1.5
384.0,86.8,84.7,88.2,86.6,1.7
385.0,87.0,83.1,86.7,85.6,2.2
386.0,87.0,83.8,86.8,85.9,1.8
387.0,86.1,84.5,85.9,85.5,0.9
388.0,86.0,84.7,87.7,86.1,1.5
389.0,87.5,84.0,86.0,85.8,1.8
390.0,85.8,83.2,85.7,84.9,1.5
391.0,86.7,82.5,85.9,85.0,2.2
392.0,86.5,82.6,85.6,84.9,2.0
393.0,85.9,83.0,84.9,84.6,1.4
394.0,86.3,83.1,84.9,84.7,1.6
395.0,85.6,83.0,83.6,84.1,1.4
396.0,86.1,79.6,85.6,83.8,3.6
397.0,84.9,82.0,84.4,83.8,1.5
398.0,84.1,81.4,83.8,83.1,1.5
399.0,84.6,81.1,84.3,83.3,1.9
400.0,83.8,80.7,84.2,82.9,1.9
401.0,83.5,80.2,85.7,83.1,2.8
402.0,83.8,80.0,85.0,83.0,2.6
403.0,84.8,79.9,84.6,83.1,2.8
404.0,83.5,80.4,83.2,82.4,1.7
405.0,84.1,81.2,84.0,83.1,1.6
406.0,83.4,78.9,83.2,81.8,2.5
407.0,83.1,80.0,82.2,81.8,1.6
408.0,83.7,78.5,83.1,81.7,2.9
409.0,84.3,79.0,82.9,82.1,2.7
410.0,83.2,78.7,81.4,81.1,2.3
411.0,85.1,79.0,80.7,81.6,3.1
412.0,85.0,77.9,81.0,81.3,3.6
413.0,83.5,78.6,80.5,80.9,2.4
414.0,84.9,78.3,80.1,81.1,3.4
415.0,84.5,79.1,81.2,81.6,2.7
416.0,84.4,80.3,79.3,81.3,2.7
417.0,84.1,78.2,80.3,80.9,3.0
418.0,83.0,79.9,79.6,80.9,1.9
419.0,82.6,79.9,80.0,80.8,1.5
420.0,84.9,79.6,80.3,81.6,2.9
421.0,83.5,79.5,80.6,81.2,2.1
422.0,83.1,80.1,79.6,80.9,1.9
423.0,82.6,78.8,79.8,80.4,2.0
424.0,83.7,80.3,80.2,81.4,2.0
425.0,85.0,78.6,79.8,81.2,3.4
426.0,83.3,80.0,81.5,81.6,1.6
427.0,84.0,78.4,79.7,80.7,2.9
428.0,84.2,78.8,79.0,80.7,3.1
429.0,85.2,79.2,79.3,81.2,3.4
430.0,84.4,79.2,79.1,80.9,3.0
431.0,85.2,78.7,79.2,81.0,3.7
432.0,84.9,78.7,79.1,80.9,3.4
433.0,85.1,79.0,78.5,80.9,3.7
434.0,84.9,78.2,79.1,80.7,3.6
435.0,85.5,77.2,79.9,80.9,4.2
436.0,84.4,77.5,78.9,80.3,3.6
437.0,85.9,78.1,77.2,80.4,4.8
438.0,84.5,76.7,77.2,79.5,4.4
439.0,86.3,77.0,77.6,80.3,5.2
440.0,84.6,77.1,78.6,80.1,3.9
441.0,84.7,76.4,79.0,80.1,4.3
442.0,84.1,75.6,78.5,79.4,4.3
443.0,85.5,76.0,78.1,79.9,5.0
444.0,84.1,76.6,78.2,79.6,3.9
445.0,84.7,76.7,77.0,79.5,4.6
446.0,84.8,76.1,77.7,79.5,4.6
447.0,86.0,77.4,76.7,80.0,5.2
448.0,85.6,75.2,76.5,79.1,5.7
449.0,84.6,76.0,77.4,79.3,4.6
450.0,84.9,74.5,76.1,78.5,5.6
451.0,84.6,74.7,77.2,78.8,5.2
452.0,85.6,75.3,76.2,79.0,5.7
453.0,84.5,75.0,77.4,79.0,4.9
454.0,83.1,74.9,75.8,78.0,4.5
455.0,84.4,74.2,76.3,78.3,5.4
456.0,85.0,75.2,75.9,78.7,5.5
457.0,84.5,74.8,76.1,78.5,5.3
458.0,85.2,75.7,76.5,79.1,5.3
459.0,83.8,75.8,76.8,78.8,4.4
460.0,82.8,74.0,76.3,77.7,4.6
461.0,83.5,74.7,76.6,78.3,4.6
462.0,84.3,73.9,77.4,78.5,5.3
463.0,82.2,73.5,77.4,77.7,4.4
464.0,84.2,73.4,76.5,78.0,5.6
465.0,83.4,74.4,76.1,77.9,4.8
466.0,84.5,74.9,76.8,78.7,5.1
467.0,84.4,74.0,76.3,78.3,5.5
468.0,84.4,73.9,76.2,78.2,5.5
469.0,84.4,74.3,76.9,78.5,5.3
470.0,85.8,73.7,76.9,78.8,6.3
471.0,84.9,73.6,77.4,78.6,5.7
472.0,85.0,73.6,75.6,78.0,6.1
473.0,84.8,74.0,75.9,78.2,5.7
474.0,86.7,73.0,75.4,78.4,7.3
475.0,83.7,74.7,76.4,78.3,4.8
476.0,85.5,74.8,75.3,78.5,6.1
477.0,86.2,74.6,75.2,78.7,6.5
478.0,84.0,75.2,75.7,78.3,5.0
479.0,84.8,74.1,74.6,77.8,6.1
480.0,84.8,74.6,75.7,78.4,5.6
481.0,84.6,74.4,73.7,77.6,6.1
482.0,85.2,75.1,75.3,78.5,5.7
483.0,85.0,73.7,75.7,78.1,6.0
484.0,86.2,74.7,75.0,78.6,6.5
485.0,85.2,74.4,76.4,78.7,5.8
486.0,84.3,74.5,75.8,78.2,5.3
487.0,83.8,73.9,75.9,77.9,5.3
488.0,83.6,73.5,75.9,77.6,5.3
489.0,84.4,75.0,75.4,78.3,5.3
490.0,84.3,74.4,75.6,78.1,5.4
491.0,85.1,75.0,75.2,78.4,5.8
492.0,85.2,75.0,75.1,78.4,5.9
493.0,84.7,76.3,75.6,78.9,5.1
494.0,85.4,74.5,75.2,78.4,6.1
495.0,86.0,74.5,75.6,78.7,6.3
496.0,85.9,76.4,76.1,79.5,5.6
497.0,85.9,75.2,75.3,78.8,6.2
498.0,86.7,74.9,74.8,78.8,6.8
499.0,86.8,76.0,74.1,79.0,6.9
500.0,86.5,74.7,75.5,78.9,6.6
501.0,85.3,75.5,74.9,78.5,5.8
502.0,87.2,75.3,76.2,79.5,6.6
503.0,86.1,75.1,76.2,79.2,6.0
504.0,85.2,75.5,75.8,78.8,5.5
505.0,85.9,75.9,74.9,78.9,6.1
506.0,85.7,76.0,76.5,79.4,5.4
507.0,86.4,75.2,76.4,79.3,6.2
508.0,85.6,74.7,77.1,79.2,5.7
509.0,85.8,75.3,76.4,79.2,5.7
510.0,86.0,75.9,76.3,79.4,5.7
511.0,85.3,74.0,77.3,78.9,5.8
512.0,87.3,74.1,76.5,79.3,7.0
513.0,86.8,74.2,76.5,79.1,6.7
514.0,86.8,73.9,76.1,78.9,6.9
515.0,85.3,73.5,76.0,78.3,6.2
516.0,87.7,73.4,76.5,79.2,7.5
517.0,87.0,73.8,76.6,79.1,6.9
518.0,86.2,72.9,75.2,78.1,7.1
519.0,85.7,72.6,75.4,77.9,6.9
520.0,86.5,73.6,77.3,79.1,6.6
521.0,88.5,73.5,76.2,79.4,8.0
522.0,87.8,75.2,77.5,80.2,6.7
523.0,88.2,74.4,76.4,79.7,7.5
524.0,88.1,73.9,77.5,79.9,7.4
525.0,88.3,74.3,77.6,80.1,7.3
526.0,87.9,75.2,77.8,80.3,6.7
527.0,87.9,75.0,78.9,80.6,6.6
528.0,87.9,74.8,78.5,80.4,6.8
529.0,89.5,76.1,77.6,81.1,7.3
530.0,89.5,74.4,79.2,81.1,7.7
531.0,89.1,75.6,76.4,80.4,7.6
532.0,90.9,76.0,78.0,81.6,8.1
533.0,89.0,76.0,77.4,80.8,7.1
534.0,88.6,74.6,76.5,79.9,7.6
535.0,89.4,75.5,76.6,80.5,7.7
536.0,89.3,75.6,76.7,80.5,7.6
537.0,88.3,75.1,77.3,80.2,7.1
538.0,87.8,74.7,77.3,79.9,6.9
539.0,88.2,73.9,79.1,80.4,7.2
540.0,88.6,74.2,78.8,80.6,7.3
541.0,89.4,74.3,78.1,80.6,7.9
542.0,89.5,74.1,78.2,80.6,8.0
543.0,89.4,73.9,77.7,80.4,8.1
544.0,90.2,74.8,78.0,81.0,8.1
545.0,90.3,73.9,78.3,80.8,8.5
546.0,90.0,73.1,78.7,80.6,8.6
547.0,89.2,74.7,79.1,81.0,7.4
548.0,89.0,75.7,79.5,81.4,6.8
549.0,90.0,73.6,80.1,81.3,8.3
550.0,90.7,73.7,79.6,81.3,8.6
551.0,90.2,73.8,77.8,80.6,8.6
552.0,91.3,74.4,79.2,81.6,8.7
553.0,90.3,73.9,78.2,80.8,8.5
554.0,92.4,75.4,78.8,82.2,8.9
555.0,91.1,75.2,78.5,81.6,8.4
556.0,90.5,75.3,79.1,81.6,8.0
557.0,89.6,75.0,77.2,80.6,7.8
558.0,89.6,75.6,80.6,81.9,7.1
559.0,89.7,76.7,79.1,81.8,6.9
560.0,90.5,75.8,80.2,82.2,7.6
561.0,91.5,76.6,79.9,82.7,7.8
562.0,92.6,75.3,80.3,82.7,8.9
563.0,92.5,75.5,79.5,82.5,8.9
564.0,92.6,74.9,80.0,82.5,9.1
565.0,91.7,75.7,78.9,82.1,8.5
566.0,92.4,74.8,80.8,82.6,8.9
567.0,91.5,74.9,80.6,82.3,8.4
568.0,92.3,75.4,81.5,83.1,8.6
569.0,93.1,74.3,81.5,83.0,9.5
570.0,90.8,75.2,81.3,82.4,7.9
571.0,92.7,75.7,82.5,83.6,8.6
572.0,92.6,76.2,80.0,82.9,8.6
573.0,91.9,75.6,82.0,83.2,8.2
574.0,94.3,75.4,81.0,83.6,9.7
575.0,92.7,76.4,80.7,83.2,8.5
576.0,92.4,75.9,81.8,83.4,8.4
577.0,91.8,76.0,81.1,83.0,8.1
578.0,91.7,75.4,81.5,82.9,8.2
579.0,93.2,76.9,81.8,84.0,8.4
580.0,93.5,77.0,82.8,84.4,8.3
581.0,93.6,75.6,83.1,84.1,9.0
582.0,94.5,75.5,83.5,84.5,9.5
583.0,94.8,76.7,84.1,85.2,9.1
584.0,94.6,75.3,83.3,84.4,9.7
585.0,94.0,76.7,84.1,84.9,8.7
586.0,93.4,76.0,83.9,84.4,8.7
587.0,94.0,75.9,83.3,84.4,9.1
588.0,95.2,76.9,83.2,85.1,9.3
589.0,94.5,75.5,83.4,84.5,9.6
590.0,94.0,74.2,82.6,83.6,9.9
591.0,96.2,75.6,81.9,84.5,10.6
592.0,95.8,75.0,82.0,84.3,10.6
593.0,95.2,76.4,83.5,85.0,9.5
594.0,95.2,76.9,82.8,85.0,9.3
595.0,96.1,76.9,81.6,84.8,10.0
596.0,95.5,78.0,82.4,85.3,9.1
597.0,95.3,75.7,83.2,84.7,9.9
598.0,94.4,77.4,83.5,85.1,8.6
599.0,95.5,75.6,83.7,84.9,10.0
600.0,95.5,76.9,84.3,85.6,9.4
601.0,97.2,78.2,85.0,86.8,9.7
602.0,98.4,77.7,84.5,86.8,10.5
603.0,97.2,78.7,83.9,86.6,9.6
604.0,96.0,78.1,84.1,86.0,9.1
605.0,97.3,79.1,83.0,86.5,9.6
606.0,97.7,79.8,83.6,87.0,9.5
607.0,96.9,80.1,83.3,86.8,8.9
608.0,96.5,81.2,84.1,87.3,8.2
609.0,98.0,81.4,85.2,88.2,8.7
610.0,96.2,79.6,84.8,86.9,8.5
611.0,96.7,79.7,84.5,86.9,8.7
612.0,96.4,80.6,84.6,87.2,8.2
613.0,97.2,79.8,85.7,87.6,8.9
614.0,98.3,80.1,84.2,87.6,9.5
615.0,98.0,79.7,85.0,87.5,9.4
616.0,98.6,79.2,84.4,87.4,10.0
617.0,98.0,78.5,85.2,87.2,9.9
618.0,99.4,78.8,85.0,87.7,10.6
619.0,98.4,80.6,85.1,88.0,9.3
620.0,98.1,81.1,86.1,88.4,8.8
621.0,98.8,79.7,87.0,88.5,9.6
622.0,97.6,80.8,85.9,88.1,8.6
623.0,98.2,80.1,86.4,88.2,9.2
624.0,96.4,80.2,87.0,87.9,8.1
625.0,99.9,81.3,85.1,88.7,9.8
626.0,98.0,81.8,86.5,88.8,8.3
627.0,98.7,81.6,85.1,88.5,9.0
628.0,99.0,81.1,88.5,89.5,9.0
629.0,98.8,80.8,86.7,88.7,9.2
630.0,97.6,81.4,86.4,88.5,8.3
631.0,98.8,81.3,87.2,89.1,8.9
632.0,99.2,82.1,86.9,89.4,8.8
633.0,99.3,82.2,86.7,89.4,8.9
634.0,98.5,81.1,88.1,89.3,8.8
635.0,102.0,82.3,86.0,90.1,10.5
636.0,98.1,81.3,87.5,89.0,8.5
637.0,101.5,80.9,87.5,90.0,10.5
638.0,100.7,82.0,87.6,90.1,9.6
639.0,100.9,81.8,88.9,90.5,9.7
640.0,100.0,82.1,90.8,91.0,8.9
641.0,100.6,81.1,89.1,90.3,9.8
642.0,102.5,80.2,89.6,90.8,11.2
643.0,101.5,81.5,89.1,90.7,10.1
644.0,102.5,82.2,90.2,91.6,10.2
645.0,102.3,82.3,89.6,91.4,10.1
646.0,101.9,84.3,89.5,91.9,9.1
647.0,100.6,82.8,88.3,90.6,9.1
648.0,101.8,84.0,88.3,91.3,9.3
649.0,101.0,83.5,90.7,91.7,8.8
650.0,102.4,83.4,90.5,92.1,9.6
651.0,100.5,84.2,91.0,91.9,8.2
652.0,101.7,84.6,90.8,92.4,8.7
653.0,101.2,85.3,90.3,92.3,8.1
654.0,100.3,85.7,90.5,92.2,7.4
655.0,100.6,84.8,91.5,92.3,7.9
656.0,102.4,85.7,89.8,92.6,8.7
657.0,102.6,84.4,91.3,92.8,9.2
658.0,101.5,84.4,90.7,92.2,8.6
659.0,101.0,85.6,92.5,93.1,7.7
660.0,102.7,84.9,91.2,92.9,9.1
661.0,104.0,85.1,92.8,94.0,9.5
662.0,102.1,85.4,93.1,93.5,8.4
663.0,101.5,84.8,94.0,93.4,8.4
664.0,103.3,86.2,94.1,94.5,8.6
665.0,103.2,84.8,93.1,93.7,9.2
666.0,102.4,85.9,94.7,94.3,8.2
667.0,103.2,86.0,94.6,94.6,8.6
668.0,102.4,85.7,93.4,93.9,8.3
669.0,102.0,84.2,94.4,93.5,8.9
670.0,102.0,85.2,96.1,94.4,8.5
671.0,103.3,84.2,96.2,94.6,9.7
672.0,104.1,84.0,97.1,95.0,10.2
673.0,104.0,85.2,94.6,94.6,9.4
674.0,103.2,84.6,96.8,94.9,9.4
675.0,103.3,86.6,96.7,95.5,8.4
676.0,103.4,85.5,97.0,95.3,9.0
677.0,105.1,85.3,96.1,95.5,9.9
678.0,104.9,85.9,99.0,96.6,9.8
679.0,105.4,86.2,97.6,96.4,9.7
680.0,104.2,86.3,98.9,96.4,9.2
681.0,107.0,86.4,98.4,97.3,10.4
682.0,105.8,85.3,98.8,96.6,10.4
683.0,104.5,85.6,98.8,96.3,9.7
684.0,105.9,86.0,99.8,97.2,10.2
685.0,105.3,85.2,99.8,96.8,10.4
686.0,105.3,85.1,98.2,96.2,10.2
687.0,107.0,86.0,99.3,97.4,10.6
688.0,106.9,85.8,101.1,97.9,10.9
689.0,107.8,85.8,101.5,98.4,11.3
690.0,106.9,85.9,101.5,98.1,10.9
691.0,107.9,85.6,100.9,98.1,11.4
692.0,107.5,85.7,102.2,98.5,11.4
693.0,107.5,87.8,102.3,99.2,10.2
694.0,108.4,88.3,102.1,99.6,10.3
695.0,107.5,88.5,103.2,99.7,9.9
696.0,109.2,89.0,103.1,100.4,10.3
697.0,107.5,89.2,103.3,100.0,9.6
698.0,106.5,89.9,101.8,99.4,8.6
699.0,107.3,89.7,104.0,100.4,9.4
700.0,108.9,89.3,105.0,101.0,10.4
701.0,110.7,91.7,106.6,103.0,10.0
702.0,108.6,90.8,106.9,102.1,9.8
703.0,110.4,90.4,108.3,103.1,11.0
704.0,108.8,91.7,105.6,102.0,9.1
705.0,108.4,90.2,106.2,101.6,9.9
706.0,108.6,90.8,107.7,102.4,10.0
707.0,108.3,90.5,106.1,101.6,9.7
708.0,111.3,91.1,107.8,103.4,10.8
709.0,108.8,91.3,107.5,102.5,9.7
710.0,109.3,90.9,108.5,102.9,10.4
711.0,109.7,90.4,107.9,102.7,10.6
712.0,109.6,90.5,107.5,102.5,10.5
713.0,110.2,91.2,108.1,103.2,10.4
714.0,108.6,92.2,108.1,102.9,9.3
715.0,109.7,90.8,110.1,103.5,11.1
716.0,109.2,91.2,109.4,103.2,10.4
717.0,110.4,89.9,108.9,103.1,11.4
718.0,108.9,90.5,109.2,102.9,10.7
719.0,111.3,91.8,109.6,104.3,10.8
720.0,108.6,90.9,110.8,103.4,10.9
721.0,112.2,91.7,111.0,105.0,11.5
722.0,108.8,93.5,111.2,104.5,9.6
723.0,108.7,91.2,113.9,104.6,11.9
724.0,110.7,92.0,114.1,105.6,11.9
725.0,109.7,93.0,112.8,105.2,10.6
726.0,111.7,93.0,114.9,106.5,11.8
727.0,110.3,93.1,112.2,105.2,10.5
728.0,111.2,94.5,116.2,107.3,11.4
729.0,111.4,94.3,114.9,106.8,11.0
730.0,112.6,93.9,114.2,106.9,11.3
731.0,112.3,95.1,114.5,107.3,10.6
732.0,112.7,93.6,114.3,106.9,11.5
733.0,112.1,94.5,114.2,107.0,10.8
734.0,112.4,96.0,117.2,108.5,11.2
735.0,110.5,94.7,117.2,107.5,11.6
736.0,113.3,93.4,116.5,107.8,12.5
737.0,111.2,95.0,115.9,107.4,11.0
738.0,112.0,96.3,114.2,107.5,9.7
739.0,110.8,98.1,115.8,108.2,9.1
740.0,110.3,97.3,115.9,107.9,9.5
741.0,110.3,98.3,116.1,108.2,9.1
742.0,111.4,98.1,117.4,109.0,9.9
743.0,109.8,98.8,117.0,108.5,9.2
744.0,111.8,98.4,120.7,110.3,11.2
745.0,110.8,98.0,119.9,109.6,11.0
746.0,109.7,99.0,120.9,109.9,10.9
747.0,113.3,98.2,120.0,110.5,11.2
748.0,112.9,99.8,118.2,110.3,9.5
749.0,113.0,97.8,121.2,110.6,11.9
750.0,111.2,100.3,122.1,111.2,10.9
751.0,112.5,102.2,121.3,112.0,9.5
752.0,113.2,100.6,121.2,111.7,10.3
753.0,112.6,101.1,120.1,111.2,9.6
754.0,114.2,100.7,120.1,111.6,9.9
755.0,113.5,100.7,121.0,111.7,10.3
756.0,112.3,101.5,119.4,111.0,9.0
757.0,114.3,100.4,119.9,111.5,10.0
758.0,113.8,101.3,119.0,111.4,9.1
759.0,111.5,101.4,120.8,111.2,9.7
760.0,113.7,100.9,120.3,111.6,9.9
761.0,113.4,102.9,121.8,112.7,9.5
762.0,113.3,101.6,123.1,112.7,10.7
763.0,113.6,102.3,120.6,112.2,9.3
764.0,115.3,102.6,124.1,114.0,10.8
765.0,112.0,102.7,124.2,113.0,10.7
766.0,113.3,102.6,122.3,112.7,9.9
767.0,112.3,105.1,123.2,113.6,9.1
768.0,113.6,103.7,125.0,114.1,10.7
769.0,113.7,103.1,125.2,114.0,11.1
770.0,111.2,104.8,121.9,112.6,8.7
771.0,113.0,104.8,122.0,113.3,8.6
772.0,113.0,106.4,122.0,113.8,7.8
773.0,112.2,104.9,121.2,112.8,8.1
774.0,113.4,104.8,123.1,113.8,9.2
775.0,114.1,107.3,124.0,115.1,8.4
776.0,112.6,105.9,124.1,114.2,9.2
777.0,113.7,106.3,122.0,114.0,7.9
778.0,114.2,107.3,124.5,115.3,8.7
779.0,113.2,105.8,122.6,113.9,8.5
780.0,112.8,106.7,124.9,114.8,9.3
781.0,113.4,106.4,124.4,114.7,9.1
782.0,113.2,108.2,123.0,114.8,7.5
783.0,112.9,107.4,123.3,114.6,8.1
784.0,114.7,106.2,123.5,114.8,8.7
785.0,114.3,106.9,122.1,114.4,7.6
786.0,110.9,107.1,121.1,113.0,7.3
787.0,111.5,108.2,122.7,114.1,7.6
788.0,112.3,106.0,121.6,113.3,7.9
789.0,114.3,107.5,121.4,114.4,7.0
790.0,112.6,107.0,120.6,113.4,6.8
791.0,111.7,106.6,119.2,112.5,6.4
792.0,112.8,106.3,120.2,113.1,7.0
793.0,114.5,107.0,120.2,113.9,6.6
794.0,112.3,108.1,118.6,113.0,5.3
795.0,114.6,110.5,116.6,113.9,3.1
796.0,111.5,109.4,119.8,113.6,5.5
797.0,113.6,109.5,121.3,114.8,6.0
798.0,113.5,109.2,119.8,114.1,5.3
799.0,113.7,109.2,121.8,114.9,6.4
800.0,114.1,108.2,122.5,114.9,7.2
801.0,112.5,108.7,122.7,114.6,7.2
802.0,113.8,110.0,122.3,115.4,6.3
803.0,115.6,108.9,121.3,115.3,6.2
804.0,114.9,108.6,122.1,115.2,6.7
805.0,115.9,109.9,122.3,116.0,6.2
806.0,113.2,110.7,118.9,114.2,4.2
807.0,114.3,109.1,120.4,114.6,5.7
808.0,113.1,110.0,121.5,114.9,5.9
809.0,114.4,110.8,120.9,115.4,5.1
810.0,112.3,109.2,121.8,114.4,6.6
811.0,113.1,110.6,121.8,115.2,5.9
812.0,114.4,110.6,120.3,115.1,4.9
813.0,112.2,110.5,120.7,114.5,5.5
814.0,110.9,110.5,119.5,113.6,5.1
815.0,112.2,110.4,119.6,114.1,4.9
816.0,113.1,112.8,118.9,114.9,3.4
817.0,112.3,112.3,121.6,115.4,5.3
818.0,112.6,111.5,121.5,115.2,5.5
819.0,114.5,111.1,121.0,115.5,5.0
820.0,113.1,111.0,121.4,115.1,5.5
821.0,114.9,112.6,120.5,116.0,4.1
822.0,115.6,112.5,121.6,116.6,4.7
823.0,113.8,112.2,121.3,115.7,4.9
824.0,113.0,112.1,121.0,115.4,4.9
825.0,113.4,113.7,120.3,115.8,3.9
826.0,113.7,113.4,122.2,116.4,5.0
827.0,114.3,112.7,121.0,116.0,4.4
828.0,113.2,113.2,121.1,115.8,4.6
829.0,113.8,112.7,120.5,115.7,4.2
830.0,112.4,112.5,119.6,114.8,4.1
831.0,114.2,113.0,120.8,116.0,4.2
832.0,114.3,113.0,119.7,115.6,3.6
833.0,115.1,113.2,121.6,116.6,4.4
834.0,114.2,113.8,121.2,116.4,4.2
835.0,113.0,113.0,117.9,114.6,2.9
836.0,113.6,114.5,118.5,115.5,2.6
837.0,114.7,114.5,118.8,116.0,2.4
838.0,115.4,114.3,118.9,116.2,2.4
839.0,115.1,113.7,117.3,115.4,1.8
840.0,117.1,112.4,119.4,116.3,3.5
841.0,118.3,114.5,118.1,117.0,2.1
842.0,117.6,112.7,118.7,116.3,3.2
843.0,116.4,113.9,118.3,116.2,2.2
844.0,115.5,113.3,117.8,115.5,2.2
845.0,116.6,115.5,119.5,117.2,2.1
846.0,116.3,111.9,118.3,115.5,3.3
847.0,115.9,114.4,119.0,116.4,2.3
848.0,116.8,114.8,118.2,116.6,1.7
849.0,115.6,112.4,118.8,115.6,3.2
850.0,116.9,114.5,119.2,116.8,2.3
851.0,115.5,115.6,119.5,116.8,2.3
852.0,116.1,114.7,119.9,116.9,2.7
853.0,117.1,115.3,119.1,117.2,1.9
854.0,116.6,112.7,117.1,115.5,2.4
855.0,114.8,115.0,118.9,116.2,2.3
856.0,115.0,117.3,121.5,117.9,3.3
857.0,116.1,116.1,117.4,116.5,0.7
858.0,114.8,116.9,120.0,117.2,2.6
859.0,115.0,116.3,119.9,117.0,2.6
860.0,116.1,118.0,119.2,117.7,1.6
861.0,115.0,118.4,117.9,117.1,1.8
862.0,118.6,118.5,117.1,118.1,0.8
863.0,116.4,119.4,117.6,117.8,1.5
864.0,115.8,122.3,118.1,118.7,3.3
865.0,115.5,120.9,115.6,117.3,3.1
866.0,114.8,122.0,118.0,118.3,3.6
867.0,114.7,122.1,118.8,118.6,3.7
868.0,117.3,123.1,118.9,119.7,3.0
869.0,117.2,123.7,117.9,119.6,3.5
870.0,116.2,125.7,117.1,119.7,5.2
871.0,115.4,123.7,116.0,118.4,4.6
872.0,114.6,123.4,116.5,118.1,4.6
873.0,115.6,121.6,117.2,118.1,3.1
874.0,117.9,121.8,118.4,119.4,2.1
875.0,118.5,120.7,118.7,119.3,1.2
876.0,117.3,120.3,118.3,118.6,1.5
877.0,118.4,121.8,115.8,118.7,3.0
878.0,116.6,119.4,119.2,118.4,1.6
879.0,117.4,118.8,118.3,118.2,0.7
880.0,116.7,119.2,117.7,117.9,1.3
881.0,117.4,121.5,118.7,119.2,2.1
882.0,118.4,121.7,118.7,119.6,1.8
883.0,118.5,120.5,119.2,119.4,1.0
884.0,119.4,122.9,117.9,120.1,2.6
885.0,118.8,122.9,116.3,119.3,3.3
886.0,120.9,123.1,116.8,120.3,3.2
887.0,118.7,123.1,118.5,120.1,2.6
888.0,120.0,122.8,119.7,120.8,1.7
889.0,117.4,123.3,118.6,119.8,3.1
890.0,119.7,125.1,117.6,120.8,3.9
891.0,118.9,124.0,119.1,120.7,2.9
892.0,118.9,124.7,119.4,121.0,3.2
893.0,119.8,126.4,118.4,121.5,4.3
894.0,118.3,125.3,121.6,121.7,3.5
895.0,118.3,123.9,118.6,120.3,3.2
896.0,120.9,125.8,120.7,122.5,2.9
897.0,117.9,124.8,119.2,120.6,3.7
898.0,118.9,127.6,120.0,122.2,4.7
899.0,117.8,125.0,118.6,120.5,4.0
900.0,118.7,123.7,118.2,120.2,3.1
901.0,121.0,124.5,119.6,121.7,2.6
902.0,117.8,126.2,118.7,120.9,4.6
903.0,120.4,124.7,118.5,121.2,3.2
904.0,116.6,122.9,120.8,120.1,3.2
905.0,116.0,122.4,119.4,119.3,3.2
906.0,117.1,122.4,117.7,119.1,2.9
907.0,116.9,123.9,117.1,119.3,4.0
908.0,115.4,123.2,120.4,119.7,3.9
909.0,115.6,121.4,119.9,119.0,3.0
910.0,117.6,122.4,119.4,119.8,2.4
911.0,117.1,122.7,119.2,119.7,2.9
912.0,118.5,123.1,122.5,121.4,2.5
913.0,118.0,123.7,120.7,120.8,2.8
914.0,118.3,121.4,120.8,120.2,1.7
915.0,119.6,123.5,124.1,122.4,2.4
916.0,118.6,122.1,123.0,121.2,2.4
917.0,118.2,125.1,122.0,121.7,3.4
918.0,118.1,126.3,121.6,122.0,4.1
919.0,117.8,125.1,122.5,121.8,3.7
920.0,117.3,123.3,122.3,121.0,3.2
921.0,116.0,124.6,122.3,121.0,4.5
922.0,118.2,122.3,123.3,121.3,2.7
923.0,118.4,123.0,121.7,121.0,2.4
924.0,117.4,124.0,122.2,121.2,3.4
925.0,117.0,124.6,122.2,121.2,3.9
926.0,118.1,122.3,121.8,120.7,2.3
927.0,118.2,123.3,123.8,121.8,3.1
928.0,116.5,124.4,123.5,121.5,4.4
929.0,118.0,125.8,125.4,123.1,4.4
930.0,117.0,124.3,124.7,122.0,4.3
931.0,118.6,122.9,125.6,122.4,3.5
932.0,118.7,123.6,123.1,121.8,2.7
933.0,118.2,123.5,124.4,122.0,3.3
934.0,117.4,122.9,124.0,121.4,3.5
935.0,121.5,124.1,124.1,123.2,1.5
936.0,119.0,123.3,124.9,122.4,3.1
937.0,120.8,124.5,125.5,123.6,2.5
938.0,119.7,123.7,124.8,122.7,2.7
939.0,122.8,123.8,124.6,123.7,0.9
940.0,118.6,123.4,126.6,122.9,4.0
941.0,119.5,122.7,126.7,122.9,3.6
942.0,120.2,122.1,127.6,123.3,3.9
943.0,117.4,122.0,126.4,121.9,4.5
944.0,118.1,122.7,127.1,122.6,4.5
945.0,118.1,124.3,127.7,123.4,4.8
946.0,117.8,125.2,128.1,123.7,5.3
947.0,117.3,126.5,130.8,124.9,6.9
948.0,117.7,126.6,128.9,124.4,5.9
949.0,118.4,127.0,129.9,125.1,6.0
950.0,119.2,127.2,130.2,125.5,5.7
951.0,117.8,125.3,130.1,124.4,6.2
952.0,117.8,125.5,130.8,124.7,6.6
953.0,118.9,126.2,129.4,124.8,5.4
954.0,120.7,130.1,129.1,126.7,5.2
955.0,118.7,125.2,129.4,124.4,5.4
956.0,119.2,127.2,129.4,125.3,5.4
957.0,118.9,124.9,128.3,124.0,4.7
958.0,120.1,126.6,130.2,125.7,5.1
959.0,119.7,127.1,129.7,125.5,5.2
960.0,118.0,126.6,131.2,125.3,6.7
961.0,118.1,126.8,128.1,124.3,5.4
962.0,119.5,125.9,131.6,125.7,6.1
963.0,120.0,126.5,132.3,126.3,6.2
964.0,121.3,127.6,133.0,127.3,5.9
965.0,122.5,130.6,131.7,128.3,5.0
966.0,119.2,127.3,131.5,126.0,6.2
967.0,122.4,128.3,132.2,127.6,4.9
968.0,119.6,129.3,130.9,126.6,6.1
969.0,119.5,127.8,133.2,126.9,6.9
970.0,121.5,128.4,132.8,127.6,5.7
971.0,120.4,129.0,132.6,127.3,6.3
972.0,120.0,128.6,132.7,127.1,6.5
973.0,120.4,129.8,132.7,127.6,6.4
974.0,118.7,130.0,132.0,126.9,7.2
975.0,118.9,128.7,131.1,126.2,6.5
976.0,121.9,129.3,132.7,128.0,5.5
977.0,117.9,129.7,132.1,126.6,7.6
978.0,120.8,128.5,133.0,127.4,6.2
979.0,118.3,131.3,130.2,126.6,7.3
980.0,118.5,129.0,132.2,126.6,7.1
981.0,119.6,131.4,130.2,127.1,6.5
982.0,119.9,127.9,132.9,126.9,6.5
983.0,121.1,127.9,131.3,126.7,5.2
984.0,120.0,128.6,131.5,126.7,6.0
985.0,118.6,129.7,129.8,126.0,6.4
986.0,121.1,129.8,130.1,127.0,5.1
987.0,119.6,130.0,131.3,127.0,6.4
988.0,120.3,131.3,132.5,128.0,6.8
989.0,121.6,132.8,130.7,128.4,6.0
990.0,119.1,130.7,132.2,127.4,7.2
991.0,119.7,132.1,133.1,128.3,7.5
992.0,118.7,133.4,132.3,128.1,8.1
993.0,119.5,129.7,131.9,127.0,6.6
994.0,119.8,131.5,134.3,128.5,7.7
995.0,117.7,131.8,130.9,126.8,7.9
996.0,119.1,131.6,132.3,127.7,7.4
997.0,118.7,131.4,131.3,127.2,7.3
998.0,118.3,130.4,132.3,127.0,7.6
999.0,118.4,131.2,130.3,126.6,7.1
1000.0,117.6,129.8,129.7,125.7,7.0
1001.0,117.5,130.6,130.6,126.2,7.6
1002.0,116.8,128.3,131.0,125.4,7.5
1003.0,118.9,129.8,130.7,126.5,6.6
1004.0,116.1,128.9,129.4,124.8,7.5
1005.0,116.8,127.3,128.8,124.3,6.6
1006.0,116.1,131.6,130.1,125.9,8.5
1007.0,115.7,130.5,130.2,125.5,8.5
1008.0,116.0,129.6,130.6,125.4,8.2
1009.0,117.1,130.2,127.7,125.0,6.9
1010.0,115.0,128.5,127.3,123.6,7.5
1011.0,115.1,130.8,126.3,124.0,8.1
1012.0,116.1,128.0,126.6,123.6,6.5
1013.0,116.5,128.2,124.9,123.2,6.0
1014.0,118.0,131.0,123.9,124.3,6.5
1015.0,115.5,128.5,126.4,123.5,6.9
1016.0,115.0,129.3,123.4,122.6,7.2
1017.0,117.9,128.2,124.1,123.4,5.2
1018.0,116.8,127.2,124.4,122.8,5.3
1019.0,116.6,127.8,124.2,122.9,5.7
1020.0,116.0,128.2,123.7,122.6,6.2
1021.0,115.0,131.3,123.4,123.2,8.1
1022.0,117.8,127.7,123.5,123.0,5.0
1023.0,115.4,125.7,122.1,121.1,5.2
1024.0,116.8,128.6,123.8,123.0,5.9
1025.0,115.6,127.1,122.7,121.8,5.8
1026.0,114.6,125.9,121.9,120.8,5.7
1027.0,115.9,128.1,120.7,121.6,6.1
1028.0,115.9,128.6,120.4,121.6,6.5
1029.0,115.0,128.2,120.5,121.2,6.6
1030.0,113.3,127.0,119.1,119.8,6.9
1031.0,114.0,127.7,119.0,120.2,6.9
1032.0,113.2,127.3,118.8,119.8,7.1
1033.0,114.0,126.5,115.8,118.8,6.7
1034.0,112.8,125.2,117.0,118.3,6.3
1035.0,112.2,124.6,117.7,118.2,6.2
1036.0,114.0,128.2,118.2,120.2,7.3
1037.0,113.3,125.9,118.8,119.3,6.3
1038.0,114.1,127.5,117.6,119.7,7.0
1039.0,113.1,125.9,118.1,119.0,6.4
1040.0,113.2,124.4,119.8,119.1,5.6
1041.0,112.2,124.8,117.6,118.2,6.3
1042.0,114.1,126.3,119.0,119.8,6.1
1043.0,113.6,124.1,116.1,117.9,5.5
1044.0,113.2,123.1,116.4,117.6,5.1
1045.0,114.4,125.7,116.0,118.7,6.1
1046.0,111.8,124.9,117.0,117.9,6.6
1047.0,114.0,124.2,116.1,118.1,5.3
1048.0,112.8,126.7,115.8,118.4,7.3
1049.0,111.7,125.1,114.5,117.1,7.1
1050.0,112.3,125.8,115.9,118.0,7.0
1051.0,113.2,124.5,116.3,118.0,5.8
1052.0,111.9,122.9,114.1,116.3,5.8
1053.0,112.2,123.2,113.4,116.3,6.0
1054.0,111.4,122.8,112.1,115.4,6.4
1055.0,113.5,122.7,111.7,116.0,5.9
1056.0,110.8,121.7,113.3,115.2,5.7
1057.0,110.8,122.0,112.1,115.0,6.1
1058.0,110.5,124.6,111.0,115.4,8.0
1059.0,110.7,121.9,111.5,114.7,6.3
1060.0,108.8,121.8,110.1,113.6,7.2
1061.0,110.0,123.6,110.5,114.7,7.7
1062.0,108.8,121.9,111.3,114.0,7.0
1063.0,108.3,121.3,110.0,113.2,7.1
1064.0,109.1,121.5,110.1,113.6,6.9
1065.0,108.5,121.5,110.8,113.6,6.9
1066.0,108.5,121.6,109.5,113.2,7.3
1067.0,107.7,119.9,107.8,111.8,7.0
1068.0,107.5,119.6,108.3,111.8,6.8
1069.0,105.4,119.4,106.3,110.4,7.8
1070.0,107.5,119.1,106.9,111.2,6.9
1071.0,105.9,118.8,106.6,110.4,7.3
1072.0,103.9,117.5,105.0,108.8,7.6
1073.0,104.3,116.4,103.8,108.2,7.1
1074.0,103.2,117.8,105.2,108.7,7.9
1075.0,103.3,117.3,103.8,108.1,7.9
1076.0,101.9,116.4,104.9,107.7,7.6
1077.0,100.9,116.3,103.7,107.0,8.2
1078.0,101.1,116.7,101.9,106.6,8.8
1079.0,101.6,114.7,102.8,106.4,7.3
1080.0,103.1,114.2,101.4,106.2,7.0
1081.0,100.1,114.7,99.2,104.7,8.7
1082.0,100.1,114.1,99.9,104.7,8.2
1083.0,100.2,114.3,99.6,104.7,8.3
1084.0,98.7,112.6,98.8,103.4,8.0
1085.0,98.7,114.5,96.4,103.2,9.9
1086.0,97.4,112.7,97.4,102.5,8.8
1087.0,95.3,110.5,96.4,100.7,8.5
1088.0,94.5,109.7,94.7,99.6,8.7
1089.0,95.4,109.2,95.2,99.9,8.1
1090.0,93.9,109.4,93.7,99.0,9.0
1091.0,91.4,108.2,93.5,97.7,9.2
1092.0,89.9,108.5,91.1,96.5,10.4
1093.0,88.1,108.1,86.6,94.3,12.0
1094.0,85.3,107.4,85.7,92.8,12.6
1095.0,83.6,105.5,84.5,91.2,12.4
1096.0,82.5,105.8,83.6,90.6,13.1
1097.0,80.1,106.3,81.2,89.2,14.8
1098.0,78.9,106.7,80.1,88.5,15.7
1099.0,78.0,105.3,78.1,87.1,15.8
1100.0,76.1,106.9,76.6,86.5,17.7
1101.0,76.5,106.3,73.9,85.6,18.0
1102.0,73.7,103.8,72.5,83.3,17.7
1103.0,73.2,104.0,70.9,82.7,18.5
1104.0,71.5,103.2,69.9,81.6,18.8
1105.0,71.3,103.7,67.0,80.6,20.1
1106.0,71.2,101.5,66.1,79.6,19.2
1107.0,69.8,100.0,64.8,78.2,19.0
1108.0,69.2,99.4,62.9,77.2,19.5
1109.0,67.7,99.4,62.4,76.5,20.0
1110.0,66.2,98.3,61.6,75.4,20.0
1111.0,66.1,96.3,62.0,74.8,18.7
1112.0,64.5,94.5,61.2,73.4,18.3
1113.0,63.2,90.9,60.8,71.6,16.7
1114.0,63.3,90.5,59.0,70.9,17.1
1115.0,61.6,89.1,58.5,69.7,16.8
1116.0,60.5,87.7,57.3,68.5,16.7
1117.0,60.3,86.8,56.8,67.9,16.4
1118.0,58.9,85.2,56.4,66.8,16.0
1119.0,57.9,82.9,55.0,65.3,15.3
1120.0,57.2,82.3,54.3,64.6,15.4
1121.0,57.6,80.4,52.9,63.6,14.7
1122.0,56.8,77.7,53.0,62.5,13.3
1123.0,55.2,75.5,52.4,61.0,12.6
1124.0,55.0,75.0,51.6,60.5,12.6
1125.0,54.3,72.6,50.8,59.2,11.7
1126.0,53.5,69.9,50.4,57.9,10.5
1127.0,54.5,67.9,49.0,57.1,9.7
1128.0,53.0,66.0,48.7,55.9,9.0
1129.0,52.5,64.9,48.4,55.3,8.6
1130.0,51.5,64.3,47.6,54.4,8.8
1131.0,50.9,63.8,48.2,54.3,8.4
1132.0,50.8,63.2,47.7,53.9,8.2
1133.0,50.6,62.4,47.9,53.6,7.7
1134.0,50.1,61.6,47.5,53.1,7.5
1135.0,49.9,60.8,47.0,52.6,7.3
1136.0,49.9,59.3,46.8,52.0,6.5
1137.0,50.0,57.3,46.6,51.3,5.4
1138.0,50.0,56.4,46.0,50.8,5.3
1139.0,50.2,56.8,45.5,50.8,5.7
1140.0,50.0,55.1,45.0,50.1,5.0
1141.0,49.5,54.9,44.3,49.6,5.3
1142.0,49.6,52.9,44.6,49.1,4.2
1143.0,49.7,52.9,43.4,48.7,4.8
1144.0,49.1,52.9,42.9,48.3,5.0
1145.0,48.2,52.4,43.1,47.9,4.7
1146.0,48.4,52.2,43.6,48.1,4.3
1147.0,47.7,52.2,43.0,47.7,4.6
1148.0,46.9,51.2,42.9,47.0,4.2
1149.0,46.1,51.2,43.4,46.9,4.0
1150.0,47.6,50.4,42.5,46.8,4.0
1151.0,46.1,50.8,42.7,46.5,4.0
1152.0,46.7,50.6,42.7,46.7,3.9
1153.0,46.1,49.6,43.4,46.4,3.1
1154.0,46.0,49.5,42.6,46.1,3.5
1155.0,46.1,48.5,42.6,45.7,3.0
1156.0,46.0,47.7,42.0,45.3,2.9
1157.0,45.5,47.2,42.0,44.9,2.7
1158.0,45.3,46.9,41.6,44.6,2.7
1159.0,44.5,46.7,42.3,44.5,2.2
1160.0,43.9,47.0,42.1,44.4,2.5
1161.0,43.1,46.6,41.8,43.8,2.5
1162.0,43.0,46.6,42.0,43.9,2.4
1163.0,42.1,46.0,42.1,43.4,2.3
1164.0,41.4,45.6,42.0,43.0,2.3
1165.0,41.2,45.1,41.8,42.7,2.1
1166.0,40.9,45.4,41.4,42.6,2.4
1167.0,40.8,45.7,41.4,42.7,2.7
1168.0,40.4,45.2,41.1,42.3,2.5
1169.0,41.2,44.8,40.9,42.3,2.2
1170.0,40.9,45.0,41.4,42.4,2.2
1171.0,41.1,44.6,41.4,42.4,2.0
1172.0,41.5,44.4,41.9,42.6,1.5
1173.0,41.4,43.7,41.3,42.1,1.4
1174.0,41.3,44.1,40.7,42.1,1.8
1175.0,41.5,44.4,40.1,42.0,2.2
1176.0,42.3,44.8,40.3,42.5,2.3
1177.0,42.9,44.5,39.9,42.4,2.3
1178.0,42.2,43.9,39.1,41.8,2.4
1179.0,41.6,44.3,39.6,41.8,2.4
1180.0,43.1,45.0,39.3,42.5,2.9
1181.0,42.7,44.2,39.9,42.3,2.2
1182.0,42.7,44.6,40.6,42.6,2.0
1183.0,43.0,43.8,41.0,42.6,1.5
1184.0,43.1,43.3,41.0,42.5,1.3
1185.0,42.2,43.2,40.2,41.8,1.5
1186.0,42.2,43.2,40.2,41.9,1.5
1187.0,42.1,43.1,40.2,41.8,1.5
1188.0,42.1,43.2,40.0,41.8,1.6
1189.0,41.9,42.8,39.8,41.5,1.6
1190.0,42.9,42.1,39.6,41.5,1.7
1191.0,43.4,42.5,39.9,41.9,1.8
1192.0,44.7,41.8,39.9,42.2,2.4
1193.0,44.7,42.0,39.4,42.1,2.7
1194.0,46.3,41.8,39.0,42.4,3.7
1195.0,45.3,42.1,38.9,42.1,3.2
1196.0,45.5,42.4,38.7,42.2,3.4
1197.0,45.7,42.3,38.5,42.2,3.6
1198.0,46.2,41.4,38.5,42.0,3.9
1199.0,45.2,41.1,38.2,41.5,3.5
1200.0,45.6,41.2,38.2,41.6,3.7
1201.0,45.9,41.4,38.0,41.8,4.0
1202.0,45.7,41.6,38.0,41.7,3.8
1203.0,45.4,41.0,37.6,41.3,3.9
1204.0,44.6,41.0,37.7,41.1,3.4
1205.0,44.7,40.7,37.5,41.0,3.6
1206.0,42.7,41.1,37.5,40.5,2.7
1207.0,42.0,41.0,36.9,39.9,2.7
1208.0,41.9,41.6,36.5,40.0,3.0
1209.0,40.6,40.8,36.4,39.2,2.5
1210.0,40.2,41.2,36.3,39.2,2.6
1211.0,39.9,41.1,35.8,38.9,2.8
1212.0,40.1,40.3,36.0,38.8,2.4
1213.0,39.9,40.4,35.9,38.7,2.4
1214.0,38.9,41.0,35.7,38.5,2.6
1215.0,39.7,40.1,36.6,38.8,1.9
1216.0,39.1,40.3,36.7,38.7,1.8
1217.0,39.3,39.8,36.9,38.7,1.5
1218.0,38.8,39.6,37.0,38.5,1.3
1219.0,38.7,39.0,37.0,38.2,1.1
1220.0,38.8,39.2,37.3,38.4,1.0
1221.0,39.0,39.2,37.3,38.5,1.1
1222.0,38.4,38.7,38.2,38.4,0.3
1223.0,38.8,39.4,37.5,38.6,0.9
1224.0,38.0,39.6,37.3,38.3,1.2
1225.0,38.1,39.4,37.8,38.5,0.8
1226.0,37.7,40.0,37.2,38.3,1.5
1227.0,38.0,39.5,37.5,38.3,1.0
1228.0,38.1,39.8,38.1,38.7,1.0
1229.0,38.3,39.5,37.1,38.3,1.2
1230.0,38.1,39.0,37.7,38.3,0.7
1231.0,38.3,40.0,36.7,38.3,1.6
1232.0,38.2,39.3,36.7,38.1,1.3
1233.0,38.2,38.8,35.7,37.6,1.6
1234.0,38.2,39.0,36.4,37.9,1.3
1235.0,38.1,38.5,36.9,37.8,0.8
1236.0,38.1,38.1,36.2,37.5,1.1
1237.0,37.2,37.2,36.7,37.1,0.3
1238.0,38.0,36.4,35.9,36.8,1.1
1239.0,37.6,36.5,35.5,36.6,1.1
1240.0,37.5,36.6,35.3,36.5,1.1
1241.0,36.6,36.8,36.0,36.5,0.4
1242.0,37.2,36.2,35.4,36.3,0.9
1243.0,37.1,36.4,34.5,36.0,1.3
1244.0,36.7,37.0,34.7,36.1,1.2
1245.0,36.8,35.7,34.4,35.6,1.2
1246.0,36.4,35.6,33.8,35.3,1.3
1247.0,37.2,35.4,34.2,35.6,1.5
1247.25,35.8,35.2,33.9,35.0,1.0