File: 01_Data/Particleboard/Cone/Particleboard_Cone_HF75Scan_230705_R1.csv
Names,Time,Stack TC,Smoke TC,Exh Press,Smoke Comp,Smoke Meas,CO Meter,CO2 Meter,O2 Meter,Sample Mass,Ext Coeff,Start Test,Flame Verif
Chan Gain,,500,500,1,1,1,1,1,1,1,1,1.0,1.0
Offset,,0,0,0.138104,0,0,0,0,0,0,0,0.0,0.0
Gain,,1,1,25.011,12.8256,13.255,1,1,1,1.00088,0.812795,1.0,1.0
Units,sec,C,C,Pa,%,%,%,%,%,g,/m,,
Baseline,,66.765,70.4966,159.503,99.4436,74.9845,0.000199808,0.0438192,20.929,-447.574,2.01284,,
12,2.75,63.3883,64.9286,161.911,99.5629,74.8242,0.000250369,0.04256,20.931,206.321,2.03661,0.0,0.0
24,5.75,63.8059,66.1632,161.294,99.6087,75.1134,0.000153792,0.042552,20.931,206.301,2.01238,0.0,0.0
36,8.75,64.176,66.437,164.492,99.6232,73.948,9.43639e-05,0.0426573,20.9319,206.171,2.12491,0.0,0.0
48,11.75,64.0981,67.8806,159.246,99.6392,73.5819,0.000203823,0.042779,20.9312,206.041,2.16144,0.0,0.0
60,14.75,64.6854,67.6678,158.433,99.6611,72.114,0.000137054,0.0428433,20.9316,205.831,2.30669,0.0,0.0
72,17.75,65.4585,69.8233,149.09,99.6717,74.7125,0.000157244,0.0432383,20.9321,205.52,2.05504,0.0,1.0
84,20.75,66.7045,73.8998,140.155,99.7003,72.8364,0.00027635,0.0446837,20.9313,205.07,2.23841,0.0,0.0
96,23.75,69.8104,81.0812,135.296,99.6866,69.9519,0.000516828,0.0562357,20.9304,204.409,2.52554,0.0,0.0
108,26.75,74.1463,89.0157,133.957,99.7026,67.0588,0.00108108,0.130232,20.9263,203.739,2.82783,0.0,0.0
120,29.75,77.4037,96.8399,132.853,99.7171,68.6186,0.00175652,0.28861,20.8586,202.908,2.66493,0.0,0.0
132,32.75,82.0095,104.164,124.089,99.7367,65.8695,0.00253119,0.456088,20.6629,202.027,2.95784,0.0,0.0
144,35.75,85.1413,110.245,131.052,99.7699,64.3559,0.00388233,0.620699,20.4395,201.166,3.12597,0.0,0.0
156,38.75,89.1917,115.517,123.934,99.7969,64.6123,0.0052757,0.741304,20.2179,200.276,3.09955,0.0,0.0
168,41.75,92.7651,120.491,122.228,99.8142,63.8316,0.00675987,0.819336,20.0624,199.445,3.18745,0.0,0.0
180,44.75,96.0813,124.211,137.696,99.8427,64.3672,0.00806957,0.871994,19.9525,198.594,3.12992,0.0,0.0
192,47.75,98.0379,127.424,128.792,99.8627,63.2451,0.00905982,0.896807,19.8888,197.784,3.25673,0.0,0.0
204,50.75,100.431,129.316,128.811,99.887,62.991,0.00962785,0.911891,19.8605,196.943,3.28716,0.0,0.0
216,53.75,102.506,131.102,124.527,99.896,63.5719,0.010001,0.905447,19.8403,196.142,3.22236,0.0,0.0
228,56.75,104.421,132.562,121.144,99.914,62.3827,0.010294,0.893094,19.8454,195.321,3.35828,0.0,0.0
240,59.75,106.279,133.485,132.971,99.9116,64.1475,0.0103432,0.867699,19.8649,194.521,3.15921,0.0,0.0
252,62.75,106.777,133.401,132.068,99.9198,64.4521,0.0102828,0.847036,19.8939,193.76,3.12602,0.0,0.0
264,65.75,107.738,132.823,139.184,99.9234,64.5796,0.00995945,0.823308,19.9251,193.069,3.11219,0.0,0.0
276,68.75,108.471,132.776,140.599,99.9406,66.02,0.00993301,0.798677,19.9538,192.399,2.95613,0.0,0.0
288,71.75,108.836,132.149,130.15,99.9519,65.4335,0.0098392,0.764536,19.9837,191.678,3.02057,0.0,0.0
300,74.75,109.346,132.079,136.286,99.9437,66.3723,0.00955828,0.726628,20.017,191.028,2.91841,0.0,0.0
312,77.75,109.497,130.871,133.332,99.9515,66.5685,0.00946478,0.708105,20.0657,190.397,2.89792,0.0,0.0
324,80.75,110.15,130.385,136.596,99.9555,67.8136,0.00922679,0.691496,20.0955,189.756,2.76608,0.0,0.0
336,83.75,109.657,128.951,139.664,99.9723,68.3581,0.00909061,0.658765,20.117,189.196,2.71027,0.0,0.0
348,86.75,109.611,127.759,136.815,99.9727,67.3662,0.00895291,0.628744,20.1583,188.605,2.8145,0.0,0.0
360,89.75,109.296,127.175,132.491,99.9954,67.9875,0.00832106,0.602543,20.1899,188.015,2.75067,0.0,0.0
372,92.75,108.956,126.375,140.309,99.9805,68.1089,0.00775949,0.574333,20.2269,187.384,2.73689,0.0,0.0
384,95.75,109.091,125.475,139.406,99.9836,68.7193,0.00751843,0.561409,20.2606,186.764,2.6735,0.0,0.0
396,98.75,108.881,124.211,137.117,99.9883,68.9806,0.00740947,0.546675,20.2762,186.223,2.64677,0.0,0.0
408,101.75,108.371,123.346,140.609,99.9879,69.3734,0.00721376,0.536494,20.2938,185.663,2.60626,0.0,0.0
420,104.75,108.3,122.835,141.257,99.9985,69.2015,0.00724277,0.5181,20.3065,185.152,2.62471,0.0,0.0
432,107.75,108.06,122.169,135.034,99.9872,70.4332,0.00723481,0.498158,20.3307,184.642,2.49811,0.0,0.0
444,110.75,108.351,121.618,146.956,100.016,69.4454,0.00701427,0.485279,20.3529,184.092,2.60088,0.0,0.0
456,113.75,107.842,120.96,139.078,100.039,69.4762,0.0066092,0.478515,20.3706,183.571,2.59937,0.0,0.0
468,116.75,107.717,120.322,140.013,100.054,69.4863,0.00631481,0.468061,20.3793,183.171,2.59936,0.0,0.0
480,119.75,107.138,119.313,142.554,100.069,70.4898,0.00621731,0.458696,20.3914,182.69,2.49821,0.0,0.0
492,122.75,107.029,119.217,140.035,100.079,69.9033,0.00606579,0.446938,20.4027,182.19,2.55851,0.0,0.0
504,125.75,106.199,117.893,147.766,100.085,70.661,0.00565858,0.437933,20.4184,181.659,2.48207,0.0,0.0
516,128.75,106.33,117.867,142.447,100.095,70.4397,0.00548924,0.428046,20.4317,181.159,2.50513,0.0,0.0
528,131.75,105.886,117.502,144.742,100.082,70.7637,0.00527173,0.430273,20.4422,180.699,2.47149,0.0,0.0
540,134.75,105.454,117.07,137.479,100.103,70.5133,0.0052653,0.424948,20.4428,180.228,2.49826,0.0,0.0
552,137.75,105.289,116.601,141.59,100.09,70.7164,0.00543546,0.419666,20.4471,179.718,2.47681,0.0,0.0
564,140.75,105.217,116.096,141.182,100.07,71.1241,0.00548208,0.41426,20.4539,179.137,2.4344,0.0,0.0
576,143.75,104.753,114.935,147.006,100.058,70.8697,0.00534261,0.407501,20.4583,178.847,2.45914,0.0,0.0
588,146.75,104.679,114.847,143.629,100.051,71.7798,0.00523686,0.405727,20.4662,178.326,2.36763,0.0,0.0
600,149.75,103.912,114.781,138.882,100.039,71.1876,0.00533176,0.39822,20.472,177.866,2.42583,0.0,0.0
612,152.75,103.773,114.148,146.474,100.019,72.0626,0.00520866,0.392944,20.4797,177.416,2.33734,0.0,0.0
624,155.75,103.863,113.981,141.763,100.018,70.9344,0.00486778,0.388582,20.4875,176.975,2.44976,0.0,0.0
636,158.75,103.79,113.728,144.281,99.9746,71.8001,0.00475558,0.38745,20.492,176.545,2.36018,0.0,0.0
648,161.75,103.728,113.81,143.737,99.9222,71.9161,0.00462614,0.385128,20.4966,176.094,2.34492,0.0,0.0
660,164.75,103.254,113.822,142.834,99.8756,71.0153,0.00430662,0.385003,20.4982,175.664,2.43147,0.0,0.0
672,167.75,103.65,113.627,138.978,99.8357,71.2163,0.00395362,0.383136,20.4988,175.174,2.40846,0.0,0.0
684,170.75,103.457,113.336,144.076,99.7731,71.4065,0.00373034,0.37924,20.5007,174.743,2.38498,0.0,0.0
696,173.75,102.837,112.857,144.492,99.7245,71.7454,0.00379463,0.375501,20.5055,174.343,2.34775,0.0,0.0
708,176.75,102.302,111.89,141.203,99.6592,71.8393,0.00388421,0.373131,20.5102,173.853,2.33375,0.0,0.0
720,179.75,102.598,112.433,139.081,99.5919,71.3725,0.00395263,0.368526,20.5143,173.382,2.37541,0.0,0.0
732,182.75,102.443,111.458,139.233,99.5394,71.2463,0.00398891,0.363949,20.5203,173.032,2.38428,0.0,0.0
744,185.75,102.135,111.336,147.624,99.4881,71.4635,0.00406416,0.363286,20.5248,172.591,2.3589,0.0,0.0
756,188.75,102.09,111.356,143.482,99.4349,72.0788,0.00404973,0.360008,20.5276,172.191,2.29396,0.0,0.0
768,191.75,102.407,111.152,140.122,99.395,71.2669,0.00362517,0.355702,20.5295,171.761,2.37186,0.0,0.0
780,194.75,101.528,111.169,144.322,99.3484,71.9797,0.00341796,0.358412,20.5331,171.3,2.29757,0.0,0.0
792,197.75,101.661,110.709,146.823,99.2952,72.3987,0.00372264,0.357112,20.5324,170.97,2.25236,0.0,0.0
804,200.75,101.417,110.525,145.34,99.2521,71.8494,0.00376758,0.355304,20.5338,170.56,2.30357,0.0,0.0
816,203.75,101.325,110.896,140.903,99.2744,71.7115,0.00348606,0.352495,20.5361,170.119,2.31887,0.0,0.0
828,206.75,101.347,110.477,143.583,99.3594,71.5226,0.00331436,0.347806,20.5394,169.709,2.34377,0.0,0.0
840,209.75,101.37,110.335,141.837,99.4408,72.3866,0.00318081,0.349531,20.5447,169.228,2.264,0.0,0.0
852,212.75,101.117,109.925,144.733,99.4913,72.2215,0.0033055,0.350786,20.545,168.828,2.28389,0.0,0.0
864,215.75,100.856,110.27,142.779,99.5594,71.9255,0.00356956,0.34865,20.5447,168.408,2.31806,0.0,0.0
876,218.75,100.922,110.321,140.005,99.6067,72.0436,0.0035394,0.343333,20.5462,168.067,2.30975,0.0,0.0
888,221.75,100.782,110.075,136.969,99.667,72.3498,0.00337963,0.342453,20.5512,167.647,2.28383,0.0,0.0
900,224.75,100.773,109.988,145.831,99.7073,72.6572,0.00339489,0.343001,20.5532,167.267,2.25648,0.0,0.0
912,227.75,100.817,109.906,144.607,99.7629,72.9816,0.00328881,0.340232,20.5537,166.876,2.22869,0.0,0.0
924,230.75,100.911,109.837,142.002,99.822,72.8279,0.00321083,0.337568,20.556,166.476,2.24794,0.0,0.0
936,233.75,100.76,109.813,143.695,99.8541,73.2704,0.00303021,0.33707,20.5579,166.126,2.20704,0.0,0.0
948,236.75,100.94,109.776,146.255,99.8466,72.7741,0.00299816,0.334066,20.5591,165.725,2.25497,0.0,0.0
960,239.75,100.428,109.218,141.938,99.8142,73.0973,0.00297482,0.331864,20.5635,165.385,2.22106,0.0,0.0
972,242.75,100.172,109.29,145.336,99.7281,73.1499,0.00296779,0.330492,20.5672,164.955,2.20978,0.0,0.0
984,245.75,100.237,108.954,138.428,99.6349,73.1754,0.00296293,0.326899,20.5684,164.594,2.20063,0.0,0.0
996,248.75,100.134,109.102,142.494,99.5034,73.3077,0.00273576,0.323848,20.5714,164.214,2.17834,0.0,0.0
1008,251.75,100.473,109.404,143.609,99.5038,72.7159,0.00256184,0.322454,20.5756,163.884,2.23616,0.0,0.0
1020,254.75,100.06,108.954,142.892,99.5738,73.1993,0.00246196,0.322354,20.5772,163.493,2.19394,0.0,0.0
1032,257.75,99.6872,108.461,140.637,99.6486,72.6378,0.00244673,0.321126,20.5777,163.133,2.25418,0.0,0.0
1044,260.75,99.489,107.861,144.633,99.7171,72.696,0.0022921,0.319873,20.5789,162.763,2.25337,0.0,0.0
1056,263.75,99.1242,107.54,141.882,99.7911,73.5427,0.00232457,0.316871,20.582,162.432,2.1761,0.0,0.0
1068,266.75,99.7423,107.627,145.576,99.8694,73.6438,0.00237829,0.309961,20.5857,162.052,2.17189,0.0,0.0
1080,269.75,98.8858,107.383,144.487,99.957,74.0734,0.00243284,0.307043,20.5938,161.692,2.13668,0.0,0.0
1092,272.75,99.1628,107.302,142.949,99.9923,73.2531,0.00237415,0.310663,20.5954,161.352,2.21859,0.0,0.0
1104,275.75,99.16,106.994,141.073,100.02,73.8129,0.00212416,0.309516,20.5937,161.021,2.16626,0.0,0.0
1116,278.75,99.1211,106.82,140.796,100.053,73.8064,0.00212571,0.30775,20.5952,160.711,2.16926,0.0,0.0
1128,281.75,98.8922,107.195,147.296,100.089,74.2494,0.00207882,0.308866,20.597,160.341,2.12917,0.0,0.0
1140,284.75,98.8667,106.777,147.921,100.163,74.1664,0.001948,0.30514,20.5978,160,2.14243,0.0,0.0
1152,287.75,98.5339,106.66,143.785,100.205,74.285,0.00193905,0.303677,20.6011,159.65,2.134,0.0,0.0
1164,290.75,98.7127,106.365,144.867,100.274,74.147,0.00197871,0.300165,20.6032,159.27,2.15218,0.0,0.0
1176,293.75,98.3564,106.229,144.828,100.336,74.3812,0.0018963,0.297425,20.6085,158.879,2.13411,0.0,0.0
1188,296.75,98.6166,106.399,146.711,100.388,74.0099,0.00187208,0.296271,20.6112,158.529,2.17347,0.0,0.0
1200,299.75,98.5453,106.307,146.329,100.411,74.5212,0.00196217,0.295907,20.6136,158.219,2.12605,0.0,0.0
1212,302.75,98.1438,105.732,148.457,100.434,74.5588,0.00208613,0.294665,20.6143,157.868,2.12406,0.0,0.0
1224,305.75,97.8852,106.107,143.618,100.433,74.3715,0.00214475,0.292355,20.6158,157.598,2.14191,0.0,0.0
1236,308.75,97.5331,105.87,141.552,100.435,74.1232,0.00209948,0.291181,20.6172,157.238,2.16593,0.0,0.0
1248,311.75,98.0977,105.545,141.926,100.43,74.823,0.00201277,0.289568,20.6181,156.928,2.09857,0.0,0.0
1260,314.75,97.5477,105.557,151.076,100.411,74.3509,0.002054,0.289568,20.6207,156.707,2.14233,0.0,0.0
1272,317.75,97.7741,104.729,142.503,100.398,74.4702,0.00202137,0.288234,20.6208,156.247,2.12998,0.0,0.0
1284,320.75,97.3053,105.056,146.233,100.371,74.3238,0.00185835,0.287607,20.6226,155.997,2.14207,0.0,0.0
1296,323.75,97.384,104.858,145.459,100.36,74.6235,0.00196199,0.28536,20.6247,155.657,2.11262,0.0,0.0
1308,326.75,97.6351,105.333,150.045,100.305,74.7878,0.00197998,0.283655,20.6273,155.326,2.09305,0.0,0.0
1320,329.75,96.5588,104.516,145.63,100.272,73.8829,0.00198317,0.281927,20.6307,155.006,2.17748,0.0,0.0
1332,332.75,96.9182,104.656,141.467,100.233,74.0532,0.00189025,0.280068,20.6339,154.686,2.15831,0.0,0.0
1344,335.75,96.8531,104.766,136.882,100.163,73.6527,0.00201031,0.279245,20.6362,154.315,2.19193,0.0,0.0
1356,338.75,96.8704,104.996,142.591,100.095,74.329,0.00196029,0.277288,20.6372,153.975,2.12194,0.0,0.0
1368,341.75,96.9184,104.872,143.816,100.031,74.1159,0.00181111,0.278301,20.6388,153.735,2.13784,0.0,0.0
1380,344.75,96.682,104.304,141.689,99.9715,74.7408,0.00160443,0.279307,20.6384,153.325,2.07376,0.0,0.0
1392,347.75,97.0378,103.765,146.11,99.9202,74.4443,0.0013332,0.279309,20.6377,153.094,2.09844,0.0,0.0
1404,350.75,97.3155,104.034,144.978,99.8459,74.3315,0.00120236,0.277324,20.6378,152.824,2.10395,0.0,0.0
1416,353.75,96.4183,104.054,145.52,99.7966,74.3986,0.00125212,0.273463,20.6389,152.454,2.09399,0.0,0.0
1428,356.75,96.3009,103.601,144.464,99.6975,74.2651,0.00146224,0.274472,20.6433,152.133,2.09972,0.0,0.0
1440,359.75,96.4683,103.604,141.76,99.6228,74.2603,0.00155172,0.274618,20.6441,151.833,2.09483,0.0,0.0
1452,362.75,96.5897,104.016,143.97,99.5468,74.1507,0.00146411,0.273276,20.6442,151.483,2.09993,0.0,0.0
1464,365.75,96.3457,104.011,143.948,99.5034,74.4686,0.00118196,0.272069,20.6458,151.193,2.06631,0.0,0.0
1476,368.75,96.4657,103.431,146.789,99.4529,74.1147,0.0010414,0.276562,20.6466,150.832,2.09666,0.0,0.0
1488,371.75,96.36,103.311,144.563,99.4224,74.1879,0.00121223,0.278453,20.6429,150.512,2.08743,0.0,0.0
1500,374.75,96.0184,103.074,141.679,99.3813,73.4395,0.00148346,0.278087,20.6392,150.252,2.15677,0.0,0.0
1512,377.75,96.0782,103.5,147.484,99.3574,73.6612,0.00161761,0.276779,20.6377,149.922,2.13357,0.0,0.0
1524,380.75,96.0877,103.206,142.197,99.3143,73.4763,0.00163965,0.275555,20.6391,149.661,2.14839,0.0,0.0
1536,383.75,95.7977,103.525,146.181,99.2862,73.8918,0.00161899,0.275228,20.6411,149.341,2.10617,0.0,0.0
1548,386.75,95.8483,103.847,144.083,99.2302,73.9241,0.00156604,0.273969,20.6417,148.951,2.09903,0.0,0.0
1560,389.75,95.5396,103.562,142.049,99.173,73.0662,0.00145091,0.275803,20.6438,148.7,2.17815,0.0,0.0
1572,392.75,96.1446,103.272,143.398,99.1269,73.8145,0.00151656,0.275256,20.6425,148.38,2.10218,0.0,0.0
1584,395.75,95.1297,103.252,145.741,99.0752,73.8194,0.00148152,0.273605,20.6418,148.06,2.09799,0.0,0.0
1596,398.75,95.5561,102.917,147.941,99.0243,73.1499,0.00144539,0.275596,20.6443,147.79,2.15929,0.0,0.0
1608,401.75,95.6848,103.438,147.93,98.9844,73.7045,0.00159642,0.278959,20.6433,147.479,2.10256,0.0,0.0
1620,404.75,96.0308,103.575,139.875,98.9844,73.1519,0.0016568,0.276477,20.6416,147.079,2.15622,0.0,0.0
1632,407.75,96.2497,103.673,147.9,98.9519,73.1661,0.00177432,0.277303,20.6411,146.739,2.15249,0.0,0.0
1644,410.75,96.437,103.834,143.653,98.9609,73.8052,0.00191676,0.279146,20.6405,146.448,2.09113,0.0,0.0
1656,413.75,95.7942,102.942,142.204,98.9425,73.2175,0.00172347,0.280311,20.6395,146.138,2.14681,0.0,0.0
1668,416.75,96.0173,103.785,147.251,98.9652,73.2308,0.00156758,0.28263,20.6375,145.868,2.14715,0.0,0.0
1680,419.75,95.9604,103.919,146.818,98.9922,73.395,0.00166856,0.282189,20.6355,145.558,2.13312,0.0,0.0
1692,422.75,96.2113,103.25,145.631,99.049,73.1936,0.00183161,0.283309,20.6349,145.187,2.15681,0.0,0.0
1704,425.75,96.0795,103.833,144.915,99.0995,73.2304,0.00191404,0.285413,20.6341,144.847,2.15685,0.0,0.0
1716,428.75,95.6398,103.307,141.432,99.1707,73.1956,0.00192685,0.285184,20.6312,144.597,2.16536,0.0,0.0
1728,431.75,95.6614,103.216,144.556,99.2415,73.1357,0.0018695,0.283722,20.6321,144.116,2.17629,0.0,0.0
1740,434.75,96.0508,103.363,149.601,99.3092,73.6786,0.00195231,0.282517,20.6345,143.956,2.12843,0.0,0.0
1752,437.75,96.1169,103.483,141.945,99.3789,73.1863,0.00187068,0.285322,20.635,143.676,2.18123,0.0,0.0
1764,440.75,95.9826,103.881,145.031,99.4517,73.2943,0.00177773,0.287066,20.6329,143.296,2.17593,0.0,0.0
1776,443.75,96.1548,104.284,144.764,99.4975,73.5649,0.00183693,0.288818,20.6309,142.945,2.15294,0.0,0.0
1788,446.75,96.0988,104.112,149.152,99.5551,73.3275,0.00182973,0.290748,20.6279,142.665,2.18011,0.0,0.0
1800,449.75,95.993,103.849,145.21,99.6161,73.4865,0.00178409,0.291941,20.6255,142.275,2.16904,0.0,0.0
1812,452.75,95.928,104.05,140.596,99.6756,73.7158,0.00189861,0.29174,20.6246,141.965,2.15108,0.0,0.0
1824,455.75,96.6409,104.189,147.777,99.7273,72.9841,0.0020468,0.288817,20.625,141.684,2.22591,0.0,0.0
1836,458.75,96.5186,104.971,146.197,99.793,73.7324,0.00200336,0.291188,20.6263,141.304,2.15787,0.0,0.0
1848,461.75,96.2285,104.332,143.896,99.8513,73.3813,0.00203256,0.294214,20.6237,141.074,2.19607,0.0,0.0
1860,464.75,96.3745,104.607,150.961,99.9007,73.8436,0.00200393,0.294227,20.6212,140.693,2.15481,0.0,0.0
1872,467.75,96.2478,104.278,144.354,99.9551,73.7409,0.00183071,0.294317,20.6222,140.383,2.16862,0.0,0.0
1884,470.75,95.9937,103.9,139.998,100.011,73.2381,0.00167323,0.293311,20.6221,140.033,2.22136,0.0,0.0
1896,473.75,96.2634,104.112,147.005,100.057,73.8177,0.00161427,0.293883,20.6228,139.783,2.16845,0.0,0.0
1908,476.75,96.511,104.399,143.951,100.086,73.8675,0.00177327,0.290907,20.623,139.402,2.16571,0.0,0.0
1920,479.75,96.4213,104.333,140.518,100.111,73.5585,0.00190992,0.29243,20.6235,139.132,2.19741,0.0,0.0
1932,482.75,96.7104,104.735,145.501,100.148,73.7461,0.0019127,0.295076,20.6226,138.772,2.18189,0.0,0.0
1944,485.75,96.7696,105.031,143.305,100.163,74.0083,0.00171914,0.294308,20.621,138.481,2.15759,0.0,0.0
1956,488.75,96.7809,104.129,145.164,100.17,73.3772,0.00182926,0.297501,20.6206,138.151,2.21915,0.0,0.0
1968,491.75,96.6765,104.771,144.395,100.178,73.6305,0.00208605,0.297389,20.6179,137.851,2.19517,0.0,0.0
1980,494.75,96.8583,104.508,142.254,100.186,73.1778,0.00206066,0.296068,20.6173,137.501,2.23972,0.0,0.0
1992,497.75,96.758,104.196,148.004,100.188,73.6624,0.00185498,0.295007,20.6185,137.21,2.19277,0.0,0.0
2004,500.75,96.7365,104.695,143.639,100.183,73.3975,0.00185464,0.295129,20.6197,136.91,2.21813,0.0,0.0
2016,503.75,96.7844,104.567,143.012,100.171,73.8829,0.00192531,0.295492,20.6205,136.59,2.1703,0.0,0.0
2028,506.75,96.3906,104.736,148.548,100.142,73.8295,0.00204494,0.293591,20.6209,136.3,2.17336,0.0,0.0
2040,509.75,96.6252,104.85,147.655,100.115,73.5617,0.00197951,0.294032,20.621,135.939,2.19735,0.0,0.0
2052,512.75,96.8886,104.374,143.345,100.125,73.844,0.00197924,0.294311,20.6211,135.649,2.17076,0.0,0.0
2064,515.75,96.6647,104.926,144.143,100.078,73.6357,0.00210023,0.294369,20.6205,135.329,2.18756,0.0,0.0
2076,518.75,96.2824,104.508,143.558,100.073,73.4201,0.00207169,0.293328,20.6203,134.968,2.2081,0.0,0.0
2088,521.75,96.5547,104.443,142.989,100.058,73.1831,0.0018556,0.291996,20.6224,134.738,2.23007,0.0,0.0
2100,524.75,96.6195,104.7,144.138,100.016,73.4205,0.00195781,0.294798,20.624,134.378,2.20402,0.0,0.0
2112,527.75,96.4014,104.351,144.766,99.9727,73.357,0.00185408,0.294349,20.6203,134.078,2.20709,0.0,0.0
2124,530.75,96.4783,104.341,144.989,99.9136,73.0888,0.00173755,0.292749,20.6199,133.727,2.22899,0.0,0.0
2136,533.75,97.4406,105.013,145.36,99.8576,73.4383,0.00208871,0.291398,20.6207,133.477,2.19098,0.0,0.0
2148,536.75,96.6622,104.477,144.656,99.7789,72.6681,0.0022516,0.294852,20.6226,133.147,2.26053,0.0,0.0
2160,539.75,97.0878,104.967,147.535,99.6889,73.2001,0.00203627,0.295244,20.6207,132.847,2.20209,0.0,0.0
2172,542.75,96.3604,104.957,147.874,99.6118,72.7939,0.00197824,0.293412,20.6191,132.576,2.23624,0.0,0.0
2184,545.75,96.8448,105.002,146.948,99.4854,72.804,0.0020961,0.294281,20.6203,132.226,2.2262,0.0,0.0
2196,548.75,96.8765,104.927,148.852,99.3993,72.7207,0.00217972,0.29423,20.6207,131.876,2.22819,0.0,0.0
2208,551.75,96.839,104.629,148.666,99.3496,73.0201,0.002197,0.294054,20.6208,131.545,2.19533,0.0,0.0
2220,554.75,96.8754,104.889,143.44,99.4459,72.8894,0.0022016,0.293608,20.6209,131.275,2.21501,0.0,0.0
2232,557.75,96.6584,104.688,145.539,99.5194,72.874,0.00202629,0.290539,20.6209,130.955,2.22179,0.0,0.0
2244,560.75,96.8475,104.814,148.351,99.6016,72.9917,0.00193647,0.29072,20.6238,130.625,2.21617,0.0,0.0
2256,563.75,96.8183,104.199,146.724,99.6517,73.4173,0.00207514,0.291952,20.6245,130.394,2.17831,0.0,0.0
2268,566.75,96.8043,104.435,147.858,99.6987,72.8744,0.00205104,0.292197,20.6239,130.014,2.23458,0.0,0.0
2280,569.75,97.1151,104.155,139.378,99.7539,73.1742,0.0019606,0.291978,20.6237,129.724,2.20926,0.0,0.0
2292,572.75,96.7962,103.987,149.24,99.7778,72.7235,0.00205595,0.290698,20.6236,129.464,2.25501,0.0,0.0
2304,575.75,96.8092,104.493,143.129,99.8001,73.3643,0.0020509,0.289807,20.6247,129.203,2.19406,0.0,0.0
2316,578.75,96.663,104.414,141.646,99.8095,73.3372,0.00203555,0.289206,20.6258,128.853,2.19736,0.0,0.0
2328,581.75,96.6795,103.875,143.592,99.8717,73.0945,0.00197247,0.290511,20.6276,128.553,2.22544,0.0,0.0
2340,584.75,96.5712,104.122,143.927,99.8874,72.9962,0.00174423,0.290906,20.6279,128.303,2.23616,0.0,0.0
2352,587.75,96.334,103.505,144.866,99.9069,73.3845,0.0017789,0.291329,20.6279,127.932,2.19972,0.0,0.0
2364,590.75,97.0392,104.11,146.274,99.9308,73.0298,0.0019165,0.288703,20.6266,127.632,2.23598,0.0,0.0
2376,593.75,96.5946,103.707,147.746,99.9422,73.4954,0.00181753,0.285002,20.6285,127.332,2.19148,0.0,0.0
2388,596.75,96.3107,103.514,145.125,99.9042,73.4428,0.00178563,0.286925,20.6315,127.051,2.19387,0.0,0.0
2400,599.75,96.6859,103.735,147.522,99.8803,73.4767,0.00194417,0.288262,20.6295,126.851,2.18887,0.0,0.0
2412,602.75,96.5446,103.809,143.635,99.8361,73.611,0.00197989,0.287596,20.6284,126.491,2.17269,0.0,0.0
2424,605.75,96.5626,103.729,147.987,99.8067,73.6915,0.00187142,0.286926,20.6291,126.251,2.1628,0.0,0.0
2436,608.75,96.4817,103.729,146.008,99.7214,73.4157,0.00190158,0.284939,20.6294,125.95,2.18345,0.0,0.0
2448,611.75,96.1811,103.836,142.414,99.6396,73.1491,0.00187617,0.286706,20.6304,125.64,2.20353,0.0,0.0
2460,614.75,96.485,103.219,148.015,99.5872,73.247,0.001879,0.285371,20.6306,125.48,2.19024,0.0,0.0
2472,617.75,95.4303,102.297,147.105,99.6416,73.031,0.00180568,0.286895,20.6309,125.07,2.21519,0.0,0.0
2484,620.75,95.9265,103.275,143.086,99.7198,73.2227,0.00199255,0.284801,20.6314,124.709,2.2021,0.0,0.0
2496,623.75,96.3463,103.16,142.25,99.82,73.4213,0.00220254,0.282662,20.6323,124.429,2.18994,0.0,0.0
2508,626.75,96.296,103.813,146.013,99.9195,73.698,0.00221878,0.286521,20.6335,124.119,2.17022,0.0,0.0
2520,629.75,96.4261,103.533,149.809,100.033,73.7008,0.00196008,0.287048,20.6313,123.869,2.17802,0.0,0.0
2532,632.75,96.0171,103.472,144.769,100.159,73.7854,0.00175607,0.284054,20.6306,123.638,2.17888,0.0,0.0
2544,635.75,96.0845,103.093,154.442,100.263,73.3008,0.0016855,0.286184,20.6325,123.248,2.23326,0.0,0.0
2556,638.75,95.9611,103.196,149.199,100.359,74.126,0.00184239,0.286098,20.6325,122.928,2.16026,0.0,0.0
2568,641.75,95.2846,103.008,144.994,100.458,73.8926,0.00193155,0.28648,20.632,122.718,2.18975,0.0,0.0
2580,644.75,96.4177,103.357,142.16,100.483,73.9605,0.00188836,0.286158,20.6318,122.477,2.18495,0.0,0.0
2592,647.75,96.1008,102.935,146.729,100.536,73.5661,0.00197816,0.281258,20.6328,122.117,2.22682,0.0,0.0
2604,650.75,95.8566,103.326,147.404,100.549,73.6911,0.00203862,0.281486,20.6364,121.897,2.21566,0.0,0.0
2616,653.75,95.6501,103.095,144.881,100.562,73.6228,0.00185928,0.285596,20.6361,121.637,2.22319,0.0,0.0
2628,656.75,96.186,103.112,143.008,100.532,73.8436,0.0017061,0.28536,20.6331,121.346,2.1997,0.0,0.0
2640,659.75,95.71,103.185,142.786,100.509,73.8424,0.00185592,0.281975,20.6325,121.066,2.19823,0.0,0.0
2652,662.75,95.9685,103.042,142.81,100.449,73.929,0.00189612,0.281553,20.6349,120.766,2.18563,0.0,0.0
2664,665.75,95.8559,103.247,141.274,100.376,73.4719,0.00188678,0.281443,20.6359,120.486,2.22462,0.0,0.0
2676,668.75,96.0763,103.069,150.314,100.287,73.8804,0.00189183,0.280626,20.6362,120.235,2.1788,0.0,0.0
2688,671.75,95.7292,103.014,143.994,100.197,73.7765,0.00172747,0.280439,20.6362,119.925,2.18238,0.0,0.0
2700,674.75,95.7199,102.805,147.951,100.078,73.3477,0.00159119,0.278195,20.6363,119.615,2.21552,0.0,0.0
2712,677.75,95.6057,102.899,144.329,99.9684,73.7235,0.00160058,0.275508,20.6385,119.435,2.17125,0.0,0.0
2724,680.75,96.0134,102.482,144.009,99.8314,73.9597,0.00161277,0.271451,20.6423,119.084,2.13866,0.0,0.0
2736,683.75,95.5466,103.098,144.169,99.7097,73.3801,0.0015698,0.276146,20.6461,118.854,2.18606,0.0,0.0
2748,686.75,95.6517,102.595,146.226,99.6091,73.4306,0.00158685,0.27906,20.6432,118.564,2.17396,0.0,0.0
2760,689.75,95.3445,102.643,141.583,99.485,73.1548,0.00166049,0.278211,20.6399,118.344,2.19191,0.0,0.0
2772,692.75,95.5314,102.364,146.046,99.4051,72.9614,0.00175699,0.277138,20.6397,118.024,2.20505,0.0,0.0
2784,695.75,95.6431,102.167,142.837,99.3261,73.2073,0.00190001,0.274538,20.6406,117.753,2.17538,0.0,0.0
2796,698.75,95.7261,102.917,142.882,99.2623,72.9476,0.00182164,0.27344,20.6424,117.473,2.19614,0.0,0.0
2808,701.75,95.0293,102.977,146.146,99.2118,72.9889,0.00175016,0.275162,20.6446,117.183,2.18848,0.0,0.0
2820,704.75,95.6101,102.876,145.898,99.1891,72.9493,0.00178271,0.279741,20.6425,116.913,2.19072,0.0,0.0
2832,707.75,95.8674,103.149,145.467,99.1269,73.1539,0.002028,0.278583,20.637,116.672,2.16627,0.0,0.0
2844,710.75,95.4901,102.816,147.098,99.1132,72.7062,0.00215657,0.277645,20.6385,116.392,2.20906,0.0,0.0
2856,713.75,95.5348,102.447,145.136,99.0999,72.8336,0.00202114,0.277198,20.639,116.102,2.19562,0.0,0.0
2868,716.75,95.5131,102.4,145.563,99.0991,72.7017,0.00168394,0.27735,20.6392,115.862,2.20849,0.0,0.0
2880,719.75,95.4737,102.615,138.416,99.1022,73.037,0.0015601,0.276817,20.6393,115.641,2.1759,0.0,0.0
2892,722.75,95.7065,102.768,147.474,99.1484,73.503,0.00165559,0.273871,20.641,115.371,2.13388,0.0,0.0
2904,725.75,95.4072,102.497,147.458,99.1453,73.3505,0.00173002,0.274464,20.6427,115.111,2.14846,0.0,0.0
2916,728.75,95.7096,102.113,142.467,99.1664,72.8862,0.00190756,0.2749,20.6431,114.841,2.19526,0.0,0.0
2928,731.75,95.2201,102.636,144.731,99.2001,73.1078,0.00189882,0.273273,20.6441,114.54,2.17603,0.0,0.0
2940,734.75,95.4803,102.223,143.868,99.2451,72.726,0.00198296,0.272438,20.6459,114.28,2.2166,0.0,0.0
2952,737.75,95.4135,102.305,146.439,99.303,73.0002,0.00207136,0.272594,20.6463,114.01,2.19393,0.0,0.0
2964,740.75,94.8722,102.492,145.52,99.3695,73.2927,0.00201182,0.27147,20.6465,113.75,2.1702,0.0,0.0
2976,743.75,95.2836,102.314,145.081,99.4361,72.711,0.00184925,0.272435,20.6465,113.51,2.23178,0.0,0.0
2988,746.75,95.4085,102.564,145.328,99.5069,72.5977,0.00176448,0.272592,20.6453,113.259,2.24797,0.0,0.0
3000,749.75,95.9267,102.428,144.32,99.5875,73.5928,0.00189151,0.27183,20.6448,112.979,2.15668,0.0,0.0
3012,752.75,95.9901,102.477,145.526,99.6658,72.9764,0.00173715,0.271713,20.6447,112.759,2.22226,0.0,0.0
3024,755.75,95.7147,102.627,141.714,99.7504,73.1442,0.00164406,0.271305,20.6446,112.479,2.21192,0.0,0.0
3036,758.75,95.3661,102.232,149.302,99.8091,73.6806,0.00183151,0.271422,20.6446,112.248,2.16403,0.0,0.0
3048,761.75,95.6787,102.522,148.002,99.8701,73.5803,0.00195066,0.271277,20.6446,112.008,2.1781,0.0,0.0
3060,764.75,95.1191,101.699,151.53,99.9226,73.8275,0.00195295,0.271339,20.6435,111.758,2.15794,0.0,0.0
3072,767.75,95.2768,102.409,145.282,99.9664,73.8319,0.00195444,0.269235,20.643,111.488,2.16063,0.0,0.0
3084,770.75,95.092,102.572,141.994,100.011,72.8603,0.00193732,0.265606,20.6458,111.238,2.25824,0.0,0.0
3096,773.75,95.0501,102.337,142.856,100.065,74.2566,0.00197153,0.265755,20.6504,110.927,2.12677,0.0,0.0
3108,776.75,95.051,101.674,153.204,100.09,74.1527,0.00185934,0.269319,20.651,110.667,2.13857,0.0,0.0
3120,779.75,95.3342,101.893,145.091,100.139,73.5407,0.00191482,0.269356,20.6469,110.437,2.20111,0.0,0.0
3132,782.75,94.6279,101.601,142.26,100.158,74.217,0.00189774,0.26682,20.6456,110.227,2.13718,0.0,0.0
3144,785.75,95.0137,101.234,147.162,100.199,73.7182,0.00165173,0.26414,20.6482,109.916,2.18818,0.0,0.0
3156,788.75,94.9677,101.713,148.641,100.218,73.5079,0.00156017,0.264568,20.651,109.666,2.20989,0.0,0.0
3168,791.75,94.6645,102.002,149.663,100.285,73.6301,0.00169485,0.262625,20.6506,109.456,2.20281,0.0,0.0
3180,794.75,94.1149,101.13,146.171,100.313,73.933,0.00179308,0.261848,20.6529,109.206,2.17554,0.0,0.0
3192,797.75,94.7754,101.417,147.974,100.331,73.8194,0.00183034,0.261891,20.6546,108.986,2.18779,0.0,0.0
3204,800.75,94.6152,101.46,148.915,100.357,73.7567,0.00178039,0.260545,20.6541,108.725,2.19574,0.0,0.0
3216,803.75,94.5984,101.393,147.238,100.359,74.0956,0.00164617,0.259519,20.6563,108.505,2.16318,0.0,0.0
3228,806.75,94.9197,101.599,147.155,100.353,73.6305,0.00167154,0.262388,20.6571,108.255,2.20761,0.0,0.0
3240,809.75,94.5869,101.046,149.026,100.336,74.1972,0.00182529,0.262182,20.6554,108.075,2.15172,0.0,0.0
3252,812.75,94.9704,101.638,146.517,100.324,74.0463,0.00180215,0.26155,20.6542,107.795,2.1654,0.0,0.0
3264,815.75,94.3456,101.569,146.777,100.313,74.1159,0.00152002,0.260615,20.6552,107.514,2.15795,0.0,0.0
3276,818.75,94.6479,101.17,149.218,100.296,74.3125,0.00125875,0.255815,20.6578,107.304,2.13784,0.0,0.0
3288,821.75,94.511,101.048,146.04,100.281,73.7251,0.00140468,0.257053,20.6624,107.114,2.19333,0.0,0.0
3300,824.75,94.0909,101.015,150.289,100.257,73.8829,0.00174795,0.255496,20.6631,106.874,2.1764,0.0,0.0
3312,827.75,94.8604,101.15,147.661,100.246,73.9144,0.00200785,0.254196,20.6626,106.634,2.1726,0.0,0.0
3324,830.75,94.3765,100.962,145.793,100.223,73.5876,0.00207878,0.253128,20.6641,106.413,2.20253,0.0,0.0
3336,833.75,94.3212,100.928,146.029,100.196,74.0952,0.00204394,0.252125,20.6646,106.243,2.15162,0.0,0.0
3348,836.75,94.3684,101.239,146.687,100.154,74.2692,0.00192413,0.250662,20.6664,105.993,2.13192,0.0,0.0
3360,839.75,94.3877,101.018,149.143,100.132,73.5771,0.00186093,0.250082,20.6657,105.753,2.19706,0.0,0.0
3372,842.75,94.1842,100.707,147.586,100.109,73.9581,0.00181216,0.248598,20.6672,105.573,2.15858,0.0,0.0
3384,845.75,94.1673,100.712,148.974,100.058,74.2259,0.00176568,0.246339,20.6685,105.392,2.12924,0.0,0.0
3396,848.75,94.2482,100.284,147.874,100.017,73.946,0.00155065,0.245866,20.6705,105.122,2.1532,0.0,0.0
3408,851.75,93.8038,99.9086,146.328,99.9887,73.7809,0.00149905,0.243211,20.6719,104.922,2.16715,0.0,0.0
3420,854.75,93.5847,99.9303,149.134,99.9445,73.3805,0.00163578,0.239127,20.6751,104.722,2.2028,0.0,0.0
3432,857.75,94.3605,99.8677,142.346,99.9003,72.9845,0.00164201,0.239238,20.6783,104.522,2.23822,0.0,0.0
3444,860.75,94.2237,100.058,147.31,99.8647,73.9921,0.00164487,0.241321,20.6785,104.281,2.13792,0.0,0.0
3456,863.75,93.8415,99.5576,148.156,99.8427,73.8663,0.00183351,0.241462,20.6764,104.151,2.14849,0.0,0.0
3468,866.75,93.6409,99.6564,149.546,99.7915,73.4464,0.00192973,0.239482,20.6757,103.931,2.18547,0.0,0.0
3480,869.75,93.5517,99.1816,142.086,99.7723,73.4585,0.00196019,0.235751,20.6778,103.741,2.18292,0.0,0.0
3492,872.75,93.6093,99.3667,148.858,99.7265,73.2769,0.00182653,0.23315,20.6824,103.611,2.1973,0.0,0.0
3504,875.75,93.2252,99.5523,152.585,99.6682,73.6305,0.00173008,0.231158,20.6843,103.411,2.15881,0.0,0.0
3516,878.75,93.1399,99.3732,149.018,99.6431,73.118,0.00175404,0.229762,20.6864,103.191,2.20682,0.0,0.0
3528,881.75,92.8401,99.2689,150.464,99.5836,73.2575,0.0018603,0.229301,20.6869,103,2.18897,0.0,0.0
3540,884.75,93.2853,98.7952,147.222,99.5312,73.4561,0.00185141,0.227766,20.6887,102.81,2.16591,0.0,0.0
3552,887.75,92.7961,98.867,148.796,99.5312,73.8489,0.00165519,0.224738,20.6902,102.65,2.12788,0.0,0.0
3564,890.75,92.4544,98.0079,151.64,99.5872,73.5856,0.00152356,0.220511,20.6945,102.56,2.15736,0.0,0.0
3576,893.75,91.8806,97.9338,148.568,99.6298,73.3522,0.00163175,0.2177,20.6986,102.39,2.18306,0.0,0.0
3588,896.75,91.9483,96.8364,147.7,99.6713,74.3242,0.00176077,0.210118,20.7016,102.33,2.09217,0.0,0.0
3600,899.75,91.6225,96.3231,151.458,99.7175,74.5859,0.0016658,0.198622,20.7093,102.24,2.07041,0.0,0.0
3612,902.75,91.1632,95.7794,152.562,99.7684,74.666,0.00154118,0.187181,20.7212,102.19,2.0664,0.0,0.0
3624,905.75,90.805,94.7919,148.857,99.8001,75.1741,0.0014703,0.175013,20.7321,102.06,2.02031,0.0,0.0
3636,908.75,90.4732,94.5794,150.525,99.8353,75.0968,0.0015742,0.161846,20.7424,102.04,2.03016,0.0,0.0
3648,911.75,89.8422,93.5748,153.822,99.8604,75.513,0.00169946,0.151575,20.7603,101.989,1.99254,0.0,0.0
3660,914.75,89.0898,92.7264,146.911,99.8651,75.6101,0.00189649,0.14503,20.7725,101.869,1.98372,0.0,0.0
3672,917.75,88.8079,92.1672,150.606,99.8623,75.6077,0.00194232,0.138468,20.7808,101.799,1.98375,0.0,0.0
3684,920.75,88.4349,91.6918,152.588,99.8752,75.5037,0.0020352,0.13401,20.7889,101.719,1.99448,0.0,0.0
3696,923.75,87.9594,91.486,153.467,99.8905,75.3682,0.00231322,0.130542,20.7951,101.739,2.00838,0.0,0.0
3708,926.75,87.9774,91.0747,150.731,99.905,75.4807,0.0024796,0.127717,20.8018,101.639,1.99878,0.0,0.0
3720,929.75,87.4141,90.7929,151.408,99.9093,75.5207,0.0025334,0.124567,20.8047,101.599,1.99531,0.0,0.0
3732,932.75,87.2178,90.1015,149.009,99.905,75.9143,0.00269055,0.123249,20.8093,101.519,1.95794,0.0,0.0
3744,935.75,86.9998,90.0602,150.16,99.923,75.706,0.0028778,0.123845,20.8115,101.499,1.97882,0.0,0.0
3756,938.75,86.8697,89.5111,153.784,99.93,75.6461,0.00282989,0.123869,20.8104,101.479,1.98496,0.0,0.0
3768,941.75,86.4194,89.382,151.086,99.9512,75.6324,0.00282519,0.121988,20.8111,101.469,1.98776,0.0,0.0
3780,944.75,85.7121,88.7787,154.719,99.9809,75.5652,0.00284634,0.117554,20.814,101.359,1.99622,0.0,0.0
3792,947.75,85.5722,88.9744,150.115,100.004,75.5863,0.00292922,0.118552,20.8178,101.299,1.99591,0.0,0.0
3804,950.75,85.7266,88.6946,152.42,100.008,75.7181,0.00312047,0.119139,20.8178,101.229,1.9837,0.0,0.0
3816,953.75,85.5604,88.8832,149.119,100.014,75.6797,0.00321173,0.117492,20.8177,101.109,1.9878,0.0,0.0
3828,956.75,85.5324,88.6066,151.45,100.033,75.7311,0.00330811,0.118024,20.8189,101.099,1.98433,0.0,0.0
3840,959.75,85.4752,88.239,152.742,100.024,75.727,0.00350908,0.118769,20.8186,101.149,1.98406,0.0,0.0
3852,962.75,84.1083,88.0147,156.666,100.032,75.8189,0.00351785,0.117778,20.8177,101.049,1.97598,0.0,0.0
3864,965.75,84.9189,87.4907,156.72,100.002,75.7626,0.00339708,0.116266,20.8191,101.029,1.9791,0.0,0.0
3876,968.75,84.4699,87.5295,154.006,99.9664,75.8164,0.0034254,0.113478,20.8216,100.939,1.97152,0.0,0.0
3888,971.75,84.0666,87.4242,158.721,99.9512,75.6538,0.00353843,0.115181,20.8249,100.868,1.98574,0.0,0.0
3900,974.75,83.9107,87.0521,155.158,99.9281,75.829,0.00370473,0.115837,20.8229,100.909,1.96761,0.0,0.0
3912,977.75,83.8376,87.4061,152.118,99.8795,75.5171,0.00382358,0.115441,20.8221,100.868,1.99353,0.0,0.0
3924,980.75,83.7775,86.5937,157.716,99.8251,75.7137,0.00374749,0.11388,20.8233,100.808,1.97111,0.0,0.0
3936,983.75,83.3433,86.7478,150.564,99.7441,75.3593,0.00360958,0.113419,20.8249,100.808,1.99876,0.0,0.0
3948,986.75,83.4278,87.0751,151.906,99.6995,75.5337,0.00358941,0.113312,20.826,100.688,1.9791,0.0,0.0
3960,989.75,83.0281,86.9722,151.927,99.7144,75.4827,0.00370023,0.112476,20.8263,100.648,1.98497,0.0,0.0
3972,992.75,82.9314,86.2336,152.956,99.7586,74.9192,0.00404344,0.111647,20.8279,100.568,2.04156,0.0,0.0
3984,995.75,83.335,86.0091,147.035,99.7774,75.5005,0.00406001,0.113382,20.8285,100.548,1.9878,0.0,0.0
3996,998.75,82.8942,86.217,151.82,99.8153,75.6797,0.00401295,0.112264,20.8275,100.558,1.97361,0.0,0.0
4008,1001.75,82.745,86.1874,149.875,99.811,75.6894,0.00394184,0.110829,20.8294,100.498,1.97239,0.0,0.0
4020,1004.75,82.5775,86.2516,149.257,99.8592,75.5086,0.00400345,0.109169,20.8328,100.438,1.99288,0.0,0.0
4032,1007.75,82.6882,86.147,154.922,99.8795,75.583,0.00401577,0.109559,20.8358,100.358,1.98731,0.0,0.0
4044,1010.75,82.8092,86.1573,153.802,99.9214,75.7869,0.00407637,0.110651,20.8351,100.348,1.97109,0.0,0.0
4056,1013.75,82.5357,85.9344,151.982,99.9598,75.6753,0.00423115,0.112304,20.8349,100.368,1.98434,0.0,0.0
4068,1016.75,82.7472,85.7639,155.769,100.001,75.8816,0.0042662,0.113275,20.8331,100.358,1.96786,0.0,0.0
4080,1019.75,82.3604,85.7388,153.834,100.05,75.7161,0.00448206,0.115095,20.8326,100.288,1.98693,0.0,0.0
4092,1022.75,82.2641,85.6795,148.779,100.085,75.7812,0.00473434,0.114559,20.8291,100.258,1.98326,0.0,0.0
4104,1025.75,81.8633,85.6847,152.343,100.148,75.7922,0.00479183,0.11316,20.8287,100.208,1.98672,0.0,0.0
4116,1028.75,82.0442,84.9929,154.142,100.201,75.5329,0.00458715,0.111461,20.8295,100.178,2.01497,0.0,0.0
4128,1031.75,81.797,84.9863,155.259,100.256,76.0688,0.00461719,0.110346,20.8324,100.158,1.96848,0.0,0.0
4140,1034.75,81.9704,84.4239,153.757,100.297,75.5503,0.00482801,0.109132,20.8339,100.078,2.02015,0.0,0.0
4152,1037.75,81.2051,84.77,151.751,100.318,76.0349,0.00487053,0.109256,20.8358,99.9577,1.97601,0.0,0.0
4164,1040.75,81.6987,84.9663,152.927,100.367,76.032,0.00503708,0.109153,20.8359,99.9677,1.97978,0.0,0.0
4176,1043.75,81.3867,84.9113,155.609,100.386,76.1987,0.00538677,0.110402,20.8349,99.9477,1.9655,0.0,0.0
4188,1046.75,80.8777,84.8777,153.488,100.368,76.1125,0.00541529,0.110578,20.8344,99.9077,1.97232,0.0,0.0
4200,1049.75,81.0912,84.6822,155.835,100.374,76.2124,0.00525763,0.110255,20.8336,99.8876,1.96341,0.0,0.0
4212,1052.75,81.0605,84.8508,153.265,100.379,75.85,0.00521225,0.110991,20.834,99.8776,1.9977,0.0,0.0
4224,1055.75,81.1815,84.6209,154.874,100.407,75.9301,0.00538879,0.111218,20.8341,99.8476,1.99221,0.0,0.0
4236,1058.75,81.3522,85.076,157.49,100.417,76.0794,0.00557515,0.110144,20.8341,99.7875,1.97887,0.0,0.0
4248,1061.75,80.7103,85.3965,149.147,100.402,75.8108,0.00554138,0.109531,20.8355,99.8176,2.00309,0.0,0.0
4260,1064.75,81.0307,84.624,154.625,100.41,75.5389,0.00560731,0.108599,20.8362,99.7275,2.02925,0.0,0.0
4272,1067.75,80.9664,84.408,157.128,100.413,76.0648,0.00573999,0.109918,20.8358,99.6574,1.97996,0.0,0.0
4284,1070.75,81.0047,84.8295,152.661,100.413,75.9847,0.00613091,0.109754,20.8334,99.6174,1.98752,0.0,0.0
4296,1073.75,80.7318,84.2313,153.312,100.429,76.0612,0.00634227,0.108764,20.833,99.5774,1.98144,0.0,0.0
4308,1076.75,80.7388,84.5951,156.139,100.447,76.0777,0.00652214,0.109345,20.8338,99.4673,1.98122,0.0,0.0
4320,1079.75,80.4179,84.4209,153.456,100.438,76.206,0.00668194,0.109862,20.8338,99.5073,1.96854,0.0,0.0
4332,1082.75,80.8708,84.6384,153.429,100.426,75.7731,0.00654492,0.109082,20.8324,99.4573,2.00826,0.0,0.0
4344,1085.75,80.5829,84.674,154.458,100.446,76.3888,0.00665359,0.107362,20.8337,99.4473,1.95201,0.0,0.0
4356,1088.75,80.8826,84.2786,156.386,100.464,76.2072,0.00707168,0.107951,20.8357,99.4773,1.97024,0.0,0.0
4368,1091.75,80.3616,84.4709,154.588,100.482,76.0988,0.00723375,0.108273,20.8355,99.4473,1.98172,0.0,0.0
4380,1094.75,80.3834,84.2316,156.165,100.494,76.1251,0.00710673,0.107683,20.8345,99.4072,1.98009,0.0,0.0
4392,1097.75,80.4081,83.8965,153.068,100.506,76.3095,0.00704342,0.107371,20.8357,99.3372,1.96369,0.0,0.0
4404,1100.75,80.3592,84.0704,157.475,100.539,76.2254,0.00711828,0.106853,20.8363,99.3071,1.97392,0.0,0.0
4416,1103.75,80.0859,83.4748,150.077,100.534,76.0871,0.00700115,0.106787,20.8381,99.207,1.98648,0.0,0.0
4428,1106.75,80.2404,83.6097,155.499,100.545,76.0842,0.00687605,0.106868,20.8386,99.157,1.9875,0.0,0.0
4440,1109.75,79.0746,83.4955,156.154,100.572,76.2129,0.00678396,0.105421,20.8388,99.167,1.97742,0.0,0.0
4452,1112.75,79.9762,83.2782,154.865,100.575,76.2553,0.00684199,0.105215,20.8405,99.0669,1.97367,0.0,0.0
4464,1115.75,80.1906,83.6559,158.431,100.602,76.4588,0.007234,0.105317,20.8405,99.0669,1.95659,0.0,0.0
4476,1118.75,79.696,83.1373,156.064,100.615,76.2986,0.0075683,0.104401,20.8405,99.0069,1.9724,0.0,0.0
4488,1121.75,80.0683,83.674,152.112,100.637,76.3116,0.00763785,0.104938,20.8417,98.9868,1.97274,0.0,0.0
4500,1124.75,79.9598,83.3829,156.683,100.642,76.4187,0.00756887,0.105241,20.8421,99.0569,1.96312,0.0,0.0
4512,1127.75,79.9972,83.0247,157.756,100.655,76.2707,0.00786892,0.105844,20.8422,98.9668,1.97789,0.0,0.0
4524,1130.75,80.2566,83.263,156.654,100.667,76.2379,0.0081829,0.105097,20.8422,98.9368,1.98176,0.0,0.0
4536,1133.75,79.8993,83.4685,152.672,100.678,76.3589,0.00806544,0.104766,20.8422,98.8968,1.97124,0.0,0.0
4548,1136.75,79.6287,83.4744,150.899,100.674,76.617,0.00827027,0.104137,20.8424,98.7867,1.94693,0.0,0.0
4560,1139.75,79.5595,83.4172,151.076,100.655,76.098,0.00862346,0.103407,20.8427,98.8167,1.99406,0.0,0.0
4572,1142.75,80.0405,83.3099,153.001,100.662,76.1202,0.00864271,0.1026,20.8443,98.7566,1.99247,0.0,0.0
4584,1145.75,79.5513,83.5269,151.798,100.648,76.138,0.00885394,0.103181,20.845,98.7767,1.98978,0.0,0.0
4596,1148.75,79.792,83.8983,153.255,100.642,76.1307,0.00891634,0.103559,20.8451,98.6766,1.99005,0.0,0.0
4608,1151.75,79.7579,83.7419,156.018,100.622,76.3589,0.00885596,0.104077,20.8444,98.6165,1.96733,0.0,0.0
4620,1154.75,80.1309,83.794,154.445,100.623,76.2913,0.00886381,0.10396,20.8433,98.6065,1.97366,0.0,0.0
4632,1157.75,79.3906,83.3727,153.327,100.601,76.3593,0.0090005,0.103901,20.8445,98.5665,1.96579,0.0,0.0
4644,1160.75,79.6538,83.3859,149.195,100.594,76.3698,0.00927885,0.103684,20.8448,98.5465,1.96431,0.0,0.0
4656,1163.75,79.8697,83.3932,154.689,100.596,76.3831,0.00952738,0.10375,20.8448,98.5064,1.9632,0.0,0.0
4668,1166.75,79.1352,83.4424,159.094,100.583,76.4313,0.00951688,0.102501,20.8448,98.5164,1.95777,0.0,0.0
4680,1169.75,79.1423,83.1057,153.087,100.596,76.4972,0.00954023,0.102212,20.846,98.4864,1.95253,0.0,0.0
4692,1172.75,79.5458,83.5318,153.506,100.553,76.3055,0.00989399,0.102947,20.8459,98.4764,1.96738,0.0,0.0
4704,1175.75,78.9751,82.8298,151.849,100.549,76.335,0.0102374,0.102487,20.8451,98.4063,1.96434,0.0,0.0
4716,1178.75,79.2521,82.814,152.702,100.543,76.2938,0.0105492,0.101919,20.8457,98.3363,1.9678,0.0,0.0
4728,1181.75,78.6755,83.1861,155.831,100.568,76.2796,0.0108051,0.101365,20.8468,98.3163,1.97088,0.0,0.0
4740,1184.75,78.9555,82.3572,155.59,100.545,76.4341,0.0104593,0.100526,20.8485,98.2662,1.95478,0.0,0.0
4752,1187.75,78.6917,82.2769,156.613,100.558,76.5882,0.0105291,0.100268,20.8502,98.2862,1.94139,0.0,0.0
4764,1190.75,78.8843,82.7496,155.726,100.561,76.2488,0.0107589,0.10019,20.8511,98.2162,1.97328,0.0,0.0
4776,1193.75,78.4421,82.9194,160.394,100.609,76.5069,0.0106752,0.100684,20.8513,98.1962,1.95257,0.0,0.0
4788,1196.75,79.2209,82.9053,152.95,100.595,76.1562,0.0109637,0.100927,20.8505,98.1561,1.98436,0.0,0.0
4800,1199.75,78.7001,82.588,153.104,100.613,76.3726,0.0115536,0.10111,20.849,98.1061,1.96535,0.0,0.0
4812,1202.75,78.5644,82.5456,152.974,100.624,76.4734,0.0118469,0.100092,20.8484,98.1161,1.95673,0.0,0.0
4824,1205.75,78.5436,82.5057,154.41,100.639,76.4823,0.0119433,0.0993842,20.8495,98.1161,1.95701,0.0,0.0
4836,1208.75,78.7069,82.2125,153.226,100.642,76.3896,0.0121694,0.0994703,20.8486,98.0861,1.96584,0.0,0.0
4848,1211.75,78.1323,81.7308,153.306,100.646,76.407,0.0121252,0.100206,20.8479,98.066,1.96447,0.0,0.0
4860,1214.75,78.2847,82.3714,156.479,100.654,76.5239,0.012374,0.0999161,20.8465,98.016,1.95418,0.0,0.0
4872,1217.75,78.4648,82.7252,153.839,100.656,76.208,0.0125862,0.0987365,20.8476,97.986,1.98381,0.0,0.0
4884,1220.75,78.0771,82.7696,155.503,100.654,76.35,0.0128546,0.0983047,20.8489,97.8959,1.97038,0.0,0.0
4896,1223.75,78.588,82.0584,158.099,100.656,76.5534,0.0131952,0.0989131,20.8499,97.8859,1.95154,0.0,0.0
4908,1226.75,78.4905,81.8533,152.53,100.645,76.1004,0.0131553,0.0985937,20.8501,97.8458,1.99311,0.0,0.0
4920,1229.75,78.3222,82.0679,151.082,100.654,76.422,0.0131329,0.0985951,20.8512,97.8058,1.96368,0.0,0.0
4932,1232.75,78.4156,82.2748,158.981,100.655,76.4948,0.0134052,0.0982557,20.8513,97.7758,1.95698,0.0,0.0
4944,1235.75,78.4066,81.9277,155.148,100.657,76.386,0.0136714,0.0984135,20.8503,97.7357,1.96724,0.0,0.0
4956,1238.75,78.4644,82.3056,154.119,100.647,76.4661,0.0136852,0.0985446,20.85,97.8158,1.95907,0.0,0.0
4968,1241.75,78.2616,82.4621,156.47,100.65,76.6513,0.0137988,0.0989867,20.85,97.7157,1.94204,0.0,0.0
4980,1244.75,78.2196,82.2225,154.06,100.652,76.2112,0.0139646,0.0989234,20.8499,97.7157,1.9832,0.0,0.0
4992,1247.75,77.9687,82.328,151.113,100.623,76.2072,0.013956,0.0979951,20.8499,97.6657,1.98153,0.0,0.0
5004,1250.75,78.3007,81.6995,151.009,100.619,76.2351,0.0139014,0.0977367,20.8499,97.5956,1.97867,0.0,0.0
5016,1253.75,77.802,81.8901,155.264,100.624,76.5061,0.0136174,0.0977355,20.8507,97.5556,1.95373,0.0,0.0
5028,1256.75,77.5217,81.5721,156.96,100.607,76.4252,0.0134494,0.097523,20.8511,97.5156,1.96003,0.0,0.0
5040,1259.75,78.0772,81.785,157.244,100.595,76.2808,0.013475,0.0981897,20.8512,97.4855,1.97271,0.0,0.0
5052,1262.75,77.7082,82.2084,153.718,100.591,76.3455,0.0136155,0.097766,20.8512,97.4355,1.96638,0.0,0.0
5064,1265.75,77.6907,82.0463,155.517,100.588,76.4762,0.0138512,0.0971659,20.8512,97.4355,1.95397,0.0,0.0
5076,1268.75,77.7619,81.7054,158.637,100.582,76.4471,0.0141739,0.0977083,20.8512,97.3954,1.95627,0.0,0.0
5088,1271.75,78.0319,82.1238,155.912,100.583,76.403,0.0140434,0.0980075,20.8499,97.3654,1.96041,0.0,0.0
5100,1274.75,77.8229,81.7707,156.643,100.593,76.4301,0.0140203,0.0978546,20.8496,97.4155,1.95857,0.0,0.0
5112,1277.75,77.1423,80.9411,158.847,100.582,76.5551,0.0142351,0.0981346,20.8515,97.3154,1.9462,0.0,0.0
5124,1280.75,77.2621,81.0207,157.152,100.559,76.3961,0.0146955,0.0981902,20.8514,97.3254,1.95933,0.0,0.0
5136,1283.75,76.7885,80.8555,153.123,100.555,76.3152,0.0150639,0.0966288,20.8508,97.2753,1.96661,0.0,0.0
5148,1286.75,77.0376,80.8469,155.09,100.544,76.5591,0.01496,0.0962071,20.8519,97.2453,1.94308,0.0,0.0
5160,1289.75,76.9016,81.0422,159.452,100.528,76.5797,0.0149038,0.095626,20.8526,97.1853,1.94007,0.0,0.0
5172,1292.75,76.8841,80.3867,153.758,100.51,76.2994,0.0150688,0.0969936,20.8528,97.1252,1.96492,0.0,0.0
5184,1295.75,76.2269,80.6028,161.29,100.521,76.481,0.015307,0.0971124,20.8527,97.0952,1.94874,0.0,0.0
5196,1298.75,76.6023,81.0376,155.888,100.513,76.5065,0.0146572,0.0953379,20.8508,97.0451,1.94581,0.0,0.0
5208,1301.75,76.6685,80.9292,151.867,100.514,76.0494,0.0142476,0.0965829,20.8535,97.0151,1.98862,0.0,0.0
5220,1304.75,76.6949,80.8109,156.142,100.502,76.5874,0.0146597,0.097641,20.8534,96.9851,1.9375,0.0,0.0
5232,1307.75,76.8464,80.7596,154.255,100.498,76.3856,0.0149713,0.0973337,20.8519,96.9651,1.95598,0.0,0.0
5244,1310.75,76.6639,80.3162,156.669,100.5,75.956,0.0151198,0.0970252,20.8528,96.915,1.99633,0.0,0.0
5256,1313.75,76.9065,80.9644,156.541,100.489,76.1857,0.0152632,0.0968461,20.8524,96.9651,1.97407,0.0,0.0
5268,1316.75,76.73,80.747,154.068,100.472,76.1647,0.0153165,0.0966589,20.852,96.9851,1.97482,0.0,0.0
5280,1319.75,76.6094,80.3313,149.485,100.447,76.4345,0.0152138,0.0964706,20.8522,96.875,1.94786,0.0,0.0
5292,1322.75,76.5108,80.1354,155.774,100.426,76.123,0.0150835,0.0959995,20.8515,96.8249,1.97544,0.0,0.0
5304,1325.75,76.9524,80.9363,157.378,100.402,76.3929,0.0150526,0.0961349,20.8529,96.8149,1.94849,0.0,0.0
5316,1328.75,76.7225,80.6421,154.846,100.391,76.5211,0.0151962,0.0963238,20.8534,96.7449,1.93576,0.0,0.0
5328,1331.75,76.4096,79.9325,153.216,100.355,76.5219,0.0152291,0.0965356,20.8529,96.6948,1.93318,0.0,0.0
5340,1334.75,76.4379,81.1218,151.514,100.357,76.3569,0.0150992,0.0957846,20.8517,96.6948,1.94869,0.0,0.0
5352,1337.75,76.4518,80.6321,154.403,100.34,76.0264,0.0150815,0.0953381,20.8528,96.6248,1.97839,0.0,0.0
5364,1340.75,75.9545,80.0225,153.796,100.328,75.7829,0.0150366,0.0948784,20.8534,96.6048,2.00043,0.0,0.0
5376,1343.75,76.6098,80.9109,156.001,100.305,76.1975,0.0151855,0.0948703,20.8543,96.5847,1.95988,0.0,0.0
5388,1346.75,76.4356,80.9526,154.426,100.316,76.3463,0.0154015,0.0952153,20.8555,96.5547,1.94672,0.0,0.0
5400,1349.75,76.3568,80.917,155.277,100.317,76.5806,0.0153209,0.0955614,20.8558,96.6448,1.92497,0.0,0.0
5412,1352.75,76.6741,80.5806,156.119,100.303,76.189,0.015487,0.0955785,20.8559,96.6548,1.96057,0.0,0.0
5424,1355.75,76.1315,80.7485,154.352,100.31,76.4863,0.015825,0.0954601,20.8559,96.5747,1.9333,0.0,0.0
5436,1358.75,76.6009,80.7025,154.921,100.291,75.975,0.0158798,0.0957142,20.8559,96.5347,1.9797,0.0,0.0
5448,1361.75,76.08,80.3235,155.527,100.31,75.9859,0.0159182,0.0961522,20.8559,96.3946,1.9801,0.0,0.0
5460,1364.75,76.5294,80.3254,153.565,100.335,76.2768,0.0159531,0.0963001,20.8559,96.3846,1.95458,0.0,0.0
5472,1367.75,76.1666,80.6315,150.876,100.333,76.0421,0.0157953,0.0971567,20.8529,96.3145,1.97641,0.0,0.0
5484,1370.75,76.43,80.4611,153.454,100.355,76.3403,0.0154423,0.0956165,20.8517,96.3145,1.9501,0.0,0.0
5496,1373.75,75.9923,80.2004,151.994,100.397,76.2193,0.0151332,0.0942964,20.853,96.2745,1.96435,0.0,0.0
5508,1376.75,76.5217,80.5187,156.575,100.428,76.4907,0.0150898,0.0951904,20.8549,96.3645,1.94123,0.0,0.0
5520,1379.75,76.0041,80.6645,148.002,100.462,76.4831,0.0155205,0.0963721,20.854,96.1944,1.94436,0.0,0.0
5532,1382.75,76.3167,80.394,156.073,100.501,76.2525,0.0157958,0.0969003,20.8521,96.2845,1.96864,0.0,0.0
5544,1385.75,76.1273,80.6853,153.094,100.507,76.6271,0.0156155,0.0967427,20.8515,96.2845,1.93417,0.0,0.0
5556,1388.75,76.4405,81.0698,156.429,100.522,76.4183,0.0154986,0.0972185,20.8513,96.2845,1.95467,0.0,0.0
5568,1391.75,76.1558,80.4833,156.499,100.516,76.5567,0.0156888,0.099589,20.8518,96.2044,1.94131,0.0,0.0
5580,1394.75,75.9489,80.2045,158.492,100.507,76.443,0.0157909,0.102508,20.8501,96.1644,1.95129,0.0,0.0
5581,1395,76.1329,80.5519,153.761,100.509,76.3423,0.0157917,0.102665,20.8498,96.0943,1.96086,0.0,0.0