File: 01_Data/Particleboard/Cone/Particleboard_Cone_HF75Scan_230705_R3.csv
Names,Time,Stack TC,Smoke TC,Exh Press,Smoke Comp,Smoke Meas,CO Meter,CO2 Meter,O2 Meter,Sample Mass,Ext Coeff,Start Test,Flame Verif
Chan Gain,,500,500,1,1,1,1,1,1,1,1,1.0,1.0
Offset,,0,0,0.18266,0,0,0,0,0,0,0,0.0,0.0
Gain,,1,1,25.011,12.9763,53.2187,1,1,1,1.00092,0.871134,1.0,1.0
Units,sec,C,C,Pa,%,%,%,%,%,g,/m,,
Baseline,,62.2781,66.016,170.21,98.7179,102.66,0.000581308,0.0468603,20.9434,-446.18,-0.298976,,
12,2.75,60.1954,62.0965,164.752,98.7136,100.138,0.000478945,0.0490513,20.9429,208.642,-0.109446,0.0,0.0
24,5.75,60.3579,62.51,169.728,98.7112,99.1647,0.000392701,0.0501876,20.9418,208.472,-0.0350293,0.0,0.0
36,8.75,60.2614,63.2365,171.938,98.7243,98.2568,0.000540314,0.0522325,20.9395,208.292,0.0362649,0.0,0.0
48,11.75,60.613,63.4659,168.579,98.7187,98.2861,0.000777278,0.0534261,20.9373,208.162,0.0335627,0.0,0.0
60,14.75,61.0165,64.2016,164.765,98.7151,100.362,0.000831963,0.0530943,20.9363,207.952,-0.126408,0.0,0.0
72,17.75,61.7147,65.8976,153.654,98.7092,104.057,0.000817429,0.0528553,20.9386,207.591,-0.403137,0.0,1.0
84,20.75,62.8306,70.2607,147.073,98.7179,101.443,0.00074501,0.0531267,20.9402,207.121,-0.208109,0.0,1.0
96,23.75,66.0355,77.1454,141.576,98.7017,102.226,0.000680822,0.061555,20.9407,206.51,-0.268108,0.0,0.0
108,26.75,69.2363,84.2649,142.811,98.7219,98.9926,0.00108357,0.124289,20.9173,205.81,-0.0209233,0.0,0.0
120,29.75,73.7204,91.2021,138.567,98.729,98.2471,0.0018503,0.25553,20.8143,205.049,0.03739,0.0,0.0
132,32.75,77.0301,98.1324,140.245,98.7136,96.5044,0.00278195,0.414218,20.624,204.198,0.172954,0.0,0.0
144,35.75,81.3678,105.445,135.715,98.7231,93.7158,0.00384196,0.5479,20.4451,203.337,0.397752,0.0,0.0
156,38.75,84.9661,110.56,136.698,98.7136,94.0374,0.00489025,0.656708,20.2919,202.527,0.370841,0.0,0.0
168,41.75,88.6442,114.899,132.926,98.7144,93.7987,0.00596204,0.771514,20.1679,201.676,0.390327,0.0,0.0
180,44.75,90.59,117.615,134.362,98.7132,93.7808,0.0072138,0.849282,20.0356,200.895,0.39169,0.0,0.0
192,47.75,92.9378,120.115,139.758,98.7167,93.352,0.00814875,0.876694,19.9512,200.084,0.426983,0.0,0.0
204,50.75,94.9119,121.756,143.818,98.7159,94.2437,0.00870753,0.876021,19.9253,199.264,0.354282,0.0,0.0
216,53.75,97.1789,123.544,138.629,98.7266,91.8968,0.00898243,0.862447,19.9342,198.453,0.547807,0.0,0.0
228,56.75,98.6557,124.428,143.423,98.7171,93.6915,0.00932836,0.852223,19.9482,197.512,0.399279,0.0,0.0
240,59.75,100.502,125.655,138.22,98.7346,92.9915,0.00956769,0.830374,19.9658,196.821,0.457934,0.0,0.0
252,62.75,101.248,125.553,146.823,98.7179,92.9346,0.00958217,0.815528,19.9892,196.051,0.461318,0.0,0.0
264,65.75,102.151,126.146,138.599,98.6997,93.5388,0.00940242,0.799164,20.0096,195.32,0.410392,0.0,0.0
276,68.75,102.786,126.79,142.895,98.7037,94.2291,0.00930446,0.786998,20.0307,194.639,0.354517,0.0,0.0
288,71.75,103.589,126.451,145.848,98.7163,94.6156,0.00944949,0.758901,20.052,193.859,0.324216,0.0,0.0
300,74.75,104.593,125.621,145.058,98.7116,96.0805,0.00961722,0.734108,20.0838,193.168,0.206439,0.0,0.0
312,77.75,104.689,125.569,138.855,98.7243,95.629,0.00955698,0.711861,20.1115,192.577,0.243414,0.0,0.0
324,80.75,104.411,124.586,147.136,98.7334,94.6059,0.00917974,0.685039,20.1451,191.977,0.32632,0.0,0.0
336,83.75,104.929,123.774,150.093,98.7433,96.2121,0.00896591,0.658897,20.1712,191.326,0.198437,0.0,0.0
348,86.75,104.417,122.237,141.967,98.7492,98.2211,0.00878224,0.632884,20.2018,190.756,0.0409743,0.0,0.0
360,89.75,104.605,120.84,142.233,98.8019,95.9198,0.00846719,0.604048,20.2383,190.215,0.226224,0.0,0.0
372,92.75,104.493,120.741,143.747,98.8423,96.597,0.00822615,0.571805,20.2723,189.665,0.175583,0.0,0.0
384,95.75,104.581,119.928,152.965,98.8937,96.5385,0.00806364,0.551771,20.3107,189.004,0.184189,0.0,0.0
396,98.75,104.149,118.832,146.797,98.9543,97.8053,0.0079135,0.540386,20.3291,188.424,0.0892473,0.0,0.0
408,101.75,103.975,118.302,148.856,99.0276,97.5227,0.00767956,0.526301,20.3456,187.893,0.117014,0.0,0.0
420,104.75,103.546,116.95,152.795,99.0973,99.3417,0.00745508,0.507955,20.3607,187.343,-0.0188268,0.0,0.0
432,107.75,103.29,116.231,146.171,99.1911,97.604,0.00715318,0.490264,20.3816,186.842,0.123264,0.0,0.0
444,110.75,102.99,115.234,148.567,99.2981,99.2053,0.00678795,0.480688,20.4028,186.332,0.00714026,0.0,0.0
456,113.75,102.456,114.693,152.844,99.3876,99.3271,0.00662525,0.4718,20.4136,185.801,0.00464712,0.0,0.0
468,116.75,102.279,113.912,146.516,99.4913,100.131,0.00639918,0.460271,20.4237,185.291,-0.0489799,0.0,0.0
480,119.75,102.313,113.571,151.601,99.6081,100.254,0.00586408,0.450861,20.4389,184.81,-0.0494259,0.0,0.0
492,122.75,101.83,112.597,151.163,99.6826,99.7055,0.00562282,0.44539,20.4485,184.3,-0.00176014,0.0,0.0
504,125.75,101.399,112.201,158.277,99.7665,99.9362,0.00553244,0.439182,20.4546,183.809,-0.0129824,0.0,0.0
516,128.75,100.799,111.347,152.001,99.8675,100.022,0.00544053,0.429506,20.4637,183.379,-0.0118304,0.0,0.0
528,131.75,100.508,110.838,150.14,99.9194,99.3385,0.00539512,0.422111,20.4762,182.888,0.0445543,0.0,0.0
540,134.75,100.048,110.41,150.784,99.9843,100.198,0.00523352,0.415784,20.4844,182.418,-0.0162854,0.0,0.0
552,137.75,100.097,110.387,148.217,100.017,99.4652,0.0050816,0.406606,20.4934,181.928,0.0422626,0.0,0.0
564,140.75,99.9933,109.76,149.986,100.05,100.758,0.00502141,0.400704,20.5039,181.417,-0.0539065,0.0,0.0
576,143.75,99.5067,108.937,146.765,100.048,100.41,0.00510612,0.397631,20.5117,180.967,-0.0276227,0.0,0.0
588,146.75,99.2055,109.319,155.987,100.011,100.474,0.00509462,0.395639,20.5144,180.496,-0.0352549,0.0,0.0
600,149.75,99.0135,107.91,147.242,99.9729,101.055,0.00482701,0.389167,20.5173,180.036,-0.0822836,0.0,0.0
612,152.75,98.7196,108.116,145.186,99.9099,101.391,0.00448451,0.383289,20.5262,179.565,-0.112478,0.0,0.0
624,155.75,98.4577,107.973,145.414,99.8339,98.9438,0.0042441,0.38142,20.5311,179.155,0.0684296,0.0,0.0
636,158.75,98.2122,107.272,151.64,99.7677,100.974,0.00425184,0.378726,20.5334,178.705,-0.0918369,0.0,0.0
648,161.75,98.0036,106.613,153.334,99.7016,100.519,0.00412153,0.378258,20.534,178.294,-0.0624113,0.0,0.0
660,164.75,97.6761,106.639,152.302,99.6077,102.372,0.00402073,0.373513,20.5377,177.834,-0.2092,0.0,0.0
672,167.75,98.0184,106.364,154.892,99.5345,97.7128,0.0038947,0.36955,20.5432,177.373,0.141153,0.0,0.0
684,170.75,97.5555,106.416,152.246,99.4695,100.792,0.00371287,0.368781,20.5463,176.933,-0.100932,0.0,0.0
696,173.75,97.3,105.647,153.72,99.6707,100.11,0.00364472,0.36726,20.5478,176.503,-0.0336023,0.0,0.0
708,176.75,97.3307,105.335,157.83,99.9214,101.388,0.00364183,0.362477,20.5524,176.072,-0.111355,0.0,0.0
720,179.75,96.5748,105.303,150.106,100.133,100.389,0.00361363,0.359554,20.5589,175.612,-0.019546,0.0,0.0
732,182.75,97.0838,105.201,152.565,100.256,100.836,0.00385067,0.359616,20.5615,175.241,-0.0440445,0.0,0.0
744,185.75,96.6257,105.205,151.143,100.334,100.825,0.00397505,0.356992,20.5622,174.811,-0.0372392,0.0,0.0
756,188.75,96.6329,105.424,151.007,100.34,102.541,0.00396139,0.356092,20.5639,174.361,-0.165799,0.0,0.0
768,191.75,96.7061,105.131,153.735,100.301,100.997,0.00401383,0.357858,20.5646,173.96,-0.0528099,0.0,0.0
780,194.75,96.5093,105.038,151.389,100.199,100.698,0.00422954,0.356659,20.5648,173.54,-0.0379235,0.0,0.0
792,197.75,96.4514,105.376,150.582,99.9954,100.771,0.00429609,0.356375,20.5648,173.129,-0.0590369,0.0,0.0
804,200.75,96.44,105.048,155.285,99.8735,102.882,0.00407791,0.355409,20.5658,172.719,-0.226813,0.0,0.0
816,203.75,96.2348,104.688,151.772,99.9653,101.075,0.00353132,0.350505,20.5696,172.279,-0.0843326,0.0,0.0
828,206.75,95.8891,104.942,151.186,100.072,101.25,0.00321109,0.349295,20.5739,171.868,-0.089413,0.0,0.0
840,209.75,95.8205,104.844,146.907,100.211,102.402,0.0030737,0.346801,20.5755,171.478,-0.165252,0.0,0.0
852,212.75,96.2208,104.37,149.854,100.359,103.701,0.00296725,0.345639,20.5775,171.048,-0.250314,0.0,0.0
864,215.75,95.9695,104.986,147.996,100.485,102.283,0.0031513,0.347385,20.5761,170.587,-0.135502,0.0,0.0
876,218.75,96.4023,104.876,155.09,100.604,102.895,0.00310196,0.346409,20.5745,170.187,-0.17205,0.0,0.0
888,221.75,95.6328,104.703,149.702,100.686,103.288,0.00313396,0.346489,20.575,169.776,-0.195019,0.0,0.0
900,224.75,96.3137,104.552,148.077,100.728,103.608,0.00319065,0.345966,20.5758,169.406,-0.215408,0.0,0.0
912,227.75,95.4706,104.688,151.794,100.738,103.1,0.00315819,0.344072,20.578,169.006,-0.177132,0.0,0.0
924,230.75,95.9509,104.832,147.845,100.697,103.587,0.0032108,0.34191,20.5803,168.595,-0.216224,0.0,0.0
936,233.75,95.9501,104.381,153.784,100.606,104.014,0.00319998,0.340668,20.5817,168.235,-0.254554,0.0,0.0
948,236.75,96.1003,104.336,148.82,100.46,102.315,0.00296798,0.340636,20.582,167.855,-0.139855,0.0,0.0
960,239.75,95.9473,104.531,149.712,100.285,103.816,0.00276689,0.339177,20.5831,167.484,-0.264446,0.0,0.0
972,242.75,95.6255,104.432,148.451,100.07,103.337,0.00264696,0.339342,20.5841,167.054,-0.245471,0.0,0.0
984,245.75,95.7627,104.417,152.24,99.8683,101.159,0.00256823,0.337225,20.5841,166.664,-0.0981346,0.0,0.0
996,248.75,95.7017,104.061,156.076,99.5947,104.672,0.00259443,0.336039,20.5872,166.313,-0.379964,0.0,0.0
1008,251.75,95.8067,104.364,149.312,99.3579,102.816,0.00274586,0.334325,20.588,165.893,-0.261418,0.0,0.0
1020,254.75,95.9365,104.436,149.035,99.131,102.777,0.00274419,0.333038,20.59,165.552,-0.275991,0.0,0.0
1032,257.75,95.9279,104.024,146.67,98.9488,103.053,0.00283479,0.331377,20.5917,165.182,-0.310547,0.0,0.0
1044,260.75,95.6604,104.323,147.435,98.8486,103.15,0.00285567,0.329163,20.5927,164.822,-0.325511,0.0,0.0
1056,263.75,95.3892,104.109,150.109,98.788,102.851,0.00268948,0.326912,20.5971,164.431,-0.308025,0.0,0.0
1068,266.75,95.1966,104.015,155.401,98.8035,101.494,0.00236067,0.326057,20.5996,164.091,-0.205283,0.0,0.0
1080,269.75,95.4161,103.816,157.688,98.8716,103.244,0.00221224,0.32253,20.6022,163.741,-0.33071,0.0,0.0
1092,272.75,95.3486,104.016,155.062,98.9836,104.854,0.00237453,0.318578,20.6076,163.36,-0.440259,0.0,0.0
1104,275.75,95.6389,103.391,152.912,99.1203,103.655,0.00230297,0.315627,20.6125,163.03,-0.341866,0.0,0.0
1116,278.75,95.1911,103.149,149.981,99.268,104.034,0.00206241,0.314531,20.6158,162.68,-0.358333,0.0,0.0
1128,281.75,95.1149,102.899,153.993,99.4367,104.044,0.00193346,0.312374,20.6191,162.31,-0.346074,0.0,0.0
1140,284.75,95.049,102.768,154.113,99.5749,103.332,0.00200826,0.3093,20.6218,161.939,-0.283035,0.0,0.0
1152,287.75,94.5793,102.476,159.767,99.6873,105.786,0.0021005,0.305173,20.6264,161.599,-0.453765,0.0,0.0
1164,290.75,94.7031,102.215,153.629,99.8121,105.634,0.00204385,0.30232,20.6304,161.249,-0.433173,0.0,0.0
1176,293.75,94.5377,102.211,151.493,99.9146,105.331,0.00198677,0.300654,20.6331,160.918,-0.403441,0.0,0.0
1188,296.75,94.4073,101.764,149.931,99.9843,105.106,0.00184445,0.298409,20.637,160.588,-0.381718,0.0,0.0
1200,299.75,94.2242,101.237,154.166,100.029,104.497,0.00192181,0.295281,20.6398,160.248,-0.33392,0.0,0.0
1212,302.75,93.9302,101.142,153.697,100.055,104.912,0.00208988,0.294613,20.6411,159.917,-0.362268,0.0,0.0
1224,305.75,94.0532,100.73,156.714,100.056,103.571,0.00227551,0.291914,20.6425,159.577,-0.263835,0.0,0.0
1236,308.75,93.7724,100.798,154.94,100.026,103.639,0.00208227,0.288072,20.6468,159.267,-0.271134,0.0,0.0
1248,311.75,93.5645,100.819,151.228,99.976,104.363,0.00185392,0.288606,20.6492,158.956,-0.3282,0.0,0.0
1260,314.75,93.5248,100.653,150.517,99.9241,105.223,0.00171547,0.287793,20.6497,158.556,-0.394816,0.0,0.0
1272,317.75,93.5357,100.629,152.204,99.8263,103.296,0.00164857,0.286545,20.6529,158.246,-0.261119,0.0,0.0
1284,320.75,92.977,99.7513,150.028,99.7448,104.521,0.00172809,0.284604,20.6558,157.986,-0.357423,0.0,0.0
1296,323.75,92.9065,99.9551,150.652,99.6826,104.536,0.00182132,0.282093,20.6573,157.595,-0.363256,0.0,0.0
1308,326.75,93.1034,100.461,150.326,99.6271,105.291,0.00183181,0.277305,20.6616,157.295,-0.422514,0.0,0.0
1320,329.75,93.0447,100.12,153.452,99.5713,103.525,0.00187215,0.27796,20.6652,157.035,-0.297587,0.0,0.0
1332,332.75,93.2008,99.8502,151.643,99.5392,105.107,0.00182002,0.281981,20.6622,156.604,-0.415929,0.0,0.0
1344,335.75,92.7978,99.9535,154.191,99.5072,105.226,0.00171729,0.282162,20.6605,156.324,-0.427007,0.0,0.0
1356,338.75,93.1167,99.8235,157.955,99.4695,104.133,0.00176033,0.279615,20.661,156.054,-0.350106,0.0,0.0
1368,341.75,93.1389,99.3338,151.54,99.4347,103.663,0.00183634,0.278239,20.6637,155.753,-0.318262,0.0,0.0
1380,344.75,92.9975,100.244,157.286,99.4268,103.483,0.00183988,0.276898,20.6652,155.423,-0.30557,0.0,0.0
1392,347.75,92.5762,99.4756,151.792,99.5666,103.357,0.00188565,0.276236,20.6664,155.103,-0.285474,0.0,0.0
1404,350.75,92.5893,99.4945,153.216,99.6893,103.077,0.00185007,0.276046,20.6673,154.793,-0.255377,0.0,0.0
1416,353.75,92.7933,99.5092,155.176,99.7875,104.277,0.00167608,0.275632,20.6676,154.462,-0.336315,0.0,0.0
1428,356.75,92.3175,99.204,151.449,99.9123,105.117,0.00167711,0.273704,20.67,154.102,-0.388054,0.0,0.0
1440,359.75,92.5329,99.1039,152.619,100.008,105.588,0.00166632,0.272202,20.6725,153.792,-0.41489,0.0,0.0
1452,362.75,92.5096,99.4237,156.206,100.067,105.918,0.00167343,0.271745,20.6732,153.491,-0.434237,0.0,0.0
1464,365.75,92.3338,99.4681,152.588,100.12,105.94,0.00181189,0.271745,20.6734,153.161,-0.431825,0.0,0.0
1476,368.75,92.3138,99.2824,155.642,100.176,103.938,0.00188569,0.273539,20.6723,152.851,-0.281679,0.0,0.0
1488,371.75,92.423,99.258,152.162,100.227,105.491,0.00172146,0.273496,20.6715,152.551,-0.39112,0.0,0.0
1500,374.75,92.5124,99.0599,148.707,100.26,105.632,0.00169856,0.273807,20.6712,152.29,-0.398813,0.0,0.0
1512,377.75,92.3062,99.0446,151.892,100.283,105.335,0.00180239,0.272777,20.6711,151.98,-0.375562,0.0,0.0
1524,380.75,92.3956,98.8171,159.803,100.286,104.963,0.00177218,0.273034,20.6712,151.73,-0.348261,0.0,0.0
1536,383.75,91.792,98.7686,156.628,100.269,104.989,0.00163395,0.272934,20.6716,151.419,-0.351481,0.0,0.0
1548,386.75,91.8282,98.6478,158.356,100.24,105.034,0.00177657,0.272716,20.6717,151.039,-0.356993,0.0,0.0
1560,389.75,91.6195,98.149,152.996,100.165,104.62,0.00185719,0.272009,20.6734,150.749,-0.332541,0.0,0.0
1572,392.75,91.2809,98.0513,154.145,100.052,103.922,0.00178562,0.271956,20.6739,150.429,-0.289976,0.0,0.0
1584,395.75,91.4472,97.7788,155.964,99.9087,104.242,0.00195814,0.271245,20.6741,150.148,-0.324423,0.0,0.0
1596,398.75,91.4138,98.3248,149.657,99.8283,106.168,0.00196468,0.268527,20.6741,149.808,-0.470486,0.0,0.0
1608,401.75,91.4698,97.9466,155.468,99.9119,102.968,0.00184083,0.271805,20.6741,149.488,-0.230265,0.0,0.0
1620,404.75,91.3801,97.791,152.975,100.007,105.762,0.00181893,0.273564,20.6732,149.227,-0.427517,0.0,0.0
1632,407.75,91.1701,98.1034,156.541,100.142,103.761,0.00175243,0.273769,20.6705,148.907,-0.271312,0.0,0.0
1644,410.75,91.38,97.7147,157.346,100.255,104.609,0.00159021,0.273914,20.6697,148.557,-0.324826,0.0,0.0
1656,413.75,91.1966,98.0962,159.536,100.353,104.424,0.00148711,0.275467,20.6684,148.287,-0.303867,0.0,0.0
1668,416.75,91.3977,98.2032,157.302,100.459,105.07,0.00155357,0.27228,20.6694,148.046,-0.342917,0.0,0.0
1680,419.75,91.2263,97.7548,152.658,100.538,104.981,0.00162782,0.272349,20.6727,147.696,-0.330455,0.0,0.0
1692,422.75,91.4894,98.3798,152.658,100.595,105.273,0.0015933,0.275974,20.671,147.396,-0.347312,0.0,0.0
1704,425.75,91.3981,98.2462,159.252,100.65,105.156,0.00162469,0.276607,20.6669,147.075,-0.334639,0.0,0.0
1716,428.75,91.2807,98.2228,155.399,100.701,103.79,0.00176439,0.274954,20.6687,146.765,-0.230916,0.0,0.0
1728,431.75,91.477,97.9142,155.15,100.71,105.885,0.00180006,0.276327,20.6714,146.435,-0.382909,0.0,0.0
1740,434.75,91.3247,98.4852,148.936,100.683,102.988,0.0018746,0.277262,20.6706,146.145,-0.172968,0.0,0.0
1752,437.75,91.4549,98.1825,149.384,100.665,105.791,0.00190886,0.278633,20.6702,145.834,-0.379534,0.0,0.0
1764,440.75,91.676,98.6146,153.134,100.629,105.687,0.00195645,0.279245,20.6677,145.524,-0.374729,0.0,0.0
1776,443.75,91.5523,98.3679,155.935,100.57,106.023,0.00175026,0.278122,20.6665,145.164,-0.403479,0.0,0.0
1788,446.75,91.3056,98.623,157.701,100.497,104.808,0.00160328,0.278129,20.6674,144.903,-0.320984,0.0,0.0
1800,449.75,91.6089,98.2865,152.671,100.441,104.365,0.00154238,0.278592,20.667,144.653,-0.292866,0.0,0.0
1812,452.75,91.4417,98.3015,152.707,100.376,103.675,0.00168308,0.278819,20.6634,144.353,-0.247102,0.0,0.0
1824,455.75,91.578,98.0093,157.987,100.275,104.921,0.00182807,0.278377,20.6624,144.003,-0.346062,0.0,0.0
1836,458.75,91.6615,97.9094,152.226,100.189,104.781,0.00175417,0.278973,20.6621,143.712,-0.342403,0.0,0.0
1848,461.75,91.2551,98.2104,150.083,100.089,103.553,0.00171523,0.278636,20.662,143.402,-0.260007,0.0,0.0
1860,464.75,91.2815,98.4289,155.557,99.9693,104.289,0.00162902,0.280524,20.662,143.062,-0.323242,0.0,0.0
1872,467.75,91.3959,98.1383,156.006,99.8438,103.488,0.00174792,0.281896,20.6604,142.762,-0.273949,0.0,0.0
1884,470.75,91.6146,98.2908,153.333,99.7131,104.443,0.00182743,0.282878,20.6598,142.391,-0.354149,0.0,0.0
1896,473.75,91.5307,98.3858,156.605,99.5907,102.67,0.00202826,0.282657,20.6595,142.121,-0.232658,0.0,0.0
1908,476.75,91.3567,98.7446,152.78,99.4842,102.85,0.00204407,0.283415,20.6618,141.831,-0.254242,0.0,0.0
1920,479.75,91.8053,98.7115,151.778,99.3983,102.806,0.00194411,0.284643,20.6624,141.55,-0.257587,0.0,0.0
1932,482.75,91.6406,98.8477,153.178,99.3187,102.66,0.0019603,0.285119,20.6599,141.23,-0.252836,0.0,0.0
1944,485.75,91.7348,98.4622,151.687,99.2347,103.8,0.00199454,0.285163,20.6585,140.94,-0.343696,0.0,0.0
1956,488.75,92.0719,98.6918,147.537,99.1484,103.396,0.00193512,0.286286,20.6581,140.62,-0.320517,0.0,0.0
1968,491.75,91.4332,98.8825,152.726,99.0878,101.554,0.00183048,0.286105,20.658,140.319,-0.187846,0.0,0.0
1980,494.75,91.6817,98.9401,148.754,99.009,102.881,0.00158242,0.285391,20.6579,139.959,-0.293124,0.0,0.0
1992,497.75,91.6215,98.9517,153.792,98.9591,100.721,0.0017025,0.287466,20.6571,139.649,-0.134827,0.0,0.0
2004,500.75,91.7397,99.0097,151.913,98.9183,103.366,0.00193091,0.28848,20.6541,139.318,-0.336109,0.0,0.0
2016,503.75,92.1201,98.9483,150.399,98.8636,102.444,0.00188279,0.289186,20.653,139.058,-0.27183,0.0,0.0
2028,506.75,92.0725,99.1031,154.491,98.8427,102.736,0.00184601,0.288925,20.6527,138.728,-0.295227,0.0,0.0
2040,509.75,91.6272,99.0265,154.403,98.807,101.179,0.00183928,0.289425,20.6534,138.397,-0.181248,0.0,0.0
2052,512.75,91.925,99.2432,155.009,98.8003,102.364,0.00184815,0.290955,20.651,138.147,-0.27079,0.0,0.0
2064,515.75,91.7745,99.4508,152.715,98.7864,102.845,0.00195454,0.290566,20.6499,137.737,-0.307666,0.0,0.0
2076,518.75,92.5335,99.5211,152.45,98.8138,103.048,0.00198162,0.291266,20.6497,137.497,-0.320621,0.0,0.0
2088,521.75,91.957,99.3689,151.221,98.8217,101.989,0.00205339,0.292072,20.6501,137.166,-0.241079,0.0,0.0
2100,524.75,92.2401,99.5947,153.278,98.8502,100.269,0.00237941,0.292658,20.6501,136.836,-0.108909,0.0,0.0
2112,527.75,92.5019,99.4162,150.935,98.8886,103.873,0.00243741,0.292838,20.6501,136.586,-0.375773,0.0,0.0
2124,530.75,92.4826,99.2958,152.677,98.9535,101.577,0.00204291,0.293383,20.6501,136.266,-0.199917,0.0,0.0
2136,533.75,91.9729,99.2896,152.744,98.9809,102.697,0.00193969,0.290398,20.6505,135.935,-0.28165,0.0,0.0
2148,536.75,92.3951,99.1423,151.953,99.0458,103.191,0.00201719,0.292311,20.6516,135.655,-0.313288,0.0,0.0
2160,539.75,92.2705,99.3376,156.627,99.0791,102.79,0.00192194,0.292888,20.6491,135.325,-0.280958,0.0,0.0
2172,542.75,92.0677,99.1248,158.13,99.1468,101.775,0.00205514,0.291095,20.649,135.014,-0.1999,0.0,0.0
2184,545.75,92.2917,98.8821,155.372,99.2331,103.189,0.00189261,0.292631,20.6501,134.724,-0.29873,0.0,0.0
2196,548.75,92.0795,99.1585,156.415,99.2442,104.25,0.00184205,0.293337,20.6488,134.424,-0.376011,0.0,0.0
2208,551.75,92.362,99.1797,155.228,99.3111,102.544,0.00192589,0.292122,20.6494,134.144,-0.244827,0.0,0.0
2220,554.75,92.22,99.0379,153.064,99.3701,102.613,0.00187352,0.292728,20.6496,133.813,-0.24537,0.0,0.0
2232,557.75,92.1519,99.0255,154.805,99.4224,103.954,0.00192216,0.291218,20.6496,133.513,-0.340606,0.0,0.0
2244,560.75,92.3933,99.2579,151.615,99.5123,102.665,0.00203465,0.290762,20.6512,133.193,-0.238315,0.0,0.0
2256,563.75,91.9264,99.0688,155.935,99.5677,102.562,0.00193329,0.292337,20.652,132.912,-0.226439,0.0,0.0
2268,566.75,92.1946,99.426,152.688,99.6113,102.728,0.00186566,0.292156,20.6509,132.642,-0.235429,0.0,0.0
2280,569.75,92.2542,99.0295,151.523,99.6608,104.052,0.00207959,0.292323,20.6506,132.282,-0.329465,0.0,0.0
2292,572.75,92.7972,99.5998,158.296,99.7135,102.436,0.00222138,0.292383,20.6505,132.002,-0.205819,0.0,0.0
2304,575.75,92.49,99.7241,153.353,99.7543,103.014,0.00203201,0.29131,20.6516,131.701,-0.245704,0.0,0.0
2316,578.75,92.3801,99.4955,152.354,99.7974,104.053,0.0016643,0.293253,20.6506,131.381,-0.319116,0.0,0.0
2328,581.75,92.354,99.2773,149.238,99.8453,103.938,0.00162249,0.292791,20.6496,131.051,-0.306974,0.0,0.0
2340,584.75,92.3016,99.7265,156.118,99.9055,103.209,0.00180207,0.290235,20.6511,130.73,-0.248568,0.0,0.0
2352,587.75,92.5555,99.637,153.357,99.8968,103.223,0.00199749,0.291878,20.6521,130.42,-0.250316,0.0,0.0
2364,590.75,92.299,99.5025,150.219,99.9503,103.154,0.00201922,0.293419,20.6495,130.13,-0.241056,0.0,0.0
2376,593.75,92.6759,99.7103,159.077,99.9677,103.225,0.00200527,0.293722,20.6481,129.88,-0.245016,0.0,0.0
2388,596.75,92.4917,99.7727,157.135,100.015,103.816,0.00203305,0.294238,20.6476,129.559,-0.285053,0.0,0.0
2400,599.75,92.8467,100.007,152.432,100.046,104.019,0.00210526,0.293449,20.6475,129.279,-0.297622,0.0,0.0
2412,602.75,93.1095,100.048,162.744,100.074,101.815,0.002276,0.293263,20.6475,128.949,-0.131799,0.0,0.0
2424,605.75,92.5588,99.2824,153.844,100.087,103.982,0.00238324,0.295419,20.6475,128.689,-0.291732,0.0,0.0
2436,608.75,93.0425,99.1308,153.833,100.08,104.388,0.00234688,0.294191,20.6458,128.368,-0.322027,0.0,0.0
2448,611.75,92.2777,99.3272,152.965,100.07,103.282,0.002304,0.292871,20.6467,128.058,-0.241387,0.0,0.0
2460,614.75,92.7347,99.8615,152.922,100.069,102.441,0.0022653,0.29354,20.6477,127.738,-0.178948,0.0,0.0
2472,617.75,92.7689,99.0994,153.667,100.045,103.699,0.00211564,0.29287,20.648,127.477,-0.274142,0.0,0.0
2484,620.75,92.507,99.5974,150.54,100.041,104.404,0.00217664,0.292658,20.6481,127.187,-0.32621,0.0,0.0
2496,623.75,92.4488,98.9717,157.331,100.02,104.924,0.00244249,0.291727,20.6488,126.867,-0.365758,0.0,0.0
2508,626.75,92.4688,99.0988,154.861,99.993,103.767,0.00238155,0.291381,20.65,126.607,-0.283131,0.0,0.0
2520,629.75,92.2566,98.6052,157.667,99.9808,103.274,0.00208576,0.292111,20.6503,126.316,-0.247624,0.0,0.0
2532,632.75,92.4241,99.321,152.512,99.9352,103.668,0.00190836,0.291319,20.6505,125.996,-0.280251,0.0,0.0
2544,635.75,91.851,98.7441,154.066,99.9182,104.438,0.00184668,0.290951,20.6519,125.716,-0.338088,0.0,0.0
2556,638.75,92.3992,98.6523,156.399,99.883,101.84,0.00173431,0.288439,20.6523,125.436,-0.148247,0.0,0.0
2568,641.75,92.5239,98.7945,157.402,99.8449,102.704,0.00192627,0.286879,20.6548,125.165,-0.215714,0.0,0.0
2580,644.75,92.0518,99.1632,156.842,99.8057,102.036,0.0021155,0.285776,20.6577,124.875,-0.168888,0.0,0.0
2592,647.75,91.9702,98.7092,155.078,99.7752,103.431,0.00195958,0.287038,20.6575,124.615,-0.274996,0.0,0.0
2604,650.75,91.8712,98.6177,151.417,99.7558,102.788,0.00198125,0.287746,20.6557,124.315,-0.228817,0.0,0.0
2616,653.75,92.1374,98.6137,156.905,99.696,102.447,0.00208338,0.287348,20.6551,124.004,-0.208002,0.0,0.0
2628,656.75,92.0156,98.3791,157.247,99.696,103.436,0.00208444,0.28517,20.6553,123.734,-0.281424,0.0,0.0
2640,659.75,92.1277,98.3195,154.06,99.6675,104.248,0.00205537,0.285298,20.6562,123.454,-0.343367,0.0,0.0
2652,662.75,91.6968,98.2514,155.002,99.6461,103.556,0.00197935,0.283639,20.6588,123.143,-0.294123,0.0,0.0
2664,665.75,91.7252,98.0611,156.492,99.6161,102.478,0.00200034,0.281653,20.6605,122.883,-0.216438,0.0,0.0
2676,668.75,91.7346,98.4329,150.675,99.5776,103.283,0.00202757,0.27895,20.6639,122.603,-0.279218,0.0,0.0
2688,671.75,91.516,98.1764,153.594,99.5919,102.583,0.00200681,0.280285,20.6654,122.293,-0.226158,0.0,0.0
2700,674.75,91.3241,98.0508,157.917,99.5725,103.91,0.00198586,0.281902,20.665,122.052,-0.325855,0.0,0.0
2712,677.75,91.5234,98.2396,158.233,99.5662,104.589,0.00193815,0.281484,20.6624,121.792,-0.376103,0.0,0.0
2724,680.75,91.8673,98.4862,151.375,99.5598,102.793,0.00210882,0.280953,20.6629,121.542,-0.244211,0.0,0.0
2736,683.75,91.3227,98.1007,157.65,99.5337,102.324,0.00225142,0.279799,20.6645,121.272,-0.211245,0.0,0.0
2748,686.75,91.6856,97.825,153.676,99.5305,102.791,0.00208749,0.280876,20.6645,121.001,-0.246339,0.0,0.0
2760,689.75,91.9996,97.4964,151.393,99.5412,104.378,0.00191419,0.280794,20.6638,120.681,-0.362577,0.0,0.0
2772,692.75,91.4348,97.7565,151.941,99.5036,103.473,0.00187374,0.277488,20.6649,120.431,-0.298949,0.0,0.0
2784,695.75,91.718,98.4075,155.433,99.5008,104.541,0.0018841,0.277248,20.6673,120.151,-0.377559,0.0,0.0
2796,698.75,91.6576,98.3559,155.559,99.4775,101.896,0.00181764,0.277357,20.667,119.84,-0.183597,0.0,0.0
2808,701.75,91.3779,97.839,152.244,99.4893,103.582,0.00178186,0.27875,20.6662,119.58,-0.308075,0.0,0.0
2820,704.75,91.4514,98.0356,156.989,99.4818,103.019,0.00170864,0.279418,20.6644,119.35,-0.266964,0.0,0.0
2832,707.75,91.6701,97.9651,153.641,99.4672,101.905,0.0017262,0.278895,20.6649,119.06,-0.184997,0.0,0.0
2844,710.75,91.4072,97.4826,147.619,99.4588,101.952,0.00167274,0.277394,20.6653,118.829,-0.189167,0.0,0.0
2856,713.75,91.1229,97.5902,152.889,99.4474,102.601,0.00173736,0.275977,20.6682,118.509,-0.238587,0.0,0.0
2868,716.75,91.0715,97.9217,155.707,99.458,103.415,0.00193835,0.276298,20.6696,118.319,-0.298128,0.0,0.0
2880,719.75,91.0214,97.1632,152.108,99.4446,102.367,0.00201254,0.27575,20.6701,117.979,-0.221362,0.0,0.0
2892,722.75,90.6139,97.5439,149.775,99.4295,102.436,0.00204989,0.274352,20.6702,117.768,-0.227609,0.0,0.0
2904,725.75,90.9237,97.9032,155.807,99.4351,103.266,0.00210606,0.275577,20.67,117.448,-0.288843,0.0,0.0
2916,728.75,91.4904,97.9251,153.494,99.4184,104.121,0.00196654,0.275876,20.6682,117.188,-0.353196,0.0,0.0
2928,731.75,91.1005,97.5591,159.189,99.4125,102.574,0.00195827,0.27775,20.6673,116.948,-0.23921,0.0,0.0
2940,734.75,91.0203,97.297,153.456,99.4089,101.65,0.00217161,0.279182,20.664,116.667,-0.170326,0.0,0.0
2952,737.75,91.1833,97.1782,151.006,99.3927,103.108,0.00232709,0.278067,20.6629,116.337,-0.280434,0.0,0.0
2964,740.75,91.0143,97.3351,157.256,99.3792,102.116,0.00235626,0.275318,20.6655,116.097,-0.20757,0.0,0.0
2976,743.75,91.1587,97.648,154.089,99.4161,103.537,0.0022301,0.274724,20.6684,115.897,-0.310349,0.0,0.0
2988,746.75,91.263,97.7023,155.377,99.4272,103.063,0.00206344,0.274102,20.6693,115.617,-0.274415,0.0,0.0
3000,749.75,91.0796,97.8418,151.769,99.4371,103.35,0.00214148,0.275127,20.6704,115.356,-0.294939,0.0,0.0
3012,752.75,91.0298,97.5456,154.478,99.4422,102.231,0.00223115,0.27718,20.6686,115.066,-0.211354,0.0,0.0
3024,755.75,91.1765,97.3607,147.805,99.4537,102.717,0.00212537,0.277418,20.6669,114.886,-0.246684,0.0,0.0
3036,758.75,91.2507,97.6768,160.058,99.4422,103.106,0.00197414,0.276655,20.6664,114.616,-0.27651,0.0,0.0
3048,761.75,91.1301,97.1456,158.2,99.4323,103.483,0.0021052,0.276409,20.6673,114.365,-0.305144,0.0,0.0
3060,764.75,90.898,97.5798,156.276,99.466,102.707,0.0021507,0.276773,20.6676,114.065,-0.245016,0.0,0.0
3072,767.75,90.8728,97.075,159.638,99.4715,102.696,0.00219302,0.275523,20.6661,113.775,-0.243744,0.0,0.0
3084,770.75,91.1332,97.6006,150.073,99.4838,102.265,0.00206725,0.273923,20.6663,113.525,-0.210708,0.0,0.0
3096,773.75,91.1208,97.6381,153.65,99.5432,101.947,0.00193426,0.271615,20.6671,113.304,-0.182324,0.0,0.0
3108,776.75,91.1172,96.9993,152.836,99.5765,102.127,0.00188396,0.268573,20.6725,113.064,-0.193272,0.0,0.0
3120,779.75,90.9329,97.4284,153.142,99.6054,103.946,0.00185674,0.274197,20.6748,112.814,-0.32596,0.0,0.0
3132,782.75,90.4038,97.098,155.676,99.6422,102.98,0.00187054,0.276276,20.6673,112.484,-0.251763,0.0,0.0
3144,785.75,90.7678,96.8382,157.837,99.6968,102.579,0.00194433,0.273878,20.6662,112.283,-0.217747,0.0,0.0
3156,788.75,90.8109,97.1379,159.668,99.7491,102.785,0.00202483,0.274001,20.6663,112.063,-0.229092,0.0,0.0
3168,791.75,90.7437,96.7847,150.067,99.8212,102.744,0.00199386,0.274036,20.6664,111.793,-0.220553,0.0,0.0
3180,794.75,90.2638,97.0594,151.972,99.8873,103.982,0.00197907,0.273581,20.6675,111.593,-0.306986,0.0,0.0
3192,797.75,90.4637,97.0889,156.052,99.9721,102.311,0.00208478,0.270326,20.6703,111.283,-0.176692,0.0,0.0
3204,800.75,90.3182,96.3658,155.359,100.056,103.43,0.00217801,0.269819,20.6742,111.102,-0.253433,0.0,0.0
3216,803.75,90.3608,95.8758,154.945,100.131,104.021,0.00213864,0.271118,20.6744,110.792,-0.291241,0.0,0.0
3228,806.75,90.1169,96.3979,158.834,100.181,102.21,0.00196983,0.270621,20.6741,110.562,-0.153203,0.0,0.0
3240,809.75,90.3329,96.467,161.584,100.227,102.9,0.00187413,0.268181,20.6748,110.332,-0.201161,0.0,0.0
3252,812.75,90.3883,96.6836,155.148,100.255,102.182,0.00196815,0.271407,20.6747,110.061,-0.145522,0.0,0.0
3264,815.75,89.9568,96.175,160.352,100.264,102.064,0.00188823,0.271667,20.6713,109.801,-0.135987,0.0,0.0
3276,818.75,89.7361,95.7639,156.772,100.234,102.145,0.00176707,0.271549,20.6697,109.561,-0.144328,0.0,0.0
3288,821.75,89.8305,95.5427,150.692,100.202,102.824,0.00176296,0.27044,20.6698,109.341,-0.197393,0.0,0.0
3300,824.75,89.9249,96.0507,154.122,100.149,103.218,0.00172386,0.26625,20.6707,109.111,-0.230714,0.0,0.0
3312,827.75,89.6502,95.8248,155.347,100.065,103.628,0.00165159,0.263345,20.6761,108.89,-0.267332,0.0,0.0
3324,830.75,89.6846,95.6317,154.564,99.98,102.881,0.00158447,0.263398,20.6784,108.7,-0.218547,0.0,0.0
3336,833.75,89.6407,95.5895,152.579,99.858,103.439,0.00188691,0.263358,20.6795,108.45,-0.26926,0.0,0.0
3348,836.75,89.4229,95.655,154.053,99.8354,102.728,0.00180729,0.262653,20.6799,108.2,-0.218254,0.0,0.0
3360,839.75,89.8771,95.5834,158.293,99.8925,103.896,0.00158521,0.262336,20.6798,107.959,-0.300264,0.0,0.0
3372,842.75,89.6755,95.5978,156.413,99.963,101.853,0.00183415,0.260824,20.6793,107.749,-0.143104,0.0,0.0
3384,845.75,89.3492,95.3923,155.852,100.054,102.387,0.00202268,0.259318,20.6793,107.499,-0.176099,0.0,0.0
3396,848.75,89.5669,95.4703,155.897,100.147,102.652,0.00203716,0.259253,20.6819,107.269,-0.188726,0.0,0.0
3408,851.75,89.154,95.2413,154.144,100.255,101.499,0.00190696,0.259119,20.6815,107.039,-0.0941864,0.0,0.0
3420,854.75,89.0953,94.6105,157.131,100.343,102.873,0.00175809,0.258037,20.6815,106.828,-0.19027,0.0,0.0
3432,857.75,89.5053,94.5196,158.184,100.448,102.441,0.00179287,0.257759,20.6832,106.628,-0.150094,0.0,0.0
3444,860.75,88.6625,94.5218,153.004,100.545,102.782,0.00185288,0.254133,20.6837,106.448,-0.168085,0.0,0.0
3456,863.75,89.1171,94.0555,153.921,100.615,102.101,0.00182719,0.249947,20.6873,106.258,-0.112059,0.0,0.0
3468,866.75,88.3034,94.2777,155.462,100.651,104.631,0.00184146,0.247013,20.6908,106.078,-0.296393,0.0,0.0
3480,869.75,88.9877,93.5727,157.523,100.706,105.033,0.00185499,0.245473,20.6936,105.847,-0.321456,0.0,0.0
3492,872.75,88.766,93.6639,158.356,100.719,103.512,0.00169435,0.245117,20.6945,105.647,-0.209089,0.0,0.0
3504,875.75,88.5751,93.4042,158.685,100.722,102.319,0.00170718,0.242369,20.6956,105.457,-0.120183,0.0,0.0
3516,878.75,88.2125,93.0378,155.009,100.704,102.913,0.0018131,0.238395,20.6972,105.297,-0.16583,0.0,0.0
3528,881.75,87.6525,92.941,156.294,100.66,104.502,0.00197586,0.233907,20.7026,105.147,-0.286236,0.0,0.0
3540,884.75,87.8844,92.5369,158.47,100.613,104.284,0.0020379,0.2278,20.7057,104.987,-0.273824,0.0,0.0
3552,887.75,87.4598,92.6899,158.695,100.545,104.672,0.00194592,0.220438,20.7134,104.857,-0.307389,0.0,0.0
3564,890.75,87.5332,91.4183,160.436,100.437,103.868,0.00206025,0.215175,20.7218,104.736,-0.256722,0.0,0.0
3576,893.75,86.6374,90.8748,161.299,100.332,103.951,0.0020637,0.210339,20.7269,104.636,-0.270772,0.0,0.0
3588,896.75,85.93,90.2948,162.418,100.208,102.773,0.00187648,0.199431,20.7329,104.596,-0.193167,0.0,0.0
3600,899.75,85.5153,89.7016,159.382,100.067,104.774,0.00184937,0.187156,20.746,104.526,-0.351268,0.0,0.0
3612,902.75,85.5223,89.0517,161.671,99.9024,104.862,0.00220916,0.175136,20.7595,104.446,-0.370252,0.0,0.0
3624,905.75,85.0175,88.364,161.106,99.7408,103.433,0.00245442,0.163959,20.774,104.366,-0.277754,0.0,0.0
3636,908.75,84.7267,87.8147,163.931,99.5915,103.81,0.00255866,0.154969,20.7858,104.316,-0.316988,0.0,0.0
3648,911.75,84.2412,87.1505,157.883,99.4287,101.5,0.00271564,0.146831,20.7973,104.206,-0.157564,0.0,0.0
3660,914.75,83.86,86.8448,161.029,99.2985,102.158,0.00266631,0.141757,20.806,104.156,-0.216944,0.0,0.0
3672,917.75,83.5222,86.0706,157.764,99.1749,103.43,0.00270409,0.136432,20.8128,104.096,-0.320993,0.0,0.0
3684,920.75,82.948,85.5735,161.335,99.0759,104.847,0.00282567,0.132452,20.821,104.026,-0.432666,0.0,0.0
3696,923.75,83.0366,85.1778,161.867,98.9935,103.847,0.00311723,0.129789,20.8264,103.946,-0.365756,0.0,0.0
3708,926.75,82.5125,85.0238,160.485,98.9357,101.752,0.0032327,0.129922,20.8294,103.906,-0.214477,0.0,0.0
3720,929.75,82.1987,84.5544,162.759,98.883,102.302,0.00333926,0.129024,20.8303,103.876,-0.259783,0.0,0.0
3732,932.75,81.8931,84.8116,164.797,98.8652,102.884,0.00329495,0.127997,20.8307,103.836,-0.304468,0.0,0.0
3744,935.75,81.6898,84.0093,161.492,98.8767,103.508,0.0030671,0.126874,20.8307,103.806,-0.349761,0.0,0.0
3756,938.75,81.3685,83.8003,162.628,98.9341,104.378,0.00314599,0.125736,20.8315,103.766,-0.409323,0.0,0.0
3768,941.75,80.7458,83.8147,162.925,98.9987,103.045,0.00339828,0.124508,20.833,103.706,-0.306093,0.0,0.0
3780,944.75,80.6771,83.2792,163.18,99.0977,102.38,0.00346306,0.123492,20.8342,103.665,-0.249035,0.0,0.0
3792,947.75,80.3406,83.1744,162.504,99.1991,102.96,0.00361815,0.121993,20.8367,103.595,-0.284376,0.0,0.0
3804,950.75,80.5264,82.9475,165.919,99.3345,103.041,0.00371564,0.122016,20.8376,103.525,-0.279975,0.0,0.0
3816,953.75,80.2323,83.0516,161.375,99.4652,104.091,0.00379137,0.121292,20.8373,103.485,-0.347341,0.0,0.0
3828,956.75,79.877,82.4287,163.717,99.6224,103.246,0.00380963,0.120814,20.8387,103.425,-0.27302,0.0,0.0
3840,959.75,79.7753,82.1827,161.773,99.7396,102.247,0.00392918,0.120078,20.8387,103.365,-0.189749,0.0,0.0
3852,962.75,79.9054,82.317,161.977,99.8556,104.732,0.00421317,0.119762,20.8385,103.325,-0.364353,0.0,0.0
3864,965.75,79.4539,82.0976,167.486,99.9784,105.198,0.0043821,0.119559,20.838,103.245,-0.388898,0.0,0.0
3876,968.75,79.4171,82.2672,168.636,100.043,103.899,0.00427388,0.11933,20.8392,103.195,-0.28903,0.0,0.0
3888,971.75,79.7149,82.3271,159.027,100.116,104.331,0.00408414,0.121056,20.8388,103.185,-0.315113,0.0,0.0
3900,974.75,79.1145,82.0889,160.903,100.16,102.426,0.00423681,0.122735,20.8379,103.145,-0.170936,0.0,0.0
3912,977.75,79.6034,82.6744,162.687,100.152,103.386,0.0044236,0.123088,20.8363,103.145,-0.242816,0.0,0.0
3924,980.75,79.0585,81.9136,164.797,100.117,103.472,0.00470567,0.122345,20.8376,103.115,-0.251866,0.0,0.0
3936,983.75,79.2868,82.3892,167.455,100.045,103.777,0.00478724,0.120931,20.8394,103.005,-0.279885,0.0,0.0
3948,986.75,79.1848,82.0692,161.357,99.9594,104.253,0.00468304,0.118976,20.8409,102.965,-0.32138,0.0,0.0
3960,989.75,79.0068,82.0213,164.261,99.8382,105.031,0.00465309,0.117745,20.8432,102.915,-0.38746,0.0,0.0
3972,992.75,78.9505,81.7189,160.276,99.7261,102.483,0.00467705,0.116518,20.8454,102.865,-0.20836,0.0,0.0
3984,995.75,78.3315,81.5802,162.741,99.6307,103.753,0.00482032,0.115724,20.846,102.815,-0.309795,0.0,0.0
3996,998.75,78.3443,81.3894,161.945,99.5539,103.85,0.0051811,0.116524,20.8461,102.775,-0.322863,0.0,0.0
4008,1001.75,78.5591,81.6702,162.414,99.4933,102.884,0.00521499,0.11752,20.8453,102.745,-0.256076,0.0,0.0
4020,1004.75,78.2827,81.2231,162,99.6097,103.118,0.00490579,0.117547,20.8447,102.695,-0.264491,0.0,0.0
4032,1007.75,78.3807,81.2975,164.183,99.8564,104.477,0.00496588,0.117018,20.8446,102.675,-0.345666,0.0,0.0
4044,1010.75,77.8757,80.8139,163.878,100.069,104.932,0.00529722,0.115745,20.845,102.615,-0.362629,0.0,0.0
4056,1013.75,77.8255,80.8849,160.717,100.222,105.609,0.00542141,0.115027,20.8463,102.615,-0.400096,0.0,0.0
4068,1016.75,77.1797,80.9852,163.181,100.306,104.67,0.00531297,0.114613,20.8467,102.605,-0.32544,0.0,0.0
4080,1019.75,77.9232,81.0973,164.777,100.338,103.763,0.00548592,0.114869,20.8482,102.544,-0.256428,0.0,0.0
4092,1022.75,77.7141,80.8739,168.647,100.301,103.477,0.0057311,0.113972,20.8492,102.494,-0.238214,0.0,0.0
4104,1025.75,77.6868,80.8261,166.343,100.249,104.571,0.00564257,0.113994,20.8506,102.394,-0.32255,0.0,0.0
4116,1028.75,77.6944,80.686,163.686,100.113,104.16,0.00571862,0.114045,20.851,102.374,-0.302885,0.0,0.0
4128,1031.75,77.5306,80.3572,168.455,99.9115,104.815,0.00573571,0.113832,20.8502,102.304,-0.366123,0.0,0.0
4140,1034.75,77.7044,80.5649,159.923,99.9198,102.715,0.00575271,0.113867,20.8506,102.314,-0.210834,0.0,0.0
4152,1037.75,76.9795,80.3872,161.29,100.031,104.138,0.00596653,0.113924,20.851,102.234,-0.307476,0.0,0.0
4164,1040.75,77.1998,80.3813,164.777,100.161,104.899,0.00640061,0.114473,20.8496,102.224,-0.353189,0.0,0.0
4176,1043.75,76.7929,80.595,166.697,100.3,105.356,0.00682312,0.115,20.849,102.164,-0.375826,0.0,0.0
4188,1046.75,77.3443,80.5359,159.77,100.424,104.466,0.00702045,0.114877,20.8489,102.184,-0.301531,0.0,0.0
4200,1049.75,76.8501,80.3024,161.302,100.539,103.331,0.00723281,0.114985,20.8489,102.164,-0.209271,0.0,0.0
4212,1052.75,76.9336,79.7201,166.992,100.644,103.88,0.00736394,0.114383,20.8489,102.094,-0.241757,0.0,0.0
4224,1055.75,76.8649,80.2257,165.127,100.708,105,0.00719546,0.113419,20.8497,102.064,-0.318942,0.0,0.0
4236,1058.75,77.2686,79.9674,163.239,100.75,105.517,0.00710262,0.112789,20.8507,101.944,-0.353222,0.0,0.0
4248,1061.75,76.5666,79.8218,161.164,100.774,106.572,0.00724304,0.112657,20.8527,101.964,-0.427462,0.0,0.0
4260,1064.75,76.4763,79.7715,164.168,100.756,104.979,0.0073296,0.113217,20.8522,101.924,-0.31374,0.0,0.0
4272,1067.75,77.0447,79.8679,159.968,100.708,105.413,0.00718854,0.11316,20.8512,101.954,-0.348875,0.0,0.0
4284,1070.75,76.7393,79.7478,163.677,100.662,104.757,0.00722877,0.112788,20.8503,101.814,-0.304678,0.0,0.0
4296,1073.75,76.5416,80.0227,160.349,100.579,106.233,0.00743723,0.112393,20.8514,101.864,-0.417903,0.0,0.0
4308,1076.75,76.5956,79.9955,161.256,100.45,106.166,0.00788809,0.113165,20.8515,101.794,-0.422956,0.0,0.0
4320,1079.75,76.8139,79.9549,164.847,100.327,104.783,0.00812879,0.112391,20.852,101.834,-0.332048,0.0,0.0
4332,1082.75,76.3694,79.7726,165.796,100.195,104.277,0.00803793,0.111322,20.8522,101.724,-0.305174,0.0,0.0
4344,1085.75,76.1355,79.7106,163.502,100.063,103.384,0.00817235,0.1119,20.8522,101.774,-0.249528,0.0,0.0
4356,1088.75,76.3555,79.6835,162.662,99.8845,106.087,0.00834015,0.111503,20.8522,101.784,-0.460336,0.0,0.0
4368,1091.75,76.2065,79.4963,165.147,99.7396,103.543,0.00851138,0.11211,20.853,101.704,-0.286,0.0,0.0
4380,1094.75,75.9713,79.6427,165.142,99.5875,102.89,0.00877891,0.111997,20.8534,101.654,-0.249324,0.0,0.0
4392,1097.75,75.8631,79.0387,161.68,99.4569,104.315,0.00867809,0.111424,20.853,101.614,-0.364416,0.0,0.0
4404,1100.75,75.7994,79.3014,161.88,99.3392,102.879,0.00855902,0.111295,20.8534,101.554,-0.267555,0.0,0.0
4416,1103.75,76.0918,79.3186,167.119,99.2264,103.274,0.0087145,0.110136,20.8535,101.493,-0.3055,0.0,0.0
4428,1106.75,75.7004,79.2365,162.52,99.1408,105.359,0.00879146,0.109697,20.8542,101.473,-0.464854,0.0,0.0
4440,1109.75,75.7632,79.1411,164.438,99.0466,103.181,0.00885059,0.110337,20.8554,101.433,-0.312505,0.0,0.0
4452,1112.75,75.5872,78.8119,162.513,98.9571,104.193,0.00909258,0.110309,20.855,101.413,-0.393983,0.0,0.0
4464,1115.75,75.7164,78.6587,166.398,98.9377,102.382,0.00964243,0.109869,20.8559,101.333,-0.261503,0.0,0.0
4476,1118.75,75.5902,78.9198,165.094,98.9207,104.469,0.00996618,0.109,20.8566,101.333,-0.417019,0.0,0.0
4488,1121.75,75.6999,78.7117,165.683,98.925,103.923,0.00967844,0.108655,20.8583,101.293,-0.376662,0.0,0.0
4500,1124.75,75.4885,78.9335,160.578,98.9377,102.27,0.00964368,0.108451,20.8587,101.263,-0.253134,0.0,0.0
4512,1127.75,75.3895,78.8318,163.129,98.9622,102.957,0.00986038,0.108746,20.8589,101.223,-0.302398,0.0,0.0
4524,1130.75,75.5613,78.9206,168.944,98.9987,102.89,0.0100144,0.108391,20.8589,101.203,-0.294642,0.0,0.0
4536,1133.75,75.4581,78.9727,162.379,99.0201,104.744,0.0102328,0.108708,20.8589,101.183,-0.429395,0.0,0.0
4548,1136.75,75.5947,78.5358,163.912,99.0652,102.674,0.0102763,0.108442,20.8592,101.183,-0.273449,0.0,0.0
4560,1139.75,75.6007,78.6025,164.781,99.146,103.628,0.0101292,0.108189,20.86,101.123,-0.337846,0.0,0.0
4572,1142.75,75.1377,78.6914,164.685,99.1753,104.427,0.010147,0.108005,20.8588,101.073,-0.394284,0.0,0.0
4584,1145.75,74.8372,78.4919,162.493,99.2307,102.679,0.0102496,0.107459,20.8582,101.003,-0.261054,0.0,0.0
4596,1148.75,74.763,78.5555,162.735,99.2909,101.965,0.0104669,0.106773,20.8596,100.963,-0.203052,0.0,0.0
4608,1151.75,74.7314,78.187,164.328,99.3191,104.424,0.0107605,0.106812,20.8601,100.913,-0.382978,0.0,0.0
4620,1154.75,74.5594,77.9396,163.634,99.3495,103.909,0.0110183,0.107318,20.8602,100.893,-0.342865,0.0,0.0
4632,1157.75,74.6927,78.263,161.993,99.3777,104.817,0.0110391,0.107188,20.8611,100.833,-0.407178,0.0,0.0
4644,1160.75,74.7009,78.351,164.758,99.4323,104.903,0.0110898,0.10615,20.8616,100.753,-0.40925,0.0,0.0
4656,1163.75,74.7844,78.1831,164.302,99.4664,104.768,0.0114316,0.106854,20.8623,100.753,-0.396808,0.0,0.0
4668,1166.75,74.5958,78.2316,165.119,99.4846,102.946,0.0116982,0.107635,20.8609,100.743,-0.261328,0.0,0.0
4680,1169.75,74.5887,77.9894,166.167,99.5151,104.289,0.0119932,0.107388,20.8604,100.753,-0.35804,0.0,0.0
4692,1172.75,74.5579,78.139,161.596,99.565,104.034,0.012235,0.107189,20.8587,100.693,-0.335504,0.0,0.0
4704,1175.75,74.2177,77.8335,161.298,99.5852,104.399,0.0121355,0.106565,20.8597,100.703,-0.360748,0.0,0.0
4716,1178.75,74.487,78.0773,165.253,99.6113,103.318,0.0121217,0.105926,20.8618,100.683,-0.279158,0.0,0.0
4728,1181.75,74.5851,77.9725,164.565,99.6224,103.888,0.0126134,0.10532,20.8624,100.563,-0.320354,0.0,0.0
4740,1184.75,74.0327,77.4199,161.938,99.6299,104.579,0.012851,0.105229,20.8625,100.553,-0.370499,0.0,0.0
4752,1187.75,74.81,77.9991,163.294,99.6588,103.964,0.0127535,0.105229,20.8626,100.473,-0.323173,0.0,0.0
4764,1190.75,74.5814,78.0472,166.152,99.6402,103.733,0.0124582,0.10426,20.8626,100.483,-0.30763,0.0,0.0
4776,1193.75,74.0806,77.4856,165.567,99.6366,103.131,0.0124411,0.104147,20.8639,100.433,-0.263388,0.0,0.0
4788,1196.75,74.2514,77.5098,164.86,99.6509,103.383,0.0126672,0.10448,20.8642,100.372,-0.280924,0.0,0.0
4800,1199.75,73.8504,77.2855,163.634,99.6426,105.7,0.0128578,0.104486,20.8638,100.342,-0.450976,0.0,0.0
4812,1202.75,73.8472,77.4435,163.75,99.6422,103.956,0.0130841,0.104446,20.8636,100.322,-0.323851,0.0,0.0
4824,1205.75,73.7752,77.1188,164.898,99.6446,104.622,0.0132563,0.104391,20.8641,100.362,-0.37246,0.0,0.0
4836,1208.75,74.0028,77.2143,167.122,99.6564,103.995,0.0132074,0.104342,20.8646,100.342,-0.325623,0.0,0.0
4848,1211.75,73.695,77.2297,163.167,99.6315,103.584,0.0132193,0.104124,20.8651,100.292,-0.297283,0.0,0.0
4860,1214.75,73.6604,76.8401,164.643,99.6327,103.779,0.0132887,0.103613,20.8653,100.262,-0.311557,0.0,0.0
4872,1217.75,73.579,76.9276,165.081,99.6109,104.459,0.013449,0.102956,20.8666,100.182,-0.36317,0.0,0.0
4884,1220.75,73.681,77.0768,171.302,99.6327,104.328,0.0134674,0.102829,20.8672,100.102,-0.351871,0.0,0.0
4896,1223.75,73.7378,77.021,164.557,99.6089,104.281,0.0134957,0.103192,20.8659,100.112,-0.350242,0.0,0.0
4908,1226.75,73.6703,77.0262,166.242,99.5974,103.68,0.0137636,0.104137,20.8639,100.022,-0.306962,0.0,0.0
4920,1229.75,73.5312,76.3593,166.465,99.6018,104.461,0.0139195,0.102918,20.8645,100.042,-0.363988,0.0,0.0
4932,1232.75,73.3326,76.7247,163.999,99.58,103.996,0.0139379,0.102881,20.8659,99.9421,-0.331605,0.0,0.0
4944,1235.75,73.4934,76.5287,167.003,99.5602,104.193,0.0140229,0.102223,20.8669,99.9421,-0.347551,0.0,0.0
4956,1238.75,73.0611,76.6506,161.065,99.5614,103.141,0.0140755,0.102498,20.8672,99.9421,-0.269882,0.0,0.0
4968,1241.75,73.4911,76.5161,162.28,99.5563,104.143,0.0140892,0.102762,20.8673,99.922,-0.344161,0.0,0.0
4980,1244.75,73.1259,76.8276,163.556,99.5515,104.469,0.0140228,0.103118,20.8673,99.9421,-0.368442,0.0,0.0
4992,1247.75,73.2606,76.5022,162.628,99.5274,104.407,0.0141125,0.10395,20.8667,99.842,-0.36578,0.0,0.0
5004,1250.75,73.0998,76.8918,163.293,99.5301,103.348,0.0141719,0.103329,20.8654,99.832,-0.28767,0.0,0.0
5016,1253.75,73.2265,76.3572,168.625,99.5147,104.407,0.0141467,0.102528,20.8655,99.822,-0.366753,0.0,0.0
5028,1256.75,73.3569,76.548,165.678,99.4925,103.254,0.0142222,0.101945,20.8656,99.7619,-0.283591,0.0,0.0
5040,1259.75,73.2808,76.296,164.947,99.4897,103.875,0.014492,0.102637,20.8656,99.7018,-0.329581,0.0,0.0
5052,1262.75,72.6336,76.2982,165.414,99.4897,104.096,0.0147384,0.102468,20.8656,99.5917,-0.345812,0.0,0.0
5064,1265.75,73.115,76.03,160.026,99.4624,104.253,0.0147497,0.10251,20.8659,99.5417,-0.359468,0.0,0.0
5076,1268.75,73.1724,76.099,163.098,99.4438,104.312,0.0145246,0.101731,20.8674,99.5817,-0.365182,0.0,0.0
5088,1271.75,72.6917,76.6876,165.578,99.4038,103.732,0.0143655,0.101871,20.8678,99.5117,-0.325663,0.0,0.0
5100,1274.75,72.9507,76.5391,167.835,99.3931,104.224,0.0143769,0.102605,20.8671,99.4816,-0.362651,0.0,0.0
5112,1277.75,72.6948,76.5827,163.888,99.3769,104.428,0.0144501,0.103115,20.8646,99.4816,-0.378888,0.0,0.0
5124,1280.75,72.9024,76.4242,168.288,99.34,104.027,0.0145051,0.102963,20.865,99.4916,-0.35231,0.0,0.0
5136,1283.75,72.9029,76.5949,164.853,99.2977,103.318,0.014681,0.102865,20.8661,99.5317,-0.303256,0.0,0.0
5148,1286.75,71.7617,75.4996,168.272,99.26,101.823,0.014913,0.10284,20.8664,99.4916,-0.194833,0.0,0.0
5160,1289.75,72.1594,75.7912,165.108,99.2006,102.514,0.0147641,0.101898,20.8665,99.4316,-0.251033,0.0,0.0
5172,1292.75,71.7575,75.3918,164.756,99.1678,104.284,0.0146138,0.101842,20.8677,99.4416,-0.384399,0.0,0.0
5184,1295.75,71.7828,75.4911,166.827,99.1302,103.332,0.0145084,0.101672,20.8679,99.3015,-0.317239,0.0,0.0
5196,1298.75,72.0506,75.6678,167.034,99.0616,102.022,0.0144362,0.101303,20.8694,99.2714,-0.224978,0.0,0.0
5208,1301.75,71.724,75.6614,161.509,98.9991,102.408,0.0146958,0.102074,20.8701,99.2114,-0.258703,0.0,0.0
5220,1304.75,72.002,75.0719,163.117,98.9856,102.812,0.0148424,0.102391,20.8687,99.1814,-0.289859,0.0,0.0
5232,1307.75,72.0043,75.2385,163.812,98.9357,102.239,0.0148483,0.101814,20.8682,99.1613,-0.250981,0.0,0.0
5244,1310.75,71.2208,75.0534,163.06,98.9147,102.942,0.0145134,0.100767,20.8691,99.0813,-0.304983,0.0,0.0
5256,1313.75,71.9513,75.1723,164.926,98.8969,102.541,0.0142382,0.100546,20.87,99.0913,-0.276524,0.0,0.0
5268,1316.75,71.869,75.7574,162.847,98.9013,102.864,0.0143118,0.101851,20.8702,99.0913,-0.300235,0.0,0.0
5280,1319.75,71.6012,74.9206,166.239,98.9135,103.896,0.0146834,0.102615,20.8703,99.0913,-0.375518,0.0,0.0
5292,1322.75,71.976,75.5046,165.44,98.9314,104.008,0.015035,0.102705,20.8677,99.0813,-0.382379,0.0,0.0
5304,1325.75,71.9457,75.4862,164.308,98.944,103.332,0.0152156,0.103234,20.867,99.0312,-0.3316,0.0,0.0
5316,1328.75,71.7917,75.3254,166.678,98.9587,102.28,0.0153938,0.103264,20.8667,99.0212,-0.252241,0.0,0.0
5328,1331.75,71.946,75.3433,166.787,98.984,102.22,0.0154861,0.102672,20.8667,98.8911,-0.245794,0.0,0.0
5340,1334.75,71.5202,75.5177,164.184,99.0189,104.276,0.0153486,0.102617,20.8669,98.791,-0.395285,0.0,0.0
5352,1337.75,71.5144,75.3729,166.93,99.0521,104.302,0.0151759,0.102415,20.8679,98.781,-0.394623,0.0,0.0
5364,1340.75,71.7993,75.2824,167.9,99.0977,103.361,0.0150027,0.102483,20.8687,98.781,-0.321904,0.0,0.0
5376,1343.75,71.6422,75.7741,164.495,99.1694,104.412,0.0150125,0.102625,20.8683,98.7209,-0.393672,0.0,0.0
5388,1346.75,71.8016,75.2404,163.492,99.2244,103.175,0.0148911,0.102927,20.8668,98.7109,-0.298318,0.0,0.0
5400,1349.75,71.7219,75.2322,171.408,99.2977,104.139,0.0148145,0.102975,20.8655,98.6609,-0.363797,0.0,0.0
5412,1352.75,71.9128,75.1828,167.097,99.3856,104.789,0.0148964,0.103093,20.8651,98.6609,-0.404556,0.0,0.0
5424,1355.75,71.0542,75.2289,168.999,99.4624,104.125,0.0149639,0.102407,20.8667,98.6709,-0.350057,0.0,0.0
5436,1358.75,71.4163,75.2796,166.391,99.5856,103.901,0.014942,0.102557,20.8671,98.6309,-0.324135,0.0,0.0
5448,1361.75,71.5807,75.316,162.201,99.6743,104.17,0.0151659,0.102765,20.8657,98.7109,-0.337135,0.0,0.0
5460,1364.75,71.7053,75.4673,163.365,99.7578,104.263,0.0151488,0.102041,20.8654,98.6409,-0.337519,0.0,0.0
5472,1367.75,71.5044,75.3585,162.47,99.8446,104.115,0.0151313,0.102296,20.8668,98.5508,-0.320039,0.0,0.0
5484,1370.75,71.5728,75.2209,164.637,99.9301,105.023,0.0150444,0.102005,20.8672,98.4607,-0.37984,0.0,0.0
5496,1373.75,71.4212,75.2844,162.216,100.022,104.961,0.0149867,0.10257,20.8673,98.4006,-0.368327,0.0,0.0
5508,1376.75,71.5387,75.0657,165.54,100.09,104.537,0.0149169,0.102511,20.8672,98.4207,-0.332231,0.0,0.0
5520,1379.75,71.4014,74.9229,160.557,100.18,104.636,0.0147244,0.101507,20.8678,98.3706,-0.33258,0.0,0.0
5532,1382.75,70.7755,74.479,164.348,100.272,105.307,0.0146641,0.101951,20.8681,98.2905,-0.374404,0.0,0.0
5544,1385.75,71.355,74.9964,167.375,100.31,105.543,0.0148444,0.102951,20.867,98.3005,-0.388577,0.0,0.0
5556,1388.75,71.1019,75.1553,164.21,100.361,105.726,0.0151388,0.102728,20.8655,98.2205,-0.397962,0.0,0.0
5568,1391.75,71.4144,75.081,165.35,100.426,105.656,0.0150824,0.10244,20.8665,98.2305,-0.387969,0.0,0.0
5580,1394.75,71.0581,75.0453,166.881,100.481,105.05,0.0149744,0.102955,20.8668,98.1704,-0.339873,0.0,0.0
5592,1397.75,71.232,75.2483,164.853,100.555,105.731,0.0148881,0.102414,20.8669,98.1704,-0.383524,0.0,0.0
5604,1400.75,71.2553,74.8703,166.807,100.573,104.536,0.0149085,0.10204,20.8682,98.2405,-0.295316,0.0,0.0
5616,1403.75,70.9284,75.0403,166.654,100.617,105.331,0.0150494,0.102538,20.8685,98.2205,-0.34993,0.0,0.0
5619,1404.5,71.2922,74.6761,163.357,100.604,106.402,0.0150745,0.102646,20.8681,98.1204,-0.428147,0.0,0.0