File: 01_Data/Particleboard/Cone/Particleboard_Cone_HF25Scan_230705_R4.csv
Names,Time,Stack TC,Smoke TC,Exh Press,Smoke Comp,Smoke Meas,CO Meter,CO2 Meter,O2 Meter,Sample Mass,Ext Coeff,Start Test,Flame Verif
Chan Gain,,500,500,1,1,1,1,1,1,1,1,1.0,1.0
Offset,,0,0,0.138104,0,0,0,0,0,0,0,0.0,0.0
Gain,,1,1,25.011,12.9573,16.6386,1,1,1,1.00088,0.812795,1.0,1.0
Units,sec,C,C,Pa,%,%,%,%,%,g,/m,,
Baseline,,41.7558,43.4373,173.372,99.4901,57.5533,0.000650799,0.0446361,20.9342,-444.32,3.90254,,
15,3.5,41.2986,42.0082,175.389,100.187,58.0538,0.000553856,0.0449528,20.9374,208.663,3.8905,0.0,0.0
30,7.25,41.3929,41.8055,176.167,100.183,58.164,0.000714905,0.0447308,20.9375,208.573,3.8767,0.0,0.0
45,11,41.676,42.0916,173.557,100.171,57.8593,0.000745958,0.0451703,20.9387,208.533,3.91325,0.0,0.0
60,14.75,41.0501,42.5375,177.128,100.154,58.4763,0.000573052,0.0455197,20.9379,208.433,3.83642,0.0,0.0
75,18.5,41.4672,42.621,171.598,100.116,57.4567,0.000697725,0.0453168,20.9367,208.383,3.95915,0.0,0.0
90,22.25,41.2585,43.1823,175.401,100.066,58.0223,0.000766884,0.0449321,20.9366,208.333,3.88576,0.0,0.0
105,26,41.297,43.4503,172.846,100.02,58.0239,0.000468252,0.0446225,20.9366,208.313,3.88227,0.0,0.0
120,29.75,41.5743,43.3197,170.566,99.9353,57.7898,0.000475503,0.0443722,20.9366,208.283,3.90506,0.0,0.0
135,33.5,41.4853,43.0377,177.46,99.8352,57.2526,0.00047208,0.0444244,20.9359,208.203,3.96451,0.0,0.0
150,37.25,41.4805,43.1515,172.984,99.7285,57.2988,0.00032982,0.0444408,20.9362,208.133,3.95113,0.0,0.0
165,41,41.838,43.3655,177.991,99.668,58.0061,0.000617679,0.0444486,20.9358,208.123,3.85932,0.0,0.0
180,44.75,41.9474,43.6558,173.65,99.6949,57.6425,0.000705066,0.0456091,20.9362,208.033,3.90608,0.0,0.0
195,48.5,41.9596,43.4521,171.488,99.7063,58.1386,0.000525441,0.0458929,20.9357,207.992,3.8458,0.0,0.0
210,52.25,41.7401,43.3469,174.903,99.7486,57.4826,0.000525059,0.0455401,20.9356,207.992,3.92973,0.0,0.0
225,56,42.0212,43.7158,168.903,99.802,57.6141,0.000609454,0.0450967,20.9356,207.952,3.91725,0.0,0.0
240,59.75,42.1436,43.5324,174.587,99.8317,57.4648,0.00080545,0.0449577,20.9356,207.922,3.93787,0.0,0.0
255,63.5,41.9802,43.3023,174.312,99.8918,57.2439,0.000756485,0.044966,20.9364,207.852,3.96962,0.0,0.0
270,67.25,41.9106,43.885,173.743,99.9436,57.5501,0.000459433,0.0458247,20.9371,207.792,3.93528,0.0,0.0
285,71,41.924,43.7647,171.302,99.9752,57.1241,0.000404866,0.0468191,20.9366,207.762,3.99051,0.0,0.0
300,74.75,42.2,43.9354,171.021,100.044,57.9015,0.000484585,0.0468746,20.9343,207.752,3.89907,0.0,0.0
315,78.5,42.0699,44.032,172.783,100.053,57.5481,0.000491766,0.0464154,20.9338,207.732,3.94334,0.0,0.0
330,82.25,42.397,44.3054,172.826,100.112,57.2846,0.00033439,0.0462067,20.9337,207.672,3.98026,0.0,0.0
345,86,42.3051,43.9233,172.101,100.133,57.5054,0.000442741,0.0463713,20.9354,207.632,3.95429,0.0,0.0
360,89.75,42.1016,44.0772,170.428,100.161,57.2399,0.000545096,0.0470208,20.9358,207.522,3.98932,0.0,0.0
375,93.5,42.1893,44.1649,175.555,100.182,57.313,0.000510432,0.0478036,20.9361,207.462,3.98168,0.0,0.0
390,97.25,42.5434,43.5533,170.303,100.193,57.4084,0.000618714,0.048872,20.9366,207.422,3.97066,0.0,0.0
405,101,42.1157,43.8695,169.286,100.218,57.2769,0.000513774,0.0490841,20.9367,207.462,3.98873,0.0,0.0
420,104.75,42.5387,44.2645,178.09,100.23,57.2566,0.000597314,0.0492443,20.935,207.412,3.99213,0.0,0.0
435,108.5,42.353,44.0685,171.257,100.281,56.6905,0.000889122,0.0492227,20.9345,207.332,4.06661,0.0,0.0
450,112.25,42.4867,44.5803,169.155,100.295,57.1139,0.00104009,0.0490839,20.9342,207.332,4.01456,0.0,0.0
465,116,42.9473,44.0861,167.413,100.306,57.5369,0.000964,0.0492091,20.933,207.172,3.96274,0.0,0.0
480,119.75,42.9632,44.456,172.655,100.318,57.0977,0.00101393,0.0495048,20.9327,207.062,4.01822,0.0,0.0
495,123.5,42.4614,44.4761,173.377,100.346,56.9576,0.00110135,0.0500235,20.9333,207.052,4.0377,0.0,0.0
510,127.25,42.6803,44.6854,168.461,100.361,56.6747,0.000877047,0.0507865,20.9353,206.952,4.07429,0.0,0.0
525,131,42.6086,44.8964,171.682,100.386,56.3594,0.000805629,0.0513034,20.9348,206.861,4.11587,0.0,0.0
540,134.75,42.9772,44.6705,172.276,100.398,56.466,0.000893873,0.0519411,20.9334,206.771,4.10321,0.0,0.0
555,138.5,42.7042,44.9038,174.327,100.401,56.1187,0.00114235,0.0531536,20.9335,206.691,4.14745,0.0,0.0
570,142.25,42.9772,45.4389,164.173,100.424,58.1173,0.00137394,0.0544798,20.9322,206.411,3.89952,0.0,1.0
585,146,43.6051,47.4134,159.188,100.45,59.3634,0.00177573,0.05669,20.9319,206.121,3.75012,0.0,1.0
600,149.75,45.519,51.6247,163.823,100.479,59.5111,0.00218692,0.0786044,20.9288,205.7,3.73448,0.0,0.0
615,153.5,47.5233,54.8343,156.726,100.496,59.3436,0.00230572,0.16293,20.8874,205.26,3.75581,0.0,0.0
630,157.25,49.4434,58.5449,155.012,100.522,59.3451,0.00236964,0.239452,20.7999,204.74,3.75745,0.0,0.0
645,161,50.8569,61.5877,157.907,100.526,58.4646,0.00246911,0.293189,20.7092,204.189,3.86434,0.0,0.0
660,164.75,52.8855,64.4354,158.673,100.541,59.5411,0.00268557,0.330136,20.6465,203.629,3.73529,0.0,0.0
675,168.5,54.7276,66.2031,154.809,100.534,60.2195,0.00327394,0.355386,20.6003,203.068,3.65398,0.0,0.0
690,172.25,56.2364,68.3207,153.994,100.548,59.1298,0.00370505,0.367329,20.5743,202.508,3.78522,0.0,0.0
705,176,57.0446,70.501,148.629,100.526,57.8797,0.00406158,0.373514,20.5614,201.977,3.93597,0.0,0.0
720,179.75,58.8435,71.741,157.071,100.541,59.1994,0.00403127,0.387159,20.5537,201.427,3.77636,0.0,0.0
735,183.5,59.6789,72.24,154.909,100.518,57.3028,0.00385758,0.393657,20.5386,200.876,4.00682,0.0,0.0
750,187.25,60.4797,72.5656,150.443,100.504,57.8812,0.00430552,0.395948,20.5294,200.256,3.93424,0.0,0.0
765,191,61.3307,72.8697,158.521,100.456,58.4032,0.0044324,0.390813,20.527,199.635,3.86684,0.0,0.0
780,194.75,61.6467,73.6126,157.62,100.439,58.0838,0.00452836,0.387369,20.5331,199.085,3.9047,0.0,0.0
795,198.5,62.7821,73.4835,154.671,100.394,56.6945,0.00491336,0.381823,20.5352,198.544,4.07416,0.0,0.0
810,202.25,62.9457,73.8791,161.457,100.372,57.965,0.00492984,0.373425,20.5434,198.074,3.91458,0.0,0.0
825,206,63.5813,73.4917,163.213,100.347,57.5811,0.00472182,0.363173,20.553,197.523,3.96013,0.0,0.0
840,209.75,63.1999,73.3488,159.87,100.27,58.3763,0.00476689,0.35433,20.5665,197.003,3.85689,0.0,0.0
855,213.5,63.7401,72.2824,163.625,100.229,57.4638,0.00479195,0.345369,20.5761,196.522,3.96632,0.0,0.0
870,217.25,63.8782,72.1339,163.815,100.167,58.8114,0.00461723,0.32854,20.5869,196.002,3.79666,0.0,0.0
885,221,64.2997,72.2752,163.461,100.113,59.1014,0.00436223,0.323185,20.6059,195.622,3.75774,0.0,0.0
900,224.75,64.4375,72.1384,157.742,100.065,58.6921,0.00430918,0.318155,20.6113,195.151,3.80382,0.0,0.0
915,228.5,64.3542,71.9071,155.103,100.006,58.4103,0.00396112,0.314931,20.6155,194.701,3.83393,0.0,0.0
930,232.25,64.6803,72.0058,156.023,99.9645,58.5144,0.0034008,0.309226,20.6183,194.23,3.81831,0.0,0.0
945,236,64.4987,72.4969,156.895,99.9238,59.0252,0.00335096,0.306738,20.6238,193.78,3.75343,0.0,0.0
960,239.75,64.3575,71.286,154.752,99.8803,59.5685,0.00324617,0.308122,20.625,193.23,3.685,0.0,0.0
975,243.5,64.7569,72.0084,154.445,99.8091,58.8444,0.00296741,0.309236,20.6235,192.849,3.76711,0.0,0.0
990,247.25,64.3571,71.5799,158.714,99.7771,59.2466,0.00311792,0.306331,20.6219,192.459,3.71626,0.0,0.0
1005,251,64.6456,71.6221,161.002,99.7111,59.9554,0.0031587,0.298947,20.6235,192.028,3.62674,0.0,0.0
1020,254.75,64.609,71.1053,159.86,99.6415,59.893,0.00322526,0.290776,20.6331,191.618,3.6292,0.0,0.0
1035,258.5,64.3466,70.5843,161.299,99.5656,59.3898,0.00298009,0.286576,20.642,191.228,3.68392,0.0,0.0
1050,262.25,64.637,70.5116,160.878,99.4643,58.5443,0.00265491,0.281795,20.6483,190.787,3.77889,0.0,0.0
1065,266,64.1347,70.0014,164.612,99.3872,58.5677,0.00262486,0.274395,20.654,190.407,3.77052,0.0,0.0
1080,269.75,64.6496,69.6588,161.693,99.3287,58.9993,0.00241061,0.266835,20.6629,190.107,3.71397,0.0,0.0
1095,273.5,64.0958,69.4802,157.891,99.2805,58.523,0.00243402,0.260615,20.6688,189.746,3.7683,0.0,0.0
1110,277.25,63.801,68.7572,160.484,99.2318,59.3304,0.00254023,0.253932,20.678,189.386,3.66711,0.0,0.0
1125,281,63.7286,68.5545,170.1,99.1658,59.6416,0.00268254,0.248172,20.6866,189.046,3.62506,0.0,0.0
1140,284.75,63.3395,68.2608,161.518,99.091,58.5235,0.0025316,0.241443,20.6934,188.736,3.75462,0.0,0.0
1155,288.5,63.0289,67.7255,159.095,99.0124,59.4035,0.00241354,0.23607,20.7007,188.355,3.64255,0.0,0.0
1170,292.25,62.9944,67.2523,159.314,98.9653,59.2161,0.00218295,0.232181,20.7076,188.005,3.66168,0.0,0.0
1185,296,62.5049,66.8373,163.912,98.9028,59.4416,0.00236346,0.227024,20.7125,187.715,3.63009,0.0,0.0
1200,299.75,62.7028,66.6537,158.282,98.8364,59.3471,0.00256584,0.223322,20.7184,187.434,3.63663,0.0,0.0
1215,303.5,62.0092,66.2722,159.589,98.77,59.3588,0.0026881,0.221072,20.7218,187.084,3.63044,0.0,0.0
1230,307.25,61.7755,66.1443,160.969,98.7213,59.1684,0.00263122,0.218019,20.7243,186.814,3.64983,0.0,0.0
1245,311,61.7973,65.9984,163.254,98.6474,58.3468,0.00260055,0.216217,20.728,186.474,3.74418,0.0,0.0
1260,314.75,61.5612,65.4905,164.328,98.6146,57.7502,0.00251197,0.21427,20.7298,186.133,3.81509,0.0,0.0
1275,318.5,61.7796,65.5581,159.91,98.5707,59.5086,0.00247256,0.210944,20.7324,185.793,3.59807,0.0,0.0
1290,322.25,61.2883,65.2723,161.845,98.5552,58.7566,0.00215894,0.209403,20.7364,185.593,3.68762,0.0,0.0
1305,326,61.1356,64.6568,161.239,98.5442,58.5068,0.00210166,0.207605,20.7386,185.313,3.7172,0.0,0.0
1320,329.75,61.0715,64.5958,164.925,98.575,58.1117,0.00231778,0.204455,20.7401,184.992,3.76774,0.0,0.0
1335,333.5,60.7444,64.243,165.712,98.6193,59.5066,0.00235317,0.202732,20.743,184.742,3.60183,0.0,0.0
1350,337.25,60.8303,64.0319,161.722,98.6691,58.4082,0.00238459,0.201977,20.7448,184.382,3.73825,0.0,0.0
1365,341,60.3141,64.1304,161.397,98.7435,57.901,0.00241834,0.199369,20.7452,184.092,3.80581,0.0,0.0
1380,344.75,60.3093,63.3822,164.938,98.8229,58.4397,0.0024125,0.196122,20.7505,183.891,3.74552,0.0,0.0
1395,348.5,60.4586,63.776,161.137,98.9329,59.4146,0.00228277,0.193632,20.7541,183.611,3.63548,0.0,0.0
1410,352.25,60.2224,63.4256,159.081,99.0416,58.4103,0.00224105,0.192405,20.7585,183.341,3.76487,0.0,0.0
1425,356,59.797,63.5943,161.634,99.1397,58.6535,0.00253639,0.192233,20.7601,183.051,3.7423,0.0,0.0
1440,359.75,60.0274,63.2805,164.994,99.2093,59.6914,0.00290019,0.190413,20.7606,182.83,3.62224,0.0,0.0
1455,363.5,59.9434,63.328,161.142,99.3046,58.425,0.00286703,0.188665,20.7625,182.46,3.78198,0.0,0.0
1470,367.25,59.8015,62.7492,171.86,99.3876,59.8874,0.00272816,0.187102,20.7645,182.23,3.61167,0.0,0.0
1485,371,59.4582,62.2798,159.474,99.4766,58.7022,0.00242781,0.184931,20.7673,182,3.76056,0.0,0.0
1500,374.75,59.1452,62.3905,161.23,99.5248,59.3375,0.00238406,0.183352,20.7693,181.739,3.68728,0.0,0.0
1515,378.5,59.0659,62.1097,165.886,99.598,58.4869,0.0026408,0.181602,20.7715,181.499,3.79546,0.0,0.0
1530,382.25,58.862,61.978,164.412,99.6644,59.4182,0.00253383,0.181647,20.7739,181.209,3.68758,0.0,0.0
1545,386,59.251,62.2062,166.36,99.6945,60.3317,0.00263143,0.179888,20.7744,180.989,3.58095,0.0,0.0
1560,389.75,58.7896,61.6309,164.009,99.7356,58.9328,0.00271548,0.17877,20.775,180.638,3.75116,0.0,0.0
1575,393.5,58.7271,61.7298,163.09,99.7716,59.5583,0.00267577,0.177419,20.7754,180.428,3.67845,0.0,0.0
1590,397.25,58.4271,61.3367,163.65,99.7977,58.8713,0.00275182,0.176593,20.7773,180.198,3.76303,0.0,0.0
1605,401,58.2794,61.4271,164.8,99.8341,58.6967,0.00305015,0.175235,20.7782,179.958,3.78682,0.0,0.0
1620,404.75,58.2647,60.8426,162.622,99.8499,58.9363,0.00322527,0.174019,20.7813,179.718,3.75889,0.0,0.0
1635,408.5,58.295,60.8967,163.415,99.8503,59.2334,0.00308295,0.173164,20.7823,179.497,3.72308,0.0,0.0
1650,412.25,58.2411,61.3158,164.195,99.84,59.0521,0.00298416,0.171877,20.7838,179.197,3.74419,0.0,0.0
1665,416,57.5678,60.8447,164.918,99.8317,59.5644,0.00305871,0.172675,20.7856,178.897,3.68201,0.0,0.0
1680,419.75,57.9283,60.5951,166.847,99.8155,59.1897,0.00320363,0.170684,20.7854,178.747,3.72585,0.0,0.0
1695,423.5,57.9234,60.4379,162.489,99.8072,58.9262,0.00337935,0.167842,20.7883,178.507,3.75707,0.0,0.0
1710,427.25,57.4753,60.4189,166.16,99.7565,58.5164,0.00347156,0.166605,20.7912,178.256,3.80321,0.0,0.0
1725,431,57.4942,60.1279,165.304,99.6988,57.573,0.00331126,0.16619,20.7928,177.916,3.91497,0.0,0.0
1740,434.75,57.6749,60.2632,165.32,99.6407,59.0389,0.00350121,0.165114,20.7925,177.746,3.73154,0.0,0.0
1755,438.5,57.214,60.1297,162.225,99.5897,59.5842,0.00365263,0.164989,20.7913,177.516,3.66234,0.0,0.0
1770,442.25,57.3098,59.7388,166.474,99.541,58.7947,0.00356008,0.16534,20.791,177.215,3.75397,0.0,0.0
1785,446,57.0566,59.7184,168.092,99.4849,58.4143,0.00353957,0.165458,20.7927,176.955,3.79621,0.0,0.0
1800,449.75,56.9966,59.6449,168.48,99.4556,58.3443,0.00354752,0.164052,20.7931,176.775,3.80267,0.0,0.0
1815,453.5,56.7556,59.3176,160.561,99.3963,58.292,0.00344488,0.161891,20.7935,176.615,3.80481,0.0,0.0
1830,457.25,56.3123,59.2965,169.723,99.3326,58.7886,0.00353341,0.160146,20.7952,176.395,3.73976,0.0,0.0
1845,461,56.8918,59.2168,169.362,99.2994,58.6444,0.00386751,0.159361,20.7976,176.155,3.75489,0.0,0.0
1860,464.75,56.5797,59.0147,160.589,99.269,58.3427,0.00399221,0.158202,20.7997,175.854,3.78947,0.0,0.0
1875,468.5,56.7695,59.2942,164.864,99.4521,58.3356,0.00398165,0.157397,20.8015,175.574,3.80347,0.0,0.0
1890,472.25,56.3977,59.4852,165.569,99.6356,57.8812,0.00399726,0.156756,20.8029,175.444,3.87237,0.0,0.0
1905,476,57.0417,59.4757,167.099,99.7985,58.8795,0.00381076,0.156529,20.8038,175.224,3.7621,0.0,0.0
1920,479.75,56.6074,59.3902,160.412,99.9191,59.5198,0.0039272,0.157216,20.8034,174.984,3.6936,0.0,0.0
1935,483.5,56.4273,58.9962,166.973,99.9871,59.2765,0.00412027,0.156318,20.8038,174.733,3.72765,0.0,0.0
1950,487.25,56.4255,58.7877,164.381,100.035,59.2948,0.00416962,0.155464,20.8051,174.543,3.72883,0.0,0.0
1965,491,56.2165,59.0902,163.298,100.079,58.4626,0.00429069,0.155489,20.8061,174.243,3.83277,0.0,0.0
1980,494.75,56.0239,58.9521,167.566,100.11,58.7982,0.00441361,0.156341,20.8046,174.003,3.79418,0.0,0.0
1995,498.5,56.0821,58.8632,167.177,100.163,59.6396,0.00445088,0.156502,20.8041,173.672,3.69668,0.0,0.0
2010,502.25,56.0248,58.4178,165.121,100.156,58.7246,0.00434876,0.154822,20.8033,173.582,3.8064,0.0,0.0
2025,506,56.0093,58.4834,163.815,100.135,58.6621,0.00455197,0.153518,20.8059,173.392,3.81247,0.0,0.0
2040,509.75,56.0037,58.6755,167.941,100.102,58.2498,0.00429952,0.151465,20.8076,173.172,3.86042,0.0,0.0
2055,513.5,55.8357,58.3325,164.239,100.033,58.5433,0.00451211,0.153485,20.8088,172.922,3.81963,0.0,0.0
2070,517.25,55.8281,58.7537,164.822,99.9657,58.882,0.00463726,0.153075,20.808,172.601,3.77374,0.0,0.0
2085,521,55.7433,58.4265,167.881,99.8582,58.8561,0.00457431,0.152544,20.8079,172.431,3.7692,0.0,0.0
2100,524.75,55.7999,58.2848,166.547,99.7601,58.9313,0.00427739,0.152848,20.8078,172.261,3.75309,0.0,0.0
2115,528.5,55.4682,57.9434,162.193,99.6688,58.8993,0.0040593,0.152195,20.8068,172.031,3.75043,0.0,0.0
2130,532.25,55.6713,58.3097,162.933,99.6834,59.1481,0.00453566,0.152341,20.8064,171.831,3.72143,0.0,0.0
2145,536,55.3966,58.2441,165.284,99.7123,58.291,0.00448369,0.150518,20.8063,171.621,3.82756,0.0,0.0
2160,539.75,55.3415,57.823,164.078,99.7518,59.2263,0.00453963,0.150626,20.8063,171.33,3.7169,0.0,0.0
2175,543.5,55.1968,57.7747,163.364,99.8004,58.7972,0.00478496,0.150243,20.8073,171.09,3.77221,0.0,0.0
2190,547.25,55.4187,57.579,165.356,99.8103,59.2831,0.00508339,0.147347,20.8088,170.89,3.71424,0.0,0.0
2205,551,55.2882,57.6798,163.345,99.8503,58.8906,0.00522016,0.145305,20.8123,170.71,3.76445,0.0,0.0
2220,554.75,54.9916,57.2475,165.537,99.8906,57.9289,0.00544813,0.143775,20.8149,170.52,3.88473,0.0,0.0
2235,558.5,54.8614,57.0183,166.198,99.9207,58.5281,0.00545439,0.144596,20.8178,170.269,3.8135,0.0,0.0
2250,562.25,54.9255,57.1288,176.083,99.9839,58.1102,0.0054081,0.145095,20.8186,170.039,3.86911,0.0,0.0
2265,566,54.8729,57.2566,167.568,100.048,58.5037,0.00571596,0.145744,20.8177,169.779,3.82555,0.0,0.0
2280,569.75,54.7831,56.8682,171.039,100.086,58.4392,0.00606259,0.149216,20.8155,169.549,3.83612,0.0,0.0
2295,573.5,54.6003,56.9304,167.276,100.15,58.0772,0.00591905,0.147531,20.8113,169.409,3.88502,0.0,0.0
2310,577.25,54.7053,56.9227,164.574,100.224,58.5393,0.00604937,0.142177,20.8149,169.238,3.83372,0.0,0.0
2325,581,54.4349,56.0397,165.662,100.297,58.2778,0.00625398,0.139595,20.8214,168.988,3.87085,0.0,0.0
2340,584.75,54.4471,56.674,166.001,100.367,58.8241,0.0064733,0.137234,20.8235,168.818,3.80929,0.0,0.0
2355,588.5,53.9635,56.1494,163.776,100.417,59.0303,0.00663817,0.136452,20.8268,168.568,3.78794,0.0,0.0
2370,592.25,54.4271,56.5039,165.671,100.464,58.8861,0.00656806,0.135917,20.8283,168.318,3.80866,0.0,0.0
2385,596,53.5991,55.8669,167.692,100.509,57.8969,0.00689449,0.132417,20.83,168.128,3.93267,0.0,0.0
2400,599.75,53.8437,55.8976,167.083,100.541,59.2618,0.00731505,0.128949,20.8338,167.957,3.76884,0.0,0.0
2415,603.5,53.7895,55.3233,166.75,100.547,58.032,0.00739176,0.127228,20.8388,167.757,3.91878,0.0,0.0
2430,607.25,53.5571,55.0715,168.033,100.56,58.8693,0.00749865,0.12857,20.84,167.597,3.81751,0.0,0.0
2445,611,53.2111,54.869,169.957,100.539,57.6796,0.00755168,0.125419,20.839,167.397,3.96159,0.0,0.0
2460,614.75,53.4056,54.666,167.842,100.52,58.848,0.00796156,0.119796,20.8431,167.147,3.81726,0.0,0.0
2475,618.5,52.9101,54.436,172.421,100.471,58.0696,0.00818047,0.118104,20.8489,166.906,3.90875,0.0,0.0
2490,622.25,52.8751,54.0849,169.173,100.434,57.805,0.0082914,0.115382,20.852,166.766,3.93864,0.0,0.0
2505,626,52.6106,54.0963,167.574,100.397,58.7743,0.00861306,0.115016,20.8544,166.576,3.81746,0.0,0.0
2520,629.75,52.6416,53.6257,166.406,100.338,58.5387,0.00876253,0.115574,20.855,166.366,3.84191,0.0,0.0
2535,633.5,52.347,53.8632,172.915,100.295,58.459,0.0084804,0.11444,20.8551,166.216,3.84856,0.0,0.0
2550,637.25,52.5047,54.0538,164.459,100.228,58.5164,0.00851078,0.113657,20.8566,166.006,3.83682,0.0,0.0
2565,641,52.1543,53.4359,167.868,100.15,58.194,0.00877546,0.113202,20.8579,165.765,3.8707,0.0,0.0
2580,644.75,52.0955,53.4735,173.563,100.09,58.5261,0.00916894,0.111961,20.8581,165.555,3.82585,0.0,0.0
2595,648.5,51.9195,53.0521,167.64,100.035,58.194,0.00914232,0.110919,20.8594,165.455,3.86247,0.0,0.0
2610,652.25,51.7477,53.0071,165.716,99.9634,57.9589,0.00898857,0.11096,20.8606,165.235,3.88623,0.0,0.0
2625,656,51.5348,53.117,170.279,99.8799,58.852,0.00868041,0.111753,20.8595,165.065,3.77124,0.0,0.0
2640,659.75,51.9328,53.0955,163.627,99.8068,58.095,0.00853898,0.111933,20.8584,164.905,3.85833,0.0,0.0
2655,663.5,51.6425,53.1371,169.128,99.7237,58.2838,0.00853944,0.111829,20.8585,164.684,3.82925,0.0,0.0
2670,667.25,51.8087,53.1328,169.208,99.6403,57.9386,0.00859127,0.110398,20.8611,164.444,3.86565,0.0,0.0
2685,671,51.6971,52.9897,177.453,99.5675,57.8131,0.0086309,0.110007,20.8616,164.274,3.87589,0.0,0.0
2700,674.75,51.191,52.2957,166.494,99.5102,57.5978,0.00879419,0.110931,20.8618,164.134,3.89839,0.0,0.0
2715,678.5,51.4319,52.9088,166.397,99.4623,57.2805,0.00880154,0.111101,20.8624,163.934,3.93435,0.0,0.0
2730,682.25,50.8557,52.822,169.505,99.4279,57.3511,0.00879801,0.111136,20.8626,163.774,3.9231,0.0,0.0
2745,686,51.3415,52.4792,169.214,99.3841,58.0995,0.00864519,0.110943,20.8626,163.604,3.82751,0.0,0.0
2760,689.75,51.0721,53.1812,165.116,99.3058,57.9807,0.00858437,0.110362,20.8605,163.383,3.83649,0.0,0.0
2775,693.5,50.5336,52.4777,167.605,99.2413,57.0078,0.00882611,0.110767,20.8599,163.153,3.95251,0.0,0.0
2790,697.25,50.9181,52.5359,165.697,99.1642,58.4793,0.00885327,0.110614,20.8602,163.003,3.76526,0.0,0.0
2805,701,50.913,52.0226,171.447,99.1235,57.3617,0.00870519,0.111367,20.8606,162.843,3.89991,0.0,0.0
2820,704.75,50.5978,52.112,167.916,99.0396,57.3211,0.0085993,0.110636,20.8593,162.673,3.89893,0.0,0.0
2835,708.5,50.9055,52.2021,173.078,98.9752,57.4597,0.00853327,0.111349,20.8585,162.473,3.87707,0.0,0.0
2850,712.25,50.6504,52.3364,164.456,98.9099,57.6425,0.00850973,0.111364,20.8582,162.272,3.84972,0.0,0.0
2865,716,50.7133,52.4295,165.807,98.8202,57.7573,0.00872792,0.112952,20.8577,162.052,3.82907,0.0,0.0
2880,719.75,50.5265,52.2386,164.775,98.7617,57.4135,0.00857325,0.111759,20.857,161.862,3.8674,0.0,0.0
2895,723.5,50.526,52.4326,165.376,98.7063,56.889,0.00847406,0.111107,20.8579,161.732,3.92884,0.0,0.0
2910,727.25,50.7148,52.4402,169.526,98.6687,57.7136,0.00862705,0.112005,20.8584,161.582,3.82352,0.0,0.0
2925,731,50.3874,52.2399,167.437,98.6284,57.5019,0.00862081,0.112708,20.8582,161.392,3.84681,0.0,0.0
2940,734.75,50.5975,52.341,165.446,98.6177,57.2465,0.00869525,0.112739,20.859,161.211,3.87778,0.0,0.0
2955,738.5,50.6665,51.8035,170.052,98.5857,56.9179,0.0086539,0.112154,20.8602,161.001,3.9165,0.0,0.0
2970,742.25,50.3992,52.1793,166.938,98.5976,57.3805,0.00871802,0.112992,20.8605,160.761,3.85965,0.0,0.0
2985,746,50.3644,52.2622,165.275,98.6395,56.8763,0.00859496,0.112163,20.8597,160.611,3.92561,0.0,0.0
3000,749.75,50.7085,52.2302,167.246,98.6561,56.6427,0.00848041,0.112248,20.8595,160.491,3.95615,0.0,0.0
3015,753.5,50.7305,52.3095,171.039,98.7166,57.3881,0.00872451,0.112179,20.8605,160.331,3.8673,0.0,0.0
3030,757.25,50.3951,52.4195,166.831,98.7739,57.7253,0.00889567,0.111863,20.8607,160.141,3.82968,0.0,0.0
3045,761,50.6785,52.2228,166.319,98.8111,57.5125,0.00888275,0.112613,20.8594,159.95,3.85869,0.0,0.0
3060,764.75,50.4468,52.3187,168.217,98.8629,58.4687,0.00888937,0.111908,20.8584,159.78,3.74487,0.0,0.0
3075,768.5,50.3854,52.2287,165.597,98.9297,57.3724,0.00903206,0.111635,20.8582,159.53,3.88464,0.0,0.0
3090,772.25,50.4015,52.1363,164.243,98.9744,57.3069,0.00904233,0.112212,20.8581,159.43,3.896,0.0,0.0
3105,776,50.2362,51.9426,168.404,99.0317,57.9188,0.00893786,0.112226,20.8581,159.21,3.82441,0.0,0.0
3120,779.75,50.5414,52.3771,171.322,99.0859,56.8337,0.00898056,0.112354,20.8595,159.05,3.96315,0.0,0.0
3135,783.5,50.022,52.0953,166.832,99.1223,57.9386,0.00891101,0.112696,20.8602,158.879,3.82849,0.0,0.0
3150,787.25,49.8785,51.8767,164.975,99.1512,57.8654,0.00876478,0.111637,20.8593,158.699,3.83957,0.0,0.0
3165,791,50.0975,51.8977,165.555,99.214,57.3841,0.00861989,0.111479,20.8591,158.449,3.90365,0.0,0.0
3180,794.75,49.675,52.4218,165.369,99.2417,56.9337,0.00845919,0.111666,20.8595,158.309,3.96181,0.0,0.0
3195,798.5,49.9371,51.6832,168.567,99.2876,58.0579,0.00868134,0.112324,20.8596,158.149,3.8257,0.0,0.0
3210,802.25,50.307,51.8217,172.737,99.3271,57.3927,0.008861,0.113173,20.8592,158.029,3.9107,0.0,0.0
3225,806,50.2444,51.8392,169.474,99.3868,57.3826,0.00891335,0.112063,20.8581,157.828,3.91624,0.0,0.0
3240,809.75,50.0347,52.1126,170.371,99.4339,58.5728,0.00906519,0.111994,20.8578,157.638,3.77325,0.0,0.0
3255,813.5,50.3386,51.8925,169.38,99.4888,57.1038,0.00892862,0.112444,20.8578,157.448,3.95828,0.0,0.0
3270,817.25,50.0641,51.8115,165.4,99.496,58.1274,0.00886271,0.112531,20.8578,157.238,3.83211,0.0,0.0
3285,821,50.2958,52.512,169.009,99.5486,58.2412,0.00886279,0.112028,20.8578,157.108,3.82194,0.0,0.0
3300,824.75,50.588,52.1687,167.262,99.5774,58.4682,0.0087654,0.112108,20.8596,156.968,3.79627,0.0,0.0
3315,828.5,50.3773,52.192,170.084,99.5956,57.7167,0.00868111,0.112818,20.8589,156.758,3.88981,0.0,0.0
3330,832.25,50.2642,52.028,167.578,99.6336,57.8588,0.0087717,0.11269,20.8585,156.587,3.87499,0.0,0.0
3345,836,50.2948,51.8532,167.676,99.6431,58.2148,0.00880146,0.112425,20.8597,156.407,3.83194,0.0,0.0
3360,839.75,50.3671,52.5606,168.811,99.6593,56.9118,0.00888953,0.112039,20.8605,156.177,3.99449,0.0,0.0
3375,843.5,50.5381,52.0449,168.584,99.6842,57.8781,0.00904374,0.112867,20.8589,156.027,3.87623,0.0,0.0
3390,847.25,50.1038,52.0971,173.01,99.7063,57.3409,0.00888209,0.113959,20.8579,155.887,3.9443,0.0,0.0
3405,851,50.2913,52.0807,173.492,99.7237,57.5963,0.00870322,0.115241,20.8559,155.727,3.91386,0.0,0.0
3420,854.75,50.2135,52.003,165.479,99.7459,58.5113,0.00876485,0.11563,20.8539,155.536,3.80306,0.0,0.0
3435,858.5,50.249,52.3129,164.293,99.7656,58.3519,0.00873333,0.114752,20.8547,155.376,3.82393,0.0,0.0
3450,862.25,50.2121,52.7436,168.588,99.7724,58.0777,0.0086372,0.113744,20.8553,155.196,3.85799,0.0,0.0
3465,866,50.3974,52.3495,166.917,99.783,57.5379,0.00870795,0.113925,20.8566,154.956,3.92533,0.0,0.0
3480,869.75,50.1144,52.5166,167.071,99.8083,58.6119,0.00895019,0.114578,20.8575,154.806,3.79529,0.0,0.0
3495,873.5,49.8303,52.5256,167.86,99.8443,58.1112,0.00889896,0.113688,20.8584,154.666,3.85902,0.0,0.0
3510,877.25,50.0401,52.5931,170.738,99.8764,57.5349,0.00854433,0.114226,20.8578,154.506,3.93237,0.0,0.0
3525,881,50.2027,52.1567,167.079,99.8862,58.1818,0.00864494,0.114688,20.857,154.335,3.85336,0.0,0.0
3540,884.75,50.3456,52.592,170.815,99.893,57.7588,0.00879446,0.113886,20.8566,154.165,3.90586,0.0,0.0
3555,888.5,50.2776,52.4547,172.104,99.8934,57.8223,0.00866061,0.113566,20.8578,153.945,3.89806,0.0,0.0
3570,892.25,50.2151,52.6622,167.815,99.8669,57.8766,0.00851116,0.115052,20.8575,153.725,3.88947,0.0,0.0
3585,896,50.4883,52.4584,162.802,99.8139,58.3163,0.00856185,0.115396,20.8574,153.555,3.83172,0.0,0.0
3600,899.75,50.0489,52.5898,163.199,99.7925,58.1417,0.00862735,0.115066,20.8577,153.475,3.85159,0.0,0.0
3615,903.5,50.1449,51.9828,167.561,99.7558,57.5836,0.00864216,0.115696,20.8577,153.284,3.91772,0.0,0.0
3630,907.25,50.7679,52.8128,165.428,99.6972,58.1239,0.00884615,0.115545,20.8563,153.104,3.84695,0.0,0.0
3645,911,50.31,52.1928,167.947,99.6154,57.578,0.00868667,0.115317,20.8556,152.934,3.90837,0.0,0.0
3660,914.75,50.1223,52.6542,169.495,99.5466,58.0229,0.00856992,0.116304,20.8554,152.704,3.84858,0.0,0.0
3675,918.5,50.5459,52.4647,169.535,99.4821,58.1188,0.00880046,0.11565,20.8554,152.504,3.83217,0.0,0.0
3690,922.25,50.081,52.3974,166.374,99.405,57.7273,0.0089137,0.116407,20.8565,152.414,3.87484,0.0,0.0
3705,926,50.2668,52.536,168.142,99.3635,57.609,0.00881347,0.116085,20.8549,152.254,3.88648,0.0,0.0
3720,929.75,50.4405,52.3895,167.79,99.2947,58.0259,0.00877034,0.116393,20.8545,152.033,3.83014,0.0,0.0
3735,933.5,50.595,52.4893,169.899,99.3421,58.2412,0.00861882,0.116932,20.8544,151.843,3.80714,0.0,0.0
3750,937.25,50.5687,52.7257,167.058,99.5379,57.5689,0.00841867,0.116894,20.8536,151.663,3.90395,0.0,0.0
3765,941,50.1478,52.4352,167.56,99.7012,57.5577,0.0085725,0.117785,20.8531,151.473,3.91702,0.0,0.0
3780,944.75,50.3838,52.2756,171.376,99.808,57.5633,0.00847426,0.117496,20.8536,151.273,3.92396,0.0,0.0
3795,948.5,50.0127,52.8132,169.307,99.9278,57.3922,0.0083848,0.115998,20.8562,151.173,3.95374,0.0,0.0
3810,952.25,50.6463,52.2284,173.455,100.02,57.2729,0.00852495,0.118067,20.857,151.002,3.97513,0.0,0.0
3825,956,50.246,52.871,164.437,100.09,58.0421,0.0090127,0.117856,20.8547,150.812,3.88501,0.0,0.0
3840,959.75,50.4556,52.6912,167.002,100.126,58.1437,0.00895087,0.117299,20.8551,150.652,3.87514,0.0,0.0
3855,963.5,50.6707,53.0294,169.311,100.155,58.359,0.00893667,0.117815,20.855,150.452,3.85082,0.0,0.0
3870,967.25,50.8197,52.8435,170.702,100.147,57.7984,0.00871954,0.118596,20.8521,150.192,3.91907,0.0,0.0
3885,971,50.5007,52.7031,167.976,100.137,58.3818,0.00865957,0.119254,20.8515,150.082,3.84676,0.0,0.0
3900,974.75,50.6837,53.0305,165.804,100.097,59.0831,0.00862838,0.119145,20.8502,149.952,3.75876,0.0,0.0
3915,978.5,50.5197,53.3115,166.45,100.028,58.4407,0.00840762,0.119302,20.8493,149.771,3.83182,0.0,0.0
3930,982.25,50.0636,52.9198,168.032,99.9523,57.7598,0.00855786,0.120553,20.8486,149.601,3.90997,0.0,0.0
3945,986,50.7707,53.1503,168.567,99.8293,57.8406,0.00855623,0.120584,20.8471,149.411,3.89123,0.0,0.0
3960,989.75,50.8512,53.2248,170.589,99.7554,57.6877,0.00878638,0.120398,20.8494,149.181,3.90481,0.0,0.0
3975,993.5,51.2015,53.0211,166.939,99.6723,57.7695,0.00887586,0.120863,20.8502,148.981,3.88878,0.0,0.0
3990,997.25,50.6723,52.7583,165.122,99.7174,58.3433,0.00864262,0.120578,20.8503,148.891,3.82154,0.0,0.0
4005,1001,50.5615,53.1663,166.109,99.7728,58.6301,0.00828337,0.121915,20.8501,148.68,3.79052,0.0,0.0
4020,1004.75,50.793,53.2254,167.384,99.8265,57.6263,0.00834417,0.122507,20.8485,148.51,3.9175,0.0,0.0
4035,1008.5,51.3497,53.7266,166.568,99.8708,57.9137,0.00850721,0.122591,20.8481,148.36,3.88519,0.0,0.0
4050,1012.25,51.0153,53.2498,163.918,99.923,58.6799,0.00870615,0.12263,20.8483,148.17,3.7952,0.0,0.0
4065,1016,50.6896,53.624,169.281,99.9594,57.7558,0.00845609,0.123021,20.8484,147.89,3.91098,0.0,0.0
4080,1019.75,51.016,53.7237,164.048,100.004,58.1823,0.00830164,0.123336,20.8484,147.74,3.8617,0.0,0.0
4095,1023.5,50.6769,53.3945,168.01,100.086,58.3214,0.00831274,0.124767,20.8484,147.579,3.85048,0.0,0.0
4110,1027.25,50.8516,53.3985,164.251,100.116,58.6962,0.00832235,0.124678,20.8484,147.409,3.80696,0.0,0.0
4125,1031,50.8391,53.9721,172.263,100.16,58.7251,0.00856365,0.123268,20.8484,147.249,3.80659,0.0,0.0
4140,1034.75,51.1946,53.7347,170.627,100.217,58.8043,0.00880978,0.123962,20.8484,147.079,3.80106,0.0,0.0
4155,1038.5,51.0094,53.2832,159.425,100.246,57.9594,0.00883588,0.125027,20.8473,146.889,3.90633,0.0,0.0
4170,1042.25,50.9717,53.9357,167.073,100.268,58.2615,0.00893963,0.12556,20.8463,146.659,3.87081,0.0,0.0
4185,1046,50.9815,53.2959,164.235,100.298,58.2072,0.0088559,0.125457,20.8461,146.489,3.8796,0.0,0.0
4200,1049.75,50.9006,53.8134,165.972,100.35,58.4778,0.00862553,0.125635,20.8461,146.338,3.85023,0.0,0.0
4215,1053.5,51.288,53.8082,166.051,100.349,58.3102,0.00879232,0.125093,20.8463,146.148,3.87061,0.0,0.0
4230,1057.25,51.362,53.6922,168.522,100.348,57.9487,0.00869826,0.125754,20.8467,145.968,3.91487,0.0,0.0
4245,1061,51.2726,53.8108,171.499,100.377,58.0812,0.00869523,0.12692,20.845,145.798,3.90066,0.0,0.0
4260,1064.75,51.5045,53.8255,167.135,100.383,58.3047,0.00870368,0.127816,20.8421,145.568,3.87371,0.0,0.0
4275,1068.5,50.9304,54.1612,168.473,100.38,58.7429,0.00844044,0.128706,20.843,145.327,3.8201,0.0,0.0
4290,1072.25,51.6811,54.5559,163.521,100.394,58.3204,0.00841324,0.129576,20.8421,145.197,3.87257,0.0,0.0
4305,1076,51.7133,54.4734,169.524,100.415,58.3422,0.00850043,0.13003,20.8395,145.047,3.87136,0.0,0.0
4320,1079.75,51.6194,54.2367,166.581,100.435,58.814,0.00845129,0.131284,20.8393,144.867,3.81535,0.0,0.0
4335,1083.5,51.476,54.3241,167.174,100.452,58.5403,0.00841182,0.131658,20.8396,144.657,3.84987,0.0,0.0
4350,1087.25,51.5108,54.2548,164.878,100.482,58.2656,0.008626,0.130599,20.8397,144.457,3.88551,0.0,0.0
4365,1091,51.5627,54.8758,167.003,100.497,58.4986,0.00881409,0.132158,20.8397,144.186,3.85808,0.0,0.0
4380,1094.75,51.6516,54.7326,168.616,100.52,58.7647,0.0086865,0.132982,20.8381,144.006,3.82736,0.0,0.0
4395,1098.5,52.1274,54.5841,170.017,100.526,58.3732,0.00868051,0.133549,20.8375,143.846,3.87546,0.0,0.0
4410,1102.25,51.5648,54.5467,164.71,100.539,59.1501,0.0089023,0.134025,20.8372,143.686,3.78215,0.0,0.0
4425,1106,52.1446,54.6703,169.589,100.554,59.0181,0.00864126,0.135224,20.836,143.596,3.79909,0.0,0.0
4440,1109.75,52.0373,54.4384,164.535,100.563,59.1303,0.00827163,0.134851,20.8347,143.316,3.78619,0.0,0.0
4455,1113.5,51.9425,54.5606,162.212,100.566,58.0619,0.00823065,0.135572,20.834,143.106,3.91639,0.0,0.0
4470,1117.25,52.4382,55.326,170.568,100.556,58.5443,0.00850068,0.136322,20.8329,142.845,3.85672,0.0,0.0
4485,1121,52.4505,55.2314,170.283,100.538,58.2534,0.00854697,0.136404,20.8318,142.675,3.89096,0.0,0.0
4500,1124.75,52.51,54.9914,171.282,100.559,59.4268,0.00835924,0.13808,20.8318,142.535,3.75027,0.0,0.0
4515,1128.5,52.6311,55.261,162.951,100.561,59.0287,0.00835407,0.139184,20.8296,142.305,3.79831,0.0,0.0
4530,1132.25,52.4403,55.2994,167.378,100.555,58.8002,0.00858523,0.138211,20.8295,142.095,3.82551,0.0,0.0
4545,1136,52.3142,55.2415,167.139,100.566,58.5733,0.00866013,0.137365,20.8301,141.915,3.85387,0.0,0.0
4560,1139.75,52.517,55.6799,164.672,100.562,58.9795,0.00873716,0.139337,20.8316,141.684,3.80432,0.0,0.0
4575,1143.5,52.7796,55.2228,160.923,100.556,58.6946,0.00846957,0.141319,20.8288,141.424,3.83844,0.0,0.0
4590,1147.25,52.2225,55.777,160.7,100.547,59.2471,0.00825565,0.142683,20.8264,141.254,3.771,0.0,0.0
4605,1151,52.8866,56.2844,166.952,100.568,59.1735,0.00840582,0.141863,20.8264,141.074,3.78138,0.0,0.0
4620,1154.75,52.9064,56.5912,168.034,100.567,59.5106,0.00827445,0.14721,20.828,140.844,3.74076,0.0,0.0
4635,1158.5,53.3214,56.7132,162.629,100.565,59.436,0.00741737,0.154681,20.8207,140.673,3.7496,0.0,0.0
4650,1162.25,53.5062,57.8615,164.095,100.547,59.3436,0.00653732,0.163592,20.8098,140.463,3.75938,0.0,0.0
4665,1166,53.6073,57.8991,164.91,100.563,60.8146,0.0057978,0.170333,20.8001,140.193,3.58597,0.0,0.0
4680,1169.75,54.3797,58.7598,160.977,100.557,60.1072,0.00511202,0.172966,20.7903,139.843,3.66894,0.0,0.0
4695,1173.5,54.5607,58.721,164.801,100.549,59.1958,0.00449897,0.174603,20.7862,139.833,3.77729,0.0,0.0
4710,1177.25,54.8228,59.5324,166.581,100.58,59.4908,0.00382963,0.176276,20.7827,139.552,3.74406,0.0,0.0
4725,1181,54.7837,59.5966,166.652,100.564,59.6294,0.00361819,0.178622,20.781,139.372,3.72632,0.0,0.0
4740,1184.75,55.3523,59.3147,165.098,100.563,60.3657,0.00370447,0.180758,20.778,139.092,3.63879,0.0,0.0
4755,1188.5,55.6787,59.6697,162.162,100.577,59.374,0.00352752,0.182088,20.7759,138.892,3.75785,0.0,0.0
4770,1192.25,55.9305,60.0781,160.732,100.568,59.5457,0.0035016,0.182766,20.7748,138.572,3.73665,0.0,0.0
4785,1196,55.6723,60.0365,165.055,100.567,59.21,0.00396048,0.184406,20.7747,138.301,3.7769,0.0,0.0
4800,1199.75,56.139,60.5237,160.742,100.583,59.7163,0.00400783,0.187647,20.7731,138.131,3.71729,0.0,0.0
4815,1203.5,56.2408,60.9367,160.184,100.586,59.0739,0.0038381,0.19209,20.7695,137.871,3.79465,0.0,0.0
4830,1207.25,56.4543,61.0292,164.296,100.582,59.7665,0.00360815,0.194557,20.7644,137.671,3.71123,0.0,0.0
4845,1211,56.5972,61.33,165.288,100.558,59.4959,0.00324598,0.194968,20.7608,137.361,3.74194,0.0,0.0
4860,1214.75,57.0078,61.4023,160.879,100.556,59.3593,0.00322615,0.198391,20.7599,137.13,3.75819,0.0,0.0
4875,1218.5,57.0578,61.2011,162.48,100.549,59.7721,0.00327166,0.199119,20.7572,136.77,3.70821,0.0,0.0
4890,1222.25,57.1231,62.15,160.079,100.539,59.6183,0.00292698,0.199538,20.7562,136.53,3.72594,0.0,0.0
4905,1226,57.4564,62.0314,160.984,100.538,59.0084,0.00319384,0.201886,20.756,136.35,3.79914,0.0,0.0
4920,1229.75,57.5049,62.2819,160.073,100.507,60.8684,0.0032198,0.205309,20.7535,136.039,3.57571,0.0,0.0
4935,1233.5,57.8667,62.7796,166.833,100.505,59.468,0.00306926,0.207501,20.7496,135.789,3.7415,0.0,0.0
4950,1237.25,58.1655,62.9366,163.858,100.475,60.4109,0.00290531,0.208635,20.7474,135.489,3.6272,0.0,0.0
4965,1241,58.5942,62.8765,157.742,100.447,59.7741,0.00292396,0.211419,20.7461,135.199,3.70079,0.0,0.0
4980,1244.75,58.3878,63.213,160.212,100.434,59.0689,0.00291496,0.213025,20.7445,134.918,3.78449,0.0,0.0
4995,1248.5,58.6183,63.5961,160.653,100.422,59.8346,0.00245172,0.215591,20.7427,134.678,3.69182,0.0,0.0
5010,1252.25,58.8896,63.5262,165.677,100.401,59.8727,0.00222553,0.217642,20.7392,134.408,3.68576,0.0,0.0
5025,1256,58.8498,64.1611,162.607,100.39,59.3288,0.00219489,0.218847,20.7368,134.078,3.75003,0.0,0.0
5040,1259.75,59.3522,64.4672,162.917,100.366,59.5431,0.00195974,0.220475,20.7361,133.807,3.72261,0.0,0.0
5055,1263.5,59.4781,64.6374,160.329,100.338,60.0636,0.00194363,0.222318,20.7344,133.507,3.65857,0.0,0.0
5070,1267.25,59.7919,65.1525,163.125,100.311,59.4223,0.00174031,0.223028,20.7316,133.117,3.73319,0.0,0.0
5085,1271,59.9368,65.1893,163.042,100.29,60.7095,0.00197606,0.228743,20.7285,132.877,3.57888,0.0,0.0
5100,1274.75,59.9144,65.2325,158.947,100.266,59.5751,0.00214047,0.229044,20.7237,132.596,3.71168,0.0,0.0
5115,1278.5,60.1953,65.4225,161.671,100.212,58.8886,0.00204929,0.229729,20.722,132.236,3.79049,0.0,0.0
5130,1282.25,60.6104,65.849,164.805,100.184,59.5406,0.00197274,0.230873,20.7216,131.926,3.70996,0.0,0.0
5145,1286,60.818,66.1225,158.154,100.152,60.7018,0.00199004,0.234612,20.7198,131.555,3.56996,0.0,0.0
5160,1289.75,61.1563,66.1603,158.262,100.078,60.68,0.0018768,0.2374,20.7159,131.235,3.56731,0.0,0.0
5175,1293.5,61.3166,66.5836,159.063,100.011,60.0864,0.00188651,0.240176,20.7122,130.915,3.63261,0.0,0.0
5190,1297.25,61.0171,66.7261,160.015,99.9641,59.2674,0.00212004,0.242903,20.7085,130.625,3.72711,0.0,0.0
5205,1301,61.2201,67.5132,158.326,99.9262,59.6223,0.00238511,0.24537,20.7041,130.304,3.68183,0.0,0.0
5220,1304.75,61.7731,67.0172,160.502,99.8957,60.4383,0.00232359,0.247524,20.7006,130.034,3.58274,0.0,0.0
5235,1308.5,62.1508,67.3347,158.766,99.8605,58.7677,0.00212822,0.249041,20.6991,129.654,3.78008,0.0,0.0
5250,1312.25,62.1508,68.0373,168.455,99.8526,58.7957,0.0021036,0.251669,20.6977,129.343,3.77613,0.0,0.0
5265,1316,62.4383,67.9498,161.854,99.8416,59.145,0.00223834,0.253634,20.6946,129.023,3.7331,0.0,0.0
5280,1319.75,62.3249,67.8965,159.404,99.7973,60.0788,0.00225187,0.254365,20.6916,128.563,3.61825,0.0,0.0
5295,1323.5,62.8006,68.4696,157.587,99.7443,59.3872,0.00211451,0.255118,20.6906,128.323,3.69701,0.0,0.0
5310,1327.25,62.8394,68.1719,157.58,99.7055,59.077,0.00205315,0.253311,20.6907,128.002,3.73158,0.0,0.0
5325,1331,62.8362,68.4676,166.672,99.6648,59.4969,0.00203765,0.254813,20.6923,127.662,3.67817,0.0,0.0
5340,1334.75,63.3018,68.3367,161.517,99.5924,58.8119,0.00183789,0.255217,20.6905,127.352,3.75555,0.0,0.0
5355,1338.5,63.1541,68.6491,162.429,99.5236,59.5832,0.00193546,0.253042,20.6895,127.011,3.65773,0.0,0.0
5370,1342.25,63.3826,68.1718,162.49,99.4635,58.4316,0.00210555,0.252542,20.6905,126.621,3.79257,0.0,0.0
5385,1346,63.6442,68.2016,166.501,99.3797,59.5482,0.0021141,0.251893,20.6902,126.261,3.6516,0.0,0.0
5400,1349.75,63.0379,68.2167,160.236,99.2986,59.1349,0.0021093,0.250559,20.6914,126.031,3.69545,0.0,0.0
5415,1353.5,63.4683,68.6124,161.287,99.2168,58.5596,0.0021512,0.248859,20.6929,125.69,3.75927,0.0,0.0
5430,1357.25,63.3473,68.532,161.223,99.1128,58.3595,0.00222746,0.253455,20.6936,125.41,3.77619,0.0,0.0
5445,1361,63.3805,68.647,164.56,99.0159,59.4807,0.00214739,0.253065,20.6908,125.1,3.63355,0.0,0.0
5460,1364.75,63.6393,68.7946,158.202,98.9356,59.0049,0.00228306,0.250477,20.6917,124.749,3.68502,0.0,0.0
5475,1368.5,63.6571,68.4745,159.597,98.8842,59.3339,0.00214723,0.253837,20.6936,124.309,3.64167,0.0,0.0
5490,1372.25,63.6606,69.1309,159.543,98.8052,59.1232,0.00178535,0.255532,20.6901,123.999,3.66133,0.0,0.0
5505,1376,64.1636,68.8961,166.681,98.7787,59.3715,0.00184386,0.255114,20.689,123.759,3.62954,0.0,0.0
5520,1379.75,64.189,69.0607,154.751,98.7533,58.4407,0.00204682,0.257564,20.6897,123.418,3.74037,0.0,0.0
5535,1383.5,64.365,69.5794,161.645,98.7201,58.2564,0.00215246,0.259102,20.6891,123.048,3.76049,0.0,0.0
5550,1387.25,64.2363,69.2153,159.881,98.7039,59.0018,0.00217401,0.259991,20.687,122.708,3.66867,0.0,0.0
5565,1391,64.2462,69.8117,160.555,98.6881,59.4294,0.0021473,0.262963,20.6846,122.347,3.61605,0.0,0.0
5580,1394.75,64.4281,69.9302,156.484,98.6656,58.1701,0.00223018,0.263918,20.6823,121.907,3.76712,0.0,0.0
5595,1398.5,64.3945,69.7349,158.865,98.6747,58.3356,0.00212165,0.266587,20.68,121.607,3.74752,0.0,0.0
5610,1402.25,64.8169,70.0267,158.453,98.7043,59.7452,0.00212275,0.26834,20.6772,121.256,3.57943,0.0,0.0
5625,1406,65.0744,70.2187,156.421,98.7407,59.6203,0.002189,0.27042,20.6743,120.946,3.59698,0.0,0.0
5640,1409.75,65.0747,70.6261,156.301,98.7625,58.8084,0.0022916,0.273869,20.6715,120.586,3.69632,0.0,0.0
5655,1413.5,65.4375,70.3492,163.955,98.8146,58.395,0.00238629,0.274303,20.6695,120.235,3.75037,0.0,0.0
5670,1417.25,65.2328,70.6277,154.082,98.8755,58.0279,0.00236447,0.275065,20.6681,119.835,3.79973,0.0,0.0
5685,1421,65.5758,71.2347,160.59,98.9254,58.3544,0.00232293,0.276689,20.6669,119.415,3.76332,0.0,0.0
5700,1424.75,65.1583,70.7153,159.568,98.9985,58.815,0.00240725,0.278468,20.6635,119.115,3.71254,0.0,0.0
5715,1428.5,65.6311,71.5034,163.829,99.0618,58.6581,0.00249624,0.279114,20.6622,118.774,3.73614,0.0,0.0
5730,1432.25,65.7484,70.8854,160.64,99.1156,58.101,0.00243326,0.279766,20.6601,118.414,3.80804,0.0,0.0
5745,1436,66.002,71.2465,164.663,99.199,58.5326,0.00237792,0.279449,20.6587,118.074,3.76127,0.0,0.0
5760,1439.75,65.9806,71.685,155.809,99.2872,58.9297,0.0024478,0.278278,20.6596,117.753,3.7194,0.0,0.0
5775,1443.5,65.9767,71.3889,159.186,99.356,58.9744,0.0022751,0.277468,20.6602,117.353,3.71893,0.0,0.0
5790,1447.25,65.8278,71.0272,161.503,99.4402,60.1519,0.0023667,0.278442,20.6604,116.983,3.58402,0.0,0.0
5805,1451,66.0345,71.4511,152.944,99.5189,58.9531,0.00244669,0.27692,20.661,116.682,3.73319,0.0,0.0
5820,1454.75,66.2881,71.1445,158.731,99.5861,58.7063,0.00229476,0.273655,20.6612,116.372,3.76792,0.0,0.0
5835,1458.5,66.2957,71.4545,160.976,99.6399,59.0729,0.00242489,0.274611,20.665,116.002,3.72738,0.0,0.0
5850,1462.25,66.4134,71.342,158.107,99.7004,58.9196,0.00247997,0.275874,20.6647,115.661,3.75024,0.0,0.0
5865,1466,66.3358,71.4693,162.389,99.7423,58.5184,0.0020572,0.275128,20.6645,115.291,3.80194,0.0,0.0
5880,1469.75,66.4378,71.3303,160.206,99.7712,58.6753,0.00213765,0.276056,20.6625,114.901,3.78492,0.0,0.0
5895,1473.5,66.9809,71.406,154.035,99.8147,58.554,0.00218891,0.277613,20.662,114.591,3.80278,0.0,0.0
5910,1477.25,66.311,72.1845,156.37,99.8692,60.4155,0.00221681,0.27906,20.6617,114.27,3.58355,0.0,0.0
5925,1481,66.3795,72.22,156.009,99.9005,57.7009,0.00218636,0.282431,20.6575,113.9,3.91355,0.0,0.0
5940,1484.75,67.1691,72.0886,160.048,99.9143,58.7789,0.00212364,0.283754,20.6531,113.56,3.78256,0.0,0.0
5955,1488.5,66.4872,72.6086,154.353,99.9535,57.7421,0.00221314,0.284647,20.6508,113.199,3.91225,0.0,0.0
5970,1492.25,67.3655,72.1493,158.964,99.959,57.9441,0.00230691,0.286387,20.6476,112.859,3.88773,0.0,0.0
5985,1496,67.5246,72.5909,159.823,99.9586,58.2361,0.00240656,0.289714,20.6451,112.409,3.85187,0.0,0.0
6000,1499.75,67.4179,72.4611,155.79,99.9527,58.1777,0.00220949,0.287819,20.6436,112.138,3.8586,0.0,0.0
6015,1503.5,67.2945,72.756,164.24,99.9661,58.0706,0.00238,0.289008,20.6428,111.808,3.8727,0.0,0.0
6030,1507.25,67.4344,72.8522,158.082,99.9511,58.5753,0.00242078,0.289798,20.6412,111.458,3.80993,0.0,0.0
6045,1511,67.7578,72.5166,155.078,99.9274,58.7215,0.0023618,0.28646,20.6391,111.127,3.79046,0.0,0.0
6060,1514.75,67.3729,72.2975,156.128,99.8977,58.3925,0.00259827,0.285151,20.6418,110.817,3.8284,0.0,0.0
6075,1518.5,67.3168,72.3158,159.783,99.8526,57.8903,0.00259408,0.280844,20.6424,110.507,3.88677,0.0,0.0
6090,1522.25,67.2851,72.3346,157.402,99.8091,58.0411,0.00239768,0.276353,20.6459,110.177,3.86511,0.0,0.0
6105,1526,66.7313,71.8915,157.446,99.7518,57.8858,0.00261154,0.270509,20.6505,109.976,3.88013,0.0,0.0
6120,1529.75,67.0448,71.7127,165.94,99.6988,57.6141,0.00289653,0.265663,20.6571,109.716,3.90988,0.0,0.0
6135,1533.5,66.9459,70.8459,158.887,99.6502,57.8807,0.00286662,0.256975,20.6632,109.456,3.87348,0.0,0.0
6150,1537.25,66.1898,70.1602,158.232,99.5968,59.3354,0.0024021,0.246771,20.6711,109.246,3.69268,0.0,0.0
6165,1541,66.2437,69.2652,163.838,99.5608,58.0914,0.00237403,0.235064,20.6811,109.046,3.84118,0.0,0.0
6180,1544.75,65.945,68.6105,162.851,99.5225,58.4656,0.00232203,0.223522,20.6954,108.805,3.79265,0.0,0.0
6195,1548.5,64.9609,67.563,165.037,99.4888,57.8995,0.00220952,0.211146,20.7078,108.735,3.85962,0.0,0.0
6210,1552.25,64.7306,66.903,165.523,99.4584,58.4758,0.00223083,0.196739,20.7215,108.635,3.78682,0.0,0.0
6225,1556,63.8519,65.959,165.159,99.4189,59.7188,0.00243667,0.180607,20.7388,108.525,3.63401,0.0,0.0
6240,1559.75,63.4545,65.415,162.432,99.3848,59.3979,0.0027152,0.167388,20.7562,108.395,3.66999,0.0,0.0
6255,1563.5,62.8071,63.9271,167.756,99.3544,59.2384,0.00306401,0.156516,20.771,108.285,3.68697,0.0,0.0
6270,1567.25,62.343,63.1484,166.896,99.3326,57.8812,0.00340126,0.148523,20.784,108.135,3.85067,0.0,0.0
6285,1571,62.0075,62.3499,166.522,99.3686,58.0878,0.00361307,0.141414,20.7939,108.055,3.82784,0.0,0.0
6300,1574.75,61.1877,61.3104,168.669,99.5149,59.0663,0.00397598,0.134894,20.8035,108.045,3.71923,0.0,0.0
6315,1578.5,60.6444,61.1907,164.636,99.6162,58.6672,0.00462231,0.128638,20.8138,107.975,3.77482,0.0,0.0
6330,1582.25,59.6937,59.8211,169.941,99.734,59.1029,0.00524079,0.123258,20.822,107.875,3.7305,0.0,0.0
6345,1586,59.4607,59.7199,168.33,99.8317,58.4864,0.00535331,0.119634,20.8288,107.815,3.81223,0.0,0.0
6360,1589.75,58.276,58.9719,166.762,99.9116,59.0018,0.00549826,0.114483,20.8341,107.745,3.75538,0.0,0.0
6375,1593.5,58.3636,58.4446,172.168,99.9701,59.4634,0.00579104,0.111841,20.8415,107.594,3.70399,0.0,0.0
6390,1597.25,57.9451,57.9075,171.188,100.017,59.0658,0.00557898,0.112036,20.844,107.534,3.75518,0.0,0.0
6405,1601,57.1444,56.9115,164.639,100.089,59.4289,0.00551332,0.108433,20.8445,107.534,3.71659,0.0,0.0
6420,1604.75,57.1866,56.79,169.012,100.136,59.0633,0.00580033,0.106735,20.848,107.454,3.76397,0.0,0.0
6435,1608.5,56.4735,56.732,163.077,100.152,58.6642,0.00591409,0.104519,20.8513,107.404,3.81343,0.0,0.0
6450,1612.25,56.1747,56.6256,169.119,100.185,58.6906,0.00612478,0.10308,20.8568,107.334,3.81256,0.0,0.0
6465,1616,55.8181,55.997,170.923,100.191,58.1726,0.00627238,0.102232,20.8589,107.234,3.87618,0.0,0.0
6480,1619.75,55.7839,55.3898,166.259,100.179,59.5497,0.0061068,0.100949,20.861,107.154,3.70853,0.0,0.0
6495,1623.5,55.2879,54.9132,168.928,100.159,58.9988,0.00577892,0.0982211,20.863,107.114,3.77342,0.0,0.0
6510,1627.25,54.8408,54.5533,170.16,100.106,58.6901,0.00589676,0.098326,20.8655,107.104,3.80702,0.0,0.0
6525,1631,54.2875,53.8732,165.515,100.032,58.1432,0.00619549,0.0991969,20.8662,107.024,3.8685,0.0,0.0
6540,1634.75,54.2616,54.114,170.309,99.9452,58.0096,0.00645518,0.100202,20.8647,106.974,3.87869,0.0,0.0
6555,1638.5,53.9856,53.9269,168.422,99.8424,58.7373,0.00637379,0.0983363,20.8625,106.924,3.78248,0.0,0.0
6570,1642.25,53.436,53.6861,171.924,99.7261,58.3138,0.00621211,0.096899,20.8636,106.874,3.82576,0.0,0.0
6585,1646,53.5352,53.71,164.359,99.7498,58.9795,0.00624914,0.0959065,20.8658,106.764,3.74653,0.0,0.0
6600,1649.75,53.4426,53.4276,169.261,99.789,59.1212,0.00631676,0.0947781,20.868,106.774,3.73222,0.0,0.0
6615,1653.5,52.6795,53.4273,164.917,99.8226,58.9074,0.0060158,0.0943257,20.8702,106.704,3.76045,0.0,0.0
6630,1657.25,52.9155,53.3678,168.373,99.8542,58.5519,0.00579224,0.0933952,20.8716,106.684,3.80586,0.0,0.0
6645,1661,52.8441,52.8396,166.94,99.8866,58.2965,0.00565398,0.0933683,20.872,106.614,3.83934,0.0,0.0
6660,1664.75,52.7073,52.6968,168.747,99.9135,58.5768,0.0057905,0.0930387,20.8735,106.503,3.80706,0.0,0.0
6675,1668.5,52.777,52.7197,166.699,99.9515,58.7622,0.00585271,0.0924637,20.8738,106.423,3.78725,0.0,0.0
6690,1672.25,51.9691,52.6028,168.467,99.9823,58.6048,0.00581235,0.092731,20.8734,106.383,3.80857,0.0,0.0
6705,1676,51.7233,52.5337,168.829,100.043,58.6687,0.00607012,0.093264,20.8724,106.403,3.8051,0.0,0.0
6720,1679.75,52.2719,52.4183,167.331,100.106,58.0264,0.00612503,0.0926628,20.8732,106.343,3.88807,0.0,0.0
6735,1683.5,52.1898,52.1883,167.931,100.168,57.9929,0.00589013,0.0921458,20.8754,106.293,3.89661,0.0,0.0
6750,1687.25,51.1716,51.638,168.851,100.235,58.4951,0.00583291,0.0918382,20.8767,106.243,3.83992,0.0,0.0
6765,1691,50.8217,51.1343,168.41,100.308,58.424,0.00584215,0.0913676,20.8772,106.133,3.85379,0.0,0.0
6780,1694.75,50.6543,51.5223,173.295,100.397,58.8789,0.00605833,0.0901994,20.8791,106.083,3.80481,0.0,0.0
6795,1698.5,50.3822,51.267,167.361,100.445,58.5575,0.0060066,0.0898093,20.8808,106.113,3.84726,0.0,0.0
6810,1702.25,50.5808,51.4006,168.321,100.489,59.4517,0.00588209,0.0898729,20.8806,106.103,3.7423,0.0,0.0
6825,1706,50.3542,50.8074,164.981,100.543,59.4984,0.00584769,0.0899331,20.8789,106.023,3.74054,0.0,0.0
6840,1709.75,50.391,50.6825,169.826,100.594,59.0023,0.00577356,0.0899959,20.878,105.993,3.80388,0.0,0.0
6855,1713.5,49.8658,50.9036,171.118,100.627,58.9957,0.00593534,0.0896436,20.8778,105.913,3.80701,0.0,0.0
6870,1717.25,50.2694,50.9053,169.42,100.632,58.9043,0.00611417,0.0895583,20.8778,105.793,3.8184,0.0,0.0
6885,1721,50.2495,50.47,168.592,100.613,58.5672,0.00570019,0.0897866,20.8786,105.763,3.85801,0.0,0.0
6900,1724.75,49.6399,50.8697,167.136,100.62,58.7677,0.00566409,0.0899985,20.8806,105.823,3.83408,0.0,0.0
6915,1728.5,49.7169,50.8773,170.041,100.61,59.2923,0.00576903,0.0902185,20.8799,105.753,3.77003,0.0,0.0
6930,1732.25,49.8741,50.7609,173.243,100.574,58.5971,0.00585037,0.0902695,20.8807,105.683,3.85156,0.0,0.0
6945,1736,49.8727,50.4348,166.972,100.567,59.0709,0.00568348,0.0896898,20.881,105.633,3.79367,0.0,0.0
6960,1739.75,49.8522,50.4551,168.77,100.538,59.3258,0.00575979,0.0902805,20.8811,105.573,3.76089,0.0,0.0
6975,1743.5,49.4417,50.4831,166.221,100.477,59.1572,0.00600691,0.090009,20.8811,105.513,3.77683,0.0,0.0
6990,1747.25,49.813,50.4386,175.308,100.488,59.44,0.00599899,0.0898841,20.881,105.453,3.74361,0.0,0.0
7005,1751,49.5439,50.7133,167.276,100.491,58.7906,0.00583846,0.0902295,20.8806,105.473,3.8222,0.0,0.0
7020,1754.75,49.6714,50.4798,163.844,100.49,59.0993,0.00557165,0.0894619,20.8799,105.443,3.78474,0.0,0.0
7035,1758.5,49.3628,50.9464,173.252,100.469,58.4956,0.00545288,0.0893067,20.8803,105.402,3.85649,0.0,0.0
7050,1762.25,49.3408,49.9288,167.715,100.457,59.2253,0.00564228,0.0895637,20.8804,105.342,3.76724,0.0,0.0
7065,1766,49.423,50.206,169.07,100.445,59.048,0.00577278,0.0887664,20.8805,105.282,3.78776,0.0,0.0
7080,1769.75,49.0973,50.3082,169.285,100.443,59.179,0.00595808,0.0892916,20.8805,105.192,3.77185,0.0,0.0
7095,1773.5,49.6558,49.9883,171.475,100.457,58.7444,0.00607446,0.089492,20.8818,105.232,3.82539,0.0,0.0
7110,1777.25,49.6016,50.188,164.715,100.446,58.3971,0.00583718,0.0914104,20.8804,105.192,3.86685,0.0,0.0
7125,1781,48.8595,50.0057,172.787,100.458,59.0968,0.00589108,0.0924435,20.8787,105.132,3.78277,0.0,0.0
7140,1784.75,49.5574,50.3085,168.164,100.458,58.6616,0.00567966,0.092225,20.8768,105.092,3.83547,0.0,0.0
7155,1788.5,49.2074,50.2701,173.288,100.455,58.5692,0.00543092,0.0903405,20.8772,105.062,3.84651,0.0,0.0
7170,1792.25,49.1059,49.6821,167.699,100.439,58.3539,0.00544804,0.0902432,20.8799,104.922,3.87168,0.0,0.0
7185,1796,48.4701,50.3798,167.291,100.449,58.4763,0.00547859,0.0903604,20.8824,104.912,3.85738,0.0,0.0
7200,1799.75,49.327,50.1448,170.218,100.447,58.7266,0.00542547,0.0904021,20.883,104.922,3.82679,0.0,0.0
7215,1803.5,48.8437,49.7617,170.897,100.434,58.4687,0.0053336,0.0905418,20.8831,104.862,3.85727,0.0,0.0
7217,1804,49.033,49.9478,171.2,100.421,58.1478,0.0053371,0.0908486,20.8831,104.812,3.89562,0.0,0.0