File: 01_Data/Particleboard/Cone/Particleboard_Cone_HF50Scan_230705_R1.csv
Names,Time,Stack TC,Smoke TC,Exh Press,Smoke Comp,Smoke Meas,CO Meter,CO2 Meter,O2 Meter,Sample Mass,Ext Coeff,Start Test,Flame Verif
Chan Gain,,500,500,1,1,1,1,1,1,1,1,1.0,1.0
Offset,,0,0,0.138104,0,0,0,0,0,0,0,0.0,0.0
Gain,,1,1,25.011,13.0138,27.5369,1,1,1,1.00088,0.812795,1.0,1.0
Units,sec,C,C,Pa,%,%,%,%,%,g,/m,,
Baseline,,56.6824,59.6129,165.209,101.066,101.86,0.000538974,0.0439837,20.9298,-446.096,-0.0556387,,
12,2.75,54.5301,56.668,167.461,100.712,100.388,0.000401927,0.0439026,20.9331,208.233,0.0229868,0.0,0.0
24,5.75,54.824,56.8982,168.464,100.618,100.279,0.000406189,0.0446102,20.9319,208.033,0.0240805,0.0,0.0
36,8.75,55.0858,57.1263,164.431,100.507,101.25,0.000580144,0.0459624,20.9311,207.932,-0.0525099,0.0,0.0
48,11.75,55.0292,57.4203,163.988,100.388,101.279,0.000618761,0.0475106,20.9294,207.842,-0.063038,0.0,0.0
60,14.75,55.0411,57.6443,162.464,100.284,99.9051,0.000548972,0.0489445,20.9271,207.742,0.0269836,0.0,0.0
72,17.75,55.4706,58.1914,163.686,100.164,100.277,0.000503501,0.0493882,20.9279,207.682,-0.00803898,0.0,0.0
84,20.75,55.771,58.6022,162.821,100.044,99.8656,0.000461824,0.0484143,20.9281,207.602,0.0127563,0.0,0.0
96,23.75,55.561,58.6347,163.622,99.9404,100.731,0.00064336,0.046665,20.9281,207.572,-0.056193,0.0,0.0
108,26.75,55.8636,58.3626,166.958,99.8634,99.2665,0.000665004,0.0456024,20.9294,207.482,0.0427441,0.0,0.0
120,29.75,55.8365,58.4933,165.779,99.8102,98.1194,0.0006767,0.0452183,20.9311,207.382,0.121813,0.0,0.0
132,32.75,55.9475,58.7603,162.862,99.7486,98.7917,0.000709011,0.0455198,20.9323,207.292,0.0687292,0.0,0.0
144,35.75,55.72,59.2154,159.3,99.6962,99.6631,0.000813422,0.0463353,20.9327,207.112,0.00236413,0.0,1.0
156,38.75,56.7488,61.3263,153.153,99.6664,101.503,0.000957316,0.0475088,20.9326,206.801,-0.130164,0.0,1.0
168,41.75,57.5811,64.8544,152.865,99.6179,102.63,0.000842973,0.0492525,20.9323,206.351,-0.212353,0.0,1.0
180,44.75,60.0484,69.4965,139.278,99.5627,100.319,0.000894265,0.0654866,20.9302,205.891,-0.0539241,0.0,0.0
192,47.75,62.6996,74.4874,145.883,99.5421,101.198,0.00137797,0.144837,20.9097,205.41,-0.117603,0.0,0.0
204,50.75,65.2122,79.3313,143.652,99.4972,100.131,0.00208516,0.253138,20.7906,204.9,-0.0452866,0.0,0.0
216,53.75,67.8773,83.9406,137.569,99.4642,99.4119,0.00280918,0.345497,20.6597,204.299,0.00375658,0.0,0.0
228,56.75,70.5926,88.1083,141.259,99.4571,99.1068,0.00338273,0.41922,20.5488,203.679,0.0251562,0.0,0.0
240,59.75,72.9605,92.09,137.663,99.4341,97.3883,0.00364303,0.472776,20.4647,203.078,0.14822,0.0,0.0
252,62.75,75.1803,95.5538,139.381,99.4194,97.4303,0.00408793,0.521591,20.4046,202.438,0.144091,0.0,0.0
264,65.75,77.3206,98.0836,137.598,99.4309,96.7706,0.00479721,0.565186,20.3369,201.777,0.193356,0.0,0.0
276,68.75,79.2825,100.877,135.498,99.4265,96.0025,0.00532008,0.59638,20.2868,201.176,0.249859,0.0,0.0
288,71.75,81.3128,102.71,141.389,99.4353,94.3487,0.00566414,0.614032,20.2496,200.536,0.37438,0.0,0.0
300,74.75,82.9674,104.649,136.094,99.4277,96.216,0.00625646,0.626546,20.2314,199.895,0.23411,0.0,0.0
312,77.75,84.417,105.88,137.269,99.4543,94.2168,0.00655606,0.629907,20.2181,199.295,0.385724,0.0,0.0
324,80.75,85.7267,106.202,144.49,99.4555,95.9882,0.00679031,0.626846,20.214,198.654,0.252999,0.0,0.0
336,83.75,86.6381,107.014,138.046,99.4781,94.2142,0.00688548,0.621106,20.2193,197.974,0.387623,0.0,0.0
348,86.75,87.4347,107.612,138.627,99.5171,94.8067,0.00676827,0.611073,20.226,197.423,0.345717,0.0,0.0
360,89.75,88.332,107.672,140.206,99.5659,95.895,0.00670059,0.600965,20.2386,196.823,0.267841,0.0,0.0
372,92.75,89.1702,106.964,147.504,99.6116,95.4882,0.00674246,0.588325,20.2536,196.242,0.301416,0.0,0.0
384,95.75,89.6484,106.718,140.948,99.6747,96.6395,0.00676743,0.573967,20.2699,195.702,0.220486,0.0,0.0
396,98.75,89.4544,106.506,145.804,99.743,96.3286,0.00677344,0.557692,20.2867,195.161,0.248346,0.0,0.0
408,101.75,89.4281,105.498,141.88,99.8046,95.8269,0.00679949,0.540702,20.3067,194.721,0.289975,0.0,0.0
420,104.75,89.6884,105.365,140.735,99.8689,95.5176,0.00665514,0.521852,20.3286,194.16,0.317616,0.0,0.0
432,107.75,90.177,104.965,146.6,99.9627,96.9689,0.00657565,0.505165,20.3505,193.63,0.216789,0.0,0.0
444,110.75,90.2439,104.206,142.325,100.053,99.6598,0.00656768,0.492594,20.3711,193.159,0.0280936,0.0,0.0
456,113.75,90.1516,103.273,144.092,100.105,99.569,0.00649079,0.480556,20.3877,192.689,0.0382675,0.0,0.0
468,116.75,90.0639,102.984,143.517,100.197,99.2152,0.00631653,0.466505,20.4029,192.199,0.0702342,0.0,0.0
480,119.75,89.8318,102.311,148.582,100.247,99.8547,0.00596825,0.452053,20.4203,191.678,0.0279853,0.0,0.0
492,122.75,90.033,101.653,150.647,100.32,97.795,0.00584268,0.437543,20.4364,191.208,0.181729,0.0,0.0
504,125.75,89.6879,101.118,142.319,100.387,99.2362,0.00575759,0.426961,20.4543,190.757,0.0821918,0.0,0.0
516,128.75,89.6059,100.473,147.284,100.447,99.1992,0.00559354,0.420391,20.4658,190.327,0.0891343,0.0,0.0
528,131.75,89.0359,100.309,148.49,100.481,100.017,0.00561666,0.41003,20.4737,189.887,0.0330309,0.0,0.0
540,134.75,89.3537,99.6477,150.571,100.532,99.5295,0.00563244,0.397834,20.4864,189.436,0.0714393,0.0,0.0
552,137.75,88.9858,99.1779,148.112,100.596,100.425,0.00534906,0.388443,20.5029,188.986,0.0120877,0.0,0.0
564,140.75,89.0291,98.3881,152.259,100.626,100.609,0.00505139,0.380251,20.5152,188.645,0.00123145,0.0,0.0
576,143.75,88.1475,97.8503,148.986,100.644,99.7127,0.00499289,0.37128,20.5235,188.215,0.0662944,0.0,0.0
588,146.75,88.381,97.4745,150.084,100.678,102.167,0.00480298,0.364071,20.535,187.865,-0.104649,0.0,0.0
600,149.75,88.1296,96.5723,147.87,100.689,100.818,0.00456418,0.358864,20.5444,187.494,-0.00910863,0.0,0.0
612,152.75,87.6557,96.1964,148.961,100.686,102.298,0.00406259,0.356614,20.549,187.044,-0.113228,0.0,0.0
624,155.75,87.5231,96.1785,149.921,100.673,102.261,0.00396791,0.351471,20.5517,186.634,-0.111579,0.0,0.0
636,158.75,87.3398,95.5349,148.199,100.643,102.896,0.00416011,0.343292,20.5589,186.243,-0.157875,0.0,0.0
648,161.75,87.0441,94.945,149.191,100.589,99.6127,0.00405573,0.335549,20.5704,185.863,0.0695365,0.0,0.0
660,164.75,86.9628,94.3254,151.608,100.542,102.55,0.00377414,0.329157,20.5783,185.423,-0.140966,0.0,0.0
672,167.75,86.705,94.7127,150.588,100.464,101.309,0.00362282,0.325917,20.5867,185.032,-0.0597533,0.0,0.0
684,170.75,86.2786,93.7647,146.988,100.377,100.67,0.00350381,0.322625,20.5905,184.692,-0.0208074,0.0,0.0
696,173.75,86.3558,93.6863,152.964,100.287,101.84,0.00338489,0.319622,20.595,184.342,-0.109615,0.0,0.0
708,176.75,85.9741,93.1674,150.679,100.175,99.9043,0.00330652,0.317408,20.5975,183.961,0.0193031,0.0,0.0
720,179.75,85.5826,93.4242,153.444,100.098,101.266,0.00320403,0.314784,20.6002,183.641,-0.0827118,0.0,0.0
732,182.75,85.7191,92.885,151.932,100.054,101.512,0.00298187,0.310308,20.6035,183.281,-0.103167,0.0,0.0
744,185.75,85.3252,92.3058,152.256,100.008,100.089,0.002895,0.307895,20.6099,182.93,-0.00578914,0.0,0.0
756,188.75,85.1843,92.1094,153.152,99.9909,101.917,0.00295784,0.304534,20.6124,182.66,-0.136033,0.0,0.0
768,191.75,84.9166,91.741,149.054,100.013,101.765,0.00291995,0.300606,20.6174,182.36,-0.123799,0.0,0.0
780,194.75,84.6118,92.0494,147.606,100.141,101.667,0.00269565,0.297827,20.6225,181.99,-0.107796,0.0,0.0
792,197.75,84.3095,91.7493,148.551,100.229,103.062,0.00279772,0.295506,20.6269,181.629,-0.198686,0.0,0.0
804,200.75,84.544,91.261,151.253,100.366,101.951,0.00284125,0.292596,20.6275,181.289,-0.111701,0.0,0.0
816,203.75,84.6761,91.4675,147.403,100.5,102.777,0.00276144,0.290569,20.6299,180.939,-0.159681,0.0,0.0
828,206.75,84.1794,91.0778,150.542,100.592,101.666,0.00267361,0.286461,20.6321,180.458,-0.0756872,0.0,0.0
840,209.75,83.9289,90.8192,151.172,100.65,101.973,0.00268482,0.283879,20.6376,180.168,-0.0931443,0.0,0.0
852,212.75,83.8853,90.3733,148.005,100.725,102.903,0.00275329,0.28375,20.6398,179.858,-0.152519,0.0,0.0
864,215.75,83.8939,90.2819,156.564,100.759,102.404,0.00266203,0.282589,20.6404,179.568,-0.115518,0.0,0.0
876,218.75,83.275,90.5123,152.762,100.763,104.426,0.00239902,0.279518,20.6422,179.227,-0.254638,0.0,0.0
888,221.75,83.4415,89.7059,149.736,100.749,102.598,0.00227043,0.275161,20.6451,178.887,-0.129637,0.0,0.0
900,224.75,83.2109,89.8989,151.973,100.712,101.881,0.00238877,0.273988,20.6487,178.597,-0.0822909,0.0,0.0
912,227.75,83.2088,89.3091,149.711,100.657,102.444,0.00258924,0.275029,20.6498,178.336,-0.125438,0.0,0.0
924,230.75,82.7978,89.4827,152.866,100.563,102.018,0.00263978,0.273155,20.6502,178.026,-0.102394,0.0,0.0
936,233.75,82.6819,89.2569,154.164,100.448,103.354,0.00234182,0.270037,20.6532,177.726,-0.203367,0.0,0.0
948,236.75,82.4384,89.1861,155.125,100.382,103.08,0.00242559,0.269547,20.6561,177.346,-0.189097,0.0,0.0
960,239.75,82.9347,88.839,150.261,100.365,103.688,0.0025152,0.267718,20.657,177.045,-0.232211,0.0,0.0
972,242.75,82.3412,88.4719,152.296,100.41,103.319,0.00246415,0.265771,20.6588,176.725,-0.203583,0.0,0.0
984,245.75,82.6471,88.4079,149.848,100.447,102.8,0.00243314,0.265656,20.6597,176.425,-0.16509,0.0,0.0
996,248.75,82.282,88.5877,148.65,100.516,103.125,0.00249011,0.264876,20.6604,176.115,-0.182763,0.0,0.0
1008,251.75,82.1124,88.3833,156.406,100.562,104.259,0.00240556,0.264766,20.662,175.774,-0.257417,0.0,0.0
1020,254.75,82.1462,88.4229,152.768,100.64,102.517,0.00243487,0.262646,20.6641,175.464,-0.131762,0.0,0.0
1032,257.75,81.8348,88.1978,153.081,100.7,103.942,0.00244556,0.262149,20.6667,175.164,-0.225926,0.0,0.0
1044,260.75,82.0672,88.2119,147.884,100.759,102.951,0.00238242,0.260358,20.6674,174.843,-0.153392,0.0,0.0
1056,263.75,81.5671,87.822,152.797,100.843,103.773,0.00236329,0.258884,20.6691,174.533,-0.204215,0.0,0.0
1068,266.75,81.4371,88.0085,151.724,100.917,103.426,0.00227869,0.258248,20.6698,174.233,-0.175081,0.0,0.0
1080,269.75,81.7581,87.833,150.876,100.995,102.508,0.00220086,0.258583,20.6707,173.993,-0.105982,0.0,0.0
1092,272.75,81.4613,87.8048,152.304,101.054,103.58,0.00228996,0.260542,20.6708,173.742,-0.176028,0.0,0.0
1104,275.75,81.6892,87.6688,150.459,101.131,103.532,0.00230465,0.26035,20.6683,173.422,-0.167268,0.0,0.0
1116,278.75,81.2236,87.8148,152.197,101.189,103.645,0.00233505,0.257728,20.6688,173.122,-0.17096,0.0,0.0
1128,281.75,80.999,87.7439,150.699,101.229,103.238,0.00230934,0.254241,20.6719,172.862,-0.140128,0.0,0.0
1140,284.75,80.7961,87.2283,154.144,101.281,101.544,0.00211292,0.254287,20.6754,172.531,-0.0184931,0.0,0.0
1152,287.75,81.1607,87.1536,153.766,101.278,105.062,0.00192295,0.252798,20.6763,172.231,-0.261529,0.0,0.0
1164,290.75,81.01,87.1049,153.855,101.293,105.223,0.00190178,0.250888,20.678,171.871,-0.271379,0.0,0.0
1176,293.75,81.5157,86.8266,151.275,101.292,104.953,0.0019955,0.248229,20.6801,171.591,-0.253189,0.0,0.0
1188,296.75,81.0212,86.4982,153.606,101.272,103.739,0.00206891,0.246055,20.6834,171.29,-0.171586,0.0,0.0
1200,299.75,80.71,86.4733,153.744,101.255,104.258,0.00207821,0.246364,20.6846,171.04,-0.208392,0.0,0.0
1212,302.75,80.7021,86.461,154.787,101.207,104.443,0.00201724,0.24678,20.6849,170.73,-0.224409,0.0,0.0
1224,305.75,80.8671,86.2446,149.133,101.185,104.715,0.00197448,0.245498,20.685,170.47,-0.244483,0.0,0.0
1236,308.75,80.9268,85.9745,147.658,101.106,104.766,0.00209742,0.243413,20.6855,170.209,-0.253486,0.0,0.0
1248,311.75,80.7119,85.9588,154.287,101.054,103.936,0.00195521,0.241498,20.6888,169.989,-0.200512,0.0,0.0
1260,314.75,80.5782,86.3683,145.466,100.994,104.704,0.00213781,0.239948,20.6916,169.709,-0.257268,0.0,0.0
1272,317.75,80.144,86.2549,153.945,100.884,104.545,0.00224976,0.238396,20.6931,169.459,-0.254102,0.0,0.0
1284,320.75,80.4601,85.9372,148.353,100.806,104.557,0.00200031,0.236909,20.6949,169.148,-0.260464,0.0,0.0
1296,323.75,80.3142,85.6121,151.003,100.724,102.89,0.00191676,0.23539,20.6975,168.858,-0.151702,0.0,0.0
1308,326.75,80.2017,85.7151,154.085,100.598,104.503,0.0020425,0.233878,20.6993,168.598,-0.27153,0.0,0.0
1320,329.75,79.7829,85.7242,153.922,100.501,103.188,0.00229298,0.232262,20.7021,168.328,-0.188103,0.0,0.0
1332,332.75,80.2722,85.9663,150.936,100.382,103.193,0.00218287,0.231771,20.7033,167.997,-0.196967,0.0,0.0
1344,335.75,80.4319,85.3912,152.447,100.252,104.428,0.00183221,0.230265,20.7049,167.737,-0.290956,0.0,0.0
1356,338.75,80.0814,85.4139,153.845,100.141,103.404,0.00152564,0.229576,20.7045,167.497,-0.228555,0.0,0.0
1368,341.75,79.6965,85.0375,151.96,100.045,102.662,0.00157657,0.22903,20.7051,167.207,-0.184139,0.0,0.0
1380,344.75,79.2637,85.1449,151.938,99.9289,104.251,0.00177769,0.226686,20.7058,166.946,-0.301925,0.0,0.0
1392,347.75,79.6422,84.8597,153.2,99.8531,102.997,0.0017367,0.224749,20.7084,166.686,-0.221012,0.0,0.0
1404,350.75,79.4685,84.7733,148.751,99.7665,103.16,0.00140762,0.223978,20.7107,166.466,-0.238473,0.0,0.0
1416,353.75,79.2096,84.9069,154.002,99.718,103.256,0.00131189,0.223671,20.7127,166.246,-0.248555,0.0,0.0
1428,356.75,79.3303,84.4323,152.571,99.6596,104.521,0.00140971,0.223101,20.7137,165.986,-0.339587,0.0,0.0
1440,359.75,79.3627,84.3719,155.296,99.6124,102.575,0.00157113,0.220638,20.7139,165.715,-0.208956,0.0,0.0
1452,362.75,79.3518,84.037,151.561,99.5675,102.238,0.00155318,0.219758,20.7163,165.455,-0.188706,0.0,0.0
1464,365.75,79.008,84.5101,152.676,99.5453,104.167,0.00151604,0.218949,20.7179,165.185,-0.3236,0.0,0.0
1476,368.75,79.1544,84.1289,150.813,99.525,103.933,0.00150606,0.218744,20.7183,164.905,-0.308986,0.0,0.0
1488,371.75,78.4238,83.9513,150.502,99.5326,103.414,0.00137417,0.218192,20.7184,164.684,-0.272729,0.0,0.0
1500,374.75,78.6143,84.022,153.39,99.5695,101.722,0.00135559,0.216315,20.7207,164.414,-0.15249,0.0,0.0
1512,377.75,79.0811,83.3929,152.641,99.6175,102.337,0.00136639,0.214851,20.7242,164.144,-0.192036,0.0,0.0
1524,380.75,78.7155,83.4025,153.881,99.6577,102.817,0.00142307,0.213324,20.7251,163.894,-0.222518,0.0,0.0
1536,383.75,78.684,83.4389,153.3,99.7184,104.118,0.00129617,0.212151,20.7258,163.694,-0.307815,0.0,0.0
1548,386.75,78.1582,83.7072,150.921,99.8082,103.406,0.00132713,0.210773,20.7277,163.413,-0.252492,0.0,0.0
1560,389.75,78.0861,83.323,157.07,99.8999,103.475,0.00139372,0.208945,20.7299,163.173,-0.25069,0.0,0.0
1572,392.75,77.9276,82.9484,150.356,99.994,102.969,0.00143428,0.207529,20.7325,162.973,-0.209033,0.0,0.0
1584,395.75,77.6044,82.9725,155.602,100.1,103.151,0.0015626,0.206417,20.7346,162.753,-0.214033,0.0,0.0
1596,398.75,78.0303,82.6984,150.542,100.184,105.504,0.00171597,0.205738,20.7352,162.553,-0.368851,0.0,0.0
1608,401.75,77.5013,82.7106,149.172,100.284,103.836,0.00166767,0.20375,20.7364,162.272,-0.248131,0.0,0.0
1620,404.75,77.5499,83.0434,154.027,100.389,103.408,0.00143951,0.203029,20.7383,162.052,-0.211222,0.0,0.0
1632,407.75,77.8054,82.6025,156.973,100.492,104.272,0.00136927,0.202334,20.7388,161.842,-0.263236,0.0,0.0
1644,410.75,77.5819,82.2602,151.126,100.541,104.274,0.00154389,0.20156,20.7398,161.592,-0.259916,0.0,0.0
1656,413.75,77.8247,82.5569,156.227,100.612,103.324,0.00157742,0.200932,20.7406,161.352,-0.189647,0.0,0.0
1668,416.75,77.6546,82.4551,155.907,100.651,103.657,0.00142122,0.199948,20.7408,161.081,-0.20976,0.0,0.0
1680,419.75,77.6335,82.3088,153.135,100.71,103.604,0.00160024,0.199447,20.7428,160.831,-0.202041,0.0,0.0
1692,422.75,77.6533,82.5821,151.936,100.73,104.628,0.00166792,0.199539,20.7436,160.581,-0.270672,0.0,0.0
1704,425.75,78.0627,82.3299,150.825,100.755,103.649,0.00153549,0.198655,20.7436,160.371,-0.201901,0.0,0.0
1716,428.75,77.3461,82.4276,152.43,100.767,104.663,0.00164611,0.197778,20.7446,160.15,-0.270463,0.0,0.0
1728,431.75,77.3648,82.1869,156.314,100.765,102.337,0.00162363,0.197111,20.7464,159.92,-0.110415,0.0,0.0
1740,434.75,77.3929,82.6718,156.209,100.761,104.473,0.00162208,0.197021,20.7494,159.72,-0.257935,0.0,0.0
1752,437.75,77.0999,81.7075,154.907,100.737,104.225,0.0015484,0.19605,20.7505,159.52,-0.242653,0.0,0.0
1764,440.75,76.4908,81.9201,156.308,100.711,103.693,0.00147328,0.196912,20.7508,159.31,-0.208084,0.0,0.0
1776,443.75,76.9637,81.8105,154.984,100.68,105.038,0.00141567,0.19684,20.7509,159.1,-0.302106,0.0,0.0
1788,446.75,77.3186,81.8209,159.106,100.626,103.472,0.00144347,0.196473,20.7501,158.849,-0.198891,0.0,0.0
1800,449.75,77.0007,81.8872,159.23,100.579,104.075,0.00135846,0.19623,20.7506,158.619,-0.243609,0.0,0.0
1812,452.75,76.7975,81.8409,156.499,100.504,103.784,0.00142379,0.196944,20.7508,158.369,-0.229014,0.0,0.0
1824,455.75,76.9805,81.6945,159.2,100.42,103.375,0.00156102,0.196749,20.7507,158.119,-0.206762,0.0,0.0
1836,458.75,76.4851,81.7345,150.312,100.362,103.123,0.00173414,0.196742,20.7506,157.889,-0.193471,0.0,0.0
1848,461.75,77.1941,81.443,153.081,100.295,102.797,0.00200038,0.197451,20.7506,157.668,-0.175662,0.0,0.0
1860,464.75,76.9036,81.2019,157.49,100.223,104.852,0.00194199,0.198884,20.7491,157.438,-0.321961,0.0,0.0
1872,467.75,76.9434,81.255,152.963,100.151,104.675,0.00164102,0.199405,20.7471,157.188,-0.31501,0.0,0.0
1884,470.75,76.6258,81.2998,154.375,100.106,104.515,0.0014521,0.197803,20.7467,156.968,-0.307322,0.0,0.0
1896,473.75,76.8185,81.7279,152.699,100.081,103.035,0.0016123,0.197593,20.7478,156.758,-0.207429,0.0,0.0
1908,476.75,76.6988,81.5022,155.645,100.058,105.674,0.00172258,0.197192,20.7491,156.557,-0.389364,0.0,0.0
1920,479.75,76.6668,81.3523,153.484,100.104,103.498,0.00167686,0.197131,20.7492,156.377,-0.237727,0.0,0.0
1932,482.75,76.6261,81.3678,158.141,100.224,104.693,0.00181383,0.197522,20.7479,156.127,-0.310983,0.0,0.0
1944,485.75,76.8524,81.0358,153.694,100.309,105.841,0.00182165,0.195971,20.7476,155.937,-0.382747,0.0,0.0
1956,488.75,76.6601,80.9503,154.104,100.391,103.352,0.00164867,0.194927,20.7488,155.717,-0.207283,0.0,0.0
1968,491.75,76.5152,81.1024,156.683,100.512,103.009,0.00156068,0.194889,20.7491,155.516,-0.174994,0.0,0.0
1980,494.75,76.1036,80.9192,154.208,100.595,104.264,0.00158837,0.19484,20.7503,155.296,-0.255425,0.0,0.0
1992,497.75,76.3844,81.0265,157.621,100.678,103.779,0.00178962,0.195691,20.7512,154.986,-0.21631,0.0,0.0
2004,500.75,76.1788,81.3113,153.397,100.764,103.191,0.00180652,0.196554,20.7508,154.746,-0.169709,0.0,0.0
2016,503.75,76.3075,81.2022,153.385,100.791,104.88,0.00185391,0.197027,20.7486,154.536,-0.283531,0.0,0.0
2028,506.75,76.3371,81.2522,154.918,100.81,104.17,0.00201088,0.196429,20.7485,154.315,-0.233774,0.0,0.0
2040,509.75,75.8401,81.0386,161.367,100.817,104.144,0.00196923,0.196241,20.7484,154.055,-0.231485,0.0,0.0
2052,512.75,76.2409,81.5207,159.665,100.809,102.925,0.00184518,0.196673,20.7484,153.855,-0.148104,0.0,0.0
2064,515.75,76.5865,80.6512,153.655,100.786,104.486,0.00172492,0.196648,20.7479,153.695,-0.257053,0.0,0.0
2076,518.75,76.4512,80.801,155.28,100.747,104.211,0.00157764,0.195585,20.7484,153.485,-0.241003,0.0,0.0
2088,521.75,76.3291,81.1278,154.577,100.681,104.197,0.00145253,0.196738,20.7495,153.294,-0.24472,0.0,0.0
2100,524.75,76.4189,81.2439,155.679,100.589,102.357,0.00162192,0.19856,20.7499,153.084,-0.124279,0.0,0.0
2112,527.75,76.4999,81.4102,155.89,100.504,105.435,0.00183559,0.199352,20.7483,152.904,-0.341505,0.0,0.0
2124,530.75,76.4311,81.082,155.248,100.402,103.542,0.00172214,0.199687,20.7462,152.644,-0.219612,0.0,0.0
2136,533.75,76.1359,80.9367,156.401,100.469,105.811,0.00146388,0.199522,20.7455,152.404,-0.36937,0.0,0.0
2148,536.75,76.3424,81.3108,151.072,100.51,105.2,0.0015179,0.199297,20.7453,152.184,-0.325153,0.0,0.0
2160,539.75,76.4712,81.1353,150.653,100.589,103.783,0.00161959,0.200312,20.7452,151.933,-0.222929,0.0,0.0
2172,542.75,76.3373,81.4857,155.138,100.658,104.584,0.00169703,0.199812,20.7452,151.643,-0.272839,0.0,0.0
2184,545.75,76.3202,81.1367,153.422,100.749,103.757,0.00170648,0.199916,20.7452,151.453,-0.209776,0.0,0.0
2196,548.75,76.9521,81.3007,155.588,100.822,105.18,0.00161681,0.200796,20.7445,151.193,-0.301706,0.0,0.0
2208,551.75,76.5952,81.6366,158.153,100.921,105.843,0.00159062,0.200489,20.7443,150.952,-0.339493,0.0,0.0
2220,554.75,76.3698,81.7909,150.692,100.985,105.234,0.0016559,0.202355,20.7442,150.762,-0.293817,0.0,0.0
2232,557.75,76.5662,81.2817,153.329,101.081,104.079,0.00178137,0.203256,20.7412,150.482,-0.2084,0.0,0.0
2244,560.75,76.2452,80.9852,153.045,101.158,103.146,0.00194369,0.203968,20.74,150.342,-0.138751,0.0,0.0
2256,563.75,76.6253,81.2211,149.729,101.236,105.015,0.00200579,0.204399,20.7387,150.092,-0.261355,0.0,0.0
2268,566.75,76.5666,81.3027,152.242,101.303,103.868,0.00187145,0.204099,20.7376,149.942,-0.178322,0.0,0.0
2280,569.75,76.3347,81.3533,151.935,101.33,104.093,0.0017156,0.204363,20.7386,149.691,-0.191809,0.0,0.0
2292,572.75,76.4652,81.594,151.904,101.343,104.884,0.00176182,0.203833,20.7392,149.491,-0.244873,0.0,0.0
2304,575.75,76.3788,81.5212,153.324,101.353,104.715,0.0018412,0.203456,20.7394,149.261,-0.232656,0.0,0.0
2316,578.75,76.6951,82.2124,155.108,101.356,104.518,0.0017683,0.205447,20.7387,149.041,-0.219001,0.0,0.0
2328,581.75,76.4611,81.4881,154.071,101.321,104.572,0.00172091,0.206655,20.7369,148.801,-0.225241,0.0,0.0
2340,584.75,76.8685,81.7557,154.2,101.292,104.417,0.00159737,0.207699,20.7368,148.54,-0.216674,0.0,0.0
2352,587.75,76.408,81.5296,156.083,101.245,103.573,0.00160355,0.207532,20.7354,148.32,-0.162129,0.0,0.0
2364,590.75,76.8892,81.4902,156.831,101.193,106.462,0.00176488,0.208206,20.7361,148.12,-0.361953,0.0,0.0
2376,593.75,76.4331,81.6787,153.118,101.135,105.657,0.00173792,0.210572,20.7372,147.84,-0.311864,0.0,0.0
2388,596.75,76.5136,81.8872,153.99,101.07,105.357,0.00166693,0.211916,20.7336,147.65,-0.296184,0.0,0.0
2400,599.75,76.6611,81.5548,155.899,100.996,104.184,0.0014867,0.212824,20.7323,147.389,-0.221618,0.0,0.0
2412,602.75,76.7882,82.049,151.498,100.915,104.926,0.00143594,0.213406,20.732,147.199,-0.277885,0.0,0.0
2424,605.75,76.903,82.0039,149.017,100.83,105.661,0.00163112,0.213408,20.7319,146.939,-0.333682,0.0,0.0
2436,608.75,76.5872,82.002,152.62,100.723,104.951,0.00182616,0.212703,20.7318,146.699,-0.293219,0.0,0.0
2448,611.75,76.8616,82.3372,154.474,100.609,105.175,0.00184583,0.213654,20.7318,146.519,-0.316462,0.0,0.0
2460,614.75,76.871,82.2831,154.676,100.506,102.827,0.00176135,0.213878,20.7303,146.318,-0.162756,0.0,0.0
2472,617.75,76.7272,82.5438,155.412,100.39,103.195,0.00165675,0.214631,20.7281,146.088,-0.196491,0.0,0.0
2484,620.75,77.1372,82.062,152.905,100.255,104.069,0.00143606,0.215909,20.7274,145.848,-0.266216,0.0,0.0
2496,623.75,77.2828,82.225,156.67,100.139,103.405,0.00122707,0.216853,20.7272,145.588,-0.228868,0.0,0.0
2508,626.75,77.44,82.4066,158.25,100.02,104.221,0.00128914,0.217534,20.726,145.287,-0.293369,0.0,0.0
2520,629.75,76.9316,82.4247,153.429,99.9349,102.899,0.00148052,0.21675,20.7251,145.057,-0.208422,0.0,0.0
2532,632.75,76.9248,82.4474,153.21,99.8614,104.166,0.00140314,0.217909,20.7249,144.837,-0.300879,0.0,0.0
2544,635.75,77.2411,83.1311,151.299,99.7951,104.411,0.00155355,0.219529,20.723,144.577,-0.322392,0.0,0.0
2556,638.75,77.7486,82.9208,154.074,99.7411,103.133,0.00162795,0.219955,20.721,144.377,-0.238431,0.0,0.0
2568,641.75,77.4128,83.2788,154.938,99.7057,103.703,0.00167338,0.220328,20.7205,144.136,-0.280239,0.0,0.0
2580,644.75,77.0485,83.5581,155.484,99.67,101.583,0.00169948,0.220828,20.7204,143.936,-0.135574,0.0,0.0
2592,647.75,77.3565,82.8688,149.183,99.6453,101.352,0.00175171,0.22202,20.7196,143.726,-0.121097,0.0,0.0
2604,650.75,77.2566,82.9595,152.697,99.6426,102.965,0.00189948,0.222791,20.7186,143.476,-0.233847,0.0,0.0
2616,653.75,77.3131,82.6104,157.464,99.6438,102.663,0.00186577,0.222567,20.7188,143.256,-0.21284,0.0,0.0
2628,656.75,77.3296,82.8538,155.679,99.6354,102.446,0.00177736,0.222995,20.7189,142.995,-0.198306,0.0,0.0
2640,659.75,77.454,82.9985,148.328,99.6565,103.072,0.00168145,0.2234,20.7189,142.755,-0.240239,0.0,0.0
2652,662.75,77.7522,82.9022,152.905,99.6652,103.028,0.00166767,0.224062,20.7169,142.505,-0.23659,0.0,0.0
2664,665.75,77.2801,83.3645,148.051,99.672,102.934,0.00155988,0.225276,20.716,142.215,-0.22959,0.0,0.0
2676,668.75,77.9583,83.445,153.209,99.6946,102.193,0.0016441,0.225965,20.7158,141.945,-0.176505,0.0,0.0
2688,671.75,77.9072,83.6181,147.302,99.7037,105.631,0.00176469,0.225663,20.7142,141.714,-0.41176,0.0,0.0
2700,674.75,77.6888,83.629,154.674,99.7204,103.174,0.00173486,0.227352,20.7136,141.494,-0.242754,0.0,0.0
2712,677.75,77.3876,83.4009,157.059,99.7395,100.553,0.00172878,0.228432,20.7117,141.244,-0.0579228,0.0,0.0
2724,680.75,77.7917,83.8054,155.86,99.7681,104.282,0.00166204,0.228421,20.7112,140.974,-0.315479,0.0,0.0
2736,683.75,77.6809,83.4707,153.853,99.8082,103.75,0.00151789,0.228239,20.7111,140.784,-0.276151,0.0,0.0
2748,686.75,77.7727,83.9142,151.626,99.8455,102.946,0.00147393,0.229754,20.7122,140.553,-0.21806,0.0,0.0
2760,689.75,78.271,83.5316,150.107,99.9011,101.915,0.00158856,0.229815,20.7113,140.363,-0.142319,0.0,0.0
2772,692.75,78.1859,84.005,155.94,99.9452,102.863,0.00170334,0.231594,20.7105,140.063,-0.205181,0.0,0.0
2784,695.75,78.5154,83.7884,154.221,99.996,102.851,0.00172172,0.231877,20.7089,139.843,-0.20074,0.0,0.0
2796,698.75,78.3682,83.9599,148.931,100.051,103.099,0.00183874,0.232091,20.7077,139.602,-0.21397,0.0,0.0
2808,701.75,77.9322,84.0778,152.111,100.128,103.26,0.00167991,0.232803,20.7084,139.342,-0.219601,0.0,0.0
2820,704.75,78.369,84.0018,150.166,100.185,103.33,0.00151825,0.233172,20.7076,139.122,-0.220344,0.0,0.0
2832,707.75,78.5272,84.0329,154.893,100.231,104.05,0.00167182,0.23401,20.7065,138.812,-0.266587,0.0,0.0
2844,710.75,78.3698,84.1294,150.554,100.303,103.562,0.00186132,0.235004,20.7051,138.572,-0.227941,0.0,0.0
2856,713.75,78.5891,84.1004,153.568,100.348,102.983,0.00191147,0.235594,20.7037,138.301,-0.184749,0.0,0.0
2868,716.75,78.7271,84.3868,158.375,100.39,103.509,0.00162688,0.237017,20.7027,138.031,-0.218087,0.0,0.0
2880,719.75,78.5908,84.8209,154.551,100.461,103.156,0.00138934,0.237291,20.7024,137.701,-0.188745,0.0,0.0
2892,722.75,78.4205,84.4671,155.319,100.487,103.867,0.00144266,0.239402,20.7006,137.501,-0.23591,0.0,0.0
2904,725.75,78.6925,85.2639,151.047,100.523,104.804,0.00152742,0.24058,20.6976,137.26,-0.297348,0.0,0.0
2916,728.75,78.7528,84.5318,150.811,100.564,105.565,0.00154793,0.240188,20.6959,137.01,-0.346054,0.0,0.0
2928,731.75,78.984,84.8802,154.925,100.594,103.204,0.00159701,0.239503,20.6955,136.8,-0.182675,0.0,0.0
2940,734.75,78.862,84.6509,150.234,100.629,104.251,0.0016022,0.240758,20.6958,136.53,-0.252113,0.0,0.0
2952,737.75,78.982,85.0253,152.576,100.673,104.609,0.00189356,0.242515,20.695,136.29,-0.273403,0.0,0.0
2964,740.75,79.0224,84.8285,150.22,100.703,104.957,0.00218916,0.242883,20.6935,136.039,-0.294996,0.0,0.0
2976,743.75,79.072,84.9913,158.014,100.726,103.517,0.00219407,0.244017,20.6931,135.759,-0.194872,0.0,0.0
2988,746.75,78.9376,85.1415,153.187,100.78,106.558,0.00216396,0.243976,20.6929,135.479,-0.397471,0.0,0.0
3000,749.75,79.0581,85.0187,150.079,100.821,103.946,0.00234661,0.244489,20.6929,135.239,-0.217614,0.0,0.0
3012,752.75,78.583,84.9073,154.377,100.844,105.248,0.00247891,0.245731,20.6925,134.948,-0.304802,0.0,0.0
3024,755.75,79.3211,85.0382,149.661,100.859,104.726,0.00242485,0.246761,20.6925,134.728,-0.268266,0.0,0.0
3036,758.75,79.694,85.3906,148.402,100.88,103.557,0.00233392,0.247491,20.6911,134.428,-0.186692,0.0,0.0
3048,761.75,79.4856,85.2962,156.039,100.875,104.679,0.00209256,0.248224,20.6907,134.148,-0.263968,0.0,0.0
3060,764.75,79.5123,85.8144,154.197,100.875,102.683,0.00186141,0.250395,20.6898,133.887,-0.126601,0.0,0.0
3072,767.75,79.6932,85.6769,154.132,100.866,104.018,0.00189713,0.249642,20.687,133.657,-0.219396,0.0,0.0
3084,770.75,79.6104,85.8724,147.751,100.851,102.644,0.00206174,0.248499,20.6866,133.407,-0.125629,0.0,0.0
3096,773.75,79.5034,85.9395,153.09,100.834,103.887,0.00213403,0.247715,20.6878,133.157,-0.212651,0.0,0.0
3108,776.75,79.5724,85.4225,150.055,100.833,106.357,0.0018917,0.247175,20.689,132.917,-0.380312,0.0,0.0
3120,779.75,79.8883,85.7917,154.265,100.802,104.043,0.00152531,0.24819,20.689,132.696,-0.225645,0.0,0.0
3132,782.75,78.97,85.7023,156.545,100.773,103.134,0.0015482,0.249428,20.6877,132.436,-0.165113,0.0,0.0
3144,785.75,79.6637,85.7519,148.893,100.733,103.211,0.00179911,0.250733,20.6859,132.166,-0.173294,0.0,0.0
3156,788.75,79.1409,85.4944,149.618,100.694,104.857,0.00185995,0.250484,20.6837,131.916,-0.288875,0.0,0.0
3168,791.75,79.4666,85.7792,148.5,100.647,102.435,0.00192851,0.24919,20.6833,131.635,-0.125556,0.0,0.0
3180,794.75,79.651,86.0337,148.128,100.603,103.761,0.00190898,0.248604,20.6847,131.355,-0.220329,0.0,0.0
3192,797.75,79.5177,85.5196,153.246,100.552,103.818,0.00178869,0.24848,20.6851,131.065,-0.227858,0.0,0.0
3204,800.75,79.51,85.5915,152.025,100.51,104.251,0.00163378,0.249547,20.6868,130.835,-0.260559,0.0,0.0
3216,803.75,79.6874,85.752,156.916,100.457,103.236,0.00146919,0.25097,20.6871,130.585,-0.194599,0.0,0.0
3228,806.75,79.9295,86.1052,152.576,100.4,104.172,0.0016277,0.251044,20.685,130.314,-0.262935,0.0,0.0
3240,809.75,79.9765,86.0697,152.918,100.349,104.147,0.00186444,0.251572,20.6844,130.074,-0.264849,0.0,0.0
3252,812.75,79.7405,85.9699,153.494,100.294,104.579,0.00175773,0.250434,20.6842,129.824,-0.29831,0.0,0.0
3264,815.75,80.1704,85.9141,151.101,100.232,103.278,0.00155409,0.250248,20.6842,129.684,-0.213414,0.0,0.0
3276,818.75,79.6745,85.7098,151.334,100.186,103.681,0.00145452,0.250747,20.6842,129.384,-0.244484,0.0,0.0
3288,821.75,79.6783,85.2381,145.854,100.166,103.574,0.0016457,0.249546,20.6842,129.113,-0.238583,0.0,0.0
3300,824.75,79.7991,85.2952,154.44,100.151,101.983,0.0018851,0.249302,20.6836,128.883,-0.129242,0.0,0.0
3312,827.75,79.658,85.2915,151.771,100.132,104.009,0.00211415,0.248558,20.6849,128.593,-0.270802,0.0,0.0
3324,830.75,79.4085,85.4667,157.066,100.235,103.881,0.00207396,0.249456,20.6853,128.353,-0.254721,0.0,0.0
3336,833.75,80.3414,86.0053,151.943,100.303,103.655,0.00184029,0.250492,20.6833,128.102,-0.234388,0.0,0.0
3348,836.75,79.7895,85.8538,147.097,100.379,103.299,0.00173547,0.252085,20.6815,127.772,-0.204418,0.0,0.0
3360,839.75,79.5405,85.5041,152.707,100.435,102.995,0.0016698,0.251588,20.681,127.472,-0.179444,0.0,0.0
3372,842.75,79.2319,85.51,152.482,100.512,102.72,0.0016257,0.251133,20.6822,127.222,-0.154957,0.0,0.0
3384,845.75,80.052,86.1862,148.347,100.62,103.993,0.00152396,0.250182,20.6829,126.951,-0.235096,0.0,0.0
3396,848.75,79.9729,86.0425,152.204,100.713,102.873,0.00156661,0.250644,20.6864,126.731,-0.151325,0.0,0.0
3408,851.75,80.0197,85.9406,155.98,100.79,102.867,0.00159457,0.252834,20.6874,126.521,-0.145436,0.0,0.0
3420,854.75,80.5168,85.9667,155.686,100.827,102.515,0.00171913,0.254064,20.6839,126.281,-0.118377,0.0,0.0
3432,857.75,79.8796,85.8288,155.895,100.858,103.552,0.00172691,0.253823,20.6819,126.031,-0.187975,0.0,0.0
3444,860.75,80.1559,86.2691,150.966,100.872,103.102,0.00188405,0.253816,20.6828,125.78,-0.155912,0.0,0.0
3456,863.75,80.4833,86.2409,152.668,100.888,103.475,0.00192962,0.253424,20.6844,125.49,-0.180544,0.0,0.0
3468,866.75,80.4102,86.1723,155.67,100.881,105.313,0.00189626,0.254548,20.6847,125.24,-0.306517,0.0,0.0
3480,869.75,80.7039,86.5624,152.465,100.873,103.275,0.0020197,0.256731,20.6819,124.98,-0.167788,0.0,0.0
3492,872.75,80.574,86.3049,149.952,100.85,104.909,0.00212018,0.257468,20.6789,124.709,-0.281402,0.0,0.0
3504,875.75,80.4816,86.4187,154.451,100.85,103.629,0.00220305,0.257013,20.6774,124.419,-0.193772,0.0,0.0
3516,878.75,80.2421,86.8375,151.942,100.808,102.728,0.00234985,0.256705,20.677,124.139,-0.134525,0.0,0.0
3528,881.75,80.357,86.6418,151.59,100.765,103.107,0.00212139,0.255959,20.6768,123.889,-0.163843,0.0,0.0
3540,884.75,80.5314,86.2035,149.757,100.728,104.128,0.00179615,0.255709,20.6768,123.608,-0.236658,0.0,0.0
3552,887.75,80.873,86.9192,152.242,100.673,103.899,0.00160052,0.256003,20.6775,123.368,-0.224898,0.0,0.0
3564,890.75,80.1935,86.6569,149.319,100.598,103.009,0.00162361,0.255658,20.6783,123.118,-0.168912,0.0,0.0
3576,893.75,80.3595,86.3044,150.121,100.518,103.414,0.00176632,0.255382,20.6789,122.888,-0.202466,0.0,0.0
3588,896.75,80.7389,86.3751,150.405,100.466,103.278,0.00189305,0.256523,20.6784,122.658,-0.196794,0.0,0.0
3600,899.75,80.5335,86.3528,150.84,100.51,102.764,0.00198694,0.256416,20.6772,122.407,-0.158159,0.0,0.0
3612,902.75,80.6453,86.2523,147.777,100.56,103.094,0.00201076,0.256271,20.6769,122.147,-0.177487,0.0,0.0
3624,905.75,80.618,86.7652,151.457,100.622,103.746,0.0018233,0.255579,20.6768,121.907,-0.218052,0.0,0.0
3636,908.75,80.8439,86.7108,149.647,100.671,101.796,0.00194828,0.257596,20.6765,121.627,-0.0792453,0.0,0.0
3648,911.75,80.6914,86.7677,152.156,100.735,104.427,0.00215877,0.258427,20.675,121.366,-0.256635,0.0,0.0
3660,914.75,80.7629,86.5786,151.946,100.805,101.944,0.00216368,0.258445,20.6746,121.126,-0.0800682,0.0,0.0
3672,917.75,80.7583,86.8199,154.468,100.863,104.399,0.00195819,0.258586,20.6745,120.866,-0.245668,0.0,0.0
3684,920.75,80.7653,86.7354,153.416,100.914,103.263,0.00184968,0.259169,20.6728,120.566,-0.164057,0.0,0.0
3696,923.75,80.5206,87.0182,155.959,100.979,104.004,0.00192013,0.259302,20.6723,120.296,-0.210421,0.0,0.0
3708,926.75,80.7764,86.904,153.073,101.041,104.591,0.00186705,0.25949,20.6721,120.055,-0.246231,0.0,0.0
3720,929.75,81.1853,86.7967,151.523,101.084,103.798,0.00174716,0.259447,20.6721,119.795,-0.188893,0.0,0.0
3732,932.75,80.9233,86.7474,150.473,101.147,102.872,0.00157404,0.258756,20.6721,119.525,-0.12063,0.0,0.0
3744,935.75,81.1757,86.487,152.45,101.185,103.603,0.00164943,0.258221,20.6721,119.285,-0.168349,0.0,0.0
3756,938.75,80.7795,86.423,156.696,101.227,104.229,0.00169376,0.256843,20.6721,119.064,-0.208339,0.0,0.0
3768,941.75,80.9401,86.7303,151.842,101.27,101.856,0.00169056,0.255666,20.6751,118.814,-0.0411043,0.0,0.0
3780,944.75,81.1406,86.9067,149.167,101.308,104.473,0.00164785,0.255957,20.676,118.554,-0.219371,0.0,0.0
3792,947.75,81.0298,86.4681,155.209,101.348,103.362,0.00155716,0.257864,20.6749,118.294,-0.140354,0.0,0.0
3804,950.75,80.9523,86.8175,155.877,101.371,102.777,0.00165792,0.258019,20.6729,118.044,-0.0982461,0.0,0.0
3816,953.75,80.7559,86.3613,151.166,101.415,103.867,0.00185214,0.257542,20.6723,117.813,-0.170301,0.0,0.0
3828,956.75,80.704,86.5184,147.057,101.423,105.195,0.0018976,0.25724,20.6735,117.583,-0.260336,0.0,0.0
3840,959.75,81.267,86.4604,150.956,101.427,102.816,0.00190294,0.25712,20.6735,117.283,-0.0969898,0.0,0.0
3852,962.75,80.9826,86.9684,151.576,101.436,103.907,0.00189383,0.256774,20.6724,116.993,-0.171617,0.0,0.0
3864,965.75,81.2067,86.9682,148.118,101.418,105.411,0.00168922,0.256688,20.6719,116.762,-0.27535,0.0,0.0
3876,968.75,81.2277,87.1348,150.976,101.397,102.514,0.00165928,0.258985,20.6718,116.472,-0.078074,0.0,0.0
3888,971.75,80.6914,86.9693,148.952,101.372,103.894,0.00175249,0.26016,20.6685,116.252,-0.17522,0.0,0.0
3900,974.75,81.0839,86.7885,157.662,101.33,104.464,0.00188822,0.259489,20.6674,116.002,-0.217148,0.0,0.0
3912,977.75,81.2083,87.3611,152.483,101.279,103.28,0.00194652,0.257458,20.6688,115.742,-0.139478,0.0,0.0
3924,980.75,80.6789,87.0496,150.847,101.246,103.257,0.0017419,0.256283,20.672,115.521,-0.140232,0.0,0.0
3936,983.75,81.3389,87.2618,151.836,101.206,102.069,0.00180485,0.258517,20.6735,115.311,-0.0605616,0.0,0.0
3948,986.75,81.1909,87.1555,149.492,101.166,103.504,0.00186981,0.261031,20.6714,115.091,-0.162837,0.0,0.0
3960,989.75,81.1178,87.3813,155.829,101.144,101.86,0.0019955,0.259977,20.6704,114.811,-0.050296,0.0,0.0
3972,992.75,81.2395,87.1833,150.934,101.099,102.877,0.00208309,0.259253,20.6701,114.591,-0.124253,0.0,0.0
3984,995.75,80.9867,87.2491,149.702,101.095,102.686,0.00199235,0.259842,20.6711,114.32,-0.111357,0.0,0.0
3996,998.75,80.9388,87.0939,152.393,101.075,102.96,0.00191421,0.260484,20.6692,113.99,-0.131753,0.0,0.0
4008,1001.75,80.675,87.0781,149.618,101.047,101.33,0.00198799,0.25973,20.6686,113.81,-0.0198886,0.0,0.0
4020,1004.75,81.2129,87.2657,151.137,101.018,103.048,0.00199523,0.258734,20.669,113.6,-0.141841,0.0,0.0
4032,1007.75,81.3119,87.4382,152.744,100.994,102.443,0.00195907,0.257636,20.6694,113.289,-0.101592,0.0,0.0
4044,1010.75,81.5159,86.9058,150.993,100.948,102.677,0.00186333,0.257448,20.6702,112.939,-0.121029,0.0,0.0
4056,1013.75,81.5293,87.2914,156.615,100.907,102.864,0.00187012,0.257506,20.6708,112.779,-0.13692,0.0,0.0
4068,1016.75,81.2112,87.7537,153.658,100.902,102.531,0.0020462,0.257919,20.671,112.559,-0.114238,0.0,0.0
4080,1019.75,81.1575,87.1324,154.538,100.877,102.498,0.0022157,0.25733,20.671,112.329,-0.113668,0.0,0.0
4092,1022.75,82.1084,87.5071,154.149,100.857,101.447,0.00215573,0.256175,20.671,112.148,-0.0416258,0.0,0.0
4104,1025.75,81.0085,87.4535,152.269,100.843,103.813,0.00191088,0.256043,20.671,111.888,-0.206957,0.0,0.0
4116,1028.75,81.2965,86.9754,153.957,100.835,104.219,0.0019146,0.25575,20.6715,111.728,-0.235312,0.0,0.0
4128,1031.75,80.8313,86.9559,154.498,100.828,100.751,0.00196086,0.254985,20.673,111.448,0.00539505,0.0,0.0
4140,1034.75,80.8751,86.6111,153.637,100.798,102.676,0.00209374,0.253608,20.6737,111.208,-0.13161,0.0,0.0
4152,1037.75,81.1926,86.7601,151.852,100.754,103.505,0.00232184,0.251614,20.6756,111.007,-0.192066,0.0,0.0
4164,1040.75,81.1359,86.7933,152.423,100.705,101.947,0.00240899,0.251637,20.6762,110.757,-0.0873849,0.0,0.0
4176,1043.75,81.0656,86.2994,150.425,100.689,99.632,0.00235952,0.250298,20.6763,110.517,0.0752156,0.0,0.0
4188,1046.75,81.1489,86.509,150.089,100.63,103.946,0.00209294,0.249915,20.6779,110.277,-0.231107,0.0,0.0
4200,1049.75,81.0255,86.2152,157.652,100.609,99.9967,0.00181141,0.24948,20.6779,110.027,0.0435374,0.0,0.0
4212,1052.75,81.2122,86.353,157.471,100.581,102.495,0.00176768,0.249341,20.6779,109.816,-0.134436,0.0,0.0
4224,1055.75,80.7451,86.6376,152.921,100.542,101.435,0.00199655,0.248784,20.6784,109.546,-0.0630376,0.0,0.0
4236,1058.75,80.793,86.5057,151.703,100.506,104.102,0.00202879,0.248392,20.6786,109.316,-0.250661,0.0,0.0
4248,1061.75,80.693,86.2074,150.386,100.458,103.696,0.00206653,0.247095,20.6793,109.146,-0.226162,0.0,0.0
4260,1064.75,80.7181,86.1058,153.15,100.401,99.9959,0.00220549,0.246014,20.6808,108.896,0.0288343,0.0,0.0
4272,1067.75,80.4997,85.8454,150.622,100.342,103.002,0.00225129,0.243356,20.6827,108.735,-0.186566,0.0,0.0
4284,1070.75,80.4863,85.6745,150.717,100.295,103.459,0.00212234,0.244117,20.6849,108.485,-0.221415,0.0,0.0
4296,1073.75,80.6296,86.0428,154.774,100.22,102.781,0.00193232,0.244365,20.6841,108.325,-0.179892,0.0,0.0
4308,1076.75,80.4731,86.3738,149.059,100.154,103.211,0.00190423,0.241221,20.6836,108.115,-0.214368,0.0,0.0
4320,1079.75,80.09,86.1096,155.045,100.084,101.856,0.00191535,0.241487,20.6864,107.905,-0.125147,0.0,0.0
4332,1082.75,80.7882,85.4708,158.398,100.035,103.527,0.0020893,0.240555,20.687,107.715,-0.244678,0.0,0.0
4344,1085.75,80.6924,86.1922,154.498,99.9929,101.561,0.00210632,0.239107,20.6878,107.494,-0.110922,0.0,0.0
4356,1088.75,80.2112,85.4312,154.735,99.9575,102.797,0.00214643,0.237986,20.6883,107.254,-0.1997,0.0,0.0
4368,1091.75,80.2075,85.3716,151.685,99.9464,102.689,0.00233604,0.235041,20.6891,107.074,-0.193028,0.0,0.0
4380,1094.75,80.013,85.2306,155.462,99.9273,102.04,0.00210524,0.233447,20.6922,106.874,-0.149144,0.0,0.0
4392,1097.75,80.0929,84.954,152.795,99.9019,99.7909,0.0019888,0.232621,20.6943,106.684,0.00792974,0.0,0.0
4404,1100.75,79.7262,84.7251,152.82,99.8888,102.076,0.00201906,0.229566,20.6949,106.533,-0.154417,0.0,0.0
4416,1103.75,79.323,84.597,154.819,99.8757,101.73,0.0018562,0.225549,20.6989,106.323,-0.131128,0.0,0.0
4428,1106.75,79.3933,84.2105,156.952,99.8455,102.472,0.0018999,0.221931,20.7039,106.203,-0.185159,0.0,0.0
4440,1109.75,79.3901,84.1175,153.668,99.836,101.519,0.00188663,0.218856,20.7073,106.083,-0.119224,0.0,0.0
4452,1112.75,79.2329,84.2701,150.781,99.8078,101.593,0.00176571,0.216873,20.7102,105.913,-0.126371,0.0,0.0
4464,1115.75,79.1045,83.7841,158.63,99.7792,104.63,0.00185814,0.21163,20.7112,105.803,-0.338432,0.0,0.0
4476,1118.75,78.5104,83.1798,158.003,99.7478,103.519,0.00191302,0.205697,20.717,105.683,-0.264565,0.0,0.0
4488,1121.75,78.4596,82.1841,158.326,99.7518,103.81,0.00198576,0.200184,20.7232,105.583,-0.284337,0.0,0.0
4500,1124.75,78.053,81.1855,159.991,99.7422,104.804,0.00210073,0.191201,20.7288,105.473,-0.352915,0.0,0.0
4512,1127.75,77.4632,80.948,157.588,99.7538,103.544,0.00222996,0.18192,20.739,105.402,-0.265875,0.0,0.0
4524,1130.75,76.9644,80.5285,155.802,99.7558,103.329,0.00244533,0.17253,20.7515,105.232,-0.250905,0.0,0.0
4536,1133.75,77.3745,80.2249,156.031,99.7641,102.583,0.00265078,0.165256,20.7617,105.172,-0.198631,0.0,0.0
4548,1136.75,76.5871,79.6827,160.92,99.801,103.274,0.00271546,0.158215,20.7695,105.092,-0.2439,0.0,0.0
4560,1139.75,76.3763,79.5918,156.134,99.8364,102.551,0.00308874,0.152852,20.7776,105.022,-0.191247,0.0,0.0
4572,1142.75,76.3462,78.64,159.16,99.8578,103.685,0.00343466,0.147563,20.7828,104.952,-0.268157,0.0,0.0
4584,1145.75,75.5145,78.2117,155.675,99.9138,103.851,0.003314,0.14321,20.789,104.902,-0.275535,0.0,0.0
4596,1148.75,75.357,77.6138,153.32,99.9619,101.908,0.00327366,0.138605,20.7945,104.842,-0.137453,0.0,0.0
4608,1151.75,74.7014,77.5436,155.785,100,102.581,0.00361957,0.134545,20.8014,104.772,-0.181675,0.0,0.0
4620,1154.75,74.8694,77.1937,158.338,100.032,102.295,0.00383179,0.131395,20.8078,104.782,-0.159494,0.0,0.0
4632,1157.75,73.8864,76.486,162.154,100.062,103.28,0.00423937,0.128936,20.8117,104.702,-0.225689,0.0,0.0
4644,1160.75,73.9105,75.9905,158.054,100.112,102.591,0.00454047,0.126456,20.8154,104.662,-0.174394,0.0,0.0
4656,1163.75,73.4688,75.5511,159.312,100.151,104.459,0.00463767,0.12441,20.8187,104.642,-0.300256,0.0,0.0
4668,1166.75,73.5551,75.7068,157.518,100.186,103.301,0.0046968,0.122001,20.8225,104.572,-0.218288,0.0,0.0
4680,1169.75,73.2862,75.4487,157.092,100.22,103.847,0.00501458,0.120467,20.8241,104.522,-0.253458,0.0,0.0
4692,1172.75,72.7761,74.8328,158.827,100.255,104.077,0.00517269,0.120409,20.8249,104.422,-0.266762,0.0,0.0
4704,1175.75,72.3724,74.4979,159.86,100.309,103.292,0.00519166,0.120597,20.8254,104.302,-0.208893,0.0,0.0
4716,1178.75,72.3248,74.3318,159.56,100.367,104.271,0.0054708,0.118853,20.826,104.291,-0.272032,0.0,0.0
4728,1181.75,72.3236,74.0401,160.136,100.42,104.254,0.0056635,0.116083,20.8289,104.221,-0.267159,0.0,0.0
4740,1184.75,71.7228,73.6254,154.995,100.478,104.684,0.00564797,0.115047,20.8321,104.141,-0.292409,0.0,0.0
4752,1187.75,71.7634,73.5993,164.085,100.529,103.884,0.00574666,0.115349,20.8336,104.101,-0.234077,0.0,0.0
4764,1190.75,71.3397,73.3838,160.816,100.563,104.889,0.00579969,0.114635,20.8339,104.111,-0.300304,0.0,0.0
4776,1193.75,71.1833,73.1209,159.538,100.602,106.683,0.00599745,0.112355,20.8353,104.031,-0.41847,0.0,0.0
4788,1196.75,71.0169,73.1639,157.166,100.656,105.046,0.00621186,0.110648,20.8391,104.051,-0.304364,0.0,0.0
4800,1199.75,70.9409,72.5701,158.49,100.676,104.927,0.006478,0.110068,20.8432,104.021,-0.294853,0.0,0.0
4812,1202.75,70.5266,72.2931,160.839,100.733,104.604,0.00678367,0.110804,20.8451,103.991,-0.2689,0.0,0.0
4824,1205.75,70.2012,71.9647,157.575,100.749,104.597,0.00681246,0.110193,20.844,103.911,-0.26726,0.0,0.0
4836,1208.75,70.108,72.078,159.526,100.79,103.745,0.006629,0.110421,20.8436,103.861,-0.206043,0.0,0.0
4848,1211.75,70.0297,71.8767,162.731,100.802,104.466,0.00655812,0.111387,20.8426,103.771,-0.254525,0.0,0.0
4860,1214.75,69.5001,71.685,154.99,100.831,105.475,0.00655128,0.112577,20.8421,103.751,-0.321054,0.0,0.0
4872,1217.75,69.2929,72.1182,161.061,100.849,105.415,0.00647389,0.111444,20.8415,103.661,-0.315757,0.0,0.0
4884,1220.75,69.8074,71.2373,158.92,100.881,103.613,0.00640018,0.110483,20.8419,103.621,-0.190512,0.0,0.0
4896,1223.75,69.0305,71.047,162.287,100.913,104.106,0.00661029,0.11339,20.843,103.571,-0.222074,0.0,0.0
4908,1226.75,69.0481,70.806,160.758,100.952,103.442,0.00694991,0.118015,20.8399,103.531,-0.173768,0.0,0.0
4920,1229.75,69.203,70.5713,167.291,100.956,104.49,0.00710285,0.119584,20.8357,103.501,-0.245325,0.0,0.0
4932,1232.75,68.8075,71.1811,159.577,100.973,103.394,0.00725078,0.118309,20.8348,103.481,-0.168923,0.0,0.0
4944,1235.75,68.4582,71.0865,160.851,101.001,103.558,0.00745858,0.115938,20.8355,103.481,-0.178252,0.0,0.0
4956,1238.75,68.2278,70.1891,162.415,101.003,104.136,0.00741464,0.113014,20.8364,103.441,-0.217807,0.0,0.0
4968,1241.75,68.3731,70.2509,156.446,101.004,104.636,0.00711863,0.109629,20.8401,103.411,-0.251817,0.0,0.0
4980,1244.75,68.0413,69.8542,157.163,101.016,103.851,0.00711848,0.107618,20.8449,103.401,-0.197406,0.0,0.0
4992,1247.75,68.3533,70.0096,160.631,100.994,104.792,0.00737149,0.106683,20.8468,103.321,-0.263189,0.0,0.0
5004,1250.75,68.2003,69.8985,165.801,100.997,104.977,0.00750161,0.105795,20.8489,103.261,-0.275532,0.0,0.0
5016,1253.75,67.7708,69.8415,161.039,100.987,104.226,0.00762562,0.105445,20.8496,103.211,-0.22511,0.0,0.0
5028,1256.75,67.5504,69.7465,163.189,100.957,104.82,0.00788841,0.104409,20.8498,103.14,-0.267768,0.0,0.0
5040,1259.75,67.909,69.8307,159.169,100.963,104.579,0.00796981,0.104049,20.8509,103.09,-0.250924,0.0,0.0
5052,1262.75,67.7245,69.8072,161.198,100.919,104.691,0.00789291,0.104145,20.8514,103.01,-0.261654,0.0,0.0
5064,1265.75,68.074,69.3915,160.057,100.906,104.905,0.00796828,0.104168,20.8508,102.99,-0.277159,0.0,0.0
5076,1268.75,67.1562,69.2161,159.649,100.89,103.596,0.00810698,0.103714,20.8506,102.94,-0.188738,0.0,0.0
5088,1271.75,67.1785,68.963,162.319,100.862,105.021,0.00812381,0.10281,20.8515,102.91,-0.288123,0.0,0.0
5100,1274.75,66.6782,68.7286,162.151,100.85,104.068,0.00824978,0.101849,20.8525,102.85,-0.223946,0.0,0.0
5112,1277.75,67.1938,68.9679,160.208,100.835,104.891,0.00815935,0.10161,20.8528,102.86,-0.281185,0.0,0.0
5124,1280.75,67.1277,69.1744,160.99,100.803,105.035,0.0080015,0.101625,20.8539,102.85,-0.293192,0.0,0.0
5136,1283.75,66.141,68.3582,157.277,100.774,104.541,0.00807145,0.10154,20.8549,102.85,-0.261594,0.0,0.0
5148,1286.75,65.6833,67.9576,159.247,100.749,103.795,0.00815674,0.10164,20.8561,102.83,-0.212346,0.0,0.0
5160,1289.75,65.6444,68.0734,161.099,100.719,105.918,0.00819803,0.101999,20.857,102.76,-0.358824,0.0,0.0
5172,1292.75,65.7889,68.0525,160.713,100.674,104.06,0.008274,0.102016,20.8573,102.71,-0.23582,0.0,0.0
5184,1295.75,65.7119,67.3948,162.421,100.616,104.583,0.00844946,0.101562,20.8574,102.7,-0.275709,0.0,0.0
5196,1298.75,65.5443,67.8471,159.864,100.584,103.267,0.00862036,0.101208,20.8569,102.63,-0.187673,0.0,0.0
5208,1301.75,65.4509,67.4665,158.333,100.542,103.859,0.00858314,0.1013,20.8566,102.56,-0.231445,0.0,0.0
5220,1304.75,65.4425,67.3151,157.9,100.499,104.62,0.00857986,0.101814,20.8566,102.53,-0.286563,0.0,0.0
5232,1307.75,65.169,67.5948,159.026,100.44,103.863,0.00872014,0.101239,20.8568,102.45,-0.23892,0.0,0.0
5244,1310.75,65.3972,67.821,159.272,100.403,102.142,0.00883647,0.100606,20.8583,102.41,-0.122465,0.0,0.0
5256,1313.75,65.2072,67.3796,157.265,100.363,104.002,0.00889212,0.100525,20.8587,102.38,-0.253959,0.0,0.0
5268,1316.75,65.5033,67.5189,166.653,100.345,105.051,0.0089738,0.100443,20.8604,102.35,-0.326823,0.0,0.0
5280,1319.75,65.1512,67.5502,160.019,100.324,103.736,0.00880949,0.0992548,20.861,102.29,-0.238496,0.0,0.0
5292,1322.75,65.3067,67.2988,159.201,100.295,103.885,0.00854811,0.0986118,20.8623,102.35,-0.250717,0.0,0.0
5304,1325.75,65.0795,67.1687,163.131,100.263,104.562,0.00852641,0.0987359,20.8632,102.31,-0.299367,0.0,0.0
5316,1328.75,65.0611,67.1207,161.895,100.244,103.164,0.00872334,0.098711,20.8635,102.27,-0.20473,0.0,0.0
5328,1331.75,65.0952,67.4243,162.809,100.228,103.357,0.00855776,0.09811,20.8627,102.22,-0.219177,0.0,0.0
5340,1334.75,65.1165,67.2042,162.68,100.223,104.767,0.00834519,0.0984701,20.8612,102.22,-0.316131,0.0,0.0
5352,1337.75,64.9444,66.6837,159.984,100.235,105.299,0.00834457,0.0984747,20.8613,102.16,-0.351392,0.0,0.0
5364,1340.75,64.7374,66.735,159.98,100.28,103.984,0.00843226,0.0981976,20.8619,102.12,-0.258649,0.0,0.0
5376,1343.75,64.5204,66.7972,160.217,100.339,103.32,0.00858265,0.0986284,20.8632,101.979,-0.208718,0.0,0.0
5388,1346.75,64.7067,66.5611,156.992,100.385,104.191,0.00856073,0.098697,20.8622,101.969,-0.26533,0.0,0.0
5400,1349.75,64.6781,67.1362,157.376,100.427,105.212,0.00852574,0.098442,20.8614,101.939,-0.331898,0.0,0.0
5412,1352.75,64.5007,67.0517,162.042,100.431,104.076,0.00842491,0.0982479,20.8624,101.879,-0.254176,0.0,0.0
5424,1355.75,64.7204,66.7925,161.21,100.478,103.409,0.00838438,0.0988349,20.8624,101.859,-0.204964,0.0,0.0
5436,1358.75,64.5233,66.9236,162.235,100.504,105.811,0.00854715,0.098713,20.8623,101.859,-0.366918,0.0,0.0
5448,1361.75,64.2375,66.8413,159.852,100.527,103.692,0.0086957,0.0988181,20.8631,101.779,-0.220969,0.0,0.0
5460,1364.75,63.9989,66.5465,162.984,100.572,104.642,0.00878732,0.0985626,20.8642,101.799,-0.282898,0.0,0.0
5472,1367.75,63.6918,66.5711,165.954,100.583,103.707,0.00869627,0.098145,20.8645,101.809,-0.218096,0.0,0.0
5484,1370.75,64.4327,66.6663,159.475,100.602,104.641,0.0085713,0.0984048,20.8646,101.749,-0.280674,0.0,0.0
5496,1373.75,64.0892,66.8825,160.355,100.61,105.137,0.00858964,0.0991404,20.8635,101.739,-0.313841,0.0,0.0
5508,1376.75,64.1019,66.633,160.159,100.633,105.925,0.00871319,0.0992577,20.8626,101.679,-0.365408,0.0,0.0
5520,1379.75,64.3994,66.7433,159.787,100.633,104.664,0.00878331,0.0985053,20.8623,101.659,-0.280024,0.0,0.0
5532,1382.75,63.9469,66.5483,163.929,100.643,103.291,0.00870965,0.0984721,20.8632,101.619,-0.185162,0.0,0.0
5544,1385.75,64.6049,67.1049,164.537,100.65,104.958,0.00855638,0.0982371,20.8642,101.529,-0.298851,0.0,0.0
5556,1388.75,64.0708,66.353,164.093,100.64,104.924,0.00846334,0.0981061,20.8645,101.509,-0.297213,0.0,0.0
5568,1391.75,64.2627,66.4475,163.529,100.637,104.014,0.00837635,0.0978729,20.8646,101.479,-0.235382,0.0,0.0
5580,1394.75,63.8677,66.8078,161.488,100.635,104.27,0.00846843,0.0982303,20.8646,101.449,-0.253013,0.0,0.0
5592,1397.75,64.4527,66.324,160.18,100.62,103.316,0.00862796,0.0981422,20.8646,101.439,-0.188507,0.0,0.0
5604,1400.75,64.0034,66.5883,159.783,100.643,105.312,0.00854848,0.0977266,20.8644,101.369,-0.323321,0.0,0.0
5612,1402.75,64.0416,66.847,161.972,100.649,105.635,0.00847831,0.0978913,20.8646,101.359,-0.344713,0.0,0.0