File: 01_Data/Particleboard/Cone/Particleboard_Cone_HF75Scan_230705_R2.csv
Names,Time,Stack TC,Smoke TC,Exh Press,Smoke Comp,Smoke Meas,CO Meter,CO2 Meter,O2 Meter,Sample Mass,Ext Coeff,Start Test,Flame Verif
Chan Gain,,500,500,1,1,1,1,1,1,1,1,1.0,1.0
Offset,,0,0,0.138104,0,0,0,0,0,0,0,0.0,0.0
Gain,,1,1,25.011,12.7954,17.7121,1,1,1,1.00088,0.812795,1.0,1.0
Units,sec,C,C,Pa,%,%,%,%,%,g,/m,,
Baseline,,68.6025,71.7374,158.888,99.2081,98.972,0.000171474,0.0430051,20.9295,-448.031,0.0169954,,
12,2.75,67.2315,69.0662,158.962,99.6861,99.7213,2.70165e-05,0.0472327,20.9305,208.043,-0.00251881,0.0,0.0
24,5.75,67.5325,69.425,155.345,99.7338,99.1176,-0.000152927,0.0502473,20.9276,207.812,0.044187,0.0,0.0
36,8.75,67.6656,69.6294,152.86,99.772,98.4306,-5.89566e-05,0.050763,20.9243,207.712,0.0965128,0.0,0.0
48,11.75,68.107,70.7241,157.467,99.8185,97.1154,0.000194921,0.0489033,20.923,207.472,0.195733,0.0,0.0
60,14.75,68.2814,71.3999,158.679,99.822,98.0468,0.000209987,0.0471029,20.9235,207.422,0.127936,0.0,1.0
72,17.75,69.0847,73.9552,147.03,99.8571,98.3662,0.00014389,0.0473298,20.9261,207.102,0.107254,0.0,1.0
84,20.75,70.6624,78.2067,142.27,99.8614,94.9663,0.000112966,0.0484059,20.9268,206.641,0.358354,0.0,0.0
96,23.75,73.2737,84.3826,135.151,99.9044,92.7793,0.000274756,0.0625885,20.9263,206.141,0.527533,0.0,0.0
108,26.75,77.1186,92.0312,132.31,99.8993,89.6399,0.000816968,0.146466,20.9081,205.31,0.772599,0.0,0.0
120,29.75,81.5776,99.444,128.766,99.888,87.1264,0.0016285,0.305461,20.8228,204.499,0.974563,0.0,0.0
132,32.75,85.411,106.988,128.647,99.9013,86.2465,0.00270042,0.467187,20.6293,203.749,1.04789,0.0,0.0
144,35.75,89.1509,113.196,132.27,99.9173,84.5681,0.00384183,0.605626,20.4379,202.948,1.18914,0.0,0.0
156,38.75,92.7459,118.099,127.019,99.9458,82.5946,0.00509248,0.731679,20.2504,202.087,1.35953,0.0,0.0
168,41.75,95.6083,121.276,130.743,99.9536,83.6881,0.0061564,0.813641,20.0868,201.197,1.26631,0.0,0.0
180,44.75,98.3333,125.035,133.452,99.9774,82.4719,0.00730769,0.854238,19.9801,200.406,1.37238,0.0,0.0
192,47.75,100.767,127.745,127.636,100,82.1487,0.00866645,0.872574,19.9186,199.535,1.402,0.0,0.0
204,50.75,102.751,129.334,130.185,100.015,80.8574,0.00962348,0.884579,19.8892,198.784,1.51605,0.0,0.0
216,53.75,104.281,130.208,128.418,100.044,82.833,0.0100759,0.877973,19.878,198.054,1.346,0.0,0.0
228,56.75,105.805,131.243,132.844,100.068,84.0384,0.0100878,0.856951,19.8806,197.323,1.24472,0.0,0.0
240,59.75,106.757,131.485,128.541,100.089,82.4574,0.0100007,0.831239,19.9072,196.502,1.38161,0.0,0.0
252,62.75,107.33,131.251,132.048,100.109,82.719,0.0100357,0.807293,19.9392,195.802,1.36044,0.0,0.0
264,65.75,108.54,132.033,128.651,100.12,84.1962,0.00991229,0.771322,19.9706,195.091,1.23501,0.0,0.0
276,68.75,108.445,131.35,131.236,100.132,85.4151,0.0098133,0.745329,20.0116,194.33,1.13342,0.0,0.0
288,71.75,109.501,130.657,132.091,100.154,84.9714,0.00992015,0.722799,20.0468,193.63,1.17209,0.0,0.0
300,74.75,110.134,130.148,130.327,100.17,85.1124,0.009921,0.70537,20.0787,192.949,1.16141,0.0,0.0
312,77.75,110.087,130.43,139.208,100.172,87.5124,0.00989915,0.680311,20.0975,192.289,0.963312,0.0,0.0
324,80.75,110.292,129.432,136.183,100.202,86.6535,0.00948835,0.657861,20.1277,191.728,1.03577,0.0,0.0
336,83.75,110.788,129.16,135.944,100.207,87.0848,0.00860314,0.639381,20.155,191.108,1.00073,0.0,0.0
348,86.75,110.749,128.057,136.427,100.213,87.6448,0.00806538,0.612513,20.1772,190.487,0.955421,0.0,0.0
360,89.75,110.485,127,136.157,100.229,90.1994,0.00792146,0.597564,20.2077,189.997,0.751694,0.0,0.0
372,92.75,110.385,126.672,142.519,100.229,90.2929,0.00786572,0.580357,20.2282,189.446,0.744362,0.0,0.0
384,95.75,110.572,125.882,139.865,100.237,91.0193,0.00744332,0.552868,20.2512,188.976,0.687755,0.0,0.0
396,98.75,109.84,124.57,137.216,100.236,90.5815,0.00705608,0.532583,20.2823,188.395,0.722051,0.0,0.0
408,101.75,109.795,123.916,138.782,100.23,91.2323,0.00676968,0.520853,20.3088,187.865,0.67062,0.0,0.0
420,104.75,109.771,123.157,136.454,100.21,90.535,0.00654009,0.503746,20.3252,187.294,0.723877,0.0,0.0
432,107.75,108.923,122.506,138.731,100.205,89.9977,0.00627066,0.483648,20.3447,186.784,0.765982,0.0,0.0
444,110.75,109.018,121.898,140.596,100.185,92.2696,0.00604134,0.470932,20.3726,186.243,0.58682,0.0,0.0
456,113.75,109.47,120.872,139.62,100.167,91.6599,0.00581257,0.462794,20.3878,185.723,0.632811,0.0,0.0
468,116.75,108.223,120.549,145.07,100.14,92.3518,0.00549271,0.457931,20.3983,185.172,0.577249,0.0,0.0
480,119.75,108.04,120.573,138.731,100.115,92.5934,0.00520165,0.449459,20.4054,184.772,0.556841,0.0,0.0
492,122.75,107.557,120.061,142.311,100.075,92.8274,0.00505319,0.440932,20.4164,184.292,0.536004,0.0,0.0
504,125.75,107.683,119.668,138.709,100.043,93.1615,0.0048591,0.432256,20.4261,183.871,0.50814,0.0,0.0
516,128.75,106.95,118.363,145.963,100.008,93.4674,0.0046618,0.423643,20.438,183.431,0.482259,0.0,0.0
528,131.75,107.346,117.494,141.702,99.9606,92.108,0.00442602,0.417784,20.4491,183.021,0.583322,0.0,0.0
540,134.75,106.469,116.858,136.721,99.9032,91.6512,0.00442816,0.40897,20.4555,182.52,0.61467,0.0,0.0
552,137.75,106.512,116.478,139.3,99.84,91.5685,0.00439321,0.397194,20.4662,182.03,0.61659,0.0,0.0
564,140.75,105.96,117.037,144.585,99.8068,92.3864,0.00443784,0.389369,20.4802,181.569,0.550824,0.0,0.0
576,143.75,105.744,116.562,139.325,99.747,93.2404,0.00458792,0.391195,20.4914,181.199,0.480949,0.0,0.0
588,146.75,105.778,116.218,141.132,99.6998,93.2907,0.00457883,0.394231,20.4925,180.729,0.473728,0.0,0.0
600,149.75,105.875,116.13,142.966,99.6631,92.9626,0.00436711,0.388288,20.4901,180.318,0.496222,0.0,0.0
612,152.75,105.685,115.469,139.02,99.633,92.9188,0.00411718,0.381321,20.4962,179.958,0.49743,0.0,0.0
624,155.75,105.117,115.045,139.119,99.6248,93.9301,0.00392983,0.379809,20.5044,179.417,0.419661,0.0,0.0
636,158.75,105.1,115.041,142.099,99.5936,94.3939,0.00397199,0.378648,20.5083,179.107,0.38231,0.0,0.0
648,161.75,104.708,114.252,141.87,99.5651,93.9004,0.00417425,0.373526,20.5097,178.617,0.417641,0.0,0.0
660,164.75,104.9,114.388,141.947,99.558,93.7734,0.00418112,0.367245,20.515,178.176,0.426789,0.0,0.0
672,167.75,104.31,113.752,143.16,99.5202,93.5323,0.00413683,0.361617,20.5226,177.766,0.442429,0.0,0.0
684,170.75,104.279,113.499,145.546,99.5049,93.1442,0.00409457,0.359733,20.5299,177.406,0.470984,0.0,0.0
696,173.75,103.924,112.867,141.849,99.4909,93.535,0.00399231,0.355535,20.5338,176.955,0.440125,0.0,0.0
708,176.75,103.775,112.597,140.296,99.4749,93.488,0.00373295,0.348224,20.5399,176.575,0.442562,0.0,0.0
720,179.75,103.665,112.875,143.061,99.4612,94.0928,0.00367707,0.356922,20.5457,176.185,0.395603,0.0,0.0
732,182.75,102.968,111.483,142.286,99.4479,94.2679,0.00366123,0.353254,20.5412,175.754,0.381394,0.0,0.0
744,185.75,103.059,111.773,138.149,99.4389,94.096,0.00343649,0.352363,20.5405,175.314,0.393762,0.0,0.0
756,188.75,103.009,112.249,136.908,99.4479,92.4464,0.00339421,0.346205,20.5438,174.873,0.520514,0.0,0.0
768,191.75,103.024,111.988,143.517,99.4549,94.5387,0.00327888,0.339598,20.5495,174.523,0.361445,0.0,0.0
780,194.75,102.815,112.349,141.635,99.462,94.4425,0.00327727,0.349454,20.554,174.183,0.369208,0.0,0.0
792,197.75,103.427,112.409,142.428,99.4885,93.7998,0.00335725,0.350464,20.5492,173.712,0.419797,0.0,0.0
804,200.75,102.948,112.016,146.964,99.501,93.4961,0.00327888,0.348463,20.5466,173.352,0.44382,0.0,0.0
816,203.75,103.217,111.889,139.353,99.5182,94.0658,0.00325597,0.347913,20.547,172.932,0.401737,0.0,0.0
828,206.75,102.639,111.895,139.585,99.5174,94.0582,0.00308138,0.345306,20.549,172.521,0.402254,0.0,0.0
840,209.75,102.361,111.353,143.355,99.533,95.1025,0.0028321,0.340966,20.5509,172.141,0.324649,0.0,0.0
852,212.75,102.59,110.812,147.773,99.5213,95.3171,0.00281558,0.340569,20.5552,171.751,0.307741,0.0,0.0
864,215.75,102.673,110.969,142.193,99.5323,94.2215,0.00291933,0.338926,20.5584,171.37,0.390954,0.0,0.0
876,218.75,101.987,110.74,143.531,99.5182,94.6398,0.00295874,0.333047,20.5596,170.96,0.35836,0.0,0.0
888,221.75,101.849,110.546,143.614,99.5042,95.4003,0.00294392,0.328421,20.5673,170.55,0.300286,0.0,0.0
900,224.75,101.676,110.62,142.464,99.5026,93.8598,0.00293179,0.331681,20.5723,170.169,0.416244,0.0,0.0
912,227.75,101.833,109.929,139.761,99.5213,94.0069,0.00294696,0.330883,20.5709,169.759,0.406428,0.0,0.0
924,230.75,101.475,110.566,143.296,99.5073,94.7636,0.00292834,0.32883,20.5699,169.439,0.348256,0.0,0.0
936,233.75,101.058,110.357,145.439,99.4952,93.8193,0.0028852,0.326947,20.5723,169.088,0.418793,0.0,0.0
948,236.75,101.16,110.558,142.659,99.4979,94.5209,0.00284691,0.324393,20.5741,168.668,0.365869,0.0,0.0
960,239.75,101.685,110.211,142.636,99.5276,95.2258,0.00281797,0.321577,20.5778,168.338,0.315025,0.0,0.0
972,242.75,101.418,110.223,146.226,99.5354,96.2517,0.0027259,0.319896,20.5812,167.987,0.239182,0.0,0.0
984,245.75,101.407,109.628,144.461,99.5448,95.0798,0.00261884,0.319146,20.5837,167.607,0.327191,0.0,0.0
996,248.75,101.467,109.702,141.737,99.5412,95.2517,0.00251494,0.317726,20.5849,167.237,0.314061,0.0,0.0
1008,251.75,101.331,109.066,142.895,99.5248,95.2214,0.00250645,0.313544,20.5869,166.906,0.315153,0.0,0.0
1020,254.75,101.165,109.137,145.681,99.5225,95.4187,0.00249692,0.310808,20.5899,166.506,0.300227,0.0,0.0
1032,257.75,101.183,109.534,148.257,99.5069,95.2803,0.00234578,0.310892,20.5926,166.146,0.309455,0.0,0.0
1044,260.75,101.053,109.217,141.355,99.5042,94.8382,0.00212344,0.310463,20.5932,165.815,0.342423,0.0,0.0
1056,263.75,101.037,109.132,145.439,99.4983,95.2409,0.00203676,0.310287,20.5937,165.435,0.311793,0.0,0.0
1068,266.75,100.638,108.715,144.943,99.4928,95.1782,0.00205825,0.309183,20.594,165.105,0.316098,0.0,0.0
1080,269.75,100.576,108.346,146.811,99.471,96.2744,0.00209943,0.306338,20.5951,164.704,0.232883,0.0,0.0
1092,272.75,100.559,108.667,144.12,99.4647,95.7079,0.00209826,0.302438,20.599,164.344,0.274511,0.0,0.0
1104,275.75,100.617,108.417,143.99,99.4327,96.5652,0.00188772,0.3022,20.604,164.024,0.208636,0.0,0.0
1116,278.75,100.481,108.353,138.605,99.4323,95.9095,0.00179522,0.30083,20.6052,163.754,0.257184,0.0,0.0
1128,281.75,100.254,108.216,142.475,99.4745,96.7555,0.00217072,0.300806,20.6057,163.343,0.197597,0.0,0.0
1140,284.75,100.003,108.165,143.588,99.5147,95.9544,0.00218846,0.29739,20.6076,163.013,0.259755,0.0,0.0
1152,287.75,100.424,108.192,143.534,99.5428,95.0328,0.00177989,0.294687,20.6115,162.683,0.330579,0.0,0.0
1164,290.75,99.7775,107.567,140.606,99.5694,97.163,0.00170775,0.29429,20.6146,162.402,0.174425,0.0,0.0
1176,293.75,99.8348,107.892,142.445,99.6314,96.0398,0.00176924,0.294159,20.6155,161.982,0.261771,0.0,0.0
1188,296.75,100.336,107.16,142.09,99.6568,95.9549,0.00177388,0.292268,20.6163,161.702,0.269891,0.0,0.0
1200,299.75,99.766,106.617,139.979,99.7045,96.4565,0.00184901,0.289747,20.6179,161.342,0.236124,0.0,0.0
1212,302.75,99.5491,106.863,141.983,99.7131,95.6728,0.00193419,0.289032,20.6203,161.011,0.294908,0.0,0.0
1224,305.75,99.669,106.865,145.423,99.7361,96.5274,0.00199058,0.285632,20.6223,160.681,0.233153,0.0,0.0
1236,308.75,99.212,107.027,141.169,99.7369,96.2398,0.00203058,0.282682,20.6263,160.411,0.254481,0.0,0.0
1248,311.75,99.1647,106.818,142.615,99.756,96.1387,0.00185809,0.283265,20.6289,160.05,0.263341,0.0,0.0
1260,314.75,99.3002,106.533,143.494,99.7607,96.6279,0.00152023,0.28349,20.6292,159.77,0.227489,0.0,0.0
1272,317.75,98.9691,105.894,148.818,99.7705,97.0446,0.00140831,0.284421,20.6293,159.44,0.197503,0.0,0.0
1284,320.75,99.0452,106.109,146.363,99.7853,98.0327,0.00159869,0.2804,20.6293,159.1,0.126336,0.0,0.0
1296,323.75,98.6908,105.575,143.82,99.7751,96.9549,0.00171164,0.27668,20.6331,158.769,0.204433,0.0,0.0
1308,326.75,98.2866,106.115,145.933,99.7712,97.39,0.00173878,0.273961,20.638,158.519,0.172227,0.0,0.0
1320,329.75,98.501,105.761,141.868,99.7572,97.1192,0.00175018,0.2756,20.6404,158.069,0.191076,0.0,0.0
1332,332.75,98.5674,105.793,145.93,99.7541,97.4906,0.00176277,0.278519,20.6405,157.758,0.163643,0.0,0.0
1344,335.75,98.4271,105.869,141.558,99.7494,96.8684,0.0017435,0.274885,20.6385,157.488,0.208953,0.0,0.0
1356,338.75,98.4799,106.028,143.266,99.7435,97.3068,0.00157121,0.27422,20.6405,157.198,0.176343,0.0,0.0
1368,341.75,98.6604,106.206,143.082,99.7404,97.803,0.00149836,0.274373,20.6419,156.878,0.139854,0.0,0.0
1380,344.75,98.3093,105.87,143.553,99.7283,96.8555,0.00161308,0.273771,20.6423,156.557,0.208401,0.0,0.0
1392,347.75,98.2515,105.803,149.325,99.6986,97.2554,0.00169587,0.272279,20.6437,156.287,0.176895,0.0,0.0
1404,350.75,98.5762,105.557,143.053,99.7162,96.5025,0.00175429,0.271473,20.6447,155.967,0.233566,0.0,0.0
1416,353.75,98.0222,105.726,144.165,99.7006,97.7646,0.00180385,0.269437,20.6461,155.687,0.139804,0.0,0.0
1428,356.75,97.9333,105.338,145.53,99.6736,97.8987,0.00175809,0.267257,20.6475,155.326,0.128108,0.0,0.0
1440,359.75,98.3861,105.284,148.748,99.6744,97.8679,0.00162158,0.271364,20.6479,155.066,0.130408,0.0,0.0
1452,362.75,97.8247,105.016,147.949,99.6436,97.4554,0.00153019,0.27061,20.6466,154.756,0.158311,0.0,0.0
1464,365.75,98.0275,105.259,141.821,99.6213,97.7489,0.00146626,0.269136,20.6472,154.395,0.135277,0.0,0.0
1476,368.75,97.9742,105.152,144.076,99.6041,97.5733,0.00152679,0.27035,20.6489,154.095,0.146872,0.0,0.0
1488,371.75,97.8609,104.954,152.128,99.5803,96.8036,0.00150892,0.269855,20.6482,153.795,0.201633,0.0,0.0
1500,374.75,98.101,104.868,147.806,99.5811,96.9668,0.00152358,0.268459,20.648,153.505,0.189677,0.0,0.0
1512,377.75,97.2305,105.048,142.975,99.5858,97.1019,0.00156988,0.269102,20.6513,153.234,0.180083,0.0,0.0
1524,380.75,97.539,104.251,142.879,99.5807,96.9257,0.0013701,0.268237,20.6522,152.774,0.192671,0.0,0.0
1536,383.75,97.148,103.954,146.583,99.5822,97.269,0.00139291,0.268316,20.6525,152.494,0.167578,0.0,0.0
1548,386.75,97.2127,104.505,141.295,99.6115,96.7825,0.00165461,0.269437,20.6526,152.274,0.205423,0.0,0.0
1560,389.75,97.518,104.799,144.639,99.6357,97.1009,0.00149767,0.267724,20.6511,151.913,0.18374,0.0,0.0
1572,392.75,97.5562,104.742,152.639,99.6283,97.0809,0.00128929,0.266213,20.6517,151.683,0.184678,0.0,0.0
1584,395.75,97.2449,104.46,142.373,99.6299,97.1646,0.00136965,0.270581,20.6531,151.373,0.178639,0.0,0.0
1596,398.75,97.2711,104.678,138.816,99.64,96.2809,0.00148322,0.276664,20.6482,151.053,0.244512,0.0,0.0
1608,401.75,97.333,104.582,147.699,99.6404,97.0241,0.00139349,0.276633,20.6422,150.712,0.189713,0.0,0.0
1620,404.75,97.1253,104.497,143.917,99.6443,97.0668,0.00141797,0.274581,20.6421,150.452,0.186856,0.0,0.0
1632,407.75,97.43,104.157,146.776,99.642,96.9144,0.00148636,0.273866,20.6443,150.162,0.197894,0.0,0.0
1644,410.75,96.9595,104.185,142.318,99.676,96.7079,0.00150683,0.27239,20.6449,149.781,0.21553,0.0,0.0
1656,413.75,97.0212,104.697,141.562,99.6916,97.1171,0.00154229,0.27128,20.6472,149.591,0.186544,0.0,0.0
1668,416.75,97.3333,105.072,144.713,99.7099,96.9673,0.00150243,0.271886,20.6494,149.191,0.198858,0.0,0.0
1680,419.75,97.6988,104.893,144.961,99.7271,97.1398,0.00152645,0.276272,20.6479,148.911,0.187419,0.0,0.0
1692,422.75,97.4182,104.441,142.125,99.7334,95.7614,0.00150267,0.277421,20.6436,148.6,0.289757,0.0,0.0
1704,425.75,97.6095,105.307,144.991,99.7486,96.4852,0.00155664,0.27707,20.6415,148.29,0.237161,0.0,0.0
1716,428.75,97.5688,105.21,147.018,99.7662,97.2019,0.00166501,0.274335,20.6426,148.04,0.185649,0.0,0.0
1728,431.75,97.5499,105.055,144.391,99.7791,96.3928,0.00166875,0.276723,20.6446,147.67,0.246171,0.0,0.0
1740,434.75,97.319,104.937,147.628,99.7939,96.5214,0.00150277,0.280388,20.6432,147.409,0.237722,0.0,0.0
1752,437.75,97.2461,104.873,151.309,99.8126,97.2111,0.00148171,0.278997,20.6398,147.049,0.188295,0.0,0.0
1764,440.75,97.6987,104.847,143.056,99.799,96.7111,0.00171272,0.279091,20.6401,146.779,0.224084,0.0,0.0
1776,443.75,97.5227,104.931,147.606,99.799,96.6165,0.00170508,0.282573,20.6402,146.418,0.231061,0.0,0.0
1788,446.75,97.5659,105.015,140.704,99.8197,95.2176,0.00179395,0.282798,20.6371,146.088,0.336525,0.0,0.0
1800,449.75,97.3423,104.887,140.852,99.8275,95.783,0.00194482,0.283516,20.6352,145.768,0.294872,0.0,0.0
1812,452.75,97.5742,105.132,143.2,99.8661,96.3738,0.00194286,0.283613,20.6344,145.458,0.25379,0.0,0.0
1824,455.75,97.5125,105.111,140.062,99.8493,95.5863,0.00184575,0.285949,20.6341,145.157,0.311095,0.0,0.0
1836,458.75,97.8368,105.584,146.12,99.8489,97.3376,0.00181681,0.288079,20.6326,144.857,0.181617,0.0,0.0
1848,461.75,98.087,105.521,146.494,99.8525,96.6214,0.00181998,0.288788,20.6306,144.517,0.234523,0.0,0.0
1860,464.75,97.3006,105.376,144.168,99.8501,96.6214,0.00172714,0.288983,20.63,144.197,0.234356,0.0,0.0
1872,467.75,97.4508,105.109,147.287,99.8353,95.6971,0.00170286,0.290514,20.6297,143.886,0.30183,0.0,0.0
1884,470.75,97.8491,105.844,145.543,99.8001,96.3111,0.00178889,0.291024,20.6276,143.586,0.253717,0.0,0.0
1896,473.75,98.0063,105.47,143.449,99.7646,95.9014,0.00202796,0.293517,20.6252,143.296,0.281574,0.0,0.0
1908,476.75,98.2554,105.854,143.906,99.7513,95.0912,0.0020719,0.294802,20.6228,142.915,0.341119,0.0,0.0
1920,479.75,98.1153,105.938,143.16,99.6986,95.7263,0.00208018,0.296271,20.6221,142.675,0.289888,0.0,0.0
1932,482.75,98.0876,105.859,142.45,99.6631,95.202,0.00213135,0.295942,20.6202,142.305,0.326506,0.0,0.0
1944,485.75,98.3307,106.231,145.51,99.6287,96.2317,0.0021731,0.297054,20.6194,142.005,0.247345,0.0,0.0
1956,488.75,98.6613,105.824,146.571,99.5916,96.1393,0.00214654,0.299436,20.617,141.674,0.251541,0.0,0.0
1968,491.75,98.0493,106.157,145.058,99.533,95.923,0.00195273,0.298525,20.6151,141.354,0.263399,0.0,0.0
1980,494.75,98.371,105.896,144.446,99.5264,96.5041,0.00172985,0.300039,20.6146,140.954,0.219863,0.0,0.0
1992,497.75,97.9846,105.664,144.85,99.5307,95.823,0.00173675,0.301485,20.6131,140.683,0.270667,0.0,0.0
2004,500.75,98.3626,105.701,146.48,99.5596,94.9377,0.00176758,0.301325,20.6107,140.383,0.338922,0.0,0.0
2016,503.75,98.1102,106.144,142.226,99.5565,95.2328,0.00174294,0.299359,20.6117,139.953,0.316568,0.0,0.0
2028,506.75,98.0234,106.288,144.581,99.5779,96.2636,0.00180659,0.299461,20.6123,139.733,0.241349,0.0,0.0
2040,509.75,98.289,105.814,141.722,99.5737,94.6425,0.00156733,0.301872,20.6126,139.362,0.362127,0.0,0.0
2052,512.75,98.5386,105.825,144.142,99.5698,95.5247,0.00163527,0.303118,20.6109,139.032,0.2957,0.0,0.0
2064,515.75,97.9494,105.919,144.791,99.6006,95.2922,0.00191225,0.300456,20.6088,138.742,0.315278,0.0,0.0
2076,518.75,97.9775,105.975,142.737,99.5944,94.8766,0.00196947,0.303486,20.6116,138.441,0.345998,0.0,0.0
2088,521.75,98.0313,106.038,142.397,99.5897,95.0279,0.00191164,0.302082,20.6089,138.111,0.334299,0.0,0.0
2100,524.75,98.6182,106.294,145.672,99.5893,93.7382,0.00195082,0.305186,20.6083,137.801,0.431698,0.0,0.0
2112,527.75,98.6731,106.302,140.758,99.5846,95.436,0.00200646,0.305983,20.6068,137.401,0.303382,0.0,0.0
2124,530.75,98.663,106.361,142.42,99.5608,94.8441,0.00209624,0.307446,20.606,137.08,0.346032,0.0,0.0
2136,533.75,98.5592,106.29,138.567,99.5678,94.3771,0.00225531,0.307956,20.6049,136.83,0.38173,0.0,0.0
2148,536.75,99.0466,106.002,149.672,99.5616,96.0311,0.00217119,0.307471,20.6037,136.45,0.25741,0.0,0.0
2160,539.75,98.6602,106.742,144.592,99.5865,95.3787,0.00209857,0.306351,20.6035,136.059,0.307804,0.0,0.0
2172,542.75,98.5997,106.153,144.914,99.5815,95.1382,0.00204779,0.306613,20.6048,135.779,0.325443,0.0,0.0
2184,545.75,98.7245,106.088,142.031,99.5701,95.0749,0.00215712,0.307297,20.6054,135.479,0.329373,0.0,0.0
2196,548.75,98.8939,106.696,145.668,99.5799,94.5901,0.0023059,0.307455,20.6033,135.129,0.366526,0.0,0.0
2208,551.75,98.61,106.568,144.854,99.6033,94.1706,0.00238098,0.304355,20.6021,134.838,0.399889,0.0,0.0
2220,554.75,98.9102,106.574,140.618,99.6334,95.4749,0.0024058,0.305846,20.6053,134.528,0.303968,0.0,0.0
2232,557.75,99.0412,106.758,148.153,99.6596,93.8647,0.00250445,0.308613,20.6041,134.248,0.427114,0.0,0.0
2244,560.75,98.0874,105.987,141.878,99.676,94.616,0.00245773,0.308692,20.6015,133.887,0.371445,0.0,0.0
2256,563.75,99.0191,105.74,145.565,99.706,94.6323,0.00220596,0.307383,20.6006,133.547,0.372373,0.0,0.0
2268,566.75,98.1249,106.677,142.75,99.7306,95.4587,0.00201991,0.306766,20.6019,133.257,0.312134,0.0,0.0
2280,569.75,98.745,106.323,145.533,99.7884,94.9814,0.00191572,0.30417,20.6024,132.857,0.352002,0.0,0.0
2292,572.75,98.8531,106.321,145.735,99.8044,94.7571,0.00199061,0.304588,20.6052,132.506,0.370005,0.0,0.0
2304,575.75,98.5092,106.624,146.981,99.8384,95.1566,0.00206243,0.306185,20.6057,132.286,0.342438,0.0,0.0
2316,578.75,98.968,105.911,145.926,99.8786,95.3674,0.00215088,0.305314,20.6042,131.966,0.329533,0.0,0.0
2328,581.75,98.7135,106.457,151.128,99.9235,94.8171,0.00215072,0.306143,20.605,131.656,0.373995,0.0,0.0
2340,584.75,98.7346,105.862,140.851,99.9575,95.1355,0.00209496,0.304243,20.6048,131.325,0.352519,0.0,0.0
2352,587.75,98.7275,106.305,144.804,99.9899,95.0798,0.00207673,0.302413,20.6048,130.985,0.359004,0.0,0.0
2364,590.75,98.6588,106.025,142.043,100.006,95.7268,0.00207272,0.30155,20.6071,130.695,0.311763,0.0,0.0
2376,593.75,98.3517,105.783,147.542,100.031,95.0041,0.00208263,0.304414,20.6088,130.424,0.367603,0.0,0.0
2388,596.75,98.6541,106.169,144.783,100.079,95.5512,0.0021911,0.302896,20.6059,130.114,0.330063,0.0,0.0
2400,599.75,98.6284,105.511,145.516,100.073,95.7895,0.00227984,0.300399,20.6074,129.824,0.311938,0.0,0.0
2412,602.75,98.2153,105.915,144.536,100.081,95.8544,0.00228844,0.300303,20.6102,129.564,0.307639,0.0,0.0
2424,605.75,98.6007,106.082,142.322,100.084,95.3166,0.00221702,0.29947,20.6114,129.223,0.347951,0.0,0.0
2436,608.75,98.5455,105.582,146.674,100.092,95.8403,0.00207361,0.300476,20.6126,128.903,0.309464,0.0,0.0
2448,611.75,98.699,105.573,146.555,100.093,95.3685,0.00201104,0.298236,20.613,128.583,0.344766,0.0,0.0
2460,614.75,98.2321,105.449,143.396,100.098,95.8122,0.00197112,0.297725,20.6137,128.313,0.312028,0.0,0.0
2472,617.75,98.1141,105.509,143.556,100.123,94.8809,0.00190581,0.298565,20.6154,127.982,0.383424,0.0,0.0
2484,620.75,98.5801,105.431,144.006,100.14,95.2701,0.00186444,0.29831,20.6138,127.712,0.355434,0.0,0.0
2496,623.75,98.2642,105.49,143.73,100.166,94.4387,0.00175642,0.296386,20.6135,127.382,0.419785,0.0,0.0
2508,626.75,98.4768,105.455,145.078,100.166,95.3949,0.00164875,0.294258,20.614,127.092,0.34793,0.0,0.0
2520,629.75,98.3042,105.904,142.802,100.198,95.842,0.00176261,0.29439,20.6157,126.781,0.316877,0.0,0.0
2532,632.75,98.4691,105.268,144.236,100.212,95.5398,0.00179494,0.294654,20.6163,126.511,0.340447,0.0,0.0
2544,635.75,97.8175,105.528,150.843,100.231,96.4906,0.00178376,0.293333,20.6171,126.191,0.271176,0.0,0.0
2556,638.75,98.3096,105.176,144.355,100.274,95.3744,0.00200325,0.292134,20.6188,125.95,0.357161,0.0,0.0
2568,641.75,98.2687,104.945,146.432,100.312,95.3328,0.00194683,0.29165,20.6195,125.62,0.362993,0.0,0.0
2580,644.75,98.4256,105.094,147.584,100.35,95.6998,0.00191266,0.287323,20.62,125.35,0.338289,0.0,0.0
2592,647.75,98.1134,104.963,144.874,100.369,95.6176,0.0019494,0.288822,20.6214,125.06,0.345744,0.0,0.0
2604,650.75,97.9187,104.658,145.26,100.384,95.4928,0.00206843,0.288006,20.6252,124.769,0.356142,0.0,0.0
2616,653.75,98.0474,104.816,150.488,100.403,96.2117,0.00219197,0.287662,20.6268,124.489,0.304026,0.0,0.0
2628,656.75,97.8856,104.398,149.142,100.436,95.542,0.00212321,0.286592,20.6266,124.179,0.356158,0.0,0.0
2640,659.75,97.5664,104.874,142.777,100.46,96.6473,0.00196309,0.286644,20.6266,123.859,0.275834,0.0,0.0
2652,662.75,97.9014,105.138,143.609,100.459,95.4571,0.0016955,0.285349,20.6266,123.608,0.364157,0.0,0.0
2664,665.75,97.717,104.833,148.536,100.476,96.8052,0.00159618,0.282976,20.6275,123.368,0.265336,0.0,0.0
2676,668.75,97.2257,104.394,148.379,100.492,95.5814,0.00164033,0.282002,20.6317,123.048,0.357233,0.0,0.0
2688,671.75,97.5084,104.509,140.081,100.476,95.5355,0.00174314,0.282125,20.6342,122.778,0.359469,0.0,0.0
2700,674.75,97.5872,104.589,146.58,100.49,97.3014,0.00186293,0.281372,20.6348,122.497,0.229908,0.0,0.0
2712,677.75,97.785,104.073,148.867,100.505,97.2425,0.00197079,0.278304,20.6354,122.257,0.235252,0.0,0.0
2724,680.75,97.3382,104.439,146.404,100.521,95.2074,0.00189629,0.278214,20.6374,121.987,0.387239,0.0,0.0
2736,683.75,97.3407,104.227,144.898,100.499,95.3895,0.00188859,0.277219,20.6396,121.707,0.37206,0.0,0.0
2748,686.75,97.2461,104.501,147.647,100.498,96.3295,0.00184379,0.277219,20.641,121.417,0.302062,0.0,0.0
2760,689.75,97.226,104.047,152.781,100.49,96.6436,0.00166944,0.278502,20.6405,121.126,0.278246,0.0,0.0
2772,692.75,96.9708,104.308,144.572,100.481,97.3544,0.00142032,0.281028,20.6387,120.836,0.22539,0.0,0.0
2784,695.75,97.3599,104.704,143.663,100.469,96.5782,0.00145475,0.27871,20.6361,120.566,0.281632,0.0,0.0
2796,698.75,97.3734,104.154,143.16,100.459,96.1857,0.00160698,0.274029,20.6376,120.296,0.309913,0.0,0.0
2808,701.75,97.2872,104.379,145.665,100.423,96.5495,0.00169171,0.277189,20.6423,120.045,0.280449,0.0,0.0
2820,704.75,97.2176,104.458,143.714,100.395,95.5739,0.00176915,0.278092,20.6395,119.765,0.350868,0.0,0.0
2832,707.75,96.7362,104.708,140.156,100.361,96.5436,0.00176077,0.274801,20.6389,119.495,0.27648,0.0,0.0
2844,710.75,97.3905,104.828,143.463,100.331,96.0798,0.00148906,0.275974,20.6389,119.245,0.308703,0.0,0.0
2856,713.75,97.4235,105.068,143.863,100.28,96.3306,0.0013696,0.277935,20.641,118.954,0.28648,0.0,0.0
2868,716.75,97.7199,105.036,144.88,100.233,95.8214,0.00145565,0.278453,20.6395,118.744,0.320933,0.0,0.0
2880,719.75,97.469,105.065,146.221,100.177,95.0014,0.00165521,0.277351,20.6387,118.474,0.378236,0.0,0.0
2892,722.75,97.72,105.231,147.029,100.117,95.643,0.00177722,0.277075,20.6401,118.184,0.325964,0.0,0.0
2904,725.75,97.636,104.987,145.523,100.057,95.3663,0.0017968,0.276875,20.6415,117.913,0.342313,0.0,0.0
2916,728.75,97.5051,104.805,148.535,99.9833,95.8609,0.00186484,0.27739,20.6422,117.633,0.300199,0.0,0.0
2928,731.75,97.1826,104.317,152.588,99.8989,96.4236,0.00192032,0.276935,20.6411,117.383,0.252454,0.0,0.0
2940,734.75,97.1389,104.542,143.092,99.831,94.3339,0.00203352,0.275997,20.6418,117.113,0.403819,0.0,0.0
2952,737.75,97.5987,104.605,143.373,99.7763,96.2014,0.00183364,0.276369,20.6394,116.833,0.260144,0.0,0.0
2964,740.75,97.5406,104.651,142.968,99.7181,94.2139,0.00166265,0.27645,20.6388,116.542,0.40483,0.0,0.0
2976,743.75,97.6169,104.755,148.251,99.6396,95.1993,0.00184948,0.27573,20.6374,116.312,0.325032,0.0,0.0
2988,746.75,98.0736,104.813,144.746,99.5596,95.076,0.00197542,0.275875,20.6381,116.072,0.328537,0.0,0.0
3000,749.75,97.3269,104.307,147.04,99.5127,94.9566,0.00196309,0.275778,20.6384,115.752,0.334145,0.0,0.0
3012,752.75,97.8903,104.367,143.4,99.4569,94.7506,0.00189019,0.275755,20.6378,115.481,0.345623,0.0,0.0
3024,755.75,97.3942,104.426,145.649,99.3866,94.2204,0.00167774,0.274541,20.6366,115.191,0.380595,0.0,0.0
3036,758.75,97.5449,104.425,145.238,99.3487,94.8095,0.001612,0.272941,20.6381,115.021,0.333433,0.0,0.0
3048,761.75,97.6167,104.766,148.18,99.3093,94.9431,0.00171481,0.271613,20.6405,114.721,0.320568,0.0,0.0
3060,764.75,97.4846,104.625,149.824,99.2624,94.3387,0.00184253,0.271446,20.6412,114.5,0.36273,0.0,0.0
3072,767.75,97.3993,104.588,144.594,99.2242,94.8182,0.00176847,0.271612,20.6414,114.29,0.323837,0.0,0.0
3084,770.75,97.4831,104.619,143.171,99.1914,94.1382,0.00166512,0.274868,20.6414,114.03,0.372795,0.0,0.0
3096,773.75,97.0868,105.078,146.036,99.1586,94.6479,0.00183109,0.27489,20.638,113.74,0.331936,0.0,0.0
3108,776.75,97.4477,104.34,143.17,99.1387,94.7593,0.00193981,0.273832,20.6372,113.47,0.322122,0.0,0.0
3120,779.75,97.147,104.509,147.79,99.1129,94.8517,0.00197756,0.27381,20.638,113.189,0.313316,0.0,0.0
3132,782.75,97.2583,103.926,148.19,99.1008,96.0755,0.00190703,0.272575,20.6391,112.899,0.221047,0.0,0.0
3144,785.75,97.1233,103.661,148.603,99.0926,94.9912,0.00179391,0.269094,20.6412,112.689,0.301381,0.0,0.0
3156,788.75,97.1768,103.524,151.74,99.0957,95.1949,0.0017494,0.267164,20.645,112.429,0.286327,0.0,0.0
3168,791.75,96.9348,103.691,142.789,99.1176,94.9231,0.00176316,0.264599,20.6463,112.178,0.308292,0.0,0.0
3180,794.75,96.8072,103.665,140.964,99.1242,93.9031,0.00168517,0.263015,20.6494,112.018,0.385796,0.0,0.0
3192,797.75,96.9568,103.968,145.602,99.1574,95.309,0.00185082,0.267717,20.6502,111.778,0.282228,0.0,0.0
3204,800.75,96.7929,103.58,144.905,99.1898,95.0474,0.00201295,0.270006,20.6458,111.518,0.304155,0.0,0.0
3216,803.75,96.212,103.839,145.601,99.2101,94.7122,0.00202534,0.27006,20.6431,111.228,0.330798,0.0,0.0
3228,806.75,96.5582,103.45,143.248,99.2507,93.9928,0.0017983,0.265971,20.6441,111.007,0.388081,0.0,0.0
3240,809.75,96.3802,103.408,143.141,99.266,95.5203,0.00148621,0.264473,20.6481,110.727,0.274236,0.0,0.0
3252,812.75,96.4053,103.944,144.988,99.2968,95.3328,0.00154252,0.262907,20.6509,110.547,0.290465,0.0,0.0
3264,815.75,96.2337,103.64,147.465,99.2906,95.2722,0.00164467,0.260888,20.653,110.297,0.294545,0.0,0.0
3276,818.75,96.9023,103.722,148.632,99.3112,96.242,0.00163668,0.262487,20.6539,110.017,0.223829,0.0,0.0
3288,821.75,96.5676,103.374,148.65,99.3398,95.0814,0.00153879,0.264377,20.6516,109.806,0.312371,0.0,0.0
3300,824.75,96.5697,103.092,144.145,99.3409,94.0025,0.00157491,0.261787,20.6508,109.566,0.39382,0.0,0.0
3312,827.75,96.5264,103.038,146.327,99.3671,95.1771,0.00175036,0.260549,20.6518,109.336,0.307161,0.0,0.0
3324,830.75,96.5629,103.132,140.796,99.3995,93.9906,0.00197851,0.260374,20.6542,109.106,0.398924,0.0,0.0
3336,833.75,96.2884,103.088,150.12,99.3987,95.7311,0.00188529,0.257883,20.6549,108.956,0.268048,0.0,0.0
3348,836.75,96.1961,102.694,147.066,99.4272,94.4193,0.00180703,0.255044,20.6573,108.715,0.368472,0.0,0.0
3360,839.75,96.257,102.49,150.793,99.4538,94.7414,0.00190998,0.252707,20.6596,108.515,0.346091,0.0,0.0
3372,842.75,96.2509,102.618,143.643,99.4721,95.2041,0.00190867,0.250102,20.6624,108.305,0.312671,0.0,0.0
3384,845.75,96.1184,102.695,151.053,99.5014,95.9809,0.00186687,0.249313,20.6641,108.075,0.256836,0.0,0.0
3396,848.75,95.9543,101.874,148.447,99.544,95.6344,0.0017967,0.248686,20.6655,107.835,0.285669,0.0,0.0
3408,851.75,95.4759,102.096,143.082,99.5647,95.169,0.00175839,0.246337,20.6678,107.584,0.321932,0.0,0.0
3420,854.75,95.7997,101.798,144.354,99.5893,94.9431,0.00163301,0.243386,20.6704,107.374,0.340641,0.0,0.0
3432,857.75,95.4485,102.341,147.297,99.6322,95.9171,0.00153394,0.242959,20.6729,107.174,0.270943,0.0,0.0
3444,860.75,95.1922,101.82,147.473,99.658,95.8252,0.00153588,0.242894,20.6743,107.004,0.27962,0.0,0.0
3456,863.75,95.286,101.924,145.762,99.6916,95.1598,0.00163541,0.242924,20.6747,106.814,0.331702,0.0,0.0
3468,866.75,95.9226,101.955,144.256,99.747,96.1025,0.00176336,0.241444,20.6748,106.624,0.265385,0.0,0.0
3480,869.75,95.5399,101.661,144.292,99.7935,95.9095,0.00180733,0.23872,20.6755,106.393,0.283036,0.0,0.0
3492,872.75,95.2548,101.488,145.176,99.8396,95.8149,0.00162802,0.236552,20.6784,106.213,0.293363,0.0,0.0
3504,875.75,94.9693,100.968,152.722,99.8888,96.0144,0.00162278,0.234,20.6791,106.073,0.282049,0.0,0.0
3516,878.75,94.9941,100.82,147.135,99.9391,96.3349,0.00184658,0.229103,20.6832,105.863,0.261881,0.0,0.0
3528,881.75,94.417,100.215,143.704,99.9755,96.5836,0.00166098,0.22426,20.6862,105.753,0.246093,0.0,0.0
3540,884.75,93.659,99.4756,150.808,100.015,96.6279,0.00139004,0.220632,20.692,105.633,0.245605,0.0,0.0
3552,887.75,93.8034,99.5597,154.948,100.063,96.8609,0.0013074,0.213733,20.6959,105.513,0.231916,0.0,0.0
3564,890.75,93.9972,98.521,148.234,100.1,98.0338,0.00137516,0.205627,20.7031,105.402,0.148682,0.0,0.0
3576,893.75,93.2282,97.9715,154.689,100.136,97.6879,0.00164887,0.197122,20.712,105.272,0.1765,0.0,0.0
3588,896.75,92.5234,97.335,148.914,100.175,97.9916,0.00179974,0.186839,20.7192,105.232,0.157088,0.0,0.0
3600,899.75,92.4451,96.3556,153.828,100.197,98.0425,0.00170068,0.173262,20.727,105.122,0.154976,0.0,0.0
3612,902.75,91.8186,95.68,151.96,100.23,98.9608,0.00162758,0.159575,20.7431,105.032,0.0908632,0.0,0.0
3624,905.75,91.3315,95.399,151.026,100.241,98.0468,0.00168919,0.149621,20.7618,105.002,0.157828,0.0,0.0
3636,908.75,90.7355,94.2635,151.725,100.264,98.8992,0.0017844,0.142733,20.7718,104.882,0.0976925,0.0,0.0
3648,911.75,90.217,94.0466,149.855,100.288,99.1338,0.00175881,0.136538,20.7836,104.912,0.0825497,0.0,0.0
3660,914.75,90.4671,93.302,153.887,100.308,98.8338,0.00172088,0.132519,20.7912,104.802,0.105546,0.0,0.0
3672,917.75,89.7816,92.9273,148.191,100.326,98.7889,0.00178828,0.129313,20.7975,104.802,0.110059,0.0,0.0
3684,920.75,89.7815,92.2807,152.109,100.353,98.9473,0.00200535,0.127166,20.8017,104.732,0.100581,0.0,0.0
3696,923.75,89.1443,92.251,150.679,100.36,99.3051,0.00221445,0.124782,20.8054,104.682,0.0753703,0.0,0.0
3708,926.75,88.7263,91.5528,149.808,100.366,99.1868,0.00237443,0.123499,20.8091,104.622,0.0842911,0.0,0.0
3720,929.75,88.4273,91.2763,152.965,100.362,99.6462,0.00242332,0.121164,20.8114,104.572,0.0510079,0.0,0.0
3732,932.75,87.6134,90.9234,151.284,100.362,99.0278,0.00248314,0.120381,20.8149,104.482,0.0953899,0.0,0.0
3744,935.75,87.8532,90.472,149.371,100.382,98.9857,0.00259569,0.11904,20.8162,104.442,0.0998694,0.0,0.0
3756,938.75,87.5527,90.4645,158.568,100.367,99.4624,0.00271527,0.117553,20.818,104.382,0.0645578,0.0,0.0
3768,941.75,87.197,89.8577,155.573,100.369,99.0278,0.00237417,0.118391,20.8187,104.342,0.0959451,0.0,0.0
3780,944.75,87.1596,90.0586,151.823,100.353,98.983,0.00220942,0.118441,20.8185,104.302,0.0979834,0.0,0.0
3792,947.75,86.448,89.6083,152.754,100.352,99.5711,0.00246108,0.117204,20.8183,104.281,0.0556646,0.0,0.0
3804,950.75,86.3046,89.4372,155.462,100.364,99.1819,0.00267427,0.116722,20.8193,104.211,0.0844465,0.0,0.0
3816,953.75,86.5153,89.2122,156.772,100.346,99.5041,0.00267172,0.116784,20.8196,104.151,0.0600772,0.0,0.0
3828,956.75,85.8857,89.0852,151.318,100.336,99.3559,0.00273239,0.116655,20.8196,104.151,0.0700036,0.0,0.0
3840,959.75,86.0183,89.063,150.612,100.331,99.1527,0.00291903,0.115169,20.8208,104.061,0.0842424,0.0,0.0
3852,962.75,85.5629,89.1395,148.986,100.332,99.3046,0.00292845,0.114471,20.8232,104.041,0.0733845,0.0,0.0
3864,965.75,85.614,88.4636,147.823,100.312,99.0295,0.00296984,0.114538,20.824,104.011,0.0917224,0.0,0.0
3876,968.75,85.0777,88.6125,153.732,100.281,98.7338,0.00300012,0.11354,20.8234,103.991,0.110875,0.0,0.0
3888,971.75,85.3358,88.7142,152.508,100.268,98.5338,0.00315894,0.112062,20.8241,103.891,0.124361,0.0,0.0
3900,974.75,85.0842,88.4688,155.365,100.246,98.8814,0.0033447,0.112738,20.8264,103.771,0.0977008,0.0,0.0
3912,977.75,84.6397,87.9957,156.377,100.214,99.217,0.00341195,0.115581,20.8272,103.821,0.0712886,0.0,0.0
3924,980.75,84.4437,88.1062,154.372,100.188,99.1408,0.00339773,0.116056,20.8235,103.691,0.0749061,0.0,0.0
3936,983.75,84.4685,88.0529,157.953,100.156,99.1105,0.00335935,0.11476,20.822,103.711,0.0748321,0.0,0.0
3948,986.75,84.1897,87.4669,151.927,100.128,98.53,0.00341896,0.113183,20.8231,103.701,0.114688,0.0,0.0
3960,989.75,84.0682,87.3884,151.53,100.087,98.8003,0.00351627,0.11265,20.8251,103.661,0.0922376,0.0,0.0
3972,992.75,84.1875,87.1687,154.39,100.059,98.7149,0.00361471,0.111997,20.8261,103.641,0.0964281,0.0,0.0
3984,995.75,83.6654,87.3971,154.835,100.032,99.2949,0.00351466,0.111322,20.8271,103.601,0.0527115,0.0,0.0
3996,998.75,83.9825,87.4103,158.355,100.007,99.4781,0.00354456,0.111282,20.8275,103.571,0.0378414,0.0,0.0
4008,1001.75,83.6282,87.3879,148.508,99.9696,98.9922,0.00377806,0.112502,20.8282,103.561,0.0700532,0.0,0.0
4020,1004.75,83.9695,86.8333,150.914,99.9329,99.0073,0.00415046,0.115879,20.8277,103.461,0.0663449,0.0,0.0
4032,1007.75,83.5252,87.154,150.68,99.8935,99.0316,0.00420897,0.11726,20.8249,103.421,0.0617795,0.0,0.0
4044,1010.75,83.8069,87.0155,152.384,99.8279,99.1862,0.00417173,0.116107,20.8239,103.381,0.0459749,0.0,0.0
4056,1013.75,83.3628,86.8845,152.613,99.7994,98.9284,0.00420988,0.113598,20.8247,103.321,0.0624956,0.0,0.0
4068,1016.75,83.5405,86.9824,152.458,99.7587,98.8262,0.00426263,0.111526,20.8281,103.311,0.0669604,0.0,0.0
4080,1019.75,83.0847,86.9236,155.185,99.7224,97.6733,0.00426461,0.110873,20.831,103.221,0.148033,0.0,0.0
4092,1022.75,83.207,86.3887,149.82,99.6924,98.7505,0.00425018,0.109267,20.8334,103.211,0.0676769,0.0,0.0
4104,1025.75,83.1209,86.403,155.401,99.6576,98.443,0.00396792,0.107706,20.8348,103.181,0.087431,0.0,0.0
4116,1028.75,83.1202,86.42,157.33,99.6322,98.6284,0.00380378,0.107482,20.8368,103.12,0.0721999,0.0,0.0
4128,1031.75,82.964,86.3554,155.753,99.6045,98.8711,0.0039878,0.108084,20.8374,103.15,0.0526929,0.0,0.0
4140,1034.75,82.6751,86.4059,152.467,99.583,98.4176,0.00414942,0.108423,20.8372,103.14,0.0839333,0.0,0.0
4152,1037.75,82.9263,86.471,154.025,99.5643,98.0706,0.00445508,0.108371,20.835,103.12,0.107776,0.0,0.0
4164,1040.75,82.3392,86.1694,149.9,99.5674,98.1316,0.0049906,0.108457,20.8344,103.06,0.103559,0.0,0.0
4176,1043.75,82.1833,86.055,154.299,99.5846,98.9603,0.00532431,0.108873,20.8327,103.02,0.0448382,0.0,0.0
4188,1046.75,82.3184,85.7994,152.578,99.5873,98.7208,0.00533246,0.108789,20.832,102.96,0.0623069,0.0,0.0
4200,1049.75,82.2091,85.9733,151.014,99.5881,98.763,0.00535067,0.10854,20.8319,102.89,0.0593186,0.0,0.0
4212,1052.75,82.0687,85.7094,158.095,99.5967,98.663,0.00535197,0.108049,20.8328,102.87,0.0671566,0.0,0.0
4224,1055.75,82.3794,85.5833,153.496,99.5776,98.576,0.00547356,0.107877,20.8338,102.79,0.0720779,0.0,0.0
4236,1058.75,82.5028,85.4411,151.416,99.5936,99.0338,0.00560922,0.107648,20.834,102.75,0.0401871,0.0,0.0
4248,1061.75,81.9994,85.789,149.692,99.5947,98.0949,0.00546274,0.10745,20.8341,102.72,0.108188,0.0,0.0
4260,1064.75,81.9178,85.3908,154.642,99.6186,98.2316,0.00516368,0.106416,20.8341,102.73,0.0999599,0.0,0.0
4272,1067.75,81.6441,85.436,153.537,99.6252,98.6495,0.00516671,0.106664,20.8341,102.72,0.0701727,0.0,0.0
4284,1070.75,82.2588,84.8555,153.402,99.6287,98.8803,0.00539712,0.106324,20.8341,102.69,0.0537626,0.0,0.0
4296,1073.75,82.1553,84.9321,154.074,99.6373,98.3743,0.00562592,0.106649,20.8363,102.67,0.0909521,0.0,0.0
4308,1076.75,81.3829,85.2712,154.925,99.6283,98.5452,0.00578678,0.107048,20.8361,102.63,0.0779408,0.0,0.0
4320,1079.75,81.4523,85.14,155.504,99.658,98.2916,0.00583224,0.106755,20.8353,102.61,0.0984293,0.0,0.0
4332,1082.75,81.3408,85.244,153.6,99.6619,98.8489,0.00612028,0.10606,20.8357,102.43,0.0583981,0.0,0.0
4344,1085.75,81.4219,84.9181,153.401,99.6674,98.3581,0.0062791,0.105465,20.8384,102.45,0.0942786,0.0,0.0
4356,1088.75,81.4653,84.9377,151.96,99.6806,98.9754,0.00614577,0.105319,20.8389,102.39,0.0506223,0.0,0.0
4368,1091.75,80.8663,84.89,153.043,99.6803,99.0208,0.00605112,0.105576,20.8394,102.4,0.0473243,0.0,0.0
4380,1094.75,81.1846,84.9186,155.143,99.7045,98.7906,0.00636795,0.106697,20.8381,102.39,0.0656552,0.0,0.0
4392,1097.75,81.0796,85.0452,154.697,99.7154,99.0041,0.00660113,0.10733,20.8378,102.35,0.0510442,0.0,0.0
4404,1100.75,81.2647,85.0501,152.809,99.7353,98.8289,0.0069085,0.107095,20.8376,102.21,0.0650918,0.0,0.0
4416,1103.75,81.1939,84.6463,154.925,99.7634,98.7279,0.00715951,0.106968,20.8378,102.28,0.0743964,0.0,0.0
4428,1106.75,80.8107,84.7357,158.994,99.7978,98.8641,0.00741193,0.106556,20.8383,102.28,0.0670219,0.0,0.0
4440,1109.75,81.198,84.3525,149.476,99.8158,99.0608,0.00763893,0.107153,20.8398,102.32,0.0541304,0.0,0.0
4452,1112.75,80.8486,84.6114,156.995,99.8357,99.1111,0.00771815,0.106668,20.8405,102.25,0.0519353,0.0,0.0
4464,1115.75,80.9011,84.3084,152.878,99.8536,99.0981,0.00806526,0.106501,20.8393,102.22,0.0541515,0.0,0.0
4476,1118.75,80.8059,84.2915,153.522,99.879,98.7154,0.00852207,0.105291,20.8404,102.13,0.0835502,0.0,0.0
4488,1121.75,80.4482,84.8962,154.074,99.8903,99.0343,0.00866783,0.104213,20.8407,102.09,0.0613624,0.0,0.0
4500,1124.75,80.4139,84.1806,151.21,99.8954,99.1965,0.0086524,0.103587,20.8424,102.02,0.0500593,0.0,0.0
4512,1127.75,80.4747,84.0023,152.162,99.8989,98.6673,0.00852735,0.10405,20.8427,101.989,0.0884468,0.0,0.0
4524,1130.75,80.5338,84.1572,157.687,99.9036,99.1597,0.00861912,0.103087,20.8438,101.929,0.0532869,0.0,0.0
4536,1133.75,80.2823,84.101,153.318,99.9056,99.3165,0.00865225,0.102708,20.8441,101.929,0.0421645,0.0,0.0
4548,1136.75,80.3544,84.1507,155.599,99.9142,99.1841,0.00845162,0.102365,20.8442,101.899,0.0522905,0.0,0.0
4560,1139.75,80.1082,83.8211,150.8,99.9188,99.3122,0.0088593,0.102405,20.8442,101.879,0.0434225,0.0,0.0
4572,1142.75,79.9769,83.4303,156.368,99.9267,99.5657,0.00932367,0.101717,20.8442,101.849,0.0258032,0.0,0.0
4584,1145.75,80.2647,83.874,156.119,99.9532,98.9641,0.00918045,0.101441,20.845,101.859,0.0709083,0.0,0.0
4596,1148.75,80.0752,84.0302,155.019,99.9591,99.4041,0.00897667,0.101748,20.8461,101.809,0.0396977,0.0,0.0
4608,1151.75,79.9939,83.9946,156.996,99.9489,99.0219,0.00925044,0.101157,20.846,101.759,0.0664367,0.0,0.0
4620,1154.75,80.0266,83.8045,152.572,99.9466,99.1732,0.00961032,0.102689,20.8443,101.709,0.0553804,0.0,0.0
4632,1157.75,80.1043,84.2139,152.658,99.9356,99.2235,0.00985244,0.104995,20.8423,101.619,0.0509868,0.0,0.0
4644,1160.75,80.0171,83.7478,152.457,99.9157,98.85,0.00981331,0.106764,20.8402,101.589,0.0764551,0.0,0.0
4656,1163.75,79.6734,83.7045,153.265,99.8989,99.0635,0.0100756,0.106373,20.8377,101.549,0.0598741,0.0,0.0
4668,1166.75,79.7965,83.5042,153.283,99.8759,98.8684,0.0106599,0.10508,20.8378,101.549,0.0722874,0.0,0.0
4680,1169.75,79.5361,83.7402,155.408,99.8474,98.59,0.0112681,0.103655,20.8385,101.489,0.0903555,0.0,0.0
4692,1172.75,79.4953,83.695,153.059,99.8263,99.1614,0.0114822,0.102299,20.8399,101.509,0.047651,0.0,0.0
4704,1175.75,79.8075,83.5285,151.916,99.8185,98.6635,0.0111973,0.101651,20.8422,101.479,0.0829773,0.0,0.0
4716,1178.75,79.754,83.7436,153.149,99.79,99.083,0.0110708,0.102383,20.8442,101.479,0.050694,0.0,0.0
4728,1181.75,79.787,83.511,156.616,99.7529,99.0349,0.0114945,0.102462,20.8439,101.519,0.0515058,0.0,0.0
4740,1184.75,79.5379,83.3274,157.44,99.7123,98.8078,0.0115122,0.102645,20.8434,101.509,0.0649655,0.0,0.0
4752,1187.75,79.5849,83.0245,152.485,99.6576,98.9349,0.0114976,0.103931,20.8427,101.439,0.0518948,0.0,0.0
4764,1190.75,79.2519,83.2177,151.977,99.6232,98.9333,0.0119757,0.103868,20.8413,101.389,0.0495529,0.0,0.0
4776,1193.75,79.5748,82.8329,153.874,99.6314,98.796,0.0122509,0.102721,20.8403,101.319,0.060041,0.0,0.0
4788,1196.75,79.3805,83.101,157.257,99.6713,98.8684,0.0121995,0.101687,20.8434,101.279,0.0576664,0.0,0.0
4800,1199.75,79.067,82.9845,155.378,99.6904,98.93,0.0121705,0.10241,20.8458,101.279,0.0545918,0.0,0.0
4812,1202.75,79.1468,83.2855,153.522,99.7306,98.81,0.0121964,0.103509,20.8465,101.189,0.0661209,0.0,0.0
4824,1205.75,79.1389,82.9308,152.546,99.7689,98.6624,0.0122591,0.103556,20.8464,101.129,0.0795119,0.0,0.0
4836,1208.75,79.033,82.7765,153.632,99.7818,99.3284,0.0123842,0.102618,20.845,101.109,0.0324717,0.0,0.0
4848,1211.75,78.978,82.757,153.097,99.8134,98.8327,0.0125495,0.10212,20.8455,101.079,0.0703991,0.0,0.0
4860,1214.75,79.1186,83.1851,154.84,99.8408,98.6376,0.0126424,0.101772,20.8472,101.039,0.0864419,0.0,0.0
4872,1217.75,78.8684,82.5533,158.127,99.8685,99.0722,0.0126825,0.101288,20.8486,101.079,0.057077,0.0,0.0
4884,1220.75,78.723,82.4391,160.202,99.9114,99.1532,0.0129588,0.100966,20.8481,101.039,0.0543109,0.0,0.0
4896,1223.75,78.6967,82.9341,154.161,99.9263,99.1516,0.0134397,0.100685,20.8475,101.019,0.0554858,0.0,0.0
4908,1226.75,78.6804,82.0053,152.396,99.9337,99.0565,0.0137266,0.100396,20.8473,100.929,0.0628596,0.0,0.0
4920,1229.75,78.798,82.5863,154.043,99.9509,99.1949,0.013659,0.100166,20.8472,100.889,0.0541321,0.0,0.0
4932,1232.75,78.6912,82.2406,156.969,99.9579,99.2387,0.0133225,0.10008,20.8472,100.838,0.0514872,0.0,0.0
4944,1235.75,77.8606,82.1799,149.56,99.9669,98.9787,0.0132414,0.100471,20.8472,100.828,0.0708317,0.0,0.0
4956,1238.75,78.8086,82.4479,153.065,99.9747,98.9792,0.0133098,0.1,20.848,100.808,0.0713501,0.0,0.0
4968,1241.75,78.6467,82.7454,150.205,99.9915,99.0051,0.0135365,0.100083,20.8489,100.778,0.0706785,0.0,0.0
4980,1244.75,78.3974,82.553,158.819,100.003,99.2824,0.0135167,0.100109,20.847,100.748,0.0515454,0.0,0.0
4992,1247.75,78.7732,82.3919,153.284,100.004,99.1068,0.0135421,0.0991164,20.8464,100.728,0.0642832,0.0,0.0
5004,1250.75,78.4615,82.3983,154.272,100.04,99.0376,0.01362,0.099408,20.8477,100.678,0.0717674,0.0,0.0
5016,1253.75,78.6422,81.4208,152.177,100.073,99.5235,0.0138459,0.0997874,20.8481,100.628,0.0392345,0.0,0.0
5028,1256.75,78.4299,82.4909,155.878,100.087,99.0257,0.0141072,0.098954,20.8482,100.548,0.0760179,0.0,0.0
5040,1259.75,78.4987,82.2258,157.224,100.122,98.5987,0.0141038,0.098218,20.8482,100.508,0.109304,0.0,0.0
5052,1262.75,78.2275,81.8992,154.829,100.164,99.323,0.0139547,0.0986185,20.8495,100.518,0.0601227,0.0,0.0
5064,1265.75,78.3655,82.2613,151.787,100.171,99.4224,0.0140285,0.0988217,20.8495,100.558,0.0535146,0.0,0.0
5076,1268.75,78.3873,82.2535,152.597,100.198,99.3505,0.0142178,0.0985878,20.8486,100.548,0.0605896,0.0,0.0
5088,1271.75,77.8646,82.2535,155.524,100.192,99.8289,0.0144666,0.0992128,20.8483,100.438,0.0258981,0.0,0.0
5100,1274.75,78.3754,82.15,155.167,100.21,99.2149,0.0145462,0.0990647,20.8478,100.388,0.0711666,0.0,0.0
5112,1277.75,77.758,81.8135,153.453,100.242,99.8008,0.0145569,0.098734,20.8474,100.378,0.0314335,0.0,0.0
5124,1280.75,77.3111,80.7677,150.568,100.248,99.843,0.0145905,0.0984368,20.8486,100.358,0.0288944,0.0,0.0
5136,1283.75,76.8845,81.2404,158.672,100.27,99.2614,0.0143259,0.0988441,20.8485,100.308,0.0720484,0.0,0.0
5148,1286.75,77.3366,81.0723,152.227,100.294,99.4813,0.0142429,0.0991758,20.8483,100.248,0.0579851,0.0,0.0
5160,1289.75,76.9601,80.948,154.595,100.312,99.5911,0.0145015,0.0988145,20.8473,100.248,0.0514577,0.0,0.0
5172,1292.75,76.9378,81.2744,152.988,100.328,99.797,0.0144303,0.0987637,20.8463,100.208,0.0378668,0.0,0.0
5184,1295.75,77.1514,81.4622,153.805,100.332,99.6846,0.0142286,0.0990373,20.8451,100.188,0.0461818,0.0,0.0
5196,1298.75,77.412,80.9024,156.841,100.339,99.7435,0.0143309,0.0994507,20.844,100.168,0.0424687,0.0,0.0
5208,1301.75,77.3481,80.8741,155.213,100.363,100.034,0.014543,0.0989227,20.8437,100.118,0.0234045,0.0,0.0
5220,1304.75,77.1709,81.2897,156.381,100.38,100.314,0.0148437,0.0990174,20.8451,100.148,0.00466802,0.0,0.0
5232,1307.75,77.397,81.3675,159.95,100.402,99.7046,0.0151146,0.0982575,20.8457,100.068,0.0497167,0.0,0.0
5244,1310.75,77.0216,80.6814,154.929,100.416,99.6722,0.0153414,0.0982222,20.8458,100.068,0.0530068,0.0,0.0
5256,1313.75,77.3355,81.0744,153.878,100.428,99.6078,0.0153322,0.0984247,20.8474,100.048,0.0584411,0.0,0.0
5268,1316.75,76.8342,81.0219,152.296,100.449,99.8873,0.0155194,0.0989057,20.848,99.9277,0.0399623,0.0,0.0
5280,1319.75,76.9328,81.1114,157.259,100.466,98.7262,0.0156989,0.098688,20.8482,99.8976,0.124514,0.0,0.0
5292,1322.75,77.5894,81.462,157.659,100.48,99.0041,0.0156731,0.0987055,20.8482,99.8576,0.105476,0.0,0.0
5304,1325.75,77.4235,81.2124,154.891,100.495,100.053,0.0155797,0.0983391,20.8482,99.8176,0.031464,0.0,0.0
5316,1328.75,77.1612,81.1177,153.487,100.513,99.9311,0.0155782,0.0981699,20.8496,99.7976,0.0414099,0.0,0.0
5328,1331.75,76.8842,81.2314,156.967,100.523,100.136,0.0156731,0.098319,20.8503,99.8176,0.0274349,0.0,0.0
5340,1334.75,77.0382,81.1249,153.522,100.562,99.8008,0.0156502,0.0980366,20.8507,99.7475,0.0541439,0.0,0.0
5352,1337.75,76.9352,81.1257,152.175,100.565,99.7581,0.0153707,0.0977452,20.8514,99.7375,0.0574168,0.0,0.0
5364,1340.75,76.9979,80.8854,155.751,100.583,99.9716,0.01535,0.0978612,20.8515,99.7175,0.043447,0.0,0.0
5376,1343.75,76.9241,80.9756,154.376,100.588,100.035,0.0153429,0.0981542,20.8516,99.7275,0.0392979,0.0,0.0
5388,1346.75,76.9631,81.1077,154.938,100.613,99.7078,0.0154897,0.0983337,20.8516,99.7275,0.0644155,0.0,0.0
5400,1349.75,77.0793,80.9414,156.755,100.603,99.3359,0.0157687,0.0977283,20.8501,99.7075,0.0903924,0.0,0.0
5412,1352.75,76.6248,80.9978,155.838,100.605,100.004,0.0159154,0.0973196,20.8506,99.6274,0.0427779,0.0,0.0
5424,1355.75,76.7276,80.7917,156.997,100.606,99.583,0.0159936,0.0971695,20.8513,99.5573,0.0729066,0.0,0.0
5436,1358.75,77.0908,80.8716,160.856,100.607,99.9862,0.0159718,0.0970658,20.851,99.4873,0.0441219,0.0,0.0
5448,1361.75,76.6229,80.9014,155.567,100.605,99.4732,0.0161051,0.0965507,20.8517,99.4873,0.0806557,0.0,0.0
5460,1364.75,76.7902,80.6147,154.021,100.599,99.7646,0.0166068,0.0970899,20.8509,99.4272,0.0594172,0.0,0.0
5472,1367.75,76.3001,80.1141,154.948,100.591,99.6813,0.0169576,0.0963986,20.8507,99.4372,0.0647878,0.0,0.0
5484,1370.75,76.5213,80.9227,151.583,100.608,99.6776,0.0169167,0.0957171,20.8506,99.3772,0.0662481,0.0,0.0
5496,1373.75,76.4498,80.6432,156.65,100.573,99.904,0.016797,0.0960406,20.8514,99.3672,0.047575,0.0,0.0
5508,1376.75,76.7288,80.5993,154.497,100.574,99.7376,0.0167835,0.0966008,20.8525,99.3772,0.0595218,0.0,0.0
5520,1379.75,76.9397,80.3973,158.025,100.555,99.9916,0.0168188,0.0973213,20.8524,99.3672,0.0400831,0.0,0.0
5532,1382.75,76.4062,80.4638,154.772,100.537,99.8311,0.0170407,0.097359,20.8496,99.2871,0.0502374,0.0,0.0
5544,1385.75,76.7806,80.4131,152.933,100.521,99.6192,0.0172134,0.0980461,20.8499,99.2871,0.0642512,0.0,0.0
5556,1388.75,76.6543,80.6047,155.725,100.514,99.823,0.0172415,0.0977818,20.8504,99.137,0.0491824,0.0,0.0
5568,1391.75,76.0638,80.5392,152.72,100.471,99.7413,0.0171808,0.0977121,20.8505,99.2371,0.0519673,0.0,0.0
5580,1394.75,76.1897,80.5773,153.635,100.433,99.7413,0.0168438,0.0979474,20.8498,99.0569,0.0492786,0.0,0.0
5592,1397.75,76.7201,80.3144,156.201,100.402,99.7354,0.0165944,0.0967858,20.8503,99.1069,0.0475142,0.0,0.0
5596,1398.75,76.4683,80.4872,155.354,100.415,99.5251,0.0165647,0.0967306,20.8504,99.0869,0.0634485,0.0,0.0