File: 01_Data/Particleboard/Cone/Particleboard_HRRPUA_25.csv
Time after Ignition,Particleboard_R1,Particleboard_R2,Particleboard_R3,Particleboard_R4,Mean,Std. Dev.
0.0,3.1,1.5,2.0,0.4,1.8,1.1
1.25,3.3,1.6,2.2,0.9,2.0,1.0
2.5,3.7,1.8,2.5,1.1,2.3,1.1
3.75,4.0,1.9,2.5,1.3,2.4,1.2
5.0,4.6,2.5,2.6,1.1,2.7,1.4
6.25,4.4,2.8,2.6,1.4,2.8,1.2
7.5,4.5,3.0,3.0,1.7,3.1,1.2
8.75,5.3,3.4,3.8,2.2,3.7,1.3
10.0,8.0,5.2,5.9,3.5,5.6,1.8
11.25,17.5,10.0,9.9,8.3,11.4,4.1
12.5,33.9,17.0,15.4,18.0,21.1,8.6
13.75,58.8,27.3,24.0,32.5,35.7,15.8
15.0,81.3,42.3,37.6,48.0,52.3,19.8
16.25,106.3,57.3,54.9,61.1,69.9,24.4
17.5,127.7,78.5,77.8,72.6,89.2,25.8
18.75,152.7,94.3,96.7,86.8,107.6,30.3
20.0,168.7,105.6,110.5,103.8,122.2,31.2
21.25,179.3,116.0,126.0,115.4,134.2,30.5
22.5,187.4,125.2,138.5,126.3,144.4,29.3
23.75,200.5,131.9,142.8,138.1,153.3,31.8
25.0,211.1,144.5,151.5,146.3,163.4,32.0
26.25,214.5,153.3,160.6,154.5,170.7,29.4
27.5,219.9,157.7,162.7,158.5,174.7,30.2
28.75,227.2,160.3,171.5,161.4,180.1,31.8
30.0,226.0,169.1,172.4,167.1,183.6,28.3
31.25,234.3,171.2,176.6,173.6,188.9,30.3
32.5,234.3,174.9,179.3,173.7,190.6,29.3
33.75,236.6,178.8,182.7,177.5,193.9,28.5
35.0,238.5,180.1,183.9,177.4,195.0,29.1
36.25,236.7,180.6,186.4,179.5,195.8,27.5
37.5,231.9,180.3,188.7,178.9,194.9,25.0
38.75,237.9,181.1,181.9,179.8,195.1,28.5
40.0,231.4,189.5,189.3,183.1,198.3,22.3
41.25,231.3,187.0,189.1,183.0,197.6,22.6
42.5,231.1,187.4,186.0,191.0,198.9,21.6
43.75,230.9,184.3,189.2,186.5,197.7,22.2
45.0,230.3,188.4,188.5,192.0,199.8,20.4
46.25,224.3,187.0,190.1,194.0,198.9,17.2
47.5,225.4,189.5,188.7,193.0,199.1,17.6
48.75,223.9,186.2,187.2,190.6,196.9,18.0
50.0,218.8,187.3,191.1,195.6,198.2,14.1
51.25,219.2,188.0,189.6,196.4,198.3,14.4
52.5,214.6,184.9,187.8,193.6,195.2,13.4
53.75,213.4,184.5,185.1,190.4,193.3,13.6
55.0,209.0,182.7,185.7,188.8,191.6,11.9
56.25,206.2,186.7,187.7,192.7,193.3,9.0
57.5,204.7,180.8,182.9,194.3,190.7,11.1
58.75,208.3,181.6,184.5,191.2,191.4,12.0
60.0,200.9,173.8,185.7,187.1,186.9,11.1
61.25,200.7,179.7,183.4,188.6,188.1,9.1
62.5,196.1,177.5,178.3,186.5,184.6,8.6
63.75,196.1,174.9,180.2,185.4,184.2,9.0
65.0,193.2,175.7,174.8,182.6,181.6,8.5
66.25,193.7,175.0,176.1,180.6,181.3,8.6
67.5,187.9,175.3,178.2,181.7,180.8,5.4
68.75,186.6,174.1,175.2,178.7,178.7,5.7
70.0,185.4,170.4,176.0,174.8,176.7,6.3
71.25,181.9,171.8,173.6,172.1,174.9,4.8
72.5,180.7,170.6,175.2,171.4,174.5,4.6
73.75,178.5,172.1,175.2,170.0,174.0,3.7
75.0,178.7,170.4,171.0,173.6,173.4,3.8
76.25,176.3,169.6,170.8,169.4,171.5,3.3
77.5,175.2,169.1,170.2,164.5,169.7,4.4
78.75,172.1,171.4,169.2,160.3,168.2,5.5
80.0,169.8,175.2,171.0,157.0,168.2,7.8
81.25,167.6,171.0,169.9,159.3,167.0,5.3
82.5,170.7,170.5,166.7,156.1,166.0,6.9
83.75,167.2,173.5,168.1,156.9,166.5,6.9
85.0,164.0,172.5,166.5,154.4,164.4,7.6
86.25,161.7,173.0,165.2,154.7,163.6,7.6
87.5,163.0,172.6,162.4,152.9,162.7,8.0
88.75,160.3,172.1,160.9,152.9,161.6,7.9
90.0,161.2,168.3,164.8,150.6,161.2,7.6
91.25,156.7,171.4,161.6,153.7,160.9,7.8
92.5,156.2,167.2,160.9,151.5,158.9,6.7
93.75,156.1,165.6,159.3,151.6,158.2,5.9
95.0,153.1,165.0,158.3,151.0,156.8,6.2
96.25,155.6,164.9,159.9,149.9,157.6,6.4
97.5,153.1,164.6,158.6,148.5,156.2,6.9
98.75,149.6,165.4,159.3,148.6,155.7,8.0
100.0,148.6,163.4,158.6,148.6,154.8,7.4
101.25,146.9,161.8,155.8,148.3,153.2,6.9
102.5,148.1,162.7,152.7,148.8,153.1,6.8
103.75,143.7,160.5,151.3,149.8,151.3,6.9
105.0,142.8,158.7,153.7,149.7,151.2,6.7
106.25,142.6,156.3,154.7,150.5,151.0,6.1
107.5,141.7,155.9,147.8,147.9,148.3,5.8
108.75,140.8,154.7,148.4,150.3,148.5,5.8
110.0,140.7,152.6,149.3,150.5,148.3,5.2
111.25,140.0,151.3,145.3,148.8,146.3,4.9
112.5,138.7,154.1,146.8,147.5,146.8,6.3
113.75,137.8,151.3,146.3,145.5,145.2,5.6
115.0,137.9,153.1,143.7,143.3,144.5,6.3
116.25,138.0,149.6,144.5,143.0,143.8,4.8
117.5,137.2,149.5,145.1,142.1,143.5,5.2
118.75,136.9,145.5,141.0,137.9,140.3,3.9
120.0,134.2,142.9,141.6,138.5,139.3,3.9
121.25,135.3,145.1,137.7,137.9,139.0,4.2
122.5,133.7,141.7,137.7,137.5,137.6,3.3
123.75,132.9,139.3,136.8,136.9,136.5,2.6
125.0,135.0,142.9,136.9,135.9,137.7,3.5
126.25,131.1,138.7,136.3,133.7,134.9,3.3
127.5,130.0,140.4,135.7,131.6,134.4,4.7
128.75,129.0,137.0,135.5,130.9,133.1,3.8
130.0,126.4,133.2,134.6,130.6,131.2,3.6
131.25,127.5,136.5,131.8,129.7,131.4,3.8
132.5,124.2,133.4,131.5,128.6,129.4,4.0
133.75,124.0,133.3,130.4,127.9,128.9,4.0
135.0,123.2,130.1,131.4,125.3,127.5,3.9
136.25,122.7,128.4,131.6,122.8,126.4,4.4
137.5,121.8,126.8,128.9,123.9,125.4,3.1
138.75,120.2,126.6,129.0,120.3,124.0,4.5
140.0,119.6,127.0,127.9,122.0,124.1,4.0
141.25,119.3,123.5,127.4,120.5,122.7,3.6
142.5,118.6,124.1,128.0,119.8,122.6,4.3
143.75,115.2,122.0,127.7,118.5,120.8,5.3
145.0,113.3,121.2,124.6,117.5,119.2,4.9
146.25,114.1,121.8,125.7,114.9,119.1,5.6
147.5,111.8,120.9,123.0,115.0,117.7,5.2
148.75,111.2,118.5,122.3,113.5,116.4,5.0
150.0,109.7,117.3,122.1,111.3,115.1,5.7
151.25,107.9,119.2,121.8,111.9,115.2,6.4
152.5,108.0,115.7,120.5,110.0,113.5,5.7
153.75,105.7,116.1,118.2,108.8,112.2,5.9
155.0,107.3,113.0,120.1,109.8,112.5,5.5
156.25,104.2,113.2,115.0,107.2,109.9,5.1
157.5,104.8,111.6,117.7,107.4,110.4,5.6
158.75,103.3,112.2,117.3,106.7,109.8,6.2
160.0,104.6,111.8,114.6,104.6,108.9,5.1
161.25,104.2,109.0,114.1,104.6,108.0,4.6
162.5,102.5,108.6,113.9,105.4,107.6,4.9
163.75,101.5,107.9,113.2,103.5,106.5,5.2
165.0,101.9,106.8,113.3,104.3,106.6,4.9
166.25,100.9,104.6,114.0,102.5,105.5,5.9
167.5,101.8,103.7,110.1,102.3,104.5,3.9
168.75,99.6,103.3,110.9,102.8,104.2,4.8
170.0,99.3,104.0,110.6,101.0,103.7,5.0
171.25,97.7,102.0,110.0,100.0,102.4,5.3
172.5,99.0,102.8,108.6,100.5,102.7,4.2
173.75,98.2,100.8,109.8,100.0,102.2,5.2
175.0,98.0,101.0,109.3,99.0,101.8,5.1
176.25,97.4,99.5,110.1,99.1,101.5,5.8
177.5,96.9,98.4,107.7,99.5,100.6,4.8
178.75,95.9,98.2,107.8,97.8,99.9,5.3
180.0,97.3,99.3,106.6,97.6,100.2,4.3
181.25,96.6,98.3,105.5,96.9,99.3,4.2
182.5,96.1,96.3,104.2,98.2,98.7,3.8
183.75,97.4,96.7,104.6,97.1,99.0,3.8
185.0,95.6,94.5,102.3,95.2,96.9,3.6
186.25,95.6,95.9,101.8,95.5,97.2,3.1
187.5,96.1,93.4,102.9,95.0,96.8,4.2
188.75,94.3,93.0,102.7,96.4,96.6,4.3
190.0,95.6,93.4,100.8,94.1,96.0,3.3
191.25,94.1,91.7,101.6,95.1,95.6,4.2
192.5,93.9,93.4,101.7,94.8,96.0,3.9
193.75,92.3,92.0,101.9,93.2,94.9,4.7
195.0,91.7,92.4,100.6,93.3,94.5,4.1
196.25,92.0,90.4,99.9,93.3,93.9,4.2
197.5,91.6,90.5,100.2,92.8,93.8,4.4
198.75,92.8,91.1,99.0,94.7,94.4,3.4
200.0,92.2,90.7,98.7,93.5,93.8,3.5
201.25,93.5,89.7,98.8,93.6,93.9,3.7
202.5,91.3,89.8,98.1,92.4,92.9,3.6
203.75,92.6,88.2,96.7,90.1,91.9,3.7
205.0,90.8,89.0,96.8,89.5,91.5,3.6
206.25,91.1,87.9,96.5,89.4,91.2,3.8
207.5,90.8,88.4,96.3,88.7,91.1,3.7
208.75,91.3,87.2,98.2,88.3,91.3,5.0
210.0,90.6,88.6,96.9,86.9,90.8,4.4
211.25,89.2,86.5,97.4,86.8,90.0,5.1
212.5,90.2,86.2,95.4,86.3,89.5,4.4
213.75,90.1,86.9,95.3,86.9,89.8,4.0
215.0,91.6,85.6,95.6,85.6,89.6,4.9
216.25,92.0,86.0,94.5,85.1,89.4,4.6
217.5,89.4,85.0,93.7,84.8,88.2,4.2
218.75,87.5,84.4,93.5,86.1,87.9,4.0
220.0,88.7,85.2,92.0,84.8,87.7,3.4
221.25,87.0,85.1,93.2,85.9,87.8,3.7
222.5,86.7,83.0,90.9,84.9,86.4,3.4
223.75,85.1,83.6,92.7,84.6,86.5,4.2
225.0,86.1,82.6,91.0,83.7,85.9,3.7
226.25,85.6,81.9,88.6,84.2,85.1,2.8
227.5,85.1,83.3,88.1,82.9,84.8,2.4
228.75,86.6,82.2,87.8,82.5,84.8,2.9
230.0,85.4,83.6,88.3,82.0,84.8,2.7
231.25,83.9,81.6,86.7,81.9,83.5,2.4
232.5,83.8,83.0,85.4,82.3,83.6,1.3
233.75,82.5,81.2,86.6,82.3,83.2,2.4
235.0,83.2,81.7,86.3,81.1,83.1,2.3
236.25,86.2,80.8,86.7,80.9,83.7,3.3
237.5,83.4,80.4,84.8,79.0,81.9,2.6
238.75,85.8,80.6,83.9,80.7,82.8,2.5
240.0,83.6,78.9,85.6,80.1,82.0,3.1
241.25,82.7,78.8,83.8,78.8,81.0,2.6
242.5,83.2,79.1,83.8,78.1,81.1,2.9
243.75,82.9,78.8,83.7,79.2,81.1,2.5
245.0,83.3,79.1,82.7,79.6,81.2,2.1
246.25,83.3,77.2,82.4,78.7,80.4,2.9
247.5,84.3,77.5,81.7,79.1,80.7,3.0
248.75,84.6,77.4,82.3,77.8,80.5,3.5
250.0,82.8,78.0,83.1,78.6,80.6,2.7
251.25,83.7,78.4,82.5,78.3,80.7,2.8
252.5,83.0,79.1,82.1,78.1,80.6,2.3
253.75,83.3,77.6,84.1,78.0,80.8,3.4
255.0,82.0,77.0,81.7,78.2,79.7,2.5
256.25,82.1,77.4,82.4,77.5,79.9,2.8
257.5,81.3,78.2,82.0,77.6,79.8,2.2
258.75,80.3,77.2,81.9,77.5,79.2,2.3
260.0,80.3,78.3,82.9,77.1,79.6,2.5
261.25,79.6,79.1,82.1,77.2,79.5,2.0
262.5,78.9,78.4,81.3,76.5,78.8,2.0
263.75,78.7,78.1,80.9,76.0,78.4,2.0
265.0,81.1,78.0,80.7,75.6,78.8,2.6
266.25,79.1,79.0,81.5,74.7,78.6,2.8
267.5,79.7,77.2,80.5,75.4,78.2,2.4
268.75,79.2,76.7,78.9,75.4,77.5,1.8
270.0,79.5,77.5,79.8,75.3,78.1,2.1
271.25,78.8,76.4,80.1,74.6,77.5,2.4
272.5,78.2,75.8,78.2,73.9,76.5,2.1
273.75,79.4,75.8,78.4,73.8,76.8,2.5
275.0,77.8,74.8,77.9,73.7,76.1,2.1
276.25,76.8,75.4,77.4,74.1,75.9,1.5
277.5,76.8,75.6,77.5,74.4,76.1,1.4
278.75,75.9,75.1,77.4,74.2,75.6,1.4
280.0,76.2,75.5,76.4,73.5,75.4,1.3
281.25,75.9,73.9,76.6,72.4,74.7,1.9
282.5,75.3,74.2,77.0,72.2,74.7,2.0
283.75,74.8,73.9,78.5,72.3,74.9,2.6
285.0,75.3,74.2,77.0,72.7,74.8,1.8
286.25,75.3,72.0,77.7,71.1,74.0,3.0
287.5,76.0,73.8,77.5,70.4,74.4,3.1
288.75,75.1,72.3,77.3,70.5,73.8,3.0
290.0,74.0,73.1,77.2,70.2,73.6,2.9
291.25,73.0,73.1,76.4,69.6,73.1,2.8
292.5,75.0,73.1,76.7,69.1,73.5,3.3
293.75,75.6,73.1,77.7,69.9,74.1,3.4
295.0,77.2,72.9,76.4,70.3,74.2,3.2
296.25,75.3,72.0,76.0,71.9,73.8,2.1
297.5,76.4,73.4,75.4,70.3,73.9,2.7
298.75,76.6,71.7,74.8,70.4,73.4,2.8
300.0,75.7,72.9,75.5,71.3,73.8,2.1
301.25,75.9,70.9,74.7,71.3,73.2,2.5
302.5,76.0,71.9,74.4,70.3,73.1,2.5
303.75,76.1,72.2,74.6,70.5,73.3,2.5
305.0,75.4,71.3,76.1,71.1,73.4,2.7
306.25,76.1,71.7,74.2,70.0,73.0,2.7
307.5,76.1,72.0,75.8,68.9,73.2,3.4
308.75,75.0,72.6,74.5,70.5,73.1,2.1
310.0,75.5,72.5,74.4,71.1,73.4,2.0
311.25,75.6,71.9,73.3,69.5,72.6,2.5
312.5,75.4,71.9,74.1,69.6,72.7,2.5
313.75,74.9,72.2,73.6,69.6,72.6,2.3
315.0,75.2,72.7,74.3,69.4,72.9,2.5
316.25,74.8,72.8,73.7,69.4,72.7,2.3
317.5,73.6,71.9,74.0,69.2,72.2,2.2
318.75,73.8,71.8,73.5,68.8,72.0,2.3
320.0,73.0,71.6,72.8,68.8,71.6,2.0
321.25,71.7,71.2,74.1,68.7,71.4,2.2
322.5,72.1,72.0,73.0,67.2,71.1,2.6
323.75,71.8,70.7,74.3,66.5,70.8,3.2
325.0,71.9,69.5,73.4,65.9,70.2,3.3
326.25,70.9,70.9,74.0,66.8,70.6,3.0
327.5,70.4,71.4,73.3,65.5,70.1,3.3
328.75,69.8,70.4,72.9,66.5,69.9,2.6
330.0,69.8,70.5,71.8,65.2,69.3,2.9
331.25,70.3,70.4,72.2,65.6,69.6,2.8
332.5,70.6,69.9,71.2,65.9,69.4,2.4
333.75,70.4,71.3,71.6,65.0,69.6,3.1
335.0,70.9,69.9,71.3,64.8,69.2,3.0
336.25,70.4,69.3,71.2,63.9,68.7,3.3
337.5,69.3,69.3,71.9,64.5,68.8,3.1
338.75,68.9,69.0,71.2,65.3,68.6,2.4
340.0,68.5,69.9,71.4,65.7,68.9,2.4
341.25,68.2,68.7,71.0,64.6,68.1,2.7
342.5,68.2,68.6,71.2,64.9,68.2,2.6
343.75,66.7,68.1,71.2,64.3,67.6,2.9
345.0,66.9,68.2,69.7,64.1,67.2,2.4
346.25,67.9,68.3,70.1,63.8,67.5,2.7
347.5,67.9,68.2,69.8,63.1,67.2,2.9
348.75,66.9,68.3,70.6,64.3,67.5,2.6
350.0,67.7,68.0,70.3,64.2,67.6,2.5
351.25,67.5,68.9,71.3,63.8,67.9,3.2
352.5,67.3,68.4,69.5,64.2,67.3,2.3
353.75,66.8,68.7,69.7,64.3,67.4,2.4
355.0,68.0,69.0,68.2,64.3,67.4,2.1
356.25,67.8,67.6,67.9,64.5,67.0,1.6
357.5,67.2,68.6,68.2,65.0,67.3,1.6
358.75,66.6,68.0,68.9,64.4,67.0,1.9
360.0,68.2,69.0,68.1,65.4,67.7,1.6
361.25,67.8,68.2,68.1,64.5,67.1,1.8
362.5,67.7,68.4,67.3,65.1,67.1,1.4
363.75,66.3,68.0,67.9,64.2,66.6,1.8
365.0,66.7,68.7,67.4,64.3,66.8,1.9
366.25,64.8,68.1,67.2,64.0,66.0,1.9
367.5,65.4,67.6,66.3,63.7,65.8,1.7
368.75,65.1,68.2,67.1,63.3,65.9,2.1
370.0,64.8,66.6,68.3,63.5,65.8,2.1
371.25,64.4,66.9,66.4,62.5,65.0,2.0
372.5,64.6,68.2,65.3,62.5,65.1,2.3
373.75,64.9,67.9,66.1,62.5,65.4,2.3
375.0,65.2,67.1,65.0,62.9,65.1,1.7
376.25,66.6,67.8,64.8,62.3,65.4,2.4
377.5,65.6,68.7,63.7,63.7,65.4,2.3
378.75,65.7,66.7,64.4,63.4,65.0,1.5
380.0,66.5,66.6,64.2,62.8,65.0,1.9
381.25,64.9,66.1,64.1,61.9,64.2,1.8
382.5,64.8,66.2,64.0,63.4,64.6,1.2
383.75,64.6,66.4,63.5,62.8,64.3,1.5
385.0,64.8,66.4,62.5,63.1,64.2,1.8
386.25,64.2,66.3,62.8,63.5,64.2,1.5
387.5,64.3,66.4,62.4,62.9,64.0,1.8
388.75,63.9,66.3,61.8,63.9,64.0,1.9
390.0,65.0,65.9,61.9,64.2,64.3,1.7
391.25,63.8,65.4,62.6,63.4,63.8,1.2
392.5,64.3,64.7,62.2,62.9,63.5,1.2
393.75,65.1,64.9,61.1,63.9,63.7,1.8
395.0,65.9,65.4,61.0,63.8,64.0,2.2
396.25,65.1,64.9,60.5,64.1,63.7,2.2
397.5,63.5,64.0,60.2,64.7,63.1,2.0
398.75,62.9,63.1,59.7,63.9,62.4,1.9
400.0,63.6,63.5,59.5,64.5,62.8,2.2
401.25,61.7,62.5,59.0,64.6,62.0,2.3
402.5,61.7,63.3,58.2,63.4,61.7,2.4
403.75,61.8,63.1,56.6,63.0,61.1,3.1
405.0,61.6,63.3,57.5,62.9,61.3,2.6
406.25,60.7,62.7,56.6,63.2,60.8,3.0
407.5,60.9,63.1,55.8,62.3,60.5,3.3
408.75,60.4,63.8,55.4,61.8,60.4,3.6
410.0,60.4,62.2,55.0,61.5,59.8,3.3
411.25,60.8,62.6,54.7,60.5,59.7,3.4
412.5,61.5,62.5,55.0,60.0,59.7,3.3
413.75,61.7,61.6,54.2,59.5,59.3,3.5
415.0,60.9,61.0,54.4,59.1,58.8,3.1
416.25,61.2,61.0,54.1,59.0,58.8,3.3
417.5,61.2,60.6,52.7,58.3,58.2,3.9
418.75,60.8,61.6,49.2,57.9,57.4,5.7
420.0,61.2,60.0,47.3,57.7,56.6,6.4
421.25,59.7,59.4,44.4,57.8,55.3,7.3
422.5,60.7,59.2,41.7,58.0,54.9,8.9
423.75,60.2,59.4,39.4,58.0,54.2,9.9
425.0,59.7,59.2,37.4,58.4,53.7,10.9
426.25,59.1,60.2,35.9,58.6,53.4,11.7
427.5,58.3,59.6,34.9,59.6,53.1,12.1
428.75,57.3,59.8,34.0,58.7,52.5,12.4
430.0,56.4,58.2,32.9,60.8,52.1,12.9
431.25,54.7,57.3,32.4,61.0,51.3,12.9
432.5,54.1,57.8,31.5,61.8,51.3,13.6
433.75,52.5,56.1,31.2,61.1,50.2,13.2
435.0,52.4,54.9,31.0,60.7,49.7,13.0
436.25,51.5,55.1,30.8,60.0,49.3,12.8
437.5,52.5,56.1,31.2,58.7,49.6,12.5
438.75,51.7,56.4,31.1,57.6,49.2,12.3
440.0,51.5,56.9,30.9,57.1,49.1,12.4
441.25,50.9,56.0,30.7,57.0,48.7,12.3
442.5,50.1,55.3,30.8,56.1,48.1,11.8
443.75,49.8,55.6,29.6,54.7,47.4,12.1
445.0,49.0,54.0,28.6,54.5,46.5,12.2
446.25,49.6,53.5,28.4,54.5,46.5,12.3
447.5,50.4,52.3,28.1,53.2,46.0,12.0
448.75,50.1,51.2,27.9,54.2,45.9,12.1
450.0,51.4,50.6,27.4,52.9,45.6,12.1
451.25,50.5,50.5,26.8,53.7,45.4,12.5
452.5,51.0,49.2,26.8,52.9,45.0,12.2
453.75,51.5,48.5,26.7,53.6,45.1,12.4
455.0,50.9,49.0,26.6,52.0,44.6,12.1
456.25,50.3,49.2,26.6,52.4,44.6,12.1
457.5,50.1,47.5,26.8,51.0,43.9,11.5
458.75,50.7,47.8,26.8,51.0,44.0,11.6
460.0,50.1,48.7,26.4,49.8,43.7,11.6
461.25,50.0,48.1,25.9,49.1,43.3,11.6
462.5,48.9,47.2,25.8,48.1,42.5,11.2
463.75,49.6,47.2,25.5,47.7,42.5,11.4
465.0,49.1,47.0,26.0,47.1,42.3,10.9
466.25,48.2,47.0,25.9,47.7,42.2,10.9
467.5,47.9,46.2,25.6,47.3,41.7,10.8
468.75,47.7,46.3,26.2,47.6,42.0,10.5
470.0,47.2,45.9,25.9,48.2,41.8,10.6
471.25,47.4,45.8,25.9,48.3,41.8,10.7
472.5,46.7,45.1,25.7,48.2,41.4,10.5
473.75,46.2,44.4,26.1,46.4,40.8,9.8
475.0,46.5,44.3,26.0,45.0,40.5,9.7
476.25,45.9,44.1,26.1,43.4,39.9,9.3
477.5,45.6,43.6,25.9,42.9,39.5,9.1
478.75,45.9,43.0,25.5,42.5,39.2,9.2
480.0,45.5,42.8,25.1,42.1,38.9,9.3
481.25,45.1,42.9,25.1,42.7,39.0,9.3
482.5,45.3,42.4,25.1,41.5,38.6,9.1
483.75,45.4,42.5,25.1,40.9,38.5,9.1
485.0,45.7,42.6,24.8,40.0,38.3,9.3
486.25,45.3,42.4,25.1,40.0,38.2,9.0
487.5,44.3,41.7,25.0,40.3,37.8,8.7
488.75,44.0,41.4,24.7,40.2,37.6,8.8
490.0,43.2,41.2,24.7,39.8,37.2,8.5
491.25,42.4,41.0,24.6,40.9,37.2,8.4
492.5,42.1,41.1,24.1,40.1,36.8,8.5
493.75,42.0,41.3,23.7,39.5,36.6,8.7
495.0,42.3,41.3,23.9,39.4,36.7,8.6
496.25,42.2,41.4,24.3,39.7,36.9,8.4
497.5,42.1,40.8,24.4,38.9,36.6,8.2
498.75,42.4,40.7,25.2,38.5,36.7,7.8
500.0,42.9,40.4,25.2,38.3,36.7,7.9
501.25,43.5,40.3,25.2,38.9,37.0,8.1
502.5,43.5,40.3,25.3,38.5,36.9,8.0
503.75,43.8,39.9,25.2,38.2,36.8,8.1
505.0,44.0,40.0,25.4,38.8,37.1,8.1
506.25,43.0,39.6,25.6,38.5,36.7,7.6
507.5,43.3,40.8,25.7,38.2,37.0,7.8
508.75,44.7,40.1,25.7,37.2,36.9,8.1
510.0,45.0,40.7,25.7,37.3,37.2,8.3
511.25,45.6,40.7,26.4,37.6,37.6,8.1
512.5,45.8,41.2,26.8,37.6,37.8,8.1
513.75,47.2,41.2,27.0,37.2,38.2,8.5
515.0,47.4,39.5,26.5,38.3,37.9,8.6
516.25,48.5,39.7,26.8,38.0,38.2,8.9
517.5,49.4,39.7,26.2,38.2,38.4,9.5
518.75,48.9,38.8,26.1,38.0,38.0,9.3
520.0,48.9,39.0,26.0,39.0,38.2,9.4
521.25,49.0,38.9,26.0,39.4,38.3,9.4
522.5,48.9,40.0,26.4,38.8,38.5,9.3
523.75,48.3,40.8,26.7,38.3,38.5,8.9
525.0,48.7,41.0,26.2,37.2,38.3,9.4
526.25,48.9,41.7,26.1,37.5,38.6,9.5
527.5,49.3,41.1,26.5,37.1,38.5,9.5
528.75,48.9,41.3,26.5,37.1,38.5,9.3
530.0,48.7,39.8,26.6,36.8,38.0,9.1
531.25,49.2,40.0,26.9,36.7,38.2,9.2
532.5,48.9,39.2,27.0,36.6,37.9,9.0
533.75,48.7,39.6,27.3,36.6,38.1,8.8
535.0,48.2,40.2,27.1,36.6,38.0,8.7
536.25,47.4,41.8,27.5,36.4,38.3,8.5
537.5,45.3,41.8,26.8,36.4,37.6,8.1
538.75,45.3,41.8,27.0,36.6,37.7,8.0
540.0,43.5,41.9,26.8,36.6,37.2,7.6
541.25,42.6,41.8,26.6,36.4,36.9,7.4
542.5,42.2,42.1,26.5,36.2,36.8,7.4
543.75,41.4,42.0,26.4,37.1,36.7,7.2
545.0,41.4,41.3,26.3,36.0,36.2,7.1
546.25,41.0,41.5,26.9,36.2,36.4,6.8
547.5,39.7,40.7,26.2,36.7,35.8,6.6
548.75,38.5,41.2,26.1,37.4,35.8,6.6
550.0,38.7,40.3,26.5,37.4,35.7,6.3
551.25,38.6,40.0,26.2,37.3,35.5,6.3
552.5,37.7,39.4,26.4,37.3,35.2,5.9
553.75,37.5,40.1,26.4,37.3,35.3,6.1
555.0,37.1,39.7,26.1,37.8,35.2,6.2
556.25,37.7,38.6,26.6,37.7,35.2,5.7
557.5,37.4,39.0,26.6,37.4,35.1,5.7
558.75,38.2,39.1,26.9,37.4,35.4,5.7
560.0,38.8,39.1,27.0,37.8,35.7,5.8
561.25,39.2,39.8,27.0,37.3,35.8,6.0
562.5,39.4,39.5,26.7,37.4,35.7,6.1
563.75,40.3,39.2,26.3,38.1,36.0,6.5
565.0,40.9,39.1,26.0,38.4,36.1,6.8
566.25,40.5,38.8,25.9,37.9,35.8,6.7
567.5,40.8,38.4,26.0,38.0,35.8,6.7
568.75,40.1,37.9,25.9,38.4,35.6,6.5
570.0,40.5,37.5,26.0,38.4,35.6,6.5
571.25,39.8,38.0,25.8,38.4,35.5,6.5
572.5,39.6,37.0,25.9,38.6,35.3,6.3
573.75,39.6,37.4,25.6,38.7,35.3,6.5
575.0,39.6,36.9,25.7,38.5,35.2,6.4
576.25,39.1,36.1,25.8,39.3,35.1,6.4
577.5,39.8,36.1,25.8,39.3,35.3,6.5
578.75,39.2,35.2,25.7,39.2,34.9,6.4
580.0,39.4,34.9,25.9,38.9,34.8,6.2
581.25,39.3,34.0,25.8,38.7,34.5,6.2
582.5,38.9,33.4,26.0,39.1,34.4,6.1
583.75,38.8,33.1,25.7,38.6,34.1,6.1
585.0,39.3,32.4,26.2,38.2,34.0,6.0
586.25,39.9,31.8,25.7,38.5,34.0,6.5
587.5,39.8,32.0,25.9,38.7,34.1,6.5
588.75,39.9,31.2,25.7,38.3,33.8,6.6
590.0,40.1,31.9,26.1,38.9,34.2,6.5
591.25,40.2,32.3,26.5,38.4,34.3,6.2
592.5,39.7,32.5,27.1,38.9,34.5,5.9
593.75,40.0,32.9,27.3,38.5,34.7,5.8
595.0,39.5,33.2,26.8,38.1,34.4,5.7
596.25,39.3,33.2,26.7,38.1,34.3,5.7
597.5,38.2,33.2,27.2,37.8,34.1,5.1
598.75,37.5,33.0,26.3,37.1,33.5,5.2
600.0,37.5,32.9,26.0,37.3,33.4,5.4
601.25,37.2,33.5,25.9,37.6,33.6,5.4
602.5,37.0,33.1,26.4,37.3,33.4,5.1
603.75,36.8,32.7,26.4,37.6,33.4,5.1
605.0,37.0,33.0,26.1,38.0,33.5,5.4
606.25,37.8,33.8,26.2,38.2,34.0,5.6
607.5,38.4,34.0,26.2,37.4,34.0,5.6
608.75,38.6,33.5,25.9,38.2,34.1,5.9
610.0,38.6,33.3,26.2,37.5,33.9,5.6
611.25,39.0,33.4,26.1,37.6,34.0,5.8
612.5,38.9,33.5,26.3,37.2,34.0,5.6
613.75,39.3,33.8,26.5,36.6,34.0,5.5
615.0,39.1,34.2,26.7,37.2,34.3,5.5
616.25,38.9,34.3,26.6,37.3,34.3,5.5
617.5,39.1,33.6,27.2,37.6,34.4,5.3
618.75,39.7,33.3,26.6,37.3,34.2,5.7
620.0,39.6,33.1,26.9,37.6,34.3,5.6
621.25,39.8,32.5,26.7,38.1,34.3,5.9
622.5,40.0,33.3,26.3,38.2,34.4,6.1
623.75,40.2,33.0,25.9,38.5,34.4,6.5
625.0,40.0,33.4,25.3,38.5,34.3,6.6
626.25,40.4,33.6,25.7,38.8,34.6,6.6
627.5,40.7,33.7,25.4,38.8,34.7,6.8
628.75,40.1,33.7,25.2,38.4,34.3,6.7
630.0,40.1,33.9,25.2,38.2,34.4,6.6
631.25,39.7,34.3,25.3,38.5,34.4,6.5
632.5,40.3,33.8,25.0,38.1,34.3,6.7
633.75,40.1,33.3,24.9,39.1,34.4,7.0
635.0,40.1,33.1,25.2,38.6,34.2,6.7
636.25,39.8,32.7,25.8,38.0,34.1,6.3
637.5,39.8,32.4,26.2,38.8,34.3,6.3
638.75,39.8,32.2,26.7,38.7,34.3,6.1
640.0,39.7,32.1,26.7,37.9,34.1,5.9
641.25,39.9,32.0,26.6,37.6,34.1,6.0
642.5,40.7,32.9,26.5,37.9,34.5,6.2
643.75,41.5,32.7,27.0,37.5,34.7,6.3
645.0,41.5,32.7,26.9,37.0,34.5,6.2
646.25,41.4,32.7,26.9,37.7,34.7,6.3
647.5,41.3,33.1,27.3,38.0,34.9,6.1
648.75,41.2,33.1,27.0,37.9,34.8,6.2
650.0,41.4,32.8,26.7,38.5,34.8,6.5
651.25,41.2,32.3,26.5,38.1,34.5,6.5
652.5,41.2,32.5,26.5,38.1,34.6,6.5
653.75,41.4,31.9,26.3,38.0,34.4,6.7
655.0,42.1,32.1,26.1,38.4,34.7,7.0
656.25,41.4,31.8,26.0,38.3,34.4,6.8
657.5,41.3,32.4,26.4,37.5,34.4,6.5
658.75,40.9,31.9,26.0,37.8,34.1,6.6
660.0,41.3,32.8,26.6,37.6,34.6,6.4
661.25,41.0,33.9,26.7,37.9,34.9,6.2
662.5,40.7,33.8,26.6,38.3,34.9,6.2
663.75,40.2,34.0,26.5,38.8,34.8,6.2
665.0,40.5,34.5,26.0,38.8,35.0,6.5
666.25,39.8,33.9,26.2,38.3,34.6,6.1
667.5,40.2,33.8,25.9,38.9,34.7,6.5
668.75,40.2,33.2,26.0,38.6,34.5,6.4
670.0,39.7,33.0,26.1,38.1,34.2,6.1
671.25,39.6,33.6,26.1,38.9,34.5,6.2
672.5,40.2,33.2,25.4,39.0,34.4,6.8
673.75,41.1,33.0,26.0,39.2,34.8,6.8
675.0,41.2,33.1,25.9,38.8,34.8,6.8
676.25,41.4,33.5,25.6,38.7,34.8,7.0
677.5,40.6,33.4,25.6,38.6,34.6,6.7
678.75,40.5,33.3,25.7,38.6,34.5,6.7
680.0,40.7,34.0,25.3,39.5,34.9,7.0
681.25,40.4,34.4,25.8,38.3,34.7,6.5
682.5,39.9,34.0,25.9,38.6,34.6,6.3
683.75,40.4,33.7,26.6,38.2,34.7,6.1
685.0,39.9,33.0,26.9,38.0,34.5,5.8
686.25,39.8,32.6,27.6,38.0,34.5,5.5
687.5,40.1,32.9,27.4,37.8,34.6,5.6
688.75,39.8,32.3,27.0,38.5,34.4,5.9
690.0,39.5,32.3,27.1,38.1,34.2,5.7
691.25,39.5,32.3,26.9,38.2,34.2,5.8
692.5,39.4,32.4,26.8,38.2,34.2,5.8
693.75,40.2,32.1,26.3,38.2,34.2,6.3
695.0,39.7,32.3,26.6,37.9,34.1,5.9
696.25,38.9,32.2,26.3,37.7,33.8,5.8
697.5,38.7,32.4,26.8,38.1,34.0,5.6
698.75,39.0,32.1,26.3,37.8,33.8,5.8
700.0,38.6,32.7,26.4,37.6,33.8,5.6
701.25,38.4,33.1,26.4,37.7,33.9,5.5
702.5,38.5,33.1,26.2,38.6,34.1,5.9
703.75,38.6,32.9,26.5,37.8,34.0,5.6
705.0,38.3,33.7,26.7,38.3,34.2,5.5
706.25,38.6,34.0,27.4,39.1,34.8,5.4
707.5,38.7,34.9,27.6,38.8,35.0,5.2
708.75,38.7,34.5,27.9,39.4,35.1,5.3
710.0,39.4,34.8,27.9,39.8,35.5,5.5
711.25,39.5,34.9,27.8,40.2,35.6,5.7
712.5,38.9,34.3,27.7,40.4,35.3,5.7
713.75,39.1,35.1,27.9,40.3,35.6,5.6
715.0,39.0,34.8,27.5,40.7,35.5,5.9
716.25,38.7,35.2,27.1,41.4,35.6,6.2
717.5,38.6,34.0,26.8,40.6,35.0,6.1
718.75,38.7,33.9,26.6,39.9,34.8,6.0
720.0,38.9,33.5,26.1,40.0,34.6,6.3
721.25,39.2,33.1,25.7,39.8,34.5,6.6
722.5,40.0,33.6,25.5,39.9,34.8,6.9
723.75,40.9,33.2,25.5,40.6,35.1,7.3
725.0,42.4,33.9,25.6,40.1,35.5,7.5
726.25,43.3,34.0,26.2,39.3,35.7,7.4
727.5,44.0,34.1,26.6,38.7,35.8,7.4
728.75,43.4,34.4,27.3,39.3,36.1,7.0
730.0,44.1,34.9,27.6,39.4,36.5,7.0
731.25,44.5,34.6,28.0,38.7,36.5,6.9
732.5,44.4,34.2,27.9,38.8,36.3,7.0
733.75,45.1,33.8,28.2,38.5,36.4,7.2
735.0,44.9,33.8,28.4,38.9,36.5,7.1
736.25,45.5,33.5,29.1,38.9,36.7,7.1
737.5,46.0,33.5,28.9,38.6,36.7,7.3
738.75,46.3,34.1,29.1,38.7,37.1,7.3
740.0,46.7,34.6,29.4,39.1,37.5,7.3
741.25,46.1,34.8,29.1,39.0,37.2,7.2
742.5,46.1,33.9,29.2,39.2,37.1,7.2
743.75,46.6,34.7,29.0,39.5,37.5,7.5
745.0,46.0,34.5,28.3,38.8,36.9,7.4
746.25,46.0,34.6,28.3,39.5,37.1,7.5
747.5,45.6,34.8,28.3,38.7,36.8,7.2
748.75,46.2,35.1,28.4,38.5,37.1,7.4
750.0,46.0,34.9,27.9,38.9,36.9,7.6
751.25,45.9,34.8,27.5,38.4,36.6,7.7
752.5,47.1,34.6,27.1,39.8,37.2,8.4
753.75,46.8,34.7,26.9,39.2,36.9,8.3
755.0,47.9,34.7,27.2,38.9,37.2,8.6
756.25,48.6,34.7,27.4,39.3,37.5,8.9
757.5,49.5,35.2,27.5,39.1,37.8,9.1
758.75,50.2,34.8,27.6,38.5,37.8,9.4
760.0,49.9,34.9,27.9,39.3,38.0,9.2
761.25,50.4,35.0,27.9,38.6,38.0,9.4
762.5,50.9,35.0,28.5,39.4,38.5,9.5
763.75,51.3,35.0,28.5,38.8,38.4,9.6
765.0,52.5,35.4,28.5,39.0,38.8,10.1
766.25,52.9,35.2,29.3,39.5,39.2,10.0
767.5,52.4,35.1,29.5,39.9,39.2,9.7
768.75,52.7,34.6,29.5,40.3,39.3,10.0
770.0,52.3,35.1,30.1,39.6,39.3,9.5
771.25,52.5,35.3,30.1,39.5,39.3,9.5
772.5,52.2,35.1,30.2,40.1,39.4,9.4
773.75,52.8,35.5,30.4,40.1,39.7,9.6
775.0,52.4,34.9,30.0,39.9,39.3,9.6
776.25,52.3,35.1,29.8,39.4,39.2,9.6
777.5,52.0,34.1,29.2,40.4,38.9,9.9
778.75,51.6,34.6,28.8,39.7,38.7,9.7
780.0,51.4,34.3,28.3,39.7,38.4,9.8
781.25,50.0,34.7,28.5,39.4,38.2,9.1
782.5,49.6,35.5,28.4,40.0,38.4,8.9
783.75,49.8,36.2,27.6,39.9,38.4,9.2
785.0,49.7,36.0,27.4,40.7,38.4,9.3
786.25,49.2,36.9,27.1,40.2,38.3,9.2
787.5,50.0,36.5,26.9,39.8,38.3,9.5
788.75,50.1,37.4,27.5,40.5,38.9,9.3
790.0,50.3,37.6,26.9,41.2,39.0,9.7
791.25,50.7,39.1,26.7,40.2,39.1,9.8
792.5,50.9,38.7,26.9,40.2,39.2,9.8
793.75,50.9,40.0,27.6,40.1,39.6,9.5
795.0,51.0,40.1,27.9,41.3,40.1,9.5
796.25,50.3,39.7,28.7,40.6,39.8,8.8
797.5,49.7,39.7,28.3,41.2,39.7,8.8
798.75,49.3,38.3,28.6,41.5,39.4,8.5
800.0,50.2,38.3,27.9,41.0,39.3,9.1
801.25,49.2,38.5,28.4,41.4,39.4,8.6
802.5,49.3,37.5,28.0,41.4,39.1,8.8
803.75,48.3,37.4,28.6,40.8,38.8,8.1
805.0,47.9,36.9,29.0,40.7,38.6,7.9
806.25,48.9,37.1,28.8,40.5,38.8,8.3
807.5,48.1,37.0,29.0,39.7,38.4,7.9
808.75,48.4,37.3,29.1,39.3,38.5,7.9
810.0,47.9,37.1,28.9,38.7,38.2,7.8
811.25,48.2,36.7,28.6,39.2,38.2,8.0
812.5,49.4,38.0,28.9,39.2,38.9,8.4
813.75,49.3,37.0,29.8,39.9,39.0,8.1
815.0,50.3,36.7,29.9,39.7,39.1,8.5
816.25,50.3,37.3,29.7,40.5,39.5,8.5
817.5,50.6,36.6,30.0,40.8,39.5,8.6
818.75,50.2,36.1,29.8,39.7,38.9,8.5
820.0,49.2,36.6,29.3,40.6,38.9,8.3
821.25,49.1,36.7,29.0,39.9,38.7,8.3
822.5,48.5,37.6,28.4,39.5,38.5,8.2
823.75,47.9,37.4,28.0,40.2,38.4,8.2
825.0,48.2,38.1,28.0,41.2,38.9,8.4
826.25,48.5,38.4,27.7,41.3,39.0,8.6
827.5,48.8,38.2,27.6,42.1,39.2,8.9
828.75,49.8,38.3,27.2,42.0,39.3,9.4
830.0,52.0,38.3,26.7,41.4,39.6,10.4
831.25,53.2,38.1,26.5,41.7,39.9,11.0
832.5,53.7,38.1,26.4,42.4,40.1,11.3
833.75,54.4,37.5,26.7,41.9,40.1,11.4
835.0,55.9,37.3,27.0,43.4,40.9,12.0
836.25,56.8,37.3,27.3,42.5,41.0,12.3
837.5,56.8,36.6,27.2,43.6,41.0,12.5
838.75,55.3,36.7,27.2,42.7,40.5,11.8
840.0,56.8,36.7,27.2,43.3,41.0,12.4
841.25,55.6,36.2,27.7,42.9,40.6,11.8
842.5,55.8,36.5,28.9,44.0,41.3,11.5
843.75,54.7,36.9,29.1,43.8,41.1,10.8
845.0,53.8,36.7,29.0,43.7,40.8,10.5
846.25,53.6,37.1,29.5,43.8,41.0,10.3
847.5,52.4,37.0,29.7,44.0,40.8,9.7
848.75,52.2,36.9,29.4,42.9,40.3,9.6
850.0,52.1,36.9,30.0,42.7,40.4,9.4
851.25,52.3,36.3,30.2,41.9,40.2,9.4
852.5,51.3,36.6,30.8,42.4,40.3,8.8
853.75,51.9,36.3,31.7,42.3,40.5,8.7
855.0,52.7,36.3,31.5,42.5,40.7,9.1
856.25,53.3,36.1,31.8,43.1,41.1,9.4
857.5,53.8,36.4,32.2,42.5,41.2,9.4
858.75,55.2,37.0,32.8,43.1,42.0,9.7
860.0,55.4,36.8,33.2,42.2,41.9,9.7
861.25,55.7,37.3,33.3,43.0,42.3,9.8
862.5,56.6,36.4,33.5,43.4,42.5,10.3
863.75,56.8,36.7,33.4,43.2,42.5,10.4
865.0,56.8,36.9,33.5,44.1,42.8,10.3
866.25,57.4,37.3,32.9,44.0,42.9,10.7
867.5,57.5,37.0,32.8,43.4,42.7,10.8
868.75,56.4,37.7,32.0,43.7,42.5,10.5
870.0,57.2,37.7,32.6,43.4,42.7,10.6
871.25,57.1,37.4,32.1,43.8,42.6,10.8
872.5,57.1,38.0,31.8,43.2,42.5,10.8
873.75,57.3,38.3,32.3,43.3,42.8,10.7
875.0,58.5,38.5,33.1,43.7,43.5,10.9
876.25,58.0,38.4,32.9,43.1,43.1,10.8
877.5,58.4,38.5,32.2,43.5,43.2,11.2
878.75,58.3,39.0,32.4,43.3,43.2,11.0
880.0,58.3,38.6,32.1,43.4,43.1,11.1
881.25,59.2,39.3,31.8,43.5,43.5,11.6
882.5,59.8,38.5,32.6,43.5,43.6,11.7
883.75,60.7,38.7,32.8,42.9,43.8,12.0
885.0,60.4,39.4,33.2,43.4,44.1,11.6
886.25,60.5,38.6,33.1,43.8,44.0,11.8
887.5,60.9,39.2,33.4,44.0,44.4,11.8
888.75,61.0,38.1,33.7,43.3,44.0,12.0
890.0,61.6,37.7,33.8,42.8,44.0,12.3
891.25,62.1,37.3,33.7,43.2,44.1,12.6
892.5,61.9,37.3,34.0,43.6,44.2,12.4
893.75,61.9,37.2,33.7,43.3,44.0,12.5
895.0,62.1,37.2,34.0,43.2,44.1,12.6
896.25,63.2,36.9,33.8,43.8,44.4,13.2
897.5,63.7,37.3,33.6,43.5,44.5,13.4
898.75,65.2,37.9,33.7,43.9,45.2,14.0
900.0,64.7,37.5,34.1,44.7,45.2,13.7
901.25,64.3,38.2,33.6,44.5,45.2,13.5
902.5,62.9,38.3,32.6,44.9,44.7,13.1
903.75,63.8,38.1,32.4,44.4,44.7,13.6
905.0,63.5,38.5,33.2,44.3,44.9,13.2
906.25,63.7,38.4,34.8,44.5,45.3,12.9
907.5,63.7,38.2,35.2,44.1,45.3,12.8
908.75,63.0,38.1,36.5,44.6,45.5,12.2
910.0,62.7,38.1,36.7,44.5,45.5,12.0
911.25,62.8,38.3,37.0,44.7,45.7,11.9
912.5,62.6,38.8,37.6,44.5,45.9,11.6
913.75,62.9,39.7,38.0,44.9,46.4,11.4
915.0,63.5,39.4,39.0,44.3,46.6,11.6
916.25,63.4,39.8,38.7,44.0,46.5,11.5
917.5,65.0,40.6,38.8,44.4,47.2,12.1
918.75,66.4,40.4,39.3,44.0,47.5,12.7
920.0,67.8,40.3,39.2,45.0,48.1,13.4
921.25,67.9,40.6,39.1,45.7,48.3,13.3
922.5,68.2,40.5,39.0,46.9,48.7,13.5
923.75,67.9,40.6,39.3,46.3,48.5,13.3
925.0,67.4,40.6,39.8,46.6,48.6,12.9
926.25,68.0,40.9,39.9,46.0,48.7,13.1
927.5,66.3,40.4,40.4,46.1,48.3,12.3
928.75,67.9,40.8,39.9,45.6,48.5,13.2
930.0,65.7,39.7,39.8,46.5,47.9,12.3
931.25,64.8,39.8,39.8,45.9,47.6,11.8
932.5,66.3,39.8,39.5,47.4,48.3,12.6
933.75,64.2,40.0,40.2,47.0,47.8,11.4
935.0,63.1,40.3,41.3,47.7,48.1,10.5
936.25,63.4,39.6,41.0,48.3,48.1,10.9
937.5,63.3,40.2,41.4,49.1,48.5,10.6
938.75,63.1,40.6,41.2,48.1,48.3,10.5
940.0,62.6,41.4,41.0,48.0,48.2,10.1
941.25,63.1,42.1,41.1,47.6,48.5,10.2
942.5,63.1,42.0,40.5,47.8,48.3,10.3
943.75,62.2,42.5,40.2,47.7,48.2,9.9
945.0,61.2,42.2,40.5,48.0,48.0,9.4
946.25,61.8,42.2,41.8,48.0,48.4,9.4
947.5,61.6,41.4,42.0,48.2,48.3,9.4
948.75,61.2,41.3,41.5,48.2,48.0,9.3
950.0,60.0,40.7,42.0,47.4,47.5,8.8
951.25,59.7,40.1,42.5,47.7,47.5,8.7
952.5,58.6,40.6,42.3,48.1,47.4,8.1
953.75,58.6,40.4,42.2,47.9,47.3,8.2
955.0,59.1,40.9,42.6,48.6,47.8,8.2
956.25,58.9,41.0,42.6,48.4,47.7,8.1
957.5,59.7,41.0,42.2,48.5,47.9,8.5
958.75,58.9,40.6,42.1,48.2,47.5,8.3
960.0,59.9,40.7,42.2,49.0,48.0,8.7
961.25,60.0,40.6,41.9,49.0,47.9,8.9
962.5,60.1,40.2,42.2,48.6,47.8,8.9
963.75,59.9,40.9,42.3,48.8,48.0,8.6
965.0,60.4,40.5,42.5,48.8,48.1,9.0
966.25,60.1,41.0,42.4,49.6,48.3,8.7
967.5,60.2,40.7,42.6,50.0,48.4,8.8
968.75,60.7,40.0,42.8,49.9,48.3,9.2
970.0,60.5,40.9,43.6,49.7,48.7,8.7
971.25,60.5,40.2,43.9,50.1,48.7,8.9
972.5,61.2,41.1,43.8,50.7,49.2,9.0
973.75,61.5,41.0,43.7,50.1,49.1,9.1
975.0,60.4,41.1,44.4,50.2,49.0,8.5
976.25,60.5,41.2,44.4,51.1,49.3,8.5
977.5,60.8,41.2,44.4,50.9,49.3,8.7
978.75,61.4,41.2,45.0,51.3,49.7,8.8
980.0,61.6,41.8,44.8,51.5,49.9,8.8
981.25,62.3,41.6,47.0,51.9,50.7,8.8
982.5,62.3,42.1,49.1,52.0,51.4,8.4
983.75,61.5,42.0,50.3,51.0,51.2,8.0
985.0,61.1,41.4,51.9,51.5,51.5,8.1
986.25,62.5,41.2,52.8,52.0,52.1,8.7
987.5,61.4,41.6,53.0,52.2,52.1,8.1
988.75,61.6,42.5,52.5,52.7,52.3,7.8
990.0,61.1,42.6,53.2,52.9,52.4,7.6
991.25,62.7,42.6,53.2,52.9,52.9,8.2
992.5,62.9,42.1,53.5,52.6,52.8,8.5
993.75,62.3,42.4,54.2,52.3,52.8,8.2
995.0,62.6,41.8,54.2,52.3,52.7,8.6
996.25,63.0,41.9,54.6,52.0,52.9,8.7
997.5,63.0,42.4,55.2,51.8,53.1,8.6
998.75,63.3,43.6,55.3,51.3,53.4,8.2
1000.0,61.9,44.9,55.5,52.0,53.6,7.1
1001.25,62.1,46.1,55.7,53.1,54.3,6.6
1002.5,63.1,48.2,57.3,52.5,55.3,6.4
1003.75,62.3,49.0,57.3,53.6,55.6,5.6
1005.0,63.3,49.8,57.6,53.6,56.1,5.7
1006.25,63.2,50.7,56.6,53.9,56.1,5.3
1007.5,64.4,50.5,58.2,53.8,56.7,6.0
1008.75,63.5,51.2,58.2,54.7,56.9,5.3
1010.0,64.2,51.7,58.5,54.6,57.2,5.4
1011.25,64.4,51.9,59.6,53.5,57.3,5.8
1012.5,63.9,52.2,58.1,52.5,56.7,5.5
1013.75,64.0,51.6,59.5,53.8,57.2,5.6
1015.0,63.7,52.5,58.6,53.0,57.0,5.3
1016.25,63.7,52.4,59.2,54.9,57.5,5.0
1017.5,63.6,53.0,60.5,56.5,58.4,4.6
1018.75,64.9,53.1,62.3,57.8,59.5,5.2
1020.0,64.7,53.2,62.4,59.6,60.0,5.0
1021.25,65.2,52.6,64.0,61.2,60.8,5.7
1022.5,65.6,53.5,65.0,63.8,62.0,5.7
1023.75,65.8,53.7,64.7,64.9,62.3,5.7
1025.0,67.0,56.1,65.9,66.4,63.9,5.2
1026.25,67.1,57.4,66.8,67.5,64.7,4.9
1027.5,66.4,58.9,67.1,69.6,65.5,4.6
1028.75,66.2,61.0,67.6,71.3,66.5,4.3
1030.0,67.6,63.2,67.0,72.0,67.4,3.6
1031.25,67.0,63.6,67.7,72.7,67.7,3.8
1032.5,67.7,65.5,68.6,73.1,68.7,3.2
1033.75,67.7,66.5,68.8,73.5,69.1,3.1
1035.0,67.8,67.0,69.0,74.7,69.6,3.4
1036.25,68.2,69.7,68.5,77.7,71.0,4.5
1037.5,67.3,71.5,68.4,74.6,70.5,3.3
1038.75,68.3,72.9,68.7,75.8,71.4,3.6
1040.0,67.8,73.8,69.1,75.8,71.6,3.8
1041.25,68.7,74.4,67.8,77.2,72.0,4.5
1042.5,68.4,74.4,68.5,76.7,72.0,4.2
1043.75,67.9,74.5,69.6,77.7,72.4,4.5
1045.0,66.8,74.5,69.9,77.6,72.2,4.8
1046.25,68.6,74.5,68.8,79.0,72.7,5.0
1047.5,68.4,75.7,71.2,79.1,73.6,4.8
1048.75,69.8,75.5,70.0,78.5,73.5,4.3
1050.0,68.1,76.3,70.3,78.6,73.3,5.0
1051.25,69.2,78.2,71.5,80.0,74.7,5.2
1052.5,68.9,78.0,71.3,78.0,74.1,4.7
1053.75,69.3,79.4,71.5,79.2,74.8,5.2
1055.0,69.8,79.9,72.1,78.2,75.0,4.8
1056.25,69.7,79.7,73.4,79.3,75.5,4.8
1057.5,70.2,79.4,72.3,79.2,75.3,4.7
1058.75,69.9,81.3,72.9,79.8,76.0,5.4
1060.0,69.6,81.1,72.8,81.7,76.3,6.0
1061.25,69.7,82.3,73.5,80.9,76.6,6.0
1062.5,69.8,81.7,73.0,82.1,76.6,6.2
1063.75,72.0,82.6,72.5,82.5,77.4,6.0
1065.0,72.1,81.6,72.9,82.7,77.3,5.6
1066.25,72.4,82.9,73.0,82.9,77.8,5.9
1067.5,72.3,84.3,73.7,84.1,78.6,6.5
1068.75,72.7,85.1,74.4,85.6,79.5,6.8
1070.0,72.8,85.3,73.8,86.2,79.5,7.2
1071.25,72.7,85.5,74.6,85.5,79.6,6.9
1072.5,72.9,87.4,75.8,86.8,80.7,7.5
1073.75,73.9,87.8,75.3,87.5,81.1,7.5
1075.0,74.1,87.7,76.1,85.6,80.9,6.8
1076.25,74.8,88.0,77.2,86.8,81.7,6.7
1077.5,73.6,87.4,77.8,88.1,81.7,7.2
1078.75,73.7,88.1,77.9,88.1,82.0,7.3
1080.0,74.7,89.7,77.1,87.6,82.3,7.5
1081.25,74.4,89.8,77.3,88.6,82.5,7.8
1082.5,74.4,90.5,77.8,87.7,82.6,7.7
1083.75,75.3,90.9,78.4,87.1,82.9,7.3
1085.0,75.6,89.9,77.5,89.6,83.2,7.6
1086.25,74.8,90.8,78.6,87.5,82.9,7.5
1087.5,75.1,91.5,78.2,88.3,83.3,7.8
1088.75,74.5,93.5,78.6,88.3,83.7,8.7
1090.0,75.3,92.9,78.4,90.1,84.2,8.6
1091.25,75.9,93.8,79.3,90.0,84.7,8.5
1092.5,75.6,95.4,79.0,90.3,85.1,9.3
1093.75,77.8,93.0,79.2,91.6,85.4,8.0
1095.0,77.0,92.3,78.9,91.4,84.9,8.0
1096.25,77.4,94.3,80.3,91.6,85.9,8.3
1097.5,78.5,93.1,79.6,91.7,85.7,7.7
1098.75,78.0,94.2,79.9,92.2,86.1,8.3
1100.0,78.8,94.7,79.1,92.0,86.2,8.4
1101.25,77.9,94.8,80.3,92.9,86.5,8.6
1102.5,78.1,94.4,80.9,92.9,86.6,8.3
1103.75,78.3,94.5,78.7,93.5,86.2,9.0
1105.0,78.7,95.1,79.6,92.7,86.5,8.6
1106.25,79.5,94.1,78.4,93.6,86.4,8.6
1107.5,79.5,94.5,79.4,93.6,86.7,8.4
1108.75,79.7,96.4,80.5,95.4,88.0,9.1
1110.0,79.9,95.9,80.0,94.2,87.5,8.7
1111.25,80.7,97.9,78.7,95.3,88.1,9.8
1112.5,81.5,95.9,79.1,97.0,88.4,9.4
1113.75,80.6,97.3,79.6,96.3,88.5,9.6
1115.0,80.8,98.3,79.6,96.1,88.7,9.9
1116.25,82.6,100.2,79.1,95.2,89.3,10.1
1117.5,81.9,98.4,79.7,96.6,89.2,9.7
1118.75,82.3,98.6,81.6,95.6,89.5,8.8
1120.0,82.2,100.8,81.7,97.5,90.6,10.1
1121.25,81.2,99.1,82.1,97.3,90.0,9.6
1122.5,82.4,100.8,82.3,97.2,90.7,9.7
1123.75,82.8,100.8,82.5,96.6,90.7,9.4
1125.0,82.5,101.1,84.0,99.0,91.7,9.8
1126.25,83.6,102.1,84.1,98.9,92.2,9.7
1127.5,82.3,101.4,83.3,98.7,91.4,10.1
1128.75,84.4,102.1,84.5,98.8,92.4,9.3
1130.0,84.2,101.1,84.0,100.3,92.4,9.6
1131.25,83.8,102.7,83.1,100.5,92.5,10.5
1132.5,84.3,102.6,84.3,101.6,93.2,10.3
1133.75,84.5,104.2,83.3,102.5,93.6,11.2
1135.0,83.3,103.6,83.2,102.8,93.2,11.5
1136.25,83.9,103.1,83.5,104.1,93.7,11.5
1137.5,84.6,101.4,82.8,104.0,93.2,11.1
1138.75,85.4,102.5,84.0,104.8,94.2,11.0
1140.0,85.7,102.0,84.5,103.1,93.9,10.1
1141.25,86.1,101.7,83.5,103.1,93.6,10.2
1142.5,85.4,103.2,85.2,103.6,94.4,10.5
1143.75,85.2,103.5,85.1,104.0,94.5,10.8
1145.0,85.6,103.3,84.9,104.6,94.6,10.8
1146.25,85.0,103.8,85.9,105.0,94.9,11.0
1147.5,87.2,106.1,85.7,104.5,95.9,10.9
1148.75,86.5,104.6,86.0,106.3,95.9,11.1
1150.0,86.6,106.8,85.4,106.9,96.4,12.0
1151.25,86.7,106.9,84.9,106.6,96.3,12.1
1152.5,87.5,106.5,86.9,108.1,97.3,11.6
1153.75,87.6,108.3,84.7,109.7,97.6,13.3
1155.0,89.0,109.8,84.8,108.6,98.1,13.0
1156.25,88.4,108.7,85.3,110.0,98.1,13.1
1157.5,89.9,109.1,84.9,110.6,98.6,13.1
1158.75,90.6,108.7,86.3,110.1,98.9,12.2
1160.0,91.9,109.2,86.4,110.1,99.4,12.0
1161.25,91.9,110.5,86.8,112.5,100.4,13.0
1162.5,93.4,107.5,86.8,112.0,99.9,11.8
1163.75,92.8,110.2,87.1,113.8,101.0,13.0
1165.0,91.2,109.6,87.4,113.4,100.4,13.0
1166.25,93.3,108.2,87.5,114.2,100.8,12.5
1167.5,93.8,109.8,88.1,113.6,101.3,12.3
1168.75,93.5,110.4,88.3,112.3,101.1,12.0
1170.0,93.7,107.8,88.8,114.5,101.2,12.0
1171.25,94.5,109.9,88.6,114.1,101.7,12.2
1172.5,94.3,107.7,89.7,115.1,101.7,11.8
1173.75,95.3,108.3,89.3,115.4,102.1,11.9
1175.0,94.7,108.2,89.1,116.8,102.2,12.6
1176.25,95.0,109.1,90.5,115.0,102.4,11.5
1177.5,94.1,108.4,89.4,117.4,102.3,12.9
1178.75,95.0,108.0,88.6,117.4,102.2,12.9
1180.0,95.5,109.5,89.4,117.5,103.0,12.8
1181.25,96.9,109.6,89.0,116.7,103.1,12.4
1182.5,97.8,107.7,89.3,117.4,103.0,12.1
1183.75,98.5,108.5,91.1,118.8,104.2,12.0
1185.0,100.1,110.0,90.4,119.9,105.1,12.7
1186.25,99.2,110.4,89.9,118.9,104.6,12.7
1187.5,99.4,107.0,89.9,118.9,103.8,12.2
1188.75,100.3,107.8,91.3,118.1,104.4,11.4
1190.0,101.6,107.7,92.0,116.7,104.5,10.4
1191.25,99.9,109.1,91.0,117.1,104.3,11.3
1192.5,101.8,110.6,90.4,117.3,105.0,11.6
1193.75,101.4,110.8,90.9,119.4,105.6,12.3
1195.0,102.7,113.2,92.1,117.3,106.3,11.3
1196.25,102.4,111.6,90.4,117.9,105.6,12.0
1197.5,102.9,109.6,91.7,119.1,105.8,11.6
1198.75,102.8,109.3,92.3,118.7,105.8,11.1
1200.0,104.0,111.2,90.8,117.8,105.9,11.6
1201.25,103.1,111.2,91.4,118.3,106.0,11.5
1202.5,103.6,111.9,91.7,118.6,106.4,11.6
1203.75,104.1,111.7,90.4,118.5,106.2,12.0
1205.0,104.2,113.4,90.2,118.5,106.6,12.4
1206.25,103.3,113.1,92.0,117.4,106.4,11.3
1207.5,104.8,111.8,91.1,118.0,106.4,11.6
1208.75,106.6,113.5,90.8,115.6,106.6,11.2
1210.0,106.2,113.5,92.2,118.3,107.5,11.4
1211.25,105.0,111.5,91.5,117.2,106.3,11.1
1212.5,108.3,109.8,91.8,118.6,107.1,11.2
1213.75,106.4,111.9,92.1,116.5,106.7,10.6
1215.0,108.6,110.0,93.8,117.7,107.5,10.0
1216.25,109.1,110.2,94.1,115.9,107.3,9.3
1217.5,110.3,110.8,93.6,116.9,107.9,10.0
1218.75,109.6,110.4,94.0,116.3,107.6,9.5
1220.0,110.6,110.5,93.6,117.4,108.0,10.1
1221.25,110.2,110.3,94.3,119.2,108.5,10.4
1222.5,111.4,111.7,95.7,117.8,109.1,9.5
1223.75,112.5,110.9,97.2,120.3,110.2,9.6
1225.0,113.5,111.9,95.9,117.3,109.6,9.4
1226.25,110.8,111.9,94.4,118.3,108.8,10.2
1227.5,111.8,112.1,97.8,117.4,109.8,8.4
1228.75,112.2,112.8,96.9,117.0,109.7,8.8
1230.0,113.5,114.0,97.6,116.7,110.5,8.7
1231.25,114.6,112.5,96.5,117.5,110.3,9.4
1232.5,114.9,113.6,96.1,118.5,110.8,10.0
1233.75,114.4,113.8,98.1,120.7,111.8,9.6
1235.0,114.2,114.6,98.1,120.7,111.9,9.7
1236.25,115.6,113.6,97.4,118.1,111.2,9.4
1237.5,116.8,112.9,98.2,119.1,111.8,9.4
1238.75,115.3,112.3,99.2,118.6,111.3,8.5
1240.0,115.0,112.9,99.1,120.3,111.8,9.0
1241.25,117.7,113.1,98.9,120.3,112.5,9.5
1242.5,118.4,113.1,101.1,117.6,112.6,8.0
1243.75,116.8,112.7,100.8,118.1,112.1,7.9
1245.0,117.7,114.9,98.2,118.3,112.3,9.5
1246.25,119.8,114.8,101.1,119.2,113.7,8.7
1247.5,119.5,116.3,99.2,118.3,113.3,9.5
1248.75,117.7,115.7,99.2,118.7,112.8,9.2
1250.0,119.4,116.5,104.9,121.1,115.5,7.3
1251.25,120.5,117.5,101.3,123.0,115.6,9.8
1252.5,120.7,118.6,102.2,123.8,116.3,9.7
1253.75,122.6,118.0,102.6,122.2,116.4,9.4
1255.0,122.7,117.8,102.4,122.2,116.3,9.5
1256.25,127.3,118.2,102.6,121.6,117.4,10.6
1257.5,125.0,119.0,105.6,123.0,118.2,8.7
1258.75,124.0,118.7,104.7,122.8,117.6,8.9
1260.0,126.4,118.8,104.5,123.1,118.2,9.7
1261.25,128.3,119.2,105.5,122.4,118.8,9.7
1262.5,128.6,119.3,105.4,123.6,119.3,10.0
1263.75,131.0,121.8,106.6,123.5,120.7,10.2
1265.0,130.0,119.2,106.5,125.4,120.3,10.2
1266.25,131.2,121.9,108.3,126.6,122.0,9.9
1267.5,132.0,121.1,108.9,128.6,122.7,10.2
1268.75,130.9,122.1,109.3,126.8,122.3,9.4
1270.0,132.1,120.7,109.2,126.9,122.2,9.8
1271.25,132.9,123.6,110.8,125.6,123.2,9.2
1272.5,131.8,121.9,112.4,128.6,123.7,8.6
1273.75,134.9,121.9,111.8,125.5,123.6,9.6
1275.0,131.9,123.1,111.8,128.2,123.8,8.7
1276.25,135.3,124.7,112.2,126.8,124.7,9.5
1277.5,135.8,123.5,114.0,128.0,125.3,9.1
1278.75,134.8,125.6,113.6,128.2,125.5,8.9
1280.0,135.9,124.7,112.9,128.6,125.5,9.6
1281.25,137.4,128.3,116.2,128.9,127.7,8.7
1282.5,141.2,130.3,115.5,130.7,129.4,10.6
1283.75,139.5,128.1,117.3,131.5,129.1,9.2
1285.0,140.3,128.9,116.2,131.6,129.2,10.0
1286.25,140.6,129.3,116.9,131.2,129.5,9.7
1287.5,140.0,129.4,118.2,130.9,129.6,9.0
1288.75,143.6,128.4,116.9,132.3,130.3,11.0
1290.0,144.2,129.6,119.9,131.8,131.4,10.0
1291.25,146.0,134.2,119.6,130.6,132.6,10.9
1292.5,149.2,134.6,118.6,129.0,132.8,12.8
1293.75,145.5,134.9,120.3,133.3,133.5,10.3
1295.0,147.4,133.3,121.7,133.4,133.9,10.5
1296.25,145.5,135.8,120.9,130.1,133.1,10.3
1297.5,146.8,137.2,121.9,131.4,134.3,10.5
1298.75,147.3,135.5,121.1,131.7,133.9,10.8
1300.0,147.1,138.3,121.6,130.2,134.3,10.9
1301.25,149.7,136.3,121.3,130.7,134.5,11.9
1302.5,150.9,138.9,123.7,132.0,136.4,11.5
1303.75,150.3,136.9,125.9,132.1,136.3,10.4
1305.0,150.9,138.3,124.3,131.5,136.3,11.3
1306.25,151.4,137.9,123.8,131.9,136.2,11.6
1307.5,151.4,143.2,127.0,128.9,137.6,11.7
1308.75,152.9,143.0,128.0,130.6,138.6,11.6
1310.0,152.2,141.9,126.7,132.7,138.4,11.1
1311.25,153.0,142.9,129.1,130.0,138.8,11.4
1312.5,157.0,144.6,127.3,130.5,139.8,13.7
1313.75,152.0,143.9,131.0,131.8,139.7,10.1
1315.0,154.9,144.9,130.6,130.7,140.3,11.8
1316.25,156.2,149.3,130.2,130.0,141.4,13.4
1317.5,156.0,148.1,131.3,130.6,141.5,12.6
1318.75,156.8,144.9,131.3,128.8,140.5,13.0
1320.0,157.9,150.7,127.7,128.9,141.3,15.3
1321.25,160.9,146.9,129.9,128.3,141.5,15.4
1322.5,160.0,146.3,130.5,132.0,142.2,13.8
1323.75,162.0,147.8,129.0,127.6,141.6,16.4
1325.0,162.2,150.3,133.1,130.1,143.9,15.1
1326.25,162.1,149.9,132.0,130.8,143.7,15.1
1327.5,162.7,147.0,133.4,130.0,143.3,14.9
1328.75,167.7,150.7,134.3,131.6,146.1,16.7
1330.0,166.7,148.3,135.9,128.9,145.0,16.6
1331.25,170.2,150.2,136.8,132.1,147.3,17.0
1332.5,173.9,149.4,135.3,129.5,147.0,19.8
1333.75,169.8,150.7,136.6,128.7,146.5,18.0
1335.0,171.1,150.4,138.7,130.3,147.6,17.7
1336.25,175.0,152.9,139.7,130.3,149.5,19.4
1337.5,173.6,153.3,141.9,131.9,150.2,17.9
1338.75,173.7,151.4,142.1,133.8,150.3,17.2
1340.0,175.0,153.6,142.2,134.3,151.3,17.7
1341.25,178.5,153.4,142.4,132.0,151.6,20.0
1342.5,177.0,155.5,142.1,133.5,152.0,19.0
1343.75,179.6,155.1,141.6,133.0,152.3,20.3
1345.0,182.1,154.2,143.2,136.9,154.1,20.0
1346.25,181.1,156.5,144.3,134.7,154.1,20.1
1347.5,185.1,155.3,147.4,135.4,155.8,21.2
1348.75,182.3,159.2,146.8,135.7,156.0,20.0
1350.0,184.4,157.8,149.9,137.7,157.5,19.8
1351.25,185.1,157.7,149.1,136.7,157.2,20.5
1352.5,189.6,156.8,148.1,138.8,158.3,22.1
1353.75,191.0,157.6,150.8,140.1,159.9,22.0
1355.0,192.6,158.7,152.1,136.1,159.9,23.8
1356.25,193.4,160.6,152.4,139.5,161.5,23.0
1357.5,194.2,158.4,158.1,138.4,162.3,23.3
1358.75,194.2,159.7,160.7,136.7,162.8,23.7
1360.0,196.6,157.5,159.3,138.5,163.0,24.3
1361.25,200.9,159.8,161.5,138.6,165.2,26.0
1362.5,201.6,155.9,162.5,141.4,165.4,25.7
1363.75,201.4,157.0,162.5,139.6,165.2,26.1
1365.0,202.7,157.1,163.6,141.5,166.2,26.0
1366.25,204.3,157.7,163.5,136.9,165.6,28.2
1367.5,206.8,157.1,166.1,140.2,167.6,28.3
1368.75,204.5,159.1,166.7,140.3,167.7,27.0
1370.0,203.8,159.1,169.4,140.2,168.1,26.7
1371.25,204.6,160.7,172.2,140.3,169.5,26.9
1372.5,209.8,158.1,173.8,139.9,170.4,29.7
1373.75,207.7,159.3,174.3,140.7,170.5,28.4
1375.0,207.3,158.5,177.0,141.1,171.0,28.3
1376.25,205.3,163.2,172.1,140.9,170.4,26.7
1377.5,205.1,160.5,182.9,140.2,172.2,28.0
1378.75,202.9,160.2,180.5,138.5,170.5,27.5
1380.0,198.9,158.2,184.1,138.5,169.9,26.8
1381.25,202.0,162.2,184.2,139.4,171.9,27.2
1382.5,198.0,160.2,186.8,138.4,170.9,26.8
1383.75,196.1,160.1,187.8,139.8,170.9,25.9
1385.0,192.0,159.8,195.0,136.0,170.7,28.1
1386.25,188.6,157.9,195.7,135.7,169.5,27.9
1387.5,182.5,162.0,194.0,133.8,168.1,26.4
1388.75,177.4,160.2,194.2,132.4,166.0,26.4
1390.0,170.0,157.8,196.6,132.5,164.2,26.7
1391.25,163.4,158.4,192.9,133.5,162.1,24.4
1392.5,161.3,157.4,195.3,129.1,160.8,27.1
1393.75,154.2,160.4,199.0,131.2,161.2,28.2
1395.0,146.9,157.0,197.5,129.4,157.7,28.9
1396.25,143.3,153.7,203.2,127.0,156.8,32.8
1397.5,135.2,153.4,199.5,127.2,153.8,32.4
1398.75,131.2,152.9,204.6,125.2,153.5,36.1
1400.0,125.7,149.1,207.7,123.1,151.4,39.3
1401.25,120.8,149.9,207.7,120.2,149.6,41.1
1402.5,117.6,148.5,206.7,119.3,148.0,41.6
1403.75,114.6,150.4,208.0,117.2,147.6,43.5
1405.0,111.8,147.3,207.7,115.3,145.5,44.4
1406.25,110.0,147.4,205.7,113.5,144.2,44.4
1407.5,109.4,147.9,208.3,112.5,144.5,46.0
1408.75,108.7,143.0,210.4,110.4,143.1,47.6
1410.0,107.0,144.7,212.6,106.9,142.8,49.8
1411.25,106.0,143.0,214.8,104.0,142.0,51.8
1412.5,103.4,143.4,214.4,102.0,140.8,52.7
1413.75,100.5,142.9,213.6,100.0,139.3,53.5
1415.0,99.6,141.0,215.4,95.7,137.9,55.6
1416.25,99.6,139.4,213.2,93.1,136.4,55.2
1417.5,95.1,138.0,211.8,90.3,133.8,56.2
1418.75,93.2,131.3,214.3,88.6,131.8,58.2
1420.0,89.4,127.7,213.9,84.8,129.0,59.8
1421.25,87.1,123.3,211.7,82.5,126.1,59.9
1422.5,84.7,119.8,209.4,81.3,123.8,59.7
1423.75,83.0,119.2,209.6,78.8,122.7,60.8
1425.0,80.0,113.6,206.1,77.3,119.3,60.2
1426.25,80.0,111.3,209.4,74.9,118.9,62.4
1427.5,79.1,108.6,202.1,72.7,115.6,59.7
1428.75,78.4,104.7,201.9,72.0,114.2,60.1
1430.0,77.4,102.9,199.0,70.2,112.4,59.4
1431.25,75.5,97.9,192.5,68.7,108.6,57.3
1432.5,73.2,93.6,189.5,68.1,106.1,56.7
1433.75,73.1,92.9,185.9,65.8,104.4,55.5
1435.0,72.9,89.4,179.7,64.6,101.7,53.0
1436.25,71.9,86.4,178.1,62.3,99.7,53.2
1437.5,70.4,85.1,172.7,60.3,97.1,51.4
1438.75,69.9,81.7,168.4,59.2,94.8,49.9
1440.0,68.9,81.3,161.7,58.4,92.6,47.0
1441.25,67.9,79.3,156.3,56.0,89.9,45.3
1442.5,68.3,79.0,154.2,54.9,89.1,44.5
1443.75,68.0,74.6,148.4,53.5,86.1,42.4
1445.0,67.5,73.8,142.7,53.2,84.3,39.9
1446.25,67.0,72.2,137.2,52.4,82.2,37.6
1447.5,64.6,69.4,131.5,51.3,79.2,35.7
1448.75,65.5,67.8,127.3,50.5,77.8,33.9
1450.0,65.1,67.0,124.9,48.9,76.5,33.3
1451.25,63.6,66.5,117.7,48.0,74.0,30.2
1452.5,63.2,65.1,114.9,46.4,72.4,29.5
1453.75,62.5,62.9,109.2,46.5,70.2,27.1
1455.0,62.1,61.9,107.7,45.2,69.2,26.9
1456.25,62.3,61.3,104.8,45.3,68.4,25.5
1457.5,61.9,60.4,103.2,45.0,67.6,24.9
1458.75,61.5,58.7,100.1,45.0,66.3,23.6
1460.0,61.4,58.7,100.5,45.3,66.5,23.8
1461.25,60.5,58.1,97.3,44.8,65.2,22.5
1462.5,60.4,56.1,94.8,43.8,63.8,21.9
1463.75,60.7,56.3,93.9,43.0,63.5,21.6
1465.0,60.4,55.7,91.0,43.1,62.6,20.3
1466.25,59.3,54.5,89.4,42.8,61.5,19.9
1467.5,58.8,53.6,87.2,41.7,60.3,19.3
1468.75,58.4,53.4,86.1,40.6,59.6,19.1
1470.0,58.9,53.5,84.2,39.8,59.1,18.6
1471.25,59.7,53.0,83.2,39.3,58.8,18.3
1472.5,58.3,51.9,80.6,38.4,57.3,17.6
1473.75,56.9,51.4,79.3,38.1,56.4,17.2
1475.0,57.1,50.5,78.0,37.7,55.8,16.8
1476.25,57.2,51.1,76.1,37.4,55.5,16.1
1477.5,56.5,48.8,75.4,36.8,54.4,16.2
1478.75,56.6,47.4,74.3,37.0,53.8,15.8
1480.0,55.8,46.6,73.2,36.6,53.0,15.6
1481.25,57.3,46.4,72.4,36.4,53.1,15.4
1482.5,55.1,46.2,71.3,35.8,52.1,15.0
1483.75,54.9,45.0,70.4,35.7,51.5,14.8
1485.0,55.9,44.5,69.9,35.5,51.4,14.9
1486.25,54.9,44.7,67.7,34.7,50.5,14.1
1487.5,53.9,43.9,67.4,35.1,50.1,13.9
1488.75,54.2,43.3,67.2,34.5,49.8,14.1
1490.0,53.4,43.5,66.5,34.6,49.5,13.7
1491.25,53.7,42.8,65.7,34.6,49.2,13.5
1492.5,53.3,42.7,65.5,34.7,49.0,13.3
1493.75,53.2,42.2,63.9,35.1,48.6,12.6
1495.0,52.9,42.3,62.1,35.2,48.1,11.8
1496.25,52.6,41.6,63.0,35.8,48.2,12.0
1497.5,52.9,41.3,61.3,36.3,47.9,11.3
1498.75,53.1,41.1,61.2,36.4,47.9,11.3
1500.0,53.6,41.3,59.4,37.1,47.8,10.4
1501.25,52.8,40.8,59.1,35.8,47.1,10.7
1502.5,53.3,41.3,59.0,35.8,47.4,10.7
1503.75,53.2,40.3,58.2,34.4,46.5,11.0
1505.0,53.1,40.6,57.2,34.7,46.4,10.5
1506.25,52.9,40.2,57.7,34.4,46.3,10.8
1507.5,52.2,40.1,56.7,34.1,45.8,10.5
1508.75,51.8,39.8,57.5,33.4,45.6,11.0
1510.0,51.7,39.0,56.9,33.3,45.2,11.0
1511.25,51.2,39.0,56.7,32.7,44.9,11.0
1512.5,50.8,38.6,56.1,32.7,44.5,10.8
1513.75,49.5,37.4,55.6,32.6,43.8,10.6
1515.0,48.9,37.5,54.0,31.7,43.0,10.2
1516.25,48.2,37.5,55.4,32.0,43.3,10.5
1517.5,48.0,37.6,54.3,31.8,42.9,10.1
1518.5,48.1,37.0,54.2,31.7,42.8,10.3