File: 01_Data/Feather_Pillow_Feathers/Cone/Feather_Pillow_Feathers_Cone_HF25Scan_230710_R1.csv
Names,Time,Stack TC,Smoke TC,Exh Press,Smoke Comp,Smoke Meas,CO Meter,CO2 Meter,O2 Meter,Sample Mass,Ext Coeff,Start Test,Flame Verif
Chan Gain,,500,500,1,1,1,1,1,1,1,1,1.0,1.0
Offset,,0,0,0.18266,0,0,0,0,0,0,0,0.0,0.0
Gain,,1,1,25.011,13.0208,54.2044,1,1,1,1.00092,0.871134,1.0,1.0
Units,sec,C,C,Pa,%,%,%,%,%,g,/m,,
Baseline,,40.3361,41.7577,184.021,100.245,100.719,0.000460248,0.045537,20.9391,-446.077,-0.0360107,,
2,0.25,39.5867,40.3441,190.558,100.446,100.636,0.000473193,0.0462033,20.9456,50.3564,-0.0144649,0.0,0.0
4,0.75,39.7517,40.0899,181.293,100.45,101.412,0.000514755,0.0461914,20.9456,50.3864,-0.0728162,0.0,0.0
6,1.25,39.2425,39.4178,182.258,100.447,102.116,0.00054842,0.0461509,20.9456,50.2963,-0.125973,0.0,0.0
8,1.75,39.4582,39.9505,176.701,100.436,101.754,0.0005842,0.0460904,20.9456,50.3264,-0.0996323,0.0,0.0
10,2.25,39.2178,39.9951,181.39,100.453,100.444,0.000620842,0.0460413,20.9456,50.3163,0.000663136,0.0,0.0
12,2.75,39.357,40.5424,181.62,100.44,101.063,0.000650522,0.04593,20.9455,50.2863,-0.0471956,0.0,0.0
14,3.25,39.0153,40.4264,178.402,100.46,101.799,0.00067587,0.0458398,20.9454,50.3063,-0.101141,0.0,0.0
16,3.75,39.6212,40.7576,181.533,100.445,101.463,0.00069758,0.0458346,20.9453,50.2663,-0.0770418,0.0,1.0
18,4.25,39.909,40.6082,187.057,100.439,103.304,0.00071451,0.0458914,20.9452,50.2363,-0.214943,0.0,1.0
20,4.75,39.2523,40.7332,175.881,100.458,102.543,0.000727635,0.0459978,20.9451,50.1762,-0.156997,0.0,1.0
22,5.25,39.7844,40.8781,175.696,100.457,103.425,0.000737612,0.0461382,20.945,50.1062,-0.22251,0.0,1.0
24,5.75,39.9372,41.2499,177.034,100.474,102.988,0.000745106,0.0462897,20.945,50.0561,-0.188876,0.0,1.0
26,6.25,40.087,41.7771,171.444,100.466,104.336,0.000745065,0.0465131,20.9449,49.976,-0.288833,0.0,1.0
28,6.75,40.2498,42.1983,165.865,100.481,105.258,0.000743685,0.0465732,20.9449,49.926,-0.35493,0.0,1.0
30,7.25,40.2434,42.5295,168.711,100.454,105.297,0.000738712,0.0467763,20.9449,49.8359,-0.359806,0.0,1.0
32,7.75,40.1187,43.2154,164.791,100.485,105.587,0.000732329,0.0469408,20.9449,49.7558,-0.378459,0.0,1.0
34,8.25,40.8182,43.9359,170.129,100.461,105.198,0.00072716,0.0471601,20.9446,49.6257,-0.352087,0.0,1.0
36,8.75,40.6246,44.2729,157.047,100.48,105.34,0.000719245,0.0473376,20.9442,49.6657,-0.360992,0.0,1.0
38,9.25,40.713,44.716,165.327,100.46,106.627,0.000712835,0.0475494,20.9439,49.5556,-0.455296,0.0,1.0
40,9.75,41.3752,45.5973,168.88,100.5,104.77,0.000707642,0.047782,20.9436,49.4856,-0.31791,0.0,1.0
42,10.25,41.7964,46.3731,165.674,100.475,105.8,0.000691018,0.0479705,20.9434,49.3354,-0.394611,0.0,1.0
44,10.75,41.5164,47.5479,166.923,100.489,105.681,0.000677552,0.0483956,20.9432,49.3254,-0.384946,0.0,1.0
46,11.25,41.5765,47.9727,163.641,100.479,104.154,0.000649266,0.04874,20.943,49.1753,-0.274497,0.0,1.0
48,11.75,42.6805,48.4582,162.136,100.491,104.631,0.000626354,0.0495857,20.9429,49.1052,-0.308494,0.0,0.0
50,12.25,42.6236,48.9383,163.663,100.492,104.679,0.000607796,0.050781,20.9428,49.1553,-0.311876,0.0,0.0
52,12.75,43.019,49.6653,165.372,100.494,106.641,0.000592763,0.0517492,20.9423,49.0452,-0.453645,0.0,0.0
54,13.25,43.5228,50.2838,165.324,100.487,105.544,0.00058431,0.0561379,20.9419,49.0352,-0.375164,0.0,0.0
56,13.75,43.6035,51.0642,161.412,100.5,105.339,0.000577463,0.0629368,20.9413,48.855,-0.359331,0.0,0.0
58,14.25,43.865,51.2228,167.598,100.49,105.959,0.000614142,0.0684439,20.9407,48.845,-0.404985,0.0,0.0
60,14.75,44.1389,51.9398,161.305,100.498,105.676,0.000643852,0.0806231,20.9395,48.7249,-0.383923,0.0,0.0
62,15.25,44.4705,53.0555,174.928,100.499,104.548,0.000726366,0.0951746,20.9379,48.6548,-0.301846,0.0,0.0
64,15.75,44.9975,52.8768,161.196,100.513,103.359,0.000793202,0.111179,20.9319,48.6248,-0.213298,0.0,0.0
66,16.25,44.8187,53.2066,157.55,100.498,104.614,0.000915854,0.124142,20.9228,48.5747,-0.306741,0.0,0.0
68,16.75,45.2152,54.098,164.805,100.511,105.608,0.0010152,0.144532,20.907,48.5347,-0.37802,0.0,0.0
70,17.25,45.4896,54.7565,162.586,100.507,103.063,0.00109568,0.161048,20.8866,48.4947,-0.19189,0.0,0.0
72,17.75,46.1378,54.7851,167.89,100.512,105.617,0.00124699,0.177903,20.87,48.3946,-0.378559,0.0,0.0
74,18.25,46.2669,55.5287,167.115,100.518,102.998,0.00136956,0.194686,20.8446,48.4046,-0.186259,0.0,0.0
76,18.75,46.7454,55.6431,160.641,100.506,102.69,0.00152137,0.210044,20.824,48.3345,-0.164334,0.0,0.0
78,19.25,46.6127,55.5651,157.918,100.504,101.15,0.00165948,0.224072,20.8012,48.2244,-0.048957,0.0,0.0
80,19.75,46.8321,56.4836,163.297,100.51,102.128,0.001785,0.236431,20.7773,48.1143,-0.122005,0.0,0.0
82,20.25,47.5693,56.6397,164.202,100.493,100.978,0.00190052,0.24734,20.7579,48.1443,-0.0368246,0.0,0.0
84,20.75,47.8812,57.1983,164.402,100.506,102.588,0.00200655,0.25679,20.7332,48.0843,-0.156698,0.0,0.0
86,21.25,47.6487,57.5256,161.041,100.497,101.165,0.00210431,0.264997,20.7133,48.0042,-0.0506555,0.0,0.0
88,21.75,48.0521,57.7365,160.97,100.509,99.6566,0.00219419,0.271645,20.6913,48.0042,0.0650631,0.0,0.0
90,22.25,48.3826,58.7798,166.411,100.513,98.5433,0.00226699,0.27863,20.6735,47.9542,0.151269,0.0,0.0
92,22.75,48.3914,59.1163,166.55,100.506,99.3208,0.0023498,0.284288,20.6575,47.8841,0.0906743,0.0,0.0
94,23.25,48.7652,59.4445,165.203,100.5,98.2059,0.00241687,0.289683,20.643,47.9041,0.176426,0.0,0.0
96,23.75,48.9061,59.8608,168.586,100.504,99.6136,0.0024712,0.294785,20.6313,47.9041,0.0679691,0.0,0.0
98,24.25,49.4436,60.0609,167.175,100.515,97.6898,0.00252148,0.298916,20.6201,47.794,0.217898,0.0,0.0
100,24.75,49.4037,60.3299,168.789,100.51,98.0934,0.0025622,0.303698,20.6096,47.774,0.185938,0.0,0.0
102,25.25,49.6293,60.2999,163.389,100.521,97.6881,0.00259394,0.307571,20.5999,47.734,0.218481,0.0,0.0
104,25.75,50.4922,60.4029,167.616,100.508,98.2786,0.00261964,0.311713,20.591,47.7139,0.171369,0.0,0.0
106,26.25,50.1426,60.4108,167.352,100.507,99.9709,0.00264549,0.315068,20.5824,47.754,0.0408502,0.0,0.0
108,26.75,50.2817,60.2778,171.666,100.517,99.1802,0.00266642,0.318724,20.5742,47.794,0.102316,0.0,0.0
110,27.25,50.4439,60.3236,170.087,100.505,98.8311,0.00270313,0.324154,20.5629,47.754,0.128318,0.0,0.0
112,27.75,50.513,60.5942,173.746,100.511,98.6227,0.0027219,0.328912,20.5566,47.764,0.144934,0.0,0.0
114,28.25,50.5384,60.0267,171.669,100.51,100.571,0.00275719,0.332766,20.5492,47.764,-0.00469917,0.0,0.0
116,28.75,50.3181,60.0388,172.749,100.51,100.308,0.00278578,0.338673,20.5433,47.7139,0.0153412,0.0,0.0
118,29.25,50.4281,60.2046,171.073,100.512,100.633,0.00285796,0.343457,20.537,47.6739,-0.00916729,0.0,0.0
120,29.75,50.689,60.1536,173.21,100.51,100.535,0.00291643,0.34895,20.5307,47.6839,-0.00187312,0.0,0.0
122,30.25,50.4384,60.1338,182.836,100.523,101.354,0.00296379,0.354855,20.5256,47.6939,-0.0629224,0.0,0.0
124,30.75,50.3881,59.7593,174.227,100.523,101.827,0.00309913,0.359638,20.5198,47.6739,-0.0984783,0.0,0.0
126,31.25,50.5777,59.5256,176.739,100.53,100.98,0.00320875,0.363229,20.5137,47.6939,-0.0341408,0.0,0.0
128,31.75,50.1289,59.4189,181.817,100.538,101.721,0.00332411,0.365883,20.5087,47.6939,-0.0894121,0.0,0.0
130,32.25,50.2428,59.0169,175.645,100.51,101.706,0.00344146,0.368033,20.5033,47.6739,-0.0903776,0.0,0.0
132,32.75,50.7403,58.6,178.053,100.529,102.125,0.00353652,0.366006,20.4989,47.7039,-0.120367,0.0,0.0
134,33.25,50.4699,58.7197,184.172,100.528,101.691,0.00365647,0.364363,20.4954,47.7139,-0.0879297,0.0,0.0
136,33.75,50.4413,58.366,178.876,100.523,102.862,0.00375363,0.360455,20.4925,47.6939,-0.175766,0.0,0.0
138,34.25,50.699,57.844,182.391,100.53,102.558,0.0038551,0.354969,20.4902,47.7139,-0.152607,0.0,0.0
140,34.75,50.218,57.9703,181.659,100.532,101.862,0.00393728,0.348103,20.4884,47.7139,-0.10042,0.0,0.0
142,35.25,49.8963,57.4129,181.838,100.533,101.944,0.00400765,0.340363,20.4868,47.7139,-0.106562,0.0,0.0
144,35.75,49.992,57.3985,180.773,100.529,101.033,0.00406464,0.334093,20.4887,47.7139,-0.0381753,0.0,0.0
146,36.25,49.899,56.8816,180.59,100.546,100.747,0.00411081,0.325334,20.4929,47.734,-0.0152617,0.0,0.0
148,36.75,50.3108,55.9928,180.769,100.539,101.893,0.00413023,0.314927,20.4998,47.724,-0.102204,0.0,0.0
150,37.25,49.7078,55.9516,181.622,100.543,101.635,0.00412979,0.306498,20.5087,47.744,-0.0825847,0.0,0.0
152,37.75,49.6311,55.8602,180.838,100.541,100.901,0.00412944,0.293503,20.5158,47.734,-0.0272538,0.0,0.0
154,38.25,49.6628,56.0239,178.389,100.544,101.178,0.00404617,0.282977,20.5256,47.774,-0.0480902,0.0,0.0
156,38.75,49.4385,55.4771,177.95,100.541,100.914,0.00402377,0.270829,20.5371,47.754,-0.0282558,0.0,0.0
158,39.25,49.5674,55.489,183.162,100.548,101.585,0.00393754,0.25773,20.55,47.744,-0.0784001,0.0,0.0
160,39.75,49.7654,54.9092,178.827,100.543,101.283,0.00386769,0.244167,20.5636,47.754,-0.0560475,0.0,0.0
162,40.25,48.5448,53.6226,180.823,100.56,101.46,0.00376703,0.230522,20.5802,47.744,-0.0680607,0.0,0.0
164,40.75,48.3232,53.0611,182.953,100.556,100.413,0.00368549,0.215119,20.5987,47.754,0.0109098,0.0,0.0
166,41.25,48.1428,53.0679,179.092,100.535,101.263,0.0035817,0.202643,20.6196,47.7139,-0.0551538,0.0,0.0
168,41.75,48.0489,52.8812,182.69,100.559,100.772,0.00349762,0.188537,20.6418,47.7039,-0.0161471,0.0,0.0
170,42.25,48.6343,52.4604,179.164,100.551,101.367,0.00337925,0.177111,20.6598,47.7139,-0.0617455,0.0,0.0
172,42.75,48.0147,52.8788,177.985,100.551,101.9,0.00328337,0.165781,20.682,47.724,-0.101824,0.0,0.0
174,43.25,48.0201,52.1557,179.797,100.547,101.57,0.00316475,0.154736,20.6999,47.734,-0.0773704,0.0,0.0
176,43.75,47.725,52.0772,184.675,100.563,100.068,0.00303182,0.14579,20.7198,47.724,0.0376827,0.0,0.0
178,44.25,47.7101,51.6555,184.962,100.543,101.354,0.00292414,0.136634,20.7359,47.7139,-0.061352,0.0,0.0
180,44.75,48.1746,51.3214,180.694,100.57,101.432,0.00279804,0.127498,20.7489,47.6939,-0.0652185,0.0,0.0
182,45.25,47.4548,51.5442,183.012,100.572,101.946,0.00266091,0.118852,20.765,47.6839,-0.103666,0.0,0.0
184,45.75,47.6245,51.0686,181.127,100.566,102.151,0.00252811,0.110727,20.778,47.6839,-0.119479,0.0,0.0
186,46.25,47.623,51.2101,179.783,100.553,101.372,0.002401,0.103422,20.793,47.6939,-0.061999,0.0,0.0
188,46.75,47.456,50.8599,181.5,100.564,101.479,0.00228424,0.0968544,20.8052,47.7139,-0.0692235,0.0,0.0
190,47.25,47.6086,50.3392,182.197,100.558,100.793,0.00217723,0.0915343,20.8195,47.724,-0.0178384,0.0,0.0
192,47.75,47.327,50.1097,178.141,100.572,101.66,0.00207873,0.0861715,20.8311,47.724,-0.0822458,0.0,0.0
194,48.25,47.2366,50.1917,180.96,100.557,101.794,0.0019883,0.0813879,20.8441,47.7139,-0.0934283,0.0,0.0
196,48.75,47.202,50.1632,181.2,100.56,103.339,0.00189798,0.0771174,20.8557,47.724,-0.208297,0.0,0.0
198,49.25,47.046,49.6469,181.958,100.573,100.823,0.00180946,0.0733328,20.8662,47.7039,-0.0189784,0.0,0.0
200,49.75,47.1029,49.9844,181.99,100.58,101.483,0.00171678,0.0699744,20.8755,47.7039,-0.0682956,0.0,0.0
202,50.25,46.746,49.5786,177.201,100.565,101.863,0.00162281,0.067254,20.8836,47.7039,-0.0980377,0.0,0.0
204,50.75,46.6914,49.8923,180.311,100.574,101.084,0.00154669,0.0644902,20.8901,47.7039,-0.0386706,0.0,0.0
206,51.25,46.4848,49.1806,180.683,100.563,101.536,0.00143028,0.0622515,20.8959,47.7039,-0.0735786,0.0,0.0
208,51.75,46.6376,48.7199,182.555,100.57,101.769,0.00133598,0.0602795,20.901,47.7039,-0.0905983,0.0,0.0
210,52.25,46.685,48.5965,184.006,100.57,100.897,0.0012248,0.0585394,20.9051,47.6839,-0.024859,0.0,0.0
212,52.75,46.5872,48.6333,188.969,100.578,101.554,0.00113473,0.0571299,20.9094,47.6839,-0.0737709,0.0,0.0
214,53.25,46.5282,48.2058,177.33,100.57,101.101,0.00106178,0.0558591,20.9128,47.7139,-0.0402231,0.0,0.0
216,53.75,46.0934,48.7752,179.32,100.578,101.585,0.000985304,0.0548298,20.9163,47.7139,-0.0761355,0.0,0.0
218,54.25,46.1267,48.7555,185.492,100.581,101.635,0.000923354,0.0538525,20.9198,47.7139,-0.079686,0.0,0.0
220,54.75,46.2604,48.3086,184.615,100.583,101.719,0.00086945,0.053061,20.9228,47.724,-0.0858147,0.0,0.0
222,55.25,46.3521,48.3201,182.021,100.572,102.454,0.000825788,0.052367,20.9255,47.724,-0.141698,0.0,0.0
224,55.75,46.1322,47.6228,180.406,100.582,102.234,0.000791663,0.0517573,20.9279,47.7139,-0.124456,0.0,0.0
226,56.25,45.9841,47.9119,187.762,100.573,101.481,0.000764022,0.0512332,20.93,47.724,-0.0687147,0.0,0.0
228,56.75,46.1799,47.749,182.349,100.572,102.551,0.000755295,0.0507816,20.9318,47.7139,-0.148974,0.0,0.0
230,57.25,45.8487,47.7147,183.381,100.59,102.877,0.000748227,0.0504006,20.9332,47.7039,-0.171828,0.0,0.0
232,57.75,45.5995,47.4826,179.656,100.579,101.885,0.000742501,0.0500785,20.9343,47.7039,-0.0985641,0.0,0.0
234,58.25,45.7525,47.8319,181.504,100.578,102.057,0.000775152,0.0498176,20.9352,47.6939,-0.111547,0.0,0.0
236,58.75,45.3776,47.8539,180.171,100.586,100.864,0.000801598,0.0496062,20.936,47.7039,-0.0210855,0.0,0.0
238,59.25,45.8006,47.275,179.562,100.573,102.272,0.00082302,0.0493973,20.9366,47.6739,-0.128024,0.0,0.0
240,59.75,45.4331,47.5101,178.866,100.573,101.499,0.00086774,0.0491941,20.9376,47.6639,-0.0700545,0.0,0.0
242,60.25,45.5282,47.13,179.071,100.574,101.794,0.000903964,0.0490144,20.9387,47.7039,-0.0920996,0.0,0.0
244,60.75,45.2347,47.3711,186.803,100.565,101.843,0.000935794,0.0488553,20.9394,47.734,-0.0965182,0.0,0.0
246,61.25,45.4818,46.9172,181.46,100.572,101.223,0.000961577,0.0487265,20.9398,47.724,-0.0493485,0.0,0.0
248,61.75,45.4696,46.6009,182.66,100.588,102.348,0.000977482,0.0486221,20.9403,47.724,-0.132529,0.0,0.0
250,62.25,45.1799,46.699,181.938,100.571,101.461,0.000990365,0.0485375,20.941,47.744,-0.0673705,0.0,0.0
252,62.75,45.2088,47.2,182.973,100.573,101.617,0.00100348,0.048469,20.9415,47.734,-0.0788916,0.0,0.0
254,63.25,45.3886,46.6456,183.18,100.573,102.515,0.001007,0.0484053,20.9419,47.724,-0.146141,0.0,0.0
256,63.75,45.1727,46.9113,181.087,100.582,101.458,0.00101303,0.0483463,20.9422,47.734,-0.0662765,0.0,0.0
258,64.25,44.8398,46.5895,179.894,100.578,101.751,0.0010142,0.0482985,20.9425,47.744,-0.0885683,0.0,0.0
260,64.75,45.2385,46.8559,183.502,100.576,100.211,0.00101515,0.0483428,20.9427,47.764,0.0278232,0.0,0.0
262,65.25,44.896,46.4443,181.064,100.569,101.574,0.00101592,0.0484534,20.9429,47.754,-0.0759888,0.0,0.0
264,65.75,45.3426,46.4559,181.713,100.55,102.92,0.0010041,0.0485429,20.943,47.744,-0.178012,0.0,0.0
266,66.25,45.1603,46.687,181.605,100.556,101.298,0.000994528,0.0487363,20.943,47.734,-0.0561737,0.0,0.0
268,66.75,44.9318,46.209,183.14,100.566,101.676,0.000979312,0.0490015,20.9429,47.734,-0.0839421,0.0,0.0
270,67.25,44.8046,46.1486,179.04,100.577,101.455,0.000966987,0.0493455,20.9429,47.734,-0.0663896,0.0,0.0
272,67.75,45.0385,46.7303,182.605,100.556,102.74,0.000954517,0.0496242,20.9427,47.734,-0.16416,0.0,0.0
274,68.25,45.079,46.5574,179.314,100.582,101.901,0.000944416,0.0498355,20.9422,47.784,-0.0995631,0.0,0.0
276,68.75,44.7721,45.7996,183.161,100.544,101.456,0.000936234,0.0500067,20.9419,47.764,-0.0690507,0.0,0.0
278,69.25,45.2378,46.5162,179.485,100.578,101.981,0.000929606,0.0500306,20.9416,47.774,-0.105847,0.0,0.0
280,69.75,44.8749,46.3157,181.572,100.571,102.943,0.000918022,0.05005,20.9414,47.764,-0.178191,0.0,0.0
282,70.25,45.1211,46.4253,181.461,100.576,101.524,0.000908639,0.0500204,20.9412,47.754,-0.0716805,0.0,0.0
284,70.75,44.6044,46.0455,187.514,100.551,102.072,0.000888608,0.0499556,20.9411,47.754,-0.114714,0.0,0.0
286,71.25,44.8783,46.0769,178.153,100.568,101.532,0.000872383,0.0498503,20.941,47.754,-0.0729068,0.0,0.0
288,71.75,44.7915,45.7932,180.987,100.545,102.088,0.000859241,0.0497175,20.9409,47.764,-0.116406,0.0,0.0
290,72.25,44.5778,46.1311,183.04,100.563,101.22,0.000827474,0.0496099,20.9408,47.744,-0.0497638,0.0,0.0
292,72.75,44.747,46.58,179.514,100.564,101.666,0.000801742,0.0494367,20.9408,47.724,-0.0832864,0.0,0.0
294,73.25,44.6444,45.5553,184.442,100.57,102.128,0.000764756,0.0492964,20.9407,47.724,-0.117444,0.0,0.0
296,73.75,44.298,45.8456,182.693,100.553,101.395,0.000734797,0.0491382,20.9407,47.6739,-0.0637445,0.0,0.0
298,74.25,44.3213,46.0416,178.432,100.567,102.153,0.000698108,0.0489699,20.9406,47.724,-0.119542,0.0,0.0
300,74.75,44.8381,46.0185,183.177,100.553,101.872,0.000657209,0.0488336,20.9406,47.724,-0.099534,0.0,0.0
302,75.25,44.5271,45.6926,184.017,100.566,101.384,0.000618858,0.0486945,20.9406,47.724,-0.0619053,0.0,0.0
304,75.75,44.3015,45.5687,181.89,100.541,101.622,0.000583092,0.0485818,20.9407,47.734,-0.0817104,0.0,0.0
306,76.25,44.4801,45.52,183.374,100.567,102.793,0.000553469,0.0484763,20.9408,47.724,-0.167281,0.0,0.0
308,76.75,44.6141,45.7008,183.915,100.555,101.959,0.000528886,0.0483681,20.9414,47.7139,-0.105956,0.0,0.0
310,77.25,44.5817,45.2654,179.359,100.568,101.898,0.000508974,0.0482601,20.9418,47.7139,-0.100402,0.0,0.0
312,77.75,43.9995,45.4322,177.645,100.556,102.144,0.000492846,0.0481726,20.9422,47.734,-0.119739,0.0,0.0
314,78.25,44.4685,45.3553,179.611,100.56,101.393,0.000479781,0.0480445,20.9425,47.764,-0.063046,0.0,0.0
316,78.75,44.4597,45.6345,184.69,100.542,102.047,0.000475402,0.0479407,20.9427,47.764,-0.113551,0.0,0.0
318,79.25,44.4765,45.0678,180.09,100.57,102.783,0.000471855,0.0478415,20.9429,47.754,-0.166331,0.0,0.0
320,79.75,43.823,45.3228,177.534,100.565,102.408,0.000476166,0.0477476,20.943,47.7139,-0.138756,0.0,0.0
322,80.25,43.9639,45.2801,181.795,100.559,101.16,0.000486123,0.0476715,20.9432,47.724,-0.0455683,0.0,0.0
324,80.75,44.4495,45.5076,183.839,100.566,101.398,0.000500721,0.0476099,20.9433,47.7039,-0.0630272,0.0,0.0
326,81.25,43.6638,45.544,189.472,100.56,100.317,0.000518426,0.04756,20.9433,47.734,0.018517,0.0,0.0
328,81.75,43.8721,45.1869,182.42,100.56,101.316,0.000532767,0.047512,20.9434,47.724,-0.0571841,0.0,0.0
330,82.25,44.1797,45.0864,181.557,100.556,101.326,0.000551571,0.0474664,20.9435,47.724,-0.0582649,0.0,0.0
332,82.75,43.8189,44.917,183.021,100.566,101.544,0.000573273,0.0474294,20.9436,47.7139,-0.0739594,0.0,0.0
334,83.25,44.0529,45.1099,179.159,100.554,100.901,0.00058497,0.0473994,20.9438,47.724,-0.0262876,0.0,0.0
336,83.75,43.8877,45.1221,183.224,100.548,101.594,0.00058915,0.0473752,20.9439,47.744,-0.0790522,0.0,0.0
338,84.25,44.2045,44.9673,176.216,100.533,102.101,0.000592536,0.0473399,20.944,47.774,-0.118333,0.0,0.0
340,84.75,43.5469,45.4092,180.486,100.553,101.392,0.000582224,0.0473113,20.944,47.764,-0.0634951,0.0,0.0
342,85.25,43.7082,45.1777,184.019,100.554,101.809,0.000562123,0.0472882,20.9441,47.764,-0.0947872,0.0,0.0
344,85.75,43.8756,45.154,183.399,100.541,101.913,0.000545841,0.0472551,20.9442,47.754,-0.103541,0.0,0.0
346,86.25,43.976,44.8814,181.681,100.54,102.29,0.000536571,0.0472283,20.9442,47.764,-0.131859,0.0,0.0
348,86.75,43.3938,44.694,181.089,100.566,102.234,0.00053259,0.0472217,20.9441,47.744,-0.125694,0.0,0.0
350,87.25,44.0615,44.8243,178.327,100.548,101.872,0.000546354,0.0472299,20.944,47.724,-0.0999267,0.0,0.0
352,87.75,43.9151,45.0176,182.987,100.557,101.559,0.000572793,0.0472366,20.9439,47.724,-0.0757445,0.0,0.0
354,88.25,43.6096,44.8731,185.466,100.543,101.364,0.00060925,0.0472419,20.9438,47.7039,-0.0621303,0.0,0.0
356,88.75,43.6513,44.8753,182.036,100.56,101.418,0.000652317,0.0472463,20.9437,47.7139,-0.064976,0.0,0.0
358,89.25,43.85,45.0753,184.139,100.533,101.258,0.000689819,0.0472498,20.9437,47.7139,-0.0548703,0.0,0.0
360,89.75,44.0821,45.0677,183.015,100.56,101.521,0.000722551,0.0472376,20.9437,47.7039,-0.0726999,0.0,0.0
362,90.25,43.7535,45.0988,179.7,100.545,102.758,0.000741867,0.0472142,20.9436,47.7039,-0.166358,0.0,0.0
364,90.75,43.6072,45.0693,177.915,100.568,102.098,0.000751037,0.0471801,20.9436,47.754,-0.115397,0.0,0.0
366,91.25,43.3617,44.6892,180.574,100.553,100.833,0.00073486,0.0471389,20.9436,47.744,-0.0212398,0.0,0.0
368,91.75,43.6161,44.6522,180.829,100.572,102.656,0.000721757,0.047113,20.9436,47.734,-0.156705,0.0,0.0
370,92.25,43.3538,44.842,179.824,100.536,101.843,0.000711143,0.0470989,20.9436,47.744,-0.0987224,0.0,0.0
372,92.75,43.3484,44.5925,181.194,100.547,101.236,0.000676475,0.0470875,20.9435,47.754,-0.0521898,0.0,0.0
374,93.25,43.567,44.6592,182.303,100.554,101.604,0.000661695,0.0471052,20.9435,47.754,-0.0793159,0.0,0.0
376,93.75,43.6241,44.5982,180.669,100.547,101.446,0.00063185,0.0471355,20.9435,47.734,-0.0680309,0.0,0.0
378,94.25,43.0854,44.8591,182.01,100.549,101.112,0.000591501,0.0471706,20.9435,47.744,-0.042669,0.0,0.0
380,94.75,43.2793,44.6342,180.876,100.559,102.326,0.000580647,0.04718,20.9435,47.744,-0.133158,0.0,0.0
382,95.25,43.326,44.4822,179.817,100.562,101.658,0.000564793,0.047203,20.9435,47.754,-0.0828766,0.0,0.0
384,95.75,43.5835,44.6742,185.816,100.561,101.567,0.000560528,0.0471941,20.9435,47.744,-0.0760951,0.0,0.0
386,96.25,43.615,44.2325,184.412,100.558,101.658,0.000563165,0.0471789,20.9435,47.754,-0.0831786,0.0,0.0
388,96.75,43.4038,44.4795,182.593,100.582,100.828,0.0005653,0.0471742,20.9435,47.734,-0.0186296,0.0,0.0
390,97.25,43.4757,44.0432,181.673,100.567,101.132,0.000580688,0.0471771,20.9435,47.734,-0.0428403,0.0,0.0
392,97.75,43.454,44.1671,180.279,100.56,101.293,0.000605002,0.0472234,20.9435,47.734,-0.0554373,0.0,0.0
394,98.25,43.2922,44.5348,178.977,100.568,101.729,0.000615668,0.0472427,20.9435,47.744,-0.0877081,0.0,0.0
396,98.75,43.128,44.4375,179.816,100.555,101.316,0.000633906,0.0472831,20.9435,47.744,-0.0576068,0.0,0.0
398,99.25,43.2006,44.4948,181.64,100.556,102.513,0.000651948,0.0473226,20.9435,47.734,-0.147346,0.0,0.0
400,99.75,43.3446,44.9768,177.722,100.553,103.144,0.000669504,0.0473547,20.9435,47.734,-0.194363,0.0,0.0
402,100.25,43.1374,44.4848,181.594,100.561,101.855,0.000679802,0.0473806,20.9435,47.724,-0.0976889,0.0,0.0
404,100.75,42.8954,44.5404,183.019,100.553,102.3,0.000684613,0.0474016,20.9435,47.734,-0.131604,0.0,0.0
406,101.25,43.4006,44.7235,182.841,100.573,102.226,0.000681972,0.04739,20.9435,47.734,-0.124502,0.0,0.0
408,101.75,43.7362,44.3961,184.131,100.537,102.035,0.00067395,0.0473806,20.9435,47.734,-0.113016,0.0,0.0
410,102.25,42.9658,44.8867,181.844,100.563,102.211,0.000661571,0.0473872,20.9435,47.724,-0.124174,0.0,0.0
412,102.75,43.4968,44.5104,181.288,100.553,101.405,0.000646251,0.0473927,20.9435,47.734,-0.0644923,0.0,0.0
414,103.25,43.1907,44.7064,177.078,100.572,100.76,0.000633842,0.0473541,20.9435,47.734,-0.0142732,0.0,0.0
416,103.75,43.4694,44.2448,183.896,100.55,101.929,0.000616343,0.0473228,20.9435,47.734,-0.104087,0.0,0.0
418,104.25,43.0705,44.8472,186.099,100.56,100.844,0.000602168,0.0472975,20.9435,47.734,-0.0215436,0.0,0.0
420,104.75,43.4206,44.3492,185.311,100.548,100.862,0.000585792,0.0472886,20.9435,47.7139,-0.0238885,0.0,0.0
422,105.25,42.9793,44.0494,177.858,100.547,101.991,0.000582694,0.0472863,20.9435,47.7139,-0.108916,0.0,0.0
424,105.75,42.6831,44.4057,185.913,100.553,102.844,0.000577395,0.0472822,20.9433,47.7039,-0.172149,0.0,0.0
426,106.25,43.1988,44.1549,177.347,100.553,103.099,0.000573104,0.0473089,20.9432,47.7139,-0.191084,0.0,0.0
428,106.75,43.3949,44.3766,184.437,100.54,102.495,0.000576151,0.0473305,20.9432,47.7139,-0.147167,0.0,0.0
430,107.25,43.2181,44.3622,182.894,100.564,102.035,0.00058449,0.0473631,20.9433,47.7039,-0.111023,0.0,0.0
432,107.75,42.9907,43.9909,182.367,100.548,102.599,0.00060739,0.0474031,20.9433,47.7039,-0.154299,0.0,0.0
434,108.25,43.4103,44.0068,182.086,100.558,101.799,0.00062594,0.0474128,20.9434,47.734,-0.0936801,0.0,0.0
436,108.75,43.1516,44.2837,180.061,100.568,102.186,0.000652082,0.0474004,20.9434,47.7039,-0.121956,0.0,0.0
438,109.25,42.4648,44.2727,181.424,100.566,101.025,0.000683264,0.0473676,20.9434,47.6839,-0.0347411,0.0,0.0
440,109.75,43.0369,44.345,178.48,100.541,102.439,0.000718466,0.0473208,20.9434,47.7139,-0.142882,0.0,0.0
442,110.25,43.0952,44.2622,184.259,100.562,102.146,0.000746979,0.0473054,20.9435,47.6939,-0.11944,0.0,0.0
444,110.75,42.9731,44.2054,176.76,100.551,102.181,0.000770075,0.0473134,20.9435,47.724,-0.122853,0.0,0.0
446,111.25,43.2753,44.3057,182.119,100.561,101.205,0.000788783,0.0473055,20.9435,47.6939,-0.0487906,0.0,0.0
448,111.75,42.6231,44.2866,180.201,100.56,100.677,0.000795234,0.0472991,20.9435,47.6939,-0.00893335,0.0,0.0
450,112.25,43.2368,44.1762,181.351,100.56,100.922,0.00080046,0.0472788,20.9435,47.6739,-0.0274929,0.0,0.0
452,112.75,43.0285,44.2942,180.584,100.548,102.489,0.000804693,0.0472488,20.9435,47.724,-0.14607,0.0,0.0
454,113.25,42.7706,44.0245,177.122,100.562,103.481,0.000782028,0.0472245,20.9435,47.7139,-0.218659,0.0,0.0
456,113.75,43.0793,43.729,179.717,100.556,102.055,0.00076367,0.0472191,20.9435,47.7039,-0.113083,0.0,0.0
458,114.25,42.9515,44.0883,187.494,100.556,101.17,0.000732656,0.0472148,20.9435,47.7039,-0.046559,0.0,0.0
460,114.75,42.8698,44.1964,181.823,100.562,101.971,0.000707535,0.04724,20.9435,47.6939,-0.106281,0.0,0.0
462,115.25,42.8423,44.2569,179.187,100.571,101.486,0.000683277,0.0472604,20.9435,47.724,-0.0692396,0.0,0.0
464,115.75,42.9086,44.3306,181.452,100.569,101.264,0.000660108,0.0472769,20.9435,47.6939,-0.0526819,0.0,0.0
466,116.25,42.651,44.0248,177.579,100.559,101.685,0.000641342,0.0472316,20.9435,47.7139,-0.0850773,0.0,0.0
468,116.75,42.9977,44.1587,179.997,100.558,102.718,0.000638556,0.0471949,20.9434,47.7139,-0.16241,0.0,0.0
470,117.25,42.8378,44.2736,182.509,100.567,101.375,0.0006363,0.0471796,20.9433,47.7039,-0.0611918,0.0,0.0
472,117.75,42.5849,43.8556,184.272,100.561,102.849,0.000640681,0.0471671,20.9432,47.6939,-0.171913,0.0,0.0
474,118.25,42.7477,44.1867,178.086,100.551,101.628,0.00064423,0.0471571,20.9431,47.6839,-0.0814227,0.0,0.0
476,118.75,42.8328,44.1383,179.372,100.565,101.529,0.000634687,0.0471489,20.943,47.7139,-0.0729298,0.0,0.0
478,119.25,42.8707,43.8589,175.084,100.559,101.562,0.000626958,0.0471498,20.9429,47.7139,-0.0758724,0.0,0.0
480,119.75,42.9559,44.0988,177.629,100.548,101.652,0.000620697,0.0471574,20.9429,47.734,-0.0834356,0.0,0.0
482,120.25,42.9811,43.8843,182.816,100.565,101.91,0.00056972,0.0471635,20.9429,47.734,-0.101481,0.0,0.0
484,120.75,42.7991,44.2759,178.959,100.573,102.712,0.000528428,0.0471541,20.9428,47.734,-0.16077,0.0,0.0
486,121.25,42.597,43.8162,183.869,100.554,101.757,0.000472669,0.0471465,20.9428,47.7139,-0.0909376,0.0,0.0
488,121.75,42.5233,44.2037,182.128,100.573,102.766,0.000427505,0.0471328,20.9428,47.6939,-0.164861,0.0,0.0
490,122.25,42.7286,44.3057,181.923,100.542,101.413,0.000388313,0.0471149,20.9428,47.6939,-0.065931,0.0,0.0
492,122.75,43.0732,43.9915,180.646,100.573,101.532,0.00035422,0.0471155,20.9427,47.7139,-0.0725449,0.0,0.0
494,123.25,42.9952,43.7421,179.695,100.549,101.228,0.000327844,0.0471296,20.9427,47.7039,-0.0514451,0.0,0.0
496,123.75,42.6727,44.2316,177.257,100.564,102.427,0.000306479,0.047156,20.9427,47.744,-0.140297,0.0,0.0
498,124.25,42.8453,43.8851,183.78,100.538,102.007,0.000287869,0.0471911,20.9427,47.744,-0.11088,0.0,0.0
500,124.75,42.5418,44.2025,178.395,100.56,101.102,0.000271621,0.0472043,20.9427,47.734,-0.0410729,0.0,0.0
502,125.25,42.8021,44.2152,179.278,100.532,102.338,0.000257157,0.0472015,20.9427,47.744,-0.136076,0.0,0.0
504,125.75,42.4626,43.9899,180.234,100.547,101.966,0.000244267,0.0471992,20.9427,47.734,-0.107056,0.0,0.0
506,126.25,42.4598,44.2555,181.752,100.547,101.312,0.000233826,0.0471544,20.9427,47.734,-0.0579615,0.0,0.0
508,126.75,42.8468,44.0611,180.242,100.559,101.415,0.000225368,0.0471181,20.9427,47.734,-0.0647573,0.0,0.0
510,127.25,42.658,43.9256,183,100.546,101.279,0.000233388,0.0470887,20.9427,47.724,-0.0554956,0.0,0.0
512,127.75,42.8629,44.0924,183.07,100.565,101.789,0.000239884,0.0470648,20.9427,47.7139,-0.092421,0.0,0.0
514,128.25,42.3726,43.9881,180.801,100.552,101.288,0.000245145,0.0470599,20.9427,47.7039,-0.0556667,0.0,0.0
516,128.75,42.4734,44.157,178.832,100.57,100.748,0.000260563,0.0470558,20.9431,47.6839,-0.0135153,0.0,0.0
518,129.25,43.0018,43.3919,184.688,100.546,101.43,0.000273052,0.047045,20.9439,47.7039,-0.0668453,0.0,0.0
520,129.75,42.1686,43.8693,182.953,100.558,101.781,0.000284407,0.0470295,20.9445,47.7139,-0.0923739,0.0,0.0
522,130.25,42.5784,43.9827,180.478,100.566,101.417,0.000293605,0.0470312,20.9449,47.724,-0.0643683,0.0,0.0
524,130.75,42.2336,43.7915,179.109,100.573,101.276,0.000306015,0.0470326,20.9453,47.7139,-0.0532236,0.0,0.0
526,131.25,42.4588,44.291,181.916,100.543,101.329,0.000316067,0.0470338,20.9457,47.7139,-0.0594812,0.0,0.0
528,131.75,42.1981,43.923,179.395,100.552,101.494,0.000335371,0.0470347,20.9459,47.6939,-0.0712511,0.0,0.0
530,132.25,42.7957,44.089,183.275,100.55,101.661,0.000351007,0.0470355,20.9461,47.6839,-0.084031,0.0,0.0
532,132.75,42.4793,43.958,179.933,100.577,102.51,0.000383523,0.0470361,20.9463,47.6739,-0.145439,0.0,0.0
534,133.25,42.5499,44.2287,182.01,100.563,101.293,0.000409861,0.0470516,20.9464,47.6239,-0.0552566,0.0,0.0
536,133.75,42.3305,44.0568,177.788,100.575,101.675,0.000431195,0.0470778,20.9465,47.6039,-0.0831234,0.0,0.0
538,134.25,42.3689,43.9464,181.751,100.563,101.456,0.000462129,0.0470991,20.9466,47.5938,-0.0676007,0.0,0.0
540,134.75,42.1957,43.7294,180.716,100.576,102.006,0.000487186,0.0471162,20.9467,47.6339,-0.107857,0.0,0.0
542,135.25,42.5901,43.9746,183.953,100.562,101.743,0.000500034,0.0471302,20.9468,47.6439,-0.0891849,0.0,0.0
544,135.75,42.4443,43.744,182.372,100.558,101.901,0.000510441,0.0471414,20.9468,47.6339,-0.101435,0.0,0.0
546,136.25,42.4942,43.9047,185.181,100.558,102.073,0.000502545,0.0471506,20.9468,47.6139,-0.114325,0.0,0.0
548,136.75,42.5511,44.0115,180.375,100.563,101.805,0.000481457,0.047158,20.9469,47.5838,-0.0938442,0.0,0.0
550,137.25,43.175,44.1387,177.731,100.555,102.384,0.000464375,0.0471353,20.9469,47.6139,-0.137783,0.0,0.0
552,137.75,42.4574,43.8451,177.944,100.561,102.045,0.000428222,0.0471169,20.9469,47.6339,-0.111978,0.0,0.0
554,138.25,42.5508,43.8671,182.41,100.575,102.045,0.000398938,0.0471021,20.9469,47.6839,-0.110891,0.0,0.0
556,138.75,42.5116,43.8886,180.455,100.565,101.479,0.000364066,0.04709,20.947,47.7139,-0.0691936,0.0,0.0
558,139.25,42.5349,43.7738,187.012,100.552,101.691,0.000335819,0.0471089,20.947,47.6839,-0.0860575,0.0,0.0
560,139.75,42.2196,43.5165,185.085,100.56,102.092,0.000319135,0.0471242,20.947,47.6939,-0.115506,0.0,0.0
562,140.25,42.9318,43.7333,182.768,100.569,101.374,0.000305621,0.0471366,20.947,47.6739,-0.0609158,0.0,0.0
564,140.75,42.5842,44.1645,179.556,100.547,101.915,0.000294675,0.0471467,20.947,47.6839,-0.103212,0.0,0.0
566,141.25,42.4325,43.4211,182.388,100.554,101.223,0.000282028,0.0471583,20.947,47.6539,-0.0507078,0.0,0.0
568,141.75,42.3437,44.0821,180.999,100.553,101.764,0.000269497,0.0471614,20.947,47.6339,-0.0914944,0.0,0.0
570,142.25,42.2655,43.5229,178.514,100.564,101.582,0.000248068,0.0471667,20.947,47.6639,-0.0769733,0.0,0.0
572,142.75,42.6237,44.3662,185.863,100.555,100.886,0.000230711,0.0471424,20.947,47.6739,-0.0250993,0.0,0.0
574,143.25,42.2691,43.7253,180.999,100.561,101.164,0.000200552,0.0471227,20.947,47.6739,-0.0456371,0.0,0.0
576,143.75,42.0757,43.81,179.636,100.541,101.445,0.000173517,0.0470924,20.947,47.6739,-0.068359,0.0,0.0
578,144.25,42.0293,43.4115,180.542,100.561,101.547,0.000149273,0.0470679,20.947,47.6739,-0.0745711,0.0,0.0
580,144.75,42.5616,44.2633,180.796,100.565,101.645,0.000133545,0.047048,20.947,47.6839,-0.0816395,0.0,0.0
582,145.25,42.4828,43.7718,182.445,100.552,102.186,0.000124324,0.0470319,20.947,47.6839,-0.123133,0.0,0.0
584,145.75,42.5116,44.1268,178.509,100.546,101.595,0.000122069,0.0470045,20.947,47.6739,-0.0793274,0.0,0.0
586,146.25,42.4413,43.9793,180.159,100.554,102.08,0.000124936,0.0469823,20.947,47.6739,-0.115122,0.0,0.0
588,146.75,42.3274,44.0991,176.64,100.56,101.592,0.000127258,0.0469719,20.947,47.6939,-0.0779915,0.0,0.0
590,147.25,42.329,43.2933,177.977,100.537,102.363,0.000129139,0.0469703,20.947,47.7039,-0.137536,0.0,0.0
592,147.75,42.4751,43.6049,184.335,100.55,100.862,0.00015916,0.0469689,20.947,47.6939,-0.0237377,0.0,0.0
594,148.25,42.5413,43.7029,181.178,100.579,101.096,0.000183477,0.0470108,20.947,47.6939,-0.0391838,0.0,0.0
596,148.75,42.6949,44.2599,181.323,100.551,101.981,0.000227973,0.0470448,20.947,47.6739,-0.1079,0.0,0.0
598,149.25,42.3032,43.8656,185.005,100.561,100.935,0.000264014,0.047058,20.947,47.6739,-0.0283742,0.0,0.0
600,149.75,42.3087,43.7178,184.568,100.545,101.169,0.000315542,0.0470686,20.947,47.6839,-0.0472198,0.0,0.0
602,150.25,42.2033,43.6126,180.23,100.558,102.783,0.000357279,0.0470773,20.947,47.6839,-0.167268,0.0,0.0
604,150.75,42.724,43.7776,178.795,100.551,101.637,0.000391086,0.0470556,20.947,47.6839,-0.0820446,0.0,0.0
606,151.25,42.4724,43.8951,178.687,100.579,102.464,0.000437091,0.0470381,20.9471,47.6739,-0.141894,0.0,0.0
608,151.75,42.4233,43.8884,185.592,100.546,101.61,0.00047893,0.0469952,20.9472,47.6639,-0.0804169,0.0,0.0
610,152.25,42.4693,43.7174,184.197,100.558,101.569,0.000516938,0.0469605,20.9473,47.6639,-0.0764304,0.0,0.0
612,152.75,42.5967,43.7703,181.249,100.529,100.537,0.000554916,0.0469466,20.9474,47.6839,-0.00057938,0.0,0.0
614,153.25,42.3047,44.1084,180.323,100.536,101.274,0.000592151,0.0469355,20.9474,47.6639,-0.0559067,0.0,0.0
616,153.75,42.6834,43.7401,178.605,100.552,102.414,0.000622312,0.0469566,20.9475,47.6939,-0.140215,0.0,0.0
618,154.25,42.3388,44.0863,180.481,100.548,102.012,0.000656554,0.0470008,20.9475,47.7139,-0.110466,0.0,0.0
620,154.75,42.8036,44.2713,183.411,100.543,101.908,0.00069312,0.0470291,20.9475,47.7139,-0.103079,0.0,0.0
622,155.25,42.752,44.2956,181.213,100.544,101.943,0.000722739,0.0470453,20.9476,47.6939,-0.105532,0.0,0.0
624,155.75,42.0879,43.5792,182.445,100.547,101.731,0.00074673,0.0470584,20.9476,47.6739,-0.0894627,0.0,0.0
626,156.25,41.9887,43.761,184.384,100.53,102.02,0.000757659,0.0470689,20.9476,47.6639,-0.112475,0.0,0.0
628,156.75,42.3517,43.8093,176.547,100.543,101.216,0.000758857,0.0470775,20.9476,47.6839,-0.0510535,0.0,0.0
630,157.25,41.8287,44.1991,178.741,100.531,101.506,0.000759829,0.0470714,20.9476,47.6839,-0.073723,0.0,0.0
632,157.75,42.3481,43.6964,182.748,100.54,101.198,0.000730786,0.0470665,20.9476,47.7039,-0.0498614,0.0,0.0
634,158.25,42.8528,43.5815,179.108,100.52,102.143,0.000707261,0.047055,20.9476,47.6939,-0.122363,0.0,0.0
636,158.75,42.4565,43.8928,179.887,100.541,101.68,0.000660901,0.0470388,20.9477,47.6839,-0.0860925,0.0,0.0
638,159.25,41.975,44.1342,183.054,100.533,101.312,0.00062335,0.0470408,20.9479,47.6739,-0.0590186,0.0,0.0