File: 01_Data/Feather_Pillow_Feathers/Cone/Feather_Pillow_Feathers_Cone_HF50Scan_230710_R3.csv
Names,Time,Stack TC,Smoke TC,Exh Press,Smoke Comp,Smoke Meas,CO Meter,CO2 Meter,O2 Meter,Sample Mass,Ext Coeff,Start Test,Flame Verif
Chan Gain,,500,500,1,1,1,1,1,1,1,1,1.0,1.0
Offset,,0,0,0.18266,0,0,0,0,0,0,0,0.0,0.0
Gain,,1,1,25.011,12.977,51.8855,1,1,1,1.00092,0.871134,1.0,1.0
Units,sec,C,C,Pa,%,%,%,%,%,g,/m,,
Baseline,,54.6524,57.2604,173.87,100.032,100.694,-4.56684e-05,0.0443258,20.9553,-446.635,-0.050157,,
2,0.25,53.6353,54.8198,178.419,100.03,100.376,0.000162172,0.0439619,20.9555,49.5757,-0.026426,0.0,0.0
4,0.75,53.3059,54.8916,174.876,100.019,100.333,0.000166069,0.043932,20.9555,49.6357,-0.0239575,0.0,0.0
6,1.25,52.8641,54.6977,177.273,100.017,101.838,0.000169226,0.0439793,20.9555,49.6858,-0.137854,0.0,0.0
8,1.75,53.5262,54.8914,177.84,99.9979,97.8948,0.000166827,0.0440176,20.9557,49.6057,0.16242,0.0,0.0
10,2.25,52.9711,54.9221,176.159,100.033,94.6884,0.000164885,0.0440336,20.9561,49.5556,0.419561,0.0,0.0
12,2.75,53.7125,54.7549,169.344,99.9911,92.8992,0.000155879,0.044033,20.9561,49.5356,0.562163,0.0,0.0
14,3.25,53.6061,55.4159,170.723,100.036,90.4924,0.000148585,0.0440325,20.9559,49.4856,0.766196,0.0,0.0
16,3.75,52.8596,55.0144,171.091,100.004,88.6778,0.00014724,0.0440321,20.9557,49.3955,0.918534,0.0,0.0
18,4.25,53.079,55.4534,171.556,100.011,88.7854,0.000150258,0.0440393,20.9561,49.3354,0.909746,0.0,0.0
20,4.75,53.762,55.9165,172.737,100.001,84.914,0.000168356,0.0440519,20.9563,49.2854,1.24971,0.0,0.0
22,5.25,53.5746,55.7701,174.015,100.007,85.1198,0.000197104,0.0440847,20.9565,49.2554,1.23163,0.0,0.0
24,5.75,53.7151,55.841,169.49,100.001,84.3139,0.000238014,0.0441316,20.9567,49.1953,1.30391,0.0,0.0
26,6.25,53.8487,56.3012,174.646,100.005,83.4794,0.000287015,0.0441696,20.9569,49.1152,1.38021,0.0,0.0
28,6.75,54.228,56.5441,170.572,100.019,84.8063,0.000339772,0.0442434,20.957,49.0852,1.2608,0.0,0.0
30,7.25,53.8711,56.4365,170.705,100.016,81.9387,0.000394265,0.0443031,20.9571,49.0352,1.52338,0.0,0.0
32,7.75,53.8034,56.8566,176.93,99.999,81.9847,0.000438405,0.0443229,20.9571,48.805,1.51783,0.0,0.0
34,8.25,54.4802,56.8184,163.496,100.002,96.6629,0.00047089,0.0443389,20.9572,48.7749,0.259493,0.0,1.0
36,8.75,54.2073,57.7751,151.771,99.9947,102.864,0.000494263,0.0443594,20.9572,48.6548,-0.216155,0.0,1.0
38,9.25,54.5459,58.3966,154.265,100.017,103.342,0.000504702,0.0443827,20.9573,48.6548,-0.249902,0.0,1.0
40,9.75,54.9598,59.2955,153.761,99.9911,100.881,0.000505514,0.0444017,20.9569,48.5247,-0.0677179,0.0,1.0
42,10.25,55.3544,60.2287,152.859,100.009,103.011,0.000506172,0.0446032,20.9565,48.4346,-0.225967,0.0,1.0
44,10.75,55.848,61.8229,149.435,99.9887,101.902,0.000507926,0.0447664,20.9563,48.3645,-0.144873,0.0,1.0
46,11.25,56.4096,63.161,148.971,99.9876,102.392,0.000509346,0.0453297,20.956,48.3445,-0.181565,0.0,1.0
48,11.75,57.0973,63.9282,147.17,99.9899,102.921,0.000560172,0.045786,20.9559,48.2244,-0.220752,0.0,1.0
50,12.25,57.5112,65.4834,160.72,99.9931,103.296,0.00060134,0.0467005,20.9559,48.1243,-0.248321,0.0,1.0
52,12.75,57.015,65.4641,158.143,99.9899,102.634,0.000723024,0.0474413,20.956,48.1143,-0.199443,0.0,1.0
54,13.25,57.7833,66.2767,153.576,100.018,100.94,0.000821587,0.0486156,20.956,48.0843,-0.0701271,0.0,1.0
56,13.75,58.3234,66.5499,146.649,99.9848,98.6581,0.0010187,0.0495667,20.956,47.9942,0.102078,0.0,1.0
58,14.25,58.8543,67.7933,152.385,99.9971,96.7215,0.00117837,0.0503372,20.9555,47.814,0.254499,0.0,1.0
60,14.75,59.1566,67.5544,146.636,99.9828,95.1904,0.00130769,0.0519389,20.9552,47.744,0.375348,0.0,1.0
62,15.25,59.6235,69.2527,153.838,99.9915,97.6415,0.00151796,0.0532363,20.9549,47.724,0.181737,0.0,1.0
64,15.75,59.8371,70.3757,156.61,99.9824,94.7153,0.00178324,0.05795,20.9542,47.6139,0.413546,0.0,0.0
66,16.25,60.3776,71.1253,150.785,99.988,91.0561,0.00206633,0.0650647,20.9536,47.5838,0.715052,0.0,0.0
68,16.75,61.0078,71.7197,142.279,100,87.7293,0.00235704,0.0796008,20.9532,47.4437,1.0004,0.0,0.0
70,17.25,61.3048,72.8254,138.472,99.9927,87.4522,0.00263302,0.0992708,20.9528,47.4837,1.024,0.0,0.0
72,17.75,62.1647,74.1068,155.786,99.9891,92.3497,0.00289303,0.124196,20.9512,47.4037,0.607341,0.0,0.0
74,18.25,62.5691,74.5471,160.813,99.9915,87.297,0.00312227,0.152479,20.9499,47.3036,1.03748,0.0,0.0
76,18.75,62.4488,74.5954,150.315,99.9812,82.4818,0.00332471,0.181633,20.9327,47.2035,1.47026,0.0,0.0
78,19.25,63.1794,75.5053,152.276,99.9733,83.101,0.0034807,0.210868,20.9188,47.2135,1.41251,0.0,0.0
80,19.75,63.1223,76.5272,150.72,99.961,84.5007,0.00359987,0.237469,20.8816,47.1334,1.28393,0.0,0.0
82,20.25,64.1843,77.1835,153.775,99.9654,85.9385,0.00366515,0.261642,20.8515,47.1334,1.15534,0.0,0.0
84,20.75,64.3171,76.9897,151.078,99.9844,85.028,0.00368992,0.281223,20.8071,47.0333,1.23818,0.0,0.0
86,21.25,64.7861,77.6993,152.626,99.9594,88.5289,0.00370998,0.300941,20.771,46.9032,0.92795,0.0,0.0
88,21.75,64.7392,78.3133,148.685,99.9693,90.4702,0.00366522,0.316912,20.7348,46.9132,0.762954,0.0,0.0
90,22.25,65.0589,78.8588,161.813,99.9396,94.31,0.00357406,0.333243,20.6991,46.9933,0.443051,0.0,0.0
92,22.75,65.5656,78.6764,158.059,99.9618,93.0116,0.00347633,0.349524,20.6702,46.9132,0.550681,0.0,0.0
94,23.25,65.6329,78.6526,157.275,99.9345,94.1976,0.00339716,0.362713,20.6467,46.9733,0.451772,0.0,0.0
96,23.75,65.7379,79.105,162.849,99.946,96.5695,0.00333304,0.378761,20.6211,46.9833,0.262613,0.0,0.0
98,24.25,66.1862,78.7147,158.982,99.9389,98.0437,0.0032811,0.396589,20.6003,46.9633,0.1463,0.0,0.0
100,24.75,66.0216,78.5572,168.671,99.9456,102.773,0.0034205,0.41103,20.5751,46.9533,-0.213201,0.0,0.0
102,25.25,65.9837,78.8287,164.717,99.9317,102.427,0.00353342,0.431236,20.5548,46.9733,-0.188434,0.0,0.0
104,25.75,66.3836,77.9441,169.052,99.9373,102.219,0.00387201,0.447603,20.5319,46.9533,-0.172519,0.0,0.0
106,26.25,66.0463,77.9186,170.631,99.9301,102.327,0.00414627,0.463363,20.5077,46.9232,-0.181109,0.0,0.0
108,26.75,65.8022,77.4671,167.897,99.9301,102.67,0.00462866,0.476128,20.4816,46.9232,-0.206725,0.0,0.0
110,27.25,66.109,77.1147,165.125,99.9234,101.136,0.0050194,0.48641,20.4544,46.9633,-0.0921812,0.0,0.0
112,27.75,65.9778,76.6489,168.7,99.9218,101.774,0.00556183,0.494739,20.4258,47.0033,-0.140366,0.0,0.0
114,28.25,65.8799,76.4366,169.399,99.9004,101.695,0.0060012,0.499829,20.3968,46.9833,-0.136054,0.0,0.0
116,28.75,65.8972,76.816,167.69,99.9246,101.815,0.00648214,0.50246,20.3732,46.9933,-0.143244,0.0,0.0
118,29.25,65.1751,74.9856,170.011,99.904,101.502,0.00698424,0.504592,20.3537,47.0133,-0.121253,0.0,0.0
120,29.75,65.0223,74.3165,165.694,99.9345,100.555,0.00743666,0.499252,20.3379,47.0033,-0.0473,0.0,0.0
122,30.25,64.6583,74.1254,168.135,99.9139,101.041,0.00784428,0.494926,20.3251,46.9533,-0.0857268,0.0,0.0
124,30.75,64.9213,73.7613,166.296,99.9155,101.293,0.00817444,0.480773,20.3147,46.9633,-0.104623,0.0,0.0
126,31.25,64.8801,73.2258,172.865,99.8937,101.803,0.00839387,0.46931,20.3063,46.9933,-0.144656,0.0,0.0
128,31.75,64.5631,73.3157,171.251,99.9131,101.353,0.0085716,0.44644,20.2995,46.9933,-0.109342,0.0,0.0
130,32.25,64.3859,72.8505,169.332,99.8913,102.436,0.0085474,0.427915,20.2998,46.9733,-0.192232,0.0,0.0
132,32.75,64.1824,72.4689,170.573,99.9076,101.274,0.00852779,0.405175,20.3052,46.9833,-0.103795,0.0,0.0
134,33.25,64.3126,71.9978,169.924,99.8751,101.426,0.00828664,0.379795,20.3174,46.9633,-0.11774,0.0,0.0
136,33.75,63.7131,72.1528,169.052,99.8992,101.7,0.00809131,0.352699,20.3342,46.9633,-0.136502,0.0,0.0
138,34.25,64.0671,72.0474,173.565,99.8771,101.98,0.00770401,0.324868,20.3479,46.9733,-0.159228,0.0,0.0
140,34.75,63.9303,71.3656,169.715,99.8874,101.176,0.0073903,0.302324,20.3795,46.9633,-0.0979284,0.0,0.0
142,35.25,63.9328,71.6976,169.752,99.8719,101.117,0.0071362,0.271708,20.4051,46.9533,-0.0946835,0.0,0.0
144,35.75,64.7114,70.9536,173.478,99.8897,102.794,0.00678516,0.246909,20.4258,46.9533,-0.219002,0.0,0.0
146,36.25,64.1293,71.0234,172.607,99.8664,100.743,0.00637012,0.223376,20.4605,46.9633,-0.0668159,0.0,0.0
148,36.75,63.7541,70.328,170.989,99.8652,100.88,0.005982,0.201212,20.4885,46.9533,-0.0772291,0.0,0.0
150,37.25,63.6403,69.8658,168.253,99.845,102.167,0.00562087,0.181703,20.5287,46.9232,-0.17567,0.0,0.0
152,37.75,63.0593,70.1722,167.095,99.8688,101.063,0.00530377,0.1645,20.5612,46.9232,-0.0908564,0.0,0.0
154,38.25,63.0835,70.0995,171.814,99.8513,100.761,0.00502478,0.150566,20.6014,46.9332,-0.0692887,0.0,0.0
156,38.75,62.8389,69.4743,172.858,99.8442,100.5,0.00479415,0.137547,20.634,46.9332,-0.0499949,0.0,0.0
158,39.25,63.014,69.4139,168.634,99.8371,102.639,0.00460315,0.127001,20.6716,46.9132,-0.211488,0.0,0.0
160,39.75,63.3633,69.2006,169.048,99.8181,101.116,0.00445177,0.117734,20.702,46.9232,-0.0986859,0.0,0.0
162,40.25,63.4521,68.608,166.497,99.8371,101.838,0.00433214,0.11012,20.732,46.9432,-0.151603,0.0,0.0
164,40.75,63.3812,68.8127,172.06,99.8268,101.152,0.00424121,0.103857,20.7563,46.9533,-0.100771,0.0,0.0
166,41.25,62.9166,68.5987,174.261,99.8398,101.201,0.00417294,0.0987841,20.7778,46.9232,-0.103478,0.0,0.0
168,41.75,63.3012,68.1411,168.058,99.8097,101.885,0.00411765,0.0945917,20.797,46.9032,-0.157259,0.0,0.0
170,42.25,63.1695,68.0545,177.531,99.8157,101.605,0.00408482,0.091121,20.8125,46.8832,-0.135755,0.0,0.0
172,42.75,62.6602,68.7199,171.556,99.7907,102.132,0.00406899,0.0883098,20.8268,46.9132,-0.177218,0.0,0.0
174,43.25,62.4365,68.0495,169.655,99.8137,101.513,0.00406414,0.0859312,20.8385,46.8932,-0.128996,0.0,0.0
176,43.75,63.3246,67.9784,171.655,99.809,102.195,0.0040674,0.0840046,20.8489,46.9232,-0.180561,0.0,0.0
178,44.25,62.1382,67.7305,168.368,99.807,103.423,0.00407403,0.0823426,20.8583,46.9332,-0.271924,0.0,0.0
180,44.75,62.3823,68.0106,167.052,99.7749,101.952,0.00408682,0.0804224,20.87,46.9432,-0.164914,0.0,0.0
182,45.25,63.3078,68.1356,171.95,99.7836,102.009,0.00408936,0.0793831,20.8763,46.9633,-0.168518,0.0,0.0
184,45.75,62.4169,67.3424,169.902,99.7705,101.705,0.00408783,0.0785413,20.8814,46.9533,-0.14671,0.0,0.0
186,46.25,62.1756,67.2169,170.155,99.784,101.526,0.00408717,0.0781824,20.8835,46.9332,-0.132224,0.0,0.0
188,46.75,62.1173,67.5295,175.364,99.7523,101.971,0.00408606,0.0775458,20.8886,46.9332,-0.168067,0.0,0.0
190,47.25,62.2969,67.0606,171.522,99.7674,102.194,0.00404852,0.0770096,20.8927,46.9232,-0.183626,0.0,0.0
192,47.75,62.0019,67.6483,173.02,99.7523,101.445,0.00401812,0.0766362,20.8966,46.9032,-0.12857,0.0,0.0
194,48.25,62.4779,66.5928,166.566,99.7555,101.956,0.00396447,0.0763887,20.8998,46.9332,-0.166756,0.0,0.0
196,48.75,62.22,66.5952,170.341,99.7301,101.993,0.00392101,0.0761882,20.9024,46.9332,-0.171427,0.0,0.0
198,49.25,62.2403,66.5304,171.265,99.7452,101.008,0.00388581,0.0761852,20.9045,46.9032,-0.0961256,0.0,0.0
200,49.75,62.2215,66.4046,170.084,99.7286,102.742,0.00380561,0.0761828,20.9062,46.8532,-0.227457,0.0,0.0
202,50.25,62.0924,66.2923,169.559,99.7416,100.8,0.00374065,0.0761579,20.9076,46.8732,-0.0806898,0.0,0.0
204,50.75,62.1125,66.6193,168.954,99.7135,101.499,0.00364774,0.0761172,20.9087,46.8431,-0.135598,0.0,0.0
206,51.25,61.8264,66.4148,170.691,99.7195,101.716,0.00357249,0.0759538,20.9096,46.8532,-0.151457,0.0,0.0
208,51.75,61.5539,65.5858,164.933,99.7048,100.531,0.00349101,0.0758214,20.9106,46.8331,-0.0630786,0.0,0.0
210,52.25,62.0303,65.8607,172.092,99.7088,101.641,0.00340655,0.0757745,20.9116,46.8532,-0.146684,0.0,0.0
212,52.75,61.8894,66.0454,166.881,99.681,102.013,0.00332492,0.0757907,20.9124,46.8532,-0.176733,0.0,0.0
214,53.25,61.923,65.8478,170.509,99.6905,100.284,0.00324688,0.0758649,20.9133,46.8832,-0.0453722,0.0,0.0
216,53.75,61.8291,65.9523,168.2,99.6806,100.785,0.00317508,0.0759798,20.914,46.8632,-0.0841632,0.0,0.0
218,54.25,61.7683,65.5504,167.348,99.6822,101.182,0.00310919,0.0759738,20.9147,46.8632,-0.114116,0.0,0.0
220,54.75,61.687,65.7067,176.017,99.6482,100.487,0.00305383,0.0758797,20.9152,46.8632,-0.0640495,0.0,0.0
222,55.25,62.0255,65.8008,172.52,99.662,101.53,0.00300721,0.0758035,20.9156,46.8632,-0.141928,0.0,0.0
224,55.75,61.4503,65.6601,172.84,99.6505,102.482,0.00296944,0.0755131,20.9159,46.8832,-0.214098,0.0,0.0
226,56.25,61.6267,65.6956,171.13,99.6458,100.439,0.0029095,0.0748841,20.9163,46.8431,-0.0606183,0.0,0.0
228,56.75,61.296,65.2558,171.034,99.6311,101.635,0.0028908,0.0747149,20.9164,46.8331,-0.152159,0.0,0.0
230,57.25,61.9212,65.4359,171.748,99.641,100.305,0.00285223,0.0743677,20.9165,46.8231,-0.0507362,0.0,0.0
232,57.75,61.9983,65.2279,171.785,99.5979,100.959,0.00281504,0.0740865,20.9167,46.8331,-0.103706,0.0,0.0
234,58.25,61.5259,65.2435,175.151,99.6129,100.937,0.00277832,0.0737429,20.9168,46.8231,-0.100873,0.0,0.0
236,58.75,61.6705,65.3383,167.428,99.6042,101.043,0.00274263,0.0734646,20.9173,46.8031,-0.109569,0.0,0.0
238,59.25,61.3999,65.2936,168.214,99.5832,101.465,0.00270251,0.0730801,20.9178,46.8231,-0.143086,0.0,0.0
240,59.75,61.4793,65.2387,171.676,99.5983,101.003,0.00265991,0.0727382,20.9181,46.8532,-0.107031,0.0,0.0
242,60.25,61.3298,65.4551,176.261,99.5709,101.437,0.00261287,0.0724338,20.9184,46.8331,-0.141881,0.0,0.0
244,60.75,60.9535,65.0442,171.024,99.5812,99.4799,0.00256349,0.0721949,20.9186,46.8331,0.00778367,0.0,0.0
246,61.25,61.734,64.9063,167.613,99.563,99.9485,0.00251559,0.0720082,20.9188,46.8131,-0.0295319,0.0,0.0
248,61.75,61.3896,65.2715,171.422,99.5765,101.385,0.00246966,0.071857,20.9194,46.8231,-0.137518,0.0,0.0
250,62.25,61.9671,64.7865,171.159,99.5583,100.439,0.00241661,0.071798,20.9201,46.8331,-0.0673333,0.0,0.0
252,62.75,61.2405,64.853,174.191,99.5666,101.097,0.00238948,0.0718024,20.9205,46.7831,-0.116527,0.0,0.0
254,63.25,61.3082,64.8667,170.345,99.5432,101.899,0.00237792,0.0717975,20.9206,46.7631,-0.17876,0.0,0.0
256,63.75,61.5367,65.0169,171.515,99.5523,99.9026,0.00235814,0.0717889,20.921,46.7831,-0.0268406,0.0,0.0
258,64.25,61.1832,64.7361,173.655,99.5361,101.312,0.00234086,0.0717287,20.9214,46.8031,-0.135127,0.0,0.0
260,64.75,61.1843,64.3447,172.566,99.5317,101.201,0.00231962,0.071632,20.9217,46.8131,-0.127097,0.0,0.0
262,65.25,61.3151,64.7766,174.82,99.527,100.984,0.0022959,0.0715537,20.9219,46.8031,-0.111064,0.0,0.0
264,65.75,60.5378,64.6615,168.929,99.5464,101.093,0.00227668,0.0713456,20.9221,46.7931,-0.117837,0.0,0.0
266,66.25,61.3489,64.34,169.124,99.5179,101.13,0.00222983,0.0711771,20.9222,46.8131,-0.122778,0.0,0.0
268,66.75,60.9343,64.2641,166.597,99.5377,102.089,0.00219188,0.0709105,20.9223,46.8131,-0.193422,0.0,0.0
270,67.25,61.2695,64.0787,170.333,99.5179,101.277,0.0021493,0.0706946,20.9224,46.8532,-0.133898,0.0,0.0
272,67.75,61.1843,64.4327,175.029,99.523,101.171,0.00210415,0.0704588,20.9225,46.8131,-0.125494,0.0,0.0
274,68.25,61.1992,64.1371,177.386,99.4985,100.593,0.00206757,0.070213,20.9226,46.8031,-0.0836013,0.0,0.0
276,68.75,60.5835,64.1546,171.7,99.508,101.481,0.00202414,0.070014,20.9226,46.7831,-0.150055,0.0,0.0
278,69.25,61.1899,64.2188,173.491,99.5155,100.907,0.00197653,0.0698528,20.9227,46.8031,-0.106073,0.0,0.0
280,69.75,61.0392,64.0536,174.437,99.5099,101.423,0.00193796,0.0696066,20.9227,46.8131,-0.145489,0.0,0.0
282,70.25,60.5869,63.9448,169.89,99.5123,100.504,0.00188898,0.0694072,20.9226,46.8231,-0.0757974,0.0,0.0
284,70.75,60.9418,64.1865,171.713,99.5107,101.231,0.00183334,0.0692601,20.9226,46.7831,-0.13098,0.0,0.0
286,71.25,61.1208,63.9379,170.79,99.4795,101.507,0.00177448,0.069141,20.9226,46.8031,-0.154151,0.0,0.0
288,71.75,60.0555,63.7868,169.054,99.5107,102.371,0.0017144,0.0689867,20.9228,46.7931,-0.216557,0.0,0.0
290,72.25,60.3429,63.7178,172.188,99.4862,101.871,0.00165392,0.0688617,20.9232,46.7931,-0.181002,0.0,0.0
292,72.75,61.0543,63.5384,166.358,99.4945,100.875,0.00159431,0.0686997,20.9235,46.8331,-0.105286,0.0,0.0
294,73.25,60.9777,64.1013,170.979,99.4644,102.406,0.0015447,0.0685137,20.9238,46.8231,-0.222716,0.0,0.0
296,73.75,60.7645,63.8813,171.965,99.4957,101.16,0.00150335,0.0683478,20.924,46.7931,-0.126755,0.0,0.0
298,74.25,60.5685,63.3946,175.694,99.468,100.577,0.00147116,0.0681998,20.9246,46.7931,-0.0847402,0.0,0.0
300,74.75,60.5118,63.8727,175.866,99.462,100.503,0.00144627,0.0681179,20.9251,46.7631,-0.0795405,0.0,0.0
302,75.25,60.3684,63.4041,169.032,99.4434,100.395,0.00142807,0.0680858,20.9255,46.7631,-0.0727794,0.0,0.0
304,75.75,60.747,63.7996,173.501,99.4399,100.872,0.0014151,0.0680598,20.9258,46.7931,-0.109244,0.0,0.0
306,76.25,60.4963,63.6109,170.025,99.4383,102.495,0.0014046,0.0679521,20.9261,46.8031,-0.231338,0.0,0.0
308,76.75,60.6436,63.6817,169.028,99.4074,101.746,0.0013961,0.0678648,20.9263,46.7831,-0.177668,0.0,0.0
310,77.25,59.9673,63.5287,170.424,99.4129,102.325,0.00139294,0.0677029,20.9265,46.8031,-0.220644,0.0,0.0
312,77.75,60.5206,63.6576,169.832,99.409,101.66,0.00138449,0.0674898,20.9266,46.7731,-0.171122,0.0,0.0
314,78.25,60.1643,63.5249,169.564,99.409,100.759,0.00137232,0.0672259,20.9267,46.7731,-0.103097,0.0,0.0
316,78.75,60.1166,63.6177,172.662,99.3943,100.292,0.00135133,0.0669302,20.9268,46.7831,-0.0687165,0.0,0.0
318,79.25,60.6018,63.8549,170.067,99.3955,100.175,0.00132428,0.0666223,20.9271,46.8131,-0.0596919,0.0,0.0
320,79.75,60.5584,63.1006,174.316,99.39,100.691,0.00129255,0.0663114,20.9276,46.7931,-0.0993933,0.0,0.0
322,80.25,60.1798,63.3416,167.484,99.3864,99.8298,0.001258,0.0660064,20.9279,46.8031,-0.034015,0.0,0.0
324,80.75,60.1753,63.2295,172.591,99.3733,100.634,0.00122805,0.0657115,20.9282,46.7931,-0.0963452,0.0,0.0
326,81.25,60.2568,63.2555,174.916,99.3836,101.497,0.00120202,0.0654575,20.9285,46.7831,-0.160802,0.0,0.0
328,81.75,60.2168,63.5323,172.55,99.3492,102.77,0.00118486,0.0652381,20.9291,46.7831,-0.258702,0.0,0.0
330,82.25,60.1705,63.392,167.763,99.3535,100.721,0.00117451,0.0650604,20.9297,46.7731,-0.104477,0.0,0.0
332,82.75,60.1231,62.9128,171.515,99.3349,101.693,0.00116612,0.064902,20.9301,46.7731,-0.179316,0.0,0.0
334,83.25,59.7716,63.7787,171.457,99.3428,101.771,0.00115998,0.0647737,20.9304,46.7731,-0.184535,0.0,0.0
336,83.75,60.5784,63.3059,172.959,99.3393,100.051,0.0011556,0.0646698,20.9307,46.7631,-0.0545891,0.0,0.0
338,84.25,60.0841,63.6646,169.007,99.327,101.453,0.00114681,0.0646145,20.9309,46.7931,-0.161819,0.0,0.0
340,84.75,60.0852,63.3027,165.963,99.2977,100.786,0.00113497,0.0645696,20.9311,46.8031,-0.113698,0.0,0.0
342,85.25,60.2735,63.4051,170.873,99.3246,100.148,0.00112538,0.0644757,20.9313,46.8031,-0.0630901,0.0,0.0
344,85.75,60.1887,62.9993,171.257,99.2993,100.52,0.00110392,0.0643995,20.9314,46.8031,-0.0933804,0.0,0.0
346,86.25,59.6375,63.3941,171.034,99.3005,100.571,0.00108654,0.0642696,20.9315,46.8131,-0.0971395,0.0,0.0
348,86.75,60.4139,63.0491,170.209,99.2973,99.4181,0.00106854,0.0641028,20.9316,46.7831,-0.00929132,0.0,0.0
350,87.25,59.8841,63.0183,175.999,99.3266,101.242,0.00105042,0.063907,20.9316,46.7731,-0.145971,0.0,0.0
352,87.75,59.9629,62.9954,168.729,99.2787,101.255,0.00102985,0.0636939,20.9317,46.7431,-0.150614,0.0,0.0
354,88.25,59.9297,63.2493,170.147,99.2862,99.9454,0.00100788,0.0634908,20.9317,46.7531,-0.0505657,0.0,0.0
356,88.75,60.4148,63.1784,170.472,99.2906,101.435,0.000979623,0.0632991,20.9317,46.7531,-0.16331,0.0,0.0
358,89.25,60.3716,63.0502,171.362,99.2854,101.35,0.00094731,0.0631437,20.9318,46.7731,-0.157262,0.0,0.0
360,89.75,60.2803,62.9786,169.574,99.2664,99.0998,0.000905399,0.0627999,20.9318,46.7631,0.0128326,0.0,0.0
362,90.25,60.0605,62.6561,167.073,99.2704,100.37,0.000891236,0.0626241,20.9318,46.7431,-0.0841613,0.0,0.0
364,90.75,60.0752,63.1447,170.158,99.2597,100.428,0.000856691,0.0624817,20.9323,46.733,-0.0894439,0.0,0.0
366,91.25,59.6987,62.8753,172.849,99.2656,100.343,0.000847399,0.062368,20.9325,46.723,-0.0824774,0.0,0.0
368,91.75,59.8936,63.4897,169.937,99.2553,100.718,0.000861343,0.0621734,20.9327,46.703,-0.111795,0.0,0.0
370,92.25,60.4686,62.8644,171.937,99.2727,99.9216,0.000872639,0.0619931,20.9327,46.723,-0.0497863,0.0,0.0
372,92.75,60.1192,63.3201,169.937,99.2426,101.296,0.000896193,0.0618265,20.9328,46.713,-0.156495,0.0,0.0
374,93.25,60.3672,63.4957,172.108,99.2624,101.629,0.000928237,0.0615659,20.9334,46.703,-0.180013,0.0,0.0
376,93.75,59.7831,63.1403,172.269,99.2569,101.032,0.000964676,0.0614527,20.9336,46.693,-0.135423,0.0,0.0
378,94.25,59.4483,63.4119,168.674,99.2367,100.013,0.00100363,0.0612592,20.9339,46.7431,-0.0595804,0.0,0.0
380,94.75,60.1516,63.3314,169.277,99.2335,101.502,0.00103845,0.0610161,20.9342,46.7431,-0.172709,0.0,0.0
382,95.25,59.7067,62.9999,168.178,99.2308,101.516,0.00106961,0.0608268,20.9344,46.7831,-0.173995,0.0,0.0
384,95.75,60.2307,63.1937,168.444,99.2359,101.648,0.00109223,0.0606802,20.9346,46.7631,-0.183485,0.0,0.0
386,96.25,59.9026,62.687,169.433,99.2315,100.414,0.00110819,0.0605615,20.9347,46.7531,-0.0905241,0.0,0.0
388,96.75,60.1287,63.3445,171.68,99.2391,100.02,0.00112112,0.0604577,20.9348,46.7531,-0.0598815,0.0,0.0
390,97.25,59.8963,63.3503,166.478,99.2078,100.493,0.00112897,0.0603669,20.9349,46.7831,-0.0983763,0.0,0.0
392,97.75,59.8977,63.3278,173.348,99.2256,102.14,0.00113297,0.0602933,20.935,46.7931,-0.221209,0.0,0.0
394,98.25,60.0147,62.8854,165.224,99.2062,100.628,0.00113227,0.0601473,20.935,46.7931,-0.108726,0.0,0.0
396,98.75,59.8109,63.5132,171.925,99.2102,102.062,0.00112818,0.0600291,20.9355,46.7931,-0.216591,0.0,0.0
398,99.25,59.9888,63.078,173.662,99.1947,101.093,0.00111634,0.0598325,20.9359,46.7731,-0.14488,0.0,0.0
400,99.75,59.6913,63.2193,169.378,99.1959,98.9352,0.00109909,0.0596733,20.9362,46.7831,0.0201135,0.0,0.0
402,100.25,60.2102,63.2226,177.795,99.1781,100.487,0.00107464,0.0594149,20.9365,46.7831,-0.100183,0.0,0.0
404,100.75,60.0906,63.2766,167.458,99.1789,99.692,0.00104541,0.0591904,20.9367,46.7631,-0.0394356,0.0,0.0
406,101.25,60.0221,62.9154,173.549,99.1583,101.565,0.00101453,0.0589949,20.9369,46.7531,-0.183272,0.0,0.0
408,101.75,59.8949,62.9978,170.228,99.1824,99.8567,0.000983046,0.0588062,20.937,46.7431,-0.0517734,0.0,0.0
410,102.25,60.2954,63.2148,168.05,99.1539,101.769,0.000954924,0.0586262,20.9371,46.7631,-0.19896,0.0,0.0
412,102.75,60.3332,62.7876,169.071,99.131,101.537,0.000941695,0.0584803,20.9372,46.7531,-0.183233,0.0,0.0
414,103.25,59.7154,62.9862,170.807,99.127,101.123,0.000919073,0.0583652,20.9373,46.7631,-0.152373,0.0,0.0
416,103.75,59.8679,62.7331,171.655,99.1464,101.529,0.000901404,0.0581682,20.9373,46.713,-0.181447,0.0,0.0
418,104.25,59.6683,63.1516,171.321,99.1147,100.194,0.000887681,0.0580087,20.9374,46.723,-0.0827582,0.0,0.0
420,104.75,59.9186,63.301,168.952,99.1492,100.861,0.000871987,0.0577213,20.9374,46.723,-0.130775,0.0,0.0
422,105.25,60.1282,63.1408,172.498,99.1203,99.9406,0.000855154,0.0574885,20.9375,46.693,-0.062984,0.0,0.0
424,105.75,59.4714,63.1077,173.558,99.129,101.291,0.000834979,0.0572711,20.9375,46.703,-0.164893,0.0,0.0
426,106.25,59.887,62.8375,168.833,99.108,99.1869,0.000812751,0.0569974,20.9382,46.693,-0.00608295,0.0,0.0
428,106.75,59.9924,62.8514,167.652,99.1143,100.104,0.000794747,0.0569094,20.9383,46.703,-0.0759023,0.0,0.0
430,107.25,59.9221,62.2758,169.718,99.1001,101.093,0.000778922,0.0567589,20.9387,46.693,-0.152176,0.0,0.0
432,107.75,60.1122,62.144,171.213,99.0993,101.833,0.000766103,0.0565766,20.9389,46.723,-0.207928,0.0,0.0
434,108.25,59.9695,62.4083,169.211,99.0858,100.664,0.000755719,0.0563744,20.9391,46.713,-0.12077,0.0,0.0
436,108.75,59.7141,62.5754,166.134,99.0854,100.512,0.000747309,0.0561243,20.9393,46.703,-0.109253,0.0,0.0
438,109.25,59.7481,62.7588,171.418,99.0664,99.8805,0.00073056,0.0559218,20.9394,46.683,-0.0625358,0.0,0.0
440,109.75,59.7354,62.7625,173.652,99.0672,99.7364,0.000716993,0.0557653,20.9395,46.693,-0.0514424,0.0,0.0
442,110.25,59.573,62.0486,174.384,99.068,99.6192,0.000706004,0.0556454,20.9396,46.703,-0.0423987,0.0,0.0
444,110.75,59.6748,62.424,170.592,99.0561,99.2075,0.000671031,0.0555483,20.9397,46.713,-0.0116699,0.0,0.0
446,111.25,59.5106,62.6999,169.983,99.0399,100.759,0.000642702,0.0554408,20.9397,46.703,-0.131522,0.0,0.0
448,111.75,59.4261,62.7845,174.293,99.0557,100.645,0.000608589,0.0553538,20.9398,46.703,-0.121649,0.0,0.0
450,112.25,59.8233,62.8561,167.811,99.0383,100.438,0.000581609,0.0552115,20.9398,46.683,-0.107228,0.0,0.0
452,112.75,59.4983,62.87,171.667,99.0268,99.2898,0.000560344,0.0550962,20.9398,46.703,-0.0202712,0.0,0.0
454,113.25,59.8012,62.9433,172.152,99.0474,100.378,0.000543118,0.0550028,20.9401,46.723,-0.101946,0.0,0.0
456,113.75,59.7359,62.8617,172.084,99.0145,100.473,0.000529166,0.0548696,20.9405,46.723,-0.111712,0.0,0.0
458,114.25,59.7885,62.5583,170.255,99.0319,101.758,0.000528969,0.0547618,20.9409,46.693,-0.207535,0.0,0.0
460,114.75,59.2725,62.7331,172.712,98.9844,100.541,0.000538804,0.0546518,20.9411,46.703,-0.119212,0.0,0.0
462,115.25,59.5723,62.8002,167.944,99.0058,101.453,0.000562912,0.0545423,20.9414,46.683,-0.186568,0.0,0.0
464,115.75,59.3927,62.9081,173.517,99.0038,100.813,0.00058244,0.0544248,20.9415,46.673,-0.138385,0.0,0.0
466,116.25,59.6125,62.5278,176.444,98.9995,101.15,0.000604467,0.0543297,20.9415,46.693,-0.164243,0.0,0.0
468,116.75,59.881,62.8059,172.468,98.9888,101.199,0.00062231,0.0542526,20.9412,46.733,-0.168777,0.0,0.0
470,117.25,59.6639,62.8706,165.833,98.9745,100.474,0.000636763,0.0541327,20.9412,46.7431,-0.11492,0.0,0.0
472,117.75,59.5018,62.6672,173.765,98.9591,100.986,0.000648469,0.0540356,20.9414,46.733,-0.154912,0.0,0.0
474,118.25,59.3972,62.4761,172.643,98.9615,101.693,0.000657951,0.053957,20.9416,46.733,-0.208099,0.0,0.0
476,118.75,59.1513,62.7289,173.253,98.9504,101.7,0.000665632,0.0538502,20.9417,46.723,-0.209431,0.0,0.0
478,119.25,59.6623,62.0526,170.106,98.9642,100.764,0.000675581,0.0537637,20.9418,46.733,-0.137721,0.0,0.0
480,119.75,59.4119,62.1482,169.199,98.9527,101.173,0.000683639,0.0537223,20.9419,46.713,-0.169526,0.0,0.0
482,120.25,59.5221,62.2911,167.997,98.9583,101.443,0.000691408,0.0536661,20.942,46.693,-0.189522,0.0,0.0
484,120.75,59.2982,62.5015,176.6,98.946,100.748,0.000697701,0.0536002,20.9421,46.673,-0.137927,0.0,0.0
486,121.25,59.6812,62.6741,171.212,98.9432,101.139,0.000707769,0.0535469,20.9421,46.683,-0.167748,0.0,0.0
488,121.75,59.2243,62.9646,174.276,98.9191,101.481,0.000715923,0.0534605,20.9421,46.683,-0.195412,0.0,0.0
490,122.25,59.519,62.5332,169.276,98.9373,101.125,0.000720043,0.0533906,20.9422,46.693,-0.167131,0.0,0.0
492,122.75,59.0373,62.1561,168.944,98.9116,100.146,0.000723381,0.0533483,20.9422,46.683,-0.0948144,0.0,0.0
494,123.25,58.9242,62.5384,168.792,98.9369,100.048,0.000721115,0.0533141,20.9422,46.673,-0.0853615,0.0,0.0
496,123.75,59.5693,62.4667,171.547,98.9286,100.552,0.000719279,0.0532289,20.9422,46.663,-0.124366,0.0,0.0
498,124.25,59.6695,62.6968,164.524,98.9135,99.5194,0.000717792,0.0531599,20.9423,46.673,-0.0466653,0.0,0.0
500,124.75,59.5581,62.6216,175.589,98.8914,100.243,0.000706651,0.053104,20.9423,46.683,-0.103741,0.0,0.0
502,125.25,59.3394,61.8606,165.947,98.9199,100.672,0.000697627,0.0529857,20.9425,46.673,-0.13418,0.0,0.0
504,125.75,59.2886,62.7162,176.172,98.8965,101.182,0.000696547,0.0528898,20.9429,46.653,-0.174587,0.0,0.0
506,126.25,59.3812,62.2342,168.97,98.8941,100.997,0.000695672,0.0527116,20.9432,46.673,-0.160767,0.0,0.0
508,126.75,59.4654,62.1673,170.963,98.8906,99.2028,0.00069869,0.0525673,20.9433,46.693,-0.0240854,0.0,0.0
510,127.25,59.3831,62.3379,173.636,98.883,99.1489,0.000701135,0.0523975,20.9434,46.683,-0.0205182,0.0,0.0
512,127.75,58.9337,62.3221,168.621,98.8834,99.8393,0.000699192,0.0522124,20.9435,46.683,-0.0735115,0.0,0.0
514,128.25,59.5865,62.5438,170.753,98.8858,100.522,0.000694088,0.0520398,20.9435,46.693,-0.125384,0.0,0.0
516,128.75,59.2459,62.6184,168.448,98.8731,100.867,0.000685379,0.0518796,20.9436,46.673,-0.152559,0.0,0.0
518,129.25,59.1616,62.4805,173.03,98.8743,100.085,0.000674207,0.0517196,20.9436,46.673,-0.0929774,0.0,0.0
520,129.75,59.5927,62.203,171.202,98.8803,100.626,0.000656663,0.0515628,20.9437,46.693,-0.133753,0.0,0.0
522,130.25,59.1203,62.339,174.361,98.8668,100.723,0.000634808,0.0514359,20.9437,46.673,-0.142125,0.0,0.0
524,130.75,59.2854,62.4109,170.976,98.8708,100.639,0.000617106,0.0512469,20.9437,46.653,-0.135449,0.0,0.0
526,131.25,59.6208,62.696,172.543,98.8676,100.842,0.000593623,0.0510939,20.9437,46.643,-0.151068,0.0,0.0
528,131.75,59.3237,62.1649,172.449,98.8763,101.545,0.000566373,0.0508982,20.9437,46.643,-0.203484,0.0,0.0
530,132.25,59.4577,62.768,171.995,98.8506,100.39,0.000534509,0.0507397,20.9438,46.643,-0.118111,0.0,0.0
532,132.75,59.0614,62.1861,170.92,98.8597,101.157,0.000499887,0.0506037,20.9438,46.633,-0.17552,0.0,0.0
534,133.25,59.8074,62.4292,172.371,98.8514,100.818,0.000458143,0.0504868,20.9438,46.653,-0.150523,0.0,0.0
536,133.75,59.3325,62.3264,169.827,98.8613,99.9216,0.000412001,0.0503845,20.9438,46.643,-0.0815249,0.0,0.0
538,134.25,59.5623,62.59,170.232,98.8458,99.5954,0.000362238,0.0502949,20.9438,46.673,-0.057733,0.0,0.0
540,134.75,59.1932,62.1111,169.003,98.8438,99.6255,0.000310782,0.0502072,20.9438,46.693,-0.0601941,0.0,0.0
542,135.25,59.7722,62.4403,171.392,98.8363,101.572,0.000269103,0.0501226,20.9438,46.713,-0.208601,0.0,0.0
544,135.75,59.8355,62.2657,164.29,98.849,101.152,0.000235343,0.0500541,20.9438,46.703,-0.175988,0.0,0.0
546,136.25,59.0737,62.3809,172.125,98.8232,99.7411,0.000186952,0.0499986,20.9438,46.723,-0.070647,0.0,0.0
548,136.75,59.2927,62.5334,171.505,98.8454,101.285,0.000147755,0.0498532,20.9447,46.683,-0.186304,0.0,0.0
550,137.25,59.6158,62.3037,174.867,98.8312,101.611,0.000116006,0.0497355,20.9454,46.693,-0.211977,0.0,0.0
552,137.75,59.6925,62.6539,167.207,98.8292,100.639,9.02892e-05,0.0496023,20.9459,46.683,-0.138664,0.0,0.0
554,138.25,59.2782,62.4742,169.68,98.826,99.8884,6.94585e-05,0.0494606,20.9464,46.673,-0.0817062,0.0,0.0
556,138.75,59.5317,62.9945,166.849,98.8422,101.632,5.75364e-05,0.0493457,20.9468,46.663,-0.212668,0.0,0.0
558,139.25,59.5173,62.6408,170.473,98.8185,99.6873,4.78795e-05,0.0492301,20.9471,46.673,-0.066889,0.0,0.0
560,139.75,59.3785,62.4873,173.235,98.83,101.868,4.13605e-05,0.049116,20.9473,46.693,-0.231335,0.0,0.0
562,140.25,59.1635,62.1308,172.536,98.8161,101.703,3.7253e-05,0.0490312,20.9475,46.683,-0.220044,0.0,0.0
564,140.75,59.4349,62.0574,171.934,98.8339,100.704,3.6532e-05,0.0489692,20.9477,46.683,-0.143224,0.0,0.0
566,141.25,59.1002,62.5942,172.339,98.8125,101.196,3.82934e-05,0.0489115,20.9478,46.663,-0.182154,0.0,0.0
568,141.75,59.4683,62.1342,168.69,98.8181,99.8504,4.55854e-05,0.048858,20.9479,46.683,-0.0794107,0.0,0.0
570,142.25,59.267,62.0785,176.685,98.7999,100.107,5.67704e-05,0.0487844,20.9484,46.693,-0.100426,0.0,0.0
572,142.75,59.2774,62.2071,168.565,98.8264,100.037,7.30011e-05,0.0486977,20.9489,46.683,-0.0930535,0.0,0.0
574,143.25,59.522,61.944,174.615,98.807,101.184,9.26015e-05,0.0485897,20.9492,46.693,-0.181626,0.0,0.0
576,143.75,59.1348,62.237,170.341,98.824,99.2328,0.00011826,0.0484683,20.9495,46.693,-0.0315453,0.0,0.0
578,144.25,58.8046,61.9571,174.217,98.7884,99.8282,0.000147848,0.0483699,20.9497,46.673,-0.0800114,0.0,0.0
580,144.75,59.1756,62.7338,170.753,98.7987,99.5875,0.000171815,0.0482903,20.9499,46.693,-0.0607703,0.0,0.0
582,145.25,59.4163,62.2589,170.571,98.8098,100.357,0.000201015,0.0482258,20.9501,46.713,-0.118733,0.0,0.0
584,145.75,59.2023,62.9098,170.454,98.7947,100.659,0.000233477,0.0481659,20.9502,46.713,-0.142891,0.0,0.0
586,146.25,59.0948,62.677,170.837,98.771,101.074,0.00026434,0.0481107,20.9503,46.733,-0.176158,0.0,0.0
588,146.75,59.5665,62.5283,170.817,98.8137,100.137,0.000293451,0.0480584,20.9504,46.703,-0.10165,0.0,0.0
590,147.25,59.7272,62.3925,172.127,98.8102,99.5749,0.000317032,0.0480093,20.9504,46.703,-0.0589093,0.0,0.0
592,147.75,59.6098,62.5191,168.074,98.8137,99.3009,0.000336131,0.0479695,20.9505,46.713,-0.0375825,0.0,0.0
594,148.25,58.8756,62.4602,172.761,98.803,100.346,0.000351602,0.0478799,20.9505,46.693,-0.11841,0.0,0.0
595,148.5,59.6202,62.422,174.368,98.8125,98.7214,0.000349713,0.0478417,20.9505,46.693,0.00705289,0.0,0.0