File: 01_Data/Feather_Pillow_Feathers/Cone/Feather_Pillow_Feathers_Cone_HF50Scan_230710_R2.csv
Names,Time,Stack TC,Smoke TC,Exh Press,Smoke Comp,Smoke Meas,CO Meter,CO2 Meter,O2 Meter,Sample Mass,Ext Coeff,Start Test,Flame Verif
Chan Gain,,500,500,1,1,1,1,1,1,1,1,1.0,1.0
Offset,,0,0,0.18266,0,0,0,0,0,0,0,0.0,0.0
Gain,,1,1,25.011,12.9861,52.0581,1,1,1,1.00092,0.871134,1.0,1.0
Units,sec,C,C,Pa,%,%,%,%,%,g,/m,,
Baseline,,55.8363,58.0948,174.044,99.6774,99.9784,3.38473e-05,0.0444385,20.952,-446.56,-0.0228256,,
2,0.25,54.7248,55.632,175.758,100.097,100.256,0.000176131,0.0453153,20.9539,49.7658,-0.0121343,0.0,0.0
4,0.75,54.5316,55.3846,176.069,100.085,100.183,0.000188506,0.0453445,20.9536,49.6657,-0.00741,0.0,0.0
6,1.25,54.2456,55.4092,172.713,100.061,100.117,0.00019853,0.0453825,20.9534,49.7058,-0.00434597,0.0,0.0
8,1.75,54.1786,55.4824,177.721,100.068,97.4739,0.000201692,0.0454132,20.9532,49.6557,0.200713,0.0,0.0
10,2.25,54.0367,55.7774,176.564,100.045,96.1235,0.000204254,0.045423,20.9531,49.5757,0.305592,0.0,0.0
12,2.75,54.1365,55.7325,170.102,100.06,93.4338,0.000190224,0.0454174,20.953,49.5456,0.523579,0.0,0.0
14,3.25,54.5251,56.107,171.789,100.033,89.424,0.00017886,0.0453903,20.9529,49.5056,0.856714,0.0,0.0
16,3.75,54.6644,55.9525,167.822,100.037,87.91,0.000164492,0.0453299,20.9528,49.4355,0.9875,0.0,0.0
18,4.25,54.4419,56.7523,179.634,100.02,83.0295,0.000160432,0.0453136,20.9527,49.2454,1.42263,0.0,0.0
20,4.75,54.6212,56.3595,156.228,100.017,99.9713,0.000165879,0.0452572,20.9527,49.1753,0.00348811,0.0,1.0
22,5.25,54.6305,56.5118,156.823,99.9904,104.264,0.000181441,0.0452115,20.9527,49.0051,-0.319809,0.0,1.0
24,5.75,54.8491,57.9526,149.824,100.015,104.394,0.000194046,0.0451459,20.9526,48.9651,-0.327443,0.0,1.0
26,6.25,55.6123,59.1338,164.785,99.9745,103.342,0.000230292,0.0450927,20.9526,48.835,-0.253188,0.0,1.0
28,6.75,55.7116,60.2516,153.665,99.9785,103.649,0.00025965,0.0450496,20.9526,48.7449,-0.275524,0.0,1.0
30,7.25,56.0925,60.7616,158.846,99.9511,103.031,0.000304669,0.0450147,20.9526,48.6548,-0.231916,0.0,1.0
32,7.75,56.3886,62.2946,149.147,99.965,103.09,0.000323783,0.0449864,20.9525,48.5647,-0.235214,0.0,1.0
34,8.25,57.1898,63.2064,146.473,99.9131,102.558,0.000356468,0.0449922,20.9525,48.5347,-0.199631,0.0,1.0
36,8.75,57.907,64.3499,157.599,99.9266,103.001,0.000386665,0.0449968,20.9525,48.4246,-0.231555,0.0,1.0
38,9.25,57.5632,64.7137,150.451,99.8996,102.348,0.000411125,0.0450579,20.9525,48.3345,-0.18502,0.0,1.0
40,9.75,58.2746,65.9089,156.781,99.8921,101.817,0.000430938,0.0451073,20.9525,48.2444,-0.145876,0.0,1.0
42,10.25,58.9621,66.0057,161.692,99.8691,103.26,0.000446986,0.0452831,20.9525,48.2044,-0.255138,0.0,0.0
44,10.75,58.4316,67.2449,152.991,99.8802,102.292,0.000484814,0.0455476,20.9525,48.1744,-0.182353,0.0,0.0
46,11.25,58.998,67.9349,154.527,99.8445,101.18,0.000515455,0.04626,20.9525,48.1143,-0.101553,0.0,0.0
48,11.75,59.3893,68.8262,152.601,99.8338,101.917,0.00060864,0.0472854,20.9525,48.0743,-0.157841,0.0,0.0
50,12.25,59.8002,68.7561,158.287,99.8311,100.129,0.000778606,0.0545214,20.9525,47.8941,-0.022739,0.0,0.0
52,12.75,59.9998,69.6098,149.97,99.8041,99.204,0.000863643,0.0574198,20.9525,47.9442,0.0460901,0.0,0.0
54,13.25,60.7291,70.0892,154.947,99.7835,97.4802,0.00100906,0.0623761,20.952,47.7139,0.178456,0.0,0.0
56,13.75,61.0326,70.9962,150.276,99.7696,95.5929,0.00112684,0.0834122,20.9517,47.6939,0.326795,0.0,0.0
58,14.25,60.5667,71.4105,158.241,99.7617,94.7842,0.0014137,0.100451,20.9502,47.6339,0.391104,0.0,0.0
60,14.75,61.8526,71.7973,157.05,99.7514,92.6189,0.00164606,0.124982,20.948,47.5638,0.566913,0.0,0.0
62,15.25,62.2778,72.6388,158.783,99.736,88.8028,0.00188849,0.154506,20.9461,47.5438,0.887241,0.0,0.0
64,15.75,62.5615,72.7333,154.373,99.7542,89.2397,0.00213366,0.183782,20.9313,47.5438,0.851135,0.0,0.0
66,16.25,63.104,73.7379,153.28,99.7673,86.056,0.00235942,0.212321,20.9192,47.5038,1.12974,0.0,0.0
68,16.75,63.553,74.1577,152.766,99.7593,84.6007,0.00256672,0.235437,20.8861,47.4137,1.25946,0.0,0.0
70,17.25,63.2313,75.4527,146.194,99.7708,81.1851,0.0027353,0.259341,20.8592,47.3236,1.57526,0.0,0.0
72,17.75,63.5864,76.4746,154.735,99.7855,85.2203,0.00287245,0.278704,20.8375,47.2635,1.2057,0.0,0.0
74,18.25,64.2436,76.5498,164.094,99.8069,86.4754,0.00298354,0.294388,20.8063,47.1935,1.09562,0.0,0.0
76,18.75,64.4152,77.4279,157.94,99.8112,87.203,0.00307352,0.305195,20.7687,47.2135,1.03193,0.0,0.0
78,19.25,65.4415,77.5929,154.494,99.8065,85.9972,0.00311619,0.31395,20.7312,47.1234,1.13797,0.0,0.0
80,19.75,65.3224,78.2697,153.071,99.8192,86.8932,0.00315075,0.320326,20.6945,47.0433,1.05973,0.0,0.0
82,20.25,65.459,77.925,157.944,99.8267,85.1012,0.00316867,0.325491,20.6627,47.0333,1.21955,0.0,0.0
84,20.75,65.8236,78.4411,158.25,99.8323,88.6916,0.00318319,0.331401,20.635,46.9833,0.904191,0.0,0.0
86,21.25,66.0932,78.3878,155.587,99.8663,88.1372,0.00319495,0.337742,20.6125,47.0433,0.95472,0.0,0.0
88,21.75,66.0341,79.1254,160.846,99.8398,89.1094,0.00325106,0.342878,20.5944,46.9933,0.868853,0.0,0.0
90,22.25,66.418,78.8327,157.033,99.8651,88.717,0.00329652,0.352976,20.5796,46.9533,0.904519,0.0,0.0
92,22.75,66.5788,79.2142,159.658,99.8628,92.6633,0.00343552,0.361156,20.5665,46.8532,0.571771,0.0,0.0
94,23.25,66.576,79.3133,166.281,99.8671,94.6206,0.00354812,0.373256,20.5549,46.9933,0.412379,0.0,0.0
96,23.75,66.8918,78.9411,164.383,99.8651,97.9441,0.00379122,0.383057,20.5421,46.9332,0.148425,0.0,0.0
98,24.25,66.8838,79.2758,163.328,99.883,98.219,0.00398813,0.394183,20.5289,46.9733,0.128377,0.0,0.0
100,24.75,67.2097,78.7424,163.954,99.8762,97.4596,0.00434728,0.406065,20.5181,46.9833,0.187173,0.0,0.0
102,25.25,67.6306,78.5561,166.165,99.9052,101.226,0.00463819,0.418907,20.5,46.9833,-0.100391,0.0,0.0
104,25.75,66.7192,78.6654,173.727,99.8802,100.378,0.00501657,0.432204,20.4853,47.0033,-0.0379894,0.0,0.0
106,26.25,66.6155,78.3336,167.356,99.9135,100.494,0.00545154,0.442809,20.4659,47.0133,-0.0442667,0.0,0.0
108,26.75,66.8055,77.9217,171.935,99.9064,102.138,0.00580387,0.451248,20.4501,47.0033,-0.168832,0.0,0.0
110,27.25,67.5016,77.5416,167.788,99.9274,101.898,0.00633136,0.458084,20.4275,46.9933,-0.149257,0.0,0.0
112,27.75,67.0156,76.9217,169.199,99.9282,101.681,0.00675862,0.460061,20.4092,46.9733,-0.132857,0.0,0.0
114,28.25,66.7678,76.7202,164.944,99.9385,101.692,0.0071885,0.458459,20.3944,47.0033,-0.132904,0.0,0.0
116,28.75,66.3635,76.4358,168.807,99.9337,101.708,0.00761211,0.457161,20.3824,47.0133,-0.134462,0.0,0.0
118,29.25,66.2827,76.2477,170.782,99.9523,101.307,0.00794432,0.448261,20.3727,47.0133,-0.102899,0.0,0.0
120,29.75,65.6016,74.7596,170.288,99.9337,101.547,0.00820358,0.441051,20.3648,47.0233,-0.122397,0.0,0.0
122,30.25,65.5147,74.4816,169.422,99.9567,102.599,0.00841358,0.428836,20.3584,47.0133,-0.199375,0.0,0.0
124,30.75,65.3895,74.0759,167.278,99.9587,101.403,0.00847495,0.418941,20.3586,46.9933,-0.109601,0.0,0.0
126,31.25,65.2226,73.9354,167.002,99.969,101.52,0.00844655,0.403879,20.3587,46.9833,-0.117668,0.0,0.0
128,31.75,64.669,73.356,166.472,99.9805,99.9125,0.00835327,0.391678,20.3647,46.9933,0.00519606,0.0,0.0
130,32.25,65.3665,73.2444,171.649,99.9924,99.5376,0.00827771,0.373207,20.3749,47.0033,0.034835,0.0,0.0
132,32.75,65.2696,73.083,170.452,99.9943,99.339,0.0080302,0.358246,20.392,47.0033,0.0502468,0.0,0.0
134,33.25,64.8749,72.7735,173.83,99.9809,100.848,0.00782973,0.33607,20.4059,46.9933,-0.0660078,0.0,0.0
136,33.75,64.9997,72.0763,168.596,99.9963,101.808,0.00749468,0.318107,20.4226,46.9933,-0.137191,0.0,0.0
138,34.25,65.0091,72.1721,169.815,100.019,100.227,0.0071076,0.286333,20.4488,46.9733,-0.0158563,0.0,0.0
140,34.75,65.3265,72.0249,166.538,100.015,101.071,0.00700348,0.276052,20.4558,46.9432,-0.0802079,0.0,0.0
142,35.25,64.9577,71.7191,167.317,100.015,102.197,0.00645544,0.250976,20.4934,46.9533,-0.164928,0.0,0.0
144,35.75,64.8212,71.6011,170.468,100.021,101.075,0.00630801,0.239032,20.5035,46.9533,-0.0801738,0.0,0.0
146,36.25,64.4904,71.6402,174.379,100.015,100.708,0.00593679,0.218607,20.5281,46.9633,-0.052803,0.0,0.0
148,36.75,64.848,70.9807,168.474,100.039,99.7806,0.0056361,0.199822,20.5545,46.9633,0.0197692,0.0,0.0
150,37.25,64.6908,71.0654,171.294,100.041,100.597,0.00536459,0.182589,20.576,46.9733,-0.0423612,0.0,0.0
152,37.75,64.7181,70.1373,175.158,100.056,101.033,0.0051195,0.167149,20.6063,46.9533,-0.0742363,0.0,0.0
154,38.25,64.1289,70.5666,174.029,100.053,102.056,0.00492099,0.15331,20.6308,46.9432,-0.151412,0.0,0.0
156,38.75,63.9923,70.2913,168.52,100.059,102.529,0.00476019,0.141478,20.6641,46.9533,-0.186354,0.0,0.0
158,39.25,64.3341,70.3731,171.159,100.063,102.153,0.00464192,0.131335,20.6911,46.9633,-0.157968,0.0,0.0
160,39.75,64.2475,69.4088,172.724,100.072,101.722,0.00455689,0.122775,20.7201,46.9332,-0.124937,0.0,0.0
162,40.25,64.0259,69.4088,168.688,100.078,101.137,0.00451459,0.11553,20.7436,46.9432,-0.0804376,0.0,0.0
164,40.75,63.7405,69.6071,165.89,100.075,101.965,0.00448032,0.109662,20.7649,46.9132,-0.142993,0.0,0.0
166,41.25,63.7562,69.4727,166.962,100.08,101.794,0.00445256,0.104687,20.7843,46.9232,-0.129761,0.0,0.0
168,41.75,64.0652,69.1446,175.445,100.109,100.993,0.00443007,0.100458,20.8001,46.9032,-0.0671467,0.0,0.0
170,42.25,63.5594,69.3438,173.795,100.087,100.001,0.00443718,0.097032,20.8139,46.8832,0.00653867,0.0,0.0
172,42.75,63.5118,69.3305,166.524,100.114,102.343,0.00444293,0.0941577,20.8261,46.8832,-0.168313,0.0,0.0
174,43.25,63.8153,68.2308,172.924,100.121,101.498,0.00444092,0.0917401,20.837,46.8932,-0.1044,0.0,0.0
176,43.75,63.8801,69.0208,173.007,100.119,100.882,0.00443331,0.089713,20.8466,46.8932,-0.0579712,0.0,0.0
178,44.25,63.9195,68.0996,167.307,100.115,102.135,0.00441182,0.0880092,20.8544,46.8832,-0.152636,0.0,0.0
180,44.75,63.8132,68.428,168.252,100.128,101.264,0.00438063,0.0865527,20.8616,46.8632,-0.0862228,0.0,0.0
182,45.25,63.4894,67.8258,169.38,100.128,101.747,0.00434273,0.0853042,20.8675,46.8732,-0.122581,0.0,0.0
184,45.75,63.3645,68.0641,163.668,100.153,101.341,0.00430064,0.0842012,20.874,46.8632,-0.0901001,0.0,0.0
186,46.25,63.2827,68.1611,166.888,100.156,102.216,0.00425592,0.0832253,20.8792,46.8632,-0.155611,0.0,0.0
188,46.75,63.2934,67.8833,172.13,100.162,101.541,0.00421011,0.0824196,20.8835,46.8732,-0.104483,0.0,0.0
190,47.25,63.3621,67.8508,167.915,100.147,101.814,0.00416105,0.0817532,20.887,46.8632,-0.126139,0.0,0.0
192,47.75,63.4833,67.3808,174.163,100.172,102.024,0.00411053,0.0812134,20.8907,46.8732,-0.139957,0.0,0.0
194,48.25,63.353,67.7242,173.104,100.18,101.698,0.00406962,0.0807685,20.8937,46.8632,-0.11495,0.0,0.0
196,48.75,63.2047,67.9023,167.116,100.196,102.183,0.00401921,0.0804013,20.8961,46.8832,-0.150063,0.0,0.0
198,49.25,62.6319,67.4478,172.03,100.173,101.549,0.00396284,0.0801039,20.8985,46.8732,-0.104205,0.0,0.0
200,49.75,62.7917,67.7826,174.293,100.208,100.84,0.00391718,0.0797904,20.9005,46.8632,-0.0480998,0.0,0.0
202,50.25,62.9129,67.07,169.245,100.194,102.645,0.00386127,0.0795365,20.9021,46.8732,-0.184649,0.0,0.0
204,50.75,62.9884,67.4501,167.914,100.198,103.098,0.00381599,0.0791858,20.9033,46.8532,-0.21798,0.0,0.0
206,51.25,63.106,67.1521,169.85,100.198,102.945,0.00375663,0.0789018,20.9044,46.8431,-0.206668,0.0,0.0
208,51.75,62.948,66.7937,168.028,100.215,102.168,0.00370854,0.0785702,20.9056,46.8331,-0.147483,0.0,0.0
210,52.25,63.0153,67.1287,169.507,100.227,102.119,0.0036507,0.0783016,20.9059,46.8431,-0.142893,0.0,0.0
212,52.75,62.9429,66.796,171.698,100.226,101.094,0.00357459,0.0780696,20.9064,46.8532,-0.0659173,0.0,0.0
214,53.25,62.6241,66.651,169.815,100.242,101.887,0.00354827,0.0778816,20.9071,46.8532,-0.124428,0.0,0.0
216,53.75,63.0219,66.4978,170.701,100.233,101.055,0.00350325,0.0776531,20.9079,46.8331,-0.0624008,0.0,0.0
218,54.25,63.1011,66.7987,169.442,100.251,101.503,0.00344665,0.0773993,20.9087,46.8131,-0.0948444,0.0,0.0
220,54.75,62.7904,66.361,170.481,100.261,101.328,0.0034008,0.0770794,20.9096,46.8231,-0.080891,0.0,0.0
222,55.25,62.5835,66.3037,167.9,100.264,102.106,0.00336367,0.0767173,20.9104,46.8532,-0.139132,0.0,0.0
224,55.75,62.8144,66.2433,174.152,100.254,102.58,0.00329712,0.076424,20.911,46.8431,-0.175296,0.0,0.0
226,56.25,62.8948,66.2238,165.071,100.267,102.35,0.00324322,0.0760492,20.9115,46.8832,-0.157089,0.0,0.0
228,56.75,62.9246,65.9971,172.834,100.271,102.261,0.00316061,0.0756222,20.9121,46.8832,-0.150143,0.0,0.0
230,57.25,62.1559,66.2068,169.885,100.276,102.332,0.0030937,0.0752306,20.9128,46.8832,-0.15512,0.0,0.0
232,57.75,62.5214,66.1195,167.282,100.269,101.26,0.00302035,0.0748722,20.9134,46.8532,-0.0751636,0.0,0.0
234,58.25,62.7128,65.9081,170.073,100.285,101.357,0.00294369,0.074582,20.9138,46.8732,-0.0812054,0.0,0.0
236,58.75,62.4337,65.9651,173.549,100.292,100.639,0.00286642,0.0743034,20.9142,46.9032,-0.0263607,0.0,0.0
238,59.25,62.1552,66.3387,172.053,100.27,102.048,0.00279017,0.0740778,20.915,46.8932,-0.134278,0.0,0.0
240,59.75,62.45,66.0902,173.337,100.281,101.724,0.00272841,0.0737938,20.9156,46.8732,-0.109156,0.0,0.0
242,60.25,62.2809,65.7816,168.358,100.288,103.261,0.00265332,0.0735637,20.9161,46.8732,-0.223301,0.0,0.0
244,60.75,62.0071,65.9349,175.374,100.286,101.543,0.00257866,0.0733629,20.9165,46.8431,-0.095146,0.0,0.0
246,61.25,62.5364,65.8143,173.088,100.285,101.833,0.00250573,0.0732002,20.9168,46.8331,-0.117054,0.0,0.0
248,61.75,62.2135,65.6459,165.879,100.283,102.253,0.00244666,0.0729093,20.9171,46.8431,-0.148612,0.0,0.0
250,62.25,62.0291,65.6021,171.071,100.332,102.153,0.0023751,0.0726736,20.9173,46.8632,-0.137416,0.0,0.0
252,62.75,62.1091,65.5088,170.168,100.294,102.129,0.00229581,0.0723762,20.9179,46.9032,-0.138561,0.0,0.0
254,63.25,62.1257,65.8339,166.81,100.312,101.703,0.0022158,0.0720394,20.9184,46.8932,-0.105248,0.0,0.0
256,63.75,62.023,65.259,167.262,100.287,101.322,0.00213679,0.0717666,20.9188,46.8632,-0.0784489,0.0,0.0
258,64.25,62.4428,65.2752,169.92,100.315,102.057,0.00207279,0.0715456,20.9192,46.8832,-0.13155,0.0,0.0
260,64.75,61.9684,65.4461,168.553,100.313,103.034,0.00202094,0.07141,20.9194,46.8832,-0.204539,0.0,0.0
262,65.25,61.8712,65.5804,169.448,100.332,102.963,0.00197271,0.0713001,20.9196,46.8532,-0.197816,0.0,0.0
264,65.75,62.1206,65.4191,172.137,100.307,101.377,0.00193363,0.0711678,20.9198,46.8632,-0.0811013,0.0,0.0
266,66.25,61.8539,65.0189,171.393,100.341,101.577,0.00191073,0.0710606,20.92,46.8532,-0.0935796,0.0,0.0
268,66.75,61.5263,65.1576,169.057,100.309,102.23,0.00189218,0.0708725,20.9201,46.8632,-0.144988,0.0,0.0
270,67.25,61.4926,65.206,169.249,100.344,101.86,0.0018859,0.0707202,20.9202,46.8832,-0.114582,0.0,0.0
272,67.75,61.6871,65.0032,167.531,100.329,102.575,0.00188081,0.0706113,20.9202,46.9132,-0.169204,0.0,0.0
274,68.25,61.71,64.9052,174.017,100.347,101.722,0.00187734,0.0705231,20.9203,46.9232,-0.103964,0.0,0.0
276,68.75,61.5631,64.9123,166.807,100.338,101.555,0.00187513,0.0704516,20.9203,46.8632,-0.0921167,0.0,0.0
278,69.25,61.7787,64.8364,174.284,100.346,99.7997,0.00187334,0.0704371,20.9204,46.8732,0.0417037,0.0,0.0
280,69.75,61.9439,64.9773,166.673,100.35,102.394,0.00186689,0.0704254,20.9207,46.8932,-0.1541,0.0,0.0
282,70.25,61.8432,64.959,172.83,100.338,100.639,0.00186166,0.0703398,20.9211,46.8932,-0.0228285,0.0,0.0
284,70.75,61.7544,64.8198,172.454,100.348,102.494,0.00185493,0.070202,20.9214,46.8832,-0.161687,0.0,0.0
286,71.25,61.7432,64.8757,172.149,100.357,101.015,0.00184948,0.0700143,20.9217,46.8732,-0.049916,0.0,0.0
288,71.75,61.7944,64.8536,169.761,100.356,102.774,0.00184506,0.0697938,20.9219,46.8331,-0.181902,0.0,0.0
290,72.25,61.6109,65.0526,167.81,100.363,101.808,0.00184148,0.069562,20.9221,46.8431,-0.10923,0.0,0.0
292,72.75,61.5955,65.0013,171.155,100.341,102.078,0.00183484,0.0693264,20.9223,46.8031,-0.131104,0.0,0.0
294,73.25,61.6732,64.403,173.691,100.379,100.556,0.00182946,0.0690975,20.9224,46.7831,-0.0134756,0.0,0.0
296,73.75,61.4747,64.9392,169.844,100.363,101.787,0.0018176,0.0688778,20.9225,46.8031,-0.107649,0.0,0.0
298,74.25,61.3865,64.2887,174.472,100.38,101.692,0.001808,0.0686422,20.9226,46.8331,-0.0992521,0.0,0.0
300,74.75,61.6226,64.8571,167.673,100.348,100.626,0.00178524,0.0684513,20.9229,46.8031,-0.0211398,0.0,0.0
302,75.25,61.5888,64.7889,167.487,100.362,100.113,0.0017668,0.0682131,20.9233,46.7831,0.019015,0.0,0.0
304,75.75,61.1168,64.7912,173.682,100.378,101.484,0.00175186,0.0679449,20.9237,46.7931,-0.0837183,0.0,0.0
306,76.25,61.5445,64.6716,169.806,100.372,102.162,0.00171979,0.0677277,20.924,46.7931,-0.135081,0.0,0.0
308,76.75,61.2801,64.4318,170.905,100.383,100.689,0.00169382,0.0674454,20.9242,46.7831,-0.0233082,0.0,0.0
310,77.25,61.4094,64.8084,170.588,100.352,101.708,0.00167475,0.067121,20.9244,46.7731,-0.102558,0.0,0.0
312,77.75,61.2333,64.5511,167.641,100.383,102.499,0.00166108,0.0667671,20.9246,46.7731,-0.159387,0.0,0.0
314,78.25,61.4183,64.3518,171.099,100.383,101.314,0.00165,0.0663985,20.9247,46.7531,-0.0705454,0.0,0.0
316,78.75,61.6802,64.4221,170.305,100.389,100.737,0.00164602,0.0660999,20.9248,46.7631,-0.0264119,0.0,0.0
318,79.25,61.1718,64.2865,170.999,100.372,101.59,0.0016428,0.0657715,20.9249,46.7831,-0.0922121,0.0,0.0
320,79.75,61.5307,64.1983,168.003,100.365,100.483,0.0016352,0.0655055,20.9252,46.7731,-0.00897622,0.0,0.0
322,80.25,61.2678,63.8897,172.24,100.376,101.28,0.00162904,0.0652672,20.9257,46.7831,-0.0685414,0.0,0.0
324,80.75,61.3588,64.5328,168.593,100.382,100.883,0.00160783,0.0650537,20.926,46.7831,-0.0380334,0.0,0.0
326,81.25,61.155,64.0548,169.473,100.361,102.07,0.00158136,0.0646631,20.9265,46.7731,-0.12903,0.0,0.0
328,81.75,61.3508,64.1665,173.39,100.385,100.807,0.001573,0.0645581,20.9266,46.7631,-0.0320745,0.0,0.0
330,82.25,61.3474,63.6002,171.355,100.363,100.753,0.0015587,0.0643784,20.9268,46.7531,-0.0296686,0.0,0.0
332,82.75,61.2636,64.3468,165.568,100.367,102.041,0.00154711,0.064132,20.9269,46.7831,-0.126407,0.0,0.0
334,83.25,60.6939,64.0951,170.432,100.362,103.106,0.0015527,0.0639323,20.9271,46.8031,-0.206126,0.0,0.0
336,83.75,61.0957,63.9643,171.53,100.372,103.141,0.00155722,0.0636409,20.9272,46.8131,-0.207902,0.0,0.0
338,84.25,61.3111,64.1926,171.901,100.363,101.428,0.00157212,0.0634049,20.9272,46.8231,-0.0806769,0.0,0.0
340,84.75,60.9952,63.6819,167.545,100.365,101.495,0.00158419,0.0631848,20.9273,46.8331,-0.0855517,0.0,0.0
342,85.25,61.0742,63.695,174.632,100.362,101.373,0.00160645,0.0630066,20.9276,46.8131,-0.0765767,0.0,0.0
344,85.75,60.6055,64.2189,166.062,100.385,100.3,0.00162448,0.062747,20.928,46.8031,0.00646859,0.0,0.0
346,86.25,60.7152,64.0686,171.575,100.357,100.974,0.00165157,0.0625367,20.9284,46.8031,-0.0468509,0.0,0.0
348,86.75,60.4526,64.1994,168.074,100.386,102.183,0.00167351,0.0623664,20.9287,46.8031,-0.135539,0.0,0.0
350,87.25,60.9549,64.0853,167.539,100.36,101.074,0.00169129,0.0621275,20.9289,46.7931,-0.0541804,0.0,0.0
352,87.75,61.0534,63.8745,172.015,100.377,102.704,0.00170634,0.0619341,20.9291,46.7931,-0.175103,0.0,0.0
354,88.25,60.1592,64.4221,174.129,100.376,101.773,0.00171913,0.0617774,20.9302,46.7731,-0.105609,0.0,0.0
356,88.75,60.8081,64.115,174.544,100.397,102.141,0.00172948,0.0615929,20.931,46.7731,-0.131635,0.0,0.0
358,89.25,61.035,63.9531,172.039,100.37,100.084,0.00172289,0.0614434,20.9317,46.7831,0.0218014,0.0,0.0
360,89.75,60.7313,64.2055,169.98,100.38,100.932,0.00171754,0.0612844,20.9323,46.7931,-0.0419742,0.0,0.0
362,90.25,61.0945,63.6272,174.653,100.386,101.344,0.00170993,0.0611216,20.9327,46.7831,-0.0725509,0.0,0.0
364,90.75,60.4294,63.8538,172.301,100.384,101.21,0.00170081,0.0609896,20.9331,46.7831,-0.0626625,0.0,0.0
366,91.25,61.1747,63.7579,170.884,100.383,101.508,0.00168553,0.0606812,20.9334,46.7431,-0.0851501,0.0,0.0
368,91.75,60.9809,63.6334,167.031,100.371,99.9427,0.00166607,0.0604314,20.9336,46.7531,0.0326648,0.0,0.0
370,92.25,61.121,63.6268,166.498,100.371,102.133,0.00163717,0.0601427,20.9338,46.723,-0.133032,0.0,0.0
372,92.75,60.5721,64.0274,170.846,100.38,101.72,0.00160195,0.0599239,20.934,46.723,-0.101371,0.0,0.0
374,93.25,60.6684,64.0189,175.424,100.409,101.137,0.00155767,0.0597604,20.9341,46.723,-0.0552121,0.0,0.0
376,93.75,61.1283,63.8909,173.61,100.388,101.052,0.00150764,0.059628,20.9347,46.7531,-0.0503263,0.0,0.0
378,94.25,60.6361,63.4477,170.656,100.397,101.786,0.00145596,0.0595351,20.9351,46.7631,-0.104935,0.0,0.0
380,94.75,60.5617,63.6886,168.369,100.401,101.361,0.00140408,0.0594598,20.9355,46.723,-0.0727822,0.0,0.0
382,95.25,60.6608,63.323,166.665,100.425,100.934,0.00135877,0.0593413,20.9358,46.733,-0.0386564,0.0,0.0
384,95.75,60.9376,63.3901,167.781,100.412,101.854,0.00131913,0.0592453,20.936,46.7531,-0.108976,0.0,0.0
386,96.25,60.7736,63.6506,172.659,100.428,102.439,0.00128701,0.0590994,20.9362,46.7431,-0.151446,0.0,0.0
388,96.75,60.3485,63.6075,166.222,100.429,102,0.00126887,0.0589198,20.9363,46.7531,-0.118607,0.0,0.0
390,97.25,60.2669,63.6083,164.15,100.426,102.362,0.00126125,0.0587744,20.9365,46.7731,-0.145906,0.0,0.0
392,97.75,60.477,63.8445,172.435,100.437,102.96,0.00125508,0.0585703,20.9366,46.7431,-0.189525,0.0,0.0
394,98.25,60.6025,63.6561,170.149,100.444,101.612,0.00127872,0.058405,20.9367,46.733,-0.0883955,0.0,0.0
396,98.75,60.713,62.9821,166.394,100.444,101.724,0.00129787,0.0582148,20.9367,46.7431,-0.0967539,0.0,0.0
398,99.25,60.4803,63.5417,172.153,100.471,101.543,0.00131994,0.0580609,20.9371,46.7531,-0.0810871,0.0,0.0
400,99.75,60.366,63.3337,171.608,100.451,101.121,0.00134373,0.0578983,20.9377,46.7631,-0.0508155,0.0,0.0
402,100.25,60.2266,63.4845,172.912,100.479,101.295,0.00135381,0.0577325,20.9382,46.7631,-0.0618103,0.0,0.0
404,100.75,60.5022,63.2693,170.331,100.447,101.201,0.0013537,0.0575528,20.9386,46.7431,-0.0571777,0.0,0.0
406,101.25,60.7337,63.2642,168.952,100.472,101.099,0.00133657,0.0573664,20.9389,46.7631,-0.0475672,0.0,0.0
408,101.75,60.457,63.4185,168.964,100.479,102.253,0.00130735,0.05717,20.9391,46.7431,-0.133739,0.0,0.0
410,102.25,59.8224,63.3937,170.597,100.469,100.853,0.00126403,0.05697,20.9393,46.7431,-0.0291739,0.0,0.0
412,102.75,60.5719,63.3119,171.682,100.479,103.169,0.00121125,0.0568081,20.9395,46.7731,-0.201939,0.0,0.0
414,103.25,60.7448,63.5202,169.616,100.493,101.685,0.0011685,0.0566194,20.9396,46.7531,-0.0901218,0.0,0.0
416,103.75,60.3199,63.3593,172.462,100.482,101.195,0.00109533,0.0564665,20.9397,46.7631,-0.0540152,0.0,0.0
418,104.25,60.481,63.1809,168.22,100.494,101.628,0.00103606,0.056314,20.9398,46.7731,-0.0857917,0.0,0.0
420,104.75,59.7033,63.4527,170.718,100.505,102.459,0.000981843,0.0561904,20.9399,46.7831,-0.14717,0.0,0.0
422,105.25,60.4918,63.3756,170.644,100.512,101.841,0.000937923,0.0560185,20.94,46.7531,-0.100396,0.0,0.0
424,105.75,60.1613,63.3567,168.418,100.5,103.031,0.000901106,0.0558792,20.94,46.733,-0.190097,0.0,0.0
426,106.25,60.6431,63.1096,170.407,100.5,100.988,0.000871284,0.0557089,20.9401,46.723,-0.0370479,0.0,0.0
428,106.75,60.5884,63.1999,168.733,100.512,101.682,0.000850856,0.0555709,20.9401,46.7531,-0.0884365,0.0,0.0
430,107.25,60.3955,63.3137,171.392,100.5,102.5,0.000834309,0.0554161,20.9401,46.7631,-0.150641,0.0,0.0
432,107.75,60.1692,63.3256,174.922,100.504,101.454,0.000832091,0.0552906,20.9401,46.7431,-0.0718575,0.0,0.0
434,108.25,60.5978,63.4573,166.502,100.52,101.433,0.000830294,0.0551663,20.9401,46.7531,-0.0690663,0.0,0.0
436,108.75,60.4206,63.427,172.013,100.519,101.959,0.000838785,0.0550453,20.9402,46.7931,-0.10864,0.0,0.0
438,109.25,60.5035,63.435,171.869,100.528,102.512,0.000845662,0.0549472,20.9404,46.7731,-0.14933,0.0,0.0
440,109.75,60.3809,63.5188,168.263,100.548,101.685,0.000851233,0.0548677,20.9408,46.7531,-0.0859944,0.0,0.0
442,110.25,60.2956,63.0199,176.608,100.538,101.392,0.000855745,0.0547746,20.9412,46.7531,-0.0646282,0.0,0.0
444,110.75,60.5748,63.1192,173.7,100.548,102.094,0.0008594,0.0546992,20.9415,46.7831,-0.116615,0.0,0.0
446,111.25,60.2491,63.353,171.25,100.548,100.318,0.000852415,0.0546306,20.9418,46.7931,0.0174964,0.0,0.0
448,111.75,60.0854,63.2763,173.286,100.557,101.047,0.00082865,0.0545416,20.9422,46.7731,-0.0371257,0.0,0.0
450,112.25,59.8556,63.1821,171.012,100.55,99.3708,0.000797687,0.0544658,20.9423,46.7831,0.0901755,0.0,0.0
452,112.75,60.465,63.0814,170.17,100.558,101.247,0.000784488,0.0544192,20.9424,46.7831,-0.0521582,0.0,0.0
454,113.25,60.1479,63.0311,171.495,100.569,101.943,0.000728398,0.0543017,20.9425,46.7531,-0.103654,0.0,0.0
456,113.75,59.8072,62.8333,176.155,100.57,101.125,0.000665992,0.0541725,20.9426,46.7731,-0.0420168,0.0,0.0
458,114.25,59.975,63.3202,172.928,100.566,102.407,0.000600168,0.0540527,20.9427,46.7731,-0.138619,0.0,0.0
460,114.75,60.3058,62.8837,168.587,100.575,100.523,0.000535761,0.0539421,20.9428,46.7731,0.00397887,0.0,0.0
462,115.25,60.2878,62.9973,169.128,100.564,101.145,0.000473611,0.0538752,20.9428,46.7931,-0.0440294,0.0,0.0
464,115.75,60.2554,63.4968,172.208,100.594,103.055,0.000419357,0.0538414,20.9429,46.7731,-0.184696,0.0,0.0
466,116.25,60.3221,62.997,167.34,100.59,102.554,0.00037189,0.053814,20.9429,46.7831,-0.14783,0.0,0.0
468,116.75,60.5432,63.1938,171.877,100.61,101.754,0.000333441,0.0537343,20.9429,46.7831,-0.0863988,0.0,0.0
470,117.25,60.5459,63.4728,171.784,100.59,101.611,0.000310776,0.0536698,20.9429,46.7731,-0.0771891,0.0,0.0
472,117.75,60.2434,63.3339,175.236,100.62,101.906,0.000300047,0.0535874,20.943,46.7531,-0.0970611,0.0,0.0
474,118.25,59.9129,63.1209,171.947,100.604,101.052,0.000303102,0.0534934,20.943,46.7531,-0.033934,0.0,0.0
476,118.75,60.3561,62.9054,166.521,100.614,101.314,0.000316147,0.0533567,20.943,46.7431,-0.0529777,0.0,0.0
478,119.25,60.0313,63.4063,168.552,100.607,101.231,0.000326713,0.0531917,20.9434,46.7431,-0.0472863,0.0,0.0
480,119.75,59.9297,63.1585,174.441,100.626,101.134,0.000357621,0.0530579,20.9438,46.7531,-0.0385227,0.0,0.0
482,120.25,60.1535,62.7512,173.053,100.626,102.237,0.000382656,0.052934,20.944,46.7531,-0.121378,0.0,0.0
484,120.75,60.1945,62.9818,169.448,100.626,101.604,0.000410773,0.0528335,20.9441,46.733,-0.0739116,0.0,0.0
486,121.25,60.289,63.0926,168.901,100.616,101.863,0.000440602,0.0527235,20.9442,46.7431,-0.0941449,0.0,0.0
488,121.75,59.8289,63.1165,173.23,100.632,100.902,0.000469337,0.0526343,20.9443,46.713,-0.0205251,0.0,0.0
490,122.25,60.0472,63.0263,167.629,100.624,102.561,0.000496729,0.0525047,20.9443,46.733,-0.145715,0.0,0.0
492,122.75,59.8723,63.2288,175.11,100.641,101.655,0.000516434,0.0523997,20.9443,46.733,-0.0766204,0.0,0.0
494,123.25,60.1785,62.4921,169.584,100.617,103.493,0.000532395,0.0522769,20.9444,46.7431,-0.215364,0.0,0.0
496,123.75,59.9632,62.8619,172.582,100.636,103.943,0.000545323,0.0521434,20.9448,46.7531,-0.247044,0.0,0.0
498,124.25,59.7885,62.5963,173.803,100.637,101.816,0.000535935,0.0519824,20.9452,46.7531,-0.0890038,0.0,0.0
500,124.75,59.9978,62.9694,168.976,100.644,101.692,0.000528331,0.0518044,20.9455,46.7431,-0.0791254,0.0,0.0
502,125.25,60.0545,62.9245,165.359,100.643,101.431,0.000515295,0.0517285,20.9457,46.7431,-0.0595822,0.0,0.0
504,125.75,60.1708,63.0063,173.359,100.649,102.383,0.000493004,0.0514983,20.9459,46.7731,-0.13055,0.0,0.0
506,126.25,59.5572,62.8142,171.73,100.638,102.408,0.000468422,0.0513118,20.9461,46.7731,-0.133289,0.0,0.0
508,126.75,59.7863,62.8318,167.905,100.637,101.595,0.000442636,0.0510747,20.9462,46.7531,-0.072412,0.0,0.0
510,127.25,60.0018,62.6895,175.291,100.64,101.789,0.000418031,0.0508827,20.9464,46.7431,-0.0867664,0.0,0.0
512,127.75,59.655,62.6694,176.554,100.657,100.529,0.0003981,0.0506267,20.9465,46.7531,0.00969719,0.0,0.0
514,128.25,59.7924,62.8573,171.54,100.654,101.838,0.000385676,0.0504193,20.9465,46.7431,-0.0893793,0.0,0.0
516,128.75,60.1937,62.9975,172.479,100.662,102.091,0.00037757,0.0502227,20.9466,46.733,-0.107708,0.0,0.0
518,129.25,59.9603,62.7707,170.219,100.672,102.159,0.000372766,0.0500634,20.9469,46.733,-0.112037,0.0,0.0
520,129.75,60.0899,62.7252,170.426,100.655,101.938,0.000368875,0.0499042,20.9473,46.703,-0.0968254,0.0,0.0
522,130.25,59.4658,63.0128,171.209,100.673,102.777,0.000365724,0.0497481,20.9477,46.723,-0.158064,0.0,0.0
524,130.75,60.0445,62.2299,172.327,100.663,101.566,0.000353252,0.0496217,20.948,46.733,-0.0683052,0.0,0.0
526,131.25,59.3482,62.8733,174.278,100.674,101.284,0.000343151,0.0495117,20.9482,46.7531,-0.0461571,0.0,0.0
528,131.75,59.8682,62.2856,170.086,100.65,102.556,0.000328771,0.0494158,20.9484,46.7531,-0.143373,0.0,0.0
530,132.25,59.3269,62.7236,174.319,100.669,101.663,0.000317123,0.0493382,20.9486,46.7631,-0.0751116,0.0,0.0
532,132.75,59.7755,62.7598,168.464,100.649,101.822,0.000307688,0.0493054,20.9487,46.7531,-0.0885176,0.0,0.0
534,133.25,59.7148,61.8873,167.552,100.668,102.305,0.000298807,0.0493061,20.9484,46.7531,-0.123264,0.0,0.0
536,133.75,60.1522,62.5929,170.774,100.665,100.661,0.000291612,0.0493369,20.9478,46.7431,0.000311536,0.0,0.0
538,134.25,59.6872,62.6689,165.996,100.667,100.243,0.000303141,0.0493889,20.9474,46.7631,0.0322765,0.0,0.0
540,134.75,59.7215,62.4713,170.161,100.645,101.97,0.000312479,0.0494311,20.947,46.7731,-0.0999585,0.0,0.0
542,135.25,59.9384,62.8177,171.443,100.671,101.079,0.000343609,0.0494653,20.9467,46.7831,-0.0308602,0.0,0.0
544,135.75,59.7026,62.708,170.028,100.643,101.303,0.000368824,0.0494628,20.9464,46.7531,-0.0498821,0.0,0.0
546,136.25,60.1166,62.2929,168.764,100.671,101.644,0.000406624,0.0494335,20.9462,46.7431,-0.0735276,0.0,0.0
548,136.75,59.8812,62.78,168.113,100.667,100.216,0.000437241,0.0493646,20.9461,46.7531,0.0343054,0.0,0.0
550,137.25,59.7534,62.5553,168.411,100.67,102.426,0.000462041,0.049268,20.9459,46.7631,-0.132126,0.0,0.0
552,137.75,60.0685,62.3091,170.454,100.658,101.072,0.00048213,0.0491897,20.9458,46.7631,-0.0314022,0.0,0.0
554,138.25,59.7223,62.741,169.032,100.671,101.898,0.000498401,0.049112,20.9458,46.7631,-0.0926141,0.0,0.0
556,138.75,59.7658,62.9266,171.976,100.659,101.149,0.000504133,0.0490491,20.9457,46.7531,-0.0371051,0.0,0.0
558,139.25,59.8594,62.6402,167.922,100.689,102.275,0.000508776,0.0489981,20.9456,46.7531,-0.119444,0.0,0.0
560,139.75,60.2176,62.7329,170.572,100.655,102.041,0.00050261,0.0489568,20.9456,46.7531,-0.104563,0.0,0.0
562,140.25,59.8354,62.534,169.78,100.679,101.862,0.000497615,0.0489233,20.9455,46.7531,-0.0892715,0.0,0.0
564,140.75,59.5515,62.647,168.448,100.653,102.145,0.000494327,0.0488847,20.9455,46.7531,-0.112412,0.0,0.0
566,141.25,59.2371,62.5294,168.418,100.67,101.927,0.000493388,0.0488272,20.9455,46.7531,-0.0947882,0.0,0.0
568,141.75,59.9577,63.1208,167.691,100.642,102.324,0.000502555,0.0487467,20.9455,46.7531,-0.126673,0.0,0.0
570,142.25,59.8621,62.5203,170.356,100.673,100.996,0.000506463,0.0487123,20.9455,46.7631,-0.0244916,0.0,0.0
572,142.75,59.8686,62.5283,168.435,100.643,101.8,0.000516413,0.0486249,20.9454,46.7631,-0.0873298,0.0,0.0
574,143.25,59.7004,62.7849,171.392,100.645,101.234,0.000527412,0.0485542,20.9454,46.7431,-0.0445769,0.0,0.0
576,143.75,59.5546,62.7877,170.744,100.648,102.875,0.000536321,0.0485255,20.9454,46.703,-0.16728,0.0,0.0
578,144.25,59.9515,62.5077,176.377,100.655,102.027,0.00053374,0.0485023,20.9454,46.733,-0.103491,0.0,0.0
580,144.75,59.4506,63.0381,171.489,100.639,101.29,0.00052283,0.048476,20.9454,46.733,-0.0492843,0.0,0.0
582,145.25,60.1881,62.4584,173.59,100.666,101.838,0.000502895,0.0484478,20.9454,46.7531,-0.0884163,0.0,0.0
584,145.75,59.9375,61.9212,174.865,100.628,102.121,0.000476759,0.0483873,20.9459,46.7531,-0.112524,0.0,0.0
586,146.25,59.4866,61.9214,167.453,100.643,102.175,0.000448412,0.0483044,20.9462,46.7631,-0.115392,0.0,0.0
588,146.75,59.5161,62.4952,170.769,100.647,99.9379,0.00041899,0.0482145,20.9465,46.7531,0.0539997,0.0,0.0
590,147.25,59.131,62.3653,171.884,100.627,101.431,0.000393919,0.0481214,20.9467,46.7531,-0.0608465,0.0,0.0
592,147.75,59.3418,62.1133,169.901,100.622,101.353,0.000373611,0.0480384,20.9469,46.7631,-0.0553107,0.0,0.0
594,148.25,59.8921,62.1854,170.09,100.619,101.755,0.00036088,0.0479644,20.9471,46.733,-0.0858262,0.0,0.0
596,148.75,59.4683,62.3921,174.429,100.625,101.674,0.000350569,0.0478894,20.9472,46.7431,-0.0792575,0.0,0.0
597,149,59.3659,62.5396,171.436,100.624,101.203,0.000346825,0.0478502,20.9473,46.7631,-0.0438027,0.0,0.0