File: 01_Data/Feather_Pillow_Feathers/Cone/Feather_Pillow_Feathers_Cone_HF25Scan_230710_R3.csv
Names,Time,Stack TC,Smoke TC,Exh Press,Smoke Comp,Smoke Meas,CO Meter,CO2 Meter,O2 Meter,Sample Mass,Ext Coeff,Start Test,Flame Verif
Chan Gain,,500,500,1,1,1,1,1,1,1,1,1.0,1.0
Offset,,0,0,0.18266,0,0,0,0,0,0,0,0.0,0.0
Gain,,1,1,25.011,13.0208,54.2044,1,1,1,1.00092,0.871134,1.0,1.0
Units,sec,C,C,Pa,%,%,%,%,%,g,/m,,
Baseline,,41.521,42.9338,182.245,98.8739,98.686,9.83801e-05,0.0454853,20.9546,-446.065,0.0146474,,
3,0.5,41.382,41.5114,180.531,99.7724,99.9758,0.000223142,0.0456566,20.9563,50.3063,-0.0155647,0.0,0.0
6,1.25,40.8085,40.7095,182.448,99.7851,100.001,0.000263446,0.0457456,20.9559,50.2763,-0.0164876,0.0,0.0
9,2,41.1482,41.3857,179.202,99.7823,99.3737,0.000287551,0.0458099,20.9554,50.2463,0.0313576,0.0,0.0
12,2.75,40.7779,41.6657,177.017,99.7939,99.4961,0.000305124,0.0458998,20.9546,50.2163,0.0228323,0.0,0.0
15,3.5,40.9217,41.3223,184.309,99.8018,98.8626,0.000316166,0.0459836,20.9543,50.1762,0.0722557,0.0,0.0
18,4.25,40.7794,41.6231,176.741,99.8046,99.162,0.000335377,0.0460448,20.9542,50.1662,0.0493599,0.0,0.0
21,5,40.8404,42.2136,185.308,99.8145,98.0768,0.000354139,0.0461036,20.9535,50.1362,0.134205,0.0,0.0
24,5.75,40.822,41.7965,185.145,99.8185,97.4615,0.000381971,0.0461451,20.953,50.1362,0.182605,0.0,0.0
27,6.5,40.6896,41.8849,180.433,99.8368,96.3035,0.000409704,0.0461625,20.9526,50.1062,0.275336,0.0,0.0
30,7.25,41.1526,42.5027,180.896,99.8269,95.2796,0.000436361,0.0461547,20.9524,50.0761,0.356259,0.0,0.0
33,8,41.0318,42.4246,183.457,99.8451,95.1357,0.000461379,0.0461189,20.9522,50.0561,0.369209,0.0,0.0
36,8.75,41.0739,42.6126,177.793,99.834,94.3351,0.000486698,0.0460412,20.952,50.0261,0.432938,0.0,0.0
39,9.5,40.7817,42.5916,179.527,99.8567,94.7073,0.000505156,0.0459702,20.9519,49.986,0.404581,0.0,0.0
42,10.25,41.2837,42.8694,180.735,99.8392,94.2309,0.000513301,0.0459124,20.9518,49.986,0.441779,0.0,0.0
45,11,41.0431,43.2069,183.086,99.8515,92.5965,0.000524202,0.0458702,20.9518,49.956,0.576419,0.0,0.0
48,11.75,41.3401,42.8771,180.759,99.8519,92.1466,0.000534266,0.0458825,20.9517,49.926,0.613672,0.0,0.0
51,12.5,41.6258,42.691,179.266,99.8531,93.7114,0.000553998,0.0459097,20.9513,49.916,0.485082,0.0,0.0
54,13.25,41.5654,43.2039,183.288,99.8396,92.1433,0.000578187,0.0460522,20.9507,49.886,0.613003,0.0,0.0
57,14,41.7749,43.3266,178.669,99.8555,92.5022,0.000612586,0.0461847,20.951,49.8559,0.584509,0.0,0.0
60,14.75,41.4323,43.366,180.55,99.8805,91.1061,0.00067311,0.0463388,20.9507,49.8359,0.702637,0.0,0.0
63,15.5,41.5316,42.9756,177.612,99.863,93.2069,0.000733889,0.0464717,20.9504,49.8159,0.527094,0.0,0.0
66,16.25,41.7152,43.5375,179.614,99.8491,92.5436,0.000804108,0.04674,20.9501,49.7758,0.580607,0.0,0.0
69,17,41.7506,43.2141,180.499,99.8582,93.6982,0.000896374,0.0469845,20.9499,49.7658,0.486557,0.0,0.0
72,17.75,41.6121,42.983,183.071,99.8622,92.9489,0.000991637,0.0473058,20.9497,49.7358,0.548219,0.0,0.0
75,18.5,41.4884,43.6287,180.233,99.8563,93.1391,0.00107902,0.0476231,20.9496,49.7158,0.532139,0.0,0.0
78,19.25,41.6991,43.6491,183.57,99.8578,94.8346,0.00113917,0.0480642,20.9495,49.6958,0.394403,0.0,0.0
81,20,42.0368,43.8116,176.938,99.8515,94.2557,0.00117305,0.048502,20.9494,49.6657,0.44071,0.0,0.0
84,20.75,41.5978,43.8368,180.476,99.8543,94.0439,0.0011922,0.0489438,20.9494,49.6557,0.458109,0.0,0.0
87,21.5,42.244,43.6128,180.333,99.8563,93.6056,0.00120391,0.049266,20.9494,49.6357,0.493962,0.0,0.0
90,22.25,42.316,43.718,179.778,99.8316,93.111,0.00121244,0.0495869,20.9493,49.6357,0.532561,0.0,0.0
93,23,41.9502,43.561,180.956,99.8272,93.991,0.00123362,0.0498575,20.9492,49.6157,0.460343,0.0,0.0
96,23.75,41.8822,43.8243,180.745,99.8328,93.3028,0.00125543,0.0501122,20.9491,49.5757,0.51692,0.0,0.0
99,24.5,42.117,43.9797,183.593,99.832,94.1167,0.00129621,0.0503223,20.9495,49.5556,0.450494,0.0,0.0
102,25.25,41.8174,44.4539,177.998,99.834,92.6395,0.00133251,0.0504551,20.9499,49.5456,0.571534,0.0,0.0
105,26,42.3156,43.8073,184.683,99.8054,93.9364,0.00137544,0.0506092,20.9503,49.5256,0.46311,0.0,0.0
108,26.75,42.3382,44.1642,178.506,99.8125,93.4203,0.00141572,0.0507385,20.9499,49.5156,0.505756,0.0,0.0
111,27.5,42.0646,44.444,180.397,99.8173,94.3053,0.00144864,0.0508199,20.9496,49.4856,0.434073,0.0,0.0
114,28.25,41.9408,44.2825,179.662,99.801,93.0233,0.00147133,0.0509406,20.9496,49.4756,0.537417,0.0,0.0
117,29,41.8195,44.3649,178.481,99.7899,92.6064,0.00148562,0.051086,20.95,49.4455,0.570885,0.0,0.0
120,29.75,42.3801,44.6207,184.58,99.7847,92.5452,0.00148537,0.0512164,20.9503,49.4455,0.575543,0.0,0.0
123,30.5,42.4614,44.8855,176.701,99.7911,93.9397,0.00148518,0.0512911,20.9506,49.4155,0.461744,0.0,0.0
126,31.25,42.0004,44.6017,180.19,99.7867,93.7578,0.00147793,0.0513681,20.9507,49.3655,0.476226,0.0,0.0
129,32,42.2721,44.1879,180.252,99.7788,93.3392,0.00147764,0.0514631,20.9508,49.3755,0.509803,0.0,0.0
132,32.75,42.4678,44.7766,189.524,99.7712,91.293,0.00147955,0.0515937,20.9509,49.3755,0.67861,0.0,0.0
135,33.5,42.2602,44.4813,181.159,99.7708,92.2607,0.00150763,0.0516889,20.9505,49.3354,0.598006,0.0,0.0
138,34.25,42.1224,44.5517,187.514,99.7664,94.5054,0.00153795,0.0519017,20.9501,49.3455,0.413976,0.0,0.0
141,35,42.4141,44.4997,179.943,99.7486,92.795,0.00158874,0.0520281,20.9497,49.3354,0.552175,0.0,0.0
144,35.75,42.5966,44.5362,177.624,99.7339,93.7677,0.001646,0.0520929,20.9495,49.2954,0.471368,0.0,0.0
147,36.5,42.5845,45.136,176.568,99.7287,93.3674,0.00170912,0.0521142,20.9493,49.2954,0.503665,0.0,0.0
150,37.25,42.8017,44.9003,181.758,99.7355,94.0142,0.00175514,0.0522732,20.9492,49.2654,0.45143,0.0,0.0
153,38,42.7895,44.835,180.675,99.7291,94.1415,0.00180295,0.052389,20.9491,49.2654,0.440598,0.0,0.0
156,38.75,42.7154,45.1938,182.171,99.7251,92.6925,0.0018378,0.0524735,20.949,49.2754,0.55883,0.0,0.0
159,39.5,42.7176,44.7647,187.364,99.7267,93.9463,0.00186321,0.0525146,20.9489,49.2654,0.456275,0.0,0.0
162,40.25,42.6535,44.7858,180.9,99.6977,94.9008,0.00188173,0.0525589,20.9489,49.2454,0.376809,0.0,0.0
165,41,41.9647,44.891,177.6,99.6858,95.9065,0.00190236,0.0525973,20.9489,49.2354,0.295337,0.0,0.0
168,41.75,42.7497,44.9289,177.055,99.6814,95.9959,0.00193491,0.0526049,20.9486,49.2053,0.287889,0.0,0.0
171,42.5,42.6704,44.663,179.984,99.6548,95.5658,0.0019773,0.052596,20.948,49.2053,0.32016,0.0,0.0
174,43.25,42.5408,44.6915,182.396,99.6703,93.4435,0.00202734,0.0525834,20.9476,49.2053,0.492964,0.0,0.0
177,44,43.024,44.899,180.234,99.6723,94.914,0.00206382,0.0525312,20.9473,49.1753,0.373794,0.0,0.0
180,44.75,43.0564,45.2032,182.925,99.658,96.6112,0.00209041,0.0524747,20.9475,49.1653,0.237263,0.0,0.0
183,45.5,42.6562,45.1787,185.187,99.6659,96.0108,0.00211159,0.0524185,20.9479,49.1553,0.285514,0.0,0.0
186,46.25,42.4183,45.0475,179.556,99.6345,95.799,0.00211075,0.0523441,20.9481,49.1553,0.299978,0.0,0.0
189,47,42.7118,45.0823,177.228,99.6639,94.297,0.00208873,0.0522769,20.9483,49.1353,0.422992,0.0,0.0
192,47.75,42.6917,44.8163,180.595,99.6512,93.991,0.00204792,0.0522279,20.9484,49.1253,0.446856,0.0,0.0
195,48.5,42.8118,45.0289,184.091,99.6457,95.2763,0.00197005,0.0521771,20.9485,49.0952,0.342641,0.0,0.0
198,49.25,42.5352,44.6526,183.967,99.6317,95.1853,0.00188207,0.0521142,20.9486,49.1152,0.348875,0.0,0.0
201,50,43.0729,44.7369,183.535,99.6389,94.9868,0.00180463,0.0518842,20.9491,49.0852,0.365377,0.0,0.0
204,50.75,43.1246,45.0496,180.714,99.6286,96.6989,0.00171615,0.0517089,20.9497,49.0752,0.228076,0.0,0.0
207,51.5,42.6403,45.008,182.571,99.6222,95.311,0.00164442,0.0515682,20.9494,49.0552,0.338057,0.0,0.0
210,52.25,43.115,44.6711,179.607,99.6115,96.5202,0.00157979,0.051523,20.9495,49.0552,0.240896,0.0,0.0
213,53,43.723,45.1842,181.648,99.6214,96.6857,0.00151312,0.0515146,20.9499,49.0552,0.228574,0.0,0.0
216,53.75,43.1185,44.7702,183.102,99.6166,96.8858,0.00146452,0.0513856,20.9503,49.0352,0.212405,0.0,0.0
219,54.5,43.037,44.5887,183.787,99.6035,97.0893,0.00137754,0.0512394,20.9505,49.0051,0.195368,0.0,0.0
222,55.25,42.5456,45.1381,182.758,99.5904,96.1332,0.00128053,0.0510436,20.9509,49.0151,0.269988,0.0,0.0
225,56,43.1182,45.0205,182.303,99.5916,96.5666,0.00118305,0.0508804,20.9512,49.0151,0.235706,0.0,0.0
228,56.75,43.1491,45.1849,183.668,99.5821,94.9785,0.00109072,0.0508619,20.9514,49.0252,0.361683,0.0,0.0
231,57.5,43.0893,44.4951,186.746,99.5729,94.6725,0.00100924,0.0508912,20.9516,49.0252,0.385643,0.0,0.0
234,58.25,43.2758,44.657,183.838,99.5729,94.5931,0.000949831,0.0508716,20.9517,49.0051,0.392054,0.0,0.0
237,59,43.2029,44.9654,179.697,99.565,95.2912,0.000920708,0.0507894,20.9518,48.9951,0.335259,0.0,0.0
240,59.75,43.0835,44.9706,182.358,99.5674,93.9265,0.000908179,0.0506132,20.9519,48.9651,0.445671,0.0,0.0
243,60.5,43.1215,45.0207,180.172,99.5384,95.7279,0.000900793,0.0503007,20.9519,48.9551,0.298275,0.0,0.0
246,61.25,43.1349,45.0175,179.469,99.5507,95.9992,0.000892051,0.0500155,20.9519,48.9551,0.277596,0.0,0.0
249,62,43.1995,45.2413,180.717,99.5396,94.919,0.000857314,0.0497605,20.952,49.0051,0.363212,0.0,0.0
252,62.75,42.8551,44.899,176.887,99.5372,96.7849,0.000812114,0.0495359,20.952,48.9651,0.214269,0.0,0.0
255,63.5,43.1272,45.3072,182.803,99.5264,96.1315,0.000770689,0.0493108,20.952,48.9551,0.265209,0.0,0.0
258,64.25,43.0881,45.4018,182.544,99.526,95.938,0.000721037,0.0491466,20.952,48.9451,0.280578,0.0,0.0
261,65,43.1734,45.452,180.151,99.4863,97.1124,0.000684841,0.049107,20.952,48.9151,0.184547,0.0,0.0
264,65.75,43.3958,45.2354,180.659,99.5113,95.5889,0.000668387,0.049078,20.952,48.9351,0.307301,0.0,0.0
267,66.5,43.2111,45.3379,179.172,99.5014,96.6774,0.000672394,0.0491388,20.9519,48.9151,0.220017,0.0,0.0
270,67.25,43.0401,45.032,179.875,99.4899,96.9702,0.000695438,0.049183,20.9517,48.9351,0.196024,0.0,0.0
273,68,43.5051,45.2808,180.601,99.5054,96.7121,0.000732521,0.0492153,20.9515,48.9351,0.217577,0.0,0.0
276,68.75,43.4,45.3549,184.904,99.4656,97.0727,0.000810842,0.0491633,20.9515,48.905,0.186084,0.0,0.0
279,69.5,43.1954,45.5393,180.824,99.4915,95.5013,0.000860207,0.0490761,20.9516,48.885,0.312787,0.0,0.0
282,70.25,42.9018,45.1416,182.478,99.4855,96.8494,0.000884999,0.0489867,20.9517,48.895,0.20521,0.0,0.0
285,71,43.5628,44.8556,182.406,99.4668,95.9793,0.00087965,0.0489085,20.9517,48.895,0.272738,0.0,0.0
288,71.75,43.424,45.3046,183.324,99.4637,96.598,0.000867799,0.0488229,20.952,48.905,0.223396,0.0,0.0
291,72.5,42.9593,45.0926,181.836,99.4597,96.6493,0.000828097,0.0487483,20.9526,48.9151,0.219035,0.0,0.0
294,73.25,43.7113,44.922,188.731,99.4609,95.8735,0.000778723,0.0486938,20.953,48.885,0.280713,0.0,0.0
297,74,43.1344,45.0807,177.101,99.4494,96.2059,0.000730436,0.048624,20.9533,48.905,0.253373,0.0,0.0
300,74.75,43.7101,45.3443,178.573,99.4478,95.9016,0.000689355,0.0485215,20.9536,48.905,0.277465,0.0,0.0
303,75.5,42.9034,45.7638,183.509,99.4466,97.0579,0.000649351,0.0483894,20.9537,48.905,0.18579,0.0,0.0
306,76.25,43.6254,45.9654,179.167,99.4521,97.1042,0.000614878,0.0482762,20.9538,48.875,0.182573,0.0,0.0
309,77,43.2569,45.7357,177.622,99.4406,97.0413,0.000590989,0.0482066,20.9539,48.875,0.186635,0.0,0.0
312,77.75,43.0377,45.1496,182.394,99.4442,95.9926,0.000572143,0.0481763,20.9535,48.855,0.269943,0.0,0.0
315,78.5,43.4183,45.6662,178.705,99.4211,96.593,0.000555054,0.0481466,20.9531,48.885,0.220521,0.0,0.0
318,79.25,43.2545,45.6726,181,99.439,96.5633,0.000546319,0.0481224,20.9528,48.855,0.224251,0.0,0.0
321,80,43.1361,45.7669,180.361,99.4331,97.4532,0.000499071,0.0480643,20.9526,48.845,0.153689,0.0,0.0
324,80.75,43.6368,45.511,181.958,99.4259,96.5285,0.000455948,0.0479703,20.9524,48.875,0.225993,0.0,0.0
327,81.5,43.2365,45.2646,179.757,99.4569,98.4656,0.000424074,0.0479427,20.9522,48.875,0.0765497,0.0,0.0
330,82.25,43.3918,45.3119,183.152,99.5141,97.1207,0.000406418,0.0479082,20.9521,48.855,0.186033,0.0,0.0
333,83,43.6449,44.9619,178.734,99.5308,96.2787,0.000407697,0.047877,20.952,48.865,0.253851,0.0,0.0
336,83.75,43.4332,45.6219,186.298,99.5646,97.5458,0.000423516,0.0478542,20.9522,48.885,0.15653,0.0,0.0
339,84.5,43.4336,45.2398,179.478,99.5964,97.0645,0.000449233,0.047852,20.9527,48.845,0.196772,0.0,0.0
342,85.25,43.4755,45.6793,178.189,99.6111,97.5227,0.000481384,0.0478564,20.9531,48.825,0.161912,0.0,0.0
345,86,43.5446,45.4098,182.755,99.6389,97.5806,0.000504822,0.0478597,20.9534,48.835,0.15951,0.0,0.0
348,86.75,43.4844,45.3512,177.209,99.6747,97.6418,0.000555559,0.047862,20.9536,48.7849,0.157461,0.0,0.0
351,87.5,43.2222,45.2367,180.221,99.7184,96.6824,0.000607455,0.0478638,20.9538,48.805,0.236268,0.0,0.0
354,88.25,43.2821,45.2585,179.094,99.7363,97.2067,0.000655567,0.0478507,20.9539,48.7849,0.196305,0.0,0.0
357,89,43.1686,45.1649,179.42,99.7641,97.6583,0.000697351,0.04782,20.954,48.7849,0.163018,0.0,0.0
360,89.75,43.402,45.0245,179.114,99.7859,96.3052,0.000731358,0.0477718,20.954,48.7949,0.271311,0.0,0.0
363,90.5,43.7093,45.4149,183.879,99.8125,97.2282,0.000756149,0.0477291,20.9541,48.7949,0.200457,0.0,0.0
366,91.25,43.8396,45.498,182.024,99.832,97.1555,0.000758067,0.047685,20.9537,48.7949,0.207671,0.0,0.0
369,92,43.6836,45.3969,181.116,99.8888,96.7915,0.000741464,0.047653,20.9527,48.7749,0.240696,0.0,0.0
372,92.75,43.3617,45.7796,184.771,99.8984,97.0248,0.000710358,0.0476296,20.952,48.7849,0.223034,0.0,0.0
375,93.5,43.4612,45.4039,177.2,99.9087,97.3655,0.000655515,0.0476858,20.9514,48.805,0.197033,0.0,0.0
378,94.25,43.4854,45.4661,183.471,99.9369,97.1637,0.00062397,0.0476835,20.9511,48.7949,0.215046,0.0,0.0
381,95,43.3003,45.1886,179.878,99.9496,98.3018,0.00057884,0.0476518,20.9509,48.7849,0.127033,0.0,0.0
384,95.75,43.5751,45.8211,179.411,99.9965,98.6393,0.000540933,0.0475878,20.9507,48.7349,0.10443,0.0,0.0
387,96.5,43.5195,45.6762,180.29,100.001,97.5276,0.000511066,0.0475563,20.9505,48.7349,0.191369,0.0,0.0
390,97.25,43.7734,45.9371,184.75,100.026,97.3705,0.000478678,0.0475516,20.9509,48.7749,0.205604,0.0,0.0
393,98,43.4004,45.7955,181.476,100.062,97.8618,0.000451347,0.0475352,20.9513,48.7849,0.169937,0.0,0.0
396,98.75,43.6806,45.4075,182.179,100.075,97.43,0.000436038,0.0474824,20.9516,48.7349,0.204666,0.0,0.0
399,99.5,43.9515,45.3624,183.368,100.114,96.9867,0.000427521,0.0474296,20.9519,48.7049,0.242487,0.0,0.0
402,100.25,43.8803,45.6798,183.3,100.108,97.5442,0.000441162,0.0473849,20.952,48.7249,0.198267,0.0,0.0
405,101,43.5292,45.7298,181.333,100.144,98.5665,0.000464794,0.0473668,20.9522,48.7249,0.121327,0.0,0.0
408,101.75,43.5807,45.4929,179.03,100.173,98.1711,0.000490957,0.0473596,20.9522,48.7049,0.154222,0.0,0.0
411,102.5,43.2942,45.6698,179.417,100.162,97.9296,0.000521204,0.0473544,20.9523,48.7049,0.172257,0.0,0.0
414,103.25,43.6705,45.4308,183.063,100.19,97.6319,0.000553899,0.0473301,20.9524,48.6648,0.197617,0.0,0.0
417,104,43.8218,46.0462,184.552,100.181,98.7087,0.000587794,0.0472974,20.9524,48.6648,0.113126,0.0,0.0
420,104.75,43.6949,45.7298,179.665,100.213,98.1546,0.000640854,0.0472477,20.9524,48.6748,0.158571,0.0,0.0
423,105.5,43.5025,45.515,180.518,100.198,98.3299,0.000691956,0.0471911,20.9524,48.6949,0.143842,0.0,0.0
426,106.25,44.3024,45.5035,177.712,100.219,98.8113,0.00075045,0.0471354,20.9525,48.7149,0.10813,0.0,0.0
429,107,43.9601,45.4665,180.694,100.234,98.7071,0.000790474,0.0470701,20.9525,48.7349,0.117284,0.0,0.0
432,107.75,43.7077,45.6015,178.452,100.242,98.8163,0.000808633,0.0470369,20.9528,48.7249,0.109503,0.0,0.0
435,108.5,43.6842,45.3989,179.517,100.252,98.7914,0.000810683,0.0470565,20.9529,48.7249,0.112119,0.0,0.0
438,109.25,43.4194,45.4867,180.493,100.25,98.0404,0.000807205,0.0471353,20.953,48.7249,0.17028,0.0,0.0
441,110,43.7613,45.3014,184.02,100.226,98.5764,0.000799281,0.0471109,20.9531,48.7449,0.126802,0.0,0.0
444,110.75,43.8353,45.5013,177.885,100.254,99.0578,0.000787912,0.047063,20.9532,48.7149,0.0916977,0.0,0.0
447,111.5,43.4458,45.9273,183.875,100.262,98.7881,0.000768991,0.0469765,20.9532,48.6848,0.113162,0.0,0.0
450,112.25,43.7121,45.445,181.626,100.264,98.9089,0.000748987,0.0469339,20.9533,48.6848,0.10401,0.0,0.0
453,113,43.9374,45.8203,185.324,100.28,98.0239,0.000731756,0.0469028,20.9533,48.6848,0.17387,0.0,0.0
456,113.75,43.6921,45.765,189.146,100.271,98.4275,0.00070144,0.0469259,20.9533,48.6348,0.141775,0.0,0.0
459,114.5,43.8749,45.7274,182.693,100.272,99.3886,0.000671077,0.0469494,20.9533,48.6348,0.0676423,0.0,0.0
462,115.25,43.1876,45.6013,179.994,100.261,97.9792,0.000627311,0.0469959,20.9534,48.6348,0.17593,0.0,0.0
465,116,43.9301,45.5959,180.143,100.258,98.3762,0.000591702,0.0470154,20.9534,48.5848,0.144817,0.0,0.0
468,116.75,43.9889,45.8095,179.571,100.248,98.4242,0.000548375,0.0470236,20.9534,48.6448,0.140274,0.0,0.0
471,117.5,44.037,45.7209,181.715,100.268,98.3481,0.000502859,0.0469273,20.9535,48.6548,0.147699,0.0,0.0
474,118.25,43.7863,45.8438,179.165,100.243,99.1851,0.000458517,0.0468858,20.9535,48.6548,0.0810911,0.0,0.0
477,119,43.8303,45.4887,177.583,100.245,98.2968,0.000420886,0.0468753,20.9535,48.6548,0.149958,0.0,0.0
480,119.75,43.7192,45.6404,185.667,100.238,97.4846,0.000397173,0.0468805,20.9535,48.6348,0.212815,0.0,0.0
483,120.5,43.9026,45.7309,180.117,100.253,100.055,0.000381472,0.0468844,20.9535,48.6448,0.0151049,0.0,0.0
486,121.25,43.8672,45.7016,181.848,100.238,98.5979,0.00039479,0.0468721,20.9535,48.6348,0.126074,0.0,0.0
489,122,43.9597,45.5299,182.512,100.226,97.8568,0.000416905,0.0468373,20.9535,48.6248,0.182787,0.0,0.0
492,122.75,43.8192,44.9646,184.837,100.226,98.1959,0.000442235,0.0467711,20.9535,48.6348,0.156382,0.0,0.0
495,123.5,43.8055,45.8463,181.514,100.21,99.7443,0.000467403,0.0467228,20.9535,48.5948,0.0355913,0.0,0.0
498,124.25,43.7648,46.0515,178.531,100.207,98.9172,0.00048575,0.0466877,20.9535,48.5948,0.0989776,0.0,0.0
501,125,44.2249,45.3122,182.237,100.193,99.0578,0.000491678,0.046662,20.9535,48.6348,0.0870627,0.0,0.0
504,125.75,43.7926,45.9199,182.43,100.196,98.3365,0.000492826,0.046629,20.9535,48.6048,0.143115,0.0,0.0
507,126.5,44.0243,45.7704,175.335,100.181,98.0835,0.000465352,0.0465988,20.9535,48.6048,0.161717,0.0,0.0
510,127.25,43.7234,45.9799,177.594,100.179,99.688,0.000445323,0.0465972,20.9535,48.6148,0.0375676,0.0,0.0
513,128,43.65,45.5895,177.16,100.163,98.7302,0.000397124,0.0466036,20.9535,48.6248,0.110067,0.0,0.0
516,128.75,43.9393,45.9071,181.165,100.142,99.5441,0.000375099,0.0466159,20.9535,48.5848,0.0457279,0.0,0.0
519,129.5,43.6521,45.3017,174.729,100.124,99.5011,0.00036279,0.0466301,20.9535,48.5647,0.0476953,0.0,0.0
522,130.25,43.4019,45.4313,177.347,100.12,98.76,0.000370556,0.0466254,20.9535,48.5447,0.104518,0.0,0.0
525,131,43.6529,45.9853,177.276,100.109,99.1802,0.000391103,0.0465962,20.9535,48.5747,0.0712585,0.0,0.0
528,131.75,43.7757,45.9091,177.963,100.096,98.5119,0.000415039,0.0465749,20.9535,48.5848,0.121891,0.0,0.0
531,132.5,43.7641,45.8992,175.562,100.07,99.1719,0.000436956,0.0465594,20.9535,48.5347,0.0689225,0.0,0.0
534,133.25,44.1668,45.7322,178.692,100.059,98.5929,0.000458244,0.0465481,20.9535,48.5247,0.112815,0.0,0.0
537,134,44.137,45.8117,183.992,100.049,98.6608,0.000474416,0.0464581,20.9535,48.5147,0.106772,0.0,0.0
540,134.75,43.871,46.0711,176.414,100.031,98.4242,0.000487321,0.0464,20.9535,48.5247,0.123749,0.0,0.0
543,135.5,43.6503,45.9736,180.201,100.031,99.0925,0.000489649,0.0463706,20.9535,48.5147,0.0720391,0.0,0.0
546,136.25,43.9412,45.519,182.38,100.015,99.0875,0.000491347,0.0463491,20.9535,48.5747,0.071207,0.0,0.0
549,137,43.7518,45.8064,190.96,100.008,99.0048,0.000496307,0.0463335,20.9535,48.5247,0.0770115,0.0,0.0
552,137.75,44.0245,46.0074,177.597,99.981,98.8907,0.000501511,0.0463145,20.9535,48.5247,0.0837919,0.0,0.0
555,138.5,43.9839,45.812,180.732,99.9659,99.1719,0.000547803,0.0462878,20.9535,48.5347,0.0609388,0.0,0.0
558,139.25,44.344,45.8258,179.023,99.952,97.8237,0.000610127,0.0462275,20.9535,48.5247,0.164468,0.0,0.0
561,140,44.1092,46.0206,179.593,99.9357,98.229,0.000667745,0.0462265,20.9535,48.5547,0.131629,0.0,0.0
564,140.75,44.2172,45.7037,180.421,99.9373,98.5003,0.000739896,0.0462441,20.9535,48.5447,0.110677,0.0,0.0
567,141.5,43.9968,45.743,182.145,99.9055,98.8063,0.000792494,0.0462569,20.9535,48.5447,0.0845406,0.0,0.0
570,142.25,44.0821,45.4807,179.935,99.8578,98.5334,0.000829063,0.0462512,20.9535,48.5647,0.102031,0.0,0.0
573,143,43.9981,45.9188,189.016,99.8483,98.8047,0.000851991,0.0462212,20.9535,48.5747,0.0802906,0.0,0.0
576,143.75,43.751,45.9513,179.137,99.8431,98.497,0.000869734,0.0461707,20.9535,48.5447,0.103728,0.0,0.0
579,144.5,43.789,45.8906,175.701,99.8427,97.0744,0.000887146,0.0461142,20.9535,48.5447,0.21487,0.0,0.0
582,145.25,44.0604,46.0462,183.679,99.8213,98.3349,0.000907301,0.04606,20.9535,48.5447,0.114642,0.0,0.0
585,146,43.9946,45.7651,181.76,99.8125,98.846,0.0009202,0.0460614,20.9535,48.5547,0.0743561,0.0,0.0
588,146.75,44.4285,45.8191,186.894,99.7708,98.186,0.000927483,0.0460625,20.9535,48.5647,0.122356,0.0,0.0
591,147.5,44.1538,45.4172,181.761,99.7688,98.9337,0.000902954,0.0460632,20.9535,48.5647,0.0642339,0.0,0.0
594,148.25,44.2356,45.8965,179.641,99.7577,98.4457,0.000872352,0.0460788,20.9535,48.5247,0.101167,0.0,0.0
597,149,44.0265,45.7969,181.243,99.7208,98.0272,0.000821937,0.046116,20.9535,48.5147,0.13089,0.0,0.0
600,149.75,43.9936,45.9022,180.777,99.712,98.4391,0.000737125,0.0461227,20.9539,48.5047,0.0981791,0.0,0.0
603,150.5,44.0975,45.6995,181.414,99.7212,98.1546,0.000650522,0.0461124,20.9545,48.4947,0.120997,0.0,0.0
606,151.25,44.0122,45.5049,178.59,99.7299,98.0206,0.000584908,0.0460868,20.9548,48.4947,0.132106,0.0,0.0
609,152,44.0689,45.6952,181.828,99.7124,98.5665,0.000539936,0.0460809,20.9551,48.5247,0.088328,0.0,0.0
612,152.75,43.9767,45.9369,178.479,99.7124,98.2108,0.000513848,0.0460767,20.9553,48.5347,0.11595,0.0,0.0
615,153.5,43.9085,46.2601,177.898,99.7275,98.4242,0.000512528,0.046066,20.9555,48.5347,0.100521,0.0,0.0
618,154.25,44.204,45.8649,181.69,99.7331,99.1355,0.000527702,0.0460454,20.9556,48.5347,0.0459226,0.0,0.0
621,155,44.2827,46.0028,181.255,99.7327,99.1967,0.000545642,0.0461019,20.9556,48.5147,0.0411754,0.0,0.0
624,155.75,44.1393,45.9324,177.861,99.7525,97.6716,0.00058356,0.0461737,20.9557,48.5347,0.1611,0.0,0.0
627,156.5,44.0144,45.8759,182.505,99.7609,98.411,0.000629638,0.0461852,20.9557,48.5347,0.104107,0.0,0.0
630,157.25,43.3441,45.9913,178.769,99.7613,98.7584,0.000676649,0.0461649,20.9558,48.5147,0.0772108,0.0,0.0
633,158,44.3605,45.9454,175.815,99.7494,99.3671,0.000712163,0.0461379,20.9558,48.5247,0.0293406,0.0,0.0
636,158.75,43.9417,45.7579,181.885,99.7792,98.5119,0.000738583,0.0460978,20.9558,48.5147,0.0976755,0.0,0.0
639,159.5,44.1099,46.032,178.196,99.7867,99.7625,0.000740843,0.0460685,20.9558,48.5347,0.001859,0.0,0.0
642,160.25,43.9611,46.0305,180.694,99.7883,99.8634,0.000713419,0.0460472,20.9559,48.5247,-0.00574519,0.0,0.0
645,161,44.2524,45.3837,178.803,99.7994,98.3001,0.000661554,0.0460166,20.9561,48.5147,0.11567,0.0,0.0
648,161.75,44.4842,46.0037,182.09,99.7982,97.5905,0.000615059,0.0459685,20.9562,48.5147,0.170944,0.0,0.0
651,162.5,43.8378,45.7816,181.084,99.8114,99.0545,0.000577461,0.0459334,20.9563,48.5047,0.0581685,0.0,0.0
654,163.25,44.4114,46.1965,178.51,99.8145,99.5061,0.000548812,0.0459078,20.9563,48.5047,0.0236524,0.0,0.0
657,164,44.2793,45.8461,176.97,99.8284,99.0611,0.000527397,0.0459301,20.9564,48.5147,0.0589658,0.0,0.0
660,164.75,43.9622,45.7146,177.368,99.8137,100.464,0.000515326,0.0459319,20.9564,48.4847,-0.0496084,0.0,0.0
663,165.5,44.0125,46.0135,180.232,99.8364,99.1736,0.000504756,0.0459347,20.9565,48.4947,0.050902,0.0,0.0
666,166.25,43.8907,45.6751,180.236,99.8495,98.1629,0.000492087,0.0459497,20.9565,48.5047,0.130182,0.0,0.0
669,167,43.7838,46.1645,178.363,99.8507,98.8361,0.000480736,0.0459401,20.9565,48.5247,0.0780431,0.0,0.0
672,167.75,44.0546,45.9373,180.227,99.8551,98.9734,0.000445927,0.0459181,20.9565,48.5147,0.0677696,0.0,0.0
675,168.5,44.2121,45.9914,182.21,99.8463,98.1761,0.000395759,0.0458762,20.9565,48.5147,0.128909,0.0,0.0
678,169.25,44.1691,46.085,178.708,99.8853,97.7923,0.000348618,0.0458027,20.9565,48.5047,0.161818,0.0,0.0
681,170,43.732,46.0658,177.849,99.8912,98.8378,0.000290717,0.0457309,20.9565,48.4546,0.0810162,0.0,0.0
684,170.75,44.0298,45.9414,179.32,99.8892,98.1728,0.000238473,0.0457398,20.9565,48.4346,0.13245,0.0,0.0
687,171.5,43.7062,45.163,186.131,99.8892,98.7104,0.00020392,0.0457176,20.9563,48.4346,0.0907184,0.0,0.0
690,172.25,44.207,46.1638,181.752,99.9043,99.9841,0.000183684,0.0456892,20.9557,48.4546,-0.00609982,0.0,0.0
693,173,44.1079,46.1529,177.408,99.9278,97.9693,0.000175608,0.0456072,20.9553,48.4747,0.151252,0.0,0.0
696,173.75,43.6143,45.8725,181.084,99.9429,97.708,0.000177525,0.0455883,20.9554,48.4446,0.17282,0.0,0.0
699,174.5,43.8323,45.9794,181.548,99.925,100.169,0.000184224,0.0455889,20.9557,48.3846,-0.0186661,0.0,0.0
702,175.25,44.1909,45.6926,179.275,99.9361,99.3423,0.000184152,0.0455954,20.9559,48.4646,0.0455422,0.0,0.0
705,176,43.6708,45.6209,178.739,99.9449,98.4755,0.000181986,0.0455389,20.9561,48.5247,0.113178,0.0,0.0
708,176.75,43.9843,45.7214,182.232,99.95,98.5847,0.000164507,0.0455127,20.9562,48.4246,0.105106,0.0,0.0
711,177.5,43.8844,45.2256,181.718,99.9413,99.3489,0.000144336,0.0455194,20.9563,48.4146,0.0454281,0.0,0.0
714,178.25,44.1468,45.6197,180.403,99.9469,98.3928,0.000126463,0.0455448,20.9564,48.4847,0.119751,0.0,0.0
717,179,44.1582,45.9922,180.72,99.9632,98.2886,9.75724e-05,0.0455632,20.9564,48.4446,0.129095,0.0,0.0
720,179.75,44.1947,46.1985,184.026,99.9691,98.7286,6.8694e-05,0.0455136,20.9564,48.4146,0.0954177,0.0,0.0
723,180.5,44.2857,46.2575,184.237,99.9715,99.2315,3.42745e-05,0.0455346,20.9564,48.4346,0.0567761,0.0,0.0
726,181.25,43.9866,45.2832,183.811,99.9628,100.891,3.56686e-07,0.0455458,20.9562,48.4346,-0.0706015,0.0,0.0
729,182,43.5922,45.0879,180.625,99.9862,99.6864,-2.43694e-05,0.0455417,20.956,48.4346,0.0229486,0.0,0.0
732,182.75,43.4733,44.702,181.95,100.006,98.8427,-2.47418e-05,0.0455387,20.9559,48.4146,0.0894121,0.0,0.0
735,183.5,43.0768,45.3229,182.538,100.006,99.8452,-2.50133e-05,0.0455365,20.956,48.4646,0.0123051,0.0,0.0
738,184.25,43.7594,45.443,188.766,99.9782,100.292,-2.26012e-06,0.045535,20.9562,48.4046,-0.0239273,0.0,0.0
741,185,43.4956,45.4011,178.417,100.016,99.4763,2.91868e-05,0.0455338,20.9563,48.4346,0.0413784,0.0,0.0
744,185.75,43.3612,45.2472,180.731,100.025,99.3456,6.43145e-05,0.0455738,20.9559,48.4546,0.0520611,0.0,0.0
747,186.5,43.3164,45.474,181.886,100.026,99.4697,9.99567e-05,0.0456173,20.9557,48.4546,0.042615,0.0,0.0
750,187.25,43.1595,45.5557,181.083,100.024,98.8229,0.000140079,0.0456702,20.9559,48.4747,0.092343,0.0,0.0
753,188,43.1493,45.5484,181.016,100.026,99.2414,0.000194875,0.0457368,20.9561,48.4446,0.0602023,0.0,0.0
756,188.75,44.1694,45.6159,178.248,100.057,100.818,0.000217365,0.0457406,20.9562,48.4246,-0.0579221,0.0,0.0
759,189.5,43.6388,45.2892,185.007,100.065,99.4978,0.000275156,0.045745,20.9563,48.4546,0.0434294,0.0,0.0
762,190.25,43.6863,45.4807,178.624,100.081,99.827,0.000317286,0.0456888,20.9563,48.4446,0.019403,0.0,0.0
765,191,43.7082,45.4404,180.339,100.07,98.6128,0.000380265,0.0456327,20.9564,48.4546,0.112126,0.0,0.0
768,191.75,43.2053,45.1143,180.41,100.085,99.5656,0.000444506,0.045566,20.9567,48.4246,0.03977,0.0,0.0
771,192.5,43.7295,45.2887,182.786,100.098,99.1587,0.000499161,0.0455379,20.9569,48.4346,0.0720662,0.0,0.0
774,193.25,43.6447,45.1524,181.199,100.108,99.4415,0.000527096,0.045531,20.957,48.4446,0.0510269,0.0,0.0
777,194,43.2021,45.6058,181.21,100.117,99.028,0.000551918,0.0455328,20.9571,48.4246,0.0835693,0.0,0.0
780,194.75,43.7015,45.3564,178.074,100.108,99.033,0.000562264,0.0455341,20.9572,48.4546,0.0824889,0.0,0.0
783,195.5,43.7878,45.5669,177.692,100.129,99.0263,0.000561985,0.0455554,20.9572,48.4446,0.0846063,0.0,0.0
786,196.25,43.5101,45.3791,177.752,100.136,99.0032,0.00054231,0.0455635,20.9573,48.4546,0.0869699,0.0,0.0
789,197,43.5777,45.4512,184.993,100.129,99.4812,0.000527967,0.0455564,20.9573,48.4246,0.0495835,0.0,0.0
792,197.75,43.4664,45.5495,178.928,100.136,99.2695,0.000485664,0.0455438,20.9573,48.4346,0.0664413,0.0,0.0
795,198.5,43.2827,45.8423,181.42,100.147,99.3539,0.000437467,0.0455216,20.9573,48.4246,0.0607391,0.0,0.0
798,199.25,43.4578,45.1433,179.89,100.168,99.0627,0.000394932,0.0455055,20.9574,48.4246,0.0848009,0.0,0.0
801,200,43.8967,45.5421,184.276,100.17,99.0164,0.000330345,0.0454862,20.9574,48.4346,0.0884955,0.0,0.0
804,200.75,43.7366,45.3807,178.83,100.167,98.7451,0.000268399,0.0454593,20.9574,48.4646,0.109278,0.0,0.0
807,201.5,43.4387,45.3352,178.482,100.189,98.9436,0.000216906,0.0454192,20.9574,48.4046,0.0955994,0.0,0.0
810,202.25,43.6147,45.1453,178.964,100.191,99.9014,0.000189963,0.0453613,20.9574,48.3846,0.0221066,0.0,0.0
813,203,43.5939,45.5614,181.693,100.202,98.9585,0.000186426,0.0453069,20.9574,48.4046,0.0954204,0.0,0.0
816,203.75,43.5731,45.5725,181.497,100.2,99.5921,0.000190713,0.0452877,20.9574,48.4146,0.0465011,0.0,0.0
819,204.5,43.6642,45.5694,181.905,100.225,100.093,0.000214907,0.0453114,20.9574,48.4146,0.0100183,0.0,0.0
822,205.25,43.8277,45.1274,181.184,100.241,99.0263,0.000241526,0.0453931,20.9574,48.4146,0.0931242,0.0,0.0
825,206,43.3388,45.3644,175.958,100.251,98.9453,0.000290697,0.0454527,20.9574,48.4046,0.100168,0.0,0.0
828,206.75,43.5016,44.8699,175.235,100.244,99.6996,0.000347918,0.0454348,20.9576,48.4246,0.0416194,0.0,0.0
831,207.5,43.7224,45.2999,181.379,100.279,99.7591,0.000393335,0.0454422,20.9578,48.4146,0.0397211,0.0,0.0
834,208.25,43.6823,45.2265,184.831,100.275,99.1785,0.000421133,0.045419,20.9579,48.4146,0.0839937,0.0,0.0
837,209,43.5755,45.15625,183.306,100.299,99.7327,0.000432714,0.0453898,20.958,48.4146,0.0432627,0.0,0.0
840,209.75,43.3053,45.1322,179.959,100.316,99.43,0.000437453,0.0453685,20.958,48.4146,0.067794,0.0,0.0
843,210.5,43.9296,45.2443,177.672,100.326,99.6351,0.000425014,0.0453531,20.9581,48.4146,0.0528029,0.0,0.0
846,211.25,43.5068,44.6641,183.319,100.326,99.602,0.000415946,0.0453603,20.958,48.4046,0.0553709,0.0,0.0
849,212,43.8374,45.4952,178.759,100.357,99.6814,0.000425258,0.0453732,20.9578,48.3946,0.0515815,0.0,0.0
852,212.75,43.7587,45.1237,180.833,100.347,98.9949,0.000438251,0.0453954,20.9577,48.3846,0.103663,0.0,0.0
855,213.5,43.2276,45.4445,179.984,100.365,99.4862,0.000452979,0.0454525,20.9576,48.3746,0.0671944,0.0,0.0
858,214.25,43.9604,45.6847,179.28,100.385,100.111,0.000468183,0.0454655,20.9575,48.3946,0.0208294,0.0,0.0
861,215,43.6201,45.011,180.24,100.397,99.8518,0.000482807,0.0454477,20.9575,48.3946,0.0416158,0.0,0.0
864,215.75,43.5598,45.2057,184.806,100.4,99.3439,0.000494709,0.0454089,20.9574,48.3846,0.0808216,0.0,0.0
867,216.5,43.7822,45.3383,182.916,100.401,99.4415,0.000501955,0.0453806,20.9574,48.3946,0.0733781,0.0,0.0
870,217.25,43.6668,45.3005,179.775,100.413,99.8584,0.000503887,0.0453751,20.9574,48.3946,0.0422898,0.0,0.0
873,218,44.2327,45.403,177.328,100.419,100.138,0.000503335,0.0453968,20.9574,48.4146,0.0214108,0.0,0.0
876,218.75,43.7388,45.2268,180.567,100.446,99.6963,0.000499583,0.0453901,20.9574,48.4046,0.0572445,0.0,0.0
879,219.5,44.0788,45.3949,179.792,100.438,99.6384,0.000501811,0.0453465,20.9574,48.3946,0.0610491,0.0,0.0
882,220.25,44.0437,45.4645,179.968,100.442,99.4085,0.000505552,0.0453147,20.9574,48.3946,0.079006,0.0,0.0
885,221,43.7822,45.2822,177.957,100.448,99.6119,0.000523174,0.0452915,20.9574,48.3746,0.0638346,0.0,0.0
888,221.75,43.2035,45.0942,181.905,100.457,99.6533,0.000552173,0.0453563,20.9574,48.4046,0.0613889,0.0,0.0
891,222.5,43.4924,45.0535,177.572,100.467,99.6599,0.000590078,0.0453893,20.9574,48.3946,0.0616066,0.0,0.0
894,223.25,43.4994,45.3002,178.125,100.451,99.8204,0.00062657,0.045377,20.9574,48.4046,0.0481343,0.0,0.0
897,224,43.5504,45.3633,176.855,100.494,99.3886,0.0006266,0.0453165,20.9574,48.3946,0.0845514,0.0,0.0
900,224.75,43.9972,45.2285,181.574,100.47,99.2695,0.000626616,0.045257,20.9574,48.3946,0.0918705,0.0,0.0
903,225.5,43.755,45.5858,181.951,100.492,99.9974,0.000554075,0.0451697,20.9574,48.3645,0.0376791,0.0,0.0
906,226.25,43.3597,45.3094,182.567,100.471,99.6831,0.000501339,0.045181,20.9574,48.3645,0.0601336,0.0,0.0
909,227,43.5641,45.239,184.789,100.504,100.489,0.000420314,0.0452016,20.9574,48.3746,0.00113495,0.0,0.0
912,227.75,43.3902,45.4946,177.69,100.502,99.7542,0.000348878,0.0452295,20.9574,48.3545,0.0570392,0.0,0.0
915,228.5,43.749,45.2202,184.444,100.478,99.7194,0.000296802,0.0452122,20.9574,48.3545,0.0578882,0.0,0.0
918,229.25,43.4296,45.3003,178.206,100.492,100.126,0.000277423,0.0451351,20.9573,48.3645,0.0278858,0.0,0.0
921,230,43.4417,44.9118,181.401,100.524,99.9891,0.000285574,0.0451197,20.9571,48.3445,0.0407886,0.0,0.0
924,230.75,43.4336,45.186,176.786,100.529,99.9163,0.000316063,0.0451236,20.9569,48.3645,0.0467157,0.0,0.0
927,231.5,43.634,44.8945,187.82,100.537,98.6211,0.00035938,0.0451522,20.9568,48.3846,0.147056,0.0,0.0
930,232.25,43.7714,45.0696,181.498,100.55,100.204,0.00039995,0.0451806,20.9567,48.3746,0.0263354,0.0,0.0
933,233,43.6768,45.2028,176.338,100.53,99.2728,0.000412155,0.0452142,20.9567,48.3746,0.0961779,0.0,0.0
936,233.75,43.8004,45.8283,180.421,100.559,99.3158,0.000400597,0.0451814,20.9566,48.3846,0.0950425,0.0,0.0
939,234.5,43.1531,45.4142,179.842,100.551,99.5441,0.000369852,0.0451256,20.9566,48.3746,0.0768951,0.0,0.0
942,235.25,43.6781,45.3467,181.04,100.543,99.3704,0.00032885,0.045072,20.9566,48.3846,0.0896056,0.0,0.0
945,236,43.532,46.0638,179.633,100.551,100.118,0.000294753,0.0450533,20.9566,48.3645,0.0329586,0.0,0.0
948,236.75,43.8273,45.4046,181.299,100.538,100.252,0.000281917,0.045054,20.9566,48.3545,0.0217723,0.0,0.0
951,237.5,43.6365,45.6646,181.232,100.564,100.156,0.000290406,0.0450757,20.9565,48.3645,0.0310509,0.0,0.0
954,238.25,43.5348,45.1217,180.112,100.555,100.196,0.00033374,0.0451173,20.9565,48.3846,0.0273585,0.0,0.0
957,239,43.6761,45.4736,180.194,100.546,100.007,0.00036533,0.0451068,20.9565,48.3345,0.0410595,0.0,0.0
960,239.75,43.5887,44.9919,179.151,100.568,99.2497,0.000450327,0.0450916,20.9565,48.3746,0.100799,0.0,0.0
963,240.5,43.9993,45.5718,180.043,100.554,100.679,0.000539605,0.0450676,20.9565,48.3545,-0.00948195,0.0,0.0
966,241.25,43.3998,45.2463,179.621,100.569,100.459,0.000616334,0.0450514,20.9565,48.3645,0.00838243,0.0,0.0
969,242,43.3105,45.3923,178.543,100.564,100.657,0.000679362,0.0450402,20.9567,48.3645,-0.00706442,0.0,0.0
972,242.75,43.9537,45.4353,181.932,100.544,100.284,0.000716607,0.0451137,20.9569,48.3445,0.0197991,0.0,0.0
975,243.5,43.7064,45.1595,178.65,100.57,100.204,0.00074005,0.0451529,20.957,48.3846,0.027845,0.0,0.0
978,244.25,43.8165,45.1405,177.018,100.571,100.983,0.000732328,0.0451754,20.9571,48.3645,-0.0312805,0.0,0.0
981,245,43.4731,45.2832,183.855,100.595,99.511,0.000664503,0.0451887,20.9578,48.3645,0.0827863,0.0,0.0
984,245.75,43.8248,45.167,177.044,100.559,100.09,0.000614458,0.0451834,20.9582,48.3545,0.0357391,0.0,0.0
987,246.5,43.5798,45.5641,176.384,100.578,101.719,0.000499614,0.0451469,20.9579,48.3445,-0.086238,0.0,0.0
990,247.25,43.7283,45.0751,182.941,100.578,99.3952,0.000434442,0.0451209,20.9583,48.3445,0.090415,0.0,0.0
993,248,43.7559,45.3045,183.462,100.566,100.801,0.000355888,0.04505,20.9587,48.3045,-0.0178311,0.0,0.0
996,248.75,43.5409,45.7679,181.731,100.548,99.7972,0.000295004,0.0449983,20.959,48.2945,0.0572797,0.0,0.0
999,249.5,43.6824,45.1931,178.003,100.563,98.9436,0.000253963,0.044953,20.9585,48.3045,0.124065,0.0,0.0
1002,250.25,43.7524,45.3511,178.066,100.579,100.59,0.000222278,0.0449072,20.9582,48.3245,-0.000796204,0.0,0.0
1005,251,43.7922,45.6912,185.344,100.564,99.5888,0.000199179,0.0449039,20.958,48.3245,0.0744941,0.0,0.0
1008,251.75,43.6082,45.5469,183.612,100.561,99.3224,0.000168667,0.044953,20.9578,48.3145,0.0947151,0.0,0.0
1011,252.5,43.7469,45.7885,175.094,100.551,100.068,0.000123043,0.0450033,20.9568,48.3245,0.0367463,0.0,0.0
1014,253.25,43.6664,45.3866,177.743,100.568,100.123,8.26178e-05,0.0450645,20.9561,48.3345,0.0338774,0.0,0.0
1017,254,43.7909,45.2181,184.305,100.551,99.8336,4.08947e-05,0.0450805,20.9554,48.3645,0.0547351,0.0,0.0
1020,254.75,43.7579,45.0076,178.48,100.555,99.7873,3.87238e-05,0.0450799,20.9552,48.3445,0.0585834,0.0,0.0
1023,255.5,43.8572,45.0672,184.933,100.545,100.604,6.68629e-05,0.0450795,20.9554,48.2544,-0.00452507,0.0,0.0
1026,256.25,43.3946,45.8009,180.631,100.554,99.8452,0.000100047,0.0450936,20.9554,48.2344,0.0540305,0.0,0.0
1029,257,43.6374,45.3273,178.616,100.552,100.017,0.000156055,0.0450873,20.9555,48.3345,0.0407242,0.0,0.0
1032,257.75,43.8228,45.5686,180.143,100.527,98.6326,0.000209283,0.0450441,20.9553,48.3746,0.145374,0.0,0.0
1035,258.5,43.6815,45.5064,184.365,100.522,100.244,0.000254677,0.0449982,20.9548,48.3545,0.0211646,0.0,0.0
1038,259.25,43.5577,45.1429,186.796,100.546,100.03,0.000290003,0.0449587,20.9544,48.3545,0.0393205,0.0,0.0
1041,260,43.6889,45.4317,178.146,100.536,99.4515,0.000323196,0.0449299,20.9541,48.3445,0.0828917,0.0,0.0
1044,260.75,43.696,45.2887,177.275,100.528,100.361,0.000350566,0.0449232,20.9539,48.3045,0.0126698,0.0,0.0
1047,261.5,44.2163,45.5702,181.428,100.524,100.284,0.000386445,0.0449772,20.9537,48.3245,0.0183189,0.0,0.0
1050,262.25,44.025,44.9345,179.765,100.52,99.8617,0.000416302,0.0451068,20.9536,48.3045,0.0501971,0.0,0.0
1053,263,43.7991,45.6829,180.468,100.516,99.8683,0.000439647,0.0452168,20.9535,48.3145,0.049388,0.0,0.0
1056,263.75,43.6036,45.1888,181.284,100.506,99.9593,0.000431892,0.0452962,20.9536,48.3145,0.0417046,0.0,0.0
1059,264.5,43.678,45.6136,183.457,100.508,99.784,0.000408878,0.0453412,20.9538,48.3145,0.0552723,0.0,0.0
1062,265.25,43.8173,45.472,188.501,100.491,99.5325,0.000380785,0.0453596,20.9539,48.3145,0.0732527,0.0,0.0
1065,266,43.7796,45.5846,181.233,100.504,100.064,0.000353611,0.0453293,20.954,48.3145,0.0335618,0.0,0.0
1068,266.75,43.9685,45.4228,184.393,100.5,100.113,0.000335041,0.0452427,20.954,48.3445,0.0294703,0.0,0.0
1071,267.5,43.3893,45.4012,181.784,100.49,100.343,0.000326599,0.0451939,20.9541,48.3345,0.0111545,0.0,0.0
1074,268.25,44.216,45.9217,178.989,100.476,100.335,0.000328254,0.0451871,20.9541,48.3445,0.010757,0.0,0.0
1077,269,43.8661,45.8256,179.078,100.479,100.062,0.000334767,0.0452208,20.9541,48.3245,0.0317849,0.0,0.0
1080,269.75,44.3504,46.0772,177.77,100.475,100.398,0.000330836,0.045327,20.9541,48.3145,0.00585056,0.0,0.0
1083,270.5,43.7803,45.2849,176.272,100.475,100.695,0.000310573,0.0453902,20.9541,48.3746,-0.0167793,0.0,0.0
1086,271.25,43.5669,45.5224,182.58,100.449,100.413,0.000272381,0.0454158,20.9541,48.3545,0.00278242,0.0,0.0
1089,272,43.71,45.6789,180.216,100.458,99.3075,0.000198618,0.0454284,20.9542,48.3445,0.0880056,0.0,0.0
1092,272.75,44.4812,45.7073,187.757,100.455,99.9279,0.000144846,0.0454375,20.9542,48.3445,0.0402104,0.0,0.0
1095,273.5,43.8397,45.4261,179.564,100.458,100.604,0.000105646,0.0454442,20.9542,48.3145,-0.0111416,0.0,0.0
1098,274.25,44.02,45.5273,177.51,100.431,100.363,5.23148e-05,0.0454566,20.9542,48.2845,0.0051997,0.0,0.0
1101,275,43.3467,45.9335,179.752,100.433,100.48,1.07007e-05,0.0454785,20.9548,48.3045,-0.00358585,0.0,0.0
1104,275.75,43.6698,45.6282,179.271,100.434,99.7889,-6.26889e-06,0.0454945,20.9553,48.3245,0.0492712,0.0,0.0
1107,276.5,43.9546,45.2147,179.878,100.427,99.559,1.13737e-05,0.045476,20.9556,48.2645,0.0663248,0.0,0.0
1110,277.25,43.7444,45.3325,177.731,100.412,101.132,3.66183e-05,0.045411,20.9559,48.2444,-0.0546244,0.0,0.0
1113,278,43.9484,45.2237,177.587,100.411,100.729,6.09527e-05,0.0454248,20.956,48.2845,-0.0240964,0.0,0.0
1116,278.75,43.8545,45.5213,180.44,100.395,99.7426,7.98073e-05,0.0454349,20.9562,48.2845,0.049855,0.0,0.0
1119,279.5,43.7788,45.5898,181.997,100.39,99.4101,8.82522e-05,0.0454423,20.9563,48.2945,0.0749479,0.0,0.0
1122,280.25,43.5858,45.5261,172.873,100.393,99.6764,9.44085e-05,0.0454068,20.9563,48.3145,0.0547152,0.0,0.0
1125,281,43.8147,45.172,181.852,100.381,99.6831,0.000105962,0.045381,20.9564,48.3245,0.0532996,0.0,0.0
1128,281.75,43.5126,45.2437,179.667,100.36,100.662,0.000120579,0.0453621,20.9564,48.3245,-0.0229766,0.0,0.0
1131,282.5,43.5787,45.0031,182.714,100.356,100.811,0.000133874,0.0453075,20.9564,48.3345,-0.0345727,0.0,0.0
1134,283.25,43.6085,45.4577,183.309,100.355,102.02,0.00016834,0.0452519,20.9565,48.3245,-0.125776,0.0,0.0
1137,284,43.9511,44.9684,179.888,100.356,100.599,0.000206515,0.0451845,20.9565,48.3145,-0.018536,0.0,0.0
1140,284.75,43.8255,45.5515,187.685,100.328,100.79,0.00025666,0.0451149,20.9564,48.3445,-0.0350604,0.0,0.0
1143,285.5,43.7652,45.6172,183.878,100.337,99.42,0.000317987,0.0450717,20.9562,48.3345,0.0701303,0.0,0.0
1146,286.25,43.7759,45.7431,182.874,100.331,101.139,0.00037014,0.0450531,20.9561,48.3445,-0.0612657,0.0,0.0
1149,287,44.276,44.9364,178.935,100.313,100.629,0.000411333,0.0450682,20.9559,48.3345,-0.0240361,0.0,0.0
1152,287.75,43.6219,45.6395,179.911,100.288,100.69,0.000445086,0.0450914,20.9559,48.3445,-0.0306192,0.0,0.0
1155,288.5,44.0083,45.5778,178.885,100.302,100.422,0.000471279,0.0450654,20.9558,48.3345,-0.00916546,0.0,0.0
1158,289.25,44.0427,45.4605,180.826,100.288,100.404,0.000492145,0.0450356,20.9558,48.3445,-0.00884033,0.0,0.0
1161,290,44.0553,45.0786,179.817,100.284,100.156,0.000503633,0.0450268,20.9557,48.3345,0.00973449,0.0,0.0
1164,290.75,43.8023,45.3539,182.102,100.257,99.554,0.000502974,0.0450408,20.9557,48.3345,0.0537835,0.0,0.0
1167,291.5,43.2572,45.6728,180.423,100.248,99.7575,0.000495401,0.0450797,20.9557,48.3045,0.0374552,0.0,0.0
1170,292.25,44.1967,45.4156,175.706,100.265,100.313,0.000483181,0.0451918,20.9557,48.3045,-0.00366924,0.0,0.0
1173,293,43.9845,45.5237,184.007,100.254,100.116,0.000467195,0.0453041,20.9557,48.2945,0.0104623,0.0,0.0
1176,293.75,43.7274,45.6265,179.49,100.245,100.067,0.000455542,0.0453573,20.9557,48.3145,0.0135846,0.0,0.0
1179,294.5,43.8258,45.5443,184.584,100.225,99.3936,0.000430925,0.0453838,20.9557,48.3145,0.0636558,0.0,0.0
1182,295.25,43.5604,45.5356,178.551,100.246,100.365,0.000394364,0.0454645,20.9557,48.3245,-0.0090282,0.0,0.0
1185,296,43.8186,45.4916,182.284,100.234,99.8551,0.000347631,0.0455233,20.9557,48.3245,0.0289231,0.0,0.0
1188,296.75,43.2721,45.3526,186.768,100.222,99.6566,0.000297917,0.0455518,20.9557,48.2745,0.04325,0.0,0.0
1191,297.5,43.8855,45.3793,182.954,100.198,100.159,0.000234922,0.0455522,20.9559,48.2845,0.00296909,0.0,0.0
1194,298.25,43.7527,45.2573,178.376,100.196,100.113,0.000187233,0.0455162,20.9561,48.3045,0.0062911,0.0,0.0
1197,299,43.9053,45.5827,175.277,100.185,99.7955,0.000156182,0.0454384,20.9562,48.3145,0.0297544,0.0,0.0
1200,299.75,43.7332,45.2788,180.688,100.155,100.373,0.000138389,0.0453961,20.9563,48.3545,-0.016567,0.0,0.0
1202,300.25,43.9264,45.6341,180.01,100.172,99.3704,0.000133201,0.0453787,20.9563,48.3445,0.0613762,0.0,0.0