File: 01_Data/Feather_Pillow_Feathers/Cone/Feather_Pillow_Feathers_Cone_HF50Scan_230710_R1.csv
Names,Time,Stack TC,Smoke TC,Exh Press,Smoke Comp,Smoke Meas,CO Meter,CO2 Meter,O2 Meter,Sample Mass,Ext Coeff,Start Test,Flame Verif
Chan Gain,,500,500,1,1,1,1,1,1,1,1,1.0,1.0
Offset,,0,0,0.18266,0,0,0,0,0,0,0,0.0,0.0
Gain,,1,1,25.011,13.1186,54.4142,1,1,1,1.00092,0.871134,1.0,1.0
Units,sec,C,C,Pa,%,%,%,%,%,g,/m,,
Baseline,,55.0673,57.6401,174.398,100.467,103.958,0.00034239,0.0439879,20.9517,-446.51,-0.26082,,
2,0.25,54.0293,53.1947,175.723,100.755,104.717,0.00058112,0.0438383,20.95,49.7758,-0.294717,0.0,0.0
4,0.75,52.9845,53.994,172.114,100.756,102.81,0.000589757,0.0438318,20.9499,49.7258,-0.154231,0.0,0.0
6,1.25,53.2537,54.002,175.358,100.761,101.685,0.000596753,0.0438839,20.9498,49.7358,-0.0697222,0.0,0.0
8,1.75,52.4546,53.9956,176.061,100.808,99.7666,0.000580076,0.043926,20.9497,49.6457,0.079372,0.0,0.0
10,2.25,52.3985,54.2502,173.551,100.831,96.0884,0.000566567,0.0439526,20.9496,49.5857,0.368185,0.0,0.0
12,2.75,52.6381,54.4487,182.331,100.845,92.6111,0.000548179,0.0439674,20.9495,49.4856,0.650878,0.0,0.0
14,3.25,53.5723,54.5435,162.364,100.879,106.288,0.000533286,0.0440177,20.9495,49.3555,-0.399093,0.0,1.0
16,3.75,52.9141,55.2215,163.507,100.9,108.061,0.000525129,0.0440929,20.9494,49.2253,-0.523941,0.0,1.0
18,4.25,53.2958,56.0434,158.7,100.944,108.767,0.00052204,0.0441539,20.9496,49.1953,-0.570381,0.0,1.0
20,4.75,53.9678,56.9814,158.632,100.93,108.437,0.000519538,0.0442319,20.95,49.0952,-0.548159,0.0,1.0
22,5.25,53.7643,57.9601,154.809,100.978,108.586,0.000524958,0.0442951,20.9502,48.9551,-0.555048,0.0,1.0
24,5.75,54.3852,59.0636,151.691,100.958,108.573,0.000529348,0.0443614,20.9502,48.905,-0.555628,0.0,1.0
26,6.25,55.1171,60.2344,153.772,100.982,108.088,0.000519253,0.0444286,20.9502,48.895,-0.519606,0.0,1.0
28,6.75,55.3551,61.679,154.068,101.012,108.246,0.000511075,0.044526,20.9501,48.7349,-0.528539,0.0,1.0
30,7.25,56.0755,62.7333,156.262,101.019,108.335,0.000478405,0.0446049,20.9501,48.6949,-0.534323,0.0,1.0
32,7.75,56.3545,63.5584,154.965,101.045,107.488,0.000451941,0.0446538,20.9501,48.5447,-0.472383,0.0,1.0
34,8.25,56.4046,64.4748,163.247,101.066,107.407,0.00040768,0.0446797,20.9501,48.6148,-0.464961,0.0,1.0
36,8.75,57.135,65.3621,147.352,101.083,107.576,0.000351284,0.0447008,20.9501,48.4046,-0.47573,0.0,1.0
38,9.25,57.717,66.4884,157.45,101.068,106.367,0.000305603,0.0449757,20.9501,48.2945,-0.390552,0.0,1.0
40,9.75,57.9014,67.5915,150.217,101.092,106.598,0.000267363,0.0451983,20.9501,48.2645,-0.40527,0.0,1.0
42,10.25,58.5155,68.3506,148.837,101.105,106.338,0.000264436,0.0470574,20.9501,48.1844,-0.385559,0.0,1.0
44,10.75,59.199,69.1813,147.607,101.133,104.944,0.000287307,0.0485632,20.9497,48.0943,-0.282691,0.0,1.0
46,11.25,59.0962,70.0514,154.086,101.107,105.886,0.000305833,0.0571546,20.9493,47.9642,-0.352911,0.0,1.0
48,11.75,59.9322,71.1466,158.543,101.152,103.803,0.000423919,0.0641136,20.9486,47.9542,-0.197715,0.0,1.0
50,12.25,60.237,71.809,156.885,101.135,102.36,0.000519568,0.0839537,20.948,47.8841,-0.0920392,0.0,0.0
52,12.75,60.7719,72.2645,153.779,101.16,101.859,0.00072162,0.100024,20.9417,47.814,-0.0526333,0.0,0.0
54,13.25,61.163,72.9632,155.326,101.136,99.8912,0.000885282,0.12796,20.9366,47.814,0.0946215,0.0,0.0
56,13.75,61.573,73.1521,153.266,101.174,101.24,0.0011103,0.150588,20.9238,47.744,-0.00496579,0.0,0.0
58,14.25,62.0074,73.8063,157.528,101.153,101.045,0.00129257,0.17693,20.9056,47.6939,0.00814039,0.0,0.0
60,14.75,61.9124,74.1759,155.236,101.171,99.755,0.00150315,0.217647,20.8846,47.6839,0.107707,0.0,0.0
62,15.25,62.205,74.1838,159.601,101.155,99.3299,0.0016,0.2286,20.8671,47.6739,0.139132,0.0,0.0
64,15.75,62.5663,74.7301,156.994,101.164,99.2535,0.00176563,0.252069,20.8372,47.5938,0.145676,0.0,0.0
66,16.25,62.5834,75.1136,158.842,101.171,98.1525,0.00191562,0.275345,20.8035,47.5638,0.231488,0.0,0.0
68,16.75,62.6629,74.9644,153.152,101.159,93.7287,0.00205137,0.296085,20.7679,47.5138,0.582964,0.0,0.0
70,17.25,63.1413,75.5245,155.764,101.165,97.9283,0.00217256,0.314583,20.7314,47.5038,0.248478,0.0,0.0
72,17.75,63.5351,75.8935,160.5,101.17,95.8078,0.00228082,0.33104,20.6952,47.4437,0.416161,0.0,0.0
74,18.25,63.6209,76.4206,158.175,101.158,93.737,0.00238504,0.345695,20.6658,47.3336,0.582226,0.0,0.0
76,18.75,63.615,76.4001,158.102,101.165,97.3056,0.00248433,0.357566,20.6347,47.3236,0.297194,0.0,0.0
78,19.25,64.1206,76.7505,158.192,101.148,97.8055,0.00256475,0.368773,20.603,47.3036,0.256771,0.0,0.0
80,19.75,64.5355,77.0524,162.598,101.147,93.6457,0.00268949,0.379282,20.5773,47.2135,0.588858,0.0,0.0
82,20.25,64.4827,77.1111,154.309,101.131,92.5264,0.00284416,0.387748,20.5516,47.1935,0.679468,0.0,0.0
84,20.75,64.9857,77.0789,159.013,101.131,98.2355,0.0030219,0.394563,20.5308,47.1935,0.222002,0.0,0.0
86,21.25,65.0041,77.3588,165.544,101.105,96.2943,0.00321309,0.400083,20.5086,47.0934,0.372552,0.0,0.0
88,21.75,65.2835,77.6556,163.177,101.123,98.6208,0.00336794,0.402116,20.4906,47.1134,0.191427,0.0,0.0
90,22.25,65.2398,77.8002,159.402,101.109,97.9997,0.00360091,0.403763,20.4761,47.1634,0.238672,0.0,0.0
92,22.75,65.3511,77.2902,162.306,101.096,97.3023,0.00378962,0.402691,20.4643,46.9733,0.292252,0.0,0.0
94,23.25,65.103,77.6966,161.296,101.083,96.5667,0.00398937,0.399658,20.4547,47.0033,0.349306,0.0,0.0
96,23.75,65.9667,77.7142,159.891,101.076,99.8264,0.00415117,0.397202,20.447,47.0033,0.0950695,0.0,0.0
98,24.25,65.8176,77.709,168.513,101.059,100.57,0.00430093,0.391367,20.4407,47.0233,0.0370618,0.0,0.0
100,24.75,65.909,77.627,161.225,101.057,103.314,0.00443907,0.386641,20.4365,46.9733,-0.168738,0.0,0.0
102,25.25,65.9609,77.7098,163.473,101.056,104.325,0.00455096,0.381543,20.4331,47.0133,-0.243236,0.0,0.0
104,25.75,66.0094,77.523,165.933,101.026,105.354,0.00469114,0.377413,20.4341,47.0533,-0.32055,0.0,0.0
106,26.25,66.0533,77.0194,168.772,101.033,105.987,0.00480468,0.374293,20.4383,47.0634,-0.365787,0.0,0.0
108,26.75,66.2553,77.2127,169.917,100.998,104.365,0.00495644,0.37197,20.4436,47.0734,-0.250605,0.0,0.0
110,27.25,66.0467,76.5118,162.309,100.994,105.293,0.00507937,0.370033,20.4496,47.0634,-0.318575,0.0,0.0
112,27.75,66.0449,76.0886,170.299,100.969,105.841,0.00524776,0.368416,20.4544,47.0734,-0.36009,0.0,0.0
114,28.25,66.0615,75.8181,168.418,100.976,105.771,0.00538415,0.367106,20.4588,47.1034,-0.354538,0.0,0.0
116,28.75,66.1778,75.4392,169.11,100.956,105.447,0.00549463,0.364762,20.4623,47.0934,-0.332593,0.0,0.0
118,29.25,65.6619,75.3521,169.026,100.952,105.061,0.00567606,0.362863,20.4654,47.1034,-0.304805,0.0,0.0
120,29.75,65.5007,74.8338,164.908,100.924,106.062,0.00582302,0.359185,20.4681,47.1134,-0.379414,0.0,0.0
122,30.25,65.6989,74.5107,169.656,100.927,105.771,0.00595996,0.354279,20.4706,47.0934,-0.358235,0.0,0.0
124,30.75,65.1701,73.6551,172.37,100.896,105.658,0.00607088,0.347846,20.4728,47.1034,-0.352468,0.0,0.0
126,31.25,64.4795,73.3366,172.512,100.896,106.48,0.00613583,0.340422,20.476,47.1034,-0.411656,0.0,0.0
128,31.75,64.3797,73.1593,170.937,100.874,105.268,0.00616604,0.329794,20.4798,47.0934,-0.32586,0.0,0.0
130,32.25,64.0104,72.0619,172.719,100.863,105.542,0.00610119,0.321185,20.4871,47.0934,-0.346543,0.0,0.0
132,32.75,64.5787,72.41,172.549,100.84,105.164,0.00604865,0.308613,20.4969,47.0934,-0.32081,0.0,0.0
134,33.25,64.4382,71.4921,170.152,100.831,105.577,0.00589537,0.29843,20.5081,47.1234,-0.351495,0.0,0.0
136,33.75,64.3154,71.4095,166.135,100.811,106.044,0.00577121,0.286243,20.5201,47.1134,-0.38665,0.0,0.0
138,34.25,64.2427,71.6336,168.316,100.801,106.534,0.00560053,0.272827,20.5298,47.0934,-0.422628,0.0,0.0
140,34.75,63.8583,71.2918,173.202,100.769,105.162,0.00539917,0.26196,20.5449,47.0834,-0.326031,0.0,0.0
142,35.25,63.641,70.7198,173.015,100.759,104.943,0.00523606,0.243134,20.557,47.1034,-0.310906,0.0,0.0
144,35.75,63.7984,70.2798,174.295,100.724,104.694,0.00504006,0.227885,20.5669,47.1034,-0.295358,0.0,0.0
146,36.25,63.7555,70.4065,174.221,100.729,105.17,0.00482379,0.21112,20.584,47.1034,-0.329732,0.0,0.0
148,36.75,63.5352,70.1401,170.077,100.686,105.178,0.00462006,0.19357,20.5978,47.0934,-0.333585,0.0,0.0
150,37.25,63.3832,69.4926,172.588,100.691,104.483,0.00442934,0.179354,20.6197,47.0834,-0.282502,0.0,0.0
152,37.75,63.6819,69.7079,167.613,100.679,106.922,0.00427485,0.163767,20.6375,47.0834,-0.459773,0.0,0.0
154,38.25,63.3061,69.4406,173.722,100.715,105.388,0.0041094,0.151142,20.6584,47.0634,-0.346523,0.0,0.0
156,38.75,63.1788,69.0229,171.926,100.683,103.732,0.00397538,0.138233,20.6813,47.0634,-0.228015,0.0,0.0
158,39.25,63.5577,68.9916,175.309,100.699,105.067,0.00383913,0.127777,20.7058,47.0333,-0.324525,0.0,0.0
160,39.75,63.011,69.0908,169.205,100.709,104.481,0.00372877,0.118015,20.7308,47.0634,-0.281013,0.0,0.0
162,40.25,63.1673,68.8975,169.348,100.732,106.07,0.00362554,0.110109,20.7542,47.0533,-0.394606,0.0,0.0
164,40.75,63.0549,68.5104,172.722,100.721,104.964,0.00354192,0.103096,20.7758,47.0634,-0.315363,0.0,0.0
166,41.25,62.6794,68.4314,168.788,100.753,104.65,0.00347167,0.0974157,20.7934,47.0734,-0.29005,0.0,0.0
168,41.75,63.0354,68.3708,174.252,100.745,104.901,0.00341477,0.0928146,20.8093,47.0834,-0.308945,0.0,0.0
170,42.25,62.8612,68.078,169.518,100.768,106.617,0.00336868,0.0888974,20.8236,47.0634,-0.431131,0.0,0.0
172,42.75,63.0657,67.9296,172.459,100.771,104.537,0.00333135,0.0855531,20.8352,47.0634,-0.280404,0.0,0.0
174,43.25,62.7194,67.696,171.826,100.786,104.048,0.00332627,0.0828442,20.846,47.0734,-0.243357,0.0,0.0
176,43.75,62.8821,67.8906,167.201,100.797,106.537,0.00333542,0.0805343,20.8548,47.0734,-0.423169,0.0,0.0
178,44.25,63.2833,67.9035,169.164,100.799,104.405,0.00335476,0.0786633,20.8628,47.0834,-0.268593,0.0,0.0
180,44.75,62.3713,67.9285,174.111,100.829,104.811,0.00337042,0.0771859,20.8702,47.0533,-0.296005,0.0,0.0
182,45.25,62.5831,67.1213,167.289,100.84,105.376,0.0034184,0.0760234,20.8766,47.0734,-0.336209,0.0,0.0
184,45.75,62.3961,66.8668,170.851,100.838,105.301,0.00345727,0.0751648,20.8822,47.0533,-0.330971,0.0,0.0
186,46.25,62.497,67.5433,169.116,100.849,105.198,0.00350999,0.074544,20.8868,47.0533,-0.322676,0.0,0.0
188,46.75,62.0671,67.2225,168.354,100.863,105.605,0.00359818,0.0739136,20.8931,47.0634,-0.35108,0.0,0.0
190,47.25,62.3666,66.6723,172.183,100.869,106.834,0.00363054,0.0737577,20.8948,47.0533,-0.43903,0.0,0.0
192,47.75,62.4991,66.7951,169.938,100.885,105.119,0.00368587,0.0734987,20.8977,47.0533,-0.314154,0.0,0.0
194,48.25,62.3668,66.5563,171.988,100.901,104.919,0.00372737,0.0732957,20.9001,47.0634,-0.298442,0.0,0.0
196,48.75,62.1511,66.4766,175.31,100.913,105.401,0.003758,0.0731313,20.9024,47.0533,-0.332496,0.0,0.0
198,49.25,62.503,66.3776,170.172,100.928,105.366,0.0037828,0.0728824,20.9043,47.0233,-0.328876,0.0,0.0
200,49.75,62.4894,66.1391,170.649,100.93,105.67,0.00375495,0.0726808,20.9059,47.0233,-0.350671,0.0,0.0
202,50.25,62.4182,66.5449,177.76,100.934,103.704,0.0037324,0.0725023,20.9071,47.0533,-0.206878,0.0,0.0
204,50.75,62.3397,66.3754,170.199,100.96,104.815,0.00367632,0.072344,20.9081,47.0734,-0.286302,0.0,0.0
206,51.25,62.2237,66.36,170.169,100.955,104.313,0.00363089,0.0721701,20.909,47.0834,-0.250047,0.0,0.0
208,51.75,62.0262,66.4045,170.5,100.959,105.672,0.00356137,0.0719881,20.9099,47.0734,-0.348609,0.0,0.0
210,52.25,62.2146,66.0635,173.405,100.985,106.505,0.00350505,0.0717798,20.9108,47.0834,-0.406715,0.0,0.0
212,52.75,62.2431,66.1485,169.728,101.03,104.886,0.0034393,0.0715563,20.9116,47.0734,-0.286236,0.0,0.0
214,53.25,61.9263,65.9015,171.036,101.017,105.927,0.00338604,0.0713464,20.9122,47.0934,-0.362686,0.0,0.0
216,53.75,62.0735,66.0597,173.847,101.025,105.165,0.00332782,0.0711763,20.9127,47.0734,-0.306898,0.0,0.0
218,54.25,62.046,65.429,167.788,101.022,106.178,0.00328065,0.0710386,20.9131,47.0634,-0.380391,0.0,0.0
220,54.75,61.6895,65.4833,168.747,101.058,104.743,0.00322736,0.070927,20.9134,47.0634,-0.273705,0.0,0.0
222,55.25,61.7111,65.5153,168.035,101.041,104.848,0.0031658,0.07076,20.9138,47.0734,-0.282635,0.0,0.0
224,55.75,61.7,65.0975,169.289,101.087,104.742,0.00314924,0.0706911,20.9139,47.0533,-0.271404,0.0,0.0
226,56.25,61.829,64.8858,170.704,101.061,105.361,0.00310207,0.0705733,20.9143,47.0533,-0.318427,0.0,0.0
228,56.75,62.0646,65.3238,172.088,101.115,104.071,0.00306386,0.0704778,20.9148,47.0333,-0.220184,0.0,0.0
230,57.25,61.4883,65.6569,173.514,101.101,104.767,0.00303226,0.0704005,20.9153,47.0533,-0.272162,0.0,0.0
232,57.75,61.3814,65.4032,168.774,101.113,106.088,0.00300606,0.0703379,20.9156,47.0433,-0.367064,0.0,0.0
234,58.25,61.2414,65.3874,176.187,101.109,105.456,0.00298286,0.0702438,20.9159,47.0233,-0.321627,0.0,0.0
236,58.75,61.6055,64.9957,170.966,101.127,105.115,0.00296228,0.0701676,20.9161,47.0433,-0.295619,0.0,0.0
238,59.25,61.3532,65.3155,169.722,101.135,105.325,0.00293107,0.0699758,20.9163,47.0333,-0.310209,0.0,0.0
240,59.75,61.1299,65.015,168.477,101.155,105.438,0.00289271,0.0698204,20.9165,47.0533,-0.316855,0.0,0.0
242,60.25,61.787,65.0127,171.819,101.168,106.05,0.00286163,0.0695501,20.9166,47.0433,-0.360168,0.0,0.0
244,60.75,61.5753,65.3026,168.461,101.176,104.604,0.00278755,0.0693311,20.9167,47.0233,-0.254596,0.0,0.0
246,61.25,61.5952,64.9749,173.524,101.201,105.384,0.00270314,0.0690094,20.9168,47.0133,-0.309496,0.0,0.0
248,61.75,61.5218,65.1151,171.581,101.197,105.137,0.00261282,0.0687487,20.9171,47.0233,-0.291896,0.0,0.0
250,62.25,60.967,64.9274,174.854,101.2,106.243,0.00253966,0.0684844,20.9176,47.0433,-0.371617,0.0,0.0
252,62.75,61.283,64.6115,166.31,101.222,106.233,0.00245669,0.0682224,20.9179,47.0433,-0.369207,0.0,0.0
254,63.25,61.4025,64.5875,171.167,101.242,105.414,0.00236815,0.0680178,20.9182,47.0333,-0.30861,0.0,0.0
256,63.75,60.9052,65.2702,176.422,101.239,105.09,0.0022892,0.0678589,20.9185,47.0233,-0.285281,0.0,0.0
258,64.25,61.4367,64.4709,172.889,101.257,106.49,0.00221873,0.0677302,20.9187,47.0333,-0.385101,0.0,0.0
260,64.75,60.8108,64.9208,172.532,101.256,105.716,0.00216165,0.067626,20.9188,47.0033,-0.329399,0.0,0.0
262,65.25,60.9941,64.5757,171.179,101.253,105.125,0.00211542,0.0675993,20.9189,47.0033,-0.286789,0.0,0.0
264,65.75,61.3011,64.479,168.061,101.277,105.359,0.00207922,0.0675777,20.9193,46.9933,-0.301978,0.0,0.0
266,66.25,61.0099,64.4421,172.116,101.307,105.966,0.00204989,0.0675602,20.9197,46.9933,-0.343577,0.0,0.0
268,66.75,60.7431,63.8298,171.881,101.294,107.1,0.00201365,0.067546,20.9201,46.9733,-0.425869,0.0,0.0
270,67.25,60.8447,63.803,173.813,101.319,105.977,0.00198429,0.0675573,20.9204,46.9833,-0.34351,0.0,0.0
272,67.75,60.9343,64.0893,172.167,101.326,104.579,0.00194604,0.067587,20.9209,46.9933,-0.241446,0.0,0.0
274,68.25,60.8642,64.2031,171.75,101.334,105.836,0.00190204,0.0675882,20.9215,47.0033,-0.332148,0.0,0.0
276,68.75,60.8449,64.5165,172.978,101.326,104.337,0.00184643,0.0675687,20.922,47.0033,-0.22377,0.0,0.0
278,69.25,60.63,64.0572,172.558,101.346,105.388,0.00180139,0.0674845,20.9224,46.9933,-0.298861,0.0,0.0
280,69.75,60.9754,64.0199,168.99,101.362,106.13,0.0017649,0.0673548,20.9227,46.9933,-0.351258,0.0,0.0
282,70.25,60.8258,64.1912,173.92,101.353,106.361,0.00172537,0.0672497,20.9229,46.9933,-0.368523,0.0,0.0
284,70.75,60.1955,64.3035,171.093,101.356,105.266,0.00169334,0.0670346,20.9231,46.9833,-0.289312,0.0,0.0
286,71.25,60.8655,64.0955,172.844,101.384,105.074,0.00166865,0.0668604,20.9233,46.9933,-0.273143,0.0,0.0
288,71.75,60.7046,63.9124,172.273,101.355,104.738,0.00164865,0.066689,20.9235,46.9733,-0.250942,0.0,0.0
290,72.25,60.7268,64.0034,169.415,101.395,106.055,0.00163494,0.0665227,20.9236,46.9633,-0.34337,0.0,0.0
292,72.75,60.406,63.9134,171.942,101.398,105.012,0.00162384,0.0663273,20.9237,46.9833,-0.267647,0.0,0.0
294,73.25,60.5846,64.0363,171.995,101.402,103.948,0.00162359,0.0661144,20.9237,47.0033,-0.189493,0.0,0.0
296,73.75,60.3239,63.8107,180.568,101.4,104.669,0.00162348,0.0660236,20.9238,46.9933,-0.242442,0.0,0.0
298,74.25,60.3739,64.1469,169.937,101.428,104.684,0.00163249,0.0658251,20.9238,46.9933,-0.241421,0.0,0.0
300,74.75,60.4238,63.198,171.452,101.429,105.627,0.00164807,0.0656643,20.9239,46.9933,-0.309874,0.0,0.0
302,75.25,60.656,63.4685,173.76,101.434,105.657,0.00166069,0.0654619,20.9239,46.9733,-0.311644,0.0,0.0
304,75.75,60.5048,63.6282,172.071,101.448,105.433,0.00168839,0.065298,20.9242,46.9833,-0.294357,0.0,0.0
306,76.25,60.7766,63.0093,176.986,101.449,106.268,0.00171083,0.0651045,20.9246,47.0133,-0.354598,0.0,0.0
308,76.75,60.9095,63.9154,171.04,101.455,105.438,0.00172901,0.0648931,20.9249,46.9833,-0.294206,0.0,0.0
310,77.25,60.3147,63.6059,171.439,101.487,105.976,0.00174623,0.0647218,20.9252,47.0033,-0.330719,0.0,0.0
312,77.75,60.5027,63.4649,168.303,101.47,105.944,0.00176019,0.0645604,20.9254,46.9833,-0.329739,0.0,0.0
314,78.25,60.1114,64.018,168.462,101.476,105.972,0.00176425,0.0644091,20.9256,46.9633,-0.331263,0.0,0.0
316,78.75,60.646,63.6033,172.436,101.477,105.873,0.00176104,0.0642259,20.9258,46.9633,-0.324045,0.0,0.0
318,79.25,60.1529,63.685,168.9,101.49,106.538,0.00175318,0.0640228,20.9259,46.9833,-0.370932,0.0,0.0
320,79.75,60.8439,63.4122,172.665,101.504,106.25,0.00174208,0.0638583,20.926,46.9833,-0.349154,0.0,0.0
322,80.25,60.3664,63.2929,172.346,101.51,106.534,0.00172783,0.0636674,20.9261,46.9833,-0.369067,0.0,0.0
324,80.75,60.2362,63.4605,168.331,101.504,105.441,0.00171156,0.0635128,20.9261,46.9733,-0.290739,0.0,0.0
326,81.25,60.43,63.7938,171.156,101.516,105.542,0.00169379,0.0633732,20.9262,46.9833,-0.297233,0.0,0.0
328,81.75,60.1239,63.5379,172.408,101.506,106.105,0.00167525,0.0632601,20.9262,46.9833,-0.338606,0.0,0.0
330,82.25,60.4605,63.829,168.879,101.518,105.776,0.00166286,0.063154,20.9262,46.9733,-0.313986,0.0,0.0
332,82.75,60.3925,63.0996,170.524,101.51,106.534,0.00165519,0.0630681,20.9263,46.9733,-0.369097,0.0,0.0
334,83.25,60.1573,63.8282,173.952,101.555,105.808,0.00164898,0.0629409,20.9263,46.9833,-0.313492,0.0,0.0
336,83.75,60.1833,63.5958,170.475,101.538,105.667,0.00164395,0.0628379,20.9263,46.9633,-0.304557,0.0,0.0
338,84.25,60.1814,62.9172,172.138,101.535,106.313,0.00163987,0.062724,20.9263,46.9733,-0.351341,0.0,0.0
340,84.75,60.0351,63.1031,171.859,101.562,106.22,0.00163132,0.0626046,20.9263,46.9332,-0.342665,0.0,0.0
342,85.25,59.7644,63.1303,171.407,101.559,104.662,0.00161966,0.0625002,20.9268,46.9633,-0.230019,0.0,0.0
344,85.75,60.0648,63.2923,167.552,101.557,105.55,0.00161021,0.0624088,20.9272,46.9833,-0.29473,0.0,0.0
346,86.25,60.2304,63.4634,172.594,101.577,106.726,0.00159633,0.0623348,20.9275,46.9633,-0.377841,0.0,0.0
348,86.75,60.0286,63.3369,172.317,101.577,106.932,0.00158508,0.0622474,20.9277,46.9332,-0.39257,0.0,0.0
350,87.25,59.7892,63.3031,175.484,101.579,105.436,0.00157844,0.0621766,20.9279,46.9432,-0.284774,0.0,0.0
352,87.75,59.7979,63.3341,171.605,101.601,105.74,0.00157307,0.0621193,20.9281,46.9633,-0.30508,0.0,0.0
354,88.25,60.1793,63.3751,169.728,101.581,106.553,0.00156872,0.0620349,20.9282,46.9432,-0.365194,0.0,0.0
356,88.75,59.8218,62.7888,170.158,101.601,106.605,0.0015711,0.0619324,20.9283,46.9432,-0.367379,0.0,0.0
358,89.25,59.9861,62.9242,171.998,101.6,105.69,0.00157836,0.0618494,20.9288,46.9232,-0.30157,0.0,0.0
360,89.75,60.1087,62.9448,172.566,101.607,105.22,0.0015816,0.0616958,20.9293,46.9432,-0.266974,0.0,0.0
362,90.25,60.2073,62.8683,171.337,101.601,105.036,0.00158187,0.0615713,20.9296,46.9432,-0.254058,0.0,0.0
364,90.75,59.851,62.8191,170.974,101.616,105.768,0.00158208,0.0614174,20.9299,46.9432,-0.306036,0.0,0.0
366,91.25,59.9239,63.1864,170.721,101.605,106.258,0.001577,0.0612451,20.9301,46.9432,-0.34216,0.0,0.0
368,91.75,59.8278,62.8408,171.727,101.613,104.709,0.00156816,0.0610524,20.9303,46.9633,-0.229347,0.0,0.0
370,92.25,60.1695,62.6708,171.859,101.604,104.672,0.00155903,0.0608485,20.9304,46.9633,-0.227343,0.0,0.0
372,92.75,59.2258,63.1241,170.434,101.628,105.604,0.00154986,0.0606834,20.931,46.9432,-0.293216,0.0,0.0
374,93.25,59.6585,62.9604,171.481,101.596,105.152,0.00154046,0.0605497,20.9315,46.9332,-0.262871,0.0,0.0
376,93.75,59.5995,63.1065,172.782,101.604,105.743,0.00153108,0.0604414,20.9318,46.9332,-0.305109,0.0,0.0
378,94.25,59.8071,62.668,170,101.6,106.455,0.00152348,0.0603537,20.9321,46.9132,-0.356719,0.0,0.0
380,94.75,59.8061,62.6296,172.509,101.623,105.14,0.00151732,0.0602826,20.9324,46.9232,-0.260008,0.0,0.0
382,95.25,58.3532,62.5487,168.607,101.61,106.004,0.00151234,0.0602106,20.9326,46.9332,-0.323505,0.0,0.0
384,95.75,59.5446,62.5047,173.023,101.613,106.685,0.00151453,0.0601523,20.9328,46.9232,-0.372187,0.0,0.0
386,96.25,59.7058,62.7867,172.739,101.602,104.634,0.00151631,0.0600475,20.9329,46.9132,-0.224706,0.0,0.0
388,96.75,59.2486,62.495,170.269,101.618,105.834,0.00152524,0.0599626,20.933,46.9332,-0.310683,0.0,0.0
390,97.25,59.1817,62.5258,169.19,101.598,106.748,0.00153247,0.0598939,20.9331,46.9332,-0.37785,0.0,0.0
392,97.75,59.5327,62.7738,170.282,101.631,105.69,0.00153833,0.059795,20.9331,46.9432,-0.299221,0.0,0.0
394,98.25,59.16,62.4679,165.752,101.608,104.901,0.00154183,0.0597149,20.9332,46.9432,-0.243723,0.0,0.0
396,98.75,60.0301,62.0595,166.174,101.617,107.442,0.00154466,0.0596273,20.9332,46.9332,-0.425903,0.0,0.0
398,99.25,59.8071,62.281,170.706,101.591,106.646,0.00154301,0.0595359,20.9333,46.9232,-0.371077,0.0,0.0
400,99.75,59.3095,63.4042,176.252,101.603,105.202,0.00153813,0.0594239,20.9333,46.9032,-0.266009,0.0,0.0
402,100.25,59.3789,62.081,175.83,101.568,105.881,0.00153024,0.0592992,20.9333,46.9132,-0.317804,0.0,0.0
404,100.75,58.8335,62.2951,170.035,101.601,105.861,0.00152031,0.059183,20.9333,46.9232,-0.313835,0.0,0.0
406,101.25,59.3759,62.4967,166.986,101.595,105.748,0.00150963,0.0590752,20.9334,46.9132,-0.306192,0.0,0.0
408,101.75,59.4774,62.5335,169.204,101.598,106.562,0.00149862,0.0589728,20.9334,46.9232,-0.364494,0.0,0.0
410,102.25,59.2993,62.3139,166.808,101.577,106.902,0.00148708,0.0588762,20.9334,46.9032,-0.390463,0.0,0.0
412,102.75,59.3865,62.2889,171.564,101.599,106.215,0.00147537,0.0587828,20.9334,46.9132,-0.339506,0.0,0.0
414,103.25,59.7681,62.7113,168.765,101.575,105.296,0.00145735,0.0586936,20.9334,46.9332,-0.274959,0.0,0.0
416,103.75,59.868,62.6973,169.749,101.591,106.558,0.00143508,0.0586212,20.9339,46.9633,-0.364829,0.0,0.0
418,104.25,59.3748,62.5045,169.109,101.556,106.213,0.00141705,0.0585051,20.9342,46.9733,-0.342639,0.0,0.0
420,104.75,59.7784,62.8277,173.172,101.568,106.592,0.00138932,0.058411,20.9345,46.9432,-0.368896,0.0,0.0
422,105.25,59.3343,62.3581,172.877,101.551,105.529,0.00135506,0.0583424,20.9348,46.9332,-0.293649,0.0,0.0
424,105.75,59.2724,62.0224,168.433,101.545,105.716,0.00132207,0.0582937,20.935,46.9032,-0.307617,0.0,0.0
426,106.25,59.4861,62.3792,174.181,101.53,105.413,0.00129062,0.0582163,20.9351,46.8832,-0.286734,0.0,0.0
428,106.75,59.6681,62.5294,174.496,101.55,105.582,0.0012586,0.0581196,20.9352,46.8732,-0.297556,0.0,0.0
430,107.25,59.3903,62.143,169.648,101.514,106.407,0.00122676,0.0580412,20.9353,46.8832,-0.359768,0.0,0.0
432,107.75,59.2201,62.6116,172.981,101.522,106.979,0.00119444,0.0578613,20.9354,46.9132,-0.400019,0.0,0.0
434,108.25,59.2245,62.5442,168.635,101.511,106.537,0.00116237,0.0577156,20.9355,46.9032,-0.369275,0.0,0.0
436,108.75,59.4156,61.874,171.35,101.496,105.172,0.00113639,0.0575545,20.9356,46.9032,-0.271881,0.0,0.0
438,109.25,59.3004,62.7007,174.926,101.505,105.041,0.00110291,0.0574239,20.9356,46.8932,-0.26165,0.0,0.0
440,109.75,59.4623,62.3527,173.809,101.486,105.675,0.00107579,0.057303,20.9355,46.9132,-0.309045,0.0,0.0
442,110.25,59.0443,62.2589,172.943,101.492,104.755,0.00105185,0.0571915,20.9354,46.8932,-0.241808,0.0,0.0
444,110.75,59.2949,62.1946,165.171,101.472,105.733,0.0010307,0.0571012,20.9353,46.8732,-0.314363,0.0,0.0
446,111.25,58.9621,61.6862,170.998,101.466,107.005,0.00101357,0.057028,20.9352,46.8832,-0.406137,0.0,0.0
448,111.75,59.145,61.9703,172.266,101.469,105.876,0.000999691,0.0569157,20.9352,46.9032,-0.324858,0.0,0.0
450,112.25,59.9659,62.7727,166.83,101.452,104.988,0.000990414,0.0567771,20.9351,46.8832,-0.261733,0.0,0.0
452,112.75,59.1096,62.1337,173.349,101.434,104.528,0.000984667,0.0566119,20.9354,46.8932,-0.229536,0.0,0.0
454,113.25,59.3265,62.1036,168.576,101.427,105.31,0.000973467,0.0564304,20.9357,46.9032,-0.287045,0.0,0.0
456,113.75,59.5232,62.4135,173.744,101.387,105.944,0.000958503,0.0562834,20.9359,46.9132,-0.335953,0.0,0.0
458,114.25,59.6385,62.343,174.312,101.43,103.901,0.000946383,0.0561068,20.936,46.8932,-0.183963,0.0,0.0
460,114.75,59.7112,62.2167,167.885,101.408,105.316,0.00090922,0.0559638,20.9362,46.9032,-0.288974,0.0,0.0
462,115.25,59.1562,61.6464,169.767,101.392,107.513,0.000871272,0.0558479,20.9363,46.9132,-0.447948,0.0,0.0
464,115.75,59.1943,61.9523,170.663,101.374,105.562,0.000833473,0.0557541,20.9368,46.9332,-0.309381,0.0,0.0
466,116.25,59.1994,62.6331,167.984,101.371,105.383,0.000805471,0.0556493,20.9373,46.9232,-0.296568,0.0,0.0
468,116.75,59.2593,62.2922,169.641,101.354,103.453,0.000785142,0.0555645,20.9376,46.9332,-0.15668,0.0,0.0
470,117.25,59.2094,62.009,172.718,101.349,105.482,0.000775869,0.0554095,20.9379,46.9332,-0.30548,0.0,0.0
472,117.75,59.4038,62.1718,165.718,101.334,105.8,0.000774831,0.055284,20.9381,46.9132,-0.32954,0.0,0.0
474,118.25,59.9496,61.8745,171.066,101.331,105.565,0.000773991,0.0551445,20.9383,46.9232,-0.312851,0.0,0.0
476,118.75,59.431,62.2375,167.875,101.297,106.462,0.000789013,0.0549975,20.9385,46.9132,-0.380024,0.0,0.0
478,119.25,58.4629,62.0077,171.005,101.3,104.946,0.000815313,0.0548784,20.9386,46.9132,-0.270208,0.0,0.0
480,119.75,59.4233,62.0026,174.406,101.275,106.567,0.000836617,0.0546814,20.9387,46.9032,-0.38919,0.0,0.0
482,120.25,59.1808,62.2842,174.501,101.281,104.742,0.000887466,0.0545218,20.939,46.8932,-0.25674,0.0,0.0
484,120.75,59.6346,61.7066,175.944,101.254,105.859,0.000928654,0.0543782,20.9395,46.9132,-0.339866,0.0,0.0
486,121.25,59.194,62.0956,170.838,101.243,105.76,0.000988165,0.0542619,20.9398,46.9232,-0.333486,0.0,0.0
488,121.75,58.868,62.655,171.326,101.209,104.909,0.00103637,0.0541752,20.9401,46.9232,-0.274406,0.0,0.0
490,122.25,58.911,61.8208,175.9,101.218,105.763,0.00108164,0.0541118,20.9404,46.9232,-0.33563,0.0,0.0
492,122.75,58.5601,61.6458,171.966,101.176,105.715,0.00111832,0.0540226,20.9406,46.9232,-0.335324,0.0,0.0
494,123.25,59.3445,62.0033,166.164,101.193,106.706,0.00113681,0.0539164,20.9408,46.9232,-0.405412,0.0,0.0
496,123.75,59.0719,62.0155,175.125,101.167,106.602,0.00115179,0.0537926,20.9409,46.9032,-0.399881,0.0,0.0
498,124.25,58.7455,62.3061,169.781,101.166,105.801,0.00114773,0.0536582,20.9412,46.9032,-0.34232,0.0,0.0
500,124.75,59.2545,62.0646,169.48,101.133,104.823,0.00114445,0.0535116,20.9417,46.9132,-0.273859,0.0,0.0
502,125.25,59.0582,61.652,170.616,101.141,105.423,0.00114179,0.0533589,20.9421,46.8932,-0.3168,0.0,0.0
504,125.75,59.1176,61.5467,176.418,101.115,104.557,0.00112719,0.0532352,20.9424,46.8832,-0.255796,0.0,0.0
506,126.25,58.7619,61.2814,175.393,101.105,106.439,0.00111536,0.0530896,20.9427,46.9032,-0.392896,0.0,0.0
508,126.75,58.6348,61.807,171.964,101.085,104.752,0.0011008,0.0529309,20.9429,46.9132,-0.272252,0.0,0.0
510,127.25,59.1866,61.9177,175.411,101.069,106.426,0.00108901,0.0527494,20.9431,46.8832,-0.394605,0.0,0.0
512,127.75,59.0496,61.8873,172.58,101.056,104.086,0.00106453,0.0525549,20.9432,46.8832,-0.225761,0.0,0.0
514,128.25,58.8725,61.5341,169.998,101.041,103.671,0.0010447,0.052352,20.9433,46.8832,-0.196341,0.0,0.0
516,128.75,59.0583,61.8959,173,101.031,105.24,0.00102079,0.0521468,20.9434,46.8732,-0.311901,0.0,0.0
518,129.25,58.7761,61.4244,168.899,101.028,105.225,0.000994346,0.051958,20.9435,46.8632,-0.311058,0.0,0.0
520,129.75,58.7232,61.9309,173.307,100.986,104.718,0.000967695,0.0517846,20.9435,46.8732,-0.277338,0.0,0.0
522,130.25,58.6809,61.6463,170.951,100.99,105.78,0.000941395,0.0516442,20.9436,46.8632,-0.354078,0.0,0.0
524,130.75,58.8057,61.5212,170.26,100.95,103.739,0.000920093,0.0514874,20.9436,46.8632,-0.208234,0.0,0.0
526,131.25,58.8213,61.7834,167.717,100.942,104.214,0.000897866,0.0513604,20.9437,46.9032,-0.243745,0.0,0.0
528,131.75,58.7564,61.7445,174.423,100.923,104.926,0.000879863,0.0512273,20.9437,46.8932,-0.297228,0.0,0.0
530,132.25,59.2575,61.7595,172.008,100.905,104.805,0.000871823,0.0510923,20.9437,46.9032,-0.289789,0.0,0.0
532,132.75,59.0668,61.8697,171.405,100.888,105.934,0.000871198,0.050983,20.9437,46.9032,-0.372924,0.0,0.0
534,133.25,58.8559,61.8301,172.104,100.88,105.127,0.000877891,0.050794,20.9437,46.9032,-0.315122,0.0,0.0
536,133.75,59.0969,61.7204,167.667,100.848,104.24,0.000889792,0.050641,20.9438,46.8932,-0.252788,0.0,0.0
538,134.25,58.7767,61.6628,169.04,100.836,105.144,0.000899432,0.050517,20.944,46.8832,-0.319665,0.0,0.0
540,134.75,58.4395,61.9384,173.894,100.842,105.79,0.000907894,0.0504022,20.9444,46.8832,-0.366014,0.0,0.0
542,135.25,59.0151,61.8227,172.659,100.795,105.927,0.000915338,0.0503092,20.9447,46.8932,-0.379544,0.0,0.0
544,135.75,58.9089,61.2098,173.607,100.777,104.918,0.000919405,0.0502196,20.945,46.8632,-0.307726,0.0,0.0
546,136.25,58.555,61.687,169.277,100.76,105.775,0.000920931,0.0501545,20.9452,46.8832,-0.371126,0.0,0.0
548,136.75,58.9247,61.5604,167.141,100.76,107.06,0.000920203,0.0501086,20.9454,46.8832,-0.463451,0.0,0.0
550,137.25,59.1688,61.9223,171.066,100.725,103.943,0.000917846,0.0500563,20.9455,46.9032,-0.240315,0.0,0.0
552,137.75,58.9203,61.6221,171.71,100.719,103.666,0.000911357,0.0500004,20.9457,46.9032,-0.220357,0.0,0.0
554,138.25,58.7657,61.8852,167.955,100.673,105.202,0.000901977,0.0499551,20.9458,46.9132,-0.336276,0.0,0.0
556,138.75,58.9088,61.6062,174.358,100.675,104.023,0.00089438,0.049919,20.9458,46.8832,-0.249971,0.0,0.0
558,139.25,58.7618,61.7047,167.816,100.65,105.482,0.000870558,0.0498905,20.9459,46.8732,-0.358336,0.0,0.0
560,139.75,58.6141,61.6216,171.102,100.633,104.787,0.000820354,0.0498122,20.946,46.8732,-0.309041,0.0,0.0
562,140.25,58.8214,61.3947,168.873,100.593,103.923,0.000806848,0.0497626,20.946,46.8532,-0.24885,0.0,0.0
564,140.75,59.1363,61.7417,173.378,100.594,105.57,0.000750233,0.0496777,20.9463,46.8632,-0.368996,0.0,0.0
566,141.25,59.1834,61.7649,174.595,100.558,104.566,0.000676987,0.0495079,20.9472,46.8832,-0.298635,0.0,0.0
568,141.75,58.7688,61.4859,168.552,100.559,104.84,0.000652339,0.049451,20.9474,46.8932,-0.318541,0.0,0.0
570,142.25,58.6306,61.8553,172.431,100.518,104.845,0.000610192,0.0493234,20.9478,46.8732,-0.322069,0.0,0.0
572,142.75,58.8845,61.6912,170.015,100.511,104.765,0.000578533,0.0491929,20.9481,46.8532,-0.316744,0.0,0.0
574,143.25,58.3318,61.7578,169.083,100.468,105.574,0.000552889,0.0489869,20.9483,46.8832,-0.378792,0.0,0.0
576,143.75,58.7456,61.9519,172.3,100.478,103.877,0.000548248,0.04882,20.9485,46.9032,-0.254194,0.0,0.0
578,144.25,58.5731,62.0431,171.823,100.446,103.538,0.000544489,0.0486546,20.9487,46.8932,-0.231699,0.0,0.0
580,144.75,58.7227,61.3083,173.185,100.452,104.841,0.000555099,0.0484935,20.9488,46.8932,-0.32685,0.0,0.0
582,145.25,59.3301,61.5987,170.051,100.437,103.216,0.000563694,0.0483177,20.9489,46.8732,-0.208556,0.0,0.0
584,145.75,59.1393,61.4502,172.462,100.449,103.43,0.000570655,0.0481346,20.949,46.8632,-0.223454,0.0,0.0
586,146.25,58.6799,61.4392,171.591,100.399,104.205,0.000588711,0.0479863,20.9491,46.9032,-0.284343,0.0,0.0
588,146.75,58.8842,61.8134,170.673,100.395,106.359,0.000603337,0.0478518,20.9491,46.9232,-0.441008,0.0,0.0
590,147.25,58.5111,61.5911,166.292,100.367,105.11,0.000615184,0.0477429,20.9492,46.9132,-0.352892,0.0,0.0
592,147.75,58.9239,62.0429,170.251,100.34,104.275,0.00062478,0.0476547,20.9492,46.8932,-0.293937,0.0,0.0
594,148.25,58.763,61.7344,172.266,100.323,103.956,0.000627978,0.0475832,20.9492,46.8732,-0.271817,0.0,0.0
596,148.75,58.9104,61.3952,171.776,100.302,104.988,0.00062645,0.0475254,20.9493,46.9132,-0.348862,0.0,0.0
598,149.25,58.8974,61.6264,171.282,100.287,105.064,0.000625213,0.0473912,20.9493,46.9332,-0.355609,0.0,0.0
600,149.75,58.5131,62.0475,169.8,100.279,104.707,0.000608093,0.0472825,20.9493,46.9232,-0.330177,0.0,0.0
601,150,58.6159,61.534,172,100.294,103.478,0.000600794,0.0472211,20.9493,46.9132,-0.238837,0.0,0.0