File: 01_Data/Feather_Pillow_Feathers/Cone/Feather_Pillow_Feathers_Cone_HF25Scan_230710_R4.csv
Names,Time,Stack TC,Smoke TC,Exh Press,Smoke Comp,Smoke Meas,CO Meter,CO2 Meter,O2 Meter,Sample Mass,Ext Coeff,Start Test,Flame Verif
Chan Gain,,500,500,1,1,1,1,1,1,1,1,1.0,1.0
Offset,,0,0,0.18266,0,0,0,0,0,0,0,0.0,0.0
Gain,,1,1,25.011,13.1186,54.4142,1,1,1,1.00092,0.871134,1.0,1.0
Units,sec,C,C,Pa,%,%,%,%,%,g,/m,,
Baseline,,42.2008,43.6639,181.824,100.491,100.484,0.00026948,0.044972,20.9523,-446.041,0.000640307,,
3,0.5,41.39,42.165,183.471,100.823,100.114,0.00043132,0.0452566,20.9578,50.3464,0.0539572,0.0,0.0
6,1.25,41.4041,41.4102,178.225,100.806,99.9343,0.000464574,0.045394,20.958,50.2963,0.0663537,0.0,0.0
9,2,41.532,41.2411,181.645,100.798,101.025,0.000480044,0.0455759,20.9582,50.2563,-0.0171951,0.0,0.0
12,2.75,41.1156,41.8298,182.772,100.773,100.237,0.000479035,0.0456799,20.9577,50.2463,0.0407895,0.0,0.0
15,3.5,41.6431,42.1622,181.316,100.756,100.428,0.000442918,0.0457283,20.9574,50.2663,0.02494,0.0,0.0
18,4.25,41.2702,42.6509,184.712,100.751,100.074,0.000401712,0.0457379,20.9571,50.2563,0.0515064,0.0,0.0
21,5,41.4599,42.215,180.133,100.734,99.5026,0.000355545,0.0456038,20.9569,50.2263,0.0940052,0.0,0.0
24,5.75,41.3583,42.9351,176.655,100.699,98.4963,0.000345008,0.0455339,20.9568,50.1962,0.169038,0.0,0.0
27,6.5,41.4968,42.6978,185.288,100.688,97.3886,0.000338707,0.0454736,20.9567,50.1762,0.254606,0.0,0.0
30,7.25,41.3121,42.962,179.999,100.677,97.7041,0.000344155,0.0454726,20.9566,50.1562,0.229069,0.0,0.0
33,8,41.7157,42.9484,179.391,100.663,97.1196,0.000353434,0.0454902,20.957,50.1362,0.273859,0.0,0.0
36,8.75,41.3855,42.6854,178.485,100.647,97.7041,0.000349038,0.0454826,20.9572,50.1162,0.226728,0.0,0.0
39,9.5,41.5278,43.4679,182.522,100.628,95.3262,0.000341076,0.0454771,20.957,50.1262,0.413584,0.0,0.0
42,10.25,41.8464,43.631,182.041,100.594,95.8028,0.000296384,0.0454799,20.9569,50.0761,0.37292,0.0,0.0
45,11,42.1802,43.2558,181.885,100.614,96.3574,0.00024401,0.0454936,20.9569,50.0661,0.330298,0.0,0.0
48,11.75,42.0572,43.6058,181.767,100.59,94.7799,0.00019739,0.0454961,20.9572,50.0061,0.454676,0.0,0.0
51,12.5,41.6538,43.8202,183.728,100.581,94.4959,0.000168357,0.0454851,20.9574,49.9961,0.476875,0.0,0.0
54,13.25,42.0266,43.8762,183.712,100.548,94.9193,0.000163647,0.0455343,20.9575,49.946,0.440244,0.0,0.0
57,14,42.1505,44.1352,179.85,100.545,94.5308,0.000184742,0.0455946,20.9576,49.926,0.471348,0.0,0.0
60,14.75,42.3415,44.0326,181.826,100.527,94.9276,0.000200119,0.0457675,20.9577,49.886,0.437932,0.0,0.0
63,15.5,42.4814,44.0964,182.79,100.518,94.2568,0.000315718,0.0459711,20.9574,49.8659,0.49149,0.0,0.0
66,16.25,42.0301,44.5544,180.274,100.497,94.3664,0.000447204,0.0461582,20.9569,49.8659,0.480967,0.0,0.0
69,17,42.632,44.2346,181.798,100.485,94.0027,0.000602992,0.046499,20.9561,49.8659,0.509559,0.0,0.0
72,17.75,42.1085,44.0431,174.848,100.478,95.6018,0.000746637,0.0468478,20.9555,49.8259,0.38017,0.0,0.0
75,18.5,42.6591,43.7009,182.462,100.473,94.5524,0.000873765,0.0471448,20.955,49.7959,0.464094,0.0,0.0
78,19.25,42.3225,44.5577,180.311,100.448,94.9775,0.000976277,0.0475045,20.9547,49.7959,0.427895,0.0,0.0
81,20,42.3608,44.1234,176.572,100.467,94.2402,0.00106782,0.0478277,20.9545,49.7558,0.48891,0.0,0.0
84,20.75,42.2761,44.4323,179.287,100.471,97.0233,0.00114576,0.0481678,20.9541,49.7458,0.266809,0.0,0.0
87,21.5,42.3241,44.7096,178.073,100.468,96.1316,0.00120735,0.048518,20.9534,49.7458,0.337123,0.0,0.0
90,22.25,42.2185,44.115,176.817,100.453,94.2468,0.00126648,0.0487883,20.953,49.7258,0.487336,0.0,0.0
93,23,42.9414,44.8368,182.013,100.482,95.8659,0.00132579,0.0490113,20.9529,49.6858,0.359338,0.0,0.0
96,23.75,42.5208,44.4123,183.167,100.474,94.5291,0.00138711,0.0492556,20.9527,49.6758,0.466033,0.0,0.0
99,24.5,42.7658,44.8741,177.654,100.488,93.7735,0.0014509,0.0495054,20.9526,49.6357,0.528423,0.0,0.0
102,25.25,42.1852,44.77,177.417,100.475,95.8642,0.00152767,0.0497182,20.9526,49.6357,0.358983,0.0,0.0
105,26,42.6182,44.83,179.258,100.468,94.9359,0.00158364,0.049996,20.9525,49.6157,0.43279,0.0,0.0
108,26.75,42.6137,45.4177,181.101,100.476,94.9725,0.00166008,0.0502061,20.9525,49.5857,0.430489,0.0,0.0
111,27.5,42.6322,45.5531,181.16,100.51,94.5407,0.00172705,0.0503722,20.9525,49.5957,0.467864,0.0,0.0
114,28.25,42.7652,44.6472,182.348,100.502,93.7702,0.00178856,0.0504524,20.9524,49.5757,0.52982,0.0,0.0
117,29,42.7045,44.9268,181.858,100.506,93.3019,0.0018469,0.0505259,20.9524,49.5556,0.568321,0.0,0.0
120,29.75,43.0199,44.9698,180.145,100.495,93.83,0.00191442,0.0506053,20.9524,49.5456,0.524371,0.0,0.0
123,30.5,43.1271,44.7336,184.953,100.522,93.2471,0.00197549,0.0507451,20.9524,49.5356,0.574028,0.0,0.0
126,31.25,43.0155,45.2296,181.531,100.517,95.1385,0.00204031,0.0508313,20.9524,49.5156,0.420244,0.0,0.0
129,32,42.3488,45.7439,185.036,100.532,93.184,0.0021072,0.0508875,20.9521,49.5056,0.579962,0.0,0.0
132,32.75,43.384,45.2287,181.142,100.516,93.8931,0.00215596,0.0509428,20.9513,49.4756,0.520817,0.0,0.0
135,33.5,43.5245,45.6846,183.043,100.533,94.1621,0.00217162,0.0510169,20.9506,49.4556,0.500263,0.0,0.0
138,34.25,43.3704,45.3274,181.591,100.551,93.5643,0.00216017,0.0510641,20.9503,49.4455,0.550301,0.0,0.0
141,35,42.8878,45.3331,181.151,100.546,94.5241,0.00212496,0.0511616,20.95,49.4355,0.471977,0.0,0.0
144,35.75,43.0428,45.5879,177.276,100.552,94.021,0.0020565,0.0512662,20.9497,49.4055,0.513218,0.0,0.0
147,36.5,42.9463,45.37,186.649,100.563,95.9572,0.00196645,0.0513958,20.9496,49.3955,0.358269,0.0,0.0
150,37.25,43.2256,45.3908,183.806,100.567,96.9536,0.00192983,0.0514654,20.9495,49.3755,0.279638,0.0,0.0
153,38,43.2084,45.6166,181.496,100.574,95.9871,0.00189002,0.0515749,20.9497,49.3555,0.356711,0.0,0.0
156,38.75,42.8112,45.803,182.167,100.572,95.7065,0.00186706,0.0516957,20.9502,49.3354,0.378902,0.0,0.0
159,39.5,43.2502,44.8764,178.48,100.583,94.8612,0.00185246,0.0518064,20.9507,49.3254,0.447541,0.0,0.0
162,40.25,43.127,45.3865,182.609,100.613,96.2246,0.00184556,0.0519259,20.951,49.3154,0.340779,0.0,0.0
165,41,43.4485,45.7651,183.084,100.584,97.3637,0.00184212,0.0519856,20.9512,49.2754,0.248626,0.0,0.0
168,41.75,43.0335,45.3326,177.186,100.609,96.7012,0.00184495,0.0520024,20.9514,49.2554,0.302752,0.0,0.0
171,42.5,43.1889,45.2904,179.317,100.606,95.0821,0.0018545,0.0519887,20.9516,49.2554,0.431504,0.0,0.0
174,43.25,43.5433,45.714,182.236,100.611,96.1498,0.0018719,0.0519501,20.9519,49.2454,0.346564,0.0,0.0
177,44,43.5025,45.5078,183.24,100.622,96.8274,0.00189696,0.0518946,20.9521,49.2454,0.293728,0.0,0.0
180,44.75,43.4471,45.4708,182.101,100.61,95.5703,0.00193372,0.0517877,20.9523,49.2554,0.392703,0.0,0.0
183,45.5,43.2817,46.019,179.593,100.619,97.8769,0.0019433,0.0517185,20.9526,49.2654,0.211135,0.0,0.0
186,46.25,43.102,45.6287,175.158,100.629,96.022,0.00195436,0.0516241,20.9533,49.2654,0.358132,0.0,0.0
189,47,43.3016,45.6458,181,100.638,97.0582,0.00195242,0.0515492,20.9538,49.2354,0.27675,0.0,0.0
192,47.75,43.1902,45.9474,180.463,100.646,95.9207,0.00194082,0.0515765,20.9541,49.2153,0.367443,0.0,0.0
195,48.5,43.5256,45.9544,177.274,100.662,95.748,0.00192224,0.0516251,20.9544,49.2053,0.38243,0.0,0.0
198,49.25,43.475,46.0434,181.264,100.654,97.661,0.00189651,0.0516585,20.9545,49.2153,0.230654,0.0,0.0
201,50,43.8377,45.677,180.616,100.679,96.8788,0.00185179,0.0516357,20.9546,49.1853,0.294043,0.0,0.0
204,50.75,43.3875,45.7619,183.772,100.679,97.0931,0.00181082,0.0514962,20.9547,49.1753,0.277165,0.0,0.0
207,51.5,43.0683,45.7727,178.378,100.686,99.7467,0.00177759,0.0513644,20.9548,49.1653,0.0716366,0.0,0.0
210,52.25,43.1685,45.6101,180.063,100.683,99.6852,0.00175836,0.0512166,20.9549,49.1553,0.0760717,0.0,0.0
213,53,43.5973,45.7983,181.811,100.705,99.3631,0.00174647,0.0511375,20.9549,49.1353,0.102538,0.0,0.0
216,53.75,43.2878,45.5668,179.601,100.737,97.7589,0.00175403,0.0510921,20.955,49.1353,0.22931,0.0,0.0
219,54.5,43.5774,44.8903,181.926,100.724,98.3518,0.00177436,0.0510447,20.955,49.1353,0.182138,0.0,0.0
222,55.25,43.3176,45.8045,178.85,100.728,97.5514,0.00180268,0.0509896,20.955,49.1253,0.244854,0.0,0.0
225,56,43.6068,45.3311,183.454,100.76,97.3106,0.00184293,0.0509434,20.955,49.1152,0.266168,0.0,0.0
228,56.75,43.5782,45.6092,175.458,100.768,97.9831,0.00188478,0.0508074,20.955,49.1253,0.214145,0.0,0.0
231,57.5,43.6254,45.8279,180.688,100.775,98.644,0.00192522,0.0506652,20.955,49.1353,0.163351,0.0,0.0
234,58.25,43.6453,45.5093,184.277,100.77,97.1694,0.00196259,0.050528,20.955,49.1152,0.27805,0.0,0.0
237,59,43.2845,45.7092,180.308,100.801,96.8855,0.00198983,0.0504022,20.955,49.0952,0.302751,0.0,0.0
240,59.75,43.7271,45.688,182.029,100.805,96.5733,0.00200968,0.05022,20.955,49.0552,0.327687,0.0,0.0
243,60.5,42.9481,46.0502,184.56,100.821,98.8715,0.00200902,0.0499322,20.955,49.0552,0.149208,0.0,0.0
246,61.25,43.4498,45.7209,181.553,100.825,97.7656,0.00198266,0.049622,20.9544,49.0552,0.235438,0.0,0.0
249,62,43.6816,45.216,182.513,100.832,98.7785,0.00191176,0.0493531,20.954,49.0752,0.157248,0.0,0.0
252,62.75,43.9321,45.568,183.619,100.866,98.0911,0.00183709,0.0489322,20.9537,49.0852,0.213196,0.0,0.0
255,63.5,43.7577,45.7687,178.053,100.874,98.6773,0.00174334,0.048663,20.9535,49.0552,0.168274,0.0,0.0
258,64.25,43.9005,45.9614,183.299,100.88,99.114,0.00163766,0.0485313,20.9533,49.0552,0.134952,0.0,0.0
261,65,43.8723,45.6221,173.02,100.883,98.7553,0.00153196,0.0485171,20.9534,49.0552,0.162869,0.0,0.0
264,65.75,43.6191,46.2085,179.614,100.906,98.9446,0.00143286,0.048521,20.9539,49.0752,0.149963,0.0,0.0
267,66.5,43.4245,45.9355,182.993,100.934,98.83,0.0013438,0.0485451,20.9542,49.0452,0.161,0.0,0.0
270,67.25,43.3062,45.0751,178.63,100.918,98.3916,0.00127168,0.0485885,20.9545,49.0352,0.193759,0.0,0.0
273,68,43.588,45.4825,180.849,100.922,98.566,0.00120678,0.0486488,20.9547,49.0552,0.180503,0.0,0.0
276,68.75,44.0573,45.6247,181.454,100.967,97.8353,0.00114704,0.0486899,20.9548,49.0452,0.240754,0.0,0.0
279,69.5,43.9137,46.0534,181.084,100.958,98.8715,0.00109603,0.0486941,20.9549,49.0352,0.159548,0.0,0.0
282,70.25,43.8032,45.7034,176.74,100.978,98.5261,0.00105436,0.0486562,20.955,49.0552,0.187866,0.0,0.0
285,71,43.787,45.5885,181.69,100.982,99.5557,0.00102173,0.0486572,20.955,48.9851,0.10867,0.0,0.0
288,71.75,43.9199,45.8517,179.438,100.994,99.0974,0.00101037,0.0486702,20.9546,48.9951,0.144901,0.0,0.0
291,72.5,44.1516,45.8539,176.232,101.017,100.376,0.00100955,0.0485979,20.9542,48.9951,0.0486593,0.0,0.0
294,73.25,43.3803,46.0293,177.902,101.028,99.7782,0.00101214,0.0485301,20.9538,49.0051,0.0950938,0.0,0.0
297,74,43.4721,46.042,176.862,101.027,100.295,0.00100813,0.0484549,20.9535,49.0151,0.0556132,0.0,0.0
300,74.75,43.9523,45.4909,178.202,101.051,100.59,0.000995134,0.048357,20.9533,49.0452,0.034942,0.0,0.0
303,75.5,43.6702,45.8043,177.109,101.052,98.7869,0.000969694,0.0482598,20.9532,49.0151,0.173244,0.0,0.0
306,76.25,43.8115,45.8892,182.891,101.073,100.366,0.000949184,0.048176,20.9531,48.9951,0.0536569,0.0,0.0
309,77,43.7756,45.3919,182.297,101.07,99.8646,0.000930876,0.0481558,20.953,48.9751,0.0917229,0.0,0.0
312,77.75,43.8033,46.2254,179.197,101.087,99.1954,0.000922849,0.0480981,20.953,48.9651,0.144344,0.0,0.0
315,78.5,43.9573,45.8087,177.704,101.088,99.0094,0.000929414,0.0480377,20.9529,48.9651,0.158776,0.0,0.0
318,79.25,44.2948,46.0622,182.612,101.107,99.7002,0.000950372,0.0479937,20.9529,48.9551,0.107036,0.0,0.0
321,80,43.598,46.2922,181.639,101.128,99.6288,0.000972546,0.0479473,20.9529,48.9551,0.114114,0.0,0.0
324,80.75,43.641,45.6871,187.227,101.129,100.024,0.0010136,0.0479073,20.9529,48.9451,0.0839216,0.0,0.0
327,81.5,43.8077,46.0797,176.476,101.138,99.4909,0.00105415,0.0478577,20.9529,48.9551,0.12545,0.0,0.0
330,82.25,43.9881,46.064,185.982,101.167,100.331,0.00108405,0.0478324,20.9529,48.9151,0.0633613,0.0,0.0
333,83,43.4481,45.8679,177.95,101.18,101.022,0.00113037,0.0477956,20.9529,48.9551,0.0119559,0.0,0.0
336,83.75,43.8335,45.7958,177.211,101.177,99.026,0.0011648,0.0477558,20.9529,48.9451,0.164209,0.0,0.0
339,84.5,43.9435,45.9739,179.698,101.193,99.5391,0.00118774,0.047686,20.9529,48.9551,0.125955,0.0,0.0
342,85.25,44.0409,45.9983,183.587,101.218,99.373,0.00119886,0.0475777,20.9529,48.9351,0.140588,0.0,0.0
345,86,43.5988,46.3263,182.332,101.206,100.062,0.00118032,0.0474744,20.9529,48.9251,0.0868709,0.0,0.0
348,86.75,43.9105,45.9061,181.581,101.221,99.0243,0.00115567,0.0473581,20.9535,48.9351,0.167694,0.0,0.0
351,87.5,43.9753,45.9966,177.115,101.204,99.652,0.00111866,0.0472734,20.9539,48.9251,0.118077,0.0,0.0
354,88.25,43.6649,45.7732,184.933,101.241,99.7948,0.00107531,0.0472116,20.9543,48.9451,0.109974,0.0,0.0
357,89,44.1281,45.36,179.662,101.239,99.5972,0.00101573,0.0472279,20.9545,48.9351,0.12491,0.0,0.0
360,89.75,43.9509,46.1391,182.753,101.255,100.079,0.000926211,0.0472172,20.9547,48.9151,0.089259,0.0,0.0
363,90.5,44.0266,45.7018,178.353,101.234,99.8413,0.000833637,0.0471707,20.9548,48.905,0.105841,0.0,0.0
366,91.25,43.8042,45.8986,186.753,101.253,98.8616,0.000748627,0.0471367,20.9549,48.905,0.182619,0.0,0.0
369,92,44.0422,45.8814,183.415,101.278,101.153,0.000676602,0.0471263,20.955,48.895,0.00941242,0.0,0.0
372,92.75,43.7847,45.7562,177.955,101.281,100.989,0.000636506,0.0471249,20.9551,48.885,0.0221139,0.0,0.0
375,93.5,44.088,45.9331,173.01,101.287,100.263,0.000612567,0.0470625,20.9551,48.895,0.0776148,0.0,0.0
378,94.25,43.5807,45.9851,183.18,101.275,100.248,0.000630563,0.047017,20.9551,48.895,0.0778781,0.0,0.0
381,95,43.2641,45.7404,179.256,101.287,99.9642,0.000643681,0.0470433,20.955,48.885,0.10043,0.0,0.0
384,95.75,43.7386,46.126,180.608,101.302,100.041,0.000681596,0.0470399,20.9548,48.875,0.0957407,0.0,0.0
387,96.5,43.9747,45.946,183.443,101.28,100.58,0.000703024,0.0469836,20.9547,48.875,0.0529965,0.0,0.0
390,97.25,43.5672,45.6499,181.139,101.281,100.218,0.000712072,0.0469168,20.9546,48.885,0.0806404,0.0,0.0
393,98,44.1694,45.8126,180.357,101.303,100.041,0.00071196,0.0468476,20.9545,48.885,0.0958612,0.0,0.0
396,98.75,43.6507,45.7151,180.606,101.309,100.936,0.000715422,0.0468402,20.9545,48.885,0.0282198,0.0,0.0
399,99.5,44.1816,45.7109,180.398,101.32,100.55,0.000722915,0.0468757,20.9544,48.905,0.0582281,0.0,0.0
402,100.25,44.1729,45.9981,178.444,101.302,99.9144,0.000735075,0.0469403,20.9544,48.895,0.105386,0.0,0.0
405,101,43.9744,45.8273,179.685,101.325,100.801,0.000751768,0.0469731,20.9544,48.875,0.039587,0.0,0.0
408,101.75,43.7177,45.703,179.114,101.322,99.9924,0.000772442,0.0469908,20.9544,48.855,0.10096,0.0,0.0
411,102.5,44.0124,45.7332,176.49,101.327,99.1289,0.000802056,0.0469608,20.9544,48.845,0.167599,0.0,0.0
414,103.25,43.913,45.6157,178.127,101.32,99.026,0.000823646,0.0469206,20.9543,48.875,0.174966,0.0,0.0
417,104,44.2083,45.9319,178.967,101.316,100.939,0.000828263,0.0468708,20.9543,48.865,0.028512,0.0,0.0
420,104.75,43.6625,45.7466,177.644,101.338,99.8048,0.000812612,0.0468346,20.9543,48.855,0.116491,0.0,0.0
423,105.5,43.8289,45.4163,183.138,101.34,99.3697,0.000801202,0.0467938,20.9543,48.805,0.149997,0.0,0.0
426,106.25,43.9972,45.2778,183.105,101.33,100.582,0.000727348,0.046773,20.9542,48.7949,0.056645,0.0,0.0
429,107,43.8847,45.6801,182.529,101.336,100.389,0.000643734,0.0467837,20.9541,48.7849,0.0716863,0.0,0.0
432,107.75,43.8899,45.8066,183.805,101.348,100.482,0.000557038,0.0468324,20.954,48.7649,0.0655472,0.0,0.0
435,108.5,43.8039,45.7664,179.903,101.332,101.118,0.000471523,0.0468678,20.954,48.7849,0.0161249,0.0,0.0
438,109.25,44.0881,45.3762,182.138,101.33,100.275,0.000409183,0.0468937,20.954,48.7949,0.0799607,0.0,0.0
441,110,44.0679,45.6596,185.063,101.334,100.554,0.000330165,0.0469125,20.9539,48.7649,0.0590914,0.0,0.0
444,110.75,43.6951,45.8382,184.135,101.316,99.7882,0.000271322,0.0469263,20.9539,48.7849,0.116133,0.0,0.0
447,111.5,44.1464,45.5756,181.871,101.337,100.567,0.000233112,0.046875,20.9539,48.7549,0.0582941,0.0,0.0
450,112.25,43.8997,45.9151,182.455,101.33,100.607,0.000214175,0.0468663,20.9539,48.7849,0.0547224,0.0,0.0
453,113,43.7888,45.6981,179.407,101.308,100.358,0.000219808,0.046857,20.9539,48.7849,0.071975,0.0,0.0
456,113.75,44.0694,46.259,180.146,101.312,99.9509,0.000251539,0.0468157,20.9539,48.825,0.103348,0.0,0.0
459,114.5,43.8434,45.9879,179.272,101.321,99.9393,0.000266982,0.0467877,20.9539,48.805,0.104901,0.0,0.0
462,115.25,43.6013,45.945,176.342,101.33,101.015,0.000311327,0.0467554,20.9539,48.7849,0.0237886,0.0,0.0
465,116,44.3239,45.6224,183.375,101.315,100.685,0.000343654,0.0467318,20.954,48.7849,0.0476491,0.0,0.0
468,116.75,44.022,45.9507,178.79,101.309,99.4345,0.000363682,0.0466995,20.9542,48.7849,0.142693,0.0,0.0
471,117.5,44.1642,45.9029,176.47,101.308,101.007,0.000362753,0.0466294,20.9544,48.7749,0.022756,0.0,0.0
474,118.25,43.764,46.1665,178.769,101.295,99.5956,0.000354957,0.0465939,20.9545,48.7449,0.129266,0.0,0.0
477,119,44.5495,45.872,179.546,101.284,100.288,0.000340087,0.0465671,20.9545,48.7349,0.0755053,0.0,0.0
480,119.75,44.2673,46.2791,178.531,101.267,100.706,0.000326767,0.0465612,20.9546,48.7249,0.0423867,0.0,0.0
483,120.5,44.2761,45.2983,179.566,101.282,100.487,0.000317305,0.0465698,20.9546,48.7449,0.060186,0.0,0.0
486,121.25,44.3004,46.2226,181.289,101.265,99.9094,0.000312639,0.0465761,20.9547,48.7849,0.102989,0.0,0.0
489,122,44.3518,45.9841,181.681,101.245,100.369,0.000311004,0.0465656,20.9547,48.6748,0.0663474,0.0,0.0
492,122.75,43.9906,45.8647,179.467,101.223,101.082,0.000317644,0.0465322,20.9547,48.7449,0.0106997,0.0,0.0
495,123.5,44.3257,45.958,183.097,101.227,100.079,0.000335875,0.0465304,20.9547,48.7149,0.0871447,0.0,0.0
498,124.25,44.1521,45.982,179.91,101.203,100.73,0.000377511,0.0465778,20.9547,48.7049,0.0358188,0.0,0.0
501,125,44.1799,45.8413,179.682,101.195,100.129,0.000420422,0.0466024,20.9547,48.6748,0.0809532,0.0,0.0
504,125.75,44.0285,45.9662,179.115,101.175,100.155,0.000458582,0.0466278,20.9547,48.7149,0.0773839,0.0,0.0
507,126.5,44.1516,46.1257,177.342,101.144,98.6025,0.000503784,0.0466593,20.9547,48.7649,0.194476,0.0,0.0
510,127.25,44.2202,45.7601,182.271,101.168,99.5989,0.000544146,0.0466973,20.9547,48.7249,0.119432,0.0,0.0
513,128,44.2997,45.791,185.79,101.125,99.2468,0.00059593,0.0467507,20.9548,48.7049,0.143253,0.0,0.0
516,128.75,44.2677,45.5617,183.844,101.11,99.0426,0.00062908,0.0467494,20.955,48.6848,0.157877,0.0,0.0
519,129.5,44.1536,46.164,178.387,101.084,99.7948,0.000678016,0.0467479,20.9546,48.6548,0.0980901,0.0,0.0
522,130.25,44.1787,45.8977,177.861,101.093,100.007,0.000707803,0.0467468,20.9543,48.6348,0.0825276,0.0,0.0
525,131,44.3484,45.7273,177.989,101.072,99.1439,0.000719452,0.0467317,20.9541,48.6448,0.14716,0.0,0.0
528,131.75,44.0557,46.0405,175.301,101.054,99.3996,0.000696054,0.0466844,20.9539,48.6748,0.126174,0.0,0.0
531,132.5,43.9006,46.086,181.096,101.021,98.3534,0.000651688,0.0465983,20.9538,48.7149,0.204483,0.0,0.0
534,133.25,44.3717,46.1846,178.383,101.004,99.2817,0.000601174,0.0465642,20.9537,48.6949,0.131397,0.0,0.0
537,134,44.5361,46.153,181.333,100.997,99.8912,0.000553183,0.0465516,20.9537,48.6949,0.0841486,0.0,0.0
540,134.75,44.1746,46.2275,184.947,100.969,98.7188,0.000516429,0.0465424,20.9536,48.6848,0.172243,0.0,0.0
543,135.5,44.3199,46.1359,178.854,100.953,100.476,0.000494858,0.0464948,20.9536,48.6848,0.0362305,0.0,0.0
546,136.25,44.2737,45.9851,182.767,100.914,99.4727,0.000488065,0.0464601,20.9536,48.6848,0.109925,0.0,0.0
549,137,43.8316,45.8821,184.655,100.919,98.5012,0.000496177,0.0465574,20.9536,48.6949,0.185282,0.0,0.0
552,137.75,44.1161,46.0659,179.993,100.886,99.2917,0.000524432,0.0466208,20.9535,48.6748,0.12172,0.0,0.0
555,138.5,44.2658,45.962,180.086,100.863,98.8516,0.000569827,0.0466542,20.9535,48.6848,0.153904,0.0,0.0
558,139.25,44.6155,46.2778,176.754,100.838,99.3083,0.000605404,0.0465967,20.9535,48.6949,0.116832,0.0,0.0
561,140,44.3067,46.1425,181.677,100.833,98.9147,0.000623902,0.0465344,20.9535,48.6848,0.146782,0.0,0.0
564,140.75,44.1341,46.1203,181.484,100.802,99.9609,0.000622856,0.046489,20.9535,48.6748,0.0640496,0.0,0.0
567,141.5,44.3149,45.9473,178.173,100.774,98.9861,0.000579607,0.046486,20.9535,48.6548,0.136776,0.0,0.0
570,142.25,44.4512,46.2366,178.217,100.749,99.2186,0.000525752,0.0465355,20.9538,48.6748,0.116968,0.0,0.0
573,143,44.382,45.9384,184.997,100.739,99.4229,0.000476974,0.0465715,20.9543,48.6949,0.100494,0.0,0.0
576,143.75,44.4231,46.034,180.695,100.701,99.9775,0.000407824,0.0465977,20.9547,48.6848,0.0551276,0.0,0.0
579,144.5,44.0017,45.9365,182.874,100.679,100.293,0.000361327,0.0465965,20.955,48.6748,0.0293796,0.0,0.0
582,145.25,44.6029,45.9314,180.683,100.647,99.1538,0.000334123,0.0466098,20.9553,48.6748,0.114179,0.0,0.0
585,146,44.1688,46.0791,177.552,100.632,99.4179,0.000356734,0.0466257,20.9554,48.6748,0.0927642,0.0,0.0
588,146.75,44.5163,45.9299,178.861,100.598,99.5574,0.000392812,0.0466577,20.9555,48.6748,0.0794955,0.0,0.0
591,147.5,44.113,46.2646,180.659,100.593,99.7749,0.00045262,0.0466667,20.955,48.6648,0.0623909,0.0,0.0
594,148.25,44.2154,45.989,180.982,100.536,99.8729,0.000535196,0.0466672,20.9546,48.6548,0.0506025,0.0,0.0
597,149,44.4573,46.0986,182.661,100.523,99.4378,0.000610307,0.0466675,20.9543,48.6248,0.0829286,0.0,0.0
600,149.75,44.598,46.2225,181.12,100.503,99.4677,0.000671422,0.0466677,20.9541,48.6448,0.0791403,0.0,0.0
603,150.5,44.1298,46.0158,179.758,100.464,98.7653,0.000715974,0.0467088,20.9539,48.6348,0.130342,0.0,0.0
606,151.25,44.6259,46.2594,175.574,100.44,99.9692,0.000711233,0.0467086,20.9539,48.6348,0.0358687,0.0,0.0
609,152,44.4885,46.1646,182.092,100.401,98.9911,0.000686666,0.0466568,20.954,48.6348,0.108076,0.0,0.0
612,152.75,44.5555,46.6002,182.817,100.379,99.1721,0.000655836,0.0466395,20.954,48.6248,0.0924096,0.0,0.0
615,153.5,44.1283,45.8125,185.437,100.341,99.7268,0.000626659,0.0466269,20.9541,48.6348,0.0469267,0.0,0.0
618,154.25,44.5669,45.9197,178.74,100.305,99.7882,0.000603618,0.0466253,20.9541,48.6348,0.0394456,0.0,0.0
621,155,44.2504,45.9527,185.737,100.281,99.4876,0.000588062,0.046637,20.9541,48.6448,0.0606966,0.0,0.0
624,155.75,44.4454,46.3887,181.401,100.262,100.064,0.000577252,0.0466025,20.9541,48.6348,0.0151312,0.0,0.0
627,156.5,44.3865,46.0507,178.798,100.237,97.8735,0.000564059,0.046559,20.9541,48.6348,0.182304,0.0,0.0
630,157.25,43.8498,46.0656,179.939,100.216,98.9828,0.000554442,0.0464987,20.9542,48.6548,0.0945963,0.0,0.0
633,158,44.5512,46.6277,181.171,100.174,99.5607,0.000521377,0.0464425,20.9542,48.6348,0.0469366,0.0,0.0
636,158.75,44.3722,46.2048,181.278,100.15,99.7683,0.000478334,0.0464016,20.9542,48.5948,0.0292199,0.0,0.0
639,159.5,44.5516,46.487,181.296,100.126,99.8912,0.000428346,0.0463308,20.9542,48.5948,0.0179499,0.0,0.0
642,160.25,44.3013,46.2448,177.565,100.109,100.623,0.00038298,0.046265,20.9542,48.6048,-0.0391503,0.0,0.0
645,161,44.4128,46.0071,179.617,100.059,99.0293,0.000349907,0.0462108,20.9542,48.5848,0.0790619,0.0,0.0
648,161.75,44.6317,46.3546,181.326,100.012,100.281,0.000336954,0.0461714,20.9542,48.5948,-0.0205269,0.0,0.0
651,162.5,44.2952,46.4419,179.485,100.012,98.6042,0.000336182,0.046163,20.9542,48.6148,0.108326,0.0,0.0
654,163.25,44.6413,46.2869,187.584,99.9571,98.0163,0.000342315,0.0461569,20.9542,48.6048,0.149828,0.0,0.0
657,164,44.7108,46.4336,176.376,99.9259,99.4079,0.000352007,0.0461525,20.9542,48.5848,0.0397139,0.0,0.0
660,164.75,44.2464,45.9881,182.09,99.8923,98.6739,0.000368003,0.046135,20.9542,48.5948,0.0937721,0.0,0.0
663,165.5,44.3904,45.9347,178.531,99.8634,98.1243,0.000388509,0.0461085,20.9542,48.5647,0.134252,0.0,0.0
666,166.25,44.4152,46.2295,184.731,99.8422,99.1671,0.000416328,0.0460677,20.955,48.5547,0.0518448,0.0,0.0
669,167,43.976,45.6407,182.485,99.8014,97.9067,0.000427727,0.0460529,20.9553,48.5647,0.146462,0.0,0.0
672,167.75,44.0022,45.84,181.972,99.7714,98.9147,0.000440896,0.0460283,20.9556,48.5848,0.065894,0.0,0.0
675,168.5,44.5363,45.8482,183.48,99.7453,99.5457,0.000441356,0.0459974,20.9554,48.5848,0.0153058,0.0,0.0
678,169.25,44.3424,46.1795,185.501,99.7269,98.292,0.000426061,0.0459749,20.9551,48.5747,0.110749,0.0,0.0
681,170,43.8194,46.316,182.817,99.7097,98.0711,0.000390154,0.0459661,20.9548,48.5647,0.126619,0.0,0.0
684,170.75,44.4086,45.9696,177.702,99.6817,99.667,0.000361368,0.0459725,20.9547,48.5747,0.00112857,0.0,0.0
687,171.5,44.7654,45.6279,180.155,99.6477,97.9615,0.00033592,0.0459772,20.9545,48.5747,0.130406,0.0,0.0
690,172.25,44.2303,45.8491,179.163,99.6276,99.1555,0.000317369,0.0459806,20.9544,48.5647,0.0362985,0.0,0.0
693,173,43.8937,45.8879,176.817,99.6076,99.652,0.000337444,0.0459756,20.9544,48.5547,-0.00340586,0.0,0.0
696,173.75,43.9266,46.2728,186.773,99.574,99.1788,0.000374409,0.045959,20.9543,48.5647,0.0303913,0.0,0.0
699,174.5,44.3248,46.203,178.894,99.5512,99.0808,0.000424598,0.0459674,20.9543,48.5647,0.0361924,0.0,0.0
702,175.25,44.0318,46.446,178.901,99.5484,98.9263,0.000484648,0.0459735,20.9542,48.5647,0.0478972,0.0,0.0
705,176,44.4302,46.3492,178.779,99.5344,97.9865,0.000553228,0.0459492,20.9542,48.5848,0.119771,0.0,0.0
708,176.75,44.2418,46.2627,179.287,99.5155,98.2289,0.000609435,0.0459194,20.9542,48.5848,0.0994425,0.0,0.0
711,177.5,43.777,46.6331,179.702,99.4899,98.1193,0.000653058,0.045918,20.9542,48.5948,0.106004,0.0,0.0
714,178.25,44.0845,46.3014,178.54,99.4815,97.9018,0.000675706,0.0459171,20.9542,48.5948,0.12232,0.0,0.0
717,179,44.2644,46.431,180.826,99.4831,98.8715,0.000676563,0.0459163,20.9542,48.5547,0.0471204,0.0,0.0
720,179.75,44.1463,46.0733,177.492,99.4539,98.2472,0.000634686,0.0459234,20.9542,48.5547,0.0932862,0.0,0.0
723,180.5,44.3172,46.3198,180.168,99.4303,98.7869,0.000568186,0.0459414,20.9542,48.5647,0.0496088,0.0,0.0
726,181.25,44.6446,46.143,181.516,99.4183,97.7041,0.000488717,0.0459954,20.9542,48.5447,0.132899,0.0,0.0
729,182,43.9023,46.4154,181.18,99.4094,98.0927,0.000404014,0.0460143,20.9542,48.5647,0.101891,0.0,0.0
732,182.75,44.3939,46.2644,180.401,99.4098,97.02,0.000312236,0.0459994,20.9542,48.5547,0.18595,0.0,0.0
735,183.5,44.7166,46.3849,181.644,99.389,99.8646,0.00023914,0.0459764,20.9542,48.5347,-0.0364754,0.0,0.0
738,184.25,44.645,46.1176,183.274,99.3602,98.5693,0.000183214,0.0459596,20.9542,48.5447,0.061068,0.0,0.0
741,185,44.7275,46.2152,173.486,99.3734,98.7702,0.000151273,0.0459474,20.9542,48.5347,0.0465229,0.0,0.0
744,185.75,44.1699,46.2911,179.383,99.3594,98.5726,0.000134179,0.0459384,20.9542,48.5547,0.060749,0.0,0.0
747,186.5,44.1407,45.9327,183.277,99.3418,98.4082,0.000126312,0.0459524,20.9542,48.5447,0.0721492,0.0,0.0
750,187.25,44.568,45.7889,181.368,99.3422,99.4445,0.000123921,0.0460055,20.9542,48.5547,-0.00786228,0.0,0.0
753,188,44.1554,45.8897,179.031,99.3202,99.2086,0.000120442,0.0460625,20.9542,48.5647,0.00858535,0.0,0.0
756,188.75,44.1121,46.162,183.947,99.3182,98.7653,0.000110086,0.0460001,20.9542,48.5347,0.0426594,0.0,0.0
759,189.5,44.1805,46.1272,181.721,99.317,98.7088,8.9164e-05,0.0459403,20.9541,48.5247,0.0469357,0.0,0.0
762,190.25,44.462,46.0244,182.203,99.321,99.4577,6.33198e-05,0.0458906,20.9539,48.5247,-0.0105149,0.0,0.0
765,191,44.4989,45.8639,178.982,99.3102,98.5959,4.44794e-05,0.0458543,20.9537,48.5147,0.0551592,0.0,0.0
768,191.75,44.4101,46.1107,183.173,99.3174,99.1306,3.60406e-05,0.045843,20.9536,48.5347,0.0143839,0.0,0.0
771,192.5,44.3086,45.6739,185.158,99.2933,98.7968,3.60783e-05,0.0458605,20.9535,48.5447,0.0383073,0.0,0.0
774,193.25,44.8082,45.5644,182.932,99.3026,98.5942,4.52611e-05,0.0458733,20.9535,48.5247,0.0547016,0.0,0.0
777,194,44.5833,45.9847,182.106,99.2929,98.8848,7.15741e-05,0.0458213,20.9534,48.5147,0.0314728,0.0,0.0
780,194.75,44.4947,46.1511,178.24,99.2993,98.375,0.000105249,0.0457834,20.9534,48.5247,0.0714634,0.0,0.0
783,195.5,44.2553,46.2853,175.699,99.3026,98.7337,0.000144802,0.0456985,20.9534,48.5147,0.0438985,0.0,0.0
786,196.25,44.1832,45.9098,175.186,99.299,98.6922,0.000199291,0.0455971,20.9538,48.5247,0.0468352,0.0,0.0
789,197,44.5751,45.7352,183.847,99.2993,98.4946,0.000253896,0.0454974,20.9541,48.5147,0.0621822,0.0,0.0
792,197.75,44.323,46.2922,175.171,99.3026,97.4866,0.000300046,0.0454677,20.9543,48.4947,0.141034,0.0,0.0
795,198.5,44.5386,46.3952,182.787,99.3142,98.9861,0.00033245,0.0454643,20.9544,48.5047,0.0252814,0.0,0.0
798,199.25,44.4962,46.0753,181.814,99.3258,98.1807,0.000355543,0.0454905,20.9545,48.4947,0.0886035,0.0,0.0
801,200,44.4028,46.378,181.232,99.3234,98.9363,0.000375917,0.0455068,20.9546,48.4947,0.0298369,0.0,0.0
804,200.75,44.4322,46.2769,180.491,99.3294,98.395,0.000399453,0.0454928,20.9547,48.4646,0.0722259,0.0,0.0
807,201.5,44.539,46.1195,181.014,99.3418,97.3322,0.000420967,0.0454827,20.9547,48.4747,0.156167,0.0,0.0
810,202.25,44.0368,46.1431,182.577,99.3622,99.0127,0.00043189,0.0454609,20.9548,48.4646,0.0269264,0.0,0.0
813,203,44.3897,45.8612,181.771,99.3582,97.9034,0.000429804,0.0454164,20.9548,48.4546,0.112713,0.0,0.0
816,203.75,44.1146,45.9445,178.538,99.3586,97.5746,0.00040529,0.0453452,20.9548,48.4646,0.13845,0.0,0.0
819,204.5,44.8267,46.2203,180.437,99.3886,98.0246,0.000387418,0.0452934,20.9548,48.4646,0.105597,0.0,0.0
822,205.25,44.3682,45.9505,181.664,99.4042,97.5647,0.000353173,0.0452556,20.9548,48.4446,0.142739,0.0,0.0
825,206,44.6436,46.0328,179.749,99.4283,98.204,0.000326969,0.0452893,20.9548,48.4646,0.0946755,0.0,0.0
828,206.75,44.5611,46.0354,179.465,99.4215,97.3189,0.000311252,0.045416,20.9548,48.4346,0.163336,0.0,0.0
831,207.5,44.1876,45.9113,180.771,99.4403,98.7536,0.000306488,0.0454797,20.9548,48.4446,0.0529468,0.0,0.0
834,208.25,43.9613,45.9448,176.559,99.4827,97.9665,0.000313623,0.045514,20.9548,48.4346,0.117359,0.0,0.0
837,209,44.0969,46.0832,178.849,99.4931,98.3119,0.000322077,0.0454795,20.9548,48.4546,0.0912639,0.0,0.0
840,209.75,43.6937,45.252,181.41,99.5091,98.6839,0.000333801,0.0454619,20.9548,48.4346,0.0636359,0.0,0.0
843,210.5,43.7405,45.2606,184.427,99.5267,98.3053,0.000340579,0.0454619,20.955,48.4346,0.0943624,0.0,0.0
846,211.25,43.5119,45.4786,182.174,99.5504,99.1455,0.00034552,0.0454416,20.9552,48.4346,0.031138,0.0,0.0
849,212,43.6358,44.942,185.297,99.5724,99.1339,0.000319063,0.0454342,20.9553,48.4446,0.0337241,0.0,0.0
852,212.75,43.3087,45.4032,176.303,99.6048,98.7935,0.000291103,0.0454418,20.9557,48.4446,0.0624975,0.0,0.0
855,213.5,43.2873,45.1132,177.035,99.604,98.1924,0.00027224,0.0454616,20.9563,48.4346,0.109075,0.0,0.0
858,214.25,43.1974,45.453,178.645,99.6693,99.5142,0.00026741,0.0454392,20.9568,48.4246,0.0118995,0.0,0.0
861,215,43.9795,45.2991,179.695,99.6821,98.938,0.000283337,0.045382,20.9571,48.4546,0.0572571,0.0,0.0
864,215.75,43.4785,45.5044,182.477,99.6941,99.2933,0.000300254,0.0453016,20.9574,48.4546,0.0307797,0.0,0.0
867,216.5,43.773,45.545,176.696,99.6989,98.7869,0.000306714,0.0452429,20.9576,48.4446,0.070226,0.0,0.0
870,217.25,43.7213,45.1064,183.11,99.7357,98.8051,0.000301381,0.0452002,20.9577,48.4446,0.0716357,0.0,0.0
873,218,43.6114,45.4216,183.597,99.773,98.9977,0.000297494,0.045169,20.9578,48.4546,0.0596048,0.0,0.0
876,218.75,44.0008,45.6556,179.482,99.7854,100.009,0.000272354,0.0451463,20.9576,48.4346,-0.0171102,0.0,0.0
879,219.5,43.7372,45.7612,183.886,99.803,100.632,0.000244519,0.0451428,20.957,48.4346,-0.0631952,0.0,0.0
882,220.25,43.2557,45.458,179.528,99.8346,99.6935,0.000208358,0.0451458,20.9566,48.4246,0.0108061,0.0,0.0
885,221,44.1673,45.5261,185.537,99.8514,100.902,0.000183235,0.0452093,20.9562,48.4046,-0.0800127,0.0,0.0
888,221.75,43.8569,45.3193,178.988,99.869,99.3498,0.000165448,0.0452555,20.9558,48.3846,0.0398344,0.0,0.0
891,222.5,44.0767,45.7042,184.189,99.8895,99.5624,0.000163081,0.0452817,20.9555,48.3545,0.0250653,0.0,0.0
894,223.25,43.74,45.4241,179.638,99.9179,100.474,0.000172506,0.0452879,20.9553,48.3846,-0.0424138,0.0,0.0
897,224,43.9218,45.8089,183.912,99.9215,99.4345,0.000185434,0.0453333,20.9551,48.3645,0.0373347,0.0,0.0
900,224.75,43.8753,45.3513,187.265,99.9467,99.4993,0.000197088,0.0453739,20.955,48.3846,0.0342882,0.0,0.0
903,225.5,43.5786,45.19,179.456,99.9579,100.61,0.000187002,0.0454164,20.9549,48.3946,-0.0497014,0.0,0.0
906,226.25,43.9768,45.6985,180.285,99.9799,100.32,0.000157392,0.0454044,20.9548,48.3645,-0.0259146,0.0,0.0
909,227,43.6137,45.7394,178.949,100.009,98.3269,8.52118e-05,0.0453987,20.9547,48.3746,0.129604,0.0,0.0
912,227.75,43.9643,45.2262,177.89,100.043,100.902,4.06143e-05,0.0454095,20.9547,48.3746,-0.0653513,0.0,0.0
915,228.5,43.5288,45.8277,181.756,100.044,100.027,-1.83357e-05,0.0454219,20.9547,48.4246,0.00124333,0.0,0.0
918,229.25,43.9576,45.8523,180.154,100.072,99.1007,-6.4476e-05,0.0453901,20.9547,48.4346,0.074532,0.0,0.0
921,230,43.9299,45.3846,179.084,100.076,98.9811,-6.28373e-05,0.0453669,20.9547,48.4146,0.0840631,0.0,0.0
924,230.75,43.9469,45.3879,178.975,100.126,99.3066,-3.94874e-05,0.0453314,20.9547,48.4246,0.0627668,0.0,0.0
927,231.5,43.4957,45.7446,179.602,100.14,99.579,1.54201e-05,0.0453199,20.955,48.4246,0.0429393,0.0,0.0
930,232.25,43.9496,45.9596,178.663,100.164,99.5125,0.00010255,0.0453176,20.9551,48.4246,0.0498405,0.0,0.0
933,233,43.8369,45.615,183.924,100.155,100.198,0.000199863,0.0452955,20.9552,48.4246,-0.00328465,0.0,0.0
936,233.75,44.2182,45.8607,182.771,100.182,99.4677,0.000327487,0.0453159,20.9553,48.4346,0.0546582,0.0,0.0
939,234.5,43.997,45.485,176.662,100.199,100.937,0.000384314,0.0453444,20.9553,48.4246,-0.0561049,0.0,0.0
942,235.25,44.2045,45.3129,178.376,100.225,100.092,0.000453693,0.0453967,20.9554,48.4146,0.0101684,0.0,0.0
945,236,43.9736,45.5314,176.384,100.229,99.7118,0.000503897,0.045394,20.9554,48.4546,0.0395,0.0,0.0
948,236.75,43.9369,45.5995,181.404,100.255,101.097,0.000537144,0.0453491,20.9554,48.4546,-0.0638612,0.0,0.0
951,237.5,44.1719,45.769,180.72,100.269,100.218,0.000563405,0.0452767,20.9555,48.4346,0.00386597,0.0,0.0
954,238.25,43.7876,45.4444,182.313,100.29,99.745,0.000574231,0.0452404,20.9555,48.4146,0.041623,0.0,0.0
957,239,43.975,45.7498,180.011,100.286,100.575,0.000588417,0.0451682,20.9555,48.4046,-0.0219972,0.0,0.0
960,239.75,44.1082,45.8889,179.822,100.303,99.9459,0.000615027,0.045036,20.9555,48.4246,0.0272822,0.0,0.0
963,240.5,43.8096,45.3616,187.209,100.342,99.7948,0.000624672,0.0449881,20.9555,48.4246,0.0418033,0.0,0.0
966,241.25,43.8852,45.9014,182.164,100.343,100.969,0.000626013,0.044994,20.9555,48.4246,-0.0475406,0.0,0.0
969,242,43.9227,45.6854,179.004,100.346,100.693,0.000610229,0.0449983,20.9553,48.4346,-0.0264059,0.0,0.0
972,242.75,44.4945,45.5525,179.362,100.358,99.8696,0.000554477,0.0450014,20.9552,48.4346,0.037302,0.0,0.0
975,243.5,43.5962,45.6781,183.135,100.391,99.3714,0.000498826,0.0450037,20.9551,48.3946,0.0779845,0.0,0.0
978,244.25,43.9452,45.0645,181.051,100.404,100.542,0.000432592,0.0449979,20.955,48.3846,-0.0104794,0.0,0.0
981,245,43.9091,45.8039,181.332,100.405,100.19,0.000356032,0.0449807,20.955,48.3846,0.0163548,0.0,0.0
984,245.75,44.4531,45.3519,180.443,100.417,100.159,0.000300219,0.0449682,20.9549,48.3946,0.0196756,0.0,0.0
987,246.5,44.2486,45.3979,181.054,100.428,100.623,0.000234804,0.0449591,20.9549,48.4046,-0.0148938,0.0,0.0
990,247.25,44.2584,45.5884,185.585,100.454,101.015,0.000182164,0.0449933,20.9549,48.4046,-0.0425572,0.0,0.0
993,248,43.8107,45.5995,181.571,100.464,100.919,0.000141678,0.0450325,20.9549,48.3946,-0.0345366,0.0,0.0
996,248.75,44.2404,45.6962,178.454,100.464,100.612,0.000110399,0.0450522,20.9549,48.3946,-0.0112096,0.0,0.0
999,249.5,43.761,44.9624,183.332,100.463,99.9792,8.93616e-05,0.0450407,20.9549,48.3846,0.0369041,0.0,0.0
1002,250.25,43.7488,45.7121,178.921,100.484,99.5624,7.48517e-05,0.0450119,20.9549,48.4046,0.0704101,0.0,0.0
1005,251,43.9073,45.5624,174.759,100.501,100.054,7.18082e-05,0.0449834,20.9555,48.4046,0.034056,0.0,0.0
1008,251.75,43.9175,45.6454,177.705,100.492,100.132,6.70536e-05,0.0449498,20.9559,48.3946,0.0273975,0.0,0.0
1011,252.5,43.913,45.3692,183.976,100.508,100.368,6.30597e-05,0.0448822,20.9563,48.4046,0.0106406,0.0,0.0
1014,253.25,43.8314,45.6246,180.116,100.516,101.029,5.51971e-05,0.0448147,20.9563,48.3846,-0.0388432,0.0,0.0
1017,254,43.8733,45.6968,185.93,100.548,100.843,4.47483e-05,0.0447655,20.9559,48.4146,-0.0223891,0.0,0.0
1020,254.75,43.9371,45.3585,179.315,100.551,101.032,3.26745e-05,0.0447583,20.9556,48.3846,-0.0364772,0.0,0.0
1023,255.5,44.0001,45.6869,180.291,100.544,100.379,1.76848e-05,0.0447652,20.9554,48.3846,0.0125561,0.0,0.0
1026,256.25,44.2534,45.4513,183.537,100.577,100.795,7.83214e-06,0.0447702,20.9552,48.4146,-0.016488,0.0,0.0
1029,257,43.6695,45.6405,180.887,100.567,100.22,2.23246e-06,0.0447739,20.9551,48.3946,0.0264353,0.0,0.0
1032,257.75,44.0545,45.5637,175.155,100.562,100.647,1.05081e-05,0.0447841,20.9551,48.3946,-0.00643076,0.0,0.0
1035,258.5,44.2739,45.5446,177.484,100.575,100.614,2.71365e-05,0.0448045,20.9552,48.3946,-0.00290463,0.0,0.0
1038,259.25,44.0344,45.7864,176.637,100.586,99.6404,3.92586e-05,0.0448909,20.9558,48.3946,0.0722133,0.0,0.0
1041,260,44.0423,45.4908,180.241,100.591,99.4926,6.39923e-05,0.0449995,20.9561,48.4046,0.0838901,0.0,0.0
1044,260.75,43.6994,45.4048,180.365,100.607,101.15,9.3108e-05,0.0451044,20.9564,48.4046,-0.0411315,0.0,0.0
1047,261.5,44.2511,45.713,180.733,100.607,100.12,0.000133288,0.0451666,20.9566,48.4046,0.0370781,0.0,0.0
1050,262.25,44.2844,46.2044,181.077,100.607,100.705,0.000194405,0.0452058,20.9568,48.3946,-0.00743598,0.0,0.0
1053,263,44.2058,45.7982,178.195,100.623,100.904,0.000247641,0.0451527,20.9569,48.4046,-0.0213554,0.0,0.0
1056,263.75,44.0192,45.7408,183.444,100.619,100.773,0.00029015,0.045114,20.957,48.3946,-0.0116881,0.0,0.0
1059,264.5,43.9107,45.1819,180.628,100.623,100.702,0.000317223,0.0451062,20.9568,48.3846,-0.00596763,0.0,0.0
1062,265.25,43.7872,45.3772,179.421,100.648,100.632,0.000326347,0.0451005,20.9563,48.3746,0.00124151,0.0,0.0
1065,266,43.6958,45.4847,181.61,100.652,100.984,0.000326302,0.0450964,20.9559,48.3946,-0.0251711,0.0,0.0
1068,266.75,44.0493,45.8574,174.982,100.661,100.793,0.000330185,0.0450525,20.9556,48.3846,-0.0100374,0.0,0.0
1071,267.5,44.1262,45.9964,174.449,100.661,101.557,0.000339712,0.0450492,20.956,48.3746,-0.0677014,0.0,0.0
1074,268.25,43.7747,45.0612,180.919,100.651,101.165,0.000376733,0.045059,20.9563,48.3846,-0.0389462,0.0,0.0
1077,269,44.2656,45.8534,181.655,100.629,100.258,0.000413649,0.0450457,20.9566,48.3946,0.0281771,0.0,0.0
1080,269.75,44.1973,45.3847,179.34,100.654,100.705,0.000436303,0.044993,20.9567,48.3846,-0.00384833,0.0,0.0
1083,270.5,43.7757,45.5098,182.924,100.658,100.271,0.0004383,0.0449439,20.9569,48.3846,0.0293832,0.0,0.0
1086,271.25,43.9151,45.6157,180.701,100.647,101.183,0.000411235,0.0449209,20.9569,48.3645,-0.0405995,0.0,0.0
1089,272,44.0062,45.5048,181.512,100.629,101.152,0.000379345,0.0449185,20.957,48.3545,-0.0396146,0.0,0.0
1092,272.75,43.9794,45.3399,185.803,100.649,101.329,0.000327816,0.0449229,20.9566,48.3645,-0.0515056,0.0,0.0
1095,273.5,44.0777,45.5156,179.201,100.656,100.276,0.000290251,0.0449464,20.9561,48.3846,0.0288823,0.0,0.0
1098,274.25,43.6139,45.6745,178.836,100.636,101.152,0.000248731,0.0449636,20.9558,48.3645,-0.0390679,0.0,0.0
1101,275,43.9539,45.1172,185.279,100.632,100.545,0.000226207,0.0449724,20.9556,48.3746,0.00655596,0.0,0.0
1104,275.75,43.5214,45.4895,185.215,100.636,100.094,0.000198511,0.0449969,20.9554,48.3746,0.0412642,0.0,0.0
1107,276.5,44.1631,45.4202,177.4375,100.623,100.665,0.000174787,0.0450359,20.9552,48.3746,-0.00316435,0.0,0.0
1110,277.25,44.1288,45.6864,180.127,100.613,101.248,0.000159259,0.0450901,20.9551,48.3645,-0.0480732,0.0,0.0
1113,278,44.0958,45.8159,178.734,100.596,100.442,0.000149243,0.0451501,20.9551,48.3846,0.0116475,0.0,0.0
1116,278.75,44.1024,45.3521,182.342,100.59,100.481,0.000144171,0.0451508,20.955,48.3846,0.00828598,0.0,0.0
1119,279.5,43.6622,45.5134,183.321,100.581,100.883,0.000142239,0.0451331,20.955,48.3746,-0.0228838,0.0,0.0
1122,280.25,43.8938,44.594,180.004,100.574,99.9244,0.000144743,0.0450997,20.9549,48.3445,0.049493,0.0,0.0
1125,281,43.9779,45.6556,182.594,100.559,100.496,0.000153257,0.0450753,20.9549,48.3345,0.00480735,0.0,0.0
1128,281.75,43.9792,45.1273,180.595,100.558,100.994,0.000160768,0.0450576,20.9549,48.3245,-0.0330406,0.0,0.0
1131,282.5,43.6283,45.4507,179.125,100.54,101.504,0.000168473,0.045016,20.9549,48.3345,-0.0729164,0.0,0.0
1134,283.25,44.1491,45.7477,179.393,100.547,100.758,0.000182927,0.0449961,20.9549,48.3445,-0.0159997,0.0,0.0
1137,284,43.8288,45.0939,181.461,100.533,100.801,0.000200899,0.0450203,20.9549,48.3345,-0.0203383,0.0,0.0
1140,284.75,43.5696,45.4679,176.065,100.506,100.77,0.000221085,0.0449971,20.9549,48.3445,-0.020015,0.0,0.0
1143,285.5,43.6833,45.2385,182.167,100.512,100.315,0.000242494,0.0449085,20.9548,48.3445,0.015023,0.0,0.0
1146,286.25,44.1809,45.9539,179.862,100.5,100.403,0.000272248,0.0448135,20.9548,48.3645,0.00740782,0.0,0.0
1149,287,43.7244,45.7242,180.555,100.504,100.65,0.000293939,0.0447517,20.9548,48.3545,-0.0111261,0.0,0.0
1152,287.75,44.0178,45.6833,181.297,100.474,100.139,0.000299833,0.0447196,20.9549,48.3545,0.0255519,0.0,0.0
1155,288.5,43.5338,45.3594,181.397,100.478,100.203,0.000293378,0.0448187,20.9551,48.3445,0.0208848,0.0,0.0
1158,289.25,44.0907,45.5513,183.226,100.463,100.014,0.000277518,0.0448984,20.9552,48.3645,0.0342084,0.0,0.0
1161,290,43.9823,45.7055,180.65,100.467,99.8563,0.00025005,0.0449393,20.9553,48.3746,0.0466062,0.0,0.0
1164,290.75,43.6974,45.5425,179.875,100.446,99.9941,0.000221356,0.0449176,20.9553,48.3445,0.0344215,0.0,0.0
1167,291.5,44.3222,45.8553,184.035,100.43,100.685,0.000193482,0.0448609,20.9554,48.3445,-0.0194067,0.0,0.0
1170,292.25,44.0813,45.5859,178.492,100.424,100.217,0.000167589,0.0448491,20.9554,48.3545,0.0157603,0.0,0.0
1173,293,43.7753,45.5064,185.25,100.428,100.673,0.000159342,0.0448908,20.9554,48.3445,-0.0186154,0.0,0.0
1176,293.75,43.6993,45.5261,183.293,100.409,100.18,0.00015333,0.0449499,20.9555,48.3645,0.0174501,0.0,0.0
1179,294.5,43.7889,45.3622,177.806,100.407,100.997,0.000174965,0.0450052,20.9554,48.3445,-0.0448,0.0,0.0
1182,295.25,44.0107,45.3758,175.811,100.396,100.831,0.00020966,0.0450311,20.9552,48.3445,-0.0330785,0.0,0.0
1185,296,43.919,45.3464,185.211,100.404,101.417,0.000248341,0.045044,20.955,48.3445,-0.0767042,0.0,0.0
1188,296.75,43.8748,45.5603,177.738,100.394,100.54,0.000278308,0.0450533,20.9549,48.3545,-0.0111759,0.0,0.0
1191,297.5,43.935,45.2532,181.974,100.364,101.181,0.000288996,0.0450601,20.9548,48.3345,-0.0619641,0.0,0.0
1194,298.25,44.2613,45.2194,176.65,100.359,100.321,0.000284203,0.0450508,20.9548,48.3345,0.00285071,0.0,0.0
1197,299,44.2288,45.8045,181.719,100.36,100.464,0.000267323,0.0450454,20.9547,48.3245,-0.00792839,0.0,0.0
1200,299.75,43.4812,45.5299,177.48,100.353,100.766,0.000233815,0.0450544,20.9547,48.3345,-0.0314003,0.0,0.0
1203,300.5,43.4436,45.1752,182.148,100.341,100.376,0.000209387,0.0449792,20.9547,48.3445,-0.0026636,0.0,0.0
1206,301.25,43.9005,45.5101,180.299,100.33,99.6836,0.000177448,0.0449093,20.9542,48.3345,0.0493816,0.0,0.0
1209,302,43.9993,45.1686,179.707,100.338,100.658,0.000146736,0.0448326,20.9537,48.3545,-0.0243381,0.0,0.0
1212,302.75,44.0906,44.7877,177.255,100.323,100.899,0.00012118,0.0447923,20.9533,48.3645,-0.0437541,0.0,0.0
1215,303.5,43.8899,45.6968,181.051,100.311,100.808,0.000104284,0.0447696,20.953,48.3746,-0.0377496,0.0,0.0
1218,304.25,43.8958,45.346,180.847,100.311,100.763,9.93964e-05,0.044753,20.9529,48.3846,-0.0343801,0.0,0.0
1221,305,43.8818,45.4959,182.345,100.299,99.3182,0.000106171,0.0447409,20.953,48.3746,0.0750606,0.0,0.0
1224,305.75,43.7759,45.7573,179.998,100.299,100.494,0.000123371,0.0447465,20.953,48.3645,-0.0148053,0.0,0.0
1227,306.5,43.7792,45.2144,181.632,100.283,99.6221,0.000153583,0.0447566,20.9531,48.3545,0.0504948,0.0,0.0
1230,307.25,44.2102,45.5614,183.592,100.273,100.017,0.000175607,0.0448865,20.9531,48.3645,0.0195066,0.0,0.0
1233,308,43.8453,45.3775,178.985,100.282,100.235,0.000209341,0.0449511,20.9531,48.3746,0.00360557,0.0,0.0
1236,308.75,43.7487,45.6256,179.922,100.249,100.957,0.000245852,0.0449454,20.9531,48.3746,-0.053768,0.0,0.0
1239,309.5,43.6795,45.608,177.307,100.256,101.527,0.000259876,0.0449433,20.9531,48.3746,-0.0962405,0.0,0.0
1242,310.25,44.145,45.7512,178.24,100.24,100.308,0.000271118,0.0449001,20.9531,48.3645,-0.00516587,0.0,0.0
1245,311,43.7463,45.7158,178.673,100.242,99.7732,0.00027427,0.0448193,20.953,48.3645,0.0357998,0.0,0.0
1248,311.75,43.8841,45.3859,181.043,100.233,100.275,0.000269259,0.044799,20.953,48.3545,-0.00321539,0.0,0.0
1251,312.5,43.8003,45.6831,180.378,100.239,100.873,0.000252317,0.0447949,20.9529,48.3445,-0.0481484,0.0,0.0
1254,313.25,44.0713,45.2587,180.881,100.217,100.682,0.000236517,0.0448205,20.9529,48.3345,-0.0353469,0.0,0.0
1257,314,43.9385,45.454,183.663,100.212,100.702,0.000227229,0.0448514,20.9529,48.3445,-0.0372557,0.0,0.0
1260,314.75,43.8465,45.4319,182.116,100.206,100.672,0.000220458,0.0448944,20.9528,48.3545,-0.0354146,0.0,0.0
1263,315.5,44.1761,45.3195,179.057,100.201,99.5906,0.000250877,0.0448955,20.9533,48.3345,0.0466587,0.0,0.0
1266,316.25,44.1385,45.81,177.777,100.191,100.924,0.00030034,0.0448448,20.9538,48.3345,-0.0557406,0.0,0.0
1269,317,43.9239,45.3089,178.319,100.16,99.0127,0.000385683,0.0447979,20.9542,48.3245,0.0880137,0.0,0.0
1272,317.75,44.142,46.0516,182.306,100.167,100.57,0.000427728,0.0447809,20.9544,48.3545,-0.0307144,0.0,0.0
1275,318.5,44.083,45.489,177.427,100.173,100.238,0.000492243,0.0447613,20.9546,48.3545,-0.00501045,0.0,0.0
1278,319.25,43.9125,45.2641,178.303,100.166,100.642,0.000530583,0.044747,20.9548,48.3545,-0.0362301,0.0,0.0
1281,320,44.0728,45.6548,178.795,100.147,100.363,0.000546986,0.044757,20.9549,48.3445,-0.0164232,0.0,0.0
1284,320.75,43.4661,45.7182,174.674,100.153,101.357,0.000545536,0.0447642,20.9549,48.3245,-0.0913271,0.0,0.0
1287,321.5,43.9772,45.8401,185.611,100.134,100.124,0.000544479,0.0447083,20.955,48.3345,0.00082709,0.0,0.0
1290,322.25,43.9959,45.839,183.432,100.145,99.6753,0.000531318,0.0446373,20.955,48.3345,0.0359485,0.0,0.0
1293,323,44.0516,45.6124,176.8,100.138,99.7716,0.000530573,0.0445341,20.9551,48.3245,0.0280183,0.0,0.0
1296,323.75,43.8792,45.334,182.826,100.144,100.007,0.000535257,0.0444445,20.9551,48.3345,0.0104068,0.0,0.0
1299,324.5,43.8305,45.1897,178.109,100.13,100.11,0.000547608,0.0443731,20.9551,48.3145,0.00147558,0.0,0.0
1302,325.25,43.6398,45.6959,177.717,100.129,100.23,0.000561578,0.0443823,20.9551,48.3145,-0.00767671,0.0,0.0
1305,326,44.1978,46.1089,179.731,100.13,100.119,0.00057388,0.0444033,20.9551,48.3145,0.000841663,0.0,0.0
1308,326.75,43.8008,45.2435,180.61,100.117,99.9675,0.000597016,0.0444323,20.9551,48.3345,0.0114056,0.0,0.0
1311,327.5,43.9998,45.4242,180.104,100.146,100.16,0.000626305,0.0444663,20.9551,48.3345,-0.00110414,0.0,0.0
1314,328.25,43.8557,45.2574,180.437,100.12,99.1123,0.000652951,0.0444768,20.9551,48.3545,0.0773037,0.0,0.0
1315,328.5,43.4308,45.601,178.363,100.119,99.6304,0.000668621,0.0444773,20.9551,48.3545,0.0373709,0.0,0.0