File: 01_Data/Feather_Pillow_Feathers/Cone/Feather_Pillow_Feathers_Cone_HF75Scan_230710_R2.csv
Names,Time,Stack TC,Smoke TC,Exh Press,Smoke Comp,Smoke Meas,CO Meter,CO2 Meter,O2 Meter,Sample Mass,Ext Coeff,Start Test,Flame Verif
Chan Gain,,500,500,1,1,1,1,1,1,1,1,1.0,1.0
Offset,,0,0,0.18266,0,0,0,0,0,0,0,0.0,0.0
Gain,,1,1,25.011,12.871,48.7072,1,1,1,1.00092,0.871134,1.0,1.0
Units,sec,C,C,Pa,%,%,%,%,%,g,/m,,
Baseline,,65.1614,68.4462,168.199,99.7375,100.364,-3.30466e-05,0.0438606,20.9506,-448.382,-0.0477792,,
2,0.25,64.6539,67.2145,172.124,99.9803,65.752,-0.000294295,0.0441313,20.9521,46.663,3.20244,0.0,0.0
4,0.75,65.139,66.6824,170.719,99.9741,61.7773,-0.000305223,0.0441659,20.9518,46.643,3.67844,0.0,0.0
6,1.25,64.6433,66.9198,178.902,99.9768,57.3909,-0.000301047,0.0442143,20.9515,46.3927,4.24145,0.0,0.0
8,1.75,64.5623,66.7882,169.072,99.9744,66.3109,-0.000285938,0.0442535,20.9513,46.2526,3.13731,0.0,1.0
10,2.25,64.8418,67.2254,147.159,99.9713,66.7613,-0.000257414,0.0442853,20.9511,46.0524,3.08534,0.0,1.0
12,2.75,65.0241,68.7971,140.181,99.9784,68.0277,-0.000219651,0.0443261,20.951,46.0024,2.94228,0.0,1.0
14,3.25,66.0023,70.767,144.549,99.9843,67.8404,-0.000189064,0.0443727,20.9508,45.8022,2.9638,0.0,1.0
16,3.75,66.0009,72.001,140.139,99.9646,66.8787,-0.000138292,0.0444255,20.9508,45.7421,3.0714,0.0,1.0
18,4.25,66.9229,73.272,140.101,99.9925,66.8356,-9.71675e-05,0.0444818,20.9502,45.6521,3.07846,0.0,1.0
20,4.75,67.3605,74.2983,149.434,99.9788,65.8085,-4.27995e-05,0.0445274,20.9498,45.3618,3.19575,0.0,1.0
22,5.25,68.0941,76.0762,143.805,99.9843,65.8903,1.23852e-06,0.0446074,20.9495,45.3117,3.18669,0.0,1.0
24,5.75,68.8699,76.8765,141.854,99.9851,65.4503,3.69093e-05,0.0446721,20.9492,45.2417,3.23794,0.0,1.0
26,6.25,69.3188,78.5518,147.787,99.9886,63.7409,6.58027e-05,0.0447246,20.949,45.1516,3.44044,0.0,1.0
28,6.75,69.3683,79.664,134.428,99.9705,62.7227,8.05345e-05,0.044767,20.9488,44.9814,3.56211,0.0,1.0
30,7.25,70.3025,81.1449,152.9,99.9705,63.8494,9.24673e-05,0.0448014,20.949,44.9314,3.42607,0.0,1.0
32,7.75,70.6841,82.2587,144.071,99.9638,60.5659,8.47953e-05,0.0448293,20.9494,44.8413,3.82899,0.0,0.0
34,8.25,71.6658,83.5198,144.032,99.9882,59.6027,7.85809e-05,0.045253,20.9498,44.6611,3.95336,0.0,0.0
36,8.75,71.8445,84.1748,138.598,99.9678,59.7692,8.84074e-05,0.0455962,20.9501,44.6411,3.93048,0.0,0.0
38,9.25,72.8621,85.461,142.085,99.9874,57.6005,9.63668e-05,0.0506396,20.9501,44.551,4.21441,0.0,0.0
40,9.75,73.0801,86.6509,149.006,99.9682,56.1007,0.000213437,0.0645407,20.9498,44.481,4.41454,0.0,0.0
42,10.25,73.5604,87.4906,138.2,99.9858,56.2567,0.00024493,0.073375,20.9494,44.4509,4.39466,0.0,0.0
44,10.75,73.7675,88.1566,148.621,99.9768,56.1111,0.000430577,0.0884816,20.9489,44.3909,4.41379,0.0,0.0
46,11.25,74.76,89.2005,147.472,99.9929,54.2099,0.000580951,0.115242,20.9454,44.2808,4.67841,0.0,0.0
48,11.75,74.757,89.3401,132.704,99.9823,51.9208,0.000788822,0.149988,20.9398,44.2107,5.00729,0.0,0.0
50,12.25,75.4854,90.2711,143.922,99.978,52.6581,0.00103466,0.191148,20.9353,44.1106,4.89921,0.0,0.0
52,12.75,76.0457,90.9119,141.556,99.9788,50.7213,0.00123379,0.2362,20.9106,44.1206,5.18563,0.0,0.0
54,13.25,76.3498,92.0466,153.318,99.9788,54.5221,0.00157944,0.272693,20.8907,44.1106,4.63346,0.0,0.0
56,13.75,76.7405,91.9947,144.541,99.9658,55.0453,0.00185941,0.318978,20.8592,44.0906,4.55948,0.0,0.0
58,14.25,77.1039,92.9619,147.254,99.9682,56.2017,0.0022096,0.356468,20.8199,43.9705,4.40079,0.0,0.0
60,14.75,77.4872,93.2116,149.224,99.9717,55.3976,0.00249325,0.395752,20.7703,44.0005,4.51118,0.0,0.0
62,15.25,78.1257,92.9373,148.232,99.9666,53.4266,0.00285568,0.427572,20.714,43.9205,4.78763,0.0,0.0
64,15.75,78.4157,93.6935,150.873,99.9689,58.6588,0.00314924,0.457489,20.6547,43.9104,4.07387,0.0,0.0
66,16.25,78.0987,93.9061,158.985,99.9603,62.1727,0.00354303,0.481723,20.5944,43.9004,3.62863,0.0,0.0
68,16.75,78.3941,93.7558,155.777,99.9587,64.8126,0.003862,0.50159,20.5352,43.9104,3.31075,0.0,0.0
70,17.25,78.9873,93.4531,156.499,99.9536,65.1173,0.00425458,0.517683,20.478,43.9805,3.27452,0.0,0.0
72,17.75,78.6583,93.4583,160.929,99.9646,64.9226,0.00469336,0.530237,20.4316,44.0005,3.29824,0.0,0.0
74,18.25,78.8347,93.3765,160.336,99.9831,64.7294,0.00517913,0.539974,20.386,43.9905,3.32243,0.0,0.0
76,18.75,78.7179,93.1814,160.188,99.9646,65.9794,0.00568993,0.547641,20.3491,43.9805,3.17485,0.0,0.0
78,19.25,78.9726,92.3956,160.381,99.9517,66.4908,0.00610368,0.553655,20.3156,44.0306,3.11487,0.0,0.0
80,19.75,78.1623,92.0672,163.341,99.9831,65.865,0.00663693,0.558526,20.2885,43.9905,3.18953,0.0,0.0
82,20.25,78.7509,91.8993,158.937,99.9552,67.4019,0.00724716,0.562788,20.2658,44.0005,3.01113,0.0,0.0
84,20.75,78.2987,91.3266,164.16,99.9568,66.6186,0.00787525,0.566241,20.2468,44.0005,3.10058,0.0,0.0
86,21.25,78.3774,90.8331,165.959,99.945,66.849,0.00850444,0.566749,20.2314,44.0205,3.0733,0.0,0.0
88,21.75,78.5672,90.1704,164.253,99.9548,66.8609,0.00910721,0.565101,20.2189,44.0406,3.07269,0.0,0.0
90,22.25,78.2256,89.9514,159.681,99.9477,66.8445,0.00967928,0.559389,20.2088,44.0005,3.07402,0.0,0.0
92,22.75,78.3151,89.967,165.733,99.9391,66.6944,0.0101427,0.550821,20.2006,43.9705,3.09054,0.0,0.0
94,23.25,77.758,88.7909,166.715,99.9277,67.1582,0.0105377,0.539073,20.194,43.9805,3.03672,0.0,0.0
96,23.75,77.5323,88.4161,165.966,99.9689,66.7063,0.0108577,0.525229,20.1891,44.0105,3.09146,0.0,0.0
98,24.25,77.194,88.1254,166.095,99.9293,66.5755,0.0110105,0.506972,20.1851,44.0205,3.10342,0.0,0.0
100,24.75,77.0297,87.4737,166.466,99.9493,66.7762,0.0111344,0.485846,20.1926,43.9805,3.08196,0.0,0.0
102,25.25,76.7902,87.3549,165.443,99.9442,66.516,0.0110177,0.468734,20.1987,43.9605,3.11139,0.0,0.0
104,25.75,76.5863,86.5325,166.636,99.9422,66.4432,0.0109231,0.445332,20.2097,43.9905,3.11961,0.0,0.0
106,26.25,77.0714,86.2609,166.038,99.9356,67.0452,0.0108465,0.417789,20.2241,43.9905,3.05018,0.0,0.0
108,26.75,76.5155,86.0631,168.189,99.9477,67.0333,0.0103695,0.395479,20.2358,43.9605,3.05247,0.0,0.0
110,27.25,76.5856,85.738,160.555,99.9202,67.6428,0.00998303,0.361843,20.2547,43.9505,2.9812,0.0,0.0
112,27.75,76.1306,85.486,166.994,99.9399,67.4599,0.00947872,0.334598,20.2785,44.0005,3.00339,0.0,0.0
114,28.25,76.4441,85.5562,160.021,99.9375,67.6636,0.00889806,0.307387,20.2977,44.0105,2.98018,0.0,0.0
116,28.75,76.5213,84.8418,167.042,99.932,67.1225,0.00842773,0.280719,20.3133,43.9405,3.04111,0.0,0.0
118,29.25,76.1096,84.6314,166.549,99.9305,67.1463,0.00785323,0.259118,20.3479,43.9505,3.03828,0.0,0.0
120,29.75,76.1706,84.5211,161.698,99.9297,67.8181,0.00721372,0.237433,20.3758,43.9705,2.96214,0.0,0.0
122,30.25,76.3536,84.4747,167.628,99.936,67.0244,0.00661457,0.216098,20.4209,44.0005,3.05258,0.0,0.0
124,30.75,76.2252,84.4736,164.089,99.9202,67.2013,0.00605624,0.196026,20.4666,43.9905,3.03124,0.0,0.0
126,31.25,76.21,83.7966,169.686,99.9116,67.176,0.00554897,0.179767,20.5118,43.9705,3.03345,0.0,0.0
128,31.75,75.9574,83.7502,165.103,99.912,66.9337,0.00508856,0.165554,20.5553,43.9605,3.06109,0.0,0.0
130,32.25,75.9115,83.6794,163.551,99.912,66.9025,0.00471564,0.153104,20.5966,43.9705,3.06466,0.0,0.0
132,32.75,75.589,83.5355,163.817,99.912,66.9471,0.00434823,0.143018,20.6301,43.9805,3.05957,0.0,0.0
134,33.25,76.0265,82.8914,171.092,99.8986,66.8758,0.00405062,0.133358,20.662,44.0105,3.06669,0.0,0.0
136,33.75,75.5078,83.0538,168.68,99.9175,67.5595,0.00380956,0.125533,20.692,43.9805,2.9904,0.0,0.0
138,34.25,75.7981,83.0446,160.472,99.8979,67.1284,0.00360301,0.119195,20.7187,43.9705,3.03781,0.0,0.0
140,34.75,75.3523,82.8873,167.223,99.8979,67.8063,0.0034357,0.113202,20.7424,43.9805,2.96104,0.0,0.0
142,35.25,75.4535,82.2649,165.746,99.9022,66.9278,0.00330896,0.108347,20.7635,43.9605,3.06102,0.0,0.0
144,35.75,75.4351,82.136,167.619,99.8872,66.904,0.00320631,0.104152,20.7823,43.9505,3.0626,0.0,0.0
146,36.25,75.2979,82.0185,169.5,99.8723,66.8208,0.0031332,0.100754,20.7991,43.9405,3.07097,0.0,0.0
148,36.75,75.4112,81.9705,165.853,99.8884,67.0571,0.00307399,0.0976966,20.8142,43.9605,3.04522,0.0,0.0
150,37.25,74.4493,82.0477,162.749,99.8821,67.4213,0.00303481,0.0952199,20.8278,43.9605,3.00335,0.0,0.0
152,37.75,75.4649,81.9471,162.764,99.8794,66.791,0.00300308,0.0929084,20.8389,43.9805,3.07491,0.0,0.0
154,38.25,75.2549,81.3499,164.36,99.8782,67.2087,0.00297864,0.0910362,20.8483,43.9805,3.02718,0.0,0.0
156,38.75,75.1052,81.3795,172.032,99.8656,66.8758,0.00295884,0.0892145,20.8563,43.9405,3.06417,0.0,0.0
158,39.25,74.8512,81.162,161.614,99.8645,66.9337,0.00294405,0.087739,20.8633,43.9405,3.05746,0.0,0.0
160,39.75,74.9843,81.0405,168.77,99.8798,67.5551,0.00293208,0.0864521,20.8693,43.9305,2.98802,0.0,0.0
162,40.25,74.2093,80.7887,165.674,99.8472,66.9664,0.00292238,0.0853271,20.8743,43.9205,3.0524,0.0,0.0
164,40.75,74.6543,80.3574,165.254,99.8609,67.2994,0.00291704,0.0844159,20.8787,43.9104,3.01556,0.0,0.0
166,41.25,74.7244,81.037,168.561,99.855,67.3722,0.00291271,0.0835037,20.8827,43.9205,3.00684,0.0,0.0
168,41.75,74.9699,80.2817,162.406,99.8503,66.7167,0.00290669,0.0827648,20.886,43.8904,3.08119,0.0,0.0
170,42.25,74.713,80.3656,163.746,99.8464,67.1522,0.00290181,0.0821815,20.8887,43.9205,3.03117,0.0,0.0
172,42.75,74.9885,80.058,164.07,99.8413,66.794,0.00289919,0.0817228,20.8908,43.9205,3.07165,0.0,0.0
174,43.25,74.4734,79.7384,169.374,99.8378,66.8743,0.00289825,0.0812826,20.8934,43.9305,3.06221,0.0,0.0
176,43.75,73.4542,80.114,165.501,99.8393,67.6026,0.00289947,0.0808641,20.8956,43.9104,2.97955,0.0,0.0
178,44.25,74.5359,80.4153,162.44,99.8303,67.9713,0.00290225,0.0804335,20.8977,43.9205,2.9373,0.0,0.0
180,44.75,74.6594,79.9636,169.302,99.8146,66.8445,0.0029045,0.0800022,20.8995,43.9104,3.06383,0.0,0.0
182,45.25,74.2919,80.2759,165.111,99.833,66.8237,0.00290632,0.0795766,20.9009,43.9205,3.06762,0.0,0.0
184,45.75,73.835,80.1472,162.629,99.815,67.2964,0.00290846,0.0791631,20.9021,43.9305,3.01238,0.0,0.0
186,46.25,74.3817,79.5747,163.998,99.8189,67.1775,0.00291079,0.0788282,20.9035,43.9305,3.02619,0.0,0.0
188,46.75,74.1335,79.6364,164.377,99.8012,66.9872,0.00291267,0.078325,20.9046,43.9004,3.04651,0.0,0.0
190,47.25,74.0972,79.3444,164.398,99.811,66.9932,0.00290296,0.0779175,20.9055,43.8904,3.04659,0.0,0.0
192,47.75,73.935,79.6261,166.755,99.8004,67.1894,0.00288498,0.0774653,20.9062,43.9104,3.02343,0.0,0.0
194,48.25,73.7443,79.5102,169.667,99.8075,67.3068,0.00284862,0.0769892,20.9068,43.9205,3.01062,0.0,0.0
196,48.75,73.9788,79.6047,167.661,99.7828,67.2697,0.00279955,0.0766037,20.9077,43.8704,3.01295,0.0,0.0
198,49.25,73.9188,79.0173,163.274,99.813,67.3336,0.00273143,0.0760307,20.9085,43.8604,3.00801,0.0,0.0
200,49.75,74.5401,78.9016,167.767,99.793,66.8758,0.00265073,0.0755665,20.9091,43.8604,3.05861,0.0,0.0
202,50.25,73.8602,79.2693,166.096,99.7741,67.0943,0.00258537,0.074959,20.9096,43.8804,3.03224,0.0,0.0
204,50.75,74.5849,78.7628,164.51,99.7674,66.9501,0.0024711,0.074467,20.91,43.8704,3.04817,0.0,0.0
206,51.25,73.357,78.8643,160.998,99.7832,67.7706,0.00237854,0.0740684,20.9103,43.8404,2.95629,0.0,0.0
208,51.75,74.0493,78.7718,167.432,99.7592,66.962,0.00230357,0.073731,20.9106,43.8404,3.04618,0.0,0.0
210,52.25,73.3767,78.958,164.26,99.7584,67.0036,0.00217788,0.0734578,20.9113,43.8604,3.04137,0.0,0.0
212,52.75,74.2398,77.8758,163.565,99.7545,67.723,0.00202412,0.0731132,20.9126,43.8404,2.95946,0.0,0.0
214,53.25,73.8675,78.524,167.971,99.738,67.399,0.00197738,0.073016,20.913,43.8504,2.99484,0.0,0.0
216,53.75,73.4624,78.5139,167.651,99.7517,66.7108,0.00189744,0.072705,20.9137,43.8504,3.07433,0.0,0.0
218,54.25,73.5999,78.6167,165.316,99.7431,67.833,0.00183269,0.072323,20.9142,43.8604,2.94618,0.0,0.0
220,54.75,73.6036,78.4503,166.038,99.7396,67.7052,0.00177774,0.0720135,20.9146,43.8704,2.96033,0.0,0.0
222,55.25,73.7132,77.8703,166.062,99.7431,66.6364,0.00173324,0.0714738,20.9149,43.8504,3.08218,0.0,0.0
224,55.75,73.5613,78.463,165.708,99.7439,66.953,0.00170593,0.0710366,20.9155,43.8504,3.04602,0.0,0.0
226,56.25,73.8151,78.2735,163.354,99.7368,67.1998,0.0016838,0.0706391,20.9161,43.8504,3.01737,0.0,0.0
228,56.75,73.6431,77.8536,166.865,99.7356,67.9177,0.00167639,0.0703172,20.9168,43.8404,2.93607,0.0,0.0
230,57.25,73.4824,78.232,163.882,99.7238,67.2711,0.00167985,0.0699727,20.9176,43.8504,3.00827,0.0,0.0
232,57.75,73.6132,77.7306,167.185,99.7132,67.3499,0.00170014,0.0696185,20.9185,43.8504,2.99851,0.0,0.0
234,58.25,73.5655,77.865,161.777,99.7191,67.6145,0.00171657,0.0692631,20.9195,43.8604,2.969,0.0,0.0
236,58.75,73.1242,77.8587,169.336,99.7223,66.574,0.00173185,0.0689137,20.9202,43.8704,3.08775,0.0,0.0
238,59.25,73.4363,77.7125,165.875,99.718,66.7078,0.001746,0.0686307,20.9208,43.8804,3.07208,0.0,0.0
240,59.75,72.9593,77.6071,159.879,99.7164,66.0523,0.00174958,0.0684014,20.9213,43.8304,3.14742,0.0,0.0
242,60.25,73.0501,78.0054,162.908,99.7113,67.0943,0.00174538,0.0682157,20.9217,43.8104,3.02742,0.0,0.0
244,60.75,73.1056,77.6388,163.03,99.7242,66.4551,0.00174197,0.0679787,20.9221,43.8104,3.10156,0.0,0.0
246,61.25,72.9146,77.7357,161.204,99.703,66.9798,0.00170926,0.0677867,20.9226,43.7703,3.03984,0.0,0.0
248,61.75,73.0579,77.9258,159.837,99.7121,66.1236,0.00168275,0.06754,20.9232,43.7703,3.13884,0.0,0.0
250,62.25,72.8741,77.6969,163.993,99.7121,67.2711,0.00163634,0.0672581,20.9237,43.7703,3.00736,0.0,0.0
252,62.75,72.5718,77.7671,166.714,99.7238,67.2964,0.00159875,0.066931,20.9241,43.8104,3.0054,0.0,0.0
254,63.25,73.2182,76.7356,164.135,99.685,66.7717,0.00155517,0.0665773,20.9244,43.8204,3.06223,0.0,0.0
256,63.75,73.056,77.2905,159.493,99.6991,67.2459,0.00150807,0.0662224,20.9247,43.8404,3.00924,0.0,0.0
258,64.25,73.0908,77.42,166.91,99.6857,66.8921,0.0014627,0.0658734,20.9249,43.8704,3.04852,0.0,0.0
260,64.75,73.0156,76.9112,168.071,99.6893,67.4347,0.00141947,0.0655908,20.9251,43.8404,2.98707,0.0,0.0
262,65.25,72.7413,77.2418,166.03,99.6881,66.9709,0.0013792,0.0652176,20.9252,43.8304,3.03971,0.0,0.0
264,65.75,72.717,77.3064,166.596,99.6975,67.2444,0.00134186,0.0649154,20.9258,43.8604,3.00929,0.0,0.0
266,66.25,72.9287,77.063,168.075,99.674,67.1403,0.00131031,0.064685,20.9262,43.8404,3.01932,0.0,0.0
268,66.75,73.0177,76.974,160.806,99.6728,67.2176,0.00128357,0.0644983,20.9266,43.8404,3.01043,0.0,0.0
270,67.25,72.9053,77.1063,165.001,99.6755,66.5205,0.00126191,0.0643775,20.9269,43.8104,3.09031,0.0,0.0
272,67.75,72.653,77.2471,165.186,99.6744,66.9739,0.00123978,0.064307,20.9271,43.8104,3.03832,0.0,0.0
274,68.25,72.8677,77.236,162.88,99.6685,66.5383,0.00121773,0.0642499,20.9273,43.8104,3.08772,0.0,0.0
276,68.75,72.8993,76.6885,165.796,99.6822,66.6245,0.00119987,0.0642036,20.9275,43.8003,3.07888,0.0,0.0
278,69.25,72.317,77.2929,165.015,99.6504,66.9144,0.00118415,0.0641661,20.9276,43.8003,3.04327,0.0,0.0
280,69.75,73.0239,77.4732,168.346,99.6665,66.794,0.00117536,0.0640348,20.9277,43.8003,3.05826,0.0,0.0
282,70.25,72.6048,76.9134,168.029,99.6386,66.3302,0.00117177,0.0639285,20.9278,43.7903,3.10937,0.0,0.0
284,70.75,72.9241,76.9414,163.183,99.6516,66.4863,0.00117738,0.0637558,20.9279,43.8204,3.0924,0.0,0.0
286,71.25,72.5288,76.9516,164.565,99.6339,67.2087,0.0011896,0.063616,20.9279,43.8404,3.00847,0.0,0.0
288,71.75,72.7513,76.8106,165.175,99.6382,66.9174,0.00120474,0.0633441,20.928,43.8204,3.04199,0.0,0.0
290,72.25,72.2025,77.3356,161.262,99.6343,67.0987,0.00122173,0.0630481,20.928,43.8104,3.02101,0.0,0.0
292,72.75,72.6657,76.5356,165.127,99.63,66.6335,0.0012368,0.0627401,20.928,43.8304,3.07385,0.0,0.0
294,73.25,72.6549,76.7101,168.497,99.6339,66.4165,0.00125019,0.0624906,20.9281,43.8304,3.09908,0.0,0.0
296,73.75,72.6192,76.6878,173.74,99.6084,66.6632,0.00126103,0.0622885,20.9283,43.8304,3.06879,0.0,0.0
298,74.25,72.3939,76.6484,161.981,99.6115,67.4005,0.00126982,0.0620642,20.9287,43.8704,2.98498,0.0,0.0
300,74.75,72.5849,77.0652,164.562,99.6056,66.8431,0.00128087,0.0618279,20.9291,43.8704,3.04798,0.0,0.0
302,75.25,72.387,76.6725,163.581,99.6198,66.6141,0.00129336,0.0616364,20.9297,43.8704,3.07528,0.0,0.0
304,75.75,72.6074,76.5264,168.027,99.6033,67.0675,0.0013002,0.0613662,20.9302,43.8404,3.02219,0.0,0.0
306,76.25,71.944,76.3999,166.824,99.597,67.0571,0.00130279,0.0611473,20.9307,43.8704,3.02289,0.0,0.0
308,76.75,72.5347,76.5235,164.879,99.5946,66.9932,0.00130488,0.0609268,20.931,43.8704,3.03,0.0,0.0
310,77.25,71.8239,76.3972,167.9,99.5942,67.1968,0.00128914,0.0607482,20.9318,43.8804,3.00677,0.0,0.0
312,77.75,72.0503,76.4272,171.698,99.593,66.9367,0.00126787,0.0606035,20.9323,43.8504,3.03632,0.0,0.0
314,78.25,72.1839,76.2377,163.237,99.5766,66.7122,0.00124297,0.0604863,20.9328,43.8504,3.06072,0.0,0.0
316,78.75,72.5445,76.5304,166.945,99.5777,67.3455,0.00121363,0.0603338,20.9332,43.8404,2.98862,0.0,0.0
318,79.25,72.1528,75.8539,159.64,99.5675,67.2087,0.00118161,0.0602103,20.9338,43.8404,3.00337,0.0,0.0
320,79.75,72.0701,76.49,164.39,99.5534,67.6413,0.00115567,0.0599662,20.9344,43.8804,2.95326,0.0,0.0
322,80.25,72.569,76.4778,168.525,99.5573,67.8449,0.00111351,0.0597686,20.9349,43.8304,2.9306,0.0,0.0
324,80.75,72.2889,76.1852,164.621,99.5546,67.564,0.00107936,0.0596009,20.9354,43.7903,2.96209,0.0,0.0
326,81.25,72.0699,76.5475,168.825,99.5656,67.2117,0.0010517,0.0594583,20.9357,43.7903,3.00288,0.0,0.0
328,81.75,71.7194,76.7212,166.406,99.5381,67.4317,0.00100692,0.0593428,20.936,43.7603,2.9758,0.0,0.0
330,82.25,72.0875,76.3489,167.321,99.5483,66.3763,0.000970642,0.0591772,20.9362,43.7803,3.09713,0.0,0.0
332,82.75,72.1142,76.0748,163.566,99.5377,67.2979,0.000928832,0.0590431,20.9364,43.8104,2.99095,0.0,0.0
334,83.25,71.7801,76.5788,166.588,99.5487,67.5625,0.000894965,0.0588626,20.9366,43.8404,2.96181,0.0,0.0
336,83.75,72.3199,76.3302,165.964,99.5192,66.4997,0.000861648,0.0587163,20.9367,43.8404,3.08071,0.0,0.0
338,84.25,71.9945,76.2695,163.233,99.5392,66.8118,0.000829365,0.058613,20.9368,43.8104,3.04646,0.0,0.0
340,84.75,72.2692,76.4041,167.749,99.5086,66.3035,0.000798247,0.058543,20.9369,43.8003,3.10247,0.0,0.0
342,85.25,71.9736,76.2219,165.825,99.518,67.1195,0.000773041,0.0585014,20.9369,43.8304,3.00972,0.0,0.0
344,85.75,71.899,76.032,168.656,99.5094,66.7747,0.00075001,0.0584813,20.937,43.8003,3.04842,0.0,0.0
346,86.25,71.5895,75.682,166.481,99.5184,66.3421,0.000729002,0.0584499,20.937,43.7903,3.09877,0.0,0.0
348,86.75,72.1723,76.226,162.908,99.4866,66.7509,0.0007146,0.0584108,20.9371,43.7903,3.04939,0.0,0.0
350,87.25,72.2811,75.4913,164.184,99.496,66.3897,0.000705287,0.0583792,20.9371,43.8204,3.09158,0.0,0.0
352,87.75,72.1987,75.8153,166.894,99.496,66.9129,0.000697744,0.0583104,20.9371,43.8204,3.03159,0.0,0.0
354,88.25,72.1262,76.0186,164.282,99.4878,66.5725,0.000700788,0.0582547,20.9371,43.8104,3.06993,0.0,0.0
356,88.75,72.2893,75.6403,165.632,99.4799,66.6127,0.000711492,0.058149,20.9371,43.8204,3.06472,0.0,0.0
358,89.25,72.079,75.7463,161.861,99.4697,67.3737,0.000722779,0.0580088,20.9372,43.7803,2.97713,0.0,0.0
360,89.75,71.511,76.1283,162.631,99.4536,66.5859,0.000734275,0.0578953,20.9372,43.7503,3.06577,0.0,0.0
362,90.25,71.952,75.8478,163.773,99.4489,67.008,0.000743587,0.0577171,20.9372,43.7503,3.01711,0.0,0.0
364,90.75,71.4636,76.2575,169.217,99.456,66.8683,0.000738705,0.0575727,20.9372,43.8104,3.03361,0.0,0.0
366,91.25,71.6614,75.5595,164.515,99.4567,66.8564,0.00073475,0.0573838,20.9372,43.8304,3.03503,0.0,0.0
368,91.75,71.9161,76.2003,165.256,99.4485,67.4822,0.000715399,0.0572309,20.9372,43.8304,2.9632,0.0,0.0
370,92.25,71.6322,75.9588,161.389,99.432,66.8549,0.000699725,0.0570351,20.9372,43.8304,3.03329,0.0,0.0
372,92.75,71.6937,76.0691,163.362,99.4332,65.8724,0.000668407,0.0568765,20.9374,43.8304,3.14652,0.0,0.0
374,93.25,71.8811,76.2306,163.738,99.4261,66.5383,0.00064304,0.0567624,20.9378,43.8304,3.06912,0.0,0.0
376,93.75,71.7105,76.1094,161.513,99.432,67.3797,0.000602638,0.05667,20.9382,43.8304,2.97355,0.0,0.0
378,94.25,71.9894,76.3518,165.955,99.4053,66.571,0.000569913,0.0566178,20.9384,43.8204,3.06376,0.0,0.0
380,94.75,71.6894,75.6765,165.187,99.4151,66.3927,0.000543405,0.056596,20.9386,43.8104,3.08502,0.0,0.0
382,95.25,72.1912,75.618,170.322,99.3876,66.3332,0.000513252,0.0565784,20.9388,43.8104,3.08975,0.0,0.0
384,95.75,71.6332,75.5048,162.264,99.4065,66.9174,0.000488828,0.0565353,20.939,43.8104,3.0242,0.0,0.0
386,96.25,71.9992,75.4207,168.26,99.4029,66.2708,0.000480208,0.0565004,20.9391,43.8304,3.09812,0.0,0.0
388,96.75,71.9596,75.7947,166.336,99.4069,66.2411,0.000473226,0.0564721,20.9392,43.8204,3.10185,0.0,0.0
390,97.25,71.4131,75.773,164.762,99.3601,66.2411,0.00046757,0.0564039,20.9392,43.8204,3.09826,0.0,0.0
392,97.75,71.4789,75.4799,163.832,99.3963,66.8401,0.000467951,0.0563077,20.9393,43.8804,3.03225,0.0,0.0
394,98.25,71.2485,75.6802,165.955,99.3805,66.8579,0.00046826,0.0562071,20.9394,43.8904,3.029,0.0,0.0
396,98.75,71.4348,75.4922,166.185,99.3884,66.5354,0.00046851,0.0561052,20.9394,43.8404,3.06656,0.0,0.0
398,99.25,71.4513,75.9046,164.416,99.3786,66.3169,0.000468713,0.0559772,20.9394,43.7703,3.09094,0.0,0.0
400,99.75,70.9347,76.0521,164.808,99.388,66.4729,0.00046953,0.0558327,20.9394,43.7503,3.0737,0.0,0.0
402,100.25,71.4421,75.4981,171.681,99.3754,66.3882,0.00047078,0.0557157,20.9395,43.7103,3.08248,0.0,0.0
404,100.75,71.3513,75.587,165.16,99.3825,66.2455,0.000471793,0.0555921,20.9395,43.7703,3.09947,0.0,0.0
406,101.25,70.906,75.4558,163.908,99.3668,66.3659,0.000488747,0.0554921,20.9395,43.7503,3.08438,0.0,0.0
408,101.75,71.1061,75.894,165.411,99.3692,66.6899,0.000502479,0.0553656,20.9395,43.7403,3.04735,0.0,0.0
410,102.25,71.4573,75.7905,160.917,99.3562,66.681,0.000524713,0.0552224,20.9395,43.7503,3.04737,0.0,0.0
412,102.75,70.8574,75.4846,167.442,99.3715,66.4506,0.000552721,0.0551063,20.94,43.7403,3.075,0.0,0.0
414,103.25,71.75,75.4137,168.361,99.3483,66.3897,0.000581292,0.0548974,20.9403,43.7303,3.08023,0.0,0.0
416,103.75,71.4069,75.2302,163.334,99.3641,66.464,0.000609731,0.0547282,20.9406,43.7403,3.07289,0.0,0.0
418,104.25,71.0494,75.5513,167.533,99.3562,66.0463,0.000632766,0.0545624,20.9409,43.7703,3.12045,0.0,0.0
420,104.75,71.2139,75.1668,164.64,99.3633,66.2856,0.000651424,0.054428,20.9411,43.7703,3.09336,0.0,0.0
422,105.25,71.3929,75.4477,166.997,99.3491,66.4878,0.000666538,0.054348,20.9412,43.7703,3.069,0.0,0.0
424,105.75,71.6363,75.1343,166.443,99.3503,66.9902,0.000667599,0.0542831,20.9414,43.7403,3.01157,0.0,0.0
426,106.25,71.3917,75.4004,166.588,99.3448,66.629,0.000660982,0.0541058,20.9415,43.7503,3.05246,0.0,0.0
428,106.75,70.8508,75.2098,168.174,99.3472,66.5874,0.000654253,0.054058,20.9416,43.7103,3.05741,0.0,0.0
430,107.25,71.0132,75.3997,162.722,99.3315,66.7643,0.000630002,0.0538393,20.9417,43.7303,3.03593,0.0,0.0
432,107.75,71.3733,76.0076,162.715,99.3444,65.7282,0.000608208,0.0537274,20.9417,43.7503,3.15644,0.0,0.0
434,108.25,71.0256,75.6004,163.12,99.3334,66.192,0.000598916,0.053642,20.9417,43.7703,3.10187,0.0,0.0
436,108.75,71.3567,75.7214,166.45,99.326,66.8237,0.000583028,0.0534958,20.9418,43.7603,3.02871,0.0,0.0
438,109.25,71.2055,75.4804,160.294,99.3417,66.3451,0.000551548,0.0533774,20.9418,43.7803,3.08485,0.0,0.0
440,109.75,71.232,75.594,160.242,99.3299,66.794,0.000523438,0.0533246,20.9418,43.7703,3.03241,0.0,0.0
442,110.25,70.9164,75.4962,161.152,99.3185,66.7078,0.000498318,0.0532818,20.9418,43.7403,3.04141,0.0,0.0
444,110.75,71.3897,75.1939,164.124,99.3338,66.0686,0.000477971,0.0532185,20.9418,43.7603,3.11615,0.0,0.0
446,111.25,71.147,76.0177,167.179,99.326,66.3763,0.000462731,0.0531671,20.9421,43.7403,3.08004,0.0,0.0
448,111.75,71.1143,75.6027,162.407,99.333,66.522,0.000450386,0.0530727,20.9425,43.7403,3.06384,0.0,0.0
450,112.25,71.3056,75.531,170.626,99.3271,66.8653,0.000446588,0.0529485,20.9428,43.7403,3.02404,0.0,0.0
452,112.75,71.0667,75.5138,162.633,99.3153,66.8445,0.000443512,0.052848,20.9431,43.7303,3.02551,0.0,0.0
454,113.25,71.5916,75.7968,164.201,99.3224,66.4848,0.000444743,0.0527665,20.9433,43.7703,3.06729,0.0,0.0
456,113.75,70.9017,75.3391,166.841,99.3138,65.8382,0.00044574,0.0527157,20.9435,43.7503,3.14131,0.0,0.0
458,114.25,71.5401,75.4225,162.992,99.3197,66.7881,0.000444066,0.0526881,20.9436,43.7503,3.03231,0.0,0.0
460,114.75,71.1745,75.4819,165.004,99.326,66.4744,0.00044271,0.0526657,20.9438,43.7003,3.06876,0.0,0.0
462,115.25,71.1847,75.7975,162.496,99.3102,66.8609,0.000441611,0.0526045,20.9439,43.6902,3.02325,0.0,0.0
464,115.75,71.3556,75.6283,165.268,99.3338,66.4655,0.000439481,0.052555,20.9439,43.7203,3.07039,0.0,0.0
466,116.25,71.667,75.1056,163.294,99.3271,66.4655,0.000437755,0.0524619,20.944,43.7403,3.06987,0.0,0.0
468,116.75,71.8371,75.5406,165.014,99.324,66.4997,0.00044008,0.052339,20.944,43.7403,3.0657,0.0,0.0
470,117.25,71.114,75.4245,168.326,99.3299,66.2292,0.000441963,0.0522394,20.9441,43.7203,3.09731,0.0,0.0
472,117.75,71.517,75.8337,168.494,99.3146,66.7137,0.000449691,0.0521587,20.9441,43.7103,3.04042,0.0,0.0
474,118.25,71.0926,75.4878,165.696,99.3181,67.0928,0.000455951,0.052079,20.9441,43.7203,2.9974,0.0,0.0
476,118.75,71.4391,75.6893,165.256,99.3055,66.3927,0.000469709,0.0520145,20.9442,43.7203,3.07659,0.0,0.0
478,119.25,71.4893,75.5526,165.641,99.3059,65.7267,0.000485604,0.0519622,20.9442,43.7103,3.15365,0.0,0.0
480,119.75,71.1169,75.4645,161.107,99.3087,66.6275,0.00048988,0.0518972,20.9442,43.7403,3.04985,0.0,0.0
482,120.25,71.3609,75.5416,166.737,99.3236,66.2856,0.000500914,0.0518241,20.9441,43.7503,3.09031,0.0,0.0
484,120.75,71.4992,75.2288,167.386,99.3024,65.7535,0.000509852,0.0517347,20.944,43.7303,3.15027,0.0,0.0
486,121.25,71.2576,75.4179,161.619,99.3208,66.6766,0.000509907,0.0516351,20.944,43.6802,3.04516,0.0,0.0
488,121.75,70.9926,75.3154,165.461,99.3059,66.6602,0.000503486,0.0515544,20.9439,43.6602,3.04589,0.0,0.0
490,122.25,71.3705,75.1659,167.439,99.3193,66.6186,0.000498284,0.0514317,20.9438,43.6902,3.05169,0.0,0.0
492,122.75,71.1507,75.8096,164.065,99.3028,66.0909,0.000465543,0.0513323,20.9438,43.7003,3.11119,0.0,0.0
494,123.25,71.4586,75.6598,159.049,99.313,66.5814,0.000410107,0.05116,20.9437,43.7203,3.05547,0.0,0.0
496,123.75,71.5065,75.7134,166.268,99.3091,66.6691,0.000384082,0.0510548,20.9439,43.7103,3.04511,0.0,0.0
498,124.25,71.1171,75.7108,160.732,99.3279,66.5101,0.000320607,0.0509265,20.9443,43.6802,3.06481,0.0,0.0
500,124.75,71.4613,75.1228,164.276,99.3008,66.8014,0.000273827,0.0508226,20.9446,43.6902,3.02932,0.0,0.0
502,125.25,71.5799,75.293,161.632,99.3134,66.4848,0.000223031,0.0507309,20.9449,43.7003,3.0666,0.0,0.0
504,125.75,71.351,75.188,164.711,99.3063,66.25,0.000179281,0.0506498,20.9451,43.6902,3.09309,0.0,0.0
506,126.25,71.455,75.4651,167.763,99.324,66.629,0.000141498,0.0505615,20.9453,43.7003,3.05086,0.0,0.0
508,126.75,71.343,75.3534,162.816,99.3208,66.8267,0.000112131,0.0504696,20.9454,43.7003,3.02798,0.0,0.0
510,127.25,70.9162,75.4616,163.908,99.3075,66.1712,8.83445e-05,0.05038,20.9455,43.7003,3.10228,0.0,0.0
512,127.75,70.9357,75.874,162.086,99.3189,65.9988,7.27902e-05,0.0502939,20.9456,43.7003,3.12309,0.0,0.0
514,128.25,71.1126,74.9057,166.334,99.302,66.6186,6.01911e-05,0.0502241,20.9456,43.6902,3.05036,0.0,0.0
516,128.75,71.0085,75.4232,164.296,99.302,66.7033,4.99859e-05,0.0501102,20.9457,43.7203,3.04065,0.0,0.0
518,129.25,71.3684,75.1163,161.288,99.2973,66.6751,6.15302e-05,0.050018,20.9458,43.6902,3.04352,0.0,0.0
520,129.75,71.0266,75.2173,162.474,99.3075,66.36,7.0881e-05,0.049898,20.9458,43.6802,3.08051,0.0,0.0
522,130.25,71.3112,75.7099,163.076,99.3138,66.4447,9.20807e-05,0.04976,20.9458,43.7003,3.07124,0.0,0.0
524,130.75,70.5731,75.9929,163.297,99.3016,66.5933,0.000109252,0.049603,20.9458,43.7003,3.05323,0.0,0.0
526,131.25,71.5635,75.7244,161.962,99.3036,66.2559,0.000136792,0.049435,20.9459,43.7303,3.0922,0.0,0.0
528,131.75,71.0673,75.6226,166.028,99.3091,66.739,0.000159099,0.0492763,20.9463,43.7503,3.0371,0.0,0.0
530,132.25,71.4351,75.6126,168.418,99.3275,67.2399,0.000184345,0.0491274,20.9467,43.7303,2.98138,0.0,0.0
532,132.75,70.7712,75.6493,168.563,99.3232,66.6171,0.000211252,0.0490068,20.947,43.7403,3.05216,0.0,0.0
534,133.25,71.181,75.4143,163.91,99.3079,66.0984,0.000238922,0.0489234,20.9473,43.7403,3.11072,0.0,0.0
536,133.75,71.6924,75.5506,161.965,99.322,66.5042,0.000266621,0.0488559,20.9474,43.7503,3.06504,0.0,0.0
538,134.25,71.2517,75.3973,163.824,99.3267,66.6691,0.000289057,0.0488012,20.9476,43.7403,3.04647,0.0,0.0
540,134.75,71.092,75.6132,161.751,99.3326,67.2028,0.00030723,0.0487569,20.9477,43.7403,2.986,0.0,0.0
542,135.25,70.9204,75.5624,161.316,99.3358,66.5606,0.00032195,0.0486833,20.9478,43.7303,3.05961,0.0,0.0
544,135.75,71.1794,75.4926,165.133,99.3216,66.849,0.000333873,0.0485897,20.9479,43.7403,3.02549,0.0,0.0
546,136.25,71.1018,75.5962,162.464,99.3087,67.1299,0.000326172,0.0485139,20.948,43.7403,2.99244,0.0,0.0
548,136.75,71.2691,75.2782,164.529,99.333,66.3867,0.000319934,0.0484238,20.9481,43.7103,3.07939,0.0,0.0
550,137.25,71.1218,75.3242,168.894,99.311,66.4551,0.000308684,0.0483508,20.9481,43.7003,3.06983,0.0,0.0
552,137.75,71.1772,75.2311,163.608,99.3346,66.9085,0.000299571,0.0482631,20.9481,43.7003,3.01969,0.0,0.0
554,138.25,70.6307,75.4219,164.156,99.3173,66.5502,0.000282275,0.048192,20.9482,43.7103,3.05938,0.0,0.0
556,138.75,70.6448,75.2224,167.049,99.3212,66.9932,0.000268266,0.0481201,20.9482,43.7203,3.00899,0.0,0.0
558,139.25,70.7252,75.4523,161.289,99.3083,67.1894,0.000251962,0.0480618,20.9482,43.7403,2.98565,0.0,0.0
560,139.75,70.924,75.2693,164.257,99.3165,66.7554,0.000238757,0.0480146,20.9482,43.7403,3.03581,0.0,0.0
562,140.25,70.9819,74.9772,164.365,99.2988,67.3841,0.000216911,0.0479764,20.9482,43.7303,2.96281,0.0,0.0
564,140.75,70.8066,75.7409,169.291,99.3036,66.2084,0.000199216,0.0479455,20.9483,43.7103,3.09768,0.0,0.0
566,141.25,71.1099,75.1448,163.083,99.304,66.6781,0.00016631,0.0479204,20.9483,43.6902,3.04369,0.0,0.0
568,141.75,71.1396,75.3033,166.402,99.3157,66.2856,0.000139656,0.0479001,20.9483,43.6802,3.0897,0.0,0.0
570,142.25,71.4484,75.2124,166.243,99.3055,67.1641,0.000118066,0.0478761,20.9483,43.6702,2.98831,0.0,0.0
571,142.5,71.2759,75.8971,165.121,99.3122,66.7301,0.000100579,0.0478499,20.9483,43.6702,3.03837,0.0,0.0