File: 01_Data/Feather_Pillow_Feathers/Cone/Feather_Pillow_Feathers_Cone_HF25Scan_230710_R2.csv
Names,Time,Stack TC,Smoke TC,Exh Press,Smoke Comp,Smoke Meas,CO Meter,CO2 Meter,O2 Meter,Sample Mass,Ext Coeff,Start Test,Flame Verif
Chan Gain,,500,500,1,1,1,1,1,1,1,1,1.0,1.0
Offset,,0,0,0.18266,0,0,0,0,0,0,0,0.0,0.0
Gain,,1,1,25.011,13.0208,54.2044,1,1,1,1.00092,0.871134,1.0,1.0
Units,sec,C,C,Pa,%,%,%,%,%,g,/m,,
Baseline,,40.6367,41.9149,182.836,99.2517,99.3091,0.000185634,0.0463922,20.9505,-446.097,-0.00432937,,
4,0.75,40.2013,40.4451,177.971,99.7168,99.8783,0.000289823,0.047719,20.95,50.2062,-0.0123637,0.0,0.0
8,1.75,40.1144,40.5532,177.803,99.7188,99.5689,0.000305189,0.0481077,20.9499,50.1562,0.011492,0.0,0.0
12,2.75,40.2709,41.034,183.194,99.7053,98.9238,0.00030869,0.0483651,20.9499,50.1762,0.0601291,0.0,0.0
16,3.75,40.1185,41.3308,186.804,99.6965,98.5516,0.000310453,0.0486118,20.9501,50.1662,0.088264,0.0,0.0
20,4.75,40.3611,41.217,183.606,99.6822,99.8634,0.00031884,0.0489578,20.9502,50.1462,-0.0138739,0.0,0.0
24,5.75,39.8101,41.6042,185.17,99.6917,98.6889,0.000339686,0.0494185,20.9501,50.1162,0.0772604,0.0,0.0
28,6.75,40.3024,41.51,181.336,99.6794,96.555,0.000359732,0.0499999,20.9494,50.0661,0.243358,0.0,0.0
32,7.75,40.5271,41.3539,183.567,99.6798,95.5989,0.000370638,0.0509263,20.9483,50.0261,0.319434,0.0,0.0
36,8.75,40.5343,41.6398,182.399,99.6544,96.378,0.000377794,0.0519534,20.9475,49.9961,0.25546,0.0,0.0
40,9.75,40.3531,41.6093,180.325,99.6679,94.8859,0.000373511,0.053024,20.9463,50.0261,0.375723,0.0,0.0
44,10.75,40.5688,41.7518,179.176,99.6723,94.0538,0.000361723,0.0539293,20.9453,49.956,0.443363,0.0,0.0
48,11.75,40.7673,42.0901,180.155,99.6472,94.9206,0.000360721,0.0544628,20.9442,49.916,0.37134,0.0,0.0
52,12.75,40.7216,42.224,182.841,99.6457,94.3715,0.000374216,0.0546653,20.9431,49.886,0.41556,0.0,0.0
56,13.75,40.4067,42.0723,179.366,99.6397,94.3715,0.000395365,0.0548241,20.9424,49.8559,0.415103,0.0,0.0
60,14.75,40.9253,42.0715,185.911,99.6488,94.9984,0.000444971,0.0550433,20.942,49.8359,0.365207,0.0,0.0
64,15.75,41.4763,42.8911,180.927,99.629,93.5758,0.000529861,0.0553377,20.9417,49.8259,0.47898,0.0,0.0
68,16.75,40.401,42.3282,185.845,99.623,93.465,0.00064543,0.0558236,20.9415,49.7959,0.487579,0.0,0.0
72,17.75,40.9139,42.4557,179.905,99.6206,93.6039,0.000798834,0.0565395,20.9405,49.7658,0.476044,0.0,0.0
76,18.75,40.8336,42.6233,180.094,99.617,93.3856,0.000983178,0.0576371,20.9391,49.7458,0.493616,0.0,0.0
80,19.75,40.9052,42.5625,180.191,99.596,95.3077,0.00116013,0.058908,20.9382,49.7158,0.336311,0.0,0.0
84,20.75,41.2024,42.6023,181.167,99.6051,94.2127,0.00134209,0.0599519,20.9376,49.6858,0.425321,0.0,0.0
88,21.75,41.2908,43.0221,180.392,99.5884,94.0224,0.0014792,0.060536,20.9365,49.6557,0.439485,0.0,0.0
92,22.75,41.0368,43.1242,182.995,99.59,93.2516,0.00159176,0.0607065,20.9353,49.6257,0.502515,0.0,0.0
96,23.75,41.2652,43.1273,180.8,99.5868,93.3971,0.00164981,0.060669,20.9342,49.5857,0.490352,0.0,0.0
100,24.75,41.642,42.8924,180.36,99.5745,94.3086,0.00165852,0.0606398,20.9335,49.5556,0.415195,0.0,0.0
104,25.75,41.1381,43.1555,177.943,99.5515,93.8438,0.00163575,0.0606718,20.9329,49.5356,0.451183,0.0,0.0
108,26.75,41.6418,43.1659,186.707,99.5658,91.7099,0.00159358,0.0606374,20.9326,49.5456,0.628047,0.0,0.0
112,27.75,41.5128,43.2864,183.572,99.5602,95.1406,0.00155605,0.0604323,20.9326,49.4455,0.346974,0.0,0.0
116,28.75,41.5765,43.4914,181.466,99.5674,95.0067,0.00152744,0.0601746,20.9332,49.3955,0.358292,0.0,0.0
120,29.75,41.7484,43.4943,182.457,99.5495,95.3259,0.00153679,0.0598081,20.9336,49.4055,0.331284,0.0,0.0
124,30.75,41.5392,43.3781,187.352,99.5527,95.0348,0.00157907,0.0592977,20.9338,49.3855,0.354903,0.0,0.0
128,31.75,41.6228,44.0633,179.421,99.5491,92.6809,0.00164165,0.058738,20.934,49.3855,0.546284,0.0,0.0
132,32.75,41.4996,43.5938,182.775,99.5574,94.5137,0.00171699,0.0581971,20.9354,49.3455,0.397281,0.0,0.0
136,33.75,41.5894,43.527,178.928,99.5447,93.9364,0.00179531,0.0577805,20.9366,49.3555,0.443125,0.0,0.0
140,34.75,41.553,43.901,185.002,99.5276,95.5856,0.00189485,0.0576103,20.9374,49.3354,0.308816,0.0,0.0
144,35.75,41.2199,43.9194,184.029,99.5272,95.2713,0.00199064,0.0576648,20.938,49.3455,0.333953,0.0,0.0
148,36.75,41.7156,43.7245,184.115,99.5253,95.0828,0.00208196,0.0577526,20.9383,49.3154,0.348941,0.0,0.0
152,37.75,41.8168,43.8362,180.586,99.5125,95.8288,0.00214572,0.0577994,20.9386,49.2954,0.288241,0.0,0.0
156,38.75,41.7299,43.4697,185.437,99.5042,94.6775,0.00217684,0.0578814,20.9387,49.2754,0.379964,0.0,0.0
160,39.75,41.7753,44.0317,178.365,99.5078,94.0423,0.00218902,0.0579468,20.9388,49.2854,0.431681,0.0,0.0
164,40.75,42.0388,44.0228,181.155,99.5086,95.7014,0.00220809,0.0579376,20.9389,49.2454,0.2981,0.0,0.0
168,41.75,41.6061,44.1423,179.599,99.4887,96.2059,0.00226038,0.0579111,20.9389,49.2754,0.256395,0.0,0.0
172,42.75,42.1811,43.9067,181.567,99.4919,95.3507,0.0023172,0.0579087,20.9389,49.2153,0.324872,0.0,0.0
176,43.75,42.0168,43.7092,180.491,99.4891,96.0008,0.00235886,0.057994,20.939,49.2454,0.272735,0.0,0.0
180,44.75,41.917,43.7691,178.657,99.4843,94.0869,0.00232129,0.0580375,20.939,49.2253,0.426251,0.0,0.0
184,45.75,42.0784,43.7023,183.132,99.4712,95.9479,0.00220864,0.0580256,20.9399,49.1953,0.275576,0.0,0.0
188,46.75,41.742,43.5578,181.74,99.4656,96.4094,0.00207222,0.0579137,20.9404,49.1653,0.23848,0.0,0.0
192,47.75,42.1763,43.6406,178.261,99.4684,95.8189,0.00192659,0.057594,20.9413,49.1553,0.285645,0.0,0.0
196,48.75,42.1999,43.661,187.222,99.468,95.3656,0.00178814,0.0571168,20.9422,49.1253,0.321847,0.0,0.0
200,49.75,41.9485,43.7246,182.661,99.4533,96.3168,0.0016973,0.0565272,20.9428,49.0952,0.24488,0.0,0.0
204,50.75,42.0047,44.0723,182.428,99.4688,95.8189,0.00163591,0.0557056,20.9432,49.0952,0.285676,0.0,0.0
208,51.75,42.2947,43.7649,180.704,99.4871,95.4599,0.00158627,0.0548518,20.9436,49.1052,0.315761,0.0,0.0
212,52.75,41.8112,44.3925,180.697,99.5225,95.364,0.00153352,0.0540112,20.9445,49.0952,0.326161,0.0,0.0
216,53.75,42.1269,44.0881,182.148,99.5455,96.8974,0.00146037,0.053355,20.9459,49.0952,0.206033,0.0,0.0
220,54.75,42.1368,44.0919,182.282,99.5614,97.6434,0.00138036,0.0527403,20.9466,49.0752,0.148644,0.0,0.0
224,55.75,42.5783,43.2291,179.043,99.5956,96.4028,0.00125948,0.052255,20.947,49.0652,0.248982,0.0,0.0
228,56.75,42.292,44.0402,182.734,99.6182,96.5318,0.00114983,0.0519146,20.9473,49.0552,0.240498,0.0,0.0
232,57.75,42.0519,44.5052,183.178,99.6429,95.8586,0.00105313,0.0517118,20.9474,49.0552,0.29587,0.0,0.0
236,58.75,42.3899,43.9815,178.202,99.683,98.4391,0.00099418,0.0515842,20.9475,49.0552,0.0959557,0.0,0.0
240,59.75,42.187,44.2771,181.684,99.7136,97.6104,0.000987018,0.0516233,20.9476,49.0452,0.162906,0.0,0.0
244,60.75,42.18,43.9101,183.592,99.7204,96.5153,0.00102736,0.0517682,20.9476,49.0452,0.249638,0.0,0.0
248,61.75,42.2649,44.1954,180.182,99.7661,97.4499,0.00108047,0.0519707,20.9477,49.0252,0.179496,0.0,0.0
252,62.75,42.5822,44.0794,181.331,99.7823,97.9313,0.00111538,0.0522033,20.9477,49.0051,0.143091,0.0,0.0
256,63.75,42.6441,44.3433,178.54,99.7827,98.4441,0.00111768,0.0523744,20.9477,48.9951,0.103212,0.0,0.0
260,64.75,42.2731,44.2993,188.157,99.7982,98.2092,0.00109488,0.0523331,20.9477,49.0051,0.122654,0.0,0.0
264,65.75,42.6896,44.3886,183.116,99.8308,96.8412,0.0010497,0.0522855,20.9474,48.9851,0.23234,0.0,0.0
268,66.75,42.4957,44.2603,179.83,99.8308,98.0983,0.0010009,0.0522693,20.947,48.9751,0.133776,0.0,0.0
272,67.75,42.5138,44.6838,180.54,99.8503,97.6749,0.000955208,0.0522641,20.9468,48.9851,0.168325,0.0,0.0
276,68.75,42.0581,44.4537,185.086,99.8706,97.971,0.000906956,0.0524426,20.9468,48.9851,0.146746,0.0,0.0
280,69.75,42.2933,44.0916,181.116,99.888,98.3432,0.000853824,0.0524983,20.9468,48.9551,0.119109,0.0,0.0
284,70.75,42.5816,44.5618,178.004,99.9035,97.086,0.000809395,0.052375,20.9469,48.9851,0.218611,0.0,0.0
288,71.75,42.4097,44.5314,182.742,99.9254,97.2315,0.000762258,0.0521407,20.9469,48.9751,0.208833,0.0,0.0
292,72.75,42.3094,44.5268,178.338,99.9413,97.6699,0.000708855,0.0517218,20.9469,48.9651,0.175674,0.0,0.0
296,73.75,42.8042,43.9866,184.034,99.9488,97.1621,0.000653596,0.0512621,20.9469,48.9551,0.216088,0.0,0.0
300,74.75,42.6265,44.2314,182.1,99.9663,96.995,0.000620908,0.05085,20.9469,48.9451,0.230575,0.0,0.0
304,75.75,42.5266,44.5038,182.309,99.9623,97.617,0.000611531,0.0504215,20.9473,48.9351,0.181427,0.0,0.0
308,76.75,42.6759,44.4448,181.14,99.981,98.5202,0.000632475,0.0500381,20.9477,48.875,0.112477,0.0,0.0
312,77.75,42.2989,44.1337,184.394,99.9953,96.8197,0.000659706,0.0497447,20.9479,48.845,0.246618,0.0,0.0
316,78.75,42.3801,43.9489,176.88,99.9989,97.4615,0.000690974,0.0494812,20.9481,48.865,0.196403,0.0,0.0
320,79.75,42.7407,44.1785,184.082,100.016,98.1198,0.000707212,0.0492996,20.9482,48.905,0.146263,0.0,0.0
324,80.75,42.3355,44.4815,178.005,100.035,97.5822,0.000722233,0.0490498,20.9483,48.905,0.189734,0.0,0.0
328,81.75,42.5763,44.4197,179.334,100.047,97.6037,0.000726772,0.0487702,20.9483,48.885,0.188961,0.0,0.0
332,82.75,42.6493,44.1874,180.18,100.053,98.9618,0.000730804,0.048628,20.9483,48.875,0.0837612,0.0,0.0
336,83.75,42.5576,44.4846,176.985,100.072,99.0859,0.000759077,0.0484446,20.9484,48.875,0.0756749,0.0,0.0
340,84.75,42.4903,44.5146,181.683,100.078,98.9205,0.000796754,0.0482853,20.9484,48.865,0.0889286,0.0,0.0
344,85.75,42.7316,44.3607,178.479,100.077,97.2051,0.000884478,0.0481845,20.9485,48.845,0.222482,0.0,0.0
348,86.75,42.4462,44.627,183.344,100.088,97.6616,0.000966816,0.0481301,20.9487,48.7949,0.187495,0.0,0.0
352,87.75,42.2802,44.4461,179.326,100.099,98.0206,0.000996055,0.0480513,20.9489,48.815,0.160339,0.0,0.0
356,88.75,43.1646,44.6231,178.915,100.11,97.5045,0.000981526,0.047995,20.949,48.7949,0.201499,0.0,0.0
360,89.75,42.7426,44.7438,191.67,100.109,98.2009,0.000935575,0.0480316,20.9491,48.815,0.147084,0.0,0.0
364,90.75,42.6271,44.5388,183.765,100.122,98.5301,0.000883273,0.0481854,20.9492,48.7549,0.122482,0.0,0.0
368,91.75,42.7826,44.515,179.124,100.119,98.1099,0.000802892,0.048272,20.949,48.7949,0.154864,0.0,0.0
372,92.75,42.487,44.7923,180.607,100.137,97.349,0.000709435,0.0482742,20.9488,48.7749,0.215788,0.0,0.0
376,93.75,42.6644,44.3863,183.967,100.153,96.5699,0.000636004,0.0482264,20.9492,48.7349,0.278404,0.0,0.0
380,94.75,42.7546,44.5583,181.483,100.171,98.5086,0.000621526,0.0481828,20.9494,48.7549,0.12791,0.0,0.0
384,95.75,42.6545,44.5738,180.082,100.159,96.636,0.00066166,0.0481525,20.9496,48.7549,0.273625,0.0,0.0
388,96.75,42.7076,44.7756,180.613,100.178,97.5607,0.000706575,0.0481326,20.9495,48.7749,0.202277,0.0,0.0
392,97.75,42.4195,44.4349,179.107,100.184,98.2803,0.000748807,0.0480992,20.9493,48.7649,0.146638,0.0,0.0
396,98.75,42.9053,44.6845,179.287,100.193,97.2514,0.000745025,0.0480287,20.9492,48.7749,0.227697,0.0,0.0
400,99.75,43.0626,44.6063,181.635,100.187,98.0421,0.000702079,0.0480294,20.9487,48.7649,0.165363,0.0,0.0
404,100.75,42.8728,44.9922,179.457,100.187,97.9462,0.0006402,0.0480662,20.948,48.7649,0.172845,0.0,0.0
408,101.75,42.4806,44.7297,177.508,100.197,97.9495,0.000577142,0.048102,20.9476,48.7149,0.173345,0.0,0.0
412,102.75,42.9619,44.8291,180.56,100.203,98.2671,0.000542507,0.0481541,20.9473,48.6748,0.149092,0.0,0.0
416,103.75,43.0203,44.6566,180.59,100.2,98.9188,0.000562272,0.0482191,20.9471,48.7349,0.0983652,0.0,0.0
420,104.75,43.1432,44.3376,182.308,100.211,99.8286,0.000625649,0.0482801,20.947,48.7549,0.0291908,0.0,0.0
424,105.75,42.8754,44.7534,179.082,100.215,98.9767,0.000695099,0.0482682,20.9469,48.7149,0.0950147,0.0,0.0
428,106.75,42.7712,44.5628,181.429,100.219,97.8122,0.000751014,0.0482369,20.9477,48.6949,0.18573,0.0,0.0
432,107.75,42.841,44.9785,178.874,100.231,98.6376,0.000771008,0.0481644,20.9485,48.7049,0.122453,0.0,0.0
436,108.75,42.823,44.786,179.469,100.243,98.3878,0.000762589,0.0480964,20.949,48.7349,0.142767,0.0,0.0
440,109.75,43.1337,45.2997,182.764,100.252,99.9179,0.000731549,0.0480893,20.9493,48.7249,0.0255374,0.0,0.0
444,110.75,42.7327,44.6125,182.263,100.257,97.8651,0.000688159,0.0480968,20.9495,48.7049,0.184504,0.0,0.0
448,111.75,43.0563,45.0114,180.858,100.264,97.9164,0.000657039,0.0480164,20.9497,48.6648,0.181046,0.0,0.0
452,112.75,42.9662,45.0429,183.69,100.26,99.1603,0.000646428,0.04789,20.9498,48.6548,0.0842748,0.0,0.0
456,113.75,42.8445,44.8728,176.767,100.261,99.3489,0.000641849,0.0478071,20.9498,48.6548,0.0698171,0.0,0.0
460,114.75,42.7907,44.7842,180.22,100.269,98.9684,0.000634923,0.0476914,20.9503,48.6548,0.0997734,0.0,0.0
464,115.75,42.7607,44.6373,180.246,100.265,98.5466,0.000620816,0.0476276,20.951,48.6248,0.132109,0.0,0.0
468,116.75,43.0989,44.896,184.237,100.261,98.7782,0.000607103,0.0476083,20.9514,48.5948,0.113839,0.0,0.0
472,117.75,43.1295,44.9357,180.617,100.273,98.5251,0.000615489,0.047594,20.9514,48.6748,0.134382,0.0,0.0
476,118.75,42.6058,44.674,181.707,100.285,98.1926,0.000653707,0.0475586,20.9514,48.6648,0.161153,0.0,0.0
480,119.75,42.9269,44.7061,175.874,100.284,98.6591,0.000695837,0.0476133,20.9514,48.6548,0.124815,0.0,0.0
484,120.75,42.6284,44.563,183.009,100.279,99.7046,0.000720417,0.0476082,20.9508,48.6748,0.0439339,0.0,0.0
488,121.75,42.9569,44.6935,183.898,100.279,99.2712,0.00069976,0.0474713,20.9506,48.6748,0.0771927,0.0,0.0
492,122.75,43.0034,44.8386,179.627,100.26,98.4275,0.000643171,0.0473485,20.9505,48.6648,0.140987,0.0,0.0
496,123.75,43.3135,44.9889,183.012,100.273,99.7806,0.000547662,0.0472822,20.95,48.6648,0.0376202,0.0,0.0
500,124.75,42.511,44.5308,180.343,100.302,99.1339,0.000462686,0.0472503,20.9497,48.6648,0.089494,0.0,0.0
504,125.75,42.9692,44.3778,180.385,100.274,98.7005,0.000391337,0.0472553,20.9495,48.6448,0.120886,0.0,0.0
508,126.75,43.0197,44.7608,178.757,100.276,98.669,0.000349794,0.0472586,20.9493,48.6448,0.12344,0.0,0.0
512,127.75,42.8252,44.5377,186.513,100.257,99.7542,0.000334408,0.0472089,20.9492,48.6148,0.038436,0.0,0.0
516,128.75,42.8881,44.9012,184.215,100.273,99.559,0.000342346,0.0471763,20.9498,48.5747,0.0546148,0.0,0.0
520,129.75,42.9403,44.8774,179.073,100.263,98.7501,0.000376736,0.0471345,20.9504,48.6148,0.116196,0.0,0.0
524,130.75,43.099,44.6153,179.709,100.286,99.6119,0.000420004,0.0471302,20.9507,48.6148,0.0515517,0.0,0.0
528,131.75,42.6471,44.8504,179.897,100.26,99.0793,0.000483803,0.0471649,20.951,48.6148,0.0904933,0.0,0.0
532,132.75,43.2351,44.2516,182.568,100.273,100.045,0.000545814,0.0471563,20.9511,48.5948,0.0173783,0.0,0.0
536,133.75,42.953,44.7352,178.93,100.266,98.9354,0.000582273,0.0470729,20.9512,48.5848,0.102086,0.0,0.0
540,134.75,42.7939,44.8845,180.332,100.268,99.4498,0.00057732,0.046969,20.9513,48.5747,0.0626051,0.0,0.0
544,135.75,42.7437,44.8086,180.319,100.249,99.1438,0.000551607,0.0469035,20.9513,48.5948,0.0847324,0.0,0.0
548,136.75,43.2724,44.6716,183.691,100.258,98.8576,0.000524811,0.0468722,20.9514,48.5848,0.107457,0.0,0.0
552,137.75,42.8479,45.025,185.128,100.231,100.679,0.00049919,0.046823,20.9517,48.5547,-0.0341014,0.0,0.0
556,138.75,43.3543,44.5211,178.607,100.231,98.6492,0.000469995,0.0467675,20.9526,48.5547,0.121526,0.0,0.0
560,139.75,43.1757,44.9196,181.079,100.221,99.4101,0.000424516,0.0467235,20.9531,48.5747,0.0621126,0.0,0.0
564,140.75,42.9876,44.8199,178.618,100.23,99.4597,0.000369901,0.0467065,20.9527,48.5747,0.0589341,0.0,0.0
568,141.75,42.9517,44.6155,183.96,100.213,99.6946,0.000296039,0.0467764,20.9524,48.5547,0.0396667,0.0,0.0
572,142.75,42.9025,44.7759,179.533,100.215,98.9321,0.000215079,0.0468406,20.9523,48.5447,0.0984633,0.0,0.0
576,143.75,43.1043,45.199,181.943,100.215,99.4515,0.000175589,0.0469347,20.9522,48.5547,0.0584189,0.0,0.0
580,144.75,43.001,44.5995,179.587,100.202,99.9494,0.00014945,0.0469964,20.9521,48.5747,0.0192567,0.0,0.0
584,145.75,43.1526,45.0605,182.027,100.202,98.9502,0.000183751,0.0470573,20.952,48.5747,0.0960285,0.0,0.0
588,146.75,42.9554,44.7436,178.405,100.205,100.745,0.000295453,0.0470768,20.952,48.5848,-0.0410922,0.0,0.0
592,147.75,43.2493,44.53,185.145,100.221,99.4167,0.000418751,0.0471156,20.952,48.5647,0.0615434,0.0,0.0
596,148.75,43.5632,44.7328,177.586,100.213,99.6218,0.000565247,0.047102,20.952,48.5848,0.045247,0.0,0.0
600,149.75,43.0446,44.9375,181.413,100.222,99.023,0.000686611,0.0470825,20.9522,48.5247,0.0919551,0.0,0.0
604,150.75,43.2985,44.6613,178.245,100.21,98.9866,0.000769431,0.0470555,20.9524,48.5147,0.0938549,0.0,0.0
608,151.75,43.2144,44.682,178.686,100.229,99.2265,0.000806034,0.0470336,20.953,48.5247,0.0768149,0.0,0.0
612,152.75,43.2913,44.9364,185.745,100.217,99.1686,0.000802231,0.0470226,20.9537,48.5047,0.0803961,0.0,0.0
616,153.75,42.9845,44.9063,180.053,100.216,98.7898,0.000774043,0.0469711,20.9542,48.4747,0.109521,0.0,0.0
620,154.75,43.5879,45.134,183.345,100.212,99.2414,0.000736816,0.0469188,20.9545,48.4747,0.074366,0.0,0.0
624,155.75,42.7133,44.9939,179.695,100.215,99.7658,0.000726564,0.046877,20.9541,48.4646,0.0343073,0.0,0.0
628,156.75,43.0157,44.9071,180.82,100.202,100.3,0.000755555,0.0468312,20.9537,48.4947,-0.00744738,0.0,0.0
632,157.75,43.2945,44.7651,175.973,100.208,100.525,0.000789048,0.046853,20.9534,48.5047,-0.0241434,0.0,0.0
636,158.75,42.661,44.9811,180.981,100.205,99.9345,0.000825386,0.046806,20.9532,48.4947,0.0206377,0.0,0.0
640,159.75,42.8253,44.9312,186.591,100.188,99.4068,0.000849227,0.0467587,20.953,48.4747,0.059791,0.0,0.0
644,160.75,43.1252,45.1743,179.804,100.208,100.242,0.00085368,0.0466758,20.9527,48.4546,-0.00258113,0.0,0.0
648,161.75,43.367,44.8451,180.809,100.194,100.776,0.000840343,0.0466418,20.952,48.5047,-0.0442937,0.0,0.0
652,162.75,43.3545,44.9237,178.769,100.189,99.2,0.000805544,0.0466046,20.9515,48.4646,0.075793,0.0,0.0
656,163.75,43.3736,45.0733,183.312,100.185,99.3423,0.000736284,0.046543,20.9511,48.4847,0.0645392,0.0,0.0
660,164.75,42.9976,45.0849,180.675,100.183,99.5821,0.000695928,0.0465014,20.951,48.4947,0.0459905,0.0,0.0
664,165.75,43.0386,45.1212,178.521,100.175,98.9387,0.000629389,0.0464928,20.9508,48.4947,0.094922,0.0,0.0
668,166.75,43.0327,44.6736,182.016,100.169,99.1736,0.000578653,0.0465791,20.9508,48.5047,0.0763468,0.0,0.0
672,167.75,42.8309,44.3567,176.896,100.165,99.8485,0.000527536,0.0467027,20.9507,48.4847,0.0241863,0.0,0.0
676,168.75,43.1235,44.6641,180.753,100.166,100.168,0.000464916,0.0468206,20.9507,48.5047,-0.000117057,0.0,0.0
680,169.75,43.1237,44.7706,184.275,100.171,98.6723,0.000390132,0.0469215,20.9506,48.4847,0.115216,0.0,0.0
684,170.75,43.0813,44.9605,179.074,100.136,99.8038,0.00032678,0.0470396,20.9503,48.4646,0.0253922,0.0,0.0
688,171.75,43.6024,44.5032,183.236,100.14,98.9982,0.000277263,0.0471171,20.9501,48.4446,0.0875959,0.0,0.0
692,172.75,43.2776,44.2425,181.693,100.134,99.3588,0.000264959,0.0471679,20.95,48.4446,0.0593861,0.0,0.0
696,173.75,43.1652,44.9274,183.372,100.137,100.35,0.000272589,0.0472088,20.9499,48.4246,-0.0161991,0.0,0.0
700,174.75,43.2459,44.4113,178.663,100.113,99.253,0.000277596,0.0471824,20.9498,48.4346,0.0658949,0.0,0.0
704,175.75,43.3321,44.8209,182.097,100.105,100.328,0.00027415,0.0471357,20.9498,48.4546,-0.0170176,0.0,0.0
708,176.75,43.1392,44.9212,181.382,100.09,99.0197,0.000274132,0.0471426,20.9498,48.4646,0.0821149,0.0,0.0
712,177.75,43.2808,44.8986,178.267,100.087,99.0065,0.000271878,0.0471286,20.9498,48.4546,0.0829539,0.0,0.0
716,178.75,43.1061,44.8987,180.172,100.064,99.3473,0.000265441,0.0470458,20.9497,48.4747,0.0549078,0.0,0.0
720,179.75,42.9624,44.6429,181.953,100.059,101.015,0.000257203,0.0469915,20.9497,48.4346,-0.0726755,0.0,0.0
724,180.75,43.1702,44.4466,181.703,100.032,101.253,0.000253037,0.0470077,20.9497,48.4246,-0.0927077,0.0,0.0
728,181.75,42.9118,44.9734,182.073,100.029,99.1636,0.00025196,0.0469775,20.9497,48.4146,0.0664034,0.0,0.0
732,182.75,42.8418,45.0433,178.853,100.003,99.2397,0.000252843,0.0469693,20.9497,48.4346,0.0585382,0.0,0.0
736,183.75,43.4132,44.6392,181.839,99.9826,98.2919,0.000271102,0.0470266,20.95,48.4146,0.130326,0.0,0.0
740,184.75,43.3875,44.782,179.67,99.9743,99.4961,0.000294912,0.0470826,20.95,48.4346,0.0366348,0.0,0.0
744,185.75,43.1164,44.8574,177.525,99.9492,99.0743,0.000319877,0.0471972,20.9496,48.4246,0.0671863,0.0,0.0
748,186.75,43.1421,45.1077,177.824,99.9258,98.6723,0.000341042,0.0473132,20.9496,48.4146,0.0964603,0.0,0.0
752,187.75,42.5865,44.6366,180.541,99.9278,98.8361,0.000350204,0.0473186,20.9502,48.4346,0.0839405,0.0,0.0
756,188.75,42.8738,44.5028,183.422,99.8992,99.5888,0.000354442,0.0473001,20.9506,48.4346,0.0237804,0.0,0.0
760,189.75,43.0865,44.7228,185.634,99.8543,99.6764,0.00037187,0.047288,20.9508,48.4146,0.013621,0.0,0.0
764,190.75,42.8771,44.4818,179.913,99.8292,100.049,0.000406764,0.0472596,20.951,48.4146,-0.0167752,0.0,0.0
768,191.75,43.4551,44.8768,177.226,99.8237,98.6773,0.000459922,0.0472212,20.9511,48.4046,0.0882622,0.0,0.0
772,192.75,43.139,44.2195,178.635,99.8026,100.207,0.000505423,0.0471542,20.9511,48.3846,-0.0309325,0.0,0.0
776,193.75,43.4953,44.4797,185.464,99.7792,99.6516,0.000515119,0.0470366,20.9512,48.3846,0.00977361,0.0,0.0
780,194.75,43.2058,44.7114,182.881,99.7601,99.4862,0.000478132,0.0468817,20.9512,48.3746,0.0210084,0.0,0.0
784,195.75,42.7992,44.2658,182.299,99.7478,99.1124,0.000413808,0.0467282,20.9512,48.3846,0.048834,0.0,0.0
788,196.75,43.2648,44.544,181.146,99.7275,99.6797,0.000335242,0.0466016,20.9512,48.3545,0.00366111,0.0,0.0
792,197.75,43.0803,44.1016,181.532,99.7243,99.1901,0.000246062,0.0465185,20.9512,48.3645,0.0410468,0.0,0.0
796,198.75,43.2921,44.705,183.018,99.7347,99.1686,0.000143252,0.0464536,20.9513,48.3345,0.0434946,0.0,0.0
800,199.75,43.0472,44.4846,181.791,99.7378,100.012,8.83536e-05,0.0464282,20.9513,48.4246,-0.0209946,0.0,0.0
804,200.75,42.9223,44.826,180.34,99.7605,99.7294,5.04974e-05,0.0464334,20.9513,48.4146,0.00238447,0.0,0.0
808,201.75,42.9594,44.2982,177.803,99.7422,99.9692,3.99597e-05,0.0464887,20.9513,48.4046,-0.0173727,0.0,0.0
812,202.75,42.9335,44.6778,177.528,99.7541,99.1024,3.08051e-05,0.0466054,20.9513,48.3946,0.0500866,0.0,0.0
816,203.75,43.224,44.4532,184.93,99.7402,100.57,1.80784e-05,0.0467428,20.9513,48.3746,-0.0632862,0.0,0.0
820,204.75,43.0667,44.8624,178.562,99.7442,98.9072,1.64488e-05,0.0468446,20.9513,48.3846,0.0643911,0.0,0.0
824,205.75,43.1045,44.4887,175.621,99.7514,99.7591,2.64578e-05,0.0469931,20.9513,48.3645,-0.000597145,0.0,0.0
828,206.75,43.1078,44.7015,182.417,99.7625,100.164,6.00443e-05,0.0471985,20.9515,48.3846,-0.0307258,0.0,0.0
832,207.75,43.3079,44.8392,189.103,99.7831,99.822,0.000102257,0.0474316,20.9516,48.3746,-0.00297571,0.0,0.0
836,208.75,43.0888,45.0394,176.914,99.7589,100.722,0.000135011,0.0476938,20.9509,48.3545,-0.0734108,0.0,0.0
840,209.75,43.4286,44.9475,179.419,99.7525,98.9602,0.000146959,0.0479928,20.9505,48.3545,0.0609415,0.0,0.0
844,210.75,43.2296,44.9006,180.925,99.7613,99.334,0.000139105,0.0482224,20.9502,48.3645,0.0327981,0.0,0.0
848,211.75,43.4484,44.6242,182.88,99.7565,99.6797,0.000127189,0.0483625,20.9502,48.4046,0.00588332,0.0,0.0
852,212.75,43.3337,44.6736,179.73,99.7438,99.4118,0.000116112,0.0483247,20.9503,48.4146,0.0254802,0.0,0.0
856,213.75,43.0307,44.8416,180.17,99.739,99.5458,0.000103503,0.0482568,20.9503,48.3946,0.014823,0.0,0.0
860,214.75,43.1491,44.919,183.204,99.7653,100.313,0.000105499,0.0481775,20.9504,48.4046,-0.0418624,0.0,0.0
864,215.75,43.0582,45.0892,181.4,99.7502,99.7889,0.000118825,0.0481459,20.9504,48.4046,-0.00296842,0.0,0.0
868,216.75,42.9924,44.6061,177.708,99.776,99.6185,0.000120905,0.0480897,20.9506,48.4046,0.0120677,0.0,0.0
872,217.75,43.0709,44.7087,182.279,99.7569,98.9982,0.000107818,0.04799,20.9514,48.3746,0.0583393,0.0,0.0
876,218.75,43.113,44.6718,183.997,99.7438,100.636,0.000100382,0.0479042,20.9519,48.3846,-0.0680382,0.0,0.0
880,219.75,43.0048,44.8675,178.879,99.7573,101.202,0.000127989,0.0478137,20.9522,48.4046,-0.109841,0.0,0.0
884,220.75,43.2418,44.4406,183.301,99.7621,100.444,0.000182685,0.0477228,20.9524,48.3445,-0.0520541,0.0,0.0
888,221.75,43.5748,44.9812,180.44,99.7521,100.379,0.000272476,0.0475828,20.9525,48.3645,-0.0479055,0.0,0.0
892,222.75,43.5918,44.9436,181.571,99.7633,100.113,0.000345544,0.0473438,20.9525,48.3645,-0.0267519,0.0,0.0
896,223.75,43.2863,45.1469,183.195,99.7541,101.59,0.000393753,0.0470314,20.9523,48.3545,-0.13938,0.0,0.0
900,224.75,42.4927,45.0956,185.085,99.7525,100.901,0.00041232,0.0468265,20.9522,48.3545,-0.08744,0.0,0.0
904,225.75,43.2373,44.9143,178.031,99.7498,100.277,0.000412085,0.0466511,20.9521,48.3345,-0.0402766,0.0,0.0
908,226.75,43.1449,44.9603,182.38,99.7625,100.064,0.000400535,0.0464677,20.952,48.3245,-0.0230236,0.0,0.0
912,227.75,43.2246,45.3767,178.964,99.7541,99.4581,0.000392957,0.046301,20.952,48.3445,0.0227124,0.0,0.0
916,228.75,43.363,44.8744,180.516,99.768,98.8874,0.000395061,0.0461398,20.9518,48.3145,0.0677515,0.0,0.0
920,229.75,43.4062,44.7764,182.988,99.7649,99.5524,0.000405422,0.0461118,20.9515,48.3245,0.016293,0.0,0.0
924,230.75,42.9308,44.8376,179.593,99.7661,101.01,0.000414123,0.0461194,20.9515,48.3345,-0.0946687,0.0,0.0
928,231.75,42.9468,45.0432,181.257,99.7621,99.7194,0.000422312,0.0459947,20.9521,48.3345,0.00326594,0.0,0.0
932,232.75,43.4824,44.8464,179.679,99.7653,99.8931,0.000429695,0.0459129,20.9525,48.3645,-0.00978841,0.0,0.0
936,233.75,43.4821,44.9813,177.022,99.7589,99.4151,0.000400868,0.0459165,20.9528,48.3645,0.0263826,0.0,0.0
940,234.75,43.2581,44.3445,180.581,99.7704,100.839,0.000330357,0.0459223,20.9529,48.3445,-0.0814333,0.0,0.0
944,235.75,43.2207,45.0603,183.697,99.7748,100.467,0.000230297,0.0458484,20.953,48.3445,-0.052842,0.0,0.0
948,236.75,43.4182,45.1543,183.943,99.7585,100.077,0.000121066,0.0457937,20.9531,48.3445,-0.024339,0.0,0.0
952,237.75,43.2429,44.9382,177.209,99.7684,100.151,4.79691e-05,0.045781,20.9532,48.3645,-0.0292598,0.0,0.0
956,238.75,43.4753,44.8849,180.376,99.7712,99.9428,1.5899e-05,0.0457584,20.9532,48.3545,-0.0131275,0.0,0.0
960,239.75,43.0183,45.1891,182.061,99.768,100.206,3.90002e-05,0.0457395,20.9532,48.3445,-0.0334541,0.0,0.0
964,240.75,43.1993,44.9691,181.792,99.7752,100.176,9.25341e-05,0.0457454,20.9532,48.3545,-0.0306357,0.0,0.0
968,241.75,43.2428,45.181,181.908,99.7816,99.3042,0.000143461,0.0457753,20.9532,48.3445,0.0366412,0.0,0.0
972,242.75,43.4306,44.9769,180.117,99.7816,99.956,0.000197536,0.0457689,20.9532,48.3545,-0.0133474,0.0,0.0
976,243.75,43.1867,45.043,180.383,99.8022,99.1173,0.000272587,0.0457239,20.9532,48.3645,0.0526211,0.0,0.0
980,244.75,43.6902,45.1102,181.682,99.8098,100.174,0.00036355,0.0457038,20.9532,48.3645,-0.0278622,0.0,0.0
984,245.75,43.3325,44.9442,177.181,99.8074,99.6847,0.000438311,0.0457105,20.9532,48.3545,0.00939786,0.0,0.0
988,246.75,43.1335,45.0961,174.781,99.8098,100.006,0.000509834,0.0457407,20.9532,48.3445,-0.0149805,0.0,0.0
992,247.75,43.2222,44.5971,180.458,99.8249,99.8832,0.00055676,0.0457647,20.9532,48.3445,-0.00446492,0.0,0.0
996,248.75,43.3007,44.9261,182.957,99.8348,99.5474,0.000569569,0.0457469,20.9532,48.3545,0.0220294,0.0,0.0
1000,249.75,42.6599,44.3811,182.043,99.8296,99.5888,0.000535292,0.0456985,20.9532,48.3345,0.0184598,0.0,0.0
1004,250.75,42.6969,44.0536,183.914,99.8396,100.884,0.000484092,0.0456054,20.9532,48.3245,-0.079523,0.0,0.0
1008,251.75,42.4203,43.8928,178.907,99.8503,99.9411,0.000380475,0.0455483,20.9536,48.3145,-0.0069468,0.0,0.0
1012,252.75,43.057,43.9912,182.231,99.8519,100.791,0.000274384,0.0455389,20.9538,48.3345,-0.0715605,0.0,0.0
1016,253.75,43.1912,43.9598,181.49,99.8702,99.2877,0.000173841,0.0455973,20.954,48.3045,0.0446973,0.0,0.0
1020,254.75,42.6032,44.5051,176.35,99.8487,100.184,0.000119916,0.0455997,20.9541,48.2945,-0.0256381,0.0,0.0
1024,255.75,42.2073,44.2191,180.493,99.8928,99.6516,6.03923e-05,0.0455815,20.9541,48.2945,0.0184725,0.0,0.0
1028,256.75,42.324,44.328,183.967,99.8722,100.667,2.84682e-05,0.0454862,20.9542,48.2945,-0.0605981,0.0,0.0
1032,257.75,42.7312,44.0939,173.574,99.8785,100.595,3.75907e-05,0.0454442,20.9542,48.3345,-0.0545845,0.0,0.0
1036,258.75,42.8591,44.0122,184.599,99.892,99.2215,7.23582e-05,0.0455038,20.9542,48.3145,0.0514639,0.0,0.0
1040,259.75,42.7624,44.4546,178.871,99.9047,100.249,0.000140127,0.0456284,20.9543,48.2945,-0.0262711,0.0,0.0
1044,260.75,42.4396,43.9607,178.215,99.9027,99.6698,0.000179969,0.0456407,20.9543,48.3345,0.0178373,0.0,0.0
1048,261.75,42.7413,44.4608,180.627,99.9083,100.487,0.000223558,0.0456137,20.9543,48.3445,-0.0441329,0.0,0.0
1052,262.75,42.5596,43.9119,181.945,99.9214,100.408,0.000255664,0.0455592,20.9538,48.3345,-0.0370891,0.0,0.0
1056,263.75,43.0657,44.8728,180.443,99.9679,99.607,0.000271473,0.0455518,20.9533,48.3445,0.0276416,0.0,0.0
1060,264.75,42.8682,44.4995,183.925,99.9461,99.8816,0.000260715,0.0455728,20.9533,48.3445,0.00493389,0.0,0.0
1064,265.75,42.5002,44.3157,179.695,99.962,99.5342,0.000223264,0.0456125,20.954,48.3545,0.0327709,0.0,0.0
1068,266.75,42.6631,44.6864,182.672,99.9794,99.9014,0.000184646,0.0456181,20.9544,48.2945,0.00596616,0.0,0.0
1072,267.75,42.3681,44.6878,182.178,99.9846,99.3026,0.00014362,0.0456163,20.9546,48.2945,0.0523026,0.0,0.0
1076,268.75,42.6175,44.6878,179.833,100.002,100.907,0.000114462,0.0456295,20.9548,48.3045,-0.0688783,0.0,0.0
1080,269.75,42.5119,44.1163,177.453,100.009,99.6185,0.000106537,0.0456497,20.9549,48.2845,0.0299113,0.0,0.0
1084,270.75,42.7659,44.2395,178.565,100.028,100.363,0.000128238,0.0456554,20.955,48.3045,-0.0255801,0.0,0.0
1088,271.75,42.5587,44.4501,179.327,100.044,100.153,0.000178361,0.0456333,20.955,48.2945,-0.00829269,0.0,0.0
1092,272.75,42.5807,44.2382,181.046,100.053,100.297,0.000242663,0.0456003,20.9551,48.3245,-0.0185684,0.0,0.0
1096,273.75,42.7763,44.4761,180.071,100.066,101.289,0.000284851,0.0456061,20.9551,48.3145,-0.0928437,0.0,0.0
1100,274.75,42.83,44.2352,176.374,100.082,100.819,0.000353256,0.045632,20.9553,48.3145,-0.0561361,0.0,0.0
1104,275.75,42.288,44.5289,182.348,100.098,100.368,0.000403781,0.0456231,20.9555,48.2845,-0.0205867,0.0,0.0
1108,276.75,42.704,44.8425,179.222,100.114,99.5573,0.000418134,0.0456432,20.9555,48.2945,0.0425887,0.0,0.0
1112,277.75,42.8529,44.5845,183.635,100.117,100.001,0.000392259,0.0456304,20.9554,48.3145,0.00888016,0.0,0.0
1116,278.75,42.0531,44.138,182.763,100.132,99.4035,0.000355428,0.045648,20.9554,48.2745,0.0558004,0.0,0.0
1120,279.75,42.7409,44.4984,183.096,100.12,100.652,0.00033453,0.0455817,20.9554,48.2645,-0.04055,0.0,0.0
1124,280.75,42.9324,44.3845,178.816,100.144,101.063,0.000325331,0.0454864,20.9554,48.2845,-0.0698127,0.0,0.0
1128,281.75,42.6835,44.224,181.494,100.167,100.153,0.000328925,0.045526,20.9554,48.2645,0.00104933,0.0,0.0
1132,282.75,42.745,44.4782,178.485,100.172,99.8452,0.000339241,0.0455795,20.9554,48.2745,0.0249554,0.0,0.0
1136,283.75,43.1066,44.0758,181.221,100.21,100.082,0.000341483,0.0456302,20.9554,48.2745,0.0097818,0.0,0.0
1140,284.75,42.8164,44.3765,181.098,100.221,100.193,0.000318271,0.0456761,20.9556,48.2845,0.00214314,0.0,0.0
1144,285.75,42.4976,44.3556,178.021,100.224,100.406,0.000255947,0.0457205,20.9559,48.2945,-0.0138429,0.0,0.0
1148,286.75,42.6347,44.9873,186.234,100.235,99.7773,0.000188159,0.0457688,20.956,48.2745,0.0349964,0.0,0.0
1152,287.75,42.4634,44.5204,175.8,100.251,101.218,0.000143684,0.0458189,20.9559,48.2945,-0.0733478,0.0,0.0
1156,288.75,42.947,44.2017,181.862,100.259,101.506,0.000128125,0.0458926,20.9552,48.2945,-0.0944709,0.0,0.0
1160,289.75,42.4848,44.4036,181.97,100.279,100.636,0.000145056,0.0458907,20.9547,48.2544,-0.0271418,0.0,0.0
1164,290.75,43.2366,43.7045,183.728,100.299,100.285,0.000175404,0.0457433,20.9545,48.2444,0.00101654,0.0,0.0
1168,291.75,42.7622,44.0962,183.222,100.31,100.198,0.000201573,0.0456725,20.9543,48.2344,0.00854804,0.0,0.0
1172,292.75,42.6483,44.2329,177.969,100.32,99.5458,0.000206117,0.0457039,20.9541,48.2444,0.0592026,0.0,0.0
1176,293.75,42.1982,44.2936,182.073,100.339,99.9014,0.000198058,0.0457244,20.9541,48.2645,0.0333722,0.0,0.0
1180,294.75,43.1272,44.0857,178.631,100.355,100.51,0.000132293,0.0457223,20.954,48.2645,-0.0118386,0.0,0.0
1184,295.75,42.649,44.1774,178.147,100.365,100.568,5.77817e-05,0.0457083,20.954,48.2645,-0.0154223,0.0,0.0
1188,296.75,43.019,44.2904,181.019,100.362,100.126,1.47578e-05,0.0456378,20.9537,48.2444,0.017939,0.0,0.0
1192,297.75,42.9397,43.7617,181.053,100.401,102.027,1.32087e-05,0.045575,20.9532,48.2544,-0.122764,0.0,0.0
1196,298.75,42.7963,44.2136,185.074,100.399,100.368,7.58345e-05,0.045636,20.9528,48.2645,0.00237263,0.0,0.0
1200,299.75,42.8003,44.2693,181.549,100.421,100.034,0.000181219,0.045683,20.9526,48.2544,0.0295484,0.0,0.0
1204,300.75,42.896,44.1129,181.228,100.417,100.538,0.000280496,0.0456511,20.9525,48.2845,-0.00922748,0.0,0.0
1208,301.75,42.6709,44.2069,182.737,100.428,99.7046,0.000374831,0.0455913,20.9524,48.2945,0.0552506,0.0,0.0
1212,302.75,42.7711,44.0549,180.468,100.454,100.743,0.000396298,0.0455856,20.9523,48.3045,-0.0219602,0.0,0.0
1216,303.75,42.4001,44.2097,182.724,100.475,99.8948,0.000349787,0.0456185,20.9523,48.2945,0.0442518,0.0,0.0
1220,304.75,42.8537,43.9127,178.565,100.487,101.519,0.000298063,0.0455883,20.9523,48.2745,-0.0781033,0.0,0.0
1224,305.75,43.1722,44.4252,181.085,100.492,100.618,0.0002609,0.0455685,20.9523,48.2945,-0.00957771,0.0,0.0
1228,306.75,42.724,44.105,182.361,100.5,100.474,0.000233308,0.0454942,20.9523,48.2745,0.00202475,0.0,0.0
1232,307.75,42.541,44.0649,180.941,100.509,100.836,0.000202484,0.0454433,20.9522,48.2745,-0.024843,0.0,0.0
1236,308.75,43.0769,44.3922,181.145,100.531,100.159,0.000150882,0.0454291,20.9522,48.2845,0.0282924,0.0,0.0
1240,309.75,42.6814,44.234,183.544,100.531,99.64,0.000119265,0.0454306,20.9522,48.2945,0.0680233,0.0,0.0
1244,310.75,42.6787,44.2299,175.889,100.543,100.944,0.000132143,0.0454282,20.9522,48.2945,-0.0303892,0.0,0.0
1248,311.75,42.7564,44.4608,183.258,100.538,100.647,0.000183205,0.0454491,20.9522,48.2544,-0.00830409,0.0,0.0
1252,312.75,42.3946,44.5898,179.656,100.54,101.527,0.000259346,0.0454513,20.9522,48.2444,-0.0747082,0.0,0.0
1256,313.75,42.8543,44.3187,182.809,100.553,101.749,0.000344695,0.0454376,20.9522,48.2444,-0.0903467,0.0,0.0
1260,314.75,42.9403,44.4805,185.254,100.55,100.345,0.000427204,0.0453919,20.9522,48.2745,0.0155894,0.0,0.0
1264,315.75,42.843,44.315,185.785,100.564,100.778,0.000526049,0.0454027,20.9522,48.2745,-0.016226,0.0,0.0
1268,316.75,42.7545,44.5819,180.842,100.57,101.126,0.000595605,0.0454351,20.9522,48.2645,-0.0420978,0.0,0.0
1272,317.75,42.5734,44.6424,182.126,100.57,100.57,0.000629999,0.0454537,20.9522,48.2745,4.73688e-05,0.0,0.0
1276,318.75,42.9179,44.4869,181.529,100.57,101.046,0.000644592,0.0454542,20.9522,48.2845,-0.0360658,0.0,0.0
1280,319.75,42.8003,44.2784,180.462,100.582,101.413,0.000634684,0.0453768,20.9526,48.2745,-0.0629119,0.0,0.0
1284,320.75,43.1571,44.5255,181.499,100.564,101.069,0.000598157,0.0453261,20.953,48.2745,-0.0382696,0.0,0.0
1288,321.75,42.9592,44.51,180.723,100.55,100.722,0.000546636,0.0452928,20.9533,48.2945,-0.0130782,0.0,0.0
1292,322.75,42.8711,44.4357,179.2,100.554,101.79,0.000446232,0.0452301,20.9535,48.2544,-0.093361,0.0,0.0
1296,323.75,43.1952,44.5059,181.909,100.564,100.905,0.000342183,0.0451922,20.9537,48.2645,-0.0258776,0.0,0.0
1300,324.75,42.8764,44.368,180.807,100.558,101.562,0.000229094,0.0451873,20.9538,48.2444,-0.075963,0.0,0.0
1304,325.75,42.8701,44.5227,181.461,100.552,100.48,0.000123493,0.0452326,20.9532,48.2444,0.00541818,0.0,0.0
1308,326.75,43.1075,44.3788,182.925,100.56,100.34,6.12699e-05,0.0452781,20.9528,48.2745,0.016783,0.0,0.0
1312,327.75,42.6778,44.6449,178.756,100.534,100.634,4.88269e-05,0.0452895,20.9527,48.2745,-0.00760103,0.0,0.0
1316,328.75,43.1988,43.9462,183.134,100.556,101.261,6.01707e-05,0.0453489,20.9526,48.2945,-0.0534281,0.0,0.0
1320,329.75,42.834,44.3212,180.501,100.535,99.7079,0.000108968,0.0453266,20.9525,48.2745,0.0631562,0.0,0.0
1324,330.75,42.6184,44.5749,182.788,100.527,100.33,0.000150017,0.0452341,20.9525,48.2845,0.0150321,0.0,0.0
1328,331.75,42.587,44.5906,180.449,100.5,99.9097,0.000172384,0.0451979,20.9525,48.2845,0.0450161,0.0,0.0
1332,332.75,42.9229,44.2612,180.7,100.531,100.259,0.000172665,0.0452055,20.9533,48.2745,0.020724,0.0,0.0
1336,333.75,42.9019,44.2888,179.752,100.493,100.03,0.000169463,0.0451955,20.9538,48.2645,0.0352422,0.0,0.0
1340,334.75,42.8271,44.5739,185.772,100.514,100.657,0.000178493,0.0451406,20.9541,48.2544,-0.0108698,0.0,0.0
1344,335.75,42.5439,44.3457,182.409,100.473,101.551,0.000205628,0.0450917,20.9544,48.2645,-0.0815262,0.0,0.0
1348,336.75,42.8412,44.6683,179.636,100.479,100.242,0.000232703,0.045113,20.9544,48.2544,0.0180572,0.0,0.0
1352,337.75,42.4545,44.3475,178.817,100.47,100.773,0.00026734,0.0451789,20.9542,48.2344,-0.0230391,0.0,0.0
1356,338.75,42.6925,44.5837,180.523,100.461,101.572,0.000308496,0.045274,20.9541,48.2645,-0.0840508,0.0,0.0
1360,339.75,42.7935,44.4568,180.837,100.461,100.457,0.000342843,0.0453137,20.9541,48.2745,0.000261436,0.0,0.0
1364,340.75,43.0032,44.434,181.591,100.449,100.585,0.000355716,0.0452847,20.954,48.2845,-0.0103289,0.0,0.0
1368,341.75,42.3567,44.2347,181.157,100.461,100.102,0.000361307,0.045243,20.9533,48.2945,0.0273929,0.0,0.0
1372,342.75,42.6361,44.1796,179.39,100.45,98.9767,0.000340219,0.0451605,20.953,48.2645,0.112932,0.0,0.0
1376,343.75,43.1868,44.5233,179.553,100.433,98.8841,0.000309117,0.0451214,20.953,48.2544,0.118756,0.0,0.0
1380,344.75,42.8179,44.947,180.841,100.419,99.6235,0.000268187,0.0451326,20.9529,48.2444,0.0607698,0.0,0.0
1384,345.75,43.0035,44.5922,183.456,100.41,99.8154,0.000216763,0.045114,20.9529,48.2444,0.0453693,0.0,0.0
1388,346.75,42.9173,44.6609,182.284,100.389,99.4912,0.000165017,0.0450759,20.9529,48.2745,0.0686291,0.0,0.0
1392,347.75,42.5347,44.499,180.426,100.37,99.7525,0.000126951,0.0450917,20.9529,48.2444,0.0471593,0.0,0.0
1396,348.75,42.4929,44.0352,180.897,100.376,98.6988,0.000103564,0.0450987,20.9529,48.2544,0.128731,0.0,0.0
1400,349.75,42.7291,44.2423,184.741,100.349,99.8534,0.000121783,0.0450616,20.9529,48.2544,0.0377997,0.0,0.0
1404,350.75,42.256,44.5061,178.095,100.348,99.6516,0.000174579,0.0449562,20.9529,48.2845,0.0532281,0.0,0.0
1408,351.75,42.3776,44.4893,179.247,100.329,100.325,0.00023723,0.0448687,20.9529,48.2845,0.000323377,0.0,0.0
1412,352.75,43.1059,44.3803,180.3,100.308,99.7376,0.000278609,0.0449667,20.9529,48.2845,0.0435788,0.0,0.0
1416,353.75,43.2015,44.4272,179.52,100.296,99.8915,0.00028229,0.045057,20.9533,48.2444,0.0308931,0.0,0.0
1420,354.75,42.4543,44.4142,183.217,100.282,101.604,0.000272402,0.0450903,20.9536,48.2244,-0.100059,0.0,0.0
1424,355.75,42.8066,44.5048,182.8,100.258,100.52,0.000264013,0.0451899,20.9533,48.2244,-0.0199195,0.0,0.0
1428,356.75,42.4287,44.2323,176.079,100.234,101.506,0.000292164,0.0452266,20.9532,48.2444,-0.0963493,0.0,0.0
1432,357.75,43.0204,44.521,180.365,100.221,101.046,0.00034655,0.0452275,20.9537,48.2444,-0.0626814,0.0,0.0
1436,358.75,42.8783,44.0481,184.329,100.216,100.019,0.000377743,0.0452567,20.9542,48.2144,0.0150376,0.0,0.0
1440,359.75,42.6301,44.0538,183.135,100.188,100.209,0.000342912,0.0453685,20.9547,48.2244,-0.00163395,0.0,0.0
1444,360.75,43.1282,44.3752,180.955,100.161,99.5094,0.000306588,0.0454185,20.9548,48.2745,0.0498495,0.0,0.0
1448,361.75,42.3101,44.302,180.706,100.149,100.36,0.000234872,0.0454571,20.955,48.2845,-0.0160759,0.0,0.0
1452,362.75,43.0225,43.6606,177.825,100.128,99.9179,0.000176675,0.0454824,20.9551,48.2544,0.0160821,0.0,0.0
1456,363.75,42.9101,44.5596,175.205,100.106,100.651,0.000129466,0.0454472,20.9551,48.2645,-0.0414558,0.0,0.0
1460,364.75,42.6158,44.4282,183.954,100.091,100.551,9.84925e-05,0.0454542,20.9552,48.2945,-0.0350389,0.0,0.0
1464,365.75,43.0066,44.2628,180.537,100.066,98.9817,9.3857e-05,0.0455248,20.9552,48.2945,0.0832918,0.0,0.0
1468,366.75,42.5014,44.6661,181.791,100.041,100.816,0.000108449,0.0455528,20.9552,48.2444,-0.0589497,0.0,0.0
1472,367.75,42.8821,44.3009,183.044,100.004,100.798,0.000121528,0.0455216,20.9553,48.2344,-0.0604241,0.0,0.0
1475,368.5,42.8884,44.2359,180.588,100.01,101.461,0.00012424,0.0455259,20.9555,48.2344,-0.110091,0.0,0.0