File: 01_Data/Feather_Pillow_Feathers/Cone/Feather_Pillow_Feathers_Cone_HF75Scan_230710_R1.csv
Names,Time,Stack TC,Smoke TC,Exh Press,Smoke Comp,Smoke Meas,CO Meter,CO2 Meter,O2 Meter,Sample Mass,Ext Coeff,Start Test,Flame Verif
Chan Gain,,500,500,1,1,1,1,1,1,1,1,1.0,1.0
Offset,,0,0,0.18266,0,0,0,0,0,0,0,0.0,0.0
Gain,,1,1,25.011,13.044,49.4489,1,1,1,1.00092,0.871134,1.0,1.0
Units,sec,C,C,Pa,%,%,%,%,%,g,/m,,
Baseline,,68.1104,71.7427,167.361,101.173,101.163,0.000241109,0.0441665,20.9485,-448.275,0.000816173,,
2,0.25,63.5085,65.331,167.953,100.883,100.518,0.000333738,0.0449635,20.9496,48.0042,0.0276317,0.0,0.0
4,0.75,63.096,65.0296,168.958,100.872,98.0481,0.000347142,0.044932,20.9498,47.9942,0.216961,0.0,0.0
6,1.25,63.3642,65.272,168.306,100.878,97.4777,0.000358,0.0448921,20.9499,47.764,0.262,0.0,0.0
8,1.75,63.3375,65.4877,157.025,100.887,100.508,0.000370516,0.0448597,20.95,47.734,0.0287961,0.0,1.0
10,2.25,63.6552,66.4162,146.893,100.902,101.207,0.000375851,0.044846,20.95,47.5938,-0.0229948,0.0,1.0
12,2.75,64.1484,67.3771,153.507,100.902,101.625,0.000384976,0.0447795,20.9501,47.4837,-0.0545212,0.0,1.0
14,3.25,64.66,68.7645,144.636,100.916,100.245,0.000404773,0.0447256,20.9502,47.1835,0.0509273,0.0,1.0
16,3.75,65.005,70.7768,143.044,100.92,99.6402,0.000420808,0.044639,20.9502,47.1434,0.0974965,0.0,1.0
18,4.25,66.0491,71.896,150.938,100.934,101.353,0.000444967,0.0445689,20.9503,47.1735,-0.0316876,0.0,1.0
20,4.75,66.5536,73.6936,139.214,100.951,100.458,0.000464535,0.0445498,20.9503,46.8431,0.0373764,0.0,1.0
22,5.25,67.0831,74.9457,145.636,100.959,98.5793,0.000491494,0.0445682,20.9503,46.9933,0.182305,0.0,1.0
24,5.75,67.7125,76.3643,133.242,100.968,97.87,0.00052333,0.0446434,20.9503,46.663,0.238146,0.0,1.0
26,6.25,67.4131,77.0421,140.96,100.989,98.8449,0.00055304,0.0447586,20.9504,46.5028,0.164004,0.0,1.0
28,6.75,68.7001,78.7788,138.265,100.992,98.8147,0.000580635,0.0448519,20.9499,46.4728,0.166549,0.0,1.0
30,7.25,69.2919,80.5895,142.547,100.988,98.5627,0.000602987,0.0450277,20.9496,46.4328,0.185732,0.0,1.0
32,7.75,69.7557,81.4081,141.816,101.007,97.7342,0.000611155,0.0451701,20.9493,46.3127,0.251709,0.0,1.0
34,8.25,70.161,82.4373,147.652,101.018,96.4953,0.000617772,0.0461025,20.9491,46.2126,0.34998,0.0,0.0
36,8.75,71.1207,83.2292,141.419,101.036,91.8911,0.000633068,0.0468578,20.9489,46.0925,0.724986,0.0,0.0
38,9.25,71.7041,84.2456,139.707,101.045,89.3393,0.000645457,0.0515488,20.9487,46.0224,0.940826,0.0,0.0
40,9.75,72.0898,85.6021,149.192,101.057,85.6708,0.00068821,0.0590199,20.9486,45.8122,1.26217,0.0,0.0
42,10.25,72.5036,85.9413,145.263,101.074,84.7971,0.000752286,0.0650715,20.9476,45.8322,1.34177,0.0,0.0
44,10.75,73.2942,87.149,149.515,101.086,84.4726,0.000804187,0.0913202,20.9468,45.7421,1.37199,0.0,0.0
46,11.25,73.6707,88.4657,140.565,101.082,79.7643,0.000918468,0.112582,20.9444,45.6621,1.80997,0.0,0.0
48,11.75,74.6501,89.2085,143.724,101.107,80.3317,0.00105176,0.150642,20.9424,45.582,1.7577,0.0,0.0
50,12.25,74.7424,90.0247,143.77,101.109,75.966,0.00119638,0.181471,20.9265,45.5219,2.18482,0.0,0.0
52,12.75,75.3631,91.0781,147.38,101.142,78.7442,0.00135104,0.222207,20.9136,45.4719,1.91284,0.0,0.0
54,13.25,75.7078,92.0577,143.935,101.121,74.1688,0.00151008,0.261706,20.8657,45.3618,2.36865,0.0,0.0
56,13.75,76.4658,93.0247,146.816,101.165,74.466,0.00167648,0.299552,20.8269,45.2817,2.34142,0.0,0.0
58,14.25,76.7797,93.2376,145.734,101.156,81.2281,0.0018451,0.334432,20.7695,45.2517,1.67657,0.0,0.0
60,14.75,77.362,93.4889,149.822,101.184,77.3302,0.00198168,0.366488,20.7231,45.1916,2.05446,0.0,0.0
62,15.25,77.5683,94.0123,161.829,101.175,79.3131,0.00217643,0.392454,20.6854,45.2016,1.86033,0.0,0.0
64,15.75,77.2427,94.4118,145.327,101.197,76.5848,0.00233418,0.413486,20.6448,45.2217,2.12948,0.0,0.0
66,16.25,78.2252,94.6789,151.53,101.196,91.4037,0.00246196,0.433031,20.6029,45.2317,0.777691,0.0,0.0
68,16.75,78.6146,94.858,153.605,101.232,94.9274,0.00268912,0.458835,20.5464,45.2917,0.491408,0.0,0.0
70,17.25,78.8996,94.3732,157.627,101.226,97.9787,0.00280042,0.465777,20.5261,45.2917,0.249135,0.0,0.0
72,17.75,78.783,95.119,162.505,101.232,100.106,0.00317576,0.486963,20.4767,45.2917,0.0854739,0.0,0.0
74,18.25,78.7785,94.385,162.948,101.243,101.115,0.00349213,0.497792,20.4412,45.3017,0.00969082,0.0,0.0
76,18.75,79.2207,94.4071,162.106,101.266,100.692,0.00362701,0.505671,20.426,45.3318,0.043462,0.0,0.0
78,19.25,78.6433,93.591,161.325,101.261,101.196,0.00413006,0.519145,20.3966,45.3318,0.00491659,0.0,0.0
80,19.75,78.2069,92.2961,162.212,101.279,101.935,0.00453754,0.532839,20.3696,45.3017,-0.0493952,0.0,0.0
82,20.25,77.6628,91.8849,159.859,101.29,100.66,0.00520115,0.546434,20.3423,45.3217,0.0476699,0.0,0.0
84,20.75,77.8307,91.8269,160.943,101.299,100.669,0.00573867,0.559141,20.3154,45.3518,0.0476129,0.0,0.0
86,21.25,77.8386,91.1354,163.066,101.319,101.465,0.00650268,0.569433,20.2879,45.3718,-0.0109555,0.0,0.0
88,21.75,77.9383,90.7878,161.954,101.324,102.372,0.00712152,0.57439,20.2605,45.3818,-0.0785658,0.0,0.0
90,22.25,77.8133,90.2784,165.315,101.337,102.738,0.00790438,0.578406,20.2384,45.3618,-0.104958,0.0,0.0
92,22.75,77.5129,89.3864,165.107,101.343,102.581,0.00853849,0.581659,20.2204,45.3718,-0.0928262,0.0,0.0
94,23.25,77.2423,89.8069,160.854,101.354,102.986,0.00905213,0.575309,20.2059,45.3518,-0.122023,0.0,0.0
96,23.75,77.7617,89.0449,163.337,101.369,103.374,0.009657,0.570166,20.1942,45.3418,-0.149636,0.0,0.0
98,24.25,77.1953,88.5472,158.516,101.382,102.373,0.0101469,0.558749,20.1846,45.3518,-0.0743264,0.0,0.0
100,24.75,77.5428,88.3469,164.83,101.383,101.875,0.0104808,0.542974,20.1774,45.3418,-0.0369738,0.0,0.0
102,25.25,77.2702,88.1922,163.246,101.371,102.595,0.0107511,0.519168,20.1719,45.3217,-0.0916774,0.0,0.0
104,25.75,77.3473,87.5876,163.277,101.398,102.571,0.0108325,0.489959,20.1675,45.3418,-0.0878385,0.0,0.0
106,26.25,77.1146,87.0237,162.557,101.398,102.637,0.0107744,0.456901,20.1724,45.3217,-0.0928433,0.0,0.0
108,26.75,76.9793,87.2967,165.578,101.419,102.605,0.0105756,0.421665,20.1764,45.3318,-0.0888637,0.0,0.0
110,27.25,76.7775,86.69,163.444,101.417,102.888,0.0102779,0.386219,20.2042,45.3117,-0.110002,0.0,0.0
112,27.75,76.7252,86.5069,159.696,101.429,103.245,0.00989494,0.351295,20.2267,45.3017,-0.135648,0.0,0.0
114,28.25,76.8412,86.1292,166.473,101.444,102.065,0.00945699,0.323007,20.2735,45.2917,-0.046664,0.0,0.0
116,28.75,76.7449,86.132,161.808,101.446,103.076,0.00896601,0.290505,20.3114,45.2917,-0.121809,0.0,0.0
118,29.25,76.9834,85.4754,162.644,101.443,102.212,0.00844572,0.264178,20.3681,45.3117,-0.0576752,0.0,0.0
120,29.75,76.2724,85.2439,164.369,101.462,101.585,0.00802427,0.237363,20.4139,45.3017,-0.00930181,0.0,0.0
122,30.25,76.499,85.3528,165.087,101.473,101.649,0.00758634,0.215644,20.4511,45.3117,-0.0131982,0.0,0.0
124,30.75,76.3817,84.7604,162.635,101.481,102.044,0.0071447,0.196366,20.497,45.3318,-0.0422632,0.0,0.0
126,31.25,75.8442,84.8666,160.017,101.475,102.705,0.00673686,0.179236,20.5412,45.3117,-0.0920503,0.0,0.0
128,31.75,76.1928,84.7653,171.04,101.484,101.548,0.0063614,0.164566,20.5834,45.3117,-0.00481447,0.0,0.0
130,32.25,76.1022,84.6517,163.538,101.501,102.787,0.00601062,0.151967,20.6215,45.3217,-0.0961925,0.0,0.0
132,32.75,76.2127,84.4141,166.675,101.486,102.602,0.0056845,0.141224,20.656,45.2917,-0.0836018,0.0,0.0
134,33.25,75.6087,84.0252,165.753,101.52,102.319,0.00534703,0.132038,20.6878,45.2617,-0.0598958,0.0,0.0
136,33.75,75.8008,84.075,167.613,101.5,102.037,0.00507368,0.124259,20.7168,45.2717,-0.0403197,0.0,0.0
138,34.25,76.4315,83.4702,163.788,101.521,101.49,0.00480558,0.117654,20.7425,45.2617,0.00234896,0.0,0.0
140,34.75,76.1224,83.136,163.811,101.498,101.845,0.00458842,0.112067,20.7652,45.2417,-0.0260732,0.0,0.0
142,35.25,75.8193,83.4992,166.077,101.53,101.923,0.00438983,0.107327,20.7836,45.2417,-0.029562,0.0,0.0
144,35.75,75.6648,83.1052,167.002,101.522,101.534,0.00422897,0.103487,20.8007,45.2417,-0.000915095,0.0,0.0
146,36.25,75.7846,82.4014,166.678,101.535,101.448,0.00409867,0.099912,20.8146,45.2217,0.00658054,0.0,0.0
148,36.75,75.312,82.8588,166.429,101.517,100.469,0.00397722,0.0970158,20.8258,45.2217,0.0793008,0.0,0.0
150,37.25,75.3674,82.3933,161.487,101.55,102.664,0.00386452,0.0945398,20.8367,45.2317,-0.0834139,0.0,0.0
152,37.75,75.5728,82.1626,163.829,101.537,102.513,0.00376395,0.0924172,20.8455,45.2217,-0.0731326,0.0,0.0
154,38.25,75.3875,82.0416,166.742,101.567,102.384,0.00367415,0.0906978,20.8526,45.2317,-0.0611752,0.0,0.0
156,38.75,75.4443,82.3932,170.276,101.54,102.251,0.0036014,0.0890528,20.8602,45.2517,-0.0532942,0.0,0.0
158,39.25,75.9293,81.7177,164.453,101.579,102.147,0.00354248,0.0874933,20.8663,45.2217,-0.0426039,0.0,0.0
160,39.75,75.1466,81.8134,159.095,101.557,102.848,0.00346835,0.08623,20.8712,45.2116,-0.0965361,0.0,0.0
162,40.25,74.0161,81.4189,160.669,101.556,101.626,0.00337874,0.084311,20.8768,45.2317,-0.00526341,0.0,0.0
164,40.75,75.2453,80.9005,166.818,101.558,102.672,0.00335213,0.0837948,20.8789,45.2417,-0.0833467,0.0,0.0
166,41.25,75.1697,81.8171,162.174,101.584,101.911,0.00330662,0.082796,20.8824,45.2116,-0.024583,0.0,0.0
168,41.75,75.0606,81.4328,162.604,101.573,102.624,0.00324587,0.081987,20.8861,45.2217,-0.0786141,0.0,0.0
170,42.25,75.134,80.9729,165.841,101.563,102,0.00313424,0.0807627,20.8909,45.2116,-0.0328429,0.0,0.0
172,42.75,75.2698,81.3383,165.304,101.568,101.652,0.00309769,0.0804334,20.8925,45.2016,-0.00626438,0.0,0.0
174,43.25,75.0055,80.9468,164.078,101.578,102.512,0.00303519,0.0795368,20.8952,45.2317,-0.0699046,0.0,0.0
176,43.75,74.9311,80.8401,165.259,101.574,102.364,0.00295683,0.0788106,20.8974,45.2317,-0.059232,0.0,0.0
178,44.25,74.9516,81.1174,157.885,101.588,102.501,0.00286841,0.0781004,20.8991,45.2617,-0.0683985,0.0,0.0
180,44.75,74.4483,80.2398,160.782,101.582,103.147,0.0027882,0.0774154,20.9006,45.2116,-0.116817,0.0,0.0
182,45.25,74.6416,80.416,162.973,101.589,102.498,0.00271552,0.0768605,20.9017,45.2317,-0.068114,0.0,0.0
184,45.75,74.4708,80.4955,162.65,101.599,102.599,0.00265665,0.0762807,20.9027,45.2217,-0.0748393,0.0,0.0
186,46.25,74.5985,79.9431,163.668,101.588,101.833,0.00260521,0.0758111,20.9037,45.1916,-0.0183972,0.0,0.0
188,46.75,74.6006,79.901,164.398,101.584,102.275,0.00254313,0.074897,20.9051,45.1616,-0.0517743,0.0,0.0
190,47.25,74.5051,79.7127,162.854,101.603,102.017,0.00252477,0.0746511,20.9058,45.1015,-0.0310322,0.0,0.0
192,47.75,74.6934,79.9905,163.363,101.601,102.446,0.00249337,0.0741004,20.9068,45.1015,-0.0632467,0.0,0.0
194,48.25,74.2946,79.6819,165.295,101.611,102.56,0.00245416,0.0736543,20.9077,45.1416,-0.0710782,0.0,0.0
196,48.75,73.4586,79.7152,162.38,101.596,102.331,0.0024224,0.0732473,20.9084,45.0915,-0.0550469,0.0,0.0
198,49.25,73.8721,79.4234,167.994,101.609,102.773,0.00237289,0.0728765,20.9092,45.1015,-0.087006,0.0,0.0
200,49.75,74.3121,79.2071,166.012,101.6,102.402,0.00233278,0.0725762,20.9101,45.1416,-0.060072,0.0,0.0
202,50.25,74.273,79.1415,166.646,101.612,102.032,0.00230029,0.0721883,20.9108,45.1216,-0.0315042,0.0,0.0
204,50.75,73.7458,79.2044,162.677,101.606,102.08,0.00224769,0.0718741,20.9113,45.1816,-0.0355693,0.0,0.0
206,51.25,73.9664,79.2454,169.846,101.617,101.916,0.00220509,0.0716052,20.9118,45.2116,-0.0224672,0.0,0.0
208,51.75,74.1115,79.124,165.491,101.625,101.889,0.00216932,0.0713743,20.9125,45.1416,-0.0198323,0.0,0.0
210,52.25,73.9072,79.1331,164.402,101.617,103.526,0.00214036,0.071134,20.9133,45.2217,-0.142192,0.0,0.0
212,52.75,73.7549,79.1767,166.519,101.628,102.841,0.00212315,0.0708914,20.914,45.1716,-0.0906758,0.0,0.0
214,53.25,74.1187,78.4866,165.63,101.635,102.26,0.00210921,0.0706113,20.9146,45.2016,-0.0468445,0.0,0.0
216,53.75,73.8491,78.4115,167.089,101.636,103.334,0.00210252,0.0703091,20.915,45.2317,-0.126627,0.0,0.0
218,54.25,74.0124,78.5905,169.893,101.635,101.917,0.00210126,0.069973,20.9154,45.2016,-0.0212344,0.0,0.0
220,54.75,73.9287,78.8546,163.482,101.641,103.116,0.00210814,0.0696187,20.9157,45.2116,-0.110039,0.0,0.0
222,55.25,73.5615,78.4739,160.79,101.638,103.275,0.00212082,0.0692861,20.9159,45.1816,-0.122153,0.0,0.0
224,55.75,73.8263,78.5633,167.018,101.66,102.741,0.00213176,0.0689756,20.9161,45.1616,-0.0808776,0.0,0.0
226,56.25,73.3056,78.3963,160.626,101.625,101.875,0.00214121,0.0687242,20.9165,45.1416,-0.0187834,0.0,0.0
228,56.75,73.9859,78.2063,163.853,101.652,100.828,0.00214886,0.0684749,20.9171,45.1516,0.0622437,0.0,0.0
230,57.25,73.8002,78.4588,164.559,101.636,102.915,0.00215243,0.0682319,20.9175,45.1416,-0.0955694,0.0,0.0
232,57.75,73.566,78.3393,163.544,101.646,103.016,0.00215294,0.0680351,20.9178,45.1316,-0.102295,0.0,0.0
234,58.25,73.3577,78.0919,166.432,101.629,101.552,0.00215007,0.0678324,20.9181,45.1015,0.0057477,0.0,0.0
236,58.75,73.6248,78.0267,163.122,101.633,103.515,0.00214477,0.0676454,20.9188,45.1116,-0.140275,0.0,0.0
238,59.25,73.882,78.1812,168.503,101.628,102.969,0.00212995,0.0674734,20.9193,45.1116,-0.100171,0.0,0.0
240,59.75,73.6735,78.1019,163.998,101.628,102.106,0.00210846,0.0672581,20.9198,45.1015,-0.0358425,0.0,0.0
242,60.25,73.086,77.8862,164.829,101.624,102.934,0.00209106,0.0670153,20.9201,45.1015,-0.0979242,0.0,0.0
244,60.75,73.2953,78.2263,165.191,101.636,102.136,0.00204321,0.0668187,20.9204,45.1216,-0.0375326,0.0,0.0
246,61.25,73.6154,77.689,163.427,101.616,101.869,0.00200445,0.0666594,20.9207,45.1216,-0.0189894,0.0,0.0
248,61.75,73.6616,78.0012,164.395,101.622,103.01,0.00197306,0.0664871,20.9209,45.1116,-0.103643,0.0,0.0
250,62.25,73.3099,77.997,163.465,101.637,103.294,0.00190892,0.0663476,20.9213,45.1116,-0.123522,0.0,0.0
252,62.75,73.312,77.5907,165.675,101.628,102.574,0.00185696,0.0661624,20.9218,45.1316,-0.0708038,0.0,0.0
254,63.25,73.4752,77.7992,162.856,101.626,101.747,0.00179241,0.0660124,20.9225,45.1316,-0.00909615,0.0,0.0
256,63.75,73.4844,77.8646,166.043,101.63,102.533,0.00174013,0.0658225,20.9233,45.1316,-0.0676177,0.0,0.0
258,64.25,72.7897,77.7877,164.037,101.625,102.765,0.00169778,0.0656072,20.9239,45.1516,-0.0852772,0.0,0.0
260,64.75,73.2801,77.5618,164.351,101.63,102.58,0.00163605,0.0654329,20.9244,45.1216,-0.0711035,0.0,0.0
262,65.25,73.4675,77.6008,168.603,101.635,102.559,0.00158604,0.0651186,20.9248,45.1216,-0.0691706,0.0,0.0
264,65.75,73.3411,77.8549,161.742,101.639,102.876,0.00153681,0.064864,20.9254,45.1316,-0.0924168,0.0,0.0
266,66.25,73.2991,77.64,162.5,101.656,102.586,0.00149694,0.0645136,20.9261,45.1316,-0.0695778,0.0,0.0
268,66.75,72.7143,77.3768,163.604,101.636,103.113,0.00145873,0.0642297,20.9266,45.1316,-0.110204,0.0,0.0
270,67.25,73.124,77.6504,163.892,101.646,102.916,0.00142248,0.0639771,20.927,45.1416,-0.0948735,0.0,0.0
272,67.75,73.1572,77.5222,163.504,101.641,102.302,0.00138524,0.063752,20.9274,45.1516,-0.0495525,0.0,0.0
274,68.25,73.0569,77.5746,167.172,101.638,102.104,0.00134801,0.0635468,20.9277,45.1516,-0.0349813,0.0,0.0
276,68.75,73.4201,77.6512,163.948,101.639,102.666,0.00130539,0.0633602,20.9279,45.1116,-0.0767897,0.0,0.0
278,69.25,72.8345,77.9332,163.194,101.651,102.651,0.00127087,0.0631559,20.9281,45.0815,-0.0747684,0.0,0.0
280,69.75,73.5915,77.5616,163.091,101.655,101.667,0.00123295,0.0629427,20.9285,45.0915,-0.000872276,0.0,0.0
282,70.25,73.1075,77.2033,163.212,101.653,103.007,0.00120224,0.0627472,20.929,45.1015,-0.101115,0.0,0.0
284,70.75,73.1165,77.723,166.736,101.661,102.124,0.00117736,0.0625684,20.9295,45.1015,-0.0347145,0.0,0.0
286,71.25,72.7506,77.2117,163.383,101.663,102.667,0.00116413,0.0624922,20.9296,45.1015,-0.0751364,0.0,0.0
288,71.75,73.0051,76.7133,166.185,101.643,103.125,0.00114152,0.0623543,20.93,45.1015,-0.11056,0.0,0.0
290,72.25,72.3902,77.0567,164.547,101.663,103.294,0.00112844,0.0622357,20.9302,45.0915,-0.121608,0.0,0.0
292,72.75,72.6174,77.4282,166.429,101.656,103.291,0.00112256,0.0621397,20.9304,45.1116,-0.121863,0.0,0.0
294,73.25,72.8535,77.3008,159.767,101.664,102.467,0.00112566,0.0620043,20.9306,45.1116,-0.0601239,0.0,0.0
296,73.75,72.9209,77.1638,164.486,101.668,102.72,0.00113525,0.0618946,20.9307,45.1015,-0.0786781,0.0,0.0
298,74.25,72.9555,77.4574,171.605,101.675,102.387,0.00114826,0.0616761,20.9308,45.1015,-0.053319,0.0,0.0
300,74.75,72.9959,77.5168,166.229,101.665,101.699,0.00116352,0.0614991,20.9309,45.1116,-0.0025055,0.0,0.0
302,75.25,72.7284,77.0771,165.805,101.667,101.922,0.00117064,0.0612982,20.931,45.1516,-0.0191195,0.0,0.0
304,75.75,72.9501,77.011,167.039,101.68,102.055,0.00117168,0.0611354,20.931,45.1516,-0.028142,0.0,0.0
306,76.25,72.7311,77.065,162.538,101.687,102.263,0.00116401,0.0609891,20.9311,45.1316,-0.0431806,0.0,0.0
308,76.75,72.7338,77.2394,164.025,101.678,101.631,0.00115013,0.0608707,20.9311,45.1616,0.00352635,0.0,0.0
310,77.25,72.9106,76.8412,161.156,101.692,102.103,0.00113889,0.0607672,20.9311,45.1616,-0.0307994,0.0,0.0
312,77.75,72.9266,77.0541,163.107,101.687,102.691,0.00112192,0.0606765,20.9312,45.1716,-0.0750789,0.0,0.0
314,78.25,73.1758,77.1056,167.113,101.687,101.35,0.0011011,0.060603,20.9312,45.1916,0.0254076,0.0,0.0
316,78.75,72.7029,77.4142,161.899,101.685,103.099,0.00108358,0.0604715,20.9312,45.1516,-0.105487,0.0,0.0
318,79.25,72.7916,77.038,165.099,101.689,102.349,0.00106881,0.060365,20.9312,45.1316,-0.0494255,0.0,0.0
320,79.75,72.3638,77.1076,165.461,101.689,102.618,0.00105946,0.0602355,20.9312,45.0915,-0.0694547,0.0,0.0
322,80.25,72.7854,77.0288,165.846,101.699,102.618,0.00105424,0.0601307,20.9317,45.1316,-0.0687368,0.0,0.0
324,80.75,72.2043,77.4148,163.38,101.692,102.784,0.00105656,0.0599594,20.9321,45.1416,-0.0815663,0.0,0.0
326,81.25,72.3015,76.431,161.258,101.7,102.489,0.00106434,0.0598206,20.9324,45.1316,-0.0590594,0.0,0.0
328,81.75,72.4395,77.0601,164.972,101.697,102.222,0.00107064,0.0596794,20.9326,45.1116,-0.0393573,0.0,0.0
330,82.25,72.3463,76.9776,164.865,101.695,102.655,0.00108322,0.059565,20.9328,45.0915,-0.0718451,0.0,0.0
332,82.75,72.483,76.7007,167.022,101.705,103.339,0.0010934,0.0593716,20.933,45.1316,-0.121755,0.0,0.0
334,83.25,72.7966,76.8756,163.43,101.713,101.94,0.00109542,0.059215,20.9331,45.1516,-0.0170075,0.0,0.0
336,83.75,72.3073,76.7848,169.196,101.68,103.117,0.00109706,0.0590881,20.9332,45.1516,-0.107278,0.0,0.0
338,84.25,72.707,76.8471,163.181,101.708,102.503,0.00109839,0.0589626,20.9333,45.1316,-0.0594734,0.0,0.0
340,84.75,72.2934,76.6021,164.982,101.71,102.04,0.00109947,0.0588406,20.9333,45.1216,-0.0247383,0.0,0.0
342,85.25,72.4271,76.5799,166.118,101.704,102.643,0.00107918,0.0587416,20.9333,45.0915,-0.0702581,0.0,0.0
344,85.75,72.6763,76.5722,167.322,101.713,103.362,0.00106406,0.0585752,20.9333,45.1015,-0.12286,0.0,0.0
346,86.25,72.5732,76.758,163.058,101.724,103.076,0.00105299,0.0584404,20.9338,45.0815,-0.100908,0.0,0.0
348,86.75,72.5219,76.7765,164.543,101.706,103.432,0.00104403,0.058288,20.9341,45.1015,-0.128611,0.0,0.0
350,87.25,72.7271,76.6894,166.161,101.716,103.309,0.00103801,0.0581646,20.9344,45.1015,-0.118715,0.0,0.0
352,87.75,72.2957,76.471,161.561,101.719,101.929,0.00103314,0.0580344,20.9346,45.1116,-0.0157664,0.0,0.0
354,88.25,72.2235,76.3192,167.669,101.715,102.242,0.00101177,0.0579016,20.9348,45.1116,-0.0394484,0.0,0.0
356,88.75,72.2275,76.5601,161.851,101.728,102.512,0.000994467,0.0577638,20.935,45.1116,-0.058683,0.0,0.0
358,89.25,72.2602,76.3764,168.117,101.708,102.394,0.000962786,0.0576249,20.9351,45.1216,-0.0513694,0.0,0.0
360,89.75,72.0581,76.3114,167.678,101.724,102.092,0.000921225,0.0574973,20.9352,45.1015,-0.0276163,0.0,0.0
362,90.25,71.8868,76.2769,168.451,101.723,101.392,0.000867952,0.0573803,20.9353,45.1015,0.0249146,0.0,0.0
364,90.75,72.576,76.3225,161.161,101.738,102.796,0.000807153,0.0572855,20.9353,45.1015,-0.0790251,0.0,0.0
366,91.25,72.3683,76.5256,162.492,101.725,103.096,0.000736911,0.0571145,20.9354,45.0815,-0.102273,0.0,0.0
368,91.75,72.1147,76.1618,165.331,101.733,102.962,0.000662551,0.0570271,20.9355,45.0815,-0.0917133,0.0,0.0
370,92.25,72.3733,76.6757,164.611,101.714,102.453,0.00060232,0.056926,20.9355,45.1116,-0.0553419,0.0,0.0
372,92.75,71.8579,76.6301,163.025,101.726,102.198,0.000557448,0.0568169,20.9355,45.1116,-0.0353991,0.0,0.0
374,93.25,71.9978,76.6362,162.116,101.713,102.533,0.000524627,0.0566604,20.9355,45.1116,-0.0613644,0.0,0.0
376,93.75,72.1528,76.2532,164.765,101.737,102.097,0.000512407,0.0564723,20.9356,45.1116,-0.0269978,0.0,0.0
378,94.25,72.3211,76.5157,168.72,101.712,102.091,0.000515439,0.0562822,20.936,45.1116,-0.02843,0.0,0.0
380,94.75,71.9255,76.6279,163.321,101.733,102.347,0.000533578,0.0560941,20.9364,45.0815,-0.0459935,0.0,0.0
382,95.25,72.2833,76.5195,167.926,101.73,102.568,0.000562386,0.0559116,20.9367,45.0815,-0.0626345,0.0,0.0
384,95.75,72.1541,76.2381,163.376,101.739,102.053,0.000599454,0.0557364,20.9369,45.0915,-0.0235723,0.0,0.0
386,96.25,72.3292,76.4735,163.312,101.716,101.727,0.00064184,0.0555719,20.9376,45.0715,-0.000830368,0.0,0.0
388,96.75,71.5409,76.0714,163.484,101.742,101.777,0.000681406,0.0554182,20.9381,45.0315,-0.00259753,0.0,0.0
390,97.25,71.7304,76.4098,162.522,101.733,102.788,0.000718167,0.0552937,20.9385,45.0415,-0.078853,0.0,0.0
392,97.75,72.1279,75.4475,165.778,101.729,102.19,0.000747943,0.0551701,20.9389,45.0515,-0.034596,0.0,0.0
394,98.25,71.8824,76.2814,164.047,101.744,102.138,0.000768135,0.0550497,20.9391,45.0315,-0.0294793,0.0,0.0
396,98.75,71.8235,76.3025,158.259,101.727,102.005,0.000780958,0.0549596,20.9394,45.0115,-0.0208233,0.0,0.0
398,99.25,71.8259,76.031,166.013,101.733,101.935,0.000788727,0.0548935,20.9395,45.0014,-0.0151722,0.0,0.0
400,99.75,72.1064,76.1135,162.479,101.719,101.985,0.000792665,0.05484,20.9397,45.0415,-0.0200104,0.0,0.0
402,100.25,71.8876,76.2419,165.056,101.724,101.905,0.00079193,0.0547247,20.9398,45.0315,-0.0135974,0.0,0.0
404,100.75,71.7868,75.8825,164.241,101.72,102.293,0.000787803,0.0546314,20.9399,45.0115,-0.0429236,0.0,0.0
406,101.25,72.0364,75.6764,165.333,101.721,102.248,0.00078119,0.0545127,20.94,45.0215,-0.0394804,0.0,0.0
408,101.75,72.0232,76.0692,165.927,101.722,102.148,0.000772891,0.0544166,20.9401,45.0315,-0.0319437,0.0,0.0
410,102.25,71.8461,76.417,162.599,101.713,102.166,0.000766168,0.05431,20.9401,45.0215,-0.0339862,0.0,0.0
412,102.75,71.7257,76.0704,167.487,101.718,102.598,0.000755753,0.0542236,20.9401,45.0115,-0.0658102,0.0,0.0
414,103.25,71.9333,75.5513,166.984,101.723,101.961,0.000747316,0.0541159,20.9402,44.9914,-0.0178429,0.0,0.0
416,103.75,72.3986,76.0567,164.886,101.708,101.593,0.000741791,0.0539946,20.9402,45.0014,0.00863631,0.0,0.0
418,104.25,71.9462,75.702,164.046,101.696,102.026,0.000738492,0.0538358,20.9402,44.9914,-0.024768,0.0,0.0
420,104.75,72.2364,75.9172,163.212,101.715,102.257,0.00073582,0.0536528,20.9402,45.0014,-0.0406063,0.0,0.0
422,105.25,71.9205,75.3904,162.815,101.711,102.758,0.000743596,0.0535046,20.9403,45.0215,-0.0782534,0.0,0.0
424,105.75,71.9153,75.8105,163.563,101.708,102.375,0.000749894,0.0533702,20.9403,45.0315,-0.0499353,0.0,0.0
426,106.25,72.0657,76.0656,165.579,101.709,102.169,0.000763696,0.0532613,20.9403,45.0715,-0.0345109,0.0,0.0
428,106.75,71.9613,75.5436,165.023,101.711,102.319,0.000774876,0.0531731,20.9403,45.0715,-0.0455271,0.0,0.0
430,107.25,72.1828,75.8712,159.891,101.709,102.103,0.000783931,0.0530586,20.9403,45.0815,-0.0295433,0.0,0.0
432,107.75,71.7975,75.7731,164.467,101.705,102.75,0.000799773,0.0529659,20.9403,45.0815,-0.0781107,0.0,0.0
434,108.25,71.284,75.9191,159.398,101.695,103.137,0.000820261,0.0528378,20.9406,45.0815,-0.107565,0.0,0.0
436,108.75,71.4483,75.7198,165.956,101.707,103.052,0.000840783,0.0526865,20.9409,45.0815,-0.100434,0.0,0.0
438,109.25,71.9697,76.1165,160.184,101.701,102.776,0.000860941,0.052564,20.9411,45.0515,-0.0803174,0.0,0.0
440,109.75,71.8387,75.4495,163.626,101.695,101.877,0.000877269,0.0524647,20.9413,45.0515,-0.0136006,0.0,0.0
442,110.25,71.6612,75.9647,163.417,101.704,101.76,0.000890495,0.0523843,20.9419,45.0615,-0.00425163,0.0,0.0
444,110.75,71.946,76.1671,163.109,101.706,102.738,0.000899244,0.0522904,20.9423,45.0715,-0.0771826,0.0,0.0
446,111.25,71.8461,76.0127,164.78,101.704,102.385,0.000904564,0.0522144,20.9427,45.0415,-0.050993,0.0,0.0
448,111.75,71.8343,76.0484,165.169,101.687,102.637,0.000908873,0.0521098,20.943,45.0315,-0.071035,0.0,0.0
450,112.25,71.9494,75.5852,167.836,101.698,102.734,0.000912363,0.052025,20.9433,45.0215,-0.0774449,0.0,0.0
452,112.75,72.1266,75.9442,165.088,101.691,102.449,0.000897782,0.0519564,20.9435,45.0215,-0.0566789,0.0,0.0
454,113.25,71.4832,76.0568,159.871,101.701,102.097,0.000885972,0.0518003,20.9437,45.0014,-0.0296896,0.0,0.0
456,113.75,71.6911,76.2522,166.515,101.687,102.989,0.000851054,0.0515973,20.9438,45.0215,-0.0972276,0.0,0.0
458,114.25,72.0433,75.2683,164.07,101.696,102.397,0.000841661,0.0515284,20.9439,45.0115,-0.052492,0.0,0.0
460,114.75,72.065,75.856,160.242,101.683,102.242,0.000811934,0.0514106,20.944,45.0315,-0.0418414,0.0,0.0
462,115.25,72.0418,76.0951,162.876,101.704,101.931,0.000771706,0.0512745,20.9441,45.0515,-0.0170162,0.0,0.0
464,115.75,72.0156,75.6971,168.059,101.674,103.078,0.000744092,0.0512049,20.9441,45.0315,-0.104759,0.0,0.0
466,116.25,71.8091,76.2736,165.262,101.701,101.913,0.000732319,0.0511753,20.9442,45.0315,-0.0158974,0.0,0.0
468,116.75,71.7317,76.2498,161.338,101.677,102.501,0.000702256,0.0511246,20.9442,45.0515,-0.0617239,0.0,0.0
470,117.25,71.7772,76.0922,163.787,101.672,101.619,0.000677905,0.051091,20.9442,45.0415,0.00404442,0.0,0.0
472,117.75,71.7144,76.1939,165.907,101.667,101.551,0.000644527,0.0510707,20.9443,45.0415,0.0087646,0.0,0.0
474,118.25,72.3944,75.8955,165.76,101.674,103.02,0.000617491,0.0510542,20.9443,45.0515,-0.100566,0.0,0.0
476,118.75,71.9995,75.9047,167.289,101.676,101.84,0.000595591,0.0510695,20.9443,45.0815,-0.0123491,0.0,0.0
478,119.25,72.2865,76.2012,164.712,101.671,101.848,0.000555523,0.051082,20.9443,45.0815,-0.0132739,0.0,0.0
480,119.75,72.0813,75.8767,165.891,101.654,102.657,0.000523067,0.0511071,20.9443,45.0615,-0.0750384,0.0,0.0
482,120.25,71.8607,76.1695,161.106,101.666,102.364,0.00047818,0.0511411,20.9443,45.0715,-0.052288,0.0,0.0
484,120.75,71.9936,75.9418,169.141,101.66,102.308,0.00044182,0.0511611,20.9443,45.0615,-0.0485375,0.0,0.0
486,121.25,72.0137,76.1293,161.805,101.64,102.19,0.000393781,0.0511705,20.9443,45.0715,-0.0412373,0.0,0.0
488,121.75,71.9668,76.1848,162.612,101.64,101.534,0.000373301,0.0511518,20.9443,45.0615,0.00800844,0.0,0.0
490,122.25,71.4495,76.1405,162.825,101.652,101.797,0.0003197,0.0511199,20.9443,45.0515,-0.0108899,0.0,0.0
492,122.75,71.8497,76.3852,166.69,101.652,102.479,0.000276283,0.0510261,20.9443,45.0315,-0.0619218,0.0,0.0
494,123.25,71.5697,76.2291,169.144,101.64,102.162,0.000233296,0.0508889,20.9443,45.0515,-0.039122,0.0,0.0
496,123.75,71.9857,76.3607,165.819,101.633,101.928,0.000191438,0.0507325,20.9448,45.0215,-0.0221155,0.0,0.0
498,124.25,71.5666,76.0808,170.126,101.658,102.338,0.000154277,0.0505651,20.9452,45.0014,-0.050971,0.0,0.0
500,124.75,71.8592,76.1695,161.616,101.633,101.65,0.000121245,0.0504294,20.9455,45.0115,-0.00133009,0.0,0.0
502,125.25,71.3195,76.0464,163.853,101.633,102.452,9.44885e-05,0.0502335,20.9457,45.0115,-0.0612726,0.0,0.0
504,125.75,71.7726,75.6949,164.577,101.623,103.491,6.95588e-05,0.0500748,20.9459,45.0115,-0.139241,0.0,0.0
506,126.25,71.6972,75.9369,164.906,101.61,101.914,4.64343e-05,0.0499085,20.946,45.0115,-0.0228628,0.0,0.0
508,126.75,71.8905,75.9578,166.309,101.607,102.504,3.03092e-05,0.0497399,20.9462,44.9814,-0.0671867,0.0,0.0
510,127.25,71.8553,76.0589,165.215,101.59,102.151,1.95929e-05,0.0495504,20.9463,45.0215,-0.042134,0.0,0.0
512,127.75,71.7585,75.6039,159.996,101.599,102.307,1.61246e-05,0.0493494,20.9464,45.0115,-0.0530639,0.0,0.0
514,128.25,71.9551,75.4709,166.027,101.594,103.137,1.80059e-05,0.0491866,20.9464,45.0215,-0.115196,0.0,0.0
516,128.75,71.5456,76.0628,164.315,101.6,102.577,1.95298e-05,0.0489974,20.9465,45.0115,-0.0730935,0.0,0.0
518,129.25,71.5865,75.5109,164.508,101.586,101.884,3.56222e-05,0.0488441,20.9465,45.0115,-0.0223667,0.0,0.0
520,129.75,71.47,75.5889,166.467,101.593,102.177,4.8657e-05,0.04872,20.9466,45.0115,-0.0438132,0.0,0.0
522,130.25,71.6973,75.2153,164.589,101.57,101.689,5.92152e-05,0.0486051,20.9466,45.0315,-0.00895023,0.0,0.0
524,130.75,71.1355,75.3579,165.856,101.573,102.04,9.75015e-05,0.048512,20.9465,45.0315,-0.0350334,0.0,0.0
526,131.25,71.5866,75.7601,169.502,101.563,101.439,0.000128513,0.0484223,20.9464,45.0215,0.00932872,0.0,0.0
528,131.75,71.6482,75.5605,165.044,101.581,101.794,0.000169749,0.0483496,20.9462,45.0415,-0.0159613,0.0,0.0
530,132.25,71.609,75.4948,168.912,101.566,101.979,0.00020315,0.0482304,20.9461,45.0315,-0.0310509,0.0,0.0
532,132.75,71.6255,75.3097,166.43,101.56,102.178,0.000230205,0.0480795,20.946,45.0315,-0.0463812,0.0,0.0
534,133.25,71.4825,75.3477,161.49,101.552,102.393,0.00025832,0.0479573,20.946,45.0515,-0.0629895,0.0,0.0
536,133.75,69.7845,75.8692,162.168,101.554,101.821,0.000281092,0.0478131,20.9459,45.0415,-0.020067,0.0,0.0
538,134.25,71.5345,75.4205,167.516,101.509,102.548,0.000294578,0.0476555,20.9459,45.0415,-0.0778466,0.0,0.0
540,134.75,71.6909,75.6713,164.471,101.533,102.436,0.000305501,0.0475203,20.9458,45.0615,-0.0676628,0.0,0.0
542,135.25,71.1526,75.4134,167.752,101.524,101.712,0.000316306,0.047404,20.9461,45.0615,-0.014155,0.0,0.0
544,135.75,71.3323,75.6651,164.782,101.526,102.29,0.000326821,0.0473099,20.9464,45.0715,-0.0573053,0.0,0.0
546,136.25,71.4479,75.5314,165.453,101.495,102.673,0.000340299,0.0472336,20.9467,45.0515,-0.0882227,0.0,0.0
548,136.75,71.509,75.5419,163.108,101.495,101.628,0.000351216,0.0471642,20.947,45.0215,-0.00999135,0.0,0.0
550,137.25,71.3171,75.5359,167.036,101.505,101.673,0.000360059,0.0471013,20.9472,45.0014,-0.0126457,0.0,0.0
552,137.75,71.5288,75.695,164.911,101.497,102.02,0.000367222,0.0470578,20.9473,44.9914,-0.0392566,0.0,0.0
554,138.25,71.3778,75.4052,165.431,101.475,100.363,0.000364342,0.0470294,20.9475,45.0014,0.0842234,0.0,0.0
556,138.75,71.248,75.4966,163.147,101.486,101.131,0.00036201,0.0470064,20.9476,45.0014,0.0267721,0.0,0.0