File: 01_Data/Feather_Pillow_Feathers/Cone/Feather_Pillow_Feathers_Cone_HF75Scan_230710_R3.csv
Names,Time,Stack TC,Smoke TC,Exh Press,Smoke Comp,Smoke Meas,CO Meter,CO2 Meter,O2 Meter,Sample Mass,Ext Coeff,Start Test,Flame Verif
Chan Gain,,500,500,1,1,1,1,1,1,1,1,1.0,1.0
Offset,,0,0,0.18266,0,0,0,0,0,0,0,0.0,0.0
Gain,,1,1,25.011,12.9494,73.1405,1,1,1,1.00092,0.871134,1.0,1.0
Units,sec,C,C,Pa,%,%,%,%,%,g,/m,,
Baseline,,67.8388,71.1797,167.304,99.8215,100.175,0.000226445,0.0440013,20.9515,-448.532,-0.0269346,,
2,0.25,65.937,67.6052,173.938,99.8659,99.2825,-0.000262534,0.0470285,20.9472,47.6839,0.0447662,0.0,0.0
4,0.75,65.347,67.5133,168.348,99.8497,96.3429,-0.000228229,0.047364,20.9469,47.6139,0.2732,0.0,0.0
6,1.25,65.962,67.2071,173.66,99.8671,90.5574,-0.000191061,0.047583,20.9462,47.6039,0.747772,0.0,0.0
8,1.75,65.8666,67.6167,163.608,99.8722,97.209,-0.000156394,0.0477128,20.9456,47.4937,0.20654,0.0,1.0
10,2.25,66.1369,68.1777,148.283,99.8845,101.178,-0.00012421,0.0478179,20.9451,47.3336,-0.0982942,0.0,1.0
12,2.75,65.9016,68.7338,144.965,99.8686,102.153,-9.81413e-05,0.0477975,20.9447,47.2735,-0.172819,0.0,1.0
14,3.25,66.3327,69.7468,144.128,99.8943,101.765,-7.70255e-05,0.0476859,20.9444,47.1134,-0.141746,0.0,1.0
16,3.75,66.7322,71.4497,142.288,99.871,101.224,-6.61103e-05,0.0475955,20.9444,47.0834,-0.102861,0.0,1.0
18,4.25,67.6406,71.2071,138.737,99.9121,100.421,-5.7269e-05,0.0473216,20.9446,46.8131,-0.0388148,0.0,1.0
20,4.75,68.0733,74.3632,137.778,99.9109,101.329,-5.01076e-05,0.0470998,20.9448,46.633,-0.107723,0.0,1.0
22,5.25,68.9285,75.4453,144.356,99.9236,100.341,-4.43068e-05,0.0468523,20.9449,46.6129,-0.0318216,0.0,1.0
24,5.75,69.3919,76.5913,141.186,99.9117,98.2915,-2.84673e-05,0.0465908,20.945,46.4728,0.124934,0.0,1.0
26,6.25,69.3619,78.4121,138.87,99.9279,99.3785,-1.56374e-05,0.0463714,20.9451,46.3227,0.0421285,0.0,1.0
28,6.75,70.45,79.5202,132.24,99.9346,99.8473,6.48688e-06,0.0461869,20.9451,46.2826,0.00668429,0.0,0.0
30,7.25,71.1787,81.5382,144.356,99.9493,98.4946,3.49663e-05,0.0460676,20.9452,46.1926,0.11203,0.0,0.0
32,7.75,71.8937,82.7153,141.686,99.952,96.9433,8.28177e-05,0.0459981,20.9452,46.0824,0.233554,0.0,0.0
34,8.25,72.7082,83.8572,140.039,99.9678,95.3318,0.000121577,0.0463287,20.9453,45.9623,0.362861,0.0,0.0
36,8.75,72.4706,84.953,148.374,99.9536,95.2626,0.000177773,0.0465965,20.9453,45.8422,0.367321,0.0,0.0
38,9.25,73.3503,86.1625,142.057,99.9868,91.3922,0.000223291,0.0500163,20.9453,45.7922,0.686808,0.0,0.0
40,9.75,74.0884,87.1876,142.316,99.9813,90.765,0.000260161,0.055669,20.9454,45.7722,0.739009,0.0,0.0
42,10.25,74.8503,87.4146,148.386,99.9935,88.5552,0.000363284,0.0602477,20.9449,45.642,0.928287,0.0,0.0
44,10.75,75.004,88.4354,144.904,99.9912,88.0909,0.000446813,0.0842706,20.9446,45.5119,0.968274,0.0,0.0
46,11.25,75.1768,89.4807,147.308,100.029,88.0798,0.000591611,0.103729,20.9443,45.4919,0.97214,0.0,0.0
48,11.75,75.5687,89.818,149.396,100.006,84.7227,0.000708898,0.119491,20.9436,45.4519,1.26733,0.0,0.0
50,12.25,76.3558,90.3367,146.177,100.018,84.4928,0.0008039,0.166117,20.9426,45.3418,1.289,0.0,0.0
52,12.75,76.837,91.1566,149.564,100.018,82.4505,0.000962964,0.203885,20.9369,45.2517,1.47595,0.0,0.0
54,13.25,76.9351,91.889,149.312,100.017,82.8255,0.00116571,0.24453,20.9325,45.2317,1.44124,0.0,0.0
56,13.75,77.7421,91.9314,147.139,100.02,81.2452,0.00138134,0.286502,20.925,45.2016,1.58869,0.0,0.0
58,14.25,77.966,92.5767,147.184,100.036,82.2898,0.00160227,0.325736,20.8835,45.1416,1.49225,0.0,0.0
60,14.75,78.4346,92.7013,148.44,100.034,81.6269,0.0018341,0.362228,20.85,45.1015,1.55394,0.0,0.0
62,15.25,78.6144,93.457,147.535,100.037,79.8635,0.00206946,0.391786,20.788,45.0515,1.72106,0.0,0.0
64,15.75,78.6719,93.5067,151.974,100.047,75.7096,0.0022601,0.420989,20.7377,44.9914,2.12998,0.0,0.0
66,16.25,78.9243,93.6306,154.371,100.05,83.7585,0.00250768,0.444643,20.6666,44.9814,1.35818,0.0,0.0
68,16.75,79.1474,93.9611,146.194,100.048,80.2274,0.00270822,0.464262,20.609,44.9714,1.68717,0.0,0.0
70,17.25,79.6942,93.9869,149.849,100.043,85.6647,0.00294509,0.480568,20.5624,44.9914,1.18568,0.0,0.0
72,17.75,79.5473,94.3316,153.245,100.077,91.5931,0.00320395,0.493775,20.509,44.9114,0.676943,0.0,0.0
74,18.25,79.6601,94.5568,151.843,100.084,92.3163,0.00349035,0.502768,20.4657,44.9314,0.617388,0.0,0.0
76,18.75,79.9469,94.4245,164.237,100.082,95.9724,0.00379138,0.510052,20.4235,44.9514,0.320377,0.0,0.0
78,19.25,79.922,93.9959,158.386,100.072,99.1643,0.00414042,0.513471,20.3893,44.9714,0.0696149,0.0,0.0
80,19.75,80.0347,93.999,161.347,100.09,99.575,0.00433906,0.514929,20.3598,45.0014,0.0394202,0.0,0.0
82,20.25,79.7997,92.9051,162.121,100.099,100.45,0.00479934,0.515874,20.3473,45.0014,-0.0267693,0.0,0.0
84,20.75,79.2114,93.089,158.508,100.084,100.416,0.00528073,0.516359,20.3258,45.0014,-0.0253388,0.0,0.0
86,21.25,79.9346,92.9482,163.428,100.099,100.278,0.00580014,0.516499,20.3084,45.0215,-0.013654,0.0,0.0
88,21.75,79.6036,92.5165,159.051,100.12,100.76,0.00656644,0.514728,20.2883,45.0315,-0.048676,0.0,0.0
90,22.25,79.6171,91.51,161.148,100.118,100.394,0.00677258,0.513947,20.2829,45.0115,-0.0210754,0.0,0.0
92,22.75,79.4393,91.5125,161.491,100.124,100.472,0.00735443,0.512612,20.2736,45.0215,-0.0265668,0.0,0.0
94,23.25,79.3169,91.0985,162.976,100.111,100.724,0.00782574,0.508197,20.2661,45.0315,-0.0467212,0.0,0.0
96,23.75,79.1877,90.3301,160.782,100.129,100.669,0.00820749,0.501621,20.2605,45.0415,-0.041039,0.0,0.0
98,24.25,78.6265,89.5956,163.221,100.132,101.055,0.00870952,0.493232,20.256,45.0315,-0.0701138,0.0,0.0
100,24.75,78.631,89.125,165.594,100.137,100.307,0.00911615,0.483681,20.2545,45.0415,-0.0129386,0.0,0.0
102,25.25,78.5648,88.812,159.508,100.131,99.5928,0.00945206,0.472209,20.2533,45.0315,0.0412171,0.0,0.0
104,25.75,77.8839,88.7646,160.572,100.15,100.227,0.00972414,0.459554,20.2552,45.0415,-0.00587965,0.0,0.0
106,26.25,78.3469,88.8411,165.307,100.138,100.131,0.00982195,0.449303,20.2592,45.0215,0.000536525,0.0,0.0
108,26.75,78.278,88.1016,165.729,100.163,100.454,0.00990118,0.426138,20.2668,45.0215,-0.0222233,0.0,0.0
110,27.25,77.8161,87.9823,163.737,100.162,100.863,0.0097472,0.407374,20.2767,45.0215,-0.0532625,0.0,0.0
112,27.75,77.7576,87.4017,160.358,100.159,100.2,0.00962247,0.378687,20.2903,45.0415,-0.00311332,0.0,0.0
114,28.25,77.9786,87.8569,164.143,100.165,100.99,0.00927874,0.35545,20.3065,45.0215,-0.0627144,0.0,0.0
116,28.75,77.9859,87.4509,167.007,100.182,101.015,0.00900032,0.324797,20.3299,45.0615,-0.0632462,0.0,0.0
118,29.25,78.0652,87.0013,160.204,100.15,100.562,0.00851055,0.299969,20.3582,45.0315,-0.031334,0.0,0.0
120,29.75,78.0545,87.11,163.975,100.168,100.097,0.00811385,0.27496,20.3811,45.0515,0.00541363,0.0,0.0
122,30.25,77.5004,86.3055,160.769,100.155,101.798,0.00779251,0.250295,20.4198,45.0415,-0.124364,0.0,0.0
124,30.75,77.7995,86.7723,161.907,100.158,100.747,0.00723805,0.230316,20.4596,45.0315,-0.0448256,0.0,0.0
126,31.25,77.6236,86.406,163.557,100.16,100.941,0.00678894,0.210873,20.4994,45.0014,-0.0593899,0.0,0.0
128,31.75,77.4887,85.6517,164.228,100.17,100.972,0.00634252,0.192191,20.5317,45.0215,-0.0609416,0.0,0.0
130,32.25,77.1382,85.1336,163.361,100.175,100.37,0.00590657,0.175968,20.5704,45.0115,-0.0148642,0.0,0.0
132,32.75,77.548,85.3025,161.415,100.184,100.472,0.00551557,0.161846,20.6017,45.0014,-0.0219839,0.0,0.0
134,33.25,77.128,85.0763,163.342,100.165,100.584,0.00516478,0.150408,20.6332,44.9914,-0.0318838,0.0,0.0
136,33.75,77.0332,84.9303,169.309,100.172,101.738,0.00488064,0.139694,20.6642,45.0415,-0.118543,0.0,0.0
138,34.25,76.6817,84.5332,160.061,100.155,101.039,0.00459882,0.131016,20.6893,45.0115,-0.0671532,0.0,0.0
140,34.75,77.2177,84.6129,161.246,100.172,101.055,0.00437055,0.123986,20.7125,45.0415,-0.0670383,0.0,0.0
142,35.25,77.0986,84.3705,168.476,100.172,100.474,0.00418564,0.117286,20.7338,45.0615,-0.0230583,0.0,0.0
144,35.75,77.0012,84.3326,162.443,100.184,101.399,0.00400188,0.111859,20.7533,44.9714,-0.0920826,0.0,0.0
146,36.25,76.7046,83.6686,165.188,100.185,100.358,0.00385304,0.107279,20.7711,45.0014,-0.0132301,0.0,0.0
148,36.75,76.5322,83.7699,165.593,100.182,101.157,0.00372916,0.103404,20.7856,44.9914,-0.0740753,0.0,0.0
150,37.25,76.8422,83.7733,161.224,100.175,100.274,0.00362584,0.100265,20.8009,44.9714,-0.00749343,0.0,0.0
152,37.75,76.7981,83.4595,161.674,100.19,100.914,0.00354215,0.0975037,20.8132,44.9814,-0.0550712,0.0,0.0
154,38.25,76.3817,83.0699,165.87,100.177,101.12,0.00346305,0.0952673,20.8247,44.9914,-0.0715692,0.0,0.0
156,38.75,76.702,82.7947,162.296,100.18,101.2,0.00339897,0.0932186,20.8352,44.9514,-0.0773681,0.0,0.0
158,39.25,76.2839,82.9948,164.11,100.183,100.474,0.00334309,0.0913455,20.8437,44.9314,-0.0222141,0.0,0.0
160,39.75,76.4634,83.0732,166.036,100.192,100.771,0.00329426,0.0896066,20.8524,44.9114,-0.0440651,0.0,0.0
162,40.25,76.4659,82.5312,166.23,100.181,101.314,0.00324339,0.0879985,20.8599,44.9414,-0.085899,0.0,0.0
164,40.75,76.6652,82.8361,163.076,100.191,100.858,0.00320219,0.0866042,20.8665,44.9614,-0.0507536,0.0,0.0
166,41.25,76.3898,82.5544,164.947,100.175,100.24,0.00316021,0.0853923,20.8717,44.9614,-0.00494118,0.0,0.0
168,41.75,76.3154,82.5216,163.372,100.174,101.086,0.00311848,0.0844412,20.8769,44.9714,-0.0692506,0.0,0.0
170,42.25,76.0002,82.2283,161.943,100.189,101.823,0.00308202,0.0836983,20.8811,44.9114,-0.123584,0.0,0.0
172,42.75,76.3872,82.0309,164.724,100.179,101.251,0.00305012,0.0831654,20.8854,44.8913,-0.0813642,0.0,0.0
174,43.25,75.8274,81.7418,162.636,100.182,99.2156,0.00302427,0.0827956,20.8888,44.9114,0.0740746,0.0,0.0
176,43.75,76.1896,82.1676,163.123,100.176,100.997,0.00300459,0.0824961,20.8916,44.9514,-0.062347,0.0,0.0
178,44.25,75.4181,82.1786,166.684,100.172,100.789,0.00298865,0.0821695,20.8939,44.9314,-0.0469568,0.0,0.0
180,44.75,75.8897,81.7905,165.691,100.168,101.01,0.00297574,0.0818292,20.8958,44.9214,-0.0639631,0.0,0.0
182,45.25,75.993,81.799,162.422,100.193,101.416,0.00294142,0.0815536,20.8977,44.9414,-0.0927354,0.0,0.0
184,45.75,75.9392,81.3497,163.699,100.175,100.7,0.00291362,0.0810401,20.8993,44.9414,-0.0399429,0.0,0.0
186,46.25,75.6005,81.5691,163.293,100.19,101.113,0.00286224,0.0806241,20.9005,44.9214,-0.0700384,0.0,0.0
188,46.75,75.9927,81.4517,162.528,100.182,100.87,0.00282061,0.0802032,20.9016,44.9314,-0.052293,0.0,0.0
190,47.25,75.8704,81.4893,166.164,100.189,100.758,0.00274803,0.0797867,20.9026,44.9414,-0.0432905,0.0,0.0
192,47.75,75.8789,81.4433,163.057,100.172,101.088,0.00268923,0.0794036,20.9037,44.9214,-0.0695999,0.0,0.0
194,48.25,75.6636,81.2953,163.359,100.176,101.809,0.0026271,0.079052,20.9048,44.9214,-0.123544,0.0,0.0
196,48.75,75.4571,80.958,161.627,100.18,100.559,0.00256372,0.0787962,20.9059,44.9114,-0.028873,0.0,0.0
198,49.25,75.5353,80.6548,164.676,100.186,100.693,0.00248859,0.078589,20.9068,44.8913,-0.0385914,0.0,0.0
200,49.75,75.1319,81.0181,166.731,100.168,100.8,0.00242774,0.0784502,20.9076,44.9014,-0.0480741,0.0,0.0
202,50.25,75.4814,80.8405,165.536,100.191,99.9298,0.00236969,0.0783378,20.9082,44.8913,0.0199527,0.0,0.0
204,50.75,75.5331,80.9201,165.24,100.177,101.434,0.00232267,0.0782314,20.9086,44.9014,-0.0953157,0.0,0.0
206,51.25,74.9677,80.7762,163.186,100.184,100.669,0.00228458,0.0781316,20.909,44.8913,-0.0368479,0.0,0.0
208,51.75,75.3523,80.7517,160.1,100.169,100.526,0.00226249,0.0780507,20.9093,44.8813,-0.027172,0.0,0.0
210,52.25,75.2943,80.1149,162.322,100.173,101.242,0.0022446,0.0779012,20.9096,44.8913,-0.0811423,0.0,0.0
212,52.75,75.3751,80.6076,158.828,100.176,101.01,0.0022276,0.0777046,20.91,44.8913,-0.0633904,0.0,0.0
214,53.25,75.3655,80.468,169.475,100.187,100.374,0.00221383,0.0773859,20.9106,44.8813,-0.0142691,0.0,0.0
216,53.75,75.3005,80.3146,163.412,100.171,100.287,0.00219544,0.0771278,20.9111,44.8713,-0.00881525,0.0,0.0
218,54.25,75.3401,80.2093,163.707,100.192,100.401,0.00216488,0.0765688,20.9116,44.8313,-0.0159467,0.0,0.0
220,54.75,75.3047,79.8592,164.45,100.193,100.615,0.00213176,0.0762051,20.9119,44.8413,-0.032118,0.0,0.0
222,55.25,75.3668,80.5461,160.201,100.169,100.582,0.00210493,0.0758267,20.9121,44.8413,-0.031383,0.0,0.0
224,55.75,74.9067,80.0743,163.544,100.167,100.354,0.00206444,0.0754448,20.9125,44.8613,-0.0142175,0.0,0.0
226,56.25,74.8442,79.9604,165.209,100.175,99.4142,0.00203165,0.0750897,20.913,44.8713,0.0582164,0.0,0.0
228,56.75,74.6278,79.9398,163.881,100.175,100.622,0.00199916,0.0747609,20.9135,44.8813,-0.033983,0.0,0.0
230,57.25,74.9364,80.0434,162.671,100.178,99.9455,0.00196753,0.0744946,20.9138,44.8813,0.0177336,0.0,0.0
232,57.75,74.9363,79.9117,160.319,100.186,100.256,0.0019419,0.0742789,20.9141,44.8813,-0.00534818,0.0,0.0
234,58.25,74.8956,79.6969,164.68,100.184,100.702,0.00192114,0.0739671,20.9144,44.8513,-0.0394195,0.0,0.0
236,58.75,74.8111,79.3052,166.514,100.18,100.477,0.00190433,0.0735911,20.9146,44.8813,-0.0226248,0.0,0.0
238,59.25,74.6578,79.4997,168.174,100.185,100.345,0.00185948,0.0732866,20.9147,44.8813,-0.0122109,0.0,0.0
240,59.75,74.8659,79.7159,162.41,100.194,100.707,0.001812,0.0727941,20.9148,44.8913,-0.0389741,0.0,0.0
242,60.25,74.7437,79.6608,159.712,100.175,100.47,0.00176348,0.0723951,20.9152,44.8713,-0.0224471,0.0,0.0
244,60.75,74.8003,79.5766,166.552,100.195,100.24,0.00172418,0.0718696,20.9157,44.8613,-0.00343411,0.0,0.0
246,61.25,74.8495,79.7943,167.262,100.172,100.666,0.00166616,0.0714439,20.9161,44.8713,-0.0376132,0.0,0.0
248,61.75,74.512,79.9072,163.766,100.187,101.057,0.00161916,0.070969,20.9164,44.8813,-0.0660615,0.0,0.0
250,62.25,74.2989,79.1362,157.976,100.17,100.169,0.00156987,0.0705844,20.9169,44.8613,0.000113867,0.0,0.0
252,62.75,74.8761,79.0491,162.364,100.172,101.363,0.00151292,0.0701834,20.9177,44.8613,-0.090325,0.0,0.0
254,63.25,74.4806,79.5064,167.814,100.173,100.291,0.00150088,0.0700823,20.918,44.8613,-0.00900449,0.0,0.0
256,63.75,75.1408,79.4238,165.969,100.171,100.74,0.0014803,0.0699171,20.9184,44.8213,-0.043263,0.0,0.0
258,64.25,74.5118,79.1991,167.713,100.165,100.606,0.00147413,0.0697901,20.9187,44.8413,-0.0336101,0.0,0.0
260,64.75,74.57,79.6325,165.096,100.173,101.307,0.00147858,0.0696873,20.9194,44.8613,-0.0859967,0.0,0.0
262,65.25,74.3743,79.2245,163.021,100.143,101.727,0.00148218,0.0694739,20.92,44.8913,-0.119875,0.0,0.0
264,65.75,74.7104,79.2639,160.958,100.166,101.615,0.0014943,0.0693011,20.9204,44.9014,-0.109738,0.0,0.0
266,66.25,74.8386,79.439,163.344,100.15,101.419,0.00151238,0.0690927,20.9208,44.9014,-0.0961588,0.0,0.0
268,66.75,74.2456,79.0801,163.405,100.173,101.222,0.00153826,0.0688623,20.9211,44.9014,-0.0795967,0.0,0.0
270,67.25,74.2956,78.9776,166.084,100.164,100.885,0.00155923,0.0686757,20.9214,44.9314,-0.0548029,0.0,0.0
272,67.75,74.5331,78.9643,162.467,100.159,100.863,0.00157884,0.068409,20.9216,44.8813,-0.0535336,0.0,0.0
274,68.25,73.8659,79.4809,170.844,100.151,101.345,0.00159709,0.068193,20.9217,44.8913,-0.0905467,0.0,0.0
276,68.75,74.2922,78.8013,161.683,100.163,101.178,0.0016099,0.0679314,20.9219,44.8413,-0.0770395,0.0,0.0
278,69.25,74.2893,79.3498,164.806,100.155,100.689,0.0016185,0.0677195,20.922,44.7913,-0.0406338,0.0,0.0
280,69.75,74.5716,79.4788,169.521,100.172,100.941,0.00162087,0.0674179,20.9221,44.8113,-0.0584255,0.0,0.0
282,70.25,74.568,78.6739,164.189,100.163,100.829,0.00161865,0.0671737,20.9221,44.7913,-0.0506358,0.0,0.0
284,70.75,74.205,78.6492,160.904,100.159,101.111,0.00161685,0.0668892,20.9222,44.8113,-0.0722516,0.0,0.0
286,71.25,74.0622,78.7687,163.944,100.152,101.216,0.00160541,0.0666588,20.9225,44.8013,-0.0807483,0.0,0.0
288,71.75,74.6166,78.4679,161.751,100.156,101.2,0.00159615,0.0664722,20.9229,44.8313,-0.0792671,0.0,0.0
290,72.25,74.7305,78.0843,163.531,100.156,101.519,0.00157945,0.066321,20.9233,44.8513,-0.103301,0.0,0.0
292,72.75,74.3015,78.5752,157.621,100.162,101.686,0.00155765,0.0662214,20.9236,44.8413,-0.115439,0.0,0.0
294,73.25,74.6883,78.3944,163.008,100.175,101.059,0.0015354,0.0661612,20.9238,44.8213,-0.067195,0.0,0.0
296,73.75,74.4699,78.9061,167.226,100.177,100.653,0.00151325,0.0660896,20.924,44.7612,-0.0362342,0.0,0.0
298,74.25,74.1168,78.9517,173.361,100.165,100.2,0.0014953,0.0660112,20.9241,44.7512,-0.00263171,0.0,0.0
300,74.75,74.063,78.7768,162.236,100.165,101.521,0.0014658,0.0659476,20.9243,44.7712,-0.102745,0.0,0.0
302,75.25,73.5727,78.1521,164.083,100.163,101.041,0.00144191,0.065723,20.9244,44.7913,-0.0666886,0.0,0.0
304,75.75,74.2953,78.2776,162.506,100.167,101.066,0.00140512,0.065541,20.9249,44.8113,-0.0683038,0.0,0.0
306,76.25,74.1451,78.1441,160.755,100.165,100.055,0.00136875,0.0652494,20.9253,44.8013,0.00844067,0.0,0.0
308,76.75,74.0514,78.2683,164.963,100.137,100.825,0.0013334,0.0650132,20.9257,44.8213,-0.0523476,0.0,0.0
310,77.25,74.1342,77.7944,159.501,100.156,99.7379,0.00130477,0.0646057,20.9259,44.8113,0.0319926,0.0,0.0
312,77.75,73.9916,78.3892,167.384,100.162,100.419,0.00128531,0.0642755,20.9262,44.8513,-0.0195665,0.0,0.0
314,78.25,74.2477,78.5631,164.721,100.161,100.966,0.00126283,0.0636923,20.9263,44.8613,-0.061128,0.0,0.0
316,78.75,73.9806,78.3797,161.503,100.169,99.345,0.00125678,0.0635037,20.9265,44.8813,0.0630857,0.0,0.0
318,79.25,73.957,78.405,162.928,100.156,99.9745,0.00125516,0.0631812,20.9266,44.8613,0.0138565,0.0,0.0
320,79.75,73.6514,78.6181,163.257,100.163,101.115,0.00125384,0.0628911,20.9267,44.8313,-0.0722874,0.0,0.0
322,80.25,73.9436,78.683,162.514,100.156,99.9566,0.0012478,0.0626561,20.9268,44.7913,0.0151921,0.0,0.0
324,80.75,73.139,78.6388,162.783,100.154,100.836,0.0012429,0.0624658,20.9271,44.8213,-0.051867,0.0,0.0
326,81.25,73.931,78.1853,163.615,100.163,100.934,0.00123893,0.062254,20.9275,44.78125,-0.0586417,0.0,0.0
328,81.75,74.0742,78.3679,165.192,100.171,100.791,0.00121082,0.0620825,20.9281,44.78125,-0.0471859,0.0,0.0
330,82.25,73.6359,78.1588,162.201,100.165,100.497,0.00118804,0.0618427,20.9288,44.8013,-0.0252378,0.0,0.0
332,82.75,73.7584,78.2514,160.06,100.168,100.582,0.00114471,0.0616485,20.9293,44.7612,-0.0314731,0.0,0.0
334,83.25,73.7556,78.3565,166.057,100.159,100.233,0.00110961,0.0614335,20.9297,44.7913,-0.00569687,0.0,0.0
336,83.75,74.1046,78.0683,160.197,100.161,101.55,0.00105755,0.0612594,20.9303,44.7913,-0.105231,0.0,0.0
338,84.25,74.1859,78.0236,163.489,100.175,100.74,0.00101538,0.0611328,20.9309,44.78125,-0.042991,0.0,0.0
340,84.75,73.7402,78.5277,162.453,100.165,100.767,0.00097338,0.0610303,20.9315,44.8013,-0.0457466,0.0,0.0
342,85.25,73.8097,77.5834,167.439,100.164,99.8919,0.000932292,0.0609472,20.9319,44.7712,0.0207749,0.0,0.0
344,85.75,73.7773,78.4122,165.553,100.173,99.9031,0.00089901,0.0608381,20.9323,44.7612,0.0206441,0.0,0.0
346,86.25,73.9905,78.2269,162.593,100.183,100.091,0.000870734,0.0607497,20.9326,44.7712,0.00707019,0.0,0.0
348,86.75,73.8681,78.4097,167.174,100.151,100.035,0.000846645,0.060678,20.933,44.7712,0.00886014,0.0,0.0
350,87.25,73.7679,78.295,162.543,100.181,100.602,0.00082844,0.060548,20.9333,44.78125,-0.032005,0.0,0.0
352,87.75,73.7624,78.0942,162.568,100.167,100.89,0.000814871,0.0604427,20.9336,44.8013,-0.0549001,0.0,0.0
354,88.25,73.67,78.0124,163.756,100.187,100.736,0.000803881,0.0602855,20.9338,44.7712,-0.0417479,0.0,0.0
356,88.75,73.6179,77.9916,161.222,100.171,100.122,0.000801192,0.0601581,20.934,44.7913,0.00378038,0.0,0.0
358,89.25,73.6279,77.8017,164.312,100.182,100.628,0.000799014,0.0600117,20.9341,44.8013,-0.0340086,0.0,0.0
360,89.75,73.5753,78.2405,163.589,100.165,101.934,0.000798493,0.0598931,20.9342,44.8013,-0.133824,0.0,0.0
362,90.25,74.0993,77.9328,162.635,100.177,101.428,0.00079807,0.0597683,20.9343,44.8313,-0.0948117,0.0,0.0
364,90.75,73.8008,77.8913,163.725,100.168,100.905,0.000791514,0.0596672,20.9344,44.8213,-0.0560531,0.0,0.0
366,91.25,73.4461,77.881,161.609,100.163,101.825,0.000786203,0.0595247,20.9344,44.78125,-0.125712,0.0,0.0
368,91.75,73.8004,78.3065,165.406,100.165,101.532,0.000774447,0.0593547,20.9347,44.7612,-0.103586,0.0,0.0
370,92.25,73.7978,77.9401,166.017,100.175,100.459,0.000764924,0.0591791,20.9352,44.7612,-0.0216285,0.0,0.0
372,92.75,73.228,78.2466,163.461,100.169,100.564,0.00075721,0.0590029,20.9355,44.7712,-0.0300266,0.0,0.0
374,93.25,73.651,77.8115,160.854,100.161,100.459,0.000755933,0.0588601,20.9358,44.7913,-0.022654,0.0,0.0
376,93.75,73.8631,77.6277,164.763,100.165,100.8,0.000754898,0.0585718,20.936,44.7913,-0.0483455,0.0,0.0
378,94.25,73.5506,77.9318,165.704,100.176,100.365,0.000768973,0.0583383,20.9362,44.7712,-0.0143736,0.0,0.0
380,94.75,73.2429,77.825,161,100.158,100.796,0.000780374,0.0580961,20.9364,44.7612,-0.048489,0.0,0.0
382,95.25,73.4092,77.8723,168.361,100.156,100.646,0.000798116,0.0578523,20.9365,44.7612,-0.0373244,0.0,0.0
384,95.75,73.5854,77.4988,160.755,100.169,101.175,0.000820144,0.0576548,20.9366,44.7913,-0.0764185,0.0,0.0
386,96.25,73.5659,77.5105,162.918,100.184,101.443,0.000837986,0.0574661,20.9367,44.7913,-0.0954758,0.0,0.0
388,96.75,73.421,77.5688,161.753,100.175,101.231,0.000852438,0.0573132,20.9368,44.7913,-0.0801494,0.0,0.0
390,97.25,73.3754,77.245,161.266,100.169,100.894,0.000862181,0.0571031,20.9368,44.7913,-0.0551474,0.0,0.0
392,97.75,73.2355,77.8221,166.633,100.178,100.97,0.000868306,0.0569026,20.9369,44.8113,-0.0601391,0.0,0.0
394,98.25,73.3694,77.772,165.029,100.171,100.066,0.000873267,0.056713,20.9369,44.8113,0.00801117,0.0,0.0
396,98.75,73.6579,77.4645,165.346,100.178,100.604,0.000868582,0.0565594,20.9374,44.8113,-0.0324153,0.0,0.0
398,99.25,73.6048,78.0628,160.744,100.188,100.084,0.000864787,0.0563745,20.9378,44.8213,0.00794383,0.0,0.0
400,99.75,73.0648,77.9953,159.26,100.162,101.604,0.000861713,0.0561702,20.9381,44.8313,-0.1092,0.0,0.0
402,100.25,73.0474,77.2911,167.463,100.164,101.079,0.000844308,0.0560048,20.9383,44.8213,-0.0694979,0.0,0.0
404,100.75,73.523,77.521,159.308,100.186,101.122,0.000830209,0.055727,20.9385,44.8213,-0.0710451,0.0,0.0
406,101.25,73.7561,77.45,162.662,100.188,100.24,0.000801515,0.0555021,20.9387,44.8113,-0.00400646,0.0,0.0
408,101.75,72.9039,77.533,162.6,100.181,101.048,0.000793796,0.0552669,20.9388,44.8313,-0.0658387,0.0,0.0
410,102.25,73.5545,77.5999,162.403,100.18,101.771,0.00078452,0.0550288,20.9389,44.8513,-0.120393,0.0,0.0
412,102.75,73.5688,77.4555,158.424,100.182,101.019,0.000780539,0.0547981,20.939,44.8213,-0.0635838,0.0,0.0
414,103.25,73.6889,77.6376,164.522,100.165,101.278,0.000785818,0.0545772,20.9391,44.8213,-0.0844109,0.0,0.0
416,103.75,73.1347,77.538,159.984,100.178,101.182,0.000797748,0.0543983,20.9392,44.8313,-0.0762009,0.0,0.0
418,104.25,73.3662,77.7629,163.1,100.178,100.818,0.000807412,0.0542383,20.9392,44.8513,-0.0486434,0.0,0.0
420,104.75,72.9577,77.5142,165.298,100.19,100.466,0.00082702,0.0540951,20.9392,44.8313,-0.0210224,0.0,0.0
422,105.25,73.3257,77.5167,165.381,100.18,100.716,0.000853506,0.0539488,20.9393,44.8213,-0.040767,0.0,0.0
424,105.75,73.4802,77.6027,165.195,100.177,101.151,0.000877579,0.0538031,20.9393,44.8313,-0.073901,0.0,0.0
426,106.25,72.9224,77.7157,165.025,100.181,100.122,0.000899436,0.0536851,20.9394,44.8013,0.00453423,0.0,0.0
428,106.75,73.2495,77.1358,166.913,100.181,100.251,0.000917139,0.0535034,20.9394,44.7612,-0.00536961,0.0,0.0
430,107.25,73.0601,77.6295,164.135,100.173,100.579,0.000922968,0.0533562,20.9394,44.7512,-0.0309723,0.0,0.0
432,107.75,73.586,77.1828,167.821,100.186,100.575,0.00092003,0.0532142,20.9395,44.7712,-0.0296384,0.0,0.0
434,108.25,72.3509,77.5505,161.029,100.178,100.713,0.000901294,0.0530789,20.9395,44.8013,-0.0406883,0.0,0.0
436,108.75,72.6226,77.5223,165.882,100.202,100.919,0.000871398,0.0529692,20.9397,44.8113,-0.0544441,0.0,0.0
438,109.25,72.5333,77.1756,163.891,100.19,100.579,0.000847182,0.0527799,20.9401,44.8213,-0.0296763,0.0,0.0
440,109.75,73.2519,77.2685,163.118,100.214,100.988,0.000777899,0.0526266,20.9405,44.7712,-0.0588083,0.0,0.0
442,110.25,73.6046,76.5866,162.356,100.188,100.095,0.000721779,0.0524019,20.9408,44.7913,0.00709112,0.0,0.0
444,110.75,73.016,77.0542,165.763,100.217,100.874,0.000635397,0.0522199,20.941,44.8013,-0.0499486,0.0,0.0
446,111.25,72.639,77.7101,163.418,100.209,100.483,0.000565427,0.0520581,20.9412,44.8213,-0.0209041,0.0,0.0
448,111.75,73.1946,76.7879,166.537,100.231,100.126,0.000480255,0.0519271,20.9413,44.78125,0.00799115,0.0,0.0
450,112.25,72.8393,77.5028,169.413,100.23,100.495,0.000411265,0.0517779,20.9414,44.78125,-0.0201259,0.0,0.0
452,112.75,72.4093,77.1423,165.256,100.227,100.825,0.000359098,0.051657,20.9417,44.7612,-0.0454144,0.0,0.0
454,113.25,72.9034,76.8277,164.432,100.238,101.483,0.000316844,0.0515289,20.9422,44.7612,-0.0943741,0.0,0.0
456,113.75,72.9374,76.8394,165.559,100.24,100.999,0.000293703,0.051398,20.9426,44.7512,-0.0576646,0.0,0.0
458,114.25,73.2287,76.7805,168.014,100.235,102.086,0.0002812,0.0511938,20.9424,44.7612,-0.139829,0.0,0.0
460,114.75,72.844,76.7374,163.466,100.239,101.635,0.000290233,0.0511056,20.9424,44.7312,-0.105704,0.0,0.0
462,115.25,72.8873,77.0486,161.488,100.228,101.184,0.000305681,0.0509546,20.9425,44.7412,-0.072572,0.0,0.0
464,115.75,73.0408,77.141,164.426,100.247,102.303,0.000318194,0.0507606,20.9428,44.7412,-0.155115,0.0,0.0
466,116.25,72.9178,77.0197,168.184,100.25,101.082,0.00036183,0.0506035,20.9431,44.7512,-0.0631268,0.0,0.0
468,116.75,72.8398,76.6814,165.117,100.252,101.912,0.000397174,0.0504045,20.9433,44.7112,-0.125521,0.0,0.0
470,117.25,73.2256,76.5582,162.394,100.254,100.49,0.00043201,0.0502433,20.9435,44.7312,-0.0179781,0.0,0.0
472,117.75,72.9352,77.0002,163.384,100.262,100.441,0.000460227,0.0500825,20.9437,44.7512,-0.0136106,0.0,0.0
474,118.25,72.7741,76.8914,160.539,100.26,100.345,0.00047851,0.0499251,20.9438,44.7512,-0.00648592,0.0,0.0
476,118.75,72.8602,76.8365,162.692,100.256,102.575,0.000489202,0.0497901,20.9439,44.7612,-0.174766,0.0,0.0
478,119.25,72.7136,76.7645,159.305,100.258,102.479,0.000497863,0.0496739,20.9439,44.7512,-0.167462,0.0,0.0
480,119.75,72.9991,76.7174,163.74,100.237,100.343,0.000482544,0.0495798,20.944,44.7612,-0.00809299,0.0,0.0
482,120.25,72.8249,76.6177,162.37,100.263,100.883,0.000464846,0.0494568,20.9441,44.7612,-0.0471002,0.0,0.0
484,120.75,72.5072,76.8653,161.664,100.266,101.213,0.000460085,0.0494214,20.9441,44.7612,-0.0718414,0.0,0.0
486,121.25,72.8895,76.3236,166.608,100.271,101.82,0.000440782,0.0493609,20.9441,44.7712,-0.11715,0.0,0.0
488,121.75,72.7758,76.8474,165.19,100.271,101.001,0.000425146,0.0492742,20.9441,44.7612,-0.0554832,0.0,0.0
490,122.25,72.9626,76.7581,163.228,100.286,101.608,0.000412481,0.04917,20.9442,44.7212,-0.100135,0.0,0.0
492,122.75,72.3309,76.6584,165.764,100.279,101.017,0.000397196,0.0489779,20.9442,44.7212,-0.0560333,0.0,0.0
494,123.25,72.3147,76.866,166.539,100.284,100.76,0.000392672,0.048915,20.9444,44.6912,-0.0362296,0.0,0.0
496,123.75,72.922,76.8597,167.953,100.279,100.687,0.000384937,0.048793,20.9449,44.7012,-0.0310029,0.0,0.0
498,124.25,72.5482,76.6588,164.924,100.286,101.881,0.000373711,0.0486942,20.9452,44.7512,-0.120588,0.0,0.0
500,124.75,72.6278,76.8893,163.282,100.279,101.403,0.00035748,0.0485944,20.9456,44.7612,-0.0851883,0.0,0.0
502,125.25,72.7297,76.505,167.721,100.291,100.497,0.000351055,0.0485698,20.9457,44.78125,-0.0156263,0.0,0.0
504,125.75,72.2656,76.4689,163.022,100.295,100.716,0.000340068,0.0484848,20.9459,44.78125,-0.03194,0.0,0.0
506,126.25,72.224,76.7325,164.073,100.301,101.097,0.000328689,0.0484159,20.946,44.78125,-0.0604531,0.0,0.0
508,126.75,72.7433,77.034,166.774,100.303,101.178,0.000319473,0.0483601,20.9461,44.8013,-0.0663744,0.0,0.0
510,127.25,72.7907,76.5421,164.348,100.299,100.155,0.000312007,0.0483149,20.9462,44.8113,0.0109571,0.0,0.0
512,127.75,72.3443,76.817,166.53,100.297,100.805,0.00030596,0.0481909,20.9463,44.7612,-0.0386211,0.0,0.0
514,128.25,73.0299,76.834,165.31,100.306,99.9477,0.000318696,0.0480905,20.9465,44.8113,0.027353,0.0,0.0
516,128.75,73.0199,76.4611,163.296,100.309,100.28,0.000344882,0.0480168,20.9469,44.7913,0.00220871,0.0,0.0
518,129.25,71.4844,76.6252,168.645,100.316,101.878,0.000371318,0.0479638,20.9473,44.7512,-0.118102,0.0,0.0
520,129.75,71.0531,76.9245,159.926,100.31,101.175,0.000397432,0.0479134,20.9473,44.6912,-0.0656035,0.0,0.0
522,130.25,72.6847,76.6334,166.001,100.342,101.149,0.000410749,0.0478657,20.9474,44.7512,-0.0612019,0.0,0.0
524,130.75,72.3411,76.7397,165.459,100.324,101.05,0.000414482,0.047797,20.9475,44.7612,-0.0551034,0.0,0.0
526,131.25,72.7639,76.8102,165.837,100.337,101.354,0.000407716,0.0477141,20.9475,44.7512,-0.0770911,0.0,0.0
528,131.75,72.7967,75.9525,164.266,100.327,101.51,0.000393423,0.0476621,20.9476,44.7612,-0.0896144,0.0,0.0
530,132.25,72.1321,76.7182,169.071,100.354,100.07,0.000365731,0.0476335,20.9476,44.7512,0.0216452,0.0,0.0
532,132.75,72.4072,76.4858,170.019,100.332,99.758,0.0003433,0.0476179,20.9476,44.7612,0.0438288,0.0,0.0
534,133.25,73.0284,76.2563,160.582,100.346,101.336,0.000323827,0.0476121,20.9479,44.78125,-0.074992,0.0,0.0
536,133.75,71.8987,76.8232,165.717,100.33,101.818,0.000306879,0.0476073,20.9483,44.78125,-0.112497,0.0,0.0
538,134.25,72.3007,76.1855,168.642,100.35,101.811,0.000293151,0.0475319,20.9486,44.8013,-0.110489,0.0,0.0
540,134.75,72.9101,76.0494,166.05,100.34,101.37,0.000284511,0.0474707,20.9489,44.7312,-0.0780288,0.0,0.0
542,135.25,72.0036,76.8492,160.523,100.354,102.242,0.000277512,0.0473639,20.9491,44.7612,-0.142423,0.0,0.0
544,135.75,72.1973,76.6705,163.534,100.343,101.24,0.000271843,0.0472773,20.9493,44.7512,-0.0679923,0.0,0.0
546,136.25,72.4328,76.7023,169.138,100.355,101.541,0.000267251,0.0471921,20.9495,44.7612,-0.0898296,0.0,0.0
548,136.75,71.912,76.5017,159.759,100.346,101.649,0.000263531,0.0471095,20.9496,44.7712,-0.0985203,0.0,0.0
550,137.25,72.3311,76.4277,168.838,100.352,101.907,0.000260519,0.0470577,20.9497,44.7612,-0.117539,0.0,0.0
552,137.75,72.5432,76.5488,165.264,100.352,101.133,0.000258731,0.0470293,20.9498,44.7612,-0.0592389,0.0,0.0
554,138.25,72.0635,76.5121,162.54,100.344,101.097,0.000257869,0.0470064,20.9498,44.7612,-0.0571116,0.0,0.0
556,138.75,71.9995,76.3903,164.487,100.346,101.89,0.000255867,0.0469591,20.9499,44.7512,-0.116621,0.0,0.0
558,139.25,72.3106,76.3257,166.687,100.355,100.588,0.000253071,0.0469132,20.9499,44.7412,-0.0177356,0.0,0.0
560,139.75,72.2821,76.1922,161.638,100.341,101.838,0.000250806,0.0468693,20.9499,44.7412,-0.113191,0.0,0.0
562,140.25,72.5059,76.516,170.969,100.341,101.307,0.000245254,0.0468337,20.95,44.7312,-0.073225,0.0,0.0
564,140.75,72.4632,76.0823,160.59,100.354,102.385,0.000240758,0.0467823,20.95,44.7312,-0.153153,0.0,0.0
566,141.25,72.384,76.0937,164.774,100.348,100.959,0.000237115,0.0467203,20.95,44.7012,-0.0464037,0.0,0.0
568,141.75,72.3851,76.7452,166.375,100.361,101.867,0.000223013,0.04667,20.95,44.7112,-0.113834,0.0,0.0
570,142.25,72.2864,76.2825,165.366,100.341,102.34,0.000211591,0.0465864,20.95,44.7212,-0.150753,0.0,0.0
572,142.75,72.4894,75.7824,163.015,100.357,101.352,0.000202339,0.0465186,20.9501,44.7312,-0.0753876,0.0,0.0
574,143.25,72.5999,76.7446,162.773,100.344,101.017,0.000194845,0.0464207,20.9501,44.7212,-0.0510356,0.0,0.0