File: 01_Data/Fiber_Cement_Board/FTIR/IS/Deprecated/Fiber_Cement_Board_IS_S_220928_R3.dpt
7497.03,0.50307
7491.25,0.51019
7485.46,0.49957
7479.67,0.50255
7473.89,0.50600
7468.1,0.50360
7462.32,0.49507
7456.53,0.49983
7450.74,0.50122
7444.96,0.49926
7439.17,0.50046
7433.38,0.50388
7427.6,0.49107
7421.81,0.50542
7416.03,0.50209
7410.24,0.50360
7404.45,0.49121
7398.67,0.50071
7392.88,0.50209
7387.09,0.50253
7381.31,0.50226
7375.52,0.50343
7369.74,0.48865
7363.95,0.49236
7358.16,0.50263
7352.38,0.50427
7346.59,0.50279
7340.8,0.50681
7335.02,0.50455
7329.23,0.50421
7323.45,0.49536
7317.66,0.49405
7311.87,0.48954
7306.09,0.49573
7300.3,0.49615
7294.51,0.49797
7288.73,0.49063
7282.94,0.50055
7277.16,0.49894
7271.37,0.49920
7265.58,0.49806
7259.8,0.49580
7254.01,0.49164
7248.22,0.49115
7242.44,0.49646
7236.65,0.50027
7230.87,0.49714
7225.08,0.49721
7219.29,0.49781
7213.51,0.50539
7207.72,0.49924
7201.93,0.49391
7196.15,0.48908
7190.36,0.48895
7184.58,0.48190
7178.79,0.48719
7173,0.49524
7167.22,0.49478
7161.43,0.49263
7155.65,0.48678
7149.86,0.49010
7144.07,0.48459
7138.29,0.48528
7132.5,0.48270
7126.71,0.48863
7120.93,0.49228
7115.14,0.48690
7109.36,0.48667
7103.57,0.48279
7097.78,0.48228
7092,0.47785
7086.21,0.49395
7080.42,0.48520
7074.64,0.48451
7068.85,0.48505
7063.07,0.48032
7057.28,0.48352
7051.49,0.48853
7045.71,0.48231
7039.92,0.48036
7034.13,0.48306
7028.35,0.48639
7022.56,0.48014
7016.78,0.48056
7010.99,0.47538
7005.2,0.47772
6999.42,0.48569
6993.63,0.48423
6987.84,0.48617
6982.06,0.48714
6976.27,0.48032
6970.49,0.48056
6964.7,0.48638
6958.91,0.48836
6953.13,0.48248
6947.34,0.48388
6941.55,0.48645
6935.77,0.48697
6929.98,0.48508
6924.2,0.48309
6918.41,0.48589
6912.62,0.48553
6906.84,0.48156
6901.05,0.48396
6895.26,0.48856
6889.48,0.48582
6883.69,0.48482
6877.91,0.49006
6872.12,0.48596
6866.33,0.48454
6860.55,0.48788
6854.76,0.48693
6848.97,0.48701
6843.19,0.48901
6837.4,0.48767
6831.62,0.48294
6825.83,0.48488
6820.04,0.49010
6814.26,0.48634
6808.47,0.48911
6802.68,0.48206
6796.9,0.48942
6791.11,0.48495
6785.33,0.48716
6779.54,0.49181
6773.75,0.48996
6767.97,0.49091
6762.18,0.48501
6756.39,0.48769
6750.61,0.48874
6744.82,0.48815
6739.04,0.48648
6733.25,0.49144
6727.46,0.49005
6721.68,0.48995
6715.89,0.48877
6710.1,0.48506
6704.32,0.48113
6698.53,0.49222
6692.75,0.49672
6686.96,0.49493
6681.17,0.48972
6675.39,0.48988
6669.6,0.49344
6663.82,0.49482
6658.03,0.49391
6652.24,0.48984
6646.46,0.49321
6640.67,0.49020
6634.88,0.49057
6629.1,0.49125
6623.31,0.49154
6617.53,0.49112
6611.74,0.49301
6605.95,0.49380
6600.17,0.49093
6594.38,0.49542
6588.59,0.49057
6582.81,0.49318
6577.02,0.49586
6571.24,0.49918
6565.45,0.49436
6559.66,0.49956
6553.88,0.49682
6548.09,0.49966
6542.3,0.49846
6536.52,0.49833
6530.73,0.49567
6524.95,0.49850
6519.16,0.49499
6513.37,0.49974
6507.59,0.49734
6501.8,0.49932
6496.01,0.50331
6490.23,0.49709
6484.44,0.50379
6478.66,0.50060
6472.87,0.49847
6467.08,0.49787
6461.3,0.49955
6455.51,0.50050
6449.72,0.50120
6443.94,0.49754
6438.15,0.49863
6432.37,0.49957
6426.58,0.49868
6420.79,0.50343
6415.01,0.50101
6409.22,0.49982
6403.43,0.50214
6397.65,0.49780
6391.86,0.49764
6386.08,0.49909
6380.29,0.50175
6374.5,0.49997
6368.72,0.50137
6362.93,0.50126
6357.14,0.50194
6351.36,0.50189
6345.57,0.50046
6339.79,0.50280
6334,0.50480
6328.21,0.50163
6322.43,0.50295
6316.64,0.50619
6310.85,0.50226
6305.07,0.50217
6299.28,0.50333
6293.5,0.50381
6287.71,0.50547
6281.92,0.50585
6276.14,0.50515
6270.35,0.50373
6264.56,0.50194
6258.78,0.50828
6252.99,0.50435
6247.21,0.50726
6241.42,0.50390
6235.63,0.50419
6229.85,0.50557
6224.06,0.50276
6218.27,0.50579
6212.49,0.50694
6206.7,0.50653
6200.92,0.50602
6195.13,0.50525
6189.34,0.50429
6183.56,0.50637
6177.77,0.50792
6171.98,0.50835
6166.2,0.50794
6160.41,0.50613
6154.63,0.50989
6148.84,0.50693
6143.05,0.50696
6137.27,0.50833
6131.48,0.50743
6125.7,0.50656
6119.91,0.50842
6114.12,0.50978
6108.34,0.50969
6102.55,0.51157
6096.76,0.51090
6090.98,0.50914
6085.19,0.50993
6079.41,0.50864
6073.62,0.51161
6067.83,0.50938
6062.05,0.50639
6056.26,0.50945
6050.47,0.51149
6044.69,0.50879
6038.9,0.51031
6033.12,0.50858
6027.33,0.50813
6021.54,0.50727
6015.76,0.50908
6009.97,0.50706
6004.18,0.50599
5998.4,0.50929
5992.61,0.50825
5986.83,0.50900
5981.04,0.50358
5975.25,0.50706
5969.47,0.50583
5963.68,0.50575
5957.89,0.50566
5952.11,0.50488
5946.32,0.50464
5940.54,0.50276
5934.75,0.50455
5928.96,0.50628
5923.18,0.50696
5917.39,0.50265
5911.6,0.50453
5905.82,0.50379
5900.03,0.50487
5894.25,0.50692
5888.46,0.50682
5882.67,0.50369
5876.89,0.50462
5871.1,0.50797
5865.31,0.50667
5859.53,0.50712
5853.74,0.50645
5847.96,0.50853
5842.17,0.50957
5836.38,0.50775
5830.6,0.50774
5824.81,0.50899
5819.02,0.50528
5813.24,0.50841
5807.45,0.50744
5801.67,0.50737
5795.88,0.50469
5790.09,0.50500
5784.31,0.50648
5778.52,0.50670
5772.73,0.50727
5766.95,0.50823
5761.16,0.50779
5755.38,0.50846
5749.59,0.50784
5743.8,0.51069
5738.02,0.50805
5732.23,0.50587
5726.44,0.50929
5720.66,0.50815
5714.87,0.50750
5709.09,0.50741
5703.3,0.50521
5697.51,0.50599
5691.73,0.50730
5685.94,0.50749
5680.15,0.50734
5674.37,0.50742
5668.58,0.50818
5662.8,0.50679
5657.01,0.50685
5651.22,0.50603
5645.44,0.50801
5639.65,0.51040
5633.87,0.50729
5628.08,0.51085
5622.29,0.51103
5616.51,0.50983
5610.72,0.50895
5604.93,0.50933
5599.15,0.50768
5593.36,0.51036
5587.58,0.50976
5581.79,0.50987
5576,0.50880
5570.22,0.51082
5564.43,0.50800
5558.64,0.51023
5552.86,0.51124
5547.07,0.51160
5541.29,0.51160
5535.5,0.51029
5529.71,0.50945
5523.93,0.51140
5518.14,0.51115
5512.35,0.51076
5506.57,0.51154
5500.78,0.50974
5495,0.50948
5489.21,0.50984
5483.42,0.51168
5477.64,0.51055
5471.85,0.51044
5466.06,0.51004
5460.28,0.51103
5454.49,0.50926
5448.71,0.51119
5442.92,0.51049
5437.13,0.51002
5431.35,0.51204
5425.56,0.51304
5419.77,0.51272
5413.99,0.51173
5408.2,0.51174
5402.42,0.51109
5396.63,0.51158
5390.84,0.51184
5385.06,0.50785
5379.27,0.51030
5373.48,0.51026
5367.7,0.50790
5361.91,0.50889
5356.13,0.50699
5350.34,0.50775
5344.55,0.50624
5338.77,0.50365
5332.98,0.50273
5327.19,0.50106
5321.41,0.50165
5315.62,0.49809
5309.84,0.49566
5304.05,0.49257
5298.26,0.48927
5292.48,0.48542
5286.69,0.48270
5280.9,0.47743
5275.12,0.47301
5269.33,0.46667
5263.55,0.46288
5257.76,0.45521
5251.97,0.44886
5246.19,0.44237
5240.4,0.43741
5234.61,0.43301
5228.83,0.42688
5223.04,0.42386
5217.26,0.42010
5211.47,0.41821
5205.68,0.41610
5199.9,0.41553
5194.11,0.41530
5188.32,0.41479
5182.54,0.41497
5176.75,0.41744
5170.97,0.41739
5165.18,0.42062
5159.39,0.42266
5153.61,0.42337
5147.82,0.42436
5142.03,0.42647
5136.25,0.42997
5130.46,0.43144
5124.68,0.43383
5118.89,0.43572
5113.1,0.43771
5107.32,0.43882
5101.53,0.44067
5095.75,0.44204
5089.96,0.44454
5084.17,0.44507
5078.39,0.44556
5072.6,0.44866
5066.81,0.45013
5061.03,0.45142
5055.24,0.45191
5049.46,0.45327
5043.67,0.45453
5037.88,0.45540
5032.1,0.45787
5026.31,0.45840
5020.52,0.45943
5014.74,0.45982
5008.95,0.46230
5003.17,0.46365
4997.38,0.46357
4991.59,0.46553
4985.81,0.46658
4980.02,0.46708
4974.23,0.46932
4968.45,0.47043
4962.66,0.47050
4956.88,0.47124
4951.09,0.47252
4945.3,0.47040
4939.52,0.47106
4933.73,0.47302
4927.94,0.47292
4922.16,0.47264
4916.37,0.47214
4910.59,0.47195
4904.8,0.47197
4899.01,0.47155
4893.23,0.47149
4887.44,0.47089
4881.65,0.47061
4875.87,0.46940
4870.08,0.46824
4864.3,0.46838
4858.51,0.46875
4852.72,0.46741
4846.94,0.46754
4841.15,0.46757
4835.36,0.46579
4829.58,0.46655
4823.79,0.46492
4818.01,0.46427
4812.22,0.46337
4806.43,0.46257
4800.65,0.46211
4794.86,0.46176
4789.07,0.46210
4783.29,0.46273
4777.5,0.46086
4771.72,0.46079
4765.93,0.46075
4760.14,0.46017
4754.36,0.46091
4748.57,0.46068
4742.78,0.46049
4737,0.46127
4731.21,0.46076
4725.43,0.46187
4719.64,0.46319
4713.85,0.46234
4708.07,0.46128
4702.28,0.46268
4696.49,0.46222
4690.71,0.46324
4684.92,0.46215
4679.14,0.46137
4673.35,0.45986
4667.56,0.45819
4661.78,0.45874
4655.99,0.45943
4650.2,0.46138
4644.42,0.46198
4638.63,0.46193
4632.85,0.46026
4627.06,0.45852
4621.27,0.45830
4615.49,0.45745
4609.7,0.45608
4603.92,0.45799
4598.13,0.45831
4592.34,0.46007
4586.56,0.45877
4580.77,0.45822
4574.98,0.45504
4569.2,0.45504
4563.41,0.45483
4557.63,0.45532
4551.84,0.45472
4546.05,0.45453
4540.27,0.45344
4534.48,0.45263
4528.69,0.45204
4522.91,0.45065
4517.12,0.45004
4511.34,0.44922
4505.55,0.44859
4499.76,0.44828
4493.98,0.44642
4488.19,0.44628
4482.4,0.44580
4476.62,0.44443
4470.83,0.44366
4465.05,0.44242
4459.26,0.44140
4453.47,0.43942
4447.69,0.43800
4441.9,0.43640
4436.11,0.43490
4430.33,0.43223
4424.54,0.42938
4418.76,0.42766
4412.97,0.42397
4407.18,0.42213
4401.4,0.42026
4395.61,0.41971
4389.82,0.41962
4384.04,0.41980
4378.25,0.41867
4372.47,0.41610
4366.68,0.41491
4360.89,0.41472
4355.11,0.41457
4349.32,0.41141
4343.53,0.40902
4337.75,0.40648
4331.96,0.40407
4326.18,0.40281
4320.39,0.40420
4314.6,0.40744
4308.82,0.40895
4303.03,0.40857
4297.24,0.40900
4291.46,0.40855
4285.67,0.40636
4279.89,0.40519
4274.1,0.40255
4268.31,0.40037
4262.53,0.39869
4256.74,0.39773
4250.95,0.39796
4245.17,0.39696
4239.38,0.39770
4233.6,0.39739
4227.81,0.39660
4222.02,0.39527
4216.24,0.39421
4210.45,0.39262
4204.66,0.39320
4198.88,0.39222
4193.09,0.39124
4187.31,0.39023
4181.52,0.38893
4175.73,0.38788
4169.95,0.38760
4164.16,0.38784
4158.37,0.38691
4152.59,0.38590
4146.8,0.38346
4141.02,0.38236
4135.23,0.38039
4129.44,0.37752
4123.66,0.37545
4117.87,0.37340
4112.09,0.37096
4106.3,0.36873
4100.51,0.36535
4094.73,0.36191
4088.94,0.35841
4083.15,0.35518
4077.37,0.35172
4071.58,0.34785
4065.8,0.34288
4060.01,0.33991
4054.22,0.33673
4048.44,0.33518
4042.65,0.33301
4036.86,0.33131
4031.08,0.33244
4025.29,0.33345
4019.51,0.33453
4013.72,0.33581
4007.93,0.33663
4002.15,0.33581
3996.36,0.33611
3990.57,0.33779
3984.79,0.33728
3979,0.33733
3973.22,0.33764
3967.43,0.33741
3961.64,0.33779
3955.86,0.33784
3950.07,0.33797
3944.28,0.33848
3938.5,0.33799
3932.71,0.33818
3926.93,0.33928
3921.14,0.33939
3915.35,0.33979
3909.57,0.33998
3903.78,0.33981
3897.99,0.34018
3892.21,0.34026
3886.42,0.33998
3880.64,0.33943
3874.85,0.33966
3869.06,0.33975
3863.28,0.33978
3857.49,0.33926
3851.7,0.33934
3845.92,0.33813
3840.13,0.33654
3834.35,0.33656
3828.56,0.33516
3822.77,0.33335
3816.99,0.33177
3811.2,0.33064
3805.41,0.32849
3799.63,0.32673
3793.84,0.32486
3788.06,0.32210
3782.27,0.32037
3776.48,0.31737
3770.7,0.31516
3764.91,0.31170
3759.12,0.30853
3753.34,0.30489
3747.55,0.30116
3741.77,0.29585
3735.98,0.29017
3730.19,0.28325
3724.41,0.27647
3718.62,0.26810
3712.83,0.25898
3707.05,0.24778
3701.26,0.23519
3695.48,0.22090
3689.69,0.20597
3683.9,0.18559
3678.12,0.14749
3672.33,0.14409
3666.54,0.14721
3660.76,0.13920
3654.97,0.13458
3649.19,0.12909
3643.4,0.12393
3637.61,0.11935
3631.83,0.11470
3626.04,0.10951
3620.25,0.10634
3614.47,0.10337
3608.68,0.10108
3602.9,0.09930
3597.11,0.09767
3591.32,0.09518
3585.54,0.09415
3579.75,0.09232
3573.97,0.09042
3568.18,0.08910
3562.39,0.08776
3556.61,0.08568
3550.82,0.08501
3545.03,0.08424
3539.25,0.08278
3533.46,0.08241
3527.68,0.08185
3521.89,0.08140
3516.1,0.08088
3510.32,0.08027
3504.53,0.07920
3498.74,0.07902
3492.96,0.07816
3487.17,0.07720
3481.39,0.07673
3475.6,0.07694
3469.81,0.07493
3464.03,0.07520
3458.24,0.07421
3452.45,0.07465
3446.67,0.07345
3440.88,0.07306
3435.1,0.07300
3429.31,0.07323
3423.52,0.07283
3417.74,0.07176
3411.95,0.07277
3406.16,0.07217
3400.38,0.07218
3394.59,0.07214
3388.81,0.07192
3383.02,0.07222
3377.23,0.07176
3371.45,0.07179
3365.66,0.07207
3359.87,0.07258
3354.09,0.07239
3348.3,0.07318
3342.52,0.07294
3336.73,0.07275
3330.94,0.07297
3325.16,0.07392
3319.37,0.07312
3313.58,0.07338
3307.8,0.07428
3302.01,0.07441
3296.23,0.07440
3290.44,0.07428
3284.65,0.07516
3278.87,0.07509
3273.08,0.07567
3267.29,0.07608
3261.51,0.07606
3255.72,0.07742
3249.94,0.07763
3244.15,0.07882
3238.36,0.07912
3232.58,0.07922
3226.79,0.08034
3221,0.08134
3215.22,0.08132
3209.43,0.08140
3203.65,0.08254
3197.86,0.08326
3192.07,0.08429
3186.29,0.08411
3180.5,0.08464
3174.71,0.08590
3168.93,0.08703
3163.14,0.08749
3157.36,0.08811
3151.57,0.08920
3145.78,0.09011
3140,0.09055
3134.21,0.09173
3128.42,0.09239
3122.64,0.09353
3116.85,0.09362
3111.07,0.09367
3105.28,0.09419
3099.49,0.09563
3093.71,0.09557
3087.92,0.09298
3082.14,0.09250
3076.35,0.09545
3070.56,0.09542
3064.78,0.09335
3058.99,0.09285
3053.2,0.09719
3047.42,0.09993
3041.63,0.10000
3035.85,0.09613
3030.06,0.09009
3024.27,0.09099
3018.49,0.09979
3012.7,0.10569
3006.91,0.10511
3001.13,0.10381
2995.34,0.10442
2989.56,0.10309
2983.77,0.09845
2977.98,0.09261
2972.2,0.08577
2966.41,0.07928
2960.62,0.07604
2954.84,0.07604
2949.05,0.07757
2943.27,0.07654
2937.48,0.07347
2931.69,0.07101
2925.91,0.07126
2920.12,0.07322
2914.33,0.07660
2908.55,0.08010
2902.76,0.08278
2896.98,0.08642
2891.19,0.08889
2885.4,0.09084
2879.62,0.08963
2873.83,0.08802
2868.04,0.08905
2862.26,0.08865
2856.47,0.08893
2850.69,0.09405
2844.9,0.10370
2839.11,0.11389
2833.33,0.12085
2827.54,0.12608
2821.75,0.12976
2815.97,0.13325
2810.18,0.13607
2804.4,0.13878
2798.61,0.14096
2792.82,0.14388
2787.04,0.14538
2781.25,0.14676
2775.46,0.14842
2769.68,0.14958
2763.89,0.15102
2758.11,0.15227
2752.32,0.15344
2746.53,0.15377
2740.75,0.15441
2734.96,0.15505
2729.17,0.15634
2723.39,0.15812
2717.6,0.15969
2711.82,0.16122
2706.03,0.16310
2700.24,0.16487
2694.46,0.16666
2688.67,0.16841
2682.88,0.16995
2677.1,0.17202
2671.31,0.17306
2665.53,0.17421
2659.74,0.17579
2653.95,0.17709
2648.17,0.17856
2642.38,0.17978
2636.59,0.18083
2630.81,0.18104
2625.02,0.18225
2619.24,0.18306
2613.45,0.18310
2607.66,0.18309
2601.88,0.18329
2596.09,0.18413
2590.3,0.18470
2584.52,0.18554
2578.73,0.18590
2572.95,0.18623
2567.16,0.18596
2561.37,0.18610
2555.59,0.18609
2549.8,0.18483
2544.02,0.18402
2538.23,0.18268
2532.44,0.18028
2526.66,0.17739
2520.87,0.17576
2515.08,0.17508
2509.3,0.17609
2503.51,0.17918
2497.73,0.18454
2491.94,0.19010
2486.15,0.19477
2480.37,0.19818
2474.58,0.20155
2468.79,0.20368
2463.01,0.20521
2457.22,0.20656
2451.44,0.20756
2445.65,0.20866
2439.86,0.20900
2434.08,0.21001
2428.29,0.21036
2422.5,0.21073
2416.72,0.21085
2410.93,0.21142
2405.15,0.21142
2399.36,0.21137
2393.57,0.21122
2387.79,0.21122
2382,0.21093
2376.21,0.21076
2370.43,0.21089
2364.64,0.21042
2358.86,0.20991
2353.07,0.20946
2347.28,0.20859
2341.5,0.20799
2335.71,0.20721
2329.92,0.20810
2324.14,0.20792
2318.35,0.20746
2312.57,0.20643
2306.78,0.20622
2300.99,0.20657
2295.21,0.20541
2289.42,0.20484
2283.63,0.20434
2277.85,0.20360
2272.06,0.20255
2266.28,0.20160
2260.49,0.20046
2254.7,0.19917
2248.92,0.19843
2243.13,0.19774
2237.34,0.19704
2231.56,0.19699
2225.77,0.19742
2219.99,0.19735
2214.2,0.19773
2208.41,0.19840
2202.63,0.19875
2196.84,0.19830
2191.05,0.19809
2185.27,0.19706
2179.48,0.19671
2173.7,0.19569
2167.91,0.19460
2162.12,0.19363
2156.34,0.19215
2150.55,0.19117
2144.76,0.19030
2138.98,0.18938
2133.19,0.18968
2127.41,0.19038
2121.62,0.19080
2115.83,0.19196
2110.05,0.19259
2104.26,0.19304
2098.47,0.19351
2092.69,0.19357
2086.9,0.19380
2081.12,0.19403
2075.33,0.19386
2069.54,0.19327
2063.76,0.19262
2057.97,0.19156
2052.19,0.19047
2046.4,0.18857
2040.61,0.18579
2034.83,0.18277
2029.04,0.18044
2023.25,0.17998
2017.47,0.17887
2011.68,0.17602
2005.9,0.17322
2000.11,0.17114
1994.32,0.17064
1988.54,0.16962
1982.75,0.16941
1976.96,0.16888
1971.18,0.16798
1965.39,0.16659
1959.61,0.16517
1953.82,0.16352
1948.03,0.16176
1942.25,0.16136
1936.46,0.16345
1930.67,0.16624
1924.89,0.16722
1919.1,0.16632
1913.32,0.16403
1907.53,0.16046
1901.74,0.15590
1895.96,0.15145
1890.17,0.14766
1884.38,0.14470
1878.6,0.14255
1872.81,0.14097
1867.03,0.14108
1861.24,0.14420
1855.45,0.14955
1849.67,0.15451
1843.88,0.15730
1838.09,0.15689
1832.31,0.15473
1826.52,0.15069
1820.74,0.14581
1814.95,0.14121
1809.16,0.13567
1803.38,0.12836
1797.59,0.12222
1791.8,0.12298
1786.02,0.12696
1780.23,0.12886
1774.45,0.12984
1768.66,0.12928
1762.87,0.12770
1757.09,0.12265
1751.3,0.11471
1745.51,0.10048
1739.73,0.07973
1733.94,0.06547
1728.16,0.06674
1722.37,0.07720
1716.58,0.08923
1710.8,0.09319
1705.01,0.09161
1699.22,0.08879
1693.44,0.08513
1687.65,0.08193
1681.87,0.07855
1676.08,0.07618
1670.29,0.07341
1664.51,0.07193
1658.72,0.07044
1652.93,0.06914
1647.15,0.06824
1641.36,0.06691
1635.58,0.06564
1629.79,0.06467
1624,0.06377
1618.22,0.06254
1612.43,0.06133
1606.64,0.05927
1600.86,0.05801
1595.07,0.05954
1589.29,0.05992
1583.5,0.05921
1577.71,0.06026
1571.93,0.06065
1566.14,0.06125
1560.35,0.06258
1554.57,0.06399
1548.78,0.06532
1543,0.06662
1537.21,0.06861
1531.42,0.07005
1525.64,0.07130
1519.85,0.07128
1514.07,0.07066
1508.28,0.06995
1502.49,0.06655
1496.71,0.05981
1490.92,0.06103
1485.13,0.06373
1479.35,0.06199
1473.56,0.05863
1467.78,0.05555
1461.99,0.05414
1456.2,0.05199
1450.42,0.05364
1444.63,0.05568
1438.84,0.05738
1433.06,0.05747
1427.27,0.05768
1421.49,0.05766
1415.7,0.05874
1409.91,0.06015
1404.13,0.06195
1398.34,0.06318
1392.55,0.06479
1386.77,0.06605
1380.98,0.06553
1375.2,0.06615
1369.41,0.06722
1363.62,0.06789
1357.84,0.06846
1352.05,0.06980
1346.26,0.07156
1340.48,0.07179
1334.69,0.07233
1328.91,0.07272
1323.12,0.07211
1317.33,0.07227
1311.55,0.07398
1305.76,0.07652
1299.97,0.07863
1294.19,0.07873
1288.4,0.07799
1282.62,0.07645
1276.83,0.07671
1271.04,0.07708
1265.26,0.07715
1259.47,0.07766
1253.68,0.07855
1247.9,0.07924
1242.11,0.08032
1236.33,0.08152
1230.54,0.08286
1224.75,0.08336
1218.97,0.08231
1213.18,0.07911
1207.39,0.07590
1201.61,0.07395
1195.82,0.07359
1190.04,0.07322
1184.25,0.07212
1178.46,0.07128
1172.68,0.07064
1166.89,0.07039
1161.1,0.06941
1155.32,0.07146
1149.53,0.07577
1143.75,0.07806
1137.96,0.07934
1132.17,0.08060
1126.39,0.08087
1120.6,0.08100
1114.81,0.08220
1109.03,0.08425
1103.24,0.08557
1097.46,0.08887
1091.67,0.09054
1085.88,0.09241
1080.1,0.09341
1074.31,0.09416
1068.52,0.09367
1062.74,0.09095
1056.95,0.08954
1051.17,0.09178
1045.38,0.09692
1039.59,0.10302
1033.81,0.10761
1028.02,0.11103
1022.24,0.11438
1016.45,0.11400
1010.66,0.10660
1004.88,0.09862
999.09,0.09274
993.304,0.08849
987.518,0.08654
981.731,0.08312
975.945,0.08018
970.159,0.07748
964.373,0.07464
958.586,0.07233
952.8,0.07166
947.014,0.07124
941.228,0.07083
935.441,0.07000
929.655,0.06975
923.869,0.06905
918.083,0.06711
912.297,0.06581
906.51,0.06462
900.724,0.06414
894.938,0.06400
889.152,0.06378
883.365,0.06283
877.579,0.06023
871.793,0.06024
866.007,0.06091
860.22,0.06101
854.434,0.06021
848.648,0.05876
842.862,0.05660
837.075,0.05649
831.289,0.05443
825.503,0.05252
819.717,0.05035
813.931,0.04887
808.144,0.04860
802.358,0.04905
796.572,0.04776
790.786,0.04628
784.999,0.04618
779.213,0.04615
773.427,0.04482
767.641,0.04420
761.854,0.04595
756.068,0.04359
750.282,0.04339
744.496,0.04252
738.709,0.04165
732.923,0.04217
727.137,0.04200
721.351,0.04248
715.565,0.04309
709.778,0.04497
703.992,0.05010
698.206,0.05534
692.42,0.05138
686.633,0.05589
680.847,0.06082
675.061,0.07108
669.275,0.07672
663.488,0.06868
657.702,0.06392
651.916,0.06191
646.13,0.06191
640.343,0.05752
634.557,0.05535
628.771,0.05700
622.985,0.05784
617.198,0.05637
611.412,0.05653
605.626,0.06212
599.84,0.06016