File: 01_Data/Fiber_Cement_Board/FTIR/IS/Deprecated/Fiber_Cement_Board_IS_S_220928_R1.dpt
7497.03,0.49862
7491.25,0.50860
7485.46,0.50428
7479.67,0.50066
7473.89,0.50836
7468.1,0.49714
7462.32,0.50092
7456.53,0.49715
7450.74,0.50299
7444.96,0.51021
7439.17,0.49988
7433.38,0.50629
7427.6,0.50664
7421.81,0.50056
7416.03,0.49546
7410.24,0.50000
7404.45,0.49614
7398.67,0.49458
7392.88,0.49717
7387.09,0.50467
7381.31,0.49761
7375.52,0.50171
7369.74,0.49438
7363.95,0.50516
7358.16,0.49335
7352.38,0.50454
7346.59,0.50216
7340.8,0.50456
7335.02,0.50316
7329.23,0.50502
7323.45,0.49808
7317.66,0.49325
7311.87,0.50261
7306.09,0.49246
7300.3,0.50226
7294.51,0.49526
7288.73,0.49739
7282.94,0.50119
7277.16,0.50065
7271.37,0.50420
7265.58,0.49767
7259.8,0.49323
7254.01,0.50131
7248.22,0.49423
7242.44,0.49480
7236.65,0.49709
7230.87,0.49031
7225.08,0.49514
7219.29,0.49044
7213.51,0.49215
7207.72,0.49056
7201.93,0.49978
7196.15,0.48999
7190.36,0.49183
7184.58,0.47793
7178.79,0.49064
7173,0.48816
7167.22,0.48367
7161.43,0.48422
7155.65,0.49497
7149.86,0.48674
7144.07,0.48522
7138.29,0.48627
7132.5,0.48210
7126.71,0.48556
7120.93,0.49123
7115.14,0.48704
7109.36,0.48231
7103.57,0.48297
7097.78,0.48569
7092,0.48527
7086.21,0.48652
7080.42,0.48557
7074.64,0.47863
7068.85,0.48522
7063.07,0.48390
7057.28,0.47623
7051.49,0.48230
7045.71,0.47899
7039.92,0.48052
7034.13,0.47987
7028.35,0.48423
7022.56,0.48462
7016.78,0.47993
7010.99,0.48000
7005.2,0.48127
6999.42,0.47594
6993.63,0.47677
6987.84,0.48177
6982.06,0.48193
6976.27,0.48423
6970.49,0.48061
6964.7,0.48177
6958.91,0.48023
6953.13,0.48687
6947.34,0.48593
6941.55,0.48397
6935.77,0.48178
6929.98,0.48124
6924.2,0.48361
6918.41,0.48344
6912.62,0.48571
6906.84,0.48041
6901.05,0.48643
6895.26,0.49091
6889.48,0.48628
6883.69,0.48194
6877.91,0.48839
6872.12,0.48033
6866.33,0.48574
6860.55,0.48716
6854.76,0.48829
6848.97,0.48978
6843.19,0.48141
6837.4,0.48521
6831.62,0.48843
6825.83,0.48233
6820.04,0.49036
6814.26,0.48961
6808.47,0.49204
6802.68,0.48674
6796.9,0.48936
6791.11,0.48762
6785.33,0.48628
6779.54,0.48234
6773.75,0.48722
6767.97,0.48859
6762.18,0.48895
6756.39,0.48676
6750.61,0.48576
6744.82,0.48395
6739.04,0.48634
6733.25,0.48928
6727.46,0.48836
6721.68,0.48680
6715.89,0.49267
6710.1,0.49168
6704.32,0.48630
6698.53,0.48746
6692.75,0.48859
6686.96,0.49131
6681.17,0.49368
6675.39,0.49260
6669.6,0.49151
6663.82,0.49023
6658.03,0.48904
6652.24,0.48839
6646.46,0.48816
6640.67,0.49651
6634.88,0.49403
6629.1,0.49184
6623.31,0.49238
6617.53,0.48850
6611.74,0.49437
6605.95,0.49189
6600.17,0.49571
6594.38,0.49759
6588.59,0.49853
6582.81,0.49621
6577.02,0.49483
6571.24,0.49517
6565.45,0.49551
6559.66,0.49793
6553.88,0.49839
6548.09,0.49621
6542.3,0.49883
6536.52,0.49927
6530.73,0.49580
6524.95,0.49404
6519.16,0.49486
6513.37,0.49721
6507.59,0.49652
6501.8,0.49810
6496.01,0.50049
6490.23,0.49657
6484.44,0.49555
6478.66,0.49475
6472.87,0.49858
6467.08,0.49597
6461.3,0.49771
6455.51,0.49770
6449.72,0.49856
6443.94,0.49632
6438.15,0.49644
6432.37,0.49944
6426.58,0.50385
6420.79,0.49798
6415.01,0.49982
6409.22,0.49687
6403.43,0.49887
6397.65,0.50101
6391.86,0.50425
6386.08,0.50472
6380.29,0.49762
6374.5,0.50020
6368.72,0.50284
6362.93,0.49604
6357.14,0.50669
6351.36,0.50336
6345.57,0.50326
6339.79,0.50012
6334,0.50231
6328.21,0.50001
6322.43,0.50424
6316.64,0.49743
6310.85,0.50229
6305.07,0.50475
6299.28,0.50214
6293.5,0.49945
6287.71,0.50241
6281.92,0.49909
6276.14,0.50138
6270.35,0.50484
6264.56,0.50219
6258.78,0.50277
6252.99,0.50613
6247.21,0.50318
6241.42,0.50230
6235.63,0.50298
6229.85,0.50374
6224.06,0.50322
6218.27,0.50616
6212.49,0.50386
6206.7,0.50498
6200.92,0.50926
6195.13,0.50408
6189.34,0.50572
6183.56,0.50743
6177.77,0.50741
6171.98,0.51005
6166.2,0.50607
6160.41,0.50636
6154.63,0.50426
6148.84,0.50396
6143.05,0.50486
6137.27,0.50522
6131.48,0.50705
6125.7,0.50248
6119.91,0.50566
6114.12,0.50662
6108.34,0.50603
6102.55,0.50758
6096.76,0.50930
6090.98,0.50968
6085.19,0.50797
6079.41,0.50865
6073.62,0.50861
6067.83,0.50710
6062.05,0.50903
6056.26,0.50904
6050.47,0.50924
6044.69,0.50704
6038.9,0.50934
6033.12,0.50870
6027.33,0.50593
6021.54,0.50826
6015.76,0.50808
6009.97,0.50446
6004.18,0.50529
5998.4,0.50556
5992.61,0.50529
5986.83,0.50529
5981.04,0.50288
5975.25,0.50406
5969.47,0.50153
5963.68,0.50318
5957.89,0.50220
5952.11,0.50185
5946.32,0.50359
5940.54,0.50211
5934.75,0.50200
5928.96,0.50081
5923.18,0.50417
5917.39,0.50430
5911.6,0.50201
5905.82,0.50317
5900.03,0.50383
5894.25,0.50329
5888.46,0.50342
5882.67,0.50335
5876.89,0.50479
5871.1,0.50463
5865.31,0.50329
5859.53,0.50558
5853.74,0.50468
5847.96,0.50640
5842.17,0.50709
5836.38,0.50673
5830.6,0.50582
5824.81,0.50462
5819.02,0.50311
5813.24,0.50503
5807.45,0.50444
5801.67,0.50310
5795.88,0.50448
5790.09,0.50341
5784.31,0.50513
5778.52,0.50515
5772.73,0.50623
5766.95,0.50399
5761.16,0.50666
5755.38,0.50815
5749.59,0.50697
5743.8,0.50698
5738.02,0.50626
5732.23,0.50724
5726.44,0.50520
5720.66,0.50562
5714.87,0.50760
5709.09,0.50846
5703.3,0.50473
5697.51,0.50610
5691.73,0.50764
5685.94,0.50376
5680.15,0.50448
5674.37,0.50498
5668.58,0.50526
5662.8,0.50642
5657.01,0.50707
5651.22,0.50682
5645.44,0.50697
5639.65,0.50611
5633.87,0.50815
5628.08,0.50749
5622.29,0.50792
5616.51,0.50674
5610.72,0.50860
5604.93,0.50676
5599.15,0.50657
5593.36,0.50553
5587.58,0.50645
5581.79,0.50758
5576,0.50663
5570.22,0.50504
5564.43,0.50655
5558.64,0.50982
5552.86,0.50754
5547.07,0.50565
5541.29,0.50613
5535.5,0.50793
5529.71,0.50748
5523.93,0.50972
5518.14,0.50823
5512.35,0.51013
5506.57,0.50813
5500.78,0.50745
5495,0.51007
5489.21,0.50799
5483.42,0.50754
5477.64,0.50844
5471.85,0.50954
5466.06,0.50827
5460.28,0.50926
5454.49,0.50854
5448.71,0.50880
5442.92,0.50858
5437.13,0.50914
5431.35,0.50796
5425.56,0.50963
5419.77,0.50957
5413.99,0.50956
5408.2,0.50943
5402.42,0.50910
5396.63,0.50848
5390.84,0.50845
5385.06,0.50850
5379.27,0.50762
5373.48,0.50788
5367.7,0.50727
5361.91,0.50633
5356.13,0.50553
5350.34,0.50368
5344.55,0.50386
5338.77,0.50269
5332.98,0.50185
5327.19,0.50015
5321.41,0.49735
5315.62,0.49699
5309.84,0.49304
5304.05,0.49008
5298.26,0.48742
5292.48,0.48448
5286.69,0.48040
5280.9,0.47511
5275.12,0.47037
5269.33,0.46508
5263.55,0.45901
5257.76,0.45241
5251.97,0.44746
5246.19,0.44135
5240.4,0.43499
5234.61,0.42983
5228.83,0.42302
5223.04,0.42114
5217.26,0.41782
5211.47,0.41561
5205.68,0.41288
5199.9,0.41193
5194.11,0.41292
5188.32,0.41249
5182.54,0.41267
5176.75,0.41516
5170.97,0.41562
5165.18,0.41706
5159.39,0.41899
5153.61,0.42088
5147.82,0.42319
5142.03,0.42558
5136.25,0.42674
5130.46,0.42776
5124.68,0.43005
5118.89,0.43262
5113.1,0.43380
5107.32,0.43629
5101.53,0.43798
5095.75,0.43928
5089.96,0.44096
5084.17,0.44270
5078.39,0.44463
5072.6,0.44496
5066.81,0.44683
5061.03,0.44756
5055.24,0.44813
5049.46,0.44991
5043.67,0.45046
5037.88,0.45267
5032.1,0.45413
5026.31,0.45618
5020.52,0.45867
5014.74,0.45889
5008.95,0.45867
5003.17,0.45985
4997.38,0.46230
4991.59,0.46378
4985.81,0.46331
4980.02,0.46415
4974.23,0.46563
4968.45,0.46542
4962.66,0.46761
4956.88,0.46764
4951.09,0.46806
4945.3,0.46948
4939.52,0.46962
4933.73,0.46996
4927.94,0.47074
4922.16,0.47062
4916.37,0.46988
4910.59,0.47034
4904.8,0.46981
4899.01,0.46951
4893.23,0.46878
4887.44,0.46837
4881.65,0.46809
4875.87,0.46723
4870.08,0.46726
4864.3,0.46674
4858.51,0.46660
4852.72,0.46631
4846.94,0.46501
4841.15,0.46419
4835.36,0.46412
4829.58,0.46337
4823.79,0.46278
4818.01,0.46211
4812.22,0.46118
4806.43,0.46139
4800.65,0.46114
4794.86,0.45998
4789.07,0.45957
4783.29,0.45874
4777.5,0.45921
4771.72,0.45785
4765.93,0.45860
4760.14,0.45852
4754.36,0.45792
4748.57,0.45905
4742.78,0.45882
4737,0.45885
4731.21,0.45916
4725.43,0.46010
4719.64,0.46017
4713.85,0.46018
4708.07,0.45987
4702.28,0.46140
4696.49,0.46156
4690.71,0.46110
4684.92,0.46114
4679.14,0.45859
4673.35,0.45771
4667.56,0.45571
4661.78,0.45687
4655.99,0.45815
4650.2,0.45987
4644.42,0.45945
4638.63,0.45993
4632.85,0.45896
4627.06,0.45767
4621.27,0.45637
4615.49,0.45567
4609.7,0.45492
4603.92,0.45595
4598.13,0.45689
4592.34,0.45697
4586.56,0.45777
4580.77,0.45687
4574.98,0.45457
4569.2,0.45395
4563.41,0.45257
4557.63,0.45379
4551.84,0.45357
4546.05,0.45298
4540.27,0.45282
4534.48,0.45256
4528.69,0.45065
4522.91,0.44901
4517.12,0.44836
4511.34,0.44757
4505.55,0.44667
4499.76,0.44553
4493.98,0.44506
4488.19,0.44510
4482.4,0.44509
4476.62,0.44364
4470.83,0.44147
4465.05,0.44123
4459.26,0.44001
4453.47,0.43827
4447.69,0.43569
4441.9,0.43539
4436.11,0.43329
4430.33,0.43039
4424.54,0.42799
4418.76,0.42576
4412.97,0.42256
4407.18,0.42041
4401.4,0.41876
4395.61,0.41784
4389.82,0.41741
4384.04,0.41793
4378.25,0.41735
4372.47,0.41525
4366.68,0.41353
4360.89,0.41273
4355.11,0.41252
4349.32,0.40995
4343.53,0.40699
4337.75,0.40422
4331.96,0.40208
4326.18,0.40178
4320.39,0.40277
4314.6,0.40710
4308.82,0.40799
4303.03,0.40764
4297.24,0.40674
4291.46,0.40679
4285.67,0.40549
4279.89,0.40286
4274.1,0.40048
4268.31,0.39871
4262.53,0.39726
4256.74,0.39611
4250.95,0.39585
4245.17,0.39590
4239.38,0.39609
4233.6,0.39504
4227.81,0.39470
4222.02,0.39345
4216.24,0.39264
4210.45,0.39146
4204.66,0.39035
4198.88,0.39029
4193.09,0.38955
4187.31,0.38793
4181.52,0.38701
4175.73,0.38597
4169.95,0.38561
4164.16,0.38541
4158.37,0.38551
4152.59,0.38414
4146.8,0.38207
4141.02,0.38032
4135.23,0.37854
4129.44,0.37684
4123.66,0.37362
4117.87,0.37156
4112.09,0.36856
4106.3,0.36590
4100.51,0.36363
4094.73,0.36056
4088.94,0.35699
4083.15,0.35341
4077.37,0.35041
4071.58,0.34608
4065.8,0.34138
4060.01,0.33786
4054.22,0.33460
4048.44,0.33318
4042.65,0.33108
4036.86,0.33026
4031.08,0.33099
4025.29,0.33185
4019.51,0.33329
4013.72,0.33419
4007.93,0.33412
4002.15,0.33379
3996.36,0.33518
3990.57,0.33645
3984.79,0.33631
3979,0.33546
3973.22,0.33594
3967.43,0.33507
3961.64,0.33591
3955.86,0.33575
3950.07,0.33541
3944.28,0.33564
3938.5,0.33654
3932.71,0.33634
3926.93,0.33727
3921.14,0.33748
3915.35,0.33753
3909.57,0.33783
3903.78,0.33817
3897.99,0.33822
3892.21,0.33768
3886.42,0.33862
3880.64,0.33810
3874.85,0.33788
3869.06,0.33768
3863.28,0.33771
3857.49,0.33722
3851.7,0.33704
3845.92,0.33599
3840.13,0.33592
3834.35,0.33437
3828.56,0.33293
3822.77,0.33081
3816.99,0.32986
3811.2,0.32830
3805.41,0.32604
3799.63,0.32418
3793.84,0.32285
3788.06,0.32030
3782.27,0.31839
3776.48,0.31534
3770.7,0.31281
3764.91,0.30953
3759.12,0.30609
3753.34,0.30254
3747.55,0.29839
3741.77,0.29367
3735.98,0.28814
3730.19,0.28170
3724.41,0.27489
3718.62,0.26698
3712.83,0.25773
3707.05,0.24628
3701.26,0.23353
3695.48,0.21996
3689.69,0.20522
3683.9,0.18522
3678.12,0.14713
3672.33,0.14377
3666.54,0.14659
3660.76,0.13880
3654.97,0.13314
3649.19,0.12807
3643.4,0.12257
3637.61,0.11759
3631.83,0.11339
3626.04,0.10908
3620.25,0.10552
3614.47,0.10223
3608.68,0.10016
3602.9,0.09823
3597.11,0.09657
3591.32,0.09401
3585.54,0.09299
3579.75,0.09092
3573.97,0.08935
3568.18,0.08817
3562.39,0.08652
3556.61,0.08551
3550.82,0.08463
3545.03,0.08360
3539.25,0.08276
3533.46,0.08200
3527.68,0.08075
3521.89,0.08045
3516.1,0.08033
3510.32,0.07933
3504.53,0.07881
3498.74,0.07809
3492.96,0.07701
3487.17,0.07637
3481.39,0.07615
3475.6,0.07568
3469.81,0.07514
3464.03,0.07441
3458.24,0.07423
3452.45,0.07341
3446.67,0.07358
3440.88,0.07367
3435.1,0.07291
3429.31,0.07232
3423.52,0.07183
3417.74,0.07121
3411.95,0.07172
3406.16,0.07151
3400.38,0.07218
3394.59,0.07147
3388.81,0.07146
3383.02,0.07143
3377.23,0.07100
3371.45,0.07131
3365.66,0.07170
3359.87,0.07175
3354.09,0.07245
3348.3,0.07201
3342.52,0.07298
3336.73,0.07234
3330.94,0.07275
3325.16,0.07383
3319.37,0.07355
3313.58,0.07312
3307.8,0.07351
3302.01,0.07397
3296.23,0.07384
3290.44,0.07470
3284.65,0.07495
3278.87,0.07413
3273.08,0.07495
3267.29,0.07503
3261.51,0.07539
3255.72,0.07602
3249.94,0.07657
3244.15,0.07711
3238.36,0.07826
3232.58,0.07890
3226.79,0.07988
3221,0.08001
3215.22,0.07990
3209.43,0.08071
3203.65,0.08176
3197.86,0.08259
3192.07,0.08295
3186.29,0.08336
3180.5,0.08419
3174.71,0.08561
3168.93,0.08551
3163.14,0.08696
3157.36,0.08740
3151.57,0.08824
3145.78,0.08939
3140,0.08968
3134.21,0.09025
3128.42,0.09130
3122.64,0.09126
3116.85,0.09265
3111.07,0.09318
3105.28,0.09294
3099.49,0.09427
3093.71,0.09449
3087.92,0.09258
3082.14,0.09219
3076.35,0.09476
3070.56,0.09446
3064.78,0.09276
3058.99,0.09184
3053.2,0.09622
3047.42,0.09950
3041.63,0.09902
3035.85,0.09563
3030.06,0.08947
3024.27,0.09033
3018.49,0.09907
3012.7,0.10359
3006.91,0.10452
3001.13,0.10329
2995.34,0.10399
2989.56,0.10200
2983.77,0.09807
2977.98,0.09213
2972.2,0.08552
2966.41,0.07862
2960.62,0.07576
2954.84,0.07558
2949.05,0.07707
2943.27,0.07597
2937.48,0.07266
2931.69,0.07078
2925.91,0.07118
2920.12,0.07272
2914.33,0.07649
2908.55,0.08004
2902.76,0.08352
2896.98,0.08592
2891.19,0.08882
2885.4,0.09099
2879.62,0.08986
2873.83,0.08808
2868.04,0.08855
2862.26,0.08801
2856.47,0.08788
2850.69,0.09352
2844.9,0.10310
2839.11,0.11368
2833.33,0.12017
2827.54,0.12534
2821.75,0.12914
2815.97,0.13256
2810.18,0.13536
2804.4,0.13764
2798.61,0.14067
2792.82,0.14276
2787.04,0.14470
2781.25,0.14605
2775.46,0.14759
2769.68,0.14892
2763.89,0.15029
2758.11,0.15082
2752.32,0.15200
2746.53,0.15283
2740.75,0.15363
2734.96,0.15427
2729.17,0.15567
2723.39,0.15666
2717.6,0.15824
2711.82,0.15995
2706.03,0.16225
2700.24,0.16394
2694.46,0.16551
2688.67,0.16744
2682.88,0.16899
2677.1,0.17055
2671.31,0.17189
2665.53,0.17295
2659.74,0.17498
2653.95,0.17601
2648.17,0.17773
2642.38,0.17923
2636.59,0.17943
2630.81,0.18013
2625.02,0.18136
2619.24,0.18170
2613.45,0.18181
2607.66,0.18237
2601.88,0.18258
2596.09,0.18319
2590.3,0.18387
2584.52,0.18403
2578.73,0.18441
2572.95,0.18495
2567.16,0.18517
2561.37,0.18500
2555.59,0.18459
2549.8,0.18413
2544.02,0.18308
2538.23,0.18145
2532.44,0.17943
2526.66,0.17651
2520.87,0.17439
2515.08,0.17419
2509.3,0.17536
2503.51,0.17837
2497.73,0.18346
2491.94,0.18900
2486.15,0.19389
2480.37,0.19710
2474.58,0.20025
2468.79,0.20267
2463.01,0.20408
2457.22,0.20508
2451.44,0.20586
2445.65,0.20697
2439.86,0.20759
2434.08,0.20830
2428.29,0.20891
2422.5,0.20924
2416.72,0.20970
2410.93,0.21006
2405.15,0.20988
2399.36,0.20937
2393.57,0.20999
2387.79,0.20990
2382,0.20972
2376.21,0.20958
2370.43,0.20960
2364.64,0.20902
2358.86,0.20845
2353.07,0.20807
2347.28,0.20761
2341.5,0.20626
2335.71,0.20574
2329.92,0.20628
2324.14,0.20620
2318.35,0.20561
2312.57,0.20467
2306.78,0.20471
2300.99,0.20453
2295.21,0.20401
2289.42,0.20355
2283.63,0.20261
2277.85,0.20202
2272.06,0.20106
2266.28,0.19959
2260.49,0.19878
2254.7,0.19736
2248.92,0.19675
2243.13,0.19633
2237.34,0.19575
2231.56,0.19543
2225.77,0.19535
2219.99,0.19547
2214.2,0.19604
2208.41,0.19647
2202.63,0.19675
2196.84,0.19651
2191.05,0.19616
2185.27,0.19547
2179.48,0.19484
2173.7,0.19394
2167.91,0.19292
2162.12,0.19166
2156.34,0.19084
2150.55,0.19007
2144.76,0.18902
2138.98,0.18759
2133.19,0.18773
2127.41,0.18831
2121.62,0.18977
2115.83,0.19033
2110.05,0.19135
2104.26,0.19152
2098.47,0.19175
2092.69,0.19177
2086.9,0.19225
2081.12,0.19216
2075.33,0.19178
2069.54,0.19131
2063.76,0.19083
2057.97,0.19012
2052.19,0.18917
2046.4,0.18689
2040.61,0.18409
2034.83,0.18132
2029.04,0.17912
2023.25,0.17853
2017.47,0.17743
2011.68,0.17470
2005.9,0.17190
2000.11,0.17045
1994.32,0.16953
1988.54,0.16867
1982.75,0.16805
1976.96,0.16775
1971.18,0.16664
1965.39,0.16570
1959.61,0.16449
1953.82,0.16269
1948.03,0.16113
1942.25,0.16069
1936.46,0.16247
1930.67,0.16534
1924.89,0.16634
1919.1,0.16563
1913.32,0.16294
1907.53,0.15937
1901.74,0.15486
1895.96,0.15098
1890.17,0.14696
1884.38,0.14389
1878.6,0.14214
1872.81,0.14007
1867.03,0.14058
1861.24,0.14343
1855.45,0.14894
1849.67,0.15375
1843.88,0.15608
1838.09,0.15607
1832.31,0.15379
1826.52,0.14989
1820.74,0.14561
1814.95,0.14059
1809.16,0.13478
1803.38,0.12769
1797.59,0.12138
1791.8,0.12217
1786.02,0.12662
1780.23,0.12861
1774.45,0.12913
1768.66,0.12864
1762.87,0.12642
1757.09,0.12180
1751.3,0.11432
1745.51,0.09964
1739.73,0.07892
1733.94,0.06531
1728.16,0.06650
1722.37,0.07657
1716.58,0.08819
1710.8,0.09240
1705.01,0.09084
1699.22,0.08809
1693.44,0.08440
1687.65,0.08103
1681.87,0.07803
1676.08,0.07537
1670.29,0.07297
1664.51,0.07116
1658.72,0.06953
1652.93,0.06887
1647.15,0.06767
1641.36,0.06623
1635.58,0.06553
1629.79,0.06444
1624,0.06358
1618.22,0.06270
1612.43,0.06100
1606.64,0.05898
1600.86,0.05823
1595.07,0.05963
1589.29,0.05978
1583.5,0.05865
1577.71,0.05981
1571.93,0.06057
1566.14,0.06112
1560.35,0.06272
1554.57,0.06393
1548.78,0.06541
1543,0.06659
1537.21,0.06811
1531.42,0.06969
1525.64,0.07091
1519.85,0.07121
1514.07,0.07067
1508.28,0.06955
1502.49,0.06622
1496.71,0.05989
1490.92,0.06092
1485.13,0.06378
1479.35,0.06173
1473.56,0.05895
1467.78,0.05532
1461.99,0.05415
1456.2,0.05206
1450.42,0.05353
1444.63,0.05551
1438.84,0.05701
1433.06,0.05741
1427.27,0.05758
1421.49,0.05793
1415.7,0.05846
1409.91,0.05978
1404.13,0.06145
1398.34,0.06328
1392.55,0.06504
1386.77,0.06566
1380.98,0.06553
1375.2,0.06598
1369.41,0.06668
1363.62,0.06765
1357.84,0.06823
1352.05,0.06967
1346.26,0.07093
1340.48,0.07157
1334.69,0.07217
1328.91,0.07208
1323.12,0.07252
1317.33,0.07238
1311.55,0.07371
1305.76,0.07657
1299.97,0.07853
1294.19,0.07847
1288.4,0.07745
1282.62,0.07630
1276.83,0.07638
1271.04,0.07695
1265.26,0.07686
1259.47,0.07777
1253.68,0.07854
1247.9,0.07903
1242.11,0.07956
1236.33,0.08120
1230.54,0.08269
1224.75,0.08376
1218.97,0.08215
1213.18,0.07918
1207.39,0.07603
1201.61,0.07409
1195.82,0.07335
1190.04,0.07263
1184.25,0.07197
1178.46,0.07116
1172.68,0.07078
1166.89,0.07059
1161.1,0.06890
1155.32,0.07128
1149.53,0.07571
1143.75,0.07804
1137.96,0.08023
1132.17,0.08028
1126.39,0.08115
1120.6,0.08175
1114.81,0.08205
1109.03,0.08394
1103.24,0.08520
1097.46,0.08840
1091.67,0.09079
1085.88,0.09204
1080.1,0.09341
1074.31,0.09480
1068.52,0.09357
1062.74,0.09125
1056.95,0.09059
1051.17,0.09219
1045.38,0.09761
1039.59,0.10290
1033.81,0.10816
1028.02,0.11058
1022.24,0.11382
1016.45,0.11370
1010.66,0.10650
1004.88,0.09846
999.09,0.09313
993.304,0.08939
987.518,0.08597
981.731,0.08323
975.945,0.08059
970.159,0.07686
964.373,0.07450
958.586,0.07331
952.8,0.07211
947.014,0.07105
941.228,0.07070
935.441,0.07026
929.655,0.06916
923.869,0.06939
918.083,0.06803
912.297,0.06595
906.51,0.06467
900.724,0.06435
894.938,0.06398
889.152,0.06379
883.365,0.06276
877.579,0.06000
871.793,0.06026
866.007,0.06119
860.22,0.06075
854.434,0.05944
848.648,0.05789
842.862,0.05800
837.075,0.05683
831.289,0.05390
825.503,0.05283
819.717,0.04997
813.931,0.04848
808.144,0.04927
802.358,0.04918
796.572,0.04723
790.786,0.04594
784.999,0.04681
779.213,0.04632
773.427,0.04477
767.641,0.04484
761.854,0.04531
756.068,0.04373
750.282,0.04303
744.496,0.04236
738.709,0.04190
732.923,0.04194
727.137,0.04285
721.351,0.04369
715.565,0.04405
709.778,0.04505
703.992,0.04940
698.206,0.05484
692.42,0.05210
686.633,0.05604
680.847,0.06257
675.061,0.07113
669.275,0.07572
663.488,0.06788
657.702,0.06428
651.916,0.06330
646.13,0.06074
640.343,0.05816
634.557,0.05739
628.771,0.05541
622.985,0.05767
617.198,0.05760
611.412,0.05952
605.626,0.06233
599.84,0.06171