File: 01_Data/Fiber_Cement_Board/FTIR/IS/Deprecated/Fiber_Cement_Board_IS_S_220928_R5.dpt
7497.03,0.50245
7491.25,0.50475
7485.46,0.50189
7479.67,0.50367
7473.89,0.50420
7468.1,0.49330
7462.32,0.49476
7456.53,0.49365
7450.74,0.50039
7444.96,0.49271
7439.17,0.49740
7433.38,0.49212
7427.6,0.49468
7421.81,0.50054
7416.03,0.50007
7410.24,0.49631
7404.45,0.48929
7398.67,0.50305
7392.88,0.49541
7387.09,0.49901
7381.31,0.50469
7375.52,0.50321
7369.74,0.49814
7363.95,0.49574
7358.16,0.49624
7352.38,0.50395
7346.59,0.49951
7340.8,0.48893
7335.02,0.49601
7329.23,0.50059
7323.45,0.49806
7317.66,0.49382
7311.87,0.50086
7306.09,0.49417
7300.3,0.50811
7294.51,0.49750
7288.73,0.49616
7282.94,0.49783
7277.16,0.49274
7271.37,0.48997
7265.58,0.49769
7259.8,0.49530
7254.01,0.49695
7248.22,0.49951
7242.44,0.49586
7236.65,0.50034
7230.87,0.49073
7225.08,0.49912
7219.29,0.49645
7213.51,0.50063
7207.72,0.49969
7201.93,0.49960
7196.15,0.49607
7190.36,0.49033
7184.58,0.47162
7178.79,0.48807
7173,0.49232
7167.22,0.48394
7161.43,0.49158
7155.65,0.48799
7149.86,0.48545
7144.07,0.47771
7138.29,0.48787
7132.5,0.48403
7126.71,0.48230
7120.93,0.48792
7115.14,0.48372
7109.36,0.47815
7103.57,0.48365
7097.78,0.48320
7092,0.48570
7086.21,0.48278
7080.42,0.47867
7074.64,0.48913
7068.85,0.48896
7063.07,0.48556
7057.28,0.48218
7051.49,0.48509
7045.71,0.47981
7039.92,0.47914
7034.13,0.48045
7028.35,0.48303
7022.56,0.48057
7016.78,0.47562
7010.99,0.48358
7005.2,0.47915
6999.42,0.47952
6993.63,0.48141
6987.84,0.48772
6982.06,0.48360
6976.27,0.47887
6970.49,0.48296
6964.7,0.48496
6958.91,0.48231
6953.13,0.48846
6947.34,0.48172
6941.55,0.48099
6935.77,0.48392
6929.98,0.48087
6924.2,0.48077
6918.41,0.48416
6912.62,0.48444
6906.84,0.48135
6901.05,0.48334
6895.26,0.48239
6889.48,0.48874
6883.69,0.48367
6877.91,0.48891
6872.12,0.48467
6866.33,0.48749
6860.55,0.48919
6854.76,0.48409
6848.97,0.49066
6843.19,0.48622
6837.4,0.48648
6831.62,0.48331
6825.83,0.48789
6820.04,0.48595
6814.26,0.48973
6808.47,0.48965
6802.68,0.48602
6796.9,0.48779
6791.11,0.48551
6785.33,0.48975
6779.54,0.48194
6773.75,0.48654
6767.97,0.48476
6762.18,0.49054
6756.39,0.48980
6750.61,0.48591
6744.82,0.48722
6739.04,0.48869
6733.25,0.48796
6727.46,0.48731
6721.68,0.48814
6715.89,0.48820
6710.1,0.48894
6704.32,0.49314
6698.53,0.48733
6692.75,0.48675
6686.96,0.49069
6681.17,0.49515
6675.39,0.49042
6669.6,0.49188
6663.82,0.49213
6658.03,0.49476
6652.24,0.49116
6646.46,0.49376
6640.67,0.49637
6634.88,0.49508
6629.1,0.49595
6623.31,0.49358
6617.53,0.49424
6611.74,0.49778
6605.95,0.49233
6600.17,0.49752
6594.38,0.49318
6588.59,0.49300
6582.81,0.49637
6577.02,0.49759
6571.24,0.49699
6565.45,0.50098
6559.66,0.49675
6553.88,0.49721
6548.09,0.49826
6542.3,0.49835
6536.52,0.49947
6530.73,0.49912
6524.95,0.49558
6519.16,0.49697
6513.37,0.49865
6507.59,0.49823
6501.8,0.49896
6496.01,0.49676
6490.23,0.49603
6484.44,0.49779
6478.66,0.49769
6472.87,0.49958
6467.08,0.50019
6461.3,0.50205
6455.51,0.50100
6449.72,0.50063
6443.94,0.49613
6438.15,0.49820
6432.37,0.50252
6426.58,0.50254
6420.79,0.49793
6415.01,0.49446
6409.22,0.49959
6403.43,0.49794
6397.65,0.50135
6391.86,0.49995
6386.08,0.50000
6380.29,0.49812
6374.5,0.50391
6368.72,0.50006
6362.93,0.50322
6357.14,0.49944
6351.36,0.50143
6345.57,0.50335
6339.79,0.50247
6334,0.50163
6328.21,0.49936
6322.43,0.50378
6316.64,0.50756
6310.85,0.50358
6305.07,0.50109
6299.28,0.50271
6293.5,0.50636
6287.71,0.50415
6281.92,0.50143
6276.14,0.49975
6270.35,0.50687
6264.56,0.50130
6258.78,0.50520
6252.99,0.50182
6247.21,0.50480
6241.42,0.50386
6235.63,0.50568
6229.85,0.50586
6224.06,0.50761
6218.27,0.50365
6212.49,0.50706
6206.7,0.50946
6200.92,0.50563
6195.13,0.50608
6189.34,0.50249
6183.56,0.50560
6177.77,0.50672
6171.98,0.50701
6166.2,0.51047
6160.41,0.50525
6154.63,0.50700
6148.84,0.50690
6143.05,0.50350
6137.27,0.50654
6131.48,0.50744
6125.7,0.51232
6119.91,0.51014
6114.12,0.51059
6108.34,0.50612
6102.55,0.50579
6096.76,0.50507
6090.98,0.50672
6085.19,0.50587
6079.41,0.50781
6073.62,0.50307
6067.83,0.50728
6062.05,0.50779
6056.26,0.50861
6050.47,0.50971
6044.69,0.50665
6038.9,0.51140
6033.12,0.50875
6027.33,0.50728
6021.54,0.50739
6015.76,0.50743
6009.97,0.50787
6004.18,0.50826
5998.4,0.50799
5992.61,0.50315
5986.83,0.50432
5981.04,0.50097
5975.25,0.50483
5969.47,0.50281
5963.68,0.50080
5957.89,0.50465
5952.11,0.50178
5946.32,0.50305
5940.54,0.50153
5934.75,0.50386
5928.96,0.50077
5923.18,0.50391
5917.39,0.50374
5911.6,0.50093
5905.82,0.50223
5900.03,0.50577
5894.25,0.50277
5888.46,0.50287
5882.67,0.50309
5876.89,0.50243
5871.1,0.50727
5865.31,0.50620
5859.53,0.50481
5853.74,0.50748
5847.96,0.50695
5842.17,0.50446
5836.38,0.50775
5830.6,0.50808
5824.81,0.50465
5819.02,0.50608
5813.24,0.50550
5807.45,0.50410
5801.67,0.50473
5795.88,0.50617
5790.09,0.50632
5784.31,0.50541
5778.52,0.50461
5772.73,0.50695
5766.95,0.50389
5761.16,0.50732
5755.38,0.50857
5749.59,0.50711
5743.8,0.50510
5738.02,0.50684
5732.23,0.50740
5726.44,0.50582
5720.66,0.50433
5714.87,0.50778
5709.09,0.50791
5703.3,0.50464
5697.51,0.50690
5691.73,0.50590
5685.94,0.50578
5680.15,0.50541
5674.37,0.50398
5668.58,0.50577
5662.8,0.50554
5657.01,0.50547
5651.22,0.50587
5645.44,0.50630
5639.65,0.50516
5633.87,0.50950
5628.08,0.50544
5622.29,0.50865
5616.51,0.50871
5610.72,0.50695
5604.93,0.50861
5599.15,0.50955
5593.36,0.50629
5587.58,0.50590
5581.79,0.50865
5576,0.50757
5570.22,0.50738
5564.43,0.50794
5558.64,0.50622
5552.86,0.50792
5547.07,0.50799
5541.29,0.50852
5535.5,0.50813
5529.71,0.50925
5523.93,0.50870
5518.14,0.50794
5512.35,0.50991
5506.57,0.50817
5500.78,0.50818
5495,0.50920
5489.21,0.50908
5483.42,0.50749
5477.64,0.50928
5471.85,0.50859
5466.06,0.50815
5460.28,0.50948
5454.49,0.51006
5448.71,0.50970
5442.92,0.50945
5437.13,0.50807
5431.35,0.50935
5425.56,0.50873
5419.77,0.50969
5413.99,0.51074
5408.2,0.51033
5402.42,0.50978
5396.63,0.50809
5390.84,0.50809
5385.06,0.50973
5379.27,0.50836
5373.48,0.50749
5367.7,0.50801
5361.91,0.50697
5356.13,0.50510
5350.34,0.50506
5344.55,0.50449
5338.77,0.50392
5332.98,0.50198
5327.19,0.50045
5321.41,0.49773
5315.62,0.49575
5309.84,0.49508
5304.05,0.49254
5298.26,0.48750
5292.48,0.48469
5286.69,0.48150
5280.9,0.47681
5275.12,0.47154
5269.33,0.46643
5263.55,0.46109
5257.76,0.45501
5251.97,0.44913
5246.19,0.44395
5240.4,0.43880
5234.61,0.43260
5228.83,0.42979
5223.04,0.42347
5217.26,0.41948
5211.47,0.41751
5205.68,0.41491
5199.9,0.41499
5194.11,0.41439
5188.32,0.41371
5182.54,0.41512
5176.75,0.41628
5170.97,0.41766
5165.18,0.42204
5159.39,0.42212
5153.61,0.42202
5147.82,0.42640
5142.03,0.42695
5136.25,0.42980
5130.46,0.43157
5124.68,0.43442
5118.89,0.43421
5113.1,0.43733
5107.32,0.43909
5101.53,0.44146
5095.75,0.44221
5089.96,0.44372
5084.17,0.44478
5078.39,0.44590
5072.6,0.44750
5066.81,0.44792
5061.03,0.44954
5055.24,0.45234
5049.46,0.45440
5043.67,0.45457
5037.88,0.45466
5032.1,0.45728
5026.31,0.45898
5020.52,0.45863
5014.74,0.46139
5008.95,0.46116
5003.17,0.46286
4997.38,0.46371
4991.59,0.46431
4985.81,0.46591
4980.02,0.46758
4974.23,0.46772
4968.45,0.46854
4962.66,0.46939
4956.88,0.46937
4951.09,0.47069
4945.3,0.47029
4939.52,0.47172
4933.73,0.47092
4927.94,0.47114
4922.16,0.47224
4916.37,0.47158
4910.59,0.47137
4904.8,0.47185
4899.01,0.47130
4893.23,0.47072
4887.44,0.47069
4881.65,0.46977
4875.87,0.47015
4870.08,0.46934
4864.3,0.46766
4858.51,0.46774
4852.72,0.46576
4846.94,0.46667
4841.15,0.46668
4835.36,0.46488
4829.58,0.46398
4823.79,0.46438
4818.01,0.46290
4812.22,0.46340
4806.43,0.46132
4800.65,0.46088
4794.86,0.46103
4789.07,0.46065
4783.29,0.46074
4777.5,0.46032
4771.72,0.45979
4765.93,0.45969
4760.14,0.45920
4754.36,0.45878
4748.57,0.45988
4742.78,0.45996
4737,0.45968
4731.21,0.46131
4725.43,0.46098
4719.64,0.46104
4713.85,0.46253
4708.07,0.46169
4702.28,0.46121
4696.49,0.46227
4690.71,0.46206
4684.92,0.46164
4679.14,0.45980
4673.35,0.45752
4667.56,0.45790
4661.78,0.45675
4655.99,0.45887
4650.2,0.46017
4644.42,0.46064
4638.63,0.46036
4632.85,0.45853
4627.06,0.45806
4621.27,0.45726
4615.49,0.45566
4609.7,0.45516
4603.92,0.45549
4598.13,0.45755
4592.34,0.45788
4586.56,0.45788
4580.77,0.45707
4574.98,0.45458
4569.2,0.45471
4563.41,0.45489
4557.63,0.45394
4551.84,0.45393
4546.05,0.45282
4540.27,0.45234
4534.48,0.45160
4528.69,0.45079
4522.91,0.44947
4517.12,0.44916
4511.34,0.44900
4505.55,0.44760
4499.76,0.44695
4493.98,0.44617
4488.19,0.44562
4482.4,0.44473
4476.62,0.44411
4470.83,0.44427
4465.05,0.44229
4459.26,0.44018
4453.47,0.43883
4447.69,0.43605
4441.9,0.43459
4436.11,0.43300
4430.33,0.43057
4424.54,0.42857
4418.76,0.42640
4412.97,0.42335
4407.18,0.42129
4401.4,0.41881
4395.61,0.41971
4389.82,0.41887
4384.04,0.41916
4378.25,0.41781
4372.47,0.41566
4366.68,0.41441
4360.89,0.41365
4355.11,0.41318
4349.32,0.41100
4343.53,0.40822
4337.75,0.40500
4331.96,0.40364
4326.18,0.40263
4320.39,0.40341
4314.6,0.40749
4308.82,0.40887
4303.03,0.40864
4297.24,0.40793
4291.46,0.40767
4285.67,0.40593
4279.89,0.40372
4274.1,0.40111
4268.31,0.39909
4262.53,0.39825
4256.74,0.39693
4250.95,0.39666
4245.17,0.39607
4239.38,0.39627
4233.6,0.39590
4227.81,0.39492
4222.02,0.39496
4216.24,0.39323
4210.45,0.39225
4204.66,0.39152
4198.88,0.39125
4193.09,0.39038
4187.31,0.39005
4181.52,0.38773
4175.73,0.38761
4169.95,0.38673
4164.16,0.38713
4158.37,0.38672
4152.59,0.38480
4146.8,0.38272
4141.02,0.38187
4135.23,0.38021
4129.44,0.37716
4123.66,0.37520
4117.87,0.37305
4112.09,0.37038
4106.3,0.36795
4100.51,0.36471
4094.73,0.36159
4088.94,0.35896
4083.15,0.35543
4077.37,0.35096
4071.58,0.34715
4065.8,0.34245
4060.01,0.33878
4054.22,0.33598
4048.44,0.33456
4042.65,0.33234
4036.86,0.33072
4031.08,0.33174
4025.29,0.33265
4019.51,0.33454
4013.72,0.33556
4007.93,0.33522
4002.15,0.33509
3996.36,0.33542
3990.57,0.33663
3984.79,0.33720
3979,0.33717
3973.22,0.33752
3967.43,0.33706
3961.64,0.33759
3955.86,0.33704
3950.07,0.33786
3944.28,0.33766
3938.5,0.33788
3932.71,0.33804
3926.93,0.33889
3921.14,0.33868
3915.35,0.33972
3909.57,0.33962
3903.78,0.33977
3897.99,0.33986
3892.21,0.34024
3886.42,0.33964
3880.64,0.33912
3874.85,0.33934
3869.06,0.33932
3863.28,0.33905
3857.49,0.33912
3851.7,0.33808
3845.92,0.33771
3840.13,0.33643
3834.35,0.33616
3828.56,0.33471
3822.77,0.33308
3816.99,0.33056
3811.2,0.32932
3805.41,0.32808
3799.63,0.32619
3793.84,0.32398
3788.06,0.32165
3782.27,0.31989
3776.48,0.31779
3770.7,0.31454
3764.91,0.31141
3759.12,0.30838
3753.34,0.30422
3747.55,0.30043
3741.77,0.29518
3735.98,0.28959
3730.19,0.28311
3724.41,0.27614
3718.62,0.26769
3712.83,0.25877
3707.05,0.24791
3701.26,0.23521
3695.48,0.22134
3689.69,0.20498
3683.9,0.18571
3678.12,0.14775
3672.33,0.14414
3666.54,0.14704
3660.76,0.13839
3654.97,0.13455
3649.19,0.12858
3643.4,0.12337
3637.61,0.11936
3631.83,0.11524
3626.04,0.11045
3620.25,0.10708
3614.47,0.10403
3608.68,0.10084
3602.9,0.09961
3597.11,0.09779
3591.32,0.09607
3585.54,0.09352
3579.75,0.09291
3573.97,0.09077
3568.18,0.08948
3562.39,0.08739
3556.61,0.08625
3550.82,0.08589
3545.03,0.08466
3539.25,0.08398
3533.46,0.08260
3527.68,0.08195
3521.89,0.08171
3516.1,0.08099
3510.32,0.08066
3504.53,0.07983
3498.74,0.07914
3492.96,0.07855
3487.17,0.07756
3481.39,0.07651
3475.6,0.07641
3469.81,0.07531
3464.03,0.07584
3458.24,0.07496
3452.45,0.07428
3446.67,0.07361
3440.88,0.07362
3435.1,0.07319
3429.31,0.07371
3423.52,0.07302
3417.74,0.07263
3411.95,0.07242
3406.16,0.07212
3400.38,0.07169
3394.59,0.07274
3388.81,0.07203
3383.02,0.07169
3377.23,0.07160
3371.45,0.07185
3365.66,0.07264
3359.87,0.07207
3354.09,0.07237
3348.3,0.07279
3342.52,0.07298
3336.73,0.07322
3330.94,0.07321
3325.16,0.07357
3319.37,0.07350
3313.58,0.07372
3307.8,0.07417
3302.01,0.07440
3296.23,0.07540
3290.44,0.07460
3284.65,0.07474
3278.87,0.07514
3273.08,0.07573
3267.29,0.07642
3261.51,0.07703
3255.72,0.07747
3249.94,0.07771
3244.15,0.07792
3238.36,0.07874
3232.58,0.07943
3226.79,0.08047
3221,0.08154
3215.22,0.08138
3209.43,0.08192
3203.65,0.08306
3197.86,0.08338
3192.07,0.08422
3186.29,0.08544
3180.5,0.08546
3174.71,0.08677
3168.93,0.08755
3163.14,0.08849
3157.36,0.08900
3151.57,0.08979
3145.78,0.09026
3140,0.09081
3134.21,0.09196
3128.42,0.09277
3122.64,0.09333
3116.85,0.09385
3111.07,0.09403
3105.28,0.09440
3099.49,0.09483
3093.71,0.09527
3087.92,0.09368
3082.14,0.09324
3076.35,0.09579
3070.56,0.09553
3064.78,0.09333
3058.99,0.09295
3053.2,0.09685
3047.42,0.10027
3041.63,0.10045
3035.85,0.09645
3030.06,0.09025
3024.27,0.09071
3018.49,0.10012
3012.7,0.10490
3006.91,0.10527
3001.13,0.10380
2995.34,0.10465
2989.56,0.10278
2983.77,0.09896
2977.98,0.09311
2972.2,0.08545
2966.41,0.07927
2960.62,0.07611
2954.84,0.07637
2949.05,0.07684
2943.27,0.07658
2937.48,0.07342
2931.69,0.07097
2925.91,0.07115
2920.12,0.07293
2914.33,0.07622
2908.55,0.08007
2902.76,0.08347
2896.98,0.08600
2891.19,0.08927
2885.4,0.09097
2879.62,0.08999
2873.83,0.08828
2868.04,0.08912
2862.26,0.08883
2856.47,0.08851
2850.69,0.09396
2844.9,0.10414
2839.11,0.11434
2833.33,0.12138
2827.54,0.12601
2821.75,0.12967
2815.97,0.13323
2810.18,0.13622
2804.4,0.13872
2798.61,0.14160
2792.82,0.14376
2787.04,0.14525
2781.25,0.14679
2775.46,0.14863
2769.68,0.15011
2763.89,0.15132
2758.11,0.15218
2752.32,0.15334
2746.53,0.15388
2740.75,0.15492
2734.96,0.15529
2729.17,0.15656
2723.39,0.15785
2717.6,0.15939
2711.82,0.16137
2706.03,0.16337
2700.24,0.16491
2694.46,0.16708
2688.67,0.16870
2682.88,0.17033
2677.1,0.17161
2671.31,0.17309
2665.53,0.17429
2659.74,0.17581
2653.95,0.17726
2648.17,0.17849
2642.38,0.18001
2636.59,0.18070
2630.81,0.18144
2625.02,0.18231
2619.24,0.18265
2613.45,0.18342
2607.66,0.18311
2601.88,0.18346
2596.09,0.18391
2590.3,0.18491
2584.52,0.18551
2578.73,0.18564
2572.95,0.18559
2567.16,0.18605
2561.37,0.18588
2555.59,0.18584
2549.8,0.18470
2544.02,0.18356
2538.23,0.18238
2532.44,0.18006
2526.66,0.17726
2520.87,0.17533
2515.08,0.17457
2509.3,0.17571
2503.51,0.17932
2497.73,0.18478
2491.94,0.19015
2486.15,0.19464
2480.37,0.19848
2474.58,0.20136
2468.79,0.20343
2463.01,0.20550
2457.22,0.20660
2451.44,0.20736
2445.65,0.20819
2439.86,0.20895
2434.08,0.20954
2428.29,0.21000
2422.5,0.21063
2416.72,0.21109
2410.93,0.21125
2405.15,0.21119
2399.36,0.21118
2393.57,0.21115
2387.79,0.21126
2382,0.21098
2376.21,0.21125
2370.43,0.21105
2364.64,0.21075
2358.86,0.21007
2353.07,0.20973
2347.28,0.20925
2341.5,0.20782
2335.71,0.20756
2329.92,0.20808
2324.14,0.20825
2318.35,0.20711
2312.57,0.20633
2306.78,0.20641
2300.99,0.20641
2295.21,0.20569
2289.42,0.20499
2283.63,0.20434
2277.85,0.20379
2272.06,0.20259
2266.28,0.20157
2260.49,0.20072
2254.7,0.19936
2248.92,0.19898
2243.13,0.19813
2237.34,0.19740
2231.56,0.19729
2225.77,0.19745
2219.99,0.19761
2214.2,0.19820
2208.41,0.19849
2202.63,0.19914
2196.84,0.19862
2191.05,0.19796
2185.27,0.19774
2179.48,0.19671
2173.7,0.19600
2167.91,0.19495
2162.12,0.19379
2156.34,0.19248
2150.55,0.19133
2144.76,0.19054
2138.98,0.18983
2133.19,0.18960
2127.41,0.19065
2121.62,0.19147
2115.83,0.19221
2110.05,0.19268
2104.26,0.19311
2098.47,0.19350
2092.69,0.19367
2086.9,0.19414
2081.12,0.19404
2075.33,0.19381
2069.54,0.19325
2063.76,0.19267
2057.97,0.19212
2052.19,0.19070
2046.4,0.18869
2040.61,0.18568
2034.83,0.18251
2029.04,0.18059
2023.25,0.18004
2017.47,0.17846
2011.68,0.17578
2005.9,0.17304
2000.11,0.17127
1994.32,0.17049
1988.54,0.17009
1982.75,0.16924
1976.96,0.16863
1971.18,0.16749
1965.39,0.16618
1959.61,0.16509
1953.82,0.16376
1948.03,0.16199
1942.25,0.16134
1936.46,0.16364
1930.67,0.16604
1924.89,0.16725
1919.1,0.16631
1913.32,0.16395
1907.53,0.16003
1901.74,0.15570
1895.96,0.15159
1890.17,0.14741
1884.38,0.14461
1878.6,0.14234
1872.81,0.14083
1867.03,0.14082
1861.24,0.14423
1855.45,0.14975
1849.67,0.15446
1843.88,0.15691
1838.09,0.15686
1832.31,0.15473
1826.52,0.15084
1820.74,0.14598
1814.95,0.14155
1809.16,0.13562
1803.38,0.12844
1797.59,0.12183
1791.8,0.12271
1786.02,0.12696
1780.23,0.12915
1774.45,0.12988
1768.66,0.12979
1762.87,0.12751
1757.09,0.12274
1751.3,0.11423
1745.51,0.10049
1739.73,0.07950
1733.94,0.06578
1728.16,0.06697
1722.37,0.07760
1716.58,0.08903
1710.8,0.09274
1705.01,0.09136
1699.22,0.08874
1693.44,0.08526
1687.65,0.08203
1681.87,0.07888
1676.08,0.07622
1670.29,0.07388
1664.51,0.07223
1658.72,0.07035
1652.93,0.06915
1647.15,0.06821
1641.36,0.06703
1635.58,0.06617
1629.79,0.06482
1624,0.06358
1618.22,0.06270
1612.43,0.06147
1606.64,0.05946
1600.86,0.05812
1595.07,0.05990
1589.29,0.05978
1583.5,0.05955
1577.71,0.06004
1571.93,0.06068
1566.14,0.06133
1560.35,0.06254
1554.57,0.06362
1548.78,0.06521
1543,0.06733
1537.21,0.06902
1531.42,0.07022
1525.64,0.07130
1519.85,0.07175
1514.07,0.07074
1508.28,0.06978
1502.49,0.06654
1496.71,0.05974
1490.92,0.06056
1485.13,0.06359
1479.35,0.06168
1473.56,0.05924
1467.78,0.05563
1461.99,0.05409
1456.2,0.05223
1450.42,0.05375
1444.63,0.05556
1438.84,0.05689
1433.06,0.05761
1427.27,0.05747
1421.49,0.05767
1415.7,0.05829
1409.91,0.06010
1404.13,0.06177
1398.34,0.06357
1392.55,0.06518
1386.77,0.06595
1380.98,0.06531
1375.2,0.06627
1369.41,0.06716
1363.62,0.06782
1357.84,0.06811
1352.05,0.06996
1346.26,0.07131
1340.48,0.07162
1334.69,0.07182
1328.91,0.07239
1323.12,0.07229
1317.33,0.07233
1311.55,0.07384
1305.76,0.07649
1299.97,0.07856
1294.19,0.07854
1288.4,0.07756
1282.62,0.07635
1276.83,0.07690
1271.04,0.07731
1265.26,0.07678
1259.47,0.07745
1253.68,0.07869
1247.9,0.07906
1242.11,0.07992
1236.33,0.08157
1230.54,0.08271
1224.75,0.08340
1218.97,0.08204
1213.18,0.07901
1207.39,0.07594
1201.61,0.07338
1195.82,0.07335
1190.04,0.07340
1184.25,0.07202
1178.46,0.07099
1172.68,0.07093
1166.89,0.07056
1161.1,0.06934
1155.32,0.07169
1149.53,0.07539
1143.75,0.07842
1137.96,0.07985
1132.17,0.08103
1126.39,0.08151
1120.6,0.08146
1114.81,0.08211
1109.03,0.08467
1103.24,0.08597
1097.46,0.08893
1091.67,0.09039
1085.88,0.09245
1080.1,0.09354
1074.31,0.09488
1068.52,0.09389
1062.74,0.09169
1056.95,0.09007
1051.17,0.09249
1045.38,0.09796
1039.59,0.10363
1033.81,0.10798
1028.02,0.11069
1022.24,0.11349
1016.45,0.11319
1010.66,0.10676
1004.88,0.09870
999.09,0.09281
993.304,0.08928
987.518,0.08644
981.731,0.08344
975.945,0.08071
970.159,0.07687
964.373,0.07439
958.586,0.07259
952.8,0.07107
947.014,0.07078
941.228,0.07079
935.441,0.06969
929.655,0.06999
923.869,0.06903
918.083,0.06795
912.297,0.06558
906.51,0.06522
900.724,0.06420
894.938,0.06473
889.152,0.06407
883.365,0.06300
877.579,0.06052
871.793,0.06081
866.007,0.06089
860.22,0.06086
854.434,0.05960
848.648,0.05854
842.862,0.05741
837.075,0.05606
831.289,0.05492
825.503,0.05292
819.717,0.05029
813.931,0.04858
808.144,0.04919
802.358,0.04906
796.572,0.04717
790.786,0.04642
784.999,0.04662
779.213,0.04623
773.427,0.04529
767.641,0.04537
761.854,0.04628
756.068,0.04461
750.282,0.04382
744.496,0.04345
738.709,0.04332
732.923,0.04211
727.137,0.04183
721.351,0.04337
715.565,0.04465
709.778,0.04391
703.992,0.04927
698.206,0.05516
692.42,0.05226
686.633,0.05677
680.847,0.06277
675.061,0.07113
669.275,0.07680
663.488,0.06774
657.702,0.06415
651.916,0.06356
646.13,0.06121
640.343,0.05716
634.557,0.05648
628.771,0.05471
622.985,0.05695
617.198,0.05689
611.412,0.05615
605.626,0.05975
599.84,0.05834