File: 01_Data/Fiber_Cement_Board/FTIR/IS/Deprecated/Fiber_Cement_Board_IS_S_220928_R4.dpt
7497.03,0.49620
7491.25,0.50651
7485.46,0.50825
7479.67,0.50309
7473.89,0.50038
7468.1,0.50270
7462.32,0.49873
7456.53,0.49631
7450.74,0.49783
7444.96,0.50064
7439.17,0.50428
7433.38,0.49395
7427.6,0.49795
7421.81,0.51045
7416.03,0.50621
7410.24,0.49306
7404.45,0.49401
7398.67,0.49084
7392.88,0.51000
7387.09,0.50223
7381.31,0.50401
7375.52,0.49937
7369.74,0.49413
7363.95,0.50134
7358.16,0.49724
7352.38,0.50597
7346.59,0.50024
7340.8,0.50295
7335.02,0.49557
7329.23,0.50591
7323.45,0.50213
7317.66,0.50348
7311.87,0.50763
7306.09,0.49664
7300.3,0.49349
7294.51,0.50453
7288.73,0.49551
7282.94,0.50370
7277.16,0.50406
7271.37,0.50133
7265.58,0.49865
7259.8,0.50032
7254.01,0.49333
7248.22,0.49289
7242.44,0.49424
7236.65,0.49165
7230.87,0.49665
7225.08,0.49589
7219.29,0.49842
7213.51,0.50031
7207.72,0.49555
7201.93,0.49405
7196.15,0.48138
7190.36,0.49204
7184.58,0.47603
7178.79,0.48341
7173,0.48904
7167.22,0.48844
7161.43,0.48314
7155.65,0.48635
7149.86,0.48557
7144.07,0.48832
7138.29,0.48949
7132.5,0.48620
7126.71,0.48483
7120.93,0.48675
7115.14,0.48437
7109.36,0.48740
7103.57,0.48409
7097.78,0.48622
7092,0.48629
7086.21,0.47962
7080.42,0.48363
7074.64,0.48112
7068.85,0.49063
7063.07,0.48014
7057.28,0.47985
7051.49,0.48416
7045.71,0.48478
7039.92,0.47550
7034.13,0.48328
7028.35,0.48182
7022.56,0.48414
7016.78,0.48360
7010.99,0.48163
7005.2,0.48564
6999.42,0.48499
6993.63,0.48344
6987.84,0.48186
6982.06,0.47895
6976.27,0.48175
6970.49,0.48307
6964.7,0.47997
6958.91,0.48425
6953.13,0.48013
6947.34,0.48200
6941.55,0.48273
6935.77,0.48091
6929.98,0.48560
6924.2,0.48916
6918.41,0.48006
6912.62,0.48361
6906.84,0.48761
6901.05,0.47801
6895.26,0.48287
6889.48,0.47993
6883.69,0.48454
6877.91,0.48429
6872.12,0.48755
6866.33,0.48503
6860.55,0.48852
6854.76,0.48031
6848.97,0.48471
6843.19,0.48612
6837.4,0.48146
6831.62,0.48533
6825.83,0.48445
6820.04,0.48851
6814.26,0.48038
6808.47,0.48674
6802.68,0.48900
6796.9,0.48878
6791.11,0.48723
6785.33,0.48541
6779.54,0.48604
6773.75,0.48550
6767.97,0.48858
6762.18,0.48844
6756.39,0.48648
6750.61,0.48743
6744.82,0.48595
6739.04,0.48803
6733.25,0.48633
6727.46,0.48971
6721.68,0.49077
6715.89,0.48858
6710.1,0.48616
6704.32,0.49004
6698.53,0.48697
6692.75,0.49377
6686.96,0.48981
6681.17,0.49453
6675.39,0.49464
6669.6,0.49631
6663.82,0.49078
6658.03,0.48751
6652.24,0.49066
6646.46,0.49606
6640.67,0.49365
6634.88,0.49391
6629.1,0.49311
6623.31,0.49045
6617.53,0.49476
6611.74,0.49415
6605.95,0.49471
6600.17,0.49286
6594.38,0.49361
6588.59,0.49336
6582.81,0.49337
6577.02,0.49334
6571.24,0.49255
6565.45,0.49301
6559.66,0.49637
6553.88,0.49675
6548.09,0.49148
6542.3,0.49602
6536.52,0.49515
6530.73,0.49423
6524.95,0.49757
6519.16,0.50153
6513.37,0.49928
6507.59,0.49570
6501.8,0.49563
6496.01,0.49605
6490.23,0.49462
6484.44,0.50017
6478.66,0.49886
6472.87,0.49788
6467.08,0.49600
6461.3,0.49744
6455.51,0.49761
6449.72,0.49766
6443.94,0.49736
6438.15,0.49746
6432.37,0.49849
6426.58,0.50193
6420.79,0.49944
6415.01,0.49975
6409.22,0.49942
6403.43,0.49985
6397.65,0.50004
6391.86,0.49957
6386.08,0.50253
6380.29,0.50143
6374.5,0.50274
6368.72,0.50120
6362.93,0.50035
6357.14,0.50383
6351.36,0.50134
6345.57,0.50092
6339.79,0.50100
6334,0.50630
6328.21,0.50022
6322.43,0.50150
6316.64,0.50203
6310.85,0.49994
6305.07,0.50318
6299.28,0.50354
6293.5,0.50631
6287.71,0.50143
6281.92,0.50325
6276.14,0.50487
6270.35,0.50396
6264.56,0.49984
6258.78,0.50183
6252.99,0.50576
6247.21,0.50344
6241.42,0.50378
6235.63,0.50533
6229.85,0.50472
6224.06,0.50312
6218.27,0.50653
6212.49,0.50307
6206.7,0.50270
6200.92,0.50096
6195.13,0.50596
6189.34,0.50692
6183.56,0.50694
6177.77,0.50651
6171.98,0.50619
6166.2,0.50581
6160.41,0.50828
6154.63,0.50558
6148.84,0.50670
6143.05,0.50475
6137.27,0.50813
6131.48,0.50699
6125.7,0.50740
6119.91,0.50803
6114.12,0.50742
6108.34,0.50594
6102.55,0.50516
6096.76,0.50553
6090.98,0.51067
6085.19,0.50938
6079.41,0.50910
6073.62,0.50738
6067.83,0.50863
6062.05,0.50595
6056.26,0.50923
6050.47,0.50654
6044.69,0.51068
6038.9,0.50772
6033.12,0.50709
6027.33,0.50743
6021.54,0.50656
6015.76,0.50411
6009.97,0.50586
6004.18,0.50479
5998.4,0.50589
5992.61,0.50778
5986.83,0.50453
5981.04,0.50389
5975.25,0.50354
5969.47,0.50504
5963.68,0.50403
5957.89,0.50131
5952.11,0.50402
5946.32,0.50399
5940.54,0.50392
5934.75,0.50124
5928.96,0.50174
5923.18,0.50260
5917.39,0.50250
5911.6,0.50116
5905.82,0.50377
5900.03,0.50381
5894.25,0.50252
5888.46,0.50430
5882.67,0.50557
5876.89,0.50659
5871.1,0.50276
5865.31,0.50496
5859.53,0.50637
5853.74,0.50407
5847.96,0.50637
5842.17,0.50405
5836.38,0.50439
5830.6,0.50514
5824.81,0.50453
5819.02,0.50494
5813.24,0.50267
5807.45,0.50323
5801.67,0.50321
5795.88,0.50433
5790.09,0.50446
5784.31,0.50436
5778.52,0.50631
5772.73,0.50428
5766.95,0.50471
5761.16,0.50596
5755.38,0.50710
5749.59,0.50693
5743.8,0.50585
5738.02,0.50750
5732.23,0.50566
5726.44,0.50611
5720.66,0.50664
5714.87,0.50562
5709.09,0.50633
5703.3,0.50657
5697.51,0.50550
5691.73,0.50594
5685.94,0.50524
5680.15,0.50594
5674.37,0.50484
5668.58,0.50345
5662.8,0.50702
5657.01,0.50586
5651.22,0.50538
5645.44,0.50719
5639.65,0.50570
5633.87,0.50809
5628.08,0.50761
5622.29,0.50585
5616.51,0.50756
5610.72,0.50654
5604.93,0.50755
5599.15,0.50651
5593.36,0.50847
5587.58,0.50694
5581.79,0.50695
5576,0.50523
5570.22,0.50889
5564.43,0.50621
5558.64,0.50924
5552.86,0.50870
5547.07,0.50708
5541.29,0.50798
5535.5,0.50834
5529.71,0.50899
5523.93,0.50883
5518.14,0.50781
5512.35,0.50789
5506.57,0.50813
5500.78,0.50734
5495,0.50699
5489.21,0.51022
5483.42,0.50950
5477.64,0.50772
5471.85,0.50916
5466.06,0.50696
5460.28,0.50826
5454.49,0.51038
5448.71,0.50825
5442.92,0.50914
5437.13,0.50883
5431.35,0.51033
5425.56,0.50976
5419.77,0.50788
5413.99,0.50892
5408.2,0.50806
5402.42,0.50835
5396.63,0.50915
5390.84,0.50823
5385.06,0.50963
5379.27,0.50990
5373.48,0.50926
5367.7,0.50632
5361.91,0.50619
5356.13,0.50654
5350.34,0.50478
5344.55,0.50408
5338.77,0.50163
5332.98,0.50154
5327.19,0.49973
5321.41,0.49779
5315.62,0.49713
5309.84,0.49432
5304.05,0.49193
5298.26,0.48743
5292.48,0.48435
5286.69,0.48044
5280.9,0.47497
5275.12,0.47157
5269.33,0.46600
5263.55,0.46079
5257.76,0.45415
5251.97,0.45017
5246.19,0.44374
5240.4,0.43671
5234.61,0.43191
5228.83,0.42668
5223.04,0.42339
5217.26,0.41918
5211.47,0.41577
5205.68,0.41426
5199.9,0.41223
5194.11,0.41412
5188.32,0.41387
5182.54,0.41574
5176.75,0.41682
5170.97,0.41817
5165.18,0.41900
5159.39,0.42066
5153.61,0.42237
5147.82,0.42402
5142.03,0.42666
5136.25,0.42856
5130.46,0.43079
5124.68,0.43238
5118.89,0.43527
5113.1,0.43497
5107.32,0.43821
5101.53,0.44069
5095.75,0.44108
5089.96,0.44235
5084.17,0.44480
5078.39,0.44588
5072.6,0.44751
5066.81,0.44652
5061.03,0.44879
5055.24,0.45112
5049.46,0.45310
5043.67,0.45382
5037.88,0.45473
5032.1,0.45593
5026.31,0.45757
5020.52,0.45848
5014.74,0.45943
5008.95,0.46103
5003.17,0.46158
4997.38,0.46264
4991.59,0.46296
4985.81,0.46479
4980.02,0.46558
4974.23,0.46649
4968.45,0.46783
4962.66,0.46784
4956.88,0.46973
4951.09,0.47010
4945.3,0.46971
4939.52,0.47040
4933.73,0.47088
4927.94,0.47090
4922.16,0.47029
4916.37,0.47001
4910.59,0.47137
4904.8,0.47201
4899.01,0.47058
4893.23,0.47037
4887.44,0.46975
4881.65,0.46798
4875.87,0.46804
4870.08,0.46748
4864.3,0.46692
4858.51,0.46825
4852.72,0.46707
4846.94,0.46616
4841.15,0.46516
4835.36,0.46389
4829.58,0.46374
4823.79,0.46333
4818.01,0.46367
4812.22,0.46169
4806.43,0.46110
4800.65,0.46066
4794.86,0.46032
4789.07,0.46057
4783.29,0.45989
4777.5,0.45948
4771.72,0.45940
4765.93,0.45899
4760.14,0.45944
4754.36,0.45977
4748.57,0.45914
4742.78,0.45863
4737,0.45864
4731.21,0.46002
4725.43,0.46014
4719.64,0.46018
4713.85,0.46104
4708.07,0.46064
4702.28,0.46089
4696.49,0.46079
4690.71,0.46135
4684.92,0.46165
4679.14,0.45925
4673.35,0.45742
4667.56,0.45583
4661.78,0.45563
4655.99,0.45835
4650.2,0.45956
4644.42,0.46038
4638.63,0.45894
4632.85,0.45836
4627.06,0.45667
4621.27,0.45639
4615.49,0.45555
4609.7,0.45438
4603.92,0.45506
4598.13,0.45687
4592.34,0.45802
4586.56,0.45735
4580.77,0.45562
4574.98,0.45413
4569.2,0.45243
4563.41,0.45373
4557.63,0.45369
4551.84,0.45359
4546.05,0.45266
4540.27,0.45186
4534.48,0.45117
4528.69,0.45016
4522.91,0.44899
4517.12,0.44850
4511.34,0.44789
4505.55,0.44647
4499.76,0.44672
4493.98,0.44498
4488.19,0.44445
4482.4,0.44424
4476.62,0.44355
4470.83,0.44253
4465.05,0.44092
4459.26,0.43943
4453.47,0.43911
4447.69,0.43703
4441.9,0.43438
4436.11,0.43255
4430.33,0.42997
4424.54,0.42863
4418.76,0.42621
4412.97,0.42338
4407.18,0.42063
4401.4,0.41887
4395.61,0.41867
4389.82,0.41863
4384.04,0.41716
4378.25,0.41712
4372.47,0.41549
4366.68,0.41282
4360.89,0.41281
4355.11,0.41263
4349.32,0.41078
4343.53,0.40756
4337.75,0.40484
4331.96,0.40258
4326.18,0.40152
4320.39,0.40240
4314.6,0.40671
4308.82,0.40845
4303.03,0.40778
4297.24,0.40675
4291.46,0.40595
4285.67,0.40536
4279.89,0.40308
4274.1,0.40116
4268.31,0.39904
4262.53,0.39802
4256.74,0.39654
4250.95,0.39564
4245.17,0.39566
4239.38,0.39534
4233.6,0.39520
4227.81,0.39474
4222.02,0.39410
4216.24,0.39296
4210.45,0.39127
4204.66,0.39116
4198.88,0.38990
4193.09,0.38977
4187.31,0.38897
4181.52,0.38801
4175.73,0.38723
4169.95,0.38638
4164.16,0.38544
4158.37,0.38535
4152.59,0.38436
4146.8,0.38303
4141.02,0.38099
4135.23,0.37914
4129.44,0.37606
4123.66,0.37415
4117.87,0.37207
4112.09,0.36973
4106.3,0.36772
4100.51,0.36397
4094.73,0.36067
4088.94,0.35751
4083.15,0.35447
4077.37,0.35077
4071.58,0.34618
4065.8,0.34175
4060.01,0.33793
4054.22,0.33475
4048.44,0.33350
4042.65,0.33157
4036.86,0.33066
4031.08,0.33155
4025.29,0.33273
4019.51,0.33367
4013.72,0.33519
4007.93,0.33463
4002.15,0.33459
3996.36,0.33542
3990.57,0.33621
3984.79,0.33579
3979,0.33650
3973.22,0.33663
3967.43,0.33651
3961.64,0.33735
3955.86,0.33736
3950.07,0.33701
3944.28,0.33685
3938.5,0.33762
3932.71,0.33824
3926.93,0.33847
3921.14,0.33850
3915.35,0.33879
3909.57,0.33895
3903.78,0.33862
3897.99,0.33911
3892.21,0.33929
3886.42,0.33903
3880.64,0.33929
3874.85,0.33896
3869.06,0.33837
3863.28,0.33875
3857.49,0.33829
3851.7,0.33831
3845.92,0.33720
3840.13,0.33614
3834.35,0.33500
3828.56,0.33389
3822.77,0.33282
3816.99,0.33056
3811.2,0.32892
3805.41,0.32740
3799.63,0.32637
3793.84,0.32371
3788.06,0.32133
3782.27,0.31945
3776.48,0.31707
3770.7,0.31474
3764.91,0.31114
3759.12,0.30713
3753.34,0.30444
3747.55,0.30002
3741.77,0.29468
3735.98,0.28920
3730.19,0.28221
3724.41,0.27530
3718.62,0.26752
3712.83,0.25919
3707.05,0.24749
3701.26,0.23481
3695.48,0.22085
3689.69,0.20550
3683.9,0.18540
3678.12,0.14733
3672.33,0.14418
3666.54,0.14667
3660.76,0.13853
3654.97,0.13375
3649.19,0.12916
3643.4,0.12328
3637.61,0.11891
3631.83,0.11462
3626.04,0.10999
3620.25,0.10685
3614.47,0.10359
3608.68,0.10089
3602.9,0.09951
3597.11,0.09744
3591.32,0.09538
3585.54,0.09371
3579.75,0.09238
3573.97,0.09105
3568.18,0.08883
3562.39,0.08748
3556.61,0.08652
3550.82,0.08464
3545.03,0.08430
3539.25,0.08410
3533.46,0.08250
3527.68,0.08202
3521.89,0.08098
3516.1,0.08068
3510.32,0.08029
3504.53,0.07981
3498.74,0.07844
3492.96,0.07817
3487.17,0.07741
3481.39,0.07763
3475.6,0.07555
3469.81,0.07588
3464.03,0.07431
3458.24,0.07474
3452.45,0.07352
3446.67,0.07444
3440.88,0.07324
3435.1,0.07363
3429.31,0.07299
3423.52,0.07300
3417.74,0.07230
3411.95,0.07220
3406.16,0.07233
3400.38,0.07176
3394.59,0.07202
3388.81,0.07184
3383.02,0.07247
3377.23,0.07179
3371.45,0.07215
3365.66,0.07213
3359.87,0.07176
3354.09,0.07224
3348.3,0.07237
3342.52,0.07230
3336.73,0.07357
3330.94,0.07367
3325.16,0.07351
3319.37,0.07364
3313.58,0.07338
3307.8,0.07402
3302.01,0.07445
3296.23,0.07455
3290.44,0.07535
3284.65,0.07423
3278.87,0.07559
3273.08,0.07670
3267.29,0.07596
3261.51,0.07661
3255.72,0.07700
3249.94,0.07760
3244.15,0.07869
3238.36,0.07805
3232.58,0.07956
3226.79,0.08023
3221,0.08103
3215.22,0.08087
3209.43,0.08093
3203.65,0.08235
3197.86,0.08279
3192.07,0.08387
3186.29,0.08463
3180.5,0.08572
3174.71,0.08581
3168.93,0.08669
3163.14,0.08725
3157.36,0.08814
3151.57,0.08856
3145.78,0.08947
3140,0.09057
3134.21,0.09206
3128.42,0.09257
3122.64,0.09312
3116.85,0.09393
3111.07,0.09355
3105.28,0.09316
3099.49,0.09492
3093.71,0.09496
3087.92,0.09307
3082.14,0.09333
3076.35,0.09542
3070.56,0.09572
3064.78,0.09348
3058.99,0.09320
3053.2,0.09686
3047.42,0.10000
3041.63,0.09995
3035.85,0.09611
3030.06,0.09019
3024.27,0.09131
3018.49,0.09999
3012.7,0.10512
3006.91,0.10479
3001.13,0.10377
2995.34,0.10476
2989.56,0.10262
2983.77,0.09808
2977.98,0.09307
2972.2,0.08544
2966.41,0.07921
2960.62,0.07536
2954.84,0.07600
2949.05,0.07740
2943.27,0.07638
2937.48,0.07309
2931.69,0.07047
2925.91,0.07170
2920.12,0.07309
2914.33,0.07661
2908.55,0.07989
2902.76,0.08324
2896.98,0.08639
2891.19,0.08847
2885.4,0.09101
2879.62,0.09004
2873.83,0.08831
2868.04,0.08917
2862.26,0.08856
2856.47,0.08779
2850.69,0.09334
2844.9,0.10335
2839.11,0.11381
2833.33,0.12113
2827.54,0.12585
2821.75,0.12939
2815.97,0.13275
2810.18,0.13604
2804.4,0.13875
2798.61,0.14130
2792.82,0.14300
2787.04,0.14486
2781.25,0.14653
2775.46,0.14808
2769.68,0.14958
2763.89,0.15087
2758.11,0.15205
2752.32,0.15263
2746.53,0.15346
2740.75,0.15432
2734.96,0.15519
2729.17,0.15631
2723.39,0.15696
2717.6,0.15951
2711.82,0.16078
2706.03,0.16333
2700.24,0.16491
2694.46,0.16633
2688.67,0.16813
2682.88,0.16968
2677.1,0.17121
2671.31,0.17239
2665.53,0.17423
2659.74,0.17543
2653.95,0.17639
2648.17,0.17772
2642.38,0.17906
2636.59,0.18041
2630.81,0.18104
2625.02,0.18231
2619.24,0.18272
2613.45,0.18302
2607.66,0.18281
2601.88,0.18273
2596.09,0.18365
2590.3,0.18445
2584.52,0.18494
2578.73,0.18548
2572.95,0.18548
2567.16,0.18546
2561.37,0.18565
2555.59,0.18499
2549.8,0.18443
2544.02,0.18333
2538.23,0.18232
2532.44,0.18005
2526.66,0.17731
2520.87,0.17507
2515.08,0.17476
2509.3,0.17596
2503.51,0.17873
2497.73,0.18438
2491.94,0.18966
2486.15,0.19417
2480.37,0.19789
2474.58,0.20093
2468.79,0.20308
2463.01,0.20490
2457.22,0.20593
2451.44,0.20695
2445.65,0.20772
2439.86,0.20896
2434.08,0.20929
2428.29,0.20963
2422.5,0.21027
2416.72,0.21062
2410.93,0.21072
2405.15,0.21109
2399.36,0.21066
2393.57,0.21088
2387.79,0.21066
2382,0.21062
2376.21,0.21062
2370.43,0.21046
2364.64,0.21000
2358.86,0.20946
2353.07,0.20901
2347.28,0.20844
2341.5,0.20762
2335.71,0.20727
2329.92,0.20774
2324.14,0.20755
2318.35,0.20682
2312.57,0.20605
2306.78,0.20601
2300.99,0.20596
2295.21,0.20480
2289.42,0.20466
2283.63,0.20424
2277.85,0.20346
2272.06,0.20230
2266.28,0.20091
2260.49,0.19957
2254.7,0.19885
2248.92,0.19807
2243.13,0.19757
2237.34,0.19688
2231.56,0.19673
2225.77,0.19644
2219.99,0.19682
2214.2,0.19729
2208.41,0.19777
2202.63,0.19804
2196.84,0.19775
2191.05,0.19776
2185.27,0.19730
2179.48,0.19653
2173.7,0.19532
2167.91,0.19439
2162.12,0.19299
2156.34,0.19233
2150.55,0.19109
2144.76,0.19039
2138.98,0.18930
2133.19,0.18937
2127.41,0.19022
2121.62,0.19072
2115.83,0.19170
2110.05,0.19237
2104.26,0.19308
2098.47,0.19342
2092.69,0.19346
2086.9,0.19366
2081.12,0.19368
2075.33,0.19322
2069.54,0.19270
2063.76,0.19222
2057.97,0.19164
2052.19,0.19016
2046.4,0.18816
2040.61,0.18535
2034.83,0.18247
2029.04,0.18077
2023.25,0.17925
2017.47,0.17792
2011.68,0.17550
2005.9,0.17224
2000.11,0.17084
1994.32,0.16988
1988.54,0.16953
1982.75,0.16879
1976.96,0.16811
1971.18,0.16743
1965.39,0.16618
1959.61,0.16464
1953.82,0.16358
1948.03,0.16171
1942.25,0.16164
1936.46,0.16336
1930.67,0.16629
1924.89,0.16675
1919.1,0.16628
1913.32,0.16352
1907.53,0.15990
1901.74,0.15510
1895.96,0.15112
1890.17,0.14696
1884.38,0.14436
1878.6,0.14221
1872.81,0.14071
1867.03,0.14070
1861.24,0.14414
1855.45,0.14905
1849.67,0.15412
1843.88,0.15693
1838.09,0.15672
1832.31,0.15442
1826.52,0.15040
1820.74,0.14594
1814.95,0.14074
1809.16,0.13541
1803.38,0.12814
1797.59,0.12161
1791.8,0.12276
1786.02,0.12674
1780.23,0.12908
1774.45,0.12970
1768.66,0.12920
1762.87,0.12707
1757.09,0.12235
1751.3,0.11434
1745.51,0.10006
1739.73,0.07949
1733.94,0.06573
1728.16,0.06648
1722.37,0.07698
1716.58,0.08883
1710.8,0.09244
1705.01,0.09132
1699.22,0.08852
1693.44,0.08497
1687.65,0.08169
1681.87,0.07869
1676.08,0.07608
1670.29,0.07374
1664.51,0.07177
1658.72,0.07034
1652.93,0.06916
1647.15,0.06833
1641.36,0.06675
1635.58,0.06582
1629.79,0.06456
1624,0.06324
1618.22,0.06233
1612.43,0.06131
1606.64,0.05959
1600.86,0.05797
1595.07,0.05969
1589.29,0.05947
1583.5,0.05922
1577.71,0.06023
1571.93,0.06081
1566.14,0.06144
1560.35,0.06248
1554.57,0.06415
1548.78,0.06544
1543,0.06691
1537.21,0.06831
1531.42,0.06972
1525.64,0.07134
1519.85,0.07128
1514.07,0.07014
1508.28,0.06948
1502.49,0.06652
1496.71,0.05959
1490.92,0.06090
1485.13,0.06324
1479.35,0.06173
1473.56,0.05897
1467.78,0.05515
1461.99,0.05379
1456.2,0.05240
1450.42,0.05339
1444.63,0.05577
1438.84,0.05710
1433.06,0.05770
1427.27,0.05787
1421.49,0.05795
1415.7,0.05837
1409.91,0.06018
1404.13,0.06194
1398.34,0.06301
1392.55,0.06474
1386.77,0.06576
1380.98,0.06520
1375.2,0.06609
1369.41,0.06679
1363.62,0.06783
1357.84,0.06839
1352.05,0.06952
1346.26,0.07152
1340.48,0.07191
1334.69,0.07179
1328.91,0.07232
1323.12,0.07224
1317.33,0.07222
1311.55,0.07387
1305.76,0.07643
1299.97,0.07859
1294.19,0.07895
1288.4,0.07782
1282.62,0.07642
1276.83,0.07635
1271.04,0.07672
1265.26,0.07677
1259.47,0.07741
1253.68,0.07846
1247.9,0.07908
1242.11,0.07969
1236.33,0.08123
1230.54,0.08229
1224.75,0.08335
1218.97,0.08203
1213.18,0.07895
1207.39,0.07559
1201.61,0.07430
1195.82,0.07393
1190.04,0.07256
1184.25,0.07181
1178.46,0.07082
1172.68,0.07046
1166.89,0.07075
1161.1,0.06892
1155.32,0.07145
1149.53,0.07544
1143.75,0.07807
1137.96,0.08027
1132.17,0.08075
1126.39,0.08093
1120.6,0.08139
1114.81,0.08203
1109.03,0.08437
1103.24,0.08597
1097.46,0.08854
1091.67,0.09044
1085.88,0.09281
1080.1,0.09342
1074.31,0.09363
1068.52,0.09353
1062.74,0.09127
1056.95,0.09065
1051.17,0.09248
1045.38,0.09712
1039.59,0.10306
1033.81,0.10683
1028.02,0.11067
1022.24,0.11415
1016.45,0.11339
1010.66,0.10674
1004.88,0.09810
999.09,0.09274
993.304,0.08900
987.518,0.08592
981.731,0.08290
975.945,0.08043
970.159,0.07685
964.373,0.07434
958.586,0.07294
952.8,0.07178
947.014,0.07183
941.228,0.07057
935.441,0.07025
929.655,0.06994
923.869,0.06921
918.083,0.06805
912.297,0.06615
906.51,0.06553
900.724,0.06447
894.938,0.06334
889.152,0.06340
883.365,0.06314
877.579,0.06014
871.793,0.06041
866.007,0.06145
860.22,0.06115
854.434,0.06089
848.648,0.05888
842.862,0.05743
837.075,0.05565
831.289,0.05456
825.503,0.05255
819.717,0.05071
813.931,0.04865
808.144,0.04845
802.358,0.04853
796.572,0.04760
790.786,0.04717
784.999,0.04666
779.213,0.04585
773.427,0.04463
767.641,0.04438
761.854,0.04525
756.068,0.04405
750.282,0.04287
744.496,0.04409
738.709,0.04302
732.923,0.04293
727.137,0.04267
721.351,0.04315
715.565,0.04472
709.778,0.04457
703.992,0.04925
698.206,0.05504
692.42,0.05267
686.633,0.05654
680.847,0.06176
675.061,0.07040
669.275,0.07696
663.488,0.06805
657.702,0.06337
651.916,0.06306
646.13,0.06047
640.343,0.05895
634.557,0.05512
628.771,0.05563
622.985,0.05816
617.198,0.05883
611.412,0.05878
605.626,0.05638
599.84,0.06151