File: 01_Data/Fiber_Cement_Board/FTIR/IS/Deprecated/Fiber_Cement_Board_IS_S_220928_R6.dpt
7497.03,0.50362
7491.25,0.50395
7485.46,0.49542
7479.67,0.49985
7473.89,0.49991
7468.1,0.50409
7462.32,0.50760
7456.53,0.50073
7450.74,0.49274
7444.96,0.49981
7439.17,0.48860
7433.38,0.50691
7427.6,0.50916
7421.81,0.49723
7416.03,0.50096
7410.24,0.49584
7404.45,0.50113
7398.67,0.49989
7392.88,0.50202
7387.09,0.50296
7381.31,0.50342
7375.52,0.49519
7369.74,0.49245
7363.95,0.49809
7358.16,0.49059
7352.38,0.50659
7346.59,0.50561
7340.8,0.49866
7335.02,0.50663
7329.23,0.49299
7323.45,0.49353
7317.66,0.49850
7311.87,0.50124
7306.09,0.49787
7300.3,0.50521
7294.51,0.50511
7288.73,0.50649
7282.94,0.50388
7277.16,0.49860
7271.37,0.49830
7265.58,0.49350
7259.8,0.50164
7254.01,0.49611
7248.22,0.50157
7242.44,0.48937
7236.65,0.50239
7230.87,0.49926
7225.08,0.48866
7219.29,0.49630
7213.51,0.48964
7207.72,0.49074
7201.93,0.49801
7196.15,0.48851
7190.36,0.48137
7184.58,0.47360
7178.79,0.49154
7173,0.49381
7167.22,0.48320
7161.43,0.48363
7155.65,0.49173
7149.86,0.48411
7144.07,0.48559
7138.29,0.48926
7132.5,0.48964
7126.71,0.48710
7120.93,0.49312
7115.14,0.48724
7109.36,0.48126
7103.57,0.48397
7097.78,0.48069
7092,0.48525
7086.21,0.47991
7080.42,0.48512
7074.64,0.48554
7068.85,0.48684
7063.07,0.48632
7057.28,0.48127
7051.49,0.47521
7045.71,0.48023
7039.92,0.48813
7034.13,0.48830
7028.35,0.48273
7022.56,0.48002
7016.78,0.48060
7010.99,0.48741
7005.2,0.48215
6999.42,0.48763
6993.63,0.47795
6987.84,0.48159
6982.06,0.47978
6976.27,0.48133
6970.49,0.48115
6964.7,0.48499
6958.91,0.48465
6953.13,0.48574
6947.34,0.47553
6941.55,0.48516
6935.77,0.47648
6929.98,0.48342
6924.2,0.47898
6918.41,0.48022
6912.62,0.48215
6906.84,0.48136
6901.05,0.48087
6895.26,0.48369
6889.48,0.48487
6883.69,0.48252
6877.91,0.48171
6872.12,0.48912
6866.33,0.48419
6860.55,0.48473
6854.76,0.48950
6848.97,0.48064
6843.19,0.48960
6837.4,0.48452
6831.62,0.48623
6825.83,0.48177
6820.04,0.48871
6814.26,0.48434
6808.47,0.48815
6802.68,0.48181
6796.9,0.48415
6791.11,0.48473
6785.33,0.48105
6779.54,0.48557
6773.75,0.48833
6767.97,0.48881
6762.18,0.48671
6756.39,0.48803
6750.61,0.49060
6744.82,0.48802
6739.04,0.48561
6733.25,0.48994
6727.46,0.48914
6721.68,0.49143
6715.89,0.49222
6710.1,0.49438
6704.32,0.48933
6698.53,0.49107
6692.75,0.49247
6686.96,0.49171
6681.17,0.48858
6675.39,0.49232
6669.6,0.49207
6663.82,0.49491
6658.03,0.49032
6652.24,0.49223
6646.46,0.49222
6640.67,0.49568
6634.88,0.49483
6629.1,0.49416
6623.31,0.49406
6617.53,0.49277
6611.74,0.49456
6605.95,0.50032
6600.17,0.49601
6594.38,0.49345
6588.59,0.49419
6582.81,0.49232
6577.02,0.48941
6571.24,0.49926
6565.45,0.49618
6559.66,0.49736
6553.88,0.49494
6548.09,0.49658
6542.3,0.49908
6536.52,0.49441
6530.73,0.49737
6524.95,0.49392
6519.16,0.49638
6513.37,0.50393
6507.59,0.49420
6501.8,0.49581
6496.01,0.50008
6490.23,0.49672
6484.44,0.49963
6478.66,0.49751
6472.87,0.49497
6467.08,0.50099
6461.3,0.49738
6455.51,0.50110
6449.72,0.49810
6443.94,0.50005
6438.15,0.50186
6432.37,0.50111
6426.58,0.49726
6420.79,0.49760
6415.01,0.49473
6409.22,0.49695
6403.43,0.49599
6397.65,0.50158
6391.86,0.49899
6386.08,0.50087
6380.29,0.49724
6374.5,0.49657
6368.72,0.50081
6362.93,0.50135
6357.14,0.50073
6351.36,0.49879
6345.57,0.50343
6339.79,0.49791
6334,0.50230
6328.21,0.50271
6322.43,0.50302
6316.64,0.50466
6310.85,0.50365
6305.07,0.50216
6299.28,0.50343
6293.5,0.50498
6287.71,0.50277
6281.92,0.50512
6276.14,0.50533
6270.35,0.50448
6264.56,0.50447
6258.78,0.50724
6252.99,0.50076
6247.21,0.50520
6241.42,0.50591
6235.63,0.50642
6229.85,0.50122
6224.06,0.50336
6218.27,0.50622
6212.49,0.50610
6206.7,0.50843
6200.92,0.50600
6195.13,0.50724
6189.34,0.50729
6183.56,0.51086
6177.77,0.50904
6171.98,0.50808
6166.2,0.50842
6160.41,0.50735
6154.63,0.50578
6148.84,0.50414
6143.05,0.51008
6137.27,0.50970
6131.48,0.50804
6125.7,0.50656
6119.91,0.50959
6114.12,0.50606
6108.34,0.50662
6102.55,0.50845
6096.76,0.50951
6090.98,0.50927
6085.19,0.50707
6079.41,0.50762
6073.62,0.51039
6067.83,0.51158
6062.05,0.50926
6056.26,0.50907
6050.47,0.50690
6044.69,0.50950
6038.9,0.50872
6033.12,0.51029
6027.33,0.50871
6021.54,0.50814
6015.76,0.51022
6009.97,0.51010
6004.18,0.50555
5998.4,0.50904
5992.61,0.50502
5986.83,0.50578
5981.04,0.50696
5975.25,0.50428
5969.47,0.50165
5963.68,0.50179
5957.89,0.50517
5952.11,0.50449
5946.32,0.50255
5940.54,0.50592
5934.75,0.50370
5928.96,0.50119
5923.18,0.50229
5917.39,0.50409
5911.6,0.50317
5905.82,0.50299
5900.03,0.50057
5894.25,0.50290
5888.46,0.50603
5882.67,0.50610
5876.89,0.50491
5871.1,0.50645
5865.31,0.50545
5859.53,0.50481
5853.74,0.50519
5847.96,0.50453
5842.17,0.50691
5836.38,0.50819
5830.6,0.50796
5824.81,0.50526
5819.02,0.50816
5813.24,0.50669
5807.45,0.50282
5801.67,0.50457
5795.88,0.50637
5790.09,0.50666
5784.31,0.50544
5778.52,0.50506
5772.73,0.50673
5766.95,0.50861
5761.16,0.50902
5755.38,0.50515
5749.59,0.50729
5743.8,0.50808
5738.02,0.50779
5732.23,0.50835
5726.44,0.50804
5720.66,0.50800
5714.87,0.50591
5709.09,0.50573
5703.3,0.50574
5697.51,0.50636
5691.73,0.50574
5685.94,0.50691
5680.15,0.50672
5674.37,0.50595
5668.58,0.50502
5662.8,0.50695
5657.01,0.50928
5651.22,0.50736
5645.44,0.51032
5639.65,0.50723
5633.87,0.50742
5628.08,0.50613
5622.29,0.50546
5616.51,0.50812
5610.72,0.50851
5604.93,0.50859
5599.15,0.50887
5593.36,0.50745
5587.58,0.50848
5581.79,0.50756
5576,0.50926
5570.22,0.51009
5564.43,0.50976
5558.64,0.50806
5552.86,0.50911
5547.07,0.50880
5541.29,0.50910
5535.5,0.50960
5529.71,0.50934
5523.93,0.50787
5518.14,0.50907
5512.35,0.50900
5506.57,0.50737
5500.78,0.51001
5495,0.51058
5489.21,0.50871
5483.42,0.50958
5477.64,0.50908
5471.85,0.51073
5466.06,0.51023
5460.28,0.51116
5454.49,0.50996
5448.71,0.51086
5442.92,0.51066
5437.13,0.51164
5431.35,0.50925
5425.56,0.50930
5419.77,0.51075
5413.99,0.50901
5408.2,0.50907
5402.42,0.50867
5396.63,0.50956
5390.84,0.50983
5385.06,0.51070
5379.27,0.50889
5373.48,0.50873
5367.7,0.50729
5361.91,0.50722
5356.13,0.50652
5350.34,0.50479
5344.55,0.50389
5338.77,0.50267
5332.98,0.50116
5327.19,0.50068
5321.41,0.49787
5315.62,0.49658
5309.84,0.49511
5304.05,0.49159
5298.26,0.48885
5292.48,0.48532
5286.69,0.48213
5280.9,0.47658
5275.12,0.47098
5269.33,0.46701
5263.55,0.46159
5257.76,0.45477
5251.97,0.44879
5246.19,0.44372
5240.4,0.43854
5234.61,0.43354
5228.83,0.42957
5223.04,0.42523
5217.26,0.42149
5211.47,0.41808
5205.68,0.41472
5199.9,0.41561
5194.11,0.41468
5188.32,0.41482
5182.54,0.41575
5176.75,0.41689
5170.97,0.42048
5165.18,0.42048
5159.39,0.42078
5153.61,0.42435
5147.82,0.42661
5142.03,0.42782
5136.25,0.43060
5130.46,0.43237
5124.68,0.43284
5118.89,0.43490
5113.1,0.43808
5107.32,0.43886
5101.53,0.44125
5095.75,0.44300
5089.96,0.44449
5084.17,0.44644
5078.39,0.44721
5072.6,0.44781
5066.81,0.44884
5061.03,0.45163
5055.24,0.45399
5049.46,0.45406
5043.67,0.45520
5037.88,0.45548
5032.1,0.45767
5026.31,0.45865
5020.52,0.46066
5014.74,0.46167
5008.95,0.46239
5003.17,0.46393
4997.38,0.46585
4991.59,0.46596
4985.81,0.46701
4980.02,0.46763
4974.23,0.46896
4968.45,0.46984
4962.66,0.47051
4956.88,0.47074
4951.09,0.47179
4945.3,0.47171
4939.52,0.47125
4933.73,0.47194
4927.94,0.47172
4922.16,0.47276
4916.37,0.47343
4910.59,0.47139
4904.8,0.47263
4899.01,0.47085
4893.23,0.47129
4887.44,0.47084
4881.65,0.47011
4875.87,0.46969
4870.08,0.46904
4864.3,0.46874
4858.51,0.46798
4852.72,0.46799
4846.94,0.46601
4841.15,0.46591
4835.36,0.46641
4829.58,0.46504
4823.79,0.46357
4818.01,0.46358
4812.22,0.46269
4806.43,0.46287
4800.65,0.46208
4794.86,0.46146
4789.07,0.46077
4783.29,0.46067
4777.5,0.46047
4771.72,0.46030
4765.93,0.45962
4760.14,0.46038
4754.36,0.45994
4748.57,0.46083
4742.78,0.46072
4737,0.46013
4731.21,0.46151
4725.43,0.46106
4719.64,0.46129
4713.85,0.46260
4708.07,0.46282
4702.28,0.46252
4696.49,0.46163
4690.71,0.46303
4684.92,0.46180
4679.14,0.46032
4673.35,0.45780
4667.56,0.45689
4661.78,0.45733
4655.99,0.45918
4650.2,0.46103
4644.42,0.46071
4638.63,0.46028
4632.85,0.45962
4627.06,0.45808
4621.27,0.45775
4615.49,0.45680
4609.7,0.45550
4603.92,0.45674
4598.13,0.45853
4592.34,0.45816
4586.56,0.45804
4580.77,0.45656
4574.98,0.45563
4569.2,0.45480
4563.41,0.45555
4557.63,0.45589
4551.84,0.45454
4546.05,0.45404
4540.27,0.45324
4534.48,0.45191
4528.69,0.45129
4522.91,0.45058
4517.12,0.44896
4511.34,0.44874
4505.55,0.44783
4499.76,0.44729
4493.98,0.44639
4488.19,0.44533
4482.4,0.44561
4476.62,0.44434
4470.83,0.44290
4465.05,0.44263
4459.26,0.44092
4453.47,0.43989
4447.69,0.43789
4441.9,0.43551
4436.11,0.43396
4430.33,0.43190
4424.54,0.42891
4418.76,0.42614
4412.97,0.42349
4407.18,0.42156
4401.4,0.42035
4395.61,0.41902
4389.82,0.41894
4384.04,0.41912
4378.25,0.41800
4372.47,0.41665
4366.68,0.41423
4360.89,0.41407
4355.11,0.41328
4349.32,0.41144
4343.53,0.40866
4337.75,0.40603
4331.96,0.40411
4326.18,0.40241
4320.39,0.40371
4314.6,0.40711
4308.82,0.40898
4303.03,0.40830
4297.24,0.40849
4291.46,0.40816
4285.67,0.40615
4279.89,0.40407
4274.1,0.40194
4268.31,0.39899
4262.53,0.39788
4256.74,0.39727
4250.95,0.39738
4245.17,0.39716
4239.38,0.39715
4233.6,0.39609
4227.81,0.39565
4222.02,0.39512
4216.24,0.39413
4210.45,0.39321
4204.66,0.39224
4198.88,0.39181
4193.09,0.39058
4187.31,0.39009
4181.52,0.38831
4175.73,0.38813
4169.95,0.38854
4164.16,0.38724
4158.37,0.38601
4152.59,0.38555
4146.8,0.38400
4141.02,0.38170
4135.23,0.37960
4129.44,0.37745
4123.66,0.37567
4117.87,0.37276
4112.09,0.37050
4106.3,0.36775
4100.51,0.36521
4094.73,0.36211
4088.94,0.35881
4083.15,0.35490
4077.37,0.35086
4071.58,0.34687
4065.8,0.34283
4060.01,0.33913
4054.22,0.33660
4048.44,0.33457
4042.65,0.33318
4036.86,0.33084
4031.08,0.33254
4025.29,0.33316
4019.51,0.33440
4013.72,0.33548
4007.93,0.33594
4002.15,0.33570
3996.36,0.33587
3990.57,0.33705
3984.79,0.33792
3979,0.33720
3973.22,0.33756
3967.43,0.33743
3961.64,0.33804
3955.86,0.33743
3950.07,0.33790
3944.28,0.33792
3938.5,0.33761
3932.71,0.33845
3926.93,0.33975
3921.14,0.33993
3915.35,0.33949
3909.57,0.33997
3903.78,0.34059
3897.99,0.33997
3892.21,0.33974
3886.42,0.34029
3880.64,0.34031
3874.85,0.33938
3869.06,0.33966
3863.28,0.33948
3857.49,0.33892
3851.7,0.33881
3845.92,0.33791
3840.13,0.33755
3834.35,0.33683
3828.56,0.33515
3822.77,0.33339
3816.99,0.33231
3811.2,0.33025
3805.41,0.32852
3799.63,0.32628
3793.84,0.32499
3788.06,0.32313
3782.27,0.32055
3776.48,0.31758
3770.7,0.31508
3764.91,0.31222
3759.12,0.30934
3753.34,0.30477
3747.55,0.30109
3741.77,0.29512
3735.98,0.29025
3730.19,0.28370
3724.41,0.27665
3718.62,0.26852
3712.83,0.26006
3707.05,0.24863
3701.26,0.23507
3695.48,0.22058
3689.69,0.20589
3683.9,0.18519
3678.12,0.14697
3672.33,0.14480
3666.54,0.14747
3660.76,0.13903
3654.97,0.13412
3649.19,0.12860
3643.4,0.12343
3637.61,0.11942
3631.83,0.11519
3626.04,0.11063
3620.25,0.10694
3614.47,0.10379
3608.68,0.10122
3602.9,0.09981
3597.11,0.09758
3591.32,0.09558
3585.54,0.09386
3579.75,0.09265
3573.97,0.09111
3568.18,0.09003
3562.39,0.08750
3556.61,0.08644
3550.82,0.08503
3545.03,0.08453
3539.25,0.08363
3533.46,0.08270
3527.68,0.08197
3521.89,0.08185
3516.1,0.08101
3510.32,0.08072
3504.53,0.07989
3498.74,0.07940
3492.96,0.07854
3487.17,0.07746
3481.39,0.07677
3475.6,0.07614
3469.81,0.07646
3464.03,0.07516
3458.24,0.07448
3452.45,0.07403
3446.67,0.07375
3440.88,0.07436
3435.1,0.07293
3429.31,0.07316
3423.52,0.07368
3417.74,0.07255
3411.95,0.07226
3406.16,0.07233
3400.38,0.07190
3394.59,0.07267
3388.81,0.07125
3383.02,0.07183
3377.23,0.07204
3371.45,0.07278
3365.66,0.07243
3359.87,0.07263
3354.09,0.07204
3348.3,0.07309
3342.52,0.07286
3336.73,0.07308
3330.94,0.07372
3325.16,0.07372
3319.37,0.07363
3313.58,0.07389
3307.8,0.07412
3302.01,0.07458
3296.23,0.07478
3290.44,0.07538
3284.65,0.07523
3278.87,0.07564
3273.08,0.07593
3267.29,0.07623
3261.51,0.07693
3255.72,0.07798
3249.94,0.07860
3244.15,0.07908
3238.36,0.07947
3232.58,0.07968
3226.79,0.08051
3221,0.08080
3215.22,0.08164
3209.43,0.08181
3203.65,0.08265
3197.86,0.08334
3192.07,0.08439
3186.29,0.08539
3180.5,0.08577
3174.71,0.08656
3168.93,0.08701
3163.14,0.08821
3157.36,0.08847
3151.57,0.08910
3145.78,0.09010
3140,0.09117
3134.21,0.09193
3128.42,0.09252
3122.64,0.09352
3116.85,0.09413
3111.07,0.09344
3105.28,0.09463
3099.49,0.09495
3093.71,0.09554
3087.92,0.09385
3082.14,0.09328
3076.35,0.09529
3070.56,0.09615
3064.78,0.09367
3058.99,0.09346
3053.2,0.09776
3047.42,0.10015
3041.63,0.10097
3035.85,0.09695
3030.06,0.09080
3024.27,0.09138
3018.49,0.10006
3012.7,0.10559
3006.91,0.10524
3001.13,0.10438
2995.34,0.10490
2989.56,0.10283
2983.77,0.09898
2977.98,0.09329
2972.2,0.08562
2966.41,0.07962
2960.62,0.07632
2954.84,0.07577
2949.05,0.07737
2943.27,0.07622
2937.48,0.07301
2931.69,0.07076
2925.91,0.07076
2920.12,0.07327
2914.33,0.07668
2908.55,0.07966
2902.76,0.08356
2896.98,0.08634
2891.19,0.08960
2885.4,0.09080
2879.62,0.09030
2873.83,0.08808
2868.04,0.09015
2862.26,0.08821
2856.47,0.08868
2850.69,0.09403
2844.9,0.10390
2839.11,0.11432
2833.33,0.12146
2827.54,0.12590
2821.75,0.12999
2815.97,0.13323
2810.18,0.13596
2804.4,0.13954
2798.61,0.14194
2792.82,0.14371
2787.04,0.14550
2781.25,0.14717
2775.46,0.14865
2769.68,0.14998
2763.89,0.15121
2758.11,0.15267
2752.32,0.15360
2746.53,0.15446
2740.75,0.15480
2734.96,0.15560
2729.17,0.15651
2723.39,0.15844
2717.6,0.15989
2711.82,0.16144
2706.03,0.16338
2700.24,0.16478
2694.46,0.16686
2688.67,0.16908
2682.88,0.17040
2677.1,0.17211
2671.31,0.17350
2665.53,0.17484
2659.74,0.17587
2653.95,0.17711
2648.17,0.17866
2642.38,0.17999
2636.59,0.18094
2630.81,0.18131
2625.02,0.18211
2619.24,0.18316
2613.45,0.18347
2607.66,0.18346
2601.88,0.18342
2596.09,0.18439
2590.3,0.18497
2584.52,0.18551
2578.73,0.18560
2572.95,0.18625
2567.16,0.18634
2561.37,0.18654
2555.59,0.18589
2549.8,0.18501
2544.02,0.18463
2538.23,0.18282
2532.44,0.18050
2526.66,0.17735
2520.87,0.17531
2515.08,0.17511
2509.3,0.17634
2503.51,0.17969
2497.73,0.18458
2491.94,0.19032
2486.15,0.19513
2480.37,0.19876
2474.58,0.20136
2468.79,0.20376
2463.01,0.20557
2457.22,0.20676
2451.44,0.20772
2445.65,0.20836
2439.86,0.20917
2434.08,0.20995
2428.29,0.21095
2422.5,0.21123
2416.72,0.21127
2410.93,0.21155
2405.15,0.21138
2399.36,0.21164
2393.57,0.21160
2387.79,0.21149
2382,0.21120
2376.21,0.21144
2370.43,0.21126
2364.64,0.21051
2358.86,0.21012
2353.07,0.20987
2347.28,0.20886
2341.5,0.20834
2335.71,0.20732
2329.92,0.20830
2324.14,0.20836
2318.35,0.20767
2312.57,0.20651
2306.78,0.20663
2300.99,0.20679
2295.21,0.20583
2289.42,0.20503
2283.63,0.20460
2277.85,0.20388
2272.06,0.20315
2266.28,0.20197
2260.49,0.20056
2254.7,0.19964
2248.92,0.19887
2243.13,0.19806
2237.34,0.19800
2231.56,0.19751
2225.77,0.19753
2219.99,0.19759
2214.2,0.19826
2208.41,0.19866
2202.63,0.19894
2196.84,0.19851
2191.05,0.19812
2185.27,0.19773
2179.48,0.19716
2173.7,0.19607
2167.91,0.19508
2162.12,0.19369
2156.34,0.19296
2150.55,0.19179
2144.76,0.19124
2138.98,0.19013
2133.19,0.18969
2127.41,0.19059
2121.62,0.19141
2115.83,0.19228
2110.05,0.19290
2104.26,0.19341
2098.47,0.19385
2092.69,0.19412
2086.9,0.19417
2081.12,0.19434
2075.33,0.19393
2069.54,0.19387
2063.76,0.19322
2057.97,0.19213
2052.19,0.19078
2046.4,0.18882
2040.61,0.18587
2034.83,0.18271
2029.04,0.18084
2023.25,0.18025
2017.47,0.17896
2011.68,0.17603
2005.9,0.17315
2000.11,0.17136
1994.32,0.17082
1988.54,0.16994
1982.75,0.16940
1976.96,0.16852
1971.18,0.16785
1965.39,0.16657
1959.61,0.16551
1953.82,0.16393
1948.03,0.16190
1942.25,0.16172
1936.46,0.16343
1930.67,0.16640
1924.89,0.16740
1919.1,0.16652
1913.32,0.16418
1907.53,0.15993
1901.74,0.15566
1895.96,0.15173
1890.17,0.14755
1884.38,0.14461
1878.6,0.14255
1872.81,0.14066
1867.03,0.14136
1861.24,0.14439
1855.45,0.14975
1849.67,0.15464
1843.88,0.15695
1838.09,0.15695
1832.31,0.15473
1826.52,0.15067
1820.74,0.14642
1814.95,0.14172
1809.16,0.13585
1803.38,0.12870
1797.59,0.12215
1791.8,0.12259
1786.02,0.12694
1780.23,0.12908
1774.45,0.12977
1768.66,0.12930
1762.87,0.12716
1757.09,0.12256
1751.3,0.11485
1745.51,0.10054
1739.73,0.07940
1733.94,0.06596
1728.16,0.06659
1722.37,0.07692
1716.58,0.08917
1710.8,0.09308
1705.01,0.09176
1699.22,0.08921
1693.44,0.08514
1687.65,0.08164
1681.87,0.07890
1676.08,0.07618
1670.29,0.07407
1664.51,0.07205
1658.72,0.07075
1652.93,0.06945
1647.15,0.06838
1641.36,0.06709
1635.58,0.06658
1629.79,0.06495
1624,0.06375
1618.22,0.06281
1612.43,0.06145
1606.64,0.05952
1600.86,0.05858
1595.07,0.05974
1589.29,0.05966
1583.5,0.05915
1577.71,0.06024
1571.93,0.06070
1566.14,0.06131
1560.35,0.06247
1554.57,0.06357
1548.78,0.06574
1543,0.06726
1537.21,0.06842
1531.42,0.07033
1525.64,0.07122
1519.85,0.07159
1514.07,0.07069
1508.28,0.06980
1502.49,0.06674
1496.71,0.06005
1490.92,0.06111
1485.13,0.06324
1479.35,0.06135
1473.56,0.05944
1467.78,0.05551
1461.99,0.05404
1456.2,0.05200
1450.42,0.05358
1444.63,0.05537
1438.84,0.05660
1433.06,0.05786
1427.27,0.05783
1421.49,0.05783
1415.7,0.05841
1409.91,0.05989
1404.13,0.06173
1398.34,0.06334
1392.55,0.06478
1386.77,0.06603
1380.98,0.06547
1375.2,0.06625
1369.41,0.06658
1363.62,0.06766
1357.84,0.06848
1352.05,0.06984
1346.26,0.07134
1340.48,0.07181
1334.69,0.07219
1328.91,0.07237
1323.12,0.07223
1317.33,0.07239
1311.55,0.07396
1305.76,0.07658
1299.97,0.07790
1294.19,0.07901
1288.4,0.07809
1282.62,0.07675
1276.83,0.07654
1271.04,0.07685
1265.26,0.07680
1259.47,0.07742
1253.68,0.07822
1247.9,0.07902
1242.11,0.08062
1236.33,0.08173
1230.54,0.08287
1224.75,0.08391
1218.97,0.08164
1213.18,0.07907
1207.39,0.07590
1201.61,0.07421
1195.82,0.07324
1190.04,0.07322
1184.25,0.07257
1178.46,0.07125
1172.68,0.07089
1166.89,0.07060
1161.1,0.06906
1155.32,0.07175
1149.53,0.07556
1143.75,0.07827
1137.96,0.07929
1132.17,0.08118
1126.39,0.08045
1120.6,0.08146
1114.81,0.08210
1109.03,0.08400
1103.24,0.08597
1097.46,0.08804
1091.67,0.09004
1085.88,0.09235
1080.1,0.09329
1074.31,0.09363
1068.52,0.09313
1062.74,0.09182
1056.95,0.08952
1051.17,0.09200
1045.38,0.09766
1039.59,0.10252
1033.81,0.10693
1028.02,0.11112
1022.24,0.11416
1016.45,0.11355
1010.66,0.10694
1004.88,0.09913
999.09,0.09323
993.304,0.08918
987.518,0.08609
981.731,0.08330
975.945,0.08074
970.159,0.07761
964.373,0.07510
958.586,0.07326
952.8,0.07198
947.014,0.07143
941.228,0.07017
935.441,0.07003
929.655,0.06924
923.869,0.06936
918.083,0.06811
912.297,0.06599
906.51,0.06493
900.724,0.06459
894.938,0.06404
889.152,0.06362
883.365,0.06280
877.579,0.06029
871.793,0.05973
866.007,0.06182
860.22,0.06140
854.434,0.05983
848.648,0.05839
842.862,0.05733
837.075,0.05640
831.289,0.05458
825.503,0.05288
819.717,0.05053
813.931,0.04926
808.144,0.04884
802.358,0.04903
796.572,0.04778
790.786,0.04672
784.999,0.04715
779.213,0.04695
773.427,0.04506
767.641,0.04423
761.854,0.04549
756.068,0.04418
750.282,0.04336
744.496,0.04333
738.709,0.04224
732.923,0.04231
727.137,0.04243
721.351,0.04335
715.565,0.04415
709.778,0.04547
703.992,0.04943
698.206,0.05392
692.42,0.05261
686.633,0.05582
680.847,0.06289
675.061,0.07126
669.275,0.07710
663.488,0.06816
657.702,0.06358
651.916,0.06118
646.13,0.06023
640.343,0.05840
634.557,0.05670
628.771,0.05626
622.985,0.05734
617.198,0.05741
611.412,0.05968
605.626,0.06051
599.84,0.05942