File: 01_Data/Fiber_Cement_Board/FTIR/IS/Deprecated/Fiber_Cement_Board_IS_S_220928_R2.dpt
7497.03,0.50127
7491.25,0.50182
7485.46,0.48979
7479.67,0.49730
7473.89,0.50374
7468.1,0.51105
7462.32,0.50006
7456.53,0.48953
7450.74,0.49800
7444.96,0.50041
7439.17,0.49818
7433.38,0.49713
7427.6,0.50310
7421.81,0.49913
7416.03,0.49852
7410.24,0.49867
7404.45,0.49360
7398.67,0.50115
7392.88,0.49782
7387.09,0.48981
7381.31,0.50059
7375.52,0.49962
7369.74,0.49291
7363.95,0.49460
7358.16,0.49390
7352.38,0.50717
7346.59,0.50621
7340.8,0.49989
7335.02,0.49417
7329.23,0.50006
7323.45,0.49913
7317.66,0.49652
7311.87,0.49795
7306.09,0.49966
7300.3,0.50600
7294.51,0.50249
7288.73,0.49533
7282.94,0.49816
7277.16,0.50044
7271.37,0.50130
7265.58,0.49967
7259.8,0.50673
7254.01,0.48687
7248.22,0.49398
7242.44,0.49894
7236.65,0.49769
7230.87,0.49455
7225.08,0.49720
7219.29,0.49929
7213.51,0.49715
7207.72,0.49981
7201.93,0.50136
7196.15,0.49180
7190.36,0.48938
7184.58,0.47672
7178.79,0.48747
7173,0.49148
7167.22,0.48288
7161.43,0.49724
7155.65,0.48212
7149.86,0.48980
7144.07,0.48511
7138.29,0.48866
7132.5,0.49006
7126.71,0.48333
7120.93,0.48363
7115.14,0.48566
7109.36,0.49049
7103.57,0.48796
7097.78,0.48172
7092,0.48158
7086.21,0.48014
7080.42,0.48297
7074.64,0.48191
7068.85,0.47894
7063.07,0.48258
7057.28,0.48240
7051.49,0.47882
7045.71,0.47333
7039.92,0.48489
7034.13,0.48354
7028.35,0.48510
7022.56,0.47700
7016.78,0.48039
7010.99,0.47984
7005.2,0.48083
6999.42,0.48232
6993.63,0.47770
6987.84,0.48180
6982.06,0.48234
6976.27,0.47526
6970.49,0.47589
6964.7,0.47925
6958.91,0.47940
6953.13,0.47588
6947.34,0.48027
6941.55,0.48596
6935.77,0.47774
6929.98,0.48052
6924.2,0.48466
6918.41,0.48606
6912.62,0.48123
6906.84,0.48121
6901.05,0.48090
6895.26,0.48495
6889.48,0.48139
6883.69,0.49115
6877.91,0.48502
6872.12,0.48712
6866.33,0.48101
6860.55,0.48195
6854.76,0.49184
6848.97,0.48669
6843.19,0.49240
6837.4,0.48648
6831.62,0.48255
6825.83,0.48784
6820.04,0.48406
6814.26,0.48730
6808.47,0.48766
6802.68,0.48559
6796.9,0.48475
6791.11,0.48400
6785.33,0.48465
6779.54,0.48803
6773.75,0.48764
6767.97,0.48744
6762.18,0.48544
6756.39,0.48698
6750.61,0.48858
6744.82,0.48641
6739.04,0.48703
6733.25,0.49378
6727.46,0.48743
6721.68,0.48843
6715.89,0.48765
6710.1,0.48654
6704.32,0.48861
6698.53,0.49003
6692.75,0.49051
6686.96,0.48991
6681.17,0.49248
6675.39,0.49223
6669.6,0.48865
6663.82,0.48845
6658.03,0.48915
6652.24,0.48972
6646.46,0.49123
6640.67,0.49354
6634.88,0.49424
6629.1,0.49269
6623.31,0.49308
6617.53,0.49225
6611.74,0.49436
6605.95,0.48976
6600.17,0.49150
6594.38,0.49579
6588.59,0.49664
6582.81,0.49494
6577.02,0.49569
6571.24,0.49286
6565.45,0.49244
6559.66,0.49860
6553.88,0.49473
6548.09,0.49249
6542.3,0.49237
6536.52,0.49696
6530.73,0.49705
6524.95,0.50157
6519.16,0.49537
6513.37,0.49558
6507.59,0.49754
6501.8,0.49567
6496.01,0.49673
6490.23,0.50044
6484.44,0.49685
6478.66,0.49932
6472.87,0.49753
6467.08,0.49926
6461.3,0.49682
6455.51,0.49963
6449.72,0.50011
6443.94,0.49710
6438.15,0.49977
6432.37,0.50409
6426.58,0.49783
6420.79,0.50137
6415.01,0.50172
6409.22,0.49819
6403.43,0.49838
6397.65,0.50311
6391.86,0.49869
6386.08,0.50148
6380.29,0.50101
6374.5,0.50147
6368.72,0.49743
6362.93,0.49879
6357.14,0.50170
6351.36,0.50115
6345.57,0.50242
6339.79,0.50258
6334,0.49788
6328.21,0.49948
6322.43,0.50420
6316.64,0.50483
6310.85,0.50127
6305.07,0.50435
6299.28,0.50195
6293.5,0.49812
6287.71,0.50290
6281.92,0.49979
6276.14,0.49889
6270.35,0.50249
6264.56,0.50301
6258.78,0.50283
6252.99,0.50356
6247.21,0.50369
6241.42,0.50343
6235.63,0.50115
6229.85,0.50172
6224.06,0.50290
6218.27,0.50424
6212.49,0.50429
6206.7,0.50317
6200.92,0.50691
6195.13,0.50680
6189.34,0.50689
6183.56,0.50596
6177.77,0.50636
6171.98,0.50749
6166.2,0.50626
6160.41,0.50626
6154.63,0.50579
6148.84,0.50658
6143.05,0.50648
6137.27,0.50426
6131.48,0.50585
6125.7,0.50763
6119.91,0.50337
6114.12,0.50522
6108.34,0.50525
6102.55,0.50891
6096.76,0.50686
6090.98,0.50908
6085.19,0.50693
6079.41,0.50984
6073.62,0.50787
6067.83,0.50875
6062.05,0.51043
6056.26,0.50685
6050.47,0.51095
6044.69,0.50934
6038.9,0.50660
6033.12,0.50848
6027.33,0.50823
6021.54,0.50732
6015.76,0.50933
6009.97,0.50870
6004.18,0.50654
5998.4,0.50595
5992.61,0.50581
5986.83,0.50211
5981.04,0.50471
5975.25,0.50298
5969.47,0.50084
5963.68,0.50181
5957.89,0.50315
5952.11,0.50186
5946.32,0.50018
5940.54,0.50195
5934.75,0.50379
5928.96,0.50402
5923.18,0.50287
5917.39,0.50031
5911.6,0.50396
5905.82,0.50144
5900.03,0.50206
5894.25,0.50558
5888.46,0.50265
5882.67,0.50344
5876.89,0.50383
5871.1,0.50443
5865.31,0.50196
5859.53,0.50291
5853.74,0.50566
5847.96,0.50585
5842.17,0.50417
5836.38,0.50190
5830.6,0.50335
5824.81,0.50391
5819.02,0.50533
5813.24,0.50525
5807.45,0.50436
5801.67,0.50307
5795.88,0.50366
5790.09,0.50355
5784.31,0.50602
5778.52,0.50623
5772.73,0.50503
5766.95,0.50520
5761.16,0.50560
5755.38,0.50263
5749.59,0.50579
5743.8,0.50942
5738.02,0.50873
5732.23,0.50477
5726.44,0.50669
5720.66,0.50449
5714.87,0.50532
5709.09,0.50481
5703.3,0.50618
5697.51,0.50454
5691.73,0.50502
5685.94,0.50505
5680.15,0.50428
5674.37,0.50528
5668.58,0.50533
5662.8,0.50556
5657.01,0.50513
5651.22,0.50617
5645.44,0.50530
5639.65,0.50708
5633.87,0.50720
5628.08,0.50847
5622.29,0.50743
5616.51,0.50859
5610.72,0.50590
5604.93,0.50551
5599.15,0.50700
5593.36,0.50812
5587.58,0.50742
5581.79,0.50475
5576,0.50793
5570.22,0.50722
5564.43,0.50730
5558.64,0.50696
5552.86,0.50666
5547.07,0.50906
5541.29,0.50765
5535.5,0.50890
5529.71,0.50850
5523.93,0.50724
5518.14,0.50768
5512.35,0.50913
5506.57,0.50841
5500.78,0.50853
5495,0.50872
5489.21,0.51003
5483.42,0.50910
5477.64,0.50863
5471.85,0.50904
5466.06,0.50712
5460.28,0.50851
5454.49,0.50775
5448.71,0.50882
5442.92,0.50865
5437.13,0.50853
5431.35,0.50838
5425.56,0.50965
5419.77,0.50897
5413.99,0.50930
5408.2,0.51158
5402.42,0.50863
5396.63,0.50797
5390.84,0.50769
5385.06,0.50835
5379.27,0.51044
5373.48,0.50743
5367.7,0.50755
5361.91,0.50534
5356.13,0.50768
5350.34,0.50464
5344.55,0.50610
5338.77,0.50255
5332.98,0.49992
5327.19,0.49844
5321.41,0.49642
5315.62,0.49583
5309.84,0.49369
5304.05,0.49001
5298.26,0.48551
5292.48,0.48360
5286.69,0.47908
5280.9,0.47474
5275.12,0.46967
5269.33,0.46512
5263.55,0.45931
5257.76,0.45320
5251.97,0.44808
5246.19,0.44154
5240.4,0.43553
5234.61,0.42957
5228.83,0.42643
5223.04,0.42189
5217.26,0.41764
5211.47,0.41596
5205.68,0.41393
5199.9,0.41270
5194.11,0.41295
5188.32,0.41295
5182.54,0.41211
5176.75,0.41332
5170.97,0.41607
5165.18,0.41831
5159.39,0.41965
5153.61,0.42277
5147.82,0.42179
5142.03,0.42529
5136.25,0.42713
5130.46,0.42792
5124.68,0.43040
5118.89,0.43264
5113.1,0.43373
5107.32,0.43614
5101.53,0.43797
5095.75,0.44022
5089.96,0.44100
5084.17,0.44270
5078.39,0.44376
5072.6,0.44514
5066.81,0.44699
5061.03,0.44726
5055.24,0.45050
5049.46,0.45102
5043.67,0.45253
5037.88,0.45429
5032.1,0.45389
5026.31,0.45610
5020.52,0.45655
5014.74,0.45834
5008.95,0.45964
5003.17,0.46090
4997.38,0.46144
4991.59,0.46361
4985.81,0.46376
4980.02,0.46471
4974.23,0.46472
4968.45,0.46678
4962.66,0.46750
4956.88,0.46727
4951.09,0.46793
4945.3,0.46918
4939.52,0.46941
4933.73,0.46982
4927.94,0.47025
4922.16,0.47020
4916.37,0.47012
4910.59,0.46974
4904.8,0.47029
4899.01,0.47010
4893.23,0.47005
4887.44,0.46825
4881.65,0.46778
4875.87,0.46745
4870.08,0.46621
4864.3,0.46579
4858.51,0.46636
4852.72,0.46569
4846.94,0.46556
4841.15,0.46558
4835.36,0.46358
4829.58,0.46302
4823.79,0.46187
4818.01,0.46296
4812.22,0.46195
4806.43,0.46127
4800.65,0.46024
4794.86,0.45897
4789.07,0.45892
4783.29,0.45866
4777.5,0.45843
4771.72,0.45926
4765.93,0.45817
4760.14,0.45865
4754.36,0.45854
4748.57,0.45845
4742.78,0.45839
4737,0.45783
4731.21,0.45908
4725.43,0.45953
4719.64,0.45933
4713.85,0.46022
4708.07,0.46115
4702.28,0.46047
4696.49,0.46031
4690.71,0.46074
4684.92,0.46100
4679.14,0.45936
4673.35,0.45680
4667.56,0.45538
4661.78,0.45602
4655.99,0.45675
4650.2,0.46004
4644.42,0.45996
4638.63,0.45918
4632.85,0.45872
4627.06,0.45679
4621.27,0.45607
4615.49,0.45582
4609.7,0.45438
4603.92,0.45559
4598.13,0.45633
4592.34,0.45593
4586.56,0.45620
4580.77,0.45515
4574.98,0.45357
4569.2,0.45168
4563.41,0.45324
4557.63,0.45370
4551.84,0.45319
4546.05,0.45202
4540.27,0.45197
4534.48,0.45035
4528.69,0.44954
4522.91,0.44886
4517.12,0.44886
4511.34,0.44722
4505.55,0.44559
4499.76,0.44624
4493.98,0.44500
4488.19,0.44450
4482.4,0.44411
4476.62,0.44208
4470.83,0.44255
4465.05,0.44129
4459.26,0.44013
4453.47,0.43778
4447.69,0.43649
4441.9,0.43428
4436.11,0.43208
4430.33,0.43038
4424.54,0.42773
4418.76,0.42567
4412.97,0.42171
4407.18,0.42059
4401.4,0.41797
4395.61,0.41781
4389.82,0.41805
4384.04,0.41705
4378.25,0.41658
4372.47,0.41454
4366.68,0.41358
4360.89,0.41233
4355.11,0.41195
4349.32,0.40999
4343.53,0.40745
4337.75,0.40472
4331.96,0.40192
4326.18,0.40123
4320.39,0.40217
4314.6,0.40601
4308.82,0.40713
4303.03,0.40671
4297.24,0.40671
4291.46,0.40660
4285.67,0.40526
4279.89,0.40254
4274.1,0.40062
4268.31,0.39811
4262.53,0.39671
4256.74,0.39573
4250.95,0.39528
4245.17,0.39573
4239.38,0.39512
4233.6,0.39475
4227.81,0.39483
4222.02,0.39319
4216.24,0.39180
4210.45,0.39131
4204.66,0.39030
4198.88,0.38943
4193.09,0.38995
4187.31,0.38833
4181.52,0.38681
4175.73,0.38648
4169.95,0.38526
4164.16,0.38575
4158.37,0.38425
4152.59,0.38367
4146.8,0.38215
4141.02,0.38003
4135.23,0.37784
4129.44,0.37609
4123.66,0.37381
4117.87,0.37106
4112.09,0.36865
4106.3,0.36673
4100.51,0.36334
4094.73,0.36036
4088.94,0.35690
4083.15,0.35341
4077.37,0.34941
4071.58,0.34552
4065.8,0.34107
4060.01,0.33811
4054.22,0.33410
4048.44,0.33240
4042.65,0.33063
4036.86,0.32959
4031.08,0.33074
4025.29,0.33204
4019.51,0.33322
4013.72,0.33433
4007.93,0.33419
4002.15,0.33374
3996.36,0.33486
3990.57,0.33502
3984.79,0.33550
3979,0.33592
3973.22,0.33609
3967.43,0.33621
3961.64,0.33619
3955.86,0.33567
3950.07,0.33568
3944.28,0.33655
3938.5,0.33656
3932.71,0.33693
3926.93,0.33737
3921.14,0.33738
3915.35,0.33707
3909.57,0.33820
3903.78,0.33856
3897.99,0.33802
3892.21,0.33840
3886.42,0.33876
3880.64,0.33784
3874.85,0.33816
3869.06,0.33788
3863.28,0.33779
3857.49,0.33758
3851.7,0.33669
3845.92,0.33594
3840.13,0.33529
3834.35,0.33445
3828.56,0.33306
3822.77,0.33218
3816.99,0.33029
3811.2,0.32784
3805.41,0.32653
3799.63,0.32469
3793.84,0.32272
3788.06,0.32012
3782.27,0.31849
3776.48,0.31614
3770.7,0.31271
3764.91,0.30963
3759.12,0.30695
3753.34,0.30353
3747.55,0.29871
3741.77,0.29334
3735.98,0.28857
3730.19,0.28175
3724.41,0.27446
3718.62,0.26642
3712.83,0.25788
3707.05,0.24629
3701.26,0.23397
3695.48,0.22060
3689.69,0.20472
3683.9,0.18496
3678.12,0.14708
3672.33,0.14436
3666.54,0.14674
3660.76,0.13848
3654.97,0.13345
3649.19,0.12790
3643.4,0.12290
3637.61,0.11824
3631.83,0.11407
3626.04,0.10940
3620.25,0.10611
3614.47,0.10311
3608.68,0.10062
3602.9,0.09853
3597.11,0.09657
3591.32,0.09516
3585.54,0.09359
3579.75,0.09158
3573.97,0.08952
3568.18,0.08848
3562.39,0.08729
3556.61,0.08598
3550.82,0.08478
3545.03,0.08403
3539.25,0.08278
3533.46,0.08226
3527.68,0.08149
3521.89,0.08101
3516.1,0.08048
3510.32,0.07991
3504.53,0.07893
3498.74,0.07852
3492.96,0.07824
3487.17,0.07687
3481.39,0.07635
3475.6,0.07571
3469.81,0.07599
3464.03,0.07499
3458.24,0.07350
3452.45,0.07343
3446.67,0.07360
3440.88,0.07295
3435.1,0.07252
3429.31,0.07284
3423.52,0.07278
3417.74,0.07209
3411.95,0.07257
3406.16,0.07048
3400.38,0.07133
3394.59,0.07192
3388.81,0.07172
3383.02,0.07203
3377.23,0.07130
3371.45,0.07167
3365.66,0.07192
3359.87,0.07251
3354.09,0.07178
3348.3,0.07316
3342.52,0.07240
3336.73,0.07352
3330.94,0.07326
3325.16,0.07330
3319.37,0.07302
3313.58,0.07280
3307.8,0.07352
3302.01,0.07391
3296.23,0.07413
3290.44,0.07456
3284.65,0.07458
3278.87,0.07514
3273.08,0.07528
3267.29,0.07621
3261.51,0.07695
3255.72,0.07745
3249.94,0.07777
3244.15,0.07813
3238.36,0.07822
3232.58,0.07834
3226.79,0.07952
3221,0.07964
3215.22,0.08070
3209.43,0.08209
3203.65,0.08235
3197.86,0.08273
3192.07,0.08360
3186.29,0.08472
3180.5,0.08469
3174.71,0.08544
3168.93,0.08691
3163.14,0.08688
3157.36,0.08746
3151.57,0.08899
3145.78,0.08924
3140,0.08979
3134.21,0.09136
3128.42,0.09198
3122.64,0.09231
3116.85,0.09327
3111.07,0.09384
3105.28,0.09335
3099.49,0.09405
3093.71,0.09369
3087.92,0.09283
3082.14,0.09323
3076.35,0.09527
3070.56,0.09479
3064.78,0.09280
3058.99,0.09227
3053.2,0.09657
3047.42,0.09945
3041.63,0.09977
3035.85,0.09619
3030.06,0.08954
3024.27,0.09015
3018.49,0.09918
3012.7,0.10472
3006.91,0.10461
3001.13,0.10330
2995.34,0.10379
2989.56,0.10259
2983.77,0.09833
2977.98,0.09257
2972.2,0.08551
2966.41,0.07886
2960.62,0.07606
2954.84,0.07613
2949.05,0.07750
2943.27,0.07608
2937.48,0.07341
2931.69,0.07111
2925.91,0.07073
2920.12,0.07235
2914.33,0.07609
2908.55,0.07982
2902.76,0.08293
2896.98,0.08611
2891.19,0.08889
2885.4,0.09058
2879.62,0.08993
2873.83,0.08795
2868.04,0.08922
2862.26,0.08806
2856.47,0.08832
2850.69,0.09406
2844.9,0.10285
2839.11,0.11336
2833.33,0.12032
2827.54,0.12535
2821.75,0.12960
2815.97,0.13297
2810.18,0.13595
2804.4,0.13832
2798.61,0.14025
2792.82,0.14289
2787.04,0.14464
2781.25,0.14633
2775.46,0.14772
2769.68,0.14935
2763.89,0.15038
2758.11,0.15147
2752.32,0.15251
2746.53,0.15319
2740.75,0.15340
2734.96,0.15449
2729.17,0.15573
2723.39,0.15726
2717.6,0.15875
2711.82,0.16042
2706.03,0.16266
2700.24,0.16445
2694.46,0.16613
2688.67,0.16761
2682.88,0.16888
2677.1,0.17093
2671.31,0.17191
2665.53,0.17352
2659.74,0.17495
2653.95,0.17595
2648.17,0.17751
2642.38,0.17874
2636.59,0.17946
2630.81,0.18028
2625.02,0.18143
2619.24,0.18215
2613.45,0.18239
2607.66,0.18239
2601.88,0.18201
2596.09,0.18297
2590.3,0.18415
2584.52,0.18438
2578.73,0.18468
2572.95,0.18548
2567.16,0.18562
2561.37,0.18538
2555.59,0.18504
2549.8,0.18404
2544.02,0.18312
2538.23,0.18184
2532.44,0.17940
2526.66,0.17650
2520.87,0.17468
2515.08,0.17384
2509.3,0.17529
2503.51,0.17894
2497.73,0.18329
2491.94,0.18912
2486.15,0.19349
2480.37,0.19753
2474.58,0.20063
2468.79,0.20264
2463.01,0.20433
2457.22,0.20565
2451.44,0.20628
2445.65,0.20707
2439.86,0.20754
2434.08,0.20883
2428.29,0.20907
2422.5,0.20977
2416.72,0.20969
2410.93,0.21001
2405.15,0.21020
2399.36,0.21004
2393.57,0.21014
2387.79,0.20999
2382,0.20952
2376.21,0.20999
2370.43,0.20971
2364.64,0.20934
2358.86,0.20909
2353.07,0.20830
2347.28,0.20773
2341.5,0.20658
2335.71,0.20647
2329.92,0.20697
2324.14,0.20711
2318.35,0.20634
2312.57,0.20540
2306.78,0.20501
2300.99,0.20501
2295.21,0.20448
2289.42,0.20365
2283.63,0.20304
2277.85,0.20208
2272.06,0.20125
2266.28,0.20041
2260.49,0.19921
2254.7,0.19810
2248.92,0.19764
2243.13,0.19680
2237.34,0.19602
2231.56,0.19577
2225.77,0.19571
2219.99,0.19594
2214.2,0.19643
2208.41,0.19696
2202.63,0.19720
2196.84,0.19720
2191.05,0.19673
2185.27,0.19610
2179.48,0.19539
2173.7,0.19463
2167.91,0.19356
2162.12,0.19218
2156.34,0.19124
2150.55,0.19032
2144.76,0.18918
2138.98,0.18858
2133.19,0.18846
2127.41,0.18913
2121.62,0.19046
2115.83,0.19137
2110.05,0.19157
2104.26,0.19197
2098.47,0.19222
2092.69,0.19241
2086.9,0.19267
2081.12,0.19258
2075.33,0.19232
2069.54,0.19216
2063.76,0.19161
2057.97,0.19082
2052.19,0.18940
2046.4,0.18746
2040.61,0.18448
2034.83,0.18135
2029.04,0.17972
2023.25,0.17898
2017.47,0.17756
2011.68,0.17500
2005.9,0.17235
2000.11,0.17061
1994.32,0.16964
1988.54,0.16891
1982.75,0.16850
1976.96,0.16784
1971.18,0.16696
1965.39,0.16573
1959.61,0.16464
1953.82,0.16269
1948.03,0.16116
1942.25,0.16057
1936.46,0.16255
1930.67,0.16535
1924.89,0.16655
1919.1,0.16586
1913.32,0.16316
1907.53,0.15902
1901.74,0.15509
1895.96,0.15104
1890.17,0.14717
1884.38,0.14414
1878.6,0.14209
1872.81,0.14044
1867.03,0.14030
1861.24,0.14356
1855.45,0.14921
1849.67,0.15366
1843.88,0.15668
1838.09,0.15629
1832.31,0.15415
1826.52,0.15035
1820.74,0.14554
1814.95,0.14103
1809.16,0.13545
1803.38,0.12799
1797.59,0.12140
1791.8,0.12228
1786.02,0.12646
1780.23,0.12880
1774.45,0.12917
1768.66,0.12893
1762.87,0.12666
1757.09,0.12203
1751.3,0.11406
1745.51,0.09983
1739.73,0.07953
1733.94,0.06589
1728.16,0.06631
1722.37,0.07677
1716.58,0.08856
1710.8,0.09240
1705.01,0.09107
1699.22,0.08869
1693.44,0.08480
1687.65,0.08114
1681.87,0.07811
1676.08,0.07562
1670.29,0.07305
1664.51,0.07120
1658.72,0.07006
1652.93,0.06917
1647.15,0.06790
1641.36,0.06678
1635.58,0.06557
1629.79,0.06428
1624,0.06323
1618.22,0.06216
1612.43,0.06135
1606.64,0.05929
1600.86,0.05822
1595.07,0.05968
1589.29,0.05950
1583.5,0.05909
1577.71,0.05984
1571.93,0.06076
1566.14,0.06153
1560.35,0.06283
1554.57,0.06420
1548.78,0.06523
1543,0.06683
1537.21,0.06804
1531.42,0.07023
1525.64,0.07104
1519.85,0.07116
1514.07,0.07043
1508.28,0.06992
1502.49,0.06617
1496.71,0.06002
1490.92,0.06100
1485.13,0.06339
1479.35,0.06118
1473.56,0.05896
1467.78,0.05583
1461.99,0.05426
1456.2,0.05203
1450.42,0.05358
1444.63,0.05562
1438.84,0.05692
1433.06,0.05773
1427.27,0.05757
1421.49,0.05762
1415.7,0.05876
1409.91,0.05988
1404.13,0.06153
1398.34,0.06306
1392.55,0.06514
1386.77,0.06621
1380.98,0.06525
1375.2,0.06619
1369.41,0.06686
1363.62,0.06784
1357.84,0.06851
1352.05,0.06969
1346.26,0.07138
1340.48,0.07139
1334.69,0.07185
1328.91,0.07237
1323.12,0.07250
1317.33,0.07213
1311.55,0.07391
1305.76,0.07618
1299.97,0.07800
1294.19,0.07867
1288.4,0.07759
1282.62,0.07615
1276.83,0.07614
1271.04,0.07691
1265.26,0.07665
1259.47,0.07730
1253.68,0.07848
1247.9,0.07916
1242.11,0.08023
1236.33,0.08118
1230.54,0.08301
1224.75,0.08358
1218.97,0.08211
1213.18,0.07900
1207.39,0.07605
1201.61,0.07413
1195.82,0.07343
1190.04,0.07326
1184.25,0.07159
1178.46,0.07060
1172.68,0.07032
1166.89,0.07024
1161.1,0.06933
1155.32,0.07150
1149.53,0.07532
1143.75,0.07841
1137.96,0.07928
1132.17,0.08046
1126.39,0.08077
1120.6,0.08131
1114.81,0.08224
1109.03,0.08421
1103.24,0.08577
1097.46,0.08885
1091.67,0.08998
1085.88,0.09207
1080.1,0.09379
1074.31,0.09434
1068.52,0.09358
1062.74,0.09148
1056.95,0.08976
1051.17,0.09199
1045.38,0.09722
1039.59,0.10270
1033.81,0.10721
1028.02,0.11092
1022.24,0.11318
1016.45,0.11275
1010.66,0.10674
1004.88,0.09897
999.09,0.09381
993.304,0.08949
987.518,0.08603
981.731,0.08366
975.945,0.08144
970.159,0.07664
964.373,0.07475
958.586,0.07315
952.8,0.07161
947.014,0.07144
941.228,0.07074
935.441,0.07001
929.655,0.06911
923.869,0.06871
918.083,0.06804
912.297,0.06584
906.51,0.06464
900.724,0.06422
894.938,0.06407
889.152,0.06380
883.365,0.06256
877.579,0.06041
871.793,0.06099
866.007,0.06161
860.22,0.06129
854.434,0.05970
848.648,0.05862
842.862,0.05748
837.075,0.05621
831.289,0.05517
825.503,0.05301
819.717,0.05097
813.931,0.04890
808.144,0.04878
802.358,0.04912
796.572,0.04784
790.786,0.04572
784.999,0.04609
779.213,0.04614
773.427,0.04534
767.641,0.04449
761.854,0.04491
756.068,0.04465
750.282,0.04248
744.496,0.04300
738.709,0.04208
732.923,0.04169
727.137,0.04286
721.351,0.04341
715.565,0.04395
709.778,0.04474
703.992,0.04904
698.206,0.05433
692.42,0.05250
686.633,0.05637
680.847,0.06187
675.061,0.07063
669.275,0.07691
663.488,0.06950
657.702,0.06382
651.916,0.06276
646.13,0.06183
640.343,0.05784
634.557,0.05541
628.771,0.05597
622.985,0.05808
617.198,0.05672
611.412,0.05939
605.626,0.06208
599.84,0.06270