File: 01_Data/Fiber_Cement_Board/FTIR/IS/Deprecated/Fiber_Cement_Board_IS_S_220928_R8.dpt
7497.03,0.50934
7491.25,0.50033
7485.46,0.49677
7479.67,0.49541
7473.89,0.50825
7468.1,0.50348
7462.32,0.49152
7456.53,0.50390
7450.74,0.50152
7444.96,0.50299
7439.17,0.49786
7433.38,0.49045
7427.6,0.50151
7421.81,0.49828
7416.03,0.50626
7410.24,0.49897
7404.45,0.49235
7398.67,0.50102
7392.88,0.49246
7387.09,0.50307
7381.31,0.49928
7375.52,0.50138
7369.74,0.50207
7363.95,0.49782
7358.16,0.48974
7352.38,0.50618
7346.59,0.50447
7340.8,0.50775
7335.02,0.50537
7329.23,0.50764
7323.45,0.50306
7317.66,0.49677
7311.87,0.49735
7306.09,0.50377
7300.3,0.51245
7294.51,0.49918
7288.73,0.49772
7282.94,0.50126
7277.16,0.49374
7271.37,0.49339
7265.58,0.49614
7259.8,0.50349
7254.01,0.49490
7248.22,0.50155
7242.44,0.49201
7236.65,0.49655
7230.87,0.48259
7225.08,0.50152
7219.29,0.49491
7213.51,0.49629
7207.72,0.49659
7201.93,0.49528
7196.15,0.48836
7190.36,0.48579
7184.58,0.47624
7178.79,0.50056
7173,0.49878
7167.22,0.49100
7161.43,0.49117
7155.65,0.49309
7149.86,0.48541
7144.07,0.48141
7138.29,0.49202
7132.5,0.48373
7126.71,0.48024
7120.93,0.48250
7115.14,0.47781
7109.36,0.48537
7103.57,0.48639
7097.78,0.47876
7092,0.48131
7086.21,0.48306
7080.42,0.48267
7074.64,0.48593
7068.85,0.48084
7063.07,0.48425
7057.28,0.48517
7051.49,0.47841
7045.71,0.47586
7039.92,0.48038
7034.13,0.47729
7028.35,0.48186
7022.56,0.48183
7016.78,0.48304
7010.99,0.47894
7005.2,0.48314
6999.42,0.48051
6993.63,0.47957
6987.84,0.48171
6982.06,0.48020
6976.27,0.48854
6970.49,0.48040
6964.7,0.48006
6958.91,0.48108
6953.13,0.48242
6947.34,0.48520
6941.55,0.48053
6935.77,0.48413
6929.98,0.48405
6924.2,0.47861
6918.41,0.48550
6912.62,0.48305
6906.84,0.48263
6901.05,0.47659
6895.26,0.48719
6889.48,0.49026
6883.69,0.48223
6877.91,0.48096
6872.12,0.48639
6866.33,0.48954
6860.55,0.48612
6854.76,0.48626
6848.97,0.48985
6843.19,0.48572
6837.4,0.48609
6831.62,0.48853
6825.83,0.48976
6820.04,0.48773
6814.26,0.48323
6808.47,0.48304
6802.68,0.48846
6796.9,0.48866
6791.11,0.49036
6785.33,0.48477
6779.54,0.48958
6773.75,0.48819
6767.97,0.48593
6762.18,0.48341
6756.39,0.48744
6750.61,0.48477
6744.82,0.48749
6739.04,0.48922
6733.25,0.48963
6727.46,0.48715
6721.68,0.48743
6715.89,0.49274
6710.1,0.49157
6704.32,0.49231
6698.53,0.48931
6692.75,0.49019
6686.96,0.49000
6681.17,0.49408
6675.39,0.49705
6669.6,0.49504
6663.82,0.49338
6658.03,0.49201
6652.24,0.49211
6646.46,0.49268
6640.67,0.49126
6634.88,0.49248
6629.1,0.49241
6623.31,0.49605
6617.53,0.49990
6611.74,0.49467
6605.95,0.49585
6600.17,0.49218
6594.38,0.49551
6588.59,0.49403
6582.81,0.49600
6577.02,0.49446
6571.24,0.49622
6565.45,0.49272
6559.66,0.49592
6553.88,0.49404
6548.09,0.49882
6542.3,0.49783
6536.52,0.49711
6530.73,0.49828
6524.95,0.49740
6519.16,0.49878
6513.37,0.49772
6507.59,0.50051
6501.8,0.49623
6496.01,0.49719
6490.23,0.49724
6484.44,0.49992
6478.66,0.49836
6472.87,0.49813
6467.08,0.50231
6461.3,0.50432
6455.51,0.50360
6449.72,0.50090
6443.94,0.50175
6438.15,0.50038
6432.37,0.49998
6426.58,0.50204
6420.79,0.49946
6415.01,0.50196
6409.22,0.49933
6403.43,0.50211
6397.65,0.49895
6391.86,0.50030
6386.08,0.50145
6380.29,0.50122
6374.5,0.50364
6368.72,0.50165
6362.93,0.50435
6357.14,0.50112
6351.36,0.50641
6345.57,0.50140
6339.79,0.50200
6334,0.50047
6328.21,0.50493
6322.43,0.50008
6316.64,0.50172
6310.85,0.50433
6305.07,0.50730
6299.28,0.50522
6293.5,0.50269
6287.71,0.50177
6281.92,0.50085
6276.14,0.50433
6270.35,0.50204
6264.56,0.50460
6258.78,0.50666
6252.99,0.50203
6247.21,0.50252
6241.42,0.50639
6235.63,0.50661
6229.85,0.50505
6224.06,0.50146
6218.27,0.50575
6212.49,0.50534
6206.7,0.50559
6200.92,0.50493
6195.13,0.50553
6189.34,0.50361
6183.56,0.50652
6177.77,0.50513
6171.98,0.50553
6166.2,0.50801
6160.41,0.50628
6154.63,0.50907
6148.84,0.50495
6143.05,0.50807
6137.27,0.50709
6131.48,0.50787
6125.7,0.50872
6119.91,0.50797
6114.12,0.50609
6108.34,0.50838
6102.55,0.50794
6096.76,0.50700
6090.98,0.50844
6085.19,0.50608
6079.41,0.50662
6073.62,0.50613
6067.83,0.50846
6062.05,0.51066
6056.26,0.51002
6050.47,0.50914
6044.69,0.51027
6038.9,0.50723
6033.12,0.50795
6027.33,0.51027
6021.54,0.50731
6015.76,0.50946
6009.97,0.50870
6004.18,0.50687
5998.4,0.50597
5992.61,0.50645
5986.83,0.50325
5981.04,0.50277
5975.25,0.50061
5969.47,0.50161
5963.68,0.50470
5957.89,0.50467
5952.11,0.50535
5946.32,0.50449
5940.54,0.50223
5934.75,0.50207
5928.96,0.50442
5923.18,0.50357
5917.39,0.50413
5911.6,0.50163
5905.82,0.50191
5900.03,0.50185
5894.25,0.50203
5888.46,0.50758
5882.67,0.50774
5876.89,0.50524
5871.1,0.50466
5865.31,0.50517
5859.53,0.50744
5853.74,0.50747
5847.96,0.50481
5842.17,0.50881
5836.38,0.50769
5830.6,0.50427
5824.81,0.50736
5819.02,0.50621
5813.24,0.50609
5807.45,0.50326
5801.67,0.50745
5795.88,0.50636
5790.09,0.50246
5784.31,0.50617
5778.52,0.50426
5772.73,0.50445
5766.95,0.50691
5761.16,0.50670
5755.38,0.50609
5749.59,0.50715
5743.8,0.50638
5738.02,0.50545
5732.23,0.50551
5726.44,0.50533
5720.66,0.50613
5714.87,0.50848
5709.09,0.50609
5703.3,0.50698
5697.51,0.50844
5691.73,0.50748
5685.94,0.50422
5680.15,0.50577
5674.37,0.50578
5668.58,0.50543
5662.8,0.50641
5657.01,0.50683
5651.22,0.50662
5645.44,0.50897
5639.65,0.50653
5633.87,0.50772
5628.08,0.50693
5622.29,0.50747
5616.51,0.50797
5610.72,0.50786
5604.93,0.50711
5599.15,0.50996
5593.36,0.50673
5587.58,0.50635
5581.79,0.50841
5576,0.50717
5570.22,0.50899
5564.43,0.50907
5558.64,0.50663
5552.86,0.50838
5547.07,0.50876
5541.29,0.50878
5535.5,0.50782
5529.71,0.50890
5523.93,0.50799
5518.14,0.50873
5512.35,0.50829
5506.57,0.50786
5500.78,0.50885
5495,0.50702
5489.21,0.50890
5483.42,0.50848
5477.64,0.50912
5471.85,0.50973
5466.06,0.50969
5460.28,0.51066
5454.49,0.51151
5448.71,0.51069
5442.92,0.51196
5437.13,0.51134
5431.35,0.51079
5425.56,0.51094
5419.77,0.50884
5413.99,0.50784
5408.2,0.51121
5402.42,0.51110
5396.63,0.51039
5390.84,0.50949
5385.06,0.50891
5379.27,0.50782
5373.48,0.50918
5367.7,0.50856
5361.91,0.50737
5356.13,0.50754
5350.34,0.50716
5344.55,0.50503
5338.77,0.50399
5332.98,0.50254
5327.19,0.49990
5321.41,0.49941
5315.62,0.49777
5309.84,0.49464
5304.05,0.49279
5298.26,0.48916
5292.48,0.48416
5286.69,0.48038
5280.9,0.47803
5275.12,0.47120
5269.33,0.46636
5263.55,0.46278
5257.76,0.45532
5251.97,0.44938
5246.19,0.44440
5240.4,0.43901
5234.61,0.43323
5228.83,0.42787
5223.04,0.42291
5217.26,0.41915
5211.47,0.41909
5205.68,0.41708
5199.9,0.41642
5194.11,0.41621
5188.32,0.41486
5182.54,0.41561
5176.75,0.41786
5170.97,0.41856
5165.18,0.41986
5159.39,0.42324
5153.61,0.42464
5147.82,0.42687
5142.03,0.42816
5136.25,0.42994
5130.46,0.43181
5124.68,0.43400
5118.89,0.43632
5113.1,0.43842
5107.32,0.43962
5101.53,0.44170
5095.75,0.44229
5089.96,0.44374
5084.17,0.44609
5078.39,0.44828
5072.6,0.44820
5066.81,0.45038
5061.03,0.45179
5055.24,0.45277
5049.46,0.45435
5043.67,0.45531
5037.88,0.45741
5032.1,0.45788
5026.31,0.45765
5020.52,0.46005
5014.74,0.46082
5008.95,0.46176
5003.17,0.46374
4997.38,0.46497
4991.59,0.46622
4985.81,0.46692
4980.02,0.46812
4974.23,0.46900
4968.45,0.47022
4962.66,0.46999
4956.88,0.46974
4951.09,0.46996
4945.3,0.47205
4939.52,0.47229
4933.73,0.47207
4927.94,0.47143
4922.16,0.47226
4916.37,0.47196
4910.59,0.47207
4904.8,0.47120
4899.01,0.47106
4893.23,0.47043
4887.44,0.47006
4881.65,0.46869
4875.87,0.46987
4870.08,0.46953
4864.3,0.46939
4858.51,0.46843
4852.72,0.46655
4846.94,0.46688
4841.15,0.46644
4835.36,0.46510
4829.58,0.46497
4823.79,0.46331
4818.01,0.46288
4812.22,0.46393
4806.43,0.46228
4800.65,0.46324
4794.86,0.46215
4789.07,0.46069
4783.29,0.46041
4777.5,0.46047
4771.72,0.46010
4765.93,0.46035
4760.14,0.45968
4754.36,0.45938
4748.57,0.45960
4742.78,0.46030
4737,0.45989
4731.21,0.46166
4725.43,0.46135
4719.64,0.46130
4713.85,0.46159
4708.07,0.46202
4702.28,0.46206
4696.49,0.46246
4690.71,0.46277
4684.92,0.46177
4679.14,0.46036
4673.35,0.45861
4667.56,0.45803
4661.78,0.45778
4655.99,0.45807
4650.2,0.46022
4644.42,0.46109
4638.63,0.46125
4632.85,0.46012
4627.06,0.45825
4621.27,0.45741
4615.49,0.45732
4609.7,0.45627
4603.92,0.45648
4598.13,0.45776
4592.34,0.45797
4586.56,0.45756
4580.77,0.45659
4574.98,0.45438
4569.2,0.45357
4563.41,0.45480
4557.63,0.45428
4551.84,0.45390
4546.05,0.45354
4540.27,0.45308
4534.48,0.45131
4528.69,0.45108
4522.91,0.45038
4517.12,0.44946
4511.34,0.44790
4505.55,0.44747
4499.76,0.44657
4493.98,0.44573
4488.19,0.44541
4482.4,0.44537
4476.62,0.44392
4470.83,0.44351
4465.05,0.44214
4459.26,0.44094
4453.47,0.43922
4447.69,0.43748
4441.9,0.43534
4436.11,0.43356
4430.33,0.43178
4424.54,0.42906
4418.76,0.42707
4412.97,0.42426
4407.18,0.42112
4401.4,0.41949
4395.61,0.41861
4389.82,0.41829
4384.04,0.41876
4378.25,0.41738
4372.47,0.41656
4366.68,0.41452
4360.89,0.41446
4355.11,0.41335
4349.32,0.41065
4343.53,0.40890
4337.75,0.40533
4331.96,0.40253
4326.18,0.40202
4320.39,0.40320
4314.6,0.40706
4308.82,0.40977
4303.03,0.40885
4297.24,0.40837
4291.46,0.40755
4285.67,0.40625
4279.89,0.40390
4274.1,0.40241
4268.31,0.40028
4262.53,0.39831
4256.74,0.39734
4250.95,0.39721
4245.17,0.39691
4239.38,0.39624
4233.6,0.39607
4227.81,0.39562
4222.02,0.39517
4216.24,0.39416
4210.45,0.39227
4204.66,0.39224
4198.88,0.39168
4193.09,0.39138
4187.31,0.39074
4181.52,0.38849
4175.73,0.38739
4169.95,0.38687
4164.16,0.38742
4158.37,0.38671
4152.59,0.38527
4146.8,0.38361
4141.02,0.38219
4135.23,0.38069
4129.44,0.37816
4123.66,0.37593
4117.87,0.37317
4112.09,0.37179
4106.3,0.36841
4100.51,0.36545
4094.73,0.36211
4088.94,0.35867
4083.15,0.35508
4077.37,0.35131
4071.58,0.34732
4065.8,0.34302
4060.01,0.33870
4054.22,0.33656
4048.44,0.33505
4042.65,0.33242
4036.86,0.33169
4031.08,0.33298
4025.29,0.33352
4019.51,0.33407
4013.72,0.33512
4007.93,0.33560
4002.15,0.33578
3996.36,0.33643
3990.57,0.33690
3984.79,0.33715
3979,0.33748
3973.22,0.33783
3967.43,0.33755
3961.64,0.33785
3955.86,0.33808
3950.07,0.33791
3944.28,0.33859
3938.5,0.33800
3932.71,0.33907
3926.93,0.33936
3921.14,0.33990
3915.35,0.33948
3909.57,0.33954
3903.78,0.33983
3897.99,0.34059
3892.21,0.34018
3886.42,0.34020
3880.64,0.33990
3874.85,0.33953
3869.06,0.34031
3863.28,0.34035
3857.49,0.34049
3851.7,0.33958
3845.92,0.33798
3840.13,0.33726
3834.35,0.33627
3828.56,0.33512
3822.77,0.33383
3816.99,0.33209
3811.2,0.33056
3805.41,0.32891
3799.63,0.32681
3793.84,0.32496
3788.06,0.32326
3782.27,0.32079
3776.48,0.31827
3770.7,0.31513
3764.91,0.31186
3759.12,0.30851
3753.34,0.30576
3747.55,0.30167
3741.77,0.29577
3735.98,0.29105
3730.19,0.28310
3724.41,0.27626
3718.62,0.26830
3712.83,0.25972
3707.05,0.24784
3701.26,0.23569
3695.48,0.22087
3689.69,0.20621
3683.9,0.18626
3678.12,0.14739
3672.33,0.14447
3666.54,0.14789
3660.76,0.13965
3654.97,0.13461
3649.19,0.12898
3643.4,0.12444
3637.61,0.11999
3631.83,0.11545
3626.04,0.11066
3620.25,0.10736
3614.47,0.10501
3608.68,0.10206
3602.9,0.09976
3597.11,0.09896
3591.32,0.09644
3585.54,0.09412
3579.75,0.09272
3573.97,0.09140
3568.18,0.09033
3562.39,0.08776
3556.61,0.08665
3550.82,0.08569
3545.03,0.08500
3539.25,0.08383
3533.46,0.08347
3527.68,0.08304
3521.89,0.08195
3516.1,0.08117
3510.32,0.08087
3504.53,0.08046
3498.74,0.07948
3492.96,0.07838
3487.17,0.07822
3481.39,0.07655
3475.6,0.07628
3469.81,0.07559
3464.03,0.07555
3458.24,0.07531
3452.45,0.07481
3446.67,0.07437
3440.88,0.07394
3435.1,0.07396
3429.31,0.07332
3423.52,0.07308
3417.74,0.07284
3411.95,0.07271
3406.16,0.07265
3400.38,0.07201
3394.59,0.07211
3388.81,0.07162
3383.02,0.07198
3377.23,0.07240
3371.45,0.07210
3365.66,0.07289
3359.87,0.07294
3354.09,0.07210
3348.3,0.07271
3342.52,0.07302
3336.73,0.07350
3330.94,0.07292
3325.16,0.07344
3319.37,0.07384
3313.58,0.07390
3307.8,0.07369
3302.01,0.07446
3296.23,0.07539
3290.44,0.07543
3284.65,0.07549
3278.87,0.07559
3273.08,0.07610
3267.29,0.07715
3261.51,0.07696
3255.72,0.07773
3249.94,0.07823
3244.15,0.07886
3238.36,0.08032
3232.58,0.08004
3226.79,0.08122
3221,0.08184
3215.22,0.08120
3209.43,0.08213
3203.65,0.08350
3197.86,0.08335
3192.07,0.08429
3186.29,0.08563
3180.5,0.08616
3174.71,0.08671
3168.93,0.08685
3163.14,0.08835
3157.36,0.08919
3151.57,0.08991
3145.78,0.09022
3140,0.09143
3134.21,0.09248
3128.42,0.09273
3122.64,0.09320
3116.85,0.09413
3111.07,0.09432
3105.28,0.09454
3099.49,0.09513
3093.71,0.09531
3087.92,0.09364
3082.14,0.09309
3076.35,0.09604
3070.56,0.09637
3064.78,0.09370
3058.99,0.09300
3053.2,0.09730
3047.42,0.10035
3041.63,0.10077
3035.85,0.09696
3030.06,0.09042
3024.27,0.09141
3018.49,0.10071
3012.7,0.10555
3006.91,0.10604
3001.13,0.10452
2995.34,0.10527
2989.56,0.10348
2983.77,0.09905
2977.98,0.09292
2972.2,0.08611
2966.41,0.07974
2960.62,0.07598
2954.84,0.07605
2949.05,0.07720
2943.27,0.07613
2937.48,0.07325
2931.69,0.07071
2925.91,0.07107
2920.12,0.07255
2914.33,0.07644
2908.55,0.08013
2902.76,0.08324
2896.98,0.08680
2891.19,0.08970
2885.4,0.09115
2879.62,0.09001
2873.83,0.08814
2868.04,0.08933
2862.26,0.08892
2856.47,0.08874
2850.69,0.09422
2844.9,0.10393
2839.11,0.11422
2833.33,0.12153
2827.54,0.12645
2821.75,0.13042
2815.97,0.13345
2810.18,0.13655
2804.4,0.13948
2798.61,0.14176
2792.82,0.14390
2787.04,0.14587
2781.25,0.14772
2775.46,0.14867
2769.68,0.15044
2763.89,0.15155
2758.11,0.15241
2752.32,0.15368
2746.53,0.15440
2740.75,0.15506
2734.96,0.15541
2729.17,0.15692
2723.39,0.15846
2717.6,0.16013
2711.82,0.16183
2706.03,0.16329
2700.24,0.16564
2694.46,0.16763
2688.67,0.16856
2682.88,0.17070
2677.1,0.17166
2671.31,0.17341
2665.53,0.17511
2659.74,0.17632
2653.95,0.17731
2648.17,0.17861
2642.38,0.18027
2636.59,0.18110
2630.81,0.18212
2625.02,0.18250
2619.24,0.18330
2613.45,0.18304
2607.66,0.18355
2601.88,0.18365
2596.09,0.18443
2590.3,0.18501
2584.52,0.18558
2578.73,0.18538
2572.95,0.18627
2567.16,0.18665
2561.37,0.18658
2555.59,0.18618
2549.8,0.18532
2544.02,0.18434
2538.23,0.18250
2532.44,0.18037
2526.66,0.17767
2520.87,0.17615
2515.08,0.17493
2509.3,0.17609
2503.51,0.17929
2497.73,0.18462
2491.94,0.19034
2486.15,0.19501
2480.37,0.19829
2474.58,0.20209
2468.79,0.20427
2463.01,0.20565
2457.22,0.20693
2451.44,0.20776
2445.65,0.20895
2439.86,0.20943
2434.08,0.21029
2428.29,0.21034
2422.5,0.21103
2416.72,0.21139
2410.93,0.21156
2405.15,0.21198
2399.36,0.21207
2393.57,0.21194
2387.79,0.21162
2382,0.21154
2376.21,0.21148
2370.43,0.21168
2364.64,0.21115
2358.86,0.21060
2353.07,0.21019
2347.28,0.20959
2341.5,0.20865
2335.71,0.20834
2329.92,0.20882
2324.14,0.20870
2318.35,0.20822
2312.57,0.20698
2306.78,0.20696
2300.99,0.20686
2295.21,0.20653
2289.42,0.20541
2283.63,0.20496
2277.85,0.20422
2272.06,0.20338
2266.28,0.20209
2260.49,0.20059
2254.7,0.19967
2248.92,0.19900
2243.13,0.19858
2237.34,0.19778
2231.56,0.19763
2225.77,0.19784
2219.99,0.19802
2214.2,0.19860
2208.41,0.19895
2202.63,0.19940
2196.84,0.19937
2191.05,0.19872
2185.27,0.19866
2179.48,0.19756
2173.7,0.19649
2167.91,0.19537
2162.12,0.19401
2156.34,0.19310
2150.55,0.19180
2144.76,0.19115
2138.98,0.19031
2133.19,0.19037
2127.41,0.19112
2121.62,0.19182
2115.83,0.19291
2110.05,0.19364
2104.26,0.19388
2098.47,0.19416
2092.69,0.19450
2086.9,0.19466
2081.12,0.19473
2075.33,0.19454
2069.54,0.19405
2063.76,0.19320
2057.97,0.19213
2052.19,0.19114
2046.4,0.18890
2040.61,0.18612
2034.83,0.18308
2029.04,0.18127
2023.25,0.18053
2017.47,0.17929
2011.68,0.17630
2005.9,0.17326
2000.11,0.17155
1994.32,0.17060
1988.54,0.17003
1982.75,0.17003
1976.96,0.16895
1971.18,0.16779
1965.39,0.16680
1959.61,0.16563
1953.82,0.16387
1948.03,0.16223
1942.25,0.16173
1936.46,0.16379
1930.67,0.16640
1924.89,0.16727
1919.1,0.16700
1913.32,0.16406
1907.53,0.16010
1901.74,0.15585
1895.96,0.15151
1890.17,0.14751
1884.38,0.14463
1878.6,0.14274
1872.81,0.14087
1867.03,0.14096
1861.24,0.14458
1855.45,0.14987
1849.67,0.15449
1843.88,0.15711
1838.09,0.15700
1832.31,0.15487
1826.52,0.15110
1820.74,0.14644
1814.95,0.14157
1809.16,0.13578
1803.38,0.12833
1797.59,0.12205
1791.8,0.12267
1786.02,0.12739
1780.23,0.12957
1774.45,0.12982
1768.66,0.12959
1762.87,0.12749
1757.09,0.12246
1751.3,0.11487
1745.51,0.10038
1739.73,0.07937
1733.94,0.06617
1728.16,0.06704
1722.37,0.07729
1716.58,0.08930
1710.8,0.09296
1705.01,0.09186
1699.22,0.08932
1693.44,0.08550
1687.65,0.08195
1681.87,0.07933
1676.08,0.07676
1670.29,0.07413
1664.51,0.07220
1658.72,0.07043
1652.93,0.06981
1647.15,0.06844
1641.36,0.06669
1635.58,0.06578
1629.79,0.06480
1624,0.06372
1618.22,0.06261
1612.43,0.06117
1606.64,0.05940
1600.86,0.05847
1595.07,0.05960
1589.29,0.05962
1583.5,0.05910
1577.71,0.05995
1571.93,0.06058
1566.14,0.06147
1560.35,0.06271
1554.57,0.06409
1548.78,0.06521
1543,0.06665
1537.21,0.06814
1531.42,0.07015
1525.64,0.07138
1519.85,0.07173
1514.07,0.07052
1508.28,0.06947
1502.49,0.06631
1496.71,0.06000
1490.92,0.06062
1485.13,0.06329
1479.35,0.06156
1473.56,0.05922
1467.78,0.05590
1461.99,0.05404
1456.2,0.05204
1450.42,0.05367
1444.63,0.05586
1438.84,0.05720
1433.06,0.05768
1427.27,0.05789
1421.49,0.05805
1415.7,0.05834
1409.91,0.05986
1404.13,0.06173
1398.34,0.06303
1392.55,0.06504
1386.77,0.06643
1380.98,0.06527
1375.2,0.06628
1369.41,0.06672
1363.62,0.06754
1357.84,0.06830
1352.05,0.06982
1346.26,0.07126
1340.48,0.07193
1334.69,0.07184
1328.91,0.07259
1323.12,0.07244
1317.33,0.07188
1311.55,0.07385
1305.76,0.07673
1299.97,0.07872
1294.19,0.07849
1288.4,0.07780
1282.62,0.07639
1276.83,0.07648
1271.04,0.07675
1265.26,0.07690
1259.47,0.07751
1253.68,0.07877
1247.9,0.07924
1242.11,0.08014
1236.33,0.08110
1230.54,0.08277
1224.75,0.08329
1218.97,0.08151
1213.18,0.07877
1207.39,0.07596
1201.61,0.07373
1195.82,0.07338
1190.04,0.07311
1184.25,0.07166
1178.46,0.07113
1172.68,0.07080
1166.89,0.07028
1161.1,0.06936
1155.32,0.07168
1149.53,0.07554
1143.75,0.07805
1137.96,0.07967
1132.17,0.08039
1126.39,0.08109
1120.6,0.08111
1114.81,0.08210
1109.03,0.08367
1103.24,0.08595
1097.46,0.08829
1091.67,0.09022
1085.88,0.09212
1080.1,0.09412
1074.31,0.09429
1068.52,0.09327
1062.74,0.09156
1056.95,0.09063
1051.17,0.09207
1045.38,0.09816
1039.59,0.10265
1033.81,0.10713
1028.02,0.11084
1022.24,0.11326
1016.45,0.11334
1010.66,0.10647
1004.88,0.09947
999.09,0.09405
993.304,0.08953
987.518,0.08609
981.731,0.08348
975.945,0.08034
970.159,0.07717
964.373,0.07484
958.586,0.07314
952.8,0.07171
947.014,0.07150
941.228,0.07037
935.441,0.06990
929.655,0.07006
923.869,0.06905
918.083,0.06799
912.297,0.06639
906.51,0.06509
900.724,0.06379
894.938,0.06435
889.152,0.06433
883.365,0.06330
877.579,0.06045
871.793,0.06058
866.007,0.06189
860.22,0.06116
854.434,0.05938
848.648,0.05836
842.862,0.05746
837.075,0.05531
831.289,0.05520
825.503,0.05281
819.717,0.05098
813.931,0.04824
808.144,0.04914
802.358,0.04852
796.572,0.04793
790.786,0.04601
784.999,0.04641
779.213,0.04624
773.427,0.04497
767.641,0.04554
761.854,0.04552
756.068,0.04502
750.282,0.04381
744.496,0.04253
738.709,0.04243
732.923,0.04239
727.137,0.04287
721.351,0.04369
715.565,0.04413
709.778,0.04515
703.992,0.04860
698.206,0.05452
692.42,0.05320
686.633,0.05690
680.847,0.06194
675.061,0.07077
669.275,0.07746
663.488,0.06856
657.702,0.06402
651.916,0.06405
646.13,0.06170
640.343,0.05793
634.557,0.05736
628.771,0.05572
622.985,0.05749
617.198,0.05718
611.412,0.05754
605.626,0.05980
599.84,0.06279