File: 01_Data/Fiber_Cement_Board/FTIR/IS/Deprecated/Fiber_Cement_Board_IS_T_220928_R7.dpt
7497.03,0.02669
7491.25,0.02083
7485.46,0.02211
7479.67,0.01768
7473.89,0.02619
7468.1,0.02117
7462.32,0.02464
7456.53,0.02018
7450.74,0.02779
7444.96,0.02355
7439.17,0.02548
7433.38,0.02473
7427.6,0.02971
7421.81,0.01819
7416.03,0.02485
7410.24,0.02446
7404.45,0.03140
7398.67,0.03092
7392.88,0.02268
7387.09,0.02359
7381.31,0.03397
7375.52,0.01985
7369.74,0.02252
7363.95,0.02671
7358.16,0.03090
7352.38,0.02807
7346.59,0.02527
7340.8,0.02337
7335.02,0.02998
7329.23,0.02638
7323.45,0.03328
7317.66,0.02898
7311.87,0.02633
7306.09,0.02255
7300.3,0.02778
7294.51,0.02399
7288.73,0.02696
7282.94,0.02594
7277.16,0.02222
7271.37,0.01793
7265.58,0.02426
7259.8,0.02138
7254.01,0.02385
7248.22,0.02245
7242.44,0.02376
7236.65,0.02778
7230.87,0.02925
7225.08,0.03439
7219.29,0.02849
7213.51,0.02514
7207.72,0.03143
7201.93,0.02865
7196.15,0.01906
7190.36,0.02326
7184.58,0.02684
7178.79,0.01565
7173,0.02804
7167.22,0.02258
7161.43,0.02386
7155.65,0.03264
7149.86,0.02348
7144.07,0.02790
7138.29,0.02514
7132.5,0.02104
7126.71,0.02791
7120.93,0.02129
7115.14,0.02313
7109.36,0.02669
7103.57,0.02661
7097.78,0.02984
7092,0.02869
7086.21,0.02610
7080.42,0.02216
7074.64,0.02080
7068.85,0.02341
7063.07,0.02073
7057.28,0.02642
7051.49,0.02919
7045.71,0.01785
7039.92,0.02069
7034.13,0.02226
7028.35,0.02894
7022.56,0.02454
7016.78,0.02547
7010.99,0.02715
7005.2,0.02472
6999.42,0.02899
6993.63,0.03078
6987.84,0.02283
6982.06,0.02439
6976.27,0.02194
6970.49,0.02387
6964.7,0.02256
6958.91,0.02544
6953.13,0.02031
6947.34,0.02405
6941.55,0.02638
6935.77,0.01980
6929.98,0.01946
6924.2,0.02143
6918.41,0.02541
6912.62,0.02709
6906.84,0.02868
6901.05,0.01862
6895.26,0.02859
6889.48,0.02656
6883.69,0.02487
6877.91,0.02461
6872.12,0.02921
6866.33,0.02272
6860.55,0.02084
6854.76,0.02158
6848.97,0.01614
6843.19,0.02515
6837.4,0.02622
6831.62,0.02339
6825.83,0.02895
6820.04,0.02691
6814.26,0.02338
6808.47,0.02559
6802.68,0.01737
6796.9,0.02544
6791.11,0.02808
6785.33,0.02587
6779.54,0.02304
6773.75,0.01934
6767.97,0.02359
6762.18,0.02601
6756.39,0.02200
6750.61,0.02310
6744.82,0.02085
6739.04,0.02181
6733.25,0.01942
6727.46,0.02229
6721.68,0.02111
6715.89,0.02285
6710.1,0.02277
6704.32,0.02480
6698.53,0.02266
6692.75,0.02395
6686.96,0.02731
6681.17,0.02750
6675.39,0.02204
6669.6,0.01969
6663.82,0.02131
6658.03,0.02321
6652.24,0.02218
6646.46,0.02278
6640.67,0.02219
6634.88,0.02360
6629.1,0.02184
6623.31,0.02317
6617.53,0.02870
6611.74,0.02162
6605.95,0.02304
6600.17,0.02415
6594.38,0.02570
6588.59,0.02484
6582.81,0.02084
6577.02,0.02040
6571.24,0.02343
6565.45,0.02433
6559.66,0.02439
6553.88,0.02096
6548.09,0.02512
6542.3,0.02152
6536.52,0.01969
6530.73,0.02207
6524.95,0.02343
6519.16,0.01947
6513.37,0.02475
6507.59,0.02163
6501.8,0.02366
6496.01,0.02220
6490.23,0.02025
6484.44,0.02471
6478.66,0.02185
6472.87,0.02077
6467.08,0.02108
6461.3,0.02479
6455.51,0.02633
6449.72,0.02374
6443.94,0.02322
6438.15,0.02106
6432.37,0.02259
6426.58,0.02193
6420.79,0.01880
6415.01,0.02191
6409.22,0.02212
6403.43,0.02015
6397.65,0.01783
6391.86,0.02133
6386.08,0.02477
6380.29,0.02029
6374.5,0.02354
6368.72,0.01950
6362.93,0.01879
6357.14,0.02181
6351.36,0.02133
6345.57,0.02003
6339.79,0.02115
6334,0.02079
6328.21,0.02239
6322.43,0.02766
6316.64,0.02217
6310.85,0.02020
6305.07,0.02257
6299.28,0.02302
6293.5,0.02116
6287.71,0.01955
6281.92,0.02075
6276.14,0.02162
6270.35,0.02130
6264.56,0.02288
6258.78,0.02191
6252.99,0.02032
6247.21,0.02205
6241.42,0.02104
6235.63,0.02032
6229.85,0.01843
6224.06,0.02147
6218.27,0.02118
6212.49,0.02274
6206.7,0.01793
6200.92,0.02003
6195.13,0.01913
6189.34,0.02391
6183.56,0.02446
6177.77,0.02290
6171.98,0.02030
6166.2,0.01954
6160.41,0.02295
6154.63,0.02318
6148.84,0.02257
6143.05,0.02180
6137.27,0.02210
6131.48,0.02476
6125.7,0.02238
6119.91,0.02334
6114.12,0.02487
6108.34,0.02180
6102.55,0.02336
6096.76,0.02063
6090.98,0.01961
6085.19,0.02392
6079.41,0.02306
6073.62,0.02162
6067.83,0.02458
6062.05,0.01996
6056.26,0.02199
6050.47,0.02229
6044.69,0.02019
6038.9,0.02359
6033.12,0.02442
6027.33,0.02303
6021.54,0.02218
6015.76,0.02095
6009.97,0.01905
6004.18,0.02193
5998.4,0.02137
5992.61,0.02206
5986.83,0.02246
5981.04,0.02384
5975.25,0.02299
5969.47,0.02160
5963.68,0.01961
5957.89,0.02276
5952.11,0.02045
5946.32,0.02298
5940.54,0.02243
5934.75,0.02105
5928.96,0.02196
5923.18,0.02023
5917.39,0.02177
5911.6,0.02231
5905.82,0.02121
5900.03,0.02291
5894.25,0.02165
5888.46,0.02112
5882.67,0.02130
5876.89,0.02220
5871.1,0.02028
5865.31,0.02217
5859.53,0.02107
5853.74,0.01957
5847.96,0.01898
5842.17,0.02421
5836.38,0.02073
5830.6,0.02228
5824.81,0.02259
5819.02,0.02515
5813.24,0.02105
5807.45,0.02320
5801.67,0.02149
5795.88,0.02120
5790.09,0.02126
5784.31,0.02225
5778.52,0.02304
5772.73,0.02400
5766.95,0.02268
5761.16,0.02363
5755.38,0.02175
5749.59,0.02112
5743.8,0.02146
5738.02,0.02184
5732.23,0.02145
5726.44,0.02190
5720.66,0.02182
5714.87,0.02334
5709.09,0.02237
5703.3,0.02120
5697.51,0.01979
5691.73,0.01981
5685.94,0.02129
5680.15,0.01976
5674.37,0.02261
5668.58,0.02101
5662.8,0.02182
5657.01,0.02147
5651.22,0.02080
5645.44,0.02118
5639.65,0.02122
5633.87,0.02267
5628.08,0.02339
5622.29,0.02146
5616.51,0.02169
5610.72,0.02240
5604.93,0.02258
5599.15,0.02144
5593.36,0.02199
5587.58,0.02208
5581.79,0.02312
5576,0.02193
5570.22,0.02146
5564.43,0.02292
5558.64,0.02029
5552.86,0.02034
5547.07,0.02116
5541.29,0.02166
5535.5,0.02290
5529.71,0.02099
5523.93,0.02182
5518.14,0.02083
5512.35,0.02171
5506.57,0.01994
5500.78,0.02258
5495,0.02173
5489.21,0.02307
5483.42,0.02134
5477.64,0.02009
5471.85,0.02269
5466.06,0.02058
5460.28,0.02107
5454.49,0.02197
5448.71,0.02251
5442.92,0.02371
5437.13,0.02094
5431.35,0.02194
5425.56,0.02252
5419.77,0.02200
5413.99,0.02244
5408.2,0.02224
5402.42,0.02174
5396.63,0.02232
5390.84,0.02171
5385.06,0.02237
5379.27,0.02183
5373.48,0.02106
5367.7,0.02215
5361.91,0.02198
5356.13,0.02206
5350.34,0.02293
5344.55,0.02362
5338.77,0.02184
5332.98,0.02149
5327.19,0.02286
5321.41,0.02149
5315.62,0.02221
5309.84,0.02407
5304.05,0.02358
5298.26,0.02332
5292.48,0.02147
5286.69,0.02262
5280.9,0.02299
5275.12,0.02274
5269.33,0.02151
5263.55,0.02406
5257.76,0.02387
5251.97,0.02216
5246.19,0.02254
5240.4,0.02273
5234.61,0.02304
5228.83,0.02077
5223.04,0.02160
5217.26,0.02214
5211.47,0.02261
5205.68,0.02011
5199.9,0.02281
5194.11,0.02267
5188.32,0.02171
5182.54,0.02208
5176.75,0.02201
5170.97,0.02225
5165.18,0.02251
5159.39,0.02370
5153.61,0.02228
5147.82,0.02235
5142.03,0.02264
5136.25,0.02205
5130.46,0.02232
5124.68,0.02259
5118.89,0.02168
5113.1,0.02358
5107.32,0.02206
5101.53,0.02191
5095.75,0.02110
5089.96,0.02146
5084.17,0.02377
5078.39,0.02268
5072.6,0.02270
5066.81,0.02347
5061.03,0.02191
5055.24,0.02149
5049.46,0.02149
5043.67,0.02223
5037.88,0.02156
5032.1,0.02182
5026.31,0.02314
5020.52,0.02184
5014.74,0.02200
5008.95,0.02184
5003.17,0.02314
4997.38,0.02314
4991.59,0.02158
4985.81,0.02187
4980.02,0.02134
4974.23,0.02207
4968.45,0.02181
4962.66,0.02115
4956.88,0.02290
4951.09,0.02180
4945.3,0.02237
4939.52,0.02181
4933.73,0.02290
4927.94,0.02213
4922.16,0.02207
4916.37,0.02134
4910.59,0.02202
4904.8,0.02107
4899.01,0.02172
4893.23,0.02200
4887.44,0.02192
4881.65,0.02265
4875.87,0.02207
4870.08,0.02236
4864.3,0.02284
4858.51,0.02216
4852.72,0.02201
4846.94,0.02257
4841.15,0.02226
4835.36,0.02312
4829.58,0.02341
4823.79,0.02266
4818.01,0.02229
4812.22,0.02226
4806.43,0.02268
4800.65,0.02178
4794.86,0.02152
4789.07,0.02198
4783.29,0.02215
4777.5,0.02262
4771.72,0.02245
4765.93,0.02140
4760.14,0.02333
4754.36,0.02259
4748.57,0.02184
4742.78,0.02151
4737,0.02279
4731.21,0.02221
4725.43,0.02210
4719.64,0.02383
4713.85,0.02236
4708.07,0.02190
4702.28,0.02247
4696.49,0.02237
4690.71,0.02254
4684.92,0.02211
4679.14,0.02292
4673.35,0.02195
4667.56,0.02188
4661.78,0.02183
4655.99,0.02258
4650.2,0.02213
4644.42,0.02251
4638.63,0.02210
4632.85,0.02262
4627.06,0.02318
4621.27,0.02336
4615.49,0.02349
4609.7,0.02389
4603.92,0.02197
4598.13,0.02235
4592.34,0.02214
4586.56,0.02213
4580.77,0.02272
4574.98,0.02268
4569.2,0.02199
4563.41,0.02179
4557.63,0.02172
4551.84,0.02176
4546.05,0.02176
4540.27,0.02274
4534.48,0.02277
4528.69,0.02255
4522.91,0.02197
4517.12,0.02192
4511.34,0.02277
4505.55,0.02158
4499.76,0.02201
4493.98,0.02242
4488.19,0.02244
4482.4,0.02150
4476.62,0.02164
4470.83,0.02246
4465.05,0.02283
4459.26,0.02284
4453.47,0.02248
4447.69,0.02299
4441.9,0.02226
4436.11,0.02204
4430.33,0.02216
4424.54,0.02238
4418.76,0.02160
4412.97,0.02183
4407.18,0.02186
4401.4,0.02209
4395.61,0.02252
4389.82,0.02198
4384.04,0.02277
4378.25,0.02275
4372.47,0.02231
4366.68,0.02240
4360.89,0.02244
4355.11,0.02242
4349.32,0.02223
4343.53,0.02181
4337.75,0.02268
4331.96,0.02249
4326.18,0.02213
4320.39,0.02207
4314.6,0.02215
4308.82,0.02255
4303.03,0.02244
4297.24,0.02290
4291.46,0.02250
4285.67,0.02254
4279.89,0.02295
4274.1,0.02235
4268.31,0.02203
4262.53,0.02249
4256.74,0.02218
4250.95,0.02237
4245.17,0.02228
4239.38,0.02238
4233.6,0.02217
4227.81,0.02267
4222.02,0.02238
4216.24,0.02177
4210.45,0.02191
4204.66,0.02218
4198.88,0.02260
4193.09,0.02231
4187.31,0.02292
4181.52,0.02247
4175.73,0.02228
4169.95,0.02189
4164.16,0.02221
4158.37,0.02196
4152.59,0.02316
4146.8,0.02256
4141.02,0.02220
4135.23,0.02306
4129.44,0.02229
4123.66,0.02241
4117.87,0.02242
4112.09,0.02226
4106.3,0.02252
4100.51,0.02265
4094.73,0.02230
4088.94,0.02266
4083.15,0.02264
4077.37,0.02264
4071.58,0.02228
4065.8,0.02260
4060.01,0.02331
4054.22,0.02220
4048.44,0.02235
4042.65,0.02292
4036.86,0.02268
4031.08,0.02280
4025.29,0.02225
4019.51,0.02217
4013.72,0.02269
4007.93,0.02212
4002.15,0.02211
3996.36,0.02252
3990.57,0.02230
3984.79,0.02252
3979,0.02242
3973.22,0.02232
3967.43,0.02275
3961.64,0.02301
3955.86,0.02267
3950.07,0.02248
3944.28,0.02250
3938.5,0.02257
3932.71,0.02279
3926.93,0.02211
3921.14,0.02272
3915.35,0.02277
3909.57,0.02254
3903.78,0.02265
3897.99,0.02249
3892.21,0.02279
3886.42,0.02314
3880.64,0.02308
3874.85,0.02307
3869.06,0.02300
3863.28,0.02256
3857.49,0.02273
3851.7,0.02093
3845.92,0.02196
3840.13,0.02327
3834.35,0.02352
3828.56,0.02251
3822.77,0.02187
3816.99,0.02216
3811.2,0.02255
3805.41,0.02279
3799.63,0.02279
3793.84,0.02273
3788.06,0.02253
3782.27,0.02244
3776.48,0.02249
3770.7,0.02254
3764.91,0.02277
3759.12,0.02260
3753.34,0.02243
3747.55,0.02288
3741.77,0.02265
3735.98,0.02254
3730.19,0.02225
3724.41,0.02258
3718.62,0.02225
3712.83,0.02288
3707.05,0.02260
3701.26,0.02242
3695.48,0.02250
3689.69,0.02291
3683.9,0.02210
3678.12,0.02268
3672.33,0.02218
3666.54,0.02218
3660.76,0.02269
3654.97,0.02202
3649.19,0.02232
3643.4,0.02227
3637.61,0.02253
3631.83,0.02228
3626.04,0.02171
3620.25,0.02177
3614.47,0.02126
3608.68,0.02204
3602.9,0.02129
3597.11,0.02160
3591.32,0.02156
3585.54,0.02146
3579.75,0.02142
3573.97,0.02213
3568.18,0.02111
3562.39,0.02132
3556.61,0.02182
3550.82,0.02171
3545.03,0.02132
3539.25,0.02126
3533.46,0.02118
3527.68,0.02118
3521.89,0.02090
3516.1,0.02046
3510.32,0.02125
3504.53,0.02127
3498.74,0.02088
3492.96,0.02161
3487.17,0.02112
3481.39,0.02077
3475.6,0.02075
3469.81,0.02078
3464.03,0.02069
3458.24,0.02129
3452.45,0.02051
3446.67,0.02075
3440.88,0.02064
3435.1,0.02103
3429.31,0.02008
3423.52,0.02010
3417.74,0.02025
3411.95,0.02126
3406.16,0.02052
3400.38,0.01992
3394.59,0.02063
3388.81,0.02120
3383.02,0.02056
3377.23,0.02025
3371.45,0.02083
3365.66,0.02036
3359.87,0.02038
3354.09,0.01975
3348.3,0.02031
3342.52,0.02026
3336.73,0.02112
3330.94,0.02007
3325.16,0.02061
3319.37,0.02013
3313.58,0.01980
3307.8,0.02029
3302.01,0.02059
3296.23,0.02059
3290.44,0.02011
3284.65,0.02044
3278.87,0.02087
3273.08,0.01997
3267.29,0.02059
3261.51,0.02008
3255.72,0.02071
3249.94,0.02080
3244.15,0.02036
3238.36,0.02086
3232.58,0.02077
3226.79,0.02138
3221,0.02115
3215.22,0.02094
3209.43,0.02024
3203.65,0.02027
3197.86,0.02011
3192.07,0.01987
3186.29,0.02060
3180.5,0.02055
3174.71,0.02024
3168.93,0.02083
3163.14,0.02111
3157.36,0.02052
3151.57,0.02098
3145.78,0.02057
3140,0.02057
3134.21,0.02069
3128.42,0.02046
3122.64,0.02113
3116.85,0.02034
3111.07,0.02098
3105.28,0.02085
3099.49,0.02070
3093.71,0.02130
3087.92,0.02103
3082.14,0.02075
3076.35,0.02049
3070.56,0.02027
3064.78,0.02040
3058.99,0.02086
3053.2,0.02033
3047.42,0.02066
3041.63,0.02076
3035.85,0.02038
3030.06,0.02068
3024.27,0.02052
3018.49,0.02064
3012.7,0.02042
3006.91,0.02060
3001.13,0.02055
2995.34,0.02000
2989.56,0.02003
2983.77,0.01960
2977.98,0.02006
2972.2,0.01978
2966.41,0.01932
2960.62,0.01897
2954.84,0.01910
2949.05,0.01947
2943.27,0.01950
2937.48,0.01965
2931.69,0.01989
2925.91,0.01983
2920.12,0.02071
2914.33,0.02029
2908.55,0.02027
2902.76,0.02034
2896.98,0.02051
2891.19,0.02053
2885.4,0.02033
2879.62,0.02044
2873.83,0.02051
2868.04,0.02046
2862.26,0.02008
2856.47,0.02068
2850.69,0.02099
2844.9,0.02102
2839.11,0.02100
2833.33,0.02079
2827.54,0.02097
2821.75,0.02148
2815.97,0.02110
2810.18,0.02122
2804.4,0.02114
2798.61,0.02117
2792.82,0.02134
2787.04,0.02134
2781.25,0.02156
2775.46,0.02138
2769.68,0.02109
2763.89,0.02151
2758.11,0.02129
2752.32,0.02133
2746.53,0.02144
2740.75,0.02120
2734.96,0.02152
2729.17,0.02169
2723.39,0.02113
2717.6,0.02141
2711.82,0.02155
2706.03,0.02142
2700.24,0.02104
2694.46,0.02100
2688.67,0.02138
2682.88,0.02114
2677.1,0.02127
2671.31,0.02106
2665.53,0.02120
2659.74,0.02136
2653.95,0.02159
2648.17,0.02118
2642.38,0.02128
2636.59,0.02113
2630.81,0.02133
2625.02,0.02099
2619.24,0.02119
2613.45,0.02175
2607.66,0.02127
2601.88,0.02094
2596.09,0.02124
2590.3,0.02123
2584.52,0.02131
2578.73,0.02175
2572.95,0.02156
2567.16,0.02127
2561.37,0.02121
2555.59,0.02118
2549.8,0.02088
2544.02,0.02121
2538.23,0.02127
2532.44,0.02137
2526.66,0.02058
2520.87,0.02111
2515.08,0.02078
2509.3,0.02109
2503.51,0.02120
2497.73,0.02065
2491.94,0.02116
2486.15,0.02113
2480.37,0.02067
2474.58,0.02105
2468.79,0.02117
2463.01,0.02108
2457.22,0.02120
2451.44,0.02109
2445.65,0.02132
2439.86,0.02117
2434.08,0.02127
2428.29,0.02100
2422.5,0.02088
2416.72,0.02113
2410.93,0.02136
2405.15,0.02114
2399.36,0.02091
2393.57,0.02111
2387.79,0.02082
2382,0.02125
2376.21,0.02113
2370.43,0.02102
2364.64,0.02125
2358.86,0.02133
2353.07,0.02092
2347.28,0.02114
2341.5,0.02139
2335.71,0.02092
2329.92,0.02127
2324.14,0.02120
2318.35,0.02080
2312.57,0.02143
2306.78,0.02133
2300.99,0.02077
2295.21,0.02121
2289.42,0.02122
2283.63,0.02122
2277.85,0.02132
2272.06,0.02145
2266.28,0.02100
2260.49,0.02098
2254.7,0.02142
2248.92,0.02126
2243.13,0.02111
2237.34,0.02088
2231.56,0.02114
2225.77,0.02101
2219.99,0.02125
2214.2,0.02090
2208.41,0.02106
2202.63,0.02101
2196.84,0.02080
2191.05,0.02079
2185.27,0.02075
2179.48,0.02096
2173.7,0.02115
2167.91,0.02120
2162.12,0.02077
2156.34,0.02067
2150.55,0.02088
2144.76,0.02146
2138.98,0.02102
2133.19,0.02124
2127.41,0.02101
2121.62,0.02053
2115.83,0.02079
2110.05,0.02122
2104.26,0.02103
2098.47,0.02087
2092.69,0.02105
2086.9,0.02121
2081.12,0.02108
2075.33,0.02088
2069.54,0.02098
2063.76,0.02089
2057.97,0.02118
2052.19,0.02088
2046.4,0.02100
2040.61,0.02090
2034.83,0.02074
2029.04,0.02100
2023.25,0.02088
2017.47,0.02059
2011.68,0.02085
2005.9,0.02068
2000.11,0.02046
1994.32,0.02099
1988.54,0.02081
1982.75,0.02067
1976.96,0.02056
1971.18,0.02092
1965.39,0.02069
1959.61,0.02099
1953.82,0.02074
1948.03,0.02081
1942.25,0.02075
1936.46,0.02076
1930.67,0.02045
1924.89,0.02089
1919.1,0.02111
1913.32,0.02091
1907.53,0.02057
1901.74,0.02061
1895.96,0.02097
1890.17,0.02079
1884.38,0.02072
1878.6,0.02079
1872.81,0.02047
1867.03,0.02033
1861.24,0.02021
1855.45,0.02041
1849.67,0.02058
1843.88,0.02049
1838.09,0.02043
1832.31,0.02017
1826.52,0.02008
1820.74,0.02026
1814.95,0.01996
1809.16,0.01976
1803.38,0.02002
1797.59,0.01960
1791.8,0.01920
1786.02,0.01960
1780.23,0.01909
1774.45,0.01906
1768.66,0.01841
1762.87,0.01852
1757.09,0.01745
1751.3,0.01671
1745.51,0.01769
1739.73,0.01833
1733.94,0.01936
1728.16,0.02082
1722.37,0.02081
1716.58,0.02107
1710.8,0.02060
1705.01,0.02084
1699.22,0.02011
1693.44,0.01949
1687.65,0.01953
1681.87,0.01865
1676.08,0.01842
1670.29,0.01926
1664.51,0.01894
1658.72,0.01909
1652.93,0.01910
1647.15,0.01883
1641.36,0.01852
1635.58,0.01912
1629.79,0.01882
1624,0.01927
1618.22,0.01897
1612.43,0.01879
1606.64,0.01882
1600.86,0.01886
1595.07,0.01891
1589.29,0.01861
1583.5,0.01827
1577.71,0.01878
1571.93,0.01865
1566.14,0.01842
1560.35,0.01837
1554.57,0.01811
1548.78,0.01823
1543,0.01806
1537.21,0.01842
1531.42,0.01862
1525.64,0.01864
1519.85,0.01845
1514.07,0.01846
1508.28,0.01888
1502.49,0.01886
1496.71,0.01926
1490.92,0.01883
1485.13,0.01890
1479.35,0.01861
1473.56,0.01807
1467.78,0.01873
1461.99,0.01868
1456.2,0.01868
1450.42,0.01875
1444.63,0.01869
1438.84,0.01935
1433.06,0.01866
1427.27,0.01858
1421.49,0.01860
1415.7,0.01845
1409.91,0.01855
1404.13,0.01853
1398.34,0.01821
1392.55,0.01789
1386.77,0.01803
1380.98,0.01829
1375.2,0.01824
1369.41,0.01828
1363.62,0.01825
1357.84,0.01810
1352.05,0.01800
1346.26,0.01828
1340.48,0.01762
1334.69,0.01765
1328.91,0.01758
1323.12,0.01711
1317.33,0.01676
1311.55,0.01708
1305.76,0.01729
1299.97,0.01762
1294.19,0.01800
1288.4,0.01841
1282.62,0.01885
1276.83,0.01922
1271.04,0.01924
1265.26,0.01985
1259.47,0.01977
1253.68,0.02007
1247.9,0.02051
1242.11,0.02040
1236.33,0.01993
1230.54,0.01971
1224.75,0.01887
1218.97,0.01930
1213.18,0.01933
1207.39,0.01932
1201.61,0.01896
1195.82,0.01848
1190.04,0.01857
1184.25,0.01835
1178.46,0.01774
1172.68,0.01785
1166.89,0.01775
1161.1,0.01782
1155.32,0.01767
1149.53,0.01734
1143.75,0.01728
1137.96,0.01726
1132.17,0.01813
1126.39,0.01843
1120.6,0.01885
1114.81,0.01900
1109.03,0.01855
1103.24,0.01825
1097.46,0.01882
1091.67,0.01792
1085.88,0.01844
1080.1,0.01859
1074.31,0.01948
1068.52,0.01997
1062.74,0.01984
1056.95,0.02011
1051.17,0.01939
1045.38,0.01874
1039.59,0.01971
1033.81,0.01983
1028.02,0.01962
1022.24,0.01922
1016.45,0.01996
1010.66,0.01981
1004.88,0.02092
999.09,0.02144
993.304,0.02107
987.518,0.02069
981.731,0.02094
975.945,0.02003
970.159,0.02025
964.373,0.02034
958.586,0.02045
952.8,0.02036
947.014,0.01966
941.228,0.02007
935.441,0.01986
929.655,0.01968
923.869,0.01948
918.083,0.01956
912.297,0.01975
906.51,0.01922
900.724,0.01884
894.938,0.01908
889.152,0.01890
883.365,0.01907
877.579,0.01921
871.793,0.01997
866.007,0.01967
860.22,0.01891
854.434,0.01880
848.648,0.01917
842.862,0.01837
837.075,0.01904
831.289,0.01961
825.503,0.01910
819.717,0.02039
813.931,0.02037
808.144,0.01930
802.358,0.01931
796.572,0.01834
790.786,0.01868
784.999,0.01862
779.213,0.01889
773.427,0.01899
767.641,0.01824
761.854,0.01843
756.068,0.01767
750.282,0.01794
744.496,0.01806
738.709,0.01886
732.923,0.01878
727.137,0.01883
721.351,0.01821
715.565,0.01819
709.778,0.01878
703.992,0.01826
698.206,0.01742
692.42,0.01783
686.633,0.01747
680.847,0.01750
675.061,0.01725
669.275,0.01764
663.488,0.01687
657.702,0.01674
651.916,0.01652
646.13,0.01644
640.343,0.01749
634.557,0.01698
628.771,0.01571
622.985,0.01671
617.198,0.01682
611.412,0.01726
605.626,0.01640
599.84,0.01497