File: 01_Data/Fiber_Cement_Board/FTIR/IS/Deprecated/Fiber_Cement_Board_IS_S_220928_R7.dpt
7497.03,0.49766
7491.25,0.49826
7485.46,0.50254
7479.67,0.50128
7473.89,0.51191
7468.1,0.50227
7462.32,0.49986
7456.53,0.49970
7450.74,0.49562
7444.96,0.49896
7439.17,0.49762
7433.38,0.49635
7427.6,0.49555
7421.81,0.50263
7416.03,0.49757
7410.24,0.49709
7404.45,0.49478
7398.67,0.50075
7392.88,0.49378
7387.09,0.49245
7381.31,0.50769
7375.52,0.50343
7369.74,0.50676
7363.95,0.49288
7358.16,0.49812
7352.38,0.50947
7346.59,0.50050
7340.8,0.49819
7335.02,0.49414
7329.23,0.49526
7323.45,0.49594
7317.66,0.49269
7311.87,0.49526
7306.09,0.50132
7300.3,0.50236
7294.51,0.49419
7288.73,0.49700
7282.94,0.48790
7277.16,0.49526
7271.37,0.49507
7265.58,0.49806
7259.8,0.50130
7254.01,0.49851
7248.22,0.48994
7242.44,0.49624
7236.65,0.49780
7230.87,0.49703
7225.08,0.49689
7219.29,0.49148
7213.51,0.48944
7207.72,0.48809
7201.93,0.49367
7196.15,0.49182
7190.36,0.48907
7184.58,0.47067
7178.79,0.48793
7173,0.48914
7167.22,0.48156
7161.43,0.48248
7155.65,0.48852
7149.86,0.48563
7144.07,0.48603
7138.29,0.48450
7132.5,0.48242
7126.71,0.48228
7120.93,0.48216
7115.14,0.48449
7109.36,0.48766
7103.57,0.48199
7097.78,0.48109
7092,0.48536
7086.21,0.48000
7080.42,0.48065
7074.64,0.48597
7068.85,0.47932
7063.07,0.48577
7057.28,0.47830
7051.49,0.48893
7045.71,0.48526
7039.92,0.48026
7034.13,0.48763
7028.35,0.48053
7022.56,0.48383
7016.78,0.48146
7010.99,0.48134
7005.2,0.47848
6999.42,0.48124
6993.63,0.47777
6987.84,0.48261
6982.06,0.47527
6976.27,0.48131
6970.49,0.48119
6964.7,0.47988
6958.91,0.47962
6953.13,0.47782
6947.34,0.48366
6941.55,0.48560
6935.77,0.48525
6929.98,0.48148
6924.2,0.48594
6918.41,0.48435
6912.62,0.48264
6906.84,0.48241
6901.05,0.48298
6895.26,0.48568
6889.48,0.48781
6883.69,0.48778
6877.91,0.48846
6872.12,0.48776
6866.33,0.48686
6860.55,0.48597
6854.76,0.48733
6848.97,0.48514
6843.19,0.48561
6837.4,0.48436
6831.62,0.48658
6825.83,0.48431
6820.04,0.49041
6814.26,0.49057
6808.47,0.48818
6802.68,0.49286
6796.9,0.48657
6791.11,0.48404
6785.33,0.48687
6779.54,0.48654
6773.75,0.48581
6767.97,0.48927
6762.18,0.48759
6756.39,0.48884
6750.61,0.48968
6744.82,0.48856
6739.04,0.48768
6733.25,0.49093
6727.46,0.48443
6721.68,0.48919
6715.89,0.48604
6710.1,0.48710
6704.32,0.48368
6698.53,0.48633
6692.75,0.48875
6686.96,0.49044
6681.17,0.49260
6675.39,0.48483
6669.6,0.49556
6663.82,0.49418
6658.03,0.49166
6652.24,0.48927
6646.46,0.48729
6640.67,0.48898
6634.88,0.49507
6629.1,0.49496
6623.31,0.49613
6617.53,0.49170
6611.74,0.49558
6605.95,0.49611
6600.17,0.49547
6594.38,0.49249
6588.59,0.49552
6582.81,0.49600
6577.02,0.49147
6571.24,0.49770
6565.45,0.49746
6559.66,0.49518
6553.88,0.49574
6548.09,0.49647
6542.3,0.49828
6536.52,0.49610
6530.73,0.49769
6524.95,0.49957
6519.16,0.49761
6513.37,0.49966
6507.59,0.49572
6501.8,0.49711
6496.01,0.49868
6490.23,0.49449
6484.44,0.49812
6478.66,0.49931
6472.87,0.49670
6467.08,0.50003
6461.3,0.50182
6455.51,0.49824
6449.72,0.49725
6443.94,0.49954
6438.15,0.49916
6432.37,0.49692
6426.58,0.50233
6420.79,0.50189
6415.01,0.49849
6409.22,0.50127
6403.43,0.50183
6397.65,0.50260
6391.86,0.49878
6386.08,0.49981
6380.29,0.49952
6374.5,0.49909
6368.72,0.50285
6362.93,0.50202
6357.14,0.50308
6351.36,0.50232
6345.57,0.50241
6339.79,0.50486
6334,0.50130
6328.21,0.49957
6322.43,0.50156
6316.64,0.50115
6310.85,0.49940
6305.07,0.50225
6299.28,0.50081
6293.5,0.50138
6287.71,0.50446
6281.92,0.50420
6276.14,0.50280
6270.35,0.50322
6264.56,0.49962
6258.78,0.50565
6252.99,0.50085
6247.21,0.50451
6241.42,0.50518
6235.63,0.50551
6229.85,0.50440
6224.06,0.50569
6218.27,0.50705
6212.49,0.50792
6206.7,0.50310
6200.92,0.50494
6195.13,0.50642
6189.34,0.50369
6183.56,0.50560
6177.77,0.50406
6171.98,0.50617
6166.2,0.50416
6160.41,0.50712
6154.63,0.50527
6148.84,0.50592
6143.05,0.50530
6137.27,0.50684
6131.48,0.50708
6125.7,0.50808
6119.91,0.50822
6114.12,0.50887
6108.34,0.50603
6102.55,0.50610
6096.76,0.50683
6090.98,0.50936
6085.19,0.50802
6079.41,0.50795
6073.62,0.50768
6067.83,0.51158
6062.05,0.50864
6056.26,0.50729
6050.47,0.50793
6044.69,0.50792
6038.9,0.50701
6033.12,0.50958
6027.33,0.50629
6021.54,0.50612
6015.76,0.50679
6009.97,0.51032
6004.18,0.50467
5998.4,0.50259
5992.61,0.50378
5986.83,0.50427
5981.04,0.50527
5975.25,0.50214
5969.47,0.50370
5963.68,0.50186
5957.89,0.50085
5952.11,0.50372
5946.32,0.50405
5940.54,0.50052
5934.75,0.50136
5928.96,0.50271
5923.18,0.50274
5917.39,0.50430
5911.6,0.50487
5905.82,0.50472
5900.03,0.50216
5894.25,0.50329
5888.46,0.50383
5882.67,0.50449
5876.89,0.50467
5871.1,0.50375
5865.31,0.50609
5859.53,0.50845
5853.74,0.50591
5847.96,0.50633
5842.17,0.50625
5836.38,0.50544
5830.6,0.50489
5824.81,0.50473
5819.02,0.50593
5813.24,0.50532
5807.45,0.50430
5801.67,0.50579
5795.88,0.50520
5790.09,0.50831
5784.31,0.50703
5778.52,0.50297
5772.73,0.50387
5766.95,0.50714
5761.16,0.50667
5755.38,0.50562
5749.59,0.50834
5743.8,0.50574
5738.02,0.50591
5732.23,0.50522
5726.44,0.50642
5720.66,0.50423
5714.87,0.50491
5709.09,0.50547
5703.3,0.50517
5697.51,0.50582
5691.73,0.50498
5685.94,0.50523
5680.15,0.50538
5674.37,0.50590
5668.58,0.50657
5662.8,0.50574
5657.01,0.50808
5651.22,0.50829
5645.44,0.50898
5639.65,0.50621
5633.87,0.50922
5628.08,0.50861
5622.29,0.50767
5616.51,0.50733
5610.72,0.50798
5604.93,0.50872
5599.15,0.50919
5593.36,0.50909
5587.58,0.50865
5581.79,0.51012
5576,0.51051
5570.22,0.51019
5564.43,0.50711
5558.64,0.50860
5552.86,0.50906
5547.07,0.50819
5541.29,0.50838
5535.5,0.51120
5529.71,0.50832
5523.93,0.50816
5518.14,0.50822
5512.35,0.50832
5506.57,0.50752
5500.78,0.50814
5495,0.50887
5489.21,0.50861
5483.42,0.50981
5477.64,0.51087
5471.85,0.51029
5466.06,0.50977
5460.28,0.50972
5454.49,0.51086
5448.71,0.50891
5442.92,0.50941
5437.13,0.50866
5431.35,0.50878
5425.56,0.51082
5419.77,0.50905
5413.99,0.50962
5408.2,0.50951
5402.42,0.50920
5396.63,0.50914
5390.84,0.50789
5385.06,0.50771
5379.27,0.50818
5373.48,0.50860
5367.7,0.50764
5361.91,0.50648
5356.13,0.50731
5350.34,0.50641
5344.55,0.50526
5338.77,0.50412
5332.98,0.50090
5327.19,0.50075
5321.41,0.49830
5315.62,0.49665
5309.84,0.49471
5304.05,0.49255
5298.26,0.48809
5292.48,0.48488
5286.69,0.48136
5280.9,0.47714
5275.12,0.47256
5269.33,0.46591
5263.55,0.46163
5257.76,0.45784
5251.97,0.44986
5246.19,0.44607
5240.4,0.43902
5234.61,0.43285
5228.83,0.42721
5223.04,0.42284
5217.26,0.41999
5211.47,0.41734
5205.68,0.41637
5199.9,0.41335
5194.11,0.41383
5188.32,0.41406
5182.54,0.41536
5176.75,0.41600
5170.97,0.41890
5165.18,0.41877
5159.39,0.42271
5153.61,0.42329
5147.82,0.42532
5142.03,0.42882
5136.25,0.43097
5130.46,0.43344
5124.68,0.43546
5118.89,0.43619
5113.1,0.43615
5107.32,0.44001
5101.53,0.44126
5095.75,0.44256
5089.96,0.44379
5084.17,0.44618
5078.39,0.44729
5072.6,0.44806
5066.81,0.44975
5061.03,0.45118
5055.24,0.45260
5049.46,0.45528
5043.67,0.45446
5037.88,0.45547
5032.1,0.45682
5026.31,0.45692
5020.52,0.46001
5014.74,0.46026
5008.95,0.46081
5003.17,0.46201
4997.38,0.46466
4991.59,0.46536
4985.81,0.46661
4980.02,0.46786
4974.23,0.46841
4968.45,0.47000
4962.66,0.46952
4956.88,0.46924
4951.09,0.47154
4945.3,0.47153
4939.52,0.47221
4933.73,0.47138
4927.94,0.47204
4922.16,0.47153
4916.37,0.47163
4910.59,0.47326
4904.8,0.47172
4899.01,0.47071
4893.23,0.47130
4887.44,0.47019
4881.65,0.47037
4875.87,0.46825
4870.08,0.46966
4864.3,0.46811
4858.51,0.46782
4852.72,0.46707
4846.94,0.46688
4841.15,0.46692
4835.36,0.46479
4829.58,0.46519
4823.79,0.46457
4818.01,0.46377
4812.22,0.46199
4806.43,0.46271
4800.65,0.46217
4794.86,0.46213
4789.07,0.46065
4783.29,0.46073
4777.5,0.46007
4771.72,0.46018
4765.93,0.46016
4760.14,0.45975
4754.36,0.45844
4748.57,0.45939
4742.78,0.46010
4737,0.46010
4731.21,0.46108
4725.43,0.46109
4719.64,0.46068
4713.85,0.46060
4708.07,0.46118
4702.28,0.46184
4696.49,0.46262
4690.71,0.46205
4684.92,0.46173
4679.14,0.46076
4673.35,0.45833
4667.56,0.45722
4661.78,0.45820
4655.99,0.46013
4650.2,0.46126
4644.42,0.46115
4638.63,0.46039
4632.85,0.45887
4627.06,0.45781
4621.27,0.45780
4615.49,0.45645
4609.7,0.45590
4603.92,0.45610
4598.13,0.45734
4592.34,0.45882
4586.56,0.45802
4580.77,0.45754
4574.98,0.45450
4569.2,0.45338
4563.41,0.45416
4557.63,0.45509
4551.84,0.45405
4546.05,0.45395
4540.27,0.45294
4534.48,0.45221
4528.69,0.45099
4522.91,0.45070
4517.12,0.44981
4511.34,0.44777
4505.55,0.44778
4499.76,0.44703
4493.98,0.44595
4488.19,0.44516
4482.4,0.44445
4476.62,0.44389
4470.83,0.44297
4465.05,0.44170
4459.26,0.44143
4453.47,0.43870
4447.69,0.43823
4441.9,0.43528
4436.11,0.43265
4430.33,0.43164
4424.54,0.42881
4418.76,0.42646
4412.97,0.42390
4407.18,0.42175
4401.4,0.41955
4395.61,0.41896
4389.82,0.41827
4384.04,0.41885
4378.25,0.41759
4372.47,0.41582
4366.68,0.41415
4360.89,0.41401
4355.11,0.41346
4349.32,0.41123
4343.53,0.40819
4337.75,0.40563
4331.96,0.40381
4326.18,0.40201
4320.39,0.40263
4314.6,0.40743
4308.82,0.40873
4303.03,0.40832
4297.24,0.40841
4291.46,0.40837
4285.67,0.40614
4279.89,0.40382
4274.1,0.40150
4268.31,0.39984
4262.53,0.39747
4256.74,0.39674
4250.95,0.39677
4245.17,0.39653
4239.38,0.39704
4233.6,0.39598
4227.81,0.39576
4222.02,0.39487
4216.24,0.39362
4210.45,0.39189
4204.66,0.39135
4198.88,0.39132
4193.09,0.39040
4187.31,0.38993
4181.52,0.38884
4175.73,0.38823
4169.95,0.38675
4164.16,0.38742
4158.37,0.38662
4152.59,0.38470
4146.8,0.38363
4141.02,0.38169
4135.23,0.37979
4129.44,0.37716
4123.66,0.37508
4117.87,0.37276
4112.09,0.37083
4106.3,0.36790
4100.51,0.36526
4094.73,0.36197
4088.94,0.35817
4083.15,0.35460
4077.37,0.35114
4071.58,0.34676
4065.8,0.34279
4060.01,0.33834
4054.22,0.33617
4048.44,0.33442
4042.65,0.33231
4036.86,0.33124
4031.08,0.33244
4025.29,0.33376
4019.51,0.33510
4013.72,0.33644
4007.93,0.33583
4002.15,0.33568
3996.36,0.33645
3990.57,0.33755
3984.79,0.33767
3979,0.33697
3973.22,0.33700
3967.43,0.33720
3961.64,0.33751
3955.86,0.33766
3950.07,0.33776
3944.28,0.33831
3938.5,0.33825
3932.71,0.33870
3926.93,0.33924
3921.14,0.34006
3915.35,0.33983
3909.57,0.33942
3903.78,0.33976
3897.99,0.33945
3892.21,0.33957
3886.42,0.33952
3880.64,0.33980
3874.85,0.33939
3869.06,0.33966
3863.28,0.33893
3857.49,0.33902
3851.7,0.33884
3845.92,0.33852
3840.13,0.33732
3834.35,0.33603
3828.56,0.33468
3822.77,0.33328
3816.99,0.33188
3811.2,0.32992
3805.41,0.32763
3799.63,0.32684
3793.84,0.32484
3788.06,0.32262
3782.27,0.32045
3776.48,0.31779
3770.7,0.31475
3764.91,0.31095
3759.12,0.30791
3753.34,0.30448
3747.55,0.30020
3741.77,0.29529
3735.98,0.29035
3730.19,0.28382
3724.41,0.27644
3718.62,0.26804
3712.83,0.25936
3707.05,0.24814
3701.26,0.23456
3695.48,0.22090
3689.69,0.20588
3683.9,0.18499
3678.12,0.14738
3672.33,0.14420
3666.54,0.14714
3660.76,0.13885
3654.97,0.13419
3649.19,0.12917
3643.4,0.12391
3637.61,0.11964
3631.83,0.11501
3626.04,0.11071
3620.25,0.10746
3614.47,0.10365
3608.68,0.10096
3602.9,0.09943
3597.11,0.09761
3591.32,0.09605
3585.54,0.09396
3579.75,0.09244
3573.97,0.09158
3568.18,0.08954
3562.39,0.08784
3556.61,0.08694
3550.82,0.08570
3545.03,0.08467
3539.25,0.08381
3533.46,0.08330
3527.68,0.08192
3521.89,0.08139
3516.1,0.08132
3510.32,0.08072
3504.53,0.08018
3498.74,0.07897
3492.96,0.07824
3487.17,0.07723
3481.39,0.07715
3475.6,0.07630
3469.81,0.07597
3464.03,0.07587
3458.24,0.07521
3452.45,0.07395
3446.67,0.07395
3440.88,0.07402
3435.1,0.07369
3429.31,0.07280
3423.52,0.07349
3417.74,0.07311
3411.95,0.07254
3406.16,0.07155
3400.38,0.07210
3394.59,0.07225
3388.81,0.07247
3383.02,0.07136
3377.23,0.07233
3371.45,0.07205
3365.66,0.07241
3359.87,0.07287
3354.09,0.07241
3348.3,0.07310
3342.52,0.07331
3336.73,0.07319
3330.94,0.07274
3325.16,0.07305
3319.37,0.07440
3313.58,0.07359
3307.8,0.07414
3302.01,0.07483
3296.23,0.07515
3290.44,0.07530
3284.65,0.07504
3278.87,0.07572
3273.08,0.07600
3267.29,0.07648
3261.51,0.07642
3255.72,0.07772
3249.94,0.07865
3244.15,0.07903
3238.36,0.07901
3232.58,0.08013
3226.79,0.08000
3221,0.08063
3215.22,0.08151
3209.43,0.08192
3203.65,0.08298
3197.86,0.08405
3192.07,0.08418
3186.29,0.08531
3180.5,0.08566
3174.71,0.08649
3168.93,0.08667
3163.14,0.08759
3157.36,0.08882
3151.57,0.08957
3145.78,0.08951
3140,0.09116
3134.21,0.09174
3128.42,0.09307
3122.64,0.09367
3116.85,0.09422
3111.07,0.09431
3105.28,0.09427
3099.49,0.09528
3093.71,0.09546
3087.92,0.09369
3082.14,0.09394
3076.35,0.09587
3070.56,0.09611
3064.78,0.09375
3058.99,0.09318
3053.2,0.09672
3047.42,0.10034
3041.63,0.10051
3035.85,0.09661
3030.06,0.09038
3024.27,0.09154
3018.49,0.09986
3012.7,0.10570
3006.91,0.10554
3001.13,0.10440
2995.34,0.10425
2989.56,0.10285
2983.77,0.09860
2977.98,0.09266
2972.2,0.08582
2966.41,0.07919
2960.62,0.07629
2954.84,0.07583
2949.05,0.07683
2943.27,0.07618
2937.48,0.07302
2931.69,0.07069
2925.91,0.07059
2920.12,0.07285
2914.33,0.07684
2908.55,0.08013
2902.76,0.08333
2896.98,0.08635
2891.19,0.08928
2885.4,0.09070
2879.62,0.08990
2873.83,0.08834
2868.04,0.08967
2862.26,0.08889
2856.47,0.08866
2850.69,0.09364
2844.9,0.10342
2839.11,0.11313
2833.33,0.12133
2827.54,0.12643
2821.75,0.12995
2815.97,0.13339
2810.18,0.13670
2804.4,0.13910
2798.61,0.14145
2792.82,0.14388
2787.04,0.14559
2781.25,0.14761
2775.46,0.14843
2769.68,0.14983
2763.89,0.15138
2758.11,0.15258
2752.32,0.15348
2746.53,0.15413
2740.75,0.15459
2734.96,0.15556
2729.17,0.15677
2723.39,0.15801
2717.6,0.15977
2711.82,0.16192
2706.03,0.16378
2700.24,0.16536
2694.46,0.16709
2688.67,0.16870
2682.88,0.17042
2677.1,0.17169
2671.31,0.17331
2665.53,0.17448
2659.74,0.17576
2653.95,0.17707
2648.17,0.17823
2642.38,0.17995
2636.59,0.18096
2630.81,0.18159
2625.02,0.18248
2619.24,0.18325
2613.45,0.18345
2607.66,0.18318
2601.88,0.18351
2596.09,0.18416
2590.3,0.18464
2584.52,0.18506
2578.73,0.18552
2572.95,0.18556
2567.16,0.18616
2561.37,0.18591
2555.59,0.18590
2549.8,0.18487
2544.02,0.18395
2538.23,0.18282
2532.44,0.17960
2526.66,0.17739
2520.87,0.17556
2515.08,0.17518
2509.3,0.17599
2503.51,0.17958
2497.73,0.18436
2491.94,0.18981
2486.15,0.19528
2480.37,0.19876
2474.58,0.20194
2468.79,0.20387
2463.01,0.20546
2457.22,0.20636
2451.44,0.20723
2445.65,0.20848
2439.86,0.20922
2434.08,0.20970
2428.29,0.21087
2422.5,0.21091
2416.72,0.21152
2410.93,0.21189
2405.15,0.21167
2399.36,0.21146
2393.57,0.21156
2387.79,0.21125
2382,0.21087
2376.21,0.21155
2370.43,0.21122
2364.64,0.21034
2358.86,0.21047
2353.07,0.20992
2347.28,0.20909
2341.5,0.20861
2335.71,0.20780
2329.92,0.20826
2324.14,0.20850
2318.35,0.20781
2312.57,0.20674
2306.78,0.20649
2300.99,0.20670
2295.21,0.20586
2289.42,0.20570
2283.63,0.20475
2277.85,0.20420
2272.06,0.20312
2266.28,0.20198
2260.49,0.20071
2254.7,0.19975
2248.92,0.19893
2243.13,0.19851
2237.34,0.19794
2231.56,0.19730
2225.77,0.19729
2219.99,0.19774
2214.2,0.19827
2208.41,0.19859
2202.63,0.19882
2196.84,0.19874
2191.05,0.19881
2185.27,0.19802
2179.48,0.19701
2173.7,0.19622
2167.91,0.19533
2162.12,0.19399
2156.34,0.19275
2150.55,0.19230
2144.76,0.19084
2138.98,0.18995
2133.19,0.19012
2127.41,0.19086
2121.62,0.19158
2115.83,0.19271
2110.05,0.19328
2104.26,0.19387
2098.47,0.19390
2092.69,0.19406
2086.9,0.19433
2081.12,0.19454
2075.33,0.19444
2069.54,0.19383
2063.76,0.19297
2057.97,0.19207
2052.19,0.19077
2046.4,0.18882
2040.61,0.18623
2034.83,0.18273
2029.04,0.18100
2023.25,0.17996
2017.47,0.17890
2011.68,0.17593
2005.9,0.17329
2000.11,0.17147
1994.32,0.17076
1988.54,0.16996
1982.75,0.16919
1976.96,0.16874
1971.18,0.16771
1965.39,0.16676
1959.61,0.16548
1953.82,0.16392
1948.03,0.16208
1942.25,0.16174
1936.46,0.16362
1930.67,0.16617
1924.89,0.16759
1919.1,0.16691
1913.32,0.16394
1907.53,0.15964
1901.74,0.15578
1895.96,0.15192
1890.17,0.14787
1884.38,0.14477
1878.6,0.14242
1872.81,0.14074
1867.03,0.14105
1861.24,0.14423
1855.45,0.14941
1849.67,0.15446
1843.88,0.15695
1838.09,0.15673
1832.31,0.15494
1826.52,0.15050
1820.74,0.14599
1814.95,0.14138
1809.16,0.13537
1803.38,0.12819
1797.59,0.12186
1791.8,0.12271
1786.02,0.12726
1780.23,0.12908
1774.45,0.12978
1768.66,0.12930
1762.87,0.12716
1757.09,0.12263
1751.3,0.11456
1745.51,0.10063
1739.73,0.07936
1733.94,0.06535
1728.16,0.06685
1722.37,0.07702
1716.58,0.08880
1710.8,0.09325
1705.01,0.09188
1699.22,0.08889
1693.44,0.08504
1687.65,0.08179
1681.87,0.07914
1676.08,0.07638
1670.29,0.07373
1664.51,0.07187
1658.72,0.07052
1652.93,0.06969
1647.15,0.06850
1641.36,0.06721
1635.58,0.06579
1629.79,0.06468
1624,0.06334
1618.22,0.06215
1612.43,0.06156
1606.64,0.05936
1600.86,0.05847
1595.07,0.05986
1589.29,0.05967
1583.5,0.05906
1577.71,0.05987
1571.93,0.06030
1566.14,0.06127
1560.35,0.06218
1554.57,0.06386
1548.78,0.06532
1543,0.06691
1537.21,0.06848
1531.42,0.07022
1525.64,0.07144
1519.85,0.07146
1514.07,0.07071
1508.28,0.06982
1502.49,0.06619
1496.71,0.05978
1490.92,0.06050
1485.13,0.06344
1479.35,0.06155
1473.56,0.05919
1467.78,0.05565
1461.99,0.05398
1456.2,0.05208
1450.42,0.05350
1444.63,0.05578
1438.84,0.05735
1433.06,0.05761
1427.27,0.05808
1421.49,0.05807
1415.7,0.05888
1409.91,0.06022
1404.13,0.06158
1398.34,0.06308
1392.55,0.06496
1386.77,0.06593
1380.98,0.06530
1375.2,0.06619
1369.41,0.06666
1363.62,0.06751
1357.84,0.06863
1352.05,0.07025
1346.26,0.07142
1340.48,0.07185
1334.69,0.07218
1328.91,0.07265
1323.12,0.07248
1317.33,0.07214
1311.55,0.07372
1305.76,0.07643
1299.97,0.07852
1294.19,0.07865
1288.4,0.07764
1282.62,0.07608
1276.83,0.07667
1271.04,0.07689
1265.26,0.07661
1259.47,0.07728
1253.68,0.07851
1247.9,0.07924
1242.11,0.08027
1236.33,0.08095
1230.54,0.08270
1224.75,0.08326
1218.97,0.08171
1213.18,0.07932
1207.39,0.07630
1201.61,0.07414
1195.82,0.07331
1190.04,0.07294
1184.25,0.07202
1178.46,0.07072
1172.68,0.07090
1166.89,0.07074
1161.1,0.06974
1155.32,0.07186
1149.53,0.07554
1143.75,0.07806
1137.96,0.08023
1132.17,0.08044
1126.39,0.08089
1120.6,0.08175
1114.81,0.08271
1109.03,0.08443
1103.24,0.08538
1097.46,0.08812
1091.67,0.09033
1085.88,0.09175
1080.1,0.09386
1074.31,0.09424
1068.52,0.09368
1062.74,0.09137
1056.95,0.08990
1051.17,0.09168
1045.38,0.09766
1039.59,0.10252
1033.81,0.10689
1028.02,0.11124
1022.24,0.11366
1016.45,0.11341
1010.66,0.10625
1004.88,0.09783
999.09,0.09350
993.304,0.08909
987.518,0.08613
981.731,0.08349
975.945,0.07992
970.159,0.07682
964.373,0.07479
958.586,0.07300
952.8,0.07166
947.014,0.07137
941.228,0.07008
935.441,0.07009
929.655,0.07010
923.869,0.06908
918.083,0.06789
912.297,0.06557
906.51,0.06476
900.724,0.06489
894.938,0.06386
889.152,0.06407
883.365,0.06304
877.579,0.06031
871.793,0.06057
866.007,0.06149
860.22,0.06130
854.434,0.05963
848.648,0.05874
842.862,0.05816
837.075,0.05599
831.289,0.05492
825.503,0.05186
819.717,0.04997
813.931,0.04880
808.144,0.04874
802.358,0.04893
796.572,0.04747
790.786,0.04634
784.999,0.04629
779.213,0.04590
773.427,0.04597
767.641,0.04531
761.854,0.04589
756.068,0.04387
750.282,0.04336
744.496,0.04307
738.709,0.04288
732.923,0.04172
727.137,0.04284
721.351,0.04378
715.565,0.04362
709.778,0.04427
703.992,0.04941
698.206,0.05419
692.42,0.05110
686.633,0.05550
680.847,0.06218
675.061,0.07077
669.275,0.07750
663.488,0.06936
657.702,0.06417
651.916,0.06383
646.13,0.06175
640.343,0.05907
634.557,0.05687
628.771,0.05755
622.985,0.05576
617.198,0.05722
611.412,0.05889
605.626,0.06052
599.84,0.06054