File: 01_Data/EPDM_Membrane/Cone/EPDM_Membrane_HRRPUA_50.csv
Time after Ignition,EPDM_Membrane_R1,EPDM_Membrane_R2,EPDM_Membrane_R3,EPDM_Membrane_R4,Mean,Std. Dev.
0.0,17.4,9.8,10.2,13.9,12.8,3.6
0.75,27.7,20.5,14.9,21.7,21.2,5.3
1.5,36.5,31.1,25.1,28.6,30.3,4.8
2.25,50.8,44.3,41.0,40.7,44.2,4.7
3.0,61.0,61.7,58.4,55.6,59.2,2.8
3.75,76.1,76.0,77.5,73.0,75.6,1.9
4.5,89.2,96.0,100.3,103.3,97.2,6.1
5.25,100.2,113.5,123.3,132.6,117.4,13.9
6.0,113.8,134.5,143.9,170.4,140.6,23.5
6.75,134.2,159.5,161.2,210.5,166.3,31.9
7.5,154.2,183.0,180.2,252.2,192.4,41.9
8.25,178.6,202.4,196.1,284.4,215.4,47.1
9.0,195.1,216.3,206.8,313.7,233.0,54.5
9.75,213.7,236.5,221.5,341.4,253.2,59.5
10.5,232.6,251.3,237.7,359.8,270.3,60.1
11.25,250.5,279.3,257.9,396.1,296.0,67.9
12.0,281.2,293.7,268.5,423.3,316.7,71.8
12.75,299.4,317.5,292.2,440.2,337.4,69.4
13.5,318.8,332.7,306.7,471.6,357.4,76.9
14.25,340.3,356.2,309.7,494.5,375.2,81.8
15.0,349.2,378.2,327.2,497.9,388.1,76.1
15.75,371.8,389.5,344.1,517.0,405.6,76.6
16.5,387.6,401.2,353.7,532.4,418.7,78.4
17.25,403.4,413.3,363.1,541.3,430.3,77.1
18.0,411.8,426.2,368.1,547.6,438.5,76.9
18.75,415.9,434.3,393.0,560.7,451.0,75.1
19.5,427.2,440.0,403.1,549.0,454.8,64.6
20.25,452.4,449.2,402.1,577.1,470.2,74.9
21.0,456.4,456.2,407.2,550.8,467.6,60.1
21.75,463.1,459.3,416.9,572.6,478.0,66.5
22.5,471.7,469.5,426.8,560.1,482.0,56.0
23.25,478.5,464.9,429.1,578.6,487.8,64.0
24.0,478.8,478.4,436.6,569.4,490.8,56.0
24.75,492.5,488.0,455.7,572.3,502.1,49.5
25.5,483.2,493.0,456.2,563.9,499.1,45.9
26.25,503.1,495.0,475.9,557.1,507.8,34.8
27.0,498.1,498.5,473.3,569.7,509.9,41.6
27.75,504.8,493.2,462.0,554.5,503.6,38.4
28.5,499.5,501.8,478.1,579.2,514.6,44.3
29.25,505.2,503.0,477.6,569.7,513.9,39.2
30.0,502.9,514.8,485.1,555.6,514.6,30.0
30.75,500.1,500.5,482.8,556.0,509.9,31.9
31.5,499.5,496.5,487.2,544.6,506.9,25.7
32.25,490.3,507.2,492.4,547.6,509.4,26.6
33.0,487.0,511.2,482.1,556.8,509.3,34.1
33.75,487.4,491.3,480.4,534.0,498.3,24.2
34.5,495.8,484.6,487.3,531.4,499.8,21.6
35.25,499.9,490.0,495.1,533.2,504.6,19.5
36.0,492.8,488.1,491.4,520.0,498.1,14.7
36.75,478.9,484.8,487.0,515.7,491.6,16.4
37.5,485.1,475.1,479.5,514.8,488.6,17.9
38.25,476.6,476.6,490.5,511.8,488.8,16.6
39.0,477.6,470.9,476.0,517.0,485.4,21.3
39.75,478.7,472.1,485.9,513.8,487.6,18.3
40.5,482.0,471.8,483.1,501.1,484.5,12.2
41.25,481.4,468.6,472.6,502.2,481.2,15.0
42.0,483.5,458.3,484.1,497.5,480.9,16.3
42.75,474.2,473.6,478.3,487.9,478.5,6.6
43.5,468.1,467.6,473.0,490.6,474.8,10.8
44.25,465.5,454.5,472.4,489.8,470.5,14.8
45.0,465.6,463.5,469.9,479.0,469.5,6.9
45.75,470.2,455.5,465.8,472.6,466.0,7.6
46.5,467.5,452.2,469.1,475.4,466.1,9.8
47.25,473.5,461.8,470.0,482.9,472.0,8.8
48.0,452.3,448.0,472.8,479.1,463.0,15.2
48.75,457.4,440.4,464.1,474.0,459.0,14.1
49.5,445.5,445.7,461.8,456.7,452.4,8.2
50.25,442.3,450.7,463.1,467.4,455.9,11.5
51.0,445.8,448.7,453.9,466.7,453.8,9.3
51.75,445.8,436.3,458.6,466.0,451.7,13.2
52.5,448.7,436.0,450.5,457.9,448.3,9.1
53.25,445.3,432.9,445.6,445.1,442.2,6.2
54.0,445.2,431.5,451.9,451.8,445.1,9.6
54.75,446.5,434.1,452.2,433.0,441.4,9.4
55.5,435.9,427.4,443.9,433.9,435.3,6.8
56.25,440.2,425.4,437.9,427.4,432.7,7.4
57.0,425.5,425.0,456.7,439.7,436.7,14.9
57.75,428.0,423.9,441.6,428.2,430.4,7.7
58.5,429.0,409.4,433.4,420.4,423.0,10.6
59.25,423.1,412.2,437.1,419.4,423.0,10.5
60.0,428.1,421.9,433.5,425.5,427.3,4.9
60.75,422.2,417.8,428.5,410.7,419.8,7.5
61.5,437.7,408.7,436.0,424.5,426.7,13.4
62.25,421.6,408.7,428.0,404.3,415.7,11.0
63.0,410.3,410.8,427.5,422.3,417.7,8.6
63.75,421.1,410.2,431.5,417.2,420.0,8.9
64.5,419.3,406.2,423.7,419.4,417.2,7.6
65.25,413.2,404.3,433.9,412.5,416.0,12.6
66.0,414.2,396.7,431.3,408.3,412.6,14.4
66.75,418.3,412.6,423.1,414.6,417.1,4.6
67.5,415.3,399.4,420.7,419.0,413.6,9.7
68.25,417.8,399.8,422.6,412.8,413.3,9.8
69.0,414.1,388.4,417.2,410.2,407.5,13.0
69.75,415.2,401.0,414.5,410.5,410.3,6.6
70.5,413.5,392.1,422.1,403.1,407.7,13.0
71.25,404.9,391.5,408.5,403.4,402.1,7.4
72.0,402.2,385.9,415.5,394.8,399.6,12.5
72.75,404.2,389.1,411.4,397.9,400.7,9.5
73.5,401.1,395.7,397.7,398.2,398.2,2.2
74.25,404.6,395.0,407.1,399.5,401.5,5.4
75.0,398.0,392.4,406.0,398.7,398.8,5.6
75.75,399.4,389.5,407.8,400.8,399.4,7.5
76.5,397.0,392.1,402.2,386.8,394.5,6.6
77.25,396.6,394.1,412.4,388.9,398.0,10.1
78.0,399.6,388.1,407.6,388.7,396.0,9.4
78.75,398.5,385.2,409.1,396.5,397.3,9.8
79.5,403.7,387.0,407.3,386.7,396.2,10.9
80.25,395.9,383.3,405.3,390.5,393.7,9.3
81.0,404.2,378.2,403.5,384.9,392.7,13.2
81.75,396.0,383.9,407.8,380.7,392.1,12.4
82.5,401.8,385.7,400.3,383.6,392.8,9.5
83.25,389.1,377.4,399.5,388.9,388.7,9.0
84.0,398.0,389.3,396.6,379.7,390.9,8.4
84.75,398.6,379.5,393.2,388.0,389.9,8.1
85.5,399.8,380.5,409.1,386.0,393.9,13.0
86.25,395.2,381.9,397.9,381.0,389.0,8.8
87.0,395.4,390.3,401.1,386.4,393.3,6.4
87.75,401.4,382.6,399.0,388.8,393.0,8.8
88.5,396.9,379.0,399.2,383.5,389.7,9.9
89.25,401.0,379.7,398.8,381.7,390.3,11.2
90.0,409.3,374.9,400.0,386.8,392.8,15.0
90.75,400.8,379.3,401.1,388.4,392.4,10.6
91.5,400.0,370.0,401.5,377.8,387.3,15.8
92.25,400.0,382.5,400.7,372.5,388.9,13.8
93.0,398.7,381.9,398.6,386.0,391.3,8.7
93.75,388.9,374.0,401.7,386.3,387.7,11.4
94.5,403.3,378.3,411.4,379.6,393.1,16.7
95.25,394.0,390.2,400.2,384.6,392.3,6.6
96.0,405.0,387.2,395.9,380.7,392.2,10.6
96.75,403.2,384.0,397.5,385.2,392.5,9.4
97.5,409.2,378.5,402.9,383.9,393.6,14.7
98.25,406.1,380.0,402.6,384.4,393.3,13.0
99.0,407.5,396.6,405.5,382.1,397.9,11.6
99.75,409.1,394.0,400.2,387.3,397.6,9.3
100.5,401.7,393.1,403.9,384.3,395.8,9.0
101.25,406.7,400.2,409.9,383.3,400.0,11.9
102.0,401.0,395.5,414.3,387.0,399.4,11.5
102.75,402.6,400.6,395.8,388.8,396.9,6.1
103.5,407.4,401.6,405.3,396.6,402.7,4.8
104.25,412.4,407.2,399.1,395.3,403.5,7.7
105.0,411.1,403.8,403.1,395.2,403.3,6.5
105.75,404.3,409.4,406.1,394.6,403.6,6.4
106.5,412.8,401.7,399.7,389.4,400.9,9.6
107.25,408.1,410.2,424.0,396.7,409.8,11.2
108.0,412.0,398.5,404.5,403.6,404.7,5.6
108.75,407.5,401.5,409.9,405.1,406.0,3.6
109.5,406.9,396.7,398.4,404.2,401.5,4.8
110.25,417.2,400.3,416.3,404.4,409.6,8.5
111.0,411.6,406.2,411.9,411.7,410.4,2.8
111.75,413.1,406.3,405.1,407.4,408.0,3.6
112.5,420.4,405.3,412.4,406.7,411.2,6.9
113.25,409.5,407.1,411.1,410.0,409.4,1.7
114.0,413.5,409.8,422.2,413.4,414.7,5.3
114.75,408.7,410.9,404.7,415.9,410.1,4.6
115.5,405.0,409.5,412.7,414.9,410.5,4.3
116.25,408.3,411.8,412.0,425.5,414.4,7.6
117.0,419.3,411.1,418.3,428.2,419.2,7.0
117.75,416.1,412.8,420.5,420.9,417.6,3.9
118.5,408.9,415.0,421.7,436.5,420.5,11.9
119.25,414.0,424.7,409.9,444.5,423.3,15.4
120.0,403.7,408.7,423.4,455.5,422.8,23.3
120.75,409.1,406.1,422.6,462.3,425.0,25.9
121.5,418.2,419.3,416.8,459.3,428.4,20.6
122.25,405.4,414.1,423.3,463.4,426.5,25.6
123.0,411.3,413.1,428.9,468.5,430.4,26.6
123.75,398.9,414.5,431.0,466.4,427.7,28.9
124.5,406.6,427.2,435.4,489.8,439.7,35.5
125.25,406.7,412.6,439.4,484.6,435.8,35.5
126.0,403.0,422.0,436.7,502.2,441.0,43.1
126.75,414.7,427.7,423.7,507.9,443.5,43.3
127.5,405.0,429.0,443.0,519.5,449.1,49.5
128.25,415.9,438.8,442.5,533.6,457.7,51.9
129.0,415.5,443.3,445.3,529.5,458.4,49.3
129.75,421.2,440.0,448.9,526.0,459.0,46.1
130.5,433.1,436.9,454.5,557.8,470.6,58.9
131.25,447.9,462.8,452.2,573.1,484.0,59.7
132.0,446.5,454.9,457.8,579.5,484.7,63.4
132.75,457.3,466.1,465.1,595.3,496.0,66.4
133.5,471.6,479.4,468.6,592.5,503.0,59.8
134.25,462.6,481.1,481.4,601.4,506.6,63.8
135.0,483.7,494.4,487.9,617.2,520.8,64.4
135.75,472.9,498.0,495.2,636.1,525.5,74.6
136.5,487.2,493.7,483.7,652.9,529.4,82.5
137.25,491.0,505.1,492.6,640.0,532.2,72.2
138.0,506.7,507.7,495.5,681.1,547.8,89.1
138.75,507.0,515.8,502.1,695.8,555.2,93.9
139.5,497.5,531.9,504.3,695.3,557.2,93.3
140.25,540.8,542.6,507.6,699.2,572.5,85.9
141.0,531.0,556.8,512.6,707.9,577.1,89.1
141.75,526.5,550.4,516.6,723.8,579.4,97.3
142.5,548.8,556.4,521.1,732.1,589.6,96.2
143.25,541.5,568.4,525.8,749.1,596.2,103.4
144.0,531.4,566.6,523.2,739.0,590.0,101.1
144.75,535.2,583.7,534.0,772.2,606.3,113.0
145.5,542.0,580.5,531.3,734.6,597.1,94.0
146.25,551.3,556.8,545.7,750.9,601.2,99.9
147.0,545.4,562.5,531.3,751.8,597.8,103.5
147.75,554.5,556.9,519.9,736.0,591.8,97.6
148.5,565.1,555.8,523.9,740.5,596.3,97.7
149.25,544.2,552.7,521.1,739.2,589.3,100.8
150.0,537.7,536.5,524.3,742.1,585.2,104.8
150.75,528.1,542.9,520.3,721.8,578.3,96.1
151.5,543.0,545.8,513.1,730.2,583.0,99.2
152.25,525.4,544.3,500.4,725.0,573.8,102.4
153.0,521.4,515.4,490.3,703.7,557.7,98.3
153.75,512.1,512.5,491.7,704.8,555.3,100.2
154.5,511.5,502.6,479.3,702.7,549.0,103.3
155.25,498.1,491.6,481.9,696.8,542.1,103.4
156.0,491.7,492.8,477.6,699.7,540.5,106.4
156.75,481.8,487.1,482.6,681.8,533.3,99.0
157.5,479.1,486.2,461.9,676.8,526.0,101.0
158.25,478.4,476.4,463.5,670.0,522.1,98.8
159.0,461.0,473.0,464.5,673.9,518.1,104.0
159.75,454.9,464.3,459.4,665.7,511.1,103.1
160.5,458.3,453.2,459.3,659.2,507.5,101.2
161.25,439.1,450.9,443.0,656.4,497.4,106.2
162.0,435.2,455.0,438.9,640.2,492.3,99.0
162.75,434.9,426.9,433.7,637.4,483.2,102.9
163.5,431.7,430.5,438.6,664.4,491.3,115.5
164.25,426.7,433.3,422.3,641.7,481.0,107.2
165.0,426.4,416.6,416.1,638.2,474.3,109.3
165.75,422.4,414.4,418.4,660.9,479.0,121.3
166.5,414.9,411.7,414.3,630.3,467.8,108.3
167.25,416.3,411.5,416.9,635.8,470.1,110.5
168.0,416.4,407.3,405.9,629.8,464.8,110.1
168.75,402.7,400.1,404.0,621.8,457.1,109.8
169.5,403.7,400.3,397.0,618.8,455.0,109.3
170.25,395.2,387.3,391.7,615.6,447.5,112.1
171.0,392.9,385.4,383.5,613.5,443.8,113.2
171.75,388.8,369.9,367.0,613.1,434.7,119.3
172.5,393.4,375.6,371.3,600.4,435.2,110.6
173.25,393.2,370.6,372.2,599.9,434.0,111.1
174.0,388.1,352.8,369.2,600.4,427.7,116.1
174.75,381.0,355.5,366.3,599.7,425.6,116.5
175.5,388.8,362.0,363.8,591.6,426.6,110.7
176.25,377.8,350.8,363.0,607.8,424.9,122.5
177.0,375.5,349.8,353.3,607.0,421.4,124.3
177.75,379.1,346.7,356.0,600.9,420.7,120.9
178.5,375.8,351.8,350.8,586.6,416.2,114.1
179.25,376.7,346.8,345.0,591.5,415.0,118.5
180.0,380.2,340.1,349.2,590.6,415.0,118.3
180.75,378.8,348.4,340.8,587.1,413.8,116.7
181.5,379.0,342.7,344.6,596.5,415.7,121.7
182.25,369.3,346.1,345.0,594.8,413.8,121.2
183.0,378.7,341.9,346.1,577.9,411.1,112.4
183.75,373.6,344.8,342.9,590.7,413.0,119.3
184.5,370.6,342.3,339.9,591.1,411.0,120.9
185.25,375.2,339.6,335.6,590.6,410.2,121.5
186.0,381.1,337.3,333.5,580.6,408.1,117.0
186.75,372.7,341.8,334.1,584.9,408.4,118.9
187.5,374.5,340.9,335.9,552.2,400.9,102.3
188.25,374.8,343.8,335.0,569.3,405.7,110.4
189.0,373.5,346.6,335.6,562.7,404.6,106.6
189.75,374.0,345.4,331.8,549.4,400.2,101.0
190.5,369.4,342.9,330.4,549.3,398.0,102.2
191.25,372.3,347.1,335.3,548.4,400.8,99.6
192.0,369.6,339.8,333.5,549.5,398.1,102.2
192.75,381.3,348.9,332.4,527.3,397.5,88.9
193.5,372.2,349.3,338.0,539.8,399.8,94.4
194.25,374.1,351.8,328.1,538.6,398.1,95.5
195.0,373.0,345.9,334.6,535.8,397.3,93.7
195.75,367.8,343.3,334.6,530.2,394.0,91.9
196.5,372.3,354.6,327.7,517.3,393.0,84.9
197.25,371.0,351.3,331.5,525.3,394.8,88.5
198.0,372.9,350.8,326.0,533.4,395.8,93.7
198.75,377.1,361.5,328.1,513.9,395.1,81.8
199.5,374.2,355.4,332.8,517.1,394.9,83.2
200.25,369.9,358.4,330.5,510.2,392.2,80.4
201.0,372.1,354.4,331.9,505.4,390.9,78.0
201.75,378.5,360.3,326.5,503.9,392.3,77.5
202.5,384.8,357.2,327.5,516.0,396.4,83.1
203.25,376.0,362.5,326.7,503.1,392.1,76.9
204.0,376.5,352.0,327.6,505.8,390.5,79.4
204.75,380.2,360.0,327.0,506.9,393.5,78.7
205.5,379.8,360.5,327.3,500.7,392.1,75.6
206.25,379.6,363.1,325.5,498.7,391.7,74.8
207.0,384.5,362.4,330.4,507.5,396.2,77.5
207.75,377.7,365.5,320.4,497.5,390.3,75.6
208.5,375.8,361.0,318.8,504.3,390.0,80.0
209.25,376.4,365.2,325.7,489.1,389.1,70.1
210.0,380.3,364.5,320.6,508.5,393.5,80.7
210.75,386.0,362.3,318.0,490.3,389.1,73.1
211.5,376.4,362.5,320.4,495.4,388.7,75.0
212.25,376.8,351.7,318.3,498.8,386.4,78.7
213.0,384.9,356.8,323.0,501.3,391.5,77.4
213.75,380.3,356.9,317.3,475.3,382.4,67.2
214.5,377.8,363.9,321.7,486.7,387.5,70.3
215.25,372.4,361.3,318.2,479.1,382.8,68.4
216.0,374.7,356.0,317.9,480.8,382.4,69.8
216.75,372.6,353.3,320.7,472.2,379.7,65.3
217.5,372.4,355.3,322.0,484.4,383.5,70.4
218.25,377.0,354.1,313.2,477.8,380.5,70.0
219.0,374.5,357.3,314.2,467.3,378.3,64.5
219.75,370.2,346.2,314.8,463.6,373.7,64.1
220.5,371.4,351.0,315.4,474.9,378.2,68.5
221.25,360.2,360.0,310.4,464.6,373.8,64.9
222.0,360.1,349.4,321.1,461.4,373.0,61.2
222.75,361.1,345.0,314.4,452.8,368.3,59.6
223.5,365.4,348.8,309.5,455.6,369.8,61.8
224.25,360.1,358.5,310.0,459.7,372.1,62.9
225.0,357.0,354.6,307.8,455.5,368.7,62.1
225.75,350.6,349.7,310.2,459.7,367.6,64.2
226.5,355.8,353.9,307.6,456.5,368.5,62.8
227.25,359.0,349.2,304.3,451.4,366.0,61.7
228.0,351.1,347.7,298.7,449.1,361.6,63.1
228.75,348.2,351.4,305.2,447.7,363.1,60.2
229.5,350.2,349.1,305.6,441.9,361.7,57.3
230.25,352.7,346.9,307.2,441.2,362.0,56.6
231.0,347.7,339.5,302.3,429.2,354.7,53.5
231.75,343.6,342.9,301.4,426.4,353.6,52.4
232.5,341.5,342.9,300.1,416.2,350.2,48.3
233.25,347.8,338.7,303.9,432.2,355.7,54.4
234.0,348.1,338.3,305.3,420.9,353.2,48.7
234.75,340.9,337.6,297.8,414.6,347.7,48.7
235.5,339.8,339.2,301.3,416.9,349.3,48.5
236.25,338.2,341.9,299.7,410.9,347.7,46.3
237.0,340.6,340.4,303.1,417.3,350.3,48.0
237.75,337.5,337.8,303.0,409.2,346.9,44.6
238.5,331.5,335.1,299.2,405.9,342.9,45.0
239.25,334.1,333.0,301.7,418.3,346.8,50.0
240.0,331.7,331.3,297.1,408.7,342.2,47.2
240.75,329.3,337.9,295.5,408.5,342.8,47.5
241.5,332.8,331.0,303.4,407.9,343.8,44.8
242.25,324.5,335.7,301.5,401.2,340.7,42.7
243.0,327.7,330.0,297.7,393.5,337.2,40.3
243.75,321.9,328.2,296.1,395.1,335.3,42.2
244.5,323.6,334.7,291.0,398.3,336.9,44.9
245.25,323.7,330.3,293.0,397.7,336.2,44.1
246.0,316.6,332.0,291.3,393.5,333.3,43.5
246.75,321.4,327.4,295.4,384.9,332.3,37.7
247.5,317.9,331.6,290.7,385.2,331.4,39.7
248.25,326.5,325.4,288.0,395.1,333.7,44.6
249.0,316.8,327.3,293.5,390.9,332.1,41.7
249.75,322.4,328.3,291.2,386.4,332.1,39.7
250.5,316.7,327.9,286.9,385.9,329.4,41.5
251.25,316.9,330.1,285.7,383.6,329.1,40.9
252.0,316.7,329.5,286.3,390.2,330.7,43.6
252.75,309.8,326.5,284.7,383.0,326.0,41.7
253.5,316.5,328.9,289.2,384.5,329.8,40.1
254.25,311.7,326.7,284.0,389.3,327.9,44.5
255.0,307.6,326.3,286.0,395.6,328.9,47.4
255.75,307.3,323.2,283.9,390.5,326.2,45.8
256.5,308.0,320.1,284.8,391.3,326.0,45.9
257.25,301.3,319.1,285.6,396.9,325.7,49.4
258.0,304.7,327.4,289.8,393.7,328.9,45.9
258.75,305.2,323.5,284.5,400.6,328.4,50.7
259.5,307.9,321.6,285.9,388.6,326.0,44.3
260.25,301.8,318.2,279.8,400.8,325.1,52.8
261.0,299.8,322.0,285.2,397.0,326.0,49.7
261.75,303.3,321.6,281.7,401.6,327.1,52.3
262.5,297.2,319.6,281.3,401.3,324.9,53.3
263.25,305.0,319.6,282.4,404.7,327.9,53.4
264.0,296.3,316.7,279.8,406.9,324.9,56.7
264.75,298.3,318.4,279.4,402.2,324.6,54.1
265.5,295.9,315.8,280.4,408.7,325.2,57.5
266.25,298.4,316.0,282.6,399.2,324.1,51.9
267.0,293.6,316.1,285.9,402.6,324.5,53.6
267.75,302.2,317.0,282.2,408.5,327.4,55.9
268.5,298.5,310.1,276.9,398.0,320.9,53.2
269.25,293.6,315.3,278.8,392.9,320.1,50.8
270.0,292.2,314.8,276.3,397.6,320.2,53.9
270.75,299.9,319.6,279.8,402.8,325.5,54.0
271.5,296.1,318.8,278.6,391.0,321.1,49.4
272.25,295.7,313.4,276.1,389.1,318.6,49.4
273.0,300.7,313.6,280.0,395.3,322.4,50.5
273.75,293.3,318.6,277.0,392.4,320.3,51.0
274.5,293.4,313.8,276.9,391.5,318.9,50.7
275.25,299.3,318.1,276.1,388.2,320.4,48.3
276.0,291.9,316.7,270.7,389.7,317.2,51.8
276.75,294.3,315.5,274.6,396.1,320.1,53.3
277.5,298.4,314.3,268.8,382.1,315.9,48.0
278.25,296.3,312.8,271.5,380.9,315.4,46.9
279.0,297.4,317.7,272.7,377.2,316.2,44.6
279.75,294.5,314.3,272.7,369.3,312.7,41.4
280.5,292.8,313.1,272.0,374.2,313.0,44.1
281.25,291.0,314.3,272.6,369.1,311.7,41.9
282.0,295.1,320.4,269.5,369.8,313.7,42.8
282.75,296.7,318.5,272.0,370.7,314.5,42.0
283.5,299.2,314.4,266.4,361.1,310.3,39.4
284.25,291.1,312.6,264.8,360.0,307.1,40.3
285.0,294.6,315.3,268.1,361.1,309.8,39.3
285.75,293.7,315.0,267.4,354.5,307.6,36.8
286.5,292.3,320.1,265.1,353.1,307.7,37.7
287.25,290.3,314.7,266.5,346.9,304.6,34.4
288.0,299.3,314.7,265.1,345.4,306.1,33.4
288.75,298.7,316.4,263.7,344.6,305.8,33.9
289.5,292.1,313.8,264.1,342.8,303.2,33.3
290.25,293.5,314.3,265.7,345.8,304.8,33.8
291.0,294.3,314.3,262.8,342.4,303.5,33.5
291.75,297.4,316.3,264.6,333.7,303.0,29.6
292.5,298.7,308.6,262.2,334.5,301.0,29.9
293.25,297.3,314.0,262.9,334.7,302.2,30.4
294.0,295.0,313.5,262.9,333.9,301.3,30.1
294.75,300.2,312.4,263.3,329.7,301.4,28.2
295.5,297.0,311.8,265.3,326.4,300.1,26.2
296.25,294.5,314.8,263.2,327.9,300.1,28.2
297.0,300.6,310.8,264.5,323.7,299.9,25.4
297.75,297.3,311.0,261.3,318.8,297.1,25.5
298.5,293.1,314.1,256.0,324.0,296.8,30.1
299.25,299.0,309.0,261.2,319.1,297.1,25.3
300.0,297.6,311.6,263.2,315.3,296.9,23.7
300.75,297.9,311.3,260.3,309.5,294.8,23.7
301.5,296.0,310.7,257.6,314.7,294.8,26.0
302.25,298.9,317.2,257.0,311.5,296.1,27.2
303.0,299.0,308.3,257.2,311.6,294.0,25.1
303.75,297.1,309.6,257.4,309.2,293.3,24.6
304.5,297.9,307.9,257.3,307.7,292.7,24.0
305.25,293.9,304.8,257.4,304.5,290.1,22.4
306.0,304.1,305.8,258.2,304.0,293.0,23.2
306.75,294.7,308.7,256.0,301.9,290.3,23.6
307.5,295.1,304.7,255.9,300.8,289.1,22.5
308.25,293.7,307.7,256.5,298.4,289.1,22.5
309.0,300.7,306.3,258.6,297.7,290.8,21.8
309.75,296.5,302.1,252.4,296.4,286.8,23.1
310.5,300.5,300.9,251.2,297.7,287.6,24.3
311.25,296.0,301.0,255.0,292.9,286.2,21.1
312.0,295.9,300.4,249.4,289.6,283.8,23.4
312.75,299.8,307.2,251.8,289.7,287.1,24.6
313.5,307.0,303.9,252.3,288.1,287.8,25.1
314.25,304.8,300.0,254.9,286.3,286.5,22.5
315.0,296.1,308.1,251.7,283.5,284.8,24.3
315.75,298.1,305.2,250.1,286.2,284.9,24.5
316.5,305.9,305.5,252.4,277.0,285.2,25.7
317.25,300.7,300.6,250.1,284.0,283.8,23.8
318.0,296.0,302.1,252.7,279.4,282.5,22.1
318.75,299.5,305.6,250.0,277.4,283.1,25.2
319.5,298.8,300.9,251.9,275.2,281.7,23.1
320.25,296.0,301.1,247.3,268.2,278.1,25.1
321.0,303.5,301.2,248.4,268.1,280.3,26.7
321.75,302.5,302.4,252.0,266.0,280.7,25.8
322.5,295.7,302.1,242.2,263.8,275.9,28.1
323.25,290.1,305.2,246.2,258.9,275.1,27.3
324.0,295.6,297.3,244.6,255.5,273.3,27.1
324.75,297.0,301.7,246.0,258.9,275.9,27.7
325.5,298.3,294.7,246.2,257.2,274.1,26.3
326.25,298.6,294.4,241.1,257.5,272.9,28.1
327.0,293.0,296.5,244.8,255.2,272.4,26.2
327.75,293.6,294.0,240.6,257.0,271.3,26.8
328.5,299.1,295.1,239.2,252.3,271.4,30.1
329.25,294.7,293.2,238.6,253.2,269.9,28.4
330.0,297.1,294.5,239.7,247.6,269.7,30.3
330.75,293.0,292.2,238.8,248.4,268.1,28.6
331.5,291.4,290.5,237.9,248.0,267.0,28.0
332.25,291.5,290.3,232.8,243.2,264.5,30.8
333.0,291.1,292.3,235.5,242.3,265.3,30.6
333.75,290.2,293.4,233.3,242.9,265.0,31.3
334.5,292.7,288.3,232.6,241.4,263.8,31.1
335.25,291.0,290.1,237.1,240.3,264.6,30.0
336.0,289.6,290.6,231.7,237.0,262.2,32.3
336.75,286.0,286.8,233.1,243.6,262.4,28.1
337.5,280.2,288.7,231.4,239.8,260.0,28.6
338.25,285.1,281.8,231.8,237.4,259.0,28.3
339.0,283.7,286.1,228.6,239.3,259.4,29.8
339.75,284.4,285.6,229.7,235.5,258.8,30.4
340.5,284.1,284.3,231.0,233.9,258.3,29.9
341.25,283.8,280.4,224.0,234.1,255.6,30.9
342.0,279.8,280.5,224.5,232.3,254.3,30.0
342.75,281.7,282.6,225.0,231.4,255.2,31.3
343.5,282.9,277.5,229.8,232.0,255.5,28.6
344.25,283.0,278.2,223.9,230.3,253.9,31.1
345.0,279.6,276.4,224.5,229.2,252.4,29.7
345.75,280.7,278.6,223.7,226.9,252.5,31.4
346.5,280.0,280.7,221.4,222.5,251.1,33.7
347.25,284.5,274.9,221.3,223.5,251.0,33.3
348.0,276.0,274.1,223.7,224.2,249.5,29.5
348.75,279.6,277.8,220.3,220.6,249.6,33.6
349.5,278.6,268.4,218.0,225.5,247.6,30.3
350.25,275.6,272.1,219.2,222.6,247.4,30.6
351.0,275.0,268.5,213.8,221.9,244.8,31.4
351.75,276.7,269.5,215.6,222.5,246.1,31.5
352.5,272.5,270.4,212.2,219.2,243.6,32.3
353.25,275.6,269.2,216.0,216.5,244.3,32.5
354.0,270.2,266.3,211.5,219.4,241.8,30.7
354.75,274.1,266.6,212.3,217.4,242.6,32.3
355.5,271.8,268.6,210.9,215.1,241.6,33.1
356.25,267.8,266.0,211.6,211.8,239.3,31.9
357.0,268.3,264.1,213.4,213.1,239.7,30.6
357.75,268.8,265.5,210.8,210.6,238.9,32.6
358.5,266.6,264.9,210.1,206.3,237.0,33.3
359.25,265.4,267.0,209.7,209.3,237.8,32.8
360.0,265.7,263.8,209.1,209.6,237.0,32.0
360.75,261.4,260.7,206.5,204.2,233.2,32.2
361.5,262.6,256.5,207.3,203.7,232.5,31.4
362.25,261.1,260.1,208.3,202.7,233.1,31.9
363.0,258.7,258.3,206.5,200.8,231.1,31.8
363.75,259.5,257.4,209.7,200.6,231.8,31.0
364.5,256.7,255.0,205.5,197.4,228.6,31.6
365.25,257.7,257.1,205.5,197.7,229.5,32.4
366.0,256.5,255.5,198.1,196.5,226.6,33.9
366.75,259.0,253.1,199.1,195.1,226.6,34.2
367.5,251.5,253.4,202.5,199.2,226.7,29.8
368.25,253.0,251.0,202.3,195.3,225.4,30.9
369.0,250.2,250.9,200.4,197.1,224.7,29.9
369.75,251.4,252.5,200.9,197.1,225.5,30.7
370.5,249.2,250.3,200.5,195.4,223.8,30.0
371.25,249.3,249.8,197.5,194.9,222.9,30.8
372.0,248.6,252.1,196.3,193.5,222.6,32.1
372.75,248.1,246.5,195.2,193.8,220.9,30.5
373.5,249.3,244.7,196.4,193.7,221.0,30.1
374.25,246.5,244.5,196.4,196.5,221.0,28.3
375.0,242.9,243.1,195.3,190.5,217.9,29.0
375.75,247.7,242.4,195.2,190.4,218.9,30.3
376.5,243.9,244.9,194.8,188.2,218.0,30.7
377.25,245.6,242.7,191.6,187.7,216.9,31.5
378.0,245.6,239.6,191.7,186.1,215.8,31.2
378.75,243.7,240.6,191.5,185.6,215.4,31.1
379.5,244.5,241.7,192.5,187.1,216.4,30.9
380.25,239.9,236.9,191.8,183.6,213.0,29.5
381.0,238.1,236.0,190.3,187.3,213.0,27.9
381.75,235.4,237.4,190.7,185.3,212.2,28.0
382.5,234.7,234.6,186.2,185.4,210.2,28.2
383.25,233.3,233.5,187.7,181.2,208.9,28.4
384.0,233.2,234.0,186.7,180.7,208.7,28.9
384.75,232.7,233.5,188.5,180.9,208.9,28.1
385.5,232.7,235.0,186.4,180.4,208.6,29.2
386.25,228.6,231.7,187.4,178.5,206.6,27.5
387.0,235.6,231.0,183.5,176.7,206.7,30.9
387.75,232.1,229.8,184.4,179.2,206.4,28.5
388.5,230.3,228.4,183.8,180.9,205.9,27.2
389.25,229.6,225.4,184.9,176.8,204.2,27.2
390.0,223.8,226.7,186.0,176.4,203.2,25.7
390.75,224.5,225.9,182.8,174.2,201.9,27.2
391.5,219.7,225.0,183.0,175.4,200.8,25.2
392.25,221.3,219.7,183.0,176.1,200.0,23.8
393.0,222.5,225.5,180.7,174.4,200.8,27.0
393.75,221.0,220.7,185.7,172.3,199.9,24.8
394.5,223.1,219.9,184.4,171.8,199.8,25.6
395.25,219.7,222.5,181.6,169.6,198.4,26.8
396.0,222.1,220.4,181.8,170.8,198.8,26.3
396.75,216.5,218.1,180.2,169.2,196.0,25.0
397.5,218.5,215.4,180.9,165.3,195.0,26.1
398.25,215.0,217.6,182.1,166.2,195.2,25.2
399.0,211.4,219.2,181.1,166.1,194.4,25.1
399.75,211.7,215.3,179.0,165.6,192.9,24.5
400.5,212.6,211.9,180.1,163.6,192.1,24.3
401.25,210.6,214.5,180.5,164.1,192.4,24.2
402.0,212.1,210.5,175.3,162.0,190.0,25.3
402.75,212.8,213.1,177.5,161.8,191.3,25.8
403.5,210.8,207.3,175.9,161.2,188.8,24.2
404.25,208.4,208.3,178.2,160.9,188.9,23.5
405.0,208.0,212.0,179.2,161.6,190.2,24.0
405.75,207.1,209.7,176.3,160.1,188.3,24.2
406.5,208.9,208.9,176.5,156.2,187.6,26.0
407.25,205.7,205.3,173.7,157.2,185.5,24.1
408.0,205.3,204.1,175.3,156.2,185.2,23.8
408.75,203.8,207.7,176.8,158.6,186.7,23.2
409.5,200.1,207.5,175.5,156.9,185.0,23.2
410.25,199.7,204.7,174.0,159.1,184.4,21.5
411.0,198.6,207.5,174.1,156.7,184.2,23.2
411.75,203.1,203.3,173.9,154.8,183.8,23.7
412.5,197.6,204.3,173.9,153.7,182.4,23.2
413.25,195.4,202.9,172.0,155.4,181.4,21.8
414.0,194.3,200.4,171.0,153.8,179.8,21.5
414.75,197.4,200.7,171.3,152.6,180.5,22.7
415.5,196.8,202.1,171.2,154.2,181.1,22.4
416.25,194.8,199.6,170.6,153.2,179.5,21.6
417.0,193.0,201.8,170.1,151.9,179.2,22.6
417.75,194.6,196.4,170.2,153.0,178.6,20.8
418.5,190.7,198.6,171.2,149.7,177.5,21.8
419.25,193.5,197.2,171.0,149.2,177.7,22.3
420.0,194.7,196.8,170.8,149.1,177.9,22.5
420.75,193.7,195.4,169.4,148.9,176.8,22.1
421.5,189.4,195.8,168.8,147.8,175.5,21.7
422.25,190.7,192.5,167.4,146.9,174.4,21.6
423.0,189.3,196.0,169.7,148.3,175.8,21.5
423.75,186.3,195.5,168.8,146.9,174.3,21.4
424.5,185.6,191.7,169.5,147.4,173.6,19.8
425.25,185.1,188.0,166.2,146.8,171.5,19.1
426.0,185.1,193.0,169.9,145.2,173.3,21.1
426.75,184.8,190.7,166.1,143.5,171.3,21.3
427.5,182.3,189.0,167.5,143.9,170.7,20.0
428.25,180.5,186.4,165.8,144.4,169.2,18.7
429.0,181.8,187.6,163.1,142.8,168.8,20.2
429.75,180.5,185.9,165.5,144.6,169.1,18.5
430.5,178.0,185.6,164.1,140.8,167.2,19.7
431.25,178.2,183.6,162.6,139.4,165.9,19.8
432.0,178.5,184.2,165.4,137.9,166.5,20.6
432.75,179.5,183.3,167.0,140.4,167.6,19.4
433.5,176.9,183.3,163.9,139.4,165.9,19.4
434.25,172.3,180.8,164.2,138.8,164.0,18.1
435.0,171.2,181.5,163.1,137.4,163.3,18.8
435.75,173.2,182.2,163.1,136.2,163.6,19.9
436.5,173.6,181.9,161.3,137.2,163.5,19.5
437.25,172.8,180.1,160.4,136.8,162.5,18.9
438.0,173.5,181.5,161.8,136.0,163.2,19.8
438.75,172.0,178.8,161.5,134.7,161.8,19.4
439.5,173.1,177.6,160.6,135.0,161.6,19.1
440.25,171.3,178.5,161.1,132.7,160.9,20.1
441.0,168.5,178.6,160.2,133.3,160.2,19.4
441.75,169.6,178.1,160.1,134.6,160.6,18.8
442.5,171.0,175.4,162.2,134.8,160.9,18.2
443.25,168.2,175.7,160.4,131.5,158.9,19.3
444.0,166.7,174.4,159.5,132.4,158.3,18.3
444.75,164.3,172.5,160.9,132.5,157.5,17.4
445.5,165.0,172.4,162.0,131.0,157.6,18.3
446.25,164.6,175.0,163.4,132.9,159.0,18.1
447.0,162.7,174.0,161.1,130.6,157.1,18.6
447.75,160.7,171.7,159.7,128.2,155.1,18.7
448.5,160.9,170.8,160.5,129.9,155.5,17.7
449.25,159.3,167.7,160.9,128.7,154.1,17.3
450.0,160.1,167.8,161.5,127.0,154.1,18.4
450.75,156.9,169.2,159.3,127.8,153.3,17.8
451.5,158.3,167.4,158.2,125.4,152.3,18.5
452.25,159.1,166.9,159.6,126.6,153.1,18.0
453.0,156.5,167.1,158.0,125.3,151.7,18.2
453.75,158.1,167.8,158.3,126.3,152.6,18.1
454.5,154.4,166.3,158.7,126.4,151.5,17.4
455.25,155.0,164.0,156.7,124.4,150.0,17.5
456.0,154.0,165.3,156.8,124.0,150.0,18.0
456.75,153.9,161.1,159.9,123.4,149.6,17.7
457.5,155.4,163.5,157.9,123.8,150.1,17.9
458.25,152.6,163.6,158.1,122.2,149.1,18.5
459.0,152.4,161.5,158.1,121.7,148.4,18.2
459.75,152.0,161.8,157.9,121.4,148.3,18.4
460.5,151.6,160.3,155.8,120.6,147.1,18.0
461.25,150.9,161.7,158.0,119.8,147.6,19.1
462.0,148.9,160.9,157.4,119.6,146.7,18.8
462.75,150.3,159.5,157.1,120.3,146.8,18.1
463.5,149.9,157.9,156.0,117.1,145.2,19.1
464.25,151.7,158.5,155.5,118.3,146.0,18.7
465.0,149.1,157.3,153.5,117.9,144.5,18.0
465.75,147.1,157.3,154.4,118.4,144.3,17.8
466.5,147.1,156.0,155.6,118.8,144.4,17.6
467.25,147.7,153.9,155.0,115.5,143.0,18.6
468.0,147.2,154.4,154.3,116.7,143.2,17.9
468.75,145.0,157.6,155.7,116.0,143.6,19.2
469.5,144.2,154.2,154.3,115.2,141.9,18.4
470.25,142.8,153.0,156.3,115.1,141.8,18.7
471.0,145.3,155.5,156.2,113.7,142.7,19.9
471.75,143.2,150.2,153.4,113.5,140.0,18.2
472.5,140.6,153.5,154.5,113.8,140.6,18.9
473.25,144.5,151.5,153.4,114.8,141.0,17.9
474.0,143.1,151.4,153.8,112.0,140.1,19.3
474.75,139.8,152.4,155.2,110.8,139.6,20.3
475.5,142.9,149.5,153.2,111.4,139.3,19.1
476.25,138.5,148.9,155.1,110.8,138.3,19.6
477.0,139.2,146.6,153.8,108.8,137.1,19.8
477.75,138.1,148.0,152.1,109.7,136.9,19.1
478.5,138.0,146.7,153.9,109.4,137.0,19.5
479.25,138.7,147.4,152.4,107.4,136.5,20.2
480.0,135.9,146.3,152.4,107.4,135.5,19.9
480.75,138.3,144.8,153.5,106.4,135.8,20.5
481.5,135.7,145.0,152.3,106.8,134.9,19.9
482.25,134.4,145.2,152.6,106.7,134.7,20.1
483.0,135.2,142.5,150.9,106.4,133.8,19.3
483.75,134.2,143.3,151.6,106.3,133.8,19.7
484.5,134.3,142.3,150.5,106.1,133.3,19.3
485.25,137.4,141.1,150.1,107.2,133.9,18.6
486.0,132.6,139.9,149.6,105.0,131.8,19.2
486.75,132.6,140.1,149.4,104.2,131.6,19.5
487.5,134.6,139.5,150.2,103.5,131.9,20.0
488.25,132.0,137.2,149.8,102.9,130.5,19.9
489.0,130.1,137.7,148.5,102.6,129.7,19.6
489.75,131.5,138.3,149.3,99.0,129.5,21.6
490.5,131.5,138.5,148.3,100.1,129.6,20.8
491.25,128.8,137.4,144.5,99.9,127.6,19.6
492.0,129.6,137.1,146.7,99.1,128.1,20.6
492.75,129.1,135.5,146.3,99.9,127.7,19.8
493.5,128.3,133.3,149.0,99.1,127.4,20.8
494.25,129.0,135.8,148.5,98.3,127.9,21.3
495.0,126.1,132.8,148.0,96.2,125.8,21.8
495.75,127.4,134.2,147.6,96.7,126.5,21.6
496.5,127.1,134.3,147.2,94.9,125.9,22.2
497.25,127.8,131.7,146.1,94.7,125.1,21.7
498.0,126.5,130.5,147.0,95.2,124.8,21.6
498.75,126.2,130.2,146.7,94.3,124.4,21.9
499.5,124.3,129.7,146.6,93.4,123.5,22.2
500.25,123.5,130.9,147.1,92.5,123.5,22.9
501.0,122.7,130.2,146.1,93.0,123.0,22.2
501.75,124.8,130.1,147.7,93.1,123.9,22.8
502.5,123.2,128.9,145.9,91.9,122.5,22.5
503.25,121.6,128.4,144.9,90.4,121.3,22.8
504.0,123.6,127.9,146.4,90.8,122.2,23.2
504.75,122.5,129.9,146.0,89.4,121.9,23.8
505.5,123.5,126.8,147.9,89.0,121.8,24.4
506.25,121.6,126.0,147.2,89.3,121.0,23.9
507.0,121.7,125.4,144.7,89.2,120.2,23.0
507.75,121.2,128.9,144.4,88.0,120.6,23.8
508.5,120.0,125.2,142.7,87.8,118.9,22.9
509.25,120.4,125.2,144.7,88.7,119.8,23.2
510.0,119.4,126.1,143.1,89.0,119.4,22.6
510.75,118.3,125.2,142.9,88.8,118.8,22.5
511.5,119.0,123.6,143.5,88.2,118.6,22.9
512.25,116.2,124.6,142.0,87.6,117.6,22.7
513.0,115.6,123.8,141.8,84.4,116.4,24.0
513.75,116.9,124.1,144.1,86.5,117.9,23.9
514.5,116.4,121.7,140.0,86.9,116.2,22.0
515.25,116.8,120.3,142.4,85.4,116.2,23.5
516.0,114.4,120.7,141.2,84.8,115.3,23.3
516.75,113.7,122.2,142.8,82.7,115.4,24.9
517.5,114.1,120.2,143.2,83.0,115.1,24.8
518.25,113.6,121.4,141.3,81.8,114.5,24.7
519.0,112.0,119.5,142.3,81.4,113.8,25.1
519.75,112.3,118.7,141.2,81.8,113.5,24.5
520.5,111.5,117.2,139.2,82.3,112.6,23.5
521.25,110.2,118.6,139.5,81.8,112.5,23.9
522.0,111.6,117.3,141.1,82.2,113.0,24.2
522.75,109.1,117.1,141.3,81.4,112.2,24.7
523.5,111.1,116.4,139.9,81.6,112.3,24.0
524.25,108.3,116.1,139.2,82.5,111.5,23.4
525.0,108.2,115.1,139.0,80.4,110.7,24.1
525.75,108.4,116.2,139.4,80.4,111.1,24.3
526.5,108.5,115.8,137.7,80.8,110.7,23.5
527.25,108.9,113.3,137.6,80.5,110.1,23.4
528.0,107.1,115.1,138.3,80.8,110.3,23.7
528.75,109.5,112.9,136.0,81.3,109.9,22.4
529.5,106.7,112.6,137.7,79.6,109.2,23.8
530.25,107.3,113.6,136.9,79.3,109.3,23.7
531.0,107.8,112.2,135.1,79.6,108.7,22.8
531.75,107.6,111.2,135.3,79.6,108.4,22.8
532.5,107.6,111.4,136.5,79.8,108.8,23.2
533.25,106.2,110.7,134.7,77.0,107.1,23.7
534.0,105.7,108.7,136.4,77.8,107.2,24.0
534.75,104.3,109.4,135.0,76.6,106.3,23.9
535.5,105.6,110.1,136.1,76.6,107.1,24.4
536.25,104.7,110.1,134.5,74.9,106.0,24.5
537.0,105.0,108.7,134.1,77.0,106.2,23.4
537.75,105.4,110.2,134.1,76.0,106.4,23.9
538.5,104.1,107.5,132.7,75.5,104.9,23.4
539.25,105.1,107.6,134.7,76.0,105.8,24.0
540.0,104.8,105.5,133.3,75.6,104.8,23.5
540.75,104.6,106.3,134.1,74.5,104.9,24.3
541.5,104.8,105.2,132.3,75.2,104.4,23.3
542.25,102.6,105.2,131.8,74.7,103.6,23.3
543.0,104.7,104.8,133.8,75.3,104.7,23.9
543.75,101.7,103.9,132.0,73.7,102.8,23.8
544.5,101.0,103.5,133.7,75.3,103.4,23.9
545.25,101.3,104.8,132.8,73.8,103.2,24.1
546.0,101.0,103.6,132.6,72.0,102.3,24.8
546.75,101.6,103.8,131.5,71.8,102.2,24.4
547.5,101.9,101.2,129.4,72.9,101.4,23.1
548.25,101.9,101.0,130.7,73.6,101.8,23.3
549.0,100.9,102.5,129.7,73.3,101.6,23.0
549.75,100.3,103.0,130.9,72.7,101.7,23.8
550.5,100.9,100.7,130.5,72.7,101.2,23.6
551.25,101.5,100.8,129.5,71.6,100.8,23.6
552.0,99.0,98.7,129.9,72.1,99.9,23.6
552.75,100.3,100.2,131.0,71.0,100.6,24.5
553.5,98.8,99.4,128.9,71.8,99.7,23.3
554.25,99.1,98.0,130.3,72.6,100.0,23.6
555.0,98.4,98.2,129.1,72.5,99.6,23.1
555.75,98.1,98.5,128.4,71.4,99.1,23.3
556.5,100.0,97.8,130.1,71.9,99.9,23.8
557.25,96.7,97.7,126.7,72.7,98.4,22.1
558.0,95.6,96.9,129.2,72.2,98.5,23.4
558.75,95.3,95.2,129.4,72.4,98.1,23.5
559.5,97.2,97.0,126.7,71.6,98.1,22.5
560.25,95.6,96.1,126.5,72.3,97.6,22.2
561.0,94.8,95.6,127.9,73.4,97.9,22.5
561.75,92.7,97.3,125.2,72.1,96.8,21.9
562.5,93.0,95.4,127.4,70.3,96.5,23.5
563.25,94.5,95.3,127.3,71.4,97.2,23.0
564.0,92.8,94.3,127.2,71.9,96.6,22.9
564.75,93.1,95.9,128.0,71.6,97.1,23.3
565.5,94.3,94.8,125.5,71.4,96.5,22.2
566.25,93.4,94.3,126.6,70.9,96.3,22.9
567.0,93.4,94.5,126.5,69.7,96.0,23.3
567.75,93.2,93.3,126.1,70.0,95.6,23.1
568.5,93.0,93.7,123.8,70.1,95.2,22.0
569.25,90.6,93.2,124.0,69.4,94.3,22.5
570.0,91.6,94.5,124.8,70.0,95.2,22.5
570.75,90.4,94.5,124.9,69.7,94.9,22.8
571.5,91.2,93.9,123.3,70.6,94.8,21.7
572.25,89.3,93.8,122.6,69.2,93.7,22.0
573.0,89.8,92.8,122.9,69.1,93.7,22.2
573.75,89.6,93.2,122.7,69.0,93.6,22.1
574.5,88.7,92.9,121.4,70.2,93.3,21.2
575.25,87.9,92.9,121.6,68.9,92.8,21.8
576.0,87.7,91.4,122.3,70.3,92.9,21.6
576.75,87.4,90.8,121.0,69.3,92.1,21.4
577.5,87.1,91.1,120.5,69.6,92.1,21.1
578.25,86.3,90.9,119.5,69.2,91.5,20.9
579.0,86.2,91.5,119.4,69.7,91.7,20.7
579.75,86.3,90.5,119.0,69.2,91.3,20.7
580.5,86.0,90.9,119.2,69.7,91.5,20.6
581.25,86.6,89.3,119.5,69.8,91.3,20.7
582.0,86.4,90.5,119.1,69.8,91.4,20.5
582.75,85.4,90.1,120.2,68.8,91.1,21.4
583.5,84.6,88.9,117.8,68.5,89.9,20.5
584.25,85.7,88.2,116.2,68.7,89.7,19.7
585.0,85.9,88.5,117.5,68.4,90.1,20.3
585.75,83.7,87.3,117.8,67.7,89.1,20.9
586.5,84.7,87.0,116.8,68.4,89.2,20.2
587.25,84.4,87.9,117.9,67.1,89.3,21.1
588.0,85.1,86.2,117.0,67.5,88.9,20.6
588.75,85.2,85.8,116.0,67.4,88.6,20.2
589.5,84.3,87.4,115.2,68.2,88.8,19.5
590.25,85.3,85.2,116.3,67.8,88.7,20.2
591.0,85.3,85.2,116.5,68.5,88.9,20.0
591.75,84.1,85.6,116.6,68.3,88.6,20.2
592.5,83.4,86.2,115.5,67.9,88.3,19.8
593.25,84.2,84.9,115.0,69.2,88.3,19.2
594.0,83.1,85.2,116.1,68.5,88.2,20.0
594.75,83.1,84.7,114.8,68.8,87.9,19.3
595.5,82.6,83.7,114.7,68.1,87.3,19.6
596.25,82.5,84.4,113.6,68.8,87.3,18.8
597.0,83.4,86.3,114.0,69.5,88.3,18.6
597.75,81.7,85.1,113.0,68.3,87.0,18.7
598.5,81.9,83.4,112.6,68.3,86.5,18.6
599.25,80.5,84.5,112.9,67.4,86.3,19.2
600.0,82.0,83.7,112.9,67.0,86.4,19.2
600.75,81.3,84.0,112.5,67.0,86.2,19.1
601.5,80.0,83.0,112.5,66.8,85.6,19.3
602.25,79.5,83.5,109.9,65.4,84.6,18.6
603.0,80.9,82.2,112.2,65.9,85.3,19.4
603.75,79.2,83.7,110.6,65.5,84.7,18.9
604.5,79.7,82.7,108.1,65.0,83.9,17.9
605.25,78.8,82.3,110.4,65.6,84.3,18.8
606.0,79.1,82.8,109.2,65.7,84.2,18.2
606.75,77.8,81.7,108.6,64.0,83.0,18.7
607.5,79.8,82.2,109.4,64.5,84.0,18.7
608.25,78.2,80.7,109.5,64.0,83.1,19.1
609.0,78.3,80.7,109.1,62.8,82.7,19.3
609.75,77.2,80.4,107.9,62.8,82.1,18.8
610.5,78.6,80.3,109.3,,89.4,17.2
611.25,78.6,80.8,108.5,,89.3,16.7
612.0,77.6,79.2,108.0,,88.3,17.1
612.75,78.9,80.1,108.8,,89.3,16.9
613.5,77.5,79.1,107.4,,88.0,16.8
614.25,77.1,79.9,108.3,,88.4,17.3
615.0,77.3,78.9,107.5,,87.9,17.0
615.75,76.5,79.8,106.9,,87.7,16.7
616.5,76.5,79.8,106.4,,87.6,16.4
617.25,77.0,79.3,106.5,,87.6,16.4
618.0,77.2,78.5,105.9,,87.2,16.2
618.75,76.5,78.2,106.1,,86.9,16.7
619.5,76.3,77.4,106.3,,86.7,17.0
620.25,75.2,78.3,104.9,,86.1,16.3
621.0,75.5,77.2,105.6,,86.1,16.9
621.75,75.5,77.1,105.4,,86.0,16.8
622.5,75.6,76.3,104.7,,85.5,16.6
623.25,75.2,77.8,105.9,,86.3,17.1
624.0,74.2,77.1,104.1,,85.1,16.5
624.75,75.3,77.4,104.0,,85.6,16.0
625.5,74.9,76.0,103.3,,84.7,16.1
626.25,74.6,76.3,103.4,,84.8,16.2
627.0,74.2,75.7,104.9,,84.9,17.3
627.75,74.1,75.8,103.6,,84.5,16.6
628.5,74.6,75.7,103.7,,84.7,16.5
629.25,74.9,75.4,102.7,,84.3,15.9
630.0,72.9,74.7,103.8,,83.8,17.4
630.75,72.9,75.0,101.2,,83.0,15.8
631.5,72.1,75.1,103.3,,83.5,17.2
632.25,72.1,75.4,100.8,,82.8,15.7
633.0,71.2,74.8,100.8,,82.3,16.1
633.75,71.6,74.9,100.6,,82.3,15.9
634.5,70.5,74.9,99.6,,81.7,15.7
635.25,71.3,73.5,99.8,,81.6,15.9
636.0,70.5,74.4,100.8,,81.9,16.5
636.75,70.7,74.9,100.7,,82.1,16.2
637.5,69.6,73.5,99.6,,80.9,16.3
638.25,69.8,72.1,100.0,,80.6,16.8
639.0,70.5,72.9,99.4,,80.9,16.0
639.75,69.4,72.8,98.7,,80.3,16.0
640.5,69.7,72.2,98.5,,80.2,16.0
641.25,69.0,72.6,97.1,,79.5,15.3
642.0,69.8,72.3,97.4,,79.9,15.3
642.75,70.1,71.4,96.8,,79.4,15.1
643.5,69.1,71.9,96.8,,79.3,15.3
644.25,68.9,72.3,98.3,,79.8,16.1
645.0,70.1,73.3,97.9,,80.4,15.2
645.75,69.6,71.9,96.7,,79.4,15.0
646.5,69.4,72.0,99.6,,80.3,16.7
647.25,70.1,72.5,97.6,,80.1,15.2
648.0,69.0,74.0,97.6,,80.2,15.3
648.75,69.6,71.8,98.7,,80.0,16.2
649.5,69.4,70.6,97.9,,79.3,16.1
650.25,70.1,71.1,98.0,,79.8,15.8
651.0,70.0,70.9,97.4,,79.4,15.6
651.75,69.3,69.8,97.9,,79.0,16.4
652.5,68.5,70.3,97.4,,78.7,16.2
653.25,68.5,69.5,97.3,,78.4,16.3
654.0,69.2,69.6,95.7,,78.2,15.2
654.75,68.9,69.6,95.3,,77.9,15.0
655.5,66.6,69.8,96.2,,77.5,16.3
656.25,67.1,70.3,95.8,,77.7,15.7
657.0,66.9,69.3,95.2,,77.1,15.7
657.75,66.6,69.9,95.7,,77.4,15.9
658.5,66.9,68.9,94.8,,76.9,15.6
659.25,67.5,70.6,95.2,,77.8,15.2
660.0,67.9,69.3,94.8,,77.3,15.2
660.75,67.9,69.5,93.9,,77.1,14.6
661.5,66.7,69.6,93.7,,76.7,14.8
662.25,66.2,68.9,95.0,,76.7,15.9
663.0,66.0,69.6,94.3,,76.6,15.4
663.75,67.1,68.9,93.8,,76.6,14.9
664.5,67.0,69.5,93.8,,76.7,14.8
665.25,66.9,70.4,93.8,,77.0,14.6
666.0,66.7,69.8,93.8,,76.8,14.8
666.75,67.1,69.3,94.2,,76.8,15.0
667.5,67.4,68.5,92.4,,76.1,14.1
668.25,66.5,69.4,91.7,,75.9,13.8
669.0,67.0,68.7,92.8,,76.2,14.4
669.75,66.3,69.4,91.5,,75.7,13.8
670.5,65.9,68.8,92.3,,75.7,14.5
671.25,65.4,68.8,90.9,,75.0,13.9
672.0,65.5,67.7,91.2,,74.8,14.3
672.75,64.6,68.2,91.0,,74.6,14.3
673.5,64.7,67.9,90.3,,74.3,13.9
674.25,64.6,66.7,89.2,,73.5,13.6
675.0,65.2,67.3,90.3,,74.3,13.9
675.75,65.0,66.3,89.5,,73.6,13.8
676.5,65.7,67.1,89.3,,74.0,13.3
677.25,64.8,65.7,89.7,,73.4,14.1
678.0,65.7,65.9,90.3,,74.0,14.2
678.75,65.7,65.6,89.1,,73.5,13.5
679.5,64.3,64.7,88.6,,72.5,14.0
680.25,63.7,64.4,88.9,,72.3,14.3
681.0,65.1,64.8,88.9,,72.9,13.9
681.75,64.4,65.2,88.8,,72.8,13.9
682.5,64.2,64.1,88.1,,72.2,13.8
683.25,64.3,64.9,88.5,,72.5,13.8
684.0,63.9,64.0,88.6,,72.2,14.3
684.75,64.6,64.3,88.0,,72.3,13.6
685.5,64.0,65.3,87.9,,72.4,13.4
686.25,64.1,64.0,88.0,,72.1,13.8
687.0,64.7,64.8,87.9,,72.5,13.3
687.75,64.2,64.5,86.8,,71.8,12.9
688.5,64.2,64.8,87.2,,72.0,13.1
689.25,63.1,64.2,87.2,,71.5,13.6
690.0,64.3,63.5,86.8,,71.5,13.2
690.75,63.9,64.7,86.0,,71.5,12.5
691.5,62.4,65.2,85.8,,71.1,12.8
692.25,62.9,64.7,86.6,,71.4,13.2
693.0,63.6,64.6,87.2,,71.8,13.3
693.75,62.4,64.4,86.0,,70.9,13.1
694.5,61.9,64.2,86.4,,70.8,13.5
695.25,61.8,64.5,85.7,,70.7,13.1
696.0,60.9,63.6,86.9,,70.5,14.3
696.75,61.5,64.4,87.6,,71.2,14.3
697.5,61.5,63.1,87.0,,70.6,14.3
698.25,60.9,63.1,87.0,,70.4,14.5
699.0,60.7,63.2,86.7,,70.2,14.3
699.75,60.5,62.5,87.2,,70.1,14.9
700.5,59.8,63.6,85.0,,69.4,13.6
701.25,58.9,62.4,85.5,,69.0,14.5
702.0,59.6,62.5,84.9,,69.0,13.8
702.75,58.9,62.5,85.2,,68.8,14.3
703.5,59.7,62.5,85.0,,69.0,13.9
704.25,58.7,61.2,86.0,,68.6,15.1
705.0,57.9,61.5,85.7,,68.4,15.1
705.75,59.3,60.8,85.6,,68.6,14.7
706.5,57.8,61.3,83.8,,67.6,14.1
707.25,58.7,61.5,84.9,,68.4,14.4
708.0,57.9,61.8,84.4,,68.0,14.3
708.75,57.4,60.3,84.9,,67.5,15.1
709.5,57.4,60.0,83.4,,66.9,14.3
710.25,57.6,61.2,84.1,,67.6,14.3
711.0,57.6,61.7,83.6,,67.6,14.0
711.75,57.5,60.6,83.8,,67.3,14.3
712.5,57.4,61.5,84.0,,67.6,14.3
713.25,57.7,60.8,83.8,,67.4,14.2
714.0,57.7,60.3,83.7,,67.2,14.3
714.75,57.5,59.9,82.1,,66.5,13.6
715.5,56.5,59.2,83.5,,66.4,14.9
716.25,56.8,59.5,82.7,,66.3,14.2
717.0,57.3,60.4,82.6,,66.8,13.8
717.75,56.2,59.6,82.9,,66.3,14.6
718.5,57.1,58.6,81.7,,65.8,13.8
719.25,57.3,58.7,83.4,,66.4,14.7
720.0,55.8,58.8,82.9,,65.8,14.9
720.75,55.2,58.4,81.8,,65.1,14.5
721.5,54.8,58.6,81.9,,65.1,14.7
722.25,55.6,57.4,83.0,,65.3,15.3
723.0,55.6,57.9,81.3,,64.9,14.2
723.75,55.1,58.8,82.0,,65.3,14.6
724.5,54.4,58.1,82.1,,64.8,15.0
725.25,54.7,57.5,80.1,,64.1,13.9
726.0,54.2,58.0,80.3,,64.2,14.1
726.75,54.3,58.4,80.7,,64.5,14.2
727.5,54.5,58.3,79.8,,64.2,13.7
728.25,54.6,58.2,80.1,,64.3,13.8
729.0,54.2,58.3,78.7,,63.7,13.1
729.75,54.6,58.7,79.4,,64.2,13.3
730.5,54.7,57.8,79.4,,63.9,13.5
731.25,54.2,58.0,79.5,,63.9,13.6
732.0,54.4,58.1,79.1,,63.9,13.3
732.75,53.6,56.9,78.4,,63.0,13.5
733.5,53.6,57.8,79.5,,63.6,13.9
734.25,52.2,57.3,79.4,,62.9,14.4
735.0,52.5,56.9,78.6,,62.7,13.9
735.75,52.0,56.5,78.1,,62.2,13.9
736.5,51.3,56.8,77.9,,62.0,14.1
737.25,51.5,56.8,78.3,,62.2,14.2
738.0,51.0,56.6,78.4,,62.0,14.5
738.75,50.8,56.3,79.5,,62.2,15.3
739.5,50.3,55.7,78.3,,61.4,14.8
740.25,50.5,55.2,79.4,,61.7,15.5
741.0,50.4,55.6,78.8,,61.6,15.1
741.75,50.2,55.1,78.2,,61.2,14.9
742.5,50.7,56.7,78.0,,61.8,14.3
743.25,50.1,55.2,77.6,,61.0,14.6
744.0,50.3,56.0,76.8,,61.0,13.9
744.75,50.0,,76.2,,63.1,18.5
745.5,50.9,,77.2,,64.1,18.6
746.25,50.8,,77.7,,64.2,19.0
747.0,51.2,,76.5,,63.9,17.9
747.75,51.5,,76.0,,63.8,17.4
748.5,50.5,,75.9,,63.2,17.9
749.25,50.7,,75.2,,63.0,17.3
750.0,51.1,,75.6,,63.4,17.4
750.75,51.3,,75.5,,63.4,17.2
751.5,50.6,,74.2,,62.4,16.7
752.25,50.6,,74.8,,62.7,17.1
753.0,49.7,,74.3,,62.0,17.5
753.75,50.3,,74.2,,62.2,16.9
754.5,50.1,,73.1,,61.6,16.2
755.25,50.2,,73.7,,62.0,16.6
756.0,50.5,,72.9,,61.7,15.8
756.75,50.7,,74.1,,62.4,16.6
757.5,50.3,,73.7,,62.0,16.6
758.25,50.2,,73.0,,61.6,16.1
759.0,50.8,,73.7,,62.3,16.2
759.75,51.0,,73.1,,62.0,15.6
760.5,50.3,,73.1,,61.7,16.1
761.25,51.1,,72.4,,61.7,15.1
762.0,51.0,,73.1,,62.1,15.6
762.75,50.2,,72.5,,61.4,15.8
763.5,50.5,,71.5,,61.0,14.8
764.25,50.7,,71.6,,61.2,14.8
765.0,50.0,,71.0,,60.5,14.8
765.75,50.1,,71.8,,61.0,15.3
766.5,49.4,,71.1,,60.2,15.3
767.25,50.3,,71.6,,60.9,15.1
768.0,49.4,,70.9,,60.2,15.2
768.75,49.6,,69.8,,59.7,14.3
769.5,48.8,,70.3,,59.5,15.2
770.25,49.7,,70.6,,60.1,14.8
771.0,48.6,,70.5,,59.6,15.5
771.75,48.2,,70.5,,59.3,15.7
772.5,49.4,,70.5,,59.9,14.9
773.25,48.3,,69.4,,58.8,14.9
774.0,47.7,,69.3,,58.5,15.3
774.75,48.1,,70.4,,59.3,15.7
775.5,47.7,,69.9,,58.8,15.7
776.25,47.6,,69.0,,58.3,15.1
777.0,46.7,,68.0,,57.3,15.0
777.75,46.6,,69.3,,57.9,16.0
778.5,46.1,,69.0,,57.5,16.2
779.25,46.7,,68.8,,57.7,15.7
780.0,46.4,,69.5,,57.9,16.3
780.75,46.6,,69.4,,58.0,16.2
781.5,47.3,,69.9,,58.6,16.0
782.25,46.4,,69.6,,58.0,16.4
783.0,47.2,,69.6,,58.4,15.9
783.75,47.5,,68.9,,58.2,15.1
784.5,46.6,,68.2,,57.4,15.3
785.25,47.0,,69.8,,58.4,16.1
786.0,47.5,,68.1,,57.8,14.5
786.75,47.4,,69.6,,58.5,15.7
787.5,47.2,,68.5,,57.9,15.1
788.25,47.5,,69.6,,58.5,15.6
789.0,47.7,,69.6,,58.6,15.5
789.75,47.3,,68.2,,57.7,14.8
790.5,47.0,,68.8,,57.9,15.4
791.25,48.1,,67.9,,58.0,14.0
792.0,48.3,,67.7,,58.0,13.8
792.75,48.6,,67.7,,58.2,13.5
793.5,48.6,,66.0,,57.3,12.2