File: 01_Data/EPDM_Membrane/Cone/EPDM_Membrane_HRRPUA_25.csv
Time after Ignition,EPDM_Membrane_R1,EPDM_Membrane_R2,EPDM_Membrane_R3,EPDM_Membrane_R4,EPDM_Membrane_R5,Mean,Std. Dev.
0.0,8.0,8.5,14.8,6.0,15.0,10.5,4.2
0.5,9.6,10.8,15.8,8.3,19.9,12.9,4.9
1.0,14.1,13.9,19.1,12.0,24.0,16.6,4.9
1.5,17.0,16.6,21.8,16.7,33.7,21.2,7.3
2.0,25.1,18.8,26.0,20.7,41.1,26.4,8.8
2.5,31.7,21.9,30.3,29.7,54.0,33.5,12.1
3.0,46.0,24.7,34.1,42.3,64.5,42.3,14.9
3.5,56.7,28.4,42.0,55.4,80.9,52.7,19.5
4.0,78.5,32.3,48.2,72.2,92.2,64.7,24.1
4.5,94.6,35.3,59.8,89.7,99.9,75.8,27.5
5.0,113.1,41.0,67.8,105.2,117.5,88.9,33.2
5.5,133.9,44.6,83.3,118.0,125.8,101.1,37.0
6.0,148.7,56.7,93.3,135.0,138.9,114.5,38.6
6.5,169.6,66.5,107.1,151.5,153.8,129.7,42.3
7.0,187.6,79.0,117.6,161.1,169.5,143.0,44.0
7.5,201.3,95.3,124.7,171.7,176.0,153.8,42.8
8.0,214.9,112.6,134.0,185.2,191.6,167.7,42.7
8.5,234.5,130.3,142.0,193.1,209.7,181.9,44.5
9.0,248.0,146.5,151.8,201.5,219.0,193.3,43.7
9.5,267.5,166.2,154.9,211.4,226.4,205.3,45.9
10.0,278.8,183.7,164.2,222.6,234.1,216.7,44.9
10.5,290.3,200.0,172.3,229.8,244.9,227.5,44.8
11.0,309.6,223.5,175.4,237.9,257.2,240.7,49.0
11.5,321.4,236.4,185.0,243.2,262.9,249.8,49.3
12.0,331.9,258.3,194.0,252.1,271.3,261.5,49.3
12.5,349.3,275.4,203.1,263.0,276.1,273.4,52.0
13.0,364.0,290.2,210.3,269.0,279.5,282.6,55.0
13.5,371.1,304.3,217.6,276.9,286.4,291.3,55.2
14.0,378.9,315.3,227.9,273.5,283.7,295.9,56.0
14.5,396.6,327.5,236.0,283.5,295.4,307.8,59.5
15.0,404.4,335.2,236.6,287.9,300.7,312.9,62.2
15.5,407.5,343.6,244.8,292.0,297.8,317.1,61.5
16.0,417.2,351.6,252.9,293.6,309.3,324.9,62.6
16.5,430.5,359.2,257.4,302.2,307.4,331.4,66.1
17.0,425.0,370.3,262.4,303.0,308.5,333.8,63.9
17.5,431.1,373.2,269.2,304.9,321.8,340.0,63.2
18.0,457.7,381.0,275.5,304.8,321.7,348.1,72.4
18.5,450.3,390.1,279.5,309.4,320.3,349.9,69.2
19.0,452.9,394.5,290.3,309.2,328.3,355.1,67.3
19.5,465.5,396.2,285.2,318.7,320.2,357.1,72.9
20.0,464.4,403.0,295.9,324.0,338.9,365.2,67.9
20.5,468.8,406.7,299.8,316.8,328.6,364.1,71.4
21.0,467.2,409.3,301.7,324.3,327.4,366.0,69.8
21.5,497.0,419.0,302.6,321.3,332.0,374.4,81.8
22.0,481.8,421.6,311.0,324.3,331.9,374.1,74.3
22.5,501.5,424.5,306.3,329.7,336.8,379.8,81.5
23.0,500.6,424.1,314.9,327.6,338.5,381.2,79.4
23.5,517.4,437.0,320.2,327.2,348.2,390.0,85.2
24.0,501.4,437.8,319.5,330.0,352.6,388.3,78.5
24.5,527.9,439.0,318.8,335.3,349.6,394.1,88.1
25.0,515.2,439.2,325.8,343.2,352.9,395.3,80.1
25.5,531.5,431.6,328.1,352.9,358.3,400.5,82.8
26.0,533.6,441.8,340.5,344.6,366.3,405.4,82.5
26.5,556.5,446.6,340.6,361.9,359.1,413.0,90.1
27.0,539.1,442.4,343.2,346.0,363.1,406.8,84.3
27.5,538.3,442.2,335.9,354.2,362.6,406.7,84.1
28.0,558.4,447.3,346.0,355.9,363.0,414.1,90.2
28.5,552.0,452.7,346.4,353.5,368.1,414.6,87.9
29.0,542.5,444.6,350.8,354.3,377.9,414.0,81.1
29.5,552.6,446.5,352.8,358.6,371.0,416.3,85.0
30.0,536.9,448.3,347.1,358.7,371.4,412.5,80.0
30.5,560.9,453.9,351.2,362.2,374.0,420.4,88.3
31.0,544.2,443.0,355.5,361.5,373.3,415.5,80.0
31.5,558.8,451.2,361.3,364.9,382.0,423.6,83.8
32.0,551.6,442.2,358.6,359.1,375.6,417.4,82.5
32.5,555.8,447.9,358.6,365.8,377.2,421.1,83.3
33.0,565.0,456.6,362.4,370.3,371.2,425.1,87.2
33.5,549.4,456.0,361.7,369.0,377.9,422.8,80.3
34.0,548.9,448.2,373.6,363.3,371.7,421.1,79.2
34.5,549.3,453.7,370.0,356.2,383.7,422.6,80.2
35.0,541.8,459.4,365.3,364.5,378.4,421.9,77.7
35.5,534.0,461.5,366.5,367.6,384.9,422.9,73.4
36.0,553.0,451.2,363.9,374.2,387.1,425.9,78.8
36.5,533.9,451.6,370.5,374.2,383.0,422.6,70.5
37.0,545.6,450.0,370.0,371.9,377.2,423.0,76.3
37.5,532.7,445.7,376.3,373.4,379.9,421.6,69.0
38.0,534.7,445.7,373.1,373.4,387.5,422.9,69.3
38.5,538.3,458.9,366.8,377.7,384.1,425.2,72.9
39.0,513.9,449.4,376.9,380.5,378.5,419.8,60.9
39.5,525.2,436.7,377.6,367.6,388.8,419.2,64.9
40.0,533.5,439.8,377.8,377.5,380.0,421.7,67.9
40.5,536.5,440.3,378.9,381.1,380.7,423.5,68.3
41.0,527.3,446.3,378.0,382.7,385.3,423.9,64.2
41.5,523.3,446.4,381.1,372.5,387.3,422.1,63.6
42.0,531.8,439.7,373.5,378.0,388.2,422.2,66.7
42.5,530.1,444.4,384.0,369.0,380.0,421.5,67.4
43.0,528.9,432.1,374.9,380.8,377.7,418.9,65.9
43.5,527.8,440.8,374.8,377.0,372.7,418.6,67.4
44.0,522.9,441.6,379.5,370.2,375.7,418.0,65.4
44.5,526.9,428.6,381.6,387.0,374.6,419.8,63.5
45.0,532.1,433.0,375.2,379.9,373.2,418.7,68.1
45.5,514.2,430.7,386.3,381.3,374.1,417.3,58.5
46.0,531.1,437.0,379.3,380.8,369.1,419.4,67.9
46.5,535.0,432.2,374.9,378.7,367.9,417.7,70.4
47.0,527.3,428.8,378.5,377.1,368.9,416.1,66.5
47.5,518.2,430.8,383.2,380.5,370.2,416.6,61.4
48.0,518.9,434.7,384.1,374.5,369.5,416.4,62.9
48.5,509.0,438.3,388.3,377.6,366.8,416.0,58.7
49.0,517.3,427.2,386.1,365.1,372.0,413.5,62.8
49.5,527.9,428.5,386.8,372.5,369.8,417.1,66.3
50.0,523.1,430.3,385.2,364.0,381.9,416.9,64.2
50.5,513.7,419.3,384.6,358.7,367.0,408.7,63.2
51.0,527.0,423.8,372.0,374.2,369.7,413.3,67.4
51.5,515.2,432.2,387.2,372.6,370.4,415.5,61.0
52.0,513.4,423.6,379.7,381.2,366.9,413.0,60.1
52.5,510.7,416.8,389.5,370.7,367.7,411.1,59.0
53.0,519.6,427.8,378.0,374.8,370.6,414.2,63.4
53.5,505.4,416.0,381.7,375.7,367.3,409.2,56.9
54.0,508.8,417.5,390.3,376.1,369.5,412.4,56.9
54.5,509.6,430.2,380.9,364.3,355.5,408.1,63.7
55.0,509.5,427.0,379.9,367.1,366.6,410.0,60.9
55.5,508.9,424.0,381.3,371.3,363.8,409.8,60.1
56.0,505.6,420.4,383.9,371.5,360.4,408.4,58.9
56.5,512.4,416.8,378.0,365.9,361.3,406.9,62.9
57.0,520.3,422.6,386.1,370.8,353.7,410.7,66.3
57.5,517.6,409.5,381.6,363.3,358.1,406.0,65.5
58.0,520.5,411.5,383.4,371.0,350.7,407.4,67.0
58.5,515.5,408.7,385.4,351.1,357.4,403.6,66.7
59.0,512.2,418.7,380.9,363.7,351.4,405.4,64.9
59.5,507.7,402.2,380.5,368.4,365.8,404.9,59.2
60.0,511.7,406.9,378.3,368.5,358.4,404.8,62.5
60.5,506.2,408.9,383.6,361.2,355.7,403.1,61.3
61.0,506.0,413.6,377.4,367.4,361.5,405.2,59.9
61.5,519.8,409.2,373.7,365.1,359.6,405.5,66.8
62.0,489.0,402.4,381.3,361.3,361.6,399.1,53.0
62.5,499.1,408.2,372.5,356.7,359.2,399.1,59.5
63.0,504.7,405.0,378.3,361.0,365.9,403.0,59.4
63.5,508.9,407.8,373.6,370.8,365.8,405.4,60.2
64.0,513.6,405.6,375.0,360.7,349.3,400.8,66.4
64.5,505.2,409.5,374.1,359.1,363.2,402.2,60.9
65.0,508.9,404.0,369.3,359.2,358.0,399.9,63.7
65.5,501.3,400.0,379.6,369.4,357.3,401.5,57.9
66.0,502.0,409.5,372.7,362.7,362.3,401.8,59.3
66.5,504.4,402.6,368.4,360.1,354.6,398.0,62.3
67.0,504.8,399.7,367.8,360.5,353.1,397.2,62.7
67.5,501.4,397.8,373.0,358.3,346.2,395.3,62.3
68.0,509.4,398.5,369.2,356.8,347.1,396.2,66.2
68.5,498.2,401.4,369.0,354.9,344.6,393.6,62.3
69.0,521.3,390.8,369.4,359.8,345.5,397.4,71.2
69.5,514.1,404.1,367.7,356.6,354.1,399.3,67.2
70.0,525.6,390.4,366.9,353.6,354.1,398.1,72.8
70.5,524.1,400.8,368.5,354.1,357.1,400.9,71.3
71.0,505.8,406.8,367.3,356.4,352.4,397.7,64.2
71.5,519.8,402.9,365.1,357.1,354.1,399.8,69.9
72.0,513.8,399.6,371.1,356.9,347.1,397.7,67.8
72.5,528.5,397.0,360.1,352.6,342.6,396.2,76.8
73.0,528.6,399.6,361.6,350.2,344.5,396.9,76.7
73.5,525.8,399.6,364.3,349.1,342.5,396.3,75.7
74.0,536.9,391.7,364.9,352.4,350.0,399.2,78.8
74.5,543.0,401.1,368.2,347.6,345.4,401.1,82.4
75.0,532.9,393.5,362.8,348.3,346.6,396.8,78.4
75.5,520.6,391.7,371.3,344.5,346.0,394.8,73.0
76.0,536.2,398.3,368.8,344.1,353.1,400.1,78.8
76.5,526.1,399.1,357.7,352.9,336.7,394.5,77.1
77.0,542.9,397.2,369.3,345.5,342.5,399.5,83.2
77.5,543.5,401.5,367.9,345.4,339.5,399.6,84.1
78.0,530.8,399.8,358.3,349.3,338.2,395.3,79.3
78.5,551.3,398.0,365.6,344.6,343.8,400.7,87.0
79.0,536.2,395.0,362.7,348.4,339.3,396.3,81.0
79.5,543.8,385.5,369.9,343.2,337.4,396.0,85.0
80.0,535.9,394.7,370.3,333.3,339.2,394.7,82.7
80.5,541.3,386.9,364.3,346.5,339.4,395.7,83.4
81.0,539.8,392.8,363.8,345.6,337.6,395.9,83.2
81.5,546.7,396.4,366.1,331.7,332.7,394.7,89.1
82.0,535.1,401.1,368.2,348.8,340.4,398.7,79.7
82.5,558.1,396.0,362.7,344.2,337.5,399.7,91.4
83.0,558.9,400.1,371.6,337.7,337.5,401.2,92.0
83.5,570.0,403.6,362.6,343.3,333.2,402.5,97.4
84.0,542.3,398.5,359.9,337.0,336.9,394.9,86.2
84.5,546.4,399.2,375.1,340.1,341.9,400.5,85.2
85.0,565.9,394.9,362.5,335.3,338.2,399.4,96.1
85.5,572.2,401.3,366.8,339.7,330.6,402.1,99.0
86.0,564.9,398.2,364.2,331.1,337.9,399.3,96.3
86.5,584.2,392.0,363.7,343.9,336.6,404.1,103.0
87.0,560.0,401.3,364.7,332.9,335.3,398.9,94.2
87.5,586.1,397.7,369.9,333.1,335.4,404.4,105.0
88.0,575.7,394.6,363.5,342.2,331.5,401.5,100.3
88.5,598.6,412.7,362.9,343.4,329.9,409.5,110.3
89.0,611.1,399.4,362.0,342.9,330.7,409.2,115.8
89.5,604.8,402.6,358.2,335.0,325.0,405.1,115.5
90.0,613.5,403.1,363.0,332.7,332.1,408.9,118.0
90.5,607.8,409.5,365.4,344.3,330.3,411.5,113.8
91.0,616.4,402.8,360.7,336.8,333.7,410.1,118.6
91.5,596.6,406.3,364.9,335.1,327.0,406.0,111.0
92.0,618.4,398.6,370.7,336.4,319.7,408.8,121.1
92.5,644.2,392.7,368.3,340.9,316.5,412.5,132.7
93.0,652.8,396.3,370.4,335.7,320.7,415.2,136.1
93.5,649.0,403.7,363.5,335.1,324.0,415.1,134.3
94.0,663.7,397.5,365.4,338.2,317.2,416.4,141.5
94.5,665.4,409.8,363.4,333.8,325.4,419.6,141.3
95.0,663.5,398.6,368.5,336.7,323.0,418.1,140.3
95.5,684.5,396.6,367.8,336.4,323.5,421.8,149.6
96.0,702.0,402.1,363.8,332.3,326.3,425.3,157.6
96.5,693.5,413.9,370.1,334.4,326.2,427.6,152.6
97.0,706.7,402.6,374.1,330.9,324.3,427.7,159.2
97.5,701.1,409.6,374.0,340.3,323.1,429.6,155.3
98.0,721.1,404.6,374.5,336.7,323.6,432.1,164.7
98.5,720.4,405.5,367.8,338.2,329.1,432.2,163.8
99.0,734.4,400.0,374.8,340.3,324.8,434.9,170.0
99.5,718.6,407.7,371.8,328.4,319.5,429.2,165.6
100.0,700.4,404.2,372.1,338.1,321.5,427.3,156.0
100.5,752.8,410.8,373.4,340.5,327.3,440.9,177.3
101.0,728.5,405.3,376.1,337.5,326.6,434.8,167.1
101.5,732.2,415.0,371.3,329.6,321.0,433.8,171.0
102.0,730.4,412.3,372.1,330.5,323.6,433.8,169.6
102.5,759.1,421.6,374.0,339.8,313.0,441.5,182.1
103.0,775.5,412.9,377.4,335.6,318.1,443.9,189.0
103.5,727.9,423.1,373.4,339.1,323.7,437.4,166.8
104.0,778.3,427.7,369.8,337.8,319.1,446.5,190.0
104.5,791.0,424.3,370.9,335.2,318.7,448.0,195.9
105.0,774.1,425.9,368.7,328.8,321.1,443.7,189.3
105.5,777.9,423.4,372.0,334.7,322.6,446.1,189.6
106.0,803.0,425.8,371.7,332.7,322.4,451.1,200.8
106.5,797.4,428.7,374.1,336.3,302.7,447.9,200.9
107.0,815.0,436.3,366.8,331.2,317.2,453.3,207.4
107.5,825.2,427.8,373.3,321.4,313.8,452.3,213.4
108.0,822.2,431.4,379.4,329.9,307.1,454.0,211.3
108.5,825.5,437.9,377.8,331.2,316.3,457.7,211.0
109.0,848.1,442.3,380.7,346.7,314.7,466.5,218.5
109.5,879.2,444.1,379.5,340.4,319.3,472.5,232.3
110.0,827.5,441.0,376.6,347.6,320.9,462.7,208.7
110.5,847.0,442.3,382.6,347.3,310.8,466.0,218.4
111.0,857.9,441.3,378.0,348.8,315.1,468.2,222.7
111.5,870.7,452.6,378.8,353.8,318.6,474.9,226.7
112.0,867.6,439.1,374.0,346.8,319.2,469.3,227.0
112.5,858.8,443.8,381.5,341.4,323.9,469.9,222.2
113.0,916.1,455.6,374.1,350.8,325.0,484.3,246.3
113.5,903.1,452.1,381.0,349.5,322.9,481.7,240.5
114.0,912.5,455.2,385.6,351.8,329.7,487.0,242.6
114.5,911.9,456.6,386.9,351.3,326.6,486.7,242.7
115.0,884.2,459.1,378.6,343.1,338.1,480.6,230.8
115.5,885.7,454.9,382.0,352.2,330.8,481.1,231.0
116.0,884.9,467.4,389.0,345.4,328.7,483.1,230.9
116.5,886.2,468.6,388.3,348.5,333.0,484.9,230.4
117.0,894.0,480.6,382.4,358.1,332.1,489.4,233.0
117.5,906.1,481.6,395.4,350.2,337.7,494.2,237.1
118.0,904.7,495.0,383.5,343.0,328.2,490.9,240.3
118.5,915.6,493.1,390.5,348.3,335.6,496.6,242.3
119.0,915.9,479.1,382.8,355.2,332.5,493.1,242.9
119.5,876.4,487.2,384.0,353.2,332.1,486.6,225.9
120.0,917.3,493.8,391.8,358.3,335.3,499.3,241.4
120.5,939.6,498.5,390.2,348.7,326.8,500.8,254.1
121.0,902.1,490.5,404.2,354.1,332.0,496.6,234.7
121.5,925.6,505.4,392.8,349.5,332.9,501.2,246.6
122.0,906.8,508.6,399.3,355.5,330.2,500.1,237.4
122.5,903.4,507.3,395.2,354.5,328.3,497.8,236.9
123.0,915.4,518.2,400.8,357.5,330.6,504.5,240.6
123.5,911.2,525.6,401.3,349.6,333.5,504.2,239.6
124.0,902.5,512.8,396.7,359.9,329.4,500.3,235.3
124.5,902.6,534.4,413.3,357.4,325.2,506.6,235.3
125.0,919.0,536.2,398.5,351.8,331.8,507.5,243.5
125.5,907.4,541.8,390.6,352.3,321.5,502.7,241.5
126.0,896.9,537.8,396.8,349.5,324.1,501.0,236.2
126.5,907.5,574.3,393.7,343.8,328.2,509.5,243.1
127.0,904.8,547.6,402.3,355.1,323.2,506.6,238.6
127.5,893.5,553.5,395.2,362.9,328.8,506.8,232.7
128.0,898.9,559.2,393.8,355.4,322.2,505.9,237.9
128.5,854.2,586.2,392.2,346.5,330.7,502.0,221.8
129.0,878.3,573.6,398.5,359.9,321.3,506.4,229.2
129.5,856.3,581.5,387.5,358.9,321.1,501.1,222.6
130.0,836.8,582.3,391.2,358.5,325.7,498.9,213.6
130.5,853.6,593.1,394.2,354.6,323.1,503.7,222.1
131.0,845.8,579.6,390.6,357.1,332.7,501.2,215.8
131.5,841.8,591.2,386.1,356.4,324.8,500.1,217.7
132.0,843.2,610.4,383.8,354.3,322.4,502.8,221.5
132.5,819.5,602.7,385.1,359.6,329.0,499.2,209.1
133.0,827.0,603.1,385.3,366.9,329.4,502.3,210.7
133.5,804.5,607.1,377.4,354.5,321.2,492.9,207.4
134.0,784.5,605.3,386.0,350.0,323.9,489.9,198.8
134.5,822.1,613.7,385.4,351.2,327.7,500.0,213.1
135.0,822.3,617.7,375.6,361.5,325.2,500.5,213.9
135.5,779.9,616.1,381.5,350.7,328.6,491.3,198.2
136.0,792.9,604.1,373.9,358.4,330.8,492.0,200.6
136.5,790.4,600.0,365.8,354.2,327.6,487.6,201.6
137.0,769.1,618.4,373.6,343.6,328.5,486.7,197.1
137.5,770.7,605.9,370.3,353.3,327.8,485.6,194.6
138.0,760.0,611.4,371.6,348.9,324.6,483.3,192.8
138.5,758.7,612.4,365.3,346.7,328.5,482.3,193.0
139.0,749.2,608.5,369.2,346.7,331.0,480.9,187.9
139.5,757.1,601.3,369.4,346.4,322.9,479.4,191.2
140.0,752.3,609.1,368.2,344.0,322.2,479.2,191.5
140.5,756.8,589.4,361.2,338.6,324.7,474.1,191.4
141.0,749.6,610.3,361.5,341.6,328.7,478.3,190.9
141.5,736.4,604.6,358.9,339.5,332.2,474.3,185.3
142.0,714.0,627.4,360.4,345.5,321.9,473.8,182.8
142.5,722.6,606.3,351.2,340.3,321.7,468.4,183.9
143.0,717.2,610.4,354.8,339.4,318.7,468.1,183.1
143.5,722.4,598.7,349.3,335.2,321.8,465.5,183.6
144.0,699.5,602.2,357.4,335.4,328.1,464.5,173.9
144.5,698.3,608.4,351.0,331.5,324.4,462.7,177.1
145.0,688.9,597.8,343.9,334.2,323.3,457.6,172.7
145.5,702.3,607.6,344.4,337.2,321.1,462.5,179.1
146.0,710.6,616.8,342.7,327.2,328.7,465.2,184.3
146.5,711.0,589.8,351.7,327.2,322.1,460.4,179.0
147.0,691.9,593.7,345.0,325.3,320.7,455.3,174.9
147.5,680.5,593.2,344.0,322.7,321.7,452.4,171.4
148.0,678.8,586.2,338.2,318.7,322.6,448.9,170.9
148.5,709.2,598.2,339.0,320.1,312.2,455.7,185.2
149.0,691.9,579.5,338.4,316.4,320.8,449.4,174.8
149.5,686.2,590.8,337.0,323.1,320.3,451.5,174.1
150.0,681.3,580.7,334.0,318.5,328.7,448.6,170.3
150.5,703.3,590.0,340.1,311.6,320.8,453.2,181.4
151.0,673.0,579.3,336.6,308.0,320.5,443.5,170.3
151.5,682.2,579.8,327.3,309.6,318.2,443.4,175.1
152.0,670.2,556.4,333.3,310.8,319.7,438.1,165.1
152.5,685.4,564.4,326.3,304.3,318.1,439.7,174.6
153.0,666.9,558.9,327.3,306.0,321.7,436.1,166.0
153.5,652.9,569.2,328.1,304.1,321.4,435.1,163.5
154.0,678.9,565.3,330.3,299.2,323.1,439.4,172.0
154.5,653.9,547.2,328.2,297.0,321.7,429.6,161.0
155.0,641.3,556.3,322.2,299.4,319.0,427.6,159.4
155.5,655.0,553.6,319.7,296.5,324.2,429.8,163.6
156.0,637.6,550.6,316.8,297.2,321.9,424.8,157.8
156.5,650.4,548.3,313.3,297.0,321.7,426.1,162.5
157.0,626.3,556.2,318.8,292.9,314.1,421.7,157.1
157.5,615.7,536.4,310.7,294.2,315.5,414.5,150.3
158.0,632.2,541.1,311.8,291.2,315.2,418.3,157.3
158.5,626.4,541.1,309.9,286.8,310.9,415.0,157.3
159.0,602.7,550.8,317.3,281.3,315.9,413.6,150.8
159.5,602.8,535.6,306.8,286.6,311.5,408.6,148.8
160.0,618.5,553.5,308.3,287.8,303.6,414.3,158.6
160.5,596.0,523.2,306.4,289.0,305.0,403.9,144.6
161.0,594.9,535.7,308.7,289.8,313.2,408.5,145.0
161.5,605.8,519.0,305.5,286.8,311.5,405.7,146.6
162.0,582.1,534.0,299.6,283.7,309.9,401.9,143.9
162.5,586.3,531.1,302.3,281.1,311.4,402.4,144.4
163.0,587.5,550.9,298.8,284.0,311.4,406.5,149.4
163.5,589.3,531.9,304.2,278.0,305.7,401.8,146.8
164.0,573.1,536.2,300.0,281.2,303.6,398.8,143.1
164.5,581.3,521.7,298.1,278.5,299.9,395.9,143.8
165.0,561.0,515.2,293.1,277.0,303.2,389.9,136.6
165.5,574.3,529.4,294.8,280.2,299.5,395.6,143.6
166.0,573.3,519.7,293.2,271.1,299.9,391.4,143.2
166.5,573.7,519.2,290.0,275.5,297.7,391.2,143.2
167.0,560.5,512.9,291.1,269.2,294.8,385.7,139.2
167.5,566.7,518.2,287.1,277.8,293.4,388.6,141.5
168.0,574.8,503.2,286.1,272.3,294.2,386.1,142.1
168.5,568.8,516.8,289.9,269.9,291.8,387.4,143.2
169.0,566.3,503.9,292.3,273.2,289.0,384.9,139.0
169.5,567.7,503.6,284.6,267.8,289.9,382.7,141.7
170.0,562.3,509.7,285.5,271.9,292.1,384.3,139.9
170.5,559.1,509.1,284.0,269.6,291.9,382.8,139.5
171.0,567.2,497.3,286.8,266.7,283.7,380.3,141.1
171.5,567.6,496.0,281.0,265.7,286.6,379.4,141.6
172.0,555.1,496.8,285.2,263.0,283.8,376.8,138.0
172.5,571.3,511.9,281.9,261.0,282.9,381.8,147.6
173.0,563.2,495.6,279.1,260.9,279.5,375.6,142.6
173.5,559.9,487.2,280.6,259.4,277.7,373.0,140.1
174.0,546.5,488.4,280.0,257.6,279.6,370.4,136.1
174.5,559.4,486.3,280.5,258.1,277.4,372.3,140.1
175.0,538.1,481.6,274.8,258.3,279.5,366.5,132.6
175.5,546.3,486.0,277.1,252.0,277.0,367.7,137.6
176.0,540.8,491.1,277.0,254.9,282.8,369.3,135.4
176.5,551.5,478.4,271.2,257.7,276.3,367.0,137.6
177.0,540.1,487.9,272.0,253.2,272.8,365.2,137.3
177.5,541.2,488.3,267.1,252.9,267.3,363.4,139.6
178.0,538.9,486.1,267.6,251.6,269.9,362.8,138.1
178.5,528.1,496.6,264.5,249.5,268.0,361.4,138.5
179.0,526.3,492.2,266.4,256.1,268.7,361.9,135.1
179.5,525.2,479.8,261.4,253.5,267.1,357.4,133.5
180.0,517.7,479.1,259.9,255.9,269.2,356.4,130.5
180.5,519.0,478.0,252.4,250.1,264.8,352.8,133.8
181.0,511.1,482.6,259.1,251.7,265.1,353.9,130.9
181.5,517.2,479.5,256.4,245.2,264.4,352.6,133.9
182.0,498.5,466.9,255.6,251.0,252.7,344.9,126.3
182.5,504.0,479.8,252.6,250.9,259.1,349.3,130.5
183.0,497.2,481.7,257.9,248.6,260.8,349.2,128.2
183.5,494.6,476.0,251.6,250.5,254.6,345.5,127.8
184.0,493.5,464.5,251.8,247.5,255.4,342.5,125.0
184.5,494.1,469.9,249.9,245.9,251.1,342.2,127.9
185.0,489.2,478.9,250.0,248.8,252.3,343.9,128.1
185.5,487.6,476.7,248.3,247.9,252.9,342.7,127.4
186.0,477.7,479.2,246.6,241.5,250.1,339.0,127.3
186.5,488.2,478.0,246.4,247.9,255.4,343.2,127.8
187.0,489.3,469.8,246.5,248.4,251.2,341.1,126.7
187.5,469.2,464.6,246.9,243.0,253.7,335.5,120.0
188.0,471.8,477.4,243.3,240.9,252.0,337.1,125.6
188.5,470.7,469.2,247.0,241.2,246.1,334.8,123.3
189.0,469.1,465.6,239.7,239.1,249.9,332.7,123.0
189.5,463.2,463.7,244.1,235.4,244.3,330.2,121.7
190.0,466.2,464.9,243.2,239.3,246.2,332.0,122.0
190.5,465.3,473.2,244.6,239.0,244.6,333.3,124.1
191.0,458.6,464.3,237.0,236.8,240.0,327.3,122.5
191.5,464.6,471.6,246.3,239.0,238.6,332.0,124.3
192.0,455.7,465.3,241.8,237.2,237.9,327.6,121.4
192.5,443.6,467.8,238.7,234.3,240.9,325.1,119.6
193.0,439.6,473.8,239.1,235.3,240.0,325.6,120.3
193.5,444.9,462.1,238.0,234.7,241.1,324.2,118.2
194.0,442.8,461.6,237.3,234.3,236.0,322.4,118.7
194.5,442.3,456.5,239.1,231.5,234.5,320.8,117.6
195.0,431.8,467.9,237.2,227.8,235.1,320.0,119.3
195.5,425.3,464.6,236.2,230.1,237.1,318.7,116.1
196.0,442.2,464.0,242.4,228.4,229.1,321.2,120.8
196.5,431.9,454.1,237.4,226.8,230.7,316.2,116.1
197.0,427.5,470.6,242.4,230.9,235.6,321.4,117.6
197.5,424.0,463.6,240.2,230.8,234.6,318.7,115.2
198.0,412.2,455.2,239.0,228.8,230.4,313.1,111.2
198.5,418.1,458.6,233.8,226.9,233.7,314.2,114.3
199.0,426.4,460.3,237.8,226.8,233.1,316.9,116.1
199.5,409.9,466.7,238.9,226.9,229.4,314.3,115.0
200.0,406.4,459.7,239.1,223.5,234.3,312.6,111.7
200.5,406.4,470.2,233.1,222.7,230.9,312.7,116.9
201.0,409.5,473.6,232.0,225.5,232.5,314.6,118.1
201.5,404.8,465.7,231.7,220.4,229.0,310.3,116.2
202.0,400.5,470.2,232.6,221.9,232.2,311.5,115.8
202.5,403.6,472.6,232.0,222.6,223.5,310.9,118.8
203.0,397.7,463.9,233.5,214.2,229.5,307.8,115.0
203.5,399.2,472.3,232.9,222.0,231.9,311.7,116.2
204.0,400.0,458.8,229.4,220.7,229.4,307.7,113.1
204.5,391.9,471.9,227.9,221.4,227.2,308.1,116.6
205.0,397.6,479.7,230.3,218.8,223.4,310.0,121.1
205.5,390.8,465.5,230.7,220.8,225.8,306.7,114.0
206.0,392.3,468.1,227.9,216.5,224.1,305.8,116.8
206.5,385.8,480.3,229.8,217.1,222.6,307.1,119.8
207.0,394.2,477.1,227.7,214.6,219.5,306.6,121.5
207.5,378.4,477.4,228.2,214.6,222.6,304.3,118.3
208.0,378.9,474.7,228.9,214.1,221.6,303.6,117.5
208.5,377.5,461.8,227.0,214.9,222.0,300.6,112.7
209.0,379.5,478.1,225.7,216.3,220.1,303.9,119.3
209.5,376.9,474.9,223.4,212.0,218.6,301.2,119.1
210.0,383.4,479.0,228.9,212.6,218.0,304.4,120.7
210.5,373.3,466.3,227.4,213.9,217.5,299.7,114.6
211.0,376.3,472.1,226.7,212.8,217.4,301.0,117.5
211.5,375.2,477.3,228.5,211.8,219.6,302.5,118.8
212.0,369.9,478.4,228.3,213.6,217.4,301.5,118.5
212.5,370.9,476.5,224.4,213.5,216.1,300.3,118.8
213.0,367.0,468.3,225.1,213.1,214.0,297.5,115.5
213.5,367.9,464.8,227.3,205.1,216.2,296.3,115.1
214.0,366.1,461.8,226.5,211.9,213.3,295.9,113.1
214.5,368.4,464.3,225.2,207.7,213.5,295.8,115.3
215.0,364.5,452.2,226.4,212.1,214.5,293.9,109.1
215.5,363.4,454.2,220.6,214.8,214.3,293.4,110.1
216.0,364.5,436.2,226.8,208.8,212.8,289.8,104.3
216.5,362.9,445.5,228.1,208.1,213.0,291.5,107.2
217.0,360.4,447.2,224.9,206.9,212.6,290.4,108.2
217.5,357.4,435.2,226.9,209.2,212.3,288.2,102.7
218.0,360.4,439.9,223.5,206.6,213.1,288.7,105.7
218.5,357.5,439.8,222.8,207.5,216.4,288.8,104.6
219.0,354.2,426.4,225.5,208.6,210.8,285.1,99.6
219.5,350.6,426.9,222.7,204.5,212.7,283.5,100.0
220.0,352.3,426.2,225.1,208.8,209.8,284.4,99.4
220.5,347.2,410.1,225.5,206.8,212.7,280.4,92.6
221.0,350.2,413.0,223.6,210.5,212.4,281.9,93.8
221.5,346.3,410.7,221.0,209.3,208.2,279.1,93.7
222.0,342.2,398.8,219.7,205.0,214.3,276.0,88.7
222.5,342.1,403.2,224.9,208.7,213.6,278.5,88.8
223.0,344.1,400.2,221.7,203.7,207.5,275.4,90.7
223.5,344.3,388.5,221.3,205.5,208.6,273.7,86.3
224.0,347.3,386.6,219.6,203.4,211.8,273.7,86.4
224.5,342.3,381.1,217.9,203.2,210.7,271.1,84.1
225.0,346.2,375.8,218.7,205.3,213.1,271.8,82.2
225.5,337.9,374.2,222.4,202.5,214.7,270.4,79.6
226.0,342.8,364.6,213.3,199.1,213.5,266.7,80.0
226.5,336.3,372.2,220.3,201.8,214.4,269.0,79.2
227.0,334.6,366.0,217.0,202.7,214.7,267.0,77.0
227.5,341.9,363.3,219.2,203.4,214.8,268.5,77.4
228.0,339.3,361.3,217.8,199.4,216.1,266.8,77.0
228.5,334.8,355.7,219.5,202.7,215.7,265.7,73.3
229.0,342.7,354.9,218.8,204.5,212.2,266.6,75.3
229.5,334.4,355.6,220.3,203.8,211.8,265.2,73.5
230.0,336.6,350.7,215.8,200.9,212.5,263.3,73.7
230.5,331.7,352.3,220.6,201.1,208.2,262.8,73.0
231.0,330.4,347.3,218.6,204.6,211.9,262.6,70.1
231.5,334.2,344.6,216.7,199.7,210.8,261.2,71.7
232.0,330.7,347.0,217.7,198.1,206.3,260.0,72.6
232.5,331.6,341.8,223.8,195.5,212.3,261.0,69.9
233.0,328.6,344.0,218.6,195.9,208.8,259.2,71.1
233.5,333.7,340.2,215.6,199.0,208.2,259.3,71.1
234.0,330.1,339.6,219.6,196.5,206.5,258.4,70.3
234.5,327.1,343.8,218.2,196.9,207.7,258.8,70.7
235.0,331.7,341.3,218.8,195.7,207.3,259.0,71.3
235.5,327.5,339.6,218.0,196.9,209.3,258.3,69.3
236.0,322.3,342.3,216.1,197.2,205.9,256.7,69.6
236.5,321.5,333.2,215.3,194.4,207.9,254.5,67.1
237.0,326.7,337.0,215.0,198.2,207.8,256.9,68.8
237.5,326.4,330.3,213.2,195.5,208.0,254.7,67.6
238.0,319.2,330.3,217.0,194.4,205.3,253.2,65.9
238.5,323.5,332.5,215.7,193.5,207.5,254.6,67.6
239.0,320.8,329.9,220.2,192.7,203.5,253.4,66.5
239.5,323.8,324.6,216.2,196.1,206.8,253.5,64.9
240.0,322.3,325.0,218.3,197.5,201.8,253.0,65.0
240.5,324.7,327.7,216.5,193.9,202.1,253.0,67.3
241.0,320.8,327.8,215.9,196.3,203.8,252.9,65.6
241.5,321.6,319.6,214.7,197.0,204.1,251.4,63.5
242.0,320.5,319.6,215.6,195.1,201.8,250.5,63.9
242.5,321.3,322.1,213.0,192.4,205.5,250.9,65.1
243.0,319.3,322.6,216.6,195.6,207.8,252.4,63.1
243.5,320.4,319.2,213.4,190.4,202.8,249.2,64.9
244.0,317.2,323.9,210.6,194.0,201.2,249.4,65.3
244.5,313.0,320.6,211.5,192.6,200.3,247.6,63.6
245.0,313.5,317.5,211.3,194.5,203.1,247.9,61.9
245.5,314.5,317.9,210.7,195.2,205.0,248.6,61.9
246.0,311.6,319.6,211.0,195.1,198.2,247.1,62.9
246.5,309.7,312.0,212.1,191.7,200.3,245.2,60.4
247.0,309.0,314.4,212.0,190.4,199.8,245.1,61.3
247.5,305.5,316.3,212.9,193.6,200.5,245.8,60.0
248.0,308.8,315.9,211.2,193.6,200.7,246.1,60.9
248.5,311.7,313.6,213.9,192.5,197.9,245.9,61.4
249.0,304.4,315.0,212.9,194.1,200.6,245.4,59.2
249.5,309.1,316.0,211.5,194.6,197.3,245.7,61.4
250.0,309.6,308.5,213.6,192.7,197.4,244.4,59.6
250.5,302.9,310.7,216.5,192.1,199.7,244.4,57.7
251.0,303.9,311.0,214.6,192.4,195.7,243.5,59.0
251.5,306.1,310.5,213.3,191.2,195.6,243.3,59.9
252.0,304.0,307.5,212.8,191.3,194.6,242.0,58.7
252.5,309.8,311.0,211.1,191.8,193.8,243.5,61.5
253.0,304.4,310.2,212.9,191.8,196.2,243.1,59.2
253.5,304.8,313.2,215.3,192.8,195.7,244.3,59.7
254.0,305.7,309.0,212.4,190.9,197.1,243.0,59.2
254.5,300.7,314.3,212.9,194.4,194.8,243.4,59.2
255.0,302.7,306.9,211.0,192.3,195.0,241.5,58.2
255.5,307.2,306.3,210.7,193.1,196.3,242.7,58.8
256.0,302.7,306.6,208.5,191.0,196.7,241.1,58.4
256.5,304.0,307.2,209.3,194.2,192.8,241.5,58.9
257.0,307.3,305.0,209.0,191.2,197.7,242.0,58.9
257.5,302.8,305.3,213.3,193.7,196.9,242.4,56.8
258.0,304.4,303.2,210.0,191.6,195.1,240.9,57.9
258.5,301.8,294.7,209.5,193.0,195.8,239.0,54.5
259.0,300.2,300.0,209.3,193.2,196.6,239.9,55.3
259.5,299.3,304.4,208.9,187.9,192.3,238.5,58.3
260.0,300.6,299.2,209.3,193.0,196.0,239.6,55.4
260.5,300.6,299.2,209.4,189.6,196.5,239.0,56.0
261.0,297.9,298.5,207.5,188.7,197.2,238.0,55.4
261.5,298.3,299.0,209.2,190.4,194.0,238.2,55.6
262.0,296.4,298.1,209.0,189.6,195.4,237.7,54.8
262.5,294.1,301.7,208.7,188.9,192.9,237.3,55.9
263.0,298.4,298.8,205.6,187.7,192.2,236.5,57.0
263.5,294.0,296.0,208.0,187.5,194.2,236.0,54.4
264.0,292.3,295.5,207.8,186.5,195.7,235.6,53.8
264.5,293.6,296.9,205.0,189.2,195.6,236.1,54.3
265.0,291.6,295.6,205.5,187.1,198.3,235.6,53.4
265.5,292.7,294.5,205.2,191.4,194.8,235.7,53.1
266.0,289.6,296.8,201.6,188.4,192.0,233.7,54.6
266.5,288.4,294.0,205.3,186.5,194.2,233.7,53.0
267.0,289.7,294.6,201.3,191.1,193.5,234.0,53.2
267.5,289.7,297.0,204.2,189.6,192.2,234.5,54.0
268.0,286.2,294.5,207.4,190.3,194.9,234.7,51.3
268.5,290.1,295.5,205.1,189.1,195.2,235.0,53.1
269.0,285.4,295.0,205.1,187.6,196.2,233.9,51.9
269.5,281.4,295.6,201.9,189.5,194.6,232.6,51.5
270.0,285.9,298.0,202.0,190.0,197.5,234.7,52.7
270.5,284.3,298.0,203.1,186.3,191.7,232.7,53.9
271.0,282.5,296.5,202.3,188.8,196.5,233.3,51.7
271.5,285.1,298.3,202.3,191.3,191.9,233.8,53.3
272.0,279.8,292.5,203.7,191.1,187.7,231.0,50.9
272.5,276.9,294.5,205.7,190.2,189.7,231.4,50.4
273.0,280.1,290.8,203.7,188.5,193.2,231.3,49.9
273.5,279.1,291.9,202.3,190.8,191.9,231.2,50.0
274.0,274.9,287.1,206.3,188.0,195.4,230.3,46.9
274.5,276.3,289.2,203.2,190.2,193.3,230.4,48.2
275.0,272.4,292.1,202.8,188.3,191.0,229.3,49.1
275.5,277.4,288.0,204.0,190.9,190.5,230.1,48.4
276.0,275.5,285.2,203.6,185.4,193.2,228.6,47.8
276.5,270.8,290.5,203.3,186.6,195.4,229.3,47.7
277.0,273.2,287.0,205.3,191.4,192.7,229.9,46.4
277.5,271.2,288.0,204.0,187.2,193.2,228.7,47.2
278.0,272.2,284.5,205.2,193.9,191.3,229.4,45.2
278.5,267.2,289.0,203.6,190.6,193.4,228.8,45.9
279.0,270.0,288.2,203.9,193.5,193.0,229.7,45.7
279.5,269.1,286.1,203.6,191.1,192.5,228.5,45.5
280.0,272.4,285.0,200.4,191.8,192.8,228.5,46.2
280.5,270.0,284.6,201.4,194.8,191.6,228.5,45.0
281.0,265.5,288.5,203.6,193.9,191.5,228.6,45.2
281.5,266.2,281.5,199.4,195.0,185.3,225.5,44.8
282.0,263.2,284.1,199.5,193.4,189.6,225.9,44.3
282.5,265.3,284.4,201.2,193.4,188.8,226.6,44.8
283.0,264.5,282.6,200.8,189.5,189.7,225.4,44.6
283.5,263.6,279.5,201.4,191.1,188.7,224.9,43.3
284.0,263.1,278.5,200.4,188.9,188.7,223.9,43.4
284.5,261.4,286.0,199.9,192.2,190.2,225.9,44.6
285.0,260.1,279.1,201.2,190.7,191.9,224.6,41.8
285.5,260.9,275.3,201.5,189.2,187.7,222.9,41.9
286.0,262.5,275.1,198.8,189.7,189.5,223.2,42.1
286.5,258.0,271.0,199.1,190.6,191.3,222.0,39.2
287.0,265.9,273.0,198.6,191.4,187.5,223.3,42.4
287.5,257.6,273.6,198.8,192.2,187.9,222.0,40.4
288.0,259.8,275.1,199.3,189.1,189.4,222.5,41.6
288.5,259.9,271.6,197.8,186.5,190.0,221.2,41.1
289.0,258.4,268.9,200.9,188.9,186.0,220.6,39.8
289.5,255.3,271.5,202.0,188.1,184.7,220.3,40.3
290.0,257.1,271.2,196.3,185.5,187.0,219.4,41.3
290.5,252.8,268.1,199.5,190.6,187.1,219.6,38.0
291.0,249.7,271.0,199.0,190.5,191.5,220.3,37.4
291.5,253.7,266.6,197.1,190.4,186.6,218.9,38.1
292.0,247.3,267.6,196.9,191.7,186.8,218.1,36.8
292.5,250.3,271.7,196.0,191.2,189.4,219.7,38.5
293.0,248.7,274.0,193.9,193.0,186.9,219.3,39.5
293.5,248.0,268.2,197.3,189.6,188.3,218.3,37.2
294.0,247.1,265.9,199.1,187.7,187.7,217.5,36.5
294.5,250.9,266.7,198.8,190.5,187.5,218.9,37.1
295.0,248.0,268.3,198.7,192.4,187.6,219.0,36.7
295.5,247.5,266.3,197.0,193.0,186.7,218.1,36.2
296.0,242.7,268.7,197.7,193.6,185.2,217.6,36.3
296.5,243.3,264.7,198.0,186.6,184.0,215.3,36.5
297.0,242.5,265.3,199.5,189.4,184.6,216.3,35.7
297.5,241.3,267.6,193.5,191.7,182.3,215.3,37.2
298.0,240.6,263.4,196.0,191.6,178.8,214.1,36.1
298.5,241.0,261.7,195.4,187.9,186.5,214.5,34.6
299.0,243.1,256.9,194.8,192.7,185.5,214.6,32.9
299.5,239.4,263.5,197.9,189.9,186.6,215.5,34.2
300.0,240.3,261.4,199.3,189.6,187.1,215.5,33.4
300.5,237.2,262.2,197.5,190.9,183.6,214.3,33.9
301.0,238.0,261.3,197.7,189.5,184.7,214.2,33.7
301.5,238.3,261.3,199.6,188.4,185.4,214.6,33.6
302.0,237.5,256.8,195.7,194.5,188.4,214.6,30.6
302.5,236.1,258.1,199.9,192.0,185.1,214.3,31.4
303.0,237.4,259.3,195.8,191.8,184.0,213.6,32.9
303.5,228.9,259.5,200.7,188.7,186.2,212.8,31.1
304.0,230.3,259.7,197.1,190.0,184.2,212.3,32.0
304.5,231.5,254.5,200.4,188.7,186.5,212.3,29.7
305.0,232.3,258.4,200.5,189.1,185.0,213.1,31.4
305.5,231.2,262.3,200.9,189.2,184.6,213.6,32.7
306.0,227.1,260.4,199.3,190.2,184.9,212.4,31.4
306.5,231.3,260.3,196.5,189.2,182.9,212.0,32.8
307.0,225.5,254.6,196.9,185.9,183.3,209.2,30.4
307.5,222.7,259.2,200.6,190.0,177.9,210.1,32.0
308.0,228.3,258.8,196.8,189.8,183.1,211.4,31.7
308.5,228.1,257.5,202.1,187.8,178.6,210.8,32.1
309.0,226.2,255.5,199.1,189.4,180.1,210.0,30.7
309.5,226.9,255.2,201.9,187.9,184.5,211.3,29.7
310.0,224.3,256.6,200.6,188.0,183.5,210.6,30.2
310.5,222.0,256.2,200.2,187.7,185.9,210.4,29.4
311.0,221.3,253.6,198.1,188.6,185.4,209.4,28.4
311.5,220.5,253.0,199.8,187.0,184.3,208.9,28.5
312.0,220.6,255.9,201.0,190.1,183.9,210.3,29.0
312.5,215.2,252.7,200.6,187.1,183.6,207.9,28.0
313.0,216.5,250.7,200.3,189.6,187.2,208.8,26.1
313.5,214.8,246.5,200.3,189.1,182.8,206.7,25.4
314.0,214.4,258.6,201.1,187.1,183.4,208.9,30.4
314.5,213.0,249.5,200.3,189.1,181.3,206.6,26.8
315.0,210.8,253.5,199.8,190.4,183.6,207.6,27.6
315.5,213.1,254.7,201.0,190.0,185.3,208.8,27.8
316.0,212.9,253.1,200.5,190.4,182.5,207.9,27.7
316.5,209.8,252.1,202.5,187.9,182.6,207.0,27.5
317.0,208.9,254.0,201.0,191.2,185.0,208.0,27.3
317.5,206.4,247.3,201.3,188.7,182.0,205.1,25.5
318.0,205.5,248.0,201.3,187.7,179.4,204.4,26.5
318.5,205.6,249.6,201.9,188.6,179.8,205.1,26.9
319.0,205.9,248.1,201.7,189.6,183.7,205.8,25.3
319.5,202.4,248.0,200.1,189.1,184.1,204.7,25.3
320.0,203.1,248.9,201.9,189.4,183.6,205.4,25.7
320.5,198.8,250.4,199.7,188.5,182.9,204.1,26.8
321.0,200.4,248.6,198.2,186.9,180.4,202.9,26.8
321.5,199.2,253.9,202.5,191.0,182.9,205.9,27.9
322.0,196.3,248.6,200.7,189.6,185.4,204.1,25.6
322.5,200.6,248.4,201.8,189.6,183.5,204.8,25.6
323.0,196.6,247.8,203.6,188.7,187.4,204.8,24.9
323.5,196.6,249.9,201.5,190.2,187.4,205.1,25.6
324.0,194.5,247.4,203.8,190.4,186.3,204.5,24.8
324.5,195.3,249.4,204.3,192.3,184.1,205.1,25.8
325.0,189.8,248.3,203.3,192.7,185.4,203.9,25.7
325.5,188.4,245.6,199.9,192.2,187.0,202.6,24.5
326.0,190.9,242.5,202.4,190.7,187.7,202.8,22.9
326.5,193.4,243.9,200.9,190.9,185.1,202.9,23.7
327.0,191.4,245.0,201.3,189.5,187.2,202.9,24.1
327.5,190.0,242.6,204.1,190.9,182.9,202.1,23.9
328.0,188.1,243.9,203.7,190.4,180.8,201.4,25.2
328.5,186.9,243.1,203.1,189.9,183.7,201.3,24.5
329.0,188.4,239.3,205.6,195.3,184.4,202.6,22.1
329.5,185.3,237.8,201.9,190.9,181.6,199.5,22.7
330.0,184.9,243.3,204.8,190.9,181.4,201.0,25.3
330.5,184.8,244.4,204.6,190.0,183.5,201.4,25.4
331.0,182.2,240.0,200.7,191.0,184.6,199.7,23.7
331.5,182.1,237.0,202.3,189.8,182.8,198.8,22.8
332.0,180.3,240.0,204.6,191.7,184.8,200.3,24.0
332.5,179.5,240.5,203.7,191.0,181.1,199.2,25.0
333.0,181.6,243.4,201.8,185.8,180.6,198.6,26.5
333.5,180.7,240.9,203.5,192.8,181.6,199.9,24.7
334.0,174.7,240.8,199.0,189.2,181.2,197.0,26.1
334.5,176.9,241.1,199.9,191.0,180.9,198.0,25.7
335.0,176.5,241.8,201.2,189.5,183.6,198.5,25.8
335.5,177.4,245.1,199.2,192.2,178.5,198.5,27.6
336.0,170.3,239.3,200.9,187.6,182.5,196.1,26.5
336.5,177.9,239.3,195.8,188.7,181.1,196.6,24.9
337.0,175.2,241.7,197.7,192.6,180.3,197.5,26.3
337.5,173.0,239.0,199.3,189.9,184.0,197.0,25.3
338.0,170.9,237.6,198.0,186.6,184.5,195.6,25.4
338.5,171.2,240.3,198.1,185.5,182.2,195.4,26.8
339.0,170.1,238.4,201.4,187.9,178.8,195.3,26.8
339.5,169.8,239.2,200.3,191.2,182.8,196.7,26.3
340.0,170.6,236.7,200.0,189.4,183.3,196.0,25.1
340.5,166.6,239.9,198.5,187.3,184.6,195.4,27.4
341.0,166.6,238.4,199.2,187.0,181.4,194.5,27.2
341.5,166.2,237.7,199.2,190.0,182.9,195.2,26.6
342.0,164.3,237.4,195.4,185.8,181.0,192.8,27.4
342.5,165.5,233.7,199.3,187.3,182.4,193.6,25.5
343.0,163.5,238.0,199.1,185.9,185.4,194.4,27.5
343.5,164.7,237.8,195.7,191.2,180.1,193.9,27.3
344.0,160.7,235.7,196.3,187.9,179.6,192.0,27.7
344.5,162.3,237.8,196.0,187.3,182.9,193.3,27.8
345.0,159.6,239.1,195.7,189.8,181.5,193.1,29.1
345.5,159.7,236.7,195.4,186.0,180.7,191.7,28.3
346.0,160.1,235.9,193.0,186.7,177.8,190.7,28.1
346.5,158.5,236.2,192.8,184.0,182.4,190.8,28.4
347.0,159.7,236.9,192.9,189.6,178.5,191.5,28.5
347.5,157.2,237.2,193.3,189.4,179.3,191.3,29.3
348.0,156.5,234.0,195.8,186.7,180.9,190.8,28.2
348.5,156.0,240.1,194.5,190.0,178.0,191.7,30.9
349.0,156.3,236.5,191.3,186.0,180.0,190.0,29.2
349.5,154.2,235.5,195.1,188.2,176.0,189.8,29.9
350.0,155.7,233.8,195.9,187.3,175.9,189.7,28.9
350.5,153.3,234.7,193.1,187.0,177.4,189.1,29.7
351.0,153.0,233.3,194.3,188.6,180.3,189.9,29.0
351.5,151.9,231.8,193.1,187.4,175.7,188.0,29.2
352.0,151.9,234.2,195.2,188.9,176.4,189.3,30.1
352.5,147.8,233.4,196.6,187.5,179.3,188.9,30.9
353.0,149.1,235.4,194.1,185.9,179.5,188.8,31.1
353.5,147.5,234.8,191.8,186.0,180.2,188.0,31.3
354.0,148.4,232.8,193.8,189.9,177.3,188.4,30.5
354.5,146.3,232.5,198.9,187.2,179.7,188.9,31.2
355.0,145.7,234.8,193.0,189.9,179.2,188.5,32.0
355.5,144.8,234.2,193.8,187.4,178.9,187.8,32.1
356.0,145.9,234.9,194.4,186.9,179.1,188.2,32.0
356.5,144.5,233.9,191.4,185.0,182.7,187.5,31.8
357.0,142.9,232.6,193.8,188.6,179.1,187.4,32.2
357.5,142.2,233.5,190.4,184.8,178.8,186.0,32.6
358.0,142.0,233.5,193.1,183.8,180.5,186.6,32.7
358.5,141.8,235.8,194.2,184.5,178.5,186.9,33.7
359.0,141.5,234.7,191.7,186.1,178.2,186.4,33.3
359.5,138.3,233.3,191.1,186.7,183.5,186.6,33.7
360.0,140.0,236.8,193.9,187.3,181.6,187.9,34.5
360.5,139.5,230.7,192.1,185.0,181.0,185.7,32.5
361.0,136.2,232.9,192.1,187.1,182.0,186.1,34.4
361.5,135.6,231.8,191.3,181.6,177.5,183.6,34.4
362.0,134.6,232.4,191.6,182.6,179.9,184.2,34.9
362.5,136.9,234.2,190.9,186.6,181.2,186.0,34.6
363.0,134.8,231.3,187.0,185.9,182.3,184.3,34.2
363.5,135.1,236.3,190.1,186.1,178.5,185.2,36.0
364.0,134.2,233.8,188.4,183.0,181.9,184.3,35.3
364.5,133.8,233.0,189.6,184.4,181.1,184.4,35.2
365.0,131.2,233.0,188.8,186.1,179.9,183.8,36.2
365.5,131.3,225.2,187.4,186.4,180.4,182.2,33.5
366.0,132.1,228.7,189.1,186.6,183.4,184.0,34.4
366.5,130.6,232.5,186.3,186.3,180.4,183.2,36.1
367.0,130.6,228.1,187.5,183.2,178.0,181.5,34.7
367.5,128.4,231.6,186.5,183.4,180.2,182.0,36.6
368.0,128.7,229.0,185.1,185.9,180.9,181.9,35.6
368.5,127.6,224.8,185.4,184.8,178.4,180.2,34.6
369.0,127.0,229.0,188.0,184.5,176.0,180.9,36.4
369.5,126.4,226.1,184.3,182.9,181.0,180.1,35.5
370.0,126.4,227.6,183.0,186.4,178.7,180.4,36.0
370.5,124.1,227.5,185.2,186.4,181.0,180.8,36.9
371.0,123.3,223.4,181.9,185.3,176.3,178.1,35.8
371.5,123.2,224.1,183.8,184.0,176.6,178.3,36.1
372.0,122.5,222.8,184.4,188.1,182.9,180.1,36.2
372.5,122.8,224.2,183.9,183.7,179.2,178.8,36.2
373.0,120.2,226.5,181.6,185.3,179.2,178.6,37.9
373.5,120.1,223.6,183.0,185.3,179.7,178.3,37.1
374.0,120.5,225.4,184.3,184.3,181.7,179.2,37.6
374.5,119.6,227.5,180.2,187.1,176.8,178.3,38.6
375.0,118.9,224.4,184.7,184.0,173.7,177.1,37.9
375.5,117.8,225.4,183.7,185.2,176.9,177.8,38.6
376.0,118.4,225.7,184.6,184.7,179.5,178.6,38.4
376.5,117.9,225.2,183.0,186.7,178.4,178.2,38.5
377.0,117.9,226.3,184.5,185.1,172.7,177.3,38.9
377.5,116.9,225.1,184.5,182.8,177.8,177.4,38.8
378.0,117.2,223.7,182.7,184.9,178.1,177.3,38.2
378.5,115.0,227.1,182.0,185.7,176.6,177.3,40.2
379.0,114.4,224.5,184.1,184.2,178.1,177.1,39.6
379.5,114.2,223.4,182.1,187.1,177.4,176.8,39.5
380.0,114.1,225.0,183.1,184.1,178.2,176.9,39.8
380.5,114.5,224.6,185.3,181.1,179.8,177.1,39.6
381.0,114.3,221.4,182.3,183.0,177.8,175.8,38.6
381.5,113.2,220.7,181.8,184.3,176.2,175.3,38.9
382.0,112.2,224.0,181.8,182.9,175.4,175.3,40.2
382.5,111.6,222.9,182.1,183.4,178.7,175.7,40.1
383.0,111.2,221.7,181.3,177.4,173.2,173.0,39.6
383.5,110.0,223.3,180.8,180.4,175.5,174.0,40.7
384.0,108.0,223.0,179.9,179.9,175.3,173.2,41.3
384.5,108.6,221.0,183.7,178.8,176.3,173.7,40.7
385.0,108.2,220.0,180.3,174.0,176.4,171.8,40.2
385.5,104.5,219.5,182.5,178.4,176.5,172.3,41.8
386.0,104.6,221.1,183.6,178.5,177.6,173.1,42.3
386.5,104.4,216.7,181.9,181.4,176.0,172.1,41.1
387.0,103.7,221.1,180.5,179.4,174.9,171.9,42.5
387.5,101.9,217.4,182.0,175.1,177.7,170.8,42.2
388.0,102.2,217.9,180.1,178.2,175.6,170.8,42.1
388.5,101.5,219.7,178.2,175.0,179.0,170.7,42.8
389.0,101.0,219.5,181.7,173.8,173.7,169.9,42.9
389.5,99.6,219.5,179.6,172.8,173.2,168.9,43.3
390.0,100.5,220.3,181.4,174.6,172.1,169.8,43.3
390.5,100.9,222.3,179.5,178.4,171.4,170.5,43.8
391.0,99.9,218.2,181.8,177.5,173.8,170.2,43.2
391.5,98.8,217.8,179.5,176.5,173.8,169.3,43.3
392.0,99.2,221.0,181.4,176.4,174.6,170.5,44.2
392.5,99.0,218.2,179.3,174.3,175.8,169.3,43.3
393.0,97.8,222.6,178.6,175.1,176.6,170.2,45.1
393.5,96.6,218.8,177.7,175.2,172.6,168.2,44.3
394.0,97.7,221.2,179.7,177.0,172.6,169.6,44.7
394.5,97.6,219.3,179.4,174.0,173.1,168.7,44.1
395.0,96.9,219.5,178.7,172.8,171.5,167.9,44.3
395.5,96.4,217.9,180.1,173.5,172.5,168.1,44.2
396.0,95.3,216.0,178.3,174.5,167.6,166.3,43.9
396.5,95.0,219.6,176.6,177.1,171.5,168.0,45.1
397.0,95.1,218.1,178.3,176.4,172.4,168.1,44.8
397.5,95.2,218.5,179.9,178.7,170.0,168.4,45.0
398.0,94.6,215.8,175.4,177.0,170.3,166.6,44.2
398.5,94.2,222.6,177.3,176.4,169.0,167.9,46.3
399.0,94.9,215.1,176.0,173.7,168.6,165.7,43.7
399.5,93.3,219.5,175.8,178.0,168.4,167.0,45.8
400.0,93.3,218.7,174.6,174.7,173.3,166.9,45.4
400.5,92.9,216.3,178.5,174.9,168.5,166.2,45.1
401.0,93.3,216.8,177.6,173.8,166.7,165.6,44.9
401.5,92.6,215.6,174.7,175.0,169.8,165.5,44.8
402.0,91.9,215.9,174.7,174.9,169.8,165.4,45.2
402.5,94.0,215.7,176.1,174.8,167.2,165.6,44.3
403.0,92.4,216.7,175.1,173.5,169.4,165.4,45.1
403.5,91.5,217.1,173.0,173.2,170.8,165.1,45.5
404.0,91.2,216.8,175.8,174.5,169.1,165.5,45.7
404.5,91.9,214.7,173.8,173.7,168.7,164.6,44.7
405.0,91.1,217.9,173.6,172.6,168.9,164.8,45.8
405.5,91.3,216.2,174.7,172.8,170.5,165.1,45.4
406.0,89.9,213.5,173.4,172.6,170.0,163.9,45.1
406.5,87.8,216.9,174.7,172.9,169.7,164.4,47.0
407.0,88.7,215.8,173.3,171.7,168.4,163.6,46.2
407.5,89.1,218.0,170.9,174.7,168.1,164.1,46.6
408.0,87.8,214.0,172.6,170.8,167.7,162.6,45.9
408.5,87.2,213.4,172.5,173.7,165.8,162.5,46.1
409.0,87.1,212.4,171.1,171.2,168.7,162.1,45.7
409.5,86.3,214.3,169.3,176.3,166.0,162.4,46.7
410.0,86.4,214.3,171.8,168.5,168.4,161.9,46.5
410.5,86.1,214.9,169.8,173.7,166.4,162.2,46.9
411.0,87.0,213.3,169.3,172.9,166.6,161.8,45.9
411.5,85.0,216.4,171.8,175.3,169.6,163.6,48.0
412.0,84.8,212.7,168.9,172.7,167.3,161.3,46.7
412.5,86.0,213.8,167.2,173.8,168.5,161.9,46.5
413.0,85.8,212.9,169.7,173.0,166.8,161.7,46.4
413.5,84.9,211.8,169.9,174.9,168.2,161.9,46.6
414.0,86.1,213.6,170.2,172.8,168.4,162.2,46.5
414.5,84.1,216.0,167.5,175.3,170.5,162.7,48.1
415.0,84.8,214.2,168.0,173.9,166.7,161.5,47.1
415.5,84.5,211.6,169.1,171.8,167.9,161.0,46.5
416.0,83.6,211.9,167.4,172.3,168.2,160.7,46.9
416.5,83.6,211.6,167.4,174.0,168.1,160.9,46.9
417.0,81.9,213.1,167.3,171.6,170.2,160.8,48.0
417.5,80.9,210.7,167.1,172.1,165.7,159.3,47.6
418.0,81.8,213.9,166.6,171.6,164.7,159.7,48.0
418.5,82.2,214.3,167.6,169.2,165.6,159.8,47.9
419.0,81.1,208.1,166.6,172.2,165.4,158.7,46.8
419.5,79.6,210.5,166.9,166.7,166.4,158.0,47.8
420.0,80.5,211.4,165.3,171.6,163.8,158.5,47.8
420.5,78.9,212.5,164.7,169.5,164.5,158.0,48.6
421.0,79.1,212.1,167.0,168.0,164.6,158.2,48.4
421.5,78.1,212.5,166.1,166.1,164.3,157.4,48.8
422.0,78.5,212.9,166.1,169.2,166.3,158.6,49.0
422.5,77.4,210.9,165.5,168.7,163.6,157.2,48.7
423.0,76.8,210.3,167.8,162.6,164.2,156.3,48.6
423.5,77.1,210.6,165.6,165.1,164.7,156.6,48.6
424.0,76.1,211.8,165.8,168.3,163.0,157.0,49.5
424.5,76.0,213.3,165.6,164.6,161.5,156.2,49.7
425.0,74.9,208.0,166.7,167.7,164.8,156.4,49.0
425.5,75.6,209.5,161.6,167.8,165.4,156.0,48.9
426.0,75.7,211.9,163.8,163.9,162.1,155.5,49.3
426.5,75.5,210.8,163.2,165.9,163.6,155.8,49.2
427.0,76.3,210.7,164.6,167.5,162.9,156.4,49.0
427.5,75.2,209.4,163.1,164.9,163.7,155.3,48.9
428.0,74.3,211.5,162.9,161.3,160.8,154.2,49.6
428.5,74.1,209.7,165.7,164.8,162.8,155.4,49.5
429.0,73.7,209.5,162.6,163.3,164.2,154.7,49.5
429.5,73.2,209.0,161.8,166.5,163.4,154.8,49.6
430.0,73.2,212.3,166.3,163.5,162.5,155.6,50.6
430.5,72.9,210.3,161.4,164.8,161.8,154.2,49.9
431.0,72.1,210.9,165.1,165.2,164.4,155.5,50.7
431.5,71.4,213.8,163.1,165.5,161.0,154.9,51.6
432.0,71.5,210.5,163.5,164.3,163.1,154.6,50.7
432.5,72.1,212.3,162.4,160.9,162.5,154.1,50.7
433.0,71.0,212.9,160.7,160.6,160.2,153.1,51.2
433.5,71.6,209.2,162.2,161.1,160.7,153.0,50.0
434.0,70.5,209.1,162.3,164.1,158.7,152.9,50.5
434.5,70.1,207.5,160.8,162.8,164.9,153.2,50.3
435.0,69.8,208.6,162.0,161.0,163.9,153.1,50.7
435.5,70.8,209.2,162.6,161.7,162.0,153.3,50.4
436.0,69.2,208.4,161.1,162.0,162.1,152.5,50.8
436.5,69.6,210.0,160.9,163.9,163.1,153.5,51.2
437.0,69.2,209.6,162.2,164.1,164.0,153.8,51.4
437.5,68.6,210.0,164.0,159.9,161.2,152.8,51.5
438.0,69.1,210.8,163.2,163.0,162.2,153.7,51.7
438.5,68.6,207.2,161.8,164.5,161.1,152.6,50.8
439.0,69.6,212.1,161.5,162.2,160.5,153.2,51.7
439.5,67.6,208.9,161.8,161.7,160.4,152.1,51.5
440.0,68.3,209.9,161.5,160.7,158.9,151.8,51.4
440.5,67.7,208.3,163.8,161.5,159.8,152.2,51.4
441.0,67.4,212.4,159.3,163.2,160.7,152.6,52.6
441.5,66.1,212.7,162.7,161.5,160.2,152.6,53.3
442.0,65.2,209.3,164.0,159.4,159.2,151.4,52.6
442.5,63.1,209.7,160.9,160.2,158.8,150.5,53.4
443.0,63.3,209.3,160.3,159.5,156.1,149.7,53.1