File: 01_Data/EPDM_Membrane/Cone/EPDM_Membrane_HRRPUA_75.csv
Time after Ignition,EPDM_Membrane_R1,EPDM_Membrane_R2,EPDM_Membrane_R3,EPDM_Membrane_R4,Mean,Std. Dev.
0.0,19.4,9.2,14.0,12.5,13.8,4.2
0.5,25.3,17.7,28.4,15.3,21.7,6.2
1.0,30.2,24.5,39.2,22.9,29.2,7.4
1.5,37.1,41.7,55.9,32.8,41.9,10.0
2.0,46.8,56.1,76.7,62.8,60.6,12.6
2.5,57.4,75.3,92.0,83.7,77.1,14.8
3.0,70.7,90.4,113.3,125.2,99.9,24.3
3.5,85.9,107.5,131.1,164.3,122.2,33.6
4.0,102.6,124.5,143.0,199.4,142.4,41.4
4.5,111.8,143.0,162.2,236.9,163.5,53.2
5.0,135.5,162.5,181.4,287.4,191.7,66.5
5.5,154.7,182.5,188.9,324.9,212.7,76.2
6.0,164.3,197.2,208.8,348.6,229.7,81.5
6.5,185.6,213.1,220.2,381.9,250.2,89.1
7.0,209.3,220.7,237.6,404.2,268.0,91.6
7.5,228.6,241.2,254.1,440.4,291.1,100.1
8.0,247.9,260.3,269.2,470.9,312.1,106.3
8.5,258.3,270.4,287.4,504.3,330.1,116.8
9.0,277.5,293.9,301.6,516.6,347.4,113.2
9.5,289.6,306.6,316.6,556.1,367.2,126.4
10.0,305.9,316.7,336.1,562.3,380.2,122.0
10.5,321.8,325.7,352.3,592.8,398.1,130.5
11.0,334.5,342.1,357.8,615.4,412.4,135.7
11.5,355.3,360.8,377.0,627.7,430.2,132.0
12.0,372.1,368.8,392.8,634.6,442.1,128.8
12.5,382.7,382.3,403.7,667.6,459.1,139.4
13.0,401.0,396.6,404.4,683.2,471.3,141.3
13.5,430.2,407.4,419.4,685.2,485.5,133.4
14.0,446.3,419.7,421.8,709.5,499.3,140.6
14.5,472.3,442.6,428.7,692.1,508.9,123.4
15.0,489.4,452.4,438.8,728.3,527.3,135.8
15.5,504.2,463.6,471.4,735.8,543.7,129.2
16.0,508.2,485.4,483.2,730.3,551.8,119.6
16.5,519.8,478.8,492.6,707.9,549.8,106.8
17.0,546.6,498.0,503.9,732.0,570.1,110.1
17.5,553.2,508.3,507.8,728.7,574.5,105.0
18.0,548.8,515.2,520.4,753.4,584.5,113.6
18.5,564.7,535.8,518.5,749.8,592.2,106.8
19.0,565.2,515.0,525.8,750.7,589.2,109.9
19.5,563.3,524.8,523.0,761.0,593.0,113.5
20.0,581.7,536.5,542.5,732.2,598.2,91.5
20.5,595.2,551.8,552.6,744.8,611.1,91.4
21.0,599.1,544.8,554.7,746.6,611.3,93.3
21.5,588.7,553.4,566.0,742.3,612.6,87.7
22.0,623.0,574.2,559.7,729.8,621.6,77.0
22.5,606.3,564.2,572.9,729.0,618.1,76.1
23.0,604.7,551.9,567.5,735.9,615.0,83.6
23.5,614.4,572.9,582.0,739.2,627.1,76.8
24.0,604.9,583.1,571.0,723.6,620.7,70.1
24.5,617.9,568.7,585.8,693.6,616.5,55.3
25.0,627.6,571.6,581.1,712.4,623.2,64.3
25.5,603.5,578.9,572.4,691.9,611.7,55.1
26.0,620.3,573.2,566.5,702.6,615.6,62.8
26.5,615.4,572.4,578.0,700.0,616.4,58.9
27.0,617.5,572.6,588.9,668.4,611.9,42.0
27.5,629.0,577.6,585.0,681.9,618.4,48.1
28.0,607.4,571.5,578.4,665.5,605.7,42.8
28.5,618.7,579.1,563.7,670.5,608.0,47.7
29.0,616.5,583.7,554.4,668.6,605.8,49.0
29.5,600.1,574.2,583.0,653.7,602.7,35.7
30.0,617.8,575.5,568.3,653.7,603.8,39.8
30.5,608.5,572.3,543.5,644.5,592.2,43.8
31.0,601.7,573.5,576.2,631.8,595.8,27.2
31.5,610.1,581.6,550.4,621.0,590.8,31.6
32.0,620.1,569.5,583.5,630.4,600.9,29.0
32.5,610.5,572.1,551.0,626.5,590.0,34.6
33.0,599.7,581.7,569.5,609.9,590.2,18.1
33.5,625.7,579.9,559.4,618.6,595.9,31.6
34.0,617.2,583.4,554.7,619.0,593.6,30.7
34.5,606.9,579.2,534.9,599.4,580.1,32.3
35.0,608.2,580.5,533.4,589.0,577.8,31.8
35.5,597.5,568.7,542.6,597.5,576.5,26.4
36.0,587.5,573.7,537.4,584.3,570.7,23.0
36.5,593.7,581.1,538.5,593.8,576.8,26.2
37.0,584.6,578.2,543.8,574.6,570.3,18.1
37.5,596.6,581.5,547.5,571.9,574.4,20.6
38.0,579.4,578.9,513.4,555.6,556.8,31.0
38.5,577.7,577.5,532.5,559.0,561.7,21.3
39.0,575.7,565.9,537.2,552.8,557.9,16.7
39.5,579.4,560.9,548.0,545.2,558.4,15.6
40.0,567.7,570.4,516.1,554.0,552.0,25.0
40.5,558.7,573.7,533.9,541.5,552.0,17.9
41.0,558.6,573.0,532.2,534.3,549.5,19.7
41.5,557.8,555.7,528.0,530.4,543.0,16.0
42.0,549.7,567.0,526.9,539.2,545.7,17.0
42.5,549.8,555.6,527.9,522.5,539.0,16.2
43.0,554.7,563.8,533.3,531.5,545.8,16.0
43.5,550.1,569.0,524.9,527.7,542.9,20.7
44.0,558.3,543.2,525.0,530.6,539.3,14.8
44.5,553.5,558.4,533.2,518.3,540.9,18.6
45.0,529.0,553.4,514.9,526.4,530.9,16.2
45.5,548.6,531.4,521.7,515.7,529.3,14.4
46.0,536.9,542.8,523.4,512.8,529.0,13.5
46.5,532.9,537.6,505.6,496.1,518.0,20.3
47.0,520.8,536.1,514.9,508.9,520.2,11.7
47.5,527.7,532.3,519.1,505.9,521.2,11.6
48.0,531.5,537.5,514.6,511.5,523.8,12.7
48.5,522.8,535.2,508.5,505.6,518.0,13.7
49.0,508.8,546.3,507.5,495.1,514.4,22.1
49.5,513.8,553.2,496.9,502.2,516.5,25.4
50.0,502.7,544.4,477.3,498.1,505.6,28.1
50.5,516.6,536.4,494.4,488.8,509.0,21.8
51.0,513.1,527.8,496.3,475.0,503.0,22.7
51.5,502.7,528.0,507.7,491.2,507.4,15.4
52.0,501.0,524.2,490.7,481.3,499.3,18.4
52.5,512.0,516.8,492.7,482.2,500.9,16.3
53.0,497.8,517.1,493.0,469.2,494.3,19.7
53.5,499.1,511.1,493.9,461.7,491.4,21.1
54.0,494.7,517.7,493.4,478.2,496.0,16.3
54.5,499.6,519.0,494.6,466.9,495.0,21.5
55.0,500.6,501.2,481.2,469.9,488.2,15.4
55.5,495.8,505.4,480.4,476.4,489.5,13.5
56.0,492.2,508.3,477.0,460.1,484.4,20.6
56.5,485.3,515.5,476.2,464.0,485.3,22.0
57.0,485.6,496.7,481.0,460.1,480.8,15.3
57.5,482.6,504.8,483.5,459.3,482.6,18.6
58.0,485.7,503.6,490.0,452.7,483.0,21.6
58.5,481.8,502.0,482.2,447.8,478.5,22.5
59.0,490.9,487.8,474.1,456.1,477.2,15.9
59.5,482.7,493.6,479.2,452.6,477.0,17.4
60.0,480.1,485.9,482.1,452.8,475.2,15.1
60.5,473.8,492.4,475.5,444.8,471.6,19.8
61.0,471.8,504.9,476.8,450.2,475.9,22.5
61.5,456.0,492.5,459.3,445.0,463.2,20.4
62.0,470.4,482.7,466.8,454.6,468.6,11.6
62.5,470.1,499.1,463.1,444.7,469.2,22.6
63.0,468.5,494.5,461.2,441.2,466.4,22.0
63.5,462.7,500.0,468.8,433.7,466.3,27.2
64.0,471.2,495.5,466.6,429.2,465.6,27.4
64.5,460.6,486.9,469.5,429.0,461.5,24.3
65.0,467.2,496.7,469.8,435.5,467.3,25.0
65.5,463.6,489.6,459.5,432.7,461.4,23.3
66.0,458.9,497.1,462.7,420.3,459.8,31.4
66.5,469.0,493.9,469.2,437.0,467.3,23.3
67.0,459.2,490.1,466.4,430.3,461.5,24.6
67.5,448.7,499.3,440.5,429.1,454.4,31.0
68.0,446.7,497.0,462.2,427.7,458.4,29.4
68.5,452.0,487.5,455.3,426.0,455.2,25.2
69.0,456.2,489.6,458.1,436.6,460.1,21.9
69.5,450.5,488.6,459.0,424.7,455.7,26.3
70.0,446.3,476.2,459.1,426.7,452.1,20.9
70.5,443.7,480.9,472.5,430.2,456.8,23.8
71.0,448.7,480.5,458.9,429.1,454.3,21.4
71.5,447.0,473.5,445.3,429.3,448.8,18.3
72.0,440.2,476.0,459.5,418.0,448.4,25.0
72.5,446.8,476.2,463.2,417.7,451.0,25.2
73.0,448.9,477.2,462.9,414.6,450.9,26.8
73.5,440.2,480.7,467.6,418.9,451.8,27.7
74.0,445.2,468.8,456.3,415.4,446.4,22.8
74.5,447.9,476.1,457.4,411.1,448.1,27.3
75.0,451.3,473.5,452.2,412.6,447.4,25.4
75.5,441.3,477.1,449.1,409.6,444.3,27.7
76.0,453.9,467.6,459.0,408.0,447.1,26.7
76.5,441.6,475.6,462.9,409.2,447.3,29.0
77.0,438.4,472.0,438.2,414.5,440.8,23.6
77.5,432.9,468.8,457.1,403.3,440.6,29.0
78.0,437.7,473.2,450.5,405.5,441.7,28.2
78.5,438.6,473.1,440.2,403.8,438.9,28.3
79.0,440.3,475.4,454.5,405.6,444.0,29.3
79.5,448.5,474.5,453.9,403.2,445.0,30.1
80.0,437.8,484.1,455.7,402.4,445.0,34.2
80.5,428.6,475.9,448.8,399.7,438.2,32.2
81.0,433.6,477.7,451.1,402.2,441.2,31.7
81.5,427.6,484.4,462.3,395.9,442.5,38.9
82.0,438.4,475.4,456.7,392.7,440.8,35.4
82.5,432.7,482.6,452.3,402.4,442.5,33.7
83.0,429.9,472.7,463.5,409.3,443.9,29.5
83.5,436.9,467.8,461.1,401.5,441.8,30.0
84.0,429.9,460.1,446.3,409.3,436.4,21.9
84.5,431.3,473.3,465.3,404.9,443.7,31.6
85.0,440.6,470.0,450.7,397.7,439.7,30.6
85.5,431.7,469.0,462.1,392.6,438.9,34.8
86.0,434.5,469.0,457.0,403.4,441.0,28.9
86.5,431.5,476.7,459.2,391.8,439.8,37.1
87.0,426.5,478.5,459.5,398.0,440.6,35.6
87.5,434.9,477.1,452.9,397.6,440.6,33.5
88.0,425.7,464.5,458.9,394.6,435.9,32.4
88.5,440.7,468.7,464.8,399.4,443.4,31.8
89.0,432.8,466.7,451.6,390.3,435.4,33.1
89.5,438.5,468.3,454.0,393.6,438.6,32.3
90.0,435.1,469.5,465.1,412.9,445.6,26.7
90.5,433.1,465.7,460.5,392.8,438.0,33.4
91.0,434.0,471.0,458.8,401.3,441.3,30.8
91.5,433.2,455.3,449.1,393.9,432.9,27.6
92.0,431.5,467.6,464.3,400.1,440.9,31.7
92.5,418.6,466.3,451.9,399.6,434.1,30.5
93.0,440.7,459.6,462.8,400.7,441.0,28.6
93.5,427.3,463.7,457.1,397.5,436.4,30.4
94.0,431.3,469.5,476.7,400.6,444.6,35.4
94.5,427.8,461.2,460.4,398.4,437.0,30.1
95.0,431.1,469.6,468.7,392.2,440.4,36.8
95.5,433.2,460.3,458.4,397.2,437.3,29.4
96.0,433.9,455.9,471.6,404.7,441.5,29.0
96.5,430.2,461.3,459.4,407.1,439.5,25.9
97.0,437.1,465.3,469.3,400.0,442.9,32.0
97.5,431.6,464.4,464.9,413.4,443.6,25.4
98.0,442.4,467.9,468.8,400.5,444.9,32.0
98.5,432.1,457.8,461.0,417.6,442.1,20.9
99.0,437.9,459.8,457.9,405.0,440.2,25.4
99.5,434.2,462.1,469.2,412.6,444.5,26.1
100.0,435.9,465.8,460.2,410.4,443.1,25.4
100.5,436.7,454.4,464.5,409.5,441.3,24.1
101.0,439.1,462.8,459.5,415.9,444.3,21.6
101.5,436.8,461.4,456.8,412.7,441.9,22.2
102.0,438.7,455.5,459.7,416.6,442.6,19.6
102.5,435.9,450.5,451.4,413.8,437.9,17.6
103.0,441.4,453.0,457.1,411.8,440.8,20.5
103.5,441.3,460.3,461.7,419.0,445.5,20.0
104.0,437.4,460.0,471.7,423.7,448.2,21.7
104.5,439.4,458.2,457.2,425.0,444.9,15.8
105.0,428.6,454.6,468.4,419.1,442.7,22.8
105.5,446.0,459.8,478.4,419.0,450.8,25.0
106.0,438.1,454.2,457.1,419.9,442.3,17.1
106.5,440.5,458.2,463.5,423.3,446.4,18.3
107.0,435.5,467.3,463.1,431.3,449.3,18.5
107.5,434.6,452.3,467.9,424.3,444.8,19.3
108.0,437.0,458.0,449.6,437.6,445.5,10.2
108.5,438.5,458.2,459.8,435.0,447.9,12.9
109.0,448.1,470.4,446.0,436.4,450.2,14.4
109.5,430.6,465.6,468.7,440.3,451.3,18.8
110.0,435.6,462.1,470.1,441.4,452.3,16.4
110.5,445.7,467.6,473.5,444.9,457.9,14.8
111.0,445.5,467.7,461.5,449.7,456.1,10.3
111.5,442.1,467.7,461.0,453.8,456.1,10.9
112.0,447.7,469.0,457.0,443.7,454.4,11.3
112.5,446.7,459.2,474.2,449.0,457.3,12.5
113.0,450.4,468.5,464.3,446.7,457.5,10.6
113.5,449.9,470.6,470.9,453.0,461.1,11.2
114.0,448.4,462.8,467.5,464.0,460.7,8.4
114.5,444.7,467.0,467.6,452.5,458.0,11.2
115.0,447.1,459.8,468.6,466.1,460.4,9.6
115.5,447.6,470.6,460.4,469.5,462.0,10.7
116.0,445.0,453.1,469.7,457.2,456.2,10.3
116.5,454.1,466.7,467.8,470.5,464.8,7.3
117.0,441.5,473.6,473.9,487.1,469.0,19.4
117.5,446.8,473.0,474.2,470.3,466.1,12.9
118.0,460.7,474.1,470.5,482.4,471.9,9.0
118.5,455.8,475.2,481.1,494.9,476.7,16.2
119.0,457.4,478.8,475.5,499.8,477.9,17.4
119.5,462.3,486.1,485.3,512.3,486.5,20.4
120.0,458.6,479.7,473.2,522.6,483.5,27.5
120.5,463.7,483.6,479.0,528.1,488.6,27.7
121.0,468.1,483.9,481.8,537.7,492.9,30.7
121.5,468.9,497.7,496.8,551.6,503.8,34.6
122.0,469.1,494.4,476.6,570.8,502.7,46.6
122.5,466.1,502.8,490.4,581.8,510.3,50.0
123.0,472.8,488.2,499.5,584.2,511.2,49.9
123.5,474.2,509.1,503.2,588.0,518.6,48.7
124.0,478.0,507.5,508.3,614.6,527.1,60.0
124.5,482.1,510.6,526.5,620.4,534.9,59.9
125.0,489.8,514.4,535.9,641.8,545.5,66.9
125.5,496.0,496.0,547.2,648.5,546.9,71.9
126.0,481.7,519.4,544.3,642.3,546.9,68.6
126.5,496.5,525.1,541.3,668.3,557.8,76.0
127.0,494.1,523.7,593.0,668.6,569.8,77.8
127.5,507.1,542.9,571.1,694.5,578.9,81.4
128.0,505.8,542.1,578.7,693.4,580.0,81.3
128.5,522.4,541.6,612.0,712.0,597.0,85.8
129.0,507.2,547.2,591.5,716.3,590.5,90.6
129.5,521.3,550.1,602.4,735.0,602.2,94.7
130.0,523.1,549.4,623.8,739.5,608.9,96.9
130.5,538.8,556.8,626.6,769.1,622.8,104.6
131.0,547.3,573.0,602.8,757.2,620.1,94.2
131.5,546.6,565.1,634.2,804.8,637.7,117.6
132.0,551.8,570.7,638.1,820.8,645.4,122.7
132.5,561.7,573.6,644.1,790.4,642.4,105.1
133.0,563.3,571.1,650.4,816.6,650.3,117.6
133.5,569.5,582.4,635.9,807.5,648.8,109.6
134.0,579.7,586.3,642.0,823.4,657.9,113.9
134.5,584.7,577.1,657.9,813.3,658.2,109.6
135.0,587.7,589.0,625.7,799.1,650.4,100.7
135.5,579.1,588.5,654.6,797.8,655.0,101.0
136.0,556.4,592.0,626.6,812.5,646.9,114.1
136.5,590.7,593.3,643.2,812.1,659.8,104.3
137.0,589.7,605.7,631.2,812.5,659.8,103.3
137.5,597.5,593.5,614.0,795.1,650.0,97.1
138.0,580.0,593.8,648.1,786.6,652.1,94.3
138.5,588.0,600.4,627.4,777.6,648.3,87.7
139.0,586.9,593.8,639.4,796.4,654.1,97.7
139.5,585.3,596.6,644.6,772.6,649.8,85.8
140.0,584.6,603.4,629.6,770.5,647.0,84.3
140.5,581.4,597.8,641.5,769.0,647.4,84.9
141.0,561.5,592.5,645.2,763.8,640.7,89.0
141.5,579.0,583.9,639.3,735.5,634.4,72.7
142.0,561.2,582.8,648.1,741.7,633.5,81.1
142.5,577.7,586.2,636.5,728.5,632.2,69.2
143.0,557.8,587.8,630.7,729.5,626.4,74.9
143.5,569.6,580.1,618.5,675.5,610.9,47.9
144.0,545.6,582.3,617.2,688.5,608.4,60.9
144.5,548.4,568.9,620.6,673.6,602.9,56.1
145.0,532.6,575.8,605.0,667.0,595.1,56.4
145.5,543.0,578.3,610.1,671.9,600.8,54.7
146.0,538.0,564.2,612.2,663.4,594.5,55.3
146.5,536.5,569.1,574.9,642.5,580.7,44.5
147.0,530.7,538.0,587.0,643.3,574.7,52.1
147.5,526.8,555.1,595.6,623.8,575.3,42.9
148.0,526.6,554.1,590.6,615.5,571.7,39.2
148.5,510.9,564.0,578.6,612.1,566.4,42.1
149.0,528.1,557.2,571.7,594.4,562.9,27.8
149.5,528.7,546.1,549.7,590.9,553.8,26.4
150.0,521.3,547.9,557.5,573.3,550.0,21.8
150.5,522.0,546.1,548.1,571.8,547.0,20.3
151.0,519.5,554.1,558.2,565.9,549.4,20.6
151.5,521.7,540.5,534.1,553.6,537.5,13.3
152.0,520.7,542.3,548.6,541.9,538.4,12.2
152.5,518.4,544.9,550.2,530.0,535.9,14.4
153.0,507.0,542.6,538.9,525.4,528.5,16.1
153.5,511.8,532.6,524.4,535.8,526.1,10.7
154.0,510.0,542.0,530.0,524.7,526.7,13.3
154.5,509.7,534.0,521.1,519.7,521.1,10.0
155.0,515.1,532.2,529.3,504.6,520.3,12.9
155.5,503.5,521.0,524.6,516.1,516.3,9.2
156.0,508.5,525.0,530.9,502.9,516.8,13.2
156.5,495.6,523.0,529.9,507.5,514.0,15.4
157.0,508.4,518.7,516.2,495.4,509.7,10.5
157.5,507.9,523.6,532.3,502.7,516.6,13.7
158.0,498.0,524.8,516.1,495.9,508.7,14.1
158.5,507.4,517.1,529.8,501.7,514.0,12.3
159.0,497.3,513.8,511.3,487.4,502.4,12.4
159.5,503.0,511.5,519.3,490.6,506.1,12.3
160.0,503.1,515.3,507.8,484.9,502.8,12.9
160.5,501.0,520.8,508.5,485.7,504.0,14.7
161.0,498.0,507.4,521.3,492.6,504.8,12.5
161.5,494.9,508.8,504.1,498.7,501.6,6.1
162.0,504.7,502.6,520.9,485.2,503.3,14.6
162.5,504.6,504.8,510.5,484.6,501.1,11.4
163.0,490.5,503.1,513.8,500.4,502.0,9.6
163.5,501.3,503.8,521.3,494.1,505.1,11.6
164.0,493.5,506.0,519.3,493.5,503.1,12.3
164.5,500.3,502.6,533.7,490.5,506.8,18.7
165.0,507.9,512.9,514.1,494.5,507.4,9.0
165.5,504.8,499.2,500.6,496.9,500.4,3.3
166.0,497.8,499.0,506.2,486.5,497.4,8.1
166.5,485.5,491.6,505.5,493.8,494.1,8.3
167.0,498.8,506.0,519.1,496.2,505.0,10.3
167.5,488.4,500.8,513.9,500.2,500.8,10.4
168.0,498.6,496.7,516.7,495.3,501.8,10.0
168.5,495.5,486.9,509.2,486.9,494.6,10.5
169.0,499.5,485.7,511.4,490.6,496.8,11.3
169.5,503.0,500.9,497.2,486.5,496.9,7.4
170.0,510.4,488.5,502.2,479.0,495.0,14.0
170.5,491.2,491.5,508.6,473.7,491.3,14.2
171.0,497.4,480.0,499.6,484.1,490.3,9.7
171.5,499.4,493.7,502.5,481.1,494.2,9.4
172.0,495.9,491.6,490.5,473.0,487.8,10.1
172.5,499.2,487.6,515.4,478.5,495.2,15.9
173.0,513.4,483.2,486.7,487.4,492.7,13.9
173.5,503.3,489.3,492.7,483.3,492.2,8.4
174.0,485.5,481.3,483.4,477.2,481.8,3.5
174.5,502.4,475.7,490.6,479.9,487.2,11.9
175.0,507.4,480.9,479.8,476.4,486.1,14.3
175.5,506.9,482.3,483.4,478.2,487.7,13.0
176.0,503.0,470.5,491.8,473.3,484.7,15.4
176.5,498.5,478.1,482.6,472.0,482.8,11.3
177.0,492.6,482.5,475.0,485.2,483.8,7.3
177.5,497.6,478.4,482.0,480.0,484.5,8.8
178.0,499.5,478.9,468.8,469.9,479.3,14.2
178.5,494.5,477.8,472.8,477.9,480.7,9.5
179.0,504.1,473.3,473.1,474.1,481.2,15.3
179.5,499.0,475.9,472.1,464.8,477.9,14.8
180.0,488.0,475.6,462.6,460.9,471.7,12.6
180.5,497.9,476.1,450.7,463.8,472.1,20.1
181.0,491.9,466.4,448.5,463.0,467.5,18.1
181.5,492.7,473.9,462.8,458.9,472.1,15.2
182.0,503.5,473.7,455.9,464.3,474.4,20.8
182.5,493.8,467.1,460.4,458.3,469.9,16.4
183.0,492.1,468.0,459.4,448.3,467.0,18.6
183.5,505.7,454.9,450.6,453.3,466.1,26.4
184.0,501.5,455.7,455.4,459.5,468.0,22.4
184.5,494.5,471.5,457.5,452.9,469.1,18.7
185.0,492.6,469.4,442.8,447.1,463.0,22.9
185.5,488.9,456.4,450.6,450.2,461.5,18.5
186.0,483.3,455.5,444.9,456.6,460.1,16.3
186.5,485.1,452.1,450.2,454.5,460.4,16.5
187.0,481.1,454.5,448.5,446.0,457.5,16.1
187.5,484.0,455.2,450.1,441.5,457.7,18.4
188.0,476.8,447.8,452.8,444.0,455.3,14.8
188.5,474.1,461.2,445.9,445.4,456.7,13.7
189.0,479.4,453.8,441.4,439.3,453.5,18.4
189.5,469.8,454.3,442.9,436.5,450.9,14.6
190.0,465.8,448.0,448.9,436.7,449.9,12.0
190.5,475.2,447.7,436.4,426.8,446.5,20.9
191.0,476.6,450.7,437.5,430.7,448.9,20.3
191.5,462.3,447.1,441.4,423.4,443.6,16.1
192.0,468.3,447.8,442.0,427.1,446.3,17.0
192.5,469.1,443.9,435.8,419.3,442.0,20.7
193.0,469.2,441.1,446.2,418.0,443.6,21.0
193.5,467.1,444.2,434.0,412.5,439.5,22.7
194.0,474.2,436.2,439.7,411.5,440.4,25.8
194.5,459.7,444.5,432.6,408.8,436.4,21.5
195.0,466.1,448.7,433.7,404.7,438.3,26.0
195.5,468.9,440.2,432.6,404.5,436.6,26.5
196.0,465.0,433.4,435.9,402.6,434.2,25.5
196.5,462.2,434.7,431.3,401.0,432.3,25.0
197.0,454.1,434.6,439.2,393.4,430.3,26.0
197.5,460.7,428.4,438.2,397.5,431.2,26.2
198.0,453.5,441.5,433.9,392.2,430.3,26.7
198.5,454.9,433.1,416.7,387.8,423.1,28.3
199.0,452.1,427.1,430.6,391.9,425.4,24.9
199.5,459.8,431.9,423.9,397.3,428.2,25.8
200.0,455.4,423.9,428.0,383.0,422.6,29.9
200.5,445.5,425.7,425.4,380.6,419.3,27.5
201.0,457.9,433.1,431.7,387.7,427.6,29.2
201.5,445.5,423.9,426.2,375.1,417.7,30.0
202.0,451.1,431.4,430.4,375.7,422.1,32.4
202.5,448.0,426.1,440.0,380.3,423.6,30.3
203.0,453.7,427.7,430.4,370.8,420.7,35.2
203.5,448.1,433.3,422.1,367.8,417.8,35.0
204.0,442.7,434.1,425.9,368.8,417.9,33.4
204.5,447.9,426.2,430.3,365.7,417.5,35.8
205.0,442.3,419.6,421.8,361.4,411.3,34.8
205.5,441.5,428.1,413.9,368.9,413.1,31.5
206.0,442.8,415.5,418.6,362.3,409.8,33.9
206.5,443.4,430.0,410.3,357.5,410.3,37.7
207.0,444.8,427.5,427.7,360.8,415.2,37.1
207.5,450.1,425.1,425.7,353.2,413.5,41.9
208.0,437.5,433.8,429.8,360.1,415.3,37.0
208.5,438.5,425.5,434.1,350.5,412.2,41.5
209.0,443.7,423.7,431.3,353.3,413.0,40.6
209.5,435.2,427.6,432.2,352.3,411.8,39.8
210.0,432.8,428.5,425.5,351.7,409.6,38.7
210.5,447.3,429.3,435.9,355.1,416.9,41.9
211.0,449.0,423.3,434.1,351.2,414.4,43.4
211.5,441.2,423.5,427.7,353.6,411.5,39.4
212.0,439.9,428.8,429.9,347.6,411.5,42.9
212.5,439.1,426.9,431.2,351.0,412.0,41.0
213.0,438.8,419.4,426.2,350.8,408.8,39.5
213.5,436.7,434.2,438.4,349.0,414.6,43.8
214.0,435.2,429.1,431.1,350.1,411.4,40.9
214.5,448.0,425.9,430.7,348.9,413.4,44.0
215.0,436.5,422.5,434.5,346.6,410.0,42.8
215.5,433.6,426.1,435.6,345.5,410.2,43.3
216.0,439.3,425.8,431.8,344.1,410.2,44.5
216.5,440.8,426.7,446.5,342.1,414.0,48.7
217.0,439.6,423.4,436.0,345.3,411.1,44.4
217.5,444.6,417.8,429.4,338.2,407.5,47.5
218.0,441.3,422.9,437.7,338.0,410.0,48.7
218.5,429.5,427.0,434.2,338.1,407.2,46.2
219.0,440.1,430.6,425.4,339.5,408.9,46.7
219.5,434.8,423.2,428.2,335.7,405.5,46.7
220.0,439.5,426.5,443.1,338.3,411.8,49.5
220.5,433.6,426.5,431.9,339.9,408.0,45.5
221.0,440.4,425.1,440.5,335.9,410.5,50.2
221.5,434.5,432.8,441.0,337.4,411.4,49.5
222.0,440.9,419.4,444.9,339.3,411.1,49.2
222.5,439.2,419.5,429.4,333.4,405.4,48.7
223.0,442.4,425.0,438.0,339.0,411.1,48.6
223.5,433.4,418.5,429.1,343.7,406.2,42.1
224.0,434.5,419.1,447.4,343.8,411.2,46.4
224.5,430.9,424.8,435.1,343.2,408.5,43.7
225.0,437.7,416.4,445.5,349.0,412.1,43.9
225.5,435.9,421.0,451.3,345.6,413.5,46.9
226.0,435.4,430.1,446.2,345.7,414.3,46.3
226.5,430.2,425.3,451.3,346.4,413.3,46.0
227.0,433.7,421.0,440.9,360.7,414.1,36.5
227.5,437.3,431.5,445.4,355.4,417.4,41.7
228.0,426.8,424.6,437.3,355.0,410.9,37.7
228.5,442.5,424.4,444.9,353.9,416.4,42.7
229.0,436.1,422.3,451.1,361.1,417.6,39.5
229.5,431.5,423.5,444.2,366.3,416.4,34.5
230.0,427.0,427.6,453.7,357.4,416.4,41.3
230.5,437.2,432.9,455.4,361.2,421.7,41.5
231.0,428.9,433.0,454.1,359.3,418.8,41.2
231.5,438.0,427.2,450.2,357.8,418.3,41.4
232.0,434.3,428.4,450.8,361.9,418.8,39.2
232.5,436.3,433.9,450.5,357.8,419.6,41.9
233.0,439.3,421.6,452.7,366.8,420.1,37.7
233.5,433.6,429.9,456.6,362.7,420.7,40.4
234.0,433.2,424.6,446.2,356.5,415.1,40.1
234.5,434.6,427.1,447.1,364.8,418.4,36.7
235.0,443.7,425.8,455.6,357.6,420.7,43.8
235.5,437.0,427.0,444.2,360.7,417.2,38.3
236.0,438.7,427.1,461.0,364.6,422.8,41.3
236.5,434.4,430.7,457.4,357.7,420.0,43.2
237.0,440.2,431.6,452.6,360.1,421.1,41.6
237.5,436.9,428.8,458.4,363.1,421.8,41.1
238.0,444.9,426.0,462.2,362.7,424.0,43.4
238.5,438.9,429.6,451.6,364.2,421.1,39.0
239.0,439.1,428.9,455.0,362.4,421.3,40.7
239.5,438.8,424.8,449.1,363.0,418.9,38.6
240.0,439.5,432.3,458.7,357.9,422.1,44.2
240.5,438.5,435.4,447.8,359.2,420.2,41.0
241.0,444.1,418.3,451.2,361.2,418.7,40.8
241.5,443.8,431.0,452.7,364.0,422.9,40.3
242.0,437.1,429.1,448.4,360.2,418.7,39.8
242.5,441.7,417.8,451.0,365.7,419.1,38.2
243.0,443.5,432.0,460.0,361.0,424.1,43.6
243.5,441.7,431.2,450.1,358.2,420.3,42.1
244.0,450.6,430.7,448.0,356.7,421.5,44.1
244.5,439.8,432.8,446.0,357.6,419.1,41.3
245.0,448.7,429.3,437.2,358.0,418.3,41.0
245.5,446.5,432.4,447.0,351.7,419.4,45.6
246.0,446.2,435.0,436.8,352.2,417.6,43.8
246.5,447.8,427.8,435.6,357.5,417.2,40.6
247.0,439.2,435.5,440.1,357.0,417.9,40.7
247.5,444.8,430.9,440.0,358.1,418.5,40.6
248.0,447.7,432.4,433.2,352.9,416.6,43.0
248.5,442.7,439.4,426.5,358.7,416.8,39.4
249.0,456.3,431.1,440.7,351.3,419.8,46.8
249.5,447.5,430.5,429.0,352.9,415.0,42.2
250.0,449.4,423.1,418.8,357.9,412.3,38.7
250.5,443.2,419.8,426.9,354.1,411.0,39.2
251.0,455.3,424.6,423.5,350.6,413.5,44.4
251.5,453.2,426.8,404.1,356.5,410.2,41.0
252.0,459.6,415.5,415.4,360.0,412.6,40.8
252.5,460.2,416.9,414.8,350.7,410.7,45.1
253.0,441.2,414.4,421.4,350.8,407.0,39.1
253.5,454.1,411.8,429.5,353.3,412.2,42.9
254.0,459.6,420.1,416.4,344.5,410.1,47.9
254.5,454.3,428.4,416.7,348.9,412.1,45.0
255.0,447.4,424.0,427.8,341.3,410.1,47.0
255.5,447.9,412.7,427.4,344.4,408.1,44.8
256.0,449.8,418.6,419.6,346.0,408.5,44.1
256.5,448.3,413.6,418.9,344.8,406.4,43.8
257.0,456.3,418.0,414.2,345.8,408.6,46.0
257.5,454.8,407.9,414.8,339.4,404.2,47.9
258.0,456.2,411.0,418.0,340.2,406.3,48.4
258.5,455.8,400.4,409.8,335.2,400.3,49.7
259.0,459.0,413.9,409.9,339.4,405.5,49.4
259.5,459.0,407.8,410.0,347.1,406.0,45.8
260.0,463.0,409.7,410.8,338.7,405.6,51.0
260.5,463.0,409.8,407.7,335.7,404.0,52.3
261.0,462.3,411.0,408.7,338.4,405.1,50.9
261.5,459.1,403.9,413.7,335.7,403.1,51.0
262.0,468.0,407.8,407.1,334.5,404.3,54.7
262.5,465.8,405.9,408.8,339.8,405.1,51.5
263.0,459.0,400.2,405.2,335.3,399.9,50.6
263.5,466.2,404.4,396.1,329.9,399.2,55.8
264.0,460.1,411.3,403.0,334.2,402.2,51.8
264.5,466.8,398.3,392.7,327.1,396.2,57.1
265.0,472.0,402.8,398.2,324.9,399.5,60.1
265.5,476.0,397.5,400.1,332.3,401.5,58.8
266.0,462.7,396.5,407.2,328.4,398.7,55.1
266.5,465.4,396.0,400.9,324.2,396.6,57.7
267.0,457.6,394.0,397.6,324.0,393.3,54.6
267.5,466.8,384.4,381.1,325.4,389.4,58.2
268.0,468.3,391.0,394.4,322.7,394.1,59.5
268.5,468.3,387.2,397.6,318.6,392.9,61.3
269.0,468.9,384.7,383.9,316.8,388.6,62.3
269.5,469.4,385.7,392.2,318.8,391.5,61.6
270.0,465.0,380.9,390.6,317.7,388.5,60.3
270.5,462.3,378.8,391.2,319.7,388.0,58.5
271.0,465.6,376.9,380.6,313.5,384.2,62.4
271.5,448.6,377.9,387.7,312.8,381.7,55.6
272.0,465.7,375.6,391.6,315.7,387.2,61.7
272.5,468.6,375.5,384.2,310.4,384.7,64.9
273.0,479.3,376.1,383.8,310.8,387.5,69.4
273.5,462.7,369.8,380.4,307.2,380.0,63.9
274.0,463.7,376.0,376.8,310.6,381.8,62.8
274.5,462.9,376.2,371.7,309.7,380.1,63.0
275.0,459.1,367.2,369.7,309.3,376.3,61.8
275.5,469.1,374.3,372.0,314.1,382.4,64.2
276.0,470.9,363.4,371.0,309.4,378.7,67.3
276.5,465.1,372.9,364.0,304.0,376.5,66.5
277.0,459.0,365.4,372.8,303.2,375.1,64.1
277.5,465.3,361.1,358.8,304.1,372.3,67.4
278.0,467.2,365.5,373.5,304.1,377.6,67.3
278.5,458.8,367.9,360.1,302.1,372.2,64.8
279.0,466.9,357.9,375.1,302.6,375.6,68.3
279.5,460.2,359.4,362.8,297.0,369.8,67.4
280.0,452.3,361.6,358.8,294.8,366.9,64.8
280.5,458.4,361.5,366.8,292.9,369.9,68.0
281.0,458.3,355.8,349.2,289.1,363.1,70.2
281.5,457.0,358.4,353.5,294.0,365.7,67.5
282.0,455.9,352.2,349.3,287.7,361.3,69.7
282.5,451.0,349.5,349.7,290.0,360.1,66.8
283.0,461.8,355.7,344.9,285.4,362.0,73.4
283.5,452.1,356.7,343.7,280.6,358.3,70.8
284.0,451.4,343.3,349.4,278.7,355.7,71.4
284.5,454.3,348.8,344.2,280.8,357.0,71.9
285.0,444.8,347.7,342.8,283.9,354.8,66.6
285.5,455.1,346.1,337.2,278.6,354.3,73.6
286.0,448.6,344.8,338.2,278.7,352.6,70.6
286.5,448.0,342.9,337.4,274.1,350.6,72.0
287.0,444.6,343.5,336.1,273.6,349.4,70.8
287.5,455.0,338.1,338.6,274.8,351.6,75.2
288.0,448.1,339.8,332.7,268.6,347.3,74.4
288.5,450.1,330.3,327.3,269.4,344.3,75.9
289.0,452.4,332.3,332.8,265.3,345.7,77.9
289.5,441.6,331.7,327.9,264.5,341.4,73.5
290.0,444.7,326.2,319.4,263.0,338.3,76.3
290.5,445.1,331.0,321.6,258.0,338.9,77.9
291.0,437.2,327.6,313.5,262.0,335.1,73.7
291.5,434.7,328.7,319.7,256.3,334.8,73.9
292.0,428.7,321.1,313.7,255.4,329.7,72.2
292.5,434.3,323.3,316.7,256.7,332.7,74.0
293.0,424.7,321.9,310.6,254.7,328.0,70.8
293.5,428.7,320.9,312.9,255.8,329.6,72.2
294.0,423.2,320.8,311.2,254.9,327.5,70.1
294.5,425.5,315.1,306.4,254.8,325.4,71.8
295.0,416.9,315.4,306.6,250.1,322.3,69.4
295.5,418.8,311.7,300.6,249.9,320.2,71.0
296.0,413.9,312.7,305.9,247.5,320.0,69.1
296.5,417.0,310.3,301.8,246.3,318.9,71.3
297.0,417.7,309.9,300.5,245.8,318.5,71.9
297.5,411.9,310.7,302.3,242.0,316.7,70.4
298.0,405.8,308.9,299.5,244.2,314.6,67.2
298.5,410.4,306.5,296.3,242.4,313.9,70.2
299.0,406.2,308.3,285.9,244.5,311.2,68.6
299.5,403.1,303.7,295.6,240.9,310.8,67.5
300.0,399.3,302.6,293.5,241.0,309.1,66.0
300.5,403.6,305.0,292.3,240.4,310.3,68.1
301.0,395.8,300.5,291.2,237.2,306.2,66.0
301.5,390.7,300.3,284.9,234.1,302.5,65.2
302.0,393.1,297.8,287.4,236.8,303.8,65.2
302.5,397.4,299.1,289.4,234.6,305.1,67.8
303.0,386.8,296.5,285.1,231.3,299.9,64.5
303.5,391.7,295.7,277.5,225.3,297.6,69.5
304.0,388.6,290.7,284.2,223.8,296.8,68.2
304.5,384.1,293.9,286.8,228.3,298.3,64.4
305.0,380.4,289.7,292.6,226.9,297.4,63.1
305.5,374.9,292.1,282.6,221.2,292.7,63.2
306.0,386.7,290.4,277.9,222.9,294.5,68.1
306.5,373.5,288.8,280.5,223.9,291.7,61.7
307.0,372.8,289.0,277.9,219.8,289.9,63.1
307.5,373.7,284.6,273.1,223.1,288.6,62.7
308.0,364.0,282.1,277.1,218.7,285.5,59.7
308.5,366.2,286.6,279.2,218.3,287.6,60.7
309.0,370.2,283.4,275.4,217.4,286.6,63.0
309.5,358.8,280.9,270.8,217.2,281.9,58.4
310.0,359.9,279.8,269.8,217.5,281.8,58.8
310.5,355.1,282.5,269.5,215.2,280.6,57.6
311.0,356.1,279.2,265.2,215.0,278.9,58.4
311.5,357.1,277.2,263.9,208.9,276.8,61.2
312.0,350.6,277.7,263.4,210.5,275.5,57.8
312.5,350.5,276.9,264.5,209.4,275.3,58.1
313.0,348.4,273.7,264.4,208.8,273.8,57.4
313.5,344.8,273.2,263.1,206.6,271.9,56.8
314.0,338.7,272.5,259.1,211.6,270.5,52.5
314.5,341.9,273.3,259.3,208.6,270.8,55.0
315.0,336.5,274.8,258.5,206.8,269.1,53.5
315.5,335.9,270.1,251.3,207.9,266.3,53.2
316.0,333.5,262.7,255.7,204.4,264.1,53.1
316.5,327.2,271.2,252.8,203.1,263.6,51.3
317.0,326.3,271.0,258.9,203.0,264.8,50.6
317.5,328.1,270.6,252.7,203.2,263.6,51.6
318.0,330.6,268.8,246.9,201.5,262.0,53.7
318.5,320.6,266.6,252.9,197.2,259.3,50.7
319.0,319.9,266.8,245.2,198.9,257.7,50.2
319.5,319.5,264.7,251.2,195.1,257.6,51.1
320.0,316.3,265.4,246.1,195.2,255.8,50.1
320.5,317.5,268.3,243.7,194.2,255.9,51.3
321.0,309.6,264.3,237.6,196.7,252.1,47.4
321.5,311.1,259.8,244.7,194.1,252.4,48.2
322.0,313.3,264.0,247.9,194.8,255.0,48.9
322.5,307.0,258.8,241.4,192.1,249.8,47.5
323.0,305.0,262.6,243.5,192.3,250.8,46.8
323.5,304.8,258.2,240.2,190.3,248.4,47.3
324.0,304.3,253.4,237.4,190.2,246.3,47.1
324.5,301.4,256.9,239.4,190.1,247.0,46.0
325.0,300.3,252.6,235.8,186.4,243.8,47.0
325.5,301.7,256.1,232.6,189.2,244.9,46.9
326.0,293.8,254.9,233.7,188.0,242.6,44.1
326.5,296.8,255.3,233.8,185.9,242.9,46.2
327.0,290.1,252.6,234.4,184.1,240.3,44.1
327.5,288.1,250.5,230.3,186.3,238.8,42.4
328.0,283.4,252.3,233.0,185.0,238.4,41.2
328.5,283.4,253.1,230.1,182.6,237.3,42.5
329.0,283.7,249.3,227.7,180.9,235.4,43.0
329.5,280.5,247.9,226.8,179.2,233.6,42.5
330.0,283.2,249.6,229.8,181.5,236.0,42.5
330.5,280.3,244.6,224.6,181.3,232.7,41.3
331.0,275.3,248.1,223.0,179.7,231.5,40.6
331.5,273.1,245.3,222.9,179.7,230.3,39.4
332.0,271.4,245.2,219.7,178.8,228.8,39.5
332.5,268.6,243.9,219.3,179.2,227.8,38.1
333.0,268.0,245.6,219.6,177.8,227.8,38.7
333.5,265.3,245.5,215.3,176.7,225.7,38.6
334.0,263.8,242.3,216.4,175.1,224.4,38.2
334.5,262.9,241.3,217.0,173.5,223.7,38.3
335.0,261.2,239.6,218.2,175.0,223.5,36.8
335.5,260.8,242.1,214.9,173.5,222.8,37.9
336.0,256.6,237.3,215.4,172.8,220.5,36.0
336.5,254.7,236.4,214.1,172.4,219.4,35.4
337.0,254.8,236.9,207.6,174.6,218.5,35.1
337.5,253.7,236.0,210.1,170.9,217.7,36.0
338.0,253.2,232.9,209.0,174.6,217.4,33.8
338.5,248.9,234.7,210.1,174.1,216.9,32.8
339.0,251.8,232.8,208.1,171.4,216.0,34.7
339.5,247.3,230.5,206.3,170.6,213.7,33.3
340.0,244.6,227.5,203.0,169.9,211.3,32.4
340.5,246.5,226.5,205.7,169.3,212.0,33.0
341.0,242.8,228.9,202.9,167.0,210.4,33.3
341.5,242.5,227.6,199.8,168.0,209.5,32.8
342.0,240.4,228.4,199.3,166.9,208.8,32.8
342.5,236.3,227.7,199.8,167.9,207.9,30.9
343.0,233.4,227.5,197.6,169.2,206.9,29.7
343.5,234.1,226.6,197.3,166.6,206.2,30.8
344.0,231.3,226.1,196.3,166.8,205.1,29.8
344.5,231.0,224.3,196.1,167.5,204.7,29.0
345.0,230.6,225.5,194.4,167.5,204.5,29.4
345.5,229.6,220.0,193.0,165.3,202.0,29.0
346.0,228.5,221.8,193.1,164.5,202.0,29.3
346.5,223.6,220.0,192.8,165.7,200.5,27.0
347.0,225.3,219.9,189.0,163.5,199.4,28.8
347.5,226.2,217.8,189.4,161.4,198.7,29.4
348.0,219.4,214.2,187.1,162.9,195.9,26.2
348.5,222.1,216.3,189.4,162.7,197.6,27.3
349.0,219.5,211.4,185.8,163.6,195.1,25.4
349.5,218.9,216.0,186.7,162.1,195.9,26.8
350.0,216.2,213.0,183.5,161.6,193.6,25.9
350.5,217.1,214.6,181.6,162.4,193.9,26.5
351.0,215.4,212.8,181.8,162.6,193.2,25.5
351.5,211.2,210.2,176.6,162.6,190.1,24.4
352.0,215.5,210.2,178.3,161.1,191.3,26.0
352.5,211.6,210.3,181.1,159.1,190.5,25.2
353.0,206.5,208.4,178.8,158.0,187.9,24.1
353.5,209.5,209.6,177.9,159.4,189.1,24.8
354.0,204.9,208.9,177.0,162.7,188.4,22.2
354.5,205.6,208.8,175.0,157.2,186.7,24.9
355.0,201.2,201.4,176.6,157.1,184.1,21.5
355.5,203.7,203.1,177.6,155.9,185.1,22.9
356.0,199.4,204.2,171.6,157.5,183.2,22.4
356.5,200.7,200.2,171.8,156.7,182.4,21.8
357.0,200.1,199.6,170.5,156.7,181.7,21.7
357.5,198.4,200.8,171.8,156.2,181.8,21.5
358.0,198.7,201.1,170.1,156.8,181.7,21.7
358.5,196.7,198.7,172.8,155.2,180.8,20.8
359.0,197.6,197.8,169.8,154.4,179.9,21.5
359.5,195.3,197.5,168.9,155.4,179.3,20.5
360.0,192.6,194.4,169.7,153.7,177.6,19.5
360.5,196.2,195.3,165.4,153.6,177.6,21.5
361.0,191.8,192.5,165.5,153.0,175.7,19.7
361.5,191.3,194.7,165.9,152.9,176.2,20.2
362.0,188.3,193.5,165.4,153.3,175.1,19.0
362.5,189.5,192.2,165.3,153.3,175.1,18.9
363.0,186.4,190.4,160.1,153.6,172.6,18.5
363.5,187.0,191.1,158.6,153.4,172.5,19.3
364.0,185.2,188.8,161.7,151.8,171.8,18.0
364.5,184.6,191.0,158.3,151.8,171.4,19.3
365.0,185.3,189.0,157.2,153.6,171.3,18.5
365.5,183.6,189.4,158.7,152.4,171.0,18.2
366.0,182.7,190.4,155.2,152.9,170.3,19.0
366.5,182.9,186.1,156.5,150.4,169.0,18.1
367.0,180.9,186.5,153.9,151.1,168.1,18.2
367.5,179.5,187.9,153.0,153.3,168.4,18.0
368.0,177.9,185.0,155.5,149.8,167.1,17.0
368.5,175.9,184.5,154.1,153.8,167.1,15.6
369.0,177.1,183.4,153.5,150.8,166.2,16.5
369.5,177.5,185.9,151.8,154.1,167.3,17.0
370.0,174.2,182.8,150.5,151.7,164.8,16.2
370.5,176.5,181.9,151.3,152.1,165.4,16.1
371.0,174.2,183.7,147.6,152.5,164.5,17.3
371.5,175.1,179.6,147.6,150.2,163.1,16.5
372.0,173.8,178.6,144.7,148.7,161.4,17.2
372.5,170.3,177.7,144.1,152.0,161.0,15.6
373.0,170.7,177.6,146.8,151.1,161.6,14.9
373.5,171.8,175.5,145.7,149.1,160.5,15.3
374.0,168.5,175.2,143.9,151.3,159.7,14.6
374.5,168.7,173.8,145.4,147.2,158.8,14.5
375.0,167.5,172.2,143.8,147.3,157.7,14.2
375.5,169.0,173.8,144.2,149.4,159.1,14.5
376.0,164.3,173.5,142.6,147.0,156.9,14.5
376.5,165.9,171.5,141.2,146.9,156.4,14.6
377.0,165.9,169.9,139.8,145.5,155.3,14.9
377.5,162.5,171.3,141.2,145.4,155.1,14.2
378.0,163.2,168.0,137.8,143.5,153.1,14.7
378.5,162.5,169.3,135.5,144.8,153.0,15.6
379.0,160.3,169.6,138.1,142.8,152.7,14.8
379.5,162.9,169.1,134.6,143.6,152.6,16.2
380.0,161.0,166.0,134.7,143.7,151.4,14.6
380.5,160.5,166.4,134.5,145.5,151.7,14.5
381.0,160.0,166.0,134.5,141.8,150.6,14.9
381.5,158.0,163.3,131.8,142.5,148.9,14.4
382.0,156.2,162.2,134.1,141.5,148.5,12.9
382.5,155.2,164.9,131.0,142.9,148.5,14.7
383.0,155.9,162.7,132.3,140.8,147.9,13.9
383.5,153.8,160.9,131.7,144.2,147.7,12.6
384.0,153.5,165.0,129.3,139.6,146.8,15.6
384.5,153.0,161.9,129.2,141.9,146.5,14.2
385.0,150.0,159.3,127.3,139.7,144.1,13.7
385.5,152.0,158.3,125.8,141.4,144.4,14.2
386.0,149.7,158.7,127.3,140.3,144.0,13.4
386.5,149.6,157.9,130.0,138.7,144.0,12.3
387.0,149.1,155.4,124.8,139.0,142.1,13.3
387.5,149.9,154.5,126.9,138.0,142.3,12.4
388.0,147.9,153.8,127.5,140.2,142.3,11.4
388.5,146.8,152.3,124.8,140.6,141.1,11.9
389.0,145.5,152.5,123.8,140.8,140.6,12.2
389.5,144.5,153.5,125.0,139.9,140.7,11.9
390.0,145.7,150.5,123.2,138.5,139.5,11.9
390.5,145.7,150.4,122.4,139.3,139.5,12.2
391.0,144.1,149.4,121.4,138.5,138.3,12.1
391.5,145.0,147.6,120.2,141.6,138.6,12.5
392.0,142.5,148.9,119.7,139.8,137.7,12.6
392.5,143.6,146.4,120.3,138.2,137.1,11.7
393.0,144.1,147.6,119.9,140.3,138.0,12.4
393.5,142.0,146.9,118.8,141.1,137.2,12.6
394.0,141.5,144.3,117.4,139.9,135.7,12.4
394.5,139.8,144.7,117.9,138.3,135.2,11.8
395.0,138.9,145.5,115.6,138.6,134.6,13.1
395.5,140.7,142.5,114.1,138.5,133.9,13.3
396.0,137.8,141.2,115.1,138.3,133.1,12.1
396.5,138.9,141.6,113.4,136.8,132.7,13.0
397.0,138.7,139.7,112.5,137.6,132.1,13.1
397.5,138.7,139.4,112.6,138.9,132.4,13.2
398.0,134.5,138.2,111.2,137.0,130.2,12.8
398.5,134.5,137.2,111.8,138.3,130.5,12.5
399.0,135.0,137.4,112.5,138.4,130.8,12.3
399.5,135.7,134.8,110.1,137.1,129.4,12.9
400.0,134.5,136.1,111.0,137.9,129.9,12.6
400.5,133.0,134.5,109.1,135.4,128.0,12.6
401.0,132.6,136.2,108.1,136.7,128.4,13.6
401.5,133.5,135.1,107.2,137.6,128.3,14.2
402.0,131.9,133.0,106.8,135.0,126.7,13.3
402.5,130.3,134.8,105.8,137.1,127.0,14.4
403.0,132.0,132.8,104.7,136.2,126.4,14.6
403.5,130.9,133.6,101.7,137.1,125.8,16.3
404.0,129.8,131.1,101.6,133.1,123.9,15.0
404.5,128.9,130.5,102.8,135.5,124.4,14.7
405.0,129.6,129.5,102.1,133.9,123.8,14.6
405.5,129.1,130.4,103.2,135.8,124.6,14.6
406.0,128.3,130.1,101.6,134.1,123.5,14.8
406.5,127.0,128.2,102.1,135.5,123.2,14.6
407.0,128.1,129.8,100.6,134.5,123.3,15.4
407.5,128.0,128.9,98.1,133.6,122.2,16.2
408.0,126.7,129.2,100.5,132.5,122.2,14.7
408.5,126.0,127.6,97.8,132.0,120.8,15.6
409.0,125.3,126.1,98.7,133.3,120.8,15.2
409.5,122.9,125.4,99.2,132.6,120.0,14.5
410.0,124.8,124.5,96.9,131.3,119.3,15.3
410.5,122.8,122.7,97.7,133.2,119.1,15.1
411.0,123.1,122.7,97.2,129.2,118.0,14.2
411.5,121.9,122.7,95.5,131.0,117.8,15.4
412.0,122.2,122.2,95.9,129.1,117.3,14.7
412.5,122.2,121.9,97.0,130.4,117.9,14.5
413.0,120.2,119.7,95.3,131.2,116.6,15.2
413.5,118.5,119.7,94.7,129.7,115.7,14.9
414.0,119.0,119.9,95.2,131.8,116.5,15.3
414.5,120.0,117.0,93.8,131.0,115.5,15.7
415.0,118.7,117.7,93.6,130.4,115.1,15.5
415.5,118.2,117.6,92.9,130.3,114.8,15.7
416.0,117.5,116.7,91.5,130.4,114.0,16.3
416.5,116.5,115.1,92.7,129.1,113.3,15.1
417.0,115.6,115.8,91.4,127.9,112.7,15.3
417.5,116.2,115.4,92.0,129.2,113.2,15.5
418.0,115.2,113.9,91.6,129.6,112.6,15.7
418.5,114.3,114.5,91.6,127.0,111.8,14.8
419.0,114.8,113.2,88.8,129.3,111.5,16.8
419.5,115.5,111.6,91.7,128.5,111.8,15.3
420.0,114.3,111.4,88.1,126.8,110.2,16.1
420.5,112.2,110.2,88.9,128.4,109.9,16.2
421.0,112.4,111.4,88.8,128.3,110.2,16.3
421.5,111.0,110.6,88.3,126.1,109.0,15.6
422.0,110.7,109.4,87.5,126.6,108.6,16.1
422.5,110.2,109.0,87.0,127.0,108.3,16.4
423.0,111.5,108.8,86.5,126.2,108.2,16.4
423.5,110.3,109.4,84.6,126.2,107.6,17.2
424.0,109.7,109.4,85.6,126.0,107.7,16.6
424.5,109.6,107.4,84.3,127.5,107.2,17.7
425.0,109.2,108.3,84.4,127.3,107.3,17.6
425.5,108.4,106.7,84.1,125.3,106.1,16.9
426.0,108.0,105.9,83.1,123.9,105.2,16.8
426.5,108.6,106.0,83.9,124.7,105.8,16.8
427.0,106.4,104.5,82.1,123.9,104.3,17.1
427.5,106.4,105.3,83.3,123.2,104.5,16.4
428.0,105.6,105.0,82.2,123.9,104.2,17.0
428.5,106.1,104.8,81.7,122.9,103.9,16.9
429.0,106.3,103.2,82.8,122.4,103.7,16.3
429.5,106.0,103.1,81.4,121.9,103.1,16.6
430.0,104.1,103.3,81.5,120.9,102.4,16.2
430.5,105.9,100.9,81.2,122.0,102.5,16.8
431.0,104.8,101.3,79.8,120.8,101.7,16.8
431.5,103.9,100.9,79.6,120.8,101.3,16.9
432.0,102.9,100.7,79.8,122.0,101.4,17.3
432.5,103.1,99.1,78.9,120.6,100.4,17.1
433.0,102.4,99.6,76.8,121.7,100.1,18.4
433.5,102.6,98.7,79.6,121.5,100.6,17.2
434.0,102.6,97.5,79.3,121.1,100.1,17.2
434.5,102.9,97.6,79.3,119.7,99.9,16.6
435.0,103.1,98.8,78.5,122.7,100.8,18.1
435.5,102.4,96.2,77.8,118.7,98.8,16.9
436.0,102.6,97.3,77.8,119.1,99.2,17.0
436.5,101.7,95.7,77.2,120.6,98.8,17.9
437.0,101.3,95.8,76.9,118.5,98.1,17.2
437.5,101.4,95.7,76.9,118.1,98.0,17.0
438.0,99.2,95.7,76.6,116.9,97.1,16.5
438.5,98.8,95.2,76.7,117.8,97.1,16.8
439.0,98.0,94.7,75.9,117.9,96.6,17.2
439.5,97.1,95.5,74.9,118.1,96.4,17.7
440.0,98.5,94.9,74.6,118.1,96.5,17.8
440.5,96.8,94.2,74.9,116.8,95.7,17.1
441.0,96.0,94.1,74.1,119.0,95.8,18.4
441.5,95.1,92.8,74.2,119.1,95.3,18.4
442.0,95.8,92.7,72.6,117.5,94.7,18.4
442.5,95.7,92.1,72.4,119.8,95.0,19.4
443.0,94.4,91.9,72.3,118.8,94.4,19.1
443.5,93.1,91.5,72.4,119.9,94.2,19.5
444.0,93.5,92.1,70.4,117.7,93.4,19.3
444.5,93.3,90.2,71.8,118.4,93.4,19.2
445.0,93.0,91.8,68.7,118.8,93.1,20.5
445.5,91.2,89.7,70.4,118.8,92.5,19.9
446.0,92.9,89.0,68.9,117.2,92.0,19.8
446.5,90.9,90.6,69.0,116.3,91.7,19.4
447.0,90.6,89.0,69.1,116.0,91.2,19.2
447.5,91.3,89.6,67.9,117.4,91.5,20.3
448.0,90.8,88.5,67.7,116.8,90.9,20.2
448.5,88.1,88.9,67.2,117.6,90.5,20.7
449.0,87.5,88.1,66.6,116.6,89.7,20.5
449.5,88.8,87.1,67.7,115.6,89.8,19.7
450.0,87.1,87.6,66.4,115.7,89.2,20.2
450.5,87.2,87.8,67.3,116.1,89.6,20.1
451.0,86.9,86.7,66.5,114.4,88.6,19.6
451.5,86.2,86.9,66.3,114.2,88.4,19.7
452.0,85.8,86.4,66.0,113.8,88.0,19.6
452.5,86.2,85.9,66.6,114.6,88.4,19.8
453.0,86.3,84.5,65.6,114.4,87.7,20.1
453.5,85.3,85.0,65.1,114.2,87.4,20.2
454.0,85.8,84.7,63.9,113.9,87.1,20.5
454.5,84.9,84.5,64.6,114.8,87.2,20.7
455.0,84.5,83.5,64.0,114.7,86.7,20.9
455.5,84.5,83.4,64.6,113.7,86.5,20.3
456.0,83.6,81.8,63.7,114.0,85.8,20.8
456.5,82.9,81.5,64.0,115.6,86.0,21.5
457.0,82.9,81.8,63.0,113.9,85.4,21.1
457.5,83.3,81.5,62.9,113.7,85.4,21.0
458.0,82.6,80.3,64.3,112.6,85.0,20.1
458.5,81.5,79.7,63.3,112.7,84.3,20.6
459.0,81.6,80.2,63.2,113.8,84.7,21.1
459.5,81.0,79.7,61.7,113.0,83.8,21.4
460.0,80.8,79.4,63.3,112.4,84.0,20.5
460.5,80.6,79.3,61.8,112.9,83.6,21.3
461.0,80.1,78.2,62.0,111.7,83.0,20.8
461.5,80.1,78.2,62.3,111.6,83.1,20.7
462.0,79.8,77.4,62.5,112.3,83.0,21.0
462.5,78.3,76.9,62.1,112.7,82.5,21.4
463.0,78.9,76.4,62.4,110.7,82.1,20.4
463.5,79.4,76.3,61.1,111.8,82.1,21.3
464.0,76.7,75.0,61.5,111.9,81.3,21.5
464.5,78.1,75.5,62.1,111.5,81.8,21.0
465.0,77.1,74.5,60.5,110.6,80.7,21.3
465.5,77.4,73.9,60.9,111.2,80.9,21.4
466.0,76.3,73.2,61.2,111.9,80.6,21.8
466.5,76.1,72.5,59.4,111.2,79.8,22.1
467.0,77.0,72.5,59.7,111.8,80.2,22.3
467.5,76.2,72.7,60.3,111.0,80.1,21.7
468.0,74.6,71.9,59.4,111.0,79.2,22.2
468.5,74.8,71.2,60.7,109.2,79.0,21.1
469.0,73.6,69.6,59.0,108.8,77.8,21.6
469.5,73.3,71.1,58.7,110.6,78.4,22.4
470.0,72.8,70.2,58.4,111.5,78.2,23.0
470.5,73.5,70.8,58.7,109.7,78.2,22.0
471.0,73.0,70.2,58.2,108.1,77.4,21.4
471.5,73.1,69.0,57.9,108.4,77.1,21.8
472.0,71.6,70.3,57.1,107.6,76.6,21.6
472.5,72.2,69.7,57.1,108.1,76.8,21.9
473.0,71.1,68.9,57.4,107.9,76.3,21.9
473.5,71.9,68.8,57.7,107.8,76.6,21.7
474.0,71.2,67.7,56.8,108.1,75.9,22.3
474.5,71.1,67.9,55.6,108.2,75.7,22.7
475.0,70.4,67.3,56.1,105.9,74.9,21.5
475.5,70.8,67.4,56.1,109.6,76.0,23.3
476.0,71.7,67.4,56.1,108.0,75.8,22.5
476.5,69.8,67.0,56.1,109.3,75.6,23.3
477.0,69.9,67.3,55.2,106.7,74.8,22.2
477.5,69.6,67.2,56.3,106.6,74.9,21.9
478.0,69.8,66.2,55.1,106.1,74.3,22.1
478.5,69.9,65.7,55.0,107.6,74.6,22.9
479.0,69.7,65.8,55.3,106.5,74.3,22.3
479.5,69.1,64.8,54.8,106.2,73.7,22.5
480.0,68.6,64.4,54.3,106.8,73.5,23.0
480.5,69.0,63.9,54.9,105.2,73.3,22.1
481.0,69.3,62.8,55.1,105.7,73.2,22.4
481.5,69.0,62.6,54.2,106.2,73.0,22.9
482.0,67.5,63.5,55.0,105.1,72.8,22.2
482.5,68.5,62.7,53.9,104.6,72.4,22.3
483.0,67.0,62.5,53.8,105.9,72.3,23.1
483.5,67.4,62.5,53.7,104.4,72.0,22.3
484.0,67.0,63.2,52.7,104.7,71.9,22.7
484.5,66.6,62.6,53.3,103.9,71.6,22.2
485.0,67.3,61.7,53.0,103.6,71.4,22.3
485.5,67.1,62.4,52.8,102.4,71.2,21.7
486.0,66.6,62.1,52.3,103.3,71.1,22.3
486.5,67.1,61.6,52.3,102.1,70.8,21.8
487.0,66.8,61.9,51.4,103.1,70.8,22.5
487.5,65.6,61.6,51.7,102.4,70.4,22.2
488.0,65.3,61.9,52.5,101.9,70.4,21.7
488.5,65.2,61.5,51.7,101.7,70.0,21.9
489.0,64.5,61.0,51.9,101.4,69.7,21.8
489.5,64.3,61.8,52.2,101.2,69.8,21.5
490.0,64.0,61.1,52.4,102.3,69.9,22.1
490.5,64.3,61.1,52.7,100.0,69.5,20.9
491.0,63.5,61.6,52.3,99.1,69.1,20.6
491.5,63.7,60.2,52.1,100.6,69.2,21.5
492.0,62.5,60.6,52.8,100.5,69.1,21.3
492.5,62.2,60.2,52.2,100.3,68.7,21.5
493.0,62.6,59.6,52.7,100.4,68.8,21.5
493.5,61.4,59.4,53.0,100.1,68.5,21.4
494.0,62.3,59.0,53.3,101.3,69.0,21.8
494.5,62.4,59.7,51.7,99.8,68.4,21.4
495.0,62.4,58.8,53.3,100.7,68.8,21.6
495.5,61.3,58.5,53.5,100.0,68.3,21.4
496.0,61.0,58.9,52.7,99.4,68.0,21.2
496.5,61.7,59.0,54.5,99.8,68.8,20.9
497.0,61.5,58.0,54.5,100.0,68.5,21.2
497.5,61.1,58.7,54.0,100.7,68.6,21.6
498.0,61.2,58.2,53.5,100.6,68.4,21.7
498.5,61.8,57.5,53.9,100.8,68.5,21.8
499.0,61.8,57.3,53.5,100.8,68.3,21.9
499.5,61.9,57.6,54.5,102.2,69.1,22.3
500.0,62.0,56.8,54.2,99.5,68.1,21.2
500.5,62.4,56.9,53.9,100.6,68.5,21.7
501.0,60.8,57.1,53.5,100.7,68.0,22.0
501.5,61.5,57.0,53.3,100.8,68.2,22.0
502.0,61.3,56.8,53.1,99.5,67.7,21.5
502.5,61.0,57.6,52.6,99.8,67.8,21.7
503.0,61.7,56.9,52.4,98.9,67.5,21.3
503.5,61.7,56.6,52.1,99.2,67.4,21.6
504.0,61.5,57.2,52.3,98.9,67.5,21.3
504.5,61.0,56.4,51.4,98.3,66.8,21.4
505.0,59.6,56.5,51.3,98.2,66.4,21.5
505.5,60.5,56.8,51.3,97.8,66.6,21.1
506.0,60.3,56.6,52.2,97.0,66.5,20.6
506.5,59.9,56.4,51.4,97.1,66.2,20.9
507.0,60.2,56.6,50.8,98.4,66.5,21.6
507.5,60.9,56.7,51.6,97.6,66.7,21.0
508.0,60.2,56.4,51.2,95.3,65.8,20.0
508.5,60.4,56.0,51.2,97.7,66.3,21.2
509.0,60.0,56.5,51.4,97.9,66.5,21.3
509.5,60.2,56.4,50.9,96.3,65.9,20.6
510.0,60.5,56.3,50.5,97.4,66.2,21.2
510.5,60.4,55.9,50.8,95.7,65.7,20.4
511.0,60.4,56.2,51.7,96.9,66.3,20.7
511.5,60.2,56.1,51.4,97.9,66.4,21.3
512.0,60.0,55.5,51.9,96.6,66.0,20.7
512.5,59.2,55.8,51.7,97.2,66.0,21.0
513.0,59.2,55.3,51.9,96.5,65.7,20.7
513.5,58.7,55.6,51.3,96.0,65.4,20.6
514.0,59.3,54.9,,98.0,70.7,23.8
514.5,58.4,54.8,,96.8,70.0,23.3
515.0,58.2,54.8,,96.4,69.8,23.1
515.5,59.1,53.7,,96.7,69.9,23.4
516.0,57.8,54.8,,95.5,69.4,22.7
516.5,58.1,54.2,,95.2,69.2,22.6
517.0,59.4,54.9,,96.2,70.1,22.7
517.5,58.1,53.8,,95.7,69.2,23.1
518.0,57.7,54.2,,95.7,69.2,23.1
518.5,58.2,54.2,,96.1,69.5,23.1
519.0,56.7,54.3,,94.6,68.5,22.6
519.5,57.5,53.9,,95.5,69.0,23.0
520.0,57.1,54.4,,95.5,69.0,23.0
520.5,57.6,54.3,,95.1,69.0,22.7
521.0,57.7,53.8,,95.7,69.1,23.1
521.5,56.7,53.6,,94.7,68.3,22.9
522.0,57.6,53.1,,93.1,68.0,21.9
522.5,57.7,53.1,,94.4,68.4,22.6
523.0,57.4,52.8,,92.6,67.6,21.8
523.5,58.0,52.6,,93.7,68.1,22.3
524.0,56.9,52.1,,93.8,67.6,22.8
524.5,57.5,,,92.5,75.0,24.8
525.0,57.1,,,93.6,75.4,25.8
525.5,56.5,,,91.6,74.1,24.9
526.0,56.9,,,91.7,74.3,24.6
526.5,56.1,,,92.2,74.2,25.5
527.0,55.6,,,92.4,74.0,26.0
527.5,55.9,,,94.1,75.0,27.1
528.0,56.0,,,92.6,74.3,25.9
528.5,55.6,,,92.0,73.8,25.7
529.0,55.4,,,92.3,73.9,26.2
529.5,55.4,,,92.8,74.1,26.4
530.0,55.3,,,91.8,73.6,25.8
530.5,55.2,,,91.2,73.2,25.5
531.0,55.0,,,89.3,72.2,24.2
531.5,54.6,,,90.8,72.7,25.6
532.0,54.5,,,91.2,72.8,26.0
532.5,54.3,,,91.2,72.7,26.1
533.0,54.8,,,91.3,73.0,25.8
533.5,54.5,,,91.1,72.8,25.9
534.0,53.6,,,91.0,72.3,26.4
534.5,53.6,,,91.6,72.6,26.9
535.0,52.7,,,90.9,71.8,27.0
535.5,53.4,,,90.4,71.9,26.2
536.0,52.1,,,91.5,71.8,27.8
536.5,52.9,,,90.5,71.7,26.6
537.0,52.7,,,90.2,71.4,26.5
537.5,53.2,,,89.4,71.3,25.6
538.0,52.8,,,87.6,70.2,24.7
538.5,53.0,,,88.8,70.9,25.3
538.75,52.7,,,87.0,69.9,24.2