File: 01_Data/ABS/STA/N2/10K_min/ABS_STA_N2_10KData_211018_R3.csv
##Temp./Â°C,Time/min,Mass loss(subtr.2)/mg,DSC(subtr.2)/(mW/mg),Sensit./(uV/mW)
50.197,10.01,0.01052,0.01315926,1.03582
50.797,11.45865,0.009152488,0.03578992,1.0358
51.397,11.81553,0.01072671,0.05045353,1.03576
51.997,12.08555,0.009658404,0.06411946,1.03573
52.597,12.3017,0.0101841,0.07339657,1.0357
53.197,12.49292,0.01640929,0.08546137,1.03566
53.797,12.66624,0.01176672,0.09238593,1.03562
54.397,12.824,0.006940249,0.09893757,1.03558
54.997,12.97321,0.01700431,0.10603,1.03554
55.597,13.11386,0.00846144,0.11102,1.0355
56.197,13.2492,0.009520338,0.11795,1.03546
56.797,13.37885,0.01165381,0.12462,1.03541
57.397,13.5035,0.01066578,0.12739,1.03536
57.997,13.6241,0.01054608,0.13163,1.03532
58.597,13.74116,0.01393679,0.1349,1.03527
59.197,13.85556,0.0134098,0.13971,1.03521
59.797,13.96715,0.01084259,0.14393,1.03516
60.397,14.07571,0.007890395,0.14635,1.03511
60.997,14.1813,0.01255448,0.14952,1.03505
61.597,14.2853,0.01070471,0.15426,1.03499
62.197,14.38735,0.008327475,0.1573,1.03493
62.797,14.4877,0.00660721,0.16098,1.03487
63.397,14.5865,0.01325242,0.16287,1.03481
63.997,14.6832,0.01610427,0.16726,1.03475
64.597,14.77835,0.01445509,0.17257,1.03468
65.197,14.87183,0.01127497,0.17451,1.03461
65.797,14.9636,0.00776785,0.17933,1.03455
66.397,15.0547,0.01043653,0.18134,1.03448
66.997,15.1443,0.0121202,0.18569,1.0344
67.597,15.23279,0.01142618,0.18491,1.03433
68.197,15.32073,0.01123618,0.18723,1.03426
68.797,15.40754,0.01435828,0.19312,1.03418
69.397,15.49259,0.01376716,0.19482,1.0341
69.997,15.57646,0.01372183,0.19754,1.03402
70.597,15.6597,0.008119993,0.20194,1.03394
71.197,15.74223,0.01208065,0.20433,1.03386
71.797,15.8236,0.01254193,0.20694,1.03378
72.397,15.9039,0.009435511,0.20913,1.03369
72.997,15.9841,0.009158902,0.21312,1.03361
73.597,16.06448,0.01040063,0.21533,1.03352
74.197,16.1433,0.009358056,0.21836,1.03343
74.797,16.22099,0.00992717,0.21952,1.03334
75.397,16.2984,0.01180434,0.22384,1.03324
75.997,16.37538,0.01206988,0.22432,1.03315
76.597,16.45169,0.01503078,0.22805,1.03306
77.197,16.52686,0.01186002,0.22961,1.03296
77.797,16.60175,0.003276398,0.23034,1.03286
78.397,16.67631,0.01563281,0.23224,1.03276
78.997,16.75044,0.00838997,0.23393,1.03266
79.597,16.82369,0.01113259,0.23442,1.03256
80.197,16.8964,0.01597401,0.23507,1.03245
80.797,16.96866,0.01524978,0.23614,1.03235
81.397,17.0405,0.005659865,0.24008,1.03224
81.997,17.112,0.00863188,0.24086,1.03213
82.597,17.1836,0.008875628,0.24147,1.03202
83.197,17.25434,0.01391742,0.24209,1.03191
83.797,17.3251,0.01415179,0.24084,1.03179
84.397,17.39495,0.01258386,0.24176,1.03168
84.997,17.46452,0.01057922,0.24364,1.03156
85.597,17.53342,0.01186581,0.24209,1.03145
86.197,17.60227,0.0137077,0.24429,1.03133
86.797,17.67035,0.01223857,0.24501,1.03121
87.397,17.73836,0.01466462,0.24531,1.03108
87.997,17.80575,0.01451068,0.24588,1.03096
88.597,17.87346,0.01198742,0.24423,1.03084
89.197,17.9404,0.01042475,0.24717,1.03071
89.797,18.0073,0.01021201,0.24979,1.03058
90.397,18.0736,0.0115208,0.25022,1.03045
90.997,18.13978,0.01020076,0.24918,1.03032
91.597,18.2055,0.01145919,0.25098,1.03019
92.197,18.27126,0.01414925,0.25348,1.03006
92.797,18.33664,0.01472698,0.25417,1.02992
93.397,18.40188,0.01218184,0.2565,1.02979
93.997,18.46629,0.01220511,0.25697,1.02965
94.597,18.53089,0.01195453,0.26028,1.02951
95.197,18.5949,0.01321632,0.2616,1.02937
95.797,18.65908,0.009363372,0.26348,1.02923
96.397,18.72263,0.007982223,0.2667,1.02908
96.997,18.78601,0.01250349,0.26817,1.02894
97.597,18.84936,0.01443011,0.27088,1.02879
98.197,18.91242,0.01546989,0.27192,1.02865
98.797,18.97579,0.01549512,0.2752,1.0285
99.397,19.03869,0.01311947,0.27805,1.02835
99.997,19.1015,0.009792868,0.27868,1.0282
100.597,19.16398,0.009865445,0.28076,1.02804
101.197,19.2262,0.01272965,0.28178,1.02789
101.797,19.28846,0.01026104,0.28327,1.02773
102.397,19.35042,0.008981302,0.28677,1.02757
102.997,19.41217,0.01182825,0.28965,1.02742
103.597,19.47394,0.01062839,0.291,1.02726
104.197,19.53511,0.01052375,0.29415,1.02709
104.797,19.5965,0.01193995,0.29649,1.02693
105.397,19.65784,0.01326944,0.29822,1.02677
105.997,19.71937,0.01198051,0.30182,1.0266
106.597,19.78043,0.01441038,0.30387,1.02644
107.197,19.84176,0.01477303,0.3084,1.02627
107.797,19.90279,0.01480814,0.31299,1.0261
108.397,19.9638,0.01481566,0.31543,1.02593
108.997,20.0246,0.01475391,0.31887,1.02575
109.597,20.08501,0.01316372,0.32235,1.02558
110.197,20.1452,0.01169282,0.32711,1.0254
110.797,20.20554,0.01304912,0.32989,1.02523
111.397,20.26537,0.0130981,0.33512,1.02505
111.997,20.32501,0.01178064,0.33743,1.02487
112.597,20.38502,0.01005715,0.3402,1.02469
113.197,20.4451,0.00945598,0.34151,1.02451
113.797,20.5058,0.01031595,0.34326,1.02433
114.397,20.56589,0.01377673,0.34601,1.02414
114.997,20.6253,0.01381992,0.3478,1.02396
115.597,20.68499,0.01227365,0.34975,1.02377
116.197,20.74426,0.01043451,0.35101,1.02358
116.797,20.80366,0.008133197,0.3504,1.02339
117.397,20.8632,0.009506256,0.35303,1.0232
117.997,20.92229,0.01085913,0.35338,1.02301
118.597,20.98141,0.01086657,0.35502,1.02281
119.197,21.04029,0.01228024,0.35767,1.02262
119.797,21.0991,0.01084274,0.35693,1.02242
120.397,21.15789,0.01088188,0.35851,1.02222
120.997,21.21659,0.01473522,0.36272,1.02202
121.597,21.27524,0.01055753,0.36362,1.02182
122.197,21.33386,0.01132382,0.36494,1.02162
122.797,21.39239,0.01674404,0.36533,1.02142
123.397,21.45076,0.01522788,0.36693,1.02121
123.997,21.50921,0.01259377,0.36889,1.02101
124.597,21.56726,0.01362168,0.37017,1.0208
125.197,21.62487,0.01225625,0.37075,1.02059
125.797,21.6827,0.009353304,0.37355,1.02038
126.397,21.74035,0.01064296,0.37246,1.02017
126.997,21.79816,0.01214934,0.37528,1.01996
127.597,21.85609,0.01214347,0.37662,1.01975
128.197,21.91384,0.01239861,0.37841,1.01953
128.797,21.97121,0.0133424,0.37888,1.01932
129.397,22.02844,0.01030645,0.37933,1.0191
129.997,22.0859,0.008915265,0.38017,1.01888
130.597,22.1432,0.01031223,0.38294,1.01866
131.197,22.2003,0.01174488,0.38477,1.01844
131.797,22.25745,0.01437019,0.38765,1.01822
132.397,22.3142,0.01437053,0.38743,1.01799
132.997,22.37115,0.01466615,0.3849,1.01777
133.597,22.428,0.01268214,0.38482,1.01754
134.197,22.48466,0.01212049,0.38179,1.01732
134.797,22.54137,0.01184546,0.38105,1.01709
135.397,22.59785,0.01129829,0.3807,1.01686
135.997,22.6545,0.01076662,0.37941,1.01663
136.597,22.711,0.009931918,0.3792,1.01639
137.197,22.76736,0.01121709,0.37709,1.01616
137.797,22.8238,0.012739,0.3781,1.01593
138.397,22.87971,0.01402959,0.37944,1.01569
138.997,22.93584,0.01241293,0.37964,1.01545
139.597,22.99176,0.01118287,0.37828,1.01521
140.197,23.04765,0.01040967,0.38149,1.01497
140.797,23.1036,0.01107678,0.37978,1.01473
141.397,23.15953,0.01119,0.3818,1.01449
141.997,23.2153,0.01116476,0.38198,1.01425
142.597,23.27114,0.00986993,0.38324,1.014
143.197,23.32698,0.01106638,0.38365,1.01376
143.797,23.38266,0.01250317,0.38298,1.01351
144.397,23.43826,0.01385301,0.38535,1.01326
144.997,23.49367,0.01382491,0.38497,1.01301
145.597,23.54898,0.01307751,0.38802,1.01276
146.197,23.60432,0.0125021,0.38796,1.01251
146.797,23.6597,0.01249965,0.38945,1.01226
147.397,23.71508,0.01118183,0.38918,1.012
147.997,23.77058,0.009870645,0.38956,1.01175
148.597,23.82591,0.01222854,0.39156,1.01149
149.197,23.88154,0.01251053,0.39222,1.01123
149.797,23.93682,0.01320516,0.39162,1.01097
150.397,23.99166,0.01185416,0.39303,1.01071
150.997,24.04675,0.01099364,0.39392,1.01045
151.597,24.1016,0.01165913,0.39443,1.01019
152.197,24.1567,0.01250032,0.39533,1.00992
152.797,24.21207,0.01249275,0.39594,1.00966
153.397,24.26691,0.01001418,0.39553,1.00939
153.997,24.32193,0.009402087,0.39572,1.00912
154.597,24.37664,0.00943002,0.39508,1.00886
155.197,24.43129,0.009421448,0.39789,1.00859
155.797,24.486,0.009759444,0.39685,1.00832
156.397,24.54104,0.009759999,0.39708,1.00804
156.997,24.59626,0.009761838,0.39826,1.00777
157.597,24.65116,0.0110842,0.4012,1.0075
158.197,24.70638,0.01064419,0.4016,1.00722
158.797,24.76109,0.01042005,0.40374,1.00694
159.397,24.81598,0.01041671,0.40177,1.00667
159.997,24.87102,0.01041283,0.40224,1.00639
160.597,24.9259,0.01107887,0.40418,1.00611
161.197,24.98067,0.01108,0.40472,1.00583
161.797,25.0353,0.01108008,0.40417,1.00554
162.397,25.09008,0.01108299,0.40339,1.00526
162.997,25.14457,0.01229892,0.40467,1.00497
163.597,25.1989,0.01171849,0.40598,1.00469
164.197,25.2533,0.009223415,0.408,1.0044
164.797,25.30789,0.009111745,0.40706,1.00411
165.397,25.36262,0.01042337,0.40695,1.00382
165.997,25.41753,0.01042592,0.40665,1.00353
166.597,25.47227,0.009101553,0.40826,1.00324
167.197,25.52681,0.008052754,0.40715,1.00295
167.797,25.5815,0.00779061,0.40714,1.00266
168.397,25.63618,0.00906152,0.40871,1.00236
168.997,25.69088,0.008365513,0.40975,1.00207
169.597,25.74543,0.008020004,0.41134,1.00177
170.197,25.79983,0.007780183,0.41132,1.00147
170.797,25.85426,0.009116281,0.41083,1.00117
171.397,25.90867,0.01175244,0.41418,1.00087
171.997,25.9633,0.01310491,0.41395,1.00057
172.597,26.01776,0.01279722,0.41232,1.00027
173.197,26.07234,0.009587817,0.41205,0.99996
173.797,26.12688,0.009649551,0.41477,0.99966
174.397,26.18133,0.01095401,0.41554,0.99935
174.997,26.2359,0.01236911,0.41394,0.99905
175.597,26.2904,0.01229001,0.41576,0.99874
176.197,26.3448,0.01228999,0.41664,0.99843
176.797,26.39925,0.01229158,0.41813,0.99812
177.397,26.4535,0.009047678,0.41897,0.99781
177.997,26.50785,0.00587825,0.41682,0.9975
178.597,26.56186,0.005955318,0.41575,0.99718
179.197,26.61562,0.005705838,0.41704,0.99687
179.797,26.6695,0.005699999,0.41974,0.99656
180.397,26.72375,0.005699994,0.41889,0.99624
180.997,26.778,0.0057047,0.41674,0.99592
181.597,26.83271,0.009821685,0.41944,0.9956
182.197,26.88699,0.01248859,0.421,0.99528
182.797,26.94097,0.00628026,0.42192,0.99496
183.397,26.99506,0.004000068,0.42245,0.99464
183.997,27.04907,0.00561051,0.42158,0.99432
184.597,27.10319,0.00757361,0.42144,0.994
185.197,27.15718,0.008363138,0.42128,0.99367
185.797,27.2112,0.009561869,0.4218,0.99335
186.397,27.26515,0.0077147,0.42188,0.99302
186.997,27.31911,0.00618746,0.42293,0.99269
187.597,27.3729,0.004961847,0.42369,0.99236
188.197,27.4267,0.008596671,0.42534,0.99203
188.797,27.48065,0.007980315,0.42916,0.9917
189.397,27.5343,0.008713418,0.42537,0.99137
189.997,27.5883,0.009765151,0.42453,0.99104
190.597,27.6421,0.01052443,0.42472,0.9907
191.197,27.6958,0.007844289,0.4251,0.99037
191.797,27.74943,0.00777587,0.42646,0.99003
192.397,27.80337,0.00661202,0.42701,0.9897
192.997,27.85721,0.008755239,0.42713,0.98936
193.597,27.9112,0.00335932,0.42747,0.98902
194.197,27.96527,0.008643082,0.42776,0.98868
194.797,28.01902,0.004938424,0.42866,0.98834
195.397,28.0725,-0.0009454581,0.42873,0.988
195.997,28.12616,0.002537122,0.43036,0.98766
196.597,28.17983,0.00623062,0.42858,0.98731
197.197,28.23343,0.009612561,0.42914,0.98697
197.797,28.2873,0.008230775,0.43038,0.98662
198.397,28.3409,0.008230012,0.43196,0.98628
198.997,28.3948,0.007224087,0.43431,0.98593
199.597,28.44865,0.00295919,0.42957,0.98558
200.197,28.50259,0.005357649,0.43396,0.98523
200.797,28.5562,0.005243529,0.4322,0.98488
201.397,28.6095,0.003949518,0.4344,0.98453
201.997,28.66302,0.004905215,0.4371,0.98418
202.597,28.71633,0.004446378,0.43602,0.98382
203.197,28.77021,0.005597827,0.43548,0.98347
203.797,28.82405,0.004263618,0.43661,0.98311
204.397,28.878,0.005851844,0.43864,0.98276
204.997,28.9317,0.007142065,0.43595,0.9824
205.597,28.98542,0.008114799,0.43739,0.98204
206.197,29.03908,0.006589554,0.43429,0.98168
206.797,29.09273,0.0059377,0.43775,0.98132
207.397,29.14668,0.005919983,0.43971,0.98096
207.997,29.2001,0.00592,0.43865,0.9806
208.597,29.25355,0.00592,0.43927,0.98024
209.197,29.3071,0.005919866,0.43857,0.97988
209.797,29.36078,0.006280694,0.44014,0.97951
210.397,29.41485,0.005283101,0.4402,0.97915
210.997,29.46892,0.00551124,0.44054,0.97878
211.597,29.5227,0.00712542,0.44036,0.97841
212.197,29.5765,0.007017584,0.44167,0.97804
212.797,29.6302,0.006903794,0.44208,0.97768
213.397,29.68395,0.00512926,0.44242,0.97731
213.997,29.7378,0.00317785,0.44288,0.97693
214.597,29.79157,0.001966464,0.44239,0.97656
215.197,29.8453,0.00189429,0.44337,0.97619
215.797,29.8991,0.000660307,0.4449,0.97582
216.397,29.95277,0.000656018,0.44297,0.97544
216.997,30.00651,0.001974979,0.4447,0.97507
217.597,30.0602,0.001643841,0.44381,0.97469
218.197,30.11407,0.0005844842,0.44451,0.97431
218.797,30.1677,-0.00194483,0.44545,0.97394
219.397,30.22145,-0.001048003,0.44647,0.97356
219.997,30.27542,0.001190373,0.44749,0.97318
220.597,30.3289,0.002493879,0.44981,0.9728
221.197,30.3826,0.002601018,0.44785,0.97242
221.797,30.43627,0.0044119,0.44734,0.97204
222.397,30.4898,-0.0009707508,0.44792,0.97165
222.997,30.54386,-0.003727753,0.44976,0.97127
223.597,30.59774,0.002863207,0.4511,0.97088
224.197,30.65158,0.005576139,0.44829,0.9705
224.797,30.70546,0.00615587,0.45105,0.97011
225.397,30.7592,-0.002590409,0.4517,0.96972
225.997,30.8131,0.004753267,0.44965,0.96934
226.597,30.8669,0.004694564,0.45214,0.96895
227.197,30.9207,-0.0001282236,0.45405,0.96856
227.797,30.97441,0.003582807,0.45382,0.96817
228.397,31.0282,0.00380027,0.45116,0.96778
228.997,31.082,-0.00247509,0.45379,0.96738
229.597,31.1357,-0.004271604,0.45402,0.96699
230.197,31.18968,-0.0016688,0.45441,0.9666
230.797,31.24353,-0.000220376,0.45331,0.9662
231.397,31.2973,-0.0002206645,0.45481,0.96581
231.997,31.35122,-0.0005559342,0.45423,0.96541
232.597,31.40492,0.0006727473,0.45525,0.96501
233.197,31.45866,-0.00153157,0.45673,0.96462
233.797,31.5125,-0.00152695,0.457,0.96422
234.397,31.5664,0.001082939,0.45591,0.96382
234.997,31.62026,-0.0004382471,0.45602,0.96342
235.597,31.67394,-0.00249444,0.45765,0.96302
236.197,31.7278,-0.001077789,0.45395,0.96262
236.797,31.78163,-0.001099986,0.46022,0.96221
237.397,31.83551,-0.00110001,0.45878,0.96181
237.997,31.88963,-0.001098607,0.45938,0.96141
238.597,31.9434,-0.002419415,0.45843,0.961
239.197,31.9973,-0.003719745,0.45765,0.96059
239.797,32.0511,-0.003740017,0.45864,0.96019
240.397,32.10496,-0.00366849,0.45796,0.95978
240.997,32.15872,-0.0036736,0.45902,0.95937
241.597,32.21245,-0.005240693,0.46025,0.95896
242.197,32.2663,-0.006371833,0.45984,0.95855
242.797,32.32023,-0.0076809,0.45903,0.95814
243.397,32.3742,-0.007674114,0.4609,0.95773
243.997,32.42819,-0.008515834,0.45793,0.95732
244.597,32.482,-0.00520346,0.45891,0.95691
245.197,32.5358,-0.002969102,0.46085,0.9565
245.797,32.58961,-0.00297343,0.45778,0.95608
246.397,32.64351,-0.003926654,0.45926,0.95567
246.997,32.6975,-0.002547301,0.45728,0.95525
247.597,32.75145,-0.005612073,0.45839,0.95484
248.197,32.80553,-0.006910222,0.45911,0.95442
248.797,32.8596,-0.005079816,0.46108,0.954
249.397,32.91342,-0.0051427,0.46058,0.95358
249.997,32.96741,-0.005580444,0.45912,0.95316
250.597,33.0214,-0.008220035,0.46258,0.95274
251.197,33.07528,-0.009366634,0.45861,0.95232
251.797,33.12939,-0.008559902,0.45983,0.9519
252.397,33.18339,-0.008559993,0.45799,0.95148
252.997,33.23746,-0.008566083,0.46054,0.95106
253.597,33.29159,-0.008346847,0.46186,0.95063
254.197,33.34575,-0.00855999,0.46167,0.95021
254.797,33.39983,-0.008562557,0.46186,0.94978
255.397,33.45391,-0.009875805,0.46424,0.94936
255.997,33.50797,-0.01139197,0.46312,0.94893
256.597,33.56216,-0.0139309,0.46403,0.94851
257.197,33.6163,-0.01383158,0.46307,0.94808
257.797,33.67029,-0.01492146,0.46244,0.94765
258.397,33.72453,-0.01486983,0.46148,0.94722
258.997,33.7785,-0.01278238,0.46321,0.94679
259.597,33.83256,-0.01185515,0.46194,0.94636
260.197,33.88649,-0.00901988,0.46464,0.94593
260.797,33.9405,-0.01055846,0.46127,0.9455
261.397,33.99454,-0.01412054,0.46242,0.94507
261.997,34.04866,-0.01528799,0.46209,0.94463
262.597,34.10297,-0.01302691,0.46359,0.9442
263.197,34.1571,-0.009550595,0.46428,0.94377
263.797,34.21131,-0.01382759,0.46255,0.94333
264.397,34.26533,-0.01789449,0.46017,0.94289
264.997,34.3194,-0.0203712,0.46391,0.94246
265.597,34.37342,-0.02039556,0.46184,0.94202
266.197,34.42755,-0.01785806,0.46166,0.94158
266.797,34.48128,-0.01470103,0.46285,0.94115
267.397,34.53524,-0.01608444,0.45999,0.94071
267.997,34.5894,-0.01728203,0.46117,0.94027
268.597,34.6435,-0.01798976,0.46267,0.93983
269.197,34.69825,-0.01972896,0.46151,0.93939
269.797,34.75235,-0.0208028,0.46066,0.93895
270.397,34.80656,-0.01936388,0.46082,0.9385
270.997,34.86092,-0.01721676,0.46103,0.93806
271.597,34.91509,-0.01882989,0.46063,0.93762
272.197,34.96935,-0.01900598,0.46275,0.93717
272.797,35.0235,-0.02233528,0.45764,0.93673
273.397,35.0778,-0.02407123,0.46009,0.93628
273.997,35.13201,-0.02654871,0.45944,0.93584
274.597,35.18628,-0.02999115,0.46049,0.93539
275.197,35.24055,-0.02994024,0.45961,0.93495
275.797,35.2947,-0.02962784,0.4584,0.9345
276.397,35.34903,-0.02795516,0.45847,0.93405
276.997,35.40332,-0.02333062,0.45634,0.9336
277.597,35.45772,-0.02293082,0.45597,0.93315
278.197,35.51212,-0.02420773,0.45366,0.9327
278.797,35.56642,-0.02880918,0.45369,0.93225
279.397,35.62089,-0.02960558,0.45221,0.9318
279.997,35.67532,-0.0219328,0.45268,0.93135
280.597,35.72971,-0.02266236,0.45144,0.9309
281.197,35.7842,-0.03129195,0.45009,0.93044
281.797,35.8386,-0.03367173,0.45077,0.92999
282.397,35.89295,-0.03206443,0.45018,0.92954
282.997,35.94749,-0.03183524,0.44821,0.92908
283.597,36.0019,-0.03075593,0.4492,0.92863
284.197,36.05618,-0.02931847,0.44539,0.92817
284.797,36.1106,-0.03178823,0.44686,0.92772
285.397,36.16487,-0.03309648,0.44428,0.92726
285.997,36.21929,-0.0333582,0.44589,0.9268
286.597,36.27386,-0.0319583,0.44513,0.92634
287.197,36.32825,-0.03333868,0.44283,0.92589
287.797,36.3827,-0.03179618,0.44177,0.92543
288.397,36.43739,-0.03311353,0.44073,0.92497
288.997,36.49184,-0.03509615,0.43859,0.92451
289.597,36.5464,-0.03643828,0.43979,0.92405
290.197,36.60102,-0.03880371,0.4371,0.92359
290.797,36.65553,-0.03971005,0.43388,0.92312
291.397,36.71013,-0.03630834,0.43562,0.92266
291.997,36.76481,-0.03637074,0.43307,0.9222
292.597,36.8194,-0.03761981,0.43014,0.92174
293.197,36.8739,-0.03762041,0.42808,0.92127
293.797,36.92858,-0.03628473,0.42804,0.92081
294.397,36.98319,-0.03644505,0.42511,0.92034
294.997,37.03781,-0.03773106,0.42213,0.91988
295.597,37.0925,-0.03905712,0.42323,0.91941
296.197,37.14703,-0.04035428,0.4189,0.91895
296.797,37.20172,-0.04038032,0.41846,0.91848
297.397,37.25639,-0.04179148,0.4172,0.91801
297.997,37.31113,-0.04297947,0.41421,0.91755
298.597,37.36578,-0.04432498,0.4137,0.91708
299.197,37.4205,-0.04430917,0.40973,0.91661
299.797,37.47525,-0.04431,0.40906,0.91614
300.397,37.52994,-0.04431,0.41018,0.91567
300.997,37.58483,-0.04426144,0.40768,0.9152
301.597,37.63955,-0.04432226,0.40486,0.91473
302.197,37.6943,-0.04431997,0.40148,0.91426
302.797,37.74921,-0.04433432,0.40165,0.91379
303.397,37.80397,-0.04398982,0.39606,0.91332
303.997,37.85866,-0.04398926,0.3957,0.91284
304.597,37.91336,-0.04811987,0.39551,0.91237
305.197,37.96819,-0.04814466,0.39463,0.9119
305.797,38.02296,-0.04946822,0.39027,0.91142
306.397,38.07805,-0.04946994,0.39025,0.91095
306.997,38.13304,-0.04933281,0.3844,0.91047
307.597,38.18783,-0.04815039,0.38369,0.91
308.197,38.2427,-0.04809763,0.37936,0.90952
308.797,38.2975,-0.04947105,0.37932,0.90905
309.397,38.35239,-0.05107789,0.37692,0.90857
309.997,38.40674,-0.0506861,0.37217,0.90809
310.597,38.46158,-0.05067888,0.37161,0.90762
311.197,38.51635,-0.05202779,0.37026,0.90714
311.797,38.5713,-0.05199001,0.36783,0.90666
312.397,38.6269,-0.05199183,0.36382,0.90618
312.997,38.682,-0.05331272,0.36336,0.9057
313.597,38.73693,-0.05463442,0.36288,0.90522
314.197,38.79177,-0.05463064,0.35934,0.90474
314.797,38.84683,-0.05592249,0.3586,0.90426
315.397,38.9019,-0.05580803,0.35373,0.90378
315.997,38.95728,-0.05463176,0.35143,0.9033
316.597,39.0124,-0.05595622,0.35081,0.90282
317.197,39.06736,-0.05594906,0.34833,0.90234
317.797,39.1224,-0.05458361,0.34628,0.90186
318.397,39.17739,-0.05603421,0.34299,0.90137
318.997,39.23237,-0.05720047,0.34277,0.90089
319.597,39.28743,-0.05737002,0.34096,0.90041
320.197,39.34256,-0.0573694,0.33805,0.89992
320.797,39.39758,-0.05838623,0.33493,0.89944
321.397,39.45268,-0.05966718,0.33304,0.89895
321.997,39.50784,-0.05967963,0.33158,0.89847
322.597,39.56296,-0.06093336,0.33034,0.89798
323.197,39.61808,-0.06131688,0.32581,0.8975
323.797,39.6731,-0.06130266,0.32321,0.89701
324.397,39.72807,-0.05995951,0.32074,0.89652
324.997,39.78318,-0.06131899,0.32078,0.89604
325.597,39.83817,-0.06134725,0.31866,0.89555
326.197,39.89317,-0.06099043,0.31451,0.89506
326.797,39.9482,-0.06223637,0.31175,0.89457
327.397,40.00313,-0.06448593,0.31129,0.89408
327.997,40.05845,-0.06384467,0.30808,0.8936
328.597,40.11342,-0.0651581,0.30869,0.89311
329.197,40.16858,-0.06516,0.30296,0.89262
329.797,40.2237,-0.06516,0.30102,0.89213
330.397,40.27865,-0.06516,0.29682,0.89164
330.997,40.33385,-0.06515714,0.29733,0.89115
331.597,40.38913,-0.0664881,0.29176,0.89066
332.197,40.4443,-0.06647477,0.28955,0.89016
332.797,40.49966,-0.0687416,0.28683,0.88967
333.397,40.55478,-0.07042665,0.28255,0.88918
333.997,40.60999,-0.07042,0.2812,0.88869
334.597,40.66538,-0.07043365,0.27805,0.8882
335.197,40.72082,-0.07177038,0.27588,0.8877
335.797,40.77629,-0.07294057,0.27283,0.88721
336.397,40.83168,-0.07172963,0.27014,0.88672
336.997,40.88709,-0.07175585,0.26628,0.88622
337.597,40.94249,-0.07441392,0.2664,0.88573
338.197,40.99787,-0.07569286,0.26092,0.88523
338.797,41.0535,-0.07568935,0.25651,0.88474
339.397,41.10873,-0.07431765,0.2542,0.88424
339.997,41.1641,-0.07421901,0.25538,0.88375
340.597,41.2194,-0.07555474,0.25174,0.88325
341.197,41.27471,-0.07829131,0.24888,0.88276
341.797,41.33038,-0.07832011,0.24372,0.88226
342.397,41.38596,-0.07959737,0.24209,0.88176
342.997,41.44186,-0.07883532,0.23887,0.88127
343.597,41.49727,-0.07814065,0.23559,0.88077
344.197,41.55253,-0.0781011,0.23256,0.88027
344.797,41.60754,-0.08072098,0.22893,0.87977
345.397,41.66272,-0.08097183,0.22724,0.87928
345.997,41.7181,-0.08358435,0.22329,0.87878
346.597,41.77369,-0.08675885,0.22268,0.87828
347.197,41.82946,-0.08775999,0.21866,0.87778
347.797,41.8853,-0.08774651,0.21834,0.87728
348.397,41.94113,-0.08651375,0.21485,0.87678
348.997,41.99695,-0.08843274,0.212,0.87628
349.597,42.0526,-0.08905269,0.20981,0.87578
350.197,42.10823,-0.08723727,0.20205,0.87528
350.797,42.1639,-0.06169856,0.19617,0.87478
351.397,42.21979,-0.07976894,0.1938,0.87428
351.997,42.2754,-0.08986607,0.19398,0.87378
352.597,42.33117,-0.09479426,0.19064,0.87328
353.197,42.3869,-0.09656651,0.19195,0.87278
353.797,42.44257,-0.09913799,0.19076,0.87228
354.397,42.49832,-0.09904442,0.1888,0.87178
354.997,42.55401,-0.10005,0.18597,0.87127
355.597,42.60998,-0.10014,0.1822,0.87077
356.197,42.66575,-0.10151,0.18355,0.87027
356.797,42.72173,-0.11248,0.18558,0.86977
357.397,42.77756,-0.11422,0.18593,0.86926
357.997,42.8335,-0.1084,0.18237,0.86876
358.597,42.88949,-0.1064,0.18232,0.86826
359.197,42.94549,-0.10619,0.17986,0.86775
359.797,43.0015,-0.10922,0.17645,0.86725
360.397,43.05731,-0.11068,0.17591,0.86674
360.997,43.1133,-0.11076,0.17417,0.86624
361.597,43.1693,-0.1093,0.17269,0.86573
362.197,43.22534,-0.11322,0.17175,0.86523
362.797,43.2815,-0.11524,0.17322,0.86473
363.397,43.33747,-0.11599,0.17266,0.86422
363.997,43.39342,-0.11873,0.17392,0.86371
364.597,43.44938,-0.12282,0.17504,0.86321
365.197,43.50541,-0.12729,0.17541,0.8627
365.797,43.56135,-0.13294,0.17792,0.8622
366.397,43.61736,-0.14197,0.1819,0.86169
366.997,43.67321,-0.14367,0.18568,0.86118
367.597,43.7292,-0.14499,0.18623,0.86068
368.197,43.7851,-0.15184,0.19296,0.86017
368.797,43.84132,-0.15754,0.19563,0.85966
369.397,43.89744,-0.16141,0.20099,0.85916
369.997,43.95347,-0.15516,0.20234,0.85865
370.597,44.0094,-0.14782,0.20583,0.85814
371.197,44.0655,-0.14849,0.20657,0.85764
371.797,44.12106,-0.15494,0.20963,0.85713
372.397,44.17716,-0.1583,0.21293,0.85662
372.997,44.23335,-0.15787,0.2199,0.85611
373.597,44.28972,-0.1619,0.22724,0.8556
374.197,44.34622,-0.16618,0.23329,0.8551
374.797,44.40256,-0.16494,0.24062,0.85459
375.397,44.45885,-0.16547,0.24456,0.85408
375.997,44.51493,-0.17203,0.25499,0.85357
376.597,44.57124,-0.17789,0.26109,0.85306
377.197,44.62764,-0.18203,0.27215,0.85255
377.797,44.68416,-0.18727,0.28198,0.85204
378.397,44.74069,-0.19324,0.29184,0.85153
378.997,44.79703,-0.19605,0.30226,0.85102
379.597,44.8534,-0.19531,0.31231,0.85051
380.197,44.90955,-0.19758,0.32535,0.85
380.797,44.96593,-0.20485,0.33662,0.84949
381.397,45.0225,-0.20723,0.35242,0.84898
381.997,45.07881,-0.21421,0.36444,0.84847
382.597,45.1355,-0.21815,0.37579,0.84796
383.197,45.1919,-0.22143,0.39072,0.84745
383.797,45.2485,-0.22552,0.40391,0.84694
384.397,45.30485,-0.23133,0.42153,0.84643
384.997,45.36108,-0.23564,0.43935,0.84592
385.597,45.41747,-0.24039,0.45396,0.84541
386.197,45.47423,-0.24776,0.47223,0.8449
386.797,45.5311,-0.25305,0.49051,0.84439
387.397,45.58793,-0.25986,0.51025,0.84388
387.997,45.64459,-0.26972,0.52836,0.84337
388.597,45.7012,-0.2757,0.54791,0.84285
389.197,45.75778,-0.28265,0.56922,0.84234
389.797,45.81433,-0.29124,0.58984,0.84183
390.397,45.8709,-0.2943,0.61138,0.84132
390.997,45.92745,-0.30246,0.63278,0.84081
391.597,45.9841,-0.30856,0.6556,0.8403
392.197,46.0409,-0.31735,0.68034,0.83978
392.797,46.09763,-0.32541,0.70422,0.83927
393.397,46.1539,-0.33256,0.72828,0.83876
393.997,46.21054,-0.34101,0.75468,0.83825
394.597,46.2673,-0.35032,0.78143,0.83774
395.197,46.32423,-0.3596,0.81142,0.83722
395.797,46.38163,-0.36778,0.83644,0.83671
396.397,46.43847,-0.37702,0.86366,0.8362
396.997,46.49525,-0.38837,0.89557,0.83569
397.597,46.55216,-0.39886,0.92257,0.83517
398.197,46.609,-0.4113,0.9542,0.83466
398.797,46.66594,-0.42385,0.98647,0.83415
399.397,46.72283,-0.43141,1.01946,0.83364
399.997,46.7797,-0.4424,1.05304,0.83312
400.597,46.83655,-0.45739,1.08639,0.83261
401.197,46.8936,-0.47083,1.12244,0.8321
401.797,46.95067,-0.4836,1.15637,0.83158
402.397,47.0077,-0.4977,1.19347,0.83107
402.997,47.0646,-0.51222,1.23276,0.83056
403.597,47.12157,-0.52764,1.27185,0.83005
404.197,47.17857,-0.54144,1.31016,0.82953
404.797,47.2356,-0.55699,1.35062,0.82902
405.397,47.29266,-0.57364,1.39069,0.82851
405.997,47.3497,-0.59071,1.43367,0.82799
406.597,47.40677,-0.60788,1.47609,0.82748
407.197,47.4639,-0.62665,1.52065,0.82697
407.797,47.5212,-0.64476,1.56874,0.82645
408.397,47.57825,-0.6651,1.61424,0.82594
408.997,47.63556,-0.68316,1.66219,0.82543
409.597,47.69279,-0.70329,1.70942,0.82491
410.197,47.75,-0.72383,1.75678,0.8244
410.797,47.80733,-0.74722,1.81112,0.82389
411.397,47.86457,-0.76912,1.86061,0.82337
411.997,47.9221,-0.79271,1.91291,0.82286
412.597,47.9796,-0.8194,1.9636,0.82235
413.197,48.03713,-0.84273,2.01733,0.82183
413.797,48.09462,-0.87093,2.06996,0.82132
414.397,48.152,-0.89839,2.12266,0.82081
414.997,48.20926,-0.93123,2.1781,0.82029
415.597,48.2667,-0.96004,2.23169,0.81978
416.197,48.32418,-0.98096,2.28174,0.81927
416.797,48.38162,-1.01347,2.33718,0.81875
417.397,48.43911,-1.04561,2.39143,0.81824
417.997,48.4963,-1.0797,2.44304,0.81773
418.597,48.5538,-1.11104,2.49495,0.81721
419.197,48.61122,-1.14413,2.5476,0.8167
419.797,48.66895,-1.17896,2.59493,0.81619
420.397,48.72695,-1.21464,2.64565,0.81567
420.997,48.78474,-1.25237,2.69261,0.81516
421.597,48.8426,-1.28944,2.73503,0.81465
422.197,48.90011,-1.32947,2.77798,0.81413
422.797,48.95756,-1.36616,2.81954,0.81362
423.397,49.01509,-1.40734,2.85503,0.81311
423.997,49.07226,-1.44757,2.89167,0.81259
424.597,49.12973,-1.48865,2.91973,0.81208
425.197,49.18719,-1.53075,2.95078,0.81157
425.797,49.24488,-1.5701,2.97604,0.81106
426.397,49.30255,-1.61591,2.99735,0.81054
426.997,49.36029,-1.65799,3.01263,0.81003
427.597,49.41774,-1.70312,3.02864,0.80952
428.197,49.47515,-1.744,3.03883,0.809
428.797,49.53263,-1.79119,3.0431,0.80849
429.397,49.5899,-1.83455,3.04534,0.80798
429.997,49.6474,-1.87874,3.04128,0.80747
430.597,49.70489,-1.92621,3.03527,0.80695
431.197,49.76222,-1.96703,3.02051,0.80644
431.797,49.81974,-2.01242,3.00429,0.80593
432.397,49.87707,-2.06062,2.98271,0.80542
432.997,49.9344,-2.10875,2.95467,0.8049
433.597,49.9917,-2.14973,2.92501,0.80439
434.197,50.04902,-2.19274,2.88914,0.80388
434.797,50.1064,-2.23514,2.85232,0.80337
435.397,50.1636,-2.27335,2.81032,0.80286
435.997,50.22092,-2.3179,2.76374,0.80234
436.597,50.27828,-2.35791,2.71732,0.80183
437.197,50.33548,-2.40094,2.66494,0.80132
437.797,50.39275,-2.4459,2.61148,0.80081
438.397,50.45013,-2.48834,2.55374,0.8003
438.997,50.50752,-2.52642,2.49872,0.79979
439.597,50.56483,-2.56516,2.44232,0.79927
440.197,50.62226,-2.60766,2.37878,0.79876
440.797,50.67942,-2.64208,2.31521,0.79825
441.397,50.73652,-2.67857,2.25325,0.79774
441.997,50.79365,-2.71005,2.19112,0.79723
442.597,50.85075,-2.74203,2.13303,0.79672
443.197,50.90782,-2.77648,2.07113,0.79621
443.797,50.96495,-2.81076,2.01234,0.7957
444.397,51.0222,-2.84455,1.95435,0.79519
444.997,51.07934,-2.87539,1.89695,0.79468
445.597,51.1364,-2.90683,1.84,0.79417
446.197,51.1935,-2.93084,1.7829,0.79366
446.797,51.25053,-2.96042,1.72932,0.79315
447.397,51.30764,-2.99067,1.67725,0.79264
447.997,51.36489,-3.02008,1.63071,0.79213
448.597,51.4221,-3.05163,1.58978,0.79162
449.197,51.4793,-3.07922,1.55575,0.79111
449.797,51.53641,-3.10695,1.51035,0.7906
450.397,51.59353,-3.13188,1.45344,0.79009
450.997,51.65011,-3.15573,1.39386,0.78958
451.597,51.70694,-3.17943,1.33506,0.78907
452.197,51.76405,-3.20475,1.286,0.78856
452.797,51.8213,-3.22875,1.23508,0.78805
453.397,51.8789,-3.25188,1.18308,0.78754
453.997,51.93588,-3.27437,1.14132,0.78703
454.597,51.99308,-3.29372,1.09053,0.78653
455.197,52.05041,-3.31213,1.04089,0.78602
455.797,52.10784,-3.33241,0.99973,0.78551
456.397,52.16519,-3.35008,0.96055,0.785
456.997,52.22263,-3.37272,0.91812,0.78449
457.597,52.28003,-3.39315,0.87751,0.78399
458.197,52.3378,-3.41363,0.8401,0.78348
458.797,52.3952,-3.42781,0.80345,0.78297
459.397,52.45267,-3.44525,0.76964,0.78246
459.997,52.51008,-3.45754,0.74539,0.78196
460.597,52.56742,-3.468,0.71175,0.78145
461.197,52.6249,-3.48571,0.68341,0.78094
461.797,52.6824,-3.50273,0.65272,0.78044
462.397,52.7398,-3.51737,0.62153,0.77993
462.997,52.79721,-3.53306,0.59579,0.77942
463.597,52.85471,-3.54634,0.5699,0.77892
464.197,52.91214,-3.55317,0.54633,0.77841
464.797,52.9696,-3.56371,0.52554,0.77791
465.397,53.0273,-3.57614,0.50183,0.7774
465.997,53.0849,-3.58497,0.48085,0.77689
466.597,53.14275,-3.59475,0.46605,0.77639
467.197,53.2005,-3.60472,0.44694,0.77588
467.797,53.25825,-3.6142,0.4321,0.77538
468.397,53.3159,-3.62679,0.41774,0.77488
468.997,53.37356,-3.64346,0.40391,0.77437
469.597,53.4312,-3.6426,0.39153,0.77387
470.197,53.4889,-3.65592,0.37537,0.77336
470.797,53.54668,-3.66732,0.36817,0.77286
471.397,53.60471,-3.67503,0.3546,0.77235
471.997,53.66271,-3.6814,0.34375,0.77185
472.597,53.7207,-3.686,0.33547,0.77135
473.197,53.77847,-3.69514,0.32814,0.77084
473.797,53.8363,-3.70051,0.31846,0.77034
474.397,53.8943,-3.70888,0.30755,0.76984
474.997,53.9524,-3.7183,0.29992,0.76934
475.597,54.01041,-3.72399,0.29367,0.76883
476.197,54.06835,-3.73005,0.28291,0.76833
476.797,54.1264,-3.73601,0.27722,0.76783
477.397,54.1844,-3.74195,0.26855,0.76733
477.997,54.2423,-3.74928,0.26006,0.76683
478.597,54.3003,-3.75555,0.25438,0.76633
479.197,54.3583,-3.76128,0.24448,0.76582
479.797,54.4162,-3.76593,0.23741,0.76532
480.397,54.4742,-3.77175,0.2341,0.76482
480.997,54.53226,-3.77423,0.22669,0.76432
481.597,54.5903,-3.77849,0.21902,0.76382
482.197,54.6484,-3.78517,0.20929,0.76332
482.797,54.70624,-3.79098,0.20757,0.76282
483.397,54.76419,-3.79406,0.19718,0.76232
483.997,54.8222,-3.79976,0.19022,0.76182
484.597,54.8804,-3.80439,0.18145,0.76132
485.197,54.93857,-3.80731,0.17775,0.76083
485.797,54.9967,-3.80895,0.17122,0.76033
486.397,55.055,-3.81026,0.16195,0.75983
486.997,55.11325,-3.81383,0.15688,0.75933
487.597,55.1714,-3.81668,0.1497,0.75883
488.197,55.22948,-3.82024,0.14486,0.75834
488.797,55.2877,-3.82219,0.13849,0.75784
489.397,55.346,-3.82105,0.13259,0.75734
489.997,55.40427,-3.82045,0.12508,0.75684
490.597,55.4622,-3.82291,0.11575,0.75635
491.197,55.52005,-3.82663,0.10895,0.75585
491.797,55.5779,-3.831,0.10265,0.75535
492.397,55.6364,-3.83232,0.09903502,0.75486
492.997,55.6951,-3.83245,0.09229489,0.75436
493.597,55.7536,-3.83422,0.08720032,0.75387
494.197,55.81214,-3.8357,0.08399571,0.75337
494.797,55.8703,-3.83572,0.08045872,0.75288
495.397,55.9285,-3.83625,0.07803982,0.75238
495.997,55.9866,-3.83663,0.07365369,0.75189
496.597,56.04472,-3.83759,0.07195108,0.75139
497.197,56.10281,-3.83879,0.06659443,0.7509
497.797,56.16089,-3.84066,0.06315875,0.75041
498.397,56.2192,-3.84198,0.06238383,0.74991
498.997,56.27751,-3.84146,0.06187935,0.74942
499.597,56.33588,-3.83886,0.05766995,0.74893
500.197,56.3942,-3.83889,0.05700291,0.74844
500.797,56.45225,-3.83997,0.05414808,0.74794
501.397,56.51045,-3.84146,0.05039587,0.74745
501.997,56.56881,-3.84242,0.05087897,0.74696
502.597,56.6273,-3.84448,0.05191474,0.74647
503.197,56.6858,-3.84604,0.04811518,0.74598
503.797,56.74425,-3.84713,0.05003919,0.74549
504.397,56.8026,-3.84151,0.04642047,0.745
504.997,56.86084,-3.84603,0.04575459,0.74451
505.597,56.9193,-3.84479,0.04599854,0.74402
506.197,56.97781,-3.84564,0.04463619,0.74353
506.797,57.0363,-3.84424,0.04272174,0.74304
507.397,57.0948,-3.84598,0.04594631,0.74255
507.997,57.15322,-3.84435,0.04251699,0.74206
508.597,57.2117,-3.84297,0.04424329,0.74157
509.197,57.27007,-3.84428,0.04164486,0.74108
509.797,57.32829,-3.84428,0.03942286,0.74059
510.397,57.38669,-3.8456,0.04246602,0.74011
510.997,57.44509,-3.84696,0.04652932,0.73962
511.597,57.50365,-3.84823,0.04216376,0.73913
512.197,57.5625,-3.84671,0.04239897,0.73865
512.797,57.621,-3.84481,0.04246446,0.73816
513.397,57.6796,-3.84329,0.04649058,0.73767
513.997,57.73811,-3.84195,0.0476725,0.73719
514.597,57.79675,-3.84368,0.04744175,0.7367
515.197,57.85564,-3.84607,0.04850273,0.73622
515.797,57.91451,-3.84741,0.04858447,0.73573
516.397,57.97351,-3.85023,0.05017968,0.73525
516.997,58.0325,-3.85141,0.05231537,0.73476
517.597,58.0914,-3.85062,0.0506004,0.73428
518.197,58.1503,-3.84867,0.05419255,0.7338
518.797,58.20924,-3.84734,0.05594303,0.73331
519.397,58.26804,-3.84604,0.05903444,0.73283
519.997,58.3268,-3.84598,0.06292097,0.73235
520.597,58.3856,-3.84845,0.05777939,0.73186
521.197,58.44446,-3.84867,0.06285867,0.73138
521.797,58.5032,-3.84868,0.06447524,0.7309
522.397,58.56201,-3.85009,0.06003743,0.73042
522.997,58.6208,-3.85141,0.06098106,0.72994
523.597,58.6797,-3.85077,0.06177399,0.72946
524.197,58.73856,-3.8501,0.06237633,0.72898
524.797,58.7975,-3.8501,0.06008451,0.7285
525.397,58.85635,-3.84803,0.06042948,0.72802
525.997,58.9152,-3.84581,0.05747109,0.72754
526.597,58.9741,-3.84714,0.05981581,0.72706
527.197,59.0328,-3.84714,0.06025842,0.72658
527.797,59.0916,-3.84715,0.0581308,0.7261
528.397,59.1504,-3.84845,0.05407091,0.72562
528.997,59.20924,-3.84845,0.05917631,0.72515
529.597,59.26815,-3.84911,0.057694,0.72467
530.197,59.3269,-3.85005,0.05830448,0.72419
530.797,59.38587,-3.8501,0.05835976,0.72372
531.397,59.44503,-3.84924,0.05569026,0.72324
531.997,59.50411,-3.84919,0.05489986,0.72276
532.597,59.5633,-3.84812,0.05420389,0.72229
533.197,59.62237,-3.84961,0.05445635,0.72181
533.797,59.6813,-3.85031,0.05183053,0.72134
534.397,59.7401,-3.85031,0.05358942,0.72086
534.997,59.79916,-3.84966,0.0503467,0.72039
535.597,59.8581,-3.84825,0.04985933,0.71991
536.197,59.91695,-3.84692,0.04704289,0.71944
536.797,59.97589,-3.84748,0.04763965,0.71897
537.397,60.0348,-3.84962,0.04692279,0.7185
537.997,60.09385,-3.84942,0.04748891,0.71802
538.597,60.153,-3.84816,0.04596171,0.71755
539.197,60.21204,-3.84943,0.04617475,0.71708
539.797,60.2711,-3.84943,0.04644832,0.71661
540.397,60.33,-3.84944,0.04599409,0.71614
540.997,60.389,-3.8481,0.04194611,0.71567
541.597,60.44785,-3.84681,0.04149141,0.7152
542.197,60.5068,-3.84926,0.0424136,0.71473
542.797,60.5657,-3.8523,0.04136684,0.71426
543.397,60.6246,-3.85049,0.03618013,0.71379
543.997,60.6834,-3.84935,0.03655567,0.71332
544.597,60.74224,-3.85303,0.03150845,0.71285
545.197,60.80109,-3.85021,0.03362493,0.71238
545.797,60.86014,-3.84801,0.02999146,0.71191
546.397,60.9194,-3.84658,0.02889417,0.71145
546.997,60.97869,-3.84757,0.03009001,0.71098
547.597,61.03761,-3.8484,0.03017041,0.71051
548.197,61.09675,-3.85054,0.0282366,0.71005
548.797,61.15579,-3.85054,0.02808372,0.70958
549.397,61.2151,-3.85054,0.02918218,0.70912
549.997,61.27424,-3.84912,0.02821053,0.70865
550.597,61.33341,-3.84851,0.03195887,0.70819
551.197,61.3928,-3.8478,0.03113739,0.70772
551.797,61.45224,-3.84809,0.03260141,0.70726
552.397,61.5115,-3.85076,0.03019696,0.7068
552.997,61.5707,-3.85076,0.03537606,0.70633
553.597,61.6299,-3.85076,0.03272109,0.70587
554.197,61.6887,-3.8521,0.03807693,0.70541
554.797,61.74827,-3.84941,0.03877538,0.70495
555.397,61.80752,-3.84943,0.03712834,0.70448
555.997,61.8669,-3.84799,0.03860552,0.70402
556.597,61.9265,-3.84828,0.03973679,0.70356
557.197,61.98591,-3.84967,0.03953538,0.7031
557.797,62.04526,-3.84836,0.03784343,0.70264
558.397,62.1046,-3.84965,0.0394106,0.70218
558.997,62.16398,-3.85096,0.04148815,0.70172
559.597,62.2233,-3.85097,0.04013185,0.70127
560.197,62.28255,-3.85097,0.03992201,0.70081
560.797,62.3416,-3.84965,0.04207119,0.70035
561.397,62.40073,-3.84965,0.04284336,0.69989
561.997,62.46,-3.84965,0.04195189,0.69944
562.597,62.51931,-3.84965,0.04526345,0.69898
563.197,62.57864,-3.84967,0.04296029,0.69852
563.797,62.6381,-3.85097,0.04482029,0.69807
564.397,62.69738,-3.85087,0.04276457,0.69761
564.997,62.75669,-3.85108,0.04540232,0.69716
565.597,62.8159,-3.85182,0.04153064,0.6967
566.197,62.87515,-3.84933,0.04624879,0.69625
566.797,62.9346,-3.84933,0.04578984,0.69579
567.397,62.994,-3.84933,0.04345029,0.69534
567.997,63.05355,-3.85073,0.04705821,0.69489
568.597,63.11297,-3.85207,0.05301075,0.69443
569.197,63.17239,-3.85174,0.05011348,0.69398
569.797,63.23196,-3.85173,0.05140004,0.69353
570.397,63.2915,-3.85173,0.05657385,0.69308
570.997,63.35114,-3.85043,0.05708075,0.69263
571.597,63.4108,-3.84944,0.05980309,0.69218
572.197,63.47025,-3.8512,0.05909764,0.69173
572.797,63.52984,-3.8525,0.06105363,0.69128
573.397,63.58942,-3.84987,0.06195234,0.69083
573.997,63.6491,-3.85187,0.06607444,0.69038
574.597,63.7087,-3.85267,0.06578568,0.68993
575.197,63.76826,-3.85219,0.06736698,0.68948
575.797,63.82792,-3.84874,0.06552893,0.68904
576.397,63.88746,-3.84889,0.06976656,0.68859
576.997,63.9471,-3.85201,0.07211776,0.68814
577.597,64.00671,-3.85202,0.0739493,0.6877
578.197,64.0664,-3.85092,0.07547708,0.68725
578.797,64.12618,-3.85389,0.074612,0.6868
579.397,64.18599,-3.85382,0.07527793,0.68636
579.997,64.24551,-3.85382,0.07741891,0.68592
580.597,64.30507,-3.85382,0.07958989,0.68547
581.197,64.3643,-3.85481,0.08178226,0.68503
581.797,64.424,-3.8534,0.08201039,0.68458
582.397,64.4838,-3.8535,0.08242621,0.68414
582.997,64.5437,-3.85104,0.08342689,0.6837
583.597,64.60348,-3.84922,0.08850013,0.68326
584.197,64.66294,-3.84925,0.08419377,0.68282
584.797,64.72261,-3.85185,0.08699866,0.68238
585.397,64.78232,-3.8518,0.08971287,0.68193
585.997,64.84223,-3.85218,0.08780946,0.68149
586.597,64.90207,-3.85218,0.08842001,0.68105
587.197,64.96186,-3.85143,0.08446932,0.68062
587.797,65.02155,-3.85013,0.08848563,0.68018
588.397,65.08111,-3.85076,0.08787714,0.67974
588.997,65.14075,-3.85076,0.0915038,0.6793
589.597,65.20015,-3.85076,0.08818102,0.67886
590.197,65.2599,-3.85207,0.09375416,0.67843
590.797,65.3194,-3.8534,0.09041286,0.67799
591.397,65.37904,-3.85339,0.0912836,0.67755
591.997,65.43864,-3.85467,0.08936641,0.67712
592.597,65.4982,-3.85796,0.09001723,0.67668
593.197,65.5582,-3.85752,0.09032722,0.67625
593.797,65.618,-3.85206,0.09174407,0.67581
594.397,65.67775,-3.84858,0.08851815,0.67538
594.997,65.73722,-3.84817,0.08985129,0.67495
595.597,65.7965,-3.84647,0.0893645,0.67451
596.197,65.85552,-3.84573,0.08859918,0.67408
596.797,65.91473,-3.84984,0.08991789,0.67365
597.397,65.97397,-3.85056,0.09376583,0.67322
597.997,66.03366,-3.84969,0.0891222,0.67279
598.597,66.09336,-3.85016,0.09036715,0.67235
599.197,66.15299,-3.85089,0.09280617,0.67192
599.797,66.21274,-3.84794,0.09020598,0.67149
600.397,66.2728,-3.83841,0.0935278,0.67107
600.997,66.3327,-3.84603,0.09197139,0.67064
601.597,66.3926,-3.85464,0.09384666,0.67021
602.197,66.45227,-3.8614,0.09413309,0.66978
602.797,66.5121,-3.85839,0.09504541,0.66935
603.397,66.5719,-3.85686,0.09299585,0.66893
603.997,66.63166,-3.85167,0.09587998,0.6685
604.597,66.69152,-3.85095,0.09657692,0.66807
605.197,66.7513,-3.84911,0.0995846,0.66765
605.797,66.81106,-3.8511,0.09693548,0.66722
606.397,66.87098,-3.85159,0.10002,0.6668
606.997,66.93065,-3.8502,0.10181,0.66637
607.597,66.99042,-3.84765,0.09979016,0.66595
608.197,67.0501,-3.84604,0.10184,0.66553
608.797,67.10983,-3.85031,0.10302,0.6651
609.397,67.1696,-3.85389,0.10314,0.66468
609.997,67.2294,-3.85766,0.10403,0.66426
610.597,67.28928,-3.85635,0.10485,0.66384
611.197,67.3492,-3.85643,0.10504,0.66342
611.797,67.40924,-3.85105,0.10353,0.663
612.397,67.46955,-3.84894,0.1078,0.66258
612.997,67.52949,-3.85271,0.10603,0.66216
613.597,67.58904,-3.85338,0.10653,0.66174
614.197,67.6489,-3.85182,0.11218,0.66132
614.797,67.70864,-3.85207,0.11153,0.6609
615.397,67.76858,-3.8528,0.11335,0.66048
615.997,67.82862,-3.85513,0.11745,0.66006
616.597,67.88844,-3.85383,0.11119,0.65965
617.197,67.94848,-3.85251,0.11635,0.65923
617.797,68.00856,-3.85246,0.11934,0.65882
618.397,68.06866,-3.85124,0.11583,0.6584
618.997,68.1286,-3.85259,0.11538,0.65799
619.597,68.18854,-3.85131,0.11733,0.65757
620.197,68.24844,-3.85154,0.11893,0.65716
620.797,68.30835,-3.85097,0.11707,0.65674
621.397,68.36832,-3.84978,0.1235,0.65633
621.997,68.42818,-3.85,0.12403,0.65592
622.597,68.48818,-3.84999,0.12384,0.65551
623.197,68.5481,-3.84995,0.12435,0.6551
623.797,68.60813,-3.8526,0.121,0.65468
624.397,68.66806,-3.85216,0.12572,0.65427
624.997,68.72814,-3.84999,0.12713,0.65386
625.597,68.78825,-3.85249,0.12962,0.65345
626.197,68.84814,-3.85262,0.13401,0.65304
626.797,68.90782,-3.8513,0.13042,0.65264
627.397,68.96738,-3.85057,0.13476,0.65223
627.997,69.0271,-3.8504,0.13121,0.65182
628.597,69.08718,-3.8513,0.13554,0.65141
629.197,69.1474,-3.8513,0.13333,0.65101
629.797,69.20769,-3.85455,0.13769,0.6506
630.397,69.2681,-3.8557,0.13989,0.65019
630.997,69.3283,-3.84895,0.13836,0.64979
631.597,69.38843,-3.85182,0.13905,0.64938
632.197,69.44864,-3.85036,0.1407,0.64898
632.797,69.50877,-3.8481,0.1416,0.64858
633.397,69.56881,-3.85122,0.14291,0.64817
633.997,69.6293,-3.85272,0.1419,0.64777
634.597,69.6897,-3.85335,0.14383,0.64737
635.197,69.7501,-3.85404,0.14805,0.64697
635.797,69.81053,-3.85372,0.14831,0.64657
636.397,69.8702,-3.85218,0.14706,0.64616
636.997,69.93007,-3.85218,0.15008,0.64576
637.597,69.99022,-3.85218,0.15109,0.64536