File: 01_Data/ABS/STA/N2/10K_min/ABS_STA_N2_10KData_211013_R1.csv
##Temp./Â°C,Time/min,Mass loss(subtr.2)/mg,DSC(subtr.2)/(mW/mg),Sensit./(uV/mW)
49.912,10.01,-0.00065,0.01054803,1.03584
50.512,11.47247,-0.0001195141,0.03025892,1.03581
51.112,11.83695,0.001064813,0.04543462,1.03578
51.712,12.09765,-0.001015073,0.05974167,1.03575
52.312,12.31475,0.000322557,0.06813147,1.03571
52.912,12.50549,0.000964519,0.07663155,1.03568
53.512,12.67578,0.00307878,0.08472586,1.03564
54.112,12.83502,0.00316172,0.09178949,1.0356
54.712,12.98298,0.00108534,0.09906685,1.03556
55.312,13.1205,0.001550435,0.10469,1.03552
55.912,13.2549,-8.4324e-05,0.11003,1.03548
56.512,13.3851,-0.000443632,0.11257,1.03543
57.112,13.5097,0.002093008,0.11751,1.03539
57.712,13.6296,0.001249763,0.12063,1.03534
58.312,13.74794,-0.000122019,0.12357,1.03529
58.912,13.8635,-0.0003438095,0.12836,1.03524
59.512,13.97631,-8.19487e-05,0.13228,1.03519
60.112,14.08634,0.0007122723,0.13829,1.03513
60.712,14.19258,-0.00037102,0.14103,1.03508
61.312,14.2967,-5.34042e-05,0.14505,1.03502
61.912,14.39916,0.001171699,0.14828,1.03496
62.512,14.49921,0.001861391,0.15101,1.0349
63.112,14.597,0.00128593,0.15433,1.03484
63.712,14.6931,0.0008987053,0.15723,1.03478
64.312,14.78859,-0.000406599,0.15992,1.03471
64.912,14.88235,-0.000368457,0.16474,1.03465
65.512,14.97475,0.00111299,0.16722,1.03458
66.112,15.0655,-0.0001748116,0.16901,1.03451
66.712,15.155,-0.000246718,0.17428,1.03444
67.312,15.2437,-0.001426107,0.17713,1.03437
67.912,15.3306,-0.000296135,0.18004,1.03429
68.512,15.41649,0.0003409673,0.18142,1.03422
69.112,15.5016,-0.0003216721,0.18319,1.03414
69.712,15.58625,0.001023287,0.18664,1.03406
70.312,15.66959,-0.0005084371,0.18967,1.03398
70.912,15.7518,-0.0006777878,0.19277,1.0339
71.512,15.8335,-0.000207344,0.19556,1.03382
72.112,15.9144,0.000439982,0.19828,1.03373
72.712,15.99422,0.000420208,0.20224,1.03365
73.312,16.07404,0.0005416405,0.20329,1.03356
73.912,16.1519,-0.001080578,0.20658,1.03347
74.512,16.23,0.001639405,0.21037,1.03338
75.112,16.3075,-0.00139851,0.21253,1.03329
75.712,16.38479,0.0006760597,0.21503,1.0332
76.312,16.46,-0.000218913,0.21717,1.0331
76.912,16.53507,-0.0002639166,0.21955,1.033
77.512,16.6098,-0.0006637097,0.22176,1.03291
78.112,16.68441,0.001059187,0.22311,1.03281
78.712,16.75815,-0.000333652,0.22729,1.03271
79.312,16.83089,-0.0005474653,0.22766,1.0326
79.912,16.90365,-0.00191528,0.2322,1.0325
80.512,16.976,0.0002089017,0.22823,1.0324
81.112,17.04835,-0.0007692674,0.23092,1.03229
81.712,17.12029,-0.000972046,0.23197,1.03218
82.312,17.19145,-0.0009902139,0.23373,1.03207
82.912,17.26241,-0.001950991,0.23258,1.03196
83.512,17.33267,-0.001352198,0.23414,1.03185
84.112,17.40278,-0.001119565,0.23452,1.03173
84.712,17.47239,-0.001190705,0.23662,1.03162
85.312,17.54162,-0.002077648,0.23523,1.0315
85.912,17.6099,-0.00120996,0.23471,1.03138
86.512,17.67782,-0.002372558,0.23595,1.03126
87.112,17.74554,-0.001218347,0.23586,1.03114
87.712,17.81309,-0.001193688,0.23711,1.03102
88.312,17.88118,-0.002543545,0.23923,1.0309
88.912,17.94881,-0.001224842,0.24089,1.03077
89.512,18.0163,-0.00156586,0.24178,1.03064
90.112,18.0827,-0.00115281,0.24275,1.03051
90.712,18.14869,-0.002542734,0.24369,1.03039
91.312,18.2145,-0.002520433,0.24549,1.03025
91.912,18.27974,-0.001201263,0.24669,1.03012
92.512,18.34498,-0.002614026,0.24766,1.02999
93.112,18.40971,-0.002331306,0.24949,1.02985
93.712,18.47425,-0.0008070473,0.25057,1.02971
94.312,18.53837,-0.00243361,0.25419,1.02958
94.912,18.60247,-0.001755083,0.25698,1.02944
95.512,18.66619,-0.001600842,0.2589,1.0293
96.112,18.73007,-0.001749869,0.25828,1.02915
96.712,18.79336,-0.001749995,0.2622,1.02901
97.312,18.85663,-0.001735605,0.26607,1.02886
97.912,18.91955,-0.003275265,0.26535,1.02872
98.512,18.98165,-0.0019643,0.26754,1.02857
99.112,19.0443,-0.001915856,0.26848,1.02842
99.712,19.10669,-0.001974418,0.27096,1.02827
100.312,19.16968,-0.001293222,0.27302,1.02812
100.912,19.23208,-0.000816297,0.27622,1.02796
101.512,19.29413,-0.00188884,0.2787,1.02781
102.112,19.35579,-0.00102885,0.28069,1.02765
102.712,19.4171,-0.002076661,0.28269,1.02749
103.312,19.47871,-0.001325432,0.28454,1.02733
103.912,19.54018,-0.00207938,0.28722,1.02717
104.512,19.602,-0.002108669,0.28944,1.02701
105.112,19.66305,-0.000879743,0.29307,1.02685
105.712,19.72391,-0.0008892576,0.29566,1.02668
106.312,19.78472,-0.0008774718,0.30018,1.02651
106.912,19.84575,-0.0008806243,0.30242,1.02635
107.512,19.90665,-0.0002221127,0.30693,1.02618
108.112,19.9673,-0.0008709838,0.3099,1.02601
108.712,20.0283,-0.0010218,0.31364,1.02584
109.312,20.08861,-0.000881141,0.31577,1.02566
109.912,20.1491,-0.000865455,0.32231,1.02549
110.512,20.2094,-0.002169424,0.32664,1.02531
111.112,20.26977,-0.00154837,0.33001,1.02514
111.712,20.32999,-0.002200192,0.33175,1.02496
112.312,20.39012,-0.0008808576,0.33531,1.02478
112.912,20.44993,-0.002190063,0.33462,1.0246
113.512,20.5096,-0.002201353,0.33724,1.02441
114.112,20.56899,-0.0008701844,0.33804,1.02423
114.712,20.62829,-0.0008802169,0.33654,1.02404
115.312,20.68775,-0.00201486,0.33979,1.02386
115.912,20.74706,-0.00218412,0.33939,1.02367
116.512,20.80631,-0.002329248,0.33658,1.02348
117.112,20.8657,-0.0008260031,0.33708,1.02329
117.712,20.92482,-0.0008636518,0.33767,1.0231
118.312,20.98384,-0.002187405,0.33673,1.0229
118.912,21.0426,-0.002231753,0.33798,1.02271
119.512,21.10128,-0.002190104,0.33826,1.02251
120.112,21.15995,-0.001204736,0.3409,1.02232
120.712,21.2187,-0.00242451,0.34319,1.02212
121.312,21.27735,-0.001431159,0.34336,1.02192
121.912,21.3358,-0.0024632,0.34427,1.02172
122.512,21.39422,-0.001100644,0.34721,1.02152
123.112,21.45251,-0.001811342,0.34791,1.02131
123.712,21.51061,-0.002419837,0.34906,1.02111
124.312,21.5687,-0.001184103,0.35004,1.0209
124.912,21.62642,-0.002382314,0.3515,1.02069
125.512,21.68415,-0.001851178,0.35202,1.02048
126.112,21.74175,-0.002409913,0.35382,1.02027
126.712,21.79928,-0.002136471,0.35656,1.02006
127.312,21.85699,-0.001101507,0.35707,1.01985
127.912,21.91445,-0.00242515,0.358,1.01964
128.512,21.9721,-0.001094079,0.36095,1.01942
129.112,22.02944,-0.001084772,0.36068,1.0192
129.712,22.08683,-0.002407556,0.36306,1.01899
130.312,22.144,-0.00112531,0.36494,1.01877
130.912,22.20109,-0.002410272,0.36485,1.01855
131.512,22.25791,-0.00238951,0.36727,1.01832
132.112,22.3147,-0.0009886871,0.36839,1.0181
132.712,22.3715,-0.000990038,0.36854,1.01788
133.312,22.4283,-0.00218551,0.36727,1.01765
133.912,22.48479,-0.0009503978,0.36626,1.01742
134.512,22.54143,-0.001621624,0.36361,1.0172
135.112,22.59775,-0.0009459841,0.3627,1.01697
135.712,22.6543,-0.0009868605,0.36214,1.01674
136.312,22.71061,-0.002305489,0.36173,1.0165
136.912,22.7669,-0.002310017,0.36102,1.01627
137.512,22.82315,-0.002319121,0.362,1.01604
138.112,22.8793,-0.002693869,0.36077,1.0158
138.712,22.93516,-0.002299996,0.36242,1.01557
139.312,22.9912,-0.002321859,0.36214,1.01533
139.912,23.04711,-0.001670662,0.36383,1.01509
140.512,23.10311,-0.00112572,0.36428,1.01485
141.112,23.1591,-0.002070591,0.36518,1.01461
141.712,23.21497,-0.002079947,0.36505,1.01436
142.312,23.27073,-0.002474839,0.36574,1.01412
142.912,23.32623,-0.003405611,0.36787,1.01387
143.512,23.38169,-0.002881055,0.36675,1.01363
144.112,23.43719,-0.002690268,0.36815,1.01338
144.712,23.49258,-0.002079025,0.36784,1.01313
145.312,23.5479,-0.0007790573,0.36985,1.01288
145.912,23.6031,-0.003490728,0.37011,1.01263
146.512,23.65837,-0.00339868,0.37169,1.01238
147.112,23.71353,-0.00208443,0.37382,1.01212
147.712,23.7688,-0.003394484,0.37263,1.01187
148.312,23.82384,-0.00340159,0.37303,1.01161
148.912,23.8788,-0.004154042,0.37325,1.01135
149.512,23.93388,-0.00339946,0.37449,1.0111
150.112,23.98905,-0.004003475,0.3758,1.01084
150.712,24.0442,-0.00329151,0.37497,1.01057
151.312,24.09928,-0.00329,0.37704,1.01031
151.912,24.1543,-0.00328992,0.37736,1.01005
152.512,24.20909,-0.002036889,0.37662,1.00978
153.112,24.26388,-0.00328819,0.37692,1.00952
153.712,24.31851,-0.003289665,0.37872,1.00925
154.312,24.3732,-0.004478752,0.38165,1.00898
154.912,24.42793,-0.004610015,0.3821,1.00871
155.512,24.4828,-0.00461,0.38444,1.00844
156.112,24.53753,-0.005822189,0.38314,1.00817
156.712,24.5922,-0.004609406,0.38363,1.0079
157.312,24.64698,-0.003909115,0.38525,1.00763
157.912,24.70156,-0.003279152,0.3877,1.00735
158.512,24.7562,-0.004602783,0.38826,1.00707
159.112,24.81082,-0.004599929,0.38837,1.0068
159.712,24.86525,-0.004064932,0.38788,1.00652
160.312,24.92004,-0.005379564,0.38884,1.00624
160.912,24.97492,-0.00538003,0.38961,1.00596
161.512,25.02964,-0.005378624,0.39218,1.00568
162.112,25.08438,-0.00591052,0.3917,1.00539
162.712,25.13891,-0.005436089,0.39334,1.00511
163.312,25.19346,-0.00438911,0.39346,1.00482
163.912,25.2479,-0.0051773,0.39483,1.00454
164.512,25.30248,-0.00566215,0.39407,1.00425
165.112,25.35708,-0.00700497,0.39484,1.00396
165.712,25.41166,-0.004384808,0.39678,1.00367
166.312,25.46625,-0.003420508,0.39808,1.00338
166.912,25.52061,-0.0034,0.39838,1.00309
167.512,25.57495,-0.00341329,0.39813,1.0028
168.112,25.62937,-0.00367961,0.39888,1.0025
168.712,25.68385,-0.00402808,0.39947,1.00221
169.312,25.73837,-0.00339949,0.3999,1.00191
169.912,25.79285,-0.004695192,0.39922,1.00161
170.512,25.8471,-0.004720022,0.39836,1.00131
171.112,25.90111,-0.004720394,0.39952,1.00101
171.712,25.95553,-0.00600761,0.39953,1.00071
172.312,26.00989,-0.00603,0.40108,1.00041
172.912,26.06416,-0.00610977,0.40244,1.00011
173.512,26.11873,-0.005982975,0.40335,0.99981
174.112,26.17308,-0.006029938,0.40389,0.9995
174.712,26.2275,-0.00602189,0.40471,0.99919
175.312,26.2819,-0.006033056,0.40582,0.99889
175.912,26.33615,-0.006039975,0.4044,0.99858
176.512,26.3902,-0.006377862,0.40629,0.99827
177.112,26.44435,-0.00866627,0.40689,0.99796
177.712,26.4985,-0.008663994,0.40733,0.99765
178.312,26.55275,-0.007350735,0.40722,0.99733
178.912,26.6068,-0.00606671,0.40844,0.99702
179.512,26.6609,-0.007577019,0.40732,0.99671
180.112,26.7149,-0.007311574,0.40854,0.99639
180.712,26.7688,-0.006249946,0.40913,0.99607
181.312,26.8228,-0.007450147,0.4098,0.99575
181.912,26.8769,-0.007680061,0.41037,0.99544
182.512,26.93093,-0.007679998,0.4095,0.99512
183.112,26.985,-0.007686627,0.41126,0.9948
183.712,27.03902,-0.00632253,0.41082,0.99447
184.312,27.09292,-0.00767988,0.41308,0.99415
184.912,27.14681,-0.007666384,0.41316,0.99383
185.512,27.2007,-0.00636777,0.41375,0.9935
186.112,27.25447,-0.00768632,0.4142,0.99317
186.712,27.3083,-0.008510065,0.41448,0.99285
187.312,27.36212,-0.00767392,0.4157,0.99252
187.912,27.41593,-0.00907763,0.41582,0.99219
188.512,27.4697,-0.00900119,0.4184,0.99186
189.112,27.5233,-0.00768185,0.41758,0.99153
189.712,27.57695,-0.0076795,0.41867,0.9912
190.312,27.63042,-0.008993925,0.42091,0.99086
190.912,27.68393,-0.008997091,0.42128,0.99053
191.512,27.73752,-0.01034559,0.42138,0.99019
192.112,27.7911,-0.01033081,0.42195,0.98986
192.712,27.845,-0.008997006,0.42318,0.98952
193.312,27.89878,-0.009631193,0.42289,0.98918
193.912,27.95239,-0.008463156,0.42424,0.98884
194.512,28.00597,-0.01028977,0.42539,0.9885
195.112,28.0596,-0.008990142,0.4274,0.98816
195.712,28.11298,-0.008991733,0.42616,0.98782
196.312,28.1666,-0.011438,0.42589,0.98748
196.912,28.22,-0.01163005,0.42499,0.98713
197.512,28.27357,-0.01031183,0.42919,0.98679
198.112,28.32732,-0.01031,0.42876,0.98644
198.712,28.381,-0.01031007,0.42949,0.98609
199.312,28.43474,-0.01088743,0.42947,0.98574
199.912,28.4883,-0.01113916,0.42789,0.9854
200.512,28.5418,-0.01163003,0.43112,0.98505
201.112,28.5953,-0.01163,0.43056,0.9847
201.712,28.64893,-0.01163,0.43171,0.98434
202.312,28.70243,-0.01163,0.4313,0.98399
202.912,28.7559,-0.01163,0.42902,0.98364
203.512,28.8094,-0.01162984,0.42984,0.98328
204.112,28.8628,-0.01291515,0.43231,0.98293
204.712,28.9165,-0.011808,0.4319,0.98257
205.312,28.97008,-0.01295018,0.43267,0.98221
205.912,29.0237,-0.01295,0.43273,0.98185
206.512,29.07722,-0.01294954,0.43457,0.98149
207.112,29.1307,-0.01398239,0.43501,0.98113
207.712,29.18423,-0.01426003,0.43613,0.98077
208.312,29.23767,-0.01426447,0.43541,0.98041
208.912,29.2911,-0.0135973,0.43697,0.98005
209.512,29.3447,-0.01348014,0.43815,0.97968
210.112,29.3981,-0.01294166,0.43709,0.97932
210.712,29.45164,-0.01426487,0.43658,0.97895
211.312,29.5053,-0.01426025,0.43825,0.97859
211.912,29.55885,-0.0136961,0.44091,0.97822
212.512,29.6125,-0.01380431,0.44049,0.97785
213.112,29.6661,-0.01328406,0.44036,0.97748
213.712,29.71953,-0.01436405,0.44072,0.97711
214.312,29.77304,-0.01442885,0.44041,0.97674
214.912,29.8265,-0.01304966,0.44254,0.97637
215.512,29.88004,-0.01304998,0.44258,0.97599
216.112,29.9337,-0.01442247,0.44393,0.97562
216.712,29.9874,-0.01435726,0.44421,0.97525
217.312,30.04096,-0.01308606,0.44495,0.97487
217.912,30.0946,-0.01513476,0.44291,0.97449
218.512,30.14811,-0.01512979,0.4458,0.97412
219.112,30.2015,-0.01591378,0.447,0.97374
219.712,30.25511,-0.01644369,0.44618,0.97336
220.312,30.3086,-0.01579187,0.44753,0.97298
220.912,30.36215,-0.01578845,0.44763,0.9726
221.512,30.4157,-0.01712845,0.44774,0.97222
222.112,30.4693,-0.01568045,0.44898,0.97183
222.712,30.523,-0.01695063,0.45072,0.97145
223.312,30.57667,-0.01733015,0.44852,0.97107
223.912,30.6304,-0.01733,0.451,0.97068
224.512,30.68413,-0.01733,0.44912,0.9703
225.112,30.7378,-0.01733,0.45289,0.96991
225.712,30.7914,-0.01733,0.45029,0.96952
226.312,30.845,-0.01733,0.45115,0.96913
226.912,30.89872,-0.01733009,0.45252,0.96874
227.512,30.9523,-0.01752485,0.45215,0.96835
228.112,31.006,-0.01841804,0.45265,0.96796
228.712,31.05984,-0.01962995,0.45032,0.96757
229.312,31.11345,-0.01963,0.45164,0.96718
229.912,31.1674,-0.01963174,0.45423,0.96678
230.512,31.2212,-0.0209543,0.45399,0.96639
231.112,31.27485,-0.02026515,0.4536,0.966
231.712,31.3286,-0.02027791,0.45398,0.9656
232.312,31.38216,-0.01963158,0.45455,0.9652
232.912,31.43572,-0.02073706,0.45399,0.96481
233.512,31.4893,-0.02095137,0.45434,0.96441
234.112,31.543,-0.01964456,0.45512,0.96401
234.712,31.5963,-0.0213081,0.45451,0.96361
235.312,31.6498,-0.02193976,0.45649,0.96321
235.912,31.70324,-0.02097821,0.45675,0.96281
236.512,31.7566,-0.02094998,0.45374,0.9624
237.112,31.8103,-0.02095053,0.45747,0.962
237.712,31.864,-0.02140004,0.45773,0.9616
238.312,31.9177,-0.02345815,0.45809,0.96119
238.912,31.97157,-0.02237977,0.4602,0.96079
239.512,32.0253,-0.0222883,0.45912,0.96038
240.112,32.07901,-0.02369003,0.45954,0.95997
240.712,32.1327,-0.02228922,0.45977,0.95957
241.312,32.18632,-0.0223801,0.46117,0.95916
241.912,32.24003,-0.02238,0.46056,0.95875
242.512,32.29381,-0.02309829,0.46178,0.95834
243.112,32.34748,-0.02369026,0.45992,0.95793
243.712,32.40124,-0.02369441,0.46162,0.95752
244.312,32.45533,-0.02612372,0.4596,0.9571
244.912,32.50923,-0.02599997,0.46468,0.95669
245.512,32.56345,-0.02599825,0.46261,0.95628
246.112,32.61722,-0.02632463,0.4621,0.95586
246.712,32.67082,-0.02633,0.46392,0.95545
247.312,32.72455,-0.02633,0.46575,0.95503
247.912,32.77799,-0.02633079,0.46457,0.95462
248.512,32.83184,-0.02769012,0.46547,0.9542
249.112,32.88544,-0.02762188,0.46584,0.95378
249.712,32.93906,-0.026657,0.46578,0.95336
250.312,32.9925,-0.0279573,0.46723,0.95294
250.912,33.04613,-0.02796835,0.46747,0.95252
251.512,33.1,-0.02796937,0.46656,0.9521
252.112,33.15378,-0.02830071,0.4682,0.95168
252.712,33.20803,-0.02960464,0.46719,0.95126
253.312,33.26185,-0.02968239,0.46631,0.95083
253.912,33.3157,-0.03229181,0.46869,0.95041
254.512,33.36952,-0.03094578,0.46658,0.94999
255.112,33.42349,-0.03109416,0.46959,0.94956
255.712,33.47729,-0.03224946,0.4689,0.94914
256.312,33.53115,-0.03225,0.47021,0.94871
256.912,33.58498,-0.03224951,0.46654,0.94828
257.512,33.63895,-0.03357821,0.46887,0.94785
258.112,33.69288,-0.03356002,0.46996,0.94742
258.712,33.7468,-0.03357179,0.47029,0.947
259.312,33.80055,-0.03553906,0.47086,0.94657
259.912,33.8544,-0.03553989,0.46959,0.94613
260.512,33.90833,-0.03560962,0.46966,0.9457
261.112,33.96216,-0.03421837,0.46882,0.94527
261.712,34.01621,-0.03600283,0.46972,0.94484
262.312,34.07002,-0.0362,0.46995,0.94441
262.912,34.124,-0.03619997,0.47081,0.94397
263.512,34.17805,-0.03639301,0.4701,0.94354
264.112,34.23199,-0.03752553,0.46986,0.9431
264.712,34.2859,-0.03892638,0.4729,0.94267
265.312,34.33984,-0.03894084,0.47084,0.94223
265.912,34.3938,-0.03896867,0.47259,0.94179
266.512,34.44778,-0.04024915,0.47105,0.94135
267.112,34.50175,-0.04025033,0.46961,0.94092
267.712,34.55557,-0.04134608,0.46893,0.94048
268.312,34.60949,-0.04156989,0.46849,0.94004
268.912,34.66348,-0.04277332,0.46992,0.9396
269.512,34.7175,-0.04243802,0.46991,0.93916
270.112,34.77156,-0.04157027,0.46929,0.93871
270.712,34.82569,-0.0421341,0.4713,0.93827
271.312,34.87988,-0.04310472,0.47062,0.93783
271.912,34.93407,-0.04311451,0.47013,0.93738
272.512,34.98814,-0.04307201,0.4694,0.93694
273.112,35.04217,-0.04364021,0.46852,0.9365
273.712,35.09623,-0.04442024,0.46923,0.93605
274.312,35.1503,-0.04476077,0.46894,0.9356
274.912,35.2042,-0.04507589,0.46722,0.93516
275.512,35.25816,-0.04573323,0.46765,0.93471
276.112,35.31212,-0.04574004,0.46453,0.93426
276.712,35.36616,-0.0456697,0.46408,0.93381
277.312,35.42033,-0.04839215,0.46522,0.93337
277.912,35.47455,-0.04836984,0.46117,0.93292
278.512,35.52872,-0.04837,0.46145,0.93247
279.112,35.58294,-0.04837008,0.46254,0.93201
279.712,35.63701,-0.04943933,0.46077,0.93156
280.312,35.6912,-0.04960196,0.46014,0.93111
280.912,35.74535,-0.04926248,0.46146,0.93066
281.512,35.79943,-0.04968005,0.45933,0.93021
282.112,35.85371,-0.04968144,0.46037,0.92975
282.712,35.90795,-0.05098957,0.45699,0.9293
283.312,35.96215,-0.05097389,0.45651,0.92884
283.912,36.0165,-0.05201704,0.4544,0.92839
284.512,36.07065,-0.05332222,0.45513,0.92793
285.112,36.12472,-0.05232193,0.45199,0.92748
285.712,36.17903,-0.05232,0.45067,0.92702
286.312,36.23345,-0.05231514,0.4483,0.92656
286.912,36.2881,-0.05423455,0.44784,0.9261
287.512,36.34255,-0.05604943,0.44783,0.92565
288.112,36.3969,-0.05537744,0.44658,0.92519
288.712,36.45122,-0.05762896,0.44555,0.92473
289.312,36.50553,-0.05667148,0.44517,0.92427
289.912,36.5599,-0.05627009,0.4423,0.92381
290.512,36.6143,-0.05760849,0.4399,0.92334
291.112,36.66874,-0.05766399,0.43918,0.92288
291.712,36.72313,-0.05751821,0.43743,0.92242
292.312,36.77762,-0.05889738,0.43509,0.92196
292.912,36.83188,-0.05908608,0.43385,0.92149
293.512,36.8862,-0.05889996,0.43073,0.92103
294.112,36.94058,-0.05928547,0.42969,0.92057
294.712,36.99494,-0.0603778,0.42997,0.9201
295.312,37.04922,-0.05900668,0.42693,0.91964
295.912,37.10347,-0.06100912,0.42687,0.91917
296.512,37.1579,-0.06168369,0.42237,0.9187
297.112,37.21246,-0.06165701,0.42398,0.91824
297.712,37.26712,-0.06164375,0.41832,0.91777
298.312,37.32185,-0.06295854,0.41933,0.9173
298.912,37.37642,-0.06296,0.41525,0.91683
299.512,37.43092,-0.06295994,0.41499,0.91636
300.112,37.48545,-0.06338044,0.41236,0.91589
300.712,37.54,-0.06559,0.41116,0.91542
301.312,37.59449,-0.06479006,0.40899,0.91495
301.912,37.64891,-0.06426996,0.40601,0.91448
302.512,37.70329,-0.06567555,0.40222,0.91401
303.112,37.7579,-0.06658181,0.40311,0.91354
303.712,37.81241,-0.06658578,0.40086,0.91307
304.312,37.86698,-0.06658731,0.39607,0.9126
304.912,37.92157,-0.06658414,0.39369,0.91212
305.512,37.97611,-0.06788926,0.39322,0.91165
306.112,38.0306,-0.06790001,0.39069,0.91117
306.712,38.0852,-0.0687732,0.3886,0.9107
307.312,38.1397,-0.06921002,0.38409,0.91022
307.912,38.19397,-0.06920997,0.38382,0.90975
308.512,38.24864,-0.06943909,0.38011,0.90927
309.112,38.30332,-0.07053047,0.38173,0.9088
309.712,38.35802,-0.07055107,0.3765,0.90832
310.312,38.41302,-0.07187625,0.37393,0.90784
310.912,38.46739,-0.07315907,0.37319,0.90737
311.512,38.52202,-0.07319838,0.36928,0.90689
312.112,38.57673,-0.0718392,0.36754,0.90641
312.712,38.63145,-0.07294903,0.36724,0.90593
313.312,38.68655,-0.0732703,0.36398,0.90545
313.912,38.74133,-0.07273661,0.36282,0.90497
314.512,38.79619,-0.07327025,0.36038,0.90449
315.112,38.85085,-0.07329938,0.35958,0.90401
315.712,38.9056,-0.07595406,0.35698,0.90353
316.312,38.96024,-0.07591,0.35358,0.90305
316.912,39.01498,-0.07413606,0.35297,0.90257
317.512,39.07,-0.07458926,0.35229,0.90208
318.112,39.12472,-0.07558026,0.34834,0.9016
318.712,39.17946,-0.07619046,0.34724,0.90112
319.312,39.2341,-0.07823294,0.34476,0.90064
319.912,39.2888,-0.07980314,0.34407,0.90015
320.512,39.34357,-0.07984993,0.3424,0.89967
321.112,39.39847,-0.07984832,0.33925,0.89918
321.712,39.45277,-0.08018238,0.33903,0.8987
322.312,39.5075,-0.08018726,0.3326,0.89821
322.912,39.56239,-0.08223178,0.33396,0.89773
323.512,39.6175,-0.0808381,0.33082,0.89724
324.112,39.67313,-0.08083412,0.32671,0.89675
324.712,39.72825,-0.08050874,0.32565,0.89627
325.312,39.78327,-0.08158907,0.32255,0.89578
325.912,39.83815,-0.08281974,0.32,0.89529
326.512,39.893,-0.08314056,0.31866,0.8948
327.112,39.94797,-0.08561785,0.31653,0.89432
327.712,40.00289,-0.08425918,0.31197,0.89383
328.312,40.058,-0.08423999,0.31068,0.89334
328.912,40.1133,-0.08424,0.30816,0.89285
329.512,40.16822,-0.08423493,0.30604,0.89236
330.112,40.2232,-0.08586857,0.30411,0.89187
330.712,40.27828,-0.08642334,0.30204,0.89138
331.312,40.33337,-0.08828528,0.29684,0.89089
331.912,40.38858,-0.08818996,0.29625,0.8904
332.512,40.44384,-0.08819,0.29287,0.88991
333.112,40.49899,-0.08819,0.29219,0.88941
333.712,40.55405,-0.08819021,0.28818,0.88892
334.312,40.60913,-0.08760223,0.28448,0.88843
334.912,40.66427,-0.08787342,0.28539,0.88794
335.512,40.7193,-0.08758839,0.27744,0.88744
336.112,40.77438,-0.0868698,0.27265,0.88695
336.712,40.82967,-0.08685929,0.27371,0.88646
337.312,40.8848,-0.08975474,0.27019,0.88596
337.912,40.9402,-0.09182781,0.26674,0.88547
338.512,40.99552,-0.09340782,0.26284,0.88497
339.112,41.0507,-0.0934525,0.26114,0.88448
339.712,41.10563,-0.09440562,0.25716,0.88398
340.312,41.1608,-0.09477007,0.25516,0.88349
340.912,41.21606,-0.094771,0.25305,0.88299
341.512,41.27142,-0.09612376,0.24804,0.8825
342.112,41.32692,-0.09726255,0.24655,0.882
342.712,41.38198,-0.10194,0.24584,0.8815
343.312,41.4373,-0.0965089,0.24056,0.88101
343.912,41.49262,-0.09483444,0.23566,0.88051
344.512,41.54807,-0.10112,0.23362,0.88001
345.112,41.6036,-0.10117,0.23188,0.87951
345.712,41.65907,-0.101,0.22649,0.87902
346.312,41.71436,-0.10141,0.22425,0.87852
346.912,41.76964,-0.10364,0.22083,0.87802
347.512,41.82479,-0.10366,0.21917,0.87752
348.112,41.88003,-0.10398,0.21544,0.87702
348.712,41.9353,-0.10718,0.2135,0.87652
349.312,41.99075,-0.1076,0.20943,0.87602
349.912,42.0462,-0.10891,0.207,0.87552
350.512,42.10171,-0.11022,0.20383,0.87502
351.112,42.15717,-0.11117,0.20098,0.87452
351.712,42.21262,-0.11313,0.20076,0.87402
352.312,42.26805,-0.11385,0.19558,0.87352
352.912,42.32347,-0.11388,0.19408,0.87302
353.512,42.37893,-0.11514,0.19307,0.87252
354.112,42.4344,-0.11645,0.18918,0.87201
354.712,42.48999,-0.1178,0.19043,0.87151
355.312,42.54566,-0.12005,0.18741,0.87101
355.912,42.6012,-0.12043,0.18436,0.87051
356.512,42.6568,-0.12174,0.18207,0.87
357.112,42.71235,-0.1229,0.18132,0.8695
357.712,42.76802,-0.12303,0.1768,0.869
358.312,42.82376,-0.12615,0.17689,0.86849
358.912,42.87962,-0.12734,0.17445,0.86799
359.512,42.93527,-0.12876,0.17685,0.86749
360.112,42.99107,-0.13009,0.17506,0.86698
360.712,43.04681,-0.13138,0.17608,0.86648
361.312,43.10233,-0.13305,0.17856,0.86597
361.912,43.15821,-0.13577,0.17684,0.86547
362.512,43.21398,-0.13753,0.17729,0.86497
363.112,43.2697,-0.14027,0.17652,0.86446
363.712,43.32558,-0.13896,0.17667,0.86395
364.312,43.38139,-0.1424,0.17759,0.86345
364.912,43.43708,-0.14475,0.17828,0.86294
365.512,43.49308,-0.14664,0.17892,0.86244
366.112,43.54902,-0.14951,0.17907,0.86193
366.712,43.60479,-0.15163,0.18319,0.86143
367.312,43.6607,-0.15275,0.1844,0.86092
367.912,43.7166,-0.15619,0.18744,0.86041
368.512,43.77258,-0.15773,0.18852,0.85991
369.112,43.82843,-0.15997,0.19269,0.8594
369.712,43.8842,-0.16366,0.19708,0.85889
370.312,43.93998,-0.16607,0.19949,0.85838
370.912,43.9958,-0.16681,0.20369,0.85788
371.512,44.05178,-0.17071,0.20863,0.85737
372.112,44.10775,-0.17355,0.21188,0.85686
372.712,44.16389,-0.17536,0.21634,0.85635
373.312,44.21992,-0.17846,0.22253,0.85585
373.912,44.276,-0.18044,0.22708,0.85534
374.512,44.33206,-0.18342,0.23427,0.85483
375.112,44.38805,-0.18832,0.24093,0.85432
375.712,44.44408,-0.19152,0.24952,0.85381
376.312,44.5002,-0.1958,0.25572,0.8533
376.912,44.55624,-0.20025,0.26365,0.85279
377.512,44.6123,-0.20351,0.27438,0.85228
378.112,44.66835,-0.20646,0.28183,0.85177
378.712,44.72441,-0.20992,0.29206,0.85127
379.312,44.78049,-0.21482,0.30277,0.85076
379.912,44.83658,-0.21899,0.31424,0.85025
380.512,44.89267,-0.22213,0.32637,0.84974
381.112,44.9489,-0.22762,0.33999,0.84923
381.712,45.00492,-0.23161,0.34993,0.84872
382.312,45.06114,-0.23691,0.36555,0.84821
382.912,45.1172,-0.24178,0.37859,0.8477
383.512,45.17333,-0.24644,0.39397,0.84719
384.112,45.22963,-0.25192,0.41019,0.84667
384.712,45.28589,-0.25622,0.424,0.84616
385.312,45.34213,-0.26166,0.43998,0.84565
385.912,45.3984,-0.26914,0.45551,0.84514
386.512,45.4546,-0.2735,0.47254,0.84463
387.112,45.511,-0.27881,0.49192,0.84412
387.712,45.5675,-0.28661,0.51016,0.84361
388.312,45.62388,-0.29272,0.53012,0.8431
388.912,45.68027,-0.29872,0.55008,0.84259
389.512,45.73655,-0.30636,0.57104,0.84207
390.112,45.79283,-0.31234,0.59145,0.84156
390.712,45.84937,-0.31978,0.61229,0.84105
391.312,45.906,-0.32681,0.63402,0.84054
391.912,45.9627,-0.33432,0.66043,0.84003
392.512,46.01945,-0.34509,0.6841,0.83952
393.112,46.07605,-0.35166,0.70611,0.839
393.712,46.13264,-0.35893,0.73454,0.83849
394.312,46.1893,-0.36928,0.75675,0.83798
394.912,46.24586,-0.378,0.78596,0.83747
395.512,46.30247,-0.38611,0.81379,0.83695
396.112,46.35907,-0.39698,0.84335,0.83644
396.712,46.41584,-0.40649,0.86955,0.83593
397.312,46.47266,-0.41701,0.90274,0.83542
397.912,46.52935,-0.4271,0.93282,0.8349
398.512,46.58605,-0.43751,0.96441,0.83439
399.112,46.6428,-0.45052,0.99647,0.83388
399.712,46.69938,-0.46214,1.02678,0.83337
400.312,46.7562,-0.47369,1.0618,0.83285
400.912,46.813,-0.48701,1.09394,0.83234
401.512,46.86973,-0.49967,1.13101,0.83183
402.112,46.92648,-0.51391,1.16773,0.83131
402.712,46.98302,-0.52886,1.20376,0.8308
403.312,47.03976,-0.54223,1.24476,0.83029
403.912,47.09652,-0.5586,1.28281,0.82978
404.512,47.15328,-0.57411,1.32175,0.82926
405.112,47.21009,-0.58959,1.36366,0.82875
405.712,47.2669,-0.60581,1.40227,0.82824
406.312,47.3239,-0.62298,1.44746,0.82772
406.912,47.38084,-0.64203,1.49106,0.82721
407.512,47.4379,-0.66154,1.53517,0.8267
408.112,47.49484,-0.67812,1.57949,0.82618
408.712,47.55186,-0.69937,1.62694,0.82567
409.312,47.60882,-0.71984,1.67536,0.82516
409.912,47.66559,-0.7396,1.7227,0.82464
410.512,47.72262,-0.76328,1.77318,0.82413
411.112,47.77964,-0.78522,1.82213,0.82362
411.712,47.83681,-0.80916,1.8747,0.8231
412.312,47.8938,-0.8335,1.92306,0.82259
412.912,47.95085,-0.85785,1.98033,0.82208
413.512,48.00781,-0.88488,2.03162,0.82156
414.112,48.06492,-0.91102,2.08473,0.82105
414.712,48.12211,-0.93974,2.14021,0.82054
415.312,48.17915,-0.9681,2.19457,0.82002
415.912,48.23644,-0.9984,2.2452,0.81951
416.512,48.2935,-1.02879,2.3009,0.819
417.112,48.35058,-1.05884,2.35571,0.81848
417.712,48.40787,-1.09129,2.40917,0.81797
418.312,48.465,-1.12476,2.46016,0.81746
418.912,48.52217,-1.15855,2.50951,0.81694
419.512,48.57928,-1.19259,2.56338,0.81643
420.112,48.6364,-1.22981,2.61256,0.81592
420.712,48.69337,-1.26391,2.65788,0.8154
421.312,48.75051,-1.30315,2.70621,0.81489
421.912,48.8076,-1.34175,2.74773,0.81438
422.512,48.86468,-1.38039,2.79036,0.81386
423.112,48.9219,-1.42266,2.82973,0.81335
423.712,48.979,-1.46031,2.86597,0.81284
424.312,49.0362,-1.50327,2.89659,0.81232
424.912,49.09342,-1.54354,2.92784,0.81181
425.512,49.1507,-1.58818,2.95755,0.8113
426.112,49.20805,-1.6314,2.98005,0.81079
426.712,49.26536,-1.67345,2.99951,0.81027
427.312,49.32258,-1.72015,3.0142,0.80976
427.912,49.37984,-1.76156,3.02759,0.80925
428.512,49.43693,-1.80646,3.03423,0.80873
429.112,49.49413,-1.85062,3.03695,0.80822
429.712,49.5514,-1.89717,3.03351,0.80771
430.312,49.6087,-1.94318,3.02803,0.8072
430.912,49.6659,-1.9869,3.0157,0.80668
431.512,49.72299,-2.03378,3.00152,0.80617
432.112,49.7802,-2.07738,2.98256,0.80566
432.712,49.8375,-2.12201,2.95919,0.80515
433.312,49.89479,-2.16616,2.9317,0.80464
433.912,49.95185,-2.21099,2.9008,0.80412
434.512,50.00884,-2.25382,2.86252,0.80361
435.112,50.0658,-2.29862,2.82362,0.8031
435.712,50.12272,-2.34195,2.78138,0.80259
436.312,50.17987,-2.38393,2.73535,0.80208
436.912,50.2369,-2.42718,2.68493,0.80156
437.512,50.29402,-2.46798,2.63709,0.80105
438.112,50.35103,-2.50896,2.5789,0.80054
438.712,50.4079,-2.54836,2.51954,0.80003
439.312,50.46471,-2.58618,2.45904,0.79952
439.912,50.5215,-2.62619,2.40226,0.79901
440.512,50.5783,-2.66295,2.34051,0.79849
441.112,50.63507,-2.70053,2.27742,0.79798
441.712,50.6921,-2.73591,2.21661,0.79747
442.312,50.7492,-2.7714,2.15406,0.79696
442.912,50.8063,-2.80732,2.09395,0.79645
443.512,50.86343,-2.84013,2.03395,0.79594
444.112,50.92048,-2.87461,1.97316,0.79543
444.712,50.97742,-2.90409,1.91605,0.79492
445.312,51.0343,-2.93524,1.86004,0.79441
445.912,51.09117,-2.96578,1.80364,0.7939
446.512,51.14788,-2.99674,1.75042,0.79339
447.112,51.20465,-3.02671,1.70119,0.79288
447.712,51.26153,-3.05428,1.65146,0.79237
448.312,51.31843,-3.08509,1.60552,0.79186
448.912,51.37562,-3.11172,1.56257,0.79135
449.512,51.4326,-3.13771,1.52102,0.79084
450.112,51.4896,-3.16495,1.46915,0.79033
450.712,51.5466,-3.19143,1.40987,0.78982
451.312,51.60354,-3.21848,1.35137,0.78931
451.912,51.6603,-3.24277,1.29933,0.7888
452.512,51.7172,-3.26538,1.24658,0.78829
453.112,51.7742,-3.28798,1.20121,0.78778
453.712,51.8313,-3.31201,1.14771,0.78728
454.312,51.8885,-3.33268,1.10137,0.78677
454.912,51.94558,-3.35441,1.05581,0.78626
455.512,52.00274,-3.37489,1.01105,0.78575
456.112,52.0599,-3.39311,0.97502,0.78524
456.712,52.1172,-3.41322,0.93374,0.78473
457.312,52.1742,-3.43006,0.89861,0.78423
457.912,52.2315,-3.44879,0.86997,0.78372
458.512,52.28857,-3.46693,0.83379,0.78321
459.112,52.34561,-3.48174,0.79742,0.7827
459.712,52.40274,-3.49937,0.76079,0.7822
460.312,52.45997,-3.51389,0.72926,0.78169
460.912,52.51726,-3.52982,0.69643,0.78118
461.512,52.57441,-3.54372,0.66636,0.78068
462.112,52.63156,-3.5586,0.63443,0.78017
462.712,52.68857,-3.5714,0.61106,0.77966
463.312,52.7458,-3.58538,0.58048,0.77916
463.912,52.8031,-3.59609,0.5572,0.77865
464.512,52.86048,-3.60794,0.53521,0.77815
465.112,52.9178,-3.62005,0.51434,0.77764
465.712,52.975,-3.63147,0.49167,0.77713
466.312,53.03201,-3.64165,0.47566,0.77663
466.912,53.08928,-3.65226,0.45872,0.77612
467.512,53.1466,-3.66165,0.44055,0.77562
468.112,53.20403,-3.67308,0.42715,0.77511
468.712,53.2621,-3.67986,0.41128,0.77461
469.312,53.31969,-3.68847,0.39766,0.77411
469.912,53.37746,-3.69804,0.38329,0.7736
470.512,53.4352,-3.70684,0.37634,0.7731
471.112,53.4927,-3.71464,0.36163,0.77259
471.712,53.5504,-3.7214,0.35344,0.77209
472.312,53.60813,-3.73142,0.3438,0.77159
472.912,53.66581,-3.73975,0.33153,0.77108
473.512,53.72355,-3.74614,0.32165,0.77058
474.112,53.7811,-3.75215,0.31067,0.77008
474.712,53.8387,-3.75847,0.3056,0.76957
475.312,53.8965,-3.76775,0.29786,0.76907
475.912,53.9542,-3.77246,0.2896,0.76857
476.512,54.01226,-3.77893,0.28142,0.76807
477.112,54.07025,-3.78551,0.27409,0.76757
477.712,54.128,-3.79146,0.26684,0.76706
478.312,54.1859,-3.79811,0.25934,0.76656
478.912,54.2436,-3.80466,0.25363,0.76606
479.512,54.3013,-3.80855,0.24719,0.76556
480.112,54.35926,-3.81405,0.23771,0.76506
480.712,54.4172,-3.81742,0.23281,0.76456
481.312,54.47526,-3.82382,0.2237,0.76406
481.912,54.5333,-3.82951,0.21256,0.76356
482.512,54.59126,-3.83088,0.20674,0.76306
483.112,54.64924,-3.83541,0.19877,0.76256
483.712,54.70689,-3.83961,0.19496,0.76206
484.312,54.76485,-3.84255,0.1898,0.76156
484.912,54.8229,-3.84645,0.1817,0.76106
485.512,54.881,-3.84832,0.17306,0.76056
486.112,54.93935,-3.85152,0.16218,0.76007
486.712,54.9976,-3.85486,0.15977,0.75957
487.312,55.05565,-3.85742,0.15239,0.75907
487.912,55.11374,-3.86104,0.14431,0.75857
488.512,55.1717,-3.86298,0.13712,0.75807
489.112,55.22988,-3.8638,0.1308,0.75758
489.712,55.2882,-3.86684,0.12407,0.75708
490.312,55.3463,-3.86936,0.11795,0.75658
490.912,55.4045,-3.87047,0.11181,0.75609
491.512,55.4625,-3.87213,0.10782,0.75559
492.112,55.5205,-3.87412,0.10256,0.75509
492.712,55.5786,-3.87566,0.09534401,0.7546
493.312,55.63691,-3.87674,0.09070102,0.7541
493.912,55.695,-3.87676,0.08470364,0.75361
494.512,55.75329,-3.87791,0.08243989,0.75311
495.112,55.8114,-3.87809,0.07996523,0.75262
495.712,55.86948,-3.87938,0.07691525,0.75212
496.312,55.92756,-3.88069,0.07463166,0.75163
496.912,55.98554,-3.8807,0.07282051,0.75114
497.512,56.04365,-3.88071,0.07231512,0.75064
498.112,56.10185,-3.88136,0.06926747,0.75015
498.712,56.15999,-3.88201,0.06709446,0.74966
499.312,56.2183,-3.88399,0.06365863,0.74916
499.912,56.2766,-3.88267,0.06032387,0.74867
500.512,56.3347,-3.88397,0.06131312,0.74818
501.112,56.3931,-3.88396,0.05853824,0.74769
501.712,56.4511,-3.88265,0.05602452,0.74719
502.312,56.5092,-3.88399,0.05472884,0.7467
502.912,56.5673,-3.8839,0.05412256,0.74621
503.512,56.6255,-3.88327,0.05447398,0.74572
504.112,56.68368,-3.88464,0.05349896,0.74523
504.712,56.7419,-3.88464,0.05316642,0.74474
505.312,56.80024,-3.88465,0.05291859,0.74425
505.912,56.85858,-3.88507,0.05247586,0.74376
506.512,56.91692,-3.88393,0.05046643,0.74327
507.112,56.97511,-3.8853,0.05386448,0.74278
507.712,57.0333,-3.8853,0.04849054,0.74229
508.312,57.0914,-3.8853,0.04955852,0.7418
508.912,57.1495,-3.88662,0.04807838,0.74131
509.512,57.20785,-3.88463,0.04898521,0.74083
510.112,57.266,-3.88618,0.04808715,0.74034
510.712,57.32473,-3.88618,0.04673956,0.73985
511.312,57.38295,-3.88618,0.04868772,0.73936
511.912,57.44155,-3.88618,0.04728391,0.73888
512.512,57.49977,-3.8875,0.04721153,0.73839
513.112,57.55806,-3.88741,0.0453043,0.7379
513.712,57.6162,-3.88749,0.04613677,0.73742
514.312,57.6744,-3.88749,0.0435139,0.73693
514.912,57.7326,-3.8889,0.04432566,0.73645
515.512,57.7906,-3.88881,0.04019091,0.73596
516.112,57.84896,-3.88881,0.04325079,0.73548
516.712,57.90724,-3.88881,0.04141719,0.73499
517.312,57.96541,-3.88748,0.04240794,0.73451
517.912,58.0236,-3.88781,0.04270644,0.73403
518.512,58.08192,-3.88719,0.04592839,0.73354
519.112,58.1402,-3.88881,0.0455064,0.73306
519.712,58.1986,-3.88881,0.04534545,0.73258
520.312,58.25708,-3.89012,0.04679571,0.73209
520.912,58.3155,-3.88981,0.04871981,0.73161
521.512,58.37404,-3.88945,0.05122946,0.73113
522.112,58.4325,-3.88848,0.04671037,0.73065
522.712,58.4911,-3.8874,0.0500794,0.73017
523.312,58.5496,-3.88849,0.0480428,0.72969
523.912,58.6083,-3.88979,0.04838227,0.72921
524.512,58.66698,-3.8898,0.04430507,0.72873
525.112,58.7254,-3.88989,0.04526471,0.72825
525.712,58.78369,-3.88838,0.04421528,0.72777
526.312,58.842,-3.88977,0.04610906,0.72729
526.912,58.9005,-3.88969,0.04562997,0.72681
527.512,58.95895,-3.88969,0.04644613,0.72633
528.112,59.0176,-3.88969,0.04658781,0.72585
528.712,59.0762,-3.8931,0.05038604,0.72537
529.312,59.1348,-3.89313,0.04535383,0.7249
529.912,59.19335,-3.88081,0.04310162,0.72442
530.512,59.25184,-3.88972,0.04624147,0.72394
531.112,59.3105,-3.89058,0.04348811,0.72347
531.712,59.36917,-3.89056,0.04352289,0.72299
532.312,59.42804,-3.89056,0.04284028,0.72251
532.912,59.48672,-3.89061,0.04196329,0.72204
533.512,59.54551,-3.88977,0.03930667,0.72156
534.112,59.60419,-3.89057,0.03850449,0.72109
534.712,59.663,-3.8912,0.04062205,0.72061
535.312,59.72172,-3.89188,0.03596781,0.72014
535.912,59.7805,-3.8915,0.04112308,0.71967
536.512,59.8394,-3.88991,0.03901793,0.71919
537.112,59.8982,-3.88999,0.03878414,0.71872
537.712,59.95706,-3.88868,0.03559884,0.71825
538.312,60.0158,-3.88998,0.03781071,0.71778
538.912,60.07459,-3.89131,0.03889893,0.7173
539.512,60.1331,-3.89167,0.03835678,0.71683
540.112,60.19152,-3.89166,0.03902504,0.71636
540.712,60.25,-3.89101,0.03710701,0.71589
541.312,60.3088,-3.88826,0.03496157,0.71542
541.912,60.36772,-3.88927,0.03586485,0.71495
542.512,60.42664,-3.89114,0.03645717,0.71448
543.112,60.4856,-3.89134,0.03755791,0.71401
543.712,60.5443,-3.89134,0.0375493,0.71354
544.312,60.60341,-3.89133,0.03783823,0.71307
544.912,60.6626,-3.89002,0.03758093,0.7126
545.512,60.72153,-3.89002,0.03814828,0.71214
546.112,60.7807,-3.89002,0.03826251,0.71167
546.712,60.8396,-3.89002,0.03919353,0.7112
547.312,60.8987,-3.89068,0.03902719,0.71074
547.912,60.95769,-3.89068,0.04205019,0.71027
548.512,61.01679,-3.88997,0.04138664,0.7098
549.112,61.0756,-3.89002,0.03984955,0.70934
549.712,61.1344,-3.89002,0.04118114,0.70887
550.312,61.1934,-3.89018,0.04384252,0.70841
550.912,61.25232,-3.89266,0.04423703,0.70794
551.512,61.3114,-3.89065,0.04403049,0.70748
552.112,61.3706,-3.89067,0.04493253,0.70702
552.712,61.4295,-3.89067,0.04550154,0.70655
553.312,61.4886,-3.89061,0.04846867,0.70609
553.912,61.5476,-3.89078,0.04849388,0.70563
554.512,61.60674,-3.89068,0.04992964,0.70517
555.112,61.66575,-3.89068,0.04689216,0.7047
555.712,61.7247,-3.89068,0.04830897,0.70424
556.312,61.78377,-3.89326,0.04710222,0.70378
556.912,61.84275,-3.89188,0.04678349,0.70332
557.512,61.9018,-3.89048,0.04887211,0.70286
558.112,61.96079,-3.88947,0.048024,0.7024
558.712,62.01961,-3.89078,0.04943519,0.70194
559.312,62.0787,-3.89078,0.04725623,0.70148
559.912,62.13775,-3.88947,0.04913617,0.70103
560.512,62.19689,-3.89023,0.05130866,0.70057
561.112,62.25597,-3.89144,0.05340067,0.70011
561.712,62.3154,-3.89153,0.05243259,0.69965
562.312,62.37451,-3.89008,0.05407505,0.6992
562.912,62.43379,-3.89144,0.05658439,0.69874
563.512,62.4929,-3.89021,0.056909,0.69828
564.112,62.5521,-3.89178,0.05745565,0.69783
564.712,62.6114,-3.89146,0.05904212,0.69737
565.312,62.67066,-3.8928,0.0600549,0.69692
565.912,62.72974,-3.89177,0.06383756,0.69646
566.512,62.789,-3.89046,0.06551558,0.69601
567.112,62.8482,-3.89046,0.06469485,0.69555
567.712,62.90739,-3.89046,0.06715668,0.6951
568.312,62.96676,-3.89045,0.07181538,0.69465
568.912,63.0259,-3.88923,0.07398231,0.6942
569.512,63.0853,-3.89178,0.07159845,0.69374
570.112,63.14442,-3.8904,0.07521305,0.69329
570.712,63.2037,-3.89076,0.0770557,0.69284
571.312,63.2629,-3.89169,0.08097483,0.69239
571.912,63.3221,-3.89145,0.0813781,0.69194
572.512,63.38135,-3.89145,0.08252796,0.69149
573.112,63.4406,-3.89145,0.08344921,0.69104
573.712,63.4999,-3.89276,0.08429204,0.69059
574.312,63.55915,-3.89145,0.09044171,0.69014
574.912,63.6183,-3.89275,0.09332581,0.6897
575.512,63.67775,-3.89161,0.09547393,0.68925
576.112,63.7372,-3.89261,0.09531969,0.6888
576.712,63.7965,-3.89144,0.09557129,0.68835
577.312,63.85595,-3.89144,0.10074,0.68791
577.912,63.91529,-3.89242,0.10441,0.68746
578.512,63.9746,-3.89243,0.10586,0.68702
579.112,64.03393,-3.89243,0.10985,0.68657
579.712,64.09299,-3.89256,0.11262,0.68613
580.312,64.15224,-3.89377,0.1132,0.68568
580.912,64.21152,-3.8911,0.11696,0.68524
581.512,64.27125,-3.89243,0.11827,0.6848
582.112,64.33065,-3.89243,0.11866,0.68435
582.712,64.39005,-3.89111,0.11927,0.68391
583.312,64.44921,-3.89111,0.12288,0.68347
583.912,64.50851,-3.89111,0.12327,0.68303
584.512,64.56785,-3.89111,0.1254,0.68258
585.112,64.62722,-3.89111,0.12732,0.68214
585.712,64.6866,-3.89179,0.12928,0.6817
586.312,64.7461,-3.89211,0.12953,0.68126
586.912,64.80547,-3.89079,0.13419,0.68082
587.512,64.86496,-3.89079,0.13754,0.68038
588.112,64.92442,-3.89209,0.13293,0.67995
588.712,64.9837,-3.89211,0.13528,0.67951
589.312,65.04321,-3.89308,0.13849,0.67907
589.912,65.1028,-3.89377,0.14164,0.67863
590.512,65.1623,-3.89243,0.14436,0.6782
591.112,65.2218,-3.89309,0.14636,0.67776
591.712,65.2812,-3.8931,0.14766,0.67732
592.312,65.3406,-3.8944,0.15032,0.67689
592.912,65.40004,-3.89309,0.15205,0.67645
593.512,65.45958,-3.8924,0.15627,0.67602
594.112,65.51899,-3.89309,0.15696,0.67559
594.712,65.57847,-3.89188,0.15783,0.67515
595.312,65.6378,-3.89321,0.16089,0.67472
595.912,65.69728,-3.8932,0.16363,0.67429
596.512,65.7565,-3.8919,0.16692,0.67385
597.112,65.8158,-3.89326,0.1678,0.67342
597.712,65.8754,-3.89198,0.17297,0.67299
598.312,65.93494,-3.89188,0.17602,0.67256
598.912,65.9948,-3.89183,0.17679,0.67213
599.512,66.0545,-3.8932,0.18042,0.6717
600.112,66.11406,-3.89168,0.17916,0.67127
600.712,66.1737,-3.89152,0.18234,0.67084
601.312,66.23344,-3.89331,0.18529,0.67041
601.912,66.2932,-3.8933,0.1896,0.66998
602.512,66.3533,-3.89133,0.18743,0.66956
603.112,66.41326,-3.89266,0.19227,0.66913
603.712,66.473,-3.89265,0.19484,0.6687
604.312,66.53256,-3.89265,0.19399,0.66827
604.912,66.5921,-3.89265,0.19522,0.66785
605.512,66.6519,-3.89255,0.19574,0.66742
606.112,66.7119,-3.89199,0.20008,0.667
606.712,66.77171,-3.89199,0.20098,0.66657
607.312,66.83152,-3.89275,0.202,0.66615
607.912,66.8912,-3.89462,0.20365,0.66573
608.512,66.95082,-3.89226,0.20476,0.6653
609.112,67.0106,-3.89321,0.20605,0.66488
609.712,67.07002,-3.89319,0.20979,0.66446
610.312,67.12937,-3.89188,0.2113,0.66404
610.912,67.18871,-3.89188,0.20943,0.66362
611.512,67.2482,-3.89319,0.21332,0.6632
612.112,67.30819,-3.89319,0.21824,0.66277
612.712,67.36832,-3.89189,0.21656,0.66235
613.312,67.4284,-3.89188,0.2192,0.66194
613.912,67.48836,-3.89332,0.22422,0.66152
614.512,67.54827,-3.89329,0.22359,0.6611
615.112,67.60807,-3.89329,0.22853,0.66068
615.712,67.66764,-3.89331,0.2275,0.66026
616.312,67.72726,-3.89199,0.22858,0.65985
616.912,67.78692,-3.89056,0.23376,0.65943
617.512,67.84662,-3.89051,0.23061,0.65901
618.112,67.90655,-3.89158,0.23395,0.6586
618.712,67.96627,-3.89177,0.23463,0.65818
619.312,68.0261,-3.89177,0.23217,0.65777
619.912,68.08584,-3.89441,0.23467,0.65735
620.512,68.1456,-3.89388,0.2437,0.65694
621.112,68.20543,-3.89184,0.24492,0.65653
621.712,68.2653,-3.89177,0.24666,0.65611
622.312,68.3252,-3.89177,0.24868,0.6557
622.912,68.38508,-3.89309,0.25067,0.65529
623.512,68.44508,-3.89169,0.25011,0.65488
624.112,68.50511,-3.89318,0.25218,0.65447
624.712,68.56491,-3.8932,0.2543,0.65406
625.312,68.62471,-3.8918,0.25925,0.65365
625.912,68.68463,-3.89189,0.25793,0.65324
626.512,68.74463,-3.89189,0.26012,0.65283
627.112,68.80467,-3.89189,0.2615,0.65242
627.712,68.86468,-3.89089,0.26157,0.65201
628.312,68.92445,-3.89075,0.25852,0.65161
628.912,68.98406,-3.89123,0.2586,0.6512
629.512,69.04394,-3.89115,0.26186,0.65079
630.112,69.104,-3.89222,0.26439,0.65039
630.712,69.16407,-3.89202,0.26592,0.64998
631.312,69.22453,-3.8909,0.26883,0.64958
631.912,69.28454,-3.8909,0.27059,0.64917
632.512,69.3446,-3.88989,0.27034,0.64877
633.112,69.40465,-3.88991,0.27244,0.64837
633.712,69.46469,-3.88991,0.2742,0.64796
634.312,69.5248,-3.88991,0.2727,0.64756
634.912,69.58507,-3.89122,0.27698,0.64716
635.512,69.6454,-3.8912,0.27781,0.64676
636.112,69.70564,-3.89181,0.28065,0.64635
636.712,69.76571,-3.89155,0.2829,0.64595
637.312,69.82584,-3.89247,0.28331,0.64555
637.912,69.8859,-3.89264,0.28278,0.64515
638.512,69.94588,-3.89122,0.28191,0.64476
639.112,70.0059,-3.89142,0.28265,0.64436
639.712,70.0658,-3.89155,0.28217,0.64396
640.312,70.1257,-3.89253,0.28482,0.64356
640.912,70.18571,-3.89109,0.28136,0.64316
641.512,70.2455,-3.89286,0.28623,0.64277
642.112,70.30526,-3.89342,0.28655,0.64237
642.712,70.36503,-3.8925,0.28559,0.64198
643.312,70.425,-3.89059,0.28628,0.64158
643.912,70.48501,-3.8907,0.28874,0.64119
644.512,70.5452,-3.89199,0.28843,0.64079
645.112,70.60546,-3.89198,0.29111,0.6404
645.712,70.6652,-3.89199,0.2928,0.64
646.312,70.72534,-3.89188,0.29638,0.63961
646.912,70.7854,-3.89188,0.29609,0.63922
647.512,70.8457,-3.89117,0.30249,0.63883
648.112,70.90663,-3.89189,0.30037,0.63844
648.712,70.96746,-3.89189,0.30233,0.63805
649.312,71.0283,-3.89189,0.30422,0.63766
649.912,71.0892,-3.89056,0.30391,0.63727
650.512,71.14996,-3.88991,0.30555,0.63688
651.112,71.2105,-3.88991,0.30874,0.63649
651.712,71.27093,-3.88991,0.31338,0.6361
652.312,71.33149,-3.89254,0.3144,0.63571
652.912,71.3921,-3.89121,0.31539,0.63532
653.512,71.45285,-3.89122,0.31381,0.63494
654.112,71.51345,-3.89122,0.31479,0.63455
654.712,71.57384,-3.89122,0.31505,0.63417
655.312,71.63415,-3.89122,0.31582,0.63378
655.912,71.69428,-3.89022,0.31923,0.6334
656.512,71.75409,-3.88991,0.3167,0.63301
657.112,71.8144,-3.89122,0.31648,0.63263
657.712,71.875,-3.89254,0.31585,0.63224
658.312,71.9354,-3.89254,0.31609,0.63186
658.912,71.99634,-3.89114,0.31415,0.63148
659.512,72.05654,-3.89113,0.31875,0.6311
660.112,72.1167,-3.891,0.31624,0.63072
660.712,72.177,-3.89099,0.3189,0.63034
661.312,72.2373,-3.891,0.32103,0.62996
661.912,72.29756,-3.88971,0.31793,0.62958
662.512,72.358,-3.88958,0.32257,0.6292
663.112,72.4183,-3.89093,0.32005,0.62882
663.712,72.47847,-3.8909,0.32134,0.62844
664.312,72.53863,-3.89095,0.32358,0.62806
664.912,72.59873,-3.89224,0.32337,0.62768
665.512,72.6592,-3.89093,0.32339,0.62731
666.112,72.71959,-3.88947,0.3227,0.62693
666.712,72.7799,-3.8909,0.32563,0.62656
667.312,72.84014,-3.8909,0.32851,0.62618
667.912,72.90044,-3.8909,0.32812,0.62581
668.512,72.96055,-3.8909,0.33016,0.62543
669.112,73.02116,-3.89014,0.33042,0.62506
669.712,73.08148,-3.88958,0.33104,0.62468
670.312,73.14224,-3.8909,0.33308,0.62431
670.912,73.2028,-3.89089,0.32897,0.62394
671.512,73.26317,-3.89089,0.32955,0.62357
672.112,73.3232,-3.88971,0.32973,0.6232
672.712,73.3835,-3.88958,0.33315,0.62283
673.312,73.44385,-3.8909,0.33628,0.62246
673.912,73.50479,-3.8923,0.33638,0.62209
674.512,73.5654,-3.89221,0.33898,0.62172
675.112,73.62599,-3.89089,0.34205,0.62135
675.712,73.68656,-3.8909,0.34288,0.62098
676.312,73.74685,-3.89083,0.34623,0.62061
676.912,73.80725,-3.89142,0.34732,0.62024
677.512,73.86754,-3.89013,0.34709,0.61988
678.112,73.92798,-3.89144,0.34365,0.61951
678.712,73.98846,-3.89013,0.34251,0.61915
679.312,74.049,-3.89013,0.34857,0.61878
679.912,74.10954,-3.89013,0.34947,0.61842
680.512,74.17014,-3.89145,0.34961,0.61805
681.112,74.2308,-3.89275,0.34637,0.61769
681.712,74.29157,-3.89219,0.34855,0.61732
682.312,74.3524,-3.89276,0.35011,0.61696
682.912,74.41314,-3.89276,0.35068,0.6166
683.512,74.4739,-3.89404,0.3488,0.61624
684.112,74.5345,-3.8913,0.34927,0.61588
684.712,74.5951,-3.89122,0.34854,0.61552
685.312,74.6557,-3.89122,0.35205,0.61516
685.912,74.71636,-3.89122,0.35035,0.6148
686.512,74.7769,-3.89122,0.34965,0.61444
687.112,74.83747,-3.89122,0.3544,0.61408
687.712,74.8981,-3.89241,0.35269,0.61372
688.312,74.95873,-3.89298,0.35169,0.61336
688.912,75.01957,-3.8921,0.35339,0.61301
689.512,75.0804,-3.8921,0.3536,0.61265
690.112,75.1411,-3.89103,0.3472,0.61229
690.712,75.2019,-3.89079,0.34862,0.61194
691.312,75.26256,-3.89113,0.34726,0.61158
691.912,75.32353,-3.8921,0.34643,0.61123
692.512,75.38432,-3.89359,0.34796,0.61087
693.112,75.44498,-3.89221,0.34694,0.61052
693.712,75.50572,-3.89221,0.34981,0.61017
694.312,75.56639,-3.8922,0.3489,0.60981
694.912,75.62708,-3.89352,0.34734,0.60946
695.512,75.68779,-3.89275,0.34769,0.60911
696.112,75.74863,-3.89221,0.34558,0.60876
696.712,75.8094,-3.89213,0.34739,0.60841
697.312,75.87046,-3.8921,0.34354,0.60806
697.912,75.93109,-3.89079,0.34018,0.60771
698.512,75.99165,-3.89217,0.33966,0.60736
699.112,76.05221,-3.8921,0.33422,0.60701
699.712,76.11275,-3.8921,0.33793,0.60666
700.312,76.17335,-3.8921,0.33366,0.60631
700.912,76.23392,-3.8908,0.33671,0.60597
701.512,76.2945,-3.89057,0.33649,0.60562
702.112,76.35516,-3.89199,0.33605,0.60527
702.712,76.41572,-3.89068,0.33278,0.60493
703.312,76.47625,-3.89133,0.33122,0.60458
703.912,76.5369,-3.89134,0.33587,0.60424
704.512,76.5975,-3.89065,0.33434,0.6039
705.112,76.6583,-3.89073,0.33231,0.60355
705.712,76.71891,-3.88999,0.33299,0.60321
706.312,76.77955,-3.89145,0.32532,0.60287
706.912,76.84039,-3.89145,0.32983,0.60252
707.512,76.9012,-3.89138,0.3304,0.60218
708.112,76.962,-3.89144,0.32827,0.60184
708.712,77.02301,-3.89144,0.33029,0.6015
709.312,77.08394,-3.89277,0.33047,0.60116
709.912,77.14502,-3.89135,0.33079,0.60082
710.512,77.20599,-3.89143,0.33037,0.60048
711.112,77.2669,-3.89265,0.33138,0.60014
711.712,77.3278,-3.89111,0.33073,0.5998
712.312,77.38845,-3.89111,0.33314,0.59947
712.912,77.44925,-3.88983,0.33819,0.59913
713.512,77.51017,-3.89254,0.33566,0.59879
714.112,77.5712,-3.89173,0.33346,0.59846
714.712,77.63212,-3.89024,0.32742,0.59812
715.312,77.69291,-3.89153,0.32207,0.59779
715.912,77.75361,-3.89134,0.32461,0.59745
716.512,77.8145,-3.8909,0.32044,0.59712
717.112,77.87545,-3.89088,0.32322,0.59678
717.712,77.93642,-3.89024,0.32248,0.59645
718.312,77.99745,-3.89024,0.32436,0.59612
718.912,78.0586,-3.89024,0.32287,0.59579
719.512,78.1199,-3.89122,0.31856,0.59545
720.112,78.18093,-3.8895,0.31824,0.59512
720.712,78.2418,-3.89025,0.32126,0.59479
721.312,78.3027,-3.89157,0.32292,0.59446
721.912,78.36371,-3.89094,0.3206,0.59413
722.512,78.42475,-3.89023,0.32159,0.5938
723.112,78.48575,-3.89023,0.32476,0.59347
723.712,78.54698,-3.89023,0.32619,0.59315
724.312,78.60816,-3.89023,0.33013,0.59282
724.912,78.6695,-3.89023,0.33229,0.59249
725.512,78.73059,-3.89155,0.32803,0.59216
726.112,78.79174,-3.89148,0.3281,0.59184
726.712,78.85292,-3.89114,0.32078,0.59151
727.312,78.91414,-3.891,0.31776,0.59119
727.912,78.9752,-3.89112,0.31721,0.59086
728.512,79.03612,-3.89112,0.31858,0.59054
729.112,79.09728,-3.89112,0.32018,0.59021
729.712,79.15824,-3.89112,0.32169,0.58989
730.312,79.21948,-3.89112,0.31894,0.58957
730.912,79.28069,-3.89112,0.3197,0.58925
731.512,79.34181,-3.89012,0.32004,0.58892
732.112,79.40312,-3.89146,0.31909,0.5886
732.712,79.46435,-3.88996,0.31921,0.58828
733.312,79.5257,-3.89122,0.3179,0.58796
733.912,79.58678,-3.89055,0.31773,0.58764
734.512,79.64784,-3.88991,0.31455,0.58732
735.112,79.70868,-3.89013,0.31597,0.587
735.712,79.76982,-3.89122,0.31372,0.58669
736.312,79.83106,-3.89122,0.31361,0.58637
736.912,79.8922,-3.89122,0.31827,0.58605
737.512,79.95335,-3.89106,0.31906,0.58573
737.912,79.9942,-3.88991,0.31902,0.58552