File: 01_Data/ABS/STA/N2/10K_min/ABS_STA_N2_10KData_220701_R4.csv
##Temp./Â°C,Time/min,Mass loss(subtr.2)/mg,DSC(subtr.2)/(mW/mg),Sensit./(uV/mW)
49.73,10.01,0.00989,0.009697105,1.07017
50.23,10.69394,0.01029315,0.04417416,1.07003
50.73,10.87214,0.01033708,0.07276627,1.0699
51.23,11.00297,0.01185013,0.09421152,1.06976
51.73,11.11157,0.01212754,0.11354,1.06962
52.23,11.20733,0.01032217,0.13064,1.06948
52.73,11.2945,0.01086344,0.14703,1.06934
53.23,11.37529,0.01159038,0.15775,1.0692
53.73,11.4518,0.01049493,0.17169,1.06906
54.23,11.52462,0.0106829,0.18152,1.06893
54.73,11.5951,0.01027258,0.1906,1.06879
55.23,11.6629,0.01160975,0.20076,1.06865
55.73,11.72913,0.01029229,0.20883,1.06851
56.23,11.79374,0.00994696,0.21388,1.06837
56.73,11.8568,0.01148728,0.22093,1.06822
57.23,11.91888,0.01056247,0.22379,1.06808
57.73,11.97987,0.01043004,0.23211,1.06794
58.23,12.03997,0.01153341,0.23594,1.0678
58.73,12.09919,0.01060974,0.24238,1.06766
59.23,12.1576,0.01130736,0.24637,1.06752
59.73,12.21562,0.01216816,0.25036,1.06738
60.23,12.27322,0.0118624,0.2534,1.06723
60.73,12.33038,0.0115636,0.25593,1.06709
61.23,12.38683,0.01060724,0.25994,1.06695
61.73,12.44287,0.01187053,0.26315,1.0668
62.23,12.4986,0.01183883,0.26729,1.06666
62.73,12.5539,0.01183998,0.27071,1.06652
63.23,12.6092,0.01179064,0.27357,1.06637
63.73,12.66418,0.01176278,0.27526,1.06623
64.23,12.719,0.01185956,0.2781,1.06608
64.73,12.7736,0.01066042,0.28026,1.06594
65.23,12.82819,0.01185963,0.28278,1.06579
65.73,12.8825,0.01242107,0.28466,1.06565
66.23,12.9364,0.01186138,0.28658,1.0655
66.73,12.99046,0.01255806,0.28826,1.06536
67.23,13.0442,0.01218321,0.29116,1.06521
67.73,13.09786,0.011863,0.29353,1.06506
68.23,13.15156,0.01052049,0.29539,1.06492
68.73,13.205,0.01100258,0.29683,1.06477
69.23,13.2586,0.01187532,0.29815,1.06462
69.73,13.312,0.01055125,0.30171,1.06448
70.23,13.3651,0.01054174,0.30243,1.06433
70.73,13.41819,0.01185399,0.30476,1.06418
71.23,13.471,0.01054099,0.30589,1.06403
71.73,13.5236,0.01123468,0.3079,1.06388
72.23,13.57646,0.01167374,0.30941,1.06373
72.73,13.6292,0.01120783,0.31129,1.06359
73.23,13.6819,0.01105425,0.31361,1.06344
73.73,13.73456,0.01135357,0.31485,1.06329
74.23,13.78684,0.01183497,0.3184,1.06314
74.73,13.83886,0.0105404,0.31799,1.06299
75.23,13.89074,0.01054178,0.31822,1.06284
75.73,13.9429,0.01122582,0.32193,1.06269
76.23,13.9951,0.01183559,0.32388,1.06254
76.73,14.0472,0.01296096,0.32401,1.06238
77.23,14.0992,0.01185927,0.32648,1.06223
77.73,14.15095,0.01185971,0.32791,1.06208
78.23,14.2025,0.01058006,0.32991,1.06193
78.73,14.25421,0.0118459,0.33034,1.06178
79.23,14.3059,0.01185998,0.32984,1.06162
79.73,14.3573,0.0120153,0.33274,1.06147
80.23,14.40875,0.0132104,0.33499,1.06132
80.73,14.4602,0.01186015,0.33542,1.06117
81.23,14.5117,0.01094584,0.33462,1.06101
81.73,14.56305,0.01219152,0.33491,1.06086
82.23,14.61444,0.01186923,0.33744,1.0607
82.73,14.6654,0.01178163,0.33639,1.06055
83.23,14.7164,0.01054478,0.33671,1.0604
83.73,14.76699,0.01146179,0.33855,1.06024
84.23,14.8177,0.01055206,0.3388,1.06009
84.73,14.86829,0.01184938,0.33949,1.05993
85.23,14.91884,0.01186001,0.33965,1.05978
85.73,14.9694,0.01186014,0.34007,1.05962
86.23,15.02007,0.01087712,0.33974,1.05946
86.73,15.07051,0.01186029,0.33781,1.05931
87.23,15.12101,0.01292793,0.33795,1.05915
87.73,15.1716,0.01318017,0.33836,1.05899
88.23,15.222,0.0117821,0.33723,1.05884
88.73,15.2723,0.01185965,0.33603,1.05868
89.23,15.3224,0.01100452,0.33743,1.05852
89.73,15.37243,0.01054797,0.3367,1.05836
90.23,15.42234,0.01190436,0.33647,1.05821
90.73,15.47216,0.01102104,0.33656,1.05805
91.23,15.52219,0.01053999,0.3368,1.05789
91.73,15.57218,0.01037504,0.33764,1.05773
92.23,15.6221,0.009220101,0.33758,1.05757
92.73,15.67185,0.00923119,0.33941,1.05741
93.23,15.7212,0.01054206,0.34049,1.05725
93.73,15.77086,0.01185391,0.34125,1.05709
94.23,15.8205,0.01185999,0.34441,1.05693
94.73,15.87019,0.01186305,0.34478,1.05677
95.23,15.92,0.01054001,0.34538,1.05661
95.73,15.9696,0.01054,0.34649,1.05645
96.23,16.01908,0.01053987,0.35028,1.05629
96.73,16.06865,0.01158933,0.34857,1.05612
97.23,16.1181,0.01127985,0.35326,1.05596
97.73,16.16759,0.0105547,0.35381,1.0558
98.23,16.21697,0.01075649,0.35561,1.05564
98.73,16.2662,0.01119262,0.35652,1.05547
99.23,16.31561,0.01054592,0.3608,1.05531
99.73,16.36486,0.01052558,0.36089,1.05515
100.23,16.4141,0.0115324,0.36247,1.05499
100.73,16.46313,0.01185039,0.36584,1.05482
101.23,16.5124,0.01205016,0.36697,1.05466
101.73,16.5615,0.01315217,0.36783,1.05449
102.23,16.6105,0.01186523,0.36784,1.05433
102.73,16.65971,0.01186001,0.37081,1.05416
103.23,16.70876,0.01184867,0.37468,1.054
103.73,16.75777,0.01197097,0.37623,1.05383
104.23,16.80692,0.01238487,0.37707,1.05367
104.73,16.85582,0.01120156,0.37916,1.0535
105.23,16.9048,0.01119963,0.38032,1.05334
105.73,16.9536,0.01067744,0.38348,1.05317
106.23,17.0025,0.01120865,0.38777,1.053
106.73,17.05153,0.01121043,0.3895,1.05284
107.23,17.1004,0.01186886,0.39216,1.05267
107.73,17.14935,0.01119983,0.39602,1.0525
108.23,17.19819,0.0112,0.39903,1.05233
108.73,17.24701,0.0112,0.40006,1.05216
109.23,17.29591,0.01119804,0.4038,1.052
109.73,17.34476,0.00992826,0.40685,1.05183
110.23,17.39345,0.01119811,0.4113,1.05166
110.73,17.4423,0.0112,0.41187,1.05149
111.23,17.49086,0.0112,0.41519,1.05132
111.73,17.5396,0.0112,0.4177,1.05115
112.23,17.58845,0.0112012,0.42146,1.05098
112.73,17.63746,0.01258947,0.42127,1.05081
113.23,17.68675,0.01123463,0.42279,1.05064
113.73,17.7358,0.01088663,0.42242,1.05047
114.23,17.78464,0.009879018,0.42236,1.0503
114.73,17.8335,0.00922218,0.42464,1.05013
115.23,17.8821,0.01185108,0.42567,1.04995
115.73,17.93084,0.01010561,0.4258,1.04978
116.23,17.97968,0.01010997,0.42569,1.04961
116.73,18.0285,0.009117257,0.42548,1.04944
117.23,18.07726,0.01009871,0.42567,1.04927
117.73,18.12591,0.0101,0.42702,1.04909
118.23,18.17456,0.01010166,0.42651,1.04892
118.73,18.22327,0.01129344,0.42717,1.04875
119.23,18.27204,0.01141998,0.42698,1.04857
119.73,18.3208,0.01143445,0.4274,1.0484
120.23,18.36976,0.01106943,0.42956,1.04822
120.73,18.4186,0.01141996,0.42996,1.04805
121.23,18.46735,0.01142,0.43199,1.04787
121.73,18.51594,0.01142,0.43348,1.0477
122.23,18.56454,0.01142,0.43109,1.04752
122.73,18.6131,0.01142,0.43204,1.04735
123.23,18.6617,0.01141853,0.43347,1.04717
123.73,18.71033,0.01241028,0.43593,1.047
124.23,18.75897,0.01141059,0.43784,1.04682
124.73,18.80745,0.01142004,0.43895,1.04664
125.23,18.8555,0.01142001,0.43969,1.04647
125.73,18.90385,0.01141705,0.4402,1.04629
126.23,18.95235,0.01279826,0.44056,1.04611
126.73,19.00094,0.01141819,0.44126,1.04593
127.23,19.04951,0.01142001,0.4427,1.04576
127.73,19.09826,0.0112159,0.44495,1.04558
128.23,19.1469,0.01140473,0.44212,1.0454
128.73,19.19531,0.01141989,0.44474,1.04522
129.23,19.24376,0.01151781,0.44621,1.04504
129.73,19.29233,0.0104318,0.44628,1.04486
130.23,19.34064,0.01042994,0.44938,1.04468
130.73,19.38916,0.01038872,0.44852,1.0445
131.23,19.43777,0.01184052,0.45104,1.04432
131.73,19.48659,0.01074522,0.45163,1.04414
132.23,19.53511,0.01175404,0.45133,1.04396
132.73,19.58344,0.01174999,0.44973,1.04378
133.23,19.63184,0.01175,0.44932,1.0436
133.73,19.68005,0.01175,0.44774,1.04342
134.23,19.7282,0.01176241,0.44814,1.04323
134.73,19.77652,0.01273693,0.44604,1.04305
135.23,19.82475,0.01274046,0.44488,1.04287
135.73,19.87294,0.01250059,0.44496,1.04269
136.23,19.92136,0.01177221,0.44425,1.0425
136.73,19.96986,0.01175,0.44342,1.04232
137.23,20.0184,0.01174999,0.4442,1.04214
137.73,20.06643,0.0117641,0.44658,1.04195
138.23,20.11446,0.01304643,0.44491,1.04177
138.73,20.16245,0.01306092,0.44655,1.04158
139.23,20.21043,0.01072345,0.44732,1.0414
139.73,20.2588,0.01043997,0.44557,1.04121
140.23,20.30736,0.01044,0.44649,1.04103
140.73,20.3557,0.01043946,0.44679,1.04084
141.23,20.40397,0.01184699,0.44921,1.04066
141.73,20.45209,0.01175009,0.45052,1.04047
142.23,20.5004,0.01040885,0.45134,1.04029
142.73,20.54873,0.01042988,0.45273,1.0401
143.23,20.5969,0.01043001,0.45301,1.03991
143.73,20.6452,0.01042634,0.45531,1.03972
144.23,20.69334,0.01180162,0.45502,1.03954
144.73,20.7413,0.01174995,0.45578,1.03935
145.23,20.78941,0.01174942,0.45602,1.03916
145.73,20.8374,0.01044947,0.45684,1.03897
146.23,20.8857,0.009027403,0.45774,1.03878
146.73,20.93362,0.009110117,0.45872,1.0386
147.23,20.98179,0.009115685,0.45956,1.03841
147.73,21.02983,0.0100991,0.46053,1.03822
148.23,21.078,0.008757095,0.45928,1.03803
148.73,21.1261,0.009109456,0.46381,1.03784
149.23,21.17399,0.009110001,0.46342,1.03765
149.73,21.22208,0.00911,0.46332,1.03746
150.23,21.26995,0.009109999,0.46355,1.03727
150.73,21.31781,0.00913222,0.46572,1.03707
151.23,21.36586,0.01043425,0.46685,1.03688
151.73,21.41385,0.009112951,0.46651,1.03669
152.23,21.46165,0.009120007,0.4695,1.0365
152.73,21.50964,0.009120002,0.46786,1.03631
153.23,21.5576,0.009113704,0.46765,1.03612
153.73,21.60558,0.01044601,0.46999,1.03592
154.23,21.6536,0.01043866,0.47036,1.03573
154.73,21.70155,0.009337398,0.47108,1.03554
155.23,21.74953,0.009120002,0.47263,1.03534
155.73,21.7972,0.00926649,0.47178,1.03515
156.23,21.845,0.01042516,0.47322,1.03495
156.73,21.89292,0.009133263,0.47355,1.03476
157.23,21.94076,0.009128719,0.47417,1.03457
157.73,21.98883,0.01040018,0.47511,1.03437
158.23,22.03661,0.01075373,0.47716,1.03418
158.73,22.0845,0.01076003,0.47687,1.03398
159.23,22.13231,0.01075363,0.4778,1.03378
159.73,22.18028,0.009442219,0.48008,1.03359
160.23,22.22835,0.009440023,0.47968,1.03339
160.73,22.27627,0.00944,0.48064,1.0332
161.23,22.3242,0.00944,0.48239,1.033
161.73,22.37211,0.00944,0.48346,1.0328
162.23,22.4198,0.00944,0.48371,1.0326
162.73,22.4676,0.00944,0.48368,1.03241
163.23,22.51546,0.009440341,0.48498,1.03221
163.73,22.563,0.009267866,0.48596,1.03201
164.23,22.6109,0.01009363,0.48646,1.03181
164.73,22.6588,0.01009998,0.48605,1.03161
165.23,22.70669,0.01010014,0.48676,1.03141
165.73,22.75465,0.00997856,0.4894,1.03121
166.23,22.80281,0.009688956,0.48804,1.03101
166.73,22.8507,0.009101072,0.48874,1.03081
167.23,22.89865,0.00911963,0.48927,1.03061
167.73,22.9465,0.009747377,0.49022,1.03041
168.23,22.9943,0.01042986,0.49043,1.03021
168.73,23.0422,0.01043116,0.49105,1.03001
169.23,23.0899,0.01010173,0.49339,1.02981
169.73,23.13766,0.009854611,0.49278,1.02961
170.23,23.18524,0.008459545,0.49379,1.02941
170.73,23.23307,0.008460001,0.49312,1.0292
171.23,23.2811,0.008460001,0.49497,1.029
171.73,23.32897,0.00846025,0.49636,1.0288
172.23,23.37685,0.007078926,0.49718,1.02859
172.73,23.42493,0.007140126,0.49751,1.02839
173.23,23.47266,0.00714,0.49792,1.02819
173.73,23.52051,0.00714,0.49917,1.02798
174.23,23.5684,0.00713521,0.49947,1.02778
174.73,23.6158,0.008465907,0.50064,1.02757
175.23,23.66358,0.008461362,0.49872,1.02737
175.73,23.7114,0.009759014,0.50071,1.02716
176.23,23.75925,0.009136218,0.50155,1.02696
176.73,23.80733,0.008790301,0.50284,1.02675
177.23,23.8555,0.008824264,0.50272,1.02655
177.73,23.90324,0.008462308,0.5051,1.02634
178.23,23.95103,0.00813475,0.50372,1.02613
178.73,23.99859,0.008130013,0.50634,1.02593
179.23,24.04622,0.008129924,0.50612,1.02572
179.73,24.09388,0.008172153,0.50648,1.02551
180.23,24.1418,0.008454296,0.50771,1.02531
180.73,24.18957,0.008450002,0.50856,1.0251
181.23,24.23761,0.00844956,0.50818,1.02489
181.73,24.28538,0.00790824,0.50934,1.02468
182.23,24.3331,0.00733265,0.51014,1.02447
182.73,24.38075,0.007129272,0.51112,1.02426
183.23,24.4284,0.00781213,0.51156,1.02405
183.73,24.47574,0.007789916,0.51437,1.02384
184.23,24.52296,0.00779,0.51381,1.02363
184.73,24.57055,0.007790065,0.51391,1.02342
185.23,24.6182,0.00807195,0.51405,1.02321
185.73,24.66584,0.008125147,0.51477,1.023
186.23,24.71389,0.007478861,0.51694,1.02279
186.73,24.7616,0.00745996,0.51474,1.02258
187.23,24.80931,0.007455069,0.51478,1.02237
187.73,24.85687,0.00615886,0.51581,1.02216
188.23,24.90431,0.006151512,0.51744,1.02194
188.73,24.9521,0.007448717,0.51625,1.02173
189.23,24.9996,0.007469991,0.51656,1.02152
189.73,25.04714,0.00747,0.51961,1.0213
190.23,25.09449,0.00747,0.52081,1.02109
190.73,25.14205,0.00747,0.52119,1.02088
191.23,25.18944,0.00747,0.52004,1.02066
191.73,25.23696,0.007470035,0.52045,1.02045
192.23,25.28475,0.007446714,0.51988,1.02023
192.73,25.3323,0.006151686,0.52174,1.02002
193.23,25.37978,0.00615,0.52255,1.0198
193.73,25.4273,0.00615,0.521,1.01959
194.23,25.47484,0.00615,0.52333,1.01937
194.73,25.52231,0.00615,0.52486,1.01916
195.23,25.5699,0.006150027,0.52469,1.01894
195.73,25.61743,0.006754525,0.52476,1.01872
196.23,25.66491,0.00678366,0.52517,1.01851
196.73,25.71257,0.005808141,0.52408,1.01829
197.23,25.76013,0.005489806,0.52458,1.01807
197.73,25.8077,0.005473475,0.52495,1.01786
198.23,25.85537,0.004838872,0.52568,1.01764
198.73,25.903,0.00613655,0.52577,1.01742
199.23,25.95062,0.00615076,0.52636,1.0172
199.73,25.99805,0.004839718,0.52672,1.01698
200.23,26.04566,0.00482997,0.52817,1.01676
200.73,26.09307,0.00483,0.52746,1.01654
201.23,26.14065,0.004830003,0.52866,1.01632
201.73,26.18804,0.00483402,0.52902,1.0161
202.23,26.2356,0.004186165,0.52903,1.01588
202.73,26.2833,0.004169998,0.52938,1.01566
203.23,26.33103,0.004165181,0.53164,1.01544
203.73,26.37828,0.004827729,0.53187,1.01522
204.23,26.42567,0.0048305,0.5308,1.015
204.73,26.4733,0.005296508,0.53174,1.01478
205.23,26.5209,0.005490061,0.53337,1.01455
205.73,26.5687,0.005490015,0.53295,1.01433
206.23,26.6167,0.005471146,0.53256,1.01411
206.73,26.6644,0.004824702,0.53129,1.01389
207.23,26.71205,0.004370052,0.53278,1.01366
207.73,26.7596,0.00385008,0.53367,1.01344
208.23,26.80725,0.003849999,0.53403,1.01322
208.73,26.8548,0.00385,0.5355,1.01299
209.23,26.9024,0.00385,0.53733,1.01277
209.73,26.95007,0.003850002,0.53484,1.01254
210.23,26.99775,0.003880287,0.53538,1.01232
210.73,27.04532,0.003527455,0.53638,1.01209
211.23,27.093,0.002193665,0.53487,1.01187
211.73,27.14054,0.002178471,0.53784,1.01164
212.23,27.1881,0.001209574,0.53814,1.01141
212.73,27.2359,0.001210001,0.53884,1.01119
213.23,27.2834,0.001210006,0.53832,1.01096
213.73,27.33093,0.001208867,0.54058,1.01073
214.23,27.3787,0.00252377,0.5396,1.01051
214.73,27.4263,0.00253003,0.54025,1.01028
215.23,27.4739,0.00253,0.54163,1.01005
215.73,27.5217,0.00253,0.54143,1.00982
216.23,27.56928,0.00253,0.54327,1.0096
216.73,27.61676,0.002529996,0.5423,1.00937
217.23,27.66442,0.002532184,0.54373,1.00914
217.73,27.7119,0.002207443,0.54636,1.00891
218.23,27.75961,0.002199985,0.5443,1.00868
218.73,27.80708,0.002258748,0.54608,1.00845
219.23,27.8546,0.001122111,0.54784,1.00822
219.73,27.90195,0.0002209409,0.54675,1.00799
220.23,27.94943,0.000220001,0.54763,1.00776
220.73,27.99685,0.0002199998,0.54808,1.00753
221.23,28.04455,0.0002201117,0.54932,1.00729
221.73,28.09217,0.0007613809,0.54985,1.00706
222.23,28.1399,0.000223624,0.54971,1.00683
222.73,28.1877,-0.0009223748,0.55084,1.0066
223.23,28.23517,-0.00110092,0.55103,1.00637
223.73,28.2827,0.000310105,0.55158,1.00613
224.23,28.33012,0.000220122,0.55157,1.0059
224.73,28.37783,-0.001085152,0.55375,1.00567
225.23,28.4254,-0.001098198,0.55216,1.00543
225.73,28.47308,0.0001948781,0.55278,1.0052
226.23,28.52076,0.000220014,0.55261,1.00496
226.73,28.5681,0.000219924,0.55354,1.00473
227.23,28.6157,0.0002892162,0.55427,1.00449
227.73,28.66341,-0.0008042034,0.55451,1.00426
228.23,28.7109,-0.0007600764,0.55469,1.00402
228.73,28.7585,-0.001759683,0.55557,1.00379
229.23,28.80625,-0.002472972,0.55621,1.00355
229.73,28.85395,-0.0024199,0.55587,1.00331
230.23,28.90158,-0.00242,0.55569,1.00308
230.73,28.94918,-0.002419944,0.55631,1.00284
231.23,28.99667,-0.00137944,0.55655,1.0026
231.73,29.0441,-0.00144805,0.55772,1.00237
232.23,29.09175,-0.00274504,0.55762,1.00213
232.73,29.13938,-0.00274001,0.55936,1.00189
233.23,29.1869,-0.002735758,0.55985,1.00165
233.73,29.2344,-0.003746157,0.55882,1.00141
234.23,29.28179,-0.003730335,0.55944,1.00117
234.73,29.32947,-0.004346174,0.56028,1.00093
235.23,29.37712,-0.005039433,0.55976,1.00069
235.73,29.42473,-0.005040033,0.56108,1.00045
236.23,29.47265,-0.005026327,0.55918,1.00021
236.73,29.52018,-0.003730184,0.55983,0.99997
237.23,29.56778,-0.004873139,0.56159,0.99973
237.73,29.61553,-0.005040426,0.56101,0.99949
238.23,29.6633,-0.00504,0.56037,0.99925
238.73,29.71107,-0.005039948,0.56272,0.99901
239.23,29.7584,-0.005004525,0.5616,0.99877
239.73,29.80593,-0.006363532,0.56228,0.99852
240.23,29.8535,-0.004943883,0.56156,0.99828
240.73,29.90095,-0.005044951,0.56319,0.99804
241.23,29.94854,-0.006031261,0.56257,0.99779
241.73,29.99618,-0.007339406,0.56345,0.99755
242.23,30.04382,-0.00735002,0.56398,0.99731
242.73,30.0914,-0.00735,0.56377,0.99706
243.23,30.139,-0.00734991,0.56566,0.99682
243.73,30.18678,-0.00758322,0.56435,0.99657
244.23,30.23452,-0.00768018,0.5649,0.99633
244.73,30.28224,-0.00768,0.56371,0.99608
245.23,30.33,-0.00768,0.56524,0.99584
245.73,30.37763,-0.00768,0.56642,0.99559
246.23,30.42527,-0.00767952,0.56457,0.99534
246.73,30.473,-0.007927525,0.56576,0.9951
247.23,30.5207,-0.00899995,0.56486,0.99485
247.73,30.56837,-0.008999999,0.56459,0.9946
248.23,30.61603,-0.009000133,0.5658,0.99436
248.73,30.6637,-0.008928572,0.56488,0.99411
249.23,30.71138,-0.01032032,0.5666,0.99386
249.73,30.75903,-0.01032,0.56576,0.99361
250.23,30.80664,-0.010321,0.56631,0.99336
250.73,30.8543,-0.0113279,0.56651,0.99311
251.23,30.90202,-0.01164022,0.567,0.99287
251.73,30.94973,-0.0116403,0.56844,0.99262
252.23,30.99748,-0.01293733,0.56704,0.99237
252.73,31.0453,-0.01290012,0.56712,0.99212
253.23,31.09303,-0.01426569,0.56979,0.99187
253.73,31.1407,-0.0129318,0.56852,0.99162
254.23,31.1883,-0.01293141,0.56911,0.99136
254.73,31.23589,-0.01397029,0.5699,0.99111
255.23,31.2836,-0.0139398,0.56841,0.99086
255.73,31.33114,-0.01397117,0.57093,0.99061
256.23,31.37899,-0.01559395,0.57075,0.99036
256.73,31.4267,-0.01591203,0.56977,0.9901
257.23,31.47433,-0.01452834,0.56943,0.98985
257.73,31.522,-0.01559997,0.56876,0.9896
258.23,31.5697,-0.01789924,0.56954,0.98934
258.73,31.6173,-0.01821501,0.56899,0.98909
259.23,31.6651,-0.01822001,0.5687,0.98884
259.73,31.71299,-0.01822,0.56815,0.98858
260.23,31.7606,-0.01822,0.56913,0.98833
260.73,31.80818,-0.0182201,0.56965,0.98807
261.23,31.85564,-0.01812414,0.56965,0.98782
261.73,31.9031,-0.01953049,0.5676,0.98756
262.23,31.95065,-0.01953,0.56792,0.98731
262.73,31.998,-0.01953,0.56919,0.98705
263.23,32.04558,-0.01952997,0.56799,0.98679
263.73,32.09341,-0.01954292,0.56887,0.98654
264.23,32.1408,-0.02018832,0.56738,0.98628
264.73,32.18857,-0.02084816,0.56854,0.98602
265.23,32.23672,-0.02084951,0.56744,0.98577
265.73,32.28458,-0.02126536,0.56799,0.98551
266.23,32.33238,-0.02216989,0.56851,0.98525
266.73,32.38023,-0.02217,0.56871,0.98499
267.23,32.42795,-0.02217093,0.56638,0.98473
267.73,32.4756,-0.02317392,0.56691,0.98447
268.23,32.5233,-0.02481074,0.5664,0.98421
268.73,32.57118,-0.02481,0.56716,0.98395
269.23,32.619,-0.02481,0.56728,0.98369
269.73,32.66682,-0.02481186,0.56707,0.98343
270.23,32.71471,-0.02506774,0.56567,0.98317
270.73,32.76245,-0.02446976,0.56692,0.98291
271.23,32.81025,-0.024805,0.56501,0.98265
271.73,32.85783,-0.02479396,0.56638,0.98239
272.23,32.9056,-0.02627941,0.56578,0.98213
272.73,32.95317,-0.02678037,0.563,0.98186
273.23,33.0007,-0.02746568,0.56465,0.9816
273.73,33.0484,-0.02743976,0.56507,0.98134
274.23,33.0962,-0.02803949,0.56455,0.98108
274.73,33.1439,-0.02875986,0.56537,0.98081
275.23,33.19166,-0.02876032,0.56567,0.98055
275.73,33.23962,-0.02938816,0.5619,0.98028
276.23,33.2875,-0.03058677,0.56191,0.98002
276.73,33.3354,-0.03073033,0.56193,0.97976
277.23,33.38329,-0.03073,0.56098,0.97949
277.73,33.43107,-0.03073,0.56005,0.97923
278.23,33.47883,-0.030731,0.56304,0.97896
278.73,33.52645,-0.03203157,0.56015,0.97869
279.23,33.57395,-0.03205004,0.56022,0.97843
279.73,33.62166,-0.03204778,0.56012,0.97816
280.23,33.66964,-0.03336836,0.55882,0.9779
280.73,33.7176,-0.03337002,0.55858,0.97763
281.23,33.7655,-0.03337,0.55979,0.97736
281.73,33.81358,-0.03337,0.55735,0.97709
282.23,33.86128,-0.03336994,0.55539,0.97683
282.73,33.909,-0.03334455,0.55607,0.97656
283.23,33.95662,-0.03462196,0.55488,0.97629
283.73,34.00424,-0.03534489,0.55396,0.97602
284.23,34.05196,-0.03635295,0.55454,0.97575
284.73,34.0997,-0.03633409,0.55418,0.97548
285.23,34.1476,-0.03552654,0.55313,0.97521
285.73,34.19559,-0.03534056,0.5509,0.97494
286.23,34.2436,-0.03629017,0.55106,0.97467
286.73,34.2913,-0.03666063,0.54964,0.9744
287.23,34.3393,-0.03758712,0.54844,0.97413
287.73,34.38715,-0.03797293,0.54849,0.97386
288.23,34.43492,-0.03930658,0.54852,0.97359
288.73,34.4826,-0.03930716,0.54746,0.97331
289.23,34.5304,-0.04061725,0.54608,0.97304
289.73,34.57809,-0.04062197,0.5462,0.97277
290.23,34.62585,-0.04029778,0.54374,0.9725
290.73,34.6738,-0.04028999,0.54244,0.97222
291.23,34.72163,-0.04029,0.54019,0.97195
291.73,34.76937,-0.04029005,0.54119,0.97168
292.23,34.81722,-0.04019795,0.53836,0.9714
292.73,34.865,-0.04161232,0.53842,0.97113
293.23,34.9129,-0.04289555,0.53632,0.97085
293.73,34.96075,-0.04292003,0.53503,0.97058
294.23,35.00855,-0.04293246,0.53256,0.9703
294.73,35.05636,-0.04358369,0.53067,0.97003
295.23,35.10427,-0.04357999,0.53112,0.96975
295.73,35.15222,-0.04358,0.52912,0.96948
296.23,35.20017,-0.04358,0.52863,0.9692
296.73,35.24818,-0.0435809,0.52703,0.96892
297.23,35.2962,-0.04450478,0.5247,0.96865
297.73,35.34407,-0.04454198,0.52459,0.96837
298.23,35.39195,-0.04489984,0.52239,0.96809
298.73,35.43973,-0.04553783,0.52284,0.96781
299.23,35.48768,-0.04621954,0.52024,0.96754
299.73,35.53556,-0.04622,0.51819,0.96726
300.23,35.58357,-0.04622,0.51806,0.96698
300.73,35.63155,-0.04621999,0.51624,0.9667
301.23,35.6795,-0.04621823,0.51584,0.96642
301.73,35.72722,-0.04753393,0.51394,0.96614
302.23,35.77511,-0.04753011,0.51055,0.96586
302.73,35.82307,-0.04816814,0.51111,0.96558
303.23,35.87092,-0.04885023,0.50919,0.9653
303.73,35.91881,-0.04885008,0.5063,0.96502
304.23,35.96685,-0.04991008,0.50607,0.96474
304.73,36.0148,-0.05017048,0.50544,0.96445
305.23,36.06286,-0.05016893,0.50469,0.96417
305.73,36.1108,-0.05084091,0.50155,0.96389
306.23,36.15887,-0.05083077,0.502,0.96361
306.73,36.20694,-0.05153312,0.50038,0.96333
307.23,36.255,-0.05149085,0.49894,0.96304
307.73,36.3031,-0.05240417,0.49552,0.96276
308.23,36.3512,-0.05281015,0.4956,0.96247
308.73,36.39922,-0.05280996,0.49435,0.96219
309.23,36.44726,-0.05299497,0.49172,0.96191
309.73,36.49534,-0.05378895,0.49197,0.96162
310.23,36.54325,-0.05379624,0.48983,0.96134
310.73,36.59126,-0.05412138,0.48858,0.96105
311.23,36.63912,-0.05407715,0.4859,0.96077
311.73,36.68711,-0.05544015,0.48599,0.96048
312.23,36.73514,-0.05557746,0.48231,0.96019
312.73,36.78324,-0.05608953,0.48033,0.95991
313.23,36.83129,-0.05608999,0.481,0.95962
313.73,36.8793,-0.0560874,0.4791,0.95933
314.23,36.92712,-0.057407,0.47798,0.95905
314.73,36.97503,-0.05874301,0.47419,0.95876
315.23,37.02279,-0.05741321,0.47418,0.95847
315.73,37.07069,-0.05742,0.4737,0.95818
316.23,37.11866,-0.05742,0.47257,0.95789
316.73,37.16669,-0.05742175,0.47286,0.9576
317.23,37.21455,-0.05873695,0.47189,0.95732
317.73,37.26265,-0.05971402,0.47101,0.95703
318.23,37.31082,-0.0600408,0.46824,0.95674
318.73,37.35913,-0.05913741,0.46635,0.95645
319.23,37.4073,-0.05873177,0.46784,0.95616
319.73,37.45556,-0.05999848,0.4633,0.95586
320.23,37.50359,-0.05997901,0.46288,0.95557
320.73,37.5516,-0.06136084,0.46184,0.95528
321.23,37.5996,-0.06268684,0.46038,0.95499
321.73,37.6477,-0.06267994,0.45879,0.9547
322.23,37.6959,-0.06267949,0.45633,0.95441
322.73,37.74398,-0.0640859,0.456,0.95411
323.23,37.79203,-0.06399367,0.45135,0.95382
323.73,37.84001,-0.06432002,0.45125,0.95353
324.23,37.8879,-0.06432156,0.44899,0.95323
324.73,37.93586,-0.06561894,0.448,0.95294
325.23,37.984,-0.06559907,0.4469,0.95265
325.73,38.03202,-0.06696306,0.44051,0.95235
326.23,38.0801,-0.06696,0.44065,0.95206
326.73,38.1282,-0.06696,0.43923,0.95176
327.23,38.17635,-0.06696,0.43645,0.95147
327.73,38.22441,-0.06695997,0.43495,0.95117
328.23,38.27243,-0.0669725,0.43018,0.95087
328.73,38.3204,-0.06827961,0.43101,0.95058
329.23,38.36834,-0.06827995,0.42688,0.95028
329.73,38.41642,-0.06832494,0.42637,0.94999
330.23,38.4647,-0.07025331,0.42285,0.94969
330.73,38.51269,-0.07027,0.4213,0.94939
331.23,38.56081,-0.07156923,0.41882,0.94909
331.73,38.60901,-0.07157,0.41444,0.94879
332.23,38.6572,-0.07156975,0.41235,0.9485
332.73,38.7055,-0.0718694,0.41336,0.9482
333.23,38.75376,-0.072889,0.40949,0.9479
333.73,38.80188,-0.07289,0.40838,0.9476
334.23,38.85001,-0.07289,0.40249,0.9473
334.73,38.89833,-0.07289989,0.40144,0.947
335.23,38.9467,-0.07420073,0.40184,0.9467
335.73,38.99494,-0.07422328,0.39773,0.9464
336.23,39.0435,-0.07550752,0.39468,0.9461
336.73,39.09173,-0.07663481,0.39254,0.9458
337.23,39.1398,-0.07781253,0.39068,0.9455
337.73,39.18796,-0.07816106,0.38825,0.94519
338.23,39.23611,-0.07887469,0.38398,0.94489
338.73,39.2843,-0.07881991,0.38423,0.94459
339.23,39.3324,-0.07881758,0.38006,0.94429
339.73,39.38064,-0.07947354,0.37931,0.94398
340.23,39.42887,-0.07947998,0.37664,0.94368
340.73,39.4772,-0.07947648,0.37396,0.94338
341.23,39.52555,-0.08083479,0.37271,0.94307
341.73,39.574,-0.08177546,0.36882,0.94277
342.23,39.62234,-0.08207719,0.36657,0.94246
342.73,39.6706,-0.08276956,0.36402,0.94216
343.23,39.71888,-0.08276973,0.36394,0.94185
343.73,39.76716,-0.08347596,0.36045,0.94155
344.23,39.8153,-0.08409083,0.35843,0.94124
344.73,39.8636,-0.0850316,0.35571,0.94094
345.23,39.91188,-0.08540089,0.35117,0.94063
345.73,39.96018,-0.08671721,0.35128,0.94032
346.23,40.00855,-0.08803134,0.34791,0.94002
346.73,40.05693,-0.08955467,0.34518,0.93971
347.23,40.10525,-0.09067816,0.34381,0.9394
347.73,40.15347,-0.09069326,0.34099,0.93909
348.23,40.20173,-0.08994856,0.33915,0.93879
348.73,40.25005,-0.09067026,0.33828,0.93848
349.23,40.2983,-0.09200745,0.3348,0.93817
349.73,40.34633,-0.09323127,0.33321,0.93786
350.23,40.39433,-0.09495514,0.33121,0.93755
350.73,40.44256,-0.09488967,0.3288,0.93724
351.23,40.491,-0.09473222,0.32754,0.93693
351.73,40.53955,-0.09616326,0.32522,0.93662
352.23,40.5878,-0.0974831,0.32242,0.93631
352.73,40.63617,-0.0973815,0.32023,0.936
353.23,40.68452,-0.09903158,0.31945,0.93569
353.73,40.73291,-0.10024,0.31764,0.93538
354.23,40.78137,-0.1022,0.31597,0.93506
354.73,40.82995,-0.10275,0.31374,0.93475
355.23,40.87818,-0.10409,0.3131,0.93444
355.73,40.9264,-0.10538,0.31317,0.93413
356.23,40.9748,-0.10797,0.31013,0.93381
356.73,41.02295,-0.10943,0.31031,0.9335
357.23,41.07132,-0.11069,0.30897,0.93319
357.73,41.1197,-0.11198,0.30962,0.93287
358.23,41.16785,-0.11189,0.30814,0.93256
358.73,41.21614,-0.11324,0.30721,0.93224
359.23,41.26421,-0.11344,0.30635,0.93193
359.73,41.31234,-0.1149,0.30619,0.93161
360.23,41.3606,-0.11644,0.30541,0.9313
360.73,41.40902,-0.11865,0.30383,0.93098
361.23,41.4573,-0.11904,0.3034,0.93067
361.73,41.506,-0.12169,0.30426,0.93035
362.23,41.5544,-0.123,0.30263,0.93003
362.73,41.6029,-0.12433,0.30499,0.92972
363.23,41.65112,-0.12612,0.30464,0.9294
363.73,41.69924,-0.12851,0.30621,0.92908
364.23,41.74762,-0.12981,0.30663,0.92876
364.73,41.79593,-0.13151,0.30726,0.92844
365.23,41.84445,-0.13329,0.30844,0.92813
365.73,41.89306,-0.13502,0.30916,0.92781
366.23,41.94127,-0.13675,0.31132,0.92749
366.73,41.98957,-0.1395,0.31294,0.92717
367.23,42.03785,-0.14088,0.31481,0.92685
367.73,42.08635,-0.14234,0.31803,0.92653
368.23,42.1348,-0.14354,0.31987,0.92621
368.73,42.18346,-0.14603,0.32312,0.92589
369.23,42.23196,-0.14808,0.325,0.92557
369.73,42.28052,-0.15023,0.3299,0.92525
370.23,42.32902,-0.15258,0.3322,0.92492
370.73,42.3773,-0.15499,0.33482,0.9246
371.23,42.42566,-0.15731,0.34077,0.92428
371.73,42.47402,-0.1588,0.34451,0.92396
372.23,42.52255,-0.16177,0.34995,0.92363
372.73,42.57108,-0.16369,0.35392,0.92331
373.23,42.6197,-0.1663,0.35663,0.92299
373.73,42.66823,-0.16935,0.36251,0.92266
374.23,42.71658,-0.17239,0.36732,0.92234
374.73,42.76509,-0.17478,0.37381,0.92202
375.23,42.81357,-0.17761,0.37876,0.92169
375.73,42.8621,-0.18013,0.38588,0.92137
376.23,42.9108,-0.18346,0.38971,0.92104
376.73,42.95936,-0.18547,0.3928,0.92072
377.23,43.0079,-0.18896,0.40063,0.92039
377.73,43.0563,-0.19326,0.40638,0.92006
378.23,43.1051,-0.19559,0.41374,0.91974
378.73,43.15372,-0.19799,0.42131,0.91941
379.23,43.2024,-0.2033,0.42985,0.91908
379.73,43.25116,-0.2062,0.43728,0.91876
380.23,43.29979,-0.20945,0.44648,0.91843
380.73,43.34811,-0.21413,0.45615,0.9181
381.23,43.3969,-0.21859,0.4628,0.91777
381.73,43.4456,-0.22228,0.47219,0.91744
382.23,43.4942,-0.22615,0.48122,0.91712
382.73,43.5432,-0.2297,0.49145,0.91679
383.23,43.5918,-0.23368,0.50248,0.91646
383.73,43.64059,-0.23702,0.51093,0.91613
384.23,43.68953,-0.24026,0.52058,0.9158
384.73,43.73837,-0.24511,0.53082,0.91547
385.23,43.78732,-0.2493,0.54021,0.91514
385.73,43.83614,-0.25435,0.5505,0.91481
386.23,43.8849,-0.25863,0.56339,0.91447
386.73,43.93374,-0.26456,0.57486,0.91414
387.23,43.9825,-0.26888,0.58664,0.91381
387.73,44.03135,-0.27423,0.59738,0.91348
388.23,44.08014,-0.27842,0.61352,0.91315
388.73,44.12898,-0.28472,0.62392,0.91281
389.23,44.17775,-0.28946,0.63663,0.91248
389.73,44.22663,-0.29608,0.65041,0.91215
390.23,44.27547,-0.30237,0.66683,0.91181
390.73,44.32405,-0.30615,0.68143,0.91148
391.23,44.37279,-0.31221,0.6939,0.91115
391.73,44.42163,-0.31891,0.70719,0.91081
392.23,44.4703,-0.32753,0.72259,0.91048
392.73,44.5191,-0.33391,0.73875,0.91014
393.23,44.5681,-0.34142,0.7541,0.90981
393.73,44.61697,-0.3472,0.76943,0.90947
394.23,44.66581,-0.35522,0.78567,0.90913
394.73,44.71461,-0.36189,0.80161,0.9088
395.23,44.76338,-0.36916,0.81866,0.90846
395.73,44.81231,-0.377,0.8347,0.90812
396.23,44.86125,-0.38452,0.85292,0.90779
396.73,44.91012,-0.39261,0.87064,0.90745
397.23,44.95909,-0.40052,0.88927,0.90711
397.73,45.00795,-0.40908,0.90991,0.90677
398.23,45.05695,-0.4171,0.92832,0.90643
398.73,45.10601,-0.42639,0.94679,0.9061
399.23,45.1552,-0.43658,0.9675,0.90576
399.73,45.20426,-0.44662,0.98744,0.90542
400.23,45.25326,-0.45518,1.0089,0.90508
400.73,45.30229,-0.46599,1.02916,0.90474
401.23,45.35132,-0.47746,1.05316,0.9044
401.73,45.40045,-0.48785,1.0745,0.90406
402.23,45.44927,-0.4987,1.09875,0.90372
402.73,45.49832,-0.50974,1.12307,0.90337
403.23,45.5473,-0.52218,1.14383,0.90303
403.73,45.5963,-0.53549,1.16835,0.90269
404.23,45.64539,-0.54791,1.19422,0.90235
404.73,45.694,-0.5596,1.21985,0.90201
405.23,45.74284,-0.57343,1.24646,0.90166
405.73,45.79172,-0.58624,1.27452,0.90132
406.23,45.84089,-0.60039,1.29904,0.90098
406.73,45.89,-0.61555,1.32998,0.90063
407.23,45.93911,-0.62981,1.35727,0.90029
407.73,45.98839,-0.64446,1.38446,0.89995
408.23,46.0375,-0.66028,1.41244,0.8996
408.73,46.08696,-0.6777,1.44407,0.89926
409.23,46.1363,-0.69443,1.47423,0.89891
409.73,46.1858,-0.71147,1.50607,0.89857
410.23,46.23499,-0.72964,1.5376,0.89822
410.73,46.28418,-0.74789,1.56914,0.89788
411.23,46.33351,-0.76671,1.5983,0.89753
411.73,46.38284,-0.78596,1.63279,0.89718
412.23,46.43187,-0.80403,1.66398,0.89684
412.73,46.48117,-0.82605,1.69849,0.89649
413.23,46.5304,-0.84705,1.73415,0.89614
413.73,46.57948,-0.86807,1.76934,0.89579
414.23,46.62872,-0.89056,1.80325,0.89545
414.73,46.67821,-0.91327,1.83691,0.8951
415.23,46.72752,-0.93759,1.87472,0.89475
415.73,46.77668,-0.96169,1.90722,0.8944
416.23,46.82574,-0.98482,1.9418,0.89405
416.73,46.8749,-1.00989,1.9743,0.8937
417.23,46.92418,-1.03719,2.00648,0.89335
417.73,46.97347,-1.06317,2.04277,0.893
418.23,47.02333,-1.09118,2.07453,0.89265
418.73,47.07274,-1.11688,2.1067,0.8923
419.23,47.12212,-1.14518,2.13939,0.89195
419.73,47.1715,-1.17487,2.16956,0.8916
420.23,47.2205,-1.20346,2.19922,0.89125
420.73,47.2697,-1.23246,2.2265,0.8909
421.23,47.319,-1.26202,2.25697,0.89054
421.73,47.36831,-1.29429,2.28383,0.89019
422.23,47.4179,-1.3254,2.31004,0.88984
422.73,47.4672,-1.35729,2.333,0.88948
423.23,47.5165,-1.39019,2.35525,0.88913
423.73,47.56576,-1.42345,2.37805,0.88878
424.23,47.615,-1.45744,2.39707,0.88842
424.73,47.66393,-1.48974,2.41455,0.88807
425.23,47.71309,-1.52345,2.42417,0.88772
425.73,47.7621,-1.55897,2.43935,0.88736
426.23,47.81118,-1.59495,2.45058,0.88701
426.73,47.86065,-1.62561,2.45848,0.88665
427.23,47.90979,-1.66151,2.46799,0.88629
427.73,47.95908,-1.69911,2.47175,0.88594
428.23,48.00782,-1.7356,2.47003,0.88558
428.73,48.05666,-1.77051,2.46965,0.88523
429.23,48.10577,-1.80435,2.46867,0.88487
429.73,48.15489,-1.83957,2.46102,0.88451
430.23,48.20414,-1.87762,2.45325,0.88415
430.73,48.2532,-1.91382,2.44201,0.8838
431.23,48.30234,-1.94837,2.42819,0.88344
431.73,48.35134,-1.9832,2.4143,0.88308
432.23,48.40025,-2.0189,2.39647,0.88272
432.73,48.4496,-2.0555,2.37529,0.88236
433.23,48.49845,-2.08945,2.35102,0.882
433.73,48.5472,-2.12259,2.32648,0.88164
434.23,48.5961,-2.15547,2.29799,0.88129
434.73,48.6449,-2.19126,2.26884,0.88093
435.23,48.6937,-2.22438,2.23729,0.88056
435.73,48.74245,-2.25707,2.20713,0.8802
436.23,48.79123,-2.29044,2.17248,0.87984
436.73,48.83992,-2.32273,2.13668,0.87948
437.23,48.88861,-2.35639,2.10208,0.87912
437.73,48.93739,-2.38628,2.06318,0.87876
438.23,48.98632,-2.41618,2.02589,0.8784
438.73,49.03526,-2.44726,1.98264,0.87803
439.23,49.0841,-2.47817,1.94297,0.87767
439.73,49.13304,-2.50836,1.9037,0.87731
440.23,49.18179,-2.53613,1.86104,0.87695
440.73,49.23044,-2.56343,1.82036,0.87658
441.23,49.27918,-2.59045,1.78004,0.87622
441.73,49.32764,-2.61889,1.74044,0.87585
442.23,49.37638,-2.64488,1.69659,0.87549
442.73,49.42502,-2.6706,1.6583,0.87513
443.23,49.47357,-2.69592,1.62191,0.87476
443.73,49.52228,-2.72011,1.58294,0.8744
444.23,49.5709,-2.74589,1.5463,0.87403
444.73,49.61953,-2.76942,1.51252,0.87366
445.23,49.6682,-2.79389,1.4784,0.8733
445.73,49.71694,-2.81748,1.44348,0.87293
446.23,49.76546,-2.84021,1.41168,0.87257
446.73,49.81388,-2.86192,1.38049,0.8722
447.23,49.8624,-2.884,1.35219,0.87183
447.73,49.91108,-2.90546,1.31998,0.87146
448.23,49.9597,-2.92579,1.29213,0.8711
448.73,50.0086,-2.94788,1.2644,0.87073
449.23,50.05717,-2.96905,1.23333,0.87036
449.73,50.1057,-2.989,1.2013,0.86999
450.23,50.1543,-3.00877,1.17022,0.86962
450.73,50.20277,-3.02778,1.13921,0.86925
451.23,50.25138,-3.04645,1.11174,0.86888
451.73,50.30004,-3.06493,1.07734,0.86851
452.23,50.3487,-3.08332,1.04677,0.86814
452.73,50.39735,-3.10049,1.0174,0.86777
453.23,50.44613,-3.11861,0.98735,0.8674
453.73,50.4949,-3.13507,0.95993,0.86703
454.23,50.54355,-3.15035,0.93144,0.86666
454.73,50.59244,-3.16598,0.90378,0.86629
455.23,50.6411,-3.18235,0.87892,0.86592
455.73,50.68946,-3.19737,0.85397,0.86554
456.23,50.73825,-3.21078,0.83125,0.86517
456.73,50.78694,-3.22525,0.80742,0.8648
457.23,50.83587,-3.23808,0.78466,0.86443
457.73,50.88535,-3.25179,0.75981,0.86405
458.23,50.9343,-3.26501,0.74012,0.86368
458.73,50.9833,-3.27778,0.71731,0.86331
459.23,51.03222,-3.2894,0.69762,0.86293
459.73,51.081,-3.30062,0.67931,0.86256
460.23,51.12985,-3.31256,0.66183,0.86218
460.73,51.17889,-3.32326,0.64171,0.86181
461.23,51.22772,-3.33465,0.62548,0.86143
461.73,51.2768,-3.34468,0.60898,0.86106
462.23,51.32588,-3.35567,0.595,0.86068
462.73,51.37484,-3.36548,0.58053,0.86031
463.23,51.4238,-3.37517,0.56571,0.85993
463.73,51.47293,-3.38494,0.55285,0.85955
464.23,51.52197,-3.39457,0.53871,0.85918
464.73,51.57105,-3.40312,0.5301,0.8588
465.23,51.6201,-3.41176,0.51802,0.85842
465.73,51.6692,-3.4207,0.50716,0.85804
466.23,51.71822,-3.42827,0.49771,0.85767
466.73,51.76728,-3.43612,0.48754,0.85729
467.23,51.8163,-3.44385,0.48085,0.85691
467.73,51.8653,-3.44948,0.47393,0.85653
468.23,51.91437,-3.45818,0.46594,0.85615
468.73,51.96351,-3.4654,0.45817,0.85577
469.23,52.01265,-3.47251,0.45176,0.85539
469.73,52.06188,-3.47812,0.44642,0.85501
470.23,52.11117,-3.4853,0.43601,0.85463
470.73,52.16032,-3.49071,0.43393,0.85425
471.23,52.2096,-3.49688,0.42762,0.85387
471.73,52.25862,-3.50304,0.42269,0.85349
472.23,52.30766,-3.50903,0.41711,0.85311
472.73,52.3566,-3.5152,0.41261,0.85273
473.23,52.40563,-3.52155,0.40817,0.85235
473.73,52.45459,-3.52688,0.40527,0.85196
474.23,52.5036,-3.5315,0.40337,0.85158
474.73,52.5528,-3.53536,0.39681,0.8512
475.23,52.60207,-3.54094,0.39411,0.85081
475.73,52.65145,-3.54651,0.38836,0.85043
476.23,52.70081,-3.55167,0.38245,0.85005
476.73,52.7501,-3.55589,0.37907,0.84966
477.23,52.7993,-3.56171,0.37436,0.84928
477.73,52.84851,-3.56576,0.37229,0.8489
478.23,52.8978,-3.56913,0.36954,0.84851
478.73,52.94696,-3.57395,0.36408,0.84813
479.23,52.99629,-3.57834,0.36168,0.84774
479.73,53.04554,-3.58144,0.35698,0.84736
480.23,53.0947,-3.58544,0.3525,0.84697
480.73,53.14374,-3.58991,0.35061,0.84658
481.23,53.1928,-3.59321,0.3482,0.8462
481.73,53.24194,-3.59664,0.34136,0.84581
482.23,53.29121,-3.60026,0.33798,0.84542
482.73,53.34045,-3.60289,0.33361,0.84504
483.23,53.3898,-3.60605,0.32946,0.84465
483.73,53.4388,-3.60908,0.32758,0.84426
484.23,53.48799,-3.61264,0.32518,0.84387
484.73,53.5373,-3.6147,0.32167,0.84349
485.23,53.5863,-3.61735,0.31748,0.8431
485.73,53.63565,-3.61861,0.3138,0.84271
486.23,53.68489,-3.62183,0.31223,0.84232
486.73,53.734,-3.62471,0.30969,0.84193
487.23,53.7833,-3.6259,0.30575,0.84154
487.73,53.8324,-3.62736,0.30369,0.84115
488.23,53.88174,-3.62867,0.30202,0.84076
488.73,53.9312,-3.63118,0.2977,0.84037
489.23,53.9804,-3.63216,0.29697,0.83998
489.73,54.0297,-3.63316,0.29299,0.83959
490.23,54.07889,-3.63449,0.29223,0.8392
490.73,54.12794,-3.63448,0.29011,0.83881
491.23,54.1771,-3.63577,0.28765,0.83842
491.73,54.2264,-3.63724,0.28555,0.83802
492.23,54.2756,-3.63855,0.2826,0.83763
492.73,54.32509,-3.63845,0.282,0.83724
493.23,54.3745,-3.63991,0.27981,0.83685
493.73,54.4239,-3.64119,0.27974,0.83645
494.23,54.4733,-3.64249,0.28013,0.83606
494.73,54.52265,-3.64309,0.27687,0.83567
495.23,54.57196,-3.64381,0.27645,0.83527
495.73,54.62124,-3.64381,0.27624,0.83488
496.23,54.6703,-3.64513,0.27241,0.83448
496.73,54.71969,-3.64514,0.27483,0.83409
497.23,54.769,-3.6448,0.27489,0.83369
497.73,54.8184,-3.6448,0.27344,0.8333
498.23,54.86796,-3.64597,0.2726,0.8329
498.73,54.91743,-3.64514,0.27221,0.83251
499.23,54.9668,-3.64513,0.27206,0.83211
499.73,55.0159,-3.64513,0.27196,0.83172
500.23,55.06527,-3.64513,0.26953,0.83132
500.73,55.1146,-3.64637,0.27224,0.83092
501.23,55.16401,-3.64645,0.27052,0.83053
501.73,55.21365,-3.64662,0.27022,0.83013
502.23,55.2631,-3.64776,0.27173,0.82973
502.73,55.3125,-3.64776,0.2722,0.82933
503.23,55.362,-3.64776,0.27396,0.82894
503.73,55.41146,-3.64776,0.27356,0.82854
504.23,55.4608,-3.64776,0.27475,0.82814
504.73,55.5103,-3.64776,0.27464,0.82774
505.23,55.55969,-3.64907,0.27458,0.82734
505.73,55.60904,-3.64908,0.27519,0.82694
506.23,55.65851,-3.64908,0.27555,0.82654
506.73,55.70795,-3.64908,0.2771,0.82614
507.23,55.7573,-3.64908,0.27448,0.82574
507.73,55.80672,-3.64874,0.27656,0.82534
508.23,55.8562,-3.64876,0.27625,0.82494
508.73,55.90563,-3.64876,0.27472,0.82454
509.23,55.9554,-3.64867,0.27492,0.82414
509.73,56.005,-3.65008,0.27392,0.82374
510.23,56.0545,-3.65,0.2746,0.82334
510.73,56.10395,-3.64909,0.27265,0.82293
511.23,56.15335,-3.64909,0.2733,0.82253
511.73,56.2027,-3.64969,0.27401,0.82213
512.23,56.25232,-3.6504,0.27268,0.82173
512.73,56.3019,-3.65041,0.27228,0.82132
513.23,56.3515,-3.65002,0.27264,0.82092
513.73,56.4009,-3.65008,0.27049,0.82052
514.23,56.4502,-3.6504,0.2709,0.82011
514.73,56.49958,-3.6504,0.26751,0.81971
515.23,56.54917,-3.6504,0.26757,0.8193
515.73,56.59895,-3.6504,0.26456,0.8189
516.23,56.6485,-3.6504,0.26554,0.8185
516.73,56.69817,-3.6504,0.26411,0.81809
517.23,56.7477,-3.6504,0.26234,0.81768
517.73,56.79725,-3.6504,0.26156,0.81728
518.23,56.847,-3.6504,0.25824,0.81687
518.73,56.89669,-3.6504,0.25902,0.81647
519.23,56.94633,-3.65035,0.25825,0.81606
519.73,56.996,-3.65172,0.25752,0.81565
520.23,57.0458,-3.65172,0.25756,0.81525
520.73,57.09551,-3.65172,0.25905,0.81484
521.23,57.14527,-3.65172,0.25811,0.81443
521.73,57.19483,-3.65172,0.25669,0.81403
522.23,57.2445,-3.65172,0.2565,0.81362
522.73,57.2943,-3.65172,0.25689,0.81321
523.23,57.344,-3.65172,0.25909,0.8128
523.73,57.3939,-3.65172,0.25787,0.81239
524.23,57.4436,-3.65172,0.25823,0.81198
524.73,57.4932,-3.65172,0.25939,0.81158
525.23,57.5428,-3.65172,0.25957,0.81117
525.73,57.59255,-3.65172,0.25813,0.81076
526.23,57.6421,-3.6516,0.25992,0.81035
526.73,57.69177,-3.65106,0.25944,0.80994
527.23,57.74149,-3.65107,0.2597,0.80953
527.73,57.79115,-3.65238,0.26067,0.80912
528.23,57.8407,-3.65104,0.26256,0.8087
528.73,57.89049,-3.65106,0.25993,0.80829
529.23,57.9401,-3.65106,0.26047,0.80788
529.73,57.98992,-3.65106,0.26084,0.80747
530.23,58.03994,-3.65238,0.26145,0.80706
530.73,58.08976,-3.65238,0.26205,0.80665
531.23,58.13965,-3.6514,0.2632,0.80623
531.73,58.1893,-3.65139,0.26492,0.80582
532.23,58.23893,-3.65139,0.26537,0.80541
532.73,58.28845,-3.65194,0.26558,0.805
533.23,58.33834,-3.65205,0.26537,0.80458
533.73,58.38819,-3.65205,0.26517,0.80417
534.23,58.43798,-3.65341,0.26573,0.80376
534.73,58.48795,-3.65337,0.26471,0.80334
535.23,58.5377,-3.65337,0.26744,0.80293
535.73,58.5876,-3.65207,0.26604,0.80251
536.23,58.63736,-3.65205,0.26839,0.8021
536.73,58.6871,-3.65205,0.26826,0.80168
537.23,58.7369,-3.65246,0.26771,0.80127
537.73,58.7866,-3.65337,0.26697,0.80085
538.23,58.83644,-3.65337,0.26795,0.80044
538.73,58.8861,-3.65337,0.27141,0.80002
539.23,58.93569,-3.65283,0.26813,0.7996
539.73,58.9855,-3.65205,0.26904,0.79919
540.23,59.03515,-3.65205,0.27033,0.79877
540.73,59.08484,-3.65205,0.2682,0.79835
541.23,59.1345,-3.65269,0.26916,0.79794
541.73,59.1842,-3.65271,0.27159,0.79752
542.23,59.23352,-3.65292,0.27148,0.7971
542.73,59.28304,-3.65336,0.27209,0.79668
543.23,59.3326,-3.65336,0.27307,0.79627
543.73,59.3823,-3.65336,0.26994,0.79585
544.23,59.43201,-3.65336,0.27107,0.79543
544.73,59.48175,-3.65336,0.2718,0.79501
545.23,59.53139,-3.65336,0.27044,0.79459
545.73,59.58065,-3.65336,0.2728,0.79417
546.23,59.6301,-3.65336,0.27309,0.79375
546.73,59.6797,-3.65336,0.27205,0.79333
547.23,59.72922,-3.65336,0.27294,0.79291
547.73,59.77873,-3.65336,0.27364,0.79249
548.23,59.82849,-3.65309,0.27418,0.79207
548.73,59.87797,-3.65271,0.27264,0.79165
549.23,59.9276,-3.65271,0.27607,0.79123
549.73,59.9774,-3.65271,0.27363,0.79081
550.23,60.02734,-3.65321,0.27458,0.79039
550.73,60.07708,-3.65393,0.27642,0.78997
551.23,60.12687,-3.65403,0.27282,0.78954
551.73,60.1766,-3.65337,0.2753,0.78912
552.23,60.22636,-3.65336,0.27567,0.7887
552.73,60.2761,-3.65336,0.27603,0.78828
553.23,60.3256,-3.65336,0.27557,0.78785
553.73,60.37537,-3.65336,0.27672,0.78743
554.23,60.42527,-3.65425,0.27679,0.78701
554.73,60.4753,-3.65468,0.27623,0.78658
555.23,60.52534,-3.65468,0.27819,0.78616
555.73,60.57535,-3.65468,0.27563,0.78574
556.23,60.62517,-3.65395,0.2749,0.78531
556.73,60.67499,-3.65402,0.27619,0.78489
557.23,60.7249,-3.65402,0.27347,0.78446
557.73,60.7748,-3.65393,0.27832,0.78404
558.23,60.82479,-3.65534,0.2767,0.78361
558.73,60.87471,-3.65534,0.27936,0.78319
559.23,60.92451,-3.65534,0.27981,0.78276
559.73,60.97444,-3.65534,0.28119,0.78234
560.23,61.0243,-3.65524,0.27983,0.78191
560.73,61.0743,-3.65469,0.28064,0.78148
561.23,61.1242,-3.65469,0.28326,0.78106
561.73,61.17395,-3.65469,0.28096,0.78063
562.23,61.2239,-3.65462,0.28203,0.7802
562.73,61.2737,-3.656,0.28462,0.77978
563.23,61.32355,-3.656,0.28335,0.77935
563.73,61.3735,-3.655,0.28381,0.77892
564.23,61.4231,-3.65503,0.28614,0.77849
564.73,61.47282,-3.65567,0.28459,0.77806
565.23,61.5228,-3.65567,0.28835,0.77764
565.73,61.5727,-3.65567,0.28646,0.77721
566.23,61.62262,-3.65567,0.28412,0.77678
566.73,61.67258,-3.65589,0.28527,0.77635
567.23,61.72243,-3.65668,0.28367,0.77592
567.73,61.77222,-3.65567,0.28328,0.77549
568.23,61.82213,-3.65568,0.28674,0.77506
568.73,61.872,-3.65502,0.2852,0.77463
569.23,61.922,-3.65502,0.28713,0.7742
569.73,61.97184,-3.65502,0.28582,0.77377
570.23,62.0218,-3.65502,0.28557,0.77334
570.73,62.0718,-3.65502,0.2875,0.77291
571.23,62.12183,-3.655,0.28619,0.77248
571.73,62.1717,-3.65633,0.28959,0.77205
572.23,62.22155,-3.65633,0.28794,0.77162
572.73,62.27134,-3.65633,0.28635,0.77118
573.23,62.32119,-3.65633,0.28722,0.77075
573.73,62.371,-3.65633,0.28691,0.77032
574.23,62.4207,-3.65633,0.28781,0.76989
574.73,62.4704,-3.65633,0.28873,0.76946
575.23,62.52032,-3.65633,0.28762,0.76902
575.73,62.5702,-3.65633,0.28804,0.76859
576.23,62.62024,-3.65632,0.28868,0.76816
576.73,62.67064,-3.656,0.28818,0.76772
577.23,62.72047,-3.65468,0.2888,0.76729
577.73,62.77024,-3.65468,0.29044,0.76686
578.23,62.8201,-3.65468,0.29136,0.76642
578.73,62.8697,-3.65598,0.28932,0.76599
579.23,62.91959,-3.65633,0.28714,0.76555
579.73,62.96951,-3.65632,0.29115,0.76512
580.23,63.01936,-3.65501,0.28999,0.76468
580.73,63.0695,-3.65501,0.28816,0.76425
581.23,63.1193,-3.65501,0.29159,0.76381
581.73,63.1693,-3.65501,0.29015,0.76338
582.23,63.2193,-3.65501,0.29244,0.76294
582.73,63.2692,-3.65502,0.29101,0.76251
583.23,63.31906,-3.65664,0.29061,0.76207
583.73,63.3687,-3.65666,0.29244,0.76163
584.23,63.4185,-3.65666,0.29212,0.7612
584.73,63.46836,-3.65731,0.2895,0.76076
585.23,63.5184,-3.65732,0.2924,0.76032
585.73,63.56853,-3.65732,0.2926,0.75989
586.23,63.6187,-3.65732,0.29321,0.75945
586.73,63.6687,-3.65732,0.2933,0.75901
587.23,63.7188,-3.656,0.28915,0.75857
587.73,63.7688,-3.656,0.29309,0.75814
588.23,63.81889,-3.6563,0.29353,0.7577
588.73,63.869,-3.65632,0.2903,0.75726
589.23,63.91893,-3.65568,0.29027,0.75682
589.73,63.9689,-3.656,0.2918,0.75638
590.23,64.01911,-3.656,0.2905,0.75594
590.73,64.06902,-3.656,0.29251,0.7555
591.23,64.11912,-3.656,0.29268,0.75506
591.73,64.16932,-3.65468,0.29268,0.75462
592.23,64.21936,-3.65466,0.29307,0.75418
592.73,64.2696,-3.656,0.29267,0.75374
593.23,64.31987,-3.656,0.29261,0.7533
593.73,64.36981,-3.65468,0.29406,0.75286
594.23,64.4198,-3.65468,0.29449,0.75242
594.73,64.46974,-3.65468,0.29184,0.75198
595.23,64.51966,-3.65468,0.29509,0.75154
595.73,64.5697,-3.65501,0.29578,0.7511
596.23,64.61944,-3.65662,0.29521,0.75066
596.73,64.66956,-3.65666,0.29433,0.75022
597.23,64.71959,-3.65666,0.29445,0.74977
597.73,64.7696,-3.65666,0.29674,0.74933
598.23,64.81971,-3.65666,0.29511,0.74889
598.73,64.8694,-3.65666,0.29528,0.74845
599.23,64.9194,-3.65666,0.296,0.748
599.73,64.96941,-3.65793,0.29544,0.74756
600.23,65.01953,-3.65797,0.29351,0.74712
600.73,65.0697,-3.65666,0.29416,0.74667
601.23,65.11975,-3.65535,0.2931,0.74623
601.73,65.16982,-3.65666,0.29169,0.74579
602.23,65.21978,-3.65666,0.29393,0.74534
602.73,65.26989,-3.65666,0.29383,0.7449
603.23,65.32008,-3.65666,0.29351,0.74445
603.73,65.36978,-3.65666,0.29138,0.74401
604.23,65.41982,-3.65666,0.29334,0.74357
604.73,65.46993,-3.65797,0.29585,0.74312
605.23,65.51993,-3.65797,0.29601,0.74268
605.73,65.57046,-3.65798,0.29391,0.74223
606.23,65.6206,-3.65735,0.29448,0.74178
606.73,65.67065,-3.65798,0.29511,0.74134
607.23,65.7208,-3.65795,0.29516,0.74089
607.73,65.7706,-3.65764,0.29824,0.74045
608.23,65.8207,-3.65764,0.29728,0.74
608.73,65.87086,-3.65764,0.29711,0.73955
609.23,65.92104,-3.65633,0.29648,0.73911
609.73,65.9713,-3.65633,0.29747,0.73866
610.23,66.02147,-3.65742,0.29961,0.73821
610.73,66.07167,-3.65764,0.29878,0.73777
611.23,66.12177,-3.65757,0.30076,0.73732
611.73,66.17201,-3.65633,0.3,0.73687
612.23,66.22216,-3.65633,0.29941,0.73642
612.73,66.2722,-3.65565,0.29774,0.73598
613.23,66.3223,-3.65524,0.29765,0.73553
613.73,66.3724,-3.65501,0.29784,0.73508
614.23,66.4225,-3.65501,0.29638,0.73463
614.73,66.4725,-3.65501,0.29665,0.73418
615.23,66.52257,-3.65501,0.29493,0.73373
615.73,66.57275,-3.65501,0.29596,0.73328
616.23,66.62295,-3.65642,0.29593,0.73284
616.73,66.67319,-3.65633,0.29532,0.73239
617.23,66.7234,-3.65633,0.2966,0.73194
617.73,66.77342,-3.65549,0.29586,0.73149
618.23,66.82361,-3.65531,0.29471,0.73104
618.73,66.87374,-3.65567,0.29702,0.73059
619.23,66.92379,-3.656,0.29608,0.73014
619.73,66.97385,-3.65735,0.29532,0.72969
620.23,67.02383,-3.65798,0.29576,0.72924
620.73,67.07389,-3.65764,0.29332,0.72878
621.23,67.1241,-3.65666,0.29547,0.72833
621.73,67.17415,-3.65666,0.29938,0.72788
622.23,67.2243,-3.6573,0.29647,0.72743
622.73,67.2745,-3.65845,0.29956,0.72698
623.23,67.3245,-3.65897,0.29642,0.72653
623.73,67.3747,-3.65897,0.29486,0.72608
624.23,67.42478,-3.65814,0.29785,0.72562
624.73,67.47471,-3.65765,0.29512,0.72517
625.23,67.52476,-3.65765,0.29754,0.72472
625.73,67.57468,-3.65739,0.29298,0.72427
626.23,67.62459,-3.65765,0.29359,0.72381
626.73,67.67472,-3.6577,0.29444,0.72336
627.23,67.7247,-3.65633,0.29385,0.72291
627.73,67.7748,-3.65633,0.29176,0.72245
628.23,67.82483,-3.65633,0.29452,0.722
628.73,67.87491,-3.6577,0.29373,0.72155
629.23,67.9251,-3.65765,0.29526,0.72109
629.73,67.97539,-3.65765,0.29649,0.72064
630.23,68.0258,-3.65768,0.29477,0.72018
630.73,68.07613,-3.65675,0.29621,0.71973
631.23,68.12629,-3.65666,0.29316,0.71927
631.73,68.17635,-3.65666,0.29799,0.71882
632.23,68.22638,-3.65702,0.29616,0.71836
632.73,68.2765,-3.65765,0.29738,0.71791
633.23,68.32677,-3.65764,0.29767,0.71745
633.73,68.37685,-3.65764,0.29798,0.717
634.23,68.42707,-3.65764,0.29643,0.71654
634.73,68.4773,-3.65764,0.29604,0.71609
635.23,68.52754,-3.65643,0.296,0.71563
635.73,68.5779,-3.65633,0.29669,0.71518
636.23,68.62825,-3.65633,0.29545,0.71472
636.73,68.6785,-3.65667,0.29757,0.71426
637.23,68.7286,-3.65666,0.29595,0.71381
637.73,68.77877,-3.65666,0.29525,0.71335
638.23,68.82905,-3.65628,0.29472,0.71289
638.73,68.8794,-3.65733,0.29542,0.71244
639.23,68.92974,-3.65666,0.29747,0.71198
639.73,68.98018,-3.65633,0.29794,0.71152
640.23,69.03062,-3.65633,0.29777,0.71106
640.73,69.08091,-3.65633,0.29808,0.71061
641.23,69.13132,-3.65707,0.29781,0.71015
641.73,69.18166,-3.65732,0.29623,0.70969
642.23,69.23175,-3.65732,0.29886,0.70923
642.73,69.282,-3.65732,0.29807,0.70877
643.23,69.3324,-3.65732,0.29801,0.70831
643.73,69.38269,-3.65732,0.29852,0.70786
644.23,69.43308,-3.65732,0.29851,0.7074
644.73,69.48315,-3.65732,0.30099,0.70694
645.23,69.53331,-3.65732,0.29745,0.70648
645.73,69.5836,-3.65769,0.29984,0.70602
646.23,69.63351,-3.65765,0.29936,0.70556
646.73,69.6838,-3.65765,0.29997,0.7051
647.23,69.7341,-3.65765,0.29735,0.70464
647.73,69.7844,-3.65766,0.29798,0.70418
648.23,69.8351,-3.65668,0.301,0.70372
648.73,69.8856,-3.65539,0.30119,0.70326
649.23,69.9361,-3.65534,0.30241,0.7028
649.73,69.98648,-3.65591,0.30206,0.70234
649.83,69.99651,-3.65603,0.30147,0.70225