File: 01_Data/ABS/STA/N2/10K_min/ABS_STA_N2_10KData_211018_R2.csv
##Temp./Â°C,Time/min,Mass loss(subtr.2)/mg,DSC(subtr.2)/(mW/mg),Sensit./(uV/mW)
50.127,10.00917,0.04189,-0.04460535,1.03583
50.727,11.46048,0.04403485,-0.02181998,1.0358
51.327,11.82653,0.05687926,-0.009132207,1.03577
51.927,12.09029,0.06209382,0.0003125602,1.03573
52.527,12.30902,0.05391906,0.009941282,1.0357
53.127,12.49572,0.04552965,0.01912224,1.03566
53.727,12.66798,0.05904329,0.02678706,1.03563
54.327,12.82864,0.05209003,0.03112785,1.03559
54.927,12.9773,0.05778633,0.03650202,1.03555
55.527,13.1182,0.05497634,0.04329155,1.03551
56.127,13.25332,0.05359225,0.04767912,1.03546
56.727,13.38325,0.05654969,0.05127678,1.03542
57.327,13.5078,0.05780145,0.0553184,1.03537
57.927,13.6288,0.05579245,0.05775045,1.03532
58.527,13.74666,0.05896475,0.06116459,1.03527
59.127,13.8614,0.05790953,0.06267064,1.03522
59.727,13.97225,0.05770077,0.0681825,1.03517
60.327,14.08055,0.05297518,0.06973078,1.03511
60.927,14.18697,0.05025726,0.07234788,1.03506
61.527,14.2905,0.05545851,0.07648076,1.035
62.127,14.39259,0.06213737,0.08035295,1.03494
62.727,14.4935,0.05959417,0.0822885,1.03488
63.327,14.5922,0.06076851,0.083016,1.03482
63.927,14.6886,0.06131509,0.08654037,1.03475
64.527,14.783,0.06012905,0.09000325,1.03469
65.127,14.87645,0.05823798,0.09274542,1.03462
65.727,14.96923,0.05691511,0.09326229,1.03455
66.327,15.0606,0.05455106,0.09799389,1.03448
66.927,15.1498,0.05571455,0.0987442,1.03441
67.527,15.238,0.05837549,0.10331,1.03434
68.127,15.32603,0.05702998,0.10594,1.03427
68.727,15.4124,0.05675626,0.10876,1.03419
69.327,15.49784,0.06067091,0.11111,1.03411
69.927,15.5822,0.06111415,0.11514,1.03403
70.527,15.66545,0.06239333,0.11733,1.03395
71.127,15.7477,0.06456277,0.12052,1.03387
71.727,15.8294,0.0640568,0.12355,1.03379
72.327,15.9106,0.05386831,0.12384,1.0337
72.927,15.991,0.05525613,0.12391,1.03362
73.527,16.0702,0.05652202,0.12724,1.03353
74.127,16.14868,0.06551298,0.12819,1.03344
74.727,16.2261,0.07305655,0.13392,1.03335
75.327,16.30313,0.06580219,0.13209,1.03326
75.927,16.38026,0.05563952,0.13459,1.03316
76.527,16.45658,0.05791457,0.13726,1.03307
77.127,16.53191,0.06211067,0.13745,1.03297
77.727,16.6068,0.06220572,0.13938,1.03287
78.327,16.6817,0.0620772,0.13901,1.03277
78.927,16.7559,0.06666709,0.14021,1.03267
79.527,16.8291,0.06320746,0.14197,1.03257
80.127,16.90196,0.0598187,0.14334,1.03246
80.727,16.97438,0.04972751,0.14519,1.03236
81.327,17.0467,0.0638933,0.14508,1.03225
81.927,17.11798,0.06645879,0.14757,1.03214
82.527,17.18887,0.06591059,0.14613,1.03203
83.127,17.2596,0.06438752,0.14884,1.03192
83.727,17.3305,0.06477296,0.15065,1.03181
84.327,17.40094,0.06324025,0.1491,1.03169
84.927,17.47045,0.06590478,0.14924,1.03158
85.527,17.53975,0.07216409,0.15033,1.03146
86.127,17.6086,0.06147025,0.14873,1.03134
86.727,17.67724,0.05949161,0.15023,1.03122
87.327,17.74494,0.06307849,0.14985,1.0311
87.927,17.81235,0.06018884,0.15183,1.03098
88.527,17.87956,0.06528046,0.15012,1.03085
89.127,17.94653,0.06526112,0.15076,1.03073
89.727,18.01321,0.06207166,0.15053,1.0306
90.327,18.07956,0.06075638,0.15194,1.03047
90.927,18.14594,0.05646731,0.15411,1.03034
91.527,18.2118,0.06015389,0.15364,1.03021
92.127,18.2773,0.06630426,0.15858,1.03007
92.727,18.34255,0.06698288,0.16059,1.02994
93.327,18.40771,0.06151167,0.15919,1.0298
93.927,18.4726,0.05595997,0.16074,1.02967
94.527,18.53699,0.06409429,0.16069,1.02953
95.127,18.60136,0.06222145,0.16489,1.02939
95.727,18.66548,0.07221884,0.16695,1.02924
96.327,18.72939,0.06973027,0.16804,1.0291
96.927,18.79283,0.06792273,0.16935,1.02896
97.527,18.85601,0.06186837,0.17061,1.02881
98.127,18.91839,0.06036865,0.17201,1.02866
98.727,18.9814,0.06143551,0.17451,1.02851
99.327,19.0442,0.06379298,0.17506,1.02836
99.927,19.1075,0.06024233,0.17917,1.02821
100.527,19.1701,0.06291063,0.17865,1.02806
101.127,19.23244,0.06522569,0.17952,1.02791
101.727,19.29455,0.06259534,0.18056,1.02775
102.327,19.35656,0.06286771,0.18269,1.02759
102.927,19.41822,0.06249252,0.18568,1.02743
103.527,19.48003,0.0695449,0.1899,1.02727
104.127,19.5417,0.07302331,0.19073,1.02711
104.727,19.60332,0.06828815,0.19225,1.02695
105.327,19.66481,0.06349668,0.19493,1.02679
105.927,19.72624,0.0609428,0.19782,1.02662
106.527,19.78754,0.06235526,0.20147,1.02645
107.127,19.84871,0.06711791,0.2035,1.02629
107.727,19.9097,0.07095678,0.20752,1.02612
108.327,19.97061,0.07163447,0.20859,1.02595
108.927,20.03152,0.07170908,0.21367,1.02577
109.527,20.09194,0.07173455,0.2166,1.0256
110.127,20.15237,0.07041958,0.21854,1.02543
110.727,20.21292,0.07196175,0.22486,1.02525
111.327,20.2732,0.06937952,0.22512,1.02507
111.927,20.3334,0.06760176,0.2289,1.02489
112.527,20.39343,0.07027714,0.23121,1.02471
113.127,20.45339,0.07274162,0.22943,1.02453
113.727,20.5134,0.06675682,0.23081,1.02435
114.327,20.57333,0.06520987,0.23069,1.02416
114.927,20.63295,0.05906381,0.23178,1.02398
115.527,20.69262,0.06449751,0.23036,1.02379
116.127,20.75197,0.07230984,0.23241,1.0236
116.727,20.81065,0.07122283,0.23305,1.02341
117.327,20.86993,0.06817037,0.22964,1.02322
117.927,20.92907,0.07061891,0.23285,1.02303
118.527,20.98863,0.06848681,0.23353,1.02284
119.127,21.04775,0.06821962,0.23436,1.02264
119.727,21.10654,0.06831412,0.23455,1.02244
120.327,21.16529,0.06471627,0.23235,1.02225
120.927,21.22401,0.06731764,0.23336,1.02205
121.527,21.2825,0.06373409,0.23502,1.02185
122.127,21.34105,0.06306766,0.2338,1.02165
122.727,21.39957,0.0705624,0.23625,1.02144
123.327,21.45789,0.06883281,0.23659,1.02124
123.927,21.516,0.06644507,0.23839,1.02103
124.527,21.57406,0.06506487,0.23701,1.02083
125.127,21.63192,0.06704123,0.23845,1.02062
125.727,21.68974,0.070051,0.23607,1.02041
126.327,21.74766,0.06765994,0.24044,1.0202
126.927,21.8054,0.06404355,0.23847,1.01999
127.527,21.86307,0.06518378,0.24209,1.01977
128.127,21.92062,0.06983699,0.2418,1.01956
128.727,21.97808,0.06947987,0.24105,1.01934
129.327,22.03528,0.06712478,0.24437,1.01913
129.927,22.09234,0.06525955,0.24465,1.01891
130.527,22.14961,0.06703547,0.24568,1.01869
131.127,22.2067,0.06930819,0.2449,1.01847
131.727,22.26416,0.06501852,0.24659,1.01824
132.327,22.32106,0.0608378,0.24719,1.01802
132.927,22.37804,0.06199549,0.2488,1.0178
133.527,22.43469,0.06251413,0.24417,1.01757
134.127,22.4911,0.06531858,0.24326,1.01734
134.727,22.5477,0.06832417,0.24134,1.01711
135.327,22.6042,0.07205019,0.24201,1.01688
135.927,22.66056,0.07231124,0.24197,1.01665
136.527,22.71702,0.06997852,0.23983,1.01642
137.127,22.7731,0.0700918,0.24195,1.01619
137.727,22.82925,0.06888007,0.24153,1.01595
138.327,22.88563,0.06738802,0.24227,1.01572
138.927,22.9417,0.06844732,0.24189,1.01548
139.527,22.99771,0.06976109,0.24132,1.01524
140.127,23.05368,0.06943757,0.24125,1.015
140.727,23.10963,0.06506304,0.24218,1.01476
141.327,23.16571,0.06059779,0.24299,1.01452
141.927,23.22162,0.07058632,0.24412,1.01428
142.527,23.2774,0.07341839,0.24474,1.01403
143.127,23.33297,0.06586293,0.24385,1.01379
143.727,23.38863,0.0668878,0.24768,1.01354
144.327,23.4441,0.0713767,0.24568,1.01329
144.927,23.4997,0.06998379,0.24874,1.01304
145.527,23.55525,0.07146688,0.2474,1.01279
146.127,23.61059,0.06824467,0.2488,1.01254
146.727,23.66615,0.06708845,0.24953,1.01229
147.327,23.72145,0.0700345,0.24824,1.01203
147.927,23.7767,0.06977648,0.25079,1.01178
148.527,23.83205,0.07033075,0.25134,1.01152
149.127,23.88726,0.07270383,0.25267,1.01126
149.727,23.9424,0.06850062,0.25426,1.011
150.327,23.99762,0.06599243,0.25212,1.01074
150.927,24.05274,0.06775348,0.25271,1.01048
151.527,24.10768,0.06735211,0.25516,1.01022
152.127,24.1627,0.0648188,0.25753,1.00995
152.727,24.2177,0.06618014,0.25599,1.00969
153.327,24.2728,0.0704492,0.25747,1.00942
153.927,24.32789,0.07397004,0.25736,1.00916
154.527,24.38304,0.07393716,0.25959,1.00889
155.127,24.43817,0.07552622,0.26088,1.00862
155.727,24.49322,0.06917429,0.25995,1.00835
156.327,24.54824,0.065444,0.26058,1.00808
156.927,24.6031,0.06083236,0.26027,1.0078
157.527,24.65794,0.06878513,0.26226,1.00753
158.127,24.71279,0.06427751,0.26117,1.00725
158.727,24.76764,0.06559403,0.26532,1.00698
159.327,24.8225,0.06917571,0.26571,1.0067
159.927,24.87735,0.07447176,0.2644,1.00642
160.527,24.93212,0.07458983,0.26537,1.00614
161.127,24.98694,0.07449377,0.26513,1.00586
161.727,25.04159,0.06593397,0.2658,1.00558
162.327,25.0963,0.07402898,0.2676,1.00529
162.927,25.15108,0.06494861,0.2668,1.00501
163.527,25.2058,0.06663409,0.26681,1.00472
164.127,25.26073,0.05837901,0.26682,1.00444
164.727,25.31535,0.06823123,0.26702,1.00415
165.327,25.3699,0.07351481,0.26892,1.00386
165.927,25.4244,0.07224672,0.2669,1.00357
166.527,25.47881,0.06725817,0.26959,1.00328
167.127,25.53314,0.07312566,0.26918,1.00298
167.727,25.5878,0.07805258,0.27214,1.00269
168.327,25.64248,0.07543479,0.27292,1.0024
168.927,25.69728,0.0741486,0.27253,1.0021
169.527,25.75202,0.07533698,0.273,1.0018
170.127,25.8066,0.07026911,0.27258,1.00151
170.727,25.86115,0.07018835,0.2744,1.00121
171.327,25.91555,0.07120457,0.27234,1.00091
171.927,25.97012,0.07272278,0.27313,1.00061
172.527,26.02456,0.07116689,0.27592,1.0003
173.127,26.07885,0.07412537,0.27353,1.0
173.727,26.13327,0.07658533,0.27461,0.9997
174.327,26.18761,0.07514199,0.27524,0.99939
174.927,26.24192,0.0736318,0.27608,0.99908
175.527,26.29622,0.06557485,0.27565,0.99878
176.127,26.3504,0.06279551,0.27587,0.99847
176.727,26.40428,0.07140401,0.27449,0.99816
177.327,26.4584,0.07130044,0.27569,0.99785
177.927,26.5127,0.0574055,0.27534,0.99753
178.527,26.56686,0.06062649,0.27648,0.99722
179.127,26.6214,0.07023062,0.27785,0.99691
179.727,26.67557,0.06899477,0.27775,0.99659
180.327,26.72965,0.06631006,0.27759,0.99628
180.927,26.7839,0.06547965,0.27831,0.99596
181.527,26.838,0.06592348,0.27872,0.99564
182.127,26.89194,0.07052953,0.27921,0.99532
182.727,26.94609,0.07110774,0.27793,0.995
183.327,27.00008,0.06714999,0.28246,0.99468
183.927,27.05402,0.06898616,0.2805,0.99436
184.527,27.10785,0.07100495,0.28228,0.99403
185.127,27.16168,0.06968792,0.281,0.99371
185.727,27.21545,0.0670051,0.28455,0.99338
186.327,27.2695,0.06700959,0.2842,0.99306
186.927,27.32348,0.06876738,0.28424,0.99273
187.527,27.3773,0.07286696,0.28423,0.9924
188.127,27.43109,0.0744562,0.28497,0.99207
188.727,27.4848,0.07233955,0.28366,0.99174
189.327,27.5388,0.06909996,0.28538,0.99141
189.927,27.59266,0.07106838,0.28577,0.99108
190.527,27.64645,0.07227239,0.28493,0.99074
191.127,27.70007,0.07228,0.28494,0.99041
191.727,27.75362,0.07227902,0.287,0.99007
192.327,27.8072,0.07094617,0.28638,0.98974
192.927,27.86085,0.07066783,0.28889,0.9894
193.527,27.91449,0.07059791,0.28903,0.98906
194.127,27.96817,0.06343714,0.29136,0.98872
194.727,28.02187,0.06586247,0.29049,0.98838
195.327,28.07553,0.07441016,0.2913,0.98804
195.927,28.129,0.07457267,0.29028,0.9877
196.527,28.1825,0.07597389,0.29061,0.98735
197.127,28.23605,0.07478169,0.28982,0.98701
197.727,28.2896,0.07010346,0.29193,0.98666
198.327,28.34338,0.06311818,0.29363,0.98632
198.927,28.3971,0.05914051,0.2951,0.98597
199.527,28.4506,0.06577897,0.29413,0.98562
200.127,28.5042,0.06823069,0.29276,0.98527
200.727,28.55763,0.07135416,0.29571,0.98492
201.327,28.6109,0.0715266,0.29538,0.98457
201.927,28.66436,0.07180434,0.29342,0.98422
202.527,28.71792,0.0749987,0.29493,0.98386
203.127,28.7718,0.07038584,0.29476,0.98351
203.727,28.8255,0.06541219,0.29637,0.98315
204.327,28.8792,0.06218506,0.29589,0.9828
204.927,28.9329,0.06505017,0.29516,0.98244
205.527,28.98651,0.06751721,0.29558,0.98208
206.127,29.0404,0.07056913,0.29818,0.98173
206.727,29.0942,0.07508726,0.29767,0.98137
207.327,29.14804,0.07633707,0.29674,0.981
207.927,29.2018,0.07633727,0.29679,0.98064
208.527,29.25556,0.07896362,0.29748,0.98028
209.127,29.3093,0.07633074,0.29498,0.97992
209.727,29.363,0.06832831,0.29931,0.97955
210.327,29.4164,0.06675033,0.29837,0.97919
210.927,29.46991,0.07022789,0.2993,0.97882
211.527,29.5235,0.07271068,0.29864,0.97845
212.127,29.5772,0.07478749,0.29989,0.97809
212.727,29.63103,0.06990698,0.29976,0.97772
213.327,29.68484,0.0655419,0.30137,0.97735
213.927,29.73858,0.06427354,0.29965,0.97698
214.527,29.79236,0.06516549,0.30248,0.97661
215.127,29.8463,0.06918102,0.30131,0.97623
215.727,29.90005,0.06755732,0.29638,0.97586
216.327,29.9539,0.06882647,0.30154,0.97549
216.927,30.0076,0.06828397,0.30047,0.97511
217.527,30.0613,0.06694031,0.29956,0.97474
218.127,30.115,0.06672367,0.30146,0.97436
218.727,30.16879,0.06831664,0.30234,0.97398
219.327,30.2226,0.07152422,0.30062,0.9736
219.927,30.27611,0.07402758,0.30276,0.97322
220.527,30.3298,0.06814926,0.30264,0.97284
221.127,30.38358,0.06718225,0.3011,0.97246
221.727,30.43733,0.06617468,0.30339,0.97208
222.327,30.49145,0.06447389,0.30653,0.9717
222.927,30.5453,0.06441218,0.30427,0.97131
223.527,30.5991,0.06854926,0.30315,0.97093
224.127,30.65281,0.06831007,0.30596,0.97054
224.727,30.7066,0.06798167,0.30654,0.97016
225.327,30.7603,0.06796469,0.30664,0.96977
225.927,30.81407,0.06646305,0.3085,0.96938
226.527,30.86781,0.06787122,0.30585,0.96899
227.127,30.9215,0.06893458,0.30582,0.9686
227.727,30.9752,0.07015469,0.30496,0.96821
228.327,31.02879,0.07172327,0.30386,0.96782
228.927,31.0825,0.0684688,0.30721,0.96743
229.527,31.13617,0.06344139,0.30919,0.96704
230.127,31.18983,0.06349987,0.30709,0.96664
230.727,31.24356,0.06211315,0.30854,0.96625
231.327,31.2971,0.05927309,0.31241,0.96585
231.927,31.35085,0.05485352,0.30998,0.96546
232.527,31.40464,0.05614977,0.31083,0.96506
233.127,31.45859,0.05743108,0.30869,0.96466
233.727,31.5126,0.06081563,0.31015,0.96426
234.327,31.56665,0.06463685,0.30825,0.96387
234.927,31.6205,0.06863998,0.30761,0.96346
235.527,31.67428,0.06864757,0.30701,0.96306
236.127,31.7281,0.0672934,0.30739,0.96266
236.727,31.7818,0.06594037,0.30752,0.96226
237.327,31.8358,0.06681955,0.30719,0.96186
237.927,31.88975,0.06971487,0.30888,0.96145
238.527,31.9437,0.07260017,0.3082,0.96105
239.127,31.9976,0.0646187,0.30858,0.96064
239.727,32.05138,0.05681483,0.31117,0.96024
240.327,32.10502,0.06380471,0.31138,0.95983
240.927,32.15872,0.0645003,0.31095,0.95942
241.527,32.21245,0.06070824,0.31044,0.95901
242.127,32.26639,0.05804176,0.3109,0.9586
242.727,32.3202,0.06060266,0.30795,0.95819
243.327,32.37422,0.06125514,0.31044,0.95778
243.927,32.42818,0.05898526,0.3086,0.95737
244.527,32.48209,0.06596705,0.31002,0.95696
245.127,32.5362,0.06604081,0.31055,0.95654
245.727,32.59015,0.06510154,0.31219,0.95613
246.327,32.64414,0.06233322,0.31246,0.95572
246.927,32.69825,0.06142892,0.31077,0.9553
247.527,32.7522,0.06616521,0.31187,0.95488
248.127,32.80598,0.0642402,0.31206,0.95447
248.727,32.85983,0.05954089,0.31275,0.95405
249.327,32.91372,0.05803163,0.30955,0.95363
249.927,32.96764,0.06153821,0.31206,0.95321
250.527,33.0216,0.0630586,0.31235,0.95279
251.127,33.0756,0.06343033,0.31093,0.95237
251.727,33.12956,0.06368193,0.31363,0.95195
252.327,33.18343,0.05973629,0.31234,0.95153
252.927,33.23733,0.05831566,0.30986,0.95111
253.527,33.29126,0.0564419,0.31528,0.95068
254.127,33.34502,0.05408417,0.31419,0.95026
254.727,33.39898,0.05612668,0.31442,0.94983
255.327,33.45299,0.05990671,0.31396,0.94941
255.927,33.507,0.05868083,0.31433,0.94898
256.527,33.5612,0.05867552,0.31406,0.94856
257.127,33.61533,0.055638,0.3149,0.94813
257.727,33.66925,0.05518609,0.31321,0.9477
258.327,33.7232,0.06087768,0.31287,0.94727
258.927,33.77726,0.05569706,0.31219,0.94684
259.527,33.83125,0.05120186,0.31289,0.94641
260.127,33.88532,0.05444296,0.30978,0.94598
260.727,33.9394,0.0534966,0.31351,0.94555
261.327,33.99335,0.05364934,0.31473,0.94512
261.927,34.0473,0.06021346,0.31238,0.94468
262.527,34.10127,0.05556583,0.31208,0.94425
263.127,34.15532,0.05013551,0.31299,0.94382
263.727,34.2094,0.05022891,0.3142,0.94338
264.327,34.26325,0.05187029,0.31399,0.94295
264.927,34.31746,0.05307418,0.31321,0.94251
265.527,34.37145,0.04612747,0.31504,0.94207
266.127,34.4255,0.0534497,0.31326,0.94164
266.727,34.47967,0.0536836,0.31006,0.9412
267.327,34.53367,0.04798762,0.314,0.94076
267.927,34.5877,0.04813053,0.30995,0.94032
268.527,34.64178,0.0525321,0.31013,0.93988
269.127,34.69601,0.05443095,0.30931,0.93944
269.727,34.75027,0.05621116,0.30513,0.939
270.327,34.80431,0.05254458,0.30876,0.93855
270.927,34.85844,0.05012143,0.30821,0.93811
271.527,34.91243,0.04574638,0.31086,0.93767
272.127,34.96654,0.04278749,0.3103,0.93723
272.727,35.02078,0.04452991,0.30712,0.93678
273.327,35.07509,0.04686323,0.31068,0.93634
273.927,35.1295,0.04880226,0.30955,0.93589
274.527,35.1838,0.05312405,0.30574,0.93544
275.127,35.23795,0.05163153,0.30593,0.935
275.727,35.29193,0.04331486,0.31019,0.93455
276.327,35.34599,0.04144765,0.3076,0.9341
276.927,35.40023,0.0394209,0.30923,0.93365
277.527,35.45469,0.04522871,0.30575,0.9332
278.127,35.50911,0.04453021,0.30491,0.93275
278.727,35.56345,0.04227116,0.3075,0.9323
279.327,35.6177,0.03774194,0.30524,0.93185
279.927,35.67208,0.04059721,0.30478,0.9314
280.527,35.72639,0.0439631,0.30522,0.93095
281.127,35.78075,0.04397221,0.30312,0.9305
281.727,35.83513,0.04155933,0.29979,0.93004
282.327,35.88925,0.03893138,0.30093,0.92959
282.927,35.94357,0.03655119,0.30035,0.92914
283.527,35.99774,0.03705288,0.30029,0.92868
284.127,36.052,0.03795052,0.29818,0.92823
284.727,36.1066,0.03744239,0.29698,0.92777
285.327,36.1609,0.03662399,0.29582,0.92731
285.927,36.21555,0.037946,0.2924,0.92686
286.527,36.27006,0.03773756,0.29116,0.9264
287.127,36.32414,0.03645083,0.29341,0.92594
287.727,36.37816,0.03346227,0.29253,0.92548
288.327,36.43262,0.0349478,0.28822,0.92502
288.927,36.487,0.03519704,0.2887,0.92456
289.527,36.5417,0.03337319,0.28631,0.9241
290.127,36.5965,0.03639183,0.28392,0.92364
290.727,36.65082,0.0372885,0.28105,0.92318
291.327,36.70527,0.03307512,0.28068,0.92272
291.927,36.75995,0.0331909,0.28006,0.92225
292.527,36.8146,0.03641696,0.27943,0.92179
293.127,36.86919,0.03772887,0.27498,0.92133
293.727,36.9238,0.03349871,0.27548,0.92086
294.327,36.9783,0.03009091,0.27476,0.9204
294.927,37.0327,0.02873076,0.27078,0.91993
295.527,37.08724,0.03015093,0.27163,0.91947
296.127,37.14177,0.03102564,0.26922,0.919
296.727,37.19627,0.02687401,0.26771,0.91854
297.327,37.25094,0.02616913,0.26577,0.91807
297.927,37.30565,0.02895951,0.26403,0.9176
298.527,37.36035,0.02624952,0.26275,0.91713
299.127,37.4151,0.02901972,0.25882,0.91666
299.727,37.4699,0.03132468,0.25577,0.9162
300.327,37.52469,0.03019359,0.25304,0.91573
300.927,37.57958,0.03016007,0.25134,0.91526
301.527,37.63435,0.03162253,0.24703,0.91479
302.127,37.6889,0.03272215,0.24633,0.91431
302.727,37.74361,0.02386537,0.24623,0.91384
303.327,37.79826,0.01909012,0.2454,0.91337
303.927,37.853,0.02044404,0.24278,0.9129
304.527,37.9077,0.03046342,0.23632,0.91243
305.127,37.9625,0.02985434,0.23584,0.91195
305.727,38.01725,0.02956563,0.22918,0.91148
306.327,38.0721,0.03167379,0.23033,0.911
306.927,38.1269,0.02535789,0.23085,0.91053
307.527,38.18173,0.02189678,0.22995,0.91005
308.127,38.23672,0.02635414,0.22756,0.90958
308.727,38.2915,0.02368785,0.227,0.9091
309.327,38.34642,0.02066163,0.22294,0.90863
309.927,38.40128,0.0203784,0.22125,0.90815
310.527,38.45606,0.02174222,0.22113,0.90767
311.127,38.51086,0.02095029,0.21913,0.90719
311.727,38.5657,0.02157463,0.21991,0.90672
312.327,38.62063,0.02011665,0.21471,0.90624
312.927,38.67548,0.02018012,0.21229,0.90576
313.527,38.73056,0.02019362,0.21212,0.90528
314.127,38.78536,0.01886585,0.21105,0.9048
314.727,38.84023,0.01647511,0.20699,0.90432
315.327,38.89515,0.01613282,0.20749,0.90384
315.927,38.95008,0.01754994,0.20521,0.90336
316.527,39.00517,0.01755841,0.20315,0.90288
317.127,39.0602,0.01501953,0.20289,0.90239
317.727,39.11522,0.01250081,0.19972,0.90191
318.327,39.17002,0.01460991,0.19969,0.90143
318.927,39.2249,0.01723771,0.194,0.90095
319.527,39.27988,0.01956642,0.18817,0.90046
320.127,39.33487,0.01984828,0.18776,0.89998
320.727,39.39004,0.02000511,0.18318,0.89949
321.327,39.4452,0.01889395,0.18198,0.89901
321.927,39.50016,0.01766224,0.1818,0.89852
322.527,39.5554,0.01891589,0.17606,0.89804
323.127,39.61063,0.02028823,0.17759,0.89755
323.727,39.66547,0.01673555,0.17466,0.89707
324.327,39.72058,0.01405635,0.17115,0.89658
324.927,39.77547,0.01543279,0.16975,0.89609
325.527,39.83054,0.01415103,0.16836,0.89561
326.127,39.88557,0.009377357,0.1693,0.89512
326.727,39.94066,0.004214628,0.17013,0.89463
327.327,39.99583,-0.000649674,0.17079,0.89414
327.927,40.05109,0.003199275,0.16362,0.89365
328.527,40.10654,0.01645487,0.15805,0.89316
329.127,40.16194,0.01225621,0.157,0.89267
329.727,40.21719,0.00248148,0.15555,0.89218
330.327,40.2725,0.000401529,0.1544,0.89169
330.927,40.32757,0.003285493,0.15342,0.8912
331.527,40.38278,0.002099507,0.15165,0.89071
332.127,40.4379,-0.000740921,0.14683,0.89022
332.727,40.49295,0.005200489,0.14101,0.88973
333.327,40.54802,0.00517867,0.13874,0.88924
333.927,40.60313,0.0004732515,0.14041,0.88875
334.527,40.6584,0.001008397,0.13566,0.88825
335.127,40.71365,0.007856291,0.13264,0.88776
335.727,40.769,0.00375054,0.12999,0.88727
336.327,40.82436,-0.0006274844,0.12695,0.88677
336.927,40.87973,0.0007742485,0.12258,0.88628
337.527,40.9351,0.006426146,0.11896,0.88579
338.127,40.99051,0.01005642,0.11472,0.88529
338.727,41.0457,0.004400515,0.11376,0.8848
339.327,41.10083,-0.002567059,0.1132,0.8843
339.927,41.156,-0.004185483,0.11259,0.88381
340.527,41.21111,-0.004279047,0.10943,0.88331
341.127,41.26657,-0.00375582,0.10632,0.88281
341.727,41.32206,-0.003973117,0.10229,0.88232
342.327,41.37769,-0.005077058,0.10043,0.88182
342.927,41.43305,-0.00576112,0.09549535,0.88132
343.527,41.48838,-0.005239425,0.09373904,0.88083
344.127,41.5437,-0.004955987,0.09155832,0.88033
344.727,41.59916,0.000109651,0.08561181,0.87983
345.327,41.6549,-0.001668974,0.08049653,0.87933
345.927,41.71042,-0.00234948,0.0753753,0.87884
346.527,41.76592,-0.007870013,0.08006567,0.87834
347.127,41.82148,-0.02321506,0.07836698,0.87784
347.727,41.87706,-0.003692308,0.07085928,0.87734
348.327,41.93261,-0.003259567,0.06931034,0.87684
348.927,41.98825,-0.01129811,0.06741438,0.87634
349.527,42.04373,-0.01922603,0.06223732,0.87584
350.127,42.09928,-0.0210736,0.06475107,0.87534
350.727,42.15469,-0.01873034,0.05733094,0.87484
351.327,42.20981,-0.01573504,0.05630156,0.87434
351.927,42.26538,-0.016945,0.05280594,0.87384
352.527,42.32092,-0.01658192,0.05019264,0.87334
353.127,42.37663,-0.01522961,0.04768205,0.87284
353.727,42.4326,-0.01848655,0.04663051,0.87234
354.327,42.48827,-0.02289995,0.04449745,0.87183
354.927,42.54378,-0.026854,0.04580416,0.87133
355.527,42.5993,-0.03191311,0.0446119,0.87083
356.127,42.65502,-0.02748733,0.04346262,0.87033
356.727,42.71089,-0.02784784,0.03950479,0.86982
357.327,42.76662,-0.02783253,0.03838923,0.86932
357.927,42.82242,-0.03239205,0.03899033,0.86882
358.527,42.87797,-0.03630117,0.0368907,0.86831
359.127,42.9335,-0.03687199,0.03687621,0.86781
359.727,42.9892,-0.03269004,0.03492663,0.86731
360.327,43.045,-0.03526522,0.0351522,0.8668
360.927,43.10076,-0.04167684,0.0323861,0.8663
361.527,43.15625,-0.0416924,0.03332994,0.86579
362.127,43.21209,-0.04123673,0.03297264,0.86529
362.727,43.26784,-0.04125732,0.03012537,0.86478
363.327,43.3239,-0.04246753,0.03387262,0.86428
363.927,43.37989,-0.04644712,0.03511839,0.86377
364.527,43.43569,-0.04638843,0.03886748,0.86327
365.127,43.4916,-0.04793638,0.03728269,0.86276
365.727,43.54763,-0.05118208,0.03931295,0.86226
366.327,43.6037,-0.05489106,0.04004911,0.86175
366.927,43.65982,-0.05883119,0.04651241,0.86124
367.527,43.7159,-0.05571238,0.05220119,0.86074
368.127,43.77192,-0.05664056,0.05843344,0.86023
368.727,43.82795,-0.06173422,0.05847583,0.85972
369.327,43.8842,-0.05915688,0.06104976,0.85922
369.927,43.94025,-0.05792094,0.06471371,0.85871
370.527,43.99633,-0.06095165,0.06754858,0.8582
371.127,44.05258,-0.06562899,0.07155382,0.8577
371.727,44.10852,-0.0733454,0.07643354,0.85719
372.327,44.16458,-0.07467219,0.08268629,0.85668
372.927,44.22055,-0.07791572,0.09059261,0.85617
373.527,44.27642,-0.08401477,0.09662264,0.85566
374.127,44.33247,-0.09153951,0.10106,0.85515
374.727,44.3885,-0.08668271,0.10581,0.85465
375.327,44.4448,-0.08762179,0.11392,0.85414
375.927,44.50099,-0.08830077,0.12001,0.85363
376.527,44.55733,-0.09464401,0.12827,0.85312
377.127,44.61367,-0.10598,0.1399,0.85261
377.727,44.67003,-0.10829,0.14618,0.8521
378.327,44.7264,-0.10582,0.15629,0.85159
378.927,44.7827,-0.1086,0.16535,0.85108
379.527,44.83896,-0.10781,0.1748,0.85057
380.127,44.8953,-0.11772,0.18726,0.85006
380.727,44.95173,-0.12703,0.19851,0.84955
381.327,45.0081,-0.13088,0.2126,0.84904
381.927,45.06449,-0.13791,0.22643,0.84853
382.527,45.1207,-0.13938,0.23821,0.84802
383.127,45.17729,-0.14255,0.25254,0.84751
383.727,45.23377,-0.14402,0.26658,0.847
384.327,45.29032,-0.14739,0.28295,0.84649
384.927,45.34682,-0.15742,0.2974,0.84598
385.527,45.40315,-0.16535,0.31585,0.84547
386.127,45.4597,-0.17704,0.33031,0.84496
386.727,45.5163,-0.18112,0.35015,0.84445
387.327,45.573,-0.18151,0.36912,0.84394
387.927,45.62977,-0.18158,0.38865,0.84343
388.527,45.68649,-0.18498,0.40429,0.84291
389.127,45.7431,-0.18994,0.42675,0.8424
389.727,45.79971,-0.20004,0.44691,0.84189
390.327,45.85626,-0.20641,0.46688,0.84138
390.927,45.91272,-0.21373,0.48863,0.84087
391.527,45.9694,-0.22359,0.51246,0.84036
392.127,46.0262,-0.23291,0.53429,0.83984
392.727,46.08307,-0.24056,0.56222,0.83933
393.327,46.13987,-0.24592,0.58705,0.83882
393.927,46.19665,-0.25376,0.61266,0.83831
394.527,46.25333,-0.26483,0.63665,0.8378
395.127,46.3099,-0.27808,0.66615,0.83728
395.727,46.3666,-0.28572,0.69032,0.83677
396.327,46.42334,-0.29176,0.71613,0.83626
396.927,46.48008,-0.3017,0.74781,0.83575
397.527,46.53694,-0.31176,0.77656,0.83523
398.127,46.59373,-0.32861,0.80426,0.83472
398.727,46.65051,-0.3291,0.83592,0.83421
399.327,46.70734,-0.33858,0.86906,0.8337
399.927,46.76423,-0.35751,0.89842,0.83318
400.527,46.82104,-0.36118,0.93454,0.83267
401.127,46.87788,-0.37508,0.96454,0.83216
401.727,46.9347,-0.39656,1.00039,0.83164
402.327,46.99165,-0.40671,1.03612,0.83113
402.927,47.04882,-0.4245,1.07511,0.83062
403.527,47.10581,-0.44206,1.11249,0.83011
404.127,47.16302,-0.44748,1.15181,0.82959
404.727,47.22005,-0.45773,1.19096,0.82908
405.327,47.27702,-0.47795,1.23337,0.82857
405.927,47.3339,-0.49296,1.27479,0.82805
406.527,47.39093,-0.51604,1.32056,0.82754
407.127,47.44806,-0.53271,1.36259,0.82703
407.727,47.50538,-0.55033,1.40842,0.82651
408.327,47.56244,-0.56332,1.45419,0.826
408.927,47.6198,-0.57945,1.49942,0.82549
409.527,47.67707,-0.59988,1.54589,0.82497
410.127,47.73438,-0.62353,1.59598,0.82446
410.727,47.7916,-0.65041,1.64413,0.82395
411.327,47.84882,-0.66668,1.69718,0.82343
411.927,47.9058,-0.68841,1.74747,0.82292
412.527,47.96281,-0.71912,1.8007,0.82241
413.127,48.0199,-0.74329,1.85334,0.82189
413.727,48.07717,-0.77065,1.90255,0.82138
414.327,48.13449,-0.79558,1.957,0.82087
414.927,48.19188,-0.82064,2.00963,0.82035
415.527,48.24923,-0.84537,2.0611,0.81984
416.127,48.30662,-0.86641,2.11457,0.81933
416.727,48.36397,-0.89741,2.16425,0.81881
417.327,48.421,-0.93143,2.21946,0.8183
417.927,48.4782,-0.96507,2.26928,0.81779
418.527,48.5354,-0.99924,2.32224,0.81727
419.127,48.5928,-1.0385,2.37335,0.81676
419.727,48.6506,-1.06428,2.42127,0.81625
420.327,48.7081,-1.09582,2.46999,0.81573
420.927,48.76565,-1.13347,2.51636,0.81522
421.527,48.82311,-1.16903,2.56348,0.81471
422.127,48.88058,-1.20699,2.60639,0.81419
422.727,48.93786,-1.23928,2.64716,0.81368
423.327,48.9954,-1.27609,2.68421,0.81317
423.927,49.05316,-1.31571,2.71989,0.81265
424.527,49.1109,-1.3524,2.75597,0.81214
425.127,49.16873,-1.39872,2.78406,0.81163
425.727,49.22633,-1.44198,2.81026,0.81112
426.327,49.2838,-1.48082,2.832,0.8106
426.927,49.34127,-1.52724,2.85146,0.81009
427.527,49.39863,-1.56773,2.86958,0.80958
428.127,49.45603,-1.61559,2.87717,0.80906
428.727,49.51358,-1.65932,2.88502,0.80855
429.327,49.57116,-1.69881,2.88889,0.80804
429.927,49.6289,-1.74171,2.88727,0.80753
430.527,49.68632,-1.7851,2.87656,0.80701
431.127,49.74371,-1.82743,2.8708,0.8065
431.727,49.801,-1.86802,2.85398,0.80599
432.327,49.85825,-1.91266,2.8349,0.80548
432.927,49.91563,-1.96541,2.81179,0.80496
433.527,49.973,-2.00531,2.77997,0.80445
434.127,50.0304,-2.0419,2.74913,0.80394
434.727,50.08775,-2.08621,2.7117,0.80343
435.327,50.14495,-2.13309,2.6735,0.80292
435.927,50.20212,-2.17236,2.63046,0.8024
436.527,50.25925,-2.21584,2.58569,0.80189
437.127,50.31647,-2.25298,2.52981,0.80138
437.727,50.37358,-2.27613,2.47799,0.80087
438.327,50.43063,-2.32106,2.42295,0.80036
438.927,50.4874,-2.36948,2.36685,0.79985
439.527,50.54438,-2.403,2.30736,0.79933
440.127,50.60167,-2.44181,2.2482,0.79882
440.727,50.6589,-2.47833,2.18676,0.79831
441.327,50.71611,-2.50975,2.11933,0.7978
441.927,50.77316,-2.54565,2.05926,0.79729
442.527,50.83012,-2.58307,2.00016,0.79678
443.127,50.8872,-2.62048,1.93723,0.79627
443.727,50.94437,-2.64606,1.8802,0.79576
444.327,51.00159,-2.67715,1.81651,0.79525
444.927,51.0589,-2.70155,1.76006,0.79474
445.527,51.11592,-2.73384,1.70646,0.79423
446.127,51.17308,-2.77094,1.64906,0.79372
446.727,51.23004,-2.80318,1.59274,0.79321
447.327,51.287,-2.83703,1.54081,0.7927
447.927,51.34409,-2.85948,1.4918,0.79219
448.527,51.40128,-2.88329,1.44573,0.79168
449.127,51.45831,-2.91686,1.402,0.79117
449.727,51.5154,-2.93544,1.35682,0.79066
450.327,51.57273,-2.95662,1.30614,0.79015
450.927,51.63,-2.9809,1.24826,0.78964
451.527,51.6875,-3.00523,1.1903,0.78913
452.127,51.74493,-3.03424,1.13114,0.78862
452.727,51.8024,-3.06151,1.07633,0.78811
453.327,51.85985,-3.08056,1.02421,0.7876
453.927,51.91721,-3.10035,0.97744,0.78709
454.527,51.9747,-3.11726,0.93284,0.78659
455.127,52.0321,-3.14541,0.88844,0.78608
455.727,52.08931,-3.16536,0.83741,0.78557
456.327,52.14669,-3.18077,0.81385,0.78506
456.927,52.20401,-3.19924,0.77041,0.78455
457.527,52.2614,-3.21861,0.73455,0.78405
458.127,52.31895,-3.235,0.6949,0.78354
458.727,52.37643,-3.25016,0.6563,0.78303
459.327,52.434,-3.26515,0.62157,0.78252
459.927,52.4917,-3.27902,0.58504,0.78202
460.527,52.54902,-3.29153,0.55281,0.78151
461.127,52.60657,-3.30868,0.51807,0.781
461.727,52.66404,-3.32422,0.48415,0.7805
462.327,52.72145,-3.33795,0.45672,0.77999
462.927,52.7792,-3.34598,0.42513,0.77948
463.527,52.83685,-3.35028,0.4001,0.77898
464.127,52.8945,-3.37906,0.37783,0.77847
464.727,52.9521,-3.3883,0.35477,0.77797
465.327,53.0096,-3.40192,0.33314,0.77746
465.927,53.067,-3.41435,0.30996,0.77695
466.527,53.1247,-3.4253,0.29007,0.77645
467.127,53.18246,-3.4264,0.27336,0.77594
467.727,53.24043,-3.4361,0.25745,0.77544
468.327,53.2982,-3.44429,0.24063,0.77493
468.927,53.35592,-3.45314,0.2277,0.77443
469.527,53.41364,-3.47118,0.21375,0.77393
470.127,53.4713,-3.48231,0.19968,0.77342
470.727,53.5288,-3.48774,0.18664,0.77292
471.327,53.58647,-3.49235,0.1741,0.77241
471.927,53.644,-3.49496,0.16118,0.77191
472.527,53.7018,-3.50188,0.15287,0.77141
473.127,53.7596,-3.51233,0.14395,0.7709
473.727,53.81731,-3.51949,0.13245,0.7704
474.327,53.87503,-3.527,0.12427,0.7699
474.927,53.93266,-3.54109,0.11504,0.76939
475.527,53.99037,-3.54772,0.10358,0.76889
476.127,54.048,-3.54983,0.09487937,0.76839
476.727,54.1058,-3.55453,0.08865948,0.76789
477.327,54.16359,-3.55945,0.07834324,0.76739
477.927,54.22152,-3.55826,0.0692249,0.76689
478.527,54.27932,-3.56197,0.05930181,0.76638
479.127,54.33705,-3.57183,0.05052556,0.76588
479.727,54.39504,-3.57915,0.04441193,0.76538
480.327,54.453,-3.57918,0.0373041,0.76488
480.927,54.51081,-3.58415,0.02964775,0.76438
481.527,54.5686,-3.59017,0.01993963,0.76388
482.127,54.6264,-3.59816,0.01238448,0.76338
482.727,54.6843,-3.60505,0.004908816,0.76288
483.327,54.7421,-3.60804,-0.004109562,0.76238
483.927,54.79979,-3.61112,-0.01244449,0.76188
484.527,54.8577,-3.61822,-0.01965548,0.76138
485.127,54.91565,-3.618,-0.02969676,0.76088
485.727,54.97367,-3.61725,-0.03404235,0.76039
486.327,55.0318,-3.6243,-0.04222884,0.75989
486.927,55.08985,-3.62411,-0.04992739,0.75939
487.527,55.1479,-3.62426,-0.05541954,0.75889
488.127,55.20587,-3.62967,-0.0607821,0.75839
488.727,55.2638,-3.63397,-0.07105987,0.7579
489.327,55.3219,-3.63081,-0.07469113,0.7574
489.927,55.3803,-3.64589,-0.0786309,0.7569
490.527,55.4388,-3.6481,-0.0825805,0.75641
491.127,55.49736,-3.63485,-0.09457824,0.75591
491.727,55.5557,-3.63647,-0.09837711,0.75541
492.327,55.61414,-3.63702,-0.10311,0.75492
492.927,55.6726,-3.63742,-0.10969,0.75442
493.527,55.73114,-3.63884,-0.11204,0.75393
494.127,55.78976,-3.64362,-0.1165,0.75343
494.727,55.8479,-3.64378,-0.12133,0.75294
495.327,55.9061,-3.64994,-0.13134,0.75244
495.927,55.9643,-3.65589,-0.13397,0.75195
496.527,56.02236,-3.65559,-0.13684,0.75145
497.127,56.08093,-3.65496,-0.13937,0.75096
497.727,56.1395,-3.65702,-0.14217,0.75046
498.327,56.19795,-3.65661,-0.14627,0.74997
498.927,56.25663,-3.65543,-0.14729,0.74948
499.527,56.31514,-3.65236,-0.14894,0.74899
500.127,56.3735,-3.64939,-0.14875,0.74849
500.727,56.4322,-3.64951,-0.15202,0.748
501.327,56.4903,-3.65173,-0.15636,0.74751
501.927,56.5488,-3.65416,-0.15409,0.74702
502.527,56.6073,-3.65598,-0.15497,0.74653
503.127,56.6657,-3.65395,-0.15796,0.74603
503.727,56.72436,-3.65047,-0.15724,0.74554
504.327,56.78309,-3.65068,-0.16032,0.74505
504.927,56.8416,-3.65036,-0.16122,0.74456
505.527,56.9002,-3.65562,-0.15994,0.74407
506.127,56.9587,-3.65562,-0.16786,0.74358
506.727,57.0173,-3.65693,-0.16443,0.74309
507.327,57.07617,-3.65556,-0.16769,0.7426
507.927,57.13469,-3.65626,-0.16852,0.74212
508.527,57.19331,-3.65653,-0.16787,0.74163
509.127,57.2514,-3.6582,-0.16724,0.74114
509.727,57.31,-3.65963,-0.16489,0.74065
510.327,57.3688,-3.65995,-0.16783,0.74016
510.927,57.4279,-3.65828,-0.16603,0.73968
511.527,57.4868,-3.65802,-0.16952,0.73919
512.127,57.5456,-3.65977,-0.16799,0.7387
512.727,57.6044,-3.66092,-0.17019,0.73822
513.327,57.66299,-3.66433,-0.16887,0.73773
513.927,57.7215,-3.65091,-0.16674,0.73724
514.527,57.7799,-3.65937,-0.16301,0.73676
515.127,57.83857,-3.66811,-0.16342,0.73627
515.727,57.89721,-3.65584,-0.16666,0.73579
516.327,57.9561,-3.66186,-0.16334,0.7353
516.927,58.01495,-3.65827,-0.16435,0.73482
517.527,58.0737,-3.65605,-0.16739,0.73434
518.127,58.13267,-3.65788,-0.16782,0.73385
518.727,58.1914,-3.6574,-0.16782,0.73337
519.327,58.2501,-3.65234,-0.17045,0.73289
519.927,58.30875,-3.64756,-0.171,0.7324
520.527,58.36747,-3.65159,-0.1686,0.73192
521.127,58.42635,-3.65351,-0.16705,0.73144
521.727,58.48526,-3.65336,-0.17162,0.73096
522.327,58.54407,-3.65163,-0.17607,0.73048
522.927,58.6029,-3.6548,-0.17789,0.72999
523.527,58.66171,-3.65651,-0.17876,0.72951
524.127,58.7204,-3.65618,-0.18358,0.72903
524.727,58.7791,-3.65781,-0.18307,0.72855
525.327,58.83772,-3.65942,-0.18482,0.72807
525.927,58.89655,-3.65479,-0.1832,0.72759
526.527,58.9555,-3.65456,-0.18747,0.72711
527.127,59.0142,-3.66078,-0.18687,0.72664
527.727,59.073,-3.66554,-0.18955,0.72616
528.327,59.13182,-3.66313,-0.18765,0.72568
528.927,59.1908,-3.65748,-0.18981,0.7252
529.527,59.2497,-3.6536,-0.19796,0.72472
530.127,59.3088,-3.65084,-0.19704,0.72425
530.727,59.3677,-3.63997,-0.19849,0.72377
531.327,59.4266,-3.64981,-0.19907,0.72329
531.927,59.48562,-3.65078,-0.20001,0.72282
532.527,59.5444,-3.64983,-0.20075,0.72234
533.127,59.60332,-3.66053,-0.19686,0.72187
533.727,59.6622,-3.66254,-0.19822,0.72139
534.327,59.72126,-3.65116,-0.19951,0.72092
534.927,59.78029,-3.65274,-0.1962,0.72044
535.527,59.83934,-3.66265,-0.20034,0.71997
536.127,59.89826,-3.66051,-0.19767,0.7195
536.727,59.95717,-3.66126,-0.19772,0.71902
537.327,60.01621,-3.65844,-0.20062,0.71855
537.927,60.0752,-3.65807,-0.20059,0.71808
538.527,60.1341,-3.65599,-0.19946,0.71761
539.127,60.19316,-3.65897,-0.19921,0.71713
539.727,60.2521,-3.65948,-0.19606,0.71666
540.327,60.3113,-3.66197,-0.19565,0.71619
540.927,60.37036,-3.65889,-0.19693,0.71572
541.527,60.4293,-3.66211,-0.19519,0.71525
542.127,60.48828,-3.66345,-0.19595,0.71478
542.727,60.54736,-3.65847,-0.19686,0.71431
543.327,60.60643,-3.65897,-0.19253,0.71384
543.927,60.66554,-3.65773,-0.19299,0.71337
544.527,60.72464,-3.66052,-0.19481,0.71291
545.127,60.78375,-3.66184,-0.1916,0.71244
545.727,60.8427,-3.66174,-0.19311,0.71197
546.327,60.9017,-3.6602,-0.19131,0.7115
546.927,60.9608,-3.66525,-0.19274,0.71104
547.527,61.01984,-3.65903,-0.19246,0.71057
548.127,61.0788,-3.65461,-0.19286,0.7101
548.727,61.13791,-3.65386,-0.1908,0.70964
549.327,61.19673,-3.6527,-0.18961,0.70917
549.927,61.25585,-3.6571,-0.19209,0.70871
550.527,61.31502,-3.65584,-0.19081,0.70824
551.127,61.37421,-3.65493,-0.19187,0.70778
551.727,61.4335,-3.65617,-0.19403,0.70731
552.327,61.4927,-3.65876,-0.19328,0.70685
552.927,61.5521,-3.65505,-0.19743,0.70639
553.527,61.61141,-3.6494,-0.19465,0.70592
554.127,61.6707,-3.65197,-0.19859,0.70546
554.727,61.73007,-3.65321,-0.19437,0.705
555.327,61.78938,-3.65321,-0.19369,0.70454
555.927,61.8487,-3.65393,-0.19404,0.70408
556.527,61.9077,-3.66416,-0.19304,0.70362
557.127,61.9668,-3.65833,-0.19365,0.70316
557.727,62.026,-3.65591,-0.19299,0.7027
558.327,62.08529,-3.66734,-0.19307,0.70224
558.927,62.14461,-3.66267,-0.18936,0.70178
559.527,62.20415,-3.65881,-0.19274,0.70132
560.127,62.26354,-3.65581,-0.19431,0.70086
560.727,62.32309,-3.65317,-0.19041,0.7004
561.327,62.3823,-3.65571,-0.19116,0.69995
561.927,62.44172,-3.65309,-0.19412,0.69949
562.527,62.5012,-3.6615,-0.19058,0.69903
563.127,62.56091,-3.64748,-0.18969,0.69858
563.727,62.6202,-3.65254,-0.19324,0.69812
564.327,62.6795,-3.65138,-0.19291,0.69766
564.927,62.7387,-3.66078,-0.19114,0.69721
565.527,62.79798,-3.66159,-0.1883,0.69675
566.127,62.8573,-3.65173,-0.18829,0.6963
566.727,62.9165,-3.66165,-0.18715,0.69585
567.327,62.97543,-3.67149,-0.19087,0.69539
567.927,63.03456,-3.67309,-0.18734,0.69494
568.527,63.0939,-3.67013,-0.1866,0.69449
569.127,63.1534,-3.66353,-0.18773,0.69403
569.727,63.21305,-3.65322,-0.18718,0.69358
570.327,63.27261,-3.66471,-0.18968,0.69313
570.927,63.332,-3.65504,-0.19072,0.69268
571.527,63.39161,-3.65196,-0.19045,0.69223
572.127,63.4512,-3.65655,-0.18978,0.69178
572.727,63.5109,-3.65255,-0.18961,0.69133
573.327,63.5702,-3.65063,-0.19042,0.69088
573.927,63.6295,-3.65586,-0.18497,0.69043
574.527,63.68854,-3.65878,-0.18782,0.68998
575.127,63.7477,-3.65709,-0.1905,0.68954
575.727,63.80706,-3.67256,-0.18613,0.68909
576.327,63.8666,-3.65706,-0.18909,0.68864
576.927,63.9259,-3.66042,-0.18956,0.68819
577.527,63.98556,-3.66446,-0.18959,0.68775
578.127,64.04533,-3.65046,-0.18854,0.6873
578.727,64.10495,-3.64466,-0.18787,0.68686
579.327,64.16465,-3.65406,-0.18794,0.68641
579.927,64.22416,-3.65348,-0.18774,0.68597
580.527,64.28368,-3.64815,-0.18698,0.68552
581.127,64.34308,-3.65216,-0.18612,0.68508
581.727,64.4025,-3.6601,-0.1883,0.68464
582.327,64.46186,-3.65345,-0.19235,0.68419
582.927,64.52084,-3.65725,-0.18943,0.68375
583.527,64.58,-3.65883,-0.18945,0.68331
584.127,64.6395,-3.66014,-0.18954,0.68287
584.727,64.6992,-3.66429,-0.19088,0.68243
585.327,64.75935,-3.66122,-0.19042,0.68199
585.927,64.81896,-3.66122,-0.18827,0.68155
586.527,64.87847,-3.66253,-0.19167,0.68111
587.127,64.938,-3.65777,-0.1921,0.68067
587.727,64.99739,-3.65339,-0.19079,0.68023
588.327,65.05677,-3.64765,-0.193,0.67979
588.927,65.11641,-3.657,-0.19037,0.67935
589.527,65.17596,-3.66225,-0.1912,0.67891
590.127,65.23566,-3.6614,-0.18784,0.67848
590.727,65.29524,-3.65919,-0.19071,0.67804
591.327,65.35473,-3.65694,-0.1956,0.6776
591.927,65.41422,-3.65844,-0.19483,0.67717
592.527,65.47357,-3.65625,-0.1949,0.67673
593.127,65.53302,-3.65602,-0.19572,0.6763
593.727,65.59223,-3.65581,-0.19499,0.67586
594.327,65.65174,-3.65996,-0.19545,0.67543
594.927,65.71132,-3.65839,-0.19751,0.675
595.527,65.7709,-3.65367,-0.19908,0.67456
596.127,65.83075,-3.65223,-0.19996,0.67413
596.727,65.89044,-3.65508,-0.19788,0.6737
597.327,65.95014,-3.65606,-0.19612,0.67327
597.927,66.00989,-3.65474,-0.19428,0.67284
598.527,66.06967,-3.65021,-0.19016,0.6724
599.127,66.1293,-3.65156,-0.19066,0.67197
599.727,66.1889,-3.65002,-0.19305,0.67154
600.327,66.24844,-3.65473,-0.18155,0.67112
600.927,66.30802,-3.65486,-0.18342,0.67069
601.527,66.3676,-3.65753,-0.18521,0.67026
602.127,66.42755,-3.66033,-0.18345,0.66983
602.727,66.48754,-3.65685,-0.18325,0.6694
603.327,66.54794,-3.65208,-0.18474,0.66898
603.927,66.60792,-3.65125,-0.18286,0.66855
604.527,66.66797,-3.65002,-0.18732,0.66812
605.127,66.7279,-3.6447,-0.18242,0.6677
605.727,66.78755,-3.63534,-0.1738,0.66727
606.327,66.84694,-3.64411,-0.17802,0.66685
606.927,66.90612,-3.67437,-0.17707,0.66642
607.527,66.96558,-3.66905,-0.17392,0.666
608.127,67.02544,-3.64976,-0.1705,0.66557
608.727,67.08573,-3.64283,-0.17213,0.66515
609.327,67.14612,-3.65706,-0.17529,0.66473
609.927,67.20596,-3.64175,-0.17637,0.66431
610.527,67.2662,-3.64307,-0.17887,0.66389
611.127,67.32624,-3.65555,-0.17145,0.66346
611.727,67.38638,-3.65176,-0.17136,0.66304
612.327,67.44619,-3.66924,-0.17027,0.66262
612.927,67.50601,-3.6699,-0.17025,0.6622
613.527,67.56602,-3.65814,-0.16694,0.66179
614.127,67.6263,-3.66517,-0.16705,0.66137
614.727,67.68635,-3.66577,-0.16791,0.66095
615.327,67.7464,-3.66043,-0.16684,0.66053
615.927,67.80628,-3.661,-0.166,0.66011
616.527,67.86613,-3.65968,-0.16871,0.6597
617.127,67.92612,-3.66173,-0.16593,0.65928
617.727,67.98597,-3.66476,-0.17396,0.65886
618.327,68.04612,-3.66254,-0.168,0.65845
618.927,68.10616,-3.65425,-0.16885,0.65803
619.527,68.16598,-3.64648,-0.16706,0.65762
620.127,68.22576,-3.65707,-0.16849,0.65721
620.727,68.28543,-3.66348,-0.16983,0.65679
621.327,68.34533,-3.66153,-0.17132,0.65638
621.927,68.40535,-3.66097,-0.17021,0.65597
622.527,68.4653,-3.66062,-0.16833,0.65555
623.127,68.52544,-3.65589,-0.16812,0.65514
623.727,68.5855,-3.65081,-0.16904,0.65473
624.327,68.64571,-3.64952,-0.16981,0.65432
624.927,68.70572,-3.64965,-0.16891,0.65391
625.527,68.76558,-3.65486,-0.16884,0.6535
626.127,68.8255,-3.65344,-0.16931,0.65309
626.727,68.8856,-3.65427,-0.1676,0.65268
627.327,68.94578,-3.65711,-0.169,0.65228
627.927,69.006,-3.65124,-0.1737,0.65187
628.527,69.06628,-3.65127,-0.16792,0.65146
629.127,69.12642,-3.65166,-0.17284,0.65105
629.727,69.18652,-3.65257,-0.17269,0.65065
630.327,69.24638,-3.65592,-0.1688,0.65024
630.927,69.30636,-3.65983,-0.16601,0.64984
631.527,69.3663,-3.66222,-0.16832,0.64943
632.127,69.42668,-3.65459,-0.1702,0.64903
632.727,69.487,-3.6532,-0.1683,0.64862
633.327,69.54715,-3.65283,-0.16683,0.64822
633.927,69.6072,-3.65271,-0.16836,0.64782
634.527,69.66712,-3.65555,-0.16916,0.64742
635.127,69.72742,-3.65909,-0.16772,0.64701
635.727,69.7878,-3.66484,-0.16625,0.64661
636.327,69.848,-3.6548,-0.16547,0.64621
636.927,69.90821,-3.65187,-0.16613,0.64581
637.527,69.96856,-3.65854,-0.16766,0.64541
637.827,69.99804,-3.65945,-0.16608,0.64521