File: 01_Data/Barrel_Chair/Furniture_Calorimeter/Barrel_Chair_R2.csv
Time (s),Convective HRR,TCPlume1,TCPlume2,TCPlume3,DPPlume1,DPPlume2,DPPlume3,HF1,HF2,HF3,HF4,HF5,HF6,RAD2,RAD1,Load Cell,Heat Release Rate,Total Heat Released
-119,0.0,-12.3447,-11.5062,11.2951,0.0817506,0.0319899,-0.0556792,0.639171,1.72123,-0.814304,0.182679,0.0857942,-0.0527335,0.613177,2.88169,9.49961,0.0,0.0
-114,1.93755,-12.4294,-11.6301,11.175,0.0817506,0.0243947,-0.0632748,0.639171,0.822535,0.814304,1.04492,-0.289158,0.0886882,0.779224,3.8402,9.64498,0.0,0.0
-109,2.62131,-12.3957,-11.6753,11.2076,0.0665591,0.0547755,0.0202762,-0.965556,0.822535,-1.81659e-13,-0.679564,0.0857942,0.0886882,0.613177,2.88169,9.62421,0.0,0.0
-104,3.07139,-13.2363,-11.2927,11.5021,0.195686,0.0167995,-0.13923,-0.163193,1.72123,-0.814304,-0.679564,0.835699,0.0886882,0.779224,0.964651,9.85264,0.0,0.0
-99,2.93775,-12.7229,-11.3321,11.1583,0.0817506,0.100347,0.119018,-0.163193,-0.0761606,1.62861,0.182679,0.0857942,-0.0527335,0.779224,1.92317,9.85264,0.0,0.0
-94,0.99658,-12.7287,-11.456,11.1527,-0.0169938,-0.043962,-0.0101059,0.639171,-0.0761606,-1.81659e-13,0.182679,0.0857942,0.0886882,0.779224,2.88169,9.68651,0.0,0.0
-89,1.65875,-11.7876,-11.5012,11.0707,-0.0473767,0.0471803,0.0354673,0.639171,0.822535,-2.44291,1.04492,0.460747,-0.0527335,0.779224,2.88169,9.33348,0.0,0.0
-84,2.71017,-11.6414,-11.6703,11.0214,-0.0245895,0.0623707,0.0202762,-0.965556,-0.0761606,0.814304,0.182679,0.460747,-0.335577,0.613177,1.92317,9.47885,0.0,0.0
-79,2.61246,-11.5848,-11.6531,11.1145,0.0285805,-0.043962,-0.0404881,-0.163193,-0.974856,0.814304,0.182679,0.835699,0.0886882,0.779224,0.964651,9.49961,0.0,0.0
-74,0.70885,-12.1934,-11.5915,11.0214,0.00579335,0.0471803,-0.13923,1.44153,0.822535,-1.81659e-13,-0.679564,0.835699,0.0886882,0.779224,3.8402,9.47885,0.0,0.0
-69,1.10051,-12.5148,-11.7943,10.8248,-0.00180238,-0.0363668,-0.124039,-0.965556,1.72123,-0.814304,0.182679,-0.289158,0.0886882,0.447131,3.8402,9.64498,0.0,0.0
-64,1.39516,-12.7969,-11.6029,10.9338,-0.0625682,-0.0895331,0.187378,-0.163193,-0.0761606,-1.81659e-13,0.182679,0.0857942,0.0886882,0.779224,2.88169,9.64498,0.0,0.0
-59,2.13364,-12.6447,-11.5693,10.8901,-0.100547,-0.0211764,-0.131635,0.639171,0.822535,-0.814304,-0.679564,-0.289158,0.0886882,0.613177,3.8402,9.62421,0.0,0.0
-54,3.0603,-12.6447,-11.6087,11.0429,-0.0549724,0.0395851,0.0430629,-0.163193,-0.0761606,0.814304,0.182679,0.0857942,0.0886882,0.613177,1.92317,9.64498,0.0,0.0
-49,2.78895,-12.4137,-11.4962,10.9991,-0.0777596,-0.0743427,0.164592,-0.163193,0.822535,-0.814304,0.182679,0.460747,-0.0527335,0.779224,3.8402,9.68651,0.0,0.0
-44,2.76397,-12.3068,-11.5471,10.8734,0.0589634,-0.00598604,0.156996,-0.163193,-0.0761606,-0.814304,-0.679564,-0.289158,0.0886882,0.613177,1.92317,9.45808,0.0,0.0
-39,3.50108,-12.3463,-11.5865,10.988,-0.0321853,0.0167995,0.0202762,-0.163193,0.822535,0.814304,0.182679,0.0857942,0.0886882,0.447131,1.92317,9.47885,0.0,0.0
-34,1.91494,-12.4252,-11.4683,11.0644,-0.0701639,-0.0591524,0.255738,-0.965556,1.72123,-0.814304,0.182679,-0.289158,0.23011,0.613177,3.8402,9.45808,0.0,0.0
-29,1.05706,-12.121,-11.5586,11.0151,-0.00180238,0.00160915,0.111423,0.639171,-0.0761606,0.814304,0.182679,0.0857942,-0.0527335,0.613177,3.8402,9.49961,0.0,0.0
-24,1.89568,-12.3915,-11.6316,10.8678,-0.039781,0.0471803,0.164592,0.639171,0.822535,0.814304,-0.679564,-0.289158,0.0886882,0.613177,2.88169,9.47885,0.0,0.0
-19,2.15026,-12.2451,-11.5249,10.6656,-0.0093981,-0.043962,0.232952,-0.163193,1.72123,-0.814304,0.182679,0.0857942,0.0886882,0.779224,2.88169,9.45808,0.0,0.0
-14,2.2245,-11.9863,-11.5027,10.6107,-0.0169938,-0.0287716,0.0202762,-0.965556,0.822535,-0.814304,-0.679564,-0.664111,0.0886882,0.447131,3.8402,9.52038,0.0,0.0
-9,4.55558,-11.868,-11.5027,10.6489,0.00579335,0.00160915,-0.177208,0.639171,0.822535,-1.81659e-13,0.182679,-0.289158,-0.0527335,0.447131,3.8402,9.66574,0.0,0.0
-4,4.19681,-11.125,-11.272,10.7962,0.0209848,0.00160915,-0.146826,-0.163193,-0.0761606,-1.81659e-13,-0.679564,-0.289158,-0.194155,0.447131,0.964651,9.45808,0.0,0.0
1,2.81177,-11.4738,-11.3057,10.8018,-0.039781,-0.0819379,-0.0480837,0.639171,0.822535,-1.81659e-13,-0.679564,0.460747,0.0886882,0.779224,2.88169,9.45808,0.0,0.0
6,3.06918,-11.5699,-11.4805,10.7087,0.0361762,0.0395851,-0.0404881,-0.163193,-0.0761606,-0.814304,0.182679,0.460747,-0.335577,0.447131,4.79872,9.64498,0.0,0.0
11,0.38616,-11.9246,-11.3229,10.594,-0.0321853,0.161108,-0.131635,0.639171,-1.87355,-1.81659e-13,0.182679,0.460747,0.23011,0.613177,1.92317,9.49961,0.0,0.0
16,0.88381,-11.7669,-11.4411,10.5176,0.0285805,0.0395851,-0.0177015,0.639171,-0.974856,-0.814304,0.182679,0.0857942,-0.194155,0.613177,1.92317,9.68651,0.0,0.0
21,0.96201,-11.739,-11.6102,10.774,-0.00180238,0.00160915,-0.0936569,-0.163193,0.822535,-0.814304,0.182679,0.835699,-0.335577,0.779224,1.92317,9.64498,0.0,0.0
26,0.34173,-11.3449,-11.492,10.774,-0.0549724,0.00920434,-0.108848,0.639171,0.822535,-1.81659e-13,-0.679564,-0.664111,0.23011,0.613177,2.88169,9.68651,0.0,0.0
31,0.0,-11.5756,-11.4468,10.6649,-0.0093981,0.0243947,-0.169612,-0.965556,-0.0761606,-0.814304,1.90716,-0.289158,-0.0527335,0.613177,2.88169,9.64498,0.0,0.0
36,0.0,-11.3449,-11.3344,10.6211,-0.00180238,-0.0515572,-0.184803,-0.163193,-1.87355,-1.81659e-13,0.182679,0.0857942,0.23011,0.779224,2.88169,9.64498,0.0,0.0
41,0.0,-11.9419,-11.4189,10.5009,0.043772,0.00920434,-0.230377,0.639171,-0.0761606,-0.814304,-0.679564,0.0857942,-0.194155,0.613177,1.92317,9.70727,0.0,0.0
46,0.0,-11.6322,-11.4641,10.61,0.0817506,-0.0591524,-0.108848,0.639171,-0.0761606,0.814304,1.04492,-0.289158,0.0886882,0.447131,3.8402,9.45808,0.0,0.0
51,0.04658,-12.038,-11.3967,10.7135,-0.00180238,0.138323,-0.199995,-0.163193,0.822535,-1.81659e-13,0.182679,0.0857942,-0.194155,0.613177,2.88169,9.45808,0.0,0.0
56,2.58485,-11.9591,-11.4361,10.8281,0.112133,-0.0363668,-0.0101059,0.639171,0.822535,-1.81659e-13,0.182679,0.0857942,0.0886882,0.447131,3.8402,9.66574,0.0,0.0
61,1.79649,-11.2497,-11.121,11.172,0.0285805,0.107942,-0.0328926,-0.163193,0.822535,-1.81659e-13,0.182679,0.0857942,0.0886882,0.613177,3.8402,9.47885,0.0,0.0
66,1.2588,-10.6648,-10.2608,12.0068,0.453941,0.161108,-0.0632748,-0.163193,-0.0761606,-1.81659e-13,0.182679,0.460747,0.0886882,0.447131,1.92317,9.64498,0.0,0.0
71,0.0,-9.96255,-10.1486,12.154,0.248857,-0.0211764,-0.0632748,-0.965556,-0.0761606,-1.81659e-13,1.04492,0.0857942,-0.0527335,0.779224,3.8402,9.47885,0.0,0.0
76,0.0,-9.92324,-10.3452,12.4595,0.180495,0.168703,0.377267,0.639171,-0.0761606,0.814304,-1.54181,-0.289158,-0.0527335,0.613177,4.79872,9.49961,0.0,0.0
81,0.77605,-10.0248,-9.18911,13.0098,0.104538,0.82189,0.210165,1.44153,-0.0761606,0.814304,0.182679,0.835699,0.0886882,0.779224,2.88169,9.47885,0.0,0.0
86,4.49051,-8.83497,-7.96172,14.4325,0.150112,1.23203,0.240547,0.639171,-0.0761606,-1.81659e-13,1.04492,0.0857942,0.0886882,0.779224,4.79872,9.66574,0.95586,0.0019731
91,3.80882,-7.50801,-6.75405,15.418,0.788153,0.183894,0.69628,0.639171,-0.0761606,-1.81659e-13,-0.679564,0.460747,0.0886882,0.779224,3.8402,9.49961,16.2222,0.0477695
96,6.46197,-6.42427,-5.82791,16.4354,0.423558,0.723152,0.438031,1.44153,-0.974856,0.814304,-0.679564,0.460747,0.23011,0.447131,4.79872,9.47885,24.3965,0.133709
101,7.65545,-4.55237,-3.41456,18.566,0.613451,0.6472,1.01529,0.639171,1.72123,-1.81659e-13,0.182679,0.460747,0.0886882,0.945271,2.88169,9.64498,46.3224,0.305123
106,12.081,-2.88781,-1.21437,21.1048,1.28947,0.6472,0.817809,2.2439,0.822535,-1.81659e-13,0.182679,0.460747,0.371532,0.779224,3.8402,9.49961,67.1,0.594925
111,17.2821,-1.49513,0.0556419,23.4543,0.666621,0.768723,2.04069,3.04626,1.72123,0.814304,1.04492,0.460747,0.371532,0.779224,4.79872,9.47885,100.098,1.0174
116,19.6954,-0.740789,0.0389102,24.7241,1.82877,0.183894,1.01529,5.45335,1.72123,1.62861,0.182679,0.835699,0.512954,1.11132,6.71575,9.64498,116.093,1.56531
121,28.1131,2.71931,5.67792,29.037,1.61609,0.495296,0.468413,5.45335,0.822535,1.62861,1.90716,0.835699,0.795797,1.27736,6.71575,9.47885,148.708,2.20549
126,37.3715,5.73255,10.2185,33.9105,2.09462,0.966198,0.597538,6.25572,2.61993,2.44291,1.90716,1.21065,0.937219,1.27736,7.67427,9.47885,168.296,2.97944
131,49.1354,8.79217,13.7689,36.9712,1.85476,6.71701,0.923032,8.30888,2.34452,1.21364,0.372862,0.924724,1.05126,1.62477,7.00132,9.49327,171.735,3.80429
136,63.094,11.9973,17.1538,41.6373,2.96053,1.16367,3.21041,11.0699,3.51862,3.25722,1.90716,1.5856,0.795797,1.27736,8.63279,9.49961,183.631,4.69624
141,84.8135,15.7232,22.7986,48.0501,4.00114,1.87003,4.53203,11.0699,2.61993,4.07152,3.63165,1.5856,1.07864,1.60946,10.5498,9.33348,251.983,5.78712
146,93.4814,21.3421,31.0169,58.7864,2.57315,2.04472,2.31413,10.2675,3.51862,1.62861,3.63165,1.5856,0.937219,1.7755,11.5083,9.33348,343.94,7.25027
151,91.4411,20.0902,32.9316,62.9419,2.4744,4.81696,3.41549,15.0817,5.31601,4.88583,3.63165,1.5856,1.22006,1.7755,15.3424,9.33348,312.1,8.96118
156,100.875,23.1928,33.5636,66.0951,5.99122,3.00171,3.57499,15.8841,5.31601,5.70013,4.49389,3.08541,1.50291,2.1076,15.3424,9.12582,357.804,10.6721
161,127.577,27.6126,38.8739,70.1317,1.38822,2.21181,2.25337,17.4888,4.41732,5.70013,4.49389,3.08541,1.78575,2.1076,17.2594,9.16736,400.122,12.5535
166,168.538,33.0968,43.7081,72.8038,4.0771,3.31311,1.99512,16.6864,5.31601,4.88583,3.63165,2.71046,1.64433,2.1076,18.218,8.98046,470.154,14.758
171,155.823,32.8718,41.663,73.4273,1.67685,1.36874,0.339289,19.0935,6.21471,5.70013,6.21838,2.71046,2.06859,1.94155,17.2594,8.81433,600.361,17.5035
176,175.724,32.1534,42.5876,75.0354,2.97572,1.26241,2.16982,19.0935,6.21471,7.32874,5.35614,3.08541,2.06859,2.60574,20.135,8.8351,573.094,20.518
181,195.153,36.6374,50.5841,80.8928,4.82908,7.39173,4.82066,23.9077,9.80949,8.95735,7.08062,4.21027,2.91712,3.10388,24.9276,8.50284,590.05,23.5315
186,226.184,50.7625,73.5696,103.089,2.79342,7.80187,3.33953,31.129,8.91079,12.2146,7.94286,6.08503,3.76565,3.76807,29.7202,8.46131,618.388,26.6552
191,288.413,57.0596,78.6549,112.788,3.18081,5.67522,4.95738,26.3148,9.80949,11.4003,7.94286,6.08503,3.34139,3.76807,24.9276,8.29518,638.97,29.7755
196,280.769,54.5486,75.3866,114.753,2.70987,4.04225,2.45845,25.5124,8.0121,8.95735,7.94286,4.96018,3.05855,3.60202,27.8031,8.31595,591.233,32.8692
201,290.101,53.11,76.5964,118.739,1.89713,2.56119,6.89424,24.7101,8.0121,9.77165,10.5296,5.33513,3.05855,3.26993,25.8861,8.17058,639.032,35.8451
206,304.843,55.9439,79.5975,119.703,4.4341,3.08526,3.2256,36.7455,10.7082,13.0289,8.80511,4.96018,3.34139,3.76807,33.5542,8.00445,606.749,38.9653
211,328.909,62.2978,85.0894,126.721,4.79869,3.36628,9.27165,25.5124,8.0121,8.95735,7.94286,3.83532,2.63428,3.10388,23.9691,7.83832,627.313,42.2259
216,322.549,62.7073,86.3428,134.084,3.30234,11.1969,6.27141,34.3384,11.6069,12.2146,11.3918,4.96018,3.05855,3.60202,29.7202,7.85909,682.215,45.4206
221,347.946,62.3713,87.2186,138.9,4.03912,4.71822,6.10431,29.5243,8.91079,9.77165,11.3918,5.71008,3.76565,4.10016,27.8031,7.6722,718.613,48.7803
226,329.97,57.9586,82.5576,135.321,2.77064,6.20688,1.31911,28.7219,9.80949,9.77165,7.94286,6.08503,3.90708,3.76807,28.7616,7.33994,733.387,52.4337
231,333.5,60.5965,89.4854,149.362,4.38093,12.4425,11.4668,32.7337,9.80949,11.4003,11.3918,4.96018,3.76565,4.10016,30.6787,7.31917,830.928,56.2892
236,372.391,59.1254,88.6036,150.726,3.17321,3.92832,0.946933,37.5479,11.6069,13.0289,12.2541,7.58484,5.03845,4.93039,40.2638,6.98691,834.997,60.4262
241,393.997,53.489,81.7766,147.96,0.902089,3.40425,3.36991,33.5361,12.5056,13.8432,10.5296,6.45998,4.75561,5.09644,32.5957,6.98691,831.38,64.4914
246,392.471,59.966,89.4433,152.01,6.11276,0.723152,2.12424,34.3384,12.5056,13.0289,13.1163,7.58484,5.32129,5.42853,34.5127,6.65466,800.433,68.6731
251,439.822,76.5885,108.441,164.405,3.15802,8.31834,8.42095,32.7337,10.7082,13.0289,10.5296,7.20989,5.03845,5.26249,32.5957,6.50929,753.037,72.7144
256,448.584,77.861,109.023,171.103,6.64446,6.75373,4.98776,31.9313,12.5056,13.8432,13.9786,6.08503,4.33134,4.26621,32.5957,6.50929,783.517,76.4668
261,447.459,82.188,117.049,176.407,5.54308,3.06247,5.36754,35.1408,11.6069,13.0289,13.9786,8.33475,5.60414,5.76063,36.4298,6.3224,691.729,80.1589
266,440.807,80.6423,115.927,177.013,2.57315,5.66003,4.03832,36.7455,10.7082,12.2146,13.1163,7.58484,5.17987,4.93039,34.5127,6.1355,690.544,83.8188
271,412.846,79.6505,116.399,180.06,3.03591,9.45914,1.28649,30.0049,8.27598,10.3105,11.874,5.98493,4.70292,4.83816,27.3285,6.11787,576.033,86.9162
276,444.048,74.0064,108.981,175.257,5.80133,5.59926,2.94456,36.7455,11.6069,12.2146,13.9786,6.83494,4.75561,4.76435,37.3883,5.80325,626.992,89.8984
281,403.659,69.1557,101.275,174.482,0.54509,2.09788,9.42356,26.3148,8.0121,8.95735,8.80511,5.33513,3.76565,3.60202,23.9691,5.67865,545.802,92.8416
286,409.57,65.1616,96.1911,168.079,4.63159,-0.0135812,7.25124,27.1172,8.91079,8.95735,9.66735,5.33513,3.76565,3.76807,23.9691,5.65788,564.446,95.6784
291,341.686,65.3819,94.3131,172.732,0.165304,7.45249,5.81568,32.7337,8.91079,10.586,12.2541,5.33513,4.0485,4.10016,27.8031,5.51252,557.387,98.6266
296,369.115,62.979,92.8251,171.19,6.43937,3.24476,3.51423,25.5124,8.0121,8.95735,10.5296,4.96018,3.90708,4.10016,24.9276,5.36716,548.293,101.471
301,325.483,68.0186,97.2911,172.46,6.90271,3.39666,5.35235,25.5124,8.0121,8.95735,10.5296,4.96018,3.34139,3.26993,23.9691,5.20103,522.046,104.171
306,341.323,67.9345,98.4601,174.967,4.30497,6.24485,2.57238,27.1172,7.1134,8.14304,11.3918,6.08503,3.90708,4.10016,25.8861,4.84801,591.49,106.889
311,329.918,62.6645,89.5321,167.622,4.52525,2.28776,6.27901,23.9077,5.31601,8.95735,7.94286,4.21027,3.05855,2.93783,23.9691,4.80647,509.27,109.597
316,324.674,60.2648,84.9678,163.001,1.29707,1.73331,3.30915,18.2912,5.31601,8.14304,7.94286,4.58522,3.19997,3.26993,21.0935,4.70264,478.662,112.106
321,313.321,53.9201,79.8947,157.093,1.92751,0.973793,4.36493,18.2912,4.41732,8.14304,7.94286,4.21027,2.63428,3.10388,18.218,4.70264,430.187,114.383
326,362.047,52.3756,75.5005,151.744,5.54308,0.669986,2.44326,19.8959,6.21471,6.51444,8.80511,3.46037,2.7757,2.93783,21.0935,4.51575,436.061,116.472
331,312.678,50.7449,72.8555,146.207,1.72243,1.82445,4.15225,15.8841,6.21471,6.51444,7.94286,3.08541,2.91712,3.10388,17.2594,4.47422,398.519,118.479
336,300.174,50.7764,71.0902,140.418,1.36543,1.30798,2.85341,15.8841,4.41732,5.70013,7.94286,3.46037,2.49286,2.93783,18.218,4.34962,368.436,120.368
341,287.106,48.3036,68.3449,136.992,1.16794,1.68015,3.54461,14.2794,4.41732,4.88583,5.35614,2.71046,2.06859,2.43969,14.3839,4.32885,329.319,122.125
346,298.045,45.5929,63.3845,132.847,1.08439,2.81183,0.248143,11.8723,4.41732,4.88583,6.21838,2.33551,1.78575,2.1076,13.4254,4.20426,296.182,123.791
351,275.196,43.4821,59.457,128.61,2.04904,3.06247,2.13184,13.477,2.61993,4.88583,6.21838,1.96056,1.64433,2.1076,12.4669,3.97583,272.262,125.219
356,266.245,41.9468,58.6368,125.938,2.63391,1.7485,4.85864,10.2675,3.51862,3.25722,6.21838,1.5856,1.64433,1.7755,12.4669,4.01736,281.874,126.647
361,240.973,38.7855,55.8806,122.24,1.92751,5.76636,2.00271,12.6746,2.61993,4.07152,7.08062,1.96056,1.64433,1.94155,12.4669,3.85123,272.263,128.032
366,225.728,39.7178,56.3595,122.203,2.44402,3.28273,0.407649,11.0699,3.51862,3.25722,5.35614,1.96056,1.64433,1.94155,13.4254,3.872,265.834,129.391
371,209.999,37.4361,53.8844,118.391,1.92751,0.905437,2.66353,9.46517,0.822535,4.07152,3.63165,1.5856,1.50291,1.94155,11.5083,3.6851,287.33,130.768
376,213.643,38.9347,57.0962,118.582,1.83636,0.244655,3.35472,11.0699,3.51862,4.88583,4.49389,1.5856,1.64433,1.94155,11.5083,3.70587,262.58,132.149
381,213.392,35.909,50.8621,113.779,1.46417,4.29289,0.855786,9.46517,2.61993,4.88583,5.35614,1.96056,1.50291,1.7755,12.4669,3.53974,245.11,133.432
386,203.812,35.5989,49.8532,110.314,0.499515,2.50802,6.65878,8.66281,1.72123,3.25722,4.49389,1.96056,1.22006,1.60946,9.5913,3.49821,304.562,134.83
391,211.417,33.389,47.3362,108.089,1.08439,2.74347,2.91418,11.0699,1.72123,4.07152,6.21838,1.21065,1.22006,1.7755,9.5913,3.35285,290.07,136.298
396,188.418,29.3807,43.897,105.211,0.355197,0.42694,3.98515,7.86044,3.51862,3.25722,5.35614,1.5856,1.50291,1.94155,10.5498,3.37361,289.109,137.744
401,174.589,28.0893,41.1714,102.574,2.10221,3.19918,4.20542,8.66281,2.61993,2.44291,4.49389,1.5856,1.22006,1.60946,11.5083,3.35285,276.798,139.104
406,202.942,28.0948,40.3574,99.9205,-0.0853553,3.31311,7.44872,7.86044,2.61993,3.25722,3.63165,1.96056,1.07864,1.60946,8.63279,3.18672,274.475,140.453
411,195.095,28.1215,40.5328,99.7621,4.05431,9.16141,5.88404,9.46517,4.41732,3.25722,5.35614,1.5856,1.50291,1.60946,10.5498,3.02059,270.421,141.817
416,199.055,25.9393,39.1964,97.6279,2.64911,0.943413,-0.0404881,8.66281,2.61993,3.25722,4.49389,1.5856,1.50291,1.7755,11.5083,3.06212,248.732,143.114
421,193.23,26.9095,40.1921,97.3591,2.54277,3.52578,2.14703,8.66281,1.72123,3.25722,4.49389,1.5856,1.22006,1.7755,8.63279,2.99982,239.414,144.335
426,184.061,25.3995,38.4767,95.0745,2.16298,2.11307,1.40267,8.66281,1.72123,4.07152,4.49389,2.33551,1.50291,1.60946,9.5913,2.87523,259.953,145.618
431,173.346,23.5792,38.0607,92.7498,-0.168908,0.571248,0.141805,7.05808,2.61993,4.07152,4.49389,1.96056,1.22006,1.7755,8.63279,2.85446,230.629,146.829
436,161.887,22.7954,34.9686,90.2226,0.613451,1.45229,3.65854,7.86044,2.61993,3.25722,3.63165,1.21065,1.07864,1.60946,8.63279,2.81293,248.687,148.042
441,158.892,20.7867,32.6073,87.6134,2.79342,1.85484,0.293716,7.86044,2.61993,2.44291,3.63165,1.21065,1.07864,1.44341,10.5498,2.68833,247.768,149.273
446,173.849,22.3243,32.5534,86.8626,1.29707,6.60183,3.13445,8.66281,2.61993,2.44291,3.63165,1.5856,1.22006,1.44341,8.63279,2.5222,245.238,150.511
451,156.711,24.7516,36.2298,89.2194,3.3707,3.72325,0.734258,8.66281,1.72123,2.44291,3.63165,1.5856,1.07864,1.60946,8.63279,2.50144,231.304,151.665
456,160.992,26.4945,38.7379,90.1437,1.52494,2.91816,4.2358,9.46517,2.61993,2.44291,3.63165,1.96056,1.22006,1.7755,10.5498,2.50144,239.181,152.858
461,164.465,27.0816,42.0747,92.2975,1.03122,1.93838,4.0687,8.66281,1.72123,1.62861,3.63165,1.21065,1.36148,1.7755,10.5498,2.37684,244.292,154.041
466,163.093,26.0683,39.2493,89.9492,1.84396,1.74091,1.60775,7.05808,1.72123,4.88583,4.49389,1.96056,1.07864,1.60946,8.63279,2.37684,259.054,155.355
471,160.762,26.7044,40.6229,90.5689,2.24653,2.97133,4.17504,8.66281,0.822535,3.25722,4.49389,1.96056,1.36148,1.7755,10.5498,2.18994,261.442,156.657
476,167.652,26.9685,42.2235,91.8561,3.17321,2.40169,8.10194,10.2675,3.51862,3.25722,5.35614,1.96056,1.22006,1.7755,10.5498,2.16918,238.173,157.886
481,165.539,31.9415,48.4996,96.5743,4.57082,2.88019,6.98539,11.8723,4.41732,4.07152,4.49389,1.96056,1.07864,1.7755,10.5498,2.16918,224.838,159.077
486,181.453,32.0431,45.8951,96.1581,2.3073,3.23716,1.91916,10.2675,1.72123,3.25722,5.35614,1.5856,1.50291,1.94155,9.5913,2.02381,227.289,160.201
491,188.692,30.014,43.2963,93.8379,1.31226,2.98652,2.24577,8.66281,2.61993,4.07152,5.35614,1.5856,1.22006,1.60946,9.5913,1.85769,238.731,161.371
496,177.378,28.0186,38.9773,89.9385,1.19073,1.14089,5.50426,9.46517,2.61993,3.25722,4.49389,1.96056,1.07864,1.60946,8.63279,1.85769,240.394,162.549
501,173.974,26.4725,38.3056,89.0931,0.38558,1.35355,0.969719,10.2675,3.51862,4.07152,4.49389,1.5856,1.50291,1.60946,10.5498,1.71232,244.161,163.729
506,170.283,26.2838,37.5215,87.0356,0.765366,4.49037,2.20779,9.46517,0.822535,3.25722,5.35614,1.5856,1.22006,1.60946,9.5913,1.69156,283.388,165.096
511,175.394,24.5571,34.8773,84.1456,0.780557,2.26498,1.37988,7.86044,1.72123,4.07152,4.49389,1.96056,1.22006,1.7755,8.63279,1.54619,222.5,166.292
516,173.262,21.9778,31.9849,80.6177,0.49192,3.44983,2.28375,7.05808,1.72123,4.07152,3.63165,1.96056,1.07864,1.60946,8.63279,1.56696,199.638,167.323
521,169.301,20.8784,31.4216,79.4806,0.902089,2.62954,5.01055,9.46517,3.51862,2.44291,4.49389,1.96056,1.07864,1.60946,11.5083,1.52543,216.561,168.392
526,185.301,19.9131,30.2776,77.9975,0.826131,0.320607,1.66091,9.46517,2.61993,1.62861,4.49389,1.96056,1.36148,1.60946,8.63279,1.31777,231.899,169.541
531,149.189,18.0627,28.369,76.1746,1.28187,1.45989,5.84606,8.66281,0.822535,3.25722,3.63165,1.5856,1.07864,1.60946,9.5913,1.3593,226.579,170.699
536,134.935,17.3346,26.5914,74.7391,1.08439,2.65993,4.42569,7.05808,0.822535,4.07152,4.49389,1.21065,1.22006,1.60946,8.63279,1.1724,240.777,171.859
541,144.309,15.932,24.8597,72.2507,1.054,3.67768,5.11689,7.86044,3.51862,2.44291,3.63165,1.21065,1.07864,1.44341,8.63279,1.1724,221.274,172.964
546,154.536,17.5684,26.9742,72.7642,1.50215,1.77888,2.0331,9.46517,2.61993,1.62861,3.63165,0.835699,1.07864,1.7755,9.5913,1.1724,244.212,174.123
551,152.236,16.7147,26.354,72.088,0.871706,2.39409,3.12685,7.05808,1.72123,1.62861,3.63165,1.21065,1.22006,1.44341,8.63279,1.02704,221.59,175.264
556,160.38,15.3551,26.8933,72.0253,1.86675,2.57638,3.00533,7.05808,2.61993,3.25722,3.63165,1.21065,0.937219,1.60946,9.5913,1.04781,200.607,176.339
561,151.496,18.3122,26.2785,70.8776,0.54509,1.66496,3.69652,7.05808,-0.0761606,3.25722,3.63165,1.21065,1.22006,1.44341,7.67427,1.04781,188.194,177.309
566,177.158,18.2417,25.9065,70.6629,1.06919,2.46245,2.47364,8.66281,2.61993,1.62861,4.49389,0.835699,1.07864,1.44341,9.5913,0.860913,181.144,178.205
571,157.667,19.2684,27.0941,69.8094,1.43571,1.29601,2.53813,8.06137,2.66336,2.41768,3.51357,-0.0724828,0.720315,1.30277,9.47113,0.859987,175.571,179.089
576,145.08,17.9811,27.1196,69.2009,1.76041,2.227,1.13682,5.45335,2.61993,2.44291,3.63165,1.21065,0.795797,1.11132,7.67427,0.881679,160.648,179.973
581,145.465,15.9534,24.4273,67.6124,1.5857,0.745938,1.26595,7.05808,0.822535,3.25722,1.90716,1.21065,0.795797,0.945271,6.71575,0.881679,150.245,180.762
586,144.19,16.9756,24.4596,68.3042,1.054,3.95111,2.16982,6.25572,1.72123,2.44291,1.90716,1.5856,0.654375,1.60946,8.63279,0.694784,145.583,181.552
591,134.017,15.3876,24.0925,66.8837,1.96549,0.966198,0.650707,7.05808,2.61993,2.44291,3.63165,1.21065,0.937219,1.44341,8.63279,0.549421,162.605,182.321
596,130.5,13.7049,22.3836,65.7403,0.59826,1.48267,4.00034,4.65099,1.72123,2.44291,3.63165,1.21065,1.07864,1.27736,6.71575,0.694784,161.262,183.111
601,122.98,11.4095,21.2032,65.0006,1.06919,1.96876,1.06846,4.65099,0.822535,0.814304,4.49389,0.835699,0.795797,1.27736,8.63279,0.487123,151.533,183.882
606,115.388,11.8677,19.4575,63.2742,0.818536,1.88522,1.28114,5.45335,0.822535,2.44291,2.76941,0.835699,0.512954,1.27736,6.71575,0.549421,150.647,184.636
611,118.561,12.8601,20.2168,62.2085,1.57811,1.70293,1.6837,5.45335,2.61993,1.62861,3.63165,0.835699,0.937219,1.11132,7.67427,0.549421,135.901,185.354
616,117.197,12.4077,20.6777,61.736,0.75777,2.05991,2.72429,4.65099,2.61993,1.62861,2.76941,1.21065,0.654375,1.27736,6.71575,0.383292,125.31,186.004
621,110.721,12.2057,20.1733,60.5487,0.294431,4.27011,2.3749,3.84863,-0.0761606,1.62861,2.76941,0.835699,0.512954,0.945271,6.71575,0.383292,115.922,186.59
626,110.823,12.2876,20.7101,60.1495,0.514707,0.487701,1.97233,4.65099,1.72123,0.814304,1.90716,0.835699,0.795797,1.11132,6.71575,0.383292,143.981,187.25
631,102.813,12.3584,18.6922,58.1569,1.06919,1.27001,0.430436,3.84863,-0.0761606,2.44291,3.63165,0.460747,0.795797,1.11132,7.67427,0.362526,133.243,187.9
636,102.994,10.187,16.1873,55.8416,1.07679,1.49027,3.88641,4.65099,0.822535,3.25722,1.90716,1.21065,0.654375,1.11132,5.75724,0.34176,109.069,188.501
641,93.2599,10.6344,17.8504,56.7152,2.22374,0.639605,1.79004,3.84863,0.822535,1.62861,1.04492,0.460747,0.512954,1.11132,6.71575,0.383292,99.1862,189.017
646,107.417,10.6344,18.0405,57.1941,0.507111,1.08013,1.06087,3.04626,1.72123,2.44291,1.90716,0.0857942,0.512954,1.44341,4.79872,0.383292,96.344,189.514
651,101.565,9.44964,17.2419,57.0468,1.06919,2.21181,0.506391,3.04626,2.61993,-1.81659e-13,1.90716,0.835699,0.512954,1.27736,5.75724,0.217164,96.5988,189.995
656,90.4141,8.37344,14.8755,55.3094,0.248857,1.33077,0.0962317,3.84863,1.72123,1.62861,1.90716,0.835699,0.23011,0.779224,4.79872,0.175631,79.0435,190.432
661,87.7874,7.60844,13.8462,54.3505,0.567877,3.07007,1.82802,3.04626,-0.0761606,0.814304,2.76941,0.460747,0.512954,0.945271,3.8402,0.196398,78.0037,190.808
666,81.7218,6.72845,14.38,53.9447,1.09958,0.913032,1.77485,3.84863,0.822535,1.62861,1.04492,0.460747,0.512954,1.27736,5.75724,0.175631,76.67,191.193
671,78.1779,5.38892,12.4346,53.0958,0.043772,-0.0363668,0.164592,3.04626,1.72123,0.814304,0.182679,0.835699,0.371532,0.779224,4.79872,0.175631,70.4016,191.56
676,70.4608,3.85762,10.8307,51.8033,0.119729,0.138323,1.54698,2.2439,-0.0761606,-1.81659e-13,1.04492,0.835699,0.23011,1.11132,3.8402,0.0302687,65.3047,191.896
681,70.6186,4.55233,9.5752,49.6274,0.0513677,0.373773,0.0126807,2.2439,-0.0761606,-1.81659e-13,1.90716,0.835699,0.512954,0.945271,5.75724,0.196398,59.9085,192.215
686,69.5197,3.43088,9.14351,48.0988,1.48696,0.548463,0.734258,3.04626,-0.0761606,0.814304,1.90716,0.835699,0.23011,0.945271,4.79872,0.196398,55.9426,192.506
691,63.8294,3.00972,8.49345,46.9502,0.734983,0.449725,3.36232,3.04626,0.822535,0.814304,2.76941,1.21065,0.371532,0.779224,4.79872,0.196398,50.2565,192.776
696,63.3166,2.44099,8.38429,45.9914,0.75777,0.601629,1.41786,2.2439,-1.87355,0.814304,1.90716,0.460747,0.371532,0.945271,4.79872,0.175631,53.8135,193.043
701,60.0988,2.78558,7.77229,44.9152,0.49192,0.556058,0.0962317,2.2439,0.822535,-1.81659e-13,1.04492,0.460747,0.371532,0.779224,4.79872,0.00950257,58.2465,193.315
706,55.9195,2.67072,6.93058,43.8752,0.195686,0.191489,0.574751,2.2439,0.822535,1.62861,1.04492,0.835699,0.371532,1.11132,3.8402,0.0510348,54.3546,193.591
711,53.8839,1.78453,5.70033,42.4569,0.0741549,0.183894,-0.184803,2.2439,-0.0761606,0.814304,1.04492,0.460747,0.371532,0.779224,5.75724,0.0510348,46.7068,193.827
716,57.7515,0.521199,4.89645,41.5266,0.0665591,0.63201,0.0126807,3.04626,-0.0761606,0.814304,1.04492,0.460747,0.23011,0.613177,5.75724,0.0302687,54.1222,194.079
721,60.7166,-0.0915669,4.05419,40.2973,0.362792,0.183894,1.0001,2.2439,0.822535,-1.81659e-13,1.90716,0.460747,0.23011,0.945271,4.79872,0.0718009,50.2238,194.324
726,60.7899,-0.828198,3.74231,39.6208,0.393175,0.123132,-0.0708703,1.44153,-0.0761606,0.814304,-0.679564,0.460747,0.512954,0.945271,3.8402,0.0302687,43.7115,194.562
731,58.5975,-0.872344,3.35384,38.8693,0.355197,0.320607,0.134209,2.2439,-0.0761606,-1.81659e-13,1.04492,0.835699,0.371532,0.945271,4.79872,0.00950257,44.4102,194.781
736,59.1584,-1.72678,3.04195,38.7519,-0.00180238,-0.00598604,0.0658495,1.44153,-0.0761606,1.62861,1.90716,0.0857942,0.512954,0.945271,2.88169,0.0302687,34.7604,194.977
741,53.348,-1.53367,3.27168,38.0426,0.59826,0.556058,0.42284,1.44153,-0.0761606,-1.81659e-13,-0.679564,0.460747,0.371532,0.945271,4.79872,0.0302687,38.4252,195.157
746,49.1964,-0.641259,3.00924,37.114,0.172899,0.244655,0.369671,3.04626,0.822535,1.62861,0.182679,0.460747,0.23011,0.613177,4.79872,0.0510348,53.9215,195.388
751,48.148,-1.18636,2.62077,36.5478,0.476728,0.44213,-0.154421,2.2439,-0.0761606,-1.81659e-13,1.04492,0.835699,0.23011,0.613177,4.79872,0.00950257,42.7592,195.609
756,47.0765,-0.646875,2.54419,35.9493,0.841323,0.654795,0.270929,2.2439,-0.0761606,1.62861,0.182679,0.460747,0.23011,0.945271,3.8402,0.0510348,39.6565,195.808
761,50.1209,0.15995,3.846,36.7348,0.324814,1.04975,0.688684,2.2439,0.822535,1.62861,1.04492,0.0857942,0.371532,0.945271,4.79872,0.0718009,35.6078,195.998
766,55.151,-1.03212,2.77392,35.9493,0.780557,0.753533,0.164592,1.44153,1.72123,1.62861,0.182679,0.460747,0.371532,0.613177,3.8402,-0.115094,37.6981,196.183
771,41.7882,-1.07068,2.16131,35.0135,0.0589634,0.0623707,-0.162017,3.04626,-0.0761606,-1.81659e-13,1.04492,0.835699,0.0886882,0.945271,3.8402,-0.13586,48.093,196.411
776,39.7814,-2.96527,1.319,34.9386,0.0589634,0.290226,0.574751,1.44153,1.72123,-1.81659e-13,0.182679,0.0857942,0.0886882,0.779224,3.8402,0.0302687,55.8214,196.673
781,37.7443,-2.58908,0.465608,33.7661,-0.0473767,0.0927514,0.612729,3.04626,1.72123,0.814304,1.90716,0.460747,0.371532,0.779224,4.79872,-0.115094,50.6211,196.922
786,36.4836,-2.89339,0.509473,33.1715,0.0513677,0.859866,0.369671,2.2439,0.822535,-1.81659e-13,1.04492,0.835699,0.0886882,0.613177,5.75724,-0.094328,54.6373,197.186
791,36.1353,-1.76541,0.515057,32.2388,-0.115738,0.183894,-0.101252,4.65099,0.822535,0.814304,1.04492,0.835699,0.23011,0.945271,3.8402,-0.115094,49.0976,197.449
796,37.9254,-2.74403,0.733573,32.1152,1.25149,0.890246,0.551964,3.84863,-0.0761606,0.814304,1.90716,0.0857942,0.0886882,0.779224,3.8402,-0.0735619,51.3547,197.709
801,41.0575,-2.31243,0.815722,31.4821,-0.0549724,0.00160915,0.263334,2.2439,0.822535,2.44291,1.04492,0.0857942,0.23011,1.11132,4.79872,-0.094328,53.7457,197.967
806,43.4044,-1.38489,1.6197,32.3084,0.552685,2.69031,0.946933,0.639171,0.822535,1.62861,1.04492,0.460747,0.23011,0.779224,4.79872,-0.13586,40.9436,198.207
811,41.0873,-0.690995,1.31341,31.8953,0.104538,0.123132,0.058254,2.2439,-0.0761606,-1.81659e-13,1.04492,0.0857942,0.371532,0.945271,4.79872,-0.0735619,43.6767,198.412
816,41.1028,-2.27373,0.164965,31.3318,0.112133,1.2852,0.240547,1.44153,0.822535,0.814304,0.182679,-0.289158,0.23011,0.945271,3.8402,-0.13586,37.938,198.604
821,41.5209,-2.70529,0.121104,31.3264,-0.0169938,1.30798,0.28612,0.639171,-0.0761606,1.62861,-0.679564,0.0857942,0.23011,0.779224,3.8402,-0.115094,36.6557,198.791
826,39.0483,-3.16482,0.586033,31.407,0.142516,0.981389,0.384862,0.639171,0.822535,-1.81659e-13,1.04492,0.460747,0.23011,0.945271,3.8402,-0.115094,35.3381,198.987
831,36.4579,-2.86029,0.00627482,30.3865,0.59826,0.0547755,1.59255,1.44153,-0.0761606,1.62861,1.04492,0.460747,0.0886882,0.613177,3.8402,-0.115094,40.925,199.184
836,34.8973,-2.71094,-0.114569,29.6285,0.507111,0.343393,0.870977,2.2439,1.72123,0.814304,2.76941,0.0857942,0.23011,0.779224,3.8402,-0.13586,38.9168,199.392
841,34.4747,-2.27937,0.542168,30.1608,0.605856,0.814294,1.12163,2.2439,1.72123,1.62861,1.04492,0.460747,0.23011,0.779224,1.92317,-0.156626,31.5577,199.565
846,31.3259,-2.58908,0.771855,30.5369,0.286835,1.06494,0.445627,1.44153,-0.974856,0.814304,0.182679,0.460747,0.23011,0.945271,4.79872,-0.156626,32.7629,199.737
851,34.0409,-2.78278,0.542168,30.4993,0.271644,0.434535,0.21776,1.44153,0.822535,0.814304,0.182679,0.0857942,-0.0527335,0.779224,4.79872,-0.177392,33.1187,199.896
856,34.393,-2.86594,-0.114569,29.4403,0.241261,0.191489,0.589942,0.639171,0.822535,-1.81659e-13,0.182679,0.460747,0.0886882,0.613177,2.88169,-0.13586,37.0758,200.065
861,35.3984,-3.41461,-0.735722,28.9453,0.0361762,0.107942,0.270929,1.44153,0.822535,0.814304,1.04492,-0.289158,0.0886882,0.613177,3.8402,-0.13586,32.9998,200.243
866,34.1577,-3.17614,-0.845662,28.348,0.226069,0.6472,-0.025297,0.639171,-0.0761606,1.62861,1.04492,0.460747,0.23011,0.779224,2.88169,-0.239691,41.0928,200.435
871,33.9706,-4.08066,-0.972511,28.337,0.666621,0.297822,0.498796,1.44153,-0.0761606,1.62861,1.04492,-0.289158,0.371532,0.779224,4.79872,-0.301989,37.6343,200.621
876,32.1532,-3.73658,-1.20948,27.9546,0.043772,0.639605,0.172187,1.44153,2.61993,-1.81659e-13,1.04492,0.0857942,0.371532,0.945271,4.79872,-0.301989,42.8353,200.824
881,30.5632,-4.08066,-1.78296,27.5454,0.332409,0.42694,0.42284,2.2439,1.72123,0.814304,1.90716,0.0857942,0.0886882,0.613177,3.8402,-0.13586,33.4735,201.025
886,33.696,-5.6328,-1.31396,27.8148,0.0817506,0.0927514,0.369671,1.44153,0.822535,0.814304,1.90716,0.460747,0.371532,0.613177,2.88169,-0.13586,34.9864,201.188
891,32.1542,-4.78102,-2.1696,26.6776,0.0209848,0.0927514,0.149401,0.639171,0.822535,0.814304,-0.679564,0.0857942,0.0886882,0.779224,1.92317,-0.322755,32.7219,201.351
896,32.1689,-4.62529,-2.32437,26.2624,0.0817506,-0.043962,-0.245568,1.44153,1.72123,0.814304,1.04492,0.835699,0.0886882,0.447131,3.8402,-0.322755,23.0086,201.492
901,30.1295,-5.24854,-1.89891,26.3756,0.226069,0.335797,0.0506584,2.2439,-0.0761606,-1.81659e-13,1.04492,1.21065,0.23011,0.447131,3.8402,-0.301989,29.3747,201.628
906,30.3208,-4.74208,-2.55666,25.7336,0.0209848,0.586439,0.0506584,0.639171,-0.0761606,1.62861,0.182679,0.0857942,0.23011,0.613177,4.79872,-0.301989,44.715,201.817
911,32.6342,-5.25422,-3.29887,25.5392,-0.00180238,0.145918,0.4912,1.44153,-0.974856,-0.814304,1.04492,0.835699,0.0886882,0.613177,2.88169,-0.115094,43.8506,202.03
916,28.3445,-6.58704,-2.83916,26.1381,0.210878,0.799104,0.772235,2.2439,-0.0761606,0.814304,0.182679,0.835699,0.371532,0.945271,2.88169,-0.322755,43.5504,202.244
921,28.4996,-5.25422,-2.79475,25.3503,0.0209848,0.343393,0.293716,2.2439,-0.0761606,0.814304,1.90716,0.0857942,0.23011,0.779224,3.8402,-0.260457,40.2634,202.453
926,31.8176,-4.78102,-2.32437,24.9022,0.423558,0.806699,0.460818,1.44153,-0.0761606,1.62861,1.90716,0.0857942,0.23011,0.613177,2.88169,-0.301989,38.9104,202.645
931,32.2296,-6.11824,-2.29696,24.929,0.00579335,0.153513,0.156996,2.2439,0.822535,-0.814304,1.04492,-0.664111,0.0886882,0.613177,2.88169,-0.322755,38.1925,202.831
936,32.7895,-5.10402,-2.91669,24.3618,0.0741549,0.0851562,0.111423,3.04626,0.822535,-1.81659e-13,0.182679,0.0857942,0.23011,0.447131,3.8402,-0.322755,37.9801,203.035
941,30.4367,-5.42155,-3.42663,24.0915,0.294431,0.0547755,0.164592,1.44153,-0.0761606,1.62861,1.04492,-0.289158,0.371532,0.613177,3.8402,-0.281223,40.7078,203.211
946,32.5589,-5.33788,-3.57626,24.0592,0.096942,0.753533,0.529178,1.44153,0.822535,0.814304,1.04492,0.835699,0.23011,0.779224,4.79872,-0.281223,44.2202,203.424
951,29.2507,-5.57755,-3.62076,23.7509,0.0361762,-0.0135812,-0.13923,1.44153,-1.87355,-1.81659e-13,1.04492,0.0857942,0.23011,0.447131,3.8402,-0.260457,42.152,203.646
956,27.0143,-5.37687,-3.45978,23.1507,0.112133,0.0851562,0.643111,0.639171,0.822535,-1.81659e-13,1.04492,0.0857942,-0.0527335,0.779224,4.79872,-0.322755,43.6813,203.877
961,28.458,-4.91491,-3.15501,23.2967,0.886897,1.01177,0.331694,1.44153,1.72123,0.814304,1.04492,0.0857942,0.23011,0.779224,2.88169,-0.301989,42.7874,204.074
966,32.5786,-5.22093,-2.76166,23.6429,0.096942,0.82189,0.521582,1.44153,-0.0761606,0.814304,0.182679,0.460747,0.23011,0.945271,3.8402,-0.281223,33.2742,204.264
971,31.4463,-4.9985,-3.43229,23.329,0.0589634,0.206679,-0.0556792,0.639171,-0.0761606,0.814304,1.90716,0.460747,0.0886882,0.779224,3.8402,-0.301989,39.3402,204.435
976,27.4138,-6.09059,-4.28716,22.9125,-0.039781,0.00160915,0.00508515,1.44153,-0.0761606,-1.81659e-13,-0.679564,-0.289158,0.23011,0.613177,2.88169,-0.260457,40.6587,204.631
981,29.0061,-6.88353,-3.83199,23.1287,0.104538,-0.119914,0.35448,0.639171,0.822535,0.814304,1.04492,0.0857942,0.23011,0.613177,3.8402,-0.301989,41.8096,204.809
986,27.2111,-6.20774,-3.89837,22.6852,-0.0321853,0.0319899,-0.154421,1.44153,0.822535,-1.81659e-13,1.90716,0.835699,0.23011,0.613177,3.8402,-0.322755,49.2105,205.048
991,26.5563,-6.16869,-3.82065,22.1168,0.172899,-0.0135812,-0.0101059,2.2439,-0.0761606,0.814304,0.182679,-0.289158,0.23011,0.945271,2.88169,-0.301989,36.9512,205.26
996,25.803,-5.39393,-4.09839,21.846,-0.0777596,-0.0211764,0.468413,1.44153,-0.0761606,-0.814304,0.182679,0.0857942,0.23011,0.779224,3.8402,-0.301989,40.2428,205.467
1001,25.2349,-5.70597,-4.09839,21.8081,0.195686,0.0851562,0.0734451,2.2439,-0.0761606,1.62861,1.04492,0.0857942,0.0886882,0.447131,3.8402,-0.301989,48.1764,205.694
1006,25.5748,-6.10198,-4.45414,21.5751,0.241261,0.0319899,-0.0328926,1.44153,0.822535,0.814304,1.90716,-0.289158,0.23011,0.779224,3.8402,-0.281223,47.4252,205.936
1011,19.5236,-5.90109,-4.60413,21.3151,0.157708,0.0699659,0.119018,1.44153,-0.0761606,-1.81659e-13,0.182679,-0.289158,-0.0527335,0.447131,3.8402,-0.281223,52.0306,206.181
1016,20.1657,-5.71735,-4.77123,21.3799,0.0665591,0.107942,0.316503,2.2439,0.822535,1.62861,-0.679564,0.0857942,0.23011,0.945271,2.88169,-0.281223,49.3672,206.439
1021,23.4345,-6.49261,-5.11613,21.0061,0.400771,0.00160915,-0.13923,3.04626,-0.0761606,-0.814304,1.04492,0.835699,0.23011,0.779224,4.79872,-0.322755,59.5723,206.705
1026,21.3808,-7.62705,-4.60981,21.4234,-0.0169938,0.153513,0.293716,2.2439,-0.974856,1.62861,-0.679564,0.0857942,0.23011,0.613177,3.8402,-0.281223,61.6842,207.012
1031,22.3177,-6.84442,-4.88238,21.0061,0.112133,-0.0515572,0.058254,1.44153,1.72123,0.814304,1.04492,-0.289158,0.371532,0.945271,4.79872,-0.260457,62.0696,207.323
1036,21.7409,-6.53739,-5.08285,20.6591,0.195686,0.107942,0.0962317,0.639171,0.822535,1.62861,0.182679,0.460747,0.0886882,0.779224,3.8402,-0.281223,61.2089,207.63
1041,21.8459,-6.68803,-5.35001,19.9054,-0.0701639,-0.043962,0.119018,0.639171,1.72123,-0.814304,1.04492,0.460747,0.0886882,0.945271,3.8402,-0.301989,63.3306,207.952
1046,25.2308,-6.23054,-5.08854,19.8184,-0.0245895,-0.0287716,-0.20759,0.639171,1.72123,1.62861,1.04492,0.460747,0.23011,0.613177,4.79872,-0.281223,62.6067,208.263
1051,23.9889,-6.03529,-4.77691,19.8564,-0.0777596,0.00160915,0.141805,1.44153,-0.0761606,0.814304,0.182679,0.460747,0.371532,0.945271,4.79872,-0.281223,59.7462,208.572
1056,22.823,-6.34772,-4.97165,19.6665,0.0133891,0.0243947,0.384862,0.639171,1.72123,0.814304,0.182679,0.0857942,0.0886882,0.613177,2.88169,-0.260457,59.0094,208.876
1061,21.4187,-7.13534,-4.70472,20.1546,0.0589634,0.0547755,0.156996,0.639171,-0.0761606,-1.81659e-13,1.04492,0.460747,0.512954,0.613177,2.88169,-0.322755,57.2276,209.17
1066,21.7748,-6.98458,-4.90511,19.8453,-0.0093981,0.328202,0.179783,1.44153,0.822535,-1.62861,1.04492,0.460747,-0.0527335,0.779224,3.8402,-0.281223,52.6052,209.447
1071,21.4097,-6.78334,-5.05526,19.7749,0.142516,0.100347,0.103827,2.2439,-0.0761606,1.62861,0.182679,0.460747,0.23011,0.779224,2.88169,-0.239691,55.3071,209.719
1076,21.1748,-6.86154,-5.36708,19.547,-0.138525,0.0927514,0.225356,1.44153,0.822535,0.814304,1.04492,0.460747,0.23011,0.779224,3.8402,-0.301989,58.3824,210.007
1081,18.6619,-6.98458,-5.41176,19.3895,0.119729,0.0319899,0.141805,1.44153,1.72123,0.814304,1.04492,0.460747,0.371532,0.613177,3.8402,-0.322755,58.5139,210.299
1086,19.4402,-7.02369,-5.52876,19.3895,0.127325,-0.0363668,0.255738,1.44153,-0.974856,0.814304,0.182679,0.460747,0.23011,0.613177,3.8402,-0.447352,55.5408,210.571
1091,19.1948,-7.35385,-5.42883,19.2969,0.0285805,0.25225,0.308907,3.04626,-0.0761606,1.62861,0.182679,0.0857942,0.23011,0.613177,4.79872,-0.260457,57.3247,210.848
1096,20.1375,-7.11335,-5.65717,19.1505,0.0741549,0.168703,-0.0784658,2.2439,0.822535,0.814304,0.182679,-0.289158,0.512954,0.779224,3.8402,-0.301989,58.2158,211.135
1101,19.5118,-7.499,-5.45645,19.384,0.332409,0.130727,0.210165,0.639171,-0.0761606,0.814304,0.182679,-0.289158,0.23011,0.779224,3.8402,-0.281223,54.3508,211.409
1106,17.7313,-6.75565,-5.49545,19.042,0.0817506,0.0927514,0.172187,1.44153,0.822535,0.814304,1.04492,0.460747,0.23011,0.447131,2.88169,-0.301989,57.8783,211.681
1111,17.9487,-6.72226,-5.50114,18.9605,0.59826,0.168703,0.0430629,1.44153,-0.0761606,0.814304,0.182679,0.460747,0.23011,0.613177,2.88169,-0.322755,49.62,211.936
1116,18.4114,-6.34287,-5.59053,18.8354,-0.0093981,0.153513,-0.0632748,0.639171,0.822535,-1.81659e-13,1.90716,0.460747,0.23011,0.613177,3.8402,-0.447352,46.7096,212.18
1121,17.3787,-7.1916,-5.65717,18.6564,0.150112,0.199084,-0.13923,1.44153,-0.974856,-1.81659e-13,1.04492,0.0857942,0.0886882,0.613177,3.8402,-0.468118,50.8263,212.433
1126,20.8587,-7.7511,-5.98077,18.8354,-0.100547,-0.0895331,0.0734451,0.639171,0.822535,-1.81659e-13,1.04492,0.460747,0.0886882,0.613177,2.88169,-0.281223,42.06,212.669
1131,17.4157,-7.63933,-5.98647,18.9058,-0.0169938,-0.0819379,0.21776,0.639171,0.822535,-1.81659e-13,0.182679,0.460747,0.0886882,0.945271,3.8402,-0.301989,49.6232,212.917
1136,16.4693,-7.51615,-5.9027,18.8734,0.119729,0.138323,-0.101252,1.44153,-0.0761606,-1.81659e-13,1.04492,0.835699,-0.0527335,0.447131,3.8402,-0.447352,50.6939,213.154
1141,16.0256,-8.30544,-6.1036,18.8298,-0.0169938,0.0167995,0.103827,-0.163193,-1.87355,-1.81659e-13,0.182679,0.0857942,-0.0527335,0.779224,3.8402,-0.447352,44.3059,213.394
1146,16.0765,-7.63361,-6.48854,18.1891,0.0893463,0.0395851,-0.108848,1.44153,0.822535,0.814304,1.90716,0.0857942,0.0886882,0.779224,3.8402,-0.281223,44.3843,213.642
1151,16.1907,-7.08565,-6.41039,18.3412,0.195686,0.0699659,-0.00251039,1.44153,0.822535,1.62861,0.182679,0.0857942,0.23011,0.945271,4.79872,-0.40582,36.6755,213.863
1156,13.82,-7.37099,-6.18741,18.0639,0.00579335,0.335797,0.119018,0.639171,0.822535,-1.81659e-13,0.182679,-0.289158,0.0886882,0.447131,3.8402,-0.301989,49.6646,214.07
1161,13.5812,-7.52186,-5.94743,18.1075,0.203282,0.00160915,0.156996,3.04626,-0.0761606,-1.81659e-13,-0.679564,0.0857942,0.23011,0.613177,4.79872,-0.281223,44.2526,214.302
1166,13.9828,-8.10945,-5.32324,18.1455,-0.039781,-0.0743427,-0.108848,1.44153,-0.0761606,-1.81659e-13,0.182679,-0.289158,0.371532,0.613177,3.8402,-0.468118,43.9723,214.527
1171,14.1874,-6.70599,-5.95313,17.6075,-0.0093981,0.153513,-0.245568,1.44153,0.822535,0.814304,0.182679,0.0857942,-0.0527335,0.779224,3.8402,-0.468118,0.0,214.682
1176,15.1562,-7.09707,-5.87506,17.4553,0.0513677,0.077561,-0.230377,1.44153,0.822535,-1.81659e-13,-1.54181,0.0857942,0.23011,0.447131,3.8402,-0.426586,0.0,214.686
1181,14.7443,-7.09136,-5.98647,17.4608,0.195686,0.244655,-0.108848,2.2439,0.822535,-0.814304,1.04492,-0.289158,0.0886882,0.613177,2.88169,-0.488884,0.0,214.686
1184,15.8297,-7.60589,-6.07026,17.6075,-0.0701639,0.00920434,-0.245568,1.44153,-0.0761606,-1.81659e-13,1.04492,-0.289158,0.0886882,0.779224,2.88169,-0.260457,0.0,214.686