File: 01_Data/Barrel_Chair/Furniture_Calorimeter/Barrel_Chair_R3.csv
Time (s),Convective HRR,TCPlume1,TCPlume2,TCPlume3,DPPlume1,DPPlume2,DPPlume3,HF1,HF2,HF3,HF4,HF5,HF6,RAD2,RAD1,Load Cell,Heat Release Rate,Total Heat Released
-120,0.0,7.68487,8.34573,19.7963,0.105255,-0.0999501,0.00491476,0.0876532,0.0679686,-0.431102,0.528939,-0.107129,0.105769,0.281084,0.964651,9.43732,0.0,0.0
-116,0.0,7.54294,8.01259,19.6174,-0.0922338,-0.0315934,-0.0102763,0.890017,0.0679686,-0.431102,-0.333304,0.267823,-0.0356525,0.115037,1.92317,9.43732,0.0,0.0
-112,0.0,7.47198,7.94163,19.7368,0.0444892,-0.0695694,-0.0634451,0.890017,0.0679686,-1.24541,-1.19555,-0.107129,0.105769,0.281084,1.92317,9.64498,0.0,0.0
-108,0.0,6.59195,8.01813,20.5341,-0.0998295,-0.0619742,0.0277014,-0.71471,-0.830727,-0.431102,0.528939,0.267823,0.105769,0.281084,1.92317,9.43732,0.0,0.0
-104,0.0,5.39994,8.12734,20.187,-0.0238723,-0.0164031,-0.0178719,0.890017,0.0679686,-1.24541,-0.333304,-0.107129,-0.177074,0.447131,1.92317,9.62421,0.0,0.0
-100,0.0,5.17582,8.36237,19.8887,-0.0466594,-0.0239982,-0.0254674,-0.71471,0.0679686,1.19751,-0.333304,-0.107129,-0.0356525,0.281084,1.92317,9.56191,0.0,0.0
-96,0.0,5.02825,8.5209,20.3119,-0.0694466,0.0139777,0.0352969,0.890017,-0.830727,-0.431102,-0.333304,-0.482082,0.105769,0.447131,0.00613451,9.62421,0.0,0.0
-92,0.0,5.09371,7.59179,19.2375,-0.0542552,-0.0391886,-0.0938273,-0.71471,0.0679686,0.383202,0.528939,-0.482082,-0.177074,0.115037,0.964651,9.66574,0.0,0.0
-88,0.0,4.21876,7.6356,19.471,-0.0466594,-0.0999501,-0.0102763,0.0876532,0.966664,-0.431102,-0.333304,-0.107129,0.247191,0.613177,1.92317,9.62421,0.0,0.0
-84,0.0,5.32338,7.05615,18.8955,-0.00868083,0.0215729,-0.0254674,0.890017,0.966664,-1.24541,-0.333304,-0.107129,-0.0356525,0.115037,0.00613451,9.60344,0.0,0.0
-80,0.0,5.06653,6.95246,18.8305,0.00651062,0.0595488,0.00491476,0.890017,0.0679686,-0.431102,1.39118,-0.107129,0.105769,0.447131,0.00613451,9.60344,0.0,0.0
-76,0.0,5.0227,6.94691,18.711,0.0900636,-0.00880787,0.0352969,0.890017,0.0679686,0.383202,-1.19555,-0.107129,-0.0356525,0.281084,0.964651,9.62421,0.0,0.0
-72,0.0,4.83685,6.95246,18.6405,-0.0162766,0.0291681,0.0960613,0.0876532,0.0679686,-1.24541,-0.333304,-0.107129,0.247191,0.115037,1.92317,9.64498,0.0,0.0
-68,0.0,4.65099,6.84322,18.3419,-0.0162766,0.00638251,0.0201059,-0.71471,-0.830727,1.19751,0.528939,-0.107129,0.105769,0.779224,0.00613451,9.79034,0.0,0.0
-64,0.0,4.52504,6.71732,18.1407,-0.00868083,-0.00121268,-0.0102763,-0.71471,-0.830727,1.19751,-1.19555,0.267823,-0.177074,0.613177,1.92317,9.62421,0.0,0.0
-60,0.0,4.79857,6.83767,17.9561,0.00651062,-0.0695694,-0.0406585,0.890017,-0.830727,0.383202,-0.333304,-0.482082,0.105769,0.447131,1.92317,9.64498,0.0,0.0
-56,0.0,4.76029,6.87593,17.88,-0.0162766,-0.0619742,-0.0482541,0.0876532,0.966664,0.383202,-0.333304,0.642776,0.105769,0.281084,1.92317,9.60344,0.0,0.0
-52,0.0,4.40463,6.75003,17.869,0.0292978,-0.0315934,-0.033063,0.890017,0.966664,-0.431102,-0.333304,-0.482082,-0.0356525,0.447131,3.8402,9.81111,0.0,0.0
-48,0.0,4.00016,6.69015,17.7334,0.0217021,-0.0164031,-0.00268078,-1.51707,0.0679686,-0.431102,-1.19555,-0.482082,-0.177074,0.281084,2.88169,9.60344,0.0,0.0
-44,0.0,4.03289,6.53153,17.8039,0.0217021,0.0139777,0.0656791,-0.71471,0.0679686,-0.431102,-0.333304,0.267823,0.105769,0.281084,1.92317,9.81111,0.0,0.0
-40,0.0,4.22432,6.49326,17.5757,0.0368935,-0.0164031,-0.0178719,0.0876532,0.0679686,0.383202,-0.333304,-0.107129,-0.0356525,0.447131,1.92317,9.74881,0.0,0.0
-36,0.0,3.99461,6.18709,17.4235,0.0292978,-0.0164031,-0.0482541,1.69238,0.966664,-0.431102,0.528939,0.267823,0.105769,0.447131,1.92317,9.95647,0.0,0.0
-32,0.0,4.63988,6.29636,17.4941,-0.0238723,0.067144,0.0428925,-0.71471,0.0679686,-0.431102,0.528939,-0.107129,-0.0356525,0.281084,2.88169,9.79034,0.0,0.0
-28,0.0,4.95169,6.14882,17.5376,0.00651062,0.0367633,-0.0178719,0.0876532,0.966664,-0.431102,-0.333304,0.642776,-0.0356525,0.447131,3.8402,9.64498,0.0,0.0
-24,0.0,5.02825,5.95745,17.4235,0.105255,0.0519536,0.0125103,-0.71471,0.0679686,1.19751,0.528939,-0.107129,0.105769,0.281084,1.92317,9.76957,0.0,0.0
-20,0.0,4.53059,5.68952,17.3474,0.0672764,0.00638251,0.0201059,0.890017,0.0679686,1.19751,0.528939,0.267823,0.105769,0.613177,1.92317,9.60344,0.0,0.0
-16,0.0,4.30089,5.49813,17.3474,-0.031468,0.067144,0.0656791,0.0876532,0.0679686,0.383202,0.528939,0.267823,0.105769,0.447131,1.92317,9.79034,0.0,0.0
-12,0.0,3.91803,5.03877,17.2332,0.0141063,-0.0239982,0.0125103,0.890017,1.86536,-0.431102,0.528939,-0.482082,0.105769,0.447131,0.964651,9.79034,0.0,0.0
-8,0.0,3.90693,4.79797,16.8797,0.135638,0.0747392,-0.0178719,0.0876532,0.966664,-0.431102,-0.333304,-0.107129,0.105769,0.447131,1.92317,9.60344,0.0,0.0
-4,0.0,3.17948,5.14251,17.07,-0.00868083,-0.0239982,-0.0102763,0.0876532,0.0679686,-0.431102,-0.333304,0.267823,0.105769,0.281084,0.00613451,9.76957,0.0,0.0
0,0.0,2.10743,4.87454,16.9938,-0.0390637,-0.0391886,-0.0786362,0.0876532,0.0679686,1.19751,0.528939,0.267823,-0.177074,0.447131,2.88169,9.64498,0.0,0.0
4,0.0,3.18503,4.65039,16.7329,-0.0162766,-0.0164031,-0.0938273,0.0876532,0.966664,0.383202,0.528939,-0.107129,0.105769,0.115037,0.964651,9.81111,0.0,0.0
8,0.0,3.56235,4.60656,16.537,-0.0390637,-0.00121268,0.0125103,0.890017,0.0679686,0.383202,-1.19555,-0.107129,-0.177074,0.613177,1.92317,9.74881,0.0,0.0
12,0.0,3.48578,4.45342,16.537,-0.0238723,-0.0315934,-0.0786362,-0.71471,-1.72942,-0.431102,1.39118,-0.107129,-0.0356525,0.281084,2.88169,9.97723,0.0,0.0
16,0.0,3.91803,4.38795,16.5481,-0.0010851,-0.0239982,-0.0786362,-0.71471,0.0679686,-0.431102,-0.333304,0.267823,0.105769,0.115037,2.88169,9.58268,0.0,0.0
20,0.0,3.21221,4.17987,16.265,-0.0162766,-0.0695694,0.0277014,0.0876532,-0.830727,1.19751,0.528939,-0.107129,0.247191,0.447131,0.964651,9.76957,0.0,0.0
24,0.0,2.64345,3.91741,16.1562,-0.0542552,-0.0695694,-0.0862318,0.0876532,0.0679686,-0.431102,0.528939,-0.107129,-0.177074,0.447131,0.964651,9.79034,0.0,0.0
28,0.0,2.53414,3.99954,15.8951,-0.0998295,-0.0847598,0.0125103,0.0876532,-0.830727,0.383202,-0.333304,-0.107129,0.105769,0.447131,2.88169,9.76957,0.0,0.0
32,0.0,2.06914,3.87913,16.042,-0.00868083,0.0139777,-0.033063,-0.71471,0.0679686,0.383202,1.39118,0.642776,-0.0356525,0.447131,0.964651,9.81111,0.0,0.0
36,0.0,1.98702,3.83529,16.303,-0.0010851,-0.0164031,-0.0558496,1.69238,-0.830727,-0.431102,0.528939,-0.482082,-0.0356525,0.115037,1.92317,9.79034,0.0,0.0
40,0.0,2.32049,3.78589,16.1777,-0.0238723,-0.0467838,-0.0254674,0.890017,0.0679686,1.19751,0.528939,-0.482082,0.247191,0.281084,1.92317,9.79034,0.0,0.0
44,0.0,1.82832,3.75316,16.3737,0.0217021,-0.0239982,-0.0254674,0.0876532,0.0679686,-2.05971,-0.333304,1.01773,-0.0356525,0.613177,0.964651,9.91494,0.0,0.0
48,0.0,2.1729,3.60001,16.6402,0.00651062,0.0215729,0.0352969,-0.71471,0.0679686,0.383202,-0.333304,-0.107129,0.105769,0.613177,0.964651,9.9357,0.0,0.0
52,0.0,0.608806,4.02672,17.2928,0.0672764,0.0975248,0.103657,1.69238,1.86536,0.383202,-0.333304,0.642776,-0.177074,0.447131,0.964651,9.95647,0.0,0.0
56,0.0,0.674261,4.0539,17.5481,0.325531,0.257024,0.498625,0.0876532,-0.830727,-0.431102,0.528939,-0.482082,-0.0356525,0.281084,1.92317,9.95647,0.0,0.0
60,0.0,2.16734,3.47959,17.3579,0.0292978,0.0747392,0.103657,0.0876532,-0.830727,0.383202,-1.19555,0.267823,-0.0356525,0.281084,1.92317,9.9357,0.0,0.0
64,0.0,2.09077,3.55617,17.3198,-0.0010851,0.0595488,0.0125103,1.69238,-0.830727,-0.431102,1.39118,-0.107129,-0.0356525,0.613177,1.92317,9.76957,0.0,0.0
68,0.0,2.20008,3.62719,17.3523,0.181212,0.127906,-0.0254674,0.0876532,0.0679686,-1.24541,0.528939,-0.107129,0.105769,0.613177,1.92317,9.76957,0.0,0.0
72,0.0,2.08522,3.78034,17.5426,0.219191,0.31019,0.050488,1.69238,0.966664,1.19751,-0.333304,0.267823,0.105769,0.447131,2.88169,9.74881,0.0,0.0
76,0.0,2.92754,4.08663,17.5806,0.0976593,0.0595488,0.529007,1.69238,0.966664,-1.24541,2.25342,-0.107129,0.105769,0.447131,1.92317,9.79034,4.83045,0.0136339
80,0.0,2.76883,4.61708,18.2217,0.355914,1.20642,1.18982,1.69238,-0.830727,2.01181,0.528939,-0.107129,0.388613,0.613177,1.92317,9.76957,21.7636,0.05088
84,0.0,4.49727,6.53649,20.924,0.606573,0.530451,4.00017,2.49474,-0.830727,1.19751,2.25342,0.642776,0.388613,0.613177,3.8402,9.81111,46.6114,0.190686
88,0.0,6.47656,9.20305,24.2847,0.249574,0.158286,2.14686,4.90183,0.966664,0.383202,0.528939,0.642776,0.388613,0.945271,3.8402,9.9357,69.8917,0.447934
92,0.0,7.44423,11.9651,27.2421,3.67525,0.948186,2.56461,2.49474,0.0679686,2.01181,1.39118,0.267823,0.388613,0.779224,5.75724,9.76957,101.336,0.800292
96,0.0,10.6392,15.6096,30.8034,0.279957,1.47985,2.02533,4.90183,1.86536,2.01181,0.528939,1.01773,0.671456,0.945271,4.79872,9.74881,109.421,1.23387
100,0.0,15.6369,21.7274,35.0808,2.30042,2.20139,0.77966,5.7042,1.86536,2.01181,1.39118,1.39268,0.530035,1.27736,5.75724,9.76957,129.799,1.68456
104,0.0,19.3912,26.1046,41.4174,3.95629,3.73562,1.95697,7.30893,1.86536,2.82612,1.39118,1.76763,0.9543,1.27736,5.75724,9.76957,116.876,2.1814
108,0.0,23.7449,31.4841,45.5008,0.758487,1.51023,2.80767,6.50656,1.86536,2.01181,0.528939,1.39268,0.812878,1.11132,6.71575,9.81111,113.612,2.64975
112,0.0,25.4516,34.2655,47.2863,0.826849,1.79125,0.741683,5.7042,3.66275,2.82612,2.25342,1.39268,0.812878,1.27736,5.75724,9.79034,124.366,3.13797
116,0.0,24.7983,31.8542,47.1643,1.43451,1.30516,1.80506,6.50656,2.76405,2.82612,2.25342,0.642776,0.530035,1.11132,7.67427,9.60344,143.131,3.73437
120,0.0,25.5972,32.0474,48.1701,1.9814,0.234238,0.293545,5.7042,2.76405,2.82612,2.25342,1.76763,0.812878,0.945271,5.75724,9.60344,180.743,4.39169
124,0.0,24.1287,31.5271,47.9162,2.87769,2.79382,1.81265,7.30893,0.966664,2.01181,1.39118,1.01773,0.9543,1.11132,6.71575,9.60344,212.475,5.16529
128,0.0,23.8584,32.6854,49.6507,0.591381,1.11528,0.339119,8.11129,2.76405,2.01181,1.39118,1.39268,0.9543,1.11132,6.71575,9.64498,256.267,6.12125
132,0.0,26.4601,34.2921,52.6392,3.53093,2.39127,2.4203,8.91365,2.76405,4.45472,2.25342,1.76763,0.9543,1.11132,9.5913,9.62421,278.283,7.16386
136,0.0,27.6239,36.7937,54.4792,0.917997,0.32538,0.642941,12.1231,4.56145,4.45472,2.25342,1.76763,1.23714,1.44341,10.5498,9.47885,292.158,8.29588
140,0.0,30.6676,39.2897,57.3119,1.53325,1.2444,4.44831,16.1349,4.56145,5.26903,3.11567,2.51754,1.51999,1.7755,13.4254,9.43732,312.487,9.49813
144,4.69267,38.303,48.3493,65.9832,3.35622,2.07227,3.24062,16.1349,4.56145,6.08333,4.84015,2.89249,1.51999,1.94155,15.3424,9.45808,357.784,10.8557
148,33.163,41.5881,50.1305,68.9979,1.57123,8.05728,1.06829,17.7397,4.56145,6.08333,3.11567,2.89249,1.66141,1.94155,16.3009,9.49961,383.311,12.255
152,44.8216,41.0562,50.2307,69.7944,3.18912,2.75584,2.89122,19.3444,5.46014,6.08333,4.84015,2.51754,1.94425,1.94155,17.2594,9.29195,412.659,13.7381
156,49.0952,40.8273,53.6969,74.0436,1.4421,1.53302,2.96718,16.9373,4.56145,5.26903,4.84015,3.26744,1.80283,1.94155,15.3424,9.31272,390.426,15.3845
160,64.0115,39.2621,53.6969,74.5203,2.09533,1.68492,1.12146,18.542,5.46014,6.89764,4.84015,3.26744,1.94425,2.1076,15.3424,9.27119,365.234,16.9203
164,79.3304,42.3478,57.6348,75.9085,3.88793,2.31532,1.69113,20.1467,6.35884,7.71194,5.7024,3.26744,1.94425,2.27365,18.218,9.16736,425.022,18.5088
168,88.4702,41.3432,55.2035,75.8351,1.00155,0.917805,1.9114,20.1467,5.46014,6.89764,6.56464,3.64239,2.50994,2.43969,19.1765,9.14659,431.706,20.2579
172,103.376,40.5504,56.9245,78.1715,2.66501,2.20139,3.75711,20.9491,5.46014,6.89764,5.7024,3.64239,2.2271,2.27365,18.218,9.02199,421.01,22.0347
176,100.481,43.0489,60.3888,82.6521,5.24756,2.77103,3.84826,20.9491,6.35884,7.71194,6.56464,3.64239,2.50994,2.43969,19.1765,8.7728,425.862,23.8278
180,96.5232,48.3479,64.7189,86.942,4.2829,3.84955,3.96979,25.7633,8.15623,8.52625,6.56464,4.3923,3.07563,3.26993,24.9276,8.7728,485.442,25.6567
184,129.249,49.2254,62.9822,89.4666,1.54085,4.83692,6.30162,24.1586,8.15623,9.34055,8.28912,4.76725,3.07563,3.26993,24.9276,8.60667,501.811,27.6046
188,134.929,51.7337,70.0599,95.7167,2.1485,5.0344,7.12954,24.1586,7.25753,8.52625,6.56464,5.1422,2.9342,2.93783,23.9691,8.62744,508.64,29.6463
192,132.74,52.9152,73.03,100.917,2.67261,2.06468,8.35242,26.5657,9.05492,9.34055,6.56464,4.3923,2.65136,3.10388,25.8861,8.52361,568.923,31.8264
196,140.64,58.6269,81.6462,111.804,3.28786,8.93073,6.0054,27.368,8.15623,8.52625,7.42688,4.3923,2.79278,2.77179,24.9276,8.62744,653.224,34.3626
200,165.808,64.6122,89.423,119.429,1.02434,4.05462,2.80767,26.5657,7.25753,8.52625,8.28912,4.76725,2.9342,3.10388,23.9691,8.29518,655.11,37.0471
204,167.002,62.104,85.8866,120.314,3.02201,2.12544,1.59238,28.1704,8.15623,10.1549,9.15137,5.51716,3.64131,3.43597,25.8861,8.29518,729.312,39.8352
208,169.964,67.7631,92.8001,130.126,4.61711,3.34067,3.45329,26.5657,9.95362,9.34055,8.28912,5.89211,3.64131,3.60202,25.8861,8.14982,758.896,42.776
212,194.711,66.6677,89.2393,129.831,1.18385,2.52799,3.55963,27.368,9.95362,10.1549,10.0136,5.1422,4.06558,3.93411,26.8446,8.10828,776.649,45.7543
216,229.242,74.065,100.828,137.455,4.29809,3.50017,4.86606,30.5775,11.751,11.7835,10.0136,6.64201,4.34842,4.26621,28.7616,7.94216,778.663,48.7889
220,228.091,79.4069,107.955,145.752,6.45528,5.9838,3.68875,36.9964,13.5484,14.2264,11.7381,7.01697,4.77269,4.5983,35.4713,7.92139,762.878,51.7677
224,275.213,82.4875,108.325,153.597,3.14354,1.0849,0.544198,32.9846,10.8523,10.9692,10.8759,7.76687,4.91411,4.93039,31.6372,7.63066,811.174,54.877
228,286.051,79.3335,103.292,156.408,0.728104,2.45203,2.28358,29.7751,9.95362,11.7835,9.15137,7.39192,5.4798,5.26249,31.6372,7.63066,786.505,58.0464
232,300.684,83.1425,104.876,153.782,5.14882,3.27991,2.7545,32.1822,11.751,13.4121,11.7381,8.14182,5.76264,5.42853,33.5542,7.6722,754.292,61.0861
236,315.046,82.6603,107.388,157.005,5.97675,5.62682,2.76969,34.5893,12.6497,11.7835,13.4626,7.76687,5.4798,5.42853,32.5957,7.5476,713.019,64.239
240,307.608,85.6271,113.096,169.031,8.89351,6.98636,8.40559,37.7987,13.5484,14.2264,15.1871,7.76687,5.19695,4.93039,35.4713,7.11151,658.462,66.9467
244,332.89,87.7567,114.099,171.09,2.67261,1.75328,9.79557,32.1822,10.8523,10.9692,12.6003,6.26706,4.207,4.26621,30.6787,6.94538,678.195,69.5997
248,324.891,82.6916,106.272,167.544,0.302744,0.355761,2.86084,31.3798,10.8523,11.7835,13.4626,7.76687,5.05553,4.76435,32.5957,6.63389,706.131,72.3853
252,313.146,76.6359,99.5041,162.929,3.26508,0.598807,0.544198,25.7633,8.15623,8.52625,10.0136,5.89211,4.63127,4.43225,24.9276,6.61312,702.6,75.244
256,298.98,79.0083,102.262,163.527,2.13331,7.04712,3.14188,26.5657,9.05492,10.1549,10.8759,5.89211,4.48984,4.10016,23.0105,6.59236,686.015,78.0258
260,281.284,78.3117,103.149,160.215,3.09037,6.05975,4.72175,28.9727,9.05492,9.34055,10.8759,5.89211,4.34842,4.10016,26.8446,6.447,654.31,80.7194
264,285.622,83.1946,107.52,165.094,2.61944,4.29766,2.21522,34.5893,9.05492,10.1549,14.3248,6.64201,4.63127,4.5983,30.6787,6.30163,570.304,83.1048
268,293.825,80.8784,105.849,162.994,3.47776,6.94079,3.7799,25.7633,7.25753,8.52625,10.0136,5.89211,3.92416,3.93411,23.9691,6.1355,572.305,85.4349
272,288.987,81.2819,108.293,162.461,12.6002,2.53558,7.08396,30.5775,10.8523,11.7835,12.6003,6.26706,4.63127,4.10016,28.7616,5.94861,550.783,87.7542
276,287.18,77.8611,100.959,158.264,1.19144,3.69005,2.06331,29.7751,8.15623,9.34055,10.8759,5.89211,4.63127,4.43225,27.8031,5.99014,635.397,90.2325
280,270.629,73.1947,93.9083,154.264,1.82948,4.16855,1.4025,24.9609,8.15623,9.34055,9.15137,5.89211,4.34842,4.43225,24.9276,5.78248,561.61,92.5515
284,234.63,66.5932,85.3088,148.65,0.264765,4.73819,3.51406,24.1586,8.15623,7.71194,11.7381,5.1422,4.34842,3.76807,23.0105,5.65788,562.09,94.8016
288,235.414,64.3909,86.7038,148.499,6.45528,4.58628,6.91686,27.368,8.15623,10.1549,11.7381,5.89211,3.78274,3.60202,24.9276,5.63712,518.241,96.9526
292,224.726,67.4265,88.7499,147.919,4.39684,4.14576,2.48106,25.7633,7.25753,9.34055,10.8759,6.26706,4.06558,3.93411,24.9276,5.47099,451.4,98.8868
296,265.045,68.7838,90.5873,151.406,2.75616,5.27744,2.06331,22.5538,6.35884,9.34055,10.8759,4.3923,3.21705,2.93783,22.052,5.30486,459.525,100.695
300,223.443,70.5702,91.3855,149.803,1.32817,2.5128,1.562,27.368,7.25753,9.34055,10.0136,5.51716,3.92416,3.60202,24.9276,5.63712,423.396,102.439
304,222.89,65.5496,86.9816,145.605,1.23702,1.62416,0.437861,23.3562,4.56145,6.89764,8.28912,4.76725,3.21705,3.43597,22.052,5.30486,415.121,104.189
308,203.678,60.1862,82.8343,142.127,2.55867,2.11785,2.10129,17.7397,4.56145,6.08333,8.28912,4.01735,2.9342,3.10388,17.2594,5.11796,372.251,105.768
312,181.648,59.151,80.5916,140.498,2.62704,9.71303,2.77729,16.9373,3.66275,5.26903,7.42688,3.26744,2.65136,2.77179,18.218,4.9726,398.997,107.333
316,187.009,58.6674,78.5695,137.249,1.86746,2.05708,0.544198,17.7397,4.56145,5.26903,9.15137,3.26744,2.36852,2.43969,17.2594,4.9726,369.522,108.929
320,171.904,56.7532,75.9298,134.199,2.20927,1.5634,1.51643,14.5302,4.56145,5.26903,7.42688,2.89249,2.08567,2.27365,14.3839,4.80647,387.334,110.435
324,161.623,50.6606,69.8382,129.347,1.7991,1.00135,3.16466,15.3326,4.56145,5.26903,7.42688,2.89249,2.2271,2.27365,15.3424,4.80647,344.398,111.918
328,145.139,49.9898,66.9349,126.605,2.04216,5.1863,4.17487,16.1349,5.46014,6.89764,9.15137,2.89249,1.94425,2.27365,16.3009,4.82724,307.35,113.261
332,155.792,50.2748,69.1621,126.032,1.70036,3.27991,6.13452,14.5302,4.56145,6.08333,6.56464,3.64239,2.08567,2.27365,13.4254,4.64034,288.636,114.472
336,139.762,51.4944,68.025,122.89,2.37638,2.68748,3.08111,15.3326,5.46014,5.26903,6.56464,2.89249,2.2271,2.1076,14.3839,4.66111,247.939,115.575
340,147.775,47.9755,62.5498,120.27,1.38893,0.636783,5.50409,12.1231,2.76405,3.64042,5.7024,2.14259,1.94425,1.7755,12.4669,4.49498,265.788,116.608
344,128.445,43.8588,58.9836,116.653,6.72113,2.59634,0.415074,8.91365,3.66275,4.45472,4.84015,1.39268,1.51999,1.7755,8.63279,4.45345,227.877,117.586
348,113.802,43.3704,54.8167,111.664,1.74593,2.67989,3.02035,7.30893,2.76405,4.45472,5.7024,1.76763,1.80283,1.60946,7.67427,4.47422,213.181,118.485
352,106.888,40.9525,52.8984,109.066,0.758487,1.42668,2.90641,8.91365,1.86536,4.45472,3.97791,2.14259,1.51999,1.60946,8.63279,4.32885,231.746,119.403
356,94.1631,38.0443,50.8302,106.509,0.993955,0.249429,-0.238143,8.11129,3.66275,2.01181,3.11567,1.76763,1.37857,1.44341,8.63279,4.32885,252.922,120.46
360,92.972,36.4162,48.1823,102.751,0.933189,0.408928,2.94439,9.71602,2.76405,5.26903,4.84015,2.14259,1.37857,1.60946,9.5913,4.32885,205.455,121.378
364,81.0312,34.7753,46.1127,99.9128,0.963572,0.765901,3.87864,9.71602,0.966664,4.45472,3.11567,2.14259,1.23714,1.27736,8.63279,4.37039,195.176,122.16
368,73.7565,32.6279,44.5064,98.2419,0.46985,1.63175,2.74691,8.11129,0.966664,3.64042,5.7024,1.76763,1.51999,1.44341,8.63279,4.14196,176.727,122.892
372,76.3754,32.5529,44.989,95.9564,0.279957,1.00895,1.20501,8.11129,1.86536,3.64042,3.11567,1.39268,1.37857,1.60946,8.63279,4.14196,182.985,123.619
376,73.4412,31.3064,44.0662,95.0954,2.52907,0.398599,5.72143,7.39249,1.12638,3.26136,3.27042,1.89016,1.19984,1.28155,8.66027,4.03121,183.345,124.375
380,52.7405,31.7216,44.7609,94.3673,1.632,3.16598,0.0201059,7.30893,2.76405,3.64042,4.84015,1.76763,1.23714,1.27736,6.71575,3.97583,183.337,125.124
384,51.1471,28.6755,42.8663,92.7109,3.18152,1.82923,3.40772,7.30893,3.66275,3.64042,3.97791,1.39268,1.23714,1.44341,8.63279,3.95506,182.243,125.842
388,45.8394,30.0572,41.4047,90.4565,1.35855,0.302595,0.415074,7.30893,2.76405,2.82612,3.97791,1.76763,0.9543,1.27736,7.67427,3.97583,185.04,126.591
392,45.883,28.2557,38.503,87.5585,0.530616,0.241833,-0.0634451,7.30893,1.86536,2.82612,2.25342,1.76763,1.09572,1.27736,6.71575,3.8097,200.822,127.401
396,41.8246,28.4332,36.0638,84.3898,0.333127,0.378547,0.111252,6.50656,2.76405,2.82612,3.11567,2.14259,0.9543,1.27736,7.67427,3.8097,201.021,128.219
400,38.2481,27.744,35.1924,83.0946,1.66238,1.59378,0.703705,7.30893,1.86536,2.82612,3.11567,1.76763,0.9543,0.945271,6.71575,3.78893,186.697,128.972
404,35.9572,27.6309,36.0529,82.4341,1.69276,0.773497,0.741683,7.30893,1.86536,2.82612,3.97791,1.39268,0.9543,1.11132,6.71575,3.78893,193.311,129.698
408,36.2241,27.9701,36.5764,80.6731,1.54844,3.62929,0.612558,6.50656,2.76405,2.82612,3.11567,0.267823,1.09572,0.945271,6.71575,3.64357,189.322,130.489
412,41.0009,26.6448,36.571,79.4206,2.27004,1.14566,0.35431,5.7042,1.86536,3.64042,3.11567,1.76763,1.09572,1.27736,5.75724,3.66434,190.746,131.246
416,36.3502,26.1865,35.7802,79.0485,0.393893,1.19123,2.31396,5.7042,3.66275,2.82612,3.97791,0.642776,0.9543,1.27736,5.75724,3.64357,175.983,132.008
420,33.7062,26.181,35.9619,78.273,2.08014,2.33051,1.25818,7.30893,1.86536,2.82612,3.11567,1.39268,0.9543,1.11132,5.75724,3.53974,186.589,132.737
424,34.0895,27.9483,38.0491,79.1479,1.0927,3.30269,0.323928,7.30893,1.86536,2.82612,2.25342,1.39268,0.9543,1.27736,5.75724,3.47744,195.726,133.515
428,31.4619,27.3719,37.2166,77.6703,1.2674,3.07484,0.642941,6.50656,0.966664,3.64042,3.11567,0.642776,1.09572,1.27736,7.67427,3.47744,181.732,134.28
432,31.8532,26.0568,35.0529,75.3653,1.632,3.87993,3.57482,6.50656,2.76405,2.01181,3.11567,1.39268,1.09572,1.27736,6.71575,3.49821,183.151,134.979
436,26.6434,27.1079,35.5715,75.8001,0.849636,0.993757,2.29117,9.71602,2.76405,4.45472,3.97791,1.76763,1.23714,1.11132,8.63279,3.51897,202.204,135.787
440,30.5195,27.1724,35.5606,76.1195,1.2674,1.7153,0.84802,7.30893,2.76405,2.01181,3.97791,1.39268,1.09572,1.27736,5.75724,3.33208,216.524,136.636
444,32.2664,26.7143,34.2073,74.9407,0.705317,0.781092,1.28856,8.91365,3.66275,3.64042,3.97791,1.01773,1.23714,1.60946,6.71575,3.33208,203.14,137.457
448,24.9439,26.3747,32.9327,73.0338,0.705317,0.849449,0.0428925,7.30893,1.86536,2.82612,3.97791,1.39268,0.9543,1.11132,5.75724,3.35285,232.652,138.321
452,25.9505,27.0861,35.9239,75.0087,-0.0694466,0.849449,2.19243,6.50656,1.86536,3.64042,3.97791,1.76763,1.23714,1.11132,7.67427,3.29055,241.73,139.265
456,34.3488,30.0615,38.875,75.0454,0.659743,1.28237,3.62039,6.50656,2.76405,2.82612,3.97791,1.39268,1.23714,1.11132,7.67427,3.18672,201.57,140.161
460,43.2049,31.8169,41.0631,77.4184,2.29282,2.26975,1.44807,7.30893,2.76405,1.19751,4.84015,1.39268,1.09572,1.44341,8.63279,3.14518,199.149,141.001
464,38.2287,33.2428,42.1796,77.6384,3.05999,4.25969,2.27598,8.11129,0.0679686,3.64042,3.97791,1.01773,1.23714,1.27736,8.63279,3.14518,188.588,141.798
468,36.7391,33.2748,41.765,77.4498,4.12339,1.00895,0.445456,8.91365,1.86536,2.82612,3.97791,1.76763,1.23714,1.44341,7.67427,2.93752,186.613,142.528
472,34.712,31.8757,39.221,75.4222,1.16866,0.416523,0.126443,7.30893,2.76405,2.82612,3.97791,1.39268,1.37857,1.11132,8.63279,2.97906,195.939,143.329
476,28.5503,29.2763,36.5645,73.5834,0.971168,2.76344,0.855616,7.30893,2.76405,2.82612,3.11567,1.01773,0.9543,1.44341,7.67427,2.97906,197.893,144.201
480,22.9954,28.5178,34.5759,70.7907,2.08774,1.60137,0.977145,8.11129,1.86536,3.64042,4.84015,1.39268,1.09572,0.945271,7.67427,2.81293,216.195,145.029
484,24.5261,28.4425,34.014,69.9837,0.226787,3.90271,3.9546,6.50656,1.86536,2.82612,3.97791,1.76763,1.37857,1.44341,8.63279,2.79216,221.816,145.929
488,27.3605,30.2005,36.8847,71.0369,2.36118,2.86977,3.70395,8.91365,0.966664,3.64042,3.97791,1.76763,1.37857,1.27736,8.63279,2.83369,218.704,146.846
492,28.1661,28.4315,36.1744,71.1836,0.743296,2.59634,0.726492,9.71602,2.76405,4.45472,4.84015,1.76763,1.37857,1.60946,7.67427,2.62603,189.143,147.666
496,27.516,27.7478,35.9819,70.6281,3.31065,1.0773,1.69872,8.91365,1.86536,4.45472,4.84015,2.51754,1.23714,1.27736,6.71575,2.62603,198.893,148.448
500,27.9121,28.6897,38.3358,72.0585,1.76872,4.26728,0.544198,8.11129,2.76405,2.82612,3.97791,1.01773,0.9543,1.60946,7.67427,2.62603,200.839,149.203
504,32.1911,28.6734,36.0031,71.1256,1.63959,1.2368,0.399883,9.71602,4.56145,2.82612,3.97791,2.14259,1.09572,1.44341,7.67427,2.48067,199.068,149.997
508,34.7379,27.8177,34.8538,70.2559,1.19144,0.31019,3.64318,9.71602,1.86536,3.64042,4.84015,1.76763,1.37857,1.44341,8.63279,2.50144,202.792,150.79
512,24.94,25.8073,33.7566,69.8051,0.241978,0.454499,1.94178,9.71602,3.66275,2.82612,3.11567,1.39268,1.51999,1.27736,8.63279,2.50144,199.601,151.628
516,28.3678,25.6963,34.5943,69.7375,0.626491,3.60521,-0.820571,8.17132,3.31463,4.00002,2.59496,1.90103,1.22988,1.7316,9.15648,2.46896,221.315,152.503
520,27.802,25.0786,35.1316,70.2347,2.8701,1.10009,6.15731,9.71602,1.86536,2.82612,3.97791,1.39268,1.37857,1.44341,8.63279,2.31454,191.93,153.29
524,28.3102,27.3867,38.0902,72.3307,1.99659,1.8672,1.14425,8.11129,2.76405,2.82612,3.11567,1.76763,1.23714,1.11132,6.71575,2.29377,175.278,154.027
528,33.8758,28.7645,39.3053,73.2316,1.25981,1.73049,1.3873,8.11129,1.86536,4.45472,3.97791,1.39268,0.9543,1.27736,7.67427,2.33531,179.743,154.713
532,30.7476,27.3703,36.9535,71.6912,0.158425,0.667164,1.53162,6.50656,2.76405,2.82612,3.97791,1.39268,0.9543,1.44341,6.71575,2.18994,179.592,155.413
536,30.8679,26.8259,35.2542,69.1809,1.35095,0.203857,0.460647,8.11129,2.76405,2.82612,3.11567,1.39268,1.09572,1.27736,7.67427,2.14841,171.415,156.096
540,25.1623,26.2598,35.5536,68.6306,3.30305,0.781092,1.75949,7.30893,1.86536,2.82612,3.11567,1.39268,1.09572,1.27736,7.67427,2.16918,170.477,156.809
544,19.8598,26.8095,35.5748,68.5779,4.02465,1.0773,1.2202,7.30893,2.76405,2.82612,2.25342,1.76763,0.812878,1.27736,5.75724,2.12765,169.917,157.489
548,16.9805,25.6771,33.7772,66.8898,0.819253,1.57859,0.901189,7.30893,1.86536,3.64042,3.97791,1.76763,0.9543,1.27736,5.75724,2.14841,157.932,158.154
552,13.5338,25.2292,33.1078,65.7938,0.386297,2.68748,0.817638,7.30893,2.76405,3.64042,3.97791,1.01773,0.9543,1.11132,6.71575,2.00305,156.992,158.786
556,16.2363,25.4882,32.352,66.1189,1.4497,1.53302,3.88624,5.7042,1.86536,2.82612,2.25342,1.76763,0.9543,0.613177,4.79872,2.00305,139.402,159.404
560,11.9442,26.4267,33.5094,66.9946,1.25981,2.27734,2.89122,7.30893,1.86536,3.64042,4.84015,1.01773,0.812878,1.11132,6.71575,2.02381,142.67,159.979
564,12.52,26.8631,33.718,67.3824,1.8067,1.94316,2.91401,6.50656,2.76405,2.01181,3.97791,1.01773,0.812878,1.44341,5.75724,1.83692,162.391,160.578
568,7.77025,27.7681,35.2163,68.1897,1.7991,5.17111,4.91923,6.50656,2.76405,2.82612,3.97791,1.01773,0.812878,1.11132,6.71575,1.83692,160.802,161.215
572,4.87834,28.5539,35.6599,68.4413,0.614169,1.02414,0.7113,6.50656,1.86536,2.82612,3.11567,1.01773,0.812878,1.11132,6.71575,2.04458,147.039,161.824
576,3.65574,28.1286,34.6384,68.1738,2.46753,3.65207,1.9114,4.90183,1.86536,3.64042,3.11567,1.01773,0.671456,0.945271,5.75724,1.79539,135.6,162.404
580,0.0,26.3184,33.8517,67.4032,2.28523,2.3457,0.992336,5.7042,0.966664,2.82612,2.25342,1.01773,0.671456,0.779224,4.79872,1.81615,143.226,162.971
584,0.0,26.7658,34.5955,67.5446,3.76639,0.454499,0.430265,4.09947,1.86536,1.19751,3.11567,0.267823,0.530035,0.779224,5.75724,1.81615,118.246,163.473
588,0.0,24.2997,33.048,67.4973,0.902806,0.743116,1.18982,4.90183,0.966664,2.01181,3.97791,1.01773,0.671456,0.779224,3.8402,1.83692,106.592,163.909
592,0.0,24.2997,30.5321,64.6338,0.203999,-0.175902,1.7367,4.90183,0.966664,2.01181,2.25342,1.39268,0.671456,0.779224,6.71575,1.81615,119.844,164.345
596,0.0,23.1158,29.5057,62.7495,1.22942,0.211453,0.050488,7.30893,3.66275,2.82612,3.97791,1.01773,0.671456,0.945271,5.75724,1.67079,133.345,164.891
600,0.0,20.956,28.037,61.1322,0.393893,3.24193,0.832829,4.90183,1.86536,3.64042,3.11567,0.642776,0.812878,1.11132,5.75724,1.65003,123.507,165.423
604,0.0,19.6168,26.2912,59.4296,0.188808,0.393737,0.0428925,4.90183,2.76405,2.82612,1.39118,0.642776,0.671456,1.11132,4.79872,1.65003,105.942,165.885
608,0.0,18.3902,26.2047,59.2717,0.796466,1.04692,1.71391,4.90183,0.0679686,1.19751,0.528939,1.39268,0.388613,0.945271,5.75724,1.67079,112.532,166.32
612,0.0,19.0741,25.9027,58.1675,1.05472,1.98113,1.14425,4.09947,0.0679686,2.01181,3.11567,1.01773,0.671456,0.945271,4.79872,1.67079,104.912,166.751
616,0.0,19.1391,26.5335,58.2673,2.55867,1.19123,1.30375,5.7042,1.86536,2.82612,2.25342,1.01773,0.671456,0.779224,6.71575,1.67079,108.389,167.176
620,0.0,18.5692,26.8731,58.3778,0.462254,0.484879,1.9038,4.90183,2.76405,2.82612,3.11567,1.39268,0.812878,1.11132,5.75724,1.60849,93.8229,167.563
624,0.0,18.2866,25.3466,56.7414,0.447063,1.10768,4.01536,4.90183,1.86536,2.82612,2.25342,0.642776,0.812878,1.27736,4.79872,1.67079,96.937,167.956
628,0.0,18.7427,25.7243,56.5572,0.955976,0.902615,0.741683,4.09947,0.966664,2.01181,1.39118,1.01773,0.812878,0.945271,4.79872,1.4839,90.2287,168.336
632,0.0,19.5783,25.3844,56.1887,0.196404,0.408928,2.61019,4.90183,0.966664,2.01181,2.25342,1.01773,0.812878,1.11132,4.79872,1.4839,79.4414,168.669
636,0.0,17.3195,24.4987,55.6198,0.766083,1.18364,0.688514,4.90183,2.76405,4.45472,2.25342,1.01773,0.530035,1.27736,5.75724,1.4839,80.7256,168.99
640,0.0,17.4661,23.1691,54.4714,0.728104,0.796282,0.658132,4.09947,0.966664,1.19751,1.39118,0.642776,0.388613,0.945271,5.75724,1.4839,84.7633,169.315
644,0.0,16.5204,21.3182,53.1483,0.203999,1.73809,0.589772,3.29711,1.86536,1.19751,3.11567,1.01773,0.388613,0.779224,3.8402,1.4839,78.1667,169.643
648,0.0,14.9804,20.2775,51.8028,0.386297,0.621593,0.468243,5.7042,0.0679686,2.01181,1.39118,1.39268,0.388613,0.945271,2.88169,1.50466,74.8925,169.954
652,0.0,14.4032,19.6647,51.4649,0.705317,0.986162,0.331523,4.09947,0.966664,2.01181,1.39118,0.642776,0.530035,0.945271,5.75724,1.4839,64.0842,170.231
656,0.0,13.8176,18.343,50.0533,0.214805,-0.688979,0.705434,5.04958,0.658122,1.67798,3.10881,0.928144,0.57922,0.905143,3.76002,1.57182,53.4899,170.451
660,0.0,14.2397,18.704,49.6424,0.7357,0.613998,0.346714,4.09947,1.86536,1.19751,2.25342,1.01773,0.530035,1.11132,6.71575,1.50466,53.8435,170.659
664,0.0,14.1198,18.2044,48.9709,0.880019,0.917805,0.741683,2.49474,0.966664,1.19751,1.39118,0.642776,0.671456,0.779224,5.75724,1.4839,73.968,170.928
668,0.0,13.0082,17.7427,47.8547,0.264765,-0.0467838,0.103657,3.29711,0.0679686,2.82612,2.25342,1.01773,0.388613,0.779224,2.88169,1.50466,77.6937,171.241
672,0.0,12.6919,16.8567,47.1399,0.485041,1.44947,0.680918,2.49474,1.86536,2.01181,1.39118,0.642776,0.530035,0.945271,4.79872,1.3593,78.0376,171.567
676,0.0,11.841,15.1321,46.4619,0.279957,0.355761,1.48605,3.29711,0.966664,1.19751,2.25342,1.01773,0.388613,0.613177,4.79872,1.297,68.9046,171.872
680,0.0,10.657,15.932,46.7585,0.46985,1.18364,2.18484,2.49474,0.966664,1.19751,-0.333304,0.267823,0.530035,0.945271,3.8402,1.3593,67.4707,172.141
684,0.0,11.039,17.7587,47.4257,0.971168,0.462094,0.582176,4.09947,0.966664,2.01181,3.11567,0.267823,0.388613,0.779224,3.8402,1.297,61.4483,172.399
688,0.0,11.1863,17.1446,47.1238,0.0824679,0.591212,0.977145,3.29711,0.966664,0.383202,0.528939,1.01773,0.247191,0.779224,5.75724,1.3593,59.7205,172.645
692,0.0,10.8259,16.1765,45.8098,0.993955,0.978567,0.209994,2.49474,0.966664,2.01181,1.39118,0.642776,0.388613,0.613177,4.79872,1.3593,45.6267,172.861
696,0.0,10.4383,15.7521,44.5795,0.94838,0.249429,0.0277014,4.09947,1.86536,-0.431102,3.11567,0.642776,0.530035,0.779224,3.8402,1.297,35.8392,173.038
700,0.0,10.7384,15.7085,44.1656,0.439467,2.59634,1.65315,2.49474,0.0679686,1.19751,2.25342,0.642776,0.388613,0.613177,3.8402,1.31777,34.2717,173.17
704,0.0,11.8079,15.7085,43.6454,0.834444,0.917805,1.27337,2.49474,0.966664,1.19751,2.25342,1.01773,0.388613,0.945271,3.8402,1.33853,27.0659,173.298
708,0.0,10.9566,14.6307,42.8167,1.35855,1.05452,0.187208,2.49474,0.966664,1.19751,3.11567,0.642776,0.530035,0.779224,3.8402,1.297,20.6355,173.396
712,0.0,8.54309,14.1677,42.2534,0.188808,0.135501,0.316332,4.09947,1.86536,1.19751,1.39118,1.01773,0.388613,0.779224,5.75724,1.31777,19.9709,173.471
716,0.0,9.22582,13.1324,41.3174,0.105255,0.553236,0.240377,3.29711,0.0679686,1.19751,0.528939,0.642776,0.388613,0.447131,3.8402,1.15164,23.2288,173.571
720,0.0,8.45553,12.2491,40.9396,0.0368935,0.10512,0.0201059,3.29711,0.0679686,1.19751,1.39118,1.01773,0.530035,0.613177,3.8402,1.33853,26.001,173.674
724,0.0,8.06753,11.4417,40.7852,0.105255,0.583617,0.939167,3.29711,1.86536,1.19751,3.11567,0.267823,0.105769,0.779224,3.8402,1.33853,30.6256,173.787
728,0.0,7.21486,11.5834,39.9172,1.18385,0.826663,1.63796,3.29711,0.966664,0.383202,1.39118,-0.107129,0.247191,0.779224,3.8402,1.297,30.1357,173.909
732,0.0,7.5919,11.6543,39.8746,0.781274,0.91021,0.316332,2.49474,1.86536,1.19751,2.25342,0.642776,0.247191,0.779224,1.92317,1.33853,22.7992,174.019
736,0.0,6.47122,11.9487,39.8638,0.84204,0.355761,0.810043,3.29711,0.966664,1.19751,1.39118,0.642776,0.247191,0.613177,2.88169,1.33853,27.2989,174.119
740,0.0,6.85942,11.5724,39.3098,0.872423,0.446903,0.126443,2.49474,1.86536,1.19751,3.11567,0.642776,0.388613,0.613177,2.88169,1.1724,32.2858,174.234
744,0.0,6.72801,10.8301,38.3606,0.166021,0.00638251,0.35431,1.69238,1.86536,2.01181,1.39118,0.267823,0.671456,0.613177,4.79872,1.15164,32.9719,174.374
748,0.0,6.53113,10.4425,37.7204,0.0444892,0.0139777,0.91638,2.49474,0.966664,1.19751,1.39118,0.267823,0.388613,0.779224,2.88169,1.15164,28.751,174.49
752,0.0,6.44352,10.3168,36.9248,0.196404,0.226643,0.0277014,3.29711,0.0679686,1.19751,1.39118,0.267823,0.247191,0.613177,3.8402,1.15164,24.3685,174.602
756,0.0,5.83117,9.39946,36.1021,0.340722,0.00638251,-0.0406585,2.49474,1.86536,3.64042,2.25342,0.267823,0.247191,0.447131,1.92317,1.1724,37.3165,174.739
760,0.0,5.73246,8.6126,35.2945,0.226787,0.0367633,0.118848,2.49474,0.966664,2.01181,2.25342,0.642776,0.388613,0.779224,4.79872,1.19317,32.4074,174.877
764,0.0,6.30655,8.53612,34.8826,0.279957,0.10512,0.103657,2.49474,0.0679686,1.19751,2.25342,0.642776,0.247191,0.779224,3.8402,1.1724,27.2806,174.993
768,0.0,6.07693,8.1154,34.508,0.105255,0.363356,0.202399,3.29711,0.966664,2.01181,1.39118,-0.857034,0.388613,0.613177,2.88169,1.19317,24.2346,175.097
772,0.0,5.77074,8.1154,34.1333,0.507828,0.636783,0.954358,3.29711,1.86536,1.19751,0.528939,0.267823,0.388613,0.613177,3.8402,1.297,18.5859,175.18
776,0.0,5.7103,8.16976,33.5868,0.454658,1.38111,0.240377,3.29711,0.0679686,1.19751,2.25342,0.642776,0.388613,0.613177,1.92317,1.19317,10.0477,175.236
780,0.0,4.51255,8.96179,33.8384,0.781274,1.13807,0.156826,3.29711,0.966664,2.01181,1.39118,0.642776,0.247191,0.447131,2.88169,1.15164,6.30702,175.275
784,0.0,4.88983,8.30614,33.608,0.0444892,0.0139777,0.946762,2.49474,0.0679686,2.01181,1.39118,0.267823,0.247191,0.447131,3.8402,1.15164,6.47275,175.296
788,0.0,3.93274,7.92365,33.3455,-0.031468,0.948186,0.878402,3.29711,1.86536,2.01181,2.25342,0.267823,0.105769,0.613177,2.88169,1.1724,14.0436,175.34
792,0.0,4.11863,7.61208,33.115,-0.0542552,0.165881,0.050488,1.69238,1.86536,1.19751,1.39118,0.642776,0.247191,0.281084,3.8402,1.15164,17.906,175.402
796,0.0,4.22794,7.18569,32.6218,0.0748721,0.0747392,0.346714,2.49474,0.966664,2.01181,1.39118,0.642776,0.388613,0.613177,2.88169,1.1724,16.9569,175.478
800,0.0,3.71915,7.25114,32.3482,-0.0010851,0.067144,0.384692,2.49474,1.86536,0.383202,1.39118,1.01773,0.530035,0.613177,3.8402,1.15164,18.8264,175.545
804,0.0,3.74635,7.2018,31.9994,0.052085,0.211453,0.430265,2.49474,-0.830727,1.19751,2.25342,0.642776,0.105769,0.779224,4.79872,1.1724,24.6408,175.627
808,0.0,3.07885,7.14693,31.7202,0.105255,-0.0239982,0.202399,2.49474,0.966664,2.82612,1.39118,-0.107129,0.105769,0.779224,1.92317,1.1724,25.6245,175.713
812,0.0,2.77809,6.92289,31.3123,0.128042,0.203857,0.339119,1.69238,0.966664,1.19751,0.528939,0.642776,0.388613,0.447131,3.8402,1.15164,26.6744,175.813
816,0.0,3.12268,6.99942,31.0492,0.819253,0.598807,0.415074,2.49474,0.966664,0.383202,1.39118,0.267823,0.388613,0.779224,3.8402,1.19317,24.5315,175.91
820,0.0,2.9529,7.02107,30.6194,0.105255,0.12031,0.172017,3.29711,1.86536,0.383202,2.25342,0.267823,0.388613,0.613177,3.8402,1.1724,27.9239,176.013
824,0.0,3.05669,6.66561,29.8938,0.112851,0.143096,0.118848,3.29711,-0.830727,2.01181,0.528939,0.267823,0.247191,0.447131,3.8402,1.27624,33.0407,176.138
828,0.0,3.55442,6.66561,29.5551,-0.0466594,0.143096,0.0428925,2.49474,0.966664,1.19751,1.39118,0.642776,0.247191,0.613177,4.79872,1.00628,25.6835,176.251
832,0.0,3.6582,6.31011,29.1677,0.112851,0.0975248,0.0125103,3.29711,0.966664,1.19751,2.25342,0.267823,0.105769,0.779224,3.8402,1.13087,28.5216,176.355
836,0.0,3.00732,5.69772,28.9041,-0.0466594,0.0367633,0.0732747,2.49474,1.86536,2.01181,0.528939,0.267823,0.247191,0.613177,3.8402,1.00628,25.6829,176.476
840,0.0,2.60782,5.26004,28.6241,0.0141063,0.00638251,-0.0178719,3.29711,0.966664,-0.431102,0.528939,0.267823,0.388613,0.613177,3.8402,1.15164,23.1418,176.581
844,0.0,2.4985,5.26558,28.4034,0.0596807,0.0747392,0.111252,2.49474,1.86536,0.383202,2.25342,0.642776,0.247191,0.613177,3.8402,1.13087,21.6738,176.688
848,0.0,2.48188,4.90443,27.6709,0.052085,0.0139777,0.103657,2.49474,0.966664,1.19751,2.25342,0.642776,0.388613,0.779224,1.92317,1.13087,23.3307,176.774
852,0.0,2.17558,4.7513,27.7086,0.00651062,0.12031,0.0201059,2.49474,0.966664,0.383202,1.39118,1.01773,0.388613,0.779224,2.88169,1.15164,20.9117,176.862
856,0.0,2.3504,4.31355,27.0887,0.0141063,0.0291681,0.050488,1.69238,0.0679686,1.19751,1.39118,0.267823,0.388613,0.613177,4.79872,1.08934,22.6888,176.95
860,0.0,2.07131,3.84304,26.7759,-0.0390637,0.0595488,-0.0482541,3.29711,0.966664,2.01181,2.25342,0.642776,0.105769,0.779224,3.8402,1.15164,23.501,177.04
864,0.0,2.23553,4.04555,26.3339,0.0217021,0.0291681,0.0125103,2.49474,0.966664,1.19751,-0.333304,1.39268,0.247191,0.613177,1.92317,1.1724,26.7275,177.14
868,0.0,3.1761,4.29694,26.3175,0.00651062,-0.054379,-0.00268078,2.49474,0.966664,1.19751,3.11567,-0.107129,0.105769,0.779224,3.8402,1.15164,26.6069,177.255
872,0.0,3.32371,4.25311,26.01,0.0141063,0.10512,0.0580836,2.49474,0.966664,0.383202,0.528939,0.642776,0.247191,0.613177,3.8402,1.15164,25.7119,177.355
876,0.0,3.19223,3.77705,25.5403,-0.0162766,0.067144,0.0808702,2.49474,1.86536,1.19751,0.528939,0.642776,0.388613,0.447131,3.8402,1.19317,26.5899,177.462
880,0.0,2.88039,4.03952,25.4592,-0.0010851,0.887424,0.172017,1.69238,0.966664,2.82612,0.528939,1.01773,0.247191,0.447131,1.92317,1.1724,18.7608,177.555
884,0.0,2.33883,3.72769,25.3026,0.166021,0.067144,0.232781,2.49474,0.966664,1.19751,2.25342,0.267823,0.105769,0.779224,2.88169,1.1724,17.5621,177.626
888,0.0,2.44261,3.67832,24.8759,0.0141063,0.00638251,0.0428925,0.890017,0.966664,2.01181,1.39118,0.267823,0.247191,0.447131,3.8402,1.1724,18.249,177.687
892,0.0,3.06075,3.569,24.7301,-0.0542552,0.0443585,0.0580836,2.49474,0.966664,0.383202,0.528939,0.642776,0.105769,0.447131,2.88169,1.1724,15.698,177.746
896,0.0,2.47536,3.44305,24.0384,-0.0694466,0.0139777,0.172017,2.49474,0.966664,1.19751,0.528939,0.267823,0.530035,0.613177,1.92317,1.1724,22.3835,177.825
900,0.0,1.88444,3.23499,24.0598,0.0292978,-0.0164031,-0.00268078,1.69238,0.0679686,-0.431102,2.25342,0.642776,-0.0356525,0.779224,3.8402,1.13087,21.0654,177.916
904,0.0,1.65472,3.27328,24.0598,0.31034,0.0823344,-0.0178719,1.69238,0.0679686,-0.431102,0.528939,0.267823,0.388613,0.613177,2.88169,1.21394,21.0891,178.003
908,0.0,1.68193,3.18563,23.6704,-0.031468,0.0367633,-0.0406585,1.69238,-0.830727,1.19751,0.528939,0.642776,0.247191,0.447131,3.8402,1.19317,16.4897,178.076
912,0.0,1.62703,3.16901,23.7297,0.0444892,0.10512,0.225186,3.29711,0.966664,2.01181,1.39118,0.642776,0.247191,0.613177,2.88169,0.98551,18.2942,178.145
916,0.0,0.779261,2.93374,24.0269,0.0141063,0.727926,0.0201059,2.49474,0.966664,2.01181,-0.333304,0.267823,0.105769,0.447131,1.92317,1.19317,17.0866,178.226
920,0.0,0.7027,3.0869,23.6485,0.0368935,0.0595488,-0.00268078,1.69238,-0.830727,1.19751,1.39118,0.642776,0.247191,0.447131,3.8402,1.15164,14.7687,178.292
924,0.0,0.352652,3.00478,23.9458,0.0596807,0.0215729,0.050488,2.49474,2.76405,-0.431102,2.25342,0.267823,0.388613,0.447131,2.88169,1.1724,17.7766,178.36
928,0.0,0.06257,3.13578,23.3183,-0.0466594,-0.0164031,0.0732747,1.69238,1.86536,2.01181,0.528939,0.642776,0.105769,0.613177,2.88169,1.1724,19.0468,178.432
932,0.0,0.94298,3.17407,23.1669,0.834444,1.11528,0.369501,0.890017,0.966664,1.19751,1.39118,-0.107129,0.247191,0.613177,2.88169,1.02704,12.1361,178.486
936,0.0,0.450875,3.44763,23.6645,0.112851,0.0519536,1.0607,1.69238,1.86536,0.383202,1.39118,0.642776,0.247191,0.281084,4.79872,1.1724,9.08606,178.53
940,0.0,-0.513857,3.36551,23.4319,0.128042,0.287405,0.141635,1.69238,1.86536,2.82612,1.39118,0.642776,0.388613,0.613177,3.8402,0.943977,11.7645,178.568
944,0.0,0.0570335,2.74735,23.5778,0.150829,-0.00121268,0.118848,1.69238,0.0679686,1.19751,1.39118,1.01773,0.247191,0.613177,3.8402,1.1724,7.41884,178.597
948,0.0,-0.0529272,2.56097,23.2421,-0.00868083,0.241833,0.0656791,1.69238,0.966664,1.19751,1.39118,-0.107129,0.247191,0.281084,2.88169,1.19317,10.2679,178.634
952,0.0,-1.16926,2.98215,23.1285,-0.00868083,0.0291681,0.0125103,1.69238,1.86536,2.01181,0.528939,1.01773,0.530035,0.613177,3.8402,0.98551,12.5505,178.676
956,0.0,-0.206647,2.21637,22.5225,0.0824679,0.0291681,-0.0178719,1.69238,1.86536,2.01181,1.39118,1.01773,0.388613,0.281084,3.8402,0.98551,18.6014,178.741
960,0.0,0.0892938,2.12872,22.8146,-0.0010851,0.0367633,0.156826,0.890017,0.0679686,1.19751,1.39118,0.267823,0.105769,0.281084,2.88169,1.04781,14.5889,178.805
964,0.0,-0.993214,2.00832,22.2408,0.135638,0.158286,0.118848,1.69238,0.966664,0.383202,-0.333304,-0.107129,0.388613,0.779224,3.8402,1.1724,16.746,178.861
968,0.0,-1.01551,1.56501,22.3326,-0.0162766,0.0367633,-0.0786362,0.890017,1.86536,1.19751,0.528939,0.642776,0.105769,0.447131,3.8402,1.21394,26.6802,178.94
972,0.0,-1.05406,1.41187,21.9915,0.00651062,0.249429,0.134039,0.890017,0.966664,-0.431102,0.528939,-0.107129,0.247191,0.447131,3.8402,1.15164,28.8541,179.05
976,0.0,-1.25804,1.32422,21.6773,0.36351,0.234238,0.0201059,1.69238,0.966664,1.19751,1.39118,0.267823,-0.0356525,0.281084,3.8402,1.15164,29.3396,179.167
980,0.0,-1.03224,1.12726,21.5959,0.0748721,0.0823344,0.164421,2.49474,1.86536,2.01181,0.528939,0.267823,0.105769,0.613177,3.8402,1.21394,33.0019,179.279
984,0.0,-1.62219,1.30761,21.4333,0.0217021,0.135501,0.050488,0.890017,1.86536,1.19751,2.25342,0.642776,0.247191,0.447131,2.88169,0.98551,32.5048,179.408
988,0.0,-0.630765,1.60283,22.029,0.0292978,0.0139777,0.0352969,1.69238,0.966664,1.19751,1.39118,0.267823,0.247191,0.447131,2.88169,0.943977,30.5752,179.533
992,0.0,-0.476815,1.33483,21.3465,0.0292978,0.0215729,0.111252,0.0876532,0.966664,0.383202,-0.333304,0.267823,0.105769,0.613177,3.8402,1.02704,30.9181,179.655
996,0.0,-0.103417,1.2089,21.0321,-0.0162766,0.0139777,-0.0178719,1.69238,1.86536,0.383202,1.39118,0.267823,0.247191,0.613177,2.88169,0.98551,35.1156,179.789
1000,0.0,-0.537556,1.27439,20.8314,0.143234,0.0139777,0.118848,0.890017,0.0679686,0.383202,0.528939,0.267823,0.105769,0.447131,1.92317,1.19317,39.2971,179.931
1004,0.0,-0.0159378,1.14293,20.9667,0.196404,0.257024,0.301141,1.69238,0.966664,2.01181,0.528939,0.267823,0.105769,0.613177,2.88169,1.02704,36.0361,180.083
1008,0.0,-0.131204,1.18122,20.9288,0.211595,0.0595488,0.620154,1.69238,0.966664,1.19751,0.528939,0.642776,0.388613,0.945271,2.88169,1.00628,34.0508,180.219
1012,0.0,0.361345,1.17568,21.0371,0.0824679,0.112715,0.0808702,2.49474,0.966664,1.19751,0.528939,0.267823,0.247191,0.779224,2.88169,1.1724,25.3808,180.345
1016,0.0,-0.0381587,1.0825,20.8689,0.0141063,0.264619,0.164421,0.890017,0.966664,1.19751,2.25342,0.642776,0.105769,0.613177,4.79872,0.98551,24.2221,180.442
1020,0.0,-0.543594,1.19182,20.7875,0.052085,0.492475,0.825234,1.69238,0.966664,0.383202,0.528939,0.642776,0.105769,0.447131,1.92317,0.964743,20.1305,180.529
1024,0.0,-0.395253,1.33942,20.6682,0.120446,0.431713,0.118848,1.69238,0.966664,1.19751,-0.333304,1.01773,0.247191,0.613177,2.88169,1.00628,13.0653,180.604
1028,0.0,-1.40823,1.25178,20.5434,-0.0010851,0.112715,0.0656791,2.49474,1.86536,0.383202,1.39118,1.01773,0.105769,0.281084,3.8402,1.00628,12.6835,180.663
1032,0.0,-1.21531,0.830661,20.1638,0.112851,0.0215729,0.0732747,0.890017,0.966664,0.383202,0.528939,0.642776,0.247191,0.779224,2.88169,1.1724,10.4771,180.714
1036,0.0,-0.153903,0.814055,19.7676,0.0368935,0.0519536,-0.0406585,1.69238,0.966664,1.19751,0.528939,0.642776,0.247191,0.613177,2.88169,1.02704,11.2183,180.759
1040,0.0,-0.472665,0.649858,19.3388,-0.031468,-0.0239982,0.0808702,1.69238,1.86536,0.383202,0.528939,0.642776,0.247191,0.779224,3.8402,1.00628,12.5096,180.797
1044,0.0,-0.3188,0.573296,19.3388,0.00651062,0.0595488,0.0884658,2.49474,1.86536,1.19751,1.39118,0.267823,0.388613,0.613177,2.88169,1.02704,12.3914,180.845
1048,0.0,-0.835872,0.365293,19.0944,0.0672764,0.0899296,0.863211,2.49474,0.966664,0.383202,1.39118,0.642776,0.105769,0.779224,1.92317,1.00628,7.78768,180.884
1052,0.0,-1.26551,0.244924,19.1269,0.0976593,0.0747392,0.0428925,0.890017,0.966664,1.19751,1.39118,0.267823,0.247191,0.447131,3.8402,0.98551,10.6617,180.921
1056,0.0,-1.07826,0.239389,19.1594,0.181212,0.127906,0.225186,1.69238,0.966664,2.01181,0.528939,0.642776,0.247191,0.281084,2.88169,1.15164,6.96229,180.956
1060,0.0,-0.973758,0.304877,19.0344,-0.00868083,0.598807,0.14923,2.49474,0.0679686,0.383202,2.25342,0.642776,0.247191,0.779224,2.88169,1.00628,7.89732,180.982
1064,0.0,-1.062,0.0641443,19.0994,0.0672764,0.067144,0.0884658,2.49474,0.966664,2.01181,1.39118,0.267823,0.247191,0.447131,2.88169,0.98551,8.32673,181.016
1068,0.0,-1.15027,-0.100403,19.0884,-0.0010851,0.127906,0.103657,1.69238,0.966664,1.19751,0.528939,0.267823,0.247191,0.613177,3.8402,1.25547,9.77984,181.054
1072,0.0,-1.46451,-0.0675341,19.0829,0.0900636,0.0443585,0.0732747,0.890017,0.966664,1.19751,0.528939,0.642776,0.247191,0.613177,3.8402,1.19317,20.9547,181.112
1076,0.0,-1.46451,-0.413551,18.6649,0.0824679,-0.0164031,0.0808702,1.69238,0.0679686,1.19751,1.39118,0.642776,0.105769,0.613177,2.88169,1.15164,20.524,181.195
1080,0.0,-1.56406,-0.512755,18.8329,0.0368935,-0.00880787,0.0428925,0.890017,0.966664,0.383202,1.39118,0.267823,0.105769,0.779224,3.8402,1.02704,19.2767,181.277
1084,0.0,-1.52545,-0.628228,18.3768,0.00651062,0.0975248,0.0428925,1.69238,1.86536,2.01181,0.528939,1.01773,0.105769,0.613177,2.88169,1.13087,16.5022,181.342
1088,0.0,-1.42638,-0.221728,18.3223,0.120446,0.173477,0.0201059,2.49474,0.966664,0.383202,0.528939,0.642776,0.247191,0.613177,3.8402,0.98551,16.0592,181.408
1092,0.0,-0.660941,-0.227285,18.4308,-0.00868083,0.067144,0.0125103,2.49474,0.966664,2.01181,1.39118,0.267823,0.247191,0.613177,2.88169,1.15164,15.7484,181.478
1096,0.0,-1.16188,-0.304185,18.3928,0.0368935,0.0139777,0.0277014,0.890017,0.966664,1.19751,1.39118,0.642776,0.105769,0.779224,1.92317,1.1724,19.8948,181.552
1100,0.0,-1.74648,0.150846,18.8435,0.052085,0.0215729,0.0277014,2.49474,0.966664,1.19751,0.528939,0.267823,0.247191,0.447131,2.88169,0.98551,22.2051,181.632
1104,0.0,-2.10556,0.0632261,18.5664,-0.0010851,0.0139777,-0.0178719,2.49474,1.86536,2.01181,1.39118,-0.107129,0.388613,0.779224,4.79872,1.00628,24.4758,181.738
1108,0.0,-1.5701,0.2108,18.5609,0.00651062,0.826663,0.225186,0.890017,1.86536,2.01181,1.39118,0.642776,0.105769,0.447131,3.8402,0.98551,26.709,181.843
1112,0.0,-1.39382,-0.150865,18.1262,0.0444892,0.127906,0.134039,2.49474,0.0679686,0.383202,0.528939,0.642776,0.247191,0.447131,1.92317,1.00628,30.6149,181.955
1116,0.0,-1.3278,-0.469631,18.1152,0.0900636,0.302595,0.240377,0.890017,0.0679686,0.383202,-0.333304,0.642776,0.247191,0.613177,3.8402,1.00628,40.6202,182.103
1120,0.0,-1.6036,-0.244417,18.0717,0.0976593,0.112715,0.00491476,0.890017,1.86536,1.19751,2.25342,0.267823,0.247191,0.447131,3.8402,1.02704,43.5419,182.254
1124,0.0,-2.42117,0.0189614,18.5985,-0.0162766,0.249429,0.323928,1.69238,0.966664,-0.431102,0.528939,0.642776,0.247191,0.613177,3.8402,1.06857,43.7946,182.426
1128,0.0,-1.86333,0.0351061,18.1963,0.219191,0.370952,0.0580836,1.69238,0.966664,1.19751,3.11567,0.267823,0.388613,0.945271,2.88169,0.964743,41.3411,182.594
1132,0.0,-2.25004,-0.0800186,18.0062,0.325531,0.287405,0.118848,0.890017,1.86536,0.383202,1.39118,0.267823,0.105769,0.281084,4.79872,1.00628,37.1914,182.741
1136,0.0,-1.17953,-0.206428,17.7289,0.355914,0.0975248,0.0884658,1.69238,2.76405,0.383202,1.39118,0.267823,0.247191,0.281084,1.92317,1.19317,37.1515,182.886
1140,0.0,-0.684123,-0.558179,17.6474,-0.0010851,-0.00880787,0.369501,2.49474,0.0679686,2.01181,0.528939,-0.107129,0.105769,0.613177,2.88169,1.19317,35.4716,183.026
1144,0.0,-1.38916,-0.954466,17.4461,0.143234,-0.00880787,0.0277014,1.69238,0.966664,1.19751,1.39118,0.267823,0.388613,0.945271,3.8402,1.02704,44.8772,183.181
1148,0.0,-1.4059,-0.971178,17.3535,-0.0238723,0.0215729,-0.033063,2.49474,0.966664,1.19751,0.528939,0.642776,0.105769,0.447131,2.88169,0.964743,43.9725,183.37
1152,0.0,-1.72039,-1.0153,17.1197,0.0824679,-0.0391886,-0.033063,1.69238,0.0679686,1.19751,1.39118,0.267823,0.530035,0.779224,2.88169,0.98551,48.6765,183.57
1156,0.0,-1.96345,-1.18068,16.9945,-0.031468,0.00638251,-0.0102763,1.69238,0.966664,1.19751,0.528939,0.267823,0.105769,0.613177,2.88169,1.02704,47.9584,183.772
1160,0.0,-2.20108,-0.877848,17.2935,0.00651062,-0.0315934,0.164421,1.69238,0.966664,0.383202,1.39118,-0.107129,0.247191,0.281084,2.88169,0.98551,47.6334,183.955
1164,0.0,-2.12371,-0.723763,17.3696,0.00651062,0.0291681,0.103657,1.69238,0.966664,0.383202,2.25342,0.642776,0.388613,0.613177,2.88169,1.00628,0.0,184.132
1168,0.0,-1.94714,-0.817499,17.3912,0.0672764,-0.0164031,0.0352969,2.49474,1.86536,2.01181,0.528939,0.267823,-0.0356525,0.613177,3.8402,1.00628,0.0,184.132
1172,0.0,-1.99698,-0.482116,17.3421,-0.0618509,0.0899296,-0.0406585,1.69238,0.0679686,1.19751,1.39118,0.642776,0.247191,0.447131,4.79872,1.1724,0.0,184.132
1176,0.0,-1.99698,-0.366702,17.228,0.052085,-0.0999501,0.0125103,1.69238,1.86536,1.19751,-0.333304,0.642776,0.247191,0.613177,1.92317,1.00628,0.0,184.132
1178,0.0,-2.15167,-0.366702,17.266,-0.0770423,0.0139777,-0.0254674,2.49474,0.966664,1.19751,1.39118,0.267823,0.105769,0.779224,3.8402,0.98551,0.0,184.132