File: 01_Data/Barrel_Chair/Furniture_Calorimeter/Barrel_Chair_R1.csv
Time (s),Convective HRR,TCPlume1,TCPlume2,TCPlume3,DPPlume1,DPPlume2,DPPlume3,HF1,HF2,HF3,HF4,HF5,HF6,RAD2,RAD1,Load Cell,Heat Release Rate,Total Heat Released
-119,0.0,-13.9485,-13.5822,10.8895,0.0346957,-0.0753726,0.363363,-0.87716,-0.175169,0.973025,-0.518807,0.152523,-0.195354,0.613177,3.8402,9.64498,0.0,0.0
-114,0.39725,-13.8355,-13.6274,11.1515,0.0802701,-0.0449918,0.0595414,-0.0747966,0.723526,0.15872,-0.518807,0.152523,-0.053932,0.447131,0.964651,9.66574,0.0,0.0
-109,3.57176,-13.6945,-13.5655,10.9439,-0.102027,-0.0601822,-0.00122301,-0.0747966,-0.175169,-1.46989,0.343436,-0.222429,0.0874897,0.613177,1.92317,9.64498,0.0,0.0
-104,4.90001,-14.3331,-13.6898,11.244,-0.0716444,0.0157697,0.082328,-0.0747966,0.723526,0.973025,0.343436,-0.222429,-0.195354,0.613177,3.8402,9.64498,0.0,0.0
-99,3.585,-14.7461,-13.3908,11.2274,0.0346957,0.0537456,0.295003,-0.0747966,-0.175169,-0.655584,1.20568,0.527475,-0.195354,0.613177,2.88169,9.47885,6.79679,0.0
-94,2.08049,-15.3857,-13.357,11.5275,0.0119085,-0.0146111,0.340577,-1.67952,0.723526,0.15872,-0.518807,0.152523,0.228912,0.613177,2.88169,9.54115,13.9361,0.0
-89,1.31907,-14.1358,-13.809,10.9379,0.0422914,-0.0677774,-0.198707,-0.87716,0.723526,-0.655584,-1.38105,0.152523,0.0874897,0.613177,1.92317,9.45808,12.8692,0.0
-84,2.35554,-14.2545,-13.7694,10.9379,-0.0032829,0.0233649,0.0899235,-0.0747966,-0.175169,0.15872,1.20568,0.527475,-0.053932,0.281084,2.88169,9.60344,11.0222,0.0
-79,3.28267,-13.475,-13.4646,11.0032,-0.0336658,0.000579294,-0.168325,-0.87716,0.723526,-0.655584,0.343436,0.152523,-0.053932,0.613177,2.88169,9.64498,9.6212,0.0
-74,2.54079,-13.6051,-13.7132,10.8775,0.0271,0.0157697,-0.0543918,-0.0747966,-1.07386,0.15872,0.343436,-0.597382,-0.195354,0.613177,3.8402,9.66574,15.8607,0.0
-69,0.8199,-13.3227,-13.4703,10.9977,0.0802701,0.122102,-0.084774,-0.0747966,0.723526,-1.46989,1.20568,0.527475,-0.195354,0.613177,2.88169,9.49961,18.3475,0.0
-64,0.0,-13.3003,-13.5665,11.0957,-0.0032829,0.0233649,-0.0543918,0.727567,-0.175169,0.15872,-0.518807,-0.222429,0.0874897,0.779224,2.88169,9.45808,20.0306,0.0
-59,0.63822,-13.2385,-13.3466,11.041,-0.0336658,0.0613408,-0.0164141,-0.0747966,-0.175169,0.15872,0.343436,-0.222429,0.228912,0.447131,2.88169,9.66574,24.3184,0.0
-54,1.49145,-13.707,-13.4199,10.8936,-0.0184743,-0.0146111,-0.183516,-0.0747966,-0.175169,-0.655584,0.343436,0.152523,0.0874897,0.779224,3.8402,9.62421,24.8944,0.0
-49,1.23065,-14.2779,-13.5161,10.7624,0.0802701,0.000579294,-0.153134,-0.87716,-0.175169,0.15872,0.343436,0.152523,0.0874897,0.281084,1.92317,9.68651,23.3606,0.0
-44,3.23859,-13.8032,-13.437,10.877,-0.0412615,-0.0070159,-0.153134,-0.87716,-1.07386,-0.655584,1.20568,-0.222429,0.0874897,0.779224,2.88169,9.62421,20.1717,0.0
-39,0.73453,-14.2555,-13.0196,11.4336,-0.0488572,-0.0070159,0.370959,0.727567,-1.97256,0.15872,1.20568,0.152523,-0.195354,0.447131,2.88169,9.47885,15.8714,0.0
-34,0.185,-14.1144,-13.2343,10.9967,-0.0260701,0.0917216,0.0215636,1.52993,-0.175169,-0.655584,0.343436,-0.597382,0.0874897,0.447131,1.92317,9.49961,14.4825,0.0
-29,2.59173,-14.4424,-13.2062,11.1385,0.0954615,-0.0298015,0.0519458,-0.0747966,1.62222,-0.655584,0.343436,0.527475,-0.195354,0.281084,3.8402,9.47885,10.0032,0.0
-24,4.05456,-13.6513,-13.3247,10.871,-0.0108786,0.000579294,0.158283,-0.0747966,-0.175169,0.973025,0.343436,0.527475,0.228912,0.613177,3.8402,9.45808,3.08447,0.0
-19,4.66635,-13.7757,-13.4095,10.598,0.0119085,-0.0222063,-0.0164141,-0.0747966,-1.07386,-0.655584,0.343436,0.152523,-0.053932,0.281084,2.88169,9.66574,11.9378,0.0
-14,3.24291,-13.8662,-13.5395,10.7398,-0.0184743,0.068936,0.0139681,-0.0747966,0.723526,-0.655584,-0.518807,0.527475,-0.053932,0.613177,4.79872,9.62421,0.22419,0.0
-9,2.99786,-13.8776,-13.5114,10.4994,0.0422914,0.106912,-0.0771785,0.727567,-1.07386,-0.655584,-0.518807,-0.222429,0.0874897,0.447131,2.88169,9.66574,0.0,0.0
-4,1.85702,-12.8617,-13.2462,10.7941,0.00431283,-0.0146111,-0.168325,0.727567,-1.07386,-0.655584,-0.518807,0.527475,0.228912,0.613177,2.88169,9.47885,0.0,0.0
1,0.11795,-13.2566,-13.1672,10.6795,0.0574829,0.00817448,-0.221494,0.727567,-1.07386,-0.655584,-0.518807,-0.222429,0.0874897,0.613177,3.8402,9.66574,0.0,0.0
6,1.18014,-13.4261,-13.2576,10.5538,-0.0640487,0.0385552,-0.0164141,-0.0747966,-0.175169,0.15872,0.343436,0.527475,-0.053932,0.281084,4.79872,9.64498,0.0,0.0
11,0.0,-13.7538,-13.0716,10.6956,-0.056453,-0.0601822,-0.0392007,-0.0747966,-0.175169,-0.655584,0.343436,0.152523,-0.053932,0.613177,4.79872,9.45808,0.0,0.0
16,0.0,-13.8105,-13.2072,10.7936,0.0346957,0.152483,-0.0316052,-0.0747966,0.723526,0.15872,0.343436,0.902428,-0.053932,0.447131,3.8402,9.45808,0.0,0.0
21,1.91856,-13.771,-13.4443,10.6408,0.0271,0.00817448,-0.168325,-0.0747966,-0.175169,0.973025,-1.38105,-0.597382,-0.053932,0.281084,2.88169,9.45808,0.0,0.0
26,0.88838,-13.822,-13.3372,10.6679,-0.0260701,0.0233649,-0.0771785,-0.0747966,1.62222,-0.655584,1.20568,-0.222429,-0.053932,0.281084,2.88169,9.47885,0.0,0.0
31,2.21472,-13.63,-13.2639,10.8917,0.0498872,0.0157697,-0.0240096,-0.87716,-0.175169,0.15872,-0.518807,-0.222429,-0.053932,0.613177,2.88169,9.45808,0.0,0.0
36,2.0873,-13.5681,-13.4391,10.9133,-0.0032829,-0.0070159,-0.145538,0.727567,-0.175169,-0.655584,0.343436,-0.222429,-0.195354,0.613177,2.88169,9.43732,0.0,0.0
41,1.08234,-13.5343,-13.4053,10.9842,0.0346957,0.00817448,-0.145538,-0.0747966,-1.07386,0.973025,0.343436,0.527475,0.0874897,0.613177,2.88169,9.66574,0.22387,0.00117952
46,1.56181,-13.9016,-13.5353,10.9349,-0.0032829,0.0461504,-0.0164141,1.52993,-0.175169,-1.46989,0.343436,0.152523,0.0874897,0.779224,2.88169,9.47885,4.34152,0.012678
51,1.99403,-14.1842,-13.1459,11.3497,0.0271,0.0765312,0.143092,0.727567,-1.07386,-0.655584,0.343436,0.527475,-0.053932,0.613177,3.8402,9.62421,8.44975,0.049889
56,0.5823,-14.269,-13.1516,12.1081,0.0650786,0.190459,0.0443503,0.727567,0.723526,-1.46989,0.343436,0.152523,-0.053932,0.613177,3.8402,9.52038,15.2461,0.103188
61,1.02754,-13.5291,-12.5313,12.0588,0.148632,0.555028,0.887456,0.727567,-0.175169,-0.655584,0.343436,0.902428,-0.053932,0.447131,0.964651,9.47885,25.885,0.183261
66,0.0,-12.3501,-11.4722,12.5115,0.0954615,0.296792,0.196261,-0.0747966,1.62222,-0.655584,-1.38105,-0.597382,-0.053932,0.613177,3.8402,9.58268,28.1547,0.318403
71,0.51077,-11.4547,-10.4205,13.5309,0.353716,-0.0829678,0.689972,2.33229,0.723526,-0.655584,1.20568,-0.222429,0.0874897,0.613177,2.88169,9.49961,36.4202,0.468507
76,0.93185,-10.5998,-9.52766,14.1303,0.0878658,0.0765312,0.697567,1.52993,0.723526,0.15872,-0.518807,-0.222429,0.0874897,0.447131,4.79872,9.68651,50.4164,0.702354
81,3.20175,-11.0385,-9.80842,15.7638,0.247376,0.251221,0.773523,0.727567,-0.175169,0.15872,1.20568,0.152523,-0.053932,0.945271,3.8402,9.49961,65.7732,0.993892
86,4.54338,-9.97615,-9.33695,16.1447,0.262567,0.00817448,0.00637253,1.52993,-0.175169,-0.655584,-0.518807,0.527475,0.228912,0.613177,5.75724,9.47885,112.373,1.42901
91,7.39173,-9.6002,-9.03989,17.3844,0.270163,0.182864,0.8115,2.33229,1.62222,1.78733,2.06792,0.902428,0.370333,1.11132,3.8402,9.64498,133.794,2.02942
96,12.6135,-8.08686,-5.067,21.5085,1.8045,1.80064,1.55586,4.73938,0.723526,0.973025,1.20568,0.527475,0.511755,1.27736,5.75724,9.45808,134.969,2.70345
101,19.6039,-3.87127,1.07612,27.5593,0.657545,0.927192,0.500083,5.54175,0.723526,1.78733,0.343436,1.27738,0.653177,1.27736,7.67427,9.45808,182.452,3.4949
106,38.0677,-1.50827,1.15269,30.4215,0.680332,0.722122,1.12292,4.73938,1.62222,1.78733,0.343436,1.65233,0.653177,1.44341,6.71575,9.47885,212.493,4.49244
111,46.2002,0.977911,4.39604,34.24,0.467652,0.137293,0.105115,7.14648,2.52092,1.78733,0.343436,1.27738,0.653177,1.27736,7.67427,9.33348,236.402,5.56171
116,55.6074,4.63673,9.62117,40.7995,2.48052,4.48934,6.01445,8.7512,4.31831,4.23024,1.20568,1.65233,0.93602,1.44341,10.5498,9.16736,359.72,7.12194
121,71.2335,12.3606,18.7324,48.4499,4.2883,4.20072,2.97623,11.1583,2.52092,3.41594,2.93016,1.65233,1.36029,1.60946,11.5083,9.33348,378.76,8.96418
126,92.9004,16.5316,24.888,54.1201,0.961374,2.64371,2.30782,14.3677,4.31831,4.23024,2.93016,2.02728,1.36029,1.94155,14.3839,8.98046,442.238,11.0564
131,102.248,18.5854,26.6629,56.9587,0.923395,4.88429,3.28765,17.5772,5.217,5.85885,2.93016,3.90205,1.78455,2.27365,18.218,9.31272,473.769,13.2661
136,154.817,23.8126,31.1758,59.0888,0.247376,0.934788,0.196261,19.1819,3.41961,5.85885,4.65465,2.77719,1.78455,2.43969,18.218,8.85586,488.902,15.5933
141,165.455,27.2389,36.4496,63.8944,5.25296,5.66659,5.33845,19.1819,5.217,7.48746,4.65465,3.52709,2.20882,2.77179,21.0935,8.95969,499.1,18.0483
146,201.725,30.5845,40.4375,68.6615,1.58422,4.60326,1.19887,19.1819,6.1157,5.85885,5.51689,3.15214,2.20882,2.43969,19.1765,8.81433,502.892,20.597
151,228.851,32.9393,44.8147,70.9621,1.75892,3.34246,3.78136,21.589,7.01439,7.48746,7.24138,3.52709,2.35024,2.77179,23.0105,8.6482,545.651,23.1233
156,230.039,37.1532,51.0572,76.2637,5.14662,2.57535,2.52809,20.7867,5.217,6.67316,5.51689,3.90205,2.35024,2.60574,22.052,8.6482,647.657,26.0804
161,242.83,31.384,42.7924,73.9168,0.520822,0.851241,-0.0695829,19.9843,6.1157,9.11607,6.37914,3.15214,2.06739,2.77179,20.135,8.66897,581.864,29.0487
166,240.843,32.092,44.162,74.6449,3.88573,2.84118,4.20671,21.589,7.01439,9.11607,7.24138,4.65195,2.91593,3.26993,23.0105,8.50284,613.694,32.0016
171,251.203,38.1826,56.6485,92.3656,6.89363,3.70703,4.5713,23.9961,7.91309,9.11607,8.10362,4.65195,2.91593,2.77179,24.9276,8.46131,584.702,34.9075
176,300.893,52.5015,68.9888,104.866,4.03764,0.304387,1.75335,20.7867,7.01439,6.67316,6.37914,3.90205,2.49166,2.93783,21.0935,7.94216,550.389,37.7193
181,272.682,52.3115,74.8502,109.454,0.930991,1.64114,6.34865,17.5772,5.217,6.67316,7.24138,3.52709,2.63308,2.60574,18.218,8.17058,597.396,40.6262
186,295.227,49.4129,71.498,113.858,2.79954,3.32727,3.34082,22.3914,7.01439,6.67316,6.37914,4.277,2.63308,2.93783,23.0105,7.98369,675.295,43.7478
191,290.404,50.9341,73.1165,119.263,0.0271,8.36288,5.28528,22.3914,7.01439,8.30176,7.24138,5.0269,3.05735,3.10388,21.0935,7.85909,713.126,47.2595
196,277.7,56.5678,80.4385,132.169,2.55648,6.71473,5.55872,24.7985,8.81178,9.93037,8.10362,5.40186,3.34019,3.76807,23.9691,7.6722,840.843,51.3307
201,297.443,63.256,89.6094,138.789,4.27311,6.05395,2.70279,25.6008,8.81178,9.11607,8.96586,5.77681,3.90588,4.43225,23.9691,7.6722,882.049,55.6665
206,340.733,66.8797,92.2457,145.275,5.77706,12.0617,7.36646,28.0079,10.6092,9.93037,9.82811,5.77681,3.90588,4.10016,28.7616,7.50607,885.301,60.1114
211,358.754,75.4186,102.487,152.886,7.78233,5.28683,6.21193,32.8221,10.6092,12.3733,11.5526,7.27662,4.61299,4.76435,33.5542,7.29841,911.566,64.5159
216,423.703,80.0327,107.55,163.945,3.32364,1.231,7.85257,32.0197,9.71048,12.3733,10.6903,6.90167,5.03725,5.09644,30.6787,7.31917,869.294,68.9128
221,450.731,75.256,107.502,164.848,1.68297,2.88675,4.63206,29.6127,9.71048,11.559,10.6903,6.15176,4.61299,4.93039,30.6787,7.00768,825.585,73.2661
226,459.594,81.4837,116.26,174.872,6.17964,2.26395,2.3534,35.2292,11.5079,12.3733,12.4148,6.90167,4.89583,4.93039,34.5127,6.86232,892.235,77.5453
231,480.821,77.5496,106.523,170.626,9.70405,7.00334,1.8293,32.8221,10.6092,13.1876,12.4148,6.90167,5.3201,5.42853,34.5127,6.82079,816.671,81.88
236,461.171,75.8686,103.162,173.951,2.88309,1.36012,1.1533,30.415,11.5079,13.1876,14.1393,6.90167,4.33014,4.5983,29.7202,6.48853,859.654,86.3928
241,447.591,69.5465,96.3572,166.345,2.20707,3.58551,1.03177,31.2174,8.81178,11.559,12.4148,6.90167,5.46152,5.26249,32.5957,6.3224,722.185,90.42
246,474.34,65.7884,91.7772,162.786,1.78931,0.433505,1.60144,30.415,8.81178,11.559,12.4148,7.65157,5.60294,5.42853,32.5957,6.01091,750.098,94.1181
251,433.318,63.0085,87.525,163.901,3.38441,4.67162,0.500083,27.2056,7.01439,10.7447,9.82811,7.27662,5.3201,5.42853,27.8031,5.99014,723.715,97.6126
256,470.878,60.5671,82.0773,158.556,6.962,2.1804,5.46757,25.6008,7.91309,9.11607,10.6903,6.15176,4.33014,4.76435,24.9276,5.67865,690.143,101.098
261,402.954,64.7605,88.653,162.976,4.14398,8.38567,2.64203,28.8103,8.81178,10.7447,11.5526,6.52671,4.18872,4.5983,28.7616,5.51252,676.018,104.488
266,418.939,63.5642,85.5839,158.578,3.96168,9.13,8.24754,22.3914,6.1157,7.48746,8.96586,4.65195,3.62303,3.76807,21.0935,5.34639,650.014,107.8
271,416.142,65.5836,89.4768,159.605,6.05051,9.66166,8.55136,26.4032,7.91309,8.30176,10.6903,5.0269,3.48161,3.76807,25.8861,5.18026,619.564,110.958
276,392.063,61.9372,86.1973,160.012,0.482843,0.00817448,1.21406,24.7985,7.91309,8.30176,9.82811,5.0269,3.90588,4.10016,24.9276,5.1595,642.298,114.132
281,381.438,54.5708,77.7183,154.305,1.48548,2.48421,0.378554,19.1819,5.217,8.30176,8.10362,5.0269,3.48161,3.43597,19.1765,4.82724,581.381,117.192
286,372.362,53.7488,77.1944,152.51,4.35666,4.26148,5.90052,22.3914,5.217,6.67316,8.96586,3.90205,3.34019,3.60202,23.0105,4.88954,493.502,119.84
291,360.607,55.4871,77.603,150.354,4.80481,0.266411,0.500083,19.9843,4.31831,7.48746,7.24138,4.277,3.48161,3.43597,21.0935,4.70264,500.485,122.361
296,384.415,51.824,73.2664,146.252,1.53105,0.965168,0.370959,16.7748,5.217,5.85885,8.96586,3.52709,2.7745,3.10388,17.2594,4.47422,480.374,124.795
301,358.788,46.9301,66.6175,139.817,3.96168,1.37531,4.0472,17.5772,5.217,5.85885,7.24138,3.15214,2.49166,2.77179,16.3009,4.32885,479.557,127.219
306,314.169,41.9174,60.5204,134.654,4.2883,0.828455,3.68262,16.7748,4.31831,5.04455,5.51689,2.40224,2.06739,2.77179,16.3009,4.32885,436.09,129.449
311,316.381,38.2601,54.2556,129.126,1.0981,3.71463,3.94087,14.3677,3.41961,5.04455,6.37914,2.77719,2.20882,2.43969,13.4254,4.16272,396.142,131.569
316,295.855,35.9755,52.2575,123.577,2.47292,1.49683,0.553252,15.1701,2.52092,3.41594,6.37914,2.77719,2.49166,2.60574,15.3424,4.01736,383.183,133.66
321,296.885,34.6335,50.1198,119.026,2.49571,1.56519,0.173475,11.1583,4.31831,5.04455,6.37914,2.02728,1.78455,2.27365,10.5498,3.97583,369.967,135.512
326,270.79,32.4484,49.0364,116.705,3.49835,1.97533,5.0726,11.1583,3.41961,5.04455,5.51689,2.02728,1.64313,1.7755,11.5083,4.01736,378.154,137.418
331,252.705,35.8844,51.8722,117.253,2.79954,2.28673,0.644398,12.763,1.62222,5.04455,5.51689,2.02728,1.64313,2.27365,13.4254,3.83047,352.25,139.252
336,237.427,36.5521,53.0114,117.21,1.02214,3.36525,1.56346,7.94884,2.52092,4.23024,5.51689,2.40224,1.50171,1.94155,12.4669,3.66434,325.368,140.92
341,226.712,35.0557,49.5753,114.046,3.78698,3.13739,2.29263,9.55357,4.31831,3.41594,5.51689,2.40224,1.50171,1.7755,10.5498,3.70587,321.631,142.58
346,239.408,32.8394,45.087,110.103,0.148632,0.570218,0.424128,9.55357,3.41961,4.23024,3.79241,1.65233,1.36029,1.7755,10.5498,3.49821,316.213,144.124
351,222.574,29.6029,43.2618,107.465,3.01982,2.1804,6.45499,9.55357,2.52092,5.04455,4.65465,1.27738,1.21886,1.7755,9.5913,3.51897,322.104,145.654
356,215.539,28.9685,43.1557,107.545,1.83488,2.08926,2.96104,8.7512,3.41961,3.41594,3.79241,1.65233,1.50171,1.60946,10.5498,3.35285,326.684,147.307
361,214.468,26.4521,39.9355,104.355,1.59103,0.975736,-0.295248,7.51631,2.48593,3.91847,4.36052,1.87018,1.54868,1.91271,10.6832,3.33976,329.428,148.934
366,208.785,26.8307,40.3004,102.67,2.06275,3.73741,5.59669,8.7512,2.52092,2.60163,3.79241,1.65233,1.36029,1.60946,9.5913,3.35285,288.621,150.483
371,206.892,29.4682,41.6038,102.19,2.08554,1.48924,0.887456,7.94884,2.52092,1.78733,3.79241,1.65233,1.21886,1.60946,8.63279,3.16595,274.114,151.907
376,212.234,28.3708,40.0715,101.04,1.72854,1.85381,3.89529,8.7512,0.723526,4.23024,3.79241,2.02728,1.36029,1.60946,8.63279,3.18672,280.005,153.349
381,213.996,29.0056,41.593,99.2624,1.35635,0.349958,0.424128,7.94884,2.52092,3.41594,4.65465,1.65233,1.21886,1.60946,8.63279,2.99982,294.033,154.759
386,190.931,26.7443,36.3706,94.3971,1.69816,2.24876,0.45451,7.94884,2.52092,1.78733,4.65465,1.65233,0.93602,1.94155,8.63279,3.04135,275.341,156.114
391,182.778,23.6027,34.4191,92.1098,2.08554,3.66146,0.484892,7.14648,2.52092,1.78733,5.51689,1.65233,1.36029,1.60946,7.67427,3.02059,281.619,157.505
396,181.139,23.024,31.7829,89.4148,3.26288,1.11707,2.09515,7.94884,1.62222,2.60163,3.79241,1.65233,1.21886,1.60946,9.5913,2.87523,300.344,159.002
401,187.756,23.0185,31.4395,87.6457,0.39929,5.60583,2.0116,8.7512,2.52092,3.41594,3.79241,0.902428,1.07744,1.60946,8.63279,2.87523,268.649,160.394
406,173.659,21.3081,29.366,84.8127,2.38937,1.51962,5.86254,7.14648,2.52092,2.60163,5.51689,2.02728,1.07744,1.60946,8.63279,2.87523,275.399,161.754
411,175.798,25.3255,33.316,84.5978,1.93363,1.41328,2.92306,6.34411,2.52092,4.23024,3.79241,2.02728,1.21886,1.60946,9.5913,2.68833,270.697,163.14
416,187.452,27.3204,35.8573,86.1712,3.20971,4.48174,2.12553,8.7512,2.52092,2.60163,2.93016,1.65233,1.21886,1.60946,9.5913,2.66756,259.071,164.477
421,173.012,25.9889,33.7495,84.8388,0.285355,2.82599,3.73579,7.14648,3.41961,2.60163,3.79241,2.02728,1.07744,1.7755,9.5913,2.5222,247.804,165.721
426,170.829,25.4224,35.5471,86.6012,0.824651,5.55266,4.16873,7.94884,1.62222,4.23024,2.93016,1.27738,1.07744,1.7755,7.67427,2.54297,259.09,166.992
431,168.855,26.4364,35.9907,85.8615,0.604375,0.327172,3.35601,7.14648,1.62222,2.60163,4.65465,1.27738,1.36029,1.60946,7.67427,2.54297,266.045,168.319
436,162.008,26.4254,34.7822,83.1344,1.56144,0.684146,0.295003,7.14648,2.52092,0.973025,3.79241,1.65233,0.93602,1.60946,9.5913,2.37684,283.965,169.727
441,157.201,22.1469,31.9271,80.4141,2.38937,1.36012,0.45451,6.34411,3.41961,2.60163,2.93016,1.27738,1.36029,1.60946,7.67427,2.35607,267.122,171.094
446,167.399,24.0342,31.9968,78.7949,1.52346,1.47405,0.469701,7.14648,3.41961,2.60163,3.79241,1.65233,1.07744,1.44341,6.71575,2.21071,300.385,172.531
451,169.57,21.0745,29.7363,77.0659,2.97424,1.869,0.332981,6.34411,2.52092,4.23024,3.79241,1.65233,1.07744,1.44341,7.67427,2.18994,274.833,173.985
456,178.971,19.9798,28.8384,76.3745,3.2325,2.3323,3.94846,8.7512,1.62222,3.41594,4.65465,1.27738,1.21886,1.44341,7.67427,2.00305,293.564,175.402
461,168.683,21.4806,32.6936,78.7056,2.65522,2.06647,4.85233,8.7512,2.52092,4.23024,2.06792,2.02728,1.07744,1.7755,8.63279,2.06535,287.001,176.818
466,183.749,19.3178,30.7408,80.1727,0.148632,0.182864,0.8115,7.14648,2.52092,2.60163,3.79241,1.65233,1.21886,1.7755,8.63279,1.85769,286.447,178.262
471,162.073,17.8682,30.209,78.7736,0.657545,1.08669,2.42935,7.94884,2.52092,3.41594,3.79241,2.02728,1.07744,1.27736,7.67427,1.85769,278.588,179.694
476,171.15,16.8792,27.1207,76.6466,1.08291,3.14499,1.06215,6.34411,3.41961,0.973025,2.93016,1.27738,1.07744,1.27736,6.71575,1.91998,326.329,181.249
481,158.288,16.8246,27.6699,75.5672,0.86263,1.09429,5.45997,7.14648,3.41961,2.60163,3.79241,0.902428,1.21886,1.44341,7.67427,1.71232,274.041,182.73
486,160.795,16.9007,26.4251,73.807,0.558801,1.77026,0.203857,6.34411,-0.175169,3.41594,3.79241,1.65233,0.93602,1.60946,8.63279,1.65003,270.103,184.162
491,151.812,15.7206,25.7833,72.12,1.18925,1.231,2.02679,6.34411,1.62222,0.973025,3.79241,2.02728,1.07744,1.7755,9.5913,1.69156,288.748,185.618
496,183.142,17.6125,28.714,72.5495,1.22722,0.843645,1.61663,7.14648,2.52092,2.60163,2.93016,2.02728,1.21886,1.44341,7.67427,1.50466,299.837,187.102
501,146.555,18.7909,26.9802,71.5226,2.07035,2.02849,3.69021,9.55357,1.62222,3.41594,3.79241,1.65233,0.93602,1.27736,9.5913,1.58773,282.081,188.523
506,146.097,18.9049,26.6029,72.4028,2.48052,3.97286,1.06215,8.7512,2.52092,3.41594,3.79241,0.902428,1.07744,1.27736,7.67427,1.3593,269.715,189.902
511,155.026,18.8828,26.3168,72.9316,0.763885,2.40825,1.29002,7.94884,0.723526,3.41594,4.65465,1.65233,1.07744,1.60946,9.5913,1.3593,248.984,191.126
516,159.063,18.7689,27.2223,72.2348,1.67537,1.3829,0.674781,6.34411,2.52092,2.60163,2.93016,1.27738,1.21886,1.44341,6.71575,1.4216,268.96,192.465
521,151.844,18.0902,27.718,72.4235,1.78171,2.15002,-0.236685,7.14648,2.52092,2.60163,4.65465,0.527475,1.07744,1.27736,7.67427,1.33853,243.986,193.782
526,147.426,15.5295,25.0272,70.6157,0.687928,1.83102,1.36598,7.14648,1.62222,2.60163,3.79241,1.27738,0.93602,1.44341,8.63279,1.19317,216.752,194.925
531,132.757,15.4915,27.3677,71.6427,2.32101,0.889216,2.73317,6.34411,1.62222,2.60163,2.93016,1.65233,0.93602,1.27736,7.67427,1.1724,235.655,196.077
536,150.248,15.8994,25.5074,68.8808,0.687928,0.213245,0.872265,6.34411,1.62222,1.78733,2.06792,1.65233,0.653177,1.27736,7.67427,1.00628,216.97,197.201
541,142.534,14.8763,23.017,66.8678,2.78435,1.12467,-0.130347,6.34411,2.52092,1.78733,2.93016,1.27738,0.653177,1.27736,6.71575,1.00628,206.966,198.291
546,133.137,15.132,22.097,64.9848,2.97424,1.35252,0.363363,6.34411,2.52092,0.973025,3.79241,1.27738,0.653177,1.27736,6.71575,1.02704,205.233,199.314
551,140.426,14.0648,20.163,63.8829,2.42735,0.160078,2.61164,7.14648,1.62222,2.60163,2.93016,0.527475,0.653177,1.27736,6.71575,1.02704,207.075,200.351
556,130.736,15.8392,22.4215,65.3727,2.57926,0.874026,2.23187,3.93702,1.62222,0.973025,2.06792,1.27738,0.93602,1.11132,5.75724,0.819381,188.959,201.375
561,129.31,14.9304,20.9867,64.6804,0.786672,0.64617,3.24207,3.93702,0.723526,2.60163,2.93016,1.27738,0.794599,1.27736,6.71575,0.840147,188.917,202.298
566,119.008,14.1245,20.6018,63.9404,0.125844,0.289196,0.841883,5.54175,3.41961,2.60163,2.06792,1.27738,0.794599,1.27736,6.71575,0.840147,209.181,203.271
571,120.039,11.7914,17.1769,61.0685,0.961374,0.137293,0.765927,5.54175,1.62222,1.78733,2.93016,0.902428,0.653177,1.11132,7.67427,0.860913,201.112,204.311
576,114.534,11.1749,16.9051,60.2909,1.60701,0.691742,1.22926,5.54175,1.62222,2.60163,2.93016,0.902428,0.93602,1.44341,5.75724,0.860913,193.333,205.322
581,106.127,10.7547,16.2961,59.408,1.59182,0.760098,2.46733,5.54175,1.62222,1.78733,1.20568,1.27738,0.653177,0.945271,6.71575,0.71555,190.11,206.288
586,110.858,10.6401,16.1438,58.8192,1.31837,0.760098,1.63182,3.93702,1.62222,2.60163,2.06792,0.527475,0.511755,1.27736,6.71575,0.528655,190.366,207.26
591,112.751,8.7616,14.6906,57.7094,0.604375,-0.166515,0.24943,3.93702,0.723526,1.78733,2.06792,0.902428,0.794599,1.11132,7.67427,0.653252,176.638,208.129
596,108.702,6.53731,13.0453,56.2306,0.0878658,1.51962,2.5129,4.73938,-0.175169,1.78733,2.06792,0.527475,0.653177,0.945271,5.75724,0.694784,165.457,208.992
601,108.679,7.75056,12.1946,54.5977,0.710715,0.365148,-0.145538,3.93702,-0.175169,0.973025,2.93016,0.152523,0.228912,0.945271,5.75724,0.736316,164.27,209.814
606,104.252,4.30058,10.7378,53.5593,0.581588,0.403124,0.803905,3.13466,0.723526,1.78733,0.343436,0.152523,0.370333,1.27736,5.75724,0.694784,164.389,210.634
611,100.61,4.76553,9.78803,51.6075,1.52346,1.231,0.302599,3.93702,1.62222,0.973025,2.06792,0.902428,0.370333,0.945271,4.79872,0.528655,152.582,211.406
616,93.6176,5.82623,8.70644,50.0072,0.634758,0.729717,0.279812,3.93702,0.723526,0.973025,2.06792,0.527475,0.511755,0.945271,4.79872,0.507889,147.507,212.176
621,92.9262,4.44817,7.40594,48.8971,0.817055,1.53481,0.917838,4.73938,2.52092,1.78733,1.20568,0.902428,0.511755,0.779224,3.8402,0.528655,156.453,212.954
626,93.2324,3.63862,6.86472,47.8178,0.0650786,0.942383,-0.00122301,3.13466,0.723526,1.78733,1.20568,1.27738,0.511755,1.11132,5.75724,0.528655,155.683,213.76
631,85.9815,2.01945,7.12146,47.3995,-0.299516,3.31968,0.963411,3.13466,0.723526,1.78733,2.06792,0.527475,0.228912,1.27736,6.71575,0.528655,159.277,214.549
636,81.9195,2.28746,6.27959,45.8051,1.35635,0.82086,0.705163,2.33229,-0.175169,0.973025,2.06792,0.527475,0.511755,1.11132,4.79872,0.383292,157.428,215.394
641,80.8856,2.69752,6.53638,45.0892,0.839842,0.957573,2.77115,3.13466,0.723526,1.78733,1.20568,1.27738,0.511755,1.11132,6.71575,0.487123,145.387,216.168
646,79.5118,3.6547,7.03384,45.3119,0.536013,0.782884,0.895051,3.13466,-0.175169,1.78733,1.20568,0.527475,0.653177,0.945271,4.79872,0.34176,147.242,216.892
651,82.9312,3.45216,6.94621,44.5958,0.429673,1.99052,1.60903,3.13466,1.62222,0.15872,0.343436,0.527475,0.511755,0.779224,4.79872,0.362526,119.315,217.571
656,80.687,2.33627,7.17024,43.9589,0.589184,0.980359,0.158283,3.13466,1.62222,0.973025,2.06792,0.527475,0.511755,1.11132,4.79872,0.362526,123.079,218.202
661,78.3492,2.02689,5.49147,42.5439,0.125503,0.221668,0.646072,3.20075,1.12575,2.6652,2.24822,0.591904,0.652098,0.849387,4.78024,0.346576,122.922,218.829
666,83.6846,2.37456,5.67772,42.7693,0.437269,2.20318,0.492487,3.13466,1.62222,2.60163,1.20568,0.902428,0.370333,0.779224,5.75724,0.362526,117.649,219.434
671,74.6474,3.67077,7.24122,43.0243,1.06771,0.858836,0.667185,2.33229,0.723526,1.78733,2.93016,0.152523,0.370333,0.945271,5.75724,0.383292,115.51,220.014
676,73.8542,4.05363,7.20296,43.6191,0.573992,0.501862,1.44193,2.33229,-1.97256,1.78733,1.20568,0.527475,0.370333,0.945271,6.71575,0.196398,118.208,220.609
681,72.0546,3.16193,6.50308,43.0878,0.376503,0.866431,1.45712,3.13466,1.62222,0.973025,1.20568,0.527475,0.228912,0.945271,4.79872,0.196398,107.365,221.169
686,70.264,2.38508,5.76479,42.1099,0.148632,-0.0070159,0.0215636,3.13466,0.723526,0.973025,2.06792,0.527475,0.511755,0.945271,5.75724,0.175631,102.579,221.7
691,65.9695,1.28034,4.88991,41.3709,1.48548,0.471481,0.0595414,2.33229,-0.175169,1.78733,1.20568,0.902428,0.653177,1.11132,4.79872,0.196398,120.682,222.265
696,68.1025,0.432599,4.34839,40.136,0.619566,1.91457,0.697567,1.52993,1.62222,1.78733,2.06792,0.152523,0.228912,0.945271,3.8402,0.217164,117.167,222.832
701,64.5762,0.777115,3.88895,39.353,0.0726743,0.349958,2.29263,2.33229,0.723526,-0.655584,0.343436,0.152523,0.370333,0.945271,4.79872,0.175631,113.89,223.397
706,62.767,0.547435,3.88895,38.9426,0.832247,1.69431,0.59123,3.93702,0.723526,1.78733,0.343436,-0.222429,0.228912,0.945271,3.8402,0.196398,92.2078,223.914
711,66.8888,0.301108,3.1831,37.9184,1.6222,0.22084,0.0139681,2.33229,0.723526,0.973025,1.20568,0.527475,0.511755,0.779224,5.75724,0.217164,86.2285,224.364
716,64.4235,-0.895581,2.18204,36.6424,0.209397,-0.0070159,-0.0695829,2.33229,-0.175169,0.973025,1.20568,-0.222429,0.370333,0.945271,2.88169,0.217164,99.6946,224.868
721,59.3155,-0.989428,1.82079,35.5038,0.0878658,0.00817448,0.0519458,3.93702,0.723526,0.973025,0.343436,0.152523,0.370333,0.779224,4.79872,0.217164,94.7662,225.337
726,54.3056,-1.56252,1.25205,34.5731,0.0271,0.395529,0.393745,1.52993,-1.07386,0.973025,0.343436,0.527475,0.228912,0.613177,2.88169,0.196398,102.46,225.823
731,51.8577,-2.23084,1.16438,33.5127,0.18661,1.04112,0.120306,2.33229,-0.175169,0.973025,1.20568,0.527475,0.228912,1.11132,3.8402,0.0302687,104.003,226.324
736,53.4825,-2.68419,0.945782,33.186,0.315737,0.281601,0.393745,0.727567,0.723526,0.973025,1.20568,0.527475,0.370333,0.945271,4.79872,0.154865,93.4719,226.801
741,47.1352,-2.8173,-0.143241,32.4943,0.0271,0.106912,-0.0164141,1.52993,1.62222,0.973025,1.20568,0.152523,0.0874897,0.613177,3.8402,0.175631,89.5541,227.261
746,46.9612,-3.08304,-1.02298,31.8614,0.179014,0.0385552,0.257026,2.33229,1.62222,1.78733,1.20568,0.527475,0.0874897,0.945271,2.88169,0.196398,94.3645,227.718
751,48.8404,-4.76537,-0.995612,32.1885,0.0119085,-0.0449918,-0.183516,2.33229,-0.175169,0.15872,0.343436,-0.222429,0.370333,0.613177,3.8402,0.196398,88.2848,228.176
756,45.5563,-3.94843,-1.61296,31.813,0.0346957,0.0537456,0.127901,1.52993,-0.175169,0.15872,1.20568,0.527475,0.370333,0.613177,2.88169,0.0510348,93.6851,228.621
761,41.8798,-4.34855,-1.43111,31.2761,0.0574829,0.281601,0.173475,0.727567,-1.07386,0.973025,1.20568,0.527475,0.228912,0.945271,3.8402,0.196398,88.3095,229.082
766,43.5268,-4.38745,-2.2427,30.5994,0.0119085,0.129698,-0.259472,1.52993,0.723526,1.78733,0.343436,0.152523,0.0874897,0.945271,2.88169,0.196398,82.3061,229.511
771,42.5284,-4.82126,-2.63546,30.2179,0.00431283,0.0841264,-0.0771785,1.52993,1.62222,0.973025,0.343436,0.902428,0.228912,0.945271,3.8402,0.23793,82.2022,229.937
776,46.7063,-4.39874,-2.64108,30.0996,0.209397,0.699337,0.469701,2.33229,1.62222,0.15872,2.06792,0.902428,0.228912,0.613177,4.79872,0.00950257,79.921,230.359
781,43.7266,-4.56004,-2.29824,29.8307,0.589184,0.638575,0.272217,2.33229,-0.175169,2.60163,1.20568,0.527475,0.370333,0.447131,4.79872,0.0510348,87.3079,230.761
786,41.5399,-3.98226,-1.95573,29.4865,0.209397,0.160078,-0.0392007,1.52993,-0.175169,0.15872,0.343436,0.902428,0.228912,0.779224,4.79872,0.154865,78.7942,231.181
791,38.1074,-4.34351,-2.23769,29.0614,-0.0412615,0.000579294,0.0519458,2.33229,0.723526,0.973025,0.343436,0.152523,0.0874897,0.613177,4.79872,0.0510348,76.7028,231.574
796,39.8697,-4.52676,-2.69106,28.3189,0.0878658,0.137293,-0.0695829,1.52993,-0.175169,0.15872,1.20568,0.527475,0.370333,0.779224,3.8402,0.0302687,75.788,231.979
801,40.8036,-5.35609,-2.7798,28.0065,-0.0032829,-0.0298015,0.219048,2.33229,-1.07386,0.973025,2.06792,0.152523,0.0874897,0.945271,4.79872,0.0510348,72.4179,232.355
806,39.2856,-4.89411,-2.74667,28.0387,0.520822,1.25379,0.401341,2.33229,0.723526,1.78733,1.20568,0.902428,0.370333,0.945271,4.79872,0.0302687,87.3305,232.736
811,38.4871,-4.08821,-2.95171,27.1227,-0.0260701,-0.090563,0.120306,3.93702,0.723526,1.78733,-0.518807,-0.222429,0.228912,0.779224,4.79872,0.00950257,90.1374,233.176
816,37.9018,-4.20486,-2.75792,27.085,-0.0640487,-0.0601822,1.09254,3.13466,1.62222,0.15872,1.20568,0.152523,0.653177,0.779224,4.79872,0.00950257,95.0819,233.671
821,36.4111,-5.18381,-2.91857,26.5889,-0.0412615,-0.0298015,-0.0695829,2.33229,0.723526,0.15872,-0.518807,-0.222429,0.370333,0.945271,3.8402,0.0718009,97.0607,234.154
826,39.8033,-5.26176,-3.19002,26.3246,-0.056453,-0.0753726,-0.107561,2.33229,0.723526,1.78733,-0.518807,0.902428,0.228912,0.945271,4.79872,0.0302687,89.5036,234.62
831,42.9327,-5.4567,-2.60857,26.8154,0.110653,0.0157697,0.226643,3.13466,-0.175169,1.78733,0.343436,1.27738,0.511755,0.779224,5.75724,0.0718009,82.4336,235.05
836,41.9284,-7.2651,-2.46491,26.7667,0.0726743,-0.0601822,0.203857,3.13466,-0.175169,2.60163,0.343436,0.152523,0.370333,0.779224,2.88169,0.0302687,86.0043,235.475
841,41.4513,-6.05333,-3.66709,25.8227,-0.0488572,-0.0070159,-0.0695829,2.33229,0.723526,0.973025,0.343436,0.527475,0.228912,0.447131,3.8402,0.0302687,84.1695,235.88
846,41.575,-6.50001,-4.03372,25.4663,0.254972,0.0917216,-0.0771785,2.33229,0.723526,2.60163,0.343436,0.527475,0.370333,0.779224,2.88169,-0.0112635,76.4732,236.276
851,38.1605,-6.49433,-4.4559,24.9426,0.0650786,0.0233649,1.35838,2.33229,0.723526,1.78733,0.343436,0.152523,0.228912,0.613177,3.8402,0.0510348,78.1863,236.657
856,42.9511,-5.78576,-4.21685,24.9859,0.262567,-0.0070159,-0.183516,1.52993,0.723526,0.973025,0.343436,0.152523,0.228912,0.779224,3.8402,0.0510348,71.3713,237.033
861,40.3894,-6.48361,-4.63982,24.6884,0.0271,0.0233649,-0.0771785,2.33229,-0.175169,1.78733,1.20568,0.527475,0.511755,0.945271,3.8402,0.0302687,79.7065,237.406
866,38.6046,-6.42753,-4.54503,24.4779,-0.0716444,0.0385552,0.135497,0.727567,1.62222,0.15872,1.20568,0.152523,0.228912,0.945271,3.8402,0.0302687,70.9936,237.774
871,37.1717,-5.80841,-3.85067,24.775,0.0195043,0.311982,0.196261,1.52993,0.723526,1.78733,1.20568,-0.222429,0.370333,0.613177,4.79872,0.0510348,61.2972,238.087
876,34.435,-5.62465,-3.5512,25.1042,0.285355,0.327172,0.469701,0.727567,-0.175169,0.15872,0.343436,0.152523,0.0874897,0.613177,3.8402,0.0510348,65.784,238.411
881,37.735,-5.70268,-3.3571,25.142,0.18661,-0.052587,-0.0392007,0.727567,0.723526,0.973025,-0.518807,0.527475,0.370333,0.945271,4.79872,0.0302687,70.2127,238.743
886,34.7426,-5.89213,-4.01177,24.6182,0.0119085,-0.0981582,0.0367547,2.33229,0.723526,0.15872,1.20568,0.152523,0.0874897,0.613177,4.79872,0.0302687,63.8449,239.086
891,30.3761,-5.17373,-4.57892,23.9911,-0.147602,-0.136134,-0.084774,0.727567,0.723526,0.15872,0.343436,0.527475,0.228912,0.613177,4.79872,-0.13586,61.0537,239.408
896,30.2273,-5.14041,-4.77923,23.6071,-0.0792401,-0.0601822,-0.153134,1.52993,0.723526,0.973025,0.343436,0.152523,-0.053932,0.779224,3.8402,0.0510348,62.9008,239.725
901,29.3008,-5.91479,-5.16315,23.0826,-0.0868359,-0.052587,0.082328,0.727567,-1.07386,0.973025,1.20568,-0.222429,0.0874897,0.613177,2.88169,0.0510348,67.8393,240.059
906,27.5306,-6.15471,-5.5587,22.8499,0.0346957,-0.0070159,0.332981,2.33229,-0.175169,0.15872,0.343436,0.527475,-0.053932,0.613177,4.79872,0.0302687,76.7838,240.428
911,27.2051,-6.66831,-5.95458,22.8065,-0.056453,0.182864,0.439319,2.33229,0.723526,0.973025,0.343436,0.152523,0.228912,0.613177,3.8402,0.0510348,78.1186,240.817
916,27.2783,-6.51764,-5.92121,22.5358,-0.0032829,-0.0146111,-0.0316052,1.52993,-0.175169,-0.655584,-0.518807,0.152523,0.228912,0.779224,3.8402,0.0510348,81.7477,241.217
921,24.8105,-7.18809,-6.044,22.5303,0.0119085,-0.0753726,0.295003,1.52993,-0.175169,0.15872,0.343436,0.152523,0.0874897,0.613177,3.8402,0.0302687,74.4066,241.62
926,27.1915,-7.04863,-6.56884,22.097,-0.0336658,-0.0146111,-0.00881856,1.52993,0.723526,1.78733,0.343436,0.152523,0.370333,0.613177,4.79872,0.0302687,74.9229,242.013
931,25.856,-6.6185,-6.41253,22.1349,-0.056453,0.228435,-0.0240096,0.727567,0.723526,0.973025,1.20568,0.527475,0.228912,0.779224,3.8402,0.0302687,78.1709,242.391
936,25.0225,-7.08775,-6.37346,21.6042,0.00431283,-0.052587,-0.00881856,1.52993,-0.175169,0.15872,1.20568,0.527475,0.0874897,0.613177,2.88169,-0.13586,78.9783,242.779
941,25.284,-7.32821,-6.80908,21.1436,0.00431283,-0.0222063,0.158283,1.52993,-1.07386,1.78733,1.20568,0.152523,-0.053932,0.447131,3.8402,0.0510348,76.5457,243.174
946,25.8398,-7.45132,-6.77565,20.8346,-0.0336658,0.198054,-0.0392007,0.727567,1.62222,0.15872,0.343436,0.902428,0.0874897,0.613177,3.8402,-0.115094,76.007,243.56
951,24.0875,-7.84292,-7.04942,20.7966,-0.0640487,-0.0753726,-0.0392007,1.52993,1.62222,1.78733,1.20568,0.152523,0.228912,0.613177,2.88169,0.0510348,69.193,243.931
956,23.7541,-8.47574,-7.13334,20.4875,-0.0336658,-0.0753726,0.340577,2.33229,1.62222,0.15872,-0.518807,0.902428,0.370333,0.779224,4.79872,0.00950257,75.6955,244.311
961,21.4017,-8.56557,-7.22296,20.5904,0.0195043,0.068936,-0.137943,1.52993,1.62222,0.973025,-0.518807,0.152523,0.228912,0.613177,2.88169,0.0302687,63.44,244.637
966,20.4017,-9.42909,-7.10558,20.8939,-0.0184743,-0.0677774,0.00637253,1.52993,-0.175169,0.15872,0.343436,-0.222429,0.0874897,0.613177,4.79872,-0.13586,66.4574,244.963
971,19.7192,-8.89083,-7.54748,19.858,-0.0792401,0.0233649,-0.0695829,1.52993,-0.175169,0.15872,-0.518807,-0.222429,0.370333,0.613177,4.79872,0.0510348,72.2708,245.305
976,22.1493,-7.98321,-7.62011,19.7876,0.0422914,0.0537456,-0.0467963,0.727567,0.723526,0.973025,0.343436,-0.222429,0.228912,0.945271,3.8402,0.0510348,66.9963,245.653
981,17.1248,-8.10646,-7.35174,19.7061,0.0726743,0.0461504,-0.084774,1.52993,0.723526,0.15872,-0.518807,0.527475,0.0874897,0.779224,2.88169,0.0302687,66.7719,246.005
986,17.9933,-8.34736,-7.43571,19.2828,-0.0260701,-0.0373967,-0.00122301,0.727567,-0.175169,0.15872,-0.518807,-0.222429,-0.053932,0.779224,2.88169,0.0718009,78.7323,246.379
991,19.0189,-7.76521,-7.67632,19.2013,-0.102027,-0.090563,-0.274663,0.727567,0.723526,0.973025,0.343436,0.527475,0.228912,0.779224,3.8402,0.0302687,75.5778,246.761
996,16.1428,-8.20193,-7.68201,19.2338,-0.0184743,-0.0601822,-0.0316052,1.52993,-0.175169,0.15872,0.343436,0.902428,0.228912,0.613177,2.88169,0.0302687,81.5952,247.155
1001,18.5077,-9.93486,-7.06141,19.6461,0.0422914,-0.0070159,0.082328,2.33229,-1.07386,0.973025,2.06792,0.152523,-0.053932,0.779224,2.88169,-0.156626,73.3665,247.553
1006,19.0884,-8.84083,-8.04598,18.9947,0.00431283,0.243625,0.234239,2.33229,0.723526,0.15872,0.343436,-0.222429,0.0874897,0.779224,3.8402,0.0302687,76.7574,247.916
1011,18.8906,-8.40934,-7.65422,19.4507,0.270163,0.471481,0.424128,1.52993,-0.175169,0.973025,0.343436,-0.222429,0.228912,0.945271,3.8402,0.00950257,73.6528,248.276
1016,21.5497,-8.65605,-7.66559,19.3257,0.163823,0.000579294,0.0671369,1.52993,1.62222,0.15872,1.20568,0.152523,0.228912,0.613177,4.79872,-0.13586,74.6873,248.648
1021,18.8994,-8.30879,-7.78878,18.9022,-0.0032829,0.0157697,-0.0392007,0.727567,0.723526,0.973025,1.20568,0.527475,0.0874897,0.945271,2.88169,-0.156626,71.3266,248.993
1026,18.4857,-8.85793,-7.67128,18.6741,0.0119085,0.251221,0.530465,0.727567,-1.97256,0.973025,1.20568,0.527475,0.0874897,0.447131,2.88169,-0.13586,66.5577,249.316
1031,16.2913,-8.00092,-7.7553,18.5926,0.0878658,-0.0601822,-0.107561,1.52993,0.723526,-0.655584,-0.518807,0.152523,0.228912,0.447131,4.79872,-0.13586,64.2644,249.635
1036,16.7193,-8.90857,-8.15282,18.321,-0.0792401,-0.0753726,-0.525316,0.727567,-0.175169,0.15872,2.06792,0.527475,0.228912,0.613177,3.8402,-0.13586,62.246,249.99
1041,18.7743,-8.83578,-7.84502,18.6576,-0.102027,-0.0222063,-0.289854,1.52993,-0.175169,0.15872,0.343436,0.152523,-0.053932,0.613177,4.79872,0.0510348,62.048,250.314
1046,18.4715,-10.2894,-7.29682,19.1516,0.0346957,-0.0829678,-0.0695829,1.52993,0.723526,0.15872,1.20568,0.152523,-0.053932,0.779224,4.79872,0.0510348,64.3371,250.642
1051,17.7351,-9.24542,-7.94044,18.489,0.0346957,0.64617,-0.122752,1.52993,0.723526,0.973025,0.343436,0.152523,0.0874897,0.945271,4.79872,-0.115094,70.0462,250.985
1056,14.7895,-8.42706,-7.51529,18.7876,0.429673,0.737313,0.173475,0.727567,0.723526,0.973025,1.20568,-0.222429,0.228912,0.779224,4.79872,-0.13586,68.5105,251.328
1061,13.7636,-8.38785,-7.20215,18.7876,0.315737,0.327172,0.416532,1.52993,0.723526,0.15872,0.343436,0.152523,0.0874897,0.447131,3.8402,0.0510348,73.6373,251.68
1066,14.8367,-8.70732,-7.2861,18.592,-0.109623,0.0917216,0.165879,-0.0747966,-0.175169,0.15872,0.343436,0.527475,0.0874897,0.447131,4.79872,0.0302687,79.3503,252.068
1071,18.1311,-8.04075,-7.09045,18.516,-0.0336658,0.380339,-0.115156,0.727567,0.723526,0.973025,-0.518807,-0.222429,0.0874897,0.447131,2.88169,0.0718009,78.1326,252.469
1076,16.2413,-8.48336,-7.5715,18.3528,-0.0488572,0.251221,-0.0695829,1.52993,0.723526,0.973025,0.343436,0.152523,0.228912,0.779224,3.8402,-0.156626,85.4818,252.87
1081,14.287,-8.92631,-7.77869,17.9996,0.0195043,0.068936,0.0139681,1.52993,-0.175169,-0.655584,1.20568,1.27738,0.228912,0.779224,3.8402,-0.115094,72.1809,253.262
1086,16.4976,-8.95986,-7.81218,18.3473,0.0574829,0.327172,0.082328,0.727567,0.723526,-0.655584,0.343436,0.152523,0.0874897,0.779224,1.92317,-0.156626,75.5438,253.63
1091,17.4594,-9.15613,-7.81218,18.5754,-0.0184743,-0.151324,0.127901,1.52993,1.62222,0.973025,1.20568,0.527475,-0.053932,0.779224,2.88169,0.0302687,67.9399,253.992
1096,22.027,-9.63316,-7.66119,18.6839,-0.0640487,0.0841264,0.408936,1.52993,-0.175169,0.15872,1.20568,0.152523,-0.053932,0.613177,2.88169,0.0302687,72.849,254.352
1101,21.6642,-9.13398,-7.94678,18.2167,0.103057,0.122102,1.17609,2.33229,-1.07386,1.78733,0.343436,0.152523,0.0874897,0.613177,2.88169,-0.156626,67.3404,254.69
1106,23.0418,-8.24306,-7.33157,18.2817,0.179014,0.0765312,-0.145538,1.52993,-0.175169,-0.655584,0.343436,-0.222429,0.228912,0.945271,3.8402,-0.13586,65.5723,255.009
1111,18.9719,-8.7643,-7.69532,18.3467,-0.0412615,0.0613408,0.158283,0.727567,0.723526,0.973025,-0.518807,0.152523,-0.195354,0.613177,4.79872,-0.13586,60.9047,255.332
1116,20.7713,-8.7529,-7.52731,18.2056,-0.0412615,0.122102,0.105115,1.52993,-1.07386,0.15872,1.20568,-0.222429,-0.053932,0.779224,3.8402,-0.094328,65.8538,255.663
1121,20.1219,-9.07827,-7.34294,18.2707,-0.0792401,0.198054,0.257026,0.727567,-0.175169,1.78733,0.343436,0.527475,0.228912,0.613177,1.92317,-0.115094,59.0156,255.985
1126,21.4405,-8.41698,-7.46606,17.7327,0.125844,0.0613408,-0.0164141,0.727567,-0.175169,0.15872,1.20568,0.527475,0.0874897,0.779224,4.79872,-0.13586,62.5486,256.281
1131,20.7875,-8.26584,-7.55005,17.613,-0.0716444,0.0385552,0.0595414,0.727567,1.62222,0.973025,2.06792,0.152523,0.0874897,0.779224,2.88169,0.00950257,60.1631,256.588
1136,22.3392,-8.6637,-7.63406,17.4553,0.0954615,0.213245,-0.191112,0.727567,-0.175169,0.973025,1.20568,-0.222429,0.228912,0.779224,4.79872,-0.115094,63.2713,256.9
1141,18.7604,-9.37024,-7.94743,17.4553,-0.0336658,-0.105753,0.188666,2.33229,1.62222,1.78733,-0.518807,0.527475,0.228912,0.779224,3.8402,-0.156626,86.0168,257.273
1146,18.5894,-9.14034,-8.07068,17.5259,0.0271,-0.105753,0.302599,1.52993,-0.175169,0.15872,-1.38105,0.527475,0.370333,0.613177,3.8402,-0.115094,98.8327,257.739
1151,18.3678,-9.81383,-7.84128,17.7867,-0.0412615,0.160078,0.143092,2.33229,0.723526,0.15872,1.20568,0.527475,0.0874897,0.779224,3.8402,-0.094328,104.938,258.256
1156,19.0693,-9.15174,-8.35648,17.5149,-0.0336658,-0.0222063,-0.236685,2.33229,0.723526,0.973025,0.343436,0.152523,0.370333,0.447131,2.88169,-0.115094,129.06,258.841
1161,20.1984,-9.3652,-8.53043,17.5363,-0.0716444,0.00817448,0.378554,0.727567,-1.07386,1.78733,0.343436,0.527475,-0.053932,0.779224,3.8402,-0.13586,114.387,259.419
1166,20.3013,-8.49037,-7.93102,17.6235,0.201802,0.258816,-0.084774,2.33229,-0.175169,0.15872,0.343436,0.527475,0.228912,0.613177,3.8402,-0.13586,116.175,259.989
1171,20.0813,-8.73712,-7.47241,17.5363,0.0346957,0.129698,-0.0695829,1.52993,-0.175169,0.973025,0.343436,0.902428,0.0874897,0.613177,3.8402,-0.094328,114.445,260.553
1176,21.3011,-9.52231,-7.47241,17.4983,-0.0260701,0.638575,0.530465,2.33229,-0.175169,0.15872,0.343436,0.152523,0.0874897,0.779224,2.88169,-0.115094,115.292,261.135
1181,18.6936,-8.1546,-7.59556,17.2264,0.247376,-0.0373967,-0.0619874,-0.0747966,1.62222,0.15872,0.343436,-0.222429,-0.053932,0.447131,3.8402,-0.13586,131.415,261.749
1186,20.9703,-8.63653,-7.88111,17.1773,0.0271,-0.090563,-0.0467963,1.52993,-0.175169,0.973025,0.343436,0.527475,0.228912,0.613177,1.92317,-0.177392,116.581,262.385
1191,21.0372,-9.2645,-7.76359,17.3676,0.0498872,0.0537456,-0.00881856,-0.87716,0.723526,1.78733,0.343436,0.527475,0.0874897,1.11132,2.88169,-0.156626,121.452,262.996
1196,21.2954,-9.98315,-8.01005,17.5467,-0.0412615,-0.143729,0.0215636,1.52993,0.723526,-0.655584,2.06792,-0.222429,-0.336776,0.613177,5.75724,-0.13586,138.719,263.68
1200,19.1184,-10.1797,-8.12762,17.775,0.0726743,0.0537456,0.469701,1.52993,0.723526,0.15872,0.343436,0.152523,0.0874897,0.779224,3.8402,-0.0735619,117.901,264.186