File: 01_Data/Masonite_Board/FTIR/IS/Masonite_Board_IS_T_220818_R3.dpt
7497.03,0.01692
7491.25,0.01757
7485.46,0.02197
7479.67,0.02225
7473.89,0.02133
7468.1,0.02553
7462.32,0.02993
7456.53,0.02281
7450.74,0.02474
7444.96,0.02330
7439.17,0.02478
7433.38,0.01600
7427.6,0.01351
7421.81,0.02024
7416.03,0.02242
7410.24,0.02183
7404.45,0.01409
7398.67,0.01480
7392.88,0.01728
7387.09,0.01700
7381.31,0.02514
7375.52,0.03200
7369.74,0.02237
7363.95,0.02716
7358.16,0.02766
7352.38,0.01933
7346.59,0.02549
7340.8,0.01751
7335.02,0.01437
7329.23,0.01457
7323.45,0.01876
7317.66,0.02010
7311.87,0.02161
7306.09,0.02265
7300.3,0.00990
7294.51,0.01902
7288.73,0.02361
7282.94,0.01766
7277.16,0.02127
7271.37,0.02181
7265.58,0.02172
7259.8,0.02037
7254.01,0.02143
7248.22,0.02580
7242.44,0.01994
7236.65,0.01491
7230.87,0.02017
7225.08,0.02625
7219.29,0.02501
7213.51,0.02408
7207.72,0.02359
7201.93,0.02688
7196.15,0.02089
7190.36,0.01850
7184.58,0.02494
7178.79,0.02430
7173,0.01951
7167.22,0.02645
7161.43,0.01995
7155.65,0.02363
7149.86,0.01645
7144.07,0.02356
7138.29,0.02572
7132.5,0.01730
7126.71,0.02078
7120.93,0.01715
7115.14,0.02475
7109.36,0.02282
7103.57,0.02047
7097.78,0.02241
7092,0.02304
7086.21,0.02605
7080.42,0.02158
7074.64,0.01689
7068.85,0.01838
7063.07,0.02043
7057.28,0.02665
7051.49,0.02774
7045.71,0.02142
7039.92,0.02227
7034.13,0.02436
7028.35,0.01941
7022.56,0.02405
7016.78,0.02544
7010.99,0.02769
7005.2,0.02234
6999.42,0.01741
6993.63,0.02310
6987.84,0.02032
6982.06,0.01634
6976.27,0.01817
6970.49,0.02109
6964.7,0.01901
6958.91,0.02226
6953.13,0.02131
6947.34,0.01994
6941.55,0.01929
6935.77,0.02355
6929.98,0.01936
6924.2,0.01952
6918.41,0.01521
6912.62,0.02269
6906.84,0.02245
6901.05,0.02321
6895.26,0.02053
6889.48,0.02040
6883.69,0.02306
6877.91,0.02015
6872.12,0.02042
6866.33,0.01960
6860.55,0.02170
6854.76,0.02152
6848.97,0.02292
6843.19,0.01853
6837.4,0.02152
6831.62,0.02075
6825.83,0.02239
6820.04,0.01998
6814.26,0.01861
6808.47,0.01851
6802.68,0.01785
6796.9,0.02432
6791.11,0.01913
6785.33,0.01919
6779.54,0.01671
6773.75,0.01773
6767.97,0.01727
6762.18,0.01914
6756.39,0.01529
6750.61,0.02033
6744.82,0.01981
6739.04,0.02042
6733.25,0.01758
6727.46,0.02013
6721.68,0.02042
6715.89,0.02273
6710.1,0.01473
6704.32,0.02215
6698.53,0.01837
6692.75,0.02175
6686.96,0.01713
6681.17,0.02080
6675.39,0.02184
6669.6,0.01880
6663.82,0.01874
6658.03,0.02159
6652.24,0.02084
6646.46,0.01486
6640.67,0.02044
6634.88,0.01853
6629.1,0.01779
6623.31,0.01568
6617.53,0.01951
6611.74,0.01957
6605.95,0.01860
6600.17,0.01394
6594.38,0.01898
6588.59,0.02181
6582.81,0.01589
6577.02,0.01749
6571.24,0.02131
6565.45,0.01887
6559.66,0.01907
6553.88,0.02507
6548.09,0.01881
6542.3,0.01764
6536.52,0.01961
6530.73,0.01921
6524.95,0.01759
6519.16,0.02047
6513.37,0.02120
6507.59,0.01862
6501.8,0.02004
6496.01,0.01893
6490.23,0.01982
6484.44,0.01977
6478.66,0.01963
6472.87,0.01799
6467.08,0.01779
6461.3,0.01721
6455.51,0.01655
6449.72,0.02050
6443.94,0.01534
6438.15,0.01909
6432.37,0.01820
6426.58,0.02286
6420.79,0.02105
6415.01,0.02157
6409.22,0.02012
6403.43,0.02018
6397.65,0.01681
6391.86,0.01717
6386.08,0.01580
6380.29,0.01724
6374.5,0.01653
6368.72,0.01780
6362.93,0.01988
6357.14,0.02162
6351.36,0.02061
6345.57,0.02074
6339.79,0.01889
6334,0.02068
6328.21,0.02028
6322.43,0.02115
6316.64,0.01837
6310.85,0.01779
6305.07,0.01582
6299.28,0.01784
6293.5,0.02185
6287.71,0.01795
6281.92,0.01693
6276.14,0.02077
6270.35,0.02137
6264.56,0.01651
6258.78,0.01435
6252.99,0.01903
6247.21,0.01868
6241.42,0.01948
6235.63,0.01967
6229.85,0.01655
6224.06,0.02108
6218.27,0.01833
6212.49,0.02044
6206.7,0.01944
6200.92,0.01896
6195.13,0.01982
6189.34,0.01680
6183.56,0.01764
6177.77,0.01863
6171.98,0.01759
6166.2,0.01943
6160.41,0.01683
6154.63,0.01941
6148.84,0.01886
6143.05,0.02068
6137.27,0.01917
6131.48,0.01822
6125.7,0.01853
6119.91,0.01958
6114.12,0.01968
6108.34,0.02160
6102.55,0.02009
6096.76,0.02148
6090.98,0.02133
6085.19,0.01856
6079.41,0.01918
6073.62,0.01921
6067.83,0.02004
6062.05,0.01909
6056.26,0.01478
6050.47,0.02108
6044.69,0.01732
6038.9,0.01556
6033.12,0.01698
6027.33,0.01988
6021.54,0.01880
6015.76,0.02071
6009.97,0.01677
6004.18,0.01875
5998.4,0.01954
5992.61,0.01894
5986.83,0.01490
5981.04,0.01809
5975.25,0.02109
5969.47,0.01961
5963.68,0.01947
5957.89,0.01843
5952.11,0.01842
5946.32,0.02090
5940.54,0.01674
5934.75,0.01531
5928.96,0.01694
5923.18,0.01772
5917.39,0.01938
5911.6,0.01784
5905.82,0.01690
5900.03,0.02137
5894.25,0.02245
5888.46,0.01907
5882.67,0.01999
5876.89,0.01939
5871.1,0.02072
5865.31,0.01835
5859.53,0.01784
5853.74,0.01830
5847.96,0.01915
5842.17,0.01898
5836.38,0.01942
5830.6,0.01608
5824.81,0.01816
5819.02,0.01950
5813.24,0.01875
5807.45,0.02006
5801.67,0.01757
5795.88,0.01814
5790.09,0.01785
5784.31,0.01680
5778.52,0.02053
5772.73,0.01936
5766.95,0.01850
5761.16,0.01970
5755.38,0.01728
5749.59,0.01781
5743.8,0.01901
5738.02,0.02103
5732.23,0.01965
5726.44,0.01765
5720.66,0.01790
5714.87,0.01984
5709.09,0.01777
5703.3,0.01859
5697.51,0.01726
5691.73,0.01783
5685.94,0.02082
5680.15,0.02028
5674.37,0.01814
5668.58,0.01858
5662.8,0.01855
5657.01,0.01986
5651.22,0.02007
5645.44,0.01833
5639.65,0.01904
5633.87,0.02068
5628.08,0.01845
5622.29,0.01852
5616.51,0.01836
5610.72,0.01925
5604.93,0.02104
5599.15,0.02086
5593.36,0.01788
5587.58,0.01807
5581.79,0.02040
5576,0.01877
5570.22,0.01891
5564.43,0.01807
5558.64,0.01837
5552.86,0.01817
5547.07,0.02025
5541.29,0.01906
5535.5,0.01869
5529.71,0.01885
5523.93,0.01753
5518.14,0.01846
5512.35,0.01840
5506.57,0.01936
5500.78,0.01985
5495,0.01848
5489.21,0.01837
5483.42,0.01907
5477.64,0.02041
5471.85,0.02024
5466.06,0.01807
5460.28,0.01881
5454.49,0.01968
5448.71,0.01915
5442.92,0.01979
5437.13,0.01887
5431.35,0.01872
5425.56,0.02075
5419.77,0.01975
5413.99,0.01870
5408.2,0.02034
5402.42,0.01801
5396.63,0.01807
5390.84,0.01845
5385.06,0.01879
5379.27,0.01995
5373.48,0.01950
5367.7,0.01952
5361.91,0.01990
5356.13,0.02028
5350.34,0.02046
5344.55,0.01862
5338.77,0.01923
5332.98,0.01901
5327.19,0.01803
5321.41,0.01838
5315.62,0.01933
5309.84,0.01953
5304.05,0.01940
5298.26,0.01755
5292.48,0.01895
5286.69,0.01841
5280.9,0.01999
5275.12,0.01908
5269.33,0.02061
5263.55,0.01713
5257.76,0.01828
5251.97,0.01854
5246.19,0.01894
5240.4,0.01912
5234.61,0.01864
5228.83,0.01846
5223.04,0.01864
5217.26,0.02023
5211.47,0.01913
5205.68,0.02020
5199.9,0.02092
5194.11,0.01836
5188.32,0.01796
5182.54,0.01868
5176.75,0.02028
5170.97,0.01967
5165.18,0.02019
5159.39,0.01848
5153.61,0.01927
5147.82,0.01949
5142.03,0.02012
5136.25,0.01977
5130.46,0.01950
5124.68,0.02024
5118.89,0.02096
5113.1,0.01991
5107.32,0.01890
5101.53,0.01914
5095.75,0.02027
5089.96,0.01791
5084.17,0.01979
5078.39,0.01776
5072.6,0.01976
5066.81,0.01898
5061.03,0.01823
5055.24,0.01850
5049.46,0.01946
5043.67,0.01958
5037.88,0.02058
5032.1,0.01881
5026.31,0.01951
5020.52,0.02044
5014.74,0.01903
5008.95,0.01962
5003.17,0.01917
4997.38,0.01889
4991.59,0.01898
4985.81,0.01991
4980.02,0.01908
4974.23,0.01796
4968.45,0.01814
4962.66,0.01886
4956.88,0.01766
4951.09,0.01846
4945.3,0.01902
4939.52,0.01987
4933.73,0.01866
4927.94,0.01887
4922.16,0.01870
4916.37,0.01957
4910.59,0.01989
4904.8,0.01948
4899.01,0.01868
4893.23,0.01965
4887.44,0.01877
4881.65,0.01776
4875.87,0.01874
4870.08,0.01941
4864.3,0.02002
4858.51,0.01926
4852.72,0.01936
4846.94,0.01983
4841.15,0.01967
4835.36,0.02027
4829.58,0.01906
4823.79,0.01918
4818.01,0.01952
4812.22,0.01911
4806.43,0.01873
4800.65,0.01937
4794.86,0.01926
4789.07,0.01834
4783.29,0.01850
4777.5,0.01927
4771.72,0.01856
4765.93,0.01946
4760.14,0.02006
4754.36,0.02010
4748.57,0.01918
4742.78,0.01926
4737,0.01932
4731.21,0.01914
4725.43,0.01907
4719.64,0.01931
4713.85,0.01909
4708.07,0.01949
4702.28,0.01927
4696.49,0.01927
4690.71,0.01940
4684.92,0.01887
4679.14,0.02040
4673.35,0.01949
4667.56,0.01923
4661.78,0.01875
4655.99,0.01970
4650.2,0.01900
4644.42,0.01917
4638.63,0.01937
4632.85,0.01892
4627.06,0.01956
4621.27,0.01964
4615.49,0.01901
4609.7,0.01994
4603.92,0.01940
4598.13,0.01916
4592.34,0.01937
4586.56,0.01883
4580.77,0.01834
4574.98,0.01916
4569.2,0.01913
4563.41,0.01915
4557.63,0.01964
4551.84,0.01921
4546.05,0.01926
4540.27,0.01914
4534.48,0.01897
4528.69,0.01901
4522.91,0.01948
4517.12,0.01903
4511.34,0.02000
4505.55,0.01908
4499.76,0.01882
4493.98,0.01917
4488.19,0.01931
4482.4,0.01959
4476.62,0.01903
4470.83,0.01891
4465.05,0.01957
4459.26,0.01993
4453.47,0.01900
4447.69,0.01897
4441.9,0.02028
4436.11,0.01928
4430.33,0.02029
4424.54,0.01914
4418.76,0.01955
4412.97,0.01954
4407.18,0.01984
4401.4,0.01939
4395.61,0.01957
4389.82,0.01940
4384.04,0.01911
4378.25,0.01931
4372.47,0.01981
4366.68,0.02008
4360.89,0.01885
4355.11,0.01916
4349.32,0.01942
4343.53,0.01922
4337.75,0.01926
4331.96,0.01961
4326.18,0.01910
4320.39,0.01891
4314.6,0.01966
4308.82,0.01957
4303.03,0.02024
4297.24,0.01976
4291.46,0.01993
4285.67,0.01960
4279.89,0.01929
4274.1,0.01963
4268.31,0.01953
4262.53,0.01978
4256.74,0.01934
4250.95,0.02019
4245.17,0.01871
4239.38,0.01969
4233.6,0.01936
4227.81,0.01919
4222.02,0.01926
4216.24,0.01951
4210.45,0.01940
4204.66,0.01931
4198.88,0.01904
4193.09,0.01932
4187.31,0.01974
4181.52,0.01915
4175.73,0.01928
4169.95,0.01823
4164.16,0.01962
4158.37,0.01939
4152.59,0.01895
4146.8,0.01831
4141.02,0.01946
4135.23,0.01935
4129.44,0.01955
4123.66,0.01968
4117.87,0.01888
4112.09,0.01893
4106.3,0.01915
4100.51,0.01980
4094.73,0.01925
4088.94,0.01977
4083.15,0.01968
4077.37,0.01952
4071.58,0.01896
4065.8,0.01939
4060.01,0.01926
4054.22,0.01906
4048.44,0.01929
4042.65,0.01937
4036.86,0.01927
4031.08,0.01925
4025.29,0.01998
4019.51,0.02018
4013.72,0.02027
4007.93,0.02010
4002.15,0.01987
3996.36,0.01972
3990.57,0.01951
3984.79,0.01969
3979,0.01971
3973.22,0.01970
3967.43,0.01934
3961.64,0.01954
3955.86,0.01994
3950.07,0.01932
3944.28,0.01901
3938.5,0.01962
3932.71,0.01946
3926.93,0.01977
3921.14,0.01985
3915.35,0.01921
3909.57,0.01883
3903.78,0.02000
3897.99,0.01977
3892.21,0.02008
3886.42,0.01979
3880.64,0.01963
3874.85,0.01892
3869.06,0.01895
3863.28,0.01957
3857.49,0.02030
3851.7,0.01991
3845.92,0.01975
3840.13,0.01974
3834.35,0.01934
3828.56,0.01920
3822.77,0.01979
3816.99,0.01993
3811.2,0.01987
3805.41,0.01951
3799.63,0.01965
3793.84,0.01977
3788.06,0.01954
3782.27,0.01996
3776.48,0.01967
3770.7,0.01962
3764.91,0.01948
3759.12,0.01981
3753.34,0.02012
3747.55,0.01973
3741.77,0.01942
3735.98,0.01967
3730.19,0.01919
3724.41,0.01969
3718.62,0.01915
3712.83,0.01910
3707.05,0.01948
3701.26,0.01879
3695.48,0.01944
3689.69,0.01945
3683.9,0.01919
3678.12,0.01928
3672.33,0.02007
3666.54,0.01943
3660.76,0.01885
3654.97,0.01946
3649.19,0.01918
3643.4,0.01913
3637.61,0.01925
3631.83,0.01876
3626.04,0.01890
3620.25,0.01941
3614.47,0.01881
3608.68,0.01893
3602.9,0.01915
3597.11,0.01927
3591.32,0.01921
3585.54,0.01811
3579.75,0.01867
3573.97,0.01842
3568.18,0.01840
3562.39,0.01892
3556.61,0.01805
3550.82,0.01893
3545.03,0.01813
3539.25,0.01801
3533.46,0.01823
3527.68,0.01810
3521.89,0.01842
3516.1,0.01770
3510.32,0.01798
3504.53,0.01783
3498.74,0.01869
3492.96,0.01778
3487.17,0.01736
3481.39,0.01746
3475.6,0.01758
3469.81,0.01781
3464.03,0.01762
3458.24,0.01824
3452.45,0.01783
3446.67,0.01747
3440.88,0.01690
3435.1,0.01812
3429.31,0.01764
3423.52,0.01847
3417.74,0.01723
3411.95,0.01706
3406.16,0.01720
3400.38,0.01723
3394.59,0.01749
3388.81,0.01684
3383.02,0.01716
3377.23,0.01729
3371.45,0.01648
3365.66,0.01695
3359.87,0.01753
3354.09,0.01660
3348.3,0.01705
3342.52,0.01739
3336.73,0.01719
3330.94,0.01659
3325.16,0.01714
3319.37,0.01693
3313.58,0.01740
3307.8,0.01736
3302.01,0.01650
3296.23,0.01722
3290.44,0.01683
3284.65,0.01728
3278.87,0.01771
3273.08,0.01644
3267.29,0.01774
3261.51,0.01760
3255.72,0.01619
3249.94,0.01674
3244.15,0.01777
3238.36,0.01847
3232.58,0.01691
3226.79,0.01746
3221,0.01789
3215.22,0.01786
3209.43,0.01784
3203.65,0.01749
3197.86,0.01857
3192.07,0.01811
3186.29,0.01690
3180.5,0.01689
3174.71,0.01748
3168.93,0.01741
3163.14,0.01738
3157.36,0.01750
3151.57,0.01774
3145.78,0.01751
3140,0.01773
3134.21,0.01823
3128.42,0.01764
3122.64,0.01778
3116.85,0.01737
3111.07,0.01776
3105.28,0.01832
3099.49,0.01775
3093.71,0.01787
3087.92,0.01718
3082.14,0.01722
3076.35,0.01788
3070.56,0.01761
3064.78,0.01759
3058.99,0.01766
3053.2,0.01795
3047.42,0.01758
3041.63,0.01761
3035.85,0.01715
3030.06,0.01745
3024.27,0.01720
3018.49,0.01755
3012.7,0.01709
3006.91,0.01717
3001.13,0.01721
2995.34,0.01707
2989.56,0.01695
2983.77,0.01716
2977.98,0.01644
2972.2,0.01618
2966.41,0.01641
2960.62,0.01709
2954.84,0.01645
2949.05,0.01651
2943.27,0.01609
2937.48,0.01641
2931.69,0.01682
2925.91,0.01655
2920.12,0.01720
2914.33,0.01747
2908.55,0.01735
2902.76,0.01762
2896.98,0.01746
2891.19,0.01734
2885.4,0.01759
2879.62,0.01737
2873.83,0.01712
2868.04,0.01767
2862.26,0.01774
2856.47,0.01739
2850.69,0.01775
2844.9,0.01812
2839.11,0.01815
2833.33,0.01849
2827.54,0.01838
2821.75,0.01813
2815.97,0.01806
2810.18,0.01845
2804.4,0.01835
2798.61,0.01858
2792.82,0.01803
2787.04,0.01801
2781.25,0.01846
2775.46,0.01842
2769.68,0.01849
2763.89,0.01797
2758.11,0.01808
2752.32,0.01805
2746.53,0.01808
2740.75,0.01839
2734.96,0.01817
2729.17,0.01832
2723.39,0.01857
2717.6,0.01829
2711.82,0.01840
2706.03,0.01822
2700.24,0.01808
2694.46,0.01825
2688.67,0.01815
2682.88,0.01852
2677.1,0.01809
2671.31,0.01826
2665.53,0.01813
2659.74,0.01825
2653.95,0.01841
2648.17,0.01826
2642.38,0.01834
2636.59,0.01835
2630.81,0.01803
2625.02,0.01829
2619.24,0.01799
2613.45,0.01803
2607.66,0.01842
2601.88,0.01880
2596.09,0.01843
2590.3,0.01828
2584.52,0.01840
2578.73,0.01798
2572.95,0.01820
2567.16,0.01846
2561.37,0.01913
2555.59,0.01850
2549.8,0.01840
2544.02,0.01806
2538.23,0.01826
2532.44,0.01812
2526.66,0.01781
2520.87,0.01779
2515.08,0.01844
2509.3,0.01833
2503.51,0.01835
2497.73,0.01799
2491.94,0.01850
2486.15,0.01820
2480.37,0.01810
2474.58,0.01805
2468.79,0.01812
2463.01,0.01845
2457.22,0.01845
2451.44,0.01804
2445.65,0.01804
2439.86,0.01850
2434.08,0.01862
2428.29,0.01851
2422.5,0.01824
2416.72,0.01828
2410.93,0.01823
2405.15,0.01835
2399.36,0.01821
2393.57,0.01834
2387.79,0.01840
2382,0.01828
2376.21,0.01802
2370.43,0.01832
2364.64,0.01837
2358.86,0.01852
2353.07,0.01819
2347.28,0.01827
2341.5,0.01776
2335.71,0.01813
2329.92,0.01811
2324.14,0.01776
2318.35,0.01797
2312.57,0.01829
2306.78,0.01823
2300.99,0.01814
2295.21,0.01806
2289.42,0.01838
2283.63,0.01810
2277.85,0.01800
2272.06,0.01771
2266.28,0.01805
2260.49,0.01788
2254.7,0.01791
2248.92,0.01809
2243.13,0.01814
2237.34,0.01805
2231.56,0.01798
2225.77,0.01799
2219.99,0.01785
2214.2,0.01798
2208.41,0.01786
2202.63,0.01799
2196.84,0.01812
2191.05,0.01828
2185.27,0.01794
2179.48,0.01815
2173.7,0.01772
2167.91,0.01796
2162.12,0.01804
2156.34,0.01788
2150.55,0.01796
2144.76,0.01802
2138.98,0.01811
2133.19,0.01782
2127.41,0.01780
2121.62,0.01809
2115.83,0.01784
2110.05,0.01833
2104.26,0.01818
2098.47,0.01817
2092.69,0.01812
2086.9,0.01780
2081.12,0.01786
2075.33,0.01774
2069.54,0.01779
2063.76,0.01770
2057.97,0.01762
2052.19,0.01812
2046.4,0.01819
2040.61,0.01803
2034.83,0.01789
2029.04,0.01762
2023.25,0.01789
2017.47,0.01792
2011.68,0.01811
2005.9,0.01796
2000.11,0.01822
1994.32,0.01780
1988.54,0.01778
1982.75,0.01790
1976.96,0.01803
1971.18,0.01767
1965.39,0.01797
1959.61,0.01784
1953.82,0.01770
1948.03,0.01752
1942.25,0.01788
1936.46,0.01773
1930.67,0.01762
1924.89,0.01778
1919.1,0.01759
1913.32,0.01772
1907.53,0.01791
1901.74,0.01758
1895.96,0.01781
1890.17,0.01756
1884.38,0.01765
1878.6,0.01761
1872.81,0.01766
1867.03,0.01759
1861.24,0.01745
1855.45,0.01744
1849.67,0.01734
1843.88,0.01746
1838.09,0.01744
1832.31,0.01707
1826.52,0.01721
1820.74,0.01690
1814.95,0.01719
1809.16,0.01709
1803.38,0.01686
1797.59,0.01657
1791.8,0.01619
1786.02,0.01607
1780.23,0.01613
1774.45,0.01587
1768.66,0.01531
1762.87,0.01518
1757.09,0.01457
1751.3,0.01445
1745.51,0.01483
1739.73,0.01542
1733.94,0.01654
1728.16,0.01743
1722.37,0.01767
1716.58,0.01766
1710.8,0.01733
1705.01,0.01740
1699.22,0.01689
1693.44,0.01657
1687.65,0.01642
1681.87,0.01607
1676.08,0.01607
1670.29,0.01559
1664.51,0.01554
1658.72,0.01547
1652.93,0.01511
1647.15,0.01565
1641.36,0.01575
1635.58,0.01577
1629.79,0.01540
1624,0.01568
1618.22,0.01624
1612.43,0.01581
1606.64,0.01606
1600.86,0.01590
1595.07,0.01568
1589.29,0.01567
1583.5,0.01561
1577.71,0.01564
1571.93,0.01529
1566.14,0.01496
1560.35,0.01484
1554.57,0.01499
1548.78,0.01526
1543,0.01549
1537.21,0.01511
1531.42,0.01541
1525.64,0.01543
1519.85,0.01529
1514.07,0.01571
1508.28,0.01563
1502.49,0.01598
1496.71,0.01595
1490.92,0.01569
1485.13,0.01561
1479.35,0.01553
1473.56,0.01542
1467.78,0.01526
1461.99,0.01544
1456.2,0.01558
1450.42,0.01584
1444.63,0.01605
1438.84,0.01610
1433.06,0.01581
1427.27,0.01570
1421.49,0.01524
1415.7,0.01537
1409.91,0.01542
1404.13,0.01526
1398.34,0.01512
1392.55,0.01516
1386.77,0.01544
1380.98,0.01515
1375.2,0.01501
1369.41,0.01518
1363.62,0.01518
1357.84,0.01512
1352.05,0.01511
1346.26,0.01511
1340.48,0.01477
1334.69,0.01476
1328.91,0.01443
1323.12,0.01429
1317.33,0.01413
1311.55,0.01402
1305.76,0.01404
1299.97,0.01439
1294.19,0.01510
1288.4,0.01522
1282.62,0.01560
1276.83,0.01612
1271.04,0.01641
1265.26,0.01697
1259.47,0.01645
1253.68,0.01694
1247.9,0.01695
1242.11,0.01733
1236.33,0.01612
1230.54,0.01655
1224.75,0.01632
1218.97,0.01619
1213.18,0.01611
1207.39,0.01541
1201.61,0.01568
1195.82,0.01540
1190.04,0.01524
1184.25,0.01568
1178.46,0.01514
1172.68,0.01504
1166.89,0.01457
1161.1,0.01482
1155.32,0.01436
1149.53,0.01427
1143.75,0.01452
1137.96,0.01454
1132.17,0.01498
1126.39,0.01541
1120.6,0.01592
1114.81,0.01638
1109.03,0.01556
1103.24,0.01449
1097.46,0.01516
1091.67,0.01608
1085.88,0.01567
1080.1,0.01602
1074.31,0.01589
1068.52,0.01677
1062.74,0.01714
1056.95,0.01662
1051.17,0.01624
1045.38,0.01601
1039.59,0.01632
1033.81,0.01654
1028.02,0.01582
1022.24,0.01679
1016.45,0.01652
1010.66,0.01692
1004.88,0.01755
999.09,0.01775
993.304,0.01797
987.518,0.01773
981.731,0.01753
975.945,0.01721
970.159,0.01770
964.373,0.01686
958.586,0.01742
952.8,0.01701
947.014,0.01744
941.228,0.01679
935.441,0.01687
929.655,0.01623
923.869,0.01650
918.083,0.01728
912.297,0.01601
906.51,0.01641
900.724,0.01625
894.938,0.01606
889.152,0.01579
883.365,0.01620
877.579,0.01615
871.793,0.01650
866.007,0.01551
860.22,0.01615
854.434,0.01535
848.648,0.01656
842.862,0.01606
837.075,0.01563
831.289,0.01684
825.503,0.01569
819.717,0.01637
813.931,0.01668
808.144,0.01601
802.358,0.01605
796.572,0.01586
790.786,0.01601
784.999,0.01549
779.213,0.01520
773.427,0.01512
767.641,0.01586
761.854,0.01574
756.068,0.01505
750.282,0.01452
744.496,0.01450
738.709,0.01528
732.923,0.01616
727.137,0.01520
721.351,0.01465
715.565,0.01542
709.778,0.01409
703.992,0.01424
698.206,0.01501
692.42,0.01513
686.633,0.01474
680.847,0.01373
675.061,0.01504
669.275,0.01367
663.488,0.01472
657.702,0.01406
651.916,0.01332
646.13,0.01355
640.343,0.01342
634.557,0.01399
628.771,0.01465
622.985,0.01273
617.198,0.01659
611.412,0.01300
605.626,0.01645
599.84,0.01245