File: 01_Data/Rug_Pad/Cone/Rug_Pad_HRRPUA_25.csv
Time after Ignition,Rug_Pad_R1,Rug_Pad_R2,Rug_Pad_R3,Mean,Std. Dev.
0.0,1.1,4.1,3.4,2.9,1.5
0.25,1.3,5.1,4.7,3.7,2.1
0.5,2.0,5.9,6.1,4.7,2.3
0.75,2.6,6.6,7.2,5.5,2.5
1.0,3.2,8.9,8.2,6.8,3.1
1.25,3.8,10.9,10.5,8.4,4.0
1.5,3.8,12.8,12.8,9.8,5.2
1.75,5.3,14.4,14.9,11.5,5.4
2.0,6.7,16.0,16.5,13.0,5.5
2.25,8.0,17.0,21.0,15.3,6.7
2.5,9.0,19.9,25.4,18.1,8.3
2.75,10.1,22.5,29.0,20.5,9.6
3.0,12.9,24.8,32.2,23.3,9.7
3.25,15.5,27.4,37.4,26.7,11.0
3.5,17.9,30.7,42.4,30.3,12.2
3.75,20.1,34.7,46.1,33.7,13.0
4.0,23.7,37.9,50.0,37.2,13.2
4.25,27.5,40.9,54.0,40.8,13.2
4.5,30.3,43.2,58.3,44.0,14.0
4.75,33.6,48.3,61.1,47.7,13.8
5.0,37.5,51.9,65.8,51.8,14.2
5.25,41.1,55.5,70.4,55.7,14.6
5.5,45.5,58.0,71.2,58.2,12.9
5.75,47.2,65.0,74.3,62.2,13.8
6.0,50.3,70.1,78.4,66.3,14.4
6.25,53.1,73.7,81.6,69.4,14.7
6.5,56.6,78.8,84.7,73.4,14.9
6.75,60.2,83.7,86.2,76.7,14.3
7.0,64.2,88.7,91.8,81.6,15.1
7.25,66.4,92.8,94.3,84.5,15.7
7.5,69.8,96.6,98.1,88.2,15.9
7.75,73.4,103.9,99.7,92.3,16.5
8.0,77.2,105.2,103.6,95.3,15.8
8.25,79.7,109.3,105.6,98.2,16.2
8.5,82.9,112.8,108.9,101.5,16.3
8.75,87.4,117.7,112.1,105.7,16.1
9.0,91.7,116.9,112.3,107.0,13.4
9.25,94.0,119.3,118.0,110.4,14.2
9.5,96.1,122.4,121.4,113.3,14.9
9.75,100.5,126.8,122.6,116.7,14.1
10.0,101.8,127.2,126.8,118.6,14.6
10.25,107.7,129.3,130.3,122.5,12.7
10.5,109.8,134.4,134.0,126.0,14.1
10.75,110.6,137.0,135.4,127.7,14.8
11.0,114.5,139.2,138.5,130.7,14.1
11.25,120.2,139.0,141.8,133.7,11.8
11.5,123.4,144.2,145.9,137.8,12.5
11.75,125.0,146.3,144.4,138.6,11.8
12.0,128.5,144.9,150.0,141.1,11.2
12.25,129.4,151.0,151.5,144.0,12.6
12.5,133.5,149.7,151.3,144.8,9.8
12.75,134.3,153.1,153.8,147.1,11.1
13.0,136.2,154.7,156.6,149.2,11.3
13.25,140.0,156.7,160.6,152.4,11.0
13.5,144.9,158.0,160.2,154.4,8.3
13.75,145.0,156.1,162.3,154.5,8.8
14.0,145.5,159.4,164.6,156.5,9.8
14.25,147.3,162.6,164.1,158.0,9.3
14.5,151.5,165.1,165.7,160.8,8.0
14.75,150.6,164.8,167.1,160.8,8.9
15.0,155.1,167.3,173.0,165.1,9.1
15.25,155.4,168.6,169.2,164.4,7.8
15.5,155.9,168.8,171.4,165.4,8.3
15.75,160.6,168.9,173.2,167.6,6.4
16.0,161.4,172.1,176.3,169.9,7.7
16.25,163.2,173.6,180.9,172.6,8.9
16.5,164.1,171.2,182.7,172.7,9.4
16.75,164.8,175.2,181.1,173.7,8.3
17.0,167.2,175.9,183.0,175.4,7.9
17.25,168.4,178.2,186.1,177.6,8.9
17.5,170.2,180.8,185.6,178.9,7.9
17.75,169.4,178.3,192.8,180.2,11.8
18.0,173.7,183.5,188.3,181.9,7.4
18.25,171.8,183.2,192.4,182.5,10.3
18.5,176.2,181.8,193.7,183.9,8.9
18.75,178.0,186.1,197.0,187.0,9.5
19.0,176.2,187.0,194.4,185.9,9.1
19.25,176.6,186.2,198.0,186.9,10.8
19.5,181.9,185.0,198.7,188.5,8.9
19.75,184.1,188.6,198.5,190.4,7.4
20.0,182.1,190.5,199.9,190.8,8.9
20.25,185.5,192.7,202.7,193.6,8.6
20.5,184.6,191.7,202.5,192.9,9.0
20.75,186.2,193.4,204.2,194.6,9.0
21.0,183.1,195.3,206.6,195.0,11.7
21.25,188.2,196.9,205.2,196.8,8.5
21.5,189.1,195.2,208.2,197.5,9.8
21.75,191.5,198.7,205.1,198.5,6.8
22.0,185.4,202.6,208.6,198.9,12.0
22.25,190.0,198.8,204.1,197.6,7.1
22.5,194.1,202.0,208.5,201.5,7.2
22.75,193.4,202.0,206.5,200.6,6.6
23.0,191.8,205.0,209.0,201.9,9.0
23.25,193.8,204.1,210.6,202.8,8.5
23.5,192.9,200.9,209.5,201.1,8.3
23.75,194.9,205.3,210.9,203.7,8.1
24.0,193.1,200.7,210.0,201.3,8.5
24.25,195.8,201.8,211.9,203.2,8.1
24.5,196.0,206.4,214.4,205.6,9.3
24.75,193.1,206.4,210.5,203.3,9.1
25.0,195.4,204.1,208.2,202.6,6.5
25.25,194.0,203.9,212.6,203.5,9.3
25.5,198.1,205.1,213.2,205.5,7.6
25.75,195.9,201.6,210.6,202.7,7.4
26.0,193.5,202.7,214.9,203.7,10.7
26.25,200.8,201.2,211.0,204.3,5.8
26.5,198.8,205.1,214.2,206.1,7.7
26.75,196.0,203.7,213.6,204.4,8.8
27.0,197.0,206.1,212.0,205.0,7.6
27.25,198.9,200.8,211.2,203.7,6.6
27.5,197.2,200.9,214.4,204.2,9.0
27.75,198.0,199.9,212.5,203.5,7.9
28.0,198.2,198.3,212.2,202.9,8.0
28.25,196.3,198.0,212.2,202.2,8.7
28.5,195.9,195.8,211.9,201.2,9.3
28.75,195.8,194.9,208.2,199.6,7.4
29.0,196.9,198.4,208.3,201.2,6.2
29.25,192.1,195.2,212.3,199.9,10.9
29.5,191.4,194.4,206.3,197.4,7.9
29.75,192.2,196.3,203.0,197.2,5.5
30.0,190.3,196.7,203.7,196.9,6.7
30.25,190.2,194.6,203.7,196.2,6.9
30.5,192.1,195.9,201.3,196.4,4.6
30.75,188.7,190.9,201.6,193.7,6.9
31.0,187.4,189.3,197.6,191.4,5.4
31.25,186.9,190.6,194.9,190.8,4.0
31.5,184.4,188.3,195.7,189.5,5.8
31.75,183.8,186.9,194.1,188.3,5.3
32.0,185.4,184.1,190.9,186.8,3.6
32.25,179.1,183.9,190.8,184.6,5.9
32.5,181.8,181.8,186.6,183.4,2.8
32.75,180.4,181.2,184.8,182.1,2.3
33.0,178.5,179.4,182.8,180.2,2.3
33.25,176.4,179.1,179.7,178.4,1.8
33.5,176.5,175.5,181.4,177.8,3.1
33.75,175.9,176.5,175.0,175.8,0.7
34.0,176.5,172.4,176.6,175.1,2.4
34.25,170.7,173.6,170.4,171.6,1.8
34.5,172.9,171.2,173.3,172.5,1.2
34.75,171.5,167.5,168.5,169.2,2.1
35.0,170.7,166.1,169.7,168.8,2.4
35.25,168.9,163.5,166.8,166.4,2.7
35.5,168.6,163.4,167.6,166.5,2.8
35.75,169.4,164.4,167.3,167.0,2.5
36.0,166.8,160.4,162.4,163.2,3.3
36.25,166.8,160.1,161.0,162.7,3.6
36.5,164.1,160.6,157.6,160.8,3.3
36.75,161.4,156.3,156.1,157.9,3.0
37.0,161.6,153.8,155.2,156.9,4.1
37.25,161.6,152.6,151.7,155.3,5.5
37.5,159.2,152.1,152.1,154.4,4.1
37.75,159.3,153.1,151.7,154.7,4.0
38.0,155.2,151.6,148.4,151.7,3.4
38.25,154.7,149.2,146.6,150.2,4.2
38.5,152.9,146.9,142.0,147.3,5.5
38.75,152.4,148.5,143.3,148.1,4.6
39.0,150.4,145.1,141.0,145.5,4.7
39.25,149.2,143.8,137.8,143.6,5.7
39.5,148.2,142.1,137.0,142.4,5.6
39.75,147.9,140.4,136.0,141.4,6.0
40.0,146.9,138.6,134.1,139.9,6.5
40.25,145.2,137.4,134.8,139.1,5.4
40.5,140.4,136.2,131.3,136.0,4.5
40.75,141.4,134.0,129.1,134.8,6.2
41.0,140.8,132.3,128.7,133.9,6.2
41.25,139.3,129.7,126.0,131.7,6.9
41.5,137.5,127.4,124.8,129.9,6.7
41.75,136.3,126.6,124.4,129.1,6.3
42.0,134.7,125.9,124.5,128.4,5.5
42.25,135.4,124.2,121.7,127.1,7.3
42.5,133.3,122.3,119.6,125.1,7.2
42.75,132.2,121.4,119.0,124.2,7.0
43.0,130.3,119.1,117.7,122.4,6.9
43.25,129.0,115.6,117.5,120.7,7.2
43.5,128.4,115.7,114.5,119.5,7.7
43.75,126.3,116.3,114.0,118.9,6.6
44.0,125.7,111.6,112.1,116.4,8.0
44.25,125.6,109.7,111.3,115.6,8.7
44.5,124.2,109.6,108.7,114.2,8.7
44.75,123.3,108.2,106.8,112.8,9.2
45.0,118.9,105.9,104.9,109.9,7.8
45.25,120.6,105.7,103.2,109.8,9.4
45.5,118.6,104.6,101.4,108.2,9.2
45.75,117.5,101.9,100.8,106.7,9.3
46.0,116.8,101.9,98.3,105.7,9.8
46.25,113.8,100.9,97.4,104.0,8.6
46.5,113.3,99.7,96.8,103.3,8.8
46.75,110.2,96.6,94.1,100.3,8.7
47.0,109.7,96.8,92.4,99.6,9.0
47.25,108.8,95.2,89.4,97.8,9.9
47.5,107.7,93.3,90.2,97.0,9.3
47.75,105.6,92.6,88.7,95.6,8.8
48.0,105.0,91.2,86.5,94.2,9.6
48.25,102.3,88.8,86.7,92.6,8.5
48.5,101.1,88.5,85.1,91.6,8.4
48.75,98.9,85.7,84.0,89.5,8.2
49.0,100.8,83.9,81.8,88.9,10.4
49.25,97.9,83.2,81.6,87.5,9.0
49.5,97.4,83.5,80.1,87.0,9.2
49.75,95.8,81.1,79.3,85.4,9.0
50.0,95.5,78.6,78.0,84.0,9.9
50.25,92.5,79.4,76.5,82.8,8.5
50.5,92.3,76.5,75.2,81.3,9.5
50.75,92.8,76.8,74.6,81.4,9.9
51.0,89.5,75.0,73.4,79.3,8.9
51.25,89.6,73.8,71.4,78.3,9.9
51.5,88.5,73.9,72.0,78.1,9.0
51.75,86.2,71.2,70.3,75.9,8.9
52.0,85.5,70.8,68.7,75.0,9.2
52.25,83.1,68.4,67.6,73.1,8.7
52.5,81.7,68.2,66.3,72.1,8.4
52.75,80.0,67.2,65.4,70.9,8.0
53.0,78.9,66.4,64.8,70.0,7.7
53.25,78.0,65.2,63.4,68.9,8.0
53.5,77.1,64.2,62.6,68.0,7.9
53.75,74.8,63.8,61.1,66.6,7.2
54.0,73.9,63.0,61.0,66.0,6.9
54.25,73.3,61.0,60.6,65.0,7.2
54.5,71.0,60.8,60.0,63.9,6.1
54.75,70.6,59.8,58.5,63.0,6.6
55.0,69.3,58.5,57.9,61.9,6.4
55.25,68.1,56.9,57.9,60.9,6.2
55.5,66.8,55.8,57.3,59.9,6.0
55.75,66.6,55.7,55.4,59.2,6.4
56.0,64.8,54.5,56.0,58.5,5.6
56.25,65.4,53.8,54.5,57.9,6.5
56.5,63.0,52.5,53.8,56.4,5.7
56.75,63.0,52.0,53.6,56.2,5.9
57.0,61.8,52.4,52.4,55.5,5.4
57.25,60.1,51.4,51.3,54.3,5.1
57.5,60.1,49.8,50.5,53.5,5.8
57.75,59.2,50.3,49.9,53.1,5.2
58.0,58.2,48.8,48.4,51.8,5.5
58.25,56.8,48.3,48.0,51.0,5.0
58.5,56.2,47.3,47.9,50.4,5.0
58.75,55.2,48.0,46.6,49.9,4.6
59.0,55.4,46.9,45.5,49.3,5.4
59.25,54.0,46.0,45.1,48.4,4.9
59.5,53.4,46.1,44.0,47.8,4.9
59.75,52.2,45.6,44.0,47.3,4.3
60.0,51.7,44.7,43.2,46.5,4.5
60.25,50.8,44.3,41.7,45.6,4.7
60.5,49.8,43.3,41.4,44.8,4.4
60.75,49.3,42.6,40.8,44.2,4.5
61.0,48.4,43.0,40.2,43.9,4.2
61.25,47.6,41.8,39.9,43.1,4.0
61.5,47.3,40.9,39.4,42.5,4.2
61.75,47.0,41.3,38.4,42.3,4.4
62.0,45.9,40.4,38.2,41.5,4.0
62.25,45.6,40.0,37.7,41.1,4.1
62.5,44.0,39.7,37.5,40.4,3.3
62.75,43.6,38.6,37.1,39.8,3.4
63.0,42.7,37.9,36.4,39.0,3.3
63.25,42.5,37.9,36.2,38.8,3.2
63.5,41.7,36.5,35.4,37.8,3.4
63.75,41.0,36.0,35.2,37.4,3.1
64.0,39.9,35.7,34.6,36.7,2.8
64.25,39.4,35.1,34.7,36.4,2.6
64.5,38.6,34.7,33.5,35.6,2.7
64.75,38.1,34.1,33.3,35.2,2.6
65.0,37.5,33.4,32.9,34.6,2.5
65.25,37.6,33.3,32.1,34.3,2.9
65.5,36.7,32.3,32.1,33.7,2.6
65.75,35.7,32.2,31.5,33.1,2.3
66.0,35.0,31.6,30.4,32.4,2.4
66.25,34.6,30.6,30.3,31.9,2.4
66.5,34.4,30.3,30.0,31.6,2.4
66.75,33.4,29.6,29.3,30.8,2.3
67.0,32.6,28.9,29.3,30.3,2.0
67.25,32.4,28.4,28.7,29.8,2.2
67.5,31.2,28.3,28.1,29.2,1.7
67.75,31.0,27.5,27.8,28.8,1.9
68.0,29.7,27.4,27.5,28.2,1.3
68.25,29.4,27.0,27.4,27.9,1.3
68.5,29.2,25.9,27.2,27.4,1.6
68.75,28.3,25.9,26.5,26.9,1.2
69.0,28.1,25.5,26.3,26.6,1.3
69.25,27.4,25.3,25.8,26.2,1.1
69.5,27.3,24.8,25.6,25.9,1.3
69.75,26.6,24.5,25.5,25.5,1.1
70.0,26.3,24.1,25.3,25.2,1.1
70.25,25.5,24.1,24.6,24.7,0.7
70.5,25.2,23.7,24.6,24.5,0.7
70.75,24.8,23.4,23.8,24.0,0.7
71.0,24.4,23.3,23.2,23.7,0.6
71.25,24.3,22.7,23.4,23.4,0.8
71.5,23.3,22.7,22.7,22.9,0.3
71.75,22.7,21.9,22.5,22.4,0.4
72.0,22.5,22.2,22.4,22.4,0.2
72.25,21.8,21.5,22.0,21.8,0.2
72.5,21.7,21.0,21.5,21.4,0.3
72.75,21.1,20.8,21.2,21.0,0.2
73.0,20.7,20.5,21.3,20.8,0.4
73.25,20.5,20.0,20.8,20.4,0.4
73.5,20.2,20.0,20.4,20.2,0.2
73.75,20.0,19.9,20.4,20.1,0.2
74.0,19.9,19.5,19.8,19.7,0.2
74.25,19.6,19.5,19.8,19.6,0.2
74.5,19.9,19.2,19.7,19.6,0.4
74.75,19.4,19.0,19.3,19.3,0.2
75.0,19.1,18.9,19.2,19.1,0.1
75.25,19.0,18.9,19.0,19.0,0.1