File: 01_Data/Rayon_Bamboo_Pillowcase/FTIR/IS/Rayon_Bamboo_Pillowcase_IS_S_220909_R7.dpt
7497.03,0.82875
7491.25,0.83063
7485.46,0.82192
7479.67,0.81206
7473.89,0.81916
7468.1,0.81910
7462.32,0.80147
7456.53,0.80343
7450.74,0.80271
7444.96,0.79973
7439.17,0.80072
7433.38,0.80707
7427.6,0.80065
7421.81,0.80158
7416.03,0.80338
7410.24,0.79743
7404.45,0.79694
7398.67,0.78661
7392.88,0.78775
7387.09,0.79602
7381.31,0.79192
7375.52,0.78682
7369.74,0.77774
7363.95,0.77939
7358.16,0.78902
7352.38,0.79305
7346.59,0.77483
7340.8,0.77474
7335.02,0.77347
7329.23,0.76712
7323.45,0.76100
7317.66,0.76818
7311.87,0.76735
7306.09,0.76145
7300.3,0.77231
7294.51,0.77475
7288.73,0.76121
7282.94,0.76685
7277.16,0.76320
7271.37,0.76561
7265.58,0.76365
7259.8,0.77310
7254.01,0.76622
7248.22,0.76541
7242.44,0.76794
7236.65,0.77203
7230.87,0.76441
7225.08,0.76622
7219.29,0.75696
7213.51,0.76323
7207.72,0.76429
7201.93,0.76126
7196.15,0.75746
7190.36,0.75913
7184.58,0.74796
7178.79,0.75260
7173,0.75299
7167.22,0.74333
7161.43,0.74306
7155.65,0.74004
7149.86,0.74421
7144.07,0.73773
7138.29,0.73609
7132.5,0.73282
7126.71,0.72127
7120.93,0.72021
7115.14,0.71581
7109.36,0.70556
7103.57,0.70939
7097.78,0.69523
7092,0.70076
7086.21,0.68824
7080.42,0.68586
7074.64,0.67441
7068.85,0.66448
7063.07,0.66746
7057.28,0.65875
7051.49,0.65269
7045.71,0.64622
7039.92,0.64621
7034.13,0.63744
7028.35,0.62795
7022.56,0.62745
7016.78,0.61937
7010.99,0.61251
7005.2,0.61405
6999.42,0.60870
6993.63,0.60771
6987.84,0.61019
6982.06,0.59712
6976.27,0.59522
6970.49,0.59311
6964.7,0.58934
6958.91,0.59037
6953.13,0.58612
6947.34,0.58651
6941.55,0.57665
6935.77,0.58055
6929.98,0.57536
6924.2,0.57796
6918.41,0.57553
6912.62,0.57447
6906.84,0.57650
6901.05,0.57056
6895.26,0.57206
6889.48,0.57497
6883.69,0.57078
6877.91,0.56764
6872.12,0.56824
6866.33,0.57024
6860.55,0.57121
6854.76,0.56490
6848.97,0.56477
6843.19,0.56294
6837.4,0.55954
6831.62,0.55924
6825.83,0.56029
6820.04,0.56071
6814.26,0.55808
6808.47,0.55864
6802.68,0.55614
6796.9,0.56042
6791.11,0.56187
6785.33,0.56203
6779.54,0.55178
6773.75,0.55566
6767.97,0.55650
6762.18,0.55509
6756.39,0.55929
6750.61,0.55813
6744.82,0.56287
6739.04,0.55947
6733.25,0.55671
6727.46,0.56496
6721.68,0.56651
6715.89,0.55771
6710.1,0.56537
6704.32,0.56831
6698.53,0.56680
6692.75,0.56536
6686.96,0.56670
6681.17,0.56577
6675.39,0.56954
6669.6,0.56924
6663.82,0.56972
6658.03,0.56839
6652.24,0.56937
6646.46,0.57437
6640.67,0.57738
6634.88,0.58413
6629.1,0.58293
6623.31,0.58270
6617.53,0.58331
6611.74,0.58539
6605.95,0.58960
6600.17,0.58845
6594.38,0.59073
6588.59,0.58831
6582.81,0.59226
6577.02,0.59473
6571.24,0.59472
6565.45,0.59466
6559.66,0.59714
6553.88,0.59837
6548.09,0.60016
6542.3,0.59997
6536.52,0.60365
6530.73,0.60212
6524.95,0.59939
6519.16,0.60338
6513.37,0.60479
6507.59,0.60516
6501.8,0.60407
6496.01,0.60110
6490.23,0.60512
6484.44,0.60732
6478.66,0.60442
6472.87,0.60711
6467.08,0.60664
6461.3,0.60173
6455.51,0.61035
6449.72,0.60481
6443.94,0.60847
6438.15,0.60888
6432.37,0.60427
6426.58,0.60511
6420.79,0.60580
6415.01,0.60601
6409.22,0.60683
6403.43,0.60532
6397.65,0.60740
6391.86,0.60665
6386.08,0.61073
6380.29,0.60748
6374.5,0.60191
6368.72,0.60502
6362.93,0.60411
6357.14,0.60689
6351.36,0.60814
6345.57,0.60551
6339.79,0.60670
6334,0.60727
6328.21,0.61060
6322.43,0.61177
6316.64,0.61321
6310.85,0.61104
6305.07,0.61357
6299.28,0.61260
6293.5,0.61976
6287.71,0.61884
6281.92,0.61965
6276.14,0.61687
6270.35,0.62059
6264.56,0.61767
6258.78,0.62087
6252.99,0.62096
6247.21,0.62321
6241.42,0.62521
6235.63,0.62511
6229.85,0.63037
6224.06,0.63050
6218.27,0.62869
6212.49,0.63084
6206.7,0.63442
6200.92,0.63123
6195.13,0.63965
6189.34,0.64109
6183.56,0.63987
6177.77,0.64133
6171.98,0.64092
6166.2,0.64143
6160.41,0.64720
6154.63,0.64751
6148.84,0.64880
6143.05,0.64871
6137.27,0.64932
6131.48,0.65089
6125.7,0.65346
6119.91,0.65750
6114.12,0.65652
6108.34,0.65887
6102.55,0.65701
6096.76,0.65672
6090.98,0.66200
6085.19,0.66228
6079.41,0.66083
6073.62,0.66199
6067.83,0.66653
6062.05,0.66914
6056.26,0.67022
6050.47,0.67019
6044.69,0.67015
6038.9,0.67472
6033.12,0.67431
6027.33,0.67702
6021.54,0.67580
6015.76,0.67775
6009.97,0.67623
6004.18,0.67875
5998.4,0.67829
5992.61,0.68035
5986.83,0.68079
5981.04,0.68239
5975.25,0.68291
5969.47,0.68364
5963.68,0.68229
5957.89,0.68055
5952.11,0.68001
5946.32,0.68095
5940.54,0.67455
5934.75,0.67660
5928.96,0.67512
5923.18,0.67182
5917.39,0.67282
5911.6,0.67001
5905.82,0.66879
5900.03,0.66616
5894.25,0.66472
5888.46,0.66603
5882.67,0.66594
5876.89,0.66708
5871.1,0.66367
5865.31,0.66226
5859.53,0.66347
5853.74,0.66468
5847.96,0.66099
5842.17,0.66428
5836.38,0.66036
5830.6,0.66316
5824.81,0.65628
5819.02,0.65399
5813.24,0.65451
5807.45,0.65279
5801.67,0.65330
5795.88,0.65455
5790.09,0.65067
5784.31,0.65107
5778.52,0.65181
5772.73,0.65030
5766.95,0.64997
5761.16,0.65083
5755.38,0.64970
5749.59,0.64995
5743.8,0.65093
5738.02,0.65118
5732.23,0.64883
5726.44,0.64821
5720.66,0.64897
5714.87,0.64979
5709.09,0.64836
5703.3,0.64844
5697.51,0.64700
5691.73,0.64563
5685.94,0.64436
5680.15,0.64449
5674.37,0.64362
5668.58,0.64545
5662.8,0.64323
5657.01,0.64152
5651.22,0.64366
5645.44,0.64445
5639.65,0.64318
5633.87,0.64240
5628.08,0.64330
5622.29,0.64399
5616.51,0.64309
5610.72,0.64400
5604.93,0.64510
5599.15,0.64214
5593.36,0.64712
5587.58,0.64539
5581.79,0.64593
5576,0.64684
5570.22,0.64610
5564.43,0.64760
5558.64,0.64746
5552.86,0.64789
5547.07,0.65065
5541.29,0.65299
5535.5,0.65279
5529.71,0.65399
5523.93,0.65279
5518.14,0.65448
5512.35,0.65424
5506.57,0.65190
5500.78,0.65352
5495,0.65520
5489.21,0.65374
5483.42,0.65479
5477.64,0.65597
5471.85,0.65712
5466.06,0.65678
5460.28,0.65805
5454.49,0.65845
5448.71,0.65892
5442.92,0.65931
5437.13,0.65908
5431.35,0.66046
5425.56,0.66313
5419.77,0.66361
5413.99,0.66347
5408.2,0.66710
5402.42,0.66890
5396.63,0.66968
5390.84,0.67084
5385.06,0.67149
5379.27,0.67021
5373.48,0.67254
5367.7,0.67190
5361.91,0.67030
5356.13,0.66889
5350.34,0.66940
5344.55,0.66977
5338.77,0.66753
5332.98,0.66319
5327.19,0.66107
5321.41,0.65668
5315.62,0.65422
5309.84,0.64939
5304.05,0.64401
5298.26,0.63746
5292.48,0.63128
5286.69,0.62157
5280.9,0.61275
5275.12,0.60367
5269.33,0.59130
5263.55,0.58076
5257.76,0.56916
5251.97,0.55816
5246.19,0.54727
5240.4,0.53631
5234.61,0.52720
5228.83,0.51876
5223.04,0.51227
5217.26,0.50717
5211.47,0.50185
5205.68,0.49827
5199.9,0.49334
5194.11,0.48976
5188.32,0.48840
5182.54,0.48898
5176.75,0.48744
5170.97,0.48773
5165.18,0.48867
5159.39,0.48961
5153.61,0.49229
5147.82,0.49483
5142.03,0.49663
5136.25,0.50070
5130.46,0.50326
5124.68,0.50553
5118.89,0.50916
5113.1,0.51283
5107.32,0.51488
5101.53,0.51806
5095.75,0.52272
5089.96,0.52568
5084.17,0.52891
5078.39,0.53167
5072.6,0.53410
5066.81,0.53739
5061.03,0.54145
5055.24,0.54399
5049.46,0.54583
5043.67,0.55006
5037.88,0.55065
5032.1,0.55471
5026.31,0.55634
5020.52,0.55861
5014.74,0.56019
5008.95,0.56159
5003.17,0.56355
4997.38,0.56389
4991.59,0.56342
4985.81,0.56272
4980.02,0.56133
4974.23,0.56157
4968.45,0.56012
4962.66,0.55801
4956.88,0.55467
4951.09,0.55178
4945.3,0.54666
4939.52,0.54254
4933.73,0.53809
4927.94,0.53247
4922.16,0.52604
4916.37,0.51946
4910.59,0.51349
4904.8,0.50559
4899.01,0.49902
4893.23,0.49345
4887.44,0.48738
4881.65,0.48207
4875.87,0.47650
4870.08,0.47250
4864.3,0.46721
4858.51,0.46290
4852.72,0.45998
4846.94,0.45582
4841.15,0.45334
4835.36,0.44940
4829.58,0.44701
4823.79,0.44270
4818.01,0.44065
4812.22,0.43962
4806.43,0.43884
4800.65,0.43634
4794.86,0.43407
4789.07,0.43302
4783.29,0.43179
4777.5,0.43192
4771.72,0.43212
4765.93,0.43276
4760.14,0.43362
4754.36,0.43428
4748.57,0.43635
4742.78,0.43824
4737,0.44105
4731.21,0.44260
4725.43,0.44480
4719.64,0.44538
4713.85,0.44847
4708.07,0.45071
4702.28,0.45214
4696.49,0.45351
4690.71,0.45722
4684.92,0.46056
4679.14,0.46211
4673.35,0.46618
4667.56,0.46836
4661.78,0.47108
4655.99,0.47298
4650.2,0.47531
4644.42,0.47690
4638.63,0.47995
4632.85,0.48174
4627.06,0.48452
4621.27,0.48519
4615.49,0.48780
4609.7,0.49118
4603.92,0.49201
4598.13,0.49380
4592.34,0.49579
4586.56,0.49819
4580.77,0.49940
4574.98,0.50111
4569.2,0.50233
4563.41,0.50452
4557.63,0.50612
4551.84,0.50795
4546.05,0.50931
4540.27,0.50916
4534.48,0.51135
4528.69,0.51176
4522.91,0.51354
4517.12,0.51567
4511.34,0.51605
4505.55,0.51604
4499.76,0.51693
4493.98,0.51648
4488.19,0.51485
4482.4,0.51427
4476.62,0.51383
4470.83,0.51121
4465.05,0.50733
4459.26,0.50420
4453.47,0.49857
4447.69,0.49233
4441.9,0.48484
4436.11,0.47590
4430.33,0.46866
4424.54,0.46224
4418.76,0.45562
4412.97,0.45079
4407.18,0.44835
4401.4,0.44700
4395.61,0.44392
4389.82,0.44259
4384.04,0.44097
4378.25,0.44265
4372.47,0.44441
4366.68,0.44456
4360.89,0.44420
4355.11,0.44249
4349.32,0.44054
4343.53,0.43872
4337.75,0.43530
4331.96,0.43222
4326.18,0.42724
4320.39,0.42458
4314.6,0.42220
4308.82,0.42002
4303.03,0.41813
4297.24,0.41610
4291.46,0.41432
4285.67,0.41308
4279.89,0.41233
4274.1,0.41184
4268.31,0.41098
4262.53,0.40995
4256.74,0.40880
4250.95,0.40774
4245.17,0.40794
4239.38,0.40731
4233.6,0.41002
4227.81,0.41095
4222.02,0.41169
4216.24,0.41201
4210.45,0.41248
4204.66,0.41388
4198.88,0.41407
4193.09,0.41571
4187.31,0.41558
4181.52,0.41547
4175.73,0.41440
4169.95,0.41398
4164.16,0.41256
4158.37,0.40912
4152.59,0.40639
4146.8,0.40305
4141.02,0.39946
4135.23,0.39607
4129.44,0.39132
4123.66,0.38697
4117.87,0.38220
4112.09,0.37730
4106.3,0.37164
4100.51,0.36613
4094.73,0.36075
4088.94,0.35424
4083.15,0.34844
4077.37,0.34175
4071.58,0.33603
4065.8,0.33024
4060.01,0.32537
4054.22,0.32004
4048.44,0.31505
4042.65,0.31059
4036.86,0.30654
4031.08,0.30336
4025.29,0.30049
4019.51,0.29831
4013.72,0.29643
4007.93,0.29533
4002.15,0.29481
3996.36,0.29591
3990.57,0.29637
3984.79,0.29657
3979,0.29808
3973.22,0.29930
3967.43,0.29981
3961.64,0.30056
3955.86,0.30142
3950.07,0.30301
3944.28,0.30525
3938.5,0.30712
3932.71,0.31025
3926.93,0.31419
3921.14,0.31687
3915.35,0.32037
3909.57,0.32307
3903.78,0.32712
3897.99,0.33077
3892.21,0.33312
3886.42,0.33602
3880.64,0.33922
3874.85,0.34244
3869.06,0.34587
3863.28,0.34913
3857.49,0.35236
3851.7,0.35522
3845.92,0.35707
3840.13,0.35991
3834.35,0.36131
3828.56,0.36070
3822.77,0.36135
3816.99,0.36159
3811.2,0.36030
3805.41,0.35972
3799.63,0.35973
3793.84,0.35734
3788.06,0.35630
3782.27,0.35465
3776.48,0.35284
3770.7,0.35172
3764.91,0.34987
3759.12,0.34785
3753.34,0.34611
3747.55,0.34358
3741.77,0.33899
3735.98,0.33540
3730.19,0.32870
3724.41,0.32255
3718.62,0.31598
3712.83,0.30874
3707.05,0.29863
3701.26,0.28871
3695.48,0.27799
3689.69,0.26505
3683.9,0.24851
3678.12,0.23214
3672.33,0.21284
3666.54,0.19239
3660.76,0.17412
3654.97,0.15636
3649.19,0.14142
3643.4,0.12466
3637.61,0.11114
3631.83,0.10062
3626.04,0.08970
3620.25,0.08128
3614.47,0.07296
3608.68,0.06565
3602.9,0.05925
3597.11,0.05439
3591.32,0.05019
3585.54,0.04491
3579.75,0.04196
3573.97,0.03890
3568.18,0.03713
3562.39,0.03428
3556.61,0.03281
3550.82,0.03090
3545.03,0.02957
3539.25,0.02836
3533.46,0.02738
3527.68,0.02703
3521.89,0.02697
3516.1,0.02551
3510.32,0.02512
3504.53,0.02442
3498.74,0.02555
3492.96,0.02493
3487.17,0.02499
3481.39,0.02469
3475.6,0.02485
3469.81,0.02513
3464.03,0.02572
3458.24,0.02513
3452.45,0.02611
3446.67,0.02622
3440.88,0.02649
3435.1,0.02641
3429.31,0.02693
3423.52,0.02662
3417.74,0.02688
3411.95,0.02710
3406.16,0.02777
3400.38,0.02795
3394.59,0.02744
3388.81,0.02732
3383.02,0.02726
3377.23,0.02773
3371.45,0.02826
3365.66,0.02742
3359.87,0.02750
3354.09,0.02833
3348.3,0.02818
3342.52,0.02845
3336.73,0.02838
3330.94,0.02806
3325.16,0.02890
3319.37,0.02910
3313.58,0.02869
3307.8,0.02903
3302.01,0.02948
3296.23,0.02872
3290.44,0.02851
3284.65,0.02971
3278.87,0.02950
3273.08,0.02940
3267.29,0.02967
3261.51,0.02987
3255.72,0.03101
3249.94,0.03084
3244.15,0.03068
3238.36,0.03056
3232.58,0.03170
3226.79,0.03177
3221,0.03111
3215.22,0.03243
3209.43,0.03149
3203.65,0.03188
3197.86,0.03366
3192.07,0.03366
3186.29,0.03342
3180.5,0.03438
3174.71,0.03518
3168.93,0.03568
3163.14,0.03639
3157.36,0.03640
3151.57,0.03765
3145.78,0.03879
3140,0.04000
3134.21,0.04135
3128.42,0.04201
3122.64,0.04356
3116.85,0.04486
3111.07,0.04739
3105.28,0.04836
3099.49,0.05043
3093.71,0.05228
3087.92,0.05404
3082.14,0.05651
3076.35,0.05902
3070.56,0.06124
3064.78,0.06363
3058.99,0.06567
3053.2,0.06916
3047.42,0.07173
3041.63,0.07385
3035.85,0.07632
3030.06,0.07845
3024.27,0.08047
3018.49,0.08247
3012.7,0.08373
3006.91,0.08434
3001.13,0.08463
2995.34,0.08286
2989.56,0.07960
2983.77,0.07401
2977.98,0.07054
2972.2,0.06592
2966.41,0.06213
2960.62,0.05703
2954.84,0.05337
2949.05,0.05047
2943.27,0.04773
2937.48,0.04526
2931.69,0.04337
2925.91,0.04189
2920.12,0.04056
2914.33,0.04047
2908.55,0.04087
2902.76,0.04075
2896.98,0.04047
2891.19,0.04055
2885.4,0.04179
2879.62,0.04308
2873.83,0.04457
2868.04,0.04813
2862.26,0.05151
2856.47,0.05451
2850.69,0.05700
2844.9,0.06293
2839.11,0.06959
2833.33,0.07344
2827.54,0.07730
2821.75,0.08059
2815.97,0.08343
2810.18,0.08615
2804.4,0.08948
2798.61,0.09268
2792.82,0.09570
2787.04,0.09855
2781.25,0.10114
2775.46,0.10371
2769.68,0.10623
2763.89,0.10831
2758.11,0.10993
2752.32,0.11129
2746.53,0.11200
2740.75,0.11246
2734.96,0.11336
2729.17,0.11450
2723.39,0.11636
2717.6,0.11830
2711.82,0.12041
2706.03,0.12242
2700.24,0.12441
2694.46,0.12733
2688.67,0.12986
2682.88,0.13274
2677.1,0.13573
2671.31,0.13816
2665.53,0.14133
2659.74,0.14422
2653.95,0.14701
2648.17,0.14995
2642.38,0.15288
2636.59,0.15569
2630.81,0.15836
2625.02,0.16147
2619.24,0.16422
2613.45,0.16701
2607.66,0.16940
2601.88,0.17162
2596.09,0.17428
2590.3,0.17561
2584.52,0.17704
2578.73,0.17852
2572.95,0.18019
2567.16,0.18143
2561.37,0.18220
2555.59,0.18321
2549.8,0.18376
2544.02,0.18425
2538.23,0.18497
2532.44,0.18515
2526.66,0.18643
2520.87,0.18742
2515.08,0.18906
2509.3,0.19026
2503.51,0.19205
2497.73,0.19294
2491.94,0.19453
2486.15,0.19716
2480.37,0.19972
2474.58,0.20229
2468.79,0.20456
2463.01,0.20722
2457.22,0.21019
2451.44,0.21347
2445.65,0.21674
2439.86,0.21982
2434.08,0.22313
2428.29,0.22606
2422.5,0.22941
2416.72,0.23263
2410.93,0.23500
2405.15,0.23645
2399.36,0.23865
2393.57,0.24015
2387.79,0.24250
2382,0.24421
2376.21,0.24602
2370.43,0.24776
2364.64,0.24940
2358.86,0.25091
2353.07,0.25249
2347.28,0.25423
2341.5,0.25713
2335.71,0.25898
2329.92,0.26003
2324.14,0.26030
2318.35,0.26063
2312.57,0.26114
2306.78,0.26189
2300.99,0.26150
2295.21,0.26106
2289.42,0.26000
2283.63,0.25881
2277.85,0.25674
2272.06,0.25446
2266.28,0.25136
2260.49,0.24911
2254.7,0.24695
2248.92,0.24469
2243.13,0.24241
2237.34,0.24045
2231.56,0.23901
2225.77,0.23803
2219.99,0.23620
2214.2,0.23417
2208.41,0.23312
2202.63,0.23201
2196.84,0.23062
2191.05,0.22861
2185.27,0.22632
2179.48,0.22345
2173.7,0.22038
2167.91,0.21803
2162.12,0.21613
2156.34,0.21428
2150.55,0.21314
2144.76,0.21203
2138.98,0.21162
2133.19,0.21109
2127.41,0.21172
2121.62,0.21243
2115.83,0.21421
2110.05,0.21669
2104.26,0.21912
2098.47,0.22151
2092.69,0.22411
2086.9,0.22571
2081.12,0.22719
2075.33,0.22791
2069.54,0.22814
2063.76,0.22745
2057.97,0.22726
2052.19,0.22725
2046.4,0.22773
2040.61,0.22846
2034.83,0.23130
2029.04,0.23423
2023.25,0.23806
2017.47,0.24230
2011.68,0.24616
2005.9,0.24969
2000.11,0.25225
1994.32,0.25330
1988.54,0.25420
1982.75,0.25590
1976.96,0.25894
1971.18,0.26246
1965.39,0.26599
1959.61,0.26955
1953.82,0.27372
1948.03,0.27785
1942.25,0.28178
1936.46,0.28475
1930.67,0.28784
1924.89,0.29052
1919.1,0.29354
1913.32,0.29585
1907.53,0.29861
1901.74,0.30019
1895.96,0.30168
1890.17,0.30221
1884.38,0.30218
1878.6,0.30146
1872.81,0.30031
1867.03,0.29916
1861.24,0.29644
1855.45,0.29411
1849.67,0.29145
1843.88,0.28806
1838.09,0.28403
1832.31,0.28103
1826.52,0.27761
1820.74,0.27384
1814.95,0.26968
1809.16,0.26543
1803.38,0.26083
1797.59,0.25627
1791.8,0.25137
1786.02,0.24624
1780.23,0.24134
1774.45,0.23629
1768.66,0.22779
1762.87,0.21928
1757.09,0.21218
1751.3,0.20787
1745.51,0.20141
1739.73,0.19110
1733.94,0.17935
1728.16,0.16129
1722.37,0.14083
1716.58,0.11793
1710.8,0.09590
1705.01,0.07960
1699.22,0.06842
1693.44,0.06202
1687.65,0.06013
1681.87,0.05833
1676.08,0.05788
1670.29,0.05862
1664.51,0.05910
1658.72,0.06090
1652.93,0.06356
1647.15,0.06450
1641.36,0.06528
1635.58,0.06781
1629.79,0.07046
1624,0.07460
1618.22,0.07847
1612.43,0.08436
1606.64,0.08927
1600.86,0.09452
1595.07,0.09927
1589.29,0.10348
1583.5,0.10719
1577.71,0.11159
1571.93,0.11487
1566.14,0.11763
1560.35,0.11883
1554.57,0.11852
1548.78,0.11738
1543,0.11510
1537.21,0.10979
1531.42,0.10264
1525.64,0.09384
1519.85,0.08395
1514.07,0.07551
1508.28,0.07082
1502.49,0.06809
1496.71,0.06716
1490.92,0.06506
1485.13,0.05991
1479.35,0.05277
1473.56,0.04683
1467.78,0.04180
1461.99,0.03937
1456.2,0.03730
1450.42,0.03557
1444.63,0.03397
1438.84,0.03346
1433.06,0.03270
1427.27,0.03201
1421.49,0.03125
1415.7,0.03160
1409.91,0.03187
1404.13,0.03207
1398.34,0.03199
1392.55,0.03129
1386.77,0.02983
1380.98,0.02816
1375.2,0.02765
1369.41,0.02814
1363.62,0.02949
1357.84,0.03074
1352.05,0.03141
1346.26,0.03192
1340.48,0.03102
1334.69,0.03096
1328.91,0.03134
1323.12,0.03155
1317.33,0.03090
1311.55,0.03135
1305.76,0.03292
1299.97,0.03416
1294.19,0.03591
1288.4,0.03661
1282.62,0.03486
1276.83,0.03372
1271.04,0.03428
1265.26,0.03366
1259.47,0.03396
1253.68,0.03513
1247.9,0.03544
1242.11,0.03451
1236.33,0.03325
1230.54,0.03356
1224.75,0.03409
1218.97,0.03444
1213.18,0.03377
1207.39,0.03005
1201.61,0.02743
1195.82,0.02754
1190.04,0.02744
1184.25,0.02527
1178.46,0.02204
1172.68,0.02079
1166.89,0.02264
1161.1,0.02540
1155.32,0.02570
1149.53,0.02470
1143.75,0.02225
1137.96,0.02123
1132.17,0.02069
1126.39,0.02178
1120.6,0.02493
1114.81,0.02730
1109.03,0.02805
1103.24,0.02723
1097.46,0.02811
1091.67,0.02972
1085.88,0.03249
1080.1,0.03805
1074.31,0.04116
1068.52,0.04343
1062.74,0.04446
1056.95,0.04365
1051.17,0.04211
1045.38,0.04193
1039.59,0.04078
1033.81,0.04211
1028.02,0.04458
1022.24,0.04693
1016.45,0.04745
1010.66,0.04625
1004.88,0.04501
999.09,0.04621
993.304,0.04853
987.518,0.05205
981.731,0.05818
975.945,0.06283
970.159,0.06348
964.373,0.06598
958.586,0.07368
952.8,0.08302
947.014,0.08971
941.228,0.09201
935.441,0.09080
929.655,0.08966
923.869,0.08999
918.083,0.08649
912.297,0.07803
906.51,0.06626
900.724,0.05750
894.938,0.05596
889.152,0.06683
883.365,0.08071
877.579,0.09184
871.793,0.09716
866.007,0.09808
860.22,0.09720
854.434,0.09485
848.648,0.09032
842.862,0.08741
837.075,0.08243
831.289,0.07853
825.503,0.07518
819.717,0.07133
813.931,0.06863
808.144,0.06772
802.358,0.06610
796.572,0.06510
790.786,0.06293
784.999,0.06052
779.213,0.05900
773.427,0.05616
767.641,0.05423
761.854,0.05323
756.068,0.05146
750.282,0.05039
744.496,0.04941
738.709,0.04708
732.923,0.04423
727.137,0.04366
721.351,0.04233
715.565,0.04107
709.778,0.04063
703.992,0.04093
698.206,0.03907
692.42,0.03761
686.633,0.03710
680.847,0.03601
675.061,0.03370
669.275,0.03434
663.488,0.03620
657.702,0.03575
651.916,0.03671
646.13,0.03589
640.343,0.03504
634.557,0.03474
628.771,0.03457
622.985,0.03429
617.198,0.03280
611.412,0.03415
605.626,0.03369
599.84,0.03349