File: 01_Data/Rayon_Bamboo_Pillowcase/FTIR/IS/Rayon_Bamboo_Pillowcase_IS_S_220909_R1.dpt
7497.03,0.81739
7491.25,0.81817
7485.46,0.81345
7479.67,0.81049
7473.89,0.81435
7468.1,0.81506
7462.32,0.81090
7456.53,0.80140
7450.74,0.81171
7444.96,0.80614
7439.17,0.80866
7433.38,0.78756
7427.6,0.80076
7421.81,0.80532
7416.03,0.79805
7410.24,0.78761
7404.45,0.78753
7398.67,0.78169
7392.88,0.77939
7387.09,0.77857
7381.31,0.78335
7375.52,0.78563
7369.74,0.77551
7363.95,0.77949
7358.16,0.77402
7352.38,0.78403
7346.59,0.76294
7340.8,0.76917
7335.02,0.77077
7329.23,0.75424
7323.45,0.75316
7317.66,0.75817
7311.87,0.76652
7306.09,0.76055
7300.3,0.75832
7294.51,0.75992
7288.73,0.75866
7282.94,0.75909
7277.16,0.75624
7271.37,0.76379
7265.58,0.76703
7259.8,0.76922
7254.01,0.75651
7248.22,0.76134
7242.44,0.74856
7236.65,0.75670
7230.87,0.75156
7225.08,0.76015
7219.29,0.75948
7213.51,0.74859
7207.72,0.74994
7201.93,0.75094
7196.15,0.74131
7190.36,0.75061
7184.58,0.74024
7178.79,0.74111
7173,0.74485
7167.22,0.72363
7161.43,0.73372
7155.65,0.72980
7149.86,0.72877
7144.07,0.71786
7138.29,0.71371
7132.5,0.71962
7126.71,0.72029
7120.93,0.70499
7115.14,0.70416
7109.36,0.69624
7103.57,0.69420
7097.78,0.68488
7092,0.67485
7086.21,0.67042
7080.42,0.66637
7074.64,0.66263
7068.85,0.65688
7063.07,0.65384
7057.28,0.64627
7051.49,0.64209
7045.71,0.63274
7039.92,0.62507
7034.13,0.62658
7028.35,0.61507
7022.56,0.61399
7016.78,0.61098
7010.99,0.61019
7005.2,0.60391
6999.42,0.59992
6993.63,0.59801
6987.84,0.59773
6982.06,0.58790
6976.27,0.58551
6970.49,0.58259
6964.7,0.58117
6958.91,0.58408
6953.13,0.57254
6947.34,0.57053
6941.55,0.57530
6935.77,0.57315
6929.98,0.56934
6924.2,0.57021
6918.41,0.56543
6912.62,0.56602
6906.84,0.56483
6901.05,0.56414
6895.26,0.56446
6889.48,0.55611
6883.69,0.55720
6877.91,0.55472
6872.12,0.55460
6866.33,0.54860
6860.55,0.54996
6854.76,0.55345
6848.97,0.55447
6843.19,0.55176
6837.4,0.55024
6831.62,0.55712
6825.83,0.55361
6820.04,0.54652
6814.26,0.54817
6808.47,0.55099
6802.68,0.54752
6796.9,0.54286
6791.11,0.54332
6785.33,0.54538
6779.54,0.55005
6773.75,0.54304
6767.97,0.54649
6762.18,0.55023
6756.39,0.55084
6750.61,0.54663
6744.82,0.55227
6739.04,0.55022
6733.25,0.54859
6727.46,0.54667
6721.68,0.55619
6715.89,0.55190
6710.1,0.55530
6704.32,0.55498
6698.53,0.55462
6692.75,0.55724
6686.96,0.55224
6681.17,0.55842
6675.39,0.55797
6669.6,0.55679
6663.82,0.56206
6658.03,0.55856
6652.24,0.56411
6646.46,0.56609
6640.67,0.56656
6634.88,0.56689
6629.1,0.57128
6623.31,0.57174
6617.53,0.57581
6611.74,0.57841
6605.95,0.58093
6600.17,0.58002
6594.38,0.58270
6588.59,0.57889
6582.81,0.58558
6577.02,0.58527
6571.24,0.58779
6565.45,0.58985
6559.66,0.58855
6553.88,0.59115
6548.09,0.58816
6542.3,0.58770
6536.52,0.59455
6530.73,0.59541
6524.95,0.59778
6519.16,0.59347
6513.37,0.59709
6507.59,0.59240
6501.8,0.59589
6496.01,0.59425
6490.23,0.59811
6484.44,0.59797
6478.66,0.59942
6472.87,0.59850
6467.08,0.60282
6461.3,0.60195
6455.51,0.59566
6449.72,0.60159
6443.94,0.60360
6438.15,0.59826
6432.37,0.59750
6426.58,0.59593
6420.79,0.59558
6415.01,0.60160
6409.22,0.60028
6403.43,0.59599
6397.65,0.59558
6391.86,0.59703
6386.08,0.59836
6380.29,0.59831
6374.5,0.60078
6368.72,0.60193
6362.93,0.60170
6357.14,0.59882
6351.36,0.59969
6345.57,0.60000
6339.79,0.60107
6334,0.60107
6328.21,0.59825
6322.43,0.60102
6316.64,0.60384
6310.85,0.60509
6305.07,0.60493
6299.28,0.60849
6293.5,0.60857
6287.71,0.60706
6281.92,0.60817
6276.14,0.60984
6270.35,0.61501
6264.56,0.61147
6258.78,0.61377
6252.99,0.61532
6247.21,0.61865
6241.42,0.61708
6235.63,0.61985
6229.85,0.62323
6224.06,0.62210
6218.27,0.62203
6212.49,0.62284
6206.7,0.62662
6200.92,0.62598
6195.13,0.62728
6189.34,0.62973
6183.56,0.63488
6177.77,0.63559
6171.98,0.63257
6166.2,0.63757
6160.41,0.64148
6154.63,0.63590
6148.84,0.64188
6143.05,0.64383
6137.27,0.64084
6131.48,0.64523
6125.7,0.64449
6119.91,0.64745
6114.12,0.64515
6108.34,0.65226
6102.55,0.65271
6096.76,0.65444
6090.98,0.65384
6085.19,0.65525
6079.41,0.65512
6073.62,0.65964
6067.83,0.65925
6062.05,0.66238
6056.26,0.66339
6050.47,0.66344
6044.69,0.66670
6038.9,0.66570
6033.12,0.66770
6027.33,0.67056
6021.54,0.67042
6015.76,0.66989
6009.97,0.67053
6004.18,0.67196
5998.4,0.67071
5992.61,0.67149
5986.83,0.67136
5981.04,0.67370
5975.25,0.67129
5969.47,0.67418
5963.68,0.67195
5957.89,0.67161
5952.11,0.66977
5946.32,0.67071
5940.54,0.66852
5934.75,0.66791
5928.96,0.66571
5923.18,0.66534
5917.39,0.66369
5911.6,0.66111
5905.82,0.65970
5900.03,0.66403
5894.25,0.66227
5888.46,0.65883
5882.67,0.65761
5876.89,0.65936
5871.1,0.66026
5865.31,0.65836
5859.53,0.65810
5853.74,0.65746
5847.96,0.65613
5842.17,0.65421
5836.38,0.65152
5830.6,0.65186
5824.81,0.65218
5819.02,0.64866
5813.24,0.64612
5807.45,0.64560
5801.67,0.64838
5795.88,0.64639
5790.09,0.64648
5784.31,0.64552
5778.52,0.64721
5772.73,0.64204
5766.95,0.64544
5761.16,0.64640
5755.38,0.64570
5749.59,0.64406
5743.8,0.64382
5738.02,0.64462
5732.23,0.64415
5726.44,0.64493
5720.66,0.64399
5714.87,0.64474
5709.09,0.64131
5703.3,0.64180
5697.51,0.64067
5691.73,0.63946
5685.94,0.63925
5680.15,0.63865
5674.37,0.63788
5668.58,0.63651
5662.8,0.63783
5657.01,0.63598
5651.22,0.63524
5645.44,0.63680
5639.65,0.63565
5633.87,0.63398
5628.08,0.63520
5622.29,0.63632
5616.51,0.63652
5610.72,0.63642
5604.93,0.63662
5599.15,0.63731
5593.36,0.63833
5587.58,0.63882
5581.79,0.63939
5576,0.63580
5570.22,0.63944
5564.43,0.63914
5558.64,0.64129
5552.86,0.64126
5547.07,0.64208
5541.29,0.64064
5535.5,0.64373
5529.71,0.64416
5523.93,0.64469
5518.14,0.64388
5512.35,0.64468
5506.57,0.64549
5500.78,0.64572
5495,0.64435
5489.21,0.64350
5483.42,0.64588
5477.64,0.64564
5471.85,0.64543
5466.06,0.64607
5460.28,0.64688
5454.49,0.65108
5448.71,0.64696
5442.92,0.64657
5437.13,0.65025
5431.35,0.65055
5425.56,0.65353
5419.77,0.65573
5413.99,0.65256
5408.2,0.65584
5402.42,0.65884
5396.63,0.65636
5390.84,0.65831
5385.06,0.65799
5379.27,0.65819
5373.48,0.65727
5367.7,0.65906
5361.91,0.65821
5356.13,0.65561
5350.34,0.65209
5344.55,0.64699
5338.77,0.64476
5332.98,0.64623
5327.19,0.63997
5321.41,0.64119
5315.62,0.63455
5309.84,0.62878
5304.05,0.62254
5298.26,0.61412
5292.48,0.60448
5286.69,0.59281
5280.9,0.58211
5275.12,0.57249
5269.33,0.55778
5263.55,0.54382
5257.76,0.53185
5251.97,0.51824
5246.19,0.50402
5240.4,0.49694
5234.61,0.48805
5228.83,0.47860
5223.04,0.46951
5217.26,0.46464
5211.47,0.45929
5205.68,0.45000
5199.9,0.45135
5194.11,0.44722
5188.32,0.44361
5182.54,0.44192
5176.75,0.44338
5170.97,0.44377
5165.18,0.44396
5159.39,0.44430
5153.61,0.44683
5147.82,0.44890
5142.03,0.45228
5136.25,0.45484
5130.46,0.45791
5124.68,0.46079
5118.89,0.46474
5113.1,0.46841
5107.32,0.47080
5101.53,0.47504
5095.75,0.47795
5089.96,0.48270
5084.17,0.48622
5078.39,0.49014
5072.6,0.49356
5066.81,0.49636
5061.03,0.49969
5055.24,0.50154
5049.46,0.50497
5043.67,0.51080
5037.88,0.51210
5032.1,0.51731
5026.31,0.51886
5020.52,0.52230
5014.74,0.52528
5008.95,0.52641
5003.17,0.53014
4997.38,0.53183
4991.59,0.53291
4985.81,0.53389
4980.02,0.53389
4974.23,0.53506
4968.45,0.53342
4962.66,0.53267
4956.88,0.53224
4951.09,0.52954
4945.3,0.52656
4939.52,0.52400
4933.73,0.52021
4927.94,0.51575
4922.16,0.51165
4916.37,0.50518
4910.59,0.50105
4904.8,0.49579
4899.01,0.49000
4893.23,0.48434
4887.44,0.48018
4881.65,0.47417
4875.87,0.47034
4870.08,0.46684
4864.3,0.46260
4858.51,0.45828
4852.72,0.45454
4846.94,0.45252
4841.15,0.44818
4835.36,0.44621
4829.58,0.44255
4823.79,0.44036
4818.01,0.43729
4812.22,0.43570
4806.43,0.43377
4800.65,0.43385
4794.86,0.43148
4789.07,0.42941
4783.29,0.42860
4777.5,0.42918
4771.72,0.42887
4765.93,0.42938
4760.14,0.42904
4754.36,0.43121
4748.57,0.43363
4742.78,0.43567
4737,0.43682
4731.21,0.43857
4725.43,0.44075
4719.64,0.44281
4713.85,0.44481
4708.07,0.44624
4702.28,0.44883
4696.49,0.45073
4690.71,0.45312
4684.92,0.45539
4679.14,0.45818
4673.35,0.46213
4667.56,0.46366
4661.78,0.46604
4655.99,0.46881
4650.2,0.47044
4644.42,0.47322
4638.63,0.47465
4632.85,0.47583
4627.06,0.47837
4621.27,0.48131
4615.49,0.48330
4609.7,0.48486
4603.92,0.48697
4598.13,0.48927
4592.34,0.49106
4586.56,0.49140
4580.77,0.49450
4574.98,0.49554
4569.2,0.49700
4563.41,0.49901
4557.63,0.50062
4551.84,0.50085
4546.05,0.50290
4540.27,0.50431
4534.48,0.50557
4528.69,0.50654
4522.91,0.50753
4517.12,0.50957
4511.34,0.51009
4505.55,0.51050
4499.76,0.51140
4493.98,0.51155
4488.19,0.51113
4482.4,0.51041
4476.62,0.50887
4470.83,0.50649
4465.05,0.50282
4459.26,0.49959
4453.47,0.49376
4447.69,0.48773
4441.9,0.48023
4436.11,0.47259
4430.33,0.46504
4424.54,0.45806
4418.76,0.45217
4412.97,0.44774
4407.18,0.44535
4401.4,0.44378
4395.61,0.44261
4389.82,0.44018
4384.04,0.43879
4378.25,0.44014
4372.47,0.44185
4366.68,0.44270
4360.89,0.44254
4355.11,0.44066
4349.32,0.43902
4343.53,0.43610
4337.75,0.43328
4331.96,0.42924
4326.18,0.42467
4320.39,0.42199
4314.6,0.41896
4308.82,0.41640
4303.03,0.41466
4297.24,0.41225
4291.46,0.41068
4285.67,0.40942
4279.89,0.40838
4274.1,0.40761
4268.31,0.40676
4262.53,0.40654
4256.74,0.40468
4250.95,0.40394
4245.17,0.40256
4239.38,0.40292
4233.6,0.40394
4227.81,0.40578
4222.02,0.40669
4216.24,0.40684
4210.45,0.40637
4204.66,0.40738
4198.88,0.40796
4193.09,0.40859
4187.31,0.40816
4181.52,0.40772
4175.73,0.40690
4169.95,0.40565
4164.16,0.40406
4158.37,0.40157
4152.59,0.39849
4146.8,0.39445
4141.02,0.39050
4135.23,0.38647
4129.44,0.38307
4123.66,0.37844
4117.87,0.37353
4112.09,0.36889
4106.3,0.36374
4100.51,0.35838
4094.73,0.35220
4088.94,0.34634
4083.15,0.34031
4077.37,0.33473
4071.58,0.32877
4065.8,0.32307
4060.01,0.31854
4054.22,0.31320
4048.44,0.30805
4042.65,0.30414
4036.86,0.30121
4031.08,0.29736
4025.29,0.29452
4019.51,0.29134
4013.72,0.29026
4007.93,0.28903
4002.15,0.28842
3996.36,0.28866
3990.57,0.28912
3984.79,0.28982
3979,0.29052
3973.22,0.29084
3967.43,0.29157
3961.64,0.29141
3955.86,0.29294
3950.07,0.29313
3944.28,0.29537
3938.5,0.29852
3932.71,0.29922
3926.93,0.30247
3921.14,0.30479
3915.35,0.30803
3909.57,0.31257
3903.78,0.30964
3897.99,0.31565
3892.21,0.31796
3886.42,0.32078
3880.64,0.32226
3874.85,0.32551
3869.06,0.32635
3863.28,0.32967
3857.49,0.33366
3851.7,0.33230
3845.92,0.34065
3840.13,0.33625
3834.35,0.33914
3828.56,0.34138
3822.77,0.33773
3816.99,0.33740
3811.2,0.34243
3805.41,0.33632
3799.63,0.33371
3793.84,0.33719
3788.06,0.33672
3782.27,0.33377
3776.48,0.33248
3770.7,0.32765
3764.91,0.32605
3759.12,0.32100
3753.34,0.31512
3747.55,0.31016
3741.77,0.30791
3735.98,0.29972
3730.19,0.30031
3724.41,0.29309
3718.62,0.28735
3712.83,0.27700
3707.05,0.26911
3701.26,0.25825
3695.48,0.24778
3689.69,0.22896
3683.9,0.21706
3678.12,0.19891
3672.33,0.17736
3666.54,0.16092
3660.76,0.14494
3654.97,0.12757
3649.19,0.11021
3643.4,0.09939
3637.61,0.08892
3631.83,0.07871
3626.04,0.06919
3620.25,0.06305
3614.47,0.05709
3608.68,0.05171
3602.9,0.04852
3597.11,0.04393
3591.32,0.04139
3585.54,0.03781
3579.75,0.03608
3573.97,0.03396
3568.18,0.03245
3562.39,0.03080
3556.61,0.02987
3550.82,0.02836
3545.03,0.02776
3539.25,0.02656
3533.46,0.02611
3527.68,0.02582
3521.89,0.02517
3516.1,0.02507
3510.32,0.02424
3504.53,0.02420
3498.74,0.02414
3492.96,0.02393
3487.17,0.02516
3481.39,0.02515
3475.6,0.02485
3469.81,0.02386
3464.03,0.02495
3458.24,0.02531
3452.45,0.02477
3446.67,0.02626
3440.88,0.02651
3435.1,0.02678
3429.31,0.02631
3423.52,0.02660
3417.74,0.02609
3411.95,0.02691
3406.16,0.02699
3400.38,0.02764
3394.59,0.02768
3388.81,0.02680
3383.02,0.02753
3377.23,0.02718
3371.45,0.02744
3365.66,0.02778
3359.87,0.02831
3354.09,0.02737
3348.3,0.02763
3342.52,0.02800
3336.73,0.02821
3330.94,0.02827
3325.16,0.02798
3319.37,0.02891
3313.58,0.02844
3307.8,0.02908
3302.01,0.02931
3296.23,0.02921
3290.44,0.02948
3284.65,0.02897
3278.87,0.02926
3273.08,0.02970
3267.29,0.02981
3261.51,0.02873
3255.72,0.02935
3249.94,0.03071
3244.15,0.03060
3238.36,0.03025
3232.58,0.03045
3226.79,0.03031
3221,0.03046
3215.22,0.03127
3209.43,0.03129
3203.65,0.03124
3197.86,0.03201
3192.07,0.03202
3186.29,0.03235
3180.5,0.03236
3174.71,0.03365
3168.93,0.03308
3163.14,0.03389
3157.36,0.03453
3151.57,0.03546
3145.78,0.03624
3140,0.03729
3134.21,0.03789
3128.42,0.03936
3122.64,0.03993
3116.85,0.04099
3111.07,0.04205
3105.28,0.04350
3099.49,0.04576
3093.71,0.04680
3087.92,0.04815
3082.14,0.05003
3076.35,0.05257
3070.56,0.05506
3064.78,0.05662
3058.99,0.05878
3053.2,0.06055
3047.42,0.06310
3041.63,0.06515
3035.85,0.06731
3030.06,0.06959
3024.27,0.07125
3018.49,0.07288
3012.7,0.07480
3006.91,0.07570
3001.13,0.07595
2995.34,0.07516
2989.56,0.07247
2983.77,0.06832
2977.98,0.06610
2972.2,0.06184
2966.41,0.05900
2960.62,0.05577
2954.84,0.05203
2949.05,0.04923
2943.27,0.04695
2937.48,0.04388
2931.69,0.04234
2925.91,0.04141
2920.12,0.04076
2914.33,0.04045
2908.55,0.04045
2902.76,0.03987
2896.98,0.04011
2891.19,0.04062
2885.4,0.04168
2879.62,0.04266
2873.83,0.04463
2868.04,0.04727
2862.26,0.05054
2856.47,0.05324
2850.69,0.05569
2844.9,0.06162
2839.11,0.06702
2833.33,0.07051
2827.54,0.07423
2821.75,0.07709
2815.97,0.08014
2810.18,0.08304
2804.4,0.08635
2798.61,0.08911
2792.82,0.09192
2787.04,0.09417
2781.25,0.09742
2775.46,0.09956
2769.68,0.10195
2763.89,0.10396
2758.11,0.10586
2752.32,0.10675
2746.53,0.10757
2740.75,0.10820
2734.96,0.10946
2729.17,0.11099
2723.39,0.11227
2717.6,0.11364
2711.82,0.11591
2706.03,0.11782
2700.24,0.12008
2694.46,0.12286
2688.67,0.12545
2682.88,0.12838
2677.1,0.13134
2671.31,0.13408
2665.53,0.13698
2659.74,0.13997
2653.95,0.14289
2648.17,0.14594
2642.38,0.14893
2636.59,0.15175
2630.81,0.15475
2625.02,0.15745
2619.24,0.16010
2613.45,0.16265
2607.66,0.16533
2601.88,0.16763
2596.09,0.16921
2590.3,0.17118
2584.52,0.17229
2578.73,0.17355
2572.95,0.17518
2567.16,0.17655
2561.37,0.17767
2555.59,0.17833
2549.8,0.17869
2544.02,0.17876
2538.23,0.17948
2532.44,0.18000
2526.66,0.18116
2520.87,0.18228
2515.08,0.18332
2509.3,0.18523
2503.51,0.18624
2497.73,0.18825
2491.94,0.18957
2486.15,0.19215
2480.37,0.19473
2474.58,0.19686
2468.79,0.19914
2463.01,0.20174
2457.22,0.20500
2451.44,0.20790
2445.65,0.21097
2439.86,0.21424
2434.08,0.21677
2428.29,0.21954
2422.5,0.22275
2416.72,0.22513
2410.93,0.22699
2405.15,0.22938
2399.36,0.23091
2393.57,0.23252
2387.79,0.23370
2382,0.23555
2376.21,0.23872
2370.43,0.24117
2364.64,0.24285
2358.86,0.24430
2353.07,0.24529
2347.28,0.24591
2341.5,0.24878
2335.71,0.25045
2329.92,0.25026
2324.14,0.25013
2318.35,0.24946
2312.57,0.24926
2306.78,0.24864
2300.99,0.24785
2295.21,0.24701
2289.42,0.24569
2283.63,0.24406
2277.85,0.24175
2272.06,0.23876
2266.28,0.23615
2260.49,0.23367
2254.7,0.23096
2248.92,0.22884
2243.13,0.22682
2237.34,0.22440
2231.56,0.22306
2225.77,0.22175
2219.99,0.21979
2214.2,0.21791
2208.41,0.21639
2202.63,0.21504
2196.84,0.21313
2191.05,0.21137
2185.27,0.20861
2179.48,0.20615
2173.7,0.20332
2167.91,0.20131
2162.12,0.19919
2156.34,0.19783
2150.55,0.19628
2144.76,0.19551
2138.98,0.19511
2133.19,0.19468
2127.41,0.19479
2121.62,0.19569
2115.83,0.19733
2110.05,0.19947
2104.26,0.20172
2098.47,0.20408
2092.69,0.20615
2086.9,0.20760
2081.12,0.20933
2075.33,0.21010
2069.54,0.20960
2063.76,0.20936
2057.97,0.20978
2052.19,0.21012
2046.4,0.21038
2040.61,0.21161
2034.83,0.21413
2029.04,0.21724
2023.25,0.22066
2017.47,0.22437
2011.68,0.22841
2005.9,0.23172
2000.11,0.23414
1994.32,0.23539
1988.54,0.23572
1982.75,0.23783
1976.96,0.24059
1971.18,0.24412
1965.39,0.24687
1959.61,0.25097
1953.82,0.25459
1948.03,0.25782
1942.25,0.26079
1936.46,0.26519
1930.67,0.26791
1924.89,0.26912
1919.1,0.27101
1913.32,0.27431
1907.53,0.27651
1901.74,0.27885
1895.96,0.27963
1890.17,0.27927
1884.38,0.28029
1878.6,0.27946
1872.81,0.27813
1867.03,0.27393
1861.24,0.27474
1855.45,0.27232
1849.67,0.26901
1843.88,0.26355
1838.09,0.26260
1832.31,0.25856
1826.52,0.25412
1820.74,0.25285
1814.95,0.24933
1809.16,0.24409
1803.38,0.23936
1797.59,0.23396
1791.8,0.22755
1786.02,0.22511
1780.23,0.21977
1774.45,0.21359
1768.66,0.20603
1762.87,0.19907
1757.09,0.19166
1751.3,0.18526
1745.51,0.17838
1739.73,0.16983
1733.94,0.15864
1728.16,0.14582
1722.37,0.12934
1716.58,0.10674
1710.8,0.08955
1705.01,0.07379
1699.22,0.06234
1693.44,0.05664
1687.65,0.05381
1681.87,0.05005
1676.08,0.04934
1670.29,0.04835
1664.51,0.04944
1658.72,0.05025
1652.93,0.05107
1647.15,0.05171
1641.36,0.05434
1635.58,0.05509
1629.79,0.05846
1624,0.06210
1618.22,0.06654
1612.43,0.07244
1606.64,0.07745
1600.86,0.08263
1595.07,0.08708
1589.29,0.09115
1583.5,0.09499
1577.71,0.09735
1571.93,0.10041
1566.14,0.10308
1560.35,0.10282
1554.57,0.10385
1548.78,0.10410
1543,0.10001
1537.21,0.09672
1531.42,0.09186
1525.64,0.08385
1519.85,0.07356
1514.07,0.06862
1508.28,0.06398
1502.49,0.06410
1496.71,0.06297
1490.92,0.06166
1485.13,0.05704
1479.35,0.05123
1473.56,0.04427
1467.78,0.04047
1461.99,0.03812
1456.2,0.03557
1450.42,0.03479
1444.63,0.03334
1438.84,0.03298
1433.06,0.03285
1427.27,0.03165
1421.49,0.03094
1415.7,0.03097
1409.91,0.03194
1404.13,0.03205
1398.34,0.03204
1392.55,0.03093
1386.77,0.02988
1380.98,0.02794
1375.2,0.02721
1369.41,0.02789
1363.62,0.02939
1357.84,0.03071
1352.05,0.03175
1346.26,0.03144
1340.48,0.03106
1334.69,0.03045
1328.91,0.03144
1323.12,0.03119
1317.33,0.03098
1311.55,0.03154
1305.76,0.03285
1299.97,0.03471
1294.19,0.03588
1288.4,0.03644
1282.62,0.03495
1276.83,0.03361
1271.04,0.03388
1265.26,0.03341
1259.47,0.03378
1253.68,0.03519
1247.9,0.03572
1242.11,0.03464
1236.33,0.03373
1230.54,0.03357
1224.75,0.03409
1218.97,0.03525
1213.18,0.03390
1207.39,0.03028
1201.61,0.02787
1195.82,0.02768
1190.04,0.02766
1184.25,0.02522
1178.46,0.02234
1172.68,0.02095
1166.89,0.02255
1161.1,0.02512
1155.32,0.02605
1149.53,0.02476
1143.75,0.02205
1137.96,0.02147
1132.17,0.02072
1126.39,0.02167
1120.6,0.02458
1114.81,0.02642
1109.03,0.02700
1103.24,0.02683
1097.46,0.02776
1091.67,0.02811
1085.88,0.03199
1080.1,0.03705
1074.31,0.04112
1068.52,0.04362
1062.74,0.04396
1056.95,0.04286
1051.17,0.04177
1045.38,0.04044
1039.59,0.04026
1033.81,0.04139
1028.02,0.04440
1022.24,0.04564
1016.45,0.04719
1010.66,0.04610
1004.88,0.04479
999.09,0.04612
993.304,0.04866
987.518,0.05160
981.731,0.05779
975.945,0.06232
970.159,0.06236
964.373,0.06404
958.586,0.07154
952.8,0.08101
947.014,0.08602
941.228,0.08698
935.441,0.08561
929.655,0.08425
923.869,0.08315
918.083,0.08080
912.297,0.07260
906.51,0.06229
900.724,0.05368
894.938,0.05307
889.152,0.06345
883.365,0.07413
877.579,0.08238
871.793,0.08455
866.007,0.08445
860.22,0.08306
854.434,0.08027
848.648,0.07757
842.862,0.07388
837.075,0.07035
831.289,0.06763
825.503,0.06356
819.717,0.06083
813.931,0.05852
808.144,0.05785
802.358,0.05643
796.572,0.05523
790.786,0.05378
784.999,0.05240
779.213,0.05079
773.427,0.04891
767.641,0.04799
761.854,0.04595
756.068,0.04539
750.282,0.04427
744.496,0.04372
738.709,0.04217
732.923,0.04025
727.137,0.03863
721.351,0.03856
715.565,0.03746
709.778,0.03795
703.992,0.03683
698.206,0.03630
692.42,0.03576
686.633,0.03504
680.847,0.03322
675.061,0.03139
669.275,0.03402
663.488,0.03380
657.702,0.03609
651.916,0.03504
646.13,0.03506
640.343,0.03319
634.557,0.03244
628.771,0.03294
622.985,0.03351
617.198,0.03388
611.412,0.03216
605.626,0.03251
599.84,0.03143