File: 01_Data/Rayon_Bamboo_Pillowcase/FTIR/IS/Rayon_Bamboo_Pillowcase_IS_S_220909_R3.dpt
7497.03,0.82270
7491.25,0.82120
7485.46,0.81775
7479.67,0.81943
7473.89,0.82251
7468.1,0.81221
7462.32,0.80975
7456.53,0.80999
7450.74,0.81601
7444.96,0.80631
7439.17,0.80580
7433.38,0.80599
7427.6,0.80605
7421.81,0.81533
7416.03,0.80247
7410.24,0.79157
7404.45,0.79116
7398.67,0.79012
7392.88,0.78644
7387.09,0.79079
7381.31,0.80298
7375.52,0.79706
7369.74,0.78147
7363.95,0.77944
7358.16,0.78306
7352.38,0.78803
7346.59,0.78133
7340.8,0.79518
7335.02,0.77991
7329.23,0.77458
7323.45,0.77178
7317.66,0.76547
7311.87,0.77915
7306.09,0.77550
7300.3,0.77322
7294.51,0.77439
7288.73,0.76794
7282.94,0.77297
7277.16,0.76164
7271.37,0.76027
7265.58,0.76831
7259.8,0.77937
7254.01,0.77036
7248.22,0.75354
7242.44,0.76801
7236.65,0.76947
7230.87,0.78089
7225.08,0.77348
7219.29,0.76546
7213.51,0.75901
7207.72,0.76283
7201.93,0.75947
7196.15,0.75635
7190.36,0.74738
7184.58,0.75170
7178.79,0.75246
7173,0.74739
7167.22,0.74203
7161.43,0.74268
7155.65,0.73981
7149.86,0.73474
7144.07,0.72697
7138.29,0.73124
7132.5,0.72730
7126.71,0.72089
7120.93,0.71838
7115.14,0.71550
7109.36,0.70651
7103.57,0.70178
7097.78,0.69420
7092,0.69539
7086.21,0.68028
7080.42,0.68131
7074.64,0.66755
7068.85,0.66462
7063.07,0.65746
7057.28,0.65465
7051.49,0.65038
7045.71,0.64757
7039.92,0.63477
7034.13,0.63115
7028.35,0.62743
7022.56,0.62651
7016.78,0.62436
7010.99,0.61063
7005.2,0.60700
6999.42,0.60566
6993.63,0.59867
6987.84,0.59734
6982.06,0.59665
6976.27,0.59203
6970.49,0.59402
6964.7,0.58605
6958.91,0.57982
6953.13,0.58727
6947.34,0.58282
6941.55,0.57728
6935.77,0.57757
6929.98,0.57628
6924.2,0.57596
6918.41,0.57221
6912.62,0.57018
6906.84,0.57405
6901.05,0.56936
6895.26,0.57032
6889.48,0.56295
6883.69,0.56305
6877.91,0.56078
6872.12,0.56149
6866.33,0.56094
6860.55,0.56206
6854.76,0.55967
6848.97,0.55448
6843.19,0.56155
6837.4,0.56175
6831.62,0.55683
6825.83,0.54936
6820.04,0.55546
6814.26,0.55146
6808.47,0.55194
6802.68,0.55046
6796.9,0.54997
6791.11,0.54718
6785.33,0.55468
6779.54,0.54936
6773.75,0.55007
6767.97,0.55167
6762.18,0.54928
6756.39,0.54916
6750.61,0.55699
6744.82,0.55695
6739.04,0.55471
6733.25,0.55715
6727.46,0.55943
6721.68,0.55918
6715.89,0.55604
6710.1,0.56010
6704.32,0.56106
6698.53,0.56327
6692.75,0.56336
6686.96,0.56323
6681.17,0.55819
6675.39,0.56494
6669.6,0.56492
6663.82,0.56837
6658.03,0.56730
6652.24,0.56571
6646.46,0.57127
6640.67,0.57285
6634.88,0.57635
6629.1,0.57411
6623.31,0.58002
6617.53,0.58292
6611.74,0.58080
6605.95,0.58327
6600.17,0.58340
6594.38,0.58444
6588.59,0.58574
6582.81,0.58647
6577.02,0.59411
6571.24,0.59358
6565.45,0.59116
6559.66,0.59547
6553.88,0.59634
6548.09,0.59454
6542.3,0.59821
6536.52,0.59355
6530.73,0.59918
6524.95,0.59677
6519.16,0.59808
6513.37,0.59941
6507.59,0.60138
6501.8,0.60247
6496.01,0.60544
6490.23,0.60430
6484.44,0.60258
6478.66,0.60435
6472.87,0.60442
6467.08,0.60209
6461.3,0.60262
6455.51,0.60083
6449.72,0.59933
6443.94,0.60536
6438.15,0.60552
6432.37,0.60430
6426.58,0.60324
6420.79,0.60130
6415.01,0.60054
6409.22,0.60238
6403.43,0.60298
6397.65,0.59925
6391.86,0.60237
6386.08,0.60049
6380.29,0.60132
6374.5,0.59949
6368.72,0.60267
6362.93,0.60325
6357.14,0.60290
6351.36,0.59902
6345.57,0.60335
6339.79,0.60778
6334,0.60643
6328.21,0.60575
6322.43,0.60812
6316.64,0.60828
6310.85,0.60701
6305.07,0.60757
6299.28,0.60962
6293.5,0.60905
6287.71,0.60834
6281.92,0.61068
6276.14,0.61316
6270.35,0.61384
6264.56,0.61714
6258.78,0.61670
6252.99,0.61264
6247.21,0.61998
6241.42,0.62051
6235.63,0.62039
6229.85,0.62108
6224.06,0.62729
6218.27,0.62764
6212.49,0.62981
6206.7,0.62960
6200.92,0.63081
6195.13,0.63310
6189.34,0.63401
6183.56,0.63445
6177.77,0.63800
6171.98,0.64136
6166.2,0.63873
6160.41,0.63991
6154.63,0.64069
6148.84,0.64498
6143.05,0.64373
6137.27,0.64724
6131.48,0.64760
6125.7,0.64923
6119.91,0.65041
6114.12,0.65067
6108.34,0.65333
6102.55,0.65281
6096.76,0.65453
6090.98,0.65712
6085.19,0.66024
6079.41,0.66160
6073.62,0.66166
6067.83,0.66236
6062.05,0.66326
6056.26,0.66510
6050.47,0.66901
6044.69,0.66674
6038.9,0.66885
6033.12,0.67065
6027.33,0.66844
6021.54,0.67241
6015.76,0.67726
6009.97,0.67592
6004.18,0.67431
5998.4,0.67565
5992.61,0.67592
5986.83,0.67560
5981.04,0.67587
5975.25,0.67734
5969.47,0.67764
5963.68,0.67743
5957.89,0.67529
5952.11,0.67456
5946.32,0.67413
5940.54,0.67139
5934.75,0.67228
5928.96,0.66999
5923.18,0.66764
5917.39,0.66804
5911.6,0.66302
5905.82,0.66507
5900.03,0.66071
5894.25,0.66188
5888.46,0.65938
5882.67,0.66314
5876.89,0.66122
5871.1,0.66095
5865.31,0.66148
5859.53,0.66037
5853.74,0.66067
5847.96,0.65900
5842.17,0.65711
5836.38,0.65523
5830.6,0.65566
5824.81,0.65191
5819.02,0.65006
5813.24,0.64859
5807.45,0.64795
5801.67,0.64915
5795.88,0.64970
5790.09,0.64872
5784.31,0.64799
5778.52,0.64805
5772.73,0.64810
5766.95,0.64551
5761.16,0.64727
5755.38,0.64663
5749.59,0.64842
5743.8,0.64718
5738.02,0.64778
5732.23,0.64792
5726.44,0.64547
5720.66,0.64735
5714.87,0.64351
5709.09,0.64268
5703.3,0.64540
5697.51,0.64488
5691.73,0.64492
5685.94,0.64147
5680.15,0.64183
5674.37,0.63988
5668.58,0.63994
5662.8,0.63935
5657.01,0.63997
5651.22,0.63724
5645.44,0.63872
5639.65,0.63730
5633.87,0.63938
5628.08,0.63941
5622.29,0.63873
5616.51,0.63986
5610.72,0.64084
5604.93,0.64029
5599.15,0.64052
5593.36,0.63891
5587.58,0.64144
5581.79,0.64200
5576,0.64181
5570.22,0.64219
5564.43,0.64324
5558.64,0.64269
5552.86,0.64430
5547.07,0.64769
5541.29,0.64548
5535.5,0.64935
5529.71,0.64795
5523.93,0.64900
5518.14,0.65236
5512.35,0.65124
5506.57,0.65278
5500.78,0.65131
5495,0.65433
5489.21,0.65685
5483.42,0.65080
5477.64,0.65672
5471.85,0.65484
5466.06,0.65711
5460.28,0.66010
5454.49,0.65442
5448.71,0.66161
5442.92,0.66464
5437.13,0.66079
5431.35,0.66666
5425.56,0.66332
5419.77,0.65962
5413.99,0.67381
5408.2,0.67083
5402.42,0.66739
5396.63,0.67332
5390.84,0.67019
5385.06,0.67391
5379.27,0.67191
5373.48,0.67176
5367.7,0.66707
5361.91,0.66669
5356.13,0.66753
5350.34,0.67076
5344.55,0.67570
5338.77,0.66987
5332.98,0.65975
5327.19,0.65818
5321.41,0.64951
5315.62,0.64405
5309.84,0.64011
5304.05,0.63291
5298.26,0.62428
5292.48,0.61983
5286.69,0.61055
5280.9,0.59749
5275.12,0.58357
5269.33,0.57378
5263.55,0.56714
5257.76,0.54772
5251.97,0.53883
5246.19,0.53076
5240.4,0.51335
5234.61,0.50352
5228.83,0.49519
5223.04,0.48880
5217.26,0.48075
5211.47,0.47431
5205.68,0.47499
5199.9,0.46473
5194.11,0.46349
5188.32,0.46138
5182.54,0.45966
5176.75,0.45774
5170.97,0.45891
5165.18,0.45874
5159.39,0.46054
5153.61,0.46358
5147.82,0.46375
5142.03,0.46765
5136.25,0.46938
5130.46,0.47250
5124.68,0.47501
5118.89,0.47906
5113.1,0.48411
5107.32,0.48494
5101.53,0.48968
5095.75,0.49378
5089.96,0.49646
5084.17,0.49810
5078.39,0.50387
5072.6,0.50601
5066.81,0.50991
5061.03,0.51264
5055.24,0.51644
5049.46,0.52064
5043.67,0.52332
5037.88,0.52662
5032.1,0.52814
5026.31,0.53173
5020.52,0.53480
5014.74,0.53778
5008.95,0.53980
5003.17,0.53992
4997.38,0.54078
4991.59,0.54272
4985.81,0.54432
4980.02,0.54348
4974.23,0.54452
4968.45,0.54409
4962.66,0.54021
4956.88,0.53993
4951.09,0.53683
4945.3,0.53443
4939.52,0.53113
4933.73,0.52647
4927.94,0.52102
4922.16,0.51755
4916.37,0.51118
4910.59,0.50585
4904.8,0.49946
4899.01,0.49482
4893.23,0.48942
4887.44,0.48242
4881.65,0.47721
4875.87,0.47328
4870.08,0.46878
4864.3,0.46549
4858.51,0.46099
4852.72,0.45664
4846.94,0.45345
4841.15,0.45105
4835.36,0.44758
4829.58,0.44487
4823.79,0.44216
4818.01,0.44078
4812.22,0.43739
4806.43,0.43577
4800.65,0.43514
4794.86,0.43405
4789.07,0.43136
4783.29,0.43032
4777.5,0.43025
4771.72,0.43025
4765.93,0.43099
4760.14,0.43195
4754.36,0.43322
4748.57,0.43396
4742.78,0.43679
4737,0.43891
4731.21,0.44057
4725.43,0.44228
4719.64,0.44438
4713.85,0.44542
4708.07,0.44787
4702.28,0.45056
4696.49,0.45214
4690.71,0.45518
4684.92,0.45852
4679.14,0.46058
4673.35,0.46267
4667.56,0.46642
4661.78,0.46860
4655.99,0.47125
4650.2,0.47154
4644.42,0.47492
4638.63,0.47716
4632.85,0.47947
4627.06,0.48078
4621.27,0.48383
4615.49,0.48576
4609.7,0.48739
4603.92,0.48968
4598.13,0.49190
4592.34,0.49297
4586.56,0.49478
4580.77,0.49698
4574.98,0.49770
4569.2,0.50008
4563.41,0.50085
4557.63,0.50289
4551.84,0.50383
4546.05,0.50508
4540.27,0.50712
4534.48,0.50801
4528.69,0.50930
4522.91,0.51076
4517.12,0.51156
4511.34,0.51287
4505.55,0.51333
4499.76,0.51438
4493.98,0.51430
4488.19,0.51403
4482.4,0.51205
4476.62,0.51190
4470.83,0.50881
4465.05,0.50567
4459.26,0.50121
4453.47,0.49603
4447.69,0.48993
4441.9,0.48300
4436.11,0.47440
4430.33,0.46700
4424.54,0.46050
4418.76,0.45431
4412.97,0.45018
4407.18,0.44778
4401.4,0.44577
4395.61,0.44343
4389.82,0.44160
4384.04,0.43929
4378.25,0.44114
4372.47,0.44337
4366.68,0.44398
4360.89,0.44375
4355.11,0.44104
4349.32,0.43993
4343.53,0.43778
4337.75,0.43420
4331.96,0.42983
4326.18,0.42662
4320.39,0.42370
4314.6,0.42059
4308.82,0.41889
4303.03,0.41635
4297.24,0.41398
4291.46,0.41252
4285.67,0.41093
4279.89,0.40879
4274.1,0.40951
4268.31,0.40842
4262.53,0.40796
4256.74,0.40665
4250.95,0.40518
4245.17,0.40556
4239.38,0.40495
4233.6,0.40637
4227.81,0.40796
4222.02,0.40892
4216.24,0.40926
4210.45,0.40876
4204.66,0.40951
4198.88,0.41047
4193.09,0.41104
4187.31,0.41127
4181.52,0.41108
4175.73,0.40992
4169.95,0.40896
4164.16,0.40697
4158.37,0.40432
4152.59,0.40177
4146.8,0.39778
4141.02,0.39381
4135.23,0.39057
4129.44,0.38623
4123.66,0.38172
4117.87,0.37721
4112.09,0.37196
4106.3,0.36706
4100.51,0.36119
4094.73,0.35608
4088.94,0.34975
4083.15,0.34386
4077.37,0.33762
4071.58,0.33114
4065.8,0.32610
4060.01,0.32084
4054.22,0.31583
4048.44,0.31151
4042.65,0.30754
4036.86,0.30365
4031.08,0.30013
4025.29,0.29772
4019.51,0.29446
4013.72,0.29275
4007.93,0.29209
4002.15,0.29156
3996.36,0.29250
3990.57,0.29287
3984.79,0.29333
3979,0.29442
3973.22,0.29579
3967.43,0.29519
3961.64,0.29670
3955.86,0.29706
3950.07,0.30145
3944.28,0.30375
3938.5,0.30291
3932.71,0.30994
3926.93,0.31290
3921.14,0.31655
3915.35,0.31843
3909.57,0.31879
3903.78,0.33521
3897.99,0.33230
3892.21,0.33452
3886.42,0.33863
3880.64,0.34334
3874.85,0.34375
3869.06,0.35415
3863.28,0.35491
3857.49,0.35452
3851.7,0.36797
3845.92,0.35534
3840.13,0.37141
3834.35,0.36611
3828.56,0.36020
3822.77,0.36778
3816.99,0.36631
3811.2,0.35308
3805.41,0.36177
3799.63,0.36387
3793.84,0.35064
3788.06,0.34639
3782.27,0.34848
3776.48,0.34419
3770.7,0.34703
3764.91,0.34364
3759.12,0.34530
3753.34,0.34943
3747.55,0.35155
3741.77,0.33942
3735.98,0.34496
3730.19,0.32340
3724.41,0.31854
3718.62,0.30528
3712.83,0.30349
3707.05,0.28676
3701.26,0.27681
3695.48,0.26232
3689.69,0.25852
3683.9,0.23206
3678.12,0.22231
3672.33,0.20352
3666.54,0.17526
3660.76,0.15593
3654.97,0.14120
3649.19,0.13313
3643.4,0.11045
3637.61,0.09725
3631.83,0.08952
3626.04,0.07906
3620.25,0.07220
3614.47,0.06480
3608.68,0.05832
3602.9,0.05253
3597.11,0.04825
3591.32,0.04427
3585.54,0.04137
3579.75,0.03830
3573.97,0.03596
3568.18,0.03566
3562.39,0.03293
3556.61,0.03079
3550.82,0.02925
3545.03,0.02824
3539.25,0.02765
3533.46,0.02759
3527.68,0.02661
3521.89,0.02675
3516.1,0.02540
3510.32,0.02521
3504.53,0.02522
3498.74,0.02473
3492.96,0.02457
3487.17,0.02547
3481.39,0.02468
3475.6,0.02498
3469.81,0.02488
3464.03,0.02514
3458.24,0.02495
3452.45,0.02538
3446.67,0.02649
3440.88,0.02606
3435.1,0.02579
3429.31,0.02659
3423.52,0.02616
3417.74,0.02700
3411.95,0.02685
3406.16,0.02733
3400.38,0.02699
3394.59,0.02731
3388.81,0.02750
3383.02,0.02814
3377.23,0.02728
3371.45,0.02781
3365.66,0.02796
3359.87,0.02746
3354.09,0.02815
3348.3,0.02808
3342.52,0.02783
3336.73,0.02858
3330.94,0.02872
3325.16,0.02863
3319.37,0.02902
3313.58,0.02904
3307.8,0.02915
3302.01,0.02871
3296.23,0.02905
3290.44,0.02880
3284.65,0.03037
3278.87,0.02896
3273.08,0.02874
3267.29,0.03011
3261.51,0.03099
3255.72,0.02977
3249.94,0.02909
3244.15,0.02988
3238.36,0.03037
3232.58,0.03053
3226.79,0.03085
3221,0.03109
3215.22,0.03142
3209.43,0.03118
3203.65,0.03196
3197.86,0.03280
3192.07,0.03200
3186.29,0.03280
3180.5,0.03371
3174.71,0.03383
3168.93,0.03418
3163.14,0.03455
3157.36,0.03544
3151.57,0.03580
3145.78,0.03681
3140,0.03785
3134.21,0.03914
3128.42,0.03994
3122.64,0.04079
3116.85,0.04306
3111.07,0.04389
3105.28,0.04515
3099.49,0.04723
3093.71,0.04898
3087.92,0.05054
3082.14,0.05216
3076.35,0.05438
3070.56,0.05672
3064.78,0.05898
3058.99,0.06036
3053.2,0.06287
3047.42,0.06546
3041.63,0.06817
3035.85,0.07010
3030.06,0.07292
3024.27,0.07442
3018.49,0.07616
3012.7,0.07803
3006.91,0.07842
3001.13,0.07880
2995.34,0.07775
2989.56,0.07495
2983.77,0.07058
2977.98,0.06719
2972.2,0.06361
2966.41,0.05962
2960.62,0.05601
2954.84,0.05279
2949.05,0.05016
2943.27,0.04683
2937.48,0.04450
2931.69,0.04215
2925.91,0.04154
2920.12,0.04027
2914.33,0.04051
2908.55,0.04036
2902.76,0.04008
2896.98,0.04005
2891.19,0.04019
2885.4,0.04170
2879.62,0.04292
2873.83,0.04486
2868.04,0.04738
2862.26,0.05083
2856.47,0.05389
2850.69,0.05621
2844.9,0.06172
2839.11,0.06737
2833.33,0.07171
2827.54,0.07531
2821.75,0.07847
2815.97,0.08123
2810.18,0.08480
2804.4,0.08719
2798.61,0.09043
2792.82,0.09333
2787.04,0.09607
2781.25,0.09841
2775.46,0.10115
2769.68,0.10338
2763.89,0.10535
2758.11,0.10742
2752.32,0.10849
2746.53,0.10931
2740.75,0.10979
2734.96,0.11094
2729.17,0.11181
2723.39,0.11326
2717.6,0.11538
2711.82,0.11755
2706.03,0.11924
2700.24,0.12184
2694.46,0.12464
2688.67,0.12729
2682.88,0.13000
2677.1,0.13266
2671.31,0.13594
2665.53,0.13867
2659.74,0.14134
2653.95,0.14466
2648.17,0.14743
2642.38,0.15018
2636.59,0.15352
2630.81,0.15609
2625.02,0.15889
2619.24,0.16156
2613.45,0.16474
2607.66,0.16660
2601.88,0.16907
2596.09,0.17102
2590.3,0.17247
2584.52,0.17437
2578.73,0.17556
2572.95,0.17669
2567.16,0.17811
2561.37,0.17924
2555.59,0.18015
2549.8,0.18084
2544.02,0.18124
2538.23,0.18176
2532.44,0.18204
2526.66,0.18277
2520.87,0.18472
2515.08,0.18525
2509.3,0.18691
2503.51,0.18877
2497.73,0.18953
2491.94,0.19174
2486.15,0.19367
2480.37,0.19611
2474.58,0.19881
2468.79,0.20141
2463.01,0.20398
2457.22,0.20676
2451.44,0.20969
2445.65,0.21315
2439.86,0.21646
2434.08,0.21884
2428.29,0.22244
2422.5,0.22530
2416.72,0.22828
2410.93,0.23038
2405.15,0.23223
2399.36,0.23433
2393.57,0.23579
2387.79,0.23684
2382,0.23894
2376.21,0.24238
2370.43,0.24533
2364.64,0.24765
2358.86,0.24959
2353.07,0.24966
2347.28,0.24996
2341.5,0.25365
2335.71,0.25449
2329.92,0.25557
2324.14,0.25525
2318.35,0.25511
2312.57,0.25481
2306.78,0.25376
2300.99,0.25326
2295.21,0.25218
2289.42,0.25067
2283.63,0.24930
2277.85,0.24699
2272.06,0.24458
2266.28,0.24180
2260.49,0.23905
2254.7,0.23696
2248.92,0.23481
2243.13,0.23243
2237.34,0.23017
2231.56,0.22884
2225.77,0.22718
2219.99,0.22554
2214.2,0.22366
2208.41,0.22202
2202.63,0.22116
2196.84,0.21942
2191.05,0.21718
2185.27,0.21490
2179.48,0.21228
2173.7,0.20943
2167.91,0.20723
2162.12,0.20480
2156.34,0.20335
2150.55,0.20212
2144.76,0.20093
2138.98,0.20092
2133.19,0.20044
2127.41,0.20042
2121.62,0.20153
2115.83,0.20301
2110.05,0.20541
2104.26,0.20804
2098.47,0.20994
2092.69,0.21237
2086.9,0.21445
2081.12,0.21554
2075.33,0.21658
2069.54,0.21631
2063.76,0.21646
2057.97,0.21627
2052.19,0.21622
2046.4,0.21678
2040.61,0.21792
2034.83,0.21955
2029.04,0.22293
2023.25,0.22700
2017.47,0.23189
2011.68,0.23491
2005.9,0.23824
2000.11,0.24055
1994.32,0.24253
1988.54,0.24341
1982.75,0.24386
1976.96,0.24740
1971.18,0.25088
1965.39,0.25559
1959.61,0.25788
1953.82,0.26179
1948.03,0.26586
1942.25,0.27208
1936.46,0.27214
1930.67,0.27510
1924.89,0.27911
1919.1,0.28289
1913.32,0.28276
1907.53,0.28622
1901.74,0.28693
1895.96,0.28914
1890.17,0.29123
1884.38,0.28826
1878.6,0.28772
1872.81,0.28769
1867.03,0.29135
1861.24,0.28348
1855.45,0.28058
1849.67,0.27852
1843.88,0.28093
1838.09,0.27218
1832.31,0.27122
1826.52,0.26986
1820.74,0.26154
1814.95,0.25779
1809.16,0.25601
1803.38,0.25126
1797.59,0.24811
1791.8,0.24639
1786.02,0.23547
1780.23,0.23246
1774.45,0.23091
1768.66,0.22163
1762.87,0.21151
1757.09,0.20411
1751.3,0.20269
1745.51,0.19546
1739.73,0.18504
1733.94,0.17696
1728.16,0.15437
1722.37,0.13654
1716.58,0.12104
1710.8,0.09467
1705.01,0.08022
1699.22,0.06999
1693.44,0.06081
1687.65,0.05854
1681.87,0.05569
1676.08,0.05425
1670.29,0.05477
1664.51,0.05377
1658.72,0.05461
1652.93,0.05941
1647.15,0.06059
1641.36,0.05887
1635.58,0.06302
1629.79,0.06344
1624,0.06884
1618.22,0.07323
1612.43,0.07737
1606.64,0.08256
1600.86,0.08698
1595.07,0.09162
1589.29,0.09566
1583.5,0.09931
1577.71,0.10590
1571.93,0.10874
1566.14,0.11169
1560.35,0.11836
1554.57,0.11533
1548.78,0.11285
1543,0.11741
1537.21,0.10856
1531.42,0.10046
1525.64,0.09444
1519.85,0.08617
1514.07,0.07556
1508.28,0.07458
1502.49,0.06784
1496.71,0.06820
1490.92,0.06646
1485.13,0.05921
1479.35,0.05248
1473.56,0.04860
1467.78,0.04195
1461.99,0.03965
1456.2,0.03920
1450.42,0.03599
1444.63,0.03433
1438.84,0.03387
1433.06,0.03312
1427.27,0.03215
1421.49,0.03240
1415.7,0.03188
1409.91,0.03224
1404.13,0.03303
1398.34,0.03274
1392.55,0.03165
1386.77,0.03029
1380.98,0.02843
1375.2,0.02809
1369.41,0.02835
1363.62,0.02961
1357.84,0.03092
1352.05,0.03186
1346.26,0.03168
1340.48,0.03176
1334.69,0.03132
1328.91,0.03139
1323.12,0.03182
1317.33,0.03129
1311.55,0.03156
1305.76,0.03288
1299.97,0.03437
1294.19,0.03579
1288.4,0.03691
1282.62,0.03519
1276.83,0.03369
1271.04,0.03422
1265.26,0.03373
1259.47,0.03440
1253.68,0.03525
1247.9,0.03526
1242.11,0.03474
1236.33,0.03377
1230.54,0.03352
1224.75,0.03382
1218.97,0.03508
1213.18,0.03420
1207.39,0.03016
1201.61,0.02788
1195.82,0.02781
1190.04,0.02774
1184.25,0.02543
1178.46,0.02245
1172.68,0.02073
1166.89,0.02255
1161.1,0.02482
1155.32,0.02570
1149.53,0.02421
1143.75,0.02210
1137.96,0.02072
1132.17,0.02052
1126.39,0.02184
1120.6,0.02508
1114.81,0.02689
1109.03,0.02747
1103.24,0.02641
1097.46,0.02709
1091.67,0.02909
1085.88,0.03190
1080.1,0.03713
1074.31,0.04068
1068.52,0.04303
1062.74,0.04440
1056.95,0.04197
1051.17,0.04132
1045.38,0.04146
1039.59,0.04060
1033.81,0.04174
1028.02,0.04428
1022.24,0.04643
1016.45,0.04697
1010.66,0.04564
1004.88,0.04458
999.09,0.04599
993.304,0.04882
987.518,0.05170
981.731,0.05828
975.945,0.06259
970.159,0.06260
964.373,0.06463
958.586,0.07218
952.8,0.08142
947.014,0.08710
941.228,0.08890
935.441,0.08858
929.655,0.08688
923.869,0.08543
918.083,0.08304
912.297,0.07446
906.51,0.06286
900.724,0.05474
894.938,0.05408
889.152,0.06476
883.365,0.07634
877.579,0.08511
871.793,0.08873
866.007,0.08889
860.22,0.08714
854.434,0.08563
848.648,0.08131
842.862,0.07828
837.075,0.07543
831.289,0.07010
825.503,0.06650
819.717,0.06367
813.931,0.06127
808.144,0.05983
802.358,0.05900
796.572,0.05768
790.786,0.05571
784.999,0.05448
779.213,0.05331
773.427,0.05140
767.641,0.05051
761.854,0.04864
756.068,0.04753
750.282,0.04606
744.496,0.04433
738.709,0.04331
732.923,0.04221
727.137,0.04064
721.351,0.03940
715.565,0.04001
709.778,0.03951
703.992,0.03897
698.206,0.03708
692.42,0.03784
686.633,0.03612
680.847,0.03332
675.061,0.03346
669.275,0.03430
663.488,0.03277
657.702,0.03415
651.916,0.03355
646.13,0.03434
640.343,0.03280
634.557,0.03289
628.771,0.03236
622.985,0.03154
617.198,0.03302
611.412,0.03222
605.626,0.03080
599.84,0.03390