File: 01_Data/Rayon_Bamboo_Pillowcase/FTIR/IS/Rayon_Bamboo_Pillowcase_IS_S_220909_R8.dpt
7497.03,0.82960
7491.25,0.82808
7485.46,0.81725
7479.67,0.82254
7473.89,0.81399
7468.1,0.81910
7462.32,0.81132
7456.53,0.81572
7450.74,0.81193
7444.96,0.80649
7439.17,0.80507
7433.38,0.80516
7427.6,0.80493
7421.81,0.80103
7416.03,0.79723
7410.24,0.80112
7404.45,0.79668
7398.67,0.78371
7392.88,0.78851
7387.09,0.79395
7381.31,0.80098
7375.52,0.78960
7369.74,0.78448
7363.95,0.78189
7358.16,0.77296
7352.38,0.77412
7346.59,0.78242
7340.8,0.77800
7335.02,0.77479
7329.23,0.77425
7323.45,0.76547
7317.66,0.77610
7311.87,0.77345
7306.09,0.75871
7300.3,0.76762
7294.51,0.76959
7288.73,0.76563
7282.94,0.76678
7277.16,0.76600
7271.37,0.76400
7265.58,0.76421
7259.8,0.77417
7254.01,0.77281
7248.22,0.77356
7242.44,0.76487
7236.65,0.76942
7230.87,0.77113
7225.08,0.77099
7219.29,0.76970
7213.51,0.75768
7207.72,0.75798
7201.93,0.76400
7196.15,0.75464
7190.36,0.76169
7184.58,0.75554
7178.79,0.75160
7173,0.75101
7167.22,0.74793
7161.43,0.74774
7155.65,0.74270
7149.86,0.73975
7144.07,0.73614
7138.29,0.73692
7132.5,0.72956
7126.71,0.72942
7120.93,0.71930
7115.14,0.71659
7109.36,0.71128
7103.57,0.70860
7097.78,0.70023
7092,0.69608
7086.21,0.68631
7080.42,0.68568
7074.64,0.67491
7068.85,0.66951
7063.07,0.66469
7057.28,0.65703
7051.49,0.65253
7045.71,0.65098
7039.92,0.64202
7034.13,0.63676
7028.35,0.63407
7022.56,0.63054
7016.78,0.62343
7010.99,0.61738
7005.2,0.61757
6999.42,0.61426
6993.63,0.60733
6987.84,0.60672
6982.06,0.59254
6976.27,0.59550
6970.49,0.59034
6964.7,0.59135
6958.91,0.59434
6953.13,0.59468
6947.34,0.59075
6941.55,0.58300
6935.77,0.58129
6929.98,0.57660
6924.2,0.57634
6918.41,0.58000
6912.62,0.57911
6906.84,0.57328
6901.05,0.57761
6895.26,0.57111
6889.48,0.57127
6883.69,0.57340
6877.91,0.56886
6872.12,0.57100
6866.33,0.57534
6860.55,0.56458
6854.76,0.56660
6848.97,0.56192
6843.19,0.56106
6837.4,0.56528
6831.62,0.56242
6825.83,0.56157
6820.04,0.55670
6814.26,0.55866
6808.47,0.55915
6802.68,0.56042
6796.9,0.55717
6791.11,0.55968
6785.33,0.55993
6779.54,0.55543
6773.75,0.55833
6767.97,0.55979
6762.18,0.56013
6756.39,0.55454
6750.61,0.55824
6744.82,0.56395
6739.04,0.56571
6733.25,0.56056
6727.46,0.56088
6721.68,0.56140
6715.89,0.56725
6710.1,0.56231
6704.32,0.56487
6698.53,0.56328
6692.75,0.56441
6686.96,0.56841
6681.17,0.57130
6675.39,0.56986
6669.6,0.56746
6663.82,0.57040
6658.03,0.57345
6652.24,0.58217
6646.46,0.57122
6640.67,0.57911
6634.88,0.57835
6629.1,0.57996
6623.31,0.58586
6617.53,0.58635
6611.74,0.58793
6605.95,0.58795
6600.17,0.58922
6594.38,0.58838
6588.59,0.58508
6582.81,0.59132
6577.02,0.59462
6571.24,0.59246
6565.45,0.60117
6559.66,0.60044
6553.88,0.59969
6548.09,0.59704
6542.3,0.60484
6536.52,0.60045
6530.73,0.60111
6524.95,0.60099
6519.16,0.59992
6513.37,0.60059
6507.59,0.60230
6501.8,0.60469
6496.01,0.60467
6490.23,0.60519
6484.44,0.60555
6478.66,0.60755
6472.87,0.60347
6467.08,0.60987
6461.3,0.60745
6455.51,0.60638
6449.72,0.60899
6443.94,0.60761
6438.15,0.60738
6432.37,0.60439
6426.58,0.60650
6420.79,0.60663
6415.01,0.60645
6409.22,0.61055
6403.43,0.60973
6397.65,0.60421
6391.86,0.60734
6386.08,0.60906
6380.29,0.60504
6374.5,0.60776
6368.72,0.60595
6362.93,0.60870
6357.14,0.60883
6351.36,0.60663
6345.57,0.60565
6339.79,0.61260
6334,0.61089
6328.21,0.61151
6322.43,0.61106
6316.64,0.61425
6310.85,0.61364
6305.07,0.61233
6299.28,0.61385
6293.5,0.61604
6287.71,0.61874
6281.92,0.61860
6276.14,0.62257
6270.35,0.61977
6264.56,0.62015
6258.78,0.62447
6252.99,0.62254
6247.21,0.62314
6241.42,0.62628
6235.63,0.62938
6229.85,0.63037
6224.06,0.63255
6218.27,0.63419
6212.49,0.63403
6206.7,0.63595
6200.92,0.63520
6195.13,0.63478
6189.34,0.63710
6183.56,0.64192
6177.77,0.64209
6171.98,0.64521
6166.2,0.64453
6160.41,0.64417
6154.63,0.64852
6148.84,0.64927
6143.05,0.65187
6137.27,0.65127
6131.48,0.65337
6125.7,0.65398
6119.91,0.65626
6114.12,0.65534
6108.34,0.65719
6102.55,0.65850
6096.76,0.66079
6090.98,0.66402
6085.19,0.66210
6079.41,0.66814
6073.62,0.66607
6067.83,0.66784
6062.05,0.67240
6056.26,0.67403
6050.47,0.67137
6044.69,0.67510
6038.9,0.67647
6033.12,0.67455
6027.33,0.67662
6021.54,0.67739
6015.76,0.67981
6009.97,0.68159
6004.18,0.67934
5998.4,0.68022
5992.61,0.68209
5986.83,0.68222
5981.04,0.68378
5975.25,0.68432
5969.47,0.68398
5963.68,0.68264
5957.89,0.68027
5952.11,0.68088
5946.32,0.67620
5940.54,0.67437
5934.75,0.67558
5928.96,0.67366
5923.18,0.67146
5917.39,0.67258
5911.6,0.66869
5905.82,0.67023
5900.03,0.66802
5894.25,0.66876
5888.46,0.66832
5882.67,0.66523
5876.89,0.66453
5871.1,0.66551
5865.31,0.66407
5859.53,0.66402
5853.74,0.66337
5847.96,0.66355
5842.17,0.66198
5836.38,0.65888
5830.6,0.65970
5824.81,0.65565
5819.02,0.65319
5813.24,0.65252
5807.45,0.65357
5801.67,0.65204
5795.88,0.65100
5790.09,0.65264
5784.31,0.65366
5778.52,0.65523
5772.73,0.64972
5766.95,0.65170
5761.16,0.65081
5755.38,0.65083
5749.59,0.65201
5743.8,0.65052
5738.02,0.65224
5732.23,0.65051
5726.44,0.65089
5720.66,0.64927
5714.87,0.64924
5709.09,0.65081
5703.3,0.64826
5697.51,0.64691
5691.73,0.64752
5685.94,0.64564
5680.15,0.64519
5674.37,0.64557
5668.58,0.64463
5662.8,0.64176
5657.01,0.64510
5651.22,0.64447
5645.44,0.64569
5639.65,0.64550
5633.87,0.64546
5628.08,0.64396
5622.29,0.64542
5616.51,0.64456
5610.72,0.64304
5604.93,0.64442
5599.15,0.64714
5593.36,0.64651
5587.58,0.64527
5581.79,0.64735
5576,0.64739
5570.22,0.64908
5564.43,0.64741
5558.64,0.64998
5552.86,0.64958
5547.07,0.65101
5541.29,0.65057
5535.5,0.65060
5529.71,0.65305
5523.93,0.65284
5518.14,0.65255
5512.35,0.65430
5506.57,0.65461
5500.78,0.65555
5495,0.65533
5489.21,0.65539
5483.42,0.65475
5477.64,0.65651
5471.85,0.65760
5466.06,0.65871
5460.28,0.65920
5454.49,0.65928
5448.71,0.65994
5442.92,0.66080
5437.13,0.66197
5431.35,0.66101
5425.56,0.66344
5419.77,0.66437
5413.99,0.66690
5408.2,0.66872
5402.42,0.66878
5396.63,0.66954
5390.84,0.67129
5385.06,0.67235
5379.27,0.67206
5373.48,0.67187
5367.7,0.67131
5361.91,0.67165
5356.13,0.66944
5350.34,0.67016
5344.55,0.66880
5338.77,0.66854
5332.98,0.66484
5327.19,0.66342
5321.41,0.65940
5315.62,0.65564
5309.84,0.65136
5304.05,0.64736
5298.26,0.64020
5292.48,0.63224
5286.69,0.62519
5280.9,0.61491
5275.12,0.60601
5269.33,0.59423
5263.55,0.58256
5257.76,0.57101
5251.97,0.56056
5246.19,0.54899
5240.4,0.53835
5234.61,0.53054
5228.83,0.52300
5223.04,0.51635
5217.26,0.50908
5211.47,0.50419
5205.68,0.50033
5199.9,0.49594
5194.11,0.49372
5188.32,0.49175
5182.54,0.49101
5176.75,0.49066
5170.97,0.49159
5165.18,0.49120
5159.39,0.49262
5153.61,0.49558
5147.82,0.49867
5142.03,0.50135
5136.25,0.50324
5130.46,0.50635
5124.68,0.50909
5118.89,0.51284
5113.1,0.51514
5107.32,0.51797
5101.53,0.52106
5095.75,0.52532
5089.96,0.52919
5084.17,0.53185
5078.39,0.53349
5072.6,0.53794
5066.81,0.53980
5061.03,0.54251
5055.24,0.54658
5049.46,0.55002
5043.67,0.55162
5037.88,0.55378
5032.1,0.55682
5026.31,0.55855
5020.52,0.56008
5014.74,0.56314
5008.95,0.56452
5003.17,0.56489
4997.38,0.56679
4991.59,0.56528
4985.81,0.56470
4980.02,0.56485
4974.23,0.56278
4968.45,0.56163
4962.66,0.55934
4956.88,0.55499
4951.09,0.55052
4945.3,0.54759
4939.52,0.54311
4933.73,0.53810
4927.94,0.53322
4922.16,0.52608
4916.37,0.52106
4910.59,0.51404
4904.8,0.50800
4899.01,0.50113
4893.23,0.49476
4887.44,0.48839
4881.65,0.48215
4875.87,0.47761
4870.08,0.47307
4864.3,0.46917
4858.51,0.46473
4852.72,0.46103
4846.94,0.45672
4841.15,0.45219
4835.36,0.44992
4829.58,0.44594
4823.79,0.44342
4818.01,0.44086
4812.22,0.43892
4806.43,0.43728
4800.65,0.43506
4794.86,0.43454
4789.07,0.43321
4783.29,0.43197
4777.5,0.43171
4771.72,0.43276
4765.93,0.43398
4760.14,0.43416
4754.36,0.43439
4748.57,0.43691
4742.78,0.43819
4737,0.44110
4731.21,0.44300
4725.43,0.44523
4719.64,0.44665
4713.85,0.44850
4708.07,0.45144
4702.28,0.45246
4696.49,0.45585
4690.71,0.45806
4684.92,0.46027
4679.14,0.46248
4673.35,0.46620
4667.56,0.46775
4661.78,0.47043
4655.99,0.47375
4650.2,0.47611
4644.42,0.47822
4638.63,0.48011
4632.85,0.48223
4627.06,0.48422
4621.27,0.48616
4615.49,0.48837
4609.7,0.49053
4603.92,0.49190
4598.13,0.49452
4592.34,0.49616
4586.56,0.49808
4580.77,0.50099
4574.98,0.50178
4569.2,0.50340
4563.41,0.50400
4557.63,0.50569
4551.84,0.50778
4546.05,0.50877
4540.27,0.51083
4534.48,0.51165
4528.69,0.51293
4522.91,0.51430
4517.12,0.51481
4511.34,0.51662
4505.55,0.51702
4499.76,0.51787
4493.98,0.51714
4488.19,0.51743
4482.4,0.51664
4476.62,0.51444
4470.83,0.51183
4465.05,0.50896
4459.26,0.50508
4453.47,0.49909
4447.69,0.49304
4441.9,0.48549
4436.11,0.47746
4430.33,0.46960
4424.54,0.46235
4418.76,0.45596
4412.97,0.45199
4407.18,0.44800
4401.4,0.44659
4395.61,0.44446
4389.82,0.44281
4384.04,0.44198
4378.25,0.44332
4372.47,0.44429
4366.68,0.44446
4360.89,0.44460
4355.11,0.44272
4349.32,0.44090
4343.53,0.43836
4337.75,0.43635
4331.96,0.43247
4326.18,0.42791
4320.39,0.42351
4314.6,0.42266
4308.82,0.41996
4303.03,0.41858
4297.24,0.41551
4291.46,0.41453
4285.67,0.41390
4279.89,0.41236
4274.1,0.41219
4268.31,0.41192
4262.53,0.41016
4256.74,0.40889
4250.95,0.40823
4245.17,0.40782
4239.38,0.40834
4233.6,0.40979
4227.81,0.41195
4222.02,0.41305
4216.24,0.41319
4210.45,0.41315
4204.66,0.41446
4198.88,0.41407
4193.09,0.41501
4187.31,0.41542
4181.52,0.41583
4175.73,0.41492
4169.95,0.41458
4164.16,0.41299
4158.37,0.41035
4152.59,0.40656
4146.8,0.40326
4141.02,0.39934
4135.23,0.39599
4129.44,0.39192
4123.66,0.38683
4117.87,0.38247
4112.09,0.37748
4106.3,0.37306
4100.51,0.36610
4094.73,0.36060
4088.94,0.35452
4083.15,0.34775
4077.37,0.34248
4071.58,0.33649
4065.8,0.33119
4060.01,0.32504
4054.22,0.32081
4048.44,0.31578
4042.65,0.31119
4036.86,0.30735
4031.08,0.30363
4025.29,0.30081
4019.51,0.29780
4013.72,0.29621
4007.93,0.29514
4002.15,0.29519
3996.36,0.29590
3990.57,0.29645
3984.79,0.29728
3979,0.29894
3973.22,0.29926
3967.43,0.29979
3961.64,0.30092
3955.86,0.30240
3950.07,0.30379
3944.28,0.30554
3938.5,0.30809
3932.71,0.31114
3926.93,0.31430
3921.14,0.31725
3915.35,0.32014
3909.57,0.32348
3903.78,0.32709
3897.99,0.33092
3892.21,0.33365
3886.42,0.33614
3880.64,0.34034
3874.85,0.34245
3869.06,0.34587
3863.28,0.34915
3857.49,0.35239
3851.7,0.35701
3845.92,0.35811
3840.13,0.36055
3834.35,0.36182
3828.56,0.36136
3822.77,0.36183
3816.99,0.36264
3811.2,0.36132
3805.41,0.36096
3799.63,0.35940
3793.84,0.35846
3788.06,0.35713
3782.27,0.35600
3776.48,0.35516
3770.7,0.35304
3764.91,0.35079
3759.12,0.34892
3753.34,0.34791
3747.55,0.34451
3741.77,0.33898
3735.98,0.33630
3730.19,0.33045
3724.41,0.32394
3718.62,0.31771
3712.83,0.31006
3707.05,0.29961
3701.26,0.29084
3695.48,0.27930
3689.69,0.26563
3683.9,0.25052
3678.12,0.23551
3672.33,0.21551
3666.54,0.19454
3660.76,0.17610
3654.97,0.15824
3649.19,0.14261
3643.4,0.12648
3637.61,0.11331
3631.83,0.10157
3626.04,0.08984
3620.25,0.08188
3614.47,0.07329
3608.68,0.06678
3602.9,0.06037
3597.11,0.05523
3591.32,0.05017
3585.54,0.04547
3579.75,0.04236
3573.97,0.04002
3568.18,0.03752
3562.39,0.03462
3556.61,0.03285
3550.82,0.03136
3545.03,0.03015
3539.25,0.02875
3533.46,0.02748
3527.68,0.02704
3521.89,0.02641
3516.1,0.02633
3510.32,0.02467
3504.53,0.02469
3498.74,0.02524
3492.96,0.02533
3487.17,0.02508
3481.39,0.02473
3475.6,0.02525
3469.81,0.02500
3464.03,0.02510
3458.24,0.02479
3452.45,0.02535
3446.67,0.02599
3440.88,0.02635
3435.1,0.02639
3429.31,0.02704
3423.52,0.02669
3417.74,0.02692
3411.95,0.02682
3406.16,0.02723
3400.38,0.02773
3394.59,0.02738
3388.81,0.02775
3383.02,0.02771
3377.23,0.02736
3371.45,0.02820
3365.66,0.02772
3359.87,0.02704
3354.09,0.02750
3348.3,0.02791
3342.52,0.02822
3336.73,0.02828
3330.94,0.02784
3325.16,0.02827
3319.37,0.02905
3313.58,0.02845
3307.8,0.02870
3302.01,0.02897
3296.23,0.02856
3290.44,0.02964
3284.65,0.02911
3278.87,0.02928
3273.08,0.02942
3267.29,0.03023
3261.51,0.03006
3255.72,0.02969
3249.94,0.03097
3244.15,0.03051
3238.36,0.03093
3232.58,0.03068
3226.79,0.03079
3221,0.03158
3215.22,0.03214
3209.43,0.03252
3203.65,0.03254
3197.86,0.03285
3192.07,0.03439
3186.29,0.03377
3180.5,0.03417
3174.71,0.03486
3168.93,0.03614
3163.14,0.03654
3157.36,0.03710
3151.57,0.03769
3145.78,0.03937
3140,0.04065
3134.21,0.04149
3128.42,0.04223
3122.64,0.04396
3116.85,0.04579
3111.07,0.04724
3105.28,0.04887
3099.49,0.05088
3093.71,0.05267
3087.92,0.05414
3082.14,0.05698
3076.35,0.05945
3070.56,0.06154
3064.78,0.06338
3058.99,0.06669
3053.2,0.06903
3047.42,0.07149
3041.63,0.07408
3035.85,0.07666
3030.06,0.07888
3024.27,0.08127
3018.49,0.08299
3012.7,0.08415
3006.91,0.08490
3001.13,0.08490
2995.34,0.08307
2989.56,0.08023
2983.77,0.07414
2977.98,0.07130
2972.2,0.06618
2966.41,0.06157
2960.62,0.05702
2954.84,0.05287
2949.05,0.05043
2943.27,0.04760
2937.48,0.04525
2931.69,0.04285
2925.91,0.04126
2920.12,0.04065
2914.33,0.04064
2908.55,0.04031
2902.76,0.04019
2896.98,0.04012
2891.19,0.04046
2885.4,0.04154
2879.62,0.04338
2873.83,0.04498
2868.04,0.04812
2862.26,0.05115
2856.47,0.05469
2850.69,0.05739
2844.9,0.06345
2839.11,0.06908
2833.33,0.07337
2827.54,0.07694
2821.75,0.08039
2815.97,0.08348
2810.18,0.08663
2804.4,0.09017
2798.61,0.09348
2792.82,0.09577
2787.04,0.09868
2781.25,0.10119
2775.46,0.10405
2769.68,0.10606
2763.89,0.10870
2758.11,0.11013
2752.32,0.11132
2746.53,0.11186
2740.75,0.11291
2734.96,0.11372
2729.17,0.11537
2723.39,0.11639
2717.6,0.11834
2711.82,0.12040
2706.03,0.12287
2700.24,0.12488
2694.46,0.12757
2688.67,0.12983
2682.88,0.13318
2677.1,0.13594
2671.31,0.13842
2665.53,0.14114
2659.74,0.14431
2653.95,0.14734
2648.17,0.15014
2642.38,0.15310
2636.59,0.15597
2630.81,0.15888
2625.02,0.16127
2619.24,0.16424
2613.45,0.16734
2607.66,0.16970
2601.88,0.17161
2596.09,0.17360
2590.3,0.17563
2584.52,0.17746
2578.73,0.17893
2572.95,0.18005
2567.16,0.18165
2561.37,0.18268
2555.59,0.18372
2549.8,0.18412
2544.02,0.18484
2538.23,0.18524
2532.44,0.18551
2526.66,0.18660
2520.87,0.18743
2515.08,0.18915
2509.3,0.19054
2503.51,0.19208
2497.73,0.19304
2491.94,0.19505
2486.15,0.19779
2480.37,0.19981
2474.58,0.20260
2468.79,0.20484
2463.01,0.20758
2457.22,0.21044
2451.44,0.21383
2445.65,0.21699
2439.86,0.22006
2434.08,0.22336
2428.29,0.22641
2422.5,0.22961
2416.72,0.23263
2410.93,0.23531
2405.15,0.23741
2399.36,0.23965
2393.57,0.24112
2387.79,0.24256
2382,0.24444
2376.21,0.24643
2370.43,0.24809
2364.64,0.24993
2358.86,0.25105
2353.07,0.25300
2347.28,0.25473
2341.5,0.25778
2335.71,0.25952
2329.92,0.25974
2324.14,0.26071
2318.35,0.26108
2312.57,0.26194
2306.78,0.26270
2300.99,0.26262
2295.21,0.26200
2289.42,0.26084
2283.63,0.25954
2277.85,0.25739
2272.06,0.25515
2266.28,0.25250
2260.49,0.25008
2254.7,0.24778
2248.92,0.24521
2243.13,0.24317
2237.34,0.24146
2231.56,0.24003
2225.77,0.23894
2219.99,0.23727
2214.2,0.23552
2208.41,0.23417
2202.63,0.23306
2196.84,0.23178
2191.05,0.23023
2185.27,0.22727
2179.48,0.22459
2173.7,0.22213
2167.91,0.21941
2162.12,0.21696
2156.34,0.21531
2150.55,0.21403
2144.76,0.21352
2138.98,0.21277
2133.19,0.21238
2127.41,0.21211
2121.62,0.21343
2115.83,0.21518
2110.05,0.21807
2104.26,0.22073
2098.47,0.22273
2092.69,0.22543
2086.9,0.22741
2081.12,0.22862
2075.33,0.22883
2069.54,0.22894
2063.76,0.22899
2057.97,0.22825
2052.19,0.22870
2046.4,0.22908
2040.61,0.22967
2034.83,0.23209
2029.04,0.23502
2023.25,0.23912
2017.47,0.24352
2011.68,0.24747
2005.9,0.25076
2000.11,0.25322
1994.32,0.25460
1988.54,0.25505
1982.75,0.25693
1976.96,0.25994
1971.18,0.26328
1965.39,0.26723
1959.61,0.27074
1953.82,0.27476
1948.03,0.27919
1942.25,0.28271
1936.46,0.28608
1930.67,0.28921
1924.89,0.29176
1919.1,0.29463
1913.32,0.29692
1907.53,0.29961
1901.74,0.30175
1895.96,0.30311
1890.17,0.30419
1884.38,0.30342
1878.6,0.30301
1872.81,0.30174
1867.03,0.30043
1861.24,0.29805
1855.45,0.29568
1849.67,0.29231
1843.88,0.28917
1838.09,0.28569
1832.31,0.28234
1826.52,0.27909
1820.74,0.27514
1814.95,0.27122
1809.16,0.26714
1803.38,0.26214
1797.59,0.25735
1791.8,0.25234
1786.02,0.24728
1780.23,0.24222
1774.45,0.23728
1768.66,0.22897
1762.87,0.22038
1757.09,0.21344
1751.3,0.20925
1745.51,0.20237
1739.73,0.19283
1733.94,0.18058
1728.16,0.16226
1722.37,0.14165
1716.58,0.11809
1710.8,0.09590
1705.01,0.07942
1699.22,0.06837
1693.44,0.06231
1687.65,0.06014
1681.87,0.05850
1676.08,0.05790
1670.29,0.05845
1664.51,0.06000
1658.72,0.06188
1652.93,0.06421
1647.15,0.06531
1641.36,0.06650
1635.58,0.06808
1629.79,0.07105
1624,0.07499
1618.22,0.08057
1612.43,0.08531
1606.64,0.09064
1600.86,0.09598
1595.07,0.09988
1589.29,0.10402
1583.5,0.10808
1577.71,0.11214
1571.93,0.11556
1566.14,0.11785
1560.35,0.11980
1554.57,0.11943
1548.78,0.11829
1543,0.11566
1537.21,0.11023
1531.42,0.10346
1525.64,0.09410
1519.85,0.08370
1514.07,0.07556
1508.28,0.07108
1502.49,0.06792
1496.71,0.06749
1490.92,0.06537
1485.13,0.06021
1479.35,0.05344
1473.56,0.04670
1467.78,0.04148
1461.99,0.03901
1456.2,0.03723
1450.42,0.03541
1444.63,0.03404
1438.84,0.03367
1433.06,0.03298
1427.27,0.03159
1421.49,0.03173
1415.7,0.03132
1409.91,0.03177
1404.13,0.03221
1398.34,0.03226
1392.55,0.03119
1386.77,0.02993
1380.98,0.02819
1375.2,0.02766
1369.41,0.02809
1363.62,0.02896
1357.84,0.03067
1352.05,0.03132
1346.26,0.03164
1340.48,0.03115
1334.69,0.03071
1328.91,0.03132
1323.12,0.03164
1317.33,0.03082
1311.55,0.03156
1305.76,0.03288
1299.97,0.03482
1294.19,0.03634
1288.4,0.03668
1282.62,0.03525
1276.83,0.03396
1271.04,0.03398
1265.26,0.03354
1259.47,0.03399
1253.68,0.03512
1247.9,0.03537
1242.11,0.03452
1236.33,0.03372
1230.54,0.03317
1224.75,0.03389
1218.97,0.03488
1213.18,0.03362
1207.39,0.02947
1201.61,0.02742
1195.82,0.02704
1190.04,0.02739
1184.25,0.02529
1178.46,0.02187
1172.68,0.02058
1166.89,0.02265
1161.1,0.02594
1155.32,0.02607
1149.53,0.02435
1143.75,0.02197
1137.96,0.02109
1132.17,0.02090
1126.39,0.02138
1120.6,0.02407
1114.81,0.02728
1109.03,0.02796
1103.24,0.02742
1097.46,0.02797
1091.67,0.02935
1085.88,0.03264
1080.1,0.03758
1074.31,0.04032
1068.52,0.04359
1062.74,0.04404
1056.95,0.04327
1051.17,0.04233
1045.38,0.04186
1039.59,0.04184
1033.81,0.04227
1028.02,0.04420
1022.24,0.04656
1016.45,0.04754
1010.66,0.04686
1004.88,0.04505
999.09,0.04676
993.304,0.04896
987.518,0.05165
981.731,0.05841
975.945,0.06278
970.159,0.06377
964.373,0.06566
958.586,0.07322
952.8,0.08327
947.014,0.08974
941.228,0.09246
935.441,0.09143
929.655,0.09037
923.869,0.08949
918.083,0.08701
912.297,0.07802
906.51,0.06626
900.724,0.05743
894.938,0.05604
889.152,0.06722
883.365,0.08164
877.579,0.09217
871.793,0.09794
866.007,0.09913
860.22,0.09801
854.434,0.09599
848.648,0.09229
842.862,0.08758
837.075,0.08351
831.289,0.08010
825.503,0.07550
819.717,0.07296
813.931,0.06986
808.144,0.06837
802.358,0.06658
796.572,0.06508
790.786,0.06313
784.999,0.06145
779.213,0.05948
773.427,0.05797
767.641,0.05581
761.854,0.05437
756.068,0.05249
750.282,0.05019
744.496,0.04908
738.709,0.04773
732.923,0.04583
727.137,0.04390
721.351,0.04226
715.565,0.04281
709.778,0.04105
703.992,0.04022
698.206,0.03962
692.42,0.03887
686.633,0.03692
680.847,0.03450
675.061,0.03352
669.275,0.03425
663.488,0.03517
657.702,0.03577
651.916,0.03477
646.13,0.03398
640.343,0.03422
634.557,0.03315
628.771,0.03338
622.985,0.03298
617.198,0.03387
611.412,0.03272
605.626,0.03357
599.84,0.03507