File: 01_Data/Rayon_Bamboo_Pillowcase/FTIR/IS/Rayon_Bamboo_Pillowcase_IS_T_220909_R2.dpt
7497.03,0.02257
7491.25,0.02270
7485.46,0.02503
7479.67,0.02190
7473.89,0.02770
7468.1,0.02130
7462.32,0.02152
7456.53,0.02848
7450.74,0.02661
7444.96,0.01672
7439.17,0.02565
7433.38,0.02741
7427.6,0.02435
7421.81,0.01947
7416.03,0.02315
7410.24,0.02777
7404.45,0.02560
7398.67,0.02119
7392.88,0.03220
7387.09,0.02827
7381.31,0.02577
7375.52,0.02328
7369.74,0.02505
7363.95,0.02790
7358.16,0.01769
7352.38,0.02955
7346.59,0.01767
7340.8,0.01717
7335.02,0.01829
7329.23,0.02249
7323.45,0.02733
7317.66,0.03021
7311.87,0.02296
7306.09,0.03303
7300.3,0.02855
7294.51,0.02898
7288.73,0.02361
7282.94,0.02518
7277.16,0.01988
7271.37,0.02268
7265.58,0.01772
7259.8,0.01750
7254.01,0.02693
7248.22,0.02047
7242.44,0.02340
7236.65,0.02230
7230.87,0.02654
7225.08,0.02683
7219.29,0.02809
7213.51,0.01750
7207.72,0.02142
7201.93,0.02938
7196.15,0.02605
7190.36,0.01963
7184.58,0.02273
7178.79,0.02492
7173,0.01613
7167.22,0.02272
7161.43,0.02249
7155.65,0.02717
7149.86,0.01729
7144.07,0.01858
7138.29,0.02323
7132.5,0.02212
7126.71,0.02159
7120.93,0.02384
7115.14,0.02515
7109.36,0.02710
7103.57,0.02593
7097.78,0.02822
7092,0.03042
7086.21,0.02548
7080.42,0.02319
7074.64,0.02168
7068.85,0.02151
7063.07,0.02446
7057.28,0.01886
7051.49,0.02385
7045.71,0.02642
7039.92,0.01643
7034.13,0.02490
7028.35,0.02852
7022.56,0.02242
7016.78,0.02246
7010.99,0.02594
7005.2,0.02459
6999.42,0.02804
6993.63,0.02671
6987.84,0.02557
6982.06,0.01876
6976.27,0.02232
6970.49,0.02175
6964.7,0.02882
6958.91,0.02551
6953.13,0.02523
6947.34,0.02203
6941.55,0.02500
6935.77,0.02409
6929.98,0.02681
6924.2,0.02595
6918.41,0.02645
6912.62,0.02520
6906.84,0.02521
6901.05,0.01545
6895.26,0.02823
6889.48,0.02426
6883.69,0.02246
6877.91,0.02524
6872.12,0.01852
6866.33,0.02012
6860.55,0.02449
6854.76,0.02533
6848.97,0.02335
6843.19,0.02003
6837.4,0.02208
6831.62,0.02293
6825.83,0.02671
6820.04,0.01824
6814.26,0.02246
6808.47,0.02123
6802.68,0.02428
6796.9,0.02451
6791.11,0.02460
6785.33,0.02779
6779.54,0.02219
6773.75,0.01759
6767.97,0.02487
6762.18,0.02518
6756.39,0.02403
6750.61,0.02202
6744.82,0.02320
6739.04,0.02583
6733.25,0.01961
6727.46,0.02652
6721.68,0.02549
6715.89,0.02319
6710.1,0.02749
6704.32,0.02080
6698.53,0.02130
6692.75,0.02844
6686.96,0.02319
6681.17,0.02073
6675.39,0.01638
6669.6,0.02310
6663.82,0.02380
6658.03,0.02179
6652.24,0.02320
6646.46,0.02201
6640.67,0.02384
6634.88,0.02324
6629.1,0.02254
6623.31,0.02517
6617.53,0.02191
6611.74,0.02245
6605.95,0.02296
6600.17,0.02034
6594.38,0.02244
6588.59,0.02434
6582.81,0.02092
6577.02,0.02231
6571.24,0.02522
6565.45,0.02348
6559.66,0.02190
6553.88,0.02290
6548.09,0.01835
6542.3,0.01797
6536.52,0.02550
6530.73,0.02051
6524.95,0.02232
6519.16,0.02301
6513.37,0.02194
6507.59,0.02444
6501.8,0.02095
6496.01,0.02142
6490.23,0.02278
6484.44,0.02308
6478.66,0.02521
6472.87,0.02119
6467.08,0.02033
6461.3,0.02194
6455.51,0.02163
6449.72,0.02140
6443.94,0.02342
6438.15,0.02197
6432.37,0.02291
6426.58,0.02113
6420.79,0.01982
6415.01,0.02302
6409.22,0.02060
6403.43,0.02206
6397.65,0.02252
6391.86,0.01903
6386.08,0.02488
6380.29,0.02527
6374.5,0.02428
6368.72,0.02103
6362.93,0.02241
6357.14,0.02027
6351.36,0.02089
6345.57,0.02182
6339.79,0.02184
6334,0.02328
6328.21,0.02435
6322.43,0.02389
6316.64,0.02258
6310.85,0.02093
6305.07,0.01935
6299.28,0.02046
6293.5,0.02169
6287.71,0.02159
6281.92,0.02488
6276.14,0.01841
6270.35,0.01973
6264.56,0.02486
6258.78,0.02475
6252.99,0.02049
6247.21,0.02111
6241.42,0.02211
6235.63,0.01931
6229.85,0.01961
6224.06,0.02124
6218.27,0.02395
6212.49,0.02211
6206.7,0.02179
6200.92,0.01895
6195.13,0.01949
6189.34,0.02169
6183.56,0.01969
6177.77,0.01963
6171.98,0.02019
6166.2,0.02371
6160.41,0.02011
6154.63,0.02111
6148.84,0.02246
6143.05,0.02358
6137.27,0.02100
6131.48,0.02133
6125.7,0.01923
6119.91,0.02209
6114.12,0.02187
6108.34,0.02255
6102.55,0.02152
6096.76,0.02135
6090.98,0.02208
6085.19,0.02288
6079.41,0.02331
6073.62,0.02089
6067.83,0.02076
6062.05,0.02218
6056.26,0.02270
6050.47,0.02196
6044.69,0.02301
6038.9,0.02214
6033.12,0.02108
6027.33,0.02261
6021.54,0.02528
6015.76,0.02287
6009.97,0.02588
6004.18,0.02271
5998.4,0.02346
5992.61,0.02236
5986.83,0.02358
5981.04,0.02279
5975.25,0.02414
5969.47,0.02206
5963.68,0.02044
5957.89,0.02010
5952.11,0.02361
5946.32,0.02265
5940.54,0.02160
5934.75,0.02053
5928.96,0.02145
5923.18,0.02140
5917.39,0.02208
5911.6,0.02077
5905.82,0.02148
5900.03,0.02133
5894.25,0.02021
5888.46,0.02370
5882.67,0.02225
5876.89,0.02072
5871.1,0.02007
5865.31,0.02138
5859.53,0.02141
5853.74,0.02578
5847.96,0.02234
5842.17,0.02093
5836.38,0.02191
5830.6,0.02236
5824.81,0.02165
5819.02,0.02135
5813.24,0.02200
5807.45,0.02300
5801.67,0.02426
5795.88,0.02235
5790.09,0.02287
5784.31,0.02242
5778.52,0.02274
5772.73,0.02367
5766.95,0.02597
5761.16,0.02016
5755.38,0.02398
5749.59,0.02077
5743.8,0.02119
5738.02,0.02058
5732.23,0.02129
5726.44,0.02226
5720.66,0.02279
5714.87,0.02205
5709.09,0.02252
5703.3,0.02188
5697.51,0.02289
5691.73,0.02132
5685.94,0.02125
5680.15,0.02112
5674.37,0.02089
5668.58,0.02227
5662.8,0.02252
5657.01,0.02221
5651.22,0.02131
5645.44,0.02423
5639.65,0.02104
5633.87,0.02279
5628.08,0.02192
5622.29,0.02071
5616.51,0.02516
5610.72,0.02266
5604.93,0.02280
5599.15,0.02282
5593.36,0.02244
5587.58,0.02099
5581.79,0.01977
5576,0.02069
5570.22,0.02148
5564.43,0.02226
5558.64,0.02340
5552.86,0.02100
5547.07,0.02126
5541.29,0.02388
5535.5,0.02008
5529.71,0.02429
5523.93,0.02250
5518.14,0.02164
5512.35,0.02239
5506.57,0.02108
5500.78,0.02214
5495,0.02122
5489.21,0.02287
5483.42,0.02508
5477.64,0.02235
5471.85,0.02148
5466.06,0.02224
5460.28,0.02313
5454.49,0.02303
5448.71,0.01969
5442.92,0.02084
5437.13,0.02364
5431.35,0.02220
5425.56,0.02176
5419.77,0.02269
5413.99,0.02247
5408.2,0.02153
5402.42,0.02231
5396.63,0.02156
5390.84,0.02306
5385.06,0.02237
5379.27,0.02480
5373.48,0.02324
5367.7,0.02236
5361.91,0.02040
5356.13,0.02190
5350.34,0.02256
5344.55,0.02183
5338.77,0.02164
5332.98,0.02157
5327.19,0.02188
5321.41,0.02238
5315.62,0.02176
5309.84,0.02280
5304.05,0.02220
5298.26,0.02298
5292.48,0.02298
5286.69,0.02265
5280.9,0.02238
5275.12,0.02162
5269.33,0.02085
5263.55,0.02298
5257.76,0.02316
5251.97,0.02233
5246.19,0.02225
5240.4,0.02318
5234.61,0.02355
5228.83,0.02288
5223.04,0.02079
5217.26,0.02351
5211.47,0.02261
5205.68,0.02163
5199.9,0.02229
5194.11,0.02323
5188.32,0.02354
5182.54,0.02084
5176.75,0.02305
5170.97,0.02245
5165.18,0.02263
5159.39,0.02233
5153.61,0.02189
5147.82,0.02213
5142.03,0.02305
5136.25,0.02246
5130.46,0.02166
5124.68,0.02186
5118.89,0.02322
5113.1,0.02236
5107.32,0.02352
5101.53,0.02249
5095.75,0.02175
5089.96,0.02259
5084.17,0.02314
5078.39,0.02289
5072.6,0.02224
5066.81,0.02277
5061.03,0.02229
5055.24,0.02178
5049.46,0.02383
5043.67,0.02362
5037.88,0.02303
5032.1,0.02147
5026.31,0.02118
5020.52,0.02194
5014.74,0.02422
5008.95,0.02185
5003.17,0.02165
4997.38,0.02149
4991.59,0.02188
4985.81,0.02267
4980.02,0.02237
4974.23,0.02338
4968.45,0.02149
4962.66,0.02226
4956.88,0.02127
4951.09,0.02200
4945.3,0.02279
4939.52,0.02296
4933.73,0.02273
4927.94,0.02292
4922.16,0.02192
4916.37,0.02257
4910.59,0.02375
4904.8,0.02313
4899.01,0.02281
4893.23,0.02360
4887.44,0.02211
4881.65,0.02216
4875.87,0.02222
4870.08,0.02290
4864.3,0.02223
4858.51,0.02204
4852.72,0.02263
4846.94,0.02239
4841.15,0.02320
4835.36,0.02182
4829.58,0.02333
4823.79,0.02344
4818.01,0.02153
4812.22,0.02301
4806.43,0.02363
4800.65,0.02299
4794.86,0.02216
4789.07,0.02465
4783.29,0.02246
4777.5,0.02261
4771.72,0.02273
4765.93,0.02326
4760.14,0.02197
4754.36,0.02288
4748.57,0.02270
4742.78,0.02265
4737,0.02253
4731.21,0.02232
4725.43,0.02305
4719.64,0.02303
4713.85,0.02220
4708.07,0.02249
4702.28,0.02257
4696.49,0.02351
4690.71,0.02323
4684.92,0.02273
4679.14,0.02290
4673.35,0.02346
4667.56,0.02329
4661.78,0.02306
4655.99,0.02233
4650.2,0.02147
4644.42,0.02284
4638.63,0.02248
4632.85,0.02296
4627.06,0.02272
4621.27,0.02217
4615.49,0.02250
4609.7,0.02268
4603.92,0.02296
4598.13,0.02279
4592.34,0.02226
4586.56,0.02285
4580.77,0.02262
4574.98,0.02331
4569.2,0.02242
4563.41,0.02200
4557.63,0.02272
4551.84,0.02290
4546.05,0.02336
4540.27,0.02240
4534.48,0.02217
4528.69,0.02227
4522.91,0.02299
4517.12,0.02364
4511.34,0.02440
4505.55,0.02351
4499.76,0.02299
4493.98,0.02309
4488.19,0.02299
4482.4,0.02252
4476.62,0.02231
4470.83,0.02322
4465.05,0.02314
4459.26,0.02251
4453.47,0.02348
4447.69,0.02319
4441.9,0.02335
4436.11,0.02306
4430.33,0.02236
4424.54,0.02246
4418.76,0.02326
4412.97,0.02354
4407.18,0.02236
4401.4,0.02341
4395.61,0.02252
4389.82,0.02293
4384.04,0.02389
4378.25,0.02318
4372.47,0.02250
4366.68,0.02291
4360.89,0.02300
4355.11,0.02318
4349.32,0.02284
4343.53,0.02272
4337.75,0.02317
4331.96,0.02247
4326.18,0.02289
4320.39,0.02314
4314.6,0.02309
4308.82,0.02343
4303.03,0.02356
4297.24,0.02257
4291.46,0.02256
4285.67,0.02283
4279.89,0.02278
4274.1,0.02342
4268.31,0.02341
4262.53,0.02270
4256.74,0.02362
4250.95,0.02376
4245.17,0.02349
4239.38,0.02289
4233.6,0.02343
4227.81,0.02339
4222.02,0.02292
4216.24,0.02247
4210.45,0.02316
4204.66,0.02241
4198.88,0.02207
4193.09,0.02310
4187.31,0.02305
4181.52,0.02276
4175.73,0.02364
4169.95,0.02282
4164.16,0.02254
4158.37,0.02320
4152.59,0.02345
4146.8,0.02354
4141.02,0.02259
4135.23,0.02283
4129.44,0.02268
4123.66,0.02293
4117.87,0.02258
4112.09,0.02301
4106.3,0.02335
4100.51,0.02284
4094.73,0.02233
4088.94,0.02319
4083.15,0.02292
4077.37,0.02317
4071.58,0.02370
4065.8,0.02224
4060.01,0.02282
4054.22,0.02283
4048.44,0.02259
4042.65,0.02243
4036.86,0.02346
4031.08,0.02287
4025.29,0.02284
4019.51,0.02293
4013.72,0.02312
4007.93,0.02339
4002.15,0.02284
3996.36,0.02334
3990.57,0.02397
3984.79,0.02342
3979,0.02320
3973.22,0.02266
3967.43,0.02332
3961.64,0.02328
3955.86,0.02243
3950.07,0.02314
3944.28,0.02305
3938.5,0.02321
3932.71,0.02326
3926.93,0.02334
3921.14,0.02339
3915.35,0.02294
3909.57,0.02377
3903.78,0.02366
3897.99,0.02335
3892.21,0.02292
3886.42,0.02301
3880.64,0.02424
3874.85,0.02310
3869.06,0.02318
3863.28,0.02340
3857.49,0.02358
3851.7,0.02315
3845.92,0.02302
3840.13,0.02334
3834.35,0.02344
3828.56,0.02332
3822.77,0.02415
3816.99,0.02327
3811.2,0.02387
3805.41,0.02374
3799.63,0.02369
3793.84,0.02261
3788.06,0.02291
3782.27,0.02394
3776.48,0.02345
3770.7,0.02355
3764.91,0.02317
3759.12,0.02431
3753.34,0.02473
3747.55,0.02399
3741.77,0.02350
3735.98,0.02372
3730.19,0.02357
3724.41,0.02358
3718.62,0.02360
3712.83,0.02399
3707.05,0.02223
3701.26,0.02297
3695.48,0.02303
3689.69,0.02440
3683.9,0.02278
3678.12,0.02347
3672.33,0.02300
3666.54,0.02198
3660.76,0.02220
3654.97,0.02231
3649.19,0.02258
3643.4,0.02260
3637.61,0.02312
3631.83,0.02302
3626.04,0.02322
3620.25,0.02337
3614.47,0.02266
3608.68,0.02292
3602.9,0.02249
3597.11,0.02199
3591.32,0.02261
3585.54,0.02207
3579.75,0.02197
3573.97,0.02297
3568.18,0.02248
3562.39,0.02225
3556.61,0.02237
3550.82,0.02139
3545.03,0.02162
3539.25,0.02147
3533.46,0.02186
3527.68,0.02184
3521.89,0.02178
3516.1,0.02169
3510.32,0.02150
3504.53,0.02154
3498.74,0.02145
3492.96,0.02135
3487.17,0.02133
3481.39,0.02140
3475.6,0.02090
3469.81,0.02063
3464.03,0.02163
3458.24,0.02161
3452.45,0.02114
3446.67,0.02067
3440.88,0.02174
3435.1,0.02037
3429.31,0.02060
3423.52,0.02124
3417.74,0.02079
3411.95,0.02056
3406.16,0.02092
3400.38,0.02062
3394.59,0.02012
3388.81,0.02101
3383.02,0.02106
3377.23,0.02125
3371.45,0.02088
3365.66,0.02052
3359.87,0.02109
3354.09,0.02056
3348.3,0.02089
3342.52,0.01988
3336.73,0.02061
3330.94,0.01978
3325.16,0.01995
3319.37,0.02072
3313.58,0.02081
3307.8,0.01994
3302.01,0.02030
3296.23,0.02100
3290.44,0.02039
3284.65,0.02009
3278.87,0.02097
3273.08,0.02036
3267.29,0.02088
3261.51,0.02130
3255.72,0.02096
3249.94,0.02082
3244.15,0.02147
3238.36,0.02098
3232.58,0.02086
3226.79,0.02069
3221,0.02129
3215.22,0.02106
3209.43,0.02112
3203.65,0.02048
3197.86,0.02103
3192.07,0.02128
3186.29,0.02158
3180.5,0.02180
3174.71,0.02129
3168.93,0.02090
3163.14,0.02037
3157.36,0.02104
3151.57,0.02124
3145.78,0.02170
3140,0.02153
3134.21,0.02152
3128.42,0.02059
3122.64,0.02076
3116.85,0.02123
3111.07,0.02160
3105.28,0.02100
3099.49,0.02129
3093.71,0.02068
3087.92,0.02171
3082.14,0.02144
3076.35,0.02120
3070.56,0.02062
3064.78,0.02093
3058.99,0.02076
3053.2,0.02098
3047.42,0.02107
3041.63,0.02110
3035.85,0.02099
3030.06,0.02094
3024.27,0.02120
3018.49,0.02146
3012.7,0.02105
3006.91,0.02097
3001.13,0.02043
2995.34,0.02018
2989.56,0.02068
2983.77,0.02067
2977.98,0.02027
2972.2,0.02048
2966.41,0.01994
2960.62,0.01988
2954.84,0.02020
2949.05,0.01985
2943.27,0.01983
2937.48,0.01994
2931.69,0.02024
2925.91,0.02014
2920.12,0.02020
2914.33,0.02074
2908.55,0.02092
2902.76,0.02110
2896.98,0.02117
2891.19,0.02111
2885.4,0.02122
2879.62,0.02123
2873.83,0.02124
2868.04,0.02089
2862.26,0.02087
2856.47,0.02130
2850.69,0.02152
2844.9,0.02150
2839.11,0.02194
2833.33,0.02196
2827.54,0.02182
2821.75,0.02178
2815.97,0.02165
2810.18,0.02213
2804.4,0.02189
2798.61,0.02146
2792.82,0.02183
2787.04,0.02139
2781.25,0.02184
2775.46,0.02202
2769.68,0.02182
2763.89,0.02199
2758.11,0.02203
2752.32,0.02231
2746.53,0.02187
2740.75,0.02190
2734.96,0.02170
2729.17,0.02183
2723.39,0.02205
2717.6,0.02187
2711.82,0.02207
2706.03,0.02206
2700.24,0.02154
2694.46,0.02166
2688.67,0.02229
2682.88,0.02207
2677.1,0.02198
2671.31,0.02188
2665.53,0.02200
2659.74,0.02164
2653.95,0.02134
2648.17,0.02151
2642.38,0.02199
2636.59,0.02166
2630.81,0.02229
2625.02,0.02211
2619.24,0.02154
2613.45,0.02194
2607.66,0.02196
2601.88,0.02228
2596.09,0.02193
2590.3,0.02179
2584.52,0.02163
2578.73,0.02157
2572.95,0.02166
2567.16,0.02220
2561.37,0.02200
2555.59,0.02210
2549.8,0.02211
2544.02,0.02185
2538.23,0.02214
2532.44,0.02171
2526.66,0.02200
2520.87,0.02200
2515.08,0.02184
2509.3,0.02170
2503.51,0.02171
2497.73,0.02191
2491.94,0.02138
2486.15,0.02137
2480.37,0.02195
2474.58,0.02199
2468.79,0.02206
2463.01,0.02178
2457.22,0.02180
2451.44,0.02207
2445.65,0.02198
2439.86,0.02190
2434.08,0.02177
2428.29,0.02175
2422.5,0.02156
2416.72,0.02177
2410.93,0.02177
2405.15,0.02205
2399.36,0.02175
2393.57,0.02161
2387.79,0.02187
2382,0.02214
2376.21,0.02197
2370.43,0.02202
2364.64,0.02242
2358.86,0.02254
2353.07,0.02191
2347.28,0.02199
2341.5,0.02185
2335.71,0.02212
2329.92,0.02188
2324.14,0.02180
2318.35,0.02167
2312.57,0.02181
2306.78,0.02205
2300.99,0.02212
2295.21,0.02149
2289.42,0.02189
2283.63,0.02185
2277.85,0.02179
2272.06,0.02163
2266.28,0.02161
2260.49,0.02171
2254.7,0.02191
2248.92,0.02150
2243.13,0.02191
2237.34,0.02183
2231.56,0.02189
2225.77,0.02146
2219.99,0.02145
2214.2,0.02134
2208.41,0.02157
2202.63,0.02186
2196.84,0.02167
2191.05,0.02144
2185.27,0.02122
2179.48,0.02150
2173.7,0.02161
2167.91,0.02160
2162.12,0.02138
2156.34,0.02156
2150.55,0.02178
2144.76,0.02172
2138.98,0.02172
2133.19,0.02179
2127.41,0.02162
2121.62,0.02166
2115.83,0.02147
2110.05,0.02177
2104.26,0.02199
2098.47,0.02168
2092.69,0.02186
2086.9,0.02133
2081.12,0.02170
2075.33,0.02124
2069.54,0.02141
2063.76,0.02124
2057.97,0.02195
2052.19,0.02160
2046.4,0.02177
2040.61,0.02186
2034.83,0.02165
2029.04,0.02115
2023.25,0.02142
2017.47,0.02159
2011.68,0.02154
2005.9,0.02141
2000.11,0.02137
1994.32,0.02131
1988.54,0.02162
1982.75,0.02151
1976.96,0.02128
1971.18,0.02129
1965.39,0.02149
1959.61,0.02137
1953.82,0.02149
1948.03,0.02152
1942.25,0.02176
1936.46,0.02154
1930.67,0.02154
1924.89,0.02166
1919.1,0.02124
1913.32,0.02115
1907.53,0.02128
1901.74,0.02112
1895.96,0.02123
1890.17,0.02095
1884.38,0.02105
1878.6,0.02114
1872.81,0.02108
1867.03,0.02122
1861.24,0.02122
1855.45,0.02090
1849.67,0.02098
1843.88,0.02128
1838.09,0.02083
1832.31,0.02077
1826.52,0.02119
1820.74,0.02081
1814.95,0.02034
1809.16,0.02044
1803.38,0.02009
1797.59,0.02002
1791.8,0.02035
1786.02,0.01989
1780.23,0.01963
1774.45,0.01935
1768.66,0.01933
1762.87,0.01892
1757.09,0.01856
1751.3,0.01815
1745.51,0.01857
1739.73,0.01947
1733.94,0.02024
1728.16,0.02136
1722.37,0.02182
1716.58,0.02206
1710.8,0.02149
1705.01,0.02160
1699.22,0.02117
1693.44,0.02001
1687.65,0.02032
1681.87,0.01954
1676.08,0.01942
1670.29,0.01959
1664.51,0.01953
1658.72,0.01901
1652.93,0.02029
1647.15,0.01937
1641.36,0.01913
1635.58,0.01941
1629.79,0.01930
1624,0.02005
1618.22,0.01973
1612.43,0.01904
1606.64,0.01923
1600.86,0.01967
1595.07,0.01974
1589.29,0.01903
1583.5,0.01881
1577.71,0.01919
1571.93,0.01897
1566.14,0.01891
1560.35,0.01907
1554.57,0.01910
1548.78,0.01897
1543,0.01922
1537.21,0.01913
1531.42,0.01946
1525.64,0.01960
1519.85,0.01975
1514.07,0.01985
1508.28,0.02010
1502.49,0.01916
1496.71,0.01896
1490.92,0.01964
1485.13,0.01943
1479.35,0.01937
1473.56,0.01930
1467.78,0.01898
1461.99,0.01926
1456.2,0.01962
1450.42,0.01928
1444.63,0.01927
1438.84,0.01948
1433.06,0.01950
1427.27,0.01955
1421.49,0.01910
1415.7,0.01926
1409.91,0.01889
1404.13,0.01850
1398.34,0.01883
1392.55,0.01834
1386.77,0.01824
1380.98,0.01873
1375.2,0.01933
1369.41,0.01875
1363.62,0.01897
1357.84,0.01837
1352.05,0.01874
1346.26,0.01858
1340.48,0.01855
1334.69,0.01795
1328.91,0.01788
1323.12,0.01792
1317.33,0.01741
1311.55,0.01760
1305.76,0.01795
1299.97,0.01801
1294.19,0.01880
1288.4,0.01929
1282.62,0.01927
1276.83,0.01972
1271.04,0.01983
1265.26,0.02067
1259.47,0.02117
1253.68,0.02079
1247.9,0.02115
1242.11,0.02025
1236.33,0.02073
1230.54,0.02036
1224.75,0.02007
1218.97,0.01957
1213.18,0.01954
1207.39,0.01929
1201.61,0.01865
1195.82,0.01852
1190.04,0.01810
1184.25,0.01841
1178.46,0.01832
1172.68,0.01800
1166.89,0.01819
1161.1,0.01826
1155.32,0.01785
1149.53,0.01725
1143.75,0.01739
1137.96,0.01835
1132.17,0.01871
1126.39,0.01882
1120.6,0.01904
1114.81,0.01923
1109.03,0.01904
1103.24,0.01897
1097.46,0.01917
1091.67,0.01868
1085.88,0.01855
1080.1,0.01897
1074.31,0.01946
1068.52,0.02066
1062.74,0.02017
1056.95,0.01957
1051.17,0.01963
1045.38,0.01984
1039.59,0.01969
1033.81,0.02005
1028.02,0.02011
1022.24,0.01971
1016.45,0.01998
1010.66,0.02076
1004.88,0.02068
999.09,0.02138
993.304,0.02123
987.518,0.02151
981.731,0.02165
975.945,0.02156
970.159,0.02085
964.373,0.02027
958.586,0.02071
952.8,0.01987
947.014,0.02073
941.228,0.02006
935.441,0.01989
929.655,0.02005
923.869,0.01922
918.083,0.01936
912.297,0.01945
906.51,0.01874
900.724,0.01985
894.938,0.01954
889.152,0.01976
883.365,0.01914
877.579,0.01943
871.793,0.01920
866.007,0.01914
860.22,0.01912
854.434,0.01913
848.648,0.02008
842.862,0.01951
837.075,0.01891
831.289,0.01962
825.503,0.01948
819.717,0.01915
813.931,0.01918
808.144,0.01845
802.358,0.01918
796.572,0.01937
790.786,0.01961
784.999,0.01897
779.213,0.01857
773.427,0.01867
767.641,0.01808
761.854,0.01881
756.068,0.01882
750.282,0.01804
744.496,0.01849
738.709,0.01832
732.923,0.01878
727.137,0.01822
721.351,0.01767
715.565,0.01858
709.778,0.01823
703.992,0.01716
698.206,0.01917
692.42,0.01840
686.633,0.01866
680.847,0.01758
675.061,0.01768
669.275,0.01742
663.488,0.01752
657.702,0.01840
651.916,0.01625
646.13,0.01520
640.343,0.01671
634.557,0.01652
628.771,0.01603
622.985,0.01574
617.198,0.01514
611.412,0.01690
605.626,0.01591
599.84,0.01702