File: 01_Data/Rayon_Bamboo_Pillowcase/FTIR/IS/Rayon_Bamboo_Pillowcase_IS_S_220909_R6.dpt
7497.03,0.81795
7491.25,0.81780
7485.46,0.81409
7479.67,0.80800
7473.89,0.81593
7468.1,0.81404
7462.32,0.81579
7456.53,0.80954
7450.74,0.80757
7444.96,0.80384
7439.17,0.81083
7433.38,0.80890
7427.6,0.81580
7421.81,0.81056
7416.03,0.81003
7410.24,0.79634
7404.45,0.80283
7398.67,0.79008
7392.88,0.78924
7387.09,0.79198
7381.31,0.79433
7375.52,0.79205
7369.74,0.79425
7363.95,0.78503
7358.16,0.78017
7352.38,0.78529
7346.59,0.77809
7340.8,0.77529
7335.02,0.77936
7329.23,0.77266
7323.45,0.76801
7317.66,0.76337
7311.87,0.77361
7306.09,0.76290
7300.3,0.76900
7294.51,0.77633
7288.73,0.76339
7282.94,0.76481
7277.16,0.76665
7271.37,0.76073
7265.58,0.75879
7259.8,0.76511
7254.01,0.75808
7248.22,0.76448
7242.44,0.76235
7236.65,0.77020
7230.87,0.76347
7225.08,0.76612
7219.29,0.76303
7213.51,0.75519
7207.72,0.76278
7201.93,0.76127
7196.15,0.75581
7190.36,0.75658
7184.58,0.74863
7178.79,0.75342
7173,0.74194
7167.22,0.74141
7161.43,0.73976
7155.65,0.73527
7149.86,0.74329
7144.07,0.74021
7138.29,0.73185
7132.5,0.72960
7126.71,0.71890
7120.93,0.71294
7115.14,0.71232
7109.36,0.70776
7103.57,0.70486
7097.78,0.69739
7092,0.69228
7086.21,0.69371
7080.42,0.68603
7074.64,0.68473
7068.85,0.66947
7063.07,0.66936
7057.28,0.66152
7051.49,0.64783
7045.71,0.64117
7039.92,0.64321
7034.13,0.64291
7028.35,0.63651
7022.56,0.62948
7016.78,0.62221
7010.99,0.61804
7005.2,0.61455
6999.42,0.61119
6993.63,0.60653
6987.84,0.59792
6982.06,0.60020
6976.27,0.59719
6970.49,0.59172
6964.7,0.58721
6958.91,0.58736
6953.13,0.58769
6947.34,0.58333
6941.55,0.57831
6935.77,0.57747
6929.98,0.57281
6924.2,0.57399
6918.41,0.57362
6912.62,0.57653
6906.84,0.57008
6901.05,0.57186
6895.26,0.57395
6889.48,0.56954
6883.69,0.57279
6877.91,0.56990
6872.12,0.56986
6866.33,0.56962
6860.55,0.56537
6854.76,0.56530
6848.97,0.56180
6843.19,0.56518
6837.4,0.56182
6831.62,0.56174
6825.83,0.55996
6820.04,0.55773
6814.26,0.55966
6808.47,0.56274
6802.68,0.55520
6796.9,0.55221
6791.11,0.55746
6785.33,0.55878
6779.54,0.55878
6773.75,0.55432
6767.97,0.55758
6762.18,0.55979
6756.39,0.55514
6750.61,0.55343
6744.82,0.56001
6739.04,0.56377
6733.25,0.56142
6727.46,0.55817
6721.68,0.56227
6715.89,0.56927
6710.1,0.56528
6704.32,0.56315
6698.53,0.56613
6692.75,0.56266
6686.96,0.56729
6681.17,0.56921
6675.39,0.56905
6669.6,0.57316
6663.82,0.57426
6658.03,0.56983
6652.24,0.57062
6646.46,0.57838
6640.67,0.57879
6634.88,0.57995
6629.1,0.58363
6623.31,0.58457
6617.53,0.58265
6611.74,0.58435
6605.95,0.58716
6600.17,0.59086
6594.38,0.58989
6588.59,0.59030
6582.81,0.59153
6577.02,0.59400
6571.24,0.59367
6565.45,0.59406
6559.66,0.59603
6553.88,0.59548
6548.09,0.59476
6542.3,0.60016
6536.52,0.60539
6530.73,0.59705
6524.95,0.60196
6519.16,0.59878
6513.37,0.60346
6507.59,0.60917
6501.8,0.60161
6496.01,0.60778
6490.23,0.60854
6484.44,0.60696
6478.66,0.60317
6472.87,0.60319
6467.08,0.60763
6461.3,0.60929
6455.51,0.60772
6449.72,0.60869
6443.94,0.60413
6438.15,0.60522
6432.37,0.60652
6426.58,0.60955
6420.79,0.60664
6415.01,0.60563
6409.22,0.60387
6403.43,0.60464
6397.65,0.60371
6391.86,0.60033
6386.08,0.60612
6380.29,0.60651
6374.5,0.60411
6368.72,0.60430
6362.93,0.60512
6357.14,0.60637
6351.36,0.60561
6345.57,0.60998
6339.79,0.60732
6334,0.60920
6328.21,0.60513
6322.43,0.60828
6316.64,0.61356
6310.85,0.61202
6305.07,0.61601
6299.28,0.61359
6293.5,0.61371
6287.71,0.61778
6281.92,0.61737
6276.14,0.61832
6270.35,0.61916
6264.56,0.62164
6258.78,0.62288
6252.99,0.62373
6247.21,0.62512
6241.42,0.62771
6235.63,0.62389
6229.85,0.62767
6224.06,0.63118
6218.27,0.63216
6212.49,0.63132
6206.7,0.63088
6200.92,0.63290
6195.13,0.63693
6189.34,0.64155
6183.56,0.64025
6177.77,0.63991
6171.98,0.64359
6166.2,0.64421
6160.41,0.64427
6154.63,0.64518
6148.84,0.64744
6143.05,0.64948
6137.27,0.64995
6131.48,0.64987
6125.7,0.65185
6119.91,0.65730
6114.12,0.65407
6108.34,0.65815
6102.55,0.65835
6096.76,0.65903
6090.98,0.66257
6085.19,0.66644
6079.41,0.66521
6073.62,0.66531
6067.83,0.66747
6062.05,0.66793
6056.26,0.66954
6050.47,0.67025
6044.69,0.67034
6038.9,0.67192
6033.12,0.67518
6027.33,0.67597
6021.54,0.67618
6015.76,0.67672
6009.97,0.68030
6004.18,0.68160
5998.4,0.68086
5992.61,0.68261
5986.83,0.67957
5981.04,0.68296
5975.25,0.68008
5969.47,0.68007
5963.68,0.68460
5957.89,0.67921
5952.11,0.68021
5946.32,0.67762
5940.54,0.67543
5934.75,0.67506
5928.96,0.67331
5923.18,0.67166
5917.39,0.66969
5911.6,0.66940
5905.82,0.66807
5900.03,0.66702
5894.25,0.66562
5888.46,0.66676
5882.67,0.66358
5876.89,0.66506
5871.1,0.66224
5865.31,0.66376
5859.53,0.66309
5853.74,0.66483
5847.96,0.66405
5842.17,0.66007
5836.38,0.66099
5830.6,0.65704
5824.81,0.65605
5819.02,0.65192
5813.24,0.65286
5807.45,0.65423
5801.67,0.65366
5795.88,0.65375
5790.09,0.65079
5784.31,0.64913
5778.52,0.64874
5772.73,0.65341
5766.95,0.65305
5761.16,0.65126
5755.38,0.65069
5749.59,0.65288
5743.8,0.64963
5738.02,0.64906
5732.23,0.65048
5726.44,0.64669
5720.66,0.64824
5714.87,0.64800
5709.09,0.64778
5703.3,0.64894
5697.51,0.64826
5691.73,0.64528
5685.94,0.64476
5680.15,0.64357
5674.37,0.64369
5668.58,0.64193
5662.8,0.64197
5657.01,0.64195
5651.22,0.64310
5645.44,0.64314
5639.65,0.64504
5633.87,0.64476
5628.08,0.64393
5622.29,0.64258
5616.51,0.64414
5610.72,0.64414
5604.93,0.64323
5599.15,0.64219
5593.36,0.64378
5587.58,0.64532
5581.79,0.64397
5576,0.64655
5570.22,0.64628
5564.43,0.64710
5558.64,0.64817
5552.86,0.65131
5547.07,0.65161
5541.29,0.65006
5535.5,0.65035
5529.71,0.65006
5523.93,0.65266
5518.14,0.65234
5512.35,0.65323
5506.57,0.65409
5500.78,0.65472
5495,0.65244
5489.21,0.65492
5483.42,0.65562
5477.64,0.65742
5471.85,0.65714
5466.06,0.65511
5460.28,0.65669
5454.49,0.65816
5448.71,0.65809
5442.92,0.65964
5437.13,0.66127
5431.35,0.66286
5425.56,0.66344
5419.77,0.66479
5413.99,0.66477
5408.2,0.66639
5402.42,0.66828
5396.63,0.66925
5390.84,0.67039
5385.06,0.66962
5379.27,0.67073
5373.48,0.67073
5367.7,0.66998
5361.91,0.67106
5356.13,0.66816
5350.34,0.66836
5344.55,0.66790
5338.77,0.66648
5332.98,0.66358
5327.19,0.65974
5321.41,0.65676
5315.62,0.65253
5309.84,0.64900
5304.05,0.64367
5298.26,0.63704
5292.48,0.63027
5286.69,0.62054
5280.9,0.60984
5275.12,0.59954
5269.33,0.58814
5263.55,0.57803
5257.76,0.56435
5251.97,0.55432
5246.19,0.54297
5240.4,0.53115
5234.61,0.52401
5228.83,0.51614
5223.04,0.50831
5217.26,0.50246
5211.47,0.49665
5205.68,0.49406
5199.9,0.48836
5194.11,0.48593
5188.32,0.48367
5182.54,0.48432
5176.75,0.48321
5170.97,0.48272
5165.18,0.48497
5159.39,0.48693
5153.61,0.48883
5147.82,0.49047
5142.03,0.49131
5136.25,0.49610
5130.46,0.49934
5124.68,0.50199
5118.89,0.50531
5113.1,0.50718
5107.32,0.51152
5101.53,0.51465
5095.75,0.51865
5089.96,0.52099
5084.17,0.52386
5078.39,0.52671
5072.6,0.53015
5066.81,0.53341
5061.03,0.53483
5055.24,0.53894
5049.46,0.54417
5043.67,0.54564
5037.88,0.54808
5032.1,0.54927
5026.31,0.55295
5020.52,0.55460
5014.74,0.55784
5008.95,0.55830
5003.17,0.55909
4997.38,0.55963
4991.59,0.56110
4985.81,0.56033
4980.02,0.55869
4974.23,0.55929
4968.45,0.55735
4962.66,0.55581
4956.88,0.55244
4951.09,0.54936
4945.3,0.54581
4939.52,0.54120
4933.73,0.53510
4927.94,0.53114
4922.16,0.52561
4916.37,0.51886
4910.59,0.51234
4904.8,0.50584
4899.01,0.49861
4893.23,0.49398
4887.44,0.48659
4881.65,0.48134
4875.87,0.47641
4870.08,0.47306
4864.3,0.46811
4858.51,0.46345
4852.72,0.46018
4846.94,0.45687
4841.15,0.45290
4835.36,0.44993
4829.58,0.44628
4823.79,0.44595
4818.01,0.44192
4812.22,0.44044
4806.43,0.43788
4800.65,0.43608
4794.86,0.43509
4789.07,0.43326
4783.29,0.43212
4777.5,0.43236
4771.72,0.43146
4765.93,0.43162
4760.14,0.43321
4754.36,0.43410
4748.57,0.43564
4742.78,0.43776
4737,0.43977
4731.21,0.44236
4725.43,0.44347
4719.64,0.44527
4713.85,0.44769
4708.07,0.44974
4702.28,0.45382
4696.49,0.45444
4690.71,0.45797
4684.92,0.46057
4679.14,0.46283
4673.35,0.46533
4667.56,0.46738
4661.78,0.47082
4655.99,0.47352
4650.2,0.47549
4644.42,0.47746
4638.63,0.47879
4632.85,0.48141
4627.06,0.48372
4621.27,0.48531
4615.49,0.48852
4609.7,0.49070
4603.92,0.49295
4598.13,0.49427
4592.34,0.49515
4586.56,0.49773
4580.77,0.49936
4574.98,0.50044
4569.2,0.50200
4563.41,0.50352
4557.63,0.50486
4551.84,0.50628
4546.05,0.50941
4540.27,0.51112
4534.48,0.51120
4528.69,0.51251
4522.91,0.51353
4517.12,0.51462
4511.34,0.51487
4505.55,0.51653
4499.76,0.51652
4493.98,0.51594
4488.19,0.51673
4482.4,0.51629
4476.62,0.51358
4470.83,0.51118
4465.05,0.50769
4459.26,0.50304
4453.47,0.49815
4447.69,0.49180
4441.9,0.48580
4436.11,0.47635
4430.33,0.46887
4424.54,0.46173
4418.76,0.45594
4412.97,0.45136
4407.18,0.44920
4401.4,0.44614
4395.61,0.44418
4389.82,0.44159
4384.04,0.44046
4378.25,0.44270
4372.47,0.44438
4366.68,0.44512
4360.89,0.44374
4355.11,0.44270
4349.32,0.44060
4343.53,0.43873
4337.75,0.43592
4331.96,0.43243
4326.18,0.42750
4320.39,0.42414
4314.6,0.42275
4308.82,0.41968
4303.03,0.41694
4297.24,0.41548
4291.46,0.41400
4285.67,0.41376
4279.89,0.41198
4274.1,0.41223
4268.31,0.41128
4262.53,0.40945
4256.74,0.40889
4250.95,0.40739
4245.17,0.40718
4239.38,0.40790
4233.6,0.40965
4227.81,0.41075
4222.02,0.41245
4216.24,0.41237
4210.45,0.41298
4204.66,0.41378
4198.88,0.41358
4193.09,0.41457
4187.31,0.41485
4181.52,0.41407
4175.73,0.41427
4169.95,0.41352
4164.16,0.41161
4158.37,0.40905
4152.59,0.40553
4146.8,0.40237
4141.02,0.39856
4135.23,0.39441
4129.44,0.39074
4123.66,0.38589
4117.87,0.38160
4112.09,0.37617
4106.3,0.37098
4100.51,0.36546
4094.73,0.35930
4088.94,0.35356
4083.15,0.34721
4077.37,0.34132
4071.58,0.33559
4065.8,0.33010
4060.01,0.32484
4054.22,0.31990
4048.44,0.31427
4042.65,0.31006
4036.86,0.30648
4031.08,0.30322
4025.29,0.30048
4019.51,0.29755
4013.72,0.29534
4007.93,0.29443
4002.15,0.29445
3996.36,0.29500
3990.57,0.29576
3984.79,0.29705
3979,0.29742
3973.22,0.29850
3967.43,0.29920
3961.64,0.29989
3955.86,0.30130
3950.07,0.30225
3944.28,0.30491
3938.5,0.30701
3932.71,0.31055
3926.93,0.31310
3921.14,0.31662
3915.35,0.32018
3909.57,0.32257
3903.78,0.32670
3897.99,0.32984
3892.21,0.33202
3886.42,0.33580
3880.64,0.33868
3874.85,0.34151
3869.06,0.34577
3863.28,0.34853
3857.49,0.35094
3851.7,0.35529
3845.92,0.35587
3840.13,0.35865
3834.35,0.36025
3828.56,0.35985
3822.77,0.36128
3816.99,0.36011
3811.2,0.35895
3805.41,0.35853
3799.63,0.35813
3793.84,0.35652
3788.06,0.35437
3782.27,0.35328
3776.48,0.35168
3770.7,0.35024
3764.91,0.34803
3759.12,0.34707
3753.34,0.34446
3747.55,0.34208
3741.77,0.33800
3735.98,0.33414
3730.19,0.32690
3724.41,0.32146
3718.62,0.31447
3712.83,0.30740
3707.05,0.29681
3701.26,0.28714
3695.48,0.27504
3689.69,0.26276
3683.9,0.24619
3678.12,0.23017
3672.33,0.21051
3666.54,0.18930
3660.76,0.17114
3654.97,0.15293
3649.19,0.13762
3643.4,0.12195
3637.61,0.10895
3631.83,0.09854
3626.04,0.08784
3620.25,0.07906
3614.47,0.07063
3608.68,0.06434
3602.9,0.05820
3597.11,0.05251
3591.32,0.04858
3585.54,0.04370
3579.75,0.04164
3573.97,0.03856
3568.18,0.03653
3562.39,0.03490
3556.61,0.03172
3550.82,0.03083
3545.03,0.02929
3539.25,0.02822
3533.46,0.02802
3527.68,0.02779
3521.89,0.02622
3516.1,0.02545
3510.32,0.02577
3504.53,0.02506
3498.74,0.02507
3492.96,0.02482
3487.17,0.02518
3481.39,0.02533
3475.6,0.02488
3469.81,0.02551
3464.03,0.02533
3458.24,0.02549
3452.45,0.02604
3446.67,0.02587
3440.88,0.02667
3435.1,0.02668
3429.31,0.02683
3423.52,0.02631
3417.74,0.02641
3411.95,0.02686
3406.16,0.02716
3400.38,0.02718
3394.59,0.02746
3388.81,0.02742
3383.02,0.02758
3377.23,0.02694
3371.45,0.02773
3365.66,0.02774
3359.87,0.02814
3354.09,0.02798
3348.3,0.02854
3342.52,0.02807
3336.73,0.02787
3330.94,0.02744
3325.16,0.02875
3319.37,0.02822
3313.58,0.02838
3307.8,0.02889
3302.01,0.02894
3296.23,0.02882
3290.44,0.02906
3284.65,0.02923
3278.87,0.02967
3273.08,0.02931
3267.29,0.02873
3261.51,0.02921
3255.72,0.03038
3249.94,0.03068
3244.15,0.03048
3238.36,0.03068
3232.58,0.03122
3226.79,0.03149
3221,0.03118
3215.22,0.03138
3209.43,0.03264
3203.65,0.03232
3197.86,0.03244
3192.07,0.03289
3186.29,0.03372
3180.5,0.03451
3174.71,0.03476
3168.93,0.03596
3163.14,0.03607
3157.36,0.03667
3151.57,0.03749
3145.78,0.03831
3140,0.04034
3134.21,0.04105
3128.42,0.04177
3122.64,0.04339
3116.85,0.04546
3111.07,0.04690
3105.28,0.04763
3099.49,0.04999
3093.71,0.05171
3087.92,0.05426
3082.14,0.05646
3076.35,0.05820
3070.56,0.06068
3064.78,0.06282
3058.99,0.06561
3053.2,0.06754
3047.42,0.07029
3041.63,0.07209
3035.85,0.07508
3030.06,0.07753
3024.27,0.08015
3018.49,0.08113
3012.7,0.08267
3006.91,0.08320
3001.13,0.08317
2995.34,0.08197
2989.56,0.07903
2983.77,0.07354
2977.98,0.07030
2972.2,0.06543
2966.41,0.06160
2960.62,0.05734
2954.84,0.05344
2949.05,0.05121
2943.27,0.04823
2937.48,0.04509
2931.69,0.04278
2925.91,0.04150
2920.12,0.04063
2914.33,0.04068
2908.55,0.04027
2902.76,0.04019
2896.98,0.04076
2891.19,0.04067
2885.4,0.04171
2879.62,0.04317
2873.83,0.04488
2868.04,0.04750
2862.26,0.05085
2856.47,0.05399
2850.69,0.05690
2844.9,0.06335
2839.11,0.06953
2833.33,0.07351
2827.54,0.07638
2821.75,0.08034
2815.97,0.08314
2810.18,0.08610
2804.4,0.08904
2798.61,0.09264
2792.82,0.09567
2787.04,0.09837
2781.25,0.10090
2775.46,0.10297
2769.68,0.10607
2763.89,0.10781
2758.11,0.10995
2752.32,0.11075
2746.53,0.11170
2740.75,0.11245
2734.96,0.11306
2729.17,0.11445
2723.39,0.11601
2717.6,0.11804
2711.82,0.12028
2706.03,0.12210
2700.24,0.12492
2694.46,0.12690
2688.67,0.12921
2682.88,0.13219
2677.1,0.13550
2671.31,0.13782
2665.53,0.14075
2659.74,0.14341
2653.95,0.14661
2648.17,0.14955
2642.38,0.15229
2636.59,0.15532
2630.81,0.15816
2625.02,0.16102
2619.24,0.16366
2613.45,0.16662
2607.66,0.16899
2601.88,0.17072
2596.09,0.17301
2590.3,0.17512
2584.52,0.17672
2578.73,0.17785
2572.95,0.17990
2567.16,0.18072
2561.37,0.18214
2555.59,0.18319
2549.8,0.18371
2544.02,0.18351
2538.23,0.18409
2532.44,0.18526
2526.66,0.18634
2520.87,0.18715
2515.08,0.18818
2509.3,0.18972
2503.51,0.19086
2497.73,0.19245
2491.94,0.19436
2486.15,0.19635
2480.37,0.19903
2474.58,0.20130
2468.79,0.20422
2463.01,0.20726
2457.22,0.20970
2451.44,0.21292
2445.65,0.21615
2439.86,0.21925
2434.08,0.22241
2428.29,0.22560
2422.5,0.22888
2416.72,0.23155
2410.93,0.23451
2405.15,0.23653
2399.36,0.23821
2393.57,0.24044
2387.79,0.24162
2382,0.24314
2376.21,0.24553
2370.43,0.24758
2364.64,0.24929
2358.86,0.25106
2353.07,0.25254
2347.28,0.25408
2341.5,0.25694
2335.71,0.25847
2329.92,0.25945
2324.14,0.26000
2318.35,0.25977
2312.57,0.26022
2306.78,0.26060
2300.99,0.26040
2295.21,0.25979
2289.42,0.25872
2283.63,0.25749
2277.85,0.25557
2272.06,0.25293
2266.28,0.25040
2260.49,0.24809
2254.7,0.24526
2248.92,0.24327
2243.13,0.24073
2237.34,0.23890
2231.56,0.23772
2225.77,0.23612
2219.99,0.23438
2214.2,0.23319
2208.41,0.23165
2202.63,0.23075
2196.84,0.22933
2191.05,0.22724
2185.27,0.22487
2179.48,0.22191
2173.7,0.21971
2167.91,0.21669
2162.12,0.21449
2156.34,0.21285
2150.55,0.21176
2144.76,0.21062
2138.98,0.21050
2133.19,0.20982
2127.41,0.21011
2121.62,0.21112
2115.83,0.21292
2110.05,0.21519
2104.26,0.21764
2098.47,0.22058
2092.69,0.22244
2086.9,0.22414
2081.12,0.22563
2075.33,0.22613
2069.54,0.22645
2063.76,0.22590
2057.97,0.22602
2052.19,0.22599
2046.4,0.22633
2040.61,0.22716
2034.83,0.22926
2029.04,0.23253
2023.25,0.23659
2017.47,0.24071
2011.68,0.24456
2005.9,0.24829
2000.11,0.25062
1994.32,0.25170
1988.54,0.25261
1982.75,0.25430
1976.96,0.25727
1971.18,0.26073
1965.39,0.26445
1959.61,0.26812
1953.82,0.27223
1948.03,0.27629
1942.25,0.28026
1936.46,0.28343
1930.67,0.28620
1924.89,0.28938
1919.1,0.29187
1913.32,0.29424
1907.53,0.29658
1901.74,0.29895
1895.96,0.29987
1890.17,0.30090
1884.38,0.30044
1878.6,0.29994
1872.81,0.29844
1867.03,0.29739
1861.24,0.29479
1855.45,0.29222
1849.67,0.28929
1843.88,0.28636
1838.09,0.28241
1832.31,0.27956
1826.52,0.27598
1820.74,0.27205
1814.95,0.26849
1809.16,0.26417
1803.38,0.25917
1797.59,0.25446
1791.8,0.24972
1786.02,0.24466
1780.23,0.23966
1774.45,0.23414
1768.66,0.22632
1762.87,0.21763
1757.09,0.21067
1751.3,0.20626
1745.51,0.19892
1739.73,0.18970
1733.94,0.17814
1728.16,0.16060
1722.37,0.14055
1716.58,0.11742
1710.8,0.09560
1705.01,0.07944
1699.22,0.06776
1693.44,0.06153
1687.65,0.05945
1681.87,0.05754
1676.08,0.05670
1670.29,0.05734
1664.51,0.05832
1658.72,0.05965
1652.93,0.06187
1647.15,0.06342
1641.36,0.06435
1635.58,0.06623
1629.79,0.06899
1624,0.07308
1618.22,0.07813
1612.43,0.08315
1606.64,0.08841
1600.86,0.09357
1595.07,0.09774
1589.29,0.10202
1583.5,0.10599
1577.71,0.11072
1571.93,0.11354
1566.14,0.11627
1560.35,0.11872
1554.57,0.11760
1548.78,0.11612
1543,0.11446
1537.21,0.10904
1531.42,0.10213
1525.64,0.09330
1519.85,0.08338
1514.07,0.07472
1508.28,0.07022
1502.49,0.06760
1496.71,0.06738
1490.92,0.06518
1485.13,0.05974
1479.35,0.05327
1473.56,0.04711
1467.78,0.04162
1461.99,0.03938
1456.2,0.03753
1450.42,0.03517
1444.63,0.03399
1438.84,0.03350
1433.06,0.03271
1427.27,0.03163
1421.49,0.03124
1415.7,0.03112
1409.91,0.03178
1404.13,0.03201
1398.34,0.03239
1392.55,0.03181
1386.77,0.02993
1380.98,0.02815
1375.2,0.02753
1369.41,0.02831
1363.62,0.02927
1357.84,0.03102
1352.05,0.03161
1346.26,0.03154
1340.48,0.03146
1334.69,0.03090
1328.91,0.03139
1323.12,0.03139
1317.33,0.03098
1311.55,0.03130
1305.76,0.03296
1299.97,0.03471
1294.19,0.03613
1288.4,0.03702
1282.62,0.03531
1276.83,0.03363
1271.04,0.03418
1265.26,0.03321
1259.47,0.03401
1253.68,0.03501
1247.9,0.03556
1242.11,0.03425
1236.33,0.03368
1230.54,0.03319
1224.75,0.03382
1218.97,0.03474
1213.18,0.03402
1207.39,0.03022
1201.61,0.02746
1195.82,0.02754
1190.04,0.02761
1184.25,0.02539
1178.46,0.02281
1172.68,0.02148
1166.89,0.02313
1161.1,0.02542
1155.32,0.02589
1149.53,0.02427
1143.75,0.02201
1137.96,0.02077
1132.17,0.02042
1126.39,0.02213
1120.6,0.02488
1114.81,0.02735
1109.03,0.02758
1103.24,0.02768
1097.46,0.02805
1091.67,0.02962
1085.88,0.03248
1080.1,0.03662
1074.31,0.04033
1068.52,0.04392
1062.74,0.04486
1056.95,0.04345
1051.17,0.04140
1045.38,0.04157
1039.59,0.04142
1033.81,0.04124
1028.02,0.04474
1022.24,0.04611
1016.45,0.04753
1010.66,0.04618
1004.88,0.04489
999.09,0.04624
993.304,0.04880
987.518,0.05200
981.731,0.05781
975.945,0.06268
970.159,0.06358
964.373,0.06557
958.586,0.07348
952.8,0.08338
947.014,0.08941
941.228,0.09128
935.441,0.09061
929.655,0.08948
923.869,0.08903
918.083,0.08562
912.297,0.07716
906.51,0.06582
900.724,0.05646
894.938,0.05529
889.152,0.06697
883.365,0.08046
877.579,0.09131
871.793,0.09638
866.007,0.09723
860.22,0.09534
854.434,0.09340
848.648,0.08912
842.862,0.08616
837.075,0.08155
831.289,0.07697
825.503,0.07353
819.717,0.07091
813.931,0.06833
808.144,0.06712
802.358,0.06566
796.572,0.06356
790.786,0.06175
784.999,0.05914
779.213,0.05809
773.427,0.05600
767.641,0.05461
761.854,0.05246
756.068,0.05086
750.282,0.04940
744.496,0.04760
738.709,0.04552
732.923,0.04390
727.137,0.04267
721.351,0.04224
715.565,0.04113
709.778,0.04049
703.992,0.03988
698.206,0.03877
692.42,0.03821
686.633,0.03723
680.847,0.03467
675.061,0.03430
669.275,0.03506
663.488,0.03473
657.702,0.03477
651.916,0.03445
646.13,0.03455
640.343,0.03437
634.557,0.03311
628.771,0.03433
622.985,0.03100
617.198,0.03244
611.412,0.03182
605.626,0.03266
599.84,0.03465