File: 01_Data/Rayon_Bamboo_Pillowcase/FTIR/IS/Rayon_Bamboo_Pillowcase_IS_S_220909_R4.dpt
7497.03,0.82118
7491.25,0.82555
7485.46,0.82039
7479.67,0.81383
7473.89,0.81341
7468.1,0.82567
7462.32,0.81199
7456.53,0.80236
7450.74,0.80898
7444.96,0.80499
7439.17,0.79673
7433.38,0.81142
7427.6,0.81489
7421.81,0.81095
7416.03,0.80244
7410.24,0.79439
7404.45,0.79310
7398.67,0.78969
7392.88,0.79110
7387.09,0.78465
7381.31,0.79315
7375.52,0.78479
7369.74,0.78049
7363.95,0.77575
7358.16,0.77945
7352.38,0.78878
7346.59,0.78884
7340.8,0.77845
7335.02,0.77613
7329.23,0.77033
7323.45,0.76788
7317.66,0.76920
7311.87,0.77921
7306.09,0.76522
7300.3,0.77592
7294.51,0.77424
7288.73,0.76661
7282.94,0.76331
7277.16,0.76064
7271.37,0.75503
7265.58,0.76297
7259.8,0.77251
7254.01,0.76625
7248.22,0.76835
7242.44,0.75930
7236.65,0.77044
7230.87,0.76503
7225.08,0.76157
7219.29,0.76837
7213.51,0.75979
7207.72,0.75897
7201.93,0.75070
7196.15,0.75220
7190.36,0.75102
7184.58,0.75556
7178.79,0.74992
7173,0.74623
7167.22,0.73858
7161.43,0.73220
7155.65,0.74450
7149.86,0.73515
7144.07,0.73623
7138.29,0.72771
7132.5,0.73022
7126.71,0.72631
7120.93,0.71863
7115.14,0.70842
7109.36,0.71007
7103.57,0.70349
7097.78,0.69236
7092,0.68912
7086.21,0.67417
7080.42,0.67408
7074.64,0.66985
7068.85,0.66980
7063.07,0.65807
7057.28,0.66054
7051.49,0.65395
7045.71,0.64903
7039.92,0.64092
7034.13,0.63261
7028.35,0.62924
7022.56,0.61879
7016.78,0.61587
7010.99,0.60593
7005.2,0.61512
6999.42,0.60506
6993.63,0.59691
6987.84,0.59762
6982.06,0.59822
6976.27,0.59003
6970.49,0.58837
6964.7,0.58509
6958.91,0.58406
6953.13,0.57888
6947.34,0.58045
6941.55,0.57841
6935.77,0.58270
6929.98,0.57499
6924.2,0.57255
6918.41,0.57785
6912.62,0.57294
6906.84,0.56951
6901.05,0.56816
6895.26,0.56719
6889.48,0.56718
6883.69,0.56691
6877.91,0.56320
6872.12,0.55891
6866.33,0.56604
6860.55,0.56419
6854.76,0.55873
6848.97,0.56104
6843.19,0.55744
6837.4,0.55838
6831.62,0.55771
6825.83,0.55692
6820.04,0.55477
6814.26,0.55546
6808.47,0.55665
6802.68,0.55081
6796.9,0.55450
6791.11,0.55289
6785.33,0.55525
6779.54,0.55004
6773.75,0.55133
6767.97,0.55069
6762.18,0.55051
6756.39,0.54970
6750.61,0.55297
6744.82,0.55590
6739.04,0.55940
6733.25,0.56046
6727.46,0.55594
6721.68,0.55691
6715.89,0.56013
6710.1,0.56187
6704.32,0.56249
6698.53,0.56313
6692.75,0.56006
6686.96,0.56040
6681.17,0.56482
6675.39,0.56144
6669.6,0.56821
6663.82,0.56923
6658.03,0.57414
6652.24,0.57262
6646.46,0.57129
6640.67,0.57535
6634.88,0.57704
6629.1,0.57825
6623.31,0.58232
6617.53,0.57774
6611.74,0.58277
6605.95,0.58681
6600.17,0.58581
6594.38,0.58487
6588.59,0.58738
6582.81,0.58570
6577.02,0.59014
6571.24,0.58734
6565.45,0.59045
6559.66,0.59377
6553.88,0.59670
6548.09,0.59280
6542.3,0.59698
6536.52,0.59557
6530.73,0.60391
6524.95,0.59933
6519.16,0.60359
6513.37,0.60305
6507.59,0.60016
6501.8,0.60074
6496.01,0.59769
6490.23,0.60305
6484.44,0.60510
6478.66,0.60470
6472.87,0.60759
6467.08,0.60413
6461.3,0.60217
6455.51,0.60249
6449.72,0.60691
6443.94,0.60187
6438.15,0.60667
6432.37,0.60550
6426.58,0.61012
6420.79,0.60784
6415.01,0.60505
6409.22,0.60864
6403.43,0.60264
6397.65,0.60483
6391.86,0.59824
6386.08,0.60560
6380.29,0.60374
6374.5,0.60456
6368.72,0.60571
6362.93,0.60418
6357.14,0.60407
6351.36,0.60678
6345.57,0.60416
6339.79,0.60614
6334,0.60562
6328.21,0.60829
6322.43,0.60639
6316.64,0.60851
6310.85,0.60984
6305.07,0.61073
6299.28,0.61422
6293.5,0.61500
6287.71,0.61940
6281.92,0.61308
6276.14,0.61376
6270.35,0.61559
6264.56,0.61411
6258.78,0.61769
6252.99,0.61870
6247.21,0.62058
6241.42,0.62141
6235.63,0.62030
6229.85,0.62420
6224.06,0.62804
6218.27,0.62936
6212.49,0.63147
6206.7,0.63160
6200.92,0.63428
6195.13,0.63337
6189.34,0.63765
6183.56,0.64174
6177.77,0.63779
6171.98,0.64055
6166.2,0.64202
6160.41,0.64042
6154.63,0.64246
6148.84,0.64370
6143.05,0.64577
6137.27,0.64893
6131.48,0.64890
6125.7,0.65052
6119.91,0.64987
6114.12,0.65190
6108.34,0.65091
6102.55,0.65411
6096.76,0.65716
6090.98,0.66058
6085.19,0.66271
6079.41,0.66056
6073.62,0.66167
6067.83,0.66377
6062.05,0.66816
6056.26,0.66989
6050.47,0.66959
6044.69,0.66883
6038.9,0.67042
6033.12,0.67217
6027.33,0.67167
6021.54,0.67450
6015.76,0.67570
6009.97,0.67780
6004.18,0.67545
5998.4,0.67814
5992.61,0.67898
5986.83,0.67890
5981.04,0.68006
5975.25,0.67844
5969.47,0.67901
5963.68,0.67936
5957.89,0.67966
5952.11,0.67732
5946.32,0.67571
5940.54,0.67408
5934.75,0.67242
5928.96,0.66808
5923.18,0.67155
5917.39,0.66668
5911.6,0.66610
5905.82,0.66739
5900.03,0.66363
5894.25,0.66335
5888.46,0.66387
5882.67,0.66475
5876.89,0.66269
5871.1,0.66106
5865.31,0.66182
5859.53,0.66216
5853.74,0.66202
5847.96,0.65915
5842.17,0.65691
5836.38,0.65680
5830.6,0.65532
5824.81,0.65482
5819.02,0.65452
5813.24,0.65325
5807.45,0.65129
5801.67,0.65195
5795.88,0.65302
5790.09,0.64936
5784.31,0.64824
5778.52,0.65003
5772.73,0.64783
5766.95,0.64897
5761.16,0.64745
5755.38,0.64751
5749.59,0.64793
5743.8,0.64848
5738.02,0.64753
5732.23,0.64954
5726.44,0.64799
5720.66,0.64698
5714.87,0.64583
5709.09,0.64419
5703.3,0.64585
5697.51,0.64306
5691.73,0.64280
5685.94,0.64337
5680.15,0.64362
5674.37,0.64243
5668.58,0.63963
5662.8,0.64168
5657.01,0.64401
5651.22,0.64121
5645.44,0.63866
5639.65,0.64036
5633.87,0.64196
5628.08,0.64084
5622.29,0.64123
5616.51,0.63957
5610.72,0.64149
5604.93,0.64259
5599.15,0.64273
5593.36,0.64448
5587.58,0.64324
5581.79,0.64487
5576,0.64370
5570.22,0.64496
5564.43,0.64609
5558.64,0.64617
5552.86,0.64653
5547.07,0.64707
5541.29,0.65032
5535.5,0.64982
5529.71,0.65037
5523.93,0.65087
5518.14,0.65159
5512.35,0.65178
5506.57,0.65177
5500.78,0.65175
5495,0.65274
5489.21,0.65248
5483.42,0.65194
5477.64,0.65344
5471.85,0.65275
5466.06,0.65671
5460.28,0.65578
5454.49,0.65664
5448.71,0.65603
5442.92,0.65748
5437.13,0.65802
5431.35,0.66117
5425.56,0.66136
5419.77,0.65969
5413.99,0.66422
5408.2,0.66409
5402.42,0.66518
5396.63,0.66739
5390.84,0.66884
5385.06,0.66765
5379.27,0.66860
5373.48,0.66800
5367.7,0.66930
5361.91,0.66781
5356.13,0.66655
5350.34,0.66705
5344.55,0.66418
5338.77,0.66230
5332.98,0.66036
5327.19,0.65689
5321.41,0.65157
5315.62,0.64852
5309.84,0.64270
5304.05,0.63790
5298.26,0.63022
5292.48,0.62292
5286.69,0.61265
5280.9,0.60192
5275.12,0.59159
5269.33,0.58078
5263.55,0.56750
5257.76,0.55446
5251.97,0.54123
5246.19,0.53199
5240.4,0.52092
5234.61,0.51164
5228.83,0.50323
5223.04,0.49532
5217.26,0.48872
5211.47,0.48328
5205.68,0.47948
5199.9,0.47497
5194.11,0.47212
5188.32,0.47160
5182.54,0.46943
5176.75,0.46780
5170.97,0.46980
5165.18,0.47081
5159.39,0.47143
5153.61,0.47310
5147.82,0.47484
5142.03,0.47830
5136.25,0.48052
5130.46,0.48411
5124.68,0.48706
5118.89,0.49077
5113.1,0.49367
5107.32,0.49661
5101.53,0.49971
5095.75,0.50386
5089.96,0.50687
5084.17,0.50936
5078.39,0.51272
5072.6,0.51765
5066.81,0.51960
5061.03,0.52294
5055.24,0.52778
5049.46,0.53035
5043.67,0.53270
5037.88,0.53569
5032.1,0.53908
5026.31,0.54173
5020.52,0.54311
5014.74,0.54693
5008.95,0.54726
5003.17,0.55036
4997.38,0.55078
4991.59,0.55189
4985.81,0.55161
4980.02,0.55027
4974.23,0.55213
4968.45,0.54991
4962.66,0.54621
4956.88,0.54608
4951.09,0.54238
4945.3,0.53909
4939.52,0.53525
4933.73,0.52979
4927.94,0.52632
4922.16,0.52002
4916.37,0.51391
4910.59,0.50898
4904.8,0.50344
4899.01,0.49594
4893.23,0.49055
4887.44,0.48551
4881.65,0.47934
4875.87,0.47602
4870.08,0.47111
4864.3,0.46621
4858.51,0.46278
4852.72,0.45995
4846.94,0.45675
4841.15,0.45219
4835.36,0.44963
4829.58,0.44535
4823.79,0.44366
4818.01,0.44062
4812.22,0.43777
4806.43,0.43680
4800.65,0.43572
4794.86,0.43505
4789.07,0.43268
4783.29,0.43238
4777.5,0.43199
4771.72,0.43144
4765.93,0.43181
4760.14,0.43320
4754.36,0.43485
4748.57,0.43646
4742.78,0.43798
4737,0.44026
4731.21,0.44216
4725.43,0.44309
4719.64,0.44457
4713.85,0.44615
4708.07,0.44907
4702.28,0.45074
4696.49,0.45460
4690.71,0.45667
4684.92,0.45977
4679.14,0.46226
4673.35,0.46413
4667.56,0.46727
4661.78,0.47021
4655.99,0.47261
4650.2,0.47462
4644.42,0.47595
4638.63,0.47919
4632.85,0.48066
4627.06,0.48270
4621.27,0.48538
4615.49,0.48762
4609.7,0.48997
4603.92,0.49242
4598.13,0.49277
4592.34,0.49429
4586.56,0.49617
4580.77,0.49867
4574.98,0.50033
4569.2,0.50174
4563.41,0.50289
4557.63,0.50419
4551.84,0.50579
4546.05,0.50720
4540.27,0.50768
4534.48,0.50904
4528.69,0.51157
4522.91,0.51226
4517.12,0.51284
4511.34,0.51411
4505.55,0.51540
4499.76,0.51612
4493.98,0.51554
4488.19,0.51490
4482.4,0.51400
4476.62,0.51240
4470.83,0.51010
4465.05,0.50735
4459.26,0.50311
4453.47,0.49755
4447.69,0.49139
4441.9,0.48415
4436.11,0.47558
4430.33,0.46814
4424.54,0.46061
4418.76,0.45497
4412.97,0.45113
4407.18,0.44830
4401.4,0.44544
4395.61,0.44438
4389.82,0.44249
4384.04,0.44120
4378.25,0.44255
4372.47,0.44446
4366.68,0.44460
4360.89,0.44388
4355.11,0.44306
4349.32,0.44122
4343.53,0.43810
4337.75,0.43485
4331.96,0.43126
4326.18,0.42728
4320.39,0.42441
4314.6,0.42172
4308.82,0.41971
4303.03,0.41656
4297.24,0.41409
4291.46,0.41330
4285.67,0.41238
4279.89,0.41134
4274.1,0.41043
4268.31,0.41020
4262.53,0.41010
4256.74,0.40773
4250.95,0.40590
4245.17,0.40549
4239.38,0.40615
4233.6,0.40782
4227.81,0.40998
4222.02,0.41095
4216.24,0.41121
4210.45,0.41148
4204.66,0.41147
4198.88,0.41205
4193.09,0.41367
4187.31,0.41245
4181.52,0.41340
4175.73,0.41150
4169.95,0.41151
4164.16,0.40996
4158.37,0.40750
4152.59,0.40420
4146.8,0.39969
4141.02,0.39706
4135.23,0.39318
4129.44,0.38900
4123.66,0.38393
4117.87,0.37949
4112.09,0.37385
4106.3,0.36877
4100.51,0.36352
4094.73,0.35802
4088.94,0.35125
4083.15,0.34475
4077.37,0.33909
4071.58,0.33353
4065.8,0.32789
4060.01,0.32369
4054.22,0.31809
4048.44,0.31342
4042.65,0.30867
4036.86,0.30554
4031.08,0.30154
4025.29,0.29907
4019.51,0.29618
4013.72,0.29485
4007.93,0.29296
4002.15,0.29319
3996.36,0.29347
3990.57,0.29347
3984.79,0.29478
3979,0.29556
3973.22,0.29643
3967.43,0.29738
3961.64,0.29810
3955.86,0.29886
3950.07,0.30056
3944.28,0.30205
3938.5,0.30512
3932.71,0.30822
3926.93,0.31056
3921.14,0.31368
3915.35,0.31695
3909.57,0.32020
3903.78,0.32590
3897.99,0.32712
3892.21,0.32994
3886.42,0.33285
3880.64,0.33630
3874.85,0.33883
3869.06,0.34326
3863.28,0.34534
3857.49,0.34853
3851.7,0.35231
3845.92,0.35258
3840.13,0.35615
3834.35,0.35709
3828.56,0.35686
3822.77,0.35809
3816.99,0.35609
3811.2,0.35428
3805.41,0.35439
3799.63,0.35313
3793.84,0.35061
3788.06,0.35001
3782.27,0.34912
3776.48,0.34621
3770.7,0.34474
3764.91,0.34310
3759.12,0.34074
3753.34,0.33945
3747.55,0.33627
3741.77,0.33124
3735.98,0.32868
3730.19,0.32028
3724.41,0.31409
3718.62,0.30592
3712.83,0.29909
3707.05,0.28815
3701.26,0.27802
3695.48,0.26559
3689.69,0.25323
3683.9,0.23679
3678.12,0.22098
3672.33,0.20047
3666.54,0.17912
3660.76,0.16214
3654.97,0.14455
3649.19,0.12912
3643.4,0.11381
3637.61,0.10162
3631.83,0.09158
3626.04,0.08162
3620.25,0.07435
3614.47,0.06664
3608.68,0.05920
3602.9,0.05411
3597.11,0.05004
3591.32,0.04599
3585.54,0.04210
3579.75,0.03916
3573.97,0.03619
3568.18,0.03437
3562.39,0.03286
3556.61,0.03155
3550.82,0.03009
3545.03,0.02843
3539.25,0.02713
3533.46,0.02697
3527.68,0.02666
3521.89,0.02529
3516.1,0.02527
3510.32,0.02462
3504.53,0.02501
3498.74,0.02430
3492.96,0.02417
3487.17,0.02512
3481.39,0.02496
3475.6,0.02428
3469.81,0.02511
3464.03,0.02560
3458.24,0.02544
3452.45,0.02573
3446.67,0.02582
3440.88,0.02659
3435.1,0.02685
3429.31,0.02679
3423.52,0.02706
3417.74,0.02751
3411.95,0.02699
3406.16,0.02704
3400.38,0.02730
3394.59,0.02689
3388.81,0.02789
3383.02,0.02840
3377.23,0.02703
3371.45,0.02715
3365.66,0.02751
3359.87,0.02805
3354.09,0.02763
3348.3,0.02741
3342.52,0.02734
3336.73,0.02807
3330.94,0.02843
3325.16,0.02817
3319.37,0.02857
3313.58,0.02881
3307.8,0.02882
3302.01,0.02898
3296.23,0.02902
3290.44,0.02928
3284.65,0.02894
3278.87,0.02985
3273.08,0.02905
3267.29,0.02970
3261.51,0.02981
3255.72,0.03025
3249.94,0.03045
3244.15,0.03061
3238.36,0.03022
3232.58,0.03079
3226.79,0.03187
3221,0.03132
3215.22,0.03079
3209.43,0.03183
3203.65,0.03174
3197.86,0.03195
3192.07,0.03259
3186.29,0.03347
3180.5,0.03421
3174.71,0.03438
3168.93,0.03442
3163.14,0.03527
3157.36,0.03579
3151.57,0.03694
3145.78,0.03732
3140,0.03857
3134.21,0.03968
3128.42,0.04101
3122.64,0.04218
3116.85,0.04306
3111.07,0.04453
3105.28,0.04636
3099.49,0.04907
3093.71,0.05052
3087.92,0.05184
3082.14,0.05438
3076.35,0.05626
3070.56,0.05808
3064.78,0.06012
3058.99,0.06321
3053.2,0.06527
3047.42,0.06779
3041.63,0.07010
3035.85,0.07255
3030.06,0.07499
3024.27,0.07668
3018.49,0.07890
3012.7,0.07999
3006.91,0.08035
3001.13,0.08107
2995.34,0.07985
2989.56,0.07704
2983.77,0.07174
2977.98,0.06835
2972.2,0.06474
2966.41,0.06082
2960.62,0.05679
2954.84,0.05346
2949.05,0.05054
2943.27,0.04805
2937.48,0.04447
2931.69,0.04295
2925.91,0.04177
2920.12,0.03988
2914.33,0.04045
2908.55,0.04026
2902.76,0.03995
2896.98,0.04036
2891.19,0.04047
2885.4,0.04143
2879.62,0.04305
2873.83,0.04523
2868.04,0.04792
2862.26,0.05132
2856.47,0.05424
2850.69,0.05646
2844.9,0.06257
2839.11,0.06798
2833.33,0.07257
2827.54,0.07601
2821.75,0.07893
2815.97,0.08206
2810.18,0.08501
2804.4,0.08795
2798.61,0.09138
2792.82,0.09411
2787.04,0.09706
2781.25,0.09986
2775.46,0.10234
2769.68,0.10421
2763.89,0.10684
2758.11,0.10815
2752.32,0.10988
2746.53,0.11047
2740.75,0.11128
2734.96,0.11197
2729.17,0.11284
2723.39,0.11482
2717.6,0.11647
2711.82,0.11852
2706.03,0.12097
2700.24,0.12286
2694.46,0.12543
2688.67,0.12803
2682.88,0.13125
2677.1,0.13412
2671.31,0.13684
2665.53,0.13959
2659.74,0.14250
2653.95,0.14557
2648.17,0.14846
2642.38,0.15150
2636.59,0.15477
2630.81,0.15726
2625.02,0.16004
2619.24,0.16288
2613.45,0.16550
2607.66,0.16804
2601.88,0.16986
2596.09,0.17205
2590.3,0.17396
2584.52,0.17579
2578.73,0.17664
2572.95,0.17861
2567.16,0.17927
2561.37,0.18084
2555.59,0.18170
2549.8,0.18234
2544.02,0.18241
2538.23,0.18276
2532.44,0.18362
2526.66,0.18444
2520.87,0.18583
2515.08,0.18692
2509.3,0.18838
2503.51,0.18983
2497.73,0.19151
2491.94,0.19315
2486.15,0.19498
2480.37,0.19737
2474.58,0.20006
2468.79,0.20275
2463.01,0.20524
2457.22,0.20826
2451.44,0.21157
2445.65,0.21453
2439.86,0.21746
2434.08,0.22083
2428.29,0.22380
2422.5,0.22697
2416.72,0.23030
2410.93,0.23250
2405.15,0.23429
2399.36,0.23610
2393.57,0.23753
2387.79,0.23949
2382,0.24097
2376.21,0.24326
2370.43,0.24527
2364.64,0.24729
2358.86,0.24927
2353.07,0.24983
2347.28,0.25174
2341.5,0.25392
2335.71,0.25482
2329.92,0.25646
2324.14,0.25674
2318.35,0.25647
2312.57,0.25663
2306.78,0.25711
2300.99,0.25620
2295.21,0.25557
2289.42,0.25475
2283.63,0.25317
2277.85,0.25090
2272.06,0.24834
2266.28,0.24571
2260.49,0.24334
2254.7,0.24114
2248.92,0.23849
2243.13,0.23651
2237.34,0.23450
2231.56,0.23297
2225.77,0.23141
2219.99,0.23016
2214.2,0.22803
2208.41,0.22621
2202.63,0.22543
2196.84,0.22405
2191.05,0.22197
2185.27,0.21954
2179.48,0.21649
2173.7,0.21411
2167.91,0.21150
2162.12,0.20951
2156.34,0.20760
2150.55,0.20666
2144.76,0.20563
2138.98,0.20519
2133.19,0.20493
2127.41,0.20478
2121.62,0.20572
2115.83,0.20777
2110.05,0.20987
2104.26,0.21229
2098.47,0.21442
2092.69,0.21691
2086.9,0.21883
2081.12,0.21999
2075.33,0.22076
2069.54,0.22063
2063.76,0.22028
2057.97,0.22001
2052.19,0.22012
2046.4,0.22067
2040.61,0.22210
2034.83,0.22442
2029.04,0.22740
2023.25,0.23163
2017.47,0.23577
2011.68,0.23919
2005.9,0.24301
2000.11,0.24508
1994.32,0.24670
1988.54,0.24692
1982.75,0.24919
1976.96,0.25186
1971.18,0.25538
1965.39,0.25930
1959.61,0.26279
1953.82,0.26634
1948.03,0.27007
1942.25,0.27453
1936.46,0.27753
1930.67,0.27985
1924.89,0.28261
1919.1,0.28585
1913.32,0.28753
1907.53,0.29033
1901.74,0.29207
1895.96,0.29374
1890.17,0.29445
1884.38,0.29437
1878.6,0.29285
1872.81,0.29187
1867.03,0.29112
1861.24,0.28838
1855.45,0.28559
1849.67,0.28302
1843.88,0.28044
1838.09,0.27603
1832.31,0.27349
1826.52,0.27005
1820.74,0.26580
1814.95,0.26210
1809.16,0.25831
1803.38,0.25336
1797.59,0.24871
1791.8,0.24438
1786.02,0.23874
1780.23,0.23398
1774.45,0.22894
1768.66,0.22080
1762.87,0.21234
1757.09,0.20498
1751.3,0.20093
1745.51,0.19386
1739.73,0.18463
1733.94,0.17341
1728.16,0.15638
1722.37,0.13734
1716.58,0.11533
1710.8,0.09405
1705.01,0.07809
1699.22,0.06702
1693.44,0.06055
1687.65,0.05808
1681.87,0.05527
1676.08,0.05456
1670.29,0.05469
1664.51,0.05477
1658.72,0.05635
1652.93,0.05812
1647.15,0.05990
1641.36,0.06050
1635.58,0.06277
1629.79,0.06519
1624,0.06927
1618.22,0.07431
1612.43,0.07924
1606.64,0.08457
1600.86,0.08982
1595.07,0.09443
1589.29,0.09824
1583.5,0.10227
1577.71,0.10627
1571.93,0.10930
1566.14,0.11232
1560.35,0.11461
1554.57,0.11393
1548.78,0.11261
1543,0.11168
1537.21,0.10633
1531.42,0.09930
1525.64,0.09112
1519.85,0.08124
1514.07,0.07347
1508.28,0.06994
1502.49,0.06643
1496.71,0.06598
1490.92,0.06440
1485.13,0.05902
1479.35,0.05268
1473.56,0.04712
1467.78,0.04167
1461.99,0.03902
1456.2,0.03740
1450.42,0.03491
1444.63,0.03393
1438.84,0.03329
1433.06,0.03260
1427.27,0.03184
1421.49,0.03134
1415.7,0.03163
1409.91,0.03223
1404.13,0.03216
1398.34,0.03275
1392.55,0.03154
1386.77,0.02995
1380.98,0.02856
1375.2,0.02801
1369.41,0.02820
1363.62,0.02904
1357.84,0.03089
1352.05,0.03167
1346.26,0.03168
1340.48,0.03096
1334.69,0.03104
1328.91,0.03153
1323.12,0.03149
1317.33,0.03096
1311.55,0.03152
1305.76,0.03273
1299.97,0.03447
1294.19,0.03616
1288.4,0.03688
1282.62,0.03541
1276.83,0.03395
1271.04,0.03452
1265.26,0.03385
1259.47,0.03426
1253.68,0.03541
1247.9,0.03525
1242.11,0.03453
1236.33,0.03352
1230.54,0.03349
1224.75,0.03388
1218.97,0.03527
1213.18,0.03393
1207.39,0.02997
1201.61,0.02720
1195.82,0.02735
1190.04,0.02804
1184.25,0.02552
1178.46,0.02277
1172.68,0.02077
1166.89,0.02248
1161.1,0.02561
1155.32,0.02619
1149.53,0.02481
1143.75,0.02262
1137.96,0.02108
1132.17,0.02040
1126.39,0.02178
1120.6,0.02468
1114.81,0.02670
1109.03,0.02747
1103.24,0.02670
1097.46,0.02790
1091.67,0.02868
1085.88,0.03290
1080.1,0.03734
1074.31,0.04117
1068.52,0.04280
1062.74,0.04371
1056.95,0.04384
1051.17,0.04110
1045.38,0.04113
1039.59,0.04108
1033.81,0.04218
1028.02,0.04373
1022.24,0.04635
1016.45,0.04755
1010.66,0.04636
1004.88,0.04421
999.09,0.04622
993.304,0.04871
987.518,0.05160
981.731,0.05758
975.945,0.06215
970.159,0.06351
964.373,0.06575
958.586,0.07297
952.8,0.08190
947.014,0.08852
941.228,0.09066
935.441,0.08928
929.655,0.08820
923.869,0.08677
918.083,0.08383
912.297,0.07566
906.51,0.06451
900.724,0.05503
894.938,0.05423
889.152,0.06542
883.365,0.07840
877.579,0.08772
871.793,0.09267
866.007,0.09262
860.22,0.09126
854.434,0.08793
848.648,0.08559
842.862,0.08137
837.075,0.07691
831.289,0.07407
825.503,0.07047
819.717,0.06672
813.931,0.06538
808.144,0.06292
802.358,0.06199
796.572,0.05937
790.786,0.05775
784.999,0.05673
779.213,0.05554
773.427,0.05271
767.641,0.05166
761.854,0.05028
756.068,0.04907
750.282,0.04789
744.496,0.04621
738.709,0.04459
732.923,0.04307
727.137,0.04176
721.351,0.04113
715.565,0.03961
709.778,0.03917
703.992,0.03812
698.206,0.03715
692.42,0.03700
686.633,0.03537
680.847,0.03418
675.061,0.03363
669.275,0.03431
663.488,0.03459
657.702,0.03394
651.916,0.03454
646.13,0.03311
640.343,0.03385
634.557,0.03189
628.771,0.03180
622.985,0.03051
617.198,0.03203
611.412,0.03286
605.626,0.03243
599.84,0.03326