File: 01_Data/Rayon_Bamboo_Pillowcase/FTIR/IS/Rayon_Bamboo_Pillowcase_IS_S_220909_R2.dpt
7497.03,0.82000
7491.25,0.81878
7485.46,0.80748
7479.67,0.80138
7473.89,0.80941
7468.1,0.80887
7462.32,0.80652
7456.53,0.79685
7450.74,0.79358
7444.96,0.79892
7439.17,0.80984
7433.38,0.79399
7427.6,0.80349
7421.81,0.80442
7416.03,0.79443
7410.24,0.78538
7404.45,0.79383
7398.67,0.78594
7392.88,0.79115
7387.09,0.78750
7381.31,0.79758
7375.52,0.79067
7369.74,0.77454
7363.95,0.78098
7358.16,0.78336
7352.38,0.78417
7346.59,0.77925
7340.8,0.77678
7335.02,0.77130
7329.23,0.76877
7323.45,0.76646
7317.66,0.76192
7311.87,0.76799
7306.09,0.76608
7300.3,0.77472
7294.51,0.77414
7288.73,0.76574
7282.94,0.76156
7277.16,0.76645
7271.37,0.76188
7265.58,0.75809
7259.8,0.77251
7254.01,0.76227
7248.22,0.76274
7242.44,0.75565
7236.65,0.76145
7230.87,0.75792
7225.08,0.75612
7219.29,0.76066
7213.51,0.76210
7207.72,0.75374
7201.93,0.75394
7196.15,0.74933
7190.36,0.74749
7184.58,0.74192
7178.79,0.74338
7173,0.74183
7167.22,0.73242
7161.43,0.73198
7155.65,0.73395
7149.86,0.72716
7144.07,0.72195
7138.29,0.72173
7132.5,0.72170
7126.71,0.71872
7120.93,0.71336
7115.14,0.71208
7109.36,0.70105
7103.57,0.68990
7097.78,0.68650
7092,0.68317
7086.21,0.67456
7080.42,0.66636
7074.64,0.66832
7068.85,0.65925
7063.07,0.64622
7057.28,0.64716
7051.49,0.64349
7045.71,0.63960
7039.92,0.63560
7034.13,0.63249
7028.35,0.62437
7022.56,0.61480
7016.78,0.61319
7010.99,0.61307
7005.2,0.60652
6999.42,0.60527
6993.63,0.60601
6987.84,0.59951
6982.06,0.59465
6976.27,0.59073
6970.49,0.58771
6964.7,0.58169
6958.91,0.58644
6953.13,0.58266
6947.34,0.57657
6941.55,0.57448
6935.77,0.57370
6929.98,0.57621
6924.2,0.56798
6918.41,0.57311
6912.62,0.57120
6906.84,0.56940
6901.05,0.56107
6895.26,0.56393
6889.48,0.56358
6883.69,0.56257
6877.91,0.55988
6872.12,0.56302
6866.33,0.56047
6860.55,0.55263
6854.76,0.55955
6848.97,0.56064
6843.19,0.56155
6837.4,0.55563
6831.62,0.55637
6825.83,0.55836
6820.04,0.55604
6814.26,0.55170
6808.47,0.54599
6802.68,0.54572
6796.9,0.54828
6791.11,0.54922
6785.33,0.55031
6779.54,0.54918
6773.75,0.55516
6767.97,0.55375
6762.18,0.54744
6756.39,0.54910
6750.61,0.55380
6744.82,0.54953
6739.04,0.55338
6733.25,0.55092
6727.46,0.55474
6721.68,0.55381
6715.89,0.55014
6710.1,0.55930
6704.32,0.55583
6698.53,0.56075
6692.75,0.55806
6686.96,0.55959
6681.17,0.56478
6675.39,0.55783
6669.6,0.56140
6663.82,0.56459
6658.03,0.56983
6652.24,0.56635
6646.46,0.57012
6640.67,0.57225
6634.88,0.57467
6629.1,0.57574
6623.31,0.57588
6617.53,0.57619
6611.74,0.57594
6605.95,0.57910
6600.17,0.58022
6594.38,0.58738
6588.59,0.58588
6582.81,0.58577
6577.02,0.58541
6571.24,0.59090
6565.45,0.59011
6559.66,0.59041
6553.88,0.59024
6548.09,0.59458
6542.3,0.59466
6536.52,0.59276
6530.73,0.59548
6524.95,0.59474
6519.16,0.59635
6513.37,0.59766
6507.59,0.59808
6501.8,0.59633
6496.01,0.60225
6490.23,0.60187
6484.44,0.60209
6478.66,0.59772
6472.87,0.59991
6467.08,0.59881
6461.3,0.59971
6455.51,0.59948
6449.72,0.60181
6443.94,0.60409
6438.15,0.60327
6432.37,0.60399
6426.58,0.59986
6420.79,0.60117
6415.01,0.59855
6409.22,0.60054
6403.43,0.59590
6397.65,0.60196
6391.86,0.60286
6386.08,0.59913
6380.29,0.60065
6374.5,0.60007
6368.72,0.60366
6362.93,0.60127
6357.14,0.59781
6351.36,0.60060
6345.57,0.60084
6339.79,0.60003
6334,0.60439
6328.21,0.60251
6322.43,0.60179
6316.64,0.60319
6310.85,0.60619
6305.07,0.61135
6299.28,0.60911
6293.5,0.60822
6287.71,0.61235
6281.92,0.61146
6276.14,0.61072
6270.35,0.61261
6264.56,0.61269
6258.78,0.61671
6252.99,0.61518
6247.21,0.61779
6241.42,0.62033
6235.63,0.62072
6229.85,0.62293
6224.06,0.62252
6218.27,0.62338
6212.49,0.62537
6206.7,0.62500
6200.92,0.62832
6195.13,0.63276
6189.34,0.63218
6183.56,0.63240
6177.77,0.63855
6171.98,0.63603
6166.2,0.63822
6160.41,0.63742
6154.63,0.63861
6148.84,0.64282
6143.05,0.64117
6137.27,0.64600
6131.48,0.64568
6125.7,0.65003
6119.91,0.64715
6114.12,0.65305
6108.34,0.65100
6102.55,0.65257
6096.76,0.65397
6090.98,0.65399
6085.19,0.65346
6079.41,0.65748
6073.62,0.65917
6067.83,0.65882
6062.05,0.66427
6056.26,0.66415
6050.47,0.66417
6044.69,0.66474
6038.9,0.66709
6033.12,0.66941
6027.33,0.66772
6021.54,0.67142
6015.76,0.67045
6009.97,0.67252
6004.18,0.67288
5998.4,0.67132
5992.61,0.67445
5986.83,0.67605
5981.04,0.67653
5975.25,0.67418
5969.47,0.67196
5963.68,0.67401
5957.89,0.67512
5952.11,0.67309
5946.32,0.67158
5940.54,0.66821
5934.75,0.66816
5928.96,0.66868
5923.18,0.66728
5917.39,0.66684
5911.6,0.66253
5905.82,0.66212
5900.03,0.66264
5894.25,0.66173
5888.46,0.66203
5882.67,0.66040
5876.89,0.65937
5871.1,0.65829
5865.31,0.65685
5859.53,0.65615
5853.74,0.65815
5847.96,0.65787
5842.17,0.65712
5836.38,0.65614
5830.6,0.65521
5824.81,0.65242
5819.02,0.64835
5813.24,0.64782
5807.45,0.64934
5801.67,0.64759
5795.88,0.64813
5790.09,0.64835
5784.31,0.64682
5778.52,0.64654
5772.73,0.64635
5766.95,0.64667
5761.16,0.64647
5755.38,0.64380
5749.59,0.64684
5743.8,0.64507
5738.02,0.64518
5732.23,0.64603
5726.44,0.64441
5720.66,0.64414
5714.87,0.64348
5709.09,0.64194
5703.3,0.63983
5697.51,0.64101
5691.73,0.64314
5685.94,0.64089
5680.15,0.63765
5674.37,0.63569
5668.58,0.63773
5662.8,0.63811
5657.01,0.63802
5651.22,0.63646
5645.44,0.63667
5639.65,0.63796
5633.87,0.63732
5628.08,0.63633
5622.29,0.63798
5616.51,0.63918
5610.72,0.63616
5604.93,0.63943
5599.15,0.63855
5593.36,0.64050
5587.58,0.63717
5581.79,0.63857
5576,0.64095
5570.22,0.64077
5564.43,0.64169
5558.64,0.64259
5552.86,0.64560
5547.07,0.64315
5541.29,0.64508
5535.5,0.64478
5529.71,0.64722
5523.93,0.64610
5518.14,0.64760
5512.35,0.64792
5506.57,0.64924
5500.78,0.64878
5495,0.64926
5489.21,0.64877
5483.42,0.64950
5477.64,0.64789
5471.85,0.64933
5466.06,0.65254
5460.28,0.65110
5454.49,0.65260
5448.71,0.65211
5442.92,0.65410
5437.13,0.65340
5431.35,0.65504
5425.56,0.65671
5419.77,0.65826
5413.99,0.65843
5408.2,0.66025
5402.42,0.66292
5396.63,0.66153
5390.84,0.66366
5385.06,0.66354
5379.27,0.66342
5373.48,0.66432
5367.7,0.66349
5361.91,0.66241
5356.13,0.65923
5350.34,0.65763
5344.55,0.65796
5338.77,0.65588
5332.98,0.65418
5327.19,0.64874
5321.41,0.64435
5315.62,0.63868
5309.84,0.63275
5304.05,0.62456
5298.26,0.61861
5292.48,0.61127
5286.69,0.60358
5280.9,0.59081
5275.12,0.57894
5269.33,0.56662
5263.55,0.55468
5257.76,0.54045
5251.97,0.52996
5246.19,0.51648
5240.4,0.50506
5234.61,0.49432
5228.83,0.48748
5223.04,0.47830
5217.26,0.47264
5211.47,0.46695
5205.68,0.46181
5199.9,0.45808
5194.11,0.45482
5188.32,0.45239
5182.54,0.45064
5176.75,0.44917
5170.97,0.45142
5165.18,0.45292
5159.39,0.45370
5153.61,0.45605
5147.82,0.45781
5142.03,0.45971
5136.25,0.46438
5130.46,0.46617
5124.68,0.46833
5118.89,0.47384
5113.1,0.47546
5107.32,0.48086
5101.53,0.48241
5095.75,0.48657
5089.96,0.49135
5084.17,0.49337
5078.39,0.49580
5072.6,0.50023
5066.81,0.50337
5061.03,0.50718
5055.24,0.51047
5049.46,0.51375
5043.67,0.51790
5037.88,0.52128
5032.1,0.52380
5026.31,0.52710
5020.52,0.52925
5014.74,0.53116
5008.95,0.53337
5003.17,0.53610
4997.38,0.53609
4991.59,0.53931
4985.81,0.53893
4980.02,0.54022
4974.23,0.53905
4968.45,0.53798
4962.66,0.53771
4956.88,0.53634
4951.09,0.53471
4945.3,0.53126
4939.52,0.52787
4933.73,0.52347
4927.94,0.51933
4922.16,0.51523
4916.37,0.50868
4910.59,0.50275
4904.8,0.49782
4899.01,0.49250
4893.23,0.48706
4887.44,0.48101
4881.65,0.47688
4875.87,0.47171
4870.08,0.46682
4864.3,0.46454
4858.51,0.46087
4852.72,0.45603
4846.94,0.45243
4841.15,0.45019
4835.36,0.44607
4829.58,0.44383
4823.79,0.44060
4818.01,0.43893
4812.22,0.43713
4806.43,0.43607
4800.65,0.43394
4794.86,0.43208
4789.07,0.43116
4783.29,0.42967
4777.5,0.42953
4771.72,0.43011
4765.93,0.43013
4760.14,0.43099
4754.36,0.43262
4748.57,0.43377
4742.78,0.43529
4737,0.43893
4731.21,0.43914
4725.43,0.44048
4719.64,0.44298
4713.85,0.44444
4708.07,0.44650
4702.28,0.44980
4696.49,0.45228
4690.71,0.45442
4684.92,0.45759
4679.14,0.46010
4673.35,0.46151
4667.56,0.46420
4661.78,0.46565
4655.99,0.46832
4650.2,0.47149
4644.42,0.47440
4638.63,0.47613
4632.85,0.47760
4627.06,0.47947
4621.27,0.48212
4615.49,0.48449
4609.7,0.48599
4603.92,0.48693
4598.13,0.48984
4592.34,0.49211
4586.56,0.49238
4580.77,0.49555
4574.98,0.49657
4569.2,0.49795
4563.41,0.49966
4557.63,0.50113
4551.84,0.50310
4546.05,0.50411
4540.27,0.50536
4534.48,0.50734
4528.69,0.50764
4522.91,0.50812
4517.12,0.51052
4511.34,0.51160
4505.55,0.51168
4499.76,0.51291
4493.98,0.51258
4488.19,0.51215
4482.4,0.51165
4476.62,0.51066
4470.83,0.50774
4465.05,0.50450
4459.26,0.49980
4453.47,0.49429
4447.69,0.48804
4441.9,0.48060
4436.11,0.47262
4430.33,0.46624
4424.54,0.45877
4418.76,0.45264
4412.97,0.44864
4407.18,0.44594
4401.4,0.44421
4395.61,0.44252
4389.82,0.44017
4384.04,0.43985
4378.25,0.44111
4372.47,0.44288
4366.68,0.44371
4360.89,0.44272
4355.11,0.44096
4349.32,0.43904
4343.53,0.43655
4337.75,0.43375
4331.96,0.42974
4326.18,0.42610
4320.39,0.42260
4314.6,0.42140
4308.82,0.41745
4303.03,0.41521
4297.24,0.41379
4291.46,0.41157
4285.67,0.41095
4279.89,0.40917
4274.1,0.40855
4268.31,0.40816
4262.53,0.40679
4256.74,0.40528
4250.95,0.40370
4245.17,0.40379
4239.38,0.40349
4233.6,0.40538
4227.81,0.40676
4222.02,0.40727
4216.24,0.40828
4210.45,0.40857
4204.66,0.40845
4198.88,0.40888
4193.09,0.40954
4187.31,0.41016
4181.52,0.40979
4175.73,0.40873
4169.95,0.40792
4164.16,0.40594
4158.37,0.40317
4152.59,0.39951
4146.8,0.39631
4141.02,0.39184
4135.23,0.38884
4129.44,0.38449
4123.66,0.38082
4117.87,0.37544
4112.09,0.37028
4106.3,0.36511
4100.51,0.35908
4094.73,0.35488
4088.94,0.34829
4083.15,0.34157
4077.37,0.33589
4071.58,0.33116
4065.8,0.32509
4060.01,0.32070
4054.22,0.31498
4048.44,0.31017
4042.65,0.30565
4036.86,0.30162
4031.08,0.29893
4025.29,0.29626
4019.51,0.29328
4013.72,0.29222
4007.93,0.28976
4002.15,0.28906
3996.36,0.29028
3990.57,0.29084
3984.79,0.29223
3979,0.29250
3973.22,0.29283
3967.43,0.29334
3961.64,0.29361
3955.86,0.29521
3950.07,0.29637
3944.28,0.29836
3938.5,0.30117
3932.71,0.30405
3926.93,0.30686
3921.14,0.30955
3915.35,0.31247
3909.57,0.31553
3903.78,0.31918
3897.99,0.32232
3892.21,0.32480
3886.42,0.32794
3880.64,0.33051
3874.85,0.33308
3869.06,0.33596
3863.28,0.34007
3857.49,0.34181
3851.7,0.34563
3845.92,0.34646
3840.13,0.34847
3834.35,0.34927
3828.56,0.34918
3822.77,0.34980
3816.99,0.34902
3811.2,0.34740
3805.41,0.34716
3799.63,0.34583
3793.84,0.34342
3788.06,0.34145
3782.27,0.33992
3776.48,0.33837
3770.7,0.33649
3764.91,0.33308
3759.12,0.33104
3753.34,0.32857
3747.55,0.32489
3741.77,0.32051
3735.98,0.31719
3730.19,0.30974
3724.41,0.30311
3718.62,0.29484
3712.83,0.28825
3707.05,0.27808
3701.26,0.26712
3695.48,0.25411
3689.69,0.24125
3683.9,0.22434
3678.12,0.20807
3672.33,0.18900
3666.54,0.16787
3660.76,0.15104
3654.97,0.13383
3649.19,0.11998
3643.4,0.10457
3637.61,0.09326
3631.83,0.08396
3626.04,0.07458
3620.25,0.06752
3614.47,0.06095
3608.68,0.05525
3602.9,0.05019
3597.11,0.04636
3591.32,0.04320
3585.54,0.04005
3579.75,0.03724
3573.97,0.03468
3568.18,0.03397
3562.39,0.03148
3556.61,0.03033
3550.82,0.02942
3545.03,0.02862
3539.25,0.02697
3533.46,0.02698
3527.68,0.02630
3521.89,0.02558
3516.1,0.02461
3510.32,0.02495
3504.53,0.02462
3498.74,0.02384
3492.96,0.02423
3487.17,0.02438
3481.39,0.02495
3475.6,0.02515
3469.81,0.02518
3464.03,0.02538
3458.24,0.02547
3452.45,0.02599
3446.67,0.02660
3440.88,0.02611
3435.1,0.02650
3429.31,0.02634
3423.52,0.02646
3417.74,0.02704
3411.95,0.02646
3406.16,0.02612
3400.38,0.02721
3394.59,0.02652
3388.81,0.02817
3383.02,0.02713
3377.23,0.02798
3371.45,0.02768
3365.66,0.02833
3359.87,0.02739
3354.09,0.02775
3348.3,0.02761
3342.52,0.02830
3336.73,0.02853
3330.94,0.02839
3325.16,0.02854
3319.37,0.02914
3313.58,0.02867
3307.8,0.02876
3302.01,0.02870
3296.23,0.02860
3290.44,0.02940
3284.65,0.02898
3278.87,0.02966
3273.08,0.02920
3267.29,0.02965
3261.51,0.02935
3255.72,0.03042
3249.94,0.02986
3244.15,0.03050
3238.36,0.02935
3232.58,0.03062
3226.79,0.03108
3221,0.03121
3215.22,0.03176
3209.43,0.03113
3203.65,0.03197
3197.86,0.03224
3192.07,0.03282
3186.29,0.03294
3180.5,0.03321
3174.71,0.03345
3168.93,0.03425
3163.14,0.03413
3157.36,0.03476
3151.57,0.03631
3145.78,0.03675
3140,0.03818
3134.21,0.03854
3128.42,0.03922
3122.64,0.04064
3116.85,0.04156
3111.07,0.04318
3105.28,0.04474
3099.49,0.04625
3093.71,0.04801
3087.92,0.04972
3082.14,0.05176
3076.35,0.05339
3070.56,0.05600
3064.78,0.05762
3058.99,0.06035
3053.2,0.06191
3047.42,0.06428
3041.63,0.06661
3035.85,0.06877
3030.06,0.07139
3024.27,0.07334
3018.49,0.07540
3012.7,0.07665
3006.91,0.07733
3001.13,0.07762
2995.34,0.07627
2989.56,0.07427
2983.77,0.06942
2977.98,0.06716
2972.2,0.06274
2966.41,0.05974
2960.62,0.05587
2954.84,0.05246
2949.05,0.05014
2943.27,0.04745
2937.48,0.04457
2931.69,0.04268
2925.91,0.04114
2920.12,0.04031
2914.33,0.04023
2908.55,0.04039
2902.76,0.04030
2896.98,0.03992
2891.19,0.04044
2885.4,0.04152
2879.62,0.04331
2873.83,0.04431
2868.04,0.04773
2862.26,0.05083
2856.47,0.05361
2850.69,0.05653
2844.9,0.06170
2839.11,0.06756
2833.33,0.07155
2827.54,0.07443
2821.75,0.07787
2815.97,0.08025
2810.18,0.08406
2804.4,0.08685
2798.61,0.08996
2792.82,0.09315
2787.04,0.09551
2781.25,0.09787
2775.46,0.10044
2769.68,0.10261
2763.89,0.10481
2758.11,0.10665
2752.32,0.10764
2746.53,0.10859
2740.75,0.10900
2734.96,0.11017
2729.17,0.11135
2723.39,0.11308
2717.6,0.11535
2711.82,0.11702
2706.03,0.11914
2700.24,0.12144
2694.46,0.12361
2688.67,0.12665
2682.88,0.12891
2677.1,0.13204
2671.31,0.13504
2665.53,0.13828
2659.74,0.14097
2653.95,0.14366
2648.17,0.14640
2642.38,0.14943
2636.59,0.15263
2630.81,0.15557
2625.02,0.15780
2619.24,0.16124
2613.45,0.16425
2607.66,0.16630
2601.88,0.16853
2596.09,0.17041
2590.3,0.17196
2584.52,0.17337
2578.73,0.17485
2572.95,0.17670
2567.16,0.17795
2561.37,0.17869
2555.59,0.17973
2549.8,0.18017
2544.02,0.18072
2538.23,0.18049
2532.44,0.18129
2526.66,0.18221
2520.87,0.18334
2515.08,0.18481
2509.3,0.18643
2503.51,0.18741
2497.73,0.18894
2491.94,0.19080
2486.15,0.19315
2480.37,0.19553
2474.58,0.19811
2468.79,0.20026
2463.01,0.20353
2457.22,0.20586
2451.44,0.20898
2445.65,0.21231
2439.86,0.21565
2434.08,0.21796
2428.29,0.22114
2422.5,0.22417
2416.72,0.22720
2410.93,0.22916
2405.15,0.23130
2399.36,0.23289
2393.57,0.23423
2387.79,0.23579
2382,0.23701
2376.21,0.23873
2370.43,0.23974
2364.64,0.24057
2358.86,0.24197
2353.07,0.24340
2347.28,0.24539
2341.5,0.24744
2335.71,0.24859
2329.92,0.24961
2324.14,0.24979
2318.35,0.24957
2312.57,0.25033
2306.78,0.25056
2300.99,0.25078
2295.21,0.24956
2289.42,0.24858
2283.63,0.24730
2277.85,0.24499
2272.06,0.24219
2266.28,0.23958
2260.49,0.23669
2254.7,0.23404
2248.92,0.23208
2243.13,0.23008
2237.34,0.22804
2231.56,0.22622
2225.77,0.22504
2219.99,0.22336
2214.2,0.22132
2208.41,0.21985
2202.63,0.21851
2196.84,0.21718
2191.05,0.21508
2185.27,0.21257
2179.48,0.21015
2173.7,0.20768
2167.91,0.20518
2162.12,0.20268
2156.34,0.20080
2150.55,0.19992
2144.76,0.19878
2138.98,0.19848
2133.19,0.19810
2127.41,0.19835
2121.62,0.19896
2115.83,0.20121
2110.05,0.20310
2104.26,0.20515
2098.47,0.20735
2092.69,0.21003
2086.9,0.21158
2081.12,0.21275
2075.33,0.21379
2069.54,0.21384
2063.76,0.21355
2057.97,0.21358
2052.19,0.21365
2046.4,0.21418
2040.61,0.21536
2034.83,0.21764
2029.04,0.22056
2023.25,0.22457
2017.47,0.22870
2011.68,0.23236
2005.9,0.23544
2000.11,0.23780
1994.32,0.23901
1988.54,0.23985
1982.75,0.24154
1976.96,0.24508
1971.18,0.24819
1965.39,0.25173
1959.61,0.25488
1953.82,0.25884
1948.03,0.26258
1942.25,0.26630
1936.46,0.26919
1930.67,0.27150
1924.89,0.27442
1919.1,0.27684
1913.32,0.27875
1907.53,0.28167
1901.74,0.28341
1895.96,0.28457
1890.17,0.28465
1884.38,0.28500
1878.6,0.28416
1872.81,0.28300
1867.03,0.28161
1861.24,0.27952
1855.45,0.27700
1849.67,0.27377
1843.88,0.27107
1838.09,0.26733
1832.31,0.26466
1826.52,0.26114
1820.74,0.25757
1814.95,0.25382
1809.16,0.24992
1803.38,0.24507
1797.59,0.24036
1791.8,0.23590
1786.02,0.23052
1780.23,0.22584
1774.45,0.22061
1768.66,0.21286
1762.87,0.20463
1757.09,0.19768
1751.3,0.19310
1745.51,0.18598
1739.73,0.17701
1733.94,0.16605
1728.16,0.15027
1722.37,0.13273
1716.58,0.11242
1710.8,0.09182
1705.01,0.07616
1699.22,0.06537
1693.44,0.05846
1687.65,0.05491
1681.87,0.05244
1676.08,0.05158
1670.29,0.05114
1664.51,0.05140
1658.72,0.05266
1652.93,0.05497
1647.15,0.05597
1641.36,0.05599
1635.58,0.05847
1629.79,0.06068
1624,0.06515
1618.22,0.06921
1612.43,0.07495
1606.64,0.08064
1600.86,0.08522
1595.07,0.08994
1589.29,0.09324
1583.5,0.09726
1577.71,0.10085
1571.93,0.10424
1566.14,0.10680
1560.35,0.10925
1554.57,0.10890
1548.78,0.10787
1543,0.10695
1537.21,0.10196
1531.42,0.09553
1525.64,0.08788
1519.85,0.07851
1514.07,0.07142
1508.28,0.06764
1502.49,0.06509
1496.71,0.06499
1490.92,0.06366
1485.13,0.05818
1479.35,0.05207
1473.56,0.04605
1467.78,0.04098
1461.99,0.03893
1456.2,0.03724
1450.42,0.03530
1444.63,0.03345
1438.84,0.03331
1433.06,0.03293
1427.27,0.03188
1421.49,0.03144
1415.7,0.03135
1409.91,0.03215
1404.13,0.03249
1398.34,0.03252
1392.55,0.03123
1386.77,0.02952
1380.98,0.02821
1375.2,0.02784
1369.41,0.02804
1363.62,0.02932
1357.84,0.03116
1352.05,0.03218
1346.26,0.03195
1340.48,0.03157
1334.69,0.03091
1328.91,0.03148
1323.12,0.03152
1317.33,0.03072
1311.55,0.03119
1305.76,0.03290
1299.97,0.03491
1294.19,0.03573
1288.4,0.03691
1282.62,0.03530
1276.83,0.03375
1271.04,0.03436
1265.26,0.03371
1259.47,0.03397
1253.68,0.03536
1247.9,0.03560
1242.11,0.03509
1236.33,0.03339
1230.54,0.03343
1224.75,0.03388
1218.97,0.03504
1213.18,0.03392
1207.39,0.02990
1201.61,0.02745
1195.82,0.02744
1190.04,0.02790
1184.25,0.02530
1178.46,0.02262
1172.68,0.02156
1166.89,0.02317
1161.1,0.02525
1155.32,0.02531
1149.53,0.02419
1143.75,0.02246
1137.96,0.02089
1132.17,0.02035
1126.39,0.02164
1120.6,0.02452
1114.81,0.02689
1109.03,0.02728
1103.24,0.02685
1097.46,0.02805
1091.67,0.02851
1085.88,0.03249
1080.1,0.03729
1074.31,0.04152
1068.52,0.04312
1062.74,0.04334
1056.95,0.04220
1051.17,0.04108
1045.38,0.04120
1039.59,0.04110
1033.81,0.04150
1028.02,0.04336
1022.24,0.04681
1016.45,0.04736
1010.66,0.04647
1004.88,0.04463
999.09,0.04602
993.304,0.04840
987.518,0.05151
981.731,0.05752
975.945,0.06210
970.159,0.06270
964.373,0.06451
958.586,0.07181
952.8,0.08091
947.014,0.08699
941.228,0.08880
935.441,0.08727
929.655,0.08527
923.869,0.08446
918.083,0.08204
912.297,0.07411
906.51,0.06234
900.724,0.05450
894.938,0.05388
889.152,0.06373
883.365,0.07656
877.579,0.08384
871.793,0.08709
866.007,0.08698
860.22,0.08529
854.434,0.08311
848.648,0.07940
842.862,0.07543
837.075,0.07295
831.289,0.06935
825.503,0.06520
819.717,0.06198
813.931,0.06037
808.144,0.05953
802.358,0.05836
796.572,0.05633
790.786,0.05533
784.999,0.05338
779.213,0.05210
773.427,0.04996
767.641,0.04905
761.854,0.04726
756.068,0.04634
750.282,0.04601
744.496,0.04361
738.709,0.04274
732.923,0.04061
727.137,0.04031
721.351,0.03929
715.565,0.03883
709.778,0.03806
703.992,0.03747
698.206,0.03678
692.42,0.03572
686.633,0.03527
680.847,0.03366
675.061,0.03269
669.275,0.03403
663.488,0.03451
657.702,0.03465
651.916,0.03314
646.13,0.03385
640.343,0.03307
634.557,0.03274
628.771,0.03215
622.985,0.03039
617.198,0.03058
611.412,0.03403
605.626,0.03617
599.84,0.03319