File: 01_Data/Rayon_Bamboo_Pillowcase/FTIR/IS/Rayon_Bamboo_Pillowcase_IS_S_220909_R5.dpt
7497.03,0.82070
7491.25,0.81898
7485.46,0.81322
7479.67,0.81306
7473.89,0.81312
7468.1,0.81315
7462.32,0.81256
7456.53,0.80491
7450.74,0.80050
7444.96,0.80920
7439.17,0.80866
7433.38,0.80420
7427.6,0.80519
7421.81,0.79971
7416.03,0.80021
7410.24,0.79079
7404.45,0.79769
7398.67,0.79067
7392.88,0.79577
7387.09,0.78726
7381.31,0.79351
7375.52,0.78915
7369.74,0.78148
7363.95,0.77423
7358.16,0.77525
7352.38,0.77738
7346.59,0.77748
7340.8,0.77629
7335.02,0.77504
7329.23,0.77220
7323.45,0.77143
7317.66,0.76618
7311.87,0.76560
7306.09,0.77289
7300.3,0.77380
7294.51,0.77649
7288.73,0.77029
7282.94,0.75490
7277.16,0.76209
7271.37,0.75520
7265.58,0.75990
7259.8,0.76439
7254.01,0.76923
7248.22,0.76301
7242.44,0.76144
7236.65,0.76782
7230.87,0.76716
7225.08,0.76536
7219.29,0.76570
7213.51,0.75723
7207.72,0.75586
7201.93,0.75108
7196.15,0.75276
7190.36,0.75426
7184.58,0.74494
7178.79,0.74397
7173,0.75056
7167.22,0.73953
7161.43,0.73689
7155.65,0.73958
7149.86,0.73644
7144.07,0.73299
7138.29,0.72649
7132.5,0.73370
7126.71,0.72616
7120.93,0.71883
7115.14,0.71126
7109.36,0.70371
7103.57,0.69852
7097.78,0.69976
7092,0.69644
7086.21,0.68701
7080.42,0.67922
7074.64,0.67715
7068.85,0.67647
7063.07,0.65968
7057.28,0.65790
7051.49,0.65367
7045.71,0.64585
7039.92,0.64054
7034.13,0.63550
7028.35,0.63050
7022.56,0.62530
7016.78,0.61376
7010.99,0.61481
7005.2,0.60959
6999.42,0.60873
6993.63,0.60641
6987.84,0.60201
6982.06,0.59173
6976.27,0.59460
6970.49,0.59304
6964.7,0.58671
6958.91,0.58122
6953.13,0.58193
6947.34,0.58356
6941.55,0.58507
6935.77,0.58135
6929.98,0.57940
6924.2,0.58262
6918.41,0.57645
6912.62,0.57382
6906.84,0.56578
6901.05,0.57010
6895.26,0.57481
6889.48,0.56819
6883.69,0.56810
6877.91,0.56480
6872.12,0.56543
6866.33,0.56811
6860.55,0.56503
6854.76,0.56238
6848.97,0.56037
6843.19,0.56177
6837.4,0.56053
6831.62,0.55669
6825.83,0.55842
6820.04,0.55421
6814.26,0.55688
6808.47,0.55409
6802.68,0.55658
6796.9,0.55271
6791.11,0.55902
6785.33,0.55889
6779.54,0.55964
6773.75,0.55416
6767.97,0.55202
6762.18,0.56186
6756.39,0.55722
6750.61,0.55297
6744.82,0.55539
6739.04,0.56342
6733.25,0.55634
6727.46,0.56261
6721.68,0.56179
6715.89,0.56047
6710.1,0.56207
6704.32,0.56506
6698.53,0.56589
6692.75,0.56270
6686.96,0.56326
6681.17,0.56752
6675.39,0.56997
6669.6,0.56421
6663.82,0.56481
6658.03,0.57069
6652.24,0.57514
6646.46,0.57093
6640.67,0.57370
6634.88,0.57315
6629.1,0.57789
6623.31,0.58310
6617.53,0.58273
6611.74,0.58270
6605.95,0.58742
6600.17,0.58885
6594.38,0.58706
6588.59,0.58787
6582.81,0.59231
6577.02,0.59209
6571.24,0.59345
6565.45,0.59629
6559.66,0.59185
6553.88,0.59728
6548.09,0.59872
6542.3,0.59928
6536.52,0.60182
6530.73,0.59979
6524.95,0.59889
6519.16,0.60373
6513.37,0.60356
6507.59,0.60467
6501.8,0.60088
6496.01,0.60113
6490.23,0.60781
6484.44,0.60409
6478.66,0.60685
6472.87,0.60626
6467.08,0.60653
6461.3,0.60877
6455.51,0.60297
6449.72,0.60624
6443.94,0.60272
6438.15,0.60191
6432.37,0.60512
6426.58,0.60324
6420.79,0.60419
6415.01,0.60580
6409.22,0.60291
6403.43,0.60651
6397.65,0.60847
6391.86,0.60653
6386.08,0.60633
6380.29,0.60640
6374.5,0.60204
6368.72,0.60246
6362.93,0.60386
6357.14,0.60071
6351.36,0.60638
6345.57,0.60183
6339.79,0.60413
6334,0.61133
6328.21,0.60726
6322.43,0.61171
6316.64,0.60803
6310.85,0.60971
6305.07,0.60967
6299.28,0.61273
6293.5,0.61387
6287.71,0.61550
6281.92,0.61562
6276.14,0.61995
6270.35,0.61672
6264.56,0.61916
6258.78,0.62125
6252.99,0.62158
6247.21,0.62102
6241.42,0.62299
6235.63,0.62542
6229.85,0.62911
6224.06,0.63067
6218.27,0.63074
6212.49,0.63157
6206.7,0.63095
6200.92,0.63354
6195.13,0.63694
6189.34,0.63756
6183.56,0.63806
6177.77,0.64098
6171.98,0.64090
6166.2,0.64251
6160.41,0.64105
6154.63,0.64813
6148.84,0.64631
6143.05,0.64978
6137.27,0.64833
6131.48,0.65043
6125.7,0.65134
6119.91,0.65385
6114.12,0.65394
6108.34,0.65916
6102.55,0.65779
6096.76,0.66001
6090.98,0.65761
6085.19,0.66305
6079.41,0.66179
6073.62,0.66567
6067.83,0.66452
6062.05,0.66640
6056.26,0.66841
6050.47,0.66978
6044.69,0.67059
6038.9,0.67065
6033.12,0.67462
6027.33,0.67516
6021.54,0.67682
6015.76,0.67515
6009.97,0.68064
6004.18,0.67670
5998.4,0.67689
5992.61,0.68009
5986.83,0.68108
5981.04,0.68045
5975.25,0.68339
5969.47,0.68236
5963.68,0.68013
5957.89,0.68010
5952.11,0.67746
5946.32,0.67719
5940.54,0.67310
5934.75,0.67272
5928.96,0.67092
5923.18,0.67109
5917.39,0.67080
5911.6,0.66810
5905.82,0.66814
5900.03,0.66626
5894.25,0.66576
5888.46,0.66374
5882.67,0.66522
5876.89,0.66463
5871.1,0.66377
5865.31,0.66293
5859.53,0.66768
5853.74,0.66405
5847.96,0.66269
5842.17,0.66048
5836.38,0.65772
5830.6,0.65811
5824.81,0.65449
5819.02,0.65295
5813.24,0.65049
5807.45,0.65314
5801.67,0.65247
5795.88,0.65378
5790.09,0.65048
5784.31,0.64775
5778.52,0.64960
5772.73,0.65061
5766.95,0.64909
5761.16,0.64974
5755.38,0.64978
5749.59,0.65026
5743.8,0.64940
5738.02,0.65077
5732.23,0.65083
5726.44,0.64830
5720.66,0.64817
5714.87,0.64921
5709.09,0.64650
5703.3,0.64678
5697.51,0.64732
5691.73,0.64592
5685.94,0.64496
5680.15,0.64340
5674.37,0.64214
5668.58,0.64092
5662.8,0.64359
5657.01,0.64051
5651.22,0.64325
5645.44,0.64335
5639.65,0.64299
5633.87,0.64448
5628.08,0.64368
5622.29,0.64320
5616.51,0.64243
5610.72,0.64243
5604.93,0.64226
5599.15,0.64389
5593.36,0.64523
5587.58,0.64509
5581.79,0.64427
5576,0.64371
5570.22,0.64522
5564.43,0.64461
5558.64,0.64830
5552.86,0.64736
5547.07,0.64934
5541.29,0.64861
5535.5,0.65097
5529.71,0.65005
5523.93,0.65159
5518.14,0.65271
5512.35,0.65277
5506.57,0.65298
5500.78,0.65331
5495,0.65440
5489.21,0.65618
5483.42,0.65413
5477.64,0.65500
5471.85,0.65526
5466.06,0.65556
5460.28,0.65626
5454.49,0.65687
5448.71,0.65793
5442.92,0.65960
5437.13,0.65930
5431.35,0.65956
5425.56,0.66152
5419.77,0.66153
5413.99,0.66320
5408.2,0.66609
5402.42,0.66632
5396.63,0.66848
5390.84,0.66922
5385.06,0.66972
5379.27,0.67006
5373.48,0.66902
5367.7,0.66936
5361.91,0.66968
5356.13,0.66886
5350.34,0.66760
5344.55,0.66675
5338.77,0.66472
5332.98,0.66087
5327.19,0.65926
5321.41,0.65345
5315.62,0.64962
5309.84,0.64653
5304.05,0.63913
5298.26,0.63516
5292.48,0.62616
5286.69,0.61751
5280.9,0.60663
5275.12,0.59582
5269.33,0.58642
5263.55,0.57379
5257.76,0.56107
5251.97,0.54962
5246.19,0.53739
5240.4,0.52735
5234.61,0.51852
5228.83,0.50922
5223.04,0.50318
5217.26,0.49723
5211.47,0.49166
5205.68,0.48578
5199.9,0.48332
5194.11,0.48143
5188.32,0.47667
5182.54,0.47700
5176.75,0.47740
5170.97,0.47744
5165.18,0.47869
5159.39,0.47925
5153.61,0.48104
5147.82,0.48434
5142.03,0.48700
5136.25,0.48926
5130.46,0.49382
5124.68,0.49717
5118.89,0.49870
5113.1,0.50305
5107.32,0.50517
5101.53,0.50869
5095.75,0.51227
5089.96,0.51396
5084.17,0.51885
5078.39,0.52212
5072.6,0.52417
5066.81,0.52796
5061.03,0.53106
5055.24,0.53470
5049.46,0.53749
5043.67,0.54144
5037.88,0.54370
5032.1,0.54573
5026.31,0.54929
5020.52,0.55050
5014.74,0.55196
5008.95,0.55411
5003.17,0.55600
4997.38,0.55564
4991.59,0.55600
4985.81,0.55745
4980.02,0.55655
4974.23,0.55732
4968.45,0.55634
4962.66,0.55287
4956.88,0.54937
4951.09,0.54715
4945.3,0.54424
4939.52,0.54102
4933.73,0.53375
4927.94,0.52918
4922.16,0.52284
4916.37,0.51814
4910.59,0.51199
4904.8,0.50596
4899.01,0.49933
4893.23,0.49273
4887.44,0.48576
4881.65,0.48063
4875.87,0.47535
4870.08,0.47218
4864.3,0.46929
4858.51,0.46314
4852.72,0.45951
4846.94,0.45590
4841.15,0.45261
4835.36,0.44911
4829.58,0.44657
4823.79,0.44394
4818.01,0.44070
4812.22,0.44028
4806.43,0.43701
4800.65,0.43570
4794.86,0.43400
4789.07,0.43383
4783.29,0.43253
4777.5,0.43200
4771.72,0.43292
4765.93,0.43313
4760.14,0.43372
4754.36,0.43454
4748.57,0.43559
4742.78,0.43818
4737,0.44005
4731.21,0.44199
4725.43,0.44437
4719.64,0.44541
4713.85,0.44741
4708.07,0.44997
4702.28,0.45221
4696.49,0.45416
4690.71,0.45809
4684.92,0.46040
4679.14,0.46244
4673.35,0.46512
4667.56,0.46662
4661.78,0.47068
4655.99,0.47244
4650.2,0.47509
4644.42,0.47689
4638.63,0.47987
4632.85,0.48241
4627.06,0.48461
4621.27,0.48582
4615.49,0.48688
4609.7,0.48872
4603.92,0.49114
4598.13,0.49321
4592.34,0.49540
4586.56,0.49649
4580.77,0.49802
4574.98,0.50052
4569.2,0.50268
4563.41,0.50397
4557.63,0.50443
4551.84,0.50609
4546.05,0.50849
4540.27,0.50929
4534.48,0.51042
4528.69,0.51145
4522.91,0.51364
4517.12,0.51326
4511.34,0.51530
4505.55,0.51565
4499.76,0.51582
4493.98,0.51618
4488.19,0.51572
4482.4,0.51531
4476.62,0.51313
4470.83,0.51131
4465.05,0.50892
4459.26,0.50342
4453.47,0.49803
4447.69,0.49203
4441.9,0.48438
4436.11,0.47711
4430.33,0.46977
4424.54,0.46039
4418.76,0.45590
4412.97,0.45263
4407.18,0.44864
4401.4,0.44735
4395.61,0.44468
4389.82,0.44241
4384.04,0.44145
4378.25,0.44322
4372.47,0.44445
4366.68,0.44491
4360.89,0.44418
4355.11,0.44282
4349.32,0.44125
4343.53,0.43907
4337.75,0.43510
4331.96,0.43141
4326.18,0.42741
4320.39,0.42446
4314.6,0.42221
4308.82,0.41951
4303.03,0.41719
4297.24,0.41548
4291.46,0.41426
4285.67,0.41370
4279.89,0.41193
4274.1,0.41094
4268.31,0.41059
4262.53,0.41000
4256.74,0.40851
4250.95,0.40757
4245.17,0.40661
4239.38,0.40746
4233.6,0.40885
4227.81,0.41062
4222.02,0.41062
4216.24,0.41148
4210.45,0.41204
4204.66,0.41318
4198.88,0.41358
4193.09,0.41351
4187.31,0.41515
4181.52,0.41440
4175.73,0.41331
4169.95,0.41317
4164.16,0.41070
4158.37,0.40829
4152.59,0.40491
4146.8,0.40149
4141.02,0.39816
4135.23,0.39427
4129.44,0.38974
4123.66,0.38587
4117.87,0.38105
4112.09,0.37557
4106.3,0.37075
4100.51,0.36517
4094.73,0.35897
4088.94,0.35285
4083.15,0.34669
4077.37,0.34088
4071.58,0.33483
4065.8,0.32901
4060.01,0.32457
4054.22,0.31899
4048.44,0.31401
4042.65,0.30988
4036.86,0.30629
4031.08,0.30211
4025.29,0.29982
4019.51,0.29743
4013.72,0.29572
4007.93,0.29407
4002.15,0.29309
3996.36,0.29446
3990.57,0.29510
3984.79,0.29584
3979,0.29714
3973.22,0.29781
3967.43,0.29837
3961.64,0.29919
3955.86,0.29972
3950.07,0.30170
3944.28,0.30369
3938.5,0.30634
3932.71,0.30943
3926.93,0.31293
3921.14,0.31558
3915.35,0.31934
3909.57,0.32190
3903.78,0.32662
3897.99,0.32898
3892.21,0.33119
3886.42,0.33452
3880.64,0.33820
3874.85,0.34105
3869.06,0.34440
3863.28,0.34732
3857.49,0.34978
3851.7,0.35362
3845.92,0.35464
3840.13,0.35830
3834.35,0.35852
3828.56,0.35875
3822.77,0.35925
3816.99,0.35870
3811.2,0.35729
3805.41,0.35755
3799.63,0.35617
3793.84,0.35442
3788.06,0.35269
3782.27,0.35206
3776.48,0.34975
3770.7,0.34802
3764.91,0.34609
3759.12,0.34439
3753.34,0.34261
3747.55,0.33945
3741.77,0.33476
3735.98,0.33200
3730.19,0.32464
3724.41,0.31888
3718.62,0.30997
3712.83,0.30358
3707.05,0.29377
3701.26,0.28354
3695.48,0.27173
3689.69,0.25937
3683.9,0.24125
3678.12,0.22611
3672.33,0.20642
3666.54,0.18567
3660.76,0.16727
3654.97,0.14955
3649.19,0.13457
3643.4,0.11791
3637.61,0.10617
3631.83,0.09555
3626.04,0.08471
3620.25,0.07709
3614.47,0.06887
3608.68,0.06275
3602.9,0.05623
3597.11,0.05214
3591.32,0.04741
3585.54,0.04347
3579.75,0.04003
3573.97,0.03844
3568.18,0.03520
3562.39,0.03314
3556.61,0.03227
3550.82,0.03004
3545.03,0.02944
3539.25,0.02837
3533.46,0.02819
3527.68,0.02673
3521.89,0.02592
3516.1,0.02585
3510.32,0.02514
3504.53,0.02495
3498.74,0.02423
3492.96,0.02483
3487.17,0.02522
3481.39,0.02485
3475.6,0.02522
3469.81,0.02469
3464.03,0.02492
3458.24,0.02564
3452.45,0.02562
3446.67,0.02629
3440.88,0.02660
3435.1,0.02679
3429.31,0.02731
3423.52,0.02693
3417.74,0.02734
3411.95,0.02713
3406.16,0.02791
3400.38,0.02765
3394.59,0.02646
3388.81,0.02737
3383.02,0.02798
3377.23,0.02826
3371.45,0.02787
3365.66,0.02752
3359.87,0.02785
3354.09,0.02836
3348.3,0.02822
3342.52,0.02881
3336.73,0.02807
3330.94,0.02830
3325.16,0.02887
3319.37,0.02884
3313.58,0.02869
3307.8,0.02917
3302.01,0.02806
3296.23,0.02953
3290.44,0.02984
3284.65,0.02985
3278.87,0.02904
3273.08,0.02991
3267.29,0.02937
3261.51,0.02982
3255.72,0.03001
3249.94,0.03018
3244.15,0.03129
3238.36,0.03149
3232.58,0.03115
3226.79,0.03119
3221,0.03169
3215.22,0.03147
3209.43,0.03225
3203.65,0.03151
3197.86,0.03195
3192.07,0.03313
3186.29,0.03310
3180.5,0.03366
3174.71,0.03495
3168.93,0.03501
3163.14,0.03581
3157.36,0.03674
3151.57,0.03674
3145.78,0.03788
3140,0.03939
3134.21,0.04004
3128.42,0.04117
3122.64,0.04262
3116.85,0.04443
3111.07,0.04558
3105.28,0.04715
3099.49,0.04886
3093.71,0.05154
3087.92,0.05298
3082.14,0.05520
3076.35,0.05777
3070.56,0.05983
3064.78,0.06163
3058.99,0.06497
3053.2,0.06717
3047.42,0.06946
3041.63,0.07202
3035.85,0.07377
3030.06,0.07666
3024.27,0.07821
3018.49,0.08015
3012.7,0.08156
3006.91,0.08212
3001.13,0.08232
2995.34,0.08124
2989.56,0.07779
2983.77,0.07265
2977.98,0.06983
2972.2,0.06503
2966.41,0.06137
2960.62,0.05723
2954.84,0.05295
2949.05,0.05074
2943.27,0.04714
2937.48,0.04514
2931.69,0.04313
2925.91,0.04164
2920.12,0.04043
2914.33,0.03989
2908.55,0.04003
2902.76,0.03994
2896.98,0.04047
2891.19,0.04033
2885.4,0.04236
2879.62,0.04328
2873.83,0.04509
2868.04,0.04810
2862.26,0.05133
2856.47,0.05433
2850.69,0.05669
2844.9,0.06306
2839.11,0.06872
2833.33,0.07288
2827.54,0.07617
2821.75,0.07981
2815.97,0.08272
2810.18,0.08581
2804.4,0.08879
2798.61,0.09217
2792.82,0.09447
2787.04,0.09763
2781.25,0.10020
2775.46,0.10285
2769.68,0.10525
2763.89,0.10743
2758.11,0.10901
2752.32,0.11000
2746.53,0.11093
2740.75,0.11175
2734.96,0.11271
2729.17,0.11375
2723.39,0.11510
2717.6,0.11705
2711.82,0.11888
2706.03,0.12111
2700.24,0.12405
2694.46,0.12633
2688.67,0.12941
2682.88,0.13218
2677.1,0.13489
2671.31,0.13777
2665.53,0.14048
2659.74,0.14324
2653.95,0.14617
2648.17,0.14918
2642.38,0.15243
2636.59,0.15480
2630.81,0.15799
2625.02,0.16071
2619.24,0.16337
2613.45,0.16614
2607.66,0.16893
2601.88,0.17092
2596.09,0.17313
2590.3,0.17509
2584.52,0.17632
2578.73,0.17787
2572.95,0.17934
2567.16,0.18054
2561.37,0.18164
2555.59,0.18222
2549.8,0.18292
2544.02,0.18347
2538.23,0.18351
2532.44,0.18402
2526.66,0.18562
2520.87,0.18685
2515.08,0.18791
2509.3,0.18946
2503.51,0.19079
2497.73,0.19229
2491.94,0.19393
2486.15,0.19633
2480.37,0.19906
2474.58,0.20184
2468.79,0.20360
2463.01,0.20624
2457.22,0.20895
2451.44,0.21210
2445.65,0.21553
2439.86,0.21873
2434.08,0.22210
2428.29,0.22510
2422.5,0.22814
2416.72,0.23114
2410.93,0.23350
2405.15,0.23524
2399.36,0.23758
2393.57,0.23921
2387.79,0.24064
2382,0.24245
2376.21,0.24485
2370.43,0.24718
2364.64,0.24910
2358.86,0.25044
2353.07,0.25150
2347.28,0.25333
2341.5,0.25611
2335.71,0.25715
2329.92,0.25806
2324.14,0.25851
2318.35,0.25867
2312.57,0.25942
2306.78,0.25940
2300.99,0.25913
2295.21,0.25868
2289.42,0.25723
2283.63,0.25542
2277.85,0.25359
2272.06,0.25083
2266.28,0.24856
2260.49,0.24620
2254.7,0.24415
2248.92,0.24162
2243.13,0.23918
2237.34,0.23727
2231.56,0.23631
2225.77,0.23461
2219.99,0.23325
2214.2,0.23091
2208.41,0.22955
2202.63,0.22844
2196.84,0.22769
2191.05,0.22525
2185.27,0.22286
2179.48,0.21961
2173.7,0.21713
2167.91,0.21473
2162.12,0.21268
2156.34,0.21057
2150.55,0.20994
2144.76,0.20869
2138.98,0.20791
2133.19,0.20790
2127.41,0.20808
2121.62,0.20899
2115.83,0.21078
2110.05,0.21299
2104.26,0.21535
2098.47,0.21825
2092.69,0.22029
2086.9,0.22224
2081.12,0.22356
2075.33,0.22408
2069.54,0.22385
2063.76,0.22376
2057.97,0.22364
2052.19,0.22363
2046.4,0.22414
2040.61,0.22515
2034.83,0.22730
2029.04,0.23064
2023.25,0.23428
2017.47,0.23877
2011.68,0.24258
2005.9,0.24618
2000.11,0.24852
1994.32,0.24940
1988.54,0.25021
1982.75,0.25208
1976.96,0.25552
1971.18,0.25917
1965.39,0.26231
1959.61,0.26630
1953.82,0.27003
1948.03,0.27380
1942.25,0.27765
1936.46,0.28108
1930.67,0.28378
1924.89,0.28655
1919.1,0.28934
1913.32,0.29155
1907.53,0.29413
1901.74,0.29589
1895.96,0.29716
1890.17,0.29844
1884.38,0.29786
1878.6,0.29704
1872.81,0.29596
1867.03,0.29476
1861.24,0.29215
1855.45,0.28996
1849.67,0.28723
1843.88,0.28423
1838.09,0.27979
1832.31,0.27703
1826.52,0.27353
1820.74,0.26981
1814.95,0.26585
1809.16,0.26191
1803.38,0.25715
1797.59,0.25244
1791.8,0.24756
1786.02,0.24216
1780.23,0.23740
1774.45,0.23211
1768.66,0.22431
1762.87,0.21568
1757.09,0.20886
1751.3,0.20423
1745.51,0.19684
1739.73,0.18762
1733.94,0.17668
1728.16,0.15891
1722.37,0.13913
1716.58,0.11671
1710.8,0.09495
1705.01,0.07873
1699.22,0.06787
1693.44,0.06103
1687.65,0.05890
1681.87,0.05719
1676.08,0.05570
1670.29,0.05614
1664.51,0.05678
1658.72,0.05866
1652.93,0.06051
1647.15,0.06211
1641.36,0.06264
1635.58,0.06532
1629.79,0.06777
1624,0.07171
1618.22,0.07601
1612.43,0.08159
1606.64,0.08686
1600.86,0.09199
1595.07,0.09632
1589.29,0.10070
1583.5,0.10459
1577.71,0.10835
1571.93,0.11154
1566.14,0.11460
1560.35,0.11669
1554.57,0.11618
1548.78,0.11499
1543,0.11385
1537.21,0.10792
1531.42,0.10110
1525.64,0.09279
1519.85,0.08238
1514.07,0.07427
1508.28,0.07048
1502.49,0.06738
1496.71,0.06633
1490.92,0.06488
1485.13,0.05952
1479.35,0.05288
1473.56,0.04670
1467.78,0.04165
1461.99,0.03916
1456.2,0.03719
1450.42,0.03511
1444.63,0.03403
1438.84,0.03327
1433.06,0.03293
1427.27,0.03208
1421.49,0.03150
1415.7,0.03192
1409.91,0.03197
1404.13,0.03223
1398.34,0.03239
1392.55,0.03122
1386.77,0.03030
1380.98,0.02820
1375.2,0.02777
1369.41,0.02832
1363.62,0.02922
1357.84,0.03081
1352.05,0.03173
1346.26,0.03177
1340.48,0.03121
1334.69,0.03088
1328.91,0.03143
1323.12,0.03172
1317.33,0.03110
1311.55,0.03140
1305.76,0.03346
1299.97,0.03485
1294.19,0.03652
1288.4,0.03686
1282.62,0.03533
1276.83,0.03387
1271.04,0.03429
1265.26,0.03365
1259.47,0.03416
1253.68,0.03562
1247.9,0.03551
1242.11,0.03459
1236.33,0.03368
1230.54,0.03342
1224.75,0.03375
1218.97,0.03478
1213.18,0.03348
1207.39,0.03009
1201.61,0.02764
1195.82,0.02719
1190.04,0.02782
1184.25,0.02566
1178.46,0.02204
1172.68,0.02103
1166.89,0.02287
1161.1,0.02582
1155.32,0.02578
1149.53,0.02451
1143.75,0.02239
1137.96,0.02058
1132.17,0.02021
1126.39,0.02164
1120.6,0.02446
1114.81,0.02650
1109.03,0.02767
1103.24,0.02712
1097.46,0.02781
1091.67,0.02847
1085.88,0.03238
1080.1,0.03821
1074.31,0.04098
1068.52,0.04399
1062.74,0.04391
1056.95,0.04333
1051.17,0.04182
1045.38,0.04164
1039.59,0.04139
1033.81,0.04237
1028.02,0.04518
1022.24,0.04698
1016.45,0.04801
1010.66,0.04652
1004.88,0.04475
999.09,0.04549
993.304,0.04844
987.518,0.05226
981.731,0.05815
975.945,0.06238
970.159,0.06278
964.373,0.06542
958.586,0.07264
952.8,0.08258
947.014,0.08879
941.228,0.09099
935.441,0.09018
929.655,0.08907
923.869,0.08876
918.083,0.08561
912.297,0.07612
906.51,0.06497
900.724,0.05639
894.938,0.05521
889.152,0.06617
883.365,0.08006
877.579,0.08981
871.793,0.09445
866.007,0.09526
860.22,0.09385
854.434,0.09111
848.648,0.08776
842.862,0.08423
837.075,0.07947
831.289,0.07556
825.503,0.07183
819.717,0.06886
813.931,0.06675
808.144,0.06484
802.358,0.06353
796.572,0.06194
790.786,0.06011
784.999,0.05841
779.213,0.05752
773.427,0.05490
767.641,0.05313
761.854,0.05112
756.068,0.05029
750.282,0.04833
744.496,0.04750
738.709,0.04588
732.923,0.04445
727.137,0.04200
721.351,0.04177
715.565,0.04048
709.778,0.04049
703.992,0.03956
698.206,0.03839
692.42,0.03819
686.633,0.03730
680.847,0.03406
675.061,0.03331
669.275,0.03404
663.488,0.03579
657.702,0.03424
651.916,0.03343
646.13,0.03560
640.343,0.03487
634.557,0.03384
628.771,0.03118
622.985,0.02964
617.198,0.03257
611.412,0.03141
605.626,0.03442
599.84,0.03386