File: 01_Data/Cedar_Shingle/FTIR/IS/Cedar_Shingle_IS_S_221017_R3.dpt
7497.03,0.88091
7491.25,0.88013
7485.46,0.88299
7479.67,0.87985
7473.89,0.88575
7468.1,0.88361
7462.32,0.88235
7456.53,0.86570
7450.74,0.86828
7444.96,0.87380
7439.17,0.87545
7433.38,0.86351
7427.6,0.86780
7421.81,0.85833
7416.03,0.86515
7410.24,0.86575
7404.45,0.85859
7398.67,0.84845
7392.88,0.86175
7387.09,0.84494
7381.31,0.84695
7375.52,0.84275
7369.74,0.85207
7363.95,0.83953
7358.16,0.83664
7352.38,0.85086
7346.59,0.84316
7340.8,0.82426
7335.02,0.83853
7329.23,0.83556
7323.45,0.83648
7317.66,0.83586
7311.87,0.83304
7306.09,0.83278
7300.3,0.83395
7294.51,0.82768
7288.73,0.82304
7282.94,0.82178
7277.16,0.82881
7271.37,0.83004
7265.58,0.82846
7259.8,0.82997
7254.01,0.82819
7248.22,0.82376
7242.44,0.82964
7236.65,0.82957
7230.87,0.82736
7225.08,0.82795
7219.29,0.82279
7213.51,0.82754
7207.72,0.82171
7201.93,0.81550
7196.15,0.81559
7190.36,0.81435
7184.58,0.82104
7178.79,0.81000
7173,0.81582
7167.22,0.81555
7161.43,0.80766
7155.65,0.80209
7149.86,0.79402
7144.07,0.79641
7138.29,0.79774
7132.5,0.79446
7126.71,0.80073
7120.93,0.78910
7115.14,0.77999
7109.36,0.77950
7103.57,0.77856
7097.78,0.76078
7092,0.76884
7086.21,0.77409
7080.42,0.75926
7074.64,0.75427
7068.85,0.75049
7063.07,0.73576
7057.28,0.73914
7051.49,0.73737
7045.71,0.73616
7039.92,0.73289
7034.13,0.72186
7028.35,0.72167
7022.56,0.71483
7016.78,0.71316
7010.99,0.70818
7005.2,0.70631
6999.42,0.70388
6993.63,0.69831
6987.84,0.70221
6982.06,0.70330
6976.27,0.69854
6970.49,0.68636
6964.7,0.68836
6958.91,0.68720
6953.13,0.69014
6947.34,0.69292
6941.55,0.69002
6935.77,0.69223
6929.98,0.68858
6924.2,0.68827
6918.41,0.68646
6912.62,0.68846
6906.84,0.68463
6901.05,0.69195
6895.26,0.68945
6889.48,0.68290
6883.69,0.68345
6877.91,0.68494
6872.12,0.68859
6866.33,0.68569
6860.55,0.68705
6854.76,0.68457
6848.97,0.68621
6843.19,0.68703
6837.4,0.68491
6831.62,0.68224
6825.83,0.68872
6820.04,0.68512
6814.26,0.68196
6808.47,0.68445
6802.68,0.68375
6796.9,0.68677
6791.11,0.68771
6785.33,0.68543
6779.54,0.68560
6773.75,0.68913
6767.97,0.68879
6762.18,0.69142
6756.39,0.68581
6750.61,0.68528
6744.82,0.68648
6739.04,0.69185
6733.25,0.69090
6727.46,0.68680
6721.68,0.69070
6715.89,0.69075
6710.1,0.69462
6704.32,0.68960
6698.53,0.69389
6692.75,0.68844
6686.96,0.69819
6681.17,0.69466
6675.39,0.69562
6669.6,0.69524
6663.82,0.69669
6658.03,0.69573
6652.24,0.69585
6646.46,0.69824
6640.67,0.70032
6634.88,0.69980
6629.1,0.69796
6623.31,0.70522
6617.53,0.70704
6611.74,0.70547
6605.95,0.71009
6600.17,0.70821
6594.38,0.70869
6588.59,0.71399
6582.81,0.70796
6577.02,0.70725
6571.24,0.70648
6565.45,0.70664
6559.66,0.71041
6553.88,0.71207
6548.09,0.70770
6542.3,0.71156
6536.52,0.70884
6530.73,0.71339
6524.95,0.70979
6519.16,0.70833
6513.37,0.71468
6507.59,0.71593
6501.8,0.71229
6496.01,0.71332
6490.23,0.71137
6484.44,0.71305
6478.66,0.71700
6472.87,0.71670
6467.08,0.71696
6461.3,0.71636
6455.51,0.71742
6449.72,0.71624
6443.94,0.71778
6438.15,0.71634
6432.37,0.72007
6426.58,0.72525
6420.79,0.71968
6415.01,0.71886
6409.22,0.72187
6403.43,0.72383
6397.65,0.72062
6391.86,0.72299
6386.08,0.72347
6380.29,0.72395
6374.5,0.71820
6368.72,0.72123
6362.93,0.72563
6357.14,0.72585
6351.36,0.72828
6345.57,0.72485
6339.79,0.72895
6334,0.72276
6328.21,0.72442
6322.43,0.72619
6316.64,0.72634
6310.85,0.72690
6305.07,0.72735
6299.28,0.72625
6293.5,0.72851
6287.71,0.73081
6281.92,0.73082
6276.14,0.73254
6270.35,0.73310
6264.56,0.73289
6258.78,0.73678
6252.99,0.73658
6247.21,0.73959
6241.42,0.74125
6235.63,0.74043
6229.85,0.74369
6224.06,0.74572
6218.27,0.74403
6212.49,0.74598
6206.7,0.74709
6200.92,0.75287
6195.13,0.75193
6189.34,0.75253
6183.56,0.75154
6177.77,0.75216
6171.98,0.75664
6166.2,0.75749
6160.41,0.76234
6154.63,0.76005
6148.84,0.76191
6143.05,0.76257
6137.27,0.76218
6131.48,0.75866
6125.7,0.76297
6119.91,0.76386
6114.12,0.76574
6108.34,0.76427
6102.55,0.76604
6096.76,0.76724
6090.98,0.76828
6085.19,0.77259
6079.41,0.76995
6073.62,0.76888
6067.83,0.76718
6062.05,0.76394
6056.26,0.76508
6050.47,0.76322
6044.69,0.76588
6038.9,0.76086
6033.12,0.75973
6027.33,0.75919
6021.54,0.75867
6015.76,0.75611
6009.97,0.75200
6004.18,0.74839
5998.4,0.74911
5992.61,0.74750
5986.83,0.74694
5981.04,0.74381
5975.25,0.74532
5969.47,0.74462
5963.68,0.74544
5957.89,0.74377
5952.11,0.74143
5946.32,0.74383
5940.54,0.74486
5934.75,0.74525
5928.96,0.74244
5923.18,0.74410
5917.39,0.74303
5911.6,0.74098
5905.82,0.73821
5900.03,0.73871
5894.25,0.73705
5888.46,0.73716
5882.67,0.73391
5876.89,0.73768
5871.1,0.73875
5865.31,0.73821
5859.53,0.73750
5853.74,0.73692
5847.96,0.73869
5842.17,0.73726
5836.38,0.73644
5830.6,0.73561
5824.81,0.73678
5819.02,0.73561
5813.24,0.73475
5807.45,0.73391
5801.67,0.73368
5795.88,0.73516
5790.09,0.73328
5784.31,0.73315
5778.52,0.73393
5772.73,0.73349
5766.95,0.73742
5761.16,0.73878
5755.38,0.73655
5749.59,0.73604
5743.8,0.73679
5738.02,0.73637
5732.23,0.73607
5726.44,0.73999
5720.66,0.73937
5714.87,0.73851
5709.09,0.73718
5703.3,0.73886
5697.51,0.73988
5691.73,0.73679
5685.94,0.73590
5680.15,0.73754
5674.37,0.73631
5668.58,0.73695
5662.8,0.73684
5657.01,0.73779
5651.22,0.73789
5645.44,0.73719
5639.65,0.73723
5633.87,0.73797
5628.08,0.73601
5622.29,0.73662
5616.51,0.73672
5610.72,0.73852
5604.93,0.73800
5599.15,0.73970
5593.36,0.73714
5587.58,0.73777
5581.79,0.73744
5576,0.73916
5570.22,0.73999
5564.43,0.74196
5558.64,0.74280
5552.86,0.74213
5547.07,0.74163
5541.29,0.74285
5535.5,0.74334
5529.71,0.74211
5523.93,0.74372
5518.14,0.74585
5512.35,0.74386
5506.57,0.74527
5500.78,0.74579
5495,0.74677
5489.21,0.74908
5483.42,0.74564
5477.64,0.74586
5471.85,0.74881
5466.06,0.74757
5460.28,0.74738
5454.49,0.74888
5448.71,0.75041
5442.92,0.74994
5437.13,0.75283
5431.35,0.75177
5425.56,0.75452
5419.77,0.75604
5413.99,0.75625
5408.2,0.75395
5402.42,0.75551
5396.63,0.75643
5390.84,0.75617
5385.06,0.75707
5379.27,0.75689
5373.48,0.75696
5367.7,0.75727
5361.91,0.75677
5356.13,0.75653
5350.34,0.75610
5344.55,0.75552
5338.77,0.75392
5332.98,0.75220
5327.19,0.74900
5321.41,0.74403
5315.62,0.74061
5309.84,0.73774
5304.05,0.73068
5298.26,0.72540
5292.48,0.71756
5286.69,0.70895
5280.9,0.70085
5275.12,0.69206
5269.33,0.67967
5263.55,0.67005
5257.76,0.65958
5251.97,0.65217
5246.19,0.64239
5240.4,0.63660
5234.61,0.62936
5228.83,0.62392
5223.04,0.61924
5217.26,0.61636
5211.47,0.61291
5205.68,0.61140
5199.9,0.60970
5194.11,0.61016
5188.32,0.61113
5182.54,0.60992
5176.75,0.61193
5170.97,0.61310
5165.18,0.61570
5159.39,0.61765
5153.61,0.62022
5147.82,0.62221
5142.03,0.62603
5136.25,0.62982
5130.46,0.63138
5124.68,0.63457
5118.89,0.63622
5113.1,0.64018
5107.32,0.64357
5101.53,0.64528
5095.75,0.64912
5089.96,0.65102
5084.17,0.65267
5078.39,0.65693
5072.6,0.65817
5066.81,0.65942
5061.03,0.66198
5055.24,0.66509
5049.46,0.66719
5043.67,0.67006
5037.88,0.67074
5032.1,0.67255
5026.31,0.67386
5020.52,0.67653
5014.74,0.67705
5008.95,0.67744
5003.17,0.67768
4997.38,0.67800
4991.59,0.67723
4985.81,0.67615
4980.02,0.67365
4974.23,0.67486
4968.45,0.67167
4962.66,0.66882
4956.88,0.66594
4951.09,0.66220
4945.3,0.65860
4939.52,0.65459
4933.73,0.65062
4927.94,0.64640
4922.16,0.64107
4916.37,0.63496
4910.59,0.63096
4904.8,0.62598
4899.01,0.62126
4893.23,0.61704
4887.44,0.61236
4881.65,0.60727
4875.87,0.60277
4870.08,0.59853
4864.3,0.59346
4858.51,0.59056
4852.72,0.58688
4846.94,0.58227
4841.15,0.58019
4835.36,0.57640
4829.58,0.57395
4823.79,0.57081
4818.01,0.56843
4812.22,0.56642
4806.43,0.56374
4800.65,0.56276
4794.86,0.56090
4789.07,0.56056
4783.29,0.55957
4777.5,0.55822
4771.72,0.55912
4765.93,0.55648
4760.14,0.55631
4754.36,0.55564
4748.57,0.55708
4742.78,0.55789
4737,0.55728
4731.21,0.55715
4725.43,0.55839
4719.64,0.55825
4713.85,0.55869
4708.07,0.55945
4702.28,0.56030
4696.49,0.56151
4690.71,0.56209
4684.92,0.56251
4679.14,0.56344
4673.35,0.56551
4667.56,0.56747
4661.78,0.56920
4655.99,0.57141
4650.2,0.57293
4644.42,0.57525
4638.63,0.57688
4632.85,0.57939
4627.06,0.58222
4621.27,0.58527
4615.49,0.58875
4609.7,0.59146
4603.92,0.59403
4598.13,0.59692
4592.34,0.59941
4586.56,0.60156
4580.77,0.60350
4574.98,0.60673
4569.2,0.60849
4563.41,0.60908
4557.63,0.61035
4551.84,0.61166
4546.05,0.61240
4540.27,0.61436
4534.48,0.61383
4528.69,0.61533
4522.91,0.61578
4517.12,0.61591
4511.34,0.61549
4505.55,0.61445
4499.76,0.61342
4493.98,0.60993
4488.19,0.60612
4482.4,0.60326
4476.62,0.59724
4470.83,0.59112
4465.05,0.58552
4459.26,0.57805
4453.47,0.57212
4447.69,0.56576
4441.9,0.55908
4436.11,0.55254
4430.33,0.54562
4424.54,0.53681
4418.76,0.53049
4412.97,0.52462
4407.18,0.52001
4401.4,0.51759
4395.61,0.51799
4389.82,0.51886
4384.04,0.52062
4378.25,0.52239
4372.47,0.52475
4366.68,0.52741
4360.89,0.52983
4355.11,0.52960
4349.32,0.52950
4343.53,0.52867
4337.75,0.52797
4331.96,0.52689
4326.18,0.52490
4320.39,0.52292
4314.6,0.52063
4308.82,0.51857
4303.03,0.51640
4297.24,0.51380
4291.46,0.51198
4285.67,0.51144
4279.89,0.51021
4274.1,0.51020
4268.31,0.51191
4262.53,0.51347
4256.74,0.51523
4250.95,0.51660
4245.17,0.51749
4239.38,0.51769
4233.6,0.51817
4227.81,0.51897
4222.02,0.51825
4216.24,0.51828
4210.45,0.51867
4204.66,0.51909
4198.88,0.51954
4193.09,0.51981
4187.31,0.52053
4181.52,0.52117
4175.73,0.52217
4169.95,0.52456
4164.16,0.52597
4158.37,0.52656
4152.59,0.52503
4146.8,0.52413
4141.02,0.52215
4135.23,0.52008
4129.44,0.51741
4123.66,0.51313
4117.87,0.50900
4112.09,0.50541
4106.3,0.50070
4100.51,0.49623
4094.73,0.49134
4088.94,0.48553
4083.15,0.48031
4077.37,0.47484
4071.58,0.46950
4065.8,0.46349
4060.01,0.45800
4054.22,0.45316
4048.44,0.44793
4042.65,0.44327
4036.86,0.43977
4031.08,0.43686
4025.29,0.43454
4019.51,0.43240
4013.72,0.43225
4007.93,0.43123
4002.15,0.43236
3996.36,0.43353
3990.57,0.43462
3984.79,0.43683
3979,0.43812
3973.22,0.43976
3967.43,0.44194
3961.64,0.44485
3955.86,0.44693
3950.07,0.44973
3944.28,0.45250
3938.5,0.45524
3932.71,0.45937
3926.93,0.46221
3921.14,0.46478
3915.35,0.46720
3909.57,0.46967
3903.78,0.47201
3897.99,0.47451
3892.21,0.47628
3886.42,0.47908
3880.64,0.48101
3874.85,0.48261
3869.06,0.48490
3863.28,0.48757
3857.49,0.49060
3851.7,0.49372
3845.92,0.49557
3840.13,0.49854
3834.35,0.49970
3828.56,0.50030
3822.77,0.50107
3816.99,0.50160
3811.2,0.50083
3805.41,0.50167
3799.63,0.50121
3793.84,0.50092
3788.06,0.50091
3782.27,0.49959
3776.48,0.49863
3770.7,0.49801
3764.91,0.49665
3759.12,0.49483
3753.34,0.49350
3747.55,0.49121
3741.77,0.48791
3735.98,0.48486
3730.19,0.47937
3724.41,0.47489
3718.62,0.46902
3712.83,0.46301
3707.05,0.45452
3701.26,0.44453
3695.48,0.43289
3689.69,0.41954
3683.9,0.40198
3678.12,0.38327
3672.33,0.36179
3666.54,0.33952
3660.76,0.31885
3654.97,0.29905
3649.19,0.28014
3643.4,0.26325
3637.61,0.24782
3631.83,0.23322
3626.04,0.21834
3620.25,0.20535
3614.47,0.19325
3608.68,0.18131
3602.9,0.16977
3597.11,0.15880
3591.32,0.14749
3585.54,0.13952
3579.75,0.13118
3573.97,0.12377
3568.18,0.11788
3562.39,0.11151
3556.61,0.10618
3550.82,0.10117
3545.03,0.09763
3539.25,0.09422
3533.46,0.09038
3527.68,0.08730
3521.89,0.08415
3516.1,0.08198
3510.32,0.07919
3504.53,0.07707
3498.74,0.07566
3492.96,0.07354
3487.17,0.07251
3481.39,0.07023
3475.6,0.06941
3469.81,0.06800
3464.03,0.06714
3458.24,0.06743
3452.45,0.06614
3446.67,0.06569
3440.88,0.06527
3435.1,0.06621
3429.31,0.06465
3423.52,0.06550
3417.74,0.06542
3411.95,0.06525
3406.16,0.06501
3400.38,0.06565
3394.59,0.06567
3388.81,0.06605
3383.02,0.06621
3377.23,0.06620
3371.45,0.06636
3365.66,0.06669
3359.87,0.06673
3354.09,0.06813
3348.3,0.06865
3342.52,0.07001
3336.73,0.07112
3330.94,0.07204
3325.16,0.07399
3319.37,0.07614
3313.58,0.07687
3307.8,0.07812
3302.01,0.07914
3296.23,0.08065
3290.44,0.08208
3284.65,0.08326
3278.87,0.08550
3273.08,0.08686
3267.29,0.08976
3261.51,0.09238
3255.72,0.09492
3249.94,0.09643
3244.15,0.09919
3238.36,0.10220
3232.58,0.10563
3226.79,0.10841
3221,0.11145
3215.22,0.11444
3209.43,0.11786
3203.65,0.12121
3197.86,0.12496
3192.07,0.12881
3186.29,0.13186
3180.5,0.13558
3174.71,0.13901
3168.93,0.14169
3163.14,0.14544
3157.36,0.14875
3151.57,0.15351
3145.78,0.15661
3140,0.16002
3134.21,0.16399
3128.42,0.16734
3122.64,0.17089
3116.85,0.17533
3111.07,0.17801
3105.28,0.18130
3099.49,0.18442
3093.71,0.18704
3087.92,0.18910
3082.14,0.19167
3076.35,0.19378
3070.56,0.19572
3064.78,0.19805
3058.99,0.20136
3053.2,0.20452
3047.42,0.20629
3041.63,0.20799
3035.85,0.20870
3030.06,0.20917
3024.27,0.20874
3018.49,0.20669
3012.7,0.20226
3006.91,0.19751
3001.13,0.19295
2995.34,0.18943
2989.56,0.18357
2983.77,0.17442
2977.98,0.16349
2972.2,0.15129
2966.41,0.14302
2960.62,0.13857
2954.84,0.13369
2949.05,0.12792
2943.27,0.12216
2937.48,0.11928
2931.69,0.11835
2925.91,0.11814
2920.12,0.11650
2914.33,0.11679
2908.55,0.11752
2902.76,0.11752
2896.98,0.11940
2891.19,0.12142
2885.4,0.12375
2879.62,0.12596
2873.83,0.12842
2868.04,0.13242
2862.26,0.13686
2856.47,0.14160
2850.69,0.14627
2844.9,0.15340
2839.11,0.16181
2833.33,0.17174
2827.54,0.18337
2821.75,0.19443
2815.97,0.20414
2810.18,0.21141
2804.4,0.21846
2798.61,0.22389
2792.82,0.22820
2787.04,0.23203
2781.25,0.23472
2775.46,0.23655
2769.68,0.23837
2763.89,0.23973
2758.11,0.24126
2752.32,0.24253
2746.53,0.24282
2740.75,0.24301
2734.96,0.24410
2729.17,0.24586
2723.39,0.24788
2717.6,0.25074
2711.82,0.25391
2706.03,0.25755
2700.24,0.26106
2694.46,0.26425
2688.67,0.26765
2682.88,0.27091
2677.1,0.27361
2671.31,0.27621
2665.53,0.27837
2659.74,0.27960
2653.95,0.28198
2648.17,0.28344
2642.38,0.28577
2636.59,0.28810
2630.81,0.29047
2625.02,0.29335
2619.24,0.29576
2613.45,0.29740
2607.66,0.29969
2601.88,0.30133
2596.09,0.30338
2590.3,0.30556
2584.52,0.30722
2578.73,0.30904
2572.95,0.31018
2567.16,0.31107
2561.37,0.31136
2555.59,0.31222
2549.8,0.31256
2544.02,0.31286
2538.23,0.31426
2532.44,0.31623
2526.66,0.31885
2520.87,0.32101
2515.08,0.32293
2509.3,0.32601
2503.51,0.32908
2497.73,0.33292
2491.94,0.33629
2486.15,0.33927
2480.37,0.34203
2474.58,0.34482
2468.79,0.34769
2463.01,0.35025
2457.22,0.35328
2451.44,0.35570
2445.65,0.35959
2439.86,0.36237
2434.08,0.36522
2428.29,0.36851
2422.5,0.37237
2416.72,0.37601
2410.93,0.37975
2405.15,0.38306
2399.36,0.38634
2393.57,0.38976
2387.79,0.39358
2382,0.39625
2376.21,0.39945
2370.43,0.40207
2364.64,0.40443
2358.86,0.40645
2353.07,0.40886
2347.28,0.41078
2341.5,0.41285
2335.71,0.41422
2329.92,0.41547
2324.14,0.41612
2318.35,0.41654
2312.57,0.41742
2306.78,0.41742
2300.99,0.41739
2295.21,0.41671
2289.42,0.41700
2283.63,0.41663
2277.85,0.41682
2272.06,0.41510
2266.28,0.41389
2260.49,0.41215
2254.7,0.41090
2248.92,0.41055
2243.13,0.40979
2237.34,0.40936
2231.56,0.40923
2225.77,0.40966
2219.99,0.40974
2214.2,0.41029
2208.41,0.40954
2202.63,0.40871
2196.84,0.40641
2191.05,0.40412
2185.27,0.40071
2179.48,0.39700
2173.7,0.39354
2167.91,0.39035
2162.12,0.38755
2156.34,0.38510
2150.55,0.38401
2144.76,0.38225
2138.98,0.38142
2133.19,0.38099
2127.41,0.38174
2121.62,0.38304
2115.83,0.38454
2110.05,0.38581
2104.26,0.38697
2098.47,0.38828
2092.69,0.38910
2086.9,0.38944
2081.12,0.38855
2075.33,0.38721
2069.54,0.38544
2063.76,0.38416
2057.97,0.38377
2052.19,0.38441
2046.4,0.38526
2040.61,0.38787
2034.83,0.39089
2029.04,0.39463
2023.25,0.39855
2017.47,0.40234
2011.68,0.40575
2005.9,0.40827
2000.11,0.41102
1994.32,0.41308
1988.54,0.41515
1982.75,0.41755
1976.96,0.41937
1971.18,0.42113
1965.39,0.42314
1959.61,0.42537
1953.82,0.42870
1948.03,0.43228
1942.25,0.43552
1936.46,0.43782
1930.67,0.43984
1924.89,0.44103
1919.1,0.44187
1913.32,0.44206
1907.53,0.44223
1901.74,0.44149
1895.96,0.44023
1890.17,0.43905
1884.38,0.43814
1878.6,0.43713
1872.81,0.43588
1867.03,0.43481
1861.24,0.43327
1855.45,0.43170
1849.67,0.42993
1843.88,0.42768
1838.09,0.42424
1832.31,0.42059
1826.52,0.41512
1820.74,0.40748
1814.95,0.39727
1809.16,0.38127
1803.38,0.35899
1797.59,0.33260
1791.8,0.30791
1786.02,0.28608
1780.23,0.26952
1774.45,0.25669
1768.66,0.24120
1762.87,0.22304
1757.09,0.20225
1751.3,0.18590
1745.51,0.17518
1739.73,0.17183
1733.94,0.17444
1728.16,0.18119
1722.37,0.19019
1716.58,0.20200
1710.8,0.21272
1705.01,0.21988
1699.22,0.22099
1693.44,0.21592
1687.65,0.20753
1681.87,0.19417
1676.08,0.17839
1670.29,0.16399
1664.51,0.15500
1658.72,0.15325
1652.93,0.15775
1647.15,0.15992
1641.36,0.15943
1635.58,0.15893
1629.79,0.15824
1624,0.15519
1618.22,0.14998
1612.43,0.14216
1606.64,0.13579
1600.86,0.13478
1595.07,0.13534
1589.29,0.14029
1583.5,0.15303
1577.71,0.17381
1571.93,0.19766
1566.14,0.21461
1560.35,0.22222
1554.57,0.22120
1548.78,0.21491
1543,0.20828
1537.21,0.19434
1531.42,0.17173
1525.64,0.13932
1519.85,0.10248
1514.07,0.08341
1508.28,0.08572
1502.49,0.09884
1496.71,0.11522
1490.92,0.12395
1485.13,0.12190
1479.35,0.11398
1473.56,0.10028
1467.78,0.08773
1461.99,0.08488
1456.2,0.08510
1450.42,0.08546
1444.63,0.08913
1438.84,0.08731
1433.06,0.08149
1427.27,0.08016
1421.49,0.08345
1415.7,0.08912
1409.91,0.09403
1404.13,0.09642
1398.34,0.09558
1392.55,0.09145
1386.77,0.08523
1380.98,0.07921
1375.2,0.07692
1369.41,0.07812
1363.62,0.08095
1357.84,0.08341
1352.05,0.08610
1346.26,0.08604
1340.48,0.08336
1334.69,0.08243
1328.91,0.08290
1323.12,0.08145
1317.33,0.08125
1311.55,0.08403
1305.76,0.08651
1299.97,0.08664
1294.19,0.08390
1288.4,0.07902
1282.62,0.07395
1276.83,0.07159
1271.04,0.07144
1265.26,0.07380
1259.47,0.07684
1253.68,0.08012
1247.9,0.08138
1242.11,0.08159
1236.33,0.08083
1230.54,0.08062
1224.75,0.08239
1218.97,0.08336
1213.18,0.08464
1207.39,0.08553
1201.61,0.08889
1195.82,0.09219
1190.04,0.09225
1184.25,0.08776
1178.46,0.07962
1172.68,0.07183
1166.89,0.06963
1161.1,0.07304
1155.32,0.07467
1149.53,0.07466
1143.75,0.07249
1137.96,0.06990
1132.17,0.06682
1126.39,0.06529
1120.6,0.06601
1114.81,0.06618
1109.03,0.06886
1103.24,0.07192
1097.46,0.07268
1091.67,0.07228
1085.88,0.07261
1080.1,0.07402
1074.31,0.07801
1068.52,0.08403
1062.74,0.09354
1056.95,0.10251
1051.17,0.10280
1045.38,0.10069
1039.59,0.10267
1033.81,0.11056
1028.02,0.11477
1022.24,0.11777
1016.45,0.12132
1010.66,0.12604
1004.88,0.12803
999.09,0.13277
993.304,0.13834
987.518,0.14704
981.731,0.16116
975.945,0.17415
970.159,0.18199
964.373,0.19027
958.586,0.20181
952.8,0.21322
947.014,0.22121
941.228,0.22812
935.441,0.23425
929.655,0.24100
923.869,0.24617
918.083,0.24610
912.297,0.24061
906.51,0.23144
900.724,0.22164
894.938,0.22282
889.152,0.23390
883.365,0.24313
877.579,0.24550
871.793,0.24733
866.007,0.24933
860.22,0.25414
854.434,0.26007
848.648,0.26971
842.862,0.27470
837.075,0.27089
831.289,0.26527
825.503,0.25917
819.717,0.25044
813.931,0.24139
808.144,0.23991
802.358,0.24506
796.572,0.25132
790.786,0.25497
784.999,0.25207
779.213,0.24651
773.427,0.23944
767.641,0.23465
761.854,0.23080
756.068,0.22731
750.282,0.22153
744.496,0.21601
738.709,0.21057
732.923,0.20363
727.137,0.19688
721.351,0.19036
715.565,0.18545
709.778,0.18083
703.992,0.17698
698.206,0.17311
692.42,0.16815
686.633,0.16142
680.847,0.15273
675.061,0.14396
669.275,0.13973
663.488,0.14265
657.702,0.14387
651.916,0.14322
646.13,0.14143
640.343,0.13695
634.557,0.12901
628.771,0.12760
622.985,0.12401
617.198,0.12309
611.412,0.12799
605.626,0.13105
599.84,0.12954