File: 01_Data/Cedar_Shingle/FTIR/IS/Cedar_Shingle_IS_S_221017_R2.dpt
7497.03,0.88424
7491.25,0.87286
7485.46,0.87789
7479.67,0.87625
7473.89,0.88704
7468.1,0.87831
7462.32,0.87773
7456.53,0.87728
7450.74,0.86989
7444.96,0.86947
7439.17,0.86227
7433.38,0.86072
7427.6,0.86097
7421.81,0.85582
7416.03,0.85466
7410.24,0.85480
7404.45,0.85405
7398.67,0.85946
7392.88,0.85988
7387.09,0.83947
7381.31,0.84530
7375.52,0.85650
7369.74,0.84050
7363.95,0.83572
7358.16,0.83655
7352.38,0.84192
7346.59,0.83871
7340.8,0.84529
7335.02,0.83870
7329.23,0.83324
7323.45,0.83242
7317.66,0.83014
7311.87,0.82662
7306.09,0.82802
7300.3,0.83011
7294.51,0.83538
7288.73,0.83108
7282.94,0.82493
7277.16,0.82470
7271.37,0.82411
7265.58,0.82775
7259.8,0.82953
7254.01,0.83610
7248.22,0.83399
7242.44,0.82974
7236.65,0.82022
7230.87,0.81779
7225.08,0.82805
7219.29,0.82883
7213.51,0.82984
7207.72,0.81367
7201.93,0.82159
7196.15,0.81523
7190.36,0.81960
7184.58,0.80725
7178.79,0.80758
7173,0.81197
7167.22,0.80660
7161.43,0.79861
7155.65,0.80158
7149.86,0.79729
7144.07,0.79257
7138.29,0.79810
7132.5,0.79694
7126.71,0.78488
7120.93,0.78533
7115.14,0.77308
7109.36,0.77824
7103.57,0.76990
7097.78,0.76476
7092,0.76208
7086.21,0.76000
7080.42,0.76056
7074.64,0.75446
7068.85,0.74739
7063.07,0.74129
7057.28,0.73443
7051.49,0.73289
7045.71,0.72911
7039.92,0.72183
7034.13,0.72111
7028.35,0.71608
7022.56,0.71469
7016.78,0.70527
7010.99,0.70560
7005.2,0.71014
6999.42,0.69900
6993.63,0.70031
6987.84,0.69494
6982.06,0.69184
6976.27,0.69078
6970.49,0.69585
6964.7,0.69267
6958.91,0.69237
6953.13,0.68593
6947.34,0.68475
6941.55,0.68373
6935.77,0.68813
6929.98,0.68613
6924.2,0.68502
6918.41,0.68017
6912.62,0.68533
6906.84,0.67880
6901.05,0.68069
6895.26,0.68419
6889.48,0.68225
6883.69,0.68889
6877.91,0.68260
6872.12,0.68363
6866.33,0.68117
6860.55,0.69175
6854.76,0.68338
6848.97,0.68230
6843.19,0.68054
6837.4,0.69207
6831.62,0.68826
6825.83,0.68134
6820.04,0.68117
6814.26,0.68133
6808.47,0.68469
6802.68,0.68512
6796.9,0.68539
6791.11,0.68236
6785.33,0.68285
6779.54,0.68257
6773.75,0.68439
6767.97,0.68563
6762.18,0.68167
6756.39,0.68697
6750.61,0.68144
6744.82,0.67992
6739.04,0.68609
6733.25,0.68702
6727.46,0.68486
6721.68,0.68807
6715.89,0.68955
6710.1,0.68922
6704.32,0.68721
6698.53,0.68693
6692.75,0.68916
6686.96,0.69148
6681.17,0.69347
6675.39,0.69765
6669.6,0.69226
6663.82,0.69531
6658.03,0.69599
6652.24,0.69254
6646.46,0.69843
6640.67,0.69795
6634.88,0.69177
6629.1,0.70064
6623.31,0.69985
6617.53,0.70219
6611.74,0.70247
6605.95,0.70798
6600.17,0.70005
6594.38,0.69947
6588.59,0.70601
6582.81,0.70718
6577.02,0.70622
6571.24,0.70504
6565.45,0.70848
6559.66,0.70895
6553.88,0.70600
6548.09,0.70987
6542.3,0.71218
6536.52,0.70829
6530.73,0.71277
6524.95,0.71484
6519.16,0.71016
6513.37,0.71249
6507.59,0.71276
6501.8,0.71165
6496.01,0.70979
6490.23,0.71044
6484.44,0.71292
6478.66,0.71443
6472.87,0.71237
6467.08,0.71268
6461.3,0.71382
6455.51,0.71437
6449.72,0.71432
6443.94,0.71933
6438.15,0.71869
6432.37,0.72084
6426.58,0.71582
6420.79,0.71666
6415.01,0.72060
6409.22,0.71773
6403.43,0.71500
6397.65,0.71845
6391.86,0.72057
6386.08,0.72276
6380.29,0.71855
6374.5,0.71945
6368.72,0.71915
6362.93,0.71867
6357.14,0.71988
6351.36,0.72268
6345.57,0.72481
6339.79,0.72048
6334,0.72032
6328.21,0.72138
6322.43,0.72544
6316.64,0.72470
6310.85,0.72855
6305.07,0.72455
6299.28,0.72770
6293.5,0.72729
6287.71,0.72682
6281.92,0.72898
6276.14,0.72901
6270.35,0.73517
6264.56,0.73219
6258.78,0.73284
6252.99,0.73270
6247.21,0.73813
6241.42,0.73609
6235.63,0.73989
6229.85,0.74203
6224.06,0.74368
6218.27,0.74540
6212.49,0.74733
6206.7,0.74703
6200.92,0.74576
6195.13,0.75177
6189.34,0.75043
6183.56,0.75193
6177.77,0.75476
6171.98,0.75757
6166.2,0.75781
6160.41,0.75497
6154.63,0.75662
6148.84,0.76010
6143.05,0.75988
6137.27,0.75878
6131.48,0.76196
6125.7,0.76112
6119.91,0.76051
6114.12,0.76340
6108.34,0.76013
6102.55,0.76397
6096.76,0.76584
6090.98,0.76459
6085.19,0.76472
6079.41,0.76436
6073.62,0.76495
6067.83,0.76586
6062.05,0.76358
6056.26,0.76228
6050.47,0.76378
6044.69,0.76076
6038.9,0.75949
6033.12,0.75762
6027.33,0.75626
6021.54,0.75430
6015.76,0.74726
6009.97,0.74724
6004.18,0.74844
5998.4,0.74742
5992.61,0.74623
5986.83,0.74387
5981.04,0.74290
5975.25,0.74131
5969.47,0.74157
5963.68,0.74230
5957.89,0.74270
5952.11,0.74421
5946.32,0.74133
5940.54,0.74258
5934.75,0.74628
5928.96,0.74157
5923.18,0.74247
5917.39,0.74133
5911.6,0.74005
5905.82,0.73958
5900.03,0.73568
5894.25,0.73653
5888.46,0.73405
5882.67,0.73289
5876.89,0.73575
5871.1,0.73389
5865.31,0.73491
5859.53,0.73546
5853.74,0.73570
5847.96,0.73598
5842.17,0.73459
5836.38,0.73561
5830.6,0.73364
5824.81,0.73425
5819.02,0.73428
5813.24,0.73034
5807.45,0.73054
5801.67,0.73159
5795.88,0.73277
5790.09,0.73487
5784.31,0.73213
5778.52,0.73552
5772.73,0.73624
5766.95,0.73614
5761.16,0.73723
5755.38,0.73527
5749.59,0.73584
5743.8,0.73463
5738.02,0.73707
5732.23,0.73572
5726.44,0.73566
5720.66,0.73689
5714.87,0.73359
5709.09,0.73555
5703.3,0.73697
5697.51,0.73628
5691.73,0.73806
5685.94,0.73615
5680.15,0.73466
5674.37,0.73619
5668.58,0.73652
5662.8,0.73662
5657.01,0.73498
5651.22,0.73649
5645.44,0.73238
5639.65,0.73358
5633.87,0.73562
5628.08,0.73519
5622.29,0.73478
5616.51,0.73332
5610.72,0.73677
5604.93,0.73564
5599.15,0.73447
5593.36,0.73588
5587.58,0.73701
5581.79,0.73657
5576,0.73623
5570.22,0.73754
5564.43,0.73901
5558.64,0.74006
5552.86,0.73884
5547.07,0.73942
5541.29,0.74115
5535.5,0.74023
5529.71,0.74062
5523.93,0.74058
5518.14,0.74192
5512.35,0.74149
5506.57,0.74022
5500.78,0.74171
5495,0.74359
5489.21,0.74349
5483.42,0.74284
5477.64,0.74300
5471.85,0.74423
5466.06,0.74448
5460.28,0.74515
5454.49,0.74512
5448.71,0.74859
5442.92,0.74793
5437.13,0.74967
5431.35,0.74971
5425.56,0.75144
5419.77,0.75305
5413.99,0.75311
5408.2,0.75315
5402.42,0.75403
5396.63,0.75464
5390.84,0.75420
5385.06,0.75480
5379.27,0.75500
5373.48,0.75413
5367.7,0.75440
5361.91,0.75395
5356.13,0.75300
5350.34,0.75288
5344.55,0.75174
5338.77,0.74810
5332.98,0.74747
5327.19,0.74594
5321.41,0.74107
5315.62,0.73786
5309.84,0.73138
5304.05,0.72606
5298.26,0.72140
5292.48,0.71264
5286.69,0.70278
5280.9,0.69428
5275.12,0.68574
5269.33,0.67497
5263.55,0.66393
5257.76,0.65401
5251.97,0.64545
5246.19,0.63475
5240.4,0.62980
5234.61,0.62072
5228.83,0.61614
5223.04,0.61115
5217.26,0.60523
5211.47,0.60555
5205.68,0.60218
5199.9,0.60067
5194.11,0.60119
5188.32,0.60208
5182.54,0.60098
5176.75,0.60283
5170.97,0.60464
5165.18,0.60627
5159.39,0.61016
5153.61,0.61173
5147.82,0.61426
5142.03,0.61700
5136.25,0.62163
5130.46,0.62292
5124.68,0.62558
5118.89,0.63033
5113.1,0.63195
5107.32,0.63562
5101.53,0.63779
5095.75,0.63958
5089.96,0.64274
5084.17,0.64517
5078.39,0.64833
5072.6,0.65115
5066.81,0.65447
5061.03,0.65614
5055.24,0.65835
5049.46,0.65962
5043.67,0.66197
5037.88,0.66327
5032.1,0.66528
5026.31,0.66834
5020.52,0.66901
5014.74,0.67047
5008.95,0.67214
5003.17,0.67256
4997.38,0.67217
4991.59,0.67126
4985.81,0.67223
4980.02,0.67176
4974.23,0.66988
4968.45,0.66767
4962.66,0.66530
4956.88,0.66184
4951.09,0.65831
4945.3,0.65379
4939.52,0.64964
4933.73,0.64648
4927.94,0.64196
4922.16,0.63700
4916.37,0.63306
4910.59,0.62775
4904.8,0.62366
4899.01,0.61828
4893.23,0.61406
4887.44,0.60946
4881.65,0.60671
4875.87,0.60060
4870.08,0.59640
4864.3,0.59228
4858.51,0.58825
4852.72,0.58585
4846.94,0.58128
4841.15,0.57803
4835.36,0.57368
4829.58,0.57234
4823.79,0.56839
4818.01,0.56540
4812.22,0.56324
4806.43,0.56254
4800.65,0.56137
4794.86,0.56027
4789.07,0.55859
4783.29,0.55825
4777.5,0.55740
4771.72,0.55648
4765.93,0.55563
4760.14,0.55416
4754.36,0.55488
4748.57,0.55440
4742.78,0.55416
4737,0.55569
4731.21,0.55579
4725.43,0.55637
4719.64,0.55780
4713.85,0.55644
4708.07,0.55798
4702.28,0.55836
4696.49,0.56002
4690.71,0.56145
4684.92,0.56186
4679.14,0.56193
4673.35,0.56347
4667.56,0.56523
4661.78,0.56706
4655.99,0.56916
4650.2,0.57117
4644.42,0.57361
4638.63,0.57561
4632.85,0.57892
4627.06,0.58040
4621.27,0.58352
4615.49,0.58667
4609.7,0.59036
4603.92,0.59273
4598.13,0.59576
4592.34,0.59745
4586.56,0.59993
4580.77,0.60235
4574.98,0.60346
4569.2,0.60560
4563.41,0.60727
4557.63,0.60824
4551.84,0.60916
4546.05,0.61065
4540.27,0.61115
4534.48,0.61231
4528.69,0.61329
4522.91,0.61427
4517.12,0.61392
4511.34,0.61247
4505.55,0.61165
4499.76,0.60975
4493.98,0.60717
4488.19,0.60470
4482.4,0.60022
4476.62,0.59474
4470.83,0.58948
4465.05,0.58321
4459.26,0.57639
4453.47,0.57001
4447.69,0.56354
4441.9,0.55661
4436.11,0.55078
4430.33,0.54417
4424.54,0.53603
4418.76,0.52928
4412.97,0.52388
4407.18,0.51875
4401.4,0.51621
4395.61,0.51597
4389.82,0.51691
4384.04,0.51899
4378.25,0.52091
4372.47,0.52383
4366.68,0.52624
4360.89,0.52707
4355.11,0.52869
4349.32,0.52793
4343.53,0.52679
4337.75,0.52633
4331.96,0.52526
4326.18,0.52345
4320.39,0.52166
4314.6,0.51984
4308.82,0.51767
4303.03,0.51501
4297.24,0.51292
4291.46,0.51009
4285.67,0.50955
4279.89,0.50892
4274.1,0.50920
4268.31,0.51099
4262.53,0.51189
4256.74,0.51319
4250.95,0.51522
4245.17,0.51494
4239.38,0.51548
4233.6,0.51646
4227.81,0.51702
4222.02,0.51683
4216.24,0.51612
4210.45,0.51572
4204.66,0.51638
4198.88,0.51653
4193.09,0.51769
4187.31,0.51808
4181.52,0.51894
4175.73,0.52050
4169.95,0.52290
4164.16,0.52325
4158.37,0.52420
4152.59,0.52314
4146.8,0.52237
4141.02,0.51951
4135.23,0.51724
4129.44,0.51430
4123.66,0.51057
4117.87,0.50726
4112.09,0.50303
4106.3,0.49838
4100.51,0.49361
4094.73,0.48846
4088.94,0.48318
4083.15,0.47845
4077.37,0.47224
4071.58,0.46768
4065.8,0.46218
4060.01,0.45625
4054.22,0.45087
4048.44,0.44614
4042.65,0.44178
4036.86,0.43837
4031.08,0.43466
4025.29,0.43239
4019.51,0.43035
4013.72,0.42926
4007.93,0.42961
4002.15,0.43003
3996.36,0.43141
3990.57,0.43268
3984.79,0.43481
3979,0.43626
3973.22,0.43746
3967.43,0.43917
3961.64,0.44250
3955.86,0.44538
3950.07,0.44795
3944.28,0.45008
3938.5,0.45281
3932.71,0.45681
3926.93,0.45842
3921.14,0.46186
3915.35,0.46429
3909.57,0.46666
3903.78,0.46952
3897.99,0.47158
3892.21,0.47435
3886.42,0.47636
3880.64,0.47824
3874.85,0.47908
3869.06,0.48231
3863.28,0.48486
3857.49,0.48775
3851.7,0.49135
3845.92,0.49295
3840.13,0.49613
3834.35,0.49729
3828.56,0.49694
3822.77,0.49790
3816.99,0.49868
3811.2,0.49777
3805.41,0.49798
3799.63,0.49795
3793.84,0.49684
3788.06,0.49664
3782.27,0.49608
3776.48,0.49471
3770.7,0.49401
3764.91,0.49216
3759.12,0.49054
3753.34,0.48865
3747.55,0.48683
3741.77,0.48280
3735.98,0.47985
3730.19,0.47469
3724.41,0.46944
3718.62,0.46399
3712.83,0.45766
3707.05,0.44855
3701.26,0.43862
3695.48,0.42667
3689.69,0.41236
3683.9,0.39588
3678.12,0.37566
3672.33,0.35444
3666.54,0.33152
3660.76,0.31064
3654.97,0.28988
3649.19,0.27245
3643.4,0.25393
3637.61,0.23913
3631.83,0.22632
3626.04,0.21161
3620.25,0.19993
3614.47,0.18700
3608.68,0.17541
3602.9,0.16428
3597.11,0.15459
3591.32,0.14513
3585.54,0.13633
3579.75,0.12820
3573.97,0.12126
3568.18,0.11582
3562.39,0.10951
3556.61,0.10464
3550.82,0.10060
3545.03,0.09654
3539.25,0.09317
3533.46,0.09003
3527.68,0.08625
3521.89,0.08420
3516.1,0.08166
3510.32,0.07913
3504.53,0.07626
3498.74,0.07437
3492.96,0.07343
3487.17,0.07138
3481.39,0.06987
3475.6,0.06987
3469.81,0.06799
3464.03,0.06721
3458.24,0.06589
3452.45,0.06608
3446.67,0.06553
3440.88,0.06565
3435.1,0.06510
3429.31,0.06562
3423.52,0.06583
3417.74,0.06501
3411.95,0.06570
3406.16,0.06530
3400.38,0.06573
3394.59,0.06584
3388.81,0.06592
3383.02,0.06637
3377.23,0.06569
3371.45,0.06620
3365.66,0.06586
3359.87,0.06678
3354.09,0.06748
3348.3,0.06872
3342.52,0.06986
3336.73,0.07085
3330.94,0.07237
3325.16,0.07407
3319.37,0.07568
3313.58,0.07584
3307.8,0.07820
3302.01,0.07886
3296.23,0.07915
3290.44,0.08126
3284.65,0.08313
3278.87,0.08495
3273.08,0.08685
3267.29,0.08943
3261.51,0.09105
3255.72,0.09369
3249.94,0.09583
3244.15,0.09929
3238.36,0.10210
3232.58,0.10458
3226.79,0.10704
3221,0.11049
3215.22,0.11332
3209.43,0.11634
3203.65,0.11939
3197.86,0.12319
3192.07,0.12536
3186.29,0.12933
3180.5,0.13295
3174.71,0.13697
3168.93,0.14011
3163.14,0.14393
3157.36,0.14740
3151.57,0.15026
3145.78,0.15435
3140,0.15811
3134.21,0.16145
3128.42,0.16528
3122.64,0.16805
3116.85,0.17150
3111.07,0.17436
3105.28,0.17831
3099.49,0.18135
3093.71,0.18406
3087.92,0.18664
3082.14,0.18888
3076.35,0.19096
3070.56,0.19307
3064.78,0.19576
3058.99,0.19827
3053.2,0.20132
3047.42,0.20326
3041.63,0.20480
3035.85,0.20576
3030.06,0.20654
3024.27,0.20602
3018.49,0.20395
3012.7,0.20041
3006.91,0.19561
3001.13,0.19154
2995.34,0.18759
2989.56,0.18270
2983.77,0.17348
2977.98,0.16214
2972.2,0.15100
2966.41,0.14230
2960.62,0.13823
2954.84,0.13320
2949.05,0.12790
2943.27,0.12192
2937.48,0.11889
2931.69,0.11876
2925.91,0.11823
2920.12,0.11744
2914.33,0.11656
2908.55,0.11667
2902.76,0.11657
2896.98,0.11853
2891.19,0.12110
2885.4,0.12363
2879.62,0.12541
2873.83,0.12778
2868.04,0.13166
2862.26,0.13616
2856.47,0.14082
2850.69,0.14516
2844.9,0.15330
2839.11,0.16128
2833.33,0.17129
2827.54,0.18223
2821.75,0.19355
2815.97,0.20235
2810.18,0.21019
2804.4,0.21657
2798.61,0.22237
2792.82,0.22704
2787.04,0.23012
2781.25,0.23266
2775.46,0.23497
2769.68,0.23693
2763.89,0.23814
2758.11,0.23937
2752.32,0.24026
2746.53,0.24093
2740.75,0.24142
2734.96,0.24243
2729.17,0.24387
2723.39,0.24610
2717.6,0.24841
2711.82,0.25178
2706.03,0.25630
2700.24,0.25970
2694.46,0.26281
2688.67,0.26602
2682.88,0.26855
2677.1,0.27207
2671.31,0.27405
2665.53,0.27608
2659.74,0.27800
2653.95,0.27967
2648.17,0.28182
2642.38,0.28363
2636.59,0.28649
2630.81,0.28911
2625.02,0.29132
2619.24,0.29392
2613.45,0.29541
2607.66,0.29768
2601.88,0.30009
2596.09,0.30210
2590.3,0.30390
2584.52,0.30521
2578.73,0.30666
2572.95,0.30795
2567.16,0.30937
2561.37,0.30954
2555.59,0.30974
2549.8,0.31054
2544.02,0.31159
2538.23,0.31218
2532.44,0.31440
2526.66,0.31702
2520.87,0.31919
2515.08,0.32112
2509.3,0.32360
2503.51,0.32760
2497.73,0.33136
2491.94,0.33437
2486.15,0.33720
2480.37,0.34028
2474.58,0.34302
2468.79,0.34576
2463.01,0.34826
2457.22,0.35059
2451.44,0.35413
2445.65,0.35678
2439.86,0.36024
2434.08,0.36316
2428.29,0.36671
2422.5,0.37055
2416.72,0.37411
2410.93,0.37780
2405.15,0.38120
2399.36,0.38476
2393.57,0.38751
2387.79,0.39068
2382,0.39377
2376.21,0.39657
2370.43,0.39959
2364.64,0.40164
2358.86,0.40369
2353.07,0.40602
2347.28,0.40802
2341.5,0.40983
2335.71,0.41125
2329.92,0.41253
2324.14,0.41313
2318.35,0.41429
2312.57,0.41442
2306.78,0.41484
2300.99,0.41450
2295.21,0.41395
2289.42,0.41425
2283.63,0.41354
2277.85,0.41373
2272.06,0.41244
2266.28,0.41027
2260.49,0.40896
2254.7,0.40760
2248.92,0.40691
2243.13,0.40656
2237.34,0.40597
2231.56,0.40575
2225.77,0.40546
2219.99,0.40573
2214.2,0.40634
2208.41,0.40572
2202.63,0.40426
2196.84,0.40245
2191.05,0.40041
2185.27,0.39657
2179.48,0.39319
2173.7,0.38980
2167.91,0.38642
2162.12,0.38353
2156.34,0.38178
2150.55,0.38005
2144.76,0.37867
2138.98,0.37770
2133.19,0.37747
2127.41,0.37814
2121.62,0.37915
2115.83,0.38064
2110.05,0.38185
2104.26,0.38286
2098.47,0.38409
2092.69,0.38490
2086.9,0.38552
2081.12,0.38443
2075.33,0.38320
2069.54,0.38181
2063.76,0.38058
2057.97,0.37995
2052.19,0.38036
2046.4,0.38164
2040.61,0.38415
2034.83,0.38729
2029.04,0.39071
2023.25,0.39452
2017.47,0.39870
2011.68,0.40170
2005.9,0.40470
2000.11,0.40693
1994.32,0.40969
1988.54,0.41161
1982.75,0.41371
1976.96,0.41563
1971.18,0.41744
1965.39,0.41944
1959.61,0.42203
1953.82,0.42508
1948.03,0.42872
1942.25,0.43190
1936.46,0.43443
1930.67,0.43619
1924.89,0.43789
1919.1,0.43868
1913.32,0.43870
1907.53,0.43821
1901.74,0.43794
1895.96,0.43716
1890.17,0.43598
1884.38,0.43505
1878.6,0.43388
1872.81,0.43285
1867.03,0.43184
1861.24,0.43041
1855.45,0.42863
1849.67,0.42673
1843.88,0.42458
1838.09,0.42073
1832.31,0.41764
1826.52,0.41244
1820.74,0.40525
1814.95,0.39494
1809.16,0.37968
1803.38,0.35779
1797.59,0.33152
1791.8,0.30712
1786.02,0.28557
1780.23,0.26910
1774.45,0.25607
1768.66,0.24071
1762.87,0.22279
1757.09,0.20260
1751.3,0.18573
1745.51,0.17541
1739.73,0.17106
1733.94,0.17333
1728.16,0.18028
1722.37,0.18918
1716.58,0.20065
1710.8,0.21088
1705.01,0.21805
1699.22,0.21935
1693.44,0.21393
1687.65,0.20538
1681.87,0.19228
1676.08,0.17651
1670.29,0.16217
1664.51,0.15337
1658.72,0.15119
1652.93,0.15504
1647.15,0.15719
1641.36,0.15679
1635.58,0.15682
1629.79,0.15583
1624,0.15290
1618.22,0.14831
1612.43,0.14089
1606.64,0.13498
1600.86,0.13384
1595.07,0.13472
1589.29,0.13989
1583.5,0.15283
1577.71,0.17307
1571.93,0.19642
1566.14,0.21329
1560.35,0.22088
1554.57,0.21971
1548.78,0.21379
1543,0.20651
1537.21,0.19314
1531.42,0.17097
1525.64,0.13900
1519.85,0.10276
1514.07,0.08378
1508.28,0.08590
1502.49,0.09935
1496.71,0.11547
1490.92,0.12380
1485.13,0.12180
1479.35,0.11337
1473.56,0.09968
1467.78,0.08712
1461.99,0.08518
1456.2,0.08546
1450.42,0.08543
1444.63,0.08919
1438.84,0.08732
1433.06,0.08148
1427.27,0.08018
1421.49,0.08342
1415.7,0.08986
1409.91,0.09412
1404.13,0.09592
1398.34,0.09553
1392.55,0.09163
1386.77,0.08525
1380.98,0.07899
1375.2,0.07707
1369.41,0.07799
1363.62,0.08116
1357.84,0.08388
1352.05,0.08615
1346.26,0.08591
1340.48,0.08334
1334.69,0.08212
1328.91,0.08275
1323.12,0.08113
1317.33,0.08111
1311.55,0.08359
1305.76,0.08643
1299.97,0.08645
1294.19,0.08335
1288.4,0.07898
1282.62,0.07411
1276.83,0.07171
1271.04,0.07127
1265.26,0.07357
1259.47,0.07674
1253.68,0.07976
1247.9,0.08114
1242.11,0.08143
1236.33,0.08090
1230.54,0.08072
1224.75,0.08183
1218.97,0.08372
1213.18,0.08457
1207.39,0.08600
1201.61,0.08872
1195.82,0.09170
1190.04,0.09162
1184.25,0.08724
1178.46,0.07977
1172.68,0.07186
1166.89,0.06957
1161.1,0.07256
1155.32,0.07443
1149.53,0.07411
1143.75,0.07232
1137.96,0.06973
1132.17,0.06669
1126.39,0.06586
1120.6,0.06633
1114.81,0.06643
1109.03,0.06885
1103.24,0.07169
1097.46,0.07220
1091.67,0.07165
1085.88,0.07248
1080.1,0.07448
1074.31,0.07837
1068.52,0.08428
1062.74,0.09324
1056.95,0.10138
1051.17,0.10243
1045.38,0.10104
1039.59,0.10247
1033.81,0.11008
1028.02,0.11479
1022.24,0.11859
1016.45,0.12227
1010.66,0.12475
1004.88,0.12764
999.09,0.13208
993.304,0.13734
987.518,0.14649
981.731,0.16119
975.945,0.17366
970.159,0.18160
964.373,0.18946
958.586,0.20115
952.8,0.21207
947.014,0.22055
941.228,0.22654
935.441,0.23278
929.655,0.23974
923.869,0.24444
918.083,0.24462
912.297,0.23926
906.51,0.22975
900.724,0.21976
894.938,0.22146
889.152,0.23277
883.365,0.24060
877.579,0.24350
871.793,0.24576
866.007,0.24828
860.22,0.25135
854.434,0.25748
848.648,0.26707
842.862,0.27223
837.075,0.26905
831.289,0.26239
825.503,0.25528
819.717,0.24773
813.931,0.23866
808.144,0.23805
802.358,0.24310
796.572,0.24865
790.786,0.25156
784.999,0.24937
779.213,0.24304
773.427,0.23650
767.641,0.23233
761.854,0.22852
756.068,0.22431
750.282,0.21933
744.496,0.21327
738.709,0.20844
732.923,0.20176
727.137,0.19433
721.351,0.18837
715.565,0.18289
709.778,0.17886
703.992,0.17451
698.206,0.17083
692.42,0.16711
686.633,0.16097
680.847,0.15115
675.061,0.14191
669.275,0.13907
663.488,0.14092
657.702,0.14300
651.916,0.14299
646.13,0.13885
640.343,0.13495
634.557,0.13046
628.771,0.12724
622.985,0.12235
617.198,0.12472
611.412,0.12548
605.626,0.13189
599.84,0.13169