File: 01_Data/Cedar_Shingle/FTIR/IS/Cedar_Shingle_IS_S_221017_R4.dpt
7497.03,0.88212
7491.25,0.89207
7485.46,0.87599
7479.67,0.88139
7473.89,0.88373
7468.1,0.88210
7462.32,0.88121
7456.53,0.87636
7450.74,0.86825
7444.96,0.86795
7439.17,0.87033
7433.38,0.86734
7427.6,0.86824
7421.81,0.85766
7416.03,0.85701
7410.24,0.85300
7404.45,0.85060
7398.67,0.85551
7392.88,0.85606
7387.09,0.84625
7381.31,0.84807
7375.52,0.85376
7369.74,0.84351
7363.95,0.84065
7358.16,0.84663
7352.38,0.84352
7346.59,0.83983
7340.8,0.83694
7335.02,0.83928
7329.23,0.83410
7323.45,0.83746
7317.66,0.83751
7311.87,0.82779
7306.09,0.82026
7300.3,0.83265
7294.51,0.82820
7288.73,0.83285
7282.94,0.83148
7277.16,0.83949
7271.37,0.82418
7265.58,0.83216
7259.8,0.83733
7254.01,0.82282
7248.22,0.83446
7242.44,0.83093
7236.65,0.82525
7230.87,0.81988
7225.08,0.82081
7219.29,0.82647
7213.51,0.82516
7207.72,0.82311
7201.93,0.81967
7196.15,0.81191
7190.36,0.81362
7184.58,0.81006
7178.79,0.81137
7173,0.81537
7167.22,0.80574
7161.43,0.81067
7155.65,0.80813
7149.86,0.80561
7144.07,0.79884
7138.29,0.79374
7132.5,0.78593
7126.71,0.79184
7120.93,0.78664
7115.14,0.78190
7109.36,0.77729
7103.57,0.77576
7097.78,0.77544
7092,0.76418
7086.21,0.75909
7080.42,0.76089
7074.64,0.75610
7068.85,0.75210
7063.07,0.74597
7057.28,0.74149
7051.49,0.73761
7045.71,0.72427
7039.92,0.72476
7034.13,0.71939
7028.35,0.71856
7022.56,0.71225
7016.78,0.70432
7010.99,0.70970
7005.2,0.70375
6999.42,0.69947
6993.63,0.69990
6987.84,0.69969
6982.06,0.69515
6976.27,0.69537
6970.49,0.70022
6964.7,0.69296
6958.91,0.68600
6953.13,0.68960
6947.34,0.69261
6941.55,0.68690
6935.77,0.68507
6929.98,0.68612
6924.2,0.68701
6918.41,0.68747
6912.62,0.68928
6906.84,0.68636
6901.05,0.68455
6895.26,0.69086
6889.48,0.68701
6883.69,0.69476
6877.91,0.69092
6872.12,0.68591
6866.33,0.69103
6860.55,0.68171
6854.76,0.68303
6848.97,0.68558
6843.19,0.68662
6837.4,0.69056
6831.62,0.68693
6825.83,0.68655
6820.04,0.68645
6814.26,0.68121
6808.47,0.68418
6802.68,0.68585
6796.9,0.68236
6791.11,0.68524
6785.33,0.68562
6779.54,0.68727
6773.75,0.68500
6767.97,0.68446
6762.18,0.68340
6756.39,0.68764
6750.61,0.68865
6744.82,0.68723
6739.04,0.68628
6733.25,0.68715
6727.46,0.68839
6721.68,0.69146
6715.89,0.68714
6710.1,0.68869
6704.32,0.69164
6698.53,0.69182
6692.75,0.69223
6686.96,0.69351
6681.17,0.69723
6675.39,0.69259
6669.6,0.69381
6663.82,0.69692
6658.03,0.69330
6652.24,0.69497
6646.46,0.69677
6640.67,0.69565
6634.88,0.69763
6629.1,0.69636
6623.31,0.70308
6617.53,0.70085
6611.74,0.70167
6605.95,0.70166
6600.17,0.70236
6594.38,0.70283
6588.59,0.70450
6582.81,0.70656
6577.02,0.70545
6571.24,0.70463
6565.45,0.70923
6559.66,0.71121
6553.88,0.71224
6548.09,0.71145
6542.3,0.71332
6536.52,0.70963
6530.73,0.70913
6524.95,0.71186
6519.16,0.71252
6513.37,0.71784
6507.59,0.71570
6501.8,0.71537
6496.01,0.71247
6490.23,0.71386
6484.44,0.71388
6478.66,0.71258
6472.87,0.71324
6467.08,0.71681
6461.3,0.72022
6455.51,0.71767
6449.72,0.71430
6443.94,0.71630
6438.15,0.71941
6432.37,0.71522
6426.58,0.71887
6420.79,0.71895
6415.01,0.72301
6409.22,0.72100
6403.43,0.72161
6397.65,0.72043
6391.86,0.72268
6386.08,0.71950
6380.29,0.72100
6374.5,0.72430
6368.72,0.72492
6362.93,0.72591
6357.14,0.72035
6351.36,0.72259
6345.57,0.72516
6339.79,0.72116
6334,0.72354
6328.21,0.72796
6322.43,0.72738
6316.64,0.72649
6310.85,0.72632
6305.07,0.72348
6299.28,0.72932
6293.5,0.72815
6287.71,0.72963
6281.92,0.72953
6276.14,0.73214
6270.35,0.73322
6264.56,0.73528
6258.78,0.73507
6252.99,0.73731
6247.21,0.73950
6241.42,0.74110
6235.63,0.74323
6229.85,0.74265
6224.06,0.74900
6218.27,0.74716
6212.49,0.75024
6206.7,0.74792
6200.92,0.75008
6195.13,0.75328
6189.34,0.75242
6183.56,0.75692
6177.77,0.75622
6171.98,0.75763
6166.2,0.76039
6160.41,0.76140
6154.63,0.76062
6148.84,0.76235
6143.05,0.76177
6137.27,0.76000
6131.48,0.76290
6125.7,0.76016
6119.91,0.76697
6114.12,0.76729
6108.34,0.76685
6102.55,0.76696
6096.76,0.76627
6090.98,0.76932
6085.19,0.76510
6079.41,0.76619
6073.62,0.76816
6067.83,0.76220
6062.05,0.76180
6056.26,0.76603
6050.47,0.76155
6044.69,0.76350
6038.9,0.76246
6033.12,0.75989
6027.33,0.75710
6021.54,0.75815
6015.76,0.75563
6009.97,0.75165
6004.18,0.74842
5998.4,0.74609
5992.61,0.74432
5986.83,0.74525
5981.04,0.74589
5975.25,0.74361
5969.47,0.74006
5963.68,0.74403
5957.89,0.74395
5952.11,0.73966
5946.32,0.74237
5940.54,0.74494
5934.75,0.74411
5928.96,0.74491
5923.18,0.74157
5917.39,0.74223
5911.6,0.73934
5905.82,0.73868
5900.03,0.73752
5894.25,0.73626
5888.46,0.73577
5882.67,0.73852
5876.89,0.73518
5871.1,0.73563
5865.31,0.73520
5859.53,0.73680
5853.74,0.73377
5847.96,0.73526
5842.17,0.73679
5836.38,0.73777
5830.6,0.73414
5824.81,0.73525
5819.02,0.73438
5813.24,0.73278
5807.45,0.73434
5801.67,0.73271
5795.88,0.73288
5790.09,0.73221
5784.31,0.73243
5778.52,0.73534
5772.73,0.73275
5766.95,0.73614
5761.16,0.73481
5755.38,0.73906
5749.59,0.73624
5743.8,0.73686
5738.02,0.73742
5732.23,0.73759
5726.44,0.73777
5720.66,0.73821
5714.87,0.73801
5709.09,0.73835
5703.3,0.73530
5697.51,0.73770
5691.73,0.73841
5685.94,0.73686
5680.15,0.73622
5674.37,0.73644
5668.58,0.73614
5662.8,0.73618
5657.01,0.73514
5651.22,0.73647
5645.44,0.73775
5639.65,0.73575
5633.87,0.73521
5628.08,0.73586
5622.29,0.73607
5616.51,0.73600
5610.72,0.73452
5604.93,0.73543
5599.15,0.73709
5593.36,0.73728
5587.58,0.73683
5581.79,0.73683
5576,0.74000
5570.22,0.73750
5564.43,0.73814
5558.64,0.73931
5552.86,0.74101
5547.07,0.73970
5541.29,0.74287
5535.5,0.74320
5529.71,0.74051
5523.93,0.74332
5518.14,0.74375
5512.35,0.74465
5506.57,0.74463
5500.78,0.74383
5495,0.74459
5489.21,0.74403
5483.42,0.74525
5477.64,0.74571
5471.85,0.74574
5466.06,0.74497
5460.28,0.74676
5454.49,0.74725
5448.71,0.74979
5442.92,0.74880
5437.13,0.75138
5431.35,0.75187
5425.56,0.75371
5419.77,0.75527
5413.99,0.75404
5408.2,0.75527
5402.42,0.75602
5396.63,0.75731
5390.84,0.75644
5385.06,0.75450
5379.27,0.75713
5373.48,0.75641
5367.7,0.75612
5361.91,0.75637
5356.13,0.75525
5350.34,0.75257
5344.55,0.75275
5338.77,0.75268
5332.98,0.75138
5327.19,0.74732
5321.41,0.74458
5315.62,0.74041
5309.84,0.73643
5304.05,0.73017
5298.26,0.72389
5292.48,0.71757
5286.69,0.71050
5280.9,0.70234
5275.12,0.69253
5269.33,0.68025
5263.55,0.67179
5257.76,0.66101
5251.97,0.65238
5246.19,0.64429
5240.4,0.63603
5234.61,0.63039
5228.83,0.62562
5223.04,0.62219
5217.26,0.61721
5211.47,0.61615
5205.68,0.61419
5199.9,0.61143
5194.11,0.61212
5188.32,0.61136
5182.54,0.61349
5176.75,0.61438
5170.97,0.61504
5165.18,0.61780
5159.39,0.61986
5153.61,0.62243
5147.82,0.62662
5142.03,0.62702
5136.25,0.63103
5130.46,0.63298
5124.68,0.63478
5118.89,0.63839
5113.1,0.64181
5107.32,0.64514
5101.53,0.64615
5095.75,0.65051
5089.96,0.65158
5084.17,0.65473
5078.39,0.65736
5072.6,0.65944
5066.81,0.66234
5061.03,0.66466
5055.24,0.66753
5049.46,0.66827
5043.67,0.67153
5037.88,0.67217
5032.1,0.67309
5026.31,0.67638
5020.52,0.67744
5014.74,0.67655
5008.95,0.67793
5003.17,0.67844
4997.38,0.67852
4991.59,0.67912
4985.81,0.67904
4980.02,0.67622
4974.23,0.67521
4968.45,0.67246
4962.66,0.66925
4956.88,0.66533
4951.09,0.66195
4945.3,0.65884
4939.52,0.65376
4933.73,0.64972
4927.94,0.64532
4922.16,0.64001
4916.37,0.63437
4910.59,0.63031
4904.8,0.62549
4899.01,0.62134
4893.23,0.61460
4887.44,0.61060
4881.65,0.60638
4875.87,0.60269
4870.08,0.59854
4864.3,0.59309
4858.51,0.58975
4852.72,0.58607
4846.94,0.58316
4841.15,0.57980
4835.36,0.57625
4829.58,0.57172
4823.79,0.57010
4818.01,0.56767
4812.22,0.56492
4806.43,0.56301
4800.65,0.56151
4794.86,0.56095
4789.07,0.55913
4783.29,0.55809
4777.5,0.55705
4771.72,0.55639
4765.93,0.55590
4760.14,0.55615
4754.36,0.55693
4748.57,0.55550
4742.78,0.55564
4737,0.55677
4731.21,0.55742
4725.43,0.55866
4719.64,0.55905
4713.85,0.55950
4708.07,0.56102
4702.28,0.56026
4696.49,0.56055
4690.71,0.56195
4684.92,0.56237
4679.14,0.56337
4673.35,0.56408
4667.56,0.56635
4661.78,0.56890
4655.99,0.57139
4650.2,0.57326
4644.42,0.57428
4638.63,0.57727
4632.85,0.57807
4627.06,0.58228
4621.27,0.58545
4615.49,0.58855
4609.7,0.59110
4603.92,0.59411
4598.13,0.59789
4592.34,0.59935
4586.56,0.60107
4580.77,0.60378
4574.98,0.60532
4569.2,0.60799
4563.41,0.60888
4557.63,0.60981
4551.84,0.61202
4546.05,0.61240
4540.27,0.61295
4534.48,0.61478
4528.69,0.61511
4522.91,0.61564
4517.12,0.61540
4511.34,0.61455
4505.55,0.61293
4499.76,0.61156
4493.98,0.61074
4488.19,0.60676
4482.4,0.60162
4476.62,0.59680
4470.83,0.59017
4465.05,0.58427
4459.26,0.57744
4453.47,0.57205
4447.69,0.56566
4441.9,0.55816
4436.11,0.55186
4430.33,0.54532
4424.54,0.53774
4418.76,0.53132
4412.97,0.52509
4407.18,0.51930
4401.4,0.51710
4395.61,0.51733
4389.82,0.51794
4384.04,0.51982
4378.25,0.52196
4372.47,0.52471
4366.68,0.52707
4360.89,0.52801
4355.11,0.52879
4349.32,0.52906
4343.53,0.52830
4337.75,0.52799
4331.96,0.52568
4326.18,0.52354
4320.39,0.52262
4314.6,0.52073
4308.82,0.51853
4303.03,0.51569
4297.24,0.51418
4291.46,0.51242
4285.67,0.51096
4279.89,0.51023
4274.1,0.51030
4268.31,0.51140
4262.53,0.51299
4256.74,0.51446
4250.95,0.51669
4245.17,0.51686
4239.38,0.51725
4233.6,0.51759
4227.81,0.51822
4222.02,0.51801
4216.24,0.51762
4210.45,0.51759
4204.66,0.51906
4198.88,0.51989
4193.09,0.51960
4187.31,0.52045
4181.52,0.52128
4175.73,0.52295
4169.95,0.52441
4164.16,0.52615
4158.37,0.52573
4152.59,0.52513
4146.8,0.52373
4141.02,0.52233
4135.23,0.51983
4129.44,0.51693
4123.66,0.51292
4117.87,0.50823
4112.09,0.50468
4106.3,0.50074
4100.51,0.49641
4094.73,0.49122
4088.94,0.48616
4083.15,0.48064
4077.37,0.47546
4071.58,0.46943
4065.8,0.46370
4060.01,0.45821
4054.22,0.45328
4048.44,0.44790
4042.65,0.44369
4036.86,0.43925
4031.08,0.43682
4025.29,0.43433
4019.51,0.43253
4013.72,0.43172
4007.93,0.43135
4002.15,0.43225
3996.36,0.43325
3990.57,0.43534
3984.79,0.43624
3979,0.43720
3973.22,0.43958
3967.43,0.44171
3961.64,0.44453
3955.86,0.44745
3950.07,0.45004
3944.28,0.45292
3938.5,0.45538
3932.71,0.45861
3926.93,0.46231
3921.14,0.46539
3915.35,0.46693
3909.57,0.46957
3903.78,0.47236
3897.99,0.47420
3892.21,0.47685
3886.42,0.47858
3880.64,0.48056
3874.85,0.48215
3869.06,0.48485
3863.28,0.48791
3857.49,0.49079
3851.7,0.49525
3845.92,0.49645
3840.13,0.49900
3834.35,0.50006
3828.56,0.50111
3822.77,0.50219
3816.99,0.50216
3811.2,0.50195
3805.41,0.50233
3799.63,0.50196
3793.84,0.50120
3788.06,0.50099
3782.27,0.50051
3776.48,0.49980
3770.7,0.49884
3764.91,0.49713
3759.12,0.49544
3753.34,0.49392
3747.55,0.49174
3741.77,0.48845
3735.98,0.48504
3730.19,0.48098
3724.41,0.47648
3718.62,0.47049
3712.83,0.46445
3707.05,0.45586
3701.26,0.44648
3695.48,0.43550
3689.69,0.42251
3683.9,0.40544
3678.12,0.38643
3672.33,0.36505
3666.54,0.34282
3660.76,0.32189
3654.97,0.30125
3649.19,0.28374
3643.4,0.26598
3637.61,0.25036
3631.83,0.23656
3626.04,0.22194
3620.25,0.20858
3614.47,0.19592
3608.68,0.18377
3602.9,0.17169
3597.11,0.16084
3591.32,0.14953
3585.54,0.14065
3579.75,0.13258
3573.97,0.12490
3568.18,0.11814
3562.39,0.11195
3556.61,0.10676
3550.82,0.10234
3545.03,0.09805
3539.25,0.09403
3533.46,0.09069
3527.68,0.08839
3521.89,0.08538
3516.1,0.08253
3510.32,0.07995
3504.53,0.07794
3498.74,0.07594
3492.96,0.07456
3487.17,0.07225
3481.39,0.07073
3475.6,0.06962
3469.81,0.06877
3464.03,0.06760
3458.24,0.06709
3452.45,0.06659
3446.67,0.06580
3440.88,0.06512
3435.1,0.06553
3429.31,0.06552
3423.52,0.06531
3417.74,0.06586
3411.95,0.06564
3406.16,0.06626
3400.38,0.06625
3394.59,0.06622
3388.81,0.06628
3383.02,0.06648
3377.23,0.06636
3371.45,0.06629
3365.66,0.06659
3359.87,0.06773
3354.09,0.06822
3348.3,0.06875
3342.52,0.06954
3336.73,0.07091
3330.94,0.07254
3325.16,0.07375
3319.37,0.07586
3313.58,0.07695
3307.8,0.07802
3302.01,0.07930
3296.23,0.08056
3290.44,0.08233
3284.65,0.08382
3278.87,0.08564
3273.08,0.08752
3267.29,0.08996
3261.51,0.09228
3255.72,0.09467
3249.94,0.09733
3244.15,0.10023
3238.36,0.10336
3232.58,0.10536
3226.79,0.10853
3221,0.11261
3215.22,0.11557
3209.43,0.11892
3203.65,0.12190
3197.86,0.12544
3192.07,0.12946
3186.29,0.13229
3180.5,0.13656
3174.71,0.14022
3168.93,0.14316
3163.14,0.14698
3157.36,0.15106
3151.57,0.15442
3145.78,0.15775
3140,0.16133
3134.21,0.16495
3128.42,0.16878
3122.64,0.17244
3116.85,0.17608
3111.07,0.17876
3105.28,0.18218
3099.49,0.18594
3093.71,0.18852
3087.92,0.19104
3082.14,0.19305
3076.35,0.19445
3070.56,0.19705
3064.78,0.20024
3058.99,0.20220
3053.2,0.20541
3047.42,0.20707
3041.63,0.20878
3035.85,0.20973
3030.06,0.21026
3024.27,0.20920
3018.49,0.20717
3012.7,0.20276
3006.91,0.19846
3001.13,0.19382
2995.34,0.18965
2989.56,0.18402
2983.77,0.17550
2977.98,0.16363
2972.2,0.15166
2966.41,0.14357
2960.62,0.13789
2954.84,0.13352
2949.05,0.12804
2943.27,0.12253
2937.48,0.11973
2931.69,0.11881
2925.91,0.11782
2920.12,0.11738
2914.33,0.11729
2908.55,0.11698
2902.76,0.11755
2896.98,0.11878
2891.19,0.12118
2885.4,0.12406
2879.62,0.12570
2873.83,0.12857
2868.04,0.13206
2862.26,0.13629
2856.47,0.14143
2850.69,0.14639
2844.9,0.15375
2839.11,0.16216
2833.33,0.17170
2827.54,0.18352
2821.75,0.19484
2815.97,0.20430
2810.18,0.21204
2804.4,0.21845
2798.61,0.22410
2792.82,0.22871
2787.04,0.23241
2781.25,0.23477
2775.46,0.23688
2769.68,0.23859
2763.89,0.24012
2758.11,0.24180
2752.32,0.24235
2746.53,0.24286
2740.75,0.24300
2734.96,0.24435
2729.17,0.24598
2723.39,0.24809
2717.6,0.25121
2711.82,0.25391
2706.03,0.25746
2700.24,0.26153
2694.46,0.26487
2688.67,0.26801
2682.88,0.27135
2677.1,0.27406
2671.31,0.27659
2665.53,0.27848
2659.74,0.27987
2653.95,0.28186
2648.17,0.28394
2642.38,0.28573
2636.59,0.28807
2630.81,0.29061
2625.02,0.29358
2619.24,0.29584
2613.45,0.29797
2607.66,0.30013
2601.88,0.30188
2596.09,0.30366
2590.3,0.30603
2584.52,0.30751
2578.73,0.30917
2572.95,0.31034
2567.16,0.31118
2561.37,0.31206
2555.59,0.31238
2549.8,0.31237
2544.02,0.31347
2538.23,0.31469
2532.44,0.31658
2526.66,0.31884
2520.87,0.32122
2515.08,0.32306
2509.3,0.32603
2503.51,0.32975
2497.73,0.33326
2491.94,0.33682
2486.15,0.33939
2480.37,0.34219
2474.58,0.34508
2468.79,0.34814
2463.01,0.35061
2457.22,0.35301
2451.44,0.35615
2445.65,0.35901
2439.86,0.36246
2434.08,0.36580
2428.29,0.36905
2422.5,0.37307
2416.72,0.37672
2410.93,0.38063
2405.15,0.38400
2399.36,0.38685
2393.57,0.39013
2387.79,0.39380
2382,0.39682
2376.21,0.39950
2370.43,0.40226
2364.64,0.40457
2358.86,0.40677
2353.07,0.40904
2347.28,0.41137
2341.5,0.41344
2335.71,0.41473
2329.92,0.41625
2324.14,0.41682
2318.35,0.41759
2312.57,0.41824
2306.78,0.41827
2300.99,0.41818
2295.21,0.41792
2289.42,0.41753
2283.63,0.41755
2277.85,0.41716
2272.06,0.41633
2266.28,0.41466
2260.49,0.41303
2254.7,0.41190
2248.92,0.41155
2243.13,0.41089
2237.34,0.41000
2231.56,0.40981
2225.77,0.41008
2219.99,0.41056
2214.2,0.41105
2208.41,0.41069
2202.63,0.40952
2196.84,0.40724
2191.05,0.40466
2185.27,0.40168
2179.48,0.39824
2173.7,0.39446
2167.91,0.39144
2162.12,0.38894
2156.34,0.38639
2150.55,0.38495
2144.76,0.38351
2138.98,0.38239
2133.19,0.38225
2127.41,0.38311
2121.62,0.38414
2115.83,0.38555
2110.05,0.38699
2104.26,0.38808
2098.47,0.38917
2092.69,0.39039
2086.9,0.39040
2081.12,0.38986
2075.33,0.38841
2069.54,0.38665
2063.76,0.38544
2057.97,0.38490
2052.19,0.38501
2046.4,0.38646
2040.61,0.38885
2034.83,0.39182
2029.04,0.39570
2023.25,0.39965
2017.47,0.40335
2011.68,0.40659
2005.9,0.40897
2000.11,0.41151
1994.32,0.41395
1988.54,0.41640
1982.75,0.41816
1976.96,0.42005
1971.18,0.42177
1965.39,0.42402
1959.61,0.42655
1953.82,0.42945
1948.03,0.43336
1942.25,0.43632
1936.46,0.43868
1930.67,0.44057
1924.89,0.44192
1919.1,0.44293
1913.32,0.44311
1907.53,0.44278
1901.74,0.44195
1895.96,0.44092
1890.17,0.43989
1884.38,0.43870
1878.6,0.43750
1872.81,0.43639
1867.03,0.43548
1861.24,0.43371
1855.45,0.43249
1849.67,0.43035
1843.88,0.42806
1838.09,0.42436
1832.31,0.42077
1826.52,0.41538
1820.74,0.40835
1814.95,0.39734
1809.16,0.38160
1803.38,0.35891
1797.59,0.33237
1791.8,0.30760
1786.02,0.28614
1780.23,0.26952
1774.45,0.25642
1768.66,0.24114
1762.87,0.22248
1757.09,0.20234
1751.3,0.18536
1745.51,0.17528
1739.73,0.17157
1733.94,0.17462
1728.16,0.18100
1722.37,0.19053
1716.58,0.20245
1710.8,0.21313
1705.01,0.22036
1699.22,0.22185
1693.44,0.21682
1687.65,0.20863
1681.87,0.19445
1676.08,0.17894
1670.29,0.16464
1664.51,0.15614
1658.72,0.15479
1652.93,0.15895
1647.15,0.16102
1641.36,0.16076
1635.58,0.16086
1629.79,0.15962
1624,0.15603
1618.22,0.15062
1612.43,0.14259
1606.64,0.13620
1600.86,0.13493
1595.07,0.13574
1589.29,0.14040
1583.5,0.15360
1577.71,0.17360
1571.93,0.19776
1566.14,0.21512
1560.35,0.22245
1554.57,0.22153
1548.78,0.21561
1543,0.20816
1537.21,0.19474
1531.42,0.17219
1525.64,0.13947
1519.85,0.10254
1514.07,0.08361
1508.28,0.08537
1502.49,0.09886
1496.71,0.11503
1490.92,0.12412
1485.13,0.12198
1479.35,0.11392
1473.56,0.10024
1467.78,0.08790
1461.99,0.08512
1456.2,0.08497
1450.42,0.08537
1444.63,0.08936
1438.84,0.08698
1433.06,0.08131
1427.27,0.08009
1421.49,0.08362
1415.7,0.08908
1409.91,0.09389
1404.13,0.09611
1398.34,0.09529
1392.55,0.09156
1386.77,0.08515
1380.98,0.07923
1375.2,0.07709
1369.41,0.07801
1363.62,0.08126
1357.84,0.08378
1352.05,0.08590
1346.26,0.08598
1340.48,0.08358
1334.69,0.08274
1328.91,0.08280
1323.12,0.08161
1317.33,0.08153
1311.55,0.08364
1305.76,0.08615
1299.97,0.08647
1294.19,0.08413
1288.4,0.07914
1282.62,0.07398
1276.83,0.07198
1271.04,0.07167
1265.26,0.07391
1259.47,0.07742
1253.68,0.08015
1247.9,0.08142
1242.11,0.08143
1236.33,0.08052
1230.54,0.08056
1224.75,0.08191
1218.97,0.08376
1213.18,0.08451
1207.39,0.08563
1201.61,0.08909
1195.82,0.09255
1190.04,0.09167
1184.25,0.08748
1178.46,0.08047
1172.68,0.07224
1166.89,0.07010
1161.1,0.07328
1155.32,0.07530
1149.53,0.07423
1143.75,0.07242
1137.96,0.07012
1132.17,0.06723
1126.39,0.06565
1120.6,0.06608
1114.81,0.06661
1109.03,0.06982
1103.24,0.07209
1097.46,0.07222
1091.67,0.07264
1085.88,0.07260
1080.1,0.07506
1074.31,0.07955
1068.52,0.08426
1062.74,0.09359
1056.95,0.10120
1051.17,0.10254
1045.38,0.10043
1039.59,0.10284
1033.81,0.11071
1028.02,0.11477
1022.24,0.11777
1016.45,0.12129
1010.66,0.12591
1004.88,0.12825
999.09,0.13262
993.304,0.13850
987.518,0.14706
981.731,0.16177
975.945,0.17506
970.159,0.18193
964.373,0.18948
958.586,0.20155
952.8,0.21370
947.014,0.22177
941.228,0.22818
935.441,0.23417
929.655,0.24155
923.869,0.24656
918.083,0.24676
912.297,0.24113
906.51,0.23168
900.724,0.22179
894.938,0.22323
889.152,0.23466
883.365,0.24334
877.579,0.24594
871.793,0.24877
866.007,0.25093
860.22,0.25433
854.434,0.26002
848.648,0.27010
842.862,0.27649
837.075,0.27328
831.289,0.26579
825.503,0.25894
819.717,0.25025
813.931,0.24198
808.144,0.24061
802.358,0.24640
796.572,0.25221
790.786,0.25548
784.999,0.25504
779.213,0.24735
773.427,0.24186
767.641,0.23644
761.854,0.23235
756.068,0.22718
750.282,0.22264
744.496,0.21676
738.709,0.21267
732.923,0.20531
727.137,0.19730
721.351,0.19122
715.565,0.18601
709.778,0.18242
703.992,0.17787
698.206,0.17428
692.42,0.16905
686.633,0.16276
680.847,0.15278
675.061,0.14526
669.275,0.14209
663.488,0.14329
657.702,0.14464
651.916,0.14438
646.13,0.14046
640.343,0.13747
634.557,0.13083
628.771,0.12823
622.985,0.12404
617.198,0.12490
611.412,0.12834
605.626,0.12922
599.84,0.13148