File: 01_Data/Cedar_Shingle/FTIR/IS/Cedar_Shingle_IS_S_221017_R7.dpt
7497.03,0.88371
7491.25,0.88287
7485.46,0.88465
7479.67,0.88494
7473.89,0.87602
7468.1,0.88736
7462.32,0.88355
7456.53,0.88491
7450.74,0.86516
7444.96,0.87623
7439.17,0.86689
7433.38,0.86406
7427.6,0.86888
7421.81,0.87717
7416.03,0.87078
7410.24,0.85893
7404.45,0.86748
7398.67,0.85803
7392.88,0.84960
7387.09,0.85637
7381.31,0.84827
7375.52,0.84994
7369.74,0.84858
7363.95,0.85767
7358.16,0.84599
7352.38,0.84672
7346.59,0.84035
7340.8,0.85184
7335.02,0.84985
7329.23,0.83900
7323.45,0.84398
7317.66,0.83483
7311.87,0.83976
7306.09,0.83779
7300.3,0.82662
7294.51,0.82968
7288.73,0.83728
7282.94,0.83302
7277.16,0.82336
7271.37,0.82914
7265.58,0.83023
7259.8,0.84168
7254.01,0.83605
7248.22,0.82845
7242.44,0.83501
7236.65,0.83261
7230.87,0.82911
7225.08,0.82286
7219.29,0.83391
7213.51,0.83011
7207.72,0.82333
7201.93,0.82184
7196.15,0.81660
7190.36,0.81329
7184.58,0.82344
7178.79,0.81803
7173,0.81180
7167.22,0.80458
7161.43,0.81170
7155.65,0.80836
7149.86,0.80510
7144.07,0.80472
7138.29,0.79113
7132.5,0.80019
7126.71,0.79364
7120.93,0.79373
7115.14,0.78884
7109.36,0.79196
7103.57,0.77729
7097.78,0.77840
7092,0.77271
7086.21,0.76467
7080.42,0.76372
7074.64,0.75707
7068.85,0.75570
7063.07,0.75012
7057.28,0.74564
7051.49,0.73938
7045.71,0.73107
7039.92,0.72681
7034.13,0.72334
7028.35,0.72349
7022.56,0.72151
7016.78,0.71723
7010.99,0.71158
7005.2,0.70346
6999.42,0.70224
6993.63,0.70113
6987.84,0.69788
6982.06,0.70336
6976.27,0.69755
6970.49,0.69703
6964.7,0.70004
6958.91,0.69267
6953.13,0.69511
6947.34,0.69740
6941.55,0.69466
6935.77,0.69107
6929.98,0.69091
6924.2,0.69450
6918.41,0.69010
6912.62,0.68793
6906.84,0.68830
6901.05,0.69077
6895.26,0.69227
6889.48,0.68988
6883.69,0.69509
6877.91,0.69142
6872.12,0.68931
6866.33,0.69058
6860.55,0.69200
6854.76,0.68914
6848.97,0.68313
6843.19,0.68635
6837.4,0.68811
6831.62,0.68912
6825.83,0.68411
6820.04,0.68284
6814.26,0.68998
6808.47,0.69118
6802.68,0.69383
6796.9,0.69064
6791.11,0.68895
6785.33,0.69260
6779.54,0.69085
6773.75,0.68799
6767.97,0.68803
6762.18,0.69217
6756.39,0.69380
6750.61,0.68861
6744.82,0.69188
6739.04,0.69277
6733.25,0.69647
6727.46,0.68962
6721.68,0.69262
6715.89,0.69331
6710.1,0.69098
6704.32,0.69371
6698.53,0.69775
6692.75,0.69999
6686.96,0.69370
6681.17,0.69591
6675.39,0.69310
6669.6,0.69554
6663.82,0.69837
6658.03,0.69967
6652.24,0.70016
6646.46,0.70010
6640.67,0.70352
6634.88,0.70637
6629.1,0.70786
6623.31,0.70855
6617.53,0.70809
6611.74,0.70286
6605.95,0.70849
6600.17,0.70872
6594.38,0.71531
6588.59,0.71351
6582.81,0.71481
6577.02,0.71683
6571.24,0.71061
6565.45,0.71411
6559.66,0.71137
6553.88,0.71405
6548.09,0.71093
6542.3,0.71209
6536.52,0.71795
6530.73,0.71318
6524.95,0.71437
6519.16,0.71863
6513.37,0.72203
6507.59,0.72425
6501.8,0.71805
6496.01,0.71360
6490.23,0.71750
6484.44,0.71857
6478.66,0.71876
6472.87,0.72207
6467.08,0.71834
6461.3,0.72370
6455.51,0.71824
6449.72,0.72147
6443.94,0.72168
6438.15,0.71785
6432.37,0.72120
6426.58,0.72303
6420.79,0.72382
6415.01,0.72486
6409.22,0.72486
6403.43,0.72595
6397.65,0.72984
6391.86,0.72089
6386.08,0.72442
6380.29,0.72045
6374.5,0.72781
6368.72,0.72769
6362.93,0.72518
6357.14,0.72628
6351.36,0.72767
6345.57,0.72690
6339.79,0.72343
6334,0.73029
6328.21,0.72910
6322.43,0.73025
6316.64,0.73040
6310.85,0.73160
6305.07,0.73089
6299.28,0.73075
6293.5,0.72999
6287.71,0.73192
6281.92,0.73148
6276.14,0.73113
6270.35,0.73320
6264.56,0.73736
6258.78,0.73972
6252.99,0.74064
6247.21,0.74034
6241.42,0.74154
6235.63,0.74317
6229.85,0.74812
6224.06,0.74728
6218.27,0.74897
6212.49,0.74890
6206.7,0.75280
6200.92,0.75399
6195.13,0.75302
6189.34,0.75668
6183.56,0.75449
6177.77,0.76005
6171.98,0.75756
6166.2,0.76262
6160.41,0.76089
6154.63,0.76022
6148.84,0.76581
6143.05,0.76455
6137.27,0.76501
6131.48,0.76556
6125.7,0.76613
6119.91,0.76504
6114.12,0.77130
6108.34,0.77254
6102.55,0.77153
6096.76,0.76818
6090.98,0.77112
6085.19,0.77105
6079.41,0.76942
6073.62,0.76765
6067.83,0.76990
6062.05,0.76795
6056.26,0.76535
6050.47,0.76430
6044.69,0.76170
6038.9,0.76477
6033.12,0.76540
6027.33,0.76024
6021.54,0.75887
6015.76,0.75610
6009.97,0.75359
6004.18,0.75266
5998.4,0.74948
5992.61,0.74965
5986.83,0.74813
5981.04,0.74977
5975.25,0.74465
5969.47,0.74676
5963.68,0.74467
5957.89,0.74517
5952.11,0.74975
5946.32,0.74672
5940.54,0.74537
5934.75,0.74515
5928.96,0.74821
5923.18,0.74602
5917.39,0.74499
5911.6,0.74460
5905.82,0.74093
5900.03,0.74156
5894.25,0.73933
5888.46,0.73811
5882.67,0.73670
5876.89,0.74056
5871.1,0.73806
5865.31,0.73902
5859.53,0.73853
5853.74,0.73922
5847.96,0.73785
5842.17,0.73964
5836.38,0.74057
5830.6,0.74037
5824.81,0.73834
5819.02,0.73773
5813.24,0.73693
5807.45,0.73487
5801.67,0.73382
5795.88,0.73354
5790.09,0.73520
5784.31,0.73445
5778.52,0.73776
5772.73,0.74031
5766.95,0.74059
5761.16,0.73787
5755.38,0.73968
5749.59,0.73857
5743.8,0.73836
5738.02,0.73986
5732.23,0.73857
5726.44,0.74048
5720.66,0.74089
5714.87,0.74360
5709.09,0.73949
5703.3,0.73879
5697.51,0.74024
5691.73,0.74013
5685.94,0.74019
5680.15,0.74077
5674.37,0.74130
5668.58,0.74034
5662.8,0.73958
5657.01,0.74112
5651.22,0.74168
5645.44,0.73963
5639.65,0.73929
5633.87,0.74150
5628.08,0.74139
5622.29,0.74053
5616.51,0.74016
5610.72,0.73974
5604.93,0.74008
5599.15,0.73918
5593.36,0.73980
5587.58,0.74170
5581.79,0.73975
5576,0.74245
5570.22,0.74249
5564.43,0.74190
5558.64,0.74290
5552.86,0.74545
5547.07,0.74327
5541.29,0.74494
5535.5,0.74545
5529.71,0.74579
5523.93,0.74507
5518.14,0.74518
5512.35,0.74765
5506.57,0.74829
5500.78,0.74978
5495,0.74664
5489.21,0.74932
5483.42,0.74907
5477.64,0.74853
5471.85,0.75005
5466.06,0.75174
5460.28,0.74951
5454.49,0.75106
5448.71,0.75300
5442.92,0.75328
5437.13,0.75439
5431.35,0.75469
5425.56,0.75496
5419.77,0.75660
5413.99,0.75904
5408.2,0.75866
5402.42,0.75948
5396.63,0.75864
5390.84,0.76080
5385.06,0.76069
5379.27,0.75952
5373.48,0.75837
5367.7,0.76094
5361.91,0.75958
5356.13,0.75997
5350.34,0.75981
5344.55,0.75765
5338.77,0.75675
5332.98,0.75422
5327.19,0.75246
5321.41,0.74973
5315.62,0.74680
5309.84,0.74157
5304.05,0.73571
5298.26,0.73068
5292.48,0.72507
5286.69,0.71806
5280.9,0.70973
5275.12,0.70041
5269.33,0.69099
5263.55,0.68192
5257.76,0.67077
5251.97,0.66169
5246.19,0.65376
5240.4,0.64859
5234.61,0.64116
5228.83,0.63816
5223.04,0.63328
5217.26,0.63106
5211.47,0.62779
5205.68,0.62485
5199.9,0.62360
5194.11,0.62248
5188.32,0.62518
5182.54,0.62601
5176.75,0.62689
5170.97,0.62892
5165.18,0.63004
5159.39,0.63288
5153.61,0.63416
5147.82,0.63733
5142.03,0.64097
5136.25,0.64354
5130.46,0.64624
5124.68,0.64844
5118.89,0.65138
5113.1,0.65441
5107.32,0.65653
5101.53,0.65880
5095.75,0.66025
5089.96,0.66335
5084.17,0.66632
5078.39,0.66899
5072.6,0.67008
5066.81,0.67220
5061.03,0.67474
5055.24,0.67515
5049.46,0.67819
5043.67,0.68061
5037.88,0.68216
5032.1,0.68301
5026.31,0.68446
5020.52,0.68563
5014.74,0.68529
5008.95,0.68646
5003.17,0.68682
4997.38,0.68612
4991.59,0.68459
4985.81,0.68449
4980.02,0.68232
4974.23,0.68120
4968.45,0.67835
4962.66,0.67519
4956.88,0.67069
4951.09,0.66718
4945.3,0.66269
4939.52,0.65839
4933.73,0.65400
4927.94,0.64855
4922.16,0.64311
4916.37,0.63857
4910.59,0.63458
4904.8,0.62858
4899.01,0.62291
4893.23,0.61888
4887.44,0.61306
4881.65,0.60963
4875.87,0.60391
4870.08,0.60060
4864.3,0.59657
4858.51,0.59186
4852.72,0.58829
4846.94,0.58447
4841.15,0.58124
4835.36,0.57852
4829.58,0.57489
4823.79,0.57218
4818.01,0.56913
4812.22,0.56701
4806.43,0.56648
4800.65,0.56399
4794.86,0.56273
4789.07,0.56174
4783.29,0.56025
4777.5,0.55981
4771.72,0.56020
4765.93,0.55810
4760.14,0.55868
4754.36,0.55924
4748.57,0.55974
4742.78,0.55940
4737,0.55979
4731.21,0.55868
4725.43,0.55958
4719.64,0.55981
4713.85,0.56088
4708.07,0.56331
4702.28,0.56254
4696.49,0.56404
4690.71,0.56335
4684.92,0.56509
4679.14,0.56680
4673.35,0.56877
4667.56,0.56994
4661.78,0.57155
4655.99,0.57401
4650.2,0.57538
4644.42,0.57619
4638.63,0.57969
4632.85,0.58241
4627.06,0.58434
4621.27,0.58764
4615.49,0.59125
4609.7,0.59435
4603.92,0.59633
4598.13,0.59963
4592.34,0.60128
4586.56,0.60397
4580.77,0.60693
4574.98,0.60754
4569.2,0.60942
4563.41,0.61223
4557.63,0.61250
4551.84,0.61300
4546.05,0.61559
4540.27,0.61686
4534.48,0.61764
4528.69,0.61918
4522.91,0.61860
4517.12,0.61883
4511.34,0.61760
4505.55,0.61639
4499.76,0.61415
4493.98,0.61140
4488.19,0.60886
4482.4,0.60457
4476.62,0.59972
4470.83,0.59337
4465.05,0.58626
4459.26,0.57991
4453.47,0.57327
4447.69,0.56708
4441.9,0.56113
4436.11,0.55413
4430.33,0.54747
4424.54,0.54001
4418.76,0.53258
4412.97,0.52542
4407.18,0.52198
4401.4,0.51979
4395.61,0.51783
4389.82,0.51973
4384.04,0.52226
4378.25,0.52383
4372.47,0.52661
4366.68,0.52814
4360.89,0.53011
4355.11,0.53142
4349.32,0.53128
4343.53,0.53119
4337.75,0.52961
4331.96,0.52804
4326.18,0.52645
4320.39,0.52491
4314.6,0.52229
4308.82,0.52130
4303.03,0.51818
4297.24,0.51599
4291.46,0.51435
4285.67,0.51281
4279.89,0.51285
4274.1,0.51264
4268.31,0.51385
4262.53,0.51526
4256.74,0.51700
4250.95,0.51906
4245.17,0.51952
4239.38,0.52012
4233.6,0.51988
4227.81,0.52039
4222.02,0.52068
4216.24,0.52055
4210.45,0.52103
4204.66,0.52128
4198.88,0.52268
4193.09,0.52198
4187.31,0.52275
4181.52,0.52474
4175.73,0.52606
4169.95,0.52760
4164.16,0.52902
4158.37,0.52947
4152.59,0.52853
4146.8,0.52715
4141.02,0.52475
4135.23,0.52328
4129.44,0.52043
4123.66,0.51639
4117.87,0.51270
4112.09,0.50798
4106.3,0.50391
4100.51,0.49875
4094.73,0.49423
4088.94,0.48914
4083.15,0.48301
4077.37,0.47796
4071.58,0.47200
4065.8,0.46662
4060.01,0.46096
4054.22,0.45543
4048.44,0.45087
4042.65,0.44658
4036.86,0.44215
4031.08,0.43948
4025.29,0.43682
4019.51,0.43492
4013.72,0.43386
4007.93,0.43387
4002.15,0.43468
3996.36,0.43601
3990.57,0.43785
3984.79,0.43934
3979,0.44064
3973.22,0.44290
3967.43,0.44486
3961.64,0.44765
3955.86,0.45061
3950.07,0.45296
3944.28,0.45544
3938.5,0.45864
3932.71,0.46176
3926.93,0.46477
3921.14,0.46758
3915.35,0.47037
3909.57,0.47368
3903.78,0.47514
3897.99,0.47820
3892.21,0.48061
3886.42,0.48208
3880.64,0.48459
3874.85,0.48622
3869.06,0.48884
3863.28,0.49208
3857.49,0.49482
3851.7,0.49906
3845.92,0.50038
3840.13,0.50268
3834.35,0.50464
3828.56,0.50482
3822.77,0.50695
3816.99,0.50653
3811.2,0.50701
3805.41,0.50713
3799.63,0.50719
3793.84,0.50642
3788.06,0.50600
3782.27,0.50591
3776.48,0.50525
3770.7,0.50470
3764.91,0.50328
3759.12,0.50190
3753.34,0.49988
3747.55,0.49874
3741.77,0.49466
3735.98,0.49227
3730.19,0.48783
3724.41,0.48339
3718.62,0.47809
3712.83,0.47188
3707.05,0.46396
3701.26,0.45516
3695.48,0.44384
3689.69,0.43089
3683.9,0.41441
3678.12,0.39702
3672.33,0.37708
3666.54,0.35469
3660.76,0.33362
3654.97,0.31396
3649.19,0.29605
3643.4,0.27856
3637.61,0.26243
3631.83,0.24733
3626.04,0.23213
3620.25,0.21829
3614.47,0.20480
3608.68,0.19094
3602.9,0.17760
3597.11,0.16578
3591.32,0.15464
3585.54,0.14467
3579.75,0.13561
3573.97,0.12780
3568.18,0.12118
3562.39,0.11468
3556.61,0.10883
3550.82,0.10398
3545.03,0.09954
3539.25,0.09577
3533.46,0.09157
3527.68,0.08802
3521.89,0.08648
3516.1,0.08334
3510.32,0.08129
3504.53,0.07948
3498.74,0.07705
3492.96,0.07466
3487.17,0.07283
3481.39,0.07133
3475.6,0.06969
3469.81,0.06837
3464.03,0.06831
3458.24,0.06793
3452.45,0.06700
3446.67,0.06679
3440.88,0.06628
3435.1,0.06693
3429.31,0.06548
3423.52,0.06538
3417.74,0.06579
3411.95,0.06580
3406.16,0.06635
3400.38,0.06614
3394.59,0.06590
3388.81,0.06619
3383.02,0.06692
3377.23,0.06667
3371.45,0.06703
3365.66,0.06772
3359.87,0.06760
3354.09,0.06840
3348.3,0.06873
3342.52,0.07030
3336.73,0.07158
3330.94,0.07277
3325.16,0.07482
3319.37,0.07590
3313.58,0.07731
3307.8,0.07843
3302.01,0.07991
3296.23,0.08114
3290.44,0.08222
3284.65,0.08442
3278.87,0.08633
3273.08,0.08889
3267.29,0.09156
3261.51,0.09344
3255.72,0.09610
3249.94,0.09903
3244.15,0.10197
3238.36,0.10449
3232.58,0.10729
3226.79,0.11015
3221,0.11335
3215.22,0.11682
3209.43,0.12096
3203.65,0.12456
3197.86,0.12814
3192.07,0.13171
3186.29,0.13461
3180.5,0.13866
3174.71,0.14234
3168.93,0.14597
3163.14,0.14997
3157.36,0.15316
3151.57,0.15749
3145.78,0.16143
3140,0.16523
3134.21,0.16898
3128.42,0.17266
3122.64,0.17583
3116.85,0.17966
3111.07,0.18299
3105.28,0.18616
3099.49,0.18964
3093.71,0.19218
3087.92,0.19482
3082.14,0.19645
3076.35,0.19847
3070.56,0.20108
3064.78,0.20400
3058.99,0.20650
3053.2,0.20894
3047.42,0.21115
3041.63,0.21342
3035.85,0.21316
3030.06,0.21373
3024.27,0.21306
3018.49,0.21061
3012.7,0.20610
3006.91,0.20111
3001.13,0.19648
2995.34,0.19163
2989.56,0.18643
2983.77,0.17719
2977.98,0.16543
2972.2,0.15277
2966.41,0.14380
2960.62,0.13967
2954.84,0.13415
2949.05,0.12869
2943.27,0.12321
2937.48,0.11986
2931.69,0.11928
2925.91,0.11821
2920.12,0.11735
2914.33,0.11719
2908.55,0.11809
2902.76,0.11825
2896.98,0.11914
2891.19,0.12190
2885.4,0.12409
2879.62,0.12630
2873.83,0.12870
2868.04,0.13269
2862.26,0.13749
2856.47,0.14243
2850.69,0.14694
2844.9,0.15486
2839.11,0.16332
2833.33,0.17340
2827.54,0.18471
2821.75,0.19609
2815.97,0.20575
2810.18,0.21388
2804.4,0.22060
2798.61,0.22627
2792.82,0.23113
2787.04,0.23436
2781.25,0.23741
2775.46,0.23908
2769.68,0.24075
2763.89,0.24232
2758.11,0.24346
2752.32,0.24439
2746.53,0.24540
2740.75,0.24536
2734.96,0.24711
2729.17,0.24816
2723.39,0.25046
2717.6,0.25335
2711.82,0.25644
2706.03,0.25994
2700.24,0.26378
2694.46,0.26748
2688.67,0.27078
2682.88,0.27380
2677.1,0.27644
2671.31,0.27923
2665.53,0.28095
2659.74,0.28286
2653.95,0.28476
2648.17,0.28656
2642.38,0.28852
2636.59,0.29103
2630.81,0.29346
2625.02,0.29599
2619.24,0.29893
2613.45,0.30075
2607.66,0.30238
2601.88,0.30455
2596.09,0.30652
2590.3,0.30867
2584.52,0.31001
2578.73,0.31188
2572.95,0.31260
2567.16,0.31353
2561.37,0.31397
2555.59,0.31455
2549.8,0.31507
2544.02,0.31565
2538.23,0.31685
2532.44,0.31876
2526.66,0.32159
2520.87,0.32354
2515.08,0.32605
2509.3,0.32889
2503.51,0.33222
2497.73,0.33578
2491.94,0.33892
2486.15,0.34220
2480.37,0.34502
2474.58,0.34817
2468.79,0.35084
2463.01,0.35326
2457.22,0.35627
2451.44,0.35846
2445.65,0.36154
2439.86,0.36518
2434.08,0.36887
2428.29,0.37220
2422.5,0.37567
2416.72,0.38004
2410.93,0.38357
2405.15,0.38692
2399.36,0.39035
2393.57,0.39386
2387.79,0.39672
2382,0.39961
2376.21,0.40303
2370.43,0.40559
2364.64,0.40856
2358.86,0.41107
2353.07,0.41312
2347.28,0.41505
2341.5,0.41711
2335.71,0.41861
2329.92,0.41984
2324.14,0.42119
2318.35,0.42199
2312.57,0.42226
2306.78,0.42235
2300.99,0.42219
2295.21,0.42208
2289.42,0.42189
2283.63,0.42240
2277.85,0.42200
2272.06,0.42083
2266.28,0.41920
2260.49,0.41733
2254.7,0.41622
2248.92,0.41595
2243.13,0.41590
2237.34,0.41518
2231.56,0.41471
2225.77,0.41482
2219.99,0.41567
2214.2,0.41594
2208.41,0.41563
2202.63,0.41452
2196.84,0.41278
2191.05,0.41025
2185.27,0.40745
2179.48,0.40329
2173.7,0.39949
2167.91,0.39637
2162.12,0.39365
2156.34,0.39175
2150.55,0.39012
2144.76,0.38842
2138.98,0.38735
2133.19,0.38721
2127.41,0.38814
2121.62,0.38951
2115.83,0.39050
2110.05,0.39205
2104.26,0.39362
2098.47,0.39495
2092.69,0.39576
2086.9,0.39586
2081.12,0.39509
2075.33,0.39377
2069.54,0.39145
2063.76,0.39051
2057.97,0.38979
2052.19,0.39010
2046.4,0.39123
2040.61,0.39339
2034.83,0.39695
2029.04,0.40021
2023.25,0.40416
2017.47,0.40817
2011.68,0.41170
2005.9,0.41447
2000.11,0.41640
1994.32,0.41931
1988.54,0.42166
1982.75,0.42338
1976.96,0.42518
1971.18,0.42677
1965.39,0.42892
1959.61,0.43146
1953.82,0.43460
1948.03,0.43788
1942.25,0.44082
1936.46,0.44382
1930.67,0.44554
1924.89,0.44660
1919.1,0.44766
1913.32,0.44816
1907.53,0.44769
1901.74,0.44653
1895.96,0.44554
1890.17,0.44433
1884.38,0.44297
1878.6,0.44156
1872.81,0.44057
1867.03,0.43962
1861.24,0.43832
1855.45,0.43681
1849.67,0.43448
1843.88,0.43203
1838.09,0.42832
1832.31,0.42416
1826.52,0.41899
1820.74,0.41142
1814.95,0.40046
1809.16,0.38356
1803.38,0.36055
1797.59,0.33333
1791.8,0.30849
1786.02,0.28656
1780.23,0.27029
1774.45,0.25685
1768.66,0.24134
1762.87,0.22252
1757.09,0.20216
1751.3,0.18567
1745.51,0.17563
1739.73,0.17221
1733.94,0.17540
1728.16,0.18223
1722.37,0.19186
1716.58,0.20418
1710.8,0.21457
1705.01,0.22207
1699.22,0.22472
1693.44,0.21958
1687.65,0.21135
1681.87,0.19754
1676.08,0.18196
1670.29,0.16733
1664.51,0.15873
1658.72,0.15777
1652.93,0.16264
1647.15,0.16501
1641.36,0.16472
1635.58,0.16464
1629.79,0.16328
1624,0.15925
1618.22,0.15280
1612.43,0.14389
1606.64,0.13735
1600.86,0.13580
1595.07,0.13640
1589.29,0.14153
1583.5,0.15416
1577.71,0.17460
1571.93,0.19909
1566.14,0.21633
1560.35,0.22426
1554.57,0.22352
1548.78,0.21764
1543,0.21007
1537.21,0.19628
1531.42,0.17325
1525.64,0.14020
1519.85,0.10301
1514.07,0.08368
1508.28,0.08602
1502.49,0.09915
1496.71,0.11512
1490.92,0.12406
1485.13,0.12208
1479.35,0.11426
1473.56,0.10088
1467.78,0.08789
1461.99,0.08520
1456.2,0.08561
1450.42,0.08601
1444.63,0.08976
1438.84,0.08706
1433.06,0.08136
1427.27,0.08025
1421.49,0.08382
1415.7,0.08926
1409.91,0.09403
1404.13,0.09623
1398.34,0.09553
1392.55,0.09186
1386.77,0.08589
1380.98,0.07957
1375.2,0.07726
1369.41,0.07856
1363.62,0.08133
1357.84,0.08443
1352.05,0.08647
1346.26,0.08617
1340.48,0.08396
1334.69,0.08299
1328.91,0.08330
1323.12,0.08189
1317.33,0.08210
1311.55,0.08406
1305.76,0.08629
1299.97,0.08673
1294.19,0.08406
1288.4,0.07963
1282.62,0.07473
1276.83,0.07216
1271.04,0.07133
1265.26,0.07428
1259.47,0.07748
1253.68,0.08072
1247.9,0.08194
1242.11,0.08207
1236.33,0.08097
1230.54,0.08122
1224.75,0.08276
1218.97,0.08420
1213.18,0.08501
1207.39,0.08620
1201.61,0.08909
1195.82,0.09284
1190.04,0.09261
1184.25,0.08819
1178.46,0.08080
1172.68,0.07234
1166.89,0.07001
1161.1,0.07324
1155.32,0.07532
1149.53,0.07457
1143.75,0.07280
1137.96,0.07042
1132.17,0.06680
1126.39,0.06550
1120.6,0.06657
1114.81,0.06659
1109.03,0.06948
1103.24,0.07191
1097.46,0.07276
1091.67,0.07244
1085.88,0.07303
1080.1,0.07527
1074.31,0.07929
1068.52,0.08430
1062.74,0.09341
1056.95,0.10153
1051.17,0.10309
1045.38,0.10157
1039.59,0.10298
1033.81,0.11107
1028.02,0.11515
1022.24,0.11841
1016.45,0.12208
1010.66,0.12642
1004.88,0.12851
999.09,0.13367
993.304,0.13981
987.518,0.14763
981.731,0.16202
975.945,0.17530
970.159,0.18328
964.373,0.19172
958.586,0.20321
952.8,0.21553
947.014,0.22369
941.228,0.22989
935.441,0.23667
929.655,0.24329
923.869,0.24825
918.083,0.24879
912.297,0.24348
906.51,0.23381
900.724,0.22450
894.938,0.22540
889.152,0.23719
883.365,0.24579
877.579,0.24843
871.793,0.25069
866.007,0.25337
860.22,0.25716
854.434,0.26429
848.648,0.27374
842.862,0.28000
837.075,0.27743
831.289,0.27044
825.503,0.26334
819.717,0.25421
813.931,0.24648
808.144,0.24515
802.358,0.25008
796.572,0.25605
790.786,0.26064
784.999,0.25771
779.213,0.25201
773.427,0.24519
767.641,0.24085
761.854,0.23685
756.068,0.23189
750.282,0.22669
744.496,0.22043
738.709,0.21600
732.923,0.20771
727.137,0.19880
721.351,0.19332
715.565,0.18891
709.778,0.18446
703.992,0.18023
698.206,0.17448
692.42,0.17101
686.633,0.16365
680.847,0.15504
675.061,0.14399
669.275,0.14228
663.488,0.14454
657.702,0.14566
651.916,0.14422
646.13,0.14123
640.343,0.13735
634.557,0.13189
628.771,0.12618
622.985,0.12518
617.198,0.12438
611.412,0.12781
605.626,0.13086
599.84,0.12987