File: 01_Data/Cedar_Shingle/FTIR/IS/Cedar_Shingle_IS_S_221017_R8.dpt
7497.03,0.88771
7491.25,0.88517
7485.46,0.88670
7479.67,0.88472
7473.89,0.89591
7468.1,0.87847
7462.32,0.86925
7456.53,0.86860
7450.74,0.88110
7444.96,0.88862
7439.17,0.87667
7433.38,0.85851
7427.6,0.86410
7421.81,0.86005
7416.03,0.86230
7410.24,0.86117
7404.45,0.85641
7398.67,0.85705
7392.88,0.85577
7387.09,0.86042
7381.31,0.85753
7375.52,0.85732
7369.74,0.85404
7363.95,0.84854
7358.16,0.84650
7352.38,0.84487
7346.59,0.84300
7340.8,0.84740
7335.02,0.84092
7329.23,0.83759
7323.45,0.84032
7317.66,0.83597
7311.87,0.83749
7306.09,0.83596
7300.3,0.83605
7294.51,0.83030
7288.73,0.83506
7282.94,0.82744
7277.16,0.83575
7271.37,0.83406
7265.58,0.82598
7259.8,0.82781
7254.01,0.83572
7248.22,0.82286
7242.44,0.82657
7236.65,0.83077
7230.87,0.83227
7225.08,0.83135
7219.29,0.82840
7213.51,0.82649
7207.72,0.82202
7201.93,0.81822
7196.15,0.81401
7190.36,0.82167
7184.58,0.82454
7178.79,0.81325
7173,0.82030
7167.22,0.81164
7161.43,0.81624
7155.65,0.81824
7149.86,0.81311
7144.07,0.81041
7138.29,0.80665
7132.5,0.79753
7126.71,0.79833
7120.93,0.79725
7115.14,0.79054
7109.36,0.77369
7103.57,0.77829
7097.78,0.77420
7092,0.77194
7086.21,0.76844
7080.42,0.76409
7074.64,0.75880
7068.85,0.75137
7063.07,0.75098
7057.28,0.74345
7051.49,0.74197
7045.71,0.73669
7039.92,0.72815
7034.13,0.73005
7028.35,0.72129
7022.56,0.71428
7016.78,0.71232
7010.99,0.71059
7005.2,0.70341
6999.42,0.70262
6993.63,0.70199
6987.84,0.70031
6982.06,0.70106
6976.27,0.70298
6970.49,0.69750
6964.7,0.69204
6958.91,0.69397
6953.13,0.69680
6947.34,0.69403
6941.55,0.69562
6935.77,0.68319
6929.98,0.69130
6924.2,0.69363
6918.41,0.68963
6912.62,0.69146
6906.84,0.69016
6901.05,0.68796
6895.26,0.69001
6889.48,0.69023
6883.69,0.69001
6877.91,0.68783
6872.12,0.69137
6866.33,0.68833
6860.55,0.68706
6854.76,0.69466
6848.97,0.68922
6843.19,0.69234
6837.4,0.68609
6831.62,0.68785
6825.83,0.68924
6820.04,0.68273
6814.26,0.68759
6808.47,0.68795
6802.68,0.69241
6796.9,0.68603
6791.11,0.68773
6785.33,0.68797
6779.54,0.69062
6773.75,0.69078
6767.97,0.69001
6762.18,0.68878
6756.39,0.68931
6750.61,0.69230
6744.82,0.69161
6739.04,0.69107
6733.25,0.69278
6727.46,0.69026
6721.68,0.69267
6715.89,0.69340
6710.1,0.69029
6704.32,0.69409
6698.53,0.69628
6692.75,0.69552
6686.96,0.70043
6681.17,0.70071
6675.39,0.69561
6669.6,0.69748
6663.82,0.70025
6658.03,0.69995
6652.24,0.70040
6646.46,0.70630
6640.67,0.70446
6634.88,0.70619
6629.1,0.70407
6623.31,0.70284
6617.53,0.70439
6611.74,0.70743
6605.95,0.70846
6600.17,0.71238
6594.38,0.70813
6588.59,0.70908
6582.81,0.71423
6577.02,0.71314
6571.24,0.71564
6565.45,0.71652
6559.66,0.71659
6553.88,0.71486
6548.09,0.71452
6542.3,0.71902
6536.52,0.71843
6530.73,0.72048
6524.95,0.71535
6519.16,0.71995
6513.37,0.71781
6507.59,0.71857
6501.8,0.71412
6496.01,0.71595
6490.23,0.71896
6484.44,0.72227
6478.66,0.72070
6472.87,0.71957
6467.08,0.71781
6461.3,0.71970
6455.51,0.72266
6449.72,0.72109
6443.94,0.72174
6438.15,0.72551
6432.37,0.72469
6426.58,0.72458
6420.79,0.72113
6415.01,0.72779
6409.22,0.72353
6403.43,0.72454
6397.65,0.72500
6391.86,0.72417
6386.08,0.72227
6380.29,0.72537
6374.5,0.72427
6368.72,0.72413
6362.93,0.73012
6357.14,0.72705
6351.36,0.72697
6345.57,0.72937
6339.79,0.72758
6334,0.72694
6328.21,0.72934
6322.43,0.73081
6316.64,0.73305
6310.85,0.72740
6305.07,0.73336
6299.28,0.73099
6293.5,0.73199
6287.71,0.73421
6281.92,0.73501
6276.14,0.73334
6270.35,0.73426
6264.56,0.73946
6258.78,0.74040
6252.99,0.74357
6247.21,0.74277
6241.42,0.74447
6235.63,0.74705
6229.85,0.74805
6224.06,0.74849
6218.27,0.74973
6212.49,0.75393
6206.7,0.75049
6200.92,0.75529
6195.13,0.75395
6189.34,0.75554
6183.56,0.75649
6177.77,0.76006
6171.98,0.76187
6166.2,0.76127
6160.41,0.76540
6154.63,0.76425
6148.84,0.76426
6143.05,0.76467
6137.27,0.76803
6131.48,0.76737
6125.7,0.76695
6119.91,0.76932
6114.12,0.77187
6108.34,0.76888
6102.55,0.77079
6096.76,0.77326
6090.98,0.77105
6085.19,0.76973
6079.41,0.77061
6073.62,0.77269
6067.83,0.77047
6062.05,0.76772
6056.26,0.76522
6050.47,0.76962
6044.69,0.76786
6038.9,0.76506
6033.12,0.76064
6027.33,0.76345
6021.54,0.76074
6015.76,0.75899
6009.97,0.75771
6004.18,0.75601
5998.4,0.75304
5992.61,0.75310
5986.83,0.75052
5981.04,0.74881
5975.25,0.74788
5969.47,0.74642
5963.68,0.74892
5957.89,0.74662
5952.11,0.74641
5946.32,0.74673
5940.54,0.74713
5934.75,0.74722
5928.96,0.74855
5923.18,0.74474
5917.39,0.74420
5911.6,0.74402
5905.82,0.74001
5900.03,0.73995
5894.25,0.73860
5888.46,0.74217
5882.67,0.73852
5876.89,0.73784
5871.1,0.74016
5865.31,0.73819
5859.53,0.73954
5853.74,0.74043
5847.96,0.74228
5842.17,0.74161
5836.38,0.74025
5830.6,0.74034
5824.81,0.74106
5819.02,0.73883
5813.24,0.73634
5807.45,0.73390
5801.67,0.73551
5795.88,0.73629
5790.09,0.73878
5784.31,0.73783
5778.52,0.73906
5772.73,0.74005
5766.95,0.74106
5761.16,0.74051
5755.38,0.73938
5749.59,0.74067
5743.8,0.74245
5738.02,0.74231
5732.23,0.74059
5726.44,0.74110
5720.66,0.74200
5714.87,0.74151
5709.09,0.74129
5703.3,0.74243
5697.51,0.74080
5691.73,0.73904
5685.94,0.74214
5680.15,0.73981
5674.37,0.74108
5668.58,0.74141
5662.8,0.74126
5657.01,0.74160
5651.22,0.73998
5645.44,0.74144
5639.65,0.73955
5633.87,0.74008
5628.08,0.74113
5622.29,0.73993
5616.51,0.74128
5610.72,0.74132
5604.93,0.74053
5599.15,0.74256
5593.36,0.74170
5587.58,0.73965
5581.79,0.74347
5576,0.74275
5570.22,0.74201
5564.43,0.74289
5558.64,0.74614
5552.86,0.74616
5547.07,0.74658
5541.29,0.74567
5535.5,0.74768
5529.71,0.74572
5523.93,0.74888
5518.14,0.74778
5512.35,0.74724
5506.57,0.74762
5500.78,0.74827
5495,0.74749
5489.21,0.74968
5483.42,0.74981
5477.64,0.75139
5471.85,0.75079
5466.06,0.74990
5460.28,0.75223
5454.49,0.75073
5448.71,0.75339
5442.92,0.75408
5437.13,0.75447
5431.35,0.75565
5425.56,0.75823
5419.77,0.75798
5413.99,0.76025
5408.2,0.76179
5402.42,0.76112
5396.63,0.76094
5390.84,0.76021
5385.06,0.75970
5379.27,0.76134
5373.48,0.76233
5367.7,0.76258
5361.91,0.76036
5356.13,0.76029
5350.34,0.76026
5344.55,0.75906
5338.77,0.75888
5332.98,0.75555
5327.19,0.75367
5321.41,0.75164
5315.62,0.74879
5309.84,0.74397
5304.05,0.73839
5298.26,0.73279
5292.48,0.72724
5286.69,0.71974
5280.9,0.70986
5275.12,0.70189
5269.33,0.69279
5263.55,0.68438
5257.76,0.67356
5251.97,0.66470
5246.19,0.65768
5240.4,0.65112
5234.61,0.64430
5228.83,0.63977
5223.04,0.63541
5217.26,0.63181
5211.47,0.63191
5205.68,0.62993
5199.9,0.62860
5194.11,0.62725
5188.32,0.62722
5182.54,0.62697
5176.75,0.62813
5170.97,0.63073
5165.18,0.63292
5159.39,0.63344
5153.61,0.63645
5147.82,0.63991
5142.03,0.64226
5136.25,0.64446
5130.46,0.64745
5124.68,0.65047
5118.89,0.65345
5113.1,0.65553
5107.32,0.65612
5101.53,0.65809
5095.75,0.66119
5089.96,0.66704
5084.17,0.66942
5078.39,0.67006
5072.6,0.67221
5066.81,0.67481
5061.03,0.67605
5055.24,0.67834
5049.46,0.67967
5043.67,0.68141
5037.88,0.68331
5032.1,0.68429
5026.31,0.68621
5020.52,0.68765
5014.74,0.68799
5008.95,0.68787
5003.17,0.68789
4997.38,0.68779
4991.59,0.68654
4985.81,0.68561
4980.02,0.68374
4974.23,0.68198
4968.45,0.67969
4962.66,0.67766
4956.88,0.67314
4951.09,0.66964
4945.3,0.66480
4939.52,0.66026
4933.73,0.65597
4927.94,0.64984
4922.16,0.64454
4916.37,0.63825
4910.59,0.63462
4904.8,0.63022
4899.01,0.62417
4893.23,0.61992
4887.44,0.61557
4881.65,0.61043
4875.87,0.60555
4870.08,0.60046
4864.3,0.59750
4858.51,0.59199
4852.72,0.58943
4846.94,0.58627
4841.15,0.58160
4835.36,0.57910
4829.58,0.57609
4823.79,0.57288
4818.01,0.57049
4812.22,0.56829
4806.43,0.56654
4800.65,0.56462
4794.86,0.56434
4789.07,0.56228
4783.29,0.56040
4777.5,0.56029
4771.72,0.56046
4765.93,0.56015
4760.14,0.56020
4754.36,0.55953
4748.57,0.55896
4742.78,0.55918
4737,0.55986
4731.21,0.55972
4725.43,0.56090
4719.64,0.56178
4713.85,0.56335
4708.07,0.56318
4702.28,0.56337
4696.49,0.56522
4690.71,0.56649
4684.92,0.56610
4679.14,0.56671
4673.35,0.56732
4667.56,0.57000
4661.78,0.57129
4655.99,0.57398
4650.2,0.57728
4644.42,0.57898
4638.63,0.57986
4632.85,0.58286
4627.06,0.58530
4621.27,0.58879
4615.49,0.59097
4609.7,0.59456
4603.92,0.59757
4598.13,0.60091
4592.34,0.60316
4586.56,0.60533
4580.77,0.60729
4574.98,0.60909
4569.2,0.61117
4563.41,0.61221
4557.63,0.61357
4551.84,0.61457
4546.05,0.61624
4540.27,0.61648
4534.48,0.61809
4528.69,0.61883
4522.91,0.61862
4517.12,0.61923
4511.34,0.61930
4505.55,0.61762
4499.76,0.61573
4493.98,0.61272
4488.19,0.60997
4482.4,0.60576
4476.62,0.60083
4470.83,0.59437
4465.05,0.58782
4459.26,0.58144
4453.47,0.57435
4447.69,0.56869
4441.9,0.56151
4436.11,0.55492
4430.33,0.54801
4424.54,0.54035
4418.76,0.53309
4412.97,0.52679
4407.18,0.52287
4401.4,0.52061
4395.61,0.51973
4389.82,0.52080
4384.04,0.52212
4378.25,0.52446
4372.47,0.52682
4366.68,0.52985
4360.89,0.53184
4355.11,0.53308
4349.32,0.53140
4343.53,0.53150
4337.75,0.53063
4331.96,0.52945
4326.18,0.52665
4320.39,0.52487
4314.6,0.52319
4308.82,0.52189
4303.03,0.51933
4297.24,0.51698
4291.46,0.51545
4285.67,0.51367
4279.89,0.51351
4274.1,0.51340
4268.31,0.51475
4262.53,0.51591
4256.74,0.51842
4250.95,0.51924
4245.17,0.52049
4239.38,0.52103
4233.6,0.52197
4227.81,0.52152
4222.02,0.52192
4216.24,0.52163
4210.45,0.52108
4204.66,0.52246
4198.88,0.52331
4193.09,0.52372
4187.31,0.52383
4181.52,0.52529
4175.73,0.52718
4169.95,0.52846
4164.16,0.52962
4158.37,0.53019
4152.59,0.53016
4146.8,0.52781
4141.02,0.52683
4135.23,0.52384
4129.44,0.52107
4123.66,0.51736
4117.87,0.51369
4112.09,0.50896
4106.3,0.50434
4100.51,0.49917
4094.73,0.49510
4088.94,0.48956
4083.15,0.48456
4077.37,0.47906
4071.58,0.47396
4065.8,0.46773
4060.01,0.46175
4054.22,0.45606
4048.44,0.45094
4042.65,0.44701
4036.86,0.44334
4031.08,0.43996
4025.29,0.43769
4019.51,0.43608
4013.72,0.43475
4007.93,0.43533
4002.15,0.43600
3996.36,0.43683
3990.57,0.43923
3984.79,0.44064
3979,0.44194
3973.22,0.44308
3967.43,0.44572
3961.64,0.44876
3955.86,0.45143
3950.07,0.45331
3944.28,0.45587
3938.5,0.45925
3932.71,0.46286
3926.93,0.46587
3921.14,0.46914
3915.35,0.47174
3909.57,0.47367
3903.78,0.47621
3897.99,0.47833
3892.21,0.48083
3886.42,0.48361
3880.64,0.48553
3874.85,0.48677
3869.06,0.48998
3863.28,0.49316
3857.49,0.49529
3851.7,0.49945
3845.92,0.50124
3840.13,0.50401
3834.35,0.50582
3828.56,0.50641
3822.77,0.50785
3816.99,0.50790
3811.2,0.50790
3805.41,0.50741
3799.63,0.50722
3793.84,0.50714
3788.06,0.50760
3782.27,0.50698
3776.48,0.50633
3770.7,0.50560
3764.91,0.50395
3759.12,0.50326
3753.34,0.50178
3747.55,0.49971
3741.77,0.49609
3735.98,0.49344
3730.19,0.48873
3724.41,0.48489
3718.62,0.47910
3712.83,0.47355
3707.05,0.46598
3701.26,0.45683
3695.48,0.44495
3689.69,0.43315
3683.9,0.41653
3678.12,0.39830
3672.33,0.37776
3666.54,0.35662
3660.76,0.33641
3654.97,0.31634
3649.19,0.29812
3643.4,0.28031
3637.61,0.26401
3631.83,0.24896
3626.04,0.23403
3620.25,0.21941
3614.47,0.20573
3608.68,0.19192
3602.9,0.17937
3597.11,0.16702
3591.32,0.15540
3585.54,0.14558
3579.75,0.13611
3573.97,0.12869
3568.18,0.12128
3562.39,0.11480
3556.61,0.10915
3550.82,0.10487
3545.03,0.09927
3539.25,0.09584
3533.46,0.09201
3527.68,0.08921
3521.89,0.08648
3516.1,0.08297
3510.32,0.08068
3504.53,0.07843
3498.74,0.07659
3492.96,0.07466
3487.17,0.07284
3481.39,0.07153
3475.6,0.07041
3469.81,0.06892
3464.03,0.06877
3458.24,0.06765
3452.45,0.06712
3446.67,0.06587
3440.88,0.06626
3435.1,0.06618
3429.31,0.06582
3423.52,0.06651
3417.74,0.06614
3411.95,0.06625
3406.16,0.06646
3400.38,0.06602
3394.59,0.06625
3388.81,0.06699
3383.02,0.06639
3377.23,0.06653
3371.45,0.06692
3365.66,0.06753
3359.87,0.06787
3354.09,0.06857
3348.3,0.06970
3342.52,0.06972
3336.73,0.07198
3330.94,0.07293
3325.16,0.07475
3319.37,0.07599
3313.58,0.07780
3307.8,0.07898
3302.01,0.07993
3296.23,0.08162
3290.44,0.08245
3284.65,0.08416
3278.87,0.08630
3273.08,0.08849
3267.29,0.09135
3261.51,0.09352
3255.72,0.09658
3249.94,0.09926
3244.15,0.10194
3238.36,0.10419
3232.58,0.10791
3226.79,0.11085
3221,0.11422
3215.22,0.11785
3209.43,0.12093
3203.65,0.12479
3197.86,0.12894
3192.07,0.13229
3186.29,0.13520
3180.5,0.13947
3174.71,0.14275
3168.93,0.14679
3163.14,0.15053
3157.36,0.15439
3151.57,0.15823
3145.78,0.16191
3140,0.16555
3134.21,0.16927
3128.42,0.17308
3122.64,0.17684
3116.85,0.18081
3111.07,0.18430
3105.28,0.18724
3099.49,0.19053
3093.71,0.19317
3087.92,0.19509
3082.14,0.19706
3076.35,0.19993
3070.56,0.20214
3064.78,0.20423
3058.99,0.20658
3053.2,0.21006
3047.42,0.21226
3041.63,0.21309
3035.85,0.21434
3030.06,0.21426
3024.27,0.21326
3018.49,0.21086
3012.7,0.20709
3006.91,0.20109
3001.13,0.19673
2995.34,0.19246
2989.56,0.18668
2983.77,0.17748
2977.98,0.16471
2972.2,0.15313
2966.41,0.14446
2960.62,0.13972
2954.84,0.13459
2949.05,0.12850
2943.27,0.12310
2937.48,0.12004
2931.69,0.11960
2925.91,0.11880
2920.12,0.11758
2914.33,0.11723
2908.55,0.11767
2902.76,0.11851
2896.98,0.11932
2891.19,0.12213
2885.4,0.12442
2879.62,0.12620
2873.83,0.12931
2868.04,0.13289
2862.26,0.13758
2856.47,0.14286
2850.69,0.14737
2844.9,0.15473
2839.11,0.16321
2833.33,0.17346
2827.54,0.18514
2821.75,0.19633
2815.97,0.20607
2810.18,0.21468
2804.4,0.22102
2798.61,0.22702
2792.82,0.23172
2787.04,0.23482
2781.25,0.23762
2775.46,0.23953
2769.68,0.24162
2763.89,0.24300
2758.11,0.24450
2752.32,0.24542
2746.53,0.24584
2740.75,0.24574
2734.96,0.24678
2729.17,0.24873
2723.39,0.25066
2717.6,0.25359
2711.82,0.25709
2706.03,0.26077
2700.24,0.26451
2694.46,0.26764
2688.67,0.27075
2682.88,0.27447
2677.1,0.27732
2671.31,0.27961
2665.53,0.28171
2659.74,0.28318
2653.95,0.28493
2648.17,0.28690
2642.38,0.28900
2636.59,0.29124
2630.81,0.29388
2625.02,0.29663
2619.24,0.29864
2613.45,0.30119
2607.66,0.30306
2601.88,0.30495
2596.09,0.30708
2590.3,0.30925
2584.52,0.31108
2578.73,0.31231
2572.95,0.31361
2567.16,0.31416
2561.37,0.31460
2555.59,0.31534
2549.8,0.31612
2544.02,0.31663
2538.23,0.31785
2532.44,0.31964
2526.66,0.32224
2520.87,0.32428
2515.08,0.32640
2509.3,0.32921
2503.51,0.33265
2497.73,0.33682
2491.94,0.34046
2486.15,0.34267
2480.37,0.34562
2474.58,0.34896
2468.79,0.35172
2463.01,0.35413
2457.22,0.35692
2451.44,0.35933
2445.65,0.36300
2439.86,0.36573
2434.08,0.36913
2428.29,0.37313
2422.5,0.37655
2416.72,0.38016
2410.93,0.38425
2405.15,0.38775
2399.36,0.39103
2393.57,0.39480
2387.79,0.39761
2382,0.40074
2376.21,0.40386
2370.43,0.40705
2364.64,0.40965
2358.86,0.41154
2353.07,0.41378
2347.28,0.41590
2341.5,0.41824
2335.71,0.41960
2329.92,0.42094
2324.14,0.42202
2318.35,0.42258
2312.57,0.42308
2306.78,0.42346
2300.99,0.42315
2295.21,0.42292
2289.42,0.42298
2283.63,0.42304
2277.85,0.42320
2272.06,0.42180
2266.28,0.42033
2260.49,0.41822
2254.7,0.41736
2248.92,0.41675
2243.13,0.41627
2237.34,0.41602
2231.56,0.41560
2225.77,0.41588
2219.99,0.41655
2214.2,0.41722
2208.41,0.41679
2202.63,0.41608
2196.84,0.41405
2191.05,0.41099
2185.27,0.40822
2179.48,0.40451
2173.7,0.40063
2167.91,0.39745
2162.12,0.39451
2156.34,0.39250
2150.55,0.39091
2144.76,0.38938
2138.98,0.38858
2133.19,0.38832
2127.41,0.38907
2121.62,0.39044
2115.83,0.39207
2110.05,0.39311
2104.26,0.39447
2098.47,0.39570
2092.69,0.39630
2086.9,0.39679
2081.12,0.39628
2075.33,0.39469
2069.54,0.39239
2063.76,0.39144
2057.97,0.39063
2052.19,0.39093
2046.4,0.39219
2040.61,0.39437
2034.83,0.39775
2029.04,0.40175
2023.25,0.40558
2017.47,0.40951
2011.68,0.41315
2005.9,0.41532
2000.11,0.41756
1994.32,0.41994
1988.54,0.42174
1982.75,0.42445
1976.96,0.42601
1971.18,0.42810
1965.39,0.43021
1959.61,0.43275
1953.82,0.43570
1948.03,0.43906
1942.25,0.44238
1936.46,0.44467
1930.67,0.44664
1924.89,0.44768
1919.1,0.44852
1913.32,0.44899
1907.53,0.44835
1901.74,0.44776
1895.96,0.44630
1890.17,0.44532
1884.38,0.44387
1878.6,0.44303
1872.81,0.44185
1867.03,0.44082
1861.24,0.43906
1855.45,0.43758
1849.67,0.43544
1843.88,0.43293
1838.09,0.42967
1832.31,0.42524
1826.52,0.42011
1820.74,0.41245
1814.95,0.40128
1809.16,0.38449
1803.38,0.36115
1797.59,0.33384
1791.8,0.30851
1786.02,0.28686
1780.23,0.27050
1774.45,0.25720
1768.66,0.24142
1762.87,0.22322
1757.09,0.20244
1751.3,0.18603
1745.51,0.17585
1739.73,0.17265
1733.94,0.17587
1728.16,0.18260
1722.37,0.19225
1716.58,0.20454
1710.8,0.21533
1705.01,0.22319
1699.22,0.22519
1693.44,0.21995
1687.65,0.21203
1681.87,0.19826
1676.08,0.18246
1670.29,0.16787
1664.51,0.15949
1658.72,0.15852
1652.93,0.16324
1647.15,0.16643
1641.36,0.16565
1635.58,0.16545
1629.79,0.16398
1624,0.15953
1618.22,0.15322
1612.43,0.14435
1606.64,0.13788
1600.86,0.13619
1595.07,0.13696
1589.29,0.14123
1583.5,0.15458
1577.71,0.17525
1571.93,0.19952
1566.14,0.21779
1560.35,0.22558
1554.57,0.22450
1548.78,0.21769
1543,0.21014
1537.21,0.19646
1531.42,0.17374
1525.64,0.14032
1519.85,0.10262
1514.07,0.08356
1508.28,0.08557
1502.49,0.09903
1496.71,0.11543
1490.92,0.12397
1485.13,0.12197
1479.35,0.11435
1473.56,0.10084
1467.78,0.08794
1461.99,0.08560
1456.2,0.08550
1450.42,0.08601
1444.63,0.08945
1438.84,0.08776
1433.06,0.08208
1427.27,0.08066
1421.49,0.08383
1415.7,0.08957
1409.91,0.09408
1404.13,0.09654
1398.34,0.09573
1392.55,0.09185
1386.77,0.08607
1380.98,0.07982
1375.2,0.07733
1369.41,0.07892
1363.62,0.08173
1357.84,0.08415
1352.05,0.08633
1346.26,0.08634
1340.48,0.08374
1334.69,0.08294
1328.91,0.08314
1323.12,0.08168
1317.33,0.08140
1311.55,0.08427
1305.76,0.08695
1299.97,0.08731
1294.19,0.08425
1288.4,0.07994
1282.62,0.07489
1276.83,0.07202
1271.04,0.07213
1265.26,0.07407
1259.47,0.07770
1253.68,0.08069
1247.9,0.08197
1242.11,0.08196
1236.33,0.08181
1230.54,0.08131
1224.75,0.08250
1218.97,0.08395
1213.18,0.08528
1207.39,0.08678
1201.61,0.08960
1195.82,0.09292
1190.04,0.09280
1184.25,0.08840
1178.46,0.08092
1172.68,0.07235
1166.89,0.07032
1161.1,0.07349
1155.32,0.07523
1149.53,0.07445
1143.75,0.07304
1137.96,0.07025
1132.17,0.06709
1126.39,0.06513
1120.6,0.06553
1114.81,0.06627
1109.03,0.06939
1103.24,0.07194
1097.46,0.07242
1091.67,0.07284
1085.88,0.07263
1080.1,0.07549
1074.31,0.07971
1068.52,0.08410
1062.74,0.09313
1056.95,0.10216
1051.17,0.10288
1045.38,0.10127
1039.59,0.10269
1033.81,0.10974
1028.02,0.11551
1022.24,0.11843
1016.45,0.12233
1010.66,0.12652
1004.88,0.12868
999.09,0.13356
993.304,0.13908
987.518,0.14709
981.731,0.16250
975.945,0.17602
970.159,0.18322
964.373,0.19189
958.586,0.20430
952.8,0.21547
947.014,0.22375
941.228,0.23062
935.441,0.23678
929.655,0.24368
923.869,0.24916
918.083,0.24934
912.297,0.24367
906.51,0.23434
900.724,0.22461
894.938,0.22544
889.152,0.23750
883.365,0.24578
877.579,0.24933
871.793,0.25170
866.007,0.25396
860.22,0.25746
854.434,0.26439
848.648,0.27460
842.862,0.28016
837.075,0.27779
831.289,0.27063
825.503,0.26356
819.717,0.25530
813.931,0.24622
808.144,0.24464
802.358,0.25139
796.572,0.25749
790.786,0.26076
784.999,0.25879
779.213,0.25235
773.427,0.24559
767.641,0.24117
761.854,0.23694
756.068,0.23315
750.282,0.22670
744.496,0.22103
738.709,0.21568
732.923,0.20870
727.137,0.20084
721.351,0.19379
715.565,0.18886
709.778,0.18536
703.992,0.18002
698.206,0.17602
692.42,0.17019
686.633,0.16404
680.847,0.15560
675.061,0.14536
669.275,0.14228
663.488,0.14414
657.702,0.14547
651.916,0.14441
646.13,0.14265
640.343,0.13735
634.557,0.13256
628.771,0.12708
622.985,0.12285
617.198,0.12335
611.412,0.12681
605.626,0.12779
599.84,0.12951