File: 01_Data/Cedar_Shingle/FTIR/IS/Cedar_Shingle_IS_S_221017_R6.dpt
7497.03,0.89022
7491.25,0.88930
7485.46,0.88207
7479.67,0.88677
7473.89,0.89496
7468.1,0.87939
7462.32,0.88166
7456.53,0.87366
7450.74,0.88275
7444.96,0.87541
7439.17,0.86306
7433.38,0.86578
7427.6,0.86886
7421.81,0.86249
7416.03,0.87733
7410.24,0.86082
7404.45,0.86226
7398.67,0.86487
7392.88,0.85531
7387.09,0.85700
7381.31,0.86522
7375.52,0.85790
7369.74,0.85199
7363.95,0.85317
7358.16,0.84517
7352.38,0.85279
7346.59,0.85507
7340.8,0.84550
7335.02,0.83366
7329.23,0.83284
7323.45,0.84008
7317.66,0.84187
7311.87,0.83015
7306.09,0.83172
7300.3,0.83342
7294.51,0.83334
7288.73,0.82926
7282.94,0.82975
7277.16,0.82936
7271.37,0.82895
7265.58,0.82804
7259.8,0.83216
7254.01,0.83329
7248.22,0.82985
7242.44,0.83279
7236.65,0.83479
7230.87,0.82272
7225.08,0.82718
7219.29,0.82778
7213.51,0.81985
7207.72,0.82172
7201.93,0.82145
7196.15,0.82254
7190.36,0.82575
7184.58,0.82682
7178.79,0.81692
7173,0.80988
7167.22,0.81426
7161.43,0.80507
7155.65,0.80647
7149.86,0.80408
7144.07,0.79632
7138.29,0.79685
7132.5,0.79329
7126.71,0.79199
7120.93,0.78302
7115.14,0.78887
7109.36,0.78075
7103.57,0.77077
7097.78,0.77041
7092,0.76982
7086.21,0.76457
7080.42,0.75686
7074.64,0.75783
7068.85,0.75332
7063.07,0.74642
7057.28,0.74108
7051.49,0.73655
7045.71,0.73737
7039.92,0.72391
7034.13,0.72151
7028.35,0.72124
7022.56,0.72066
7016.78,0.71470
7010.99,0.71018
7005.2,0.70957
6999.42,0.70972
6993.63,0.70346
6987.84,0.69944
6982.06,0.69815
6976.27,0.70058
6970.49,0.69659
6964.7,0.69250
6958.91,0.68805
6953.13,0.69523
6947.34,0.69193
6941.55,0.69138
6935.77,0.69621
6929.98,0.69395
6924.2,0.68805
6918.41,0.69179
6912.62,0.68755
6906.84,0.68635
6901.05,0.68619
6895.26,0.68685
6889.48,0.68607
6883.69,0.68934
6877.91,0.69367
6872.12,0.68668
6866.33,0.68815
6860.55,0.68321
6854.76,0.68639
6848.97,0.69074
6843.19,0.69013
6837.4,0.68985
6831.62,0.68798
6825.83,0.68595
6820.04,0.68748
6814.26,0.69141
6808.47,0.68715
6802.68,0.68951
6796.9,0.68750
6791.11,0.68891
6785.33,0.68787
6779.54,0.68564
6773.75,0.69090
6767.97,0.68854
6762.18,0.68671
6756.39,0.69379
6750.61,0.69340
6744.82,0.68980
6739.04,0.68708
6733.25,0.69205
6727.46,0.69018
6721.68,0.69137
6715.89,0.69261
6710.1,0.69228
6704.32,0.68865
6698.53,0.69349
6692.75,0.69903
6686.96,0.69765
6681.17,0.69912
6675.39,0.69670
6669.6,0.69415
6663.82,0.69952
6658.03,0.69399
6652.24,0.70426
6646.46,0.70221
6640.67,0.70102
6634.88,0.69879
6629.1,0.70449
6623.31,0.70375
6617.53,0.70817
6611.74,0.70899
6605.95,0.70755
6600.17,0.70744
6594.38,0.70858
6588.59,0.70834
6582.81,0.71190
6577.02,0.71186
6571.24,0.71022
6565.45,0.71012
6559.66,0.71090
6553.88,0.71239
6548.09,0.71496
6542.3,0.71783
6536.52,0.71679
6530.73,0.71725
6524.95,0.71739
6519.16,0.71433
6513.37,0.71875
6507.59,0.71481
6501.8,0.71765
6496.01,0.71880
6490.23,0.71895
6484.44,0.71756
6478.66,0.72171
6472.87,0.72013
6467.08,0.71892
6461.3,0.71937
6455.51,0.71784
6449.72,0.71873
6443.94,0.71490
6438.15,0.72121
6432.37,0.72066
6426.58,0.72266
6420.79,0.72499
6415.01,0.71953
6409.22,0.71982
6403.43,0.72442
6397.65,0.72130
6391.86,0.72379
6386.08,0.72431
6380.29,0.72545
6374.5,0.72476
6368.72,0.72854
6362.93,0.73106
6357.14,0.72253
6351.36,0.72386
6345.57,0.72550
6339.79,0.72398
6334,0.72392
6328.21,0.72618
6322.43,0.72703
6316.64,0.73068
6310.85,0.72700
6305.07,0.72941
6299.28,0.73107
6293.5,0.72868
6287.71,0.72944
6281.92,0.73244
6276.14,0.73318
6270.35,0.73644
6264.56,0.73461
6258.78,0.73829
6252.99,0.73942
6247.21,0.74420
6241.42,0.74390
6235.63,0.74289
6229.85,0.74643
6224.06,0.74692
6218.27,0.75154
6212.49,0.74706
6206.7,0.75416
6200.92,0.75184
6195.13,0.75279
6189.34,0.75421
6183.56,0.75527
6177.77,0.75685
6171.98,0.75768
6166.2,0.75969
6160.41,0.76269
6154.63,0.76300
6148.84,0.76276
6143.05,0.76398
6137.27,0.76206
6131.48,0.76505
6125.7,0.76781
6119.91,0.76610
6114.12,0.76534
6108.34,0.76770
6102.55,0.77200
6096.76,0.76708
6090.98,0.76882
6085.19,0.76717
6079.41,0.76806
6073.62,0.76752
6067.83,0.76773
6062.05,0.76895
6056.26,0.76623
6050.47,0.76565
6044.69,0.76397
6038.9,0.76534
6033.12,0.76154
6027.33,0.75927
6021.54,0.75939
6015.76,0.75827
6009.97,0.75288
6004.18,0.75216
5998.4,0.74920
5992.61,0.75167
5986.83,0.74762
5981.04,0.74403
5975.25,0.74468
5969.47,0.74654
5963.68,0.74636
5957.89,0.74345
5952.11,0.74523
5946.32,0.74396
5940.54,0.74509
5934.75,0.74497
5928.96,0.74318
5923.18,0.74296
5917.39,0.74234
5911.6,0.74305
5905.82,0.73986
5900.03,0.73961
5894.25,0.74000
5888.46,0.73884
5882.67,0.73791
5876.89,0.73725
5871.1,0.73873
5865.31,0.73789
5859.53,0.73750
5853.74,0.73871
5847.96,0.73630
5842.17,0.73942
5836.38,0.73796
5830.6,0.74061
5824.81,0.73747
5819.02,0.73736
5813.24,0.73695
5807.45,0.73474
5801.67,0.73742
5795.88,0.73674
5790.09,0.73661
5784.31,0.73413
5778.52,0.73777
5772.73,0.73825
5766.95,0.73763
5761.16,0.73867
5755.38,0.74029
5749.59,0.74099
5743.8,0.73914
5738.02,0.73873
5732.23,0.74090
5726.44,0.74075
5720.66,0.74043
5714.87,0.73965
5709.09,0.74089
5703.3,0.74024
5697.51,0.73923
5691.73,0.73917
5685.94,0.73959
5680.15,0.73986
5674.37,0.73948
5668.58,0.73883
5662.8,0.74008
5657.01,0.73954
5651.22,0.73848
5645.44,0.73762
5639.65,0.73974
5633.87,0.74011
5628.08,0.73953
5622.29,0.73927
5616.51,0.73820
5610.72,0.73755
5604.93,0.73837
5599.15,0.74054
5593.36,0.73877
5587.58,0.73975
5581.79,0.74060
5576,0.74124
5570.22,0.74290
5564.43,0.74184
5558.64,0.74220
5552.86,0.74342
5547.07,0.74412
5541.29,0.74490
5535.5,0.74315
5529.71,0.74255
5523.93,0.74688
5518.14,0.74614
5512.35,0.74635
5506.57,0.74614
5500.78,0.74592
5495,0.74631
5489.21,0.74433
5483.42,0.74657
5477.64,0.74741
5471.85,0.74829
5466.06,0.74849
5460.28,0.75195
5454.49,0.75061
5448.71,0.75042
5442.92,0.75226
5437.13,0.75242
5431.35,0.75303
5425.56,0.75505
5419.77,0.75752
5413.99,0.75798
5408.2,0.75754
5402.42,0.75801
5396.63,0.75886
5390.84,0.76010
5385.06,0.75965
5379.27,0.75847
5373.48,0.76021
5367.7,0.75897
5361.91,0.75951
5356.13,0.75998
5350.34,0.75766
5344.55,0.75772
5338.77,0.75598
5332.98,0.75382
5327.19,0.75061
5321.41,0.74837
5315.62,0.74572
5309.84,0.74082
5304.05,0.73566
5298.26,0.73022
5292.48,0.72290
5286.69,0.71442
5280.9,0.70588
5275.12,0.69916
5269.33,0.68884
5263.55,0.67794
5257.76,0.67003
5251.97,0.66050
5246.19,0.65206
5240.4,0.64486
5234.61,0.63966
5228.83,0.63303
5223.04,0.63070
5217.26,0.62713
5211.47,0.62468
5205.68,0.62342
5199.9,0.62099
5194.11,0.62141
5188.32,0.62244
5182.54,0.62080
5176.75,0.62293
5170.97,0.62492
5165.18,0.62783
5159.39,0.62902
5153.61,0.63124
5147.82,0.63295
5142.03,0.63587
5136.25,0.63982
5130.46,0.64183
5124.68,0.64489
5118.89,0.64824
5113.1,0.65001
5107.32,0.65305
5101.53,0.65486
5095.75,0.65764
5089.96,0.66015
5084.17,0.66192
5078.39,0.66455
5072.6,0.66624
5066.81,0.67101
5061.03,0.67265
5055.24,0.67420
5049.46,0.67524
5043.67,0.67742
5037.88,0.68003
5032.1,0.68093
5026.31,0.68237
5020.52,0.68368
5014.74,0.68347
5008.95,0.68413
5003.17,0.68435
4997.38,0.68505
4991.59,0.68329
4985.81,0.68230
4980.02,0.68025
4974.23,0.67884
4968.45,0.67634
4962.66,0.67353
4956.88,0.67045
4951.09,0.66650
4945.3,0.66297
4939.52,0.65772
4933.73,0.65399
4927.94,0.64674
4922.16,0.64198
4916.37,0.63852
4910.59,0.63325
4904.8,0.62727
4899.01,0.62318
4893.23,0.61780
4887.44,0.61276
4881.65,0.60860
4875.87,0.60348
4870.08,0.60130
4864.3,0.59450
4858.51,0.59217
4852.72,0.58893
4846.94,0.58476
4841.15,0.58033
4835.36,0.57706
4829.58,0.57427
4823.79,0.57228
4818.01,0.56872
4812.22,0.56694
4806.43,0.56480
4800.65,0.56336
4794.86,0.56286
4789.07,0.56180
4783.29,0.56126
4777.5,0.55931
4771.72,0.55860
4765.93,0.55764
4760.14,0.55780
4754.36,0.55756
4748.57,0.55841
4742.78,0.55835
4737,0.55943
4731.21,0.55903
4725.43,0.55876
4719.64,0.55962
4713.85,0.56111
4708.07,0.56126
4702.28,0.56200
4696.49,0.56242
4690.71,0.56322
4684.92,0.56370
4679.14,0.56630
4673.35,0.56677
4667.56,0.56931
4661.78,0.57139
4655.99,0.57377
4650.2,0.57544
4644.42,0.57745
4638.63,0.57890
4632.85,0.58030
4627.06,0.58383
4621.27,0.58644
4615.49,0.59039
4609.7,0.59311
4603.92,0.59600
4598.13,0.59868
4592.34,0.60133
4586.56,0.60413
4580.77,0.60536
4574.98,0.60812
4569.2,0.60977
4563.41,0.61106
4557.63,0.61279
4551.84,0.61323
4546.05,0.61510
4540.27,0.61542
4534.48,0.61627
4528.69,0.61763
4522.91,0.61809
4517.12,0.61781
4511.34,0.61737
4505.55,0.61567
4499.76,0.61315
4493.98,0.61202
4488.19,0.60828
4482.4,0.60306
4476.62,0.59793
4470.83,0.59231
4465.05,0.58617
4459.26,0.57915
4453.47,0.57370
4447.69,0.56643
4441.9,0.55982
4436.11,0.55372
4430.33,0.54547
4424.54,0.53912
4418.76,0.53191
4412.97,0.52566
4407.18,0.52075
4401.4,0.51951
4395.61,0.51903
4389.82,0.51951
4384.04,0.52075
4378.25,0.52337
4372.47,0.52532
4366.68,0.52838
4360.89,0.53029
4355.11,0.53014
4349.32,0.53021
4343.53,0.53014
4337.75,0.52898
4331.96,0.52729
4326.18,0.52547
4320.39,0.52274
4314.6,0.52148
4308.82,0.52003
4303.03,0.51785
4297.24,0.51526
4291.46,0.51342
4285.67,0.51231
4279.89,0.51163
4274.1,0.51231
4268.31,0.51371
4262.53,0.51492
4256.74,0.51700
4250.95,0.51844
4245.17,0.51854
4239.38,0.51962
4233.6,0.52029
4227.81,0.51971
4222.02,0.51982
4216.24,0.52045
4210.45,0.52025
4204.66,0.52022
4198.88,0.52114
4193.09,0.52165
4187.31,0.52242
4181.52,0.52303
4175.73,0.52455
4169.95,0.52630
4164.16,0.52830
4158.37,0.52832
4152.59,0.52755
4146.8,0.52659
4141.02,0.52451
4135.23,0.52263
4129.44,0.51944
4123.66,0.51497
4117.87,0.51137
4112.09,0.50791
4106.3,0.50312
4100.51,0.49832
4094.73,0.49339
4088.94,0.48797
4083.15,0.48237
4077.37,0.47721
4071.58,0.47198
4065.8,0.46623
4060.01,0.46026
4054.22,0.45500
4048.44,0.45018
4042.65,0.44574
4036.86,0.44215
4031.08,0.43862
4025.29,0.43646
4019.51,0.43428
4013.72,0.43360
4007.93,0.43339
4002.15,0.43400
3996.36,0.43526
3990.57,0.43650
3984.79,0.43846
3979,0.43997
3973.22,0.44239
3967.43,0.44491
3961.64,0.44629
3955.86,0.44894
3950.07,0.45207
3944.28,0.45462
3938.5,0.45789
3932.71,0.46165
3926.93,0.46392
3921.14,0.46691
3915.35,0.46993
3909.57,0.47190
3903.78,0.47512
3897.99,0.47728
3892.21,0.47991
3886.42,0.48248
3880.64,0.48412
3874.85,0.48488
3869.06,0.48783
3863.28,0.49051
3857.49,0.49392
3851.7,0.49678
3845.92,0.49917
3840.13,0.50162
3834.35,0.50400
3828.56,0.50445
3822.77,0.50418
3816.99,0.50530
3811.2,0.50528
3805.41,0.50592
3799.63,0.50568
3793.84,0.50540
3788.06,0.50468
3782.27,0.50399
3776.48,0.50309
3770.7,0.50272
3764.91,0.50193
3759.12,0.49998
3753.34,0.49892
3747.55,0.49596
3741.77,0.49371
3735.98,0.49002
3730.19,0.48564
3724.41,0.48130
3718.62,0.47576
3712.83,0.46996
3707.05,0.46190
3701.26,0.45254
3695.48,0.44155
3689.69,0.42906
3683.9,0.41271
3678.12,0.39419
3672.33,0.37356
3666.54,0.35216
3660.76,0.33124
3654.97,0.31125
3649.19,0.29233
3643.4,0.27508
3637.61,0.25863
3631.83,0.24435
3626.04,0.22959
3620.25,0.21607
3614.47,0.20248
3608.68,0.18906
3602.9,0.17653
3597.11,0.16449
3591.32,0.15338
3585.54,0.14302
3579.75,0.13489
3573.97,0.12640
3568.18,0.12027
3562.39,0.11373
3556.61,0.10891
3550.82,0.10423
3545.03,0.09932
3539.25,0.09530
3533.46,0.09199
3527.68,0.08868
3521.89,0.08592
3516.1,0.08322
3510.32,0.08025
3504.53,0.07866
3498.74,0.07593
3492.96,0.07402
3487.17,0.07299
3481.39,0.07109
3475.6,0.07030
3469.81,0.06882
3464.03,0.06805
3458.24,0.06726
3452.45,0.06702
3446.67,0.06663
3440.88,0.06588
3435.1,0.06620
3429.31,0.06649
3423.52,0.06611
3417.74,0.06624
3411.95,0.06527
3406.16,0.06519
3400.38,0.06591
3394.59,0.06601
3388.81,0.06666
3383.02,0.06648
3377.23,0.06667
3371.45,0.06713
3365.66,0.06739
3359.87,0.06836
3354.09,0.06850
3348.3,0.06852
3342.52,0.06993
3336.73,0.07186
3330.94,0.07283
3325.16,0.07489
3319.37,0.07630
3313.58,0.07697
3307.8,0.07888
3302.01,0.07944
3296.23,0.08132
3290.44,0.08270
3284.65,0.08411
3278.87,0.08594
3273.08,0.08781
3267.29,0.09087
3261.51,0.09362
3255.72,0.09580
3249.94,0.09833
3244.15,0.10156
3238.36,0.10448
3232.58,0.10639
3226.79,0.10964
3221,0.11339
3215.22,0.11677
3209.43,0.12013
3203.65,0.12366
3197.86,0.12730
3192.07,0.13159
3186.29,0.13413
3180.5,0.13808
3174.71,0.14195
3168.93,0.14554
3163.14,0.14901
3157.36,0.15325
3151.57,0.15694
3145.78,0.16076
3140,0.16404
3134.21,0.16772
3128.42,0.17117
3122.64,0.17511
3116.85,0.17863
3111.07,0.18180
3105.28,0.18560
3099.49,0.18876
3093.71,0.19118
3087.92,0.19365
3082.14,0.19589
3076.35,0.19797
3070.56,0.20020
3064.78,0.20313
3058.99,0.20558
3053.2,0.20813
3047.42,0.21022
3041.63,0.21205
3035.85,0.21283
3030.06,0.21312
3024.27,0.21227
3018.49,0.20933
3012.7,0.20559
3006.91,0.20007
3001.13,0.19545
2995.34,0.19110
2989.56,0.18542
2983.77,0.17657
2977.98,0.16520
2972.2,0.15209
2966.41,0.14422
2960.62,0.13899
2954.84,0.13424
2949.05,0.12866
2943.27,0.12257
2937.48,0.11998
2931.69,0.11992
2925.91,0.11884
2920.12,0.11720
2914.33,0.11748
2908.55,0.11808
2902.76,0.11858
2896.98,0.11982
2891.19,0.12155
2885.4,0.12416
2879.62,0.12641
2873.83,0.12933
2868.04,0.13282
2862.26,0.13765
2856.47,0.14223
2850.69,0.14687
2844.9,0.15437
2839.11,0.16271
2833.33,0.17274
2827.54,0.18446
2821.75,0.19587
2815.97,0.20568
2810.18,0.21330
2804.4,0.21992
2798.61,0.22574
2792.82,0.22966
2787.04,0.23378
2781.25,0.23679
2775.46,0.23899
2769.68,0.24016
2763.89,0.24188
2758.11,0.24332
2752.32,0.24455
2746.53,0.24476
2740.75,0.24509
2734.96,0.24598
2729.17,0.24734
2723.39,0.24996
2717.6,0.25260
2711.82,0.25586
2706.03,0.25901
2700.24,0.26320
2694.46,0.26692
2688.67,0.27028
2682.88,0.27303
2677.1,0.27619
2671.31,0.27850
2665.53,0.28051
2659.74,0.28231
2653.95,0.28409
2648.17,0.28578
2642.38,0.28814
2636.59,0.29053
2630.81,0.29305
2625.02,0.29552
2619.24,0.29788
2613.45,0.29963
2607.66,0.30211
2601.88,0.30376
2596.09,0.30549
2590.3,0.30824
2584.52,0.30983
2578.73,0.31147
2572.95,0.31223
2567.16,0.31348
2561.37,0.31380
2555.59,0.31433
2549.8,0.31493
2544.02,0.31517
2538.23,0.31637
2532.44,0.31828
2526.66,0.32079
2520.87,0.32335
2515.08,0.32519
2509.3,0.32851
2503.51,0.33169
2497.73,0.33519
2491.94,0.33862
2486.15,0.34203
2480.37,0.34460
2474.58,0.34717
2468.79,0.34985
2463.01,0.35227
2457.22,0.35546
2451.44,0.35829
2445.65,0.36146
2439.86,0.36432
2434.08,0.36760
2428.29,0.37109
2422.5,0.37486
2416.72,0.37863
2410.93,0.38239
2405.15,0.38583
2399.36,0.38915
2393.57,0.39289
2387.79,0.39603
2382,0.39896
2376.21,0.40242
2370.43,0.40524
2364.64,0.40759
2358.86,0.40999
2353.07,0.41183
2347.28,0.41395
2341.5,0.41620
2335.71,0.41780
2329.92,0.41859
2324.14,0.41978
2318.35,0.42049
2312.57,0.42136
2306.78,0.42141
2300.99,0.42158
2295.21,0.42107
2289.42,0.42099
2283.63,0.42113
2277.85,0.42082
2272.06,0.41967
2266.28,0.41800
2260.49,0.41664
2254.7,0.41472
2248.92,0.41476
2243.13,0.41393
2237.34,0.41395
2231.56,0.41397
2225.77,0.41370
2219.99,0.41453
2214.2,0.41475
2208.41,0.41484
2202.63,0.41391
2196.84,0.41163
2191.05,0.40941
2185.27,0.40590
2179.48,0.40217
2173.7,0.39849
2167.91,0.39541
2162.12,0.39250
2156.34,0.39037
2150.55,0.38872
2144.76,0.38762
2138.98,0.38639
2133.19,0.38631
2127.41,0.38683
2121.62,0.38826
2115.83,0.38942
2110.05,0.39082
2104.26,0.39223
2098.47,0.39350
2092.69,0.39412
2086.9,0.39467
2081.12,0.39365
2075.33,0.39228
2069.54,0.39055
2063.76,0.38920
2057.97,0.38842
2052.19,0.38910
2046.4,0.39005
2040.61,0.39234
2034.83,0.39563
2029.04,0.39918
2023.25,0.40309
2017.47,0.40719
2011.68,0.41035
2005.9,0.41305
2000.11,0.41536
1994.32,0.41786
1988.54,0.41982
1982.75,0.42217
1976.96,0.42397
1971.18,0.42544
1965.39,0.42765
1959.61,0.43046
1953.82,0.43361
1948.03,0.43656
1942.25,0.43963
1936.46,0.44205
1930.67,0.44401
1924.89,0.44558
1919.1,0.44642
1913.32,0.44643
1907.53,0.44591
1901.74,0.44534
1895.96,0.44435
1890.17,0.44315
1884.38,0.44190
1878.6,0.44078
1872.81,0.43981
1867.03,0.43858
1861.24,0.43682
1855.45,0.43554
1849.67,0.43330
1843.88,0.43105
1838.09,0.42752
1832.31,0.42380
1826.52,0.41839
1820.74,0.41042
1814.95,0.39928
1809.16,0.38301
1803.38,0.36019
1797.59,0.33311
1791.8,0.30821
1786.02,0.28622
1780.23,0.26976
1774.45,0.25700
1768.66,0.24143
1762.87,0.22238
1757.09,0.20239
1751.3,0.18549
1745.51,0.17550
1739.73,0.17192
1733.94,0.17507
1728.16,0.18222
1722.37,0.19186
1716.58,0.20407
1710.8,0.21419
1705.01,0.22197
1699.22,0.22400
1693.44,0.21877
1687.65,0.21060
1681.87,0.19676
1676.08,0.18081
1670.29,0.16642
1664.51,0.15805
1658.72,0.15727
1652.93,0.16122
1647.15,0.16435
1641.36,0.16362
1635.58,0.16393
1629.79,0.16231
1624,0.15850
1618.22,0.15227
1612.43,0.14372
1606.64,0.13677
1600.86,0.13571
1595.07,0.13604
1589.29,0.14103
1583.5,0.15346
1577.71,0.17475
1571.93,0.19899
1566.14,0.21615
1560.35,0.22420
1554.57,0.22322
1548.78,0.21683
1543,0.20951
1537.21,0.19591
1531.42,0.17303
1525.64,0.13981
1519.85,0.10308
1514.07,0.08360
1508.28,0.08583
1502.49,0.09878
1496.71,0.11521
1490.92,0.12431
1485.13,0.12214
1479.35,0.11400
1473.56,0.10059
1467.78,0.08786
1461.99,0.08516
1456.2,0.08523
1450.42,0.08556
1444.63,0.08935
1438.84,0.08773
1433.06,0.08217
1427.27,0.08052
1421.49,0.08382
1415.7,0.08946
1409.91,0.09404
1404.13,0.09612
1398.34,0.09514
1392.55,0.09181
1386.77,0.08598
1380.98,0.07950
1375.2,0.07749
1369.41,0.07869
1363.62,0.08169
1357.84,0.08410
1352.05,0.08687
1346.26,0.08632
1340.48,0.08358
1334.69,0.08262
1328.91,0.08340
1323.12,0.08193
1317.33,0.08165
1311.55,0.08385
1305.76,0.08654
1299.97,0.08691
1294.19,0.08448
1288.4,0.07916
1282.62,0.07429
1276.83,0.07250
1271.04,0.07179
1265.26,0.07424
1259.47,0.07725
1253.68,0.08065
1247.9,0.08185
1242.11,0.08206
1236.33,0.08104
1230.54,0.08131
1224.75,0.08269
1218.97,0.08409
1213.18,0.08545
1207.39,0.08588
1201.61,0.08962
1195.82,0.09254
1190.04,0.09208
1184.25,0.08844
1178.46,0.08042
1172.68,0.07243
1166.89,0.06992
1161.1,0.07332
1155.32,0.07535
1149.53,0.07482
1143.75,0.07253
1137.96,0.07038
1132.17,0.06713
1126.39,0.06515
1120.6,0.06633
1114.81,0.06656
1109.03,0.06956
1103.24,0.07263
1097.46,0.07280
1091.67,0.07261
1085.88,0.07277
1080.1,0.07579
1074.31,0.07892
1068.52,0.08426
1062.74,0.09390
1056.95,0.10090
1051.17,0.10319
1045.38,0.10129
1039.59,0.10292
1033.81,0.11032
1028.02,0.11510
1022.24,0.11831
1016.45,0.12215
1010.66,0.12602
1004.88,0.12826
999.09,0.13330
993.304,0.13876
987.518,0.14699
981.731,0.16217
975.945,0.17554
970.159,0.18289
964.373,0.19133
958.586,0.20304
952.8,0.21463
947.014,0.22353
941.228,0.22957
935.441,0.23625
929.655,0.24279
923.869,0.24789
918.083,0.24844
912.297,0.24241
906.51,0.23386
900.724,0.22387
894.938,0.22514
889.152,0.23662
883.365,0.24499
877.579,0.24795
871.793,0.25032
866.007,0.25260
860.22,0.25729
854.434,0.26350
848.648,0.27288
842.862,0.27842
837.075,0.27542
831.289,0.26918
825.503,0.26245
819.717,0.25454
813.931,0.24504
808.144,0.24348
802.358,0.24888
796.572,0.25488
790.786,0.25913
784.999,0.25721
779.213,0.25084
773.427,0.24400
767.641,0.24034
761.854,0.23543
756.068,0.23148
750.282,0.22550
744.496,0.22024
738.709,0.21454
732.923,0.20785
727.137,0.19957
721.351,0.19337
715.565,0.18789
709.778,0.18362
703.992,0.17921
698.206,0.17457
692.42,0.17115
686.633,0.16384
680.847,0.15438
675.061,0.14521
669.275,0.14197
663.488,0.14353
657.702,0.14478
651.916,0.14464
646.13,0.14120
640.343,0.13809
634.557,0.13384
628.771,0.12807
622.985,0.12271
617.198,0.12453
611.412,0.12497
605.626,0.13117
599.84,0.13177