File: 01_Data/Cedar_Shingle/FTIR/IS/Cedar_Shingle_IS_T_221017_R6.dpt
7497.03,0.02206
7491.25,0.02950
7485.46,0.01897
7479.67,0.01417
7473.89,0.02481
7468.1,0.03063
7462.32,0.01963
7456.53,0.02827
7450.74,0.02864
7444.96,0.01729
7439.17,0.02303
7433.38,0.02672
7427.6,0.02258
7421.81,0.02099
7416.03,0.02703
7410.24,0.01825
7404.45,0.01434
7398.67,0.03440
7392.88,0.02426
7387.09,0.02454
7381.31,0.02761
7375.52,0.03068
7369.74,0.03031
7363.95,0.02380
7358.16,0.03195
7352.38,0.02685
7346.59,0.02052
7340.8,0.02294
7335.02,0.02340
7329.23,0.02844
7323.45,0.01928
7317.66,0.03392
7311.87,0.02465
7306.09,0.02209
7300.3,0.02443
7294.51,0.02413
7288.73,0.01984
7282.94,0.02734
7277.16,0.02370
7271.37,0.02135
7265.58,0.02074
7259.8,0.02594
7254.01,0.02538
7248.22,0.02796
7242.44,0.02412
7236.65,0.02389
7230.87,0.02543
7225.08,0.02086
7219.29,0.02112
7213.51,0.02147
7207.72,0.01865
7201.93,0.02315
7196.15,0.03079
7190.36,0.02791
7184.58,0.02378
7178.79,0.02232
7173,0.02314
7167.22,0.02327
7161.43,0.02235
7155.65,0.02133
7149.86,0.01948
7144.07,0.02380
7138.29,0.02839
7132.5,0.02142
7126.71,0.02378
7120.93,0.02448
7115.14,0.02262
7109.36,0.02237
7103.57,0.02716
7097.78,0.02544
7092,0.02300
7086.21,0.02720
7080.42,0.02316
7074.64,0.01793
7068.85,0.02275
7063.07,0.02188
7057.28,0.02366
7051.49,0.02061
7045.71,0.02566
7039.92,0.01947
7034.13,0.02265
7028.35,0.02530
7022.56,0.02389
7016.78,0.02548
7010.99,0.01925
7005.2,0.02535
6999.42,0.02736
6993.63,0.02511
6987.84,0.02460
6982.06,0.02007
6976.27,0.01955
6970.49,0.02524
6964.7,0.02055
6958.91,0.02245
6953.13,0.02256
6947.34,0.02370
6941.55,0.02080
6935.77,0.02152
6929.98,0.02330
6924.2,0.01677
6918.41,0.02457
6912.62,0.02927
6906.84,0.02419
6901.05,0.02311
6895.26,0.02040
6889.48,0.02643
6883.69,0.02602
6877.91,0.02510
6872.12,0.02531
6866.33,0.02715
6860.55,0.02306
6854.76,0.02262
6848.97,0.02224
6843.19,0.02288
6837.4,0.02146
6831.62,0.02516
6825.83,0.02347
6820.04,0.02280
6814.26,0.02601
6808.47,0.02409
6802.68,0.02603
6796.9,0.02230
6791.11,0.02090
6785.33,0.02215
6779.54,0.02436
6773.75,0.02098
6767.97,0.02342
6762.18,0.02668
6756.39,0.02338
6750.61,0.01991
6744.82,0.02531
6739.04,0.02450
6733.25,0.01750
6727.46,0.01906
6721.68,0.02453
6715.89,0.02204
6710.1,0.02515
6704.32,0.02608
6698.53,0.02590
6692.75,0.02150
6686.96,0.02456
6681.17,0.02235
6675.39,0.02627
6669.6,0.02283
6663.82,0.02347
6658.03,0.02408
6652.24,0.02403
6646.46,0.02115
6640.67,0.02240
6634.88,0.02437
6629.1,0.02296
6623.31,0.02123
6617.53,0.02471
6611.74,0.02426
6605.95,0.02524
6600.17,0.02016
6594.38,0.02351
6588.59,0.02201
6582.81,0.01834
6577.02,0.02558
6571.24,0.02161
6565.45,0.02191
6559.66,0.02250
6553.88,0.02802
6548.09,0.02595
6542.3,0.02349
6536.52,0.02314
6530.73,0.02499
6524.95,0.02254
6519.16,0.02007
6513.37,0.02509
6507.59,0.02645
6501.8,0.02658
6496.01,0.02747
6490.23,0.02567
6484.44,0.02321
6478.66,0.02334
6472.87,0.02698
6467.08,0.02438
6461.3,0.02396
6455.51,0.02359
6449.72,0.02457
6443.94,0.01930
6438.15,0.02172
6432.37,0.02162
6426.58,0.02157
6420.79,0.02070
6415.01,0.02612
6409.22,0.02305
6403.43,0.02244
6397.65,0.02359
6391.86,0.02240
6386.08,0.02148
6380.29,0.02281
6374.5,0.02703
6368.72,0.02048
6362.93,0.02055
6357.14,0.02146
6351.36,0.02018
6345.57,0.02026
6339.79,0.02516
6334,0.02239
6328.21,0.02095
6322.43,0.02213
6316.64,0.02488
6310.85,0.02114
6305.07,0.02522
6299.28,0.02331
6293.5,0.02249
6287.71,0.02345
6281.92,0.02027
6276.14,0.02024
6270.35,0.02174
6264.56,0.02015
6258.78,0.02238
6252.99,0.02178
6247.21,0.02243
6241.42,0.02100
6235.63,0.01932
6229.85,0.02366
6224.06,0.02228
6218.27,0.02260
6212.49,0.02522
6206.7,0.01994
6200.92,0.02187
6195.13,0.02404
6189.34,0.02311
6183.56,0.02169
6177.77,0.01728
6171.98,0.02027
6166.2,0.02266
6160.41,0.02559
6154.63,0.02064
6148.84,0.02257
6143.05,0.02372
6137.27,0.01956
6131.48,0.02219
6125.7,0.01904
6119.91,0.02068
6114.12,0.02365
6108.34,0.02393
6102.55,0.02297
6096.76,0.02165
6090.98,0.02040
6085.19,0.02147
6079.41,0.02573
6073.62,0.02144
6067.83,0.02046
6062.05,0.02088
6056.26,0.02407
6050.47,0.02538
6044.69,0.02124
6038.9,0.02243
6033.12,0.02346
6027.33,0.02409
6021.54,0.02139
6015.76,0.02417
6009.97,0.02499
6004.18,0.02060
5998.4,0.02037
5992.61,0.02282
5986.83,0.02217
5981.04,0.02234
5975.25,0.02232
5969.47,0.02320
5963.68,0.02196
5957.89,0.02188
5952.11,0.02141
5946.32,0.02210
5940.54,0.02197
5934.75,0.02247
5928.96,0.02271
5923.18,0.02473
5917.39,0.02227
5911.6,0.02126
5905.82,0.02189
5900.03,0.02220
5894.25,0.02045
5888.46,0.01987
5882.67,0.02227
5876.89,0.02159
5871.1,0.02420
5865.31,0.02252
5859.53,0.02134
5853.74,0.02312
5847.96,0.02125
5842.17,0.02357
5836.38,0.02151
5830.6,0.02208
5824.81,0.02270
5819.02,0.02287
5813.24,0.02056
5807.45,0.02168
5801.67,0.02214
5795.88,0.02273
5790.09,0.02225
5784.31,0.02220
5778.52,0.02310
5772.73,0.02469
5766.95,0.02265
5761.16,0.02173
5755.38,0.02202
5749.59,0.02300
5743.8,0.02338
5738.02,0.02271
5732.23,0.02062
5726.44,0.02259
5720.66,0.02151
5714.87,0.02154
5709.09,0.02125
5703.3,0.02187
5697.51,0.02367
5691.73,0.02318
5685.94,0.02341
5680.15,0.02223
5674.37,0.02420
5668.58,0.02317
5662.8,0.02269
5657.01,0.02318
5651.22,0.02129
5645.44,0.02112
5639.65,0.02465
5633.87,0.02289
5628.08,0.02031
5622.29,0.02332
5616.51,0.02129
5610.72,0.02268
5604.93,0.02210
5599.15,0.02055
5593.36,0.02100
5587.58,0.02092
5581.79,0.02227
5576,0.02239
5570.22,0.02266
5564.43,0.02205
5558.64,0.02094
5552.86,0.02189
5547.07,0.02349
5541.29,0.02290
5535.5,0.02113
5529.71,0.02268
5523.93,0.02245
5518.14,0.02294
5512.35,0.02241
5506.57,0.02223
5500.78,0.02277
5495,0.02194
5489.21,0.02244
5483.42,0.02220
5477.64,0.02286
5471.85,0.02227
5466.06,0.02201
5460.28,0.02238
5454.49,0.02276
5448.71,0.02087
5442.92,0.02206
5437.13,0.02223
5431.35,0.02349
5425.56,0.02297
5419.77,0.02305
5413.99,0.02187
5408.2,0.02352
5402.42,0.02322
5396.63,0.02282
5390.84,0.02047
5385.06,0.02240
5379.27,0.02376
5373.48,0.02325
5367.7,0.02256
5361.91,0.02420
5356.13,0.02302
5350.34,0.02121
5344.55,0.02252
5338.77,0.02279
5332.98,0.02277
5327.19,0.02211
5321.41,0.02431
5315.62,0.02290
5309.84,0.02296
5304.05,0.02327
5298.26,0.02232
5292.48,0.02359
5286.69,0.02290
5280.9,0.02231
5275.12,0.02283
5269.33,0.02289
5263.55,0.02329
5257.76,0.02392
5251.97,0.02137
5246.19,0.02446
5240.4,0.02153
5234.61,0.02195
5228.83,0.02223
5223.04,0.02233
5217.26,0.02428
5211.47,0.02343
5205.68,0.02264
5199.9,0.02299
5194.11,0.02290
5188.32,0.02297
5182.54,0.02154
5176.75,0.02056
5170.97,0.02240
5165.18,0.02240
5159.39,0.02136
5153.61,0.02215
5147.82,0.02243
5142.03,0.02361
5136.25,0.02237
5130.46,0.02394
5124.68,0.02374
5118.89,0.02333
5113.1,0.02249
5107.32,0.02332
5101.53,0.02301
5095.75,0.02274
5089.96,0.02192
5084.17,0.02366
5078.39,0.02227
5072.6,0.02119
5066.81,0.02366
5061.03,0.02210
5055.24,0.02204
5049.46,0.02237
5043.67,0.02183
5037.88,0.02218
5032.1,0.02351
5026.31,0.02227
5020.52,0.02292
5014.74,0.02252
5008.95,0.02266
5003.17,0.02288
4997.38,0.02318
4991.59,0.02325
4985.81,0.02188
4980.02,0.02213
4974.23,0.02278
4968.45,0.02231
4962.66,0.02288
4956.88,0.02282
4951.09,0.02369
4945.3,0.02209
4939.52,0.02235
4933.73,0.02284
4927.94,0.02328
4922.16,0.02173
4916.37,0.02302
4910.59,0.02241
4904.8,0.02257
4899.01,0.02356
4893.23,0.02232
4887.44,0.02263
4881.65,0.02303
4875.87,0.02287
4870.08,0.02233
4864.3,0.02242
4858.51,0.02343
4852.72,0.02345
4846.94,0.02211
4841.15,0.02333
4835.36,0.02261
4829.58,0.02196
4823.79,0.02244
4818.01,0.02252
4812.22,0.02232
4806.43,0.02285
4800.65,0.02324
4794.86,0.02309
4789.07,0.02280
4783.29,0.02273
4777.5,0.02259
4771.72,0.02402
4765.93,0.02245
4760.14,0.02302
4754.36,0.02401
4748.57,0.02230
4742.78,0.02325
4737,0.02351
4731.21,0.02288
4725.43,0.02291
4719.64,0.02189
4713.85,0.02247
4708.07,0.02315
4702.28,0.02364
4696.49,0.02293
4690.71,0.02273
4684.92,0.02382
4679.14,0.02243
4673.35,0.02312
4667.56,0.02299
4661.78,0.02253
4655.99,0.02446
4650.2,0.02312
4644.42,0.02283
4638.63,0.02273
4632.85,0.02379
4627.06,0.02295
4621.27,0.02337
4615.49,0.02319
4609.7,0.02343
4603.92,0.02345
4598.13,0.02350
4592.34,0.02310
4586.56,0.02300
4580.77,0.02314
4574.98,0.02325
4569.2,0.02352
4563.41,0.02338
4557.63,0.02301
4551.84,0.02362
4546.05,0.02297
4540.27,0.02328
4534.48,0.02329
4528.69,0.02230
4522.91,0.02288
4517.12,0.02239
4511.34,0.02259
4505.55,0.02332
4499.76,0.02392
4493.98,0.02301
4488.19,0.02197
4482.4,0.02329
4476.62,0.02345
4470.83,0.02351
4465.05,0.02353
4459.26,0.02292
4453.47,0.02297
4447.69,0.02259
4441.9,0.02192
4436.11,0.02220
4430.33,0.02285
4424.54,0.02316
4418.76,0.02397
4412.97,0.02391
4407.18,0.02305
4401.4,0.02265
4395.61,0.02272
4389.82,0.02288
4384.04,0.02193
4378.25,0.02393
4372.47,0.02362
4366.68,0.02394
4360.89,0.02305
4355.11,0.02236
4349.32,0.02249
4343.53,0.02314
4337.75,0.02275
4331.96,0.02264
4326.18,0.02300
4320.39,0.02322
4314.6,0.02330
4308.82,0.02310
4303.03,0.02366
4297.24,0.02305
4291.46,0.02303
4285.67,0.02362
4279.89,0.02313
4274.1,0.02273
4268.31,0.02335
4262.53,0.02328
4256.74,0.02353
4250.95,0.02291
4245.17,0.02342
4239.38,0.02332
4233.6,0.02303
4227.81,0.02331
4222.02,0.02351
4216.24,0.02325
4210.45,0.02344
4204.66,0.02355
4198.88,0.02382
4193.09,0.02326
4187.31,0.02329
4181.52,0.02356
4175.73,0.02328
4169.95,0.02328
4164.16,0.02318
4158.37,0.02336
4152.59,0.02256
4146.8,0.02310
4141.02,0.02323
4135.23,0.02294
4129.44,0.02336
4123.66,0.02339
4117.87,0.02408
4112.09,0.02404
4106.3,0.02301
4100.51,0.02277
4094.73,0.02316
4088.94,0.02321
4083.15,0.02317
4077.37,0.02356
4071.58,0.02347
4065.8,0.02345
4060.01,0.02303
4054.22,0.02319
4048.44,0.02364
4042.65,0.02240
4036.86,0.02346
4031.08,0.02407
4025.29,0.02255
4019.51,0.02353
4013.72,0.02344
4007.93,0.02313
4002.15,0.02276
3996.36,0.02287
3990.57,0.02338
3984.79,0.02332
3979,0.02309
3973.22,0.02365
3967.43,0.02358
3961.64,0.02332
3955.86,0.02343
3950.07,0.02341
3944.28,0.02316
3938.5,0.02368
3932.71,0.02363
3926.93,0.02315
3921.14,0.02327
3915.35,0.02336
3909.57,0.02373
3903.78,0.02359
3897.99,0.02318
3892.21,0.02352
3886.42,0.02374
3880.64,0.02338
3874.85,0.02303
3869.06,0.02299
3863.28,0.02339
3857.49,0.02377
3851.7,0.02399
3845.92,0.02330
3840.13,0.02355
3834.35,0.02324
3828.56,0.02338
3822.77,0.02340
3816.99,0.02421
3811.2,0.02335
3805.41,0.02363
3799.63,0.02379
3793.84,0.02371
3788.06,0.02376
3782.27,0.02376
3776.48,0.02392
3770.7,0.02348
3764.91,0.02304
3759.12,0.02329
3753.34,0.02360
3747.55,0.02395
3741.77,0.02352
3735.98,0.02325
3730.19,0.02280
3724.41,0.02347
3718.62,0.02324
3712.83,0.02305
3707.05,0.02303
3701.26,0.02282
3695.48,0.02312
3689.69,0.02266
3683.9,0.02291
3678.12,0.02318
3672.33,0.02302
3666.54,0.02246
3660.76,0.02273
3654.97,0.02292
3649.19,0.02215
3643.4,0.02238
3637.61,0.02255
3631.83,0.02288
3626.04,0.02222
3620.25,0.02339
3614.47,0.02244
3608.68,0.02236
3602.9,0.02232
3597.11,0.02246
3591.32,0.02296
3585.54,0.02300
3579.75,0.02243
3573.97,0.02187
3568.18,0.02243
3562.39,0.02307
3556.61,0.02210
3550.82,0.02187
3545.03,0.02203
3539.25,0.02186
3533.46,0.02107
3527.68,0.02169
3521.89,0.02166
3516.1,0.02120
3510.32,0.02184
3504.53,0.02167
3498.74,0.02176
3492.96,0.02172
3487.17,0.02160
3481.39,0.02220
3475.6,0.02167
3469.81,0.02204
3464.03,0.02197
3458.24,0.02165
3452.45,0.02116
3446.67,0.02156
3440.88,0.02120
3435.1,0.02143
3429.31,0.02097
3423.52,0.02099
3417.74,0.02081
3411.95,0.02085
3406.16,0.02074
3400.38,0.02110
3394.59,0.02087
3388.81,0.02091
3383.02,0.02095
3377.23,0.02034
3371.45,0.02019
3365.66,0.02063
3359.87,0.02148
3354.09,0.02147
3348.3,0.02100
3342.52,0.02035
3336.73,0.02082
3330.94,0.02063
3325.16,0.02052
3319.37,0.02075
3313.58,0.02051
3307.8,0.02112
3302.01,0.02053
3296.23,0.02098
3290.44,0.02123
3284.65,0.02127
3278.87,0.02067
3273.08,0.02057
3267.29,0.02108
3261.51,0.02217
3255.72,0.02144
3249.94,0.02136
3244.15,0.02157
3238.36,0.02196
3232.58,0.02164
3226.79,0.02175
3221,0.02005
3215.22,0.02081
3209.43,0.02128
3203.65,0.02084
3197.86,0.02096
3192.07,0.02195
3186.29,0.02104
3180.5,0.02147
3174.71,0.02090
3168.93,0.02211
3163.14,0.02192
3157.36,0.02118
3151.57,0.02136
3145.78,0.02200
3140,0.02094
3134.21,0.02170
3128.42,0.02168
3122.64,0.02132
3116.85,0.02140
3111.07,0.02158
3105.28,0.02165
3099.49,0.02206
3093.71,0.02114
3087.92,0.02157
3082.14,0.02137
3076.35,0.02127
3070.56,0.02076
3064.78,0.02175
3058.99,0.02125
3053.2,0.02139
3047.42,0.02140
3041.63,0.02161
3035.85,0.02164
3030.06,0.02167
3024.27,0.02134
3018.49,0.02111
3012.7,0.02232
3006.91,0.02184
3001.13,0.02146
2995.34,0.02115
2989.56,0.02037
2983.77,0.02016
2977.98,0.02069
2972.2,0.02035
2966.41,0.02012
2960.62,0.02015
2954.84,0.02061
2949.05,0.02070
2943.27,0.02057
2937.48,0.02044
2931.69,0.02041
2925.91,0.02050
2920.12,0.02108
2914.33,0.02077
2908.55,0.02128
2902.76,0.02107
2896.98,0.02171
2891.19,0.02136
2885.4,0.02117
2879.62,0.02129
2873.83,0.02131
2868.04,0.02118
2862.26,0.02097
2856.47,0.02134
2850.69,0.02233
2844.9,0.02222
2839.11,0.02217
2833.33,0.02260
2827.54,0.02170
2821.75,0.02231
2815.97,0.02172
2810.18,0.02224
2804.4,0.02256
2798.61,0.02190
2792.82,0.02242
2787.04,0.02170
2781.25,0.02226
2775.46,0.02213
2769.68,0.02214
2763.89,0.02207
2758.11,0.02232
2752.32,0.02220
2746.53,0.02218
2740.75,0.02222
2734.96,0.02217
2729.17,0.02223
2723.39,0.02225
2717.6,0.02180
2711.82,0.02227
2706.03,0.02209
2700.24,0.02243
2694.46,0.02238
2688.67,0.02193
2682.88,0.02212
2677.1,0.02187
2671.31,0.02179
2665.53,0.02205
2659.74,0.02205
2653.95,0.02219
2648.17,0.02173
2642.38,0.02192
2636.59,0.02223
2630.81,0.02197
2625.02,0.02243
2619.24,0.02248
2613.45,0.02238
2607.66,0.02178
2601.88,0.02219
2596.09,0.02187
2590.3,0.02174
2584.52,0.02229
2578.73,0.02180
2572.95,0.02183
2567.16,0.02233
2561.37,0.02220
2555.59,0.02210
2549.8,0.02202
2544.02,0.02174
2538.23,0.02219
2532.44,0.02252
2526.66,0.02196
2520.87,0.02216
2515.08,0.02186
2509.3,0.02210
2503.51,0.02223
2497.73,0.02195
2491.94,0.02207
2486.15,0.02199
2480.37,0.02198
2474.58,0.02220
2468.79,0.02206
2463.01,0.02204
2457.22,0.02241
2451.44,0.02240
2445.65,0.02205
2439.86,0.02212
2434.08,0.02244
2428.29,0.02219
2422.5,0.02188
2416.72,0.02186
2410.93,0.02227
2405.15,0.02176
2399.36,0.02220
2393.57,0.02232
2387.79,0.02236
2382,0.02225
2376.21,0.02193
2370.43,0.02190
2364.64,0.02168
2358.86,0.02217
2353.07,0.02200
2347.28,0.02207
2341.5,0.02249
2335.71,0.02222
2329.92,0.02208
2324.14,0.02212
2318.35,0.02240
2312.57,0.02194
2306.78,0.02174
2300.99,0.02209
2295.21,0.02191
2289.42,0.02198
2283.63,0.02174
2277.85,0.02230
2272.06,0.02192
2266.28,0.02194
2260.49,0.02225
2254.7,0.02178
2248.92,0.02154
2243.13,0.02186
2237.34,0.02206
2231.56,0.02230
2225.77,0.02195
2219.99,0.02224
2214.2,0.02170
2208.41,0.02198
2202.63,0.02156
2196.84,0.02201
2191.05,0.02180
2185.27,0.02170
2179.48,0.02190
2173.7,0.02187
2167.91,0.02205
2162.12,0.02189
2156.34,0.02177
2150.55,0.02226
2144.76,0.02203
2138.98,0.02200
2133.19,0.02221
2127.41,0.02196
2121.62,0.02214
2115.83,0.02186
2110.05,0.02194
2104.26,0.02212
2098.47,0.02173
2092.69,0.02146
2086.9,0.02164
2081.12,0.02187
2075.33,0.02143
2069.54,0.02156
2063.76,0.02180
2057.97,0.02193
2052.19,0.02178
2046.4,0.02164
2040.61,0.02173
2034.83,0.02187
2029.04,0.02196
2023.25,0.02156
2017.47,0.02152
2011.68,0.02184
2005.9,0.02191
2000.11,0.02161
1994.32,0.02194
1988.54,0.02146
1982.75,0.02167
1976.96,0.02171
1971.18,0.02176
1965.39,0.02170
1959.61,0.02179
1953.82,0.02198
1948.03,0.02188
1942.25,0.02178
1936.46,0.02156
1930.67,0.02127
1924.89,0.02153
1919.1,0.02129
1913.32,0.02131
1907.53,0.02154
1901.74,0.02157
1895.96,0.02163
1890.17,0.02107
1884.38,0.02107
1878.6,0.02109
1872.81,0.02155
1867.03,0.02169
1861.24,0.02144
1855.45,0.02124
1849.67,0.02108
1843.88,0.02146
1838.09,0.02102
1832.31,0.02119
1826.52,0.02095
1820.74,0.02088
1814.95,0.02076
1809.16,0.02073
1803.38,0.02062
1797.59,0.02032
1791.8,0.02015
1786.02,0.02023
1780.23,0.01975
1774.45,0.01988
1768.66,0.01915
1762.87,0.01879
1757.09,0.01836
1751.3,0.01782
1745.51,0.01849
1739.73,0.01926
1733.94,0.02037
1728.16,0.02105
1722.37,0.02107
1716.58,0.02105
1710.8,0.02124
1705.01,0.02077
1699.22,0.02034
1693.44,0.01969
1687.65,0.01975
1681.87,0.01959
1676.08,0.01951
1670.29,0.01935
1664.51,0.01922
1658.72,0.01911
1652.93,0.01885
1647.15,0.01874
1641.36,0.01883
1635.58,0.01873
1629.79,0.01924
1624,0.01916
1618.22,0.01946
1612.43,0.01937
1606.64,0.01921
1600.86,0.01891
1595.07,0.01938
1589.29,0.01890
1583.5,0.01863
1577.71,0.01907
1571.93,0.01882
1566.14,0.01829
1560.35,0.01830
1554.57,0.01853
1548.78,0.01863
1543,0.01888
1537.21,0.01866
1531.42,0.01853
1525.64,0.01885
1519.85,0.01876
1514.07,0.01896
1508.28,0.01904
1502.49,0.01946
1496.71,0.01944
1490.92,0.01931
1485.13,0.01909
1479.35,0.01894
1473.56,0.01859
1467.78,0.01830
1461.99,0.01903
1456.2,0.01889
1450.42,0.01913
1444.63,0.01883
1438.84,0.01934
1433.06,0.01899
1427.27,0.01896
1421.49,0.01914
1415.7,0.01908
1409.91,0.01882
1404.13,0.01885
1398.34,0.01873
1392.55,0.01847
1386.77,0.01807
1380.98,0.01807
1375.2,0.01811
1369.41,0.01860
1363.62,0.01866
1357.84,0.01846
1352.05,0.01864
1346.26,0.01821
1340.48,0.01782
1334.69,0.01839
1328.91,0.01835
1323.12,0.01780
1317.33,0.01743
1311.55,0.01767
1305.76,0.01763
1299.97,0.01774
1294.19,0.01848
1288.4,0.01847
1282.62,0.01917
1276.83,0.01965
1271.04,0.01998
1265.26,0.02005
1259.47,0.02023
1253.68,0.02049
1247.9,0.02064
1242.11,0.02013
1236.33,0.02044
1230.54,0.02006
1224.75,0.01978
1218.97,0.01954
1213.18,0.01964
1207.39,0.01889
1201.61,0.01879
1195.82,0.01907
1190.04,0.01858
1184.25,0.01859
1178.46,0.01809
1172.68,0.01806
1166.89,0.01844
1161.1,0.01776
1155.32,0.01811
1149.53,0.01746
1143.75,0.01842
1137.96,0.01904
1132.17,0.01874
1126.39,0.01852
1120.6,0.01881
1114.81,0.01926
1109.03,0.01914
1103.24,0.01891
1097.46,0.01874
1091.67,0.01876
1085.88,0.01881
1080.1,0.01966
1074.31,0.01993
1068.52,0.02048
1062.74,0.02028
1056.95,0.01969
1051.17,0.01991
1045.38,0.02021
1039.59,0.02012
1033.81,0.02035
1028.02,0.01910
1022.24,0.01977
1016.45,0.01972
1010.66,0.02025
1004.88,0.02126
999.09,0.02195
993.304,0.02221
987.518,0.02169
981.731,0.02135
975.945,0.02126
970.159,0.02064
964.373,0.02072
958.586,0.02020
952.8,0.02068
947.014,0.02026
941.228,0.02005
935.441,0.01993
929.655,0.01982
923.869,0.01925
918.083,0.01956
912.297,0.01975
906.51,0.01993
900.724,0.01928
894.938,0.01885
889.152,0.01858
883.365,0.01898
877.579,0.01921
871.793,0.01887
866.007,0.01958
860.22,0.01974
854.434,0.01889
848.648,0.01909
842.862,0.01909
837.075,0.01877
831.289,0.01937
825.503,0.01915
819.717,0.01930
813.931,0.01934
808.144,0.01842
802.358,0.01888
796.572,0.01941
790.786,0.01935
784.999,0.01906
779.213,0.01941
773.427,0.01835
767.641,0.01826
761.854,0.01861
756.068,0.01839
750.282,0.01701
744.496,0.01862
738.709,0.01917
732.923,0.01881
727.137,0.01827
721.351,0.01850
715.565,0.01896
709.778,0.01805
703.992,0.01812
698.206,0.01942
692.42,0.01708
686.633,0.01857
680.847,0.01734
675.061,0.01751
669.275,0.01819
663.488,0.01832
657.702,0.01832
651.916,0.01599
646.13,0.01670
640.343,0.01554
634.557,0.01842
628.771,0.01634
622.985,0.01672
617.198,0.01580
611.412,0.01666
605.626,0.01505
599.84,0.01484