File: 01_Data/Cedar_Shingle/FTIR/IS/Cedar_Shingle_IS_S_221017_R5.dpt
7497.03,0.89362
7491.25,0.89968
7485.46,0.88338
7479.67,0.87497
7473.89,0.88071
7468.1,0.88297
7462.32,0.87010
7456.53,0.86525
7450.74,0.87458
7444.96,0.87719
7439.17,0.87341
7433.38,0.86369
7427.6,0.86380
7421.81,0.87196
7416.03,0.85402
7410.24,0.85560
7404.45,0.86233
7398.67,0.85514
7392.88,0.85560
7387.09,0.85464
7381.31,0.85023
7375.52,0.85760
7369.74,0.85118
7363.95,0.85582
7358.16,0.83816
7352.38,0.84886
7346.59,0.84854
7340.8,0.84358
7335.02,0.83736
7329.23,0.84238
7323.45,0.83253
7317.66,0.83984
7311.87,0.83161
7306.09,0.82907
7300.3,0.82844
7294.51,0.83589
7288.73,0.83464
7282.94,0.83643
7277.16,0.83184
7271.37,0.83335
7265.58,0.84018
7259.8,0.83138
7254.01,0.83598
7248.22,0.83170
7242.44,0.83237
7236.65,0.83211
7230.87,0.83296
7225.08,0.82648
7219.29,0.82530
7213.51,0.82384
7207.72,0.83147
7201.93,0.82085
7196.15,0.81844
7190.36,0.81719
7184.58,0.82041
7178.79,0.81742
7173,0.82177
7167.22,0.80966
7161.43,0.79713
7155.65,0.80795
7149.86,0.79810
7144.07,0.80363
7138.29,0.80028
7132.5,0.79539
7126.71,0.79881
7120.93,0.79149
7115.14,0.78599
7109.36,0.78211
7103.57,0.77900
7097.78,0.76776
7092,0.77022
7086.21,0.76453
7080.42,0.76358
7074.64,0.75481
7068.85,0.75217
7063.07,0.75188
7057.28,0.74306
7051.49,0.73676
7045.71,0.73990
7039.92,0.73108
7034.13,0.72128
7028.35,0.72734
7022.56,0.71711
7016.78,0.71067
7010.99,0.71206
7005.2,0.70396
6999.42,0.70610
6993.63,0.70565
6987.84,0.70220
6982.06,0.69819
6976.27,0.70023
6970.49,0.69451
6964.7,0.69458
6958.91,0.69245
6953.13,0.69647
6947.34,0.69028
6941.55,0.69379
6935.77,0.68936
6929.98,0.68870
6924.2,0.68775
6918.41,0.69085
6912.62,0.68536
6906.84,0.68836
6901.05,0.68449
6895.26,0.69259
6889.48,0.68691
6883.69,0.68452
6877.91,0.68872
6872.12,0.68735
6866.33,0.68428
6860.55,0.68670
6854.76,0.68682
6848.97,0.68191
6843.19,0.68559
6837.4,0.68596
6831.62,0.68735
6825.83,0.68761
6820.04,0.69068
6814.26,0.68973
6808.47,0.68988
6802.68,0.67953
6796.9,0.68718
6791.11,0.68850
6785.33,0.68976
6779.54,0.68988
6773.75,0.68864
6767.97,0.69056
6762.18,0.68804
6756.39,0.68515
6750.61,0.68651
6744.82,0.68490
6739.04,0.68508
6733.25,0.68738
6727.46,0.68999
6721.68,0.69031
6715.89,0.69209
6710.1,0.69007
6704.32,0.70043
6698.53,0.69412
6692.75,0.69269
6686.96,0.69788
6681.17,0.69885
6675.39,0.69572
6669.6,0.69665
6663.82,0.69328
6658.03,0.70040
6652.24,0.70293
6646.46,0.69765
6640.67,0.70412
6634.88,0.70360
6629.1,0.69999
6623.31,0.70388
6617.53,0.70359
6611.74,0.69968
6605.95,0.70670
6600.17,0.70814
6594.38,0.71048
6588.59,0.70598
6582.81,0.70857
6577.02,0.71236
6571.24,0.71572
6565.45,0.71230
6559.66,0.70705
6553.88,0.70884
6548.09,0.71379
6542.3,0.71605
6536.52,0.71689
6530.73,0.71371
6524.95,0.71672
6519.16,0.71389
6513.37,0.71827
6507.59,0.71502
6501.8,0.71322
6496.01,0.71625
6490.23,0.71246
6484.44,0.71625
6478.66,0.71595
6472.87,0.71064
6467.08,0.71911
6461.3,0.71764
6455.51,0.72632
6449.72,0.72062
6443.94,0.71882
6438.15,0.71789
6432.37,0.72272
6426.58,0.72339
6420.79,0.72465
6415.01,0.72134
6409.22,0.72553
6403.43,0.72228
6397.65,0.71983
6391.86,0.72331
6386.08,0.72614
6380.29,0.72375
6374.5,0.72610
6368.72,0.72333
6362.93,0.72403
6357.14,0.72729
6351.36,0.72789
6345.57,0.72377
6339.79,0.72704
6334,0.72648
6328.21,0.72714
6322.43,0.72685
6316.64,0.72854
6310.85,0.73037
6305.07,0.73111
6299.28,0.73058
6293.5,0.73492
6287.71,0.73347
6281.92,0.73055
6276.14,0.73253
6270.35,0.73409
6264.56,0.74188
6258.78,0.73890
6252.99,0.73941
6247.21,0.74257
6241.42,0.74276
6235.63,0.74217
6229.85,0.74498
6224.06,0.74514
6218.27,0.74651
6212.49,0.75129
6206.7,0.74834
6200.92,0.75345
6195.13,0.75101
6189.34,0.75239
6183.56,0.75642
6177.77,0.75575
6171.98,0.76094
6166.2,0.76046
6160.41,0.76097
6154.63,0.76023
6148.84,0.76204
6143.05,0.76226
6137.27,0.76201
6131.48,0.76474
6125.7,0.76527
6119.91,0.76741
6114.12,0.76719
6108.34,0.76690
6102.55,0.76667
6096.76,0.76754
6090.98,0.76619
6085.19,0.77102
6079.41,0.77031
6073.62,0.76750
6067.83,0.76843
6062.05,0.76862
6056.26,0.76505
6050.47,0.76564
6044.69,0.76088
6038.9,0.76197
6033.12,0.76142
6027.33,0.76002
6021.54,0.75964
6015.76,0.75851
6009.97,0.75325
6004.18,0.75141
5998.4,0.75186
5992.61,0.74910
5986.83,0.74586
5981.04,0.74530
5975.25,0.74642
5969.47,0.74224
5963.68,0.74141
5957.89,0.74434
5952.11,0.74354
5946.32,0.74699
5940.54,0.74490
5934.75,0.74485
5928.96,0.74527
5923.18,0.74242
5917.39,0.74262
5911.6,0.74220
5905.82,0.73963
5900.03,0.73945
5894.25,0.73538
5888.46,0.73851
5882.67,0.74033
5876.89,0.73543
5871.1,0.73731
5865.31,0.73927
5859.53,0.73973
5853.74,0.73829
5847.96,0.74098
5842.17,0.73718
5836.38,0.73830
5830.6,0.73726
5824.81,0.73873
5819.02,0.73603
5813.24,0.73446
5807.45,0.73268
5801.67,0.73557
5795.88,0.73499
5790.09,0.73576
5784.31,0.73744
5778.52,0.73652
5772.73,0.73663
5766.95,0.73613
5761.16,0.73893
5755.38,0.73884
5749.59,0.73944
5743.8,0.73879
5738.02,0.73907
5732.23,0.73830
5726.44,0.73963
5720.66,0.74052
5714.87,0.73932
5709.09,0.73864
5703.3,0.74076
5697.51,0.73857
5691.73,0.73965
5685.94,0.73922
5680.15,0.73660
5674.37,0.73801
5668.58,0.73932
5662.8,0.73852
5657.01,0.74124
5651.22,0.73876
5645.44,0.73870
5639.65,0.73818
5633.87,0.73850
5628.08,0.73794
5622.29,0.73871
5616.51,0.73772
5610.72,0.73802
5604.93,0.73766
5599.15,0.73892
5593.36,0.73760
5587.58,0.73751
5581.79,0.73883
5576,0.73905
5570.22,0.73846
5564.43,0.74220
5558.64,0.74229
5552.86,0.74293
5547.07,0.74271
5541.29,0.74363
5535.5,0.74166
5529.71,0.74259
5523.93,0.74310
5518.14,0.74320
5512.35,0.74338
5506.57,0.74420
5500.78,0.74612
5495,0.74703
5489.21,0.74595
5483.42,0.74554
5477.64,0.74487
5471.85,0.74759
5466.06,0.74757
5460.28,0.74977
5454.49,0.74972
5448.71,0.75096
5442.92,0.75071
5437.13,0.75203
5431.35,0.75376
5425.56,0.75413
5419.77,0.75514
5413.99,0.75654
5408.2,0.75561
5402.42,0.75808
5396.63,0.75789
5390.84,0.75755
5385.06,0.75736
5379.27,0.75680
5373.48,0.75802
5367.7,0.75804
5361.91,0.75773
5356.13,0.75918
5350.34,0.75590
5344.55,0.75594
5338.77,0.75475
5332.98,0.75189
5327.19,0.75048
5321.41,0.74745
5315.62,0.74218
5309.84,0.73974
5304.05,0.73348
5298.26,0.72936
5292.48,0.72067
5286.69,0.71253
5280.9,0.70507
5275.12,0.69584
5269.33,0.68415
5263.55,0.67597
5257.76,0.66621
5251.97,0.65817
5246.19,0.65116
5240.4,0.64196
5234.61,0.63594
5228.83,0.63054
5223.04,0.62654
5217.26,0.62295
5211.47,0.61860
5205.68,0.61775
5199.9,0.61649
5194.11,0.61666
5188.32,0.61629
5182.54,0.61725
5176.75,0.61820
5170.97,0.61891
5165.18,0.62210
5159.39,0.62564
5153.61,0.62736
5147.82,0.62793
5142.03,0.63101
5136.25,0.63418
5130.46,0.63821
5124.68,0.64159
5118.89,0.64421
5113.1,0.64689
5107.32,0.64944
5101.53,0.65253
5095.75,0.65537
5089.96,0.65671
5084.17,0.65793
5078.39,0.66208
5072.6,0.66336
5066.81,0.66534
5061.03,0.66790
5055.24,0.66959
5049.46,0.67237
5043.67,0.67449
5037.88,0.67630
5032.1,0.67580
5026.31,0.67754
5020.52,0.68052
5014.74,0.68118
5008.95,0.68290
5003.17,0.68161
4997.38,0.68153
4991.59,0.68157
4985.81,0.67975
4980.02,0.67818
4974.23,0.67634
4968.45,0.67360
4962.66,0.67188
4956.88,0.66869
4951.09,0.66401
4945.3,0.66049
4939.52,0.65591
4933.73,0.65092
4927.94,0.64654
4922.16,0.64180
4916.37,0.63689
4910.59,0.63151
4904.8,0.62677
4899.01,0.62186
4893.23,0.61764
4887.44,0.61324
4881.65,0.60764
4875.87,0.60368
4870.08,0.59931
4864.3,0.59466
4858.51,0.59039
4852.72,0.58608
4846.94,0.58437
4841.15,0.58046
4835.36,0.57696
4829.58,0.57310
4823.79,0.57123
4818.01,0.56777
4812.22,0.56521
4806.43,0.56403
4800.65,0.56295
4794.86,0.56065
4789.07,0.56034
4783.29,0.56020
4777.5,0.55821
4771.72,0.55813
4765.93,0.55823
4760.14,0.55892
4754.36,0.55735
4748.57,0.55703
4742.78,0.55682
4737,0.55830
4731.21,0.55719
4725.43,0.55888
4719.64,0.55877
4713.85,0.56038
4708.07,0.56086
4702.28,0.56180
4696.49,0.56293
4690.71,0.56233
4684.92,0.56338
4679.14,0.56460
4673.35,0.56591
4667.56,0.56803
4661.78,0.57008
4655.99,0.57221
4650.2,0.57370
4644.42,0.57655
4638.63,0.57844
4632.85,0.58026
4627.06,0.58341
4621.27,0.58584
4615.49,0.58866
4609.7,0.59228
4603.92,0.59554
4598.13,0.59822
4592.34,0.60048
4586.56,0.60284
4580.77,0.60515
4574.98,0.60636
4569.2,0.60879
4563.41,0.60975
4557.63,0.61124
4551.84,0.61242
4546.05,0.61336
4540.27,0.61450
4534.48,0.61547
4528.69,0.61595
4522.91,0.61661
4517.12,0.61658
4511.34,0.61629
4505.55,0.61447
4499.76,0.61316
4493.98,0.61047
4488.19,0.60710
4482.4,0.60272
4476.62,0.59759
4470.83,0.59232
4465.05,0.58471
4459.26,0.57928
4453.47,0.57200
4447.69,0.56601
4441.9,0.55975
4436.11,0.55286
4430.33,0.54598
4424.54,0.53781
4418.76,0.53037
4412.97,0.52463
4407.18,0.52013
4401.4,0.51838
4395.61,0.51798
4389.82,0.51911
4384.04,0.51989
4378.25,0.52317
4372.47,0.52501
4366.68,0.52760
4360.89,0.52900
4355.11,0.52984
4349.32,0.52929
4343.53,0.52888
4337.75,0.52812
4331.96,0.52689
4326.18,0.52481
4320.39,0.52296
4314.6,0.52058
4308.82,0.51910
4303.03,0.51733
4297.24,0.51499
4291.46,0.51245
4285.67,0.51160
4279.89,0.51136
4274.1,0.51158
4268.31,0.51196
4262.53,0.51320
4256.74,0.51618
4250.95,0.51705
4245.17,0.51749
4239.38,0.51934
4233.6,0.51975
4227.81,0.51945
4222.02,0.51809
4216.24,0.51853
4210.45,0.51930
4204.66,0.52057
4198.88,0.51995
4193.09,0.52119
4187.31,0.52138
4181.52,0.52249
4175.73,0.52427
4169.95,0.52627
4164.16,0.52693
4158.37,0.52709
4152.59,0.52672
4146.8,0.52566
4141.02,0.52361
4135.23,0.52043
4129.44,0.51742
4123.66,0.51442
4117.87,0.51051
4112.09,0.50667
4106.3,0.50186
4100.51,0.49708
4094.73,0.49158
4088.94,0.48649
4083.15,0.48120
4077.37,0.47632
4071.58,0.46949
4065.8,0.46481
4060.01,0.45932
4054.22,0.45345
4048.44,0.44901
4042.65,0.44428
4036.86,0.44047
4031.08,0.43741
4025.29,0.43494
4019.51,0.43238
4013.72,0.43269
4007.93,0.43291
4002.15,0.43281
3996.36,0.43457
3990.57,0.43611
3984.79,0.43808
3979,0.43866
3973.22,0.44050
3967.43,0.44298
3961.64,0.44645
3955.86,0.44869
3950.07,0.45090
3944.28,0.45325
3938.5,0.45637
3932.71,0.45989
3926.93,0.46296
3921.14,0.46617
3915.35,0.46842
3909.57,0.47042
3903.78,0.47306
3897.99,0.47592
3892.21,0.47875
3886.42,0.48080
3880.64,0.48214
3874.85,0.48388
3869.06,0.48691
3863.28,0.48941
3857.49,0.49183
3851.7,0.49619
3845.92,0.49752
3840.13,0.49913
3834.35,0.50212
3828.56,0.50300
3822.77,0.50302
3816.99,0.50384
3811.2,0.50358
3805.41,0.50339
3799.63,0.50378
3793.84,0.50325
3788.06,0.50322
3782.27,0.50255
3776.48,0.50139
3770.7,0.50044
3764.91,0.49930
3759.12,0.49751
3753.34,0.49647
3747.55,0.49463
3741.77,0.49106
3735.98,0.48790
3730.19,0.48404
3724.41,0.47856
3718.62,0.47296
3712.83,0.46736
3707.05,0.45953
3701.26,0.44960
3695.48,0.43812
3689.69,0.42516
3683.9,0.40846
3678.12,0.39031
3672.33,0.36893
3666.54,0.34753
3660.76,0.32624
3654.97,0.30604
3649.19,0.28869
3643.4,0.27111
3637.61,0.25506
3631.83,0.24087
3626.04,0.22535
3620.25,0.21222
3614.47,0.19910
3608.68,0.18611
3602.9,0.17418
3597.11,0.16200
3591.32,0.15208
3585.54,0.14257
3579.75,0.13405
3573.97,0.12655
3568.18,0.11902
3562.39,0.11292
3556.61,0.10758
3550.82,0.10267
3545.03,0.09821
3539.25,0.09460
3533.46,0.09116
3527.68,0.08807
3521.89,0.08551
3516.1,0.08338
3510.32,0.08062
3504.53,0.07816
3498.74,0.07578
3492.96,0.07471
3487.17,0.07225
3481.39,0.07083
3475.6,0.07079
3469.81,0.06898
3464.03,0.06846
3458.24,0.06797
3452.45,0.06655
3446.67,0.06620
3440.88,0.06562
3435.1,0.06624
3429.31,0.06647
3423.52,0.06580
3417.74,0.06597
3411.95,0.06514
3406.16,0.06562
3400.38,0.06647
3394.59,0.06610
3388.81,0.06597
3383.02,0.06656
3377.23,0.06669
3371.45,0.06656
3365.66,0.06730
3359.87,0.06722
3354.09,0.06816
3348.3,0.06890
3342.52,0.06982
3336.73,0.07134
3330.94,0.07242
3325.16,0.07485
3319.37,0.07582
3313.58,0.07727
3307.8,0.07853
3302.01,0.07879
3296.23,0.08020
3290.44,0.08192
3284.65,0.08397
3278.87,0.08495
3273.08,0.08822
3267.29,0.09034
3261.51,0.09236
3255.72,0.09548
3249.94,0.09774
3244.15,0.10047
3238.36,0.10372
3232.58,0.10605
3226.79,0.10940
3221,0.11282
3215.22,0.11659
3209.43,0.11984
3203.65,0.12272
3197.86,0.12642
3192.07,0.12946
3186.29,0.13331
3180.5,0.13724
3174.71,0.14061
3168.93,0.14385
3163.14,0.14813
3157.36,0.15187
3151.57,0.15597
3145.78,0.15903
3140,0.16307
3134.21,0.16712
3128.42,0.17037
3122.64,0.17367
3116.85,0.17734
3111.07,0.18083
3105.28,0.18358
3099.49,0.18713
3093.71,0.18978
3087.92,0.19233
3082.14,0.19417
3076.35,0.19647
3070.56,0.19837
3064.78,0.20121
3058.99,0.20399
3053.2,0.20650
3047.42,0.20897
3041.63,0.21040
3035.85,0.21137
3030.06,0.21153
3024.27,0.21082
3018.49,0.20805
3012.7,0.20389
3006.91,0.19940
3001.13,0.19425
2995.34,0.19046
2989.56,0.18520
2983.77,0.17575
2977.98,0.16403
2972.2,0.15189
2966.41,0.14356
2960.62,0.13854
2954.84,0.13379
2949.05,0.12779
2943.27,0.12263
2937.48,0.11965
2931.69,0.11907
2925.91,0.11823
2920.12,0.11691
2914.33,0.11710
2908.55,0.11758
2902.76,0.11780
2896.98,0.11955
2891.19,0.12147
2885.4,0.12416
2879.62,0.12606
2873.83,0.12857
2868.04,0.13238
2862.26,0.13684
2856.47,0.14165
2850.69,0.14641
2844.9,0.15373
2839.11,0.16212
2833.33,0.17234
2827.54,0.18429
2821.75,0.19541
2815.97,0.20493
2810.18,0.21263
2804.4,0.21925
2798.61,0.22529
2792.82,0.22941
2787.04,0.23320
2781.25,0.23538
2775.46,0.23771
2769.68,0.23939
2763.89,0.24044
2758.11,0.24235
2752.32,0.24315
2746.53,0.24365
2740.75,0.24414
2734.96,0.24526
2729.17,0.24701
2723.39,0.24889
2717.6,0.25182
2711.82,0.25446
2706.03,0.25848
2700.24,0.26233
2694.46,0.26526
2688.67,0.26894
2682.88,0.27200
2677.1,0.27485
2671.31,0.27701
2665.53,0.27956
2659.74,0.28109
2653.95,0.28297
2648.17,0.28483
2642.38,0.28688
2636.59,0.28923
2630.81,0.29198
2625.02,0.29448
2619.24,0.29639
2613.45,0.29853
2607.66,0.30102
2601.88,0.30299
2596.09,0.30467
2590.3,0.30705
2584.52,0.30828
2578.73,0.30997
2572.95,0.31129
2567.16,0.31202
2561.37,0.31241
2555.59,0.31304
2549.8,0.31310
2544.02,0.31442
2538.23,0.31516
2532.44,0.31775
2526.66,0.32012
2520.87,0.32199
2515.08,0.32396
2509.3,0.32720
2503.51,0.33014
2497.73,0.33443
2491.94,0.33751
2486.15,0.34086
2480.37,0.34328
2474.58,0.34620
2468.79,0.34869
2463.01,0.35139
2457.22,0.35408
2451.44,0.35707
2445.65,0.36014
2439.86,0.36294
2434.08,0.36639
2428.29,0.37034
2422.5,0.37361
2416.72,0.37744
2410.93,0.38093
2405.15,0.38449
2399.36,0.38765
2393.57,0.39129
2387.79,0.39455
2382,0.39753
2376.21,0.40049
2370.43,0.40379
2364.64,0.40596
2358.86,0.40808
2353.07,0.41012
2347.28,0.41233
2341.5,0.41437
2335.71,0.41595
2329.92,0.41733
2324.14,0.41837
2318.35,0.41914
2312.57,0.41957
2306.78,0.41952
2300.99,0.41926
2295.21,0.41890
2289.42,0.41916
2283.63,0.41923
2277.85,0.41889
2272.06,0.41777
2266.28,0.41606
2260.49,0.41437
2254.7,0.41341
2248.92,0.41278
2243.13,0.41213
2237.34,0.41181
2231.56,0.41153
2225.77,0.41191
2219.99,0.41242
2214.2,0.41254
2208.41,0.41207
2202.63,0.41131
2196.84,0.40911
2191.05,0.40674
2185.27,0.40343
2179.48,0.40014
2173.7,0.39620
2167.91,0.39318
2162.12,0.39045
2156.34,0.38840
2150.55,0.38640
2144.76,0.38502
2138.98,0.38389
2133.19,0.38425
2127.41,0.38445
2121.62,0.38565
2115.83,0.38726
2110.05,0.38841
2104.26,0.38945
2098.47,0.39111
2092.69,0.39207
2086.9,0.39236
2081.12,0.39118
2075.33,0.39003
2069.54,0.38858
2063.76,0.38706
2057.97,0.38631
2052.19,0.38693
2046.4,0.38813
2040.61,0.39055
2034.83,0.39328
2029.04,0.39708
2023.25,0.40120
2017.47,0.40525
2011.68,0.40851
2005.9,0.41130
2000.11,0.41313
1994.32,0.41594
1988.54,0.41793
1982.75,0.42031
1976.96,0.42173
1971.18,0.42366
1965.39,0.42575
1959.61,0.42831
1953.82,0.43128
1948.03,0.43460
1942.25,0.43787
1936.46,0.44023
1930.67,0.44229
1924.89,0.44355
1919.1,0.44439
1913.32,0.44456
1907.53,0.44445
1901.74,0.44369
1895.96,0.44249
1890.17,0.44114
1884.38,0.44018
1878.6,0.43901
1872.81,0.43814
1867.03,0.43693
1861.24,0.43569
1855.45,0.43394
1849.67,0.43195
1843.88,0.42931
1838.09,0.42612
1832.31,0.42222
1826.52,0.41668
1820.74,0.40926
1814.95,0.39846
1809.16,0.38248
1803.38,0.35952
1797.59,0.33254
1791.8,0.30772
1786.02,0.28639
1780.23,0.26956
1774.45,0.25671
1768.66,0.24113
1762.87,0.22241
1757.09,0.20254
1751.3,0.18583
1745.51,0.17546
1739.73,0.17164
1733.94,0.17484
1728.16,0.18195
1722.37,0.19104
1716.58,0.20285
1710.8,0.21364
1705.01,0.22127
1699.22,0.22320
1693.44,0.21766
1687.65,0.20980
1681.87,0.19572
1676.08,0.18002
1670.29,0.16523
1664.51,0.15697
1658.72,0.15585
1652.93,0.16040
1647.15,0.16291
1641.36,0.16231
1635.58,0.16230
1629.79,0.16086
1624,0.15731
1618.22,0.15171
1612.43,0.14312
1606.64,0.13617
1600.86,0.13483
1595.07,0.13553
1589.29,0.14057
1583.5,0.15367
1577.71,0.17423
1571.93,0.19866
1566.14,0.21543
1560.35,0.22354
1554.57,0.22163
1548.78,0.21593
1543,0.20856
1537.21,0.19529
1531.42,0.17261
1525.64,0.14012
1519.85,0.10238
1514.07,0.08347
1508.28,0.08560
1502.49,0.09872
1496.71,0.11500
1490.92,0.12410
1485.13,0.12230
1479.35,0.11345
1473.56,0.10017
1467.78,0.08770
1461.99,0.08512
1456.2,0.08551
1450.42,0.08573
1444.63,0.08940
1438.84,0.08738
1433.06,0.08151
1427.27,0.08043
1421.49,0.08357
1415.7,0.08957
1409.91,0.09411
1404.13,0.09588
1398.34,0.09543
1392.55,0.09182
1386.77,0.08565
1380.98,0.07931
1375.2,0.07708
1369.41,0.07806
1363.62,0.08138
1357.84,0.08394
1352.05,0.08614
1346.26,0.08599
1340.48,0.08378
1334.69,0.08239
1328.91,0.08284
1323.12,0.08138
1317.33,0.08102
1311.55,0.08373
1305.76,0.08620
1299.97,0.08669
1294.19,0.08407
1288.4,0.07915
1282.62,0.07433
1276.83,0.07180
1271.04,0.07120
1265.26,0.07347
1259.47,0.07696
1253.68,0.08038
1247.9,0.08175
1242.11,0.08170
1236.33,0.08069
1230.54,0.08073
1224.75,0.08226
1218.97,0.08368
1213.18,0.08438
1207.39,0.08628
1201.61,0.08872
1195.82,0.09193
1190.04,0.09229
1184.25,0.08775
1178.46,0.08071
1172.68,0.07257
1166.89,0.07000
1161.1,0.07290
1155.32,0.07498
1149.53,0.07417
1143.75,0.07239
1137.96,0.07028
1132.17,0.06668
1126.39,0.06502
1120.6,0.06627
1114.81,0.06632
1109.03,0.06916
1103.24,0.07145
1097.46,0.07221
1091.67,0.07284
1085.88,0.07348
1080.1,0.07509
1074.31,0.07948
1068.52,0.08462
1062.74,0.09282
1056.95,0.10160
1051.17,0.10247
1045.38,0.10144
1039.59,0.10264
1033.81,0.11064
1028.02,0.11526
1022.24,0.11812
1016.45,0.12176
1010.66,0.12569
1004.88,0.12814
999.09,0.13304
993.304,0.13836
987.518,0.14672
981.731,0.16168
975.945,0.17481
970.159,0.18241
964.373,0.19109
958.586,0.20193
952.8,0.21388
947.014,0.22286
941.228,0.22861
935.441,0.23467
929.655,0.24223
923.869,0.24697
918.083,0.24700
912.297,0.24156
906.51,0.23229
900.724,0.22260
894.938,0.22464
889.152,0.23561
883.365,0.24308
877.579,0.24672
871.793,0.24960
866.007,0.25222
860.22,0.25534
854.434,0.26174
848.648,0.27195
842.862,0.27803
837.075,0.27472
831.289,0.26732
825.503,0.26088
819.717,0.25150
813.931,0.24318
808.144,0.24209
802.358,0.24790
796.572,0.25413
790.786,0.25792
784.999,0.25473
779.213,0.24904
773.427,0.24274
767.641,0.23723
761.854,0.23416
756.068,0.22954
750.282,0.22449
744.496,0.21900
738.709,0.21363
732.923,0.20667
727.137,0.19794
721.351,0.19269
715.565,0.18675
709.778,0.18303
703.992,0.17971
698.206,0.17449
692.42,0.16890
686.633,0.16368
680.847,0.15296
675.061,0.14497
669.275,0.14200
663.488,0.14328
657.702,0.14524
651.916,0.14401
646.13,0.14094
640.343,0.13787
634.557,0.13154
628.771,0.12777
622.985,0.12319
617.198,0.12360
611.412,0.12855
605.626,0.13199
599.84,0.13222