File: 01_Data/Cedar_Shingle/FTIR/IS/Cedar_Shingle_IS_S_221017_R1.dpt
7497.03,0.88133
7491.25,0.88711
7485.46,0.88845
7479.67,0.88989
7473.89,0.87422
7468.1,0.88019
7462.32,0.87292
7456.53,0.87442
7450.74,0.87040
7444.96,0.87110
7439.17,0.86412
7433.38,0.86287
7427.6,0.86317
7421.81,0.86204
7416.03,0.86527
7410.24,0.85745
7404.45,0.85841
7398.67,0.85814
7392.88,0.84558
7387.09,0.85614
7381.31,0.85823
7375.52,0.85257
7369.74,0.85080
7363.95,0.84998
7358.16,0.84663
7352.38,0.84529
7346.59,0.84057
7340.8,0.84790
7335.02,0.83913
7329.23,0.83138
7323.45,0.83808
7317.66,0.83317
7311.87,0.83661
7306.09,0.83553
7300.3,0.83099
7294.51,0.84094
7288.73,0.83335
7282.94,0.81975
7277.16,0.82352
7271.37,0.81597
7265.58,0.82219
7259.8,0.82777
7254.01,0.82744
7248.22,0.82827
7242.44,0.82575
7236.65,0.81935
7230.87,0.82443
7225.08,0.82427
7219.29,0.82063
7213.51,0.82245
7207.72,0.82319
7201.93,0.81444
7196.15,0.81693
7190.36,0.81780
7184.58,0.81062
7178.79,0.80542
7173,0.80988
7167.22,0.79934
7161.43,0.80246
7155.65,0.79791
7149.86,0.79626
7144.07,0.79667
7138.29,0.79350
7132.5,0.79324
7126.71,0.78897
7120.93,0.78350
7115.14,0.77960
7109.36,0.77356
7103.57,0.76554
7097.78,0.76846
7092,0.76634
7086.21,0.75765
7080.42,0.74991
7074.64,0.75166
7068.85,0.74282
7063.07,0.73962
7057.28,0.73416
7051.49,0.72962
7045.71,0.71998
7039.92,0.71826
7034.13,0.71726
7028.35,0.71256
7022.56,0.71202
7016.78,0.70970
7010.99,0.69776
7005.2,0.69391
6999.42,0.69795
6993.63,0.69851
6987.84,0.69391
6982.06,0.69185
6976.27,0.68662
6970.49,0.69269
6964.7,0.68581
6958.91,0.68705
6953.13,0.68241
6947.34,0.68923
6941.55,0.69034
6935.77,0.68799
6929.98,0.67997
6924.2,0.68250
6918.41,0.68404
6912.62,0.68383
6906.84,0.67765
6901.05,0.67659
6895.26,0.67911
6889.48,0.68538
6883.69,0.68964
6877.91,0.68935
6872.12,0.67861
6866.33,0.68006
6860.55,0.68120
6854.76,0.68430
6848.97,0.68343
6843.19,0.67753
6837.4,0.67762
6831.62,0.68481
6825.83,0.67869
6820.04,0.68299
6814.26,0.67978
6808.47,0.68025
6802.68,0.67870
6796.9,0.68076
6791.11,0.67693
6785.33,0.68277
6779.54,0.68067
6773.75,0.67749
6767.97,0.68120
6762.18,0.68073
6756.39,0.67887
6750.61,0.67887
6744.82,0.68125
6739.04,0.68213
6733.25,0.68694
6727.46,0.68136
6721.68,0.68321
6715.89,0.68559
6710.1,0.68436
6704.32,0.68392
6698.53,0.68832
6692.75,0.68478
6686.96,0.69073
6681.17,0.68631
6675.39,0.68673
6669.6,0.68533
6663.82,0.68559
6658.03,0.69398
6652.24,0.69228
6646.46,0.69678
6640.67,0.69348
6634.88,0.69742
6629.1,0.70111
6623.31,0.70148
6617.53,0.69690
6611.74,0.70378
6605.95,0.70100
6600.17,0.69834
6594.38,0.70202
6588.59,0.70526
6582.81,0.70573
6577.02,0.70457
6571.24,0.70396
6565.45,0.70644
6559.66,0.70447
6553.88,0.70630
6548.09,0.70784
6542.3,0.70907
6536.52,0.70555
6530.73,0.70721
6524.95,0.70758
6519.16,0.70417
6513.37,0.70714
6507.59,0.70778
6501.8,0.70834
6496.01,0.70821
6490.23,0.71249
6484.44,0.71045
6478.66,0.70771
6472.87,0.71052
6467.08,0.71430
6461.3,0.71236
6455.51,0.71265
6449.72,0.71419
6443.94,0.71350
6438.15,0.71524
6432.37,0.71328
6426.58,0.71261
6420.79,0.71405
6415.01,0.71942
6409.22,0.71811
6403.43,0.71835
6397.65,0.71978
6391.86,0.72181
6386.08,0.71956
6380.29,0.71934
6374.5,0.71630
6368.72,0.72036
6362.93,0.71554
6357.14,0.71740
6351.36,0.72055
6345.57,0.72305
6339.79,0.72336
6334,0.72323
6328.21,0.71907
6322.43,0.72182
6316.64,0.72177
6310.85,0.72354
6305.07,0.72266
6299.28,0.72694
6293.5,0.72586
6287.71,0.72547
6281.92,0.72386
6276.14,0.72761
6270.35,0.73204
6264.56,0.73316
6258.78,0.73161
6252.99,0.73431
6247.21,0.73631
6241.42,0.73913
6235.63,0.73902
6229.85,0.74168
6224.06,0.74129
6218.27,0.74545
6212.49,0.74597
6206.7,0.74593
6200.92,0.74557
6195.13,0.75094
6189.34,0.75039
6183.56,0.75300
6177.77,0.75025
6171.98,0.75500
6166.2,0.75611
6160.41,0.75612
6154.63,0.75582
6148.84,0.75609
6143.05,0.75533
6137.27,0.75724
6131.48,0.76076
6125.7,0.76004
6119.91,0.76182
6114.12,0.76058
6108.34,0.75948
6102.55,0.76220
6096.76,0.76170
6090.98,0.76368
6085.19,0.76378
6079.41,0.76496
6073.62,0.76170
6067.83,0.76586
6062.05,0.76149
6056.26,0.76340
6050.47,0.75965
6044.69,0.75824
6038.9,0.75827
6033.12,0.75530
6027.33,0.75571
6021.54,0.75444
6015.76,0.75027
6009.97,0.75031
6004.18,0.74911
5998.4,0.74817
5992.61,0.74317
5986.83,0.74255
5981.04,0.74309
5975.25,0.74225
5969.47,0.74182
5963.68,0.74194
5957.89,0.74169
5952.11,0.73898
5946.32,0.74085
5940.54,0.74148
5934.75,0.74358
5928.96,0.74348
5923.18,0.73947
5917.39,0.73975
5911.6,0.74043
5905.82,0.73991
5900.03,0.73791
5894.25,0.73453
5888.46,0.73406
5882.67,0.73513
5876.89,0.73653
5871.1,0.73602
5865.31,0.73522
5859.53,0.73594
5853.74,0.73588
5847.96,0.73902
5842.17,0.73767
5836.38,0.73664
5830.6,0.73518
5824.81,0.73695
5819.02,0.73657
5813.24,0.73443
5807.45,0.73285
5801.67,0.73115
5795.88,0.73224
5790.09,0.73304
5784.31,0.73373
5778.52,0.73297
5772.73,0.73317
5766.95,0.73634
5761.16,0.73823
5755.38,0.73594
5749.59,0.73666
5743.8,0.73611
5738.02,0.73783
5732.23,0.73613
5726.44,0.73793
5720.66,0.73706
5714.87,0.73572
5709.09,0.73593
5703.3,0.73431
5697.51,0.73584
5691.73,0.73561
5685.94,0.73581
5680.15,0.73874
5674.37,0.73622
5668.58,0.73671
5662.8,0.73757
5657.01,0.73629
5651.22,0.73657
5645.44,0.73445
5639.65,0.73519
5633.87,0.73545
5628.08,0.73646
5622.29,0.73353
5616.51,0.73374
5610.72,0.73506
5604.93,0.73466
5599.15,0.73655
5593.36,0.73580
5587.58,0.73423
5581.79,0.73694
5576,0.73733
5570.22,0.73688
5564.43,0.73601
5558.64,0.73688
5552.86,0.73783
5547.07,0.73953
5541.29,0.74058
5535.5,0.73979
5529.71,0.74074
5523.93,0.74033
5518.14,0.74098
5512.35,0.74412
5506.57,0.74301
5500.78,0.74213
5495,0.74438
5489.21,0.74369
5483.42,0.74310
5477.64,0.74387
5471.85,0.74358
5466.06,0.74431
5460.28,0.74786
5454.49,0.74703
5448.71,0.74806
5442.92,0.74980
5437.13,0.74963
5431.35,0.75081
5425.56,0.75145
5419.77,0.75183
5413.99,0.75259
5408.2,0.75456
5402.42,0.75256
5396.63,0.75568
5390.84,0.75420
5385.06,0.75627
5379.27,0.75479
5373.48,0.75528
5367.7,0.75484
5361.91,0.75436
5356.13,0.75312
5350.34,0.75072
5344.55,0.74852
5338.77,0.74756
5332.98,0.74571
5327.19,0.74238
5321.41,0.73828
5315.62,0.73452
5309.84,0.72903
5304.05,0.72394
5298.26,0.71701
5292.48,0.71072
5286.69,0.69975
5280.9,0.68927
5275.12,0.67866
5269.33,0.66717
5263.55,0.65607
5257.76,0.64417
5251.97,0.63389
5246.19,0.62310
5240.4,0.61682
5234.61,0.60946
5228.83,0.60293
5223.04,0.59934
5217.26,0.59545
5211.47,0.59292
5205.68,0.59046
5199.9,0.58826
5194.11,0.58742
5188.32,0.58729
5182.54,0.58730
5176.75,0.58752
5170.97,0.59057
5165.18,0.59300
5159.39,0.59543
5153.61,0.59735
5147.82,0.60096
5142.03,0.60448
5136.25,0.60810
5130.46,0.61130
5124.68,0.61367
5118.89,0.61623
5113.1,0.62013
5107.32,0.62332
5101.53,0.62684
5095.75,0.62956
5089.96,0.63162
5084.17,0.63424
5078.39,0.63646
5072.6,0.64086
5066.81,0.64314
5061.03,0.64602
5055.24,0.64922
5049.46,0.65145
5043.67,0.65393
5037.88,0.65572
5032.1,0.65763
5026.31,0.65993
5020.52,0.66212
5014.74,0.66306
5008.95,0.66481
5003.17,0.66534
4997.38,0.66545
4991.59,0.66526
4985.81,0.66564
4980.02,0.66542
4974.23,0.66423
4968.45,0.66413
4962.66,0.66245
4956.88,0.65758
4951.09,0.65526
4945.3,0.65212
4939.52,0.64828
4933.73,0.64476
4927.94,0.64123
4922.16,0.63607
4916.37,0.63053
4910.59,0.62709
4904.8,0.62301
4899.01,0.61769
4893.23,0.61381
4887.44,0.61033
4881.65,0.60433
4875.87,0.59999
4870.08,0.59647
4864.3,0.59157
4858.51,0.58871
4852.72,0.58403
4846.94,0.58089
4841.15,0.57804
4835.36,0.57366
4829.58,0.57112
4823.79,0.56956
4818.01,0.56651
4812.22,0.56392
4806.43,0.56265
4800.65,0.55986
4794.86,0.55865
4789.07,0.55920
4783.29,0.55775
4777.5,0.55638
4771.72,0.55548
4765.93,0.55494
4760.14,0.55436
4754.36,0.55439
4748.57,0.55454
4742.78,0.55424
4737,0.55440
4731.21,0.55490
4725.43,0.55606
4719.64,0.55616
4713.85,0.55729
4708.07,0.55770
4702.28,0.55776
4696.49,0.55869
4690.71,0.56034
4684.92,0.55952
4679.14,0.56154
4673.35,0.56229
4667.56,0.56411
4661.78,0.56612
4655.99,0.56915
4650.2,0.57181
4644.42,0.57293
4638.63,0.57526
4632.85,0.57659
4627.06,0.57947
4621.27,0.58287
4615.49,0.58627
4609.7,0.58804
4603.92,0.59096
4598.13,0.59425
4592.34,0.59630
4586.56,0.59881
4580.77,0.60091
4574.98,0.60322
4569.2,0.60484
4563.41,0.60718
4557.63,0.60790
4551.84,0.60895
4546.05,0.60976
4540.27,0.61073
4534.48,0.61172
4528.69,0.61265
4522.91,0.61306
4517.12,0.61235
4511.34,0.61260
4505.55,0.61230
4499.76,0.60911
4493.98,0.60699
4488.19,0.60312
4482.4,0.59929
4476.62,0.59412
4470.83,0.58825
4465.05,0.58152
4459.26,0.57529
4453.47,0.56919
4447.69,0.56332
4441.9,0.55642
4436.11,0.54998
4430.33,0.54298
4424.54,0.53561
4418.76,0.52842
4412.97,0.52249
4407.18,0.51838
4401.4,0.51662
4395.61,0.51468
4389.82,0.51694
4384.04,0.51911
4378.25,0.52106
4372.47,0.52363
4366.68,0.52533
4360.89,0.52763
4355.11,0.52775
4349.32,0.52783
4343.53,0.52670
4337.75,0.52594
4331.96,0.52461
4326.18,0.52239
4320.39,0.52058
4314.6,0.51849
4308.82,0.51663
4303.03,0.51402
4297.24,0.51213
4291.46,0.51057
4285.67,0.50928
4279.89,0.50861
4274.1,0.50874
4268.31,0.50970
4262.53,0.51139
4256.74,0.51243
4250.95,0.51394
4245.17,0.51422
4239.38,0.51530
4233.6,0.51564
4227.81,0.51528
4222.02,0.51500
4216.24,0.51526
4210.45,0.51480
4204.66,0.51569
4198.88,0.51568
4193.09,0.51647
4187.31,0.51733
4181.52,0.51815
4175.73,0.51916
4169.95,0.52013
4164.16,0.52185
4158.37,0.52274
4152.59,0.52013
4146.8,0.51934
4141.02,0.51825
4135.23,0.51485
4129.44,0.51182
4123.66,0.50903
4117.87,0.50535
4112.09,0.50062
4106.3,0.49552
4100.51,0.49089
4094.73,0.48737
4088.94,0.48114
4083.15,0.47581
4077.37,0.47040
4071.58,0.46536
4065.8,0.45991
4060.01,0.45445
4054.22,0.44896
4048.44,0.44399
4042.65,0.43954
4036.86,0.43532
4031.08,0.43193
4025.29,0.42962
4019.51,0.42916
4013.72,0.42776
4007.93,0.42693
4002.15,0.42785
3996.36,0.42917
3990.57,0.43019
3984.79,0.43251
3979,0.43365
3973.22,0.43497
3967.43,0.43660
3961.64,0.43976
3955.86,0.44192
3950.07,0.44503
3944.28,0.44775
3938.5,0.45037
3932.71,0.45428
3926.93,0.45626
3921.14,0.45950
3915.35,0.46165
3909.57,0.46385
3903.78,0.46725
3897.99,0.46937
3892.21,0.47059
3886.42,0.47285
3880.64,0.47474
3874.85,0.47631
3869.06,0.47971
3863.28,0.48182
3857.49,0.48463
3851.7,0.48854
3845.92,0.48952
3840.13,0.49197
3834.35,0.49289
3828.56,0.49314
3822.77,0.49396
3816.99,0.49401
3811.2,0.49320
3805.41,0.49237
3799.63,0.49340
3793.84,0.49190
3788.06,0.49094
3782.27,0.48989
3776.48,0.48886
3770.7,0.48780
3764.91,0.48562
3759.12,0.48394
3753.34,0.48217
3747.55,0.47967
3741.77,0.47588
3735.98,0.47156
3730.19,0.46680
3724.41,0.46045
3718.62,0.45496
3712.83,0.44818
3707.05,0.43838
3701.26,0.42729
3695.48,0.41436
3689.69,0.40089
3683.9,0.38141
3678.12,0.36124
3672.33,0.33839
3666.54,0.31437
3660.76,0.29292
3654.97,0.27211
3649.19,0.25436
3643.4,0.23653
3637.61,0.22181
3631.83,0.20856
3626.04,0.19608
3620.25,0.18444
3614.47,0.17285
3608.68,0.16311
3602.9,0.15310
3597.11,0.14407
3591.32,0.13591
3585.54,0.12851
3579.75,0.12194
3573.97,0.11558
3568.18,0.11039
3562.39,0.10482
3556.61,0.10026
3550.82,0.09701
3545.03,0.09266
3539.25,0.08990
3533.46,0.08701
3527.68,0.08439
3521.89,0.08143
3516.1,0.07898
3510.32,0.07724
3504.53,0.07569
3498.74,0.07409
3492.96,0.07201
3487.17,0.07060
3481.39,0.06898
3475.6,0.06789
3469.81,0.06683
3464.03,0.06600
3458.24,0.06484
3452.45,0.06546
3446.67,0.06418
3440.88,0.06388
3435.1,0.06407
3429.31,0.06407
3423.52,0.06364
3417.74,0.06374
3411.95,0.06417
3406.16,0.06407
3400.38,0.06455
3394.59,0.06466
3388.81,0.06474
3383.02,0.06483
3377.23,0.06478
3371.45,0.06565
3365.66,0.06541
3359.87,0.06617
3354.09,0.06681
3348.3,0.06703
3342.52,0.06833
3336.73,0.06985
3330.94,0.07152
3325.16,0.07236
3319.37,0.07387
3313.58,0.07498
3307.8,0.07619
3302.01,0.07676
3296.23,0.07841
3290.44,0.07933
3284.65,0.08128
3278.87,0.08327
3273.08,0.08523
3267.29,0.08752
3261.51,0.08888
3255.72,0.09130
3249.94,0.09345
3244.15,0.09627
3238.36,0.09884
3232.58,0.10106
3226.79,0.10403
3221,0.10697
3215.22,0.10942
3209.43,0.11267
3203.65,0.11604
3197.86,0.11867
3192.07,0.12153
3186.29,0.12470
3180.5,0.12775
3174.71,0.13063
3168.93,0.13415
3163.14,0.13737
3157.36,0.14049
3151.57,0.14410
3145.78,0.14775
3140,0.15062
3134.21,0.15383
3128.42,0.15833
3122.64,0.16085
3116.85,0.16424
3111.07,0.16719
3105.28,0.17036
3099.49,0.17398
3093.71,0.17654
3087.92,0.17871
3082.14,0.18112
3076.35,0.18326
3070.56,0.18642
3064.78,0.18841
3058.99,0.19195
3053.2,0.19412
3047.42,0.19600
3041.63,0.19831
3035.85,0.19936
3030.06,0.19995
3024.27,0.20000
3018.49,0.19770
3012.7,0.19488
3006.91,0.19102
3001.13,0.18750
2995.34,0.18403
2989.56,0.17915
2983.77,0.17100
2977.98,0.16012
2972.2,0.14898
2966.41,0.14075
2960.62,0.13655
2954.84,0.13211
2949.05,0.12646
2943.27,0.12127
2937.48,0.11877
2931.69,0.11856
2925.91,0.11748
2920.12,0.11656
2914.33,0.11584
2908.55,0.11644
2902.76,0.11716
2896.98,0.11802
2891.19,0.12040
2885.4,0.12289
2879.62,0.12549
2873.83,0.12771
2868.04,0.13108
2862.26,0.13581
2856.47,0.13954
2850.69,0.14430
2844.9,0.15204
2839.11,0.16009
2833.33,0.16956
2827.54,0.18097
2821.75,0.19137
2815.97,0.20044
2810.18,0.20802
2804.4,0.21428
2798.61,0.21934
2792.82,0.22341
2787.04,0.22728
2781.25,0.22991
2775.46,0.23158
2769.68,0.23325
2763.89,0.23480
2758.11,0.23619
2752.32,0.23730
2746.53,0.23742
2740.75,0.23819
2734.96,0.23894
2729.17,0.24088
2723.39,0.24260
2717.6,0.24558
2711.82,0.24899
2706.03,0.25296
2700.24,0.25603
2694.46,0.25966
2688.67,0.26306
2682.88,0.26600
2677.1,0.26868
2671.31,0.27131
2665.53,0.27329
2659.74,0.27518
2653.95,0.27696
2648.17,0.27884
2642.38,0.28138
2636.59,0.28355
2630.81,0.28633
2625.02,0.28845
2619.24,0.29096
2613.45,0.29283
2607.66,0.29487
2601.88,0.29709
2596.09,0.29906
2590.3,0.30080
2584.52,0.30249
2578.73,0.30439
2572.95,0.30508
2567.16,0.30608
2561.37,0.30650
2555.59,0.30699
2549.8,0.30755
2544.02,0.30850
2538.23,0.30930
2532.44,0.31132
2526.66,0.31409
2520.87,0.31596
2515.08,0.31828
2509.3,0.32074
2503.51,0.32455
2497.73,0.32814
2491.94,0.33155
2486.15,0.33429
2480.37,0.33715
2474.58,0.34021
2468.79,0.34240
2463.01,0.34533
2457.22,0.34784
2451.44,0.35122
2445.65,0.35390
2439.86,0.35686
2434.08,0.36007
2428.29,0.36379
2422.5,0.36717
2416.72,0.37112
2410.93,0.37445
2405.15,0.37790
2399.36,0.38091
2393.57,0.38410
2387.79,0.38717
2382,0.38995
2376.21,0.39284
2370.43,0.39542
2364.64,0.39766
2358.86,0.39992
2353.07,0.40195
2347.28,0.40330
2341.5,0.40544
2335.71,0.40664
2329.92,0.40764
2324.14,0.40853
2318.35,0.40950
2312.57,0.40968
2306.78,0.40971
2300.99,0.40913
2295.21,0.40866
2289.42,0.40865
2283.63,0.40826
2277.85,0.40815
2272.06,0.40677
2266.28,0.40468
2260.49,0.40311
2254.7,0.40192
2248.92,0.40116
2243.13,0.40039
2237.34,0.39950
2231.56,0.39947
2225.77,0.39901
2219.99,0.39932
2214.2,0.39931
2208.41,0.39863
2202.63,0.39729
2196.84,0.39521
2191.05,0.39256
2185.27,0.38937
2179.48,0.38594
2173.7,0.38263
2167.91,0.37934
2162.12,0.37651
2156.34,0.37444
2150.55,0.37291
2144.76,0.37128
2138.98,0.37029
2133.19,0.37018
2127.41,0.37084
2121.62,0.37169
2115.83,0.37305
2110.05,0.37430
2104.26,0.37564
2098.47,0.37658
2092.69,0.37796
2086.9,0.37825
2081.12,0.37763
2075.33,0.37622
2069.54,0.37470
2063.76,0.37326
2057.97,0.37316
2052.19,0.37389
2046.4,0.37515
2040.61,0.37759
2034.83,0.38048
2029.04,0.38431
2023.25,0.38817
2017.47,0.39201
2011.68,0.39573
2005.9,0.39825
2000.11,0.40033
1994.32,0.40273
1988.54,0.40493
1982.75,0.40696
1976.96,0.40930
1971.18,0.41103
1965.39,0.41338
1959.61,0.41591
1953.82,0.41878
1948.03,0.42224
1942.25,0.42578
1936.46,0.42817
1930.67,0.42985
1924.89,0.43149
1919.1,0.43300
1913.32,0.43325
1907.53,0.43288
1901.74,0.43238
1895.96,0.43148
1890.17,0.43077
1884.38,0.42955
1878.6,0.42867
1872.81,0.42798
1867.03,0.42712
1861.24,0.42548
1855.45,0.42428
1849.67,0.42242
1843.88,0.42035
1838.09,0.41681
1832.31,0.41317
1826.52,0.40826
1820.74,0.40126
1814.95,0.39158
1809.16,0.37713
1803.38,0.35608
1797.59,0.33156
1791.8,0.30757
1786.02,0.28570
1780.23,0.26922
1774.45,0.25607
1768.66,0.24139
1762.87,0.22361
1757.09,0.20346
1751.3,0.18650
1745.51,0.17567
1739.73,0.17090
1733.94,0.17284
1728.16,0.17873
1722.37,0.18698
1716.58,0.19868
1710.8,0.20809
1705.01,0.21449
1699.22,0.21558
1693.44,0.20927
1687.65,0.20059
1681.87,0.18691
1676.08,0.17182
1670.29,0.15758
1664.51,0.14817
1658.72,0.14488
1652.93,0.14839
1647.15,0.14986
1641.36,0.14945
1635.58,0.15014
1629.79,0.14935
1624,0.14781
1618.22,0.14459
1612.43,0.13779
1606.64,0.13331
1600.86,0.13242
1595.07,0.13341
1589.29,0.13839
1583.5,0.15175
1577.71,0.17181
1571.93,0.19425
1566.14,0.21051
1560.35,0.21871
1554.57,0.21732
1548.78,0.21129
1543,0.20432
1537.21,0.19164
1531.42,0.16917
1525.64,0.13775
1519.85,0.10261
1514.07,0.08414
1508.28,0.08596
1502.49,0.10002
1496.71,0.11577
1490.92,0.12423
1485.13,0.12186
1479.35,0.11334
1473.56,0.09989
1467.78,0.08689
1461.99,0.08478
1456.2,0.08515
1450.42,0.08515
1444.63,0.08894
1438.84,0.08727
1433.06,0.08123
1427.27,0.07993
1421.49,0.08338
1415.7,0.08931
1409.91,0.09420
1404.13,0.09630
1398.34,0.09554
1392.55,0.09159
1386.77,0.08529
1380.98,0.07896
1375.2,0.07677
1369.41,0.07819
1363.62,0.08100
1357.84,0.08375
1352.05,0.08597
1346.26,0.08559
1340.48,0.08358
1334.69,0.08216
1328.91,0.08228
1323.12,0.08110
1317.33,0.08077
1311.55,0.08334
1305.76,0.08587
1299.97,0.08610
1294.19,0.08308
1288.4,0.07873
1282.62,0.07419
1276.83,0.07142
1271.04,0.07100
1265.26,0.07298
1259.47,0.07671
1253.68,0.07915
1247.9,0.08079
1242.11,0.08132
1236.33,0.08030
1230.54,0.08015
1224.75,0.08147
1218.97,0.08291
1213.18,0.08400
1207.39,0.08458
1201.61,0.08852
1195.82,0.09096
1190.04,0.09117
1184.25,0.08658
1178.46,0.07947
1172.68,0.07136
1166.89,0.06847
1161.1,0.07180
1155.32,0.07430
1149.53,0.07339
1143.75,0.07195
1137.96,0.06975
1132.17,0.06648
1126.39,0.06490
1120.6,0.06540
1114.81,0.06550
1109.03,0.06830
1103.24,0.07170
1097.46,0.07152
1091.67,0.07172
1085.88,0.07174
1080.1,0.07431
1074.31,0.07799
1068.52,0.08343
1062.74,0.09233
1056.95,0.10060
1051.17,0.10205
1045.38,0.09939
1039.59,0.10153
1033.81,0.10936
1028.02,0.11392
1022.24,0.11651
1016.45,0.12143
1010.66,0.12465
1004.88,0.12711
999.09,0.13127
993.304,0.13689
987.518,0.14551
981.731,0.15998
975.945,0.17273
970.159,0.17979
964.373,0.18782
958.586,0.19910
952.8,0.20966
947.014,0.21781
941.228,0.22351
935.441,0.23021
929.655,0.23589
923.869,0.23990
918.083,0.24089
912.297,0.23532
906.51,0.22588
900.724,0.21650
894.938,0.21800
889.152,0.22869
883.365,0.23648
877.579,0.23899
871.793,0.24055
866.007,0.24277
860.22,0.24605
854.434,0.25194
848.648,0.26035
842.862,0.26420
837.075,0.26166
831.289,0.25566
825.503,0.24899
819.717,0.24018
813.931,0.23261
808.144,0.23136
802.358,0.23573
796.572,0.24039
790.786,0.24300
784.999,0.24053
779.213,0.23386
773.427,0.22879
767.641,0.22404
761.854,0.22021
756.068,0.21550
750.282,0.21137
744.496,0.20566
738.709,0.20110
732.923,0.19433
727.137,0.18725
721.351,0.18049
715.565,0.17712
709.778,0.17425
703.992,0.17041
698.206,0.16583
692.42,0.16183
686.633,0.15688
680.847,0.14932
675.061,0.13956
669.275,0.13817
663.488,0.13830
657.702,0.14101
651.916,0.14072
646.13,0.13907
640.343,0.13304
634.557,0.12980
628.771,0.12714
622.985,0.12176
617.198,0.12269
611.412,0.12769
605.626,0.12749
599.84,0.12990