File: 01_Data/PUF_Mattress_Pad/FTIR/IS/PUF_Mattress_Pad_IS_S_221003_R2.dpt
7497.03,0.68954
7491.25,0.68356
7485.46,0.67716
7479.67,0.66141
7473.89,0.67556
7468.1,0.66920
7462.32,0.66587
7456.53,0.67732
7450.74,0.67161
7444.96,0.66029
7439.17,0.67276
7433.38,0.66572
7427.6,0.67307
7421.81,0.67269
7416.03,0.66183
7410.24,0.67334
7404.45,0.67321
7398.67,0.66382
7392.88,0.66025
7387.09,0.65936
7381.31,0.65834
7375.52,0.66623
7369.74,0.66385
7363.95,0.66393
7358.16,0.65645
7352.38,0.65706
7346.59,0.65370
7340.8,0.65677
7335.02,0.66355
7329.23,0.65373
7323.45,0.65447
7317.66,0.65802
7311.87,0.65612
7306.09,0.65302
7300.3,0.65720
7294.51,0.65832
7288.73,0.64837
7282.94,0.65177
7277.16,0.64890
7271.37,0.64647
7265.58,0.64398
7259.8,0.64978
7254.01,0.64183
7248.22,0.64896
7242.44,0.63977
7236.65,0.64961
7230.87,0.64832
7225.08,0.64930
7219.29,0.64575
7213.51,0.64978
7207.72,0.63729
7201.93,0.64298
7196.15,0.63755
7190.36,0.64427
7184.58,0.64152
7178.79,0.64386
7173,0.64730
7167.22,0.64791
7161.43,0.64672
7155.65,0.64315
7149.86,0.64879
7144.07,0.65591
7138.29,0.64595
7132.5,0.64822
7126.71,0.64907
7120.93,0.64590
7115.14,0.64938
7109.36,0.64769
7103.57,0.65051
7097.78,0.64388
7092,0.65165
7086.21,0.64574
7080.42,0.65316
7074.64,0.64618
7068.85,0.64917
7063.07,0.65242
7057.28,0.65148
7051.49,0.65294
7045.71,0.64549
7039.92,0.65441
7034.13,0.65440
7028.35,0.65310
7022.56,0.65143
7016.78,0.65143
7010.99,0.65468
7005.2,0.65163
6999.42,0.65389
6993.63,0.65419
6987.84,0.65087
6982.06,0.64954
6976.27,0.64848
6970.49,0.65535
6964.7,0.65785
6958.91,0.65491
6953.13,0.65303
6947.34,0.65369
6941.55,0.65825
6935.77,0.65306
6929.98,0.65978
6924.2,0.66052
6918.41,0.65592
6912.62,0.65591
6906.84,0.65740
6901.05,0.66129
6895.26,0.65267
6889.48,0.65846
6883.69,0.65458
6877.91,0.66143
6872.12,0.65745
6866.33,0.65512
6860.55,0.65592
6854.76,0.65700
6848.97,0.65378
6843.19,0.65144
6837.4,0.64977
6831.62,0.65432
6825.83,0.65794
6820.04,0.65173
6814.26,0.65392
6808.47,0.65297
6802.68,0.65374
6796.9,0.65090
6791.11,0.65603
6785.33,0.65149
6779.54,0.64963
6773.75,0.65132
6767.97,0.65187
6762.18,0.64819
6756.39,0.64174
6750.61,0.64840
6744.82,0.65034
6739.04,0.64757
6733.25,0.64339
6727.46,0.64057
6721.68,0.64593
6715.89,0.63805
6710.1,0.64003
6704.32,0.63763
6698.53,0.63201
6692.75,0.62344
6686.96,0.62657
6681.17,0.62420
6675.39,0.62236
6669.6,0.62703
6663.82,0.62898
6658.03,0.62488
6652.24,0.62496
6646.46,0.62577
6640.67,0.62513
6634.88,0.62719
6629.1,0.62271
6623.31,0.62312
6617.53,0.62499
6611.74,0.62352
6605.95,0.62390
6600.17,0.63017
6594.38,0.62401
6588.59,0.62538
6582.81,0.63177
6577.02,0.63260
6571.24,0.63233
6565.45,0.63262
6559.66,0.62997
6553.88,0.63259
6548.09,0.63611
6542.3,0.63969
6536.52,0.63784
6530.73,0.64385
6524.95,0.64339
6519.16,0.64271
6513.37,0.64666
6507.59,0.64533
6501.8,0.64546
6496.01,0.64439
6490.23,0.64830
6484.44,0.64680
6478.66,0.64587
6472.87,0.65155
6467.08,0.65047
6461.3,0.64702
6455.51,0.65232
6449.72,0.65368
6443.94,0.65415
6438.15,0.64947
6432.37,0.65094
6426.58,0.65271
6420.79,0.65595
6415.01,0.64979
6409.22,0.65055
6403.43,0.65068
6397.65,0.64819
6391.86,0.65190
6386.08,0.65502
6380.29,0.65422
6374.5,0.65100
6368.72,0.65288
6362.93,0.65560
6357.14,0.65374
6351.36,0.65122
6345.57,0.64986
6339.79,0.65388
6334,0.64827
6328.21,0.65318
6322.43,0.65103
6316.64,0.65525
6310.85,0.65418
6305.07,0.65285
6299.28,0.65041
6293.5,0.64949
6287.71,0.65158
6281.92,0.64906
6276.14,0.65138
6270.35,0.65068
6264.56,0.65189
6258.78,0.65210
6252.99,0.65381
6247.21,0.64928
6241.42,0.65175
6235.63,0.65530
6229.85,0.65132
6224.06,0.65432
6218.27,0.65182
6212.49,0.65318
6206.7,0.65341
6200.92,0.65123
6195.13,0.64900
6189.34,0.65097
6183.56,0.65227
6177.77,0.65041
6171.98,0.65365
6166.2,0.65083
6160.41,0.64834
6154.63,0.64886
6148.84,0.64865
6143.05,0.64191
6137.27,0.64627
6131.48,0.64948
6125.7,0.64346
6119.91,0.64332
6114.12,0.64065
6108.34,0.63784
6102.55,0.63596
6096.76,0.63677
6090.98,0.63563
6085.19,0.63264
6079.41,0.63518
6073.62,0.63015
6067.83,0.62958
6062.05,0.63613
6056.26,0.63286
6050.47,0.62794
6044.69,0.62699
6038.9,0.62707
6033.12,0.62411
6027.33,0.62009
6021.54,0.61944
6015.76,0.61314
6009.97,0.61390
6004.18,0.61128
5998.4,0.60757
5992.61,0.59855
5986.83,0.59678
5981.04,0.59170
5975.25,0.58375
5969.47,0.57579
5963.68,0.56598
5957.89,0.55270
5952.11,0.54076
5946.32,0.53452
5940.54,0.53059
5934.75,0.53203
5928.96,0.53911
5923.18,0.54449
5917.39,0.53829
5911.6,0.53100
5905.82,0.52384
5900.03,0.52210
5894.25,0.52611
5888.46,0.52748
5882.67,0.53864
5876.89,0.54462
5871.1,0.54555
5865.31,0.54628
5859.53,0.54764
5853.74,0.54799
5847.96,0.54485
5842.17,0.54222
5836.38,0.54121
5830.6,0.53785
5824.81,0.53418
5819.02,0.53252
5813.24,0.52881
5807.45,0.52639
5801.67,0.52041
5795.88,0.51636
5790.09,0.51353
5784.31,0.51238
5778.52,0.50787
5772.73,0.50844
5766.95,0.50803
5761.16,0.51067
5755.38,0.51369
5749.59,0.51826
5743.8,0.52453
5738.02,0.52719
5732.23,0.53387
5726.44,0.54126
5720.66,0.54316
5714.87,0.54733
5709.09,0.55067
5703.3,0.55729
5697.51,0.56198
5691.73,0.56095
5685.94,0.56139
5680.15,0.55969
5674.37,0.55886
5668.58,0.55715
5662.8,0.55856
5657.01,0.55983
5651.22,0.56131
5645.44,0.56433
5639.65,0.56817
5633.87,0.56911
5628.08,0.57143
5622.29,0.57583
5616.51,0.58097
5610.72,0.58076
5604.93,0.57932
5599.15,0.58050
5593.36,0.58309
5587.58,0.58104
5581.79,0.58205
5576,0.58204
5570.22,0.58109
5564.43,0.58172
5558.64,0.58100
5552.86,0.58202
5547.07,0.58155
5541.29,0.58128
5535.5,0.57881
5529.71,0.58149
5523.93,0.58208
5518.14,0.58233
5512.35,0.58460
5506.57,0.58453
5500.78,0.58555
5495,0.58594
5489.21,0.58954
5483.42,0.58894
5477.64,0.58836
5471.85,0.58825
5466.06,0.58949
5460.28,0.58927
5454.49,0.59079
5448.71,0.58962
5442.92,0.59141
5437.13,0.59175
5431.35,0.59364
5425.56,0.59631
5419.77,0.59886
5413.99,0.60210
5408.2,0.60507
5402.42,0.60969
5396.63,0.60986
5390.84,0.61295
5385.06,0.61312
5379.27,0.61343
5373.48,0.61580
5367.7,0.61435
5361.91,0.61581
5356.13,0.61793
5350.34,0.61790
5344.55,0.61475
5338.77,0.61764
5332.98,0.61780
5327.19,0.61716
5321.41,0.61797
5315.62,0.61739
5309.84,0.61824
5304.05,0.61818
5298.26,0.61903
5292.48,0.61639
5286.69,0.61604
5280.9,0.61318
5275.12,0.61158
5269.33,0.61122
5263.55,0.60895
5257.76,0.60590
5251.97,0.60575
5246.19,0.60443
5240.4,0.60303
5234.61,0.60150
5228.83,0.60147
5223.04,0.60023
5217.26,0.60004
5211.47,0.60026
5205.68,0.60011
5199.9,0.60056
5194.11,0.60082
5188.32,0.60020
5182.54,0.60272
5176.75,0.60162
5170.97,0.60233
5165.18,0.60210
5159.39,0.60399
5153.61,0.60344
5147.82,0.60263
5142.03,0.60196
5136.25,0.60139
5130.46,0.60150
5124.68,0.60180
5118.89,0.60096
5113.1,0.60028
5107.32,0.60134
5101.53,0.59820
5095.75,0.59825
5089.96,0.59571
5084.17,0.59426
5078.39,0.59325
5072.6,0.59036
5066.81,0.58819
5061.03,0.58510
5055.24,0.58465
5049.46,0.58233
5043.67,0.58083
5037.88,0.57794
5032.1,0.57475
5026.31,0.57310
5020.52,0.57158
5014.74,0.56821
5008.95,0.56568
5003.17,0.56241
4997.38,0.56044
4991.59,0.55582
4985.81,0.55140
4980.02,0.54787
4974.23,0.54182
4968.45,0.53670
4962.66,0.53105
4956.88,0.52539
4951.09,0.52017
4945.3,0.51424
4939.52,0.50978
4933.73,0.50500
4927.94,0.50146
4922.16,0.49717
4916.37,0.49358
4910.59,0.48891
4904.8,0.48273
4899.01,0.48030
4893.23,0.47849
4887.44,0.47655
4881.65,0.47477
4875.87,0.47221
4870.08,0.46731
4864.3,0.46417
4858.51,0.46176
4852.72,0.46038
4846.94,0.45823
4841.15,0.45927
4835.36,0.45970
4829.58,0.46163
4823.79,0.46441
4818.01,0.46701
4812.22,0.47209
4806.43,0.47550
4800.65,0.47941
4794.86,0.48437
4789.07,0.48736
4783.29,0.49036
4777.5,0.49442
4771.72,0.49669
4765.93,0.49943
4760.14,0.50218
4754.36,0.50357
4748.57,0.50457
4742.78,0.50525
4737,0.50630
4731.21,0.50566
4725.43,0.50498
4719.64,0.50356
4713.85,0.50261
4708.07,0.50110
4702.28,0.49937
4696.49,0.49735
4690.71,0.49495
4684.92,0.49045
4679.14,0.48751
4673.35,0.48437
4667.56,0.47968
4661.78,0.47574
4655.99,0.47471
4650.2,0.47248
4644.42,0.47166
4638.63,0.46988
4632.85,0.46951
4627.06,0.46820
4621.27,0.46735
4615.49,0.46727
4609.7,0.46659
4603.92,0.46685
4598.13,0.46660
4592.34,0.46776
4586.56,0.46801
4580.77,0.46717
4574.98,0.46838
4569.2,0.46828
4563.41,0.46624
4557.63,0.46520
4551.84,0.46337
4546.05,0.46339
4540.27,0.46213
4534.48,0.46273
4528.69,0.46124
4522.91,0.46021
4517.12,0.45944
4511.34,0.45918
4505.55,0.45832
4499.76,0.45595
4493.98,0.45395
4488.19,0.45032
4482.4,0.44668
4476.62,0.44280
4470.83,0.43567
4465.05,0.42700
4459.26,0.41660
4453.47,0.40327
4447.69,0.38742
4441.9,0.36775
4436.11,0.34737
4430.33,0.32723
4424.54,0.30963
4418.76,0.29509
4412.97,0.28793
4407.18,0.28984
4401.4,0.29714
4395.61,0.30315
4389.82,0.30237
4384.04,0.29844
4378.25,0.29137
4372.47,0.28297
4366.68,0.27339
4360.89,0.26275
4355.11,0.25209
4349.32,0.24219
4343.53,0.23630
4337.75,0.23210
4331.96,0.23099
4326.18,0.23344
4320.39,0.23707
4314.6,0.24491
4308.82,0.25489
4303.03,0.26652
4297.24,0.27725
4291.46,0.28452
4285.67,0.28726
4279.89,0.28849
4274.1,0.28745
4268.31,0.28935
4262.53,0.29334
4256.74,0.29853
4250.95,0.30189
4245.17,0.30451
4239.38,0.30590
4233.6,0.30753
4227.81,0.31118
4222.02,0.31674
4216.24,0.32168
4210.45,0.32674
4204.66,0.33208
4198.88,0.33581
4193.09,0.33639
4187.31,0.33554
4181.52,0.33406
4175.73,0.33123
4169.95,0.32834
4164.16,0.32524
4158.37,0.32228
4152.59,0.32012
4146.8,0.31768
4141.02,0.31833
4135.23,0.31728
4129.44,0.31589
4123.66,0.31392
4117.87,0.31208
4112.09,0.30943
4106.3,0.30592
4100.51,0.30203
4094.73,0.29748
4088.94,0.29176
4083.15,0.28669
4077.37,0.28158
4071.58,0.27696
4065.8,0.27263
4060.01,0.26941
4054.22,0.26673
4048.44,0.26430
4042.65,0.26269
4036.86,0.26179
4031.08,0.26042
4025.29,0.26069
4019.51,0.26159
4013.72,0.26238
4007.93,0.26357
4002.15,0.26465
3996.36,0.26672
3990.57,0.26976
3984.79,0.27233
3979,0.27731
3973.22,0.28230
3967.43,0.28684
3961.64,0.29167
3955.86,0.29769
3950.07,0.30305
3944.28,0.31008
3938.5,0.31803
3932.71,0.32611
3926.93,0.33254
3921.14,0.33821
3915.35,0.34285
3909.57,0.34616
3903.78,0.34958
3897.99,0.35146
3892.21,0.35313
3886.42,0.35456
3880.64,0.35590
3874.85,0.35704
3869.06,0.35791
3863.28,0.35820
3857.49,0.35745
3851.7,0.35924
3845.92,0.36054
3840.13,0.36342
3834.35,0.36726
3828.56,0.37045
3822.77,0.37228
3816.99,0.37470
3811.2,0.37511
3805.41,0.37528
3799.63,0.37627
3793.84,0.37709
3788.06,0.37911
3782.27,0.38205
3776.48,0.38628
3770.7,0.39169
3764.91,0.39787
3759.12,0.40322
3753.34,0.40880
3747.55,0.41483
3741.77,0.41972
3735.98,0.42219
3730.19,0.42571
3724.41,0.42893
3718.62,0.43081
3712.83,0.43309
3707.05,0.43291
3701.26,0.43206
3695.48,0.42941
3689.69,0.42377
3683.9,0.41674
3678.12,0.41042
3672.33,0.40236
3666.54,0.39318
3660.76,0.38436
3654.97,0.37574
3649.19,0.36597
3643.4,0.35694
3637.61,0.34855
3631.83,0.34006
3626.04,0.33195
3620.25,0.32403
3614.47,0.31725
3608.68,0.30959
3602.9,0.30395
3597.11,0.29898
3591.32,0.29373
3585.54,0.28999
3579.75,0.28609
3573.97,0.28168
3568.18,0.27772
3562.39,0.27364
3556.61,0.26869
3550.82,0.26449
3545.03,0.25849
3539.25,0.25284
3533.46,0.24724
3527.68,0.24122
3521.89,0.23668
3516.1,0.23153
3510.32,0.22770
3504.53,0.22416
3498.74,0.22087
3492.96,0.21648
3487.17,0.21004
3481.39,0.20288
3475.6,0.19526
3469.81,0.18574
3464.03,0.17427
3458.24,0.16522
3452.45,0.15975
3446.67,0.15405
3440.88,0.14772
3435.1,0.13807
3429.31,0.12335
3423.52,0.10633
3417.74,0.09298
3411.95,0.08730
3406.16,0.08374
3400.38,0.08134
3394.59,0.07611
3388.81,0.06928
3383.02,0.06471
3377.23,0.06102
3371.45,0.05812
3365.66,0.05598
3359.87,0.05388
3354.09,0.05323
3348.3,0.05110
3342.52,0.04961
3336.73,0.04873
3330.94,0.04714
3325.16,0.04693
3319.37,0.04568
3313.58,0.04481
3307.8,0.04446
3302.01,0.04441
3296.23,0.04454
3290.44,0.04404
3284.65,0.04460
3278.87,0.04466
3273.08,0.04487
3267.29,0.04553
3261.51,0.04636
3255.72,0.04701
3249.94,0.04805
3244.15,0.04925
3238.36,0.05104
3232.58,0.05297
3226.79,0.05403
3221,0.05565
3215.22,0.05745
3209.43,0.05817
3203.65,0.05901
3197.86,0.06049
3192.07,0.06176
3186.29,0.06258
3180.5,0.06432
3174.71,0.06687
3168.93,0.06816
3163.14,0.06978
3157.36,0.07047
3151.57,0.07198
3145.78,0.07318
3140,0.07346
3134.21,0.07497
3128.42,0.07475
3122.64,0.07657
3116.85,0.07684
3111.07,0.07789
3105.28,0.07795
3099.49,0.07785
3093.71,0.07714
3087.92,0.07546
3082.14,0.07477
3076.35,0.07443
3070.56,0.07423
3064.78,0.07443
3058.99,0.07518
3053.2,0.07576
3047.42,0.07620
3041.63,0.07578
3035.85,0.07480
3030.06,0.07415
3024.27,0.07434
3018.49,0.07368
3012.7,0.07154
3006.91,0.06643
3001.13,0.05889
2995.34,0.05094
2989.56,0.04486
2983.77,0.04152
2977.98,0.03978
2972.2,0.03923
2966.41,0.04157
2960.62,0.04470
2954.84,0.04594
2949.05,0.04534
2943.27,0.04324
2937.48,0.04105
2931.69,0.04008
2925.91,0.04080
2920.12,0.04128
2914.33,0.04135
2908.55,0.04161
2902.76,0.04198
2896.98,0.04154
2891.19,0.04168
2885.4,0.04250
2879.62,0.04240
2873.83,0.04175
2868.04,0.04253
2862.26,0.04324
2856.47,0.04484
2850.69,0.04731
2844.9,0.05102
2839.11,0.05578
2833.33,0.06197
2827.54,0.06794
2821.75,0.07224
2815.97,0.07575
2810.18,0.07783
2804.4,0.07897
2798.61,0.07982
2792.82,0.08162
2787.04,0.08358
2781.25,0.08574
2775.46,0.08881
2769.68,0.09173
2763.89,0.09494
2758.11,0.09844
2752.32,0.10148
2746.53,0.10455
2740.75,0.10713
2734.96,0.10980
2729.17,0.11379
2723.39,0.11989
2717.6,0.12683
2711.82,0.13344
2706.03,0.13859
2700.24,0.14352
2694.46,0.14960
2688.67,0.15532
2682.88,0.15881
2677.1,0.16056
2671.31,0.16245
2665.53,0.16631
2659.74,0.17129
2653.95,0.17541
2648.17,0.17756
2642.38,0.17947
2636.59,0.18339
2630.81,0.18870
2625.02,0.19501
2619.24,0.20013
2613.45,0.20179
2607.66,0.20092
2601.88,0.19950
2596.09,0.19892
2590.3,0.19900
2584.52,0.20147
2578.73,0.20804
2572.95,0.21869
2567.16,0.23081
2561.37,0.24090
2555.59,0.24679
2549.8,0.25005
2544.02,0.25269
2538.23,0.25577
2532.44,0.25908
2526.66,0.26196
2520.87,0.26425
2515.08,0.26551
2509.3,0.26620
2503.51,0.26564
2497.73,0.26489
2491.94,0.26495
2486.15,0.26547
2480.37,0.26539
2474.58,0.26494
2468.79,0.26620
2463.01,0.26804
2457.22,0.27048
2451.44,0.27228
2445.65,0.27502
2439.86,0.27843
2434.08,0.28169
2428.29,0.28400
2422.5,0.28608
2416.72,0.28505
2410.93,0.28286
2405.15,0.28019
2399.36,0.27807
2393.57,0.27521
2387.79,0.27212
2382,0.26960
2376.21,0.26788
2370.43,0.26624
2364.64,0.26511
2358.86,0.26439
2353.07,0.26281
2347.28,0.26033
2341.5,0.25724
2335.71,0.25175
2329.92,0.24492
2324.14,0.23578
2318.35,0.22438
2312.57,0.21060
2306.78,0.19411
2300.99,0.17471
2295.21,0.15340
2289.42,0.13173
2283.63,0.11300
2277.85,0.10128
2272.06,0.09989
2266.28,0.10900
2260.49,0.12796
2254.7,0.14935
2248.92,0.16896
2243.13,0.18388
2237.34,0.19436
2231.56,0.20285
2225.77,0.20917
2219.99,0.21363
2214.2,0.21675
2208.41,0.22081
2202.63,0.22466
2196.84,0.22752
2191.05,0.22998
2185.27,0.23171
2179.48,0.23278
2173.7,0.23418
2167.91,0.23526
2162.12,0.23638
2156.34,0.23759
2150.55,0.23936
2144.76,0.24111
2138.98,0.24303
2133.19,0.24427
2127.41,0.24584
2121.62,0.24733
2115.83,0.24824
2110.05,0.24869
2104.26,0.24821
2098.47,0.24724
2092.69,0.24526
2086.9,0.24393
2081.12,0.24216
2075.33,0.24026
2069.54,0.23865
2063.76,0.23666
2057.97,0.23504
2052.19,0.23325
2046.4,0.22970
2040.61,0.22557
2034.83,0.22098
2029.04,0.21715
2023.25,0.21431
2017.47,0.21210
2011.68,0.21148
2005.9,0.21208
2000.11,0.21316
1994.32,0.21466
1988.54,0.21525
1982.75,0.21585
1976.96,0.21582
1971.18,0.21575
1965.39,0.21556
1959.61,0.21548
1953.82,0.21491
1948.03,0.21434
1942.25,0.21411
1936.46,0.21321
1930.67,0.21194
1924.89,0.21014
1919.1,0.20861
1913.32,0.20851
1907.53,0.20934
1901.74,0.21000
1895.96,0.20984
1890.17,0.20932
1884.38,0.20952
1878.6,0.21122
1872.81,0.21257
1867.03,0.21292
1861.24,0.21236
1855.45,0.21118
1849.67,0.20958
1843.88,0.20722
1838.09,0.20408
1832.31,0.19992
1826.52,0.19529
1820.74,0.18961
1814.95,0.18351
1809.16,0.17572
1803.38,0.16750
1797.59,0.15820
1791.8,0.14893
1786.02,0.14058
1780.23,0.13317
1774.45,0.12618
1768.66,0.11745
1762.87,0.10627
1757.09,0.08873
1751.3,0.06734
1745.51,0.04737
1739.73,0.03694
1733.94,0.03377
1728.16,0.03325
1722.37,0.03450
1716.58,0.03568
1710.8,0.03672
1705.01,0.03745
1699.22,0.03857
1693.44,0.03855
1687.65,0.03816
1681.87,0.03725
1676.08,0.03637
1670.29,0.03567
1664.51,0.03434
1658.72,0.03302
1652.93,0.03161
1647.15,0.03003
1641.36,0.03046
1635.58,0.03346
1629.79,0.03598
1624,0.03631
1618.22,0.03538
1612.43,0.03386
1606.64,0.03226
1600.86,0.03258
1595.07,0.03317
1589.29,0.03435
1583.5,0.03493
1577.71,0.03473
1571.93,0.03194
1566.14,0.02999
1560.35,0.03017
1554.57,0.03025
1548.78,0.03181
1543,0.03272
1537.21,0.03372
1531.42,0.03476
1525.64,0.03613
1519.85,0.03705
1514.07,0.03698
1508.28,0.03771
1502.49,0.03828
1496.71,0.03923
1490.92,0.03956
1485.13,0.03877
1479.35,0.03793
1473.56,0.03790
1467.78,0.03828
1461.99,0.03792
1456.2,0.03726
1450.42,0.03790
1444.63,0.03978
1438.84,0.04207
1433.06,0.04495
1427.27,0.04454
1421.49,0.04264
1415.7,0.04073
1409.91,0.04034
1404.13,0.04121
1398.34,0.04183
1392.55,0.04149
1386.77,0.03951
1380.98,0.03651
1375.2,0.03523
1369.41,0.03901
1363.62,0.04374
1357.84,0.04552
1352.05,0.04318
1346.26,0.04084
1340.48,0.04016
1334.69,0.04048
1328.91,0.04036
1323.12,0.03873
1317.33,0.03695
1311.55,0.03586
1305.76,0.03465
1299.97,0.03460
1294.19,0.03482
1288.4,0.03573
1282.62,0.03560
1276.83,0.03513
1271.04,0.03501
1265.26,0.03481
1259.47,0.03467
1253.68,0.03388
1247.9,0.03286
1242.11,0.03197
1236.33,0.03109
1230.54,0.03161
1224.75,0.03269
1218.97,0.03362
1213.18,0.03527
1207.39,0.03564
1201.61,0.03571
1195.82,0.03640
1190.04,0.03544
1184.25,0.03352
1178.46,0.03259
1172.68,0.03131
1166.89,0.02974
1161.1,0.02923
1155.32,0.02885
1149.53,0.02886
1143.75,0.02821
1137.96,0.02824
1132.17,0.02822
1126.39,0.02958
1120.6,0.03035
1114.81,0.03252
1109.03,0.03443
1103.24,0.03701
1097.46,0.03951
1091.67,0.04002
1085.88,0.04175
1080.1,0.04245
1074.31,0.04418
1068.52,0.04485
1062.74,0.04632
1056.95,0.04780
1051.17,0.04866
1045.38,0.05077
1039.59,0.05155
1033.81,0.05302
1028.02,0.05278
1022.24,0.05079
1016.45,0.04987
1010.66,0.04949
1004.88,0.05032
999.09,0.05456
993.304,0.06117
987.518,0.06790
981.731,0.06998
975.945,0.06959
970.159,0.06835
964.373,0.06960
958.586,0.07202
952.8,0.07328
947.014,0.06690
941.228,0.05789
935.441,0.05289
929.655,0.05155
923.869,0.05245
918.083,0.05659
912.297,0.05861
906.51,0.05953
900.724,0.06415
894.938,0.06690
889.152,0.06499
883.365,0.06229
877.579,0.06130
871.793,0.05884
866.007,0.05934
860.22,0.06123
854.434,0.06290
848.648,0.06414
842.862,0.06306
837.075,0.06057
831.289,0.05610
825.503,0.05245
819.717,0.04998
813.931,0.05143
808.144,0.05426
802.358,0.05776
796.572,0.06179
790.786,0.06367
784.999,0.06253
779.213,0.06141
773.427,0.05953
767.641,0.05582
761.854,0.05323
756.068,0.05365
750.282,0.05917
744.496,0.06493
738.709,0.06851
732.923,0.06844
727.137,0.06533
721.351,0.06086
715.565,0.05613
709.778,0.05396
703.992,0.05421
698.206,0.05367
692.42,0.05123
686.633,0.04967
680.847,0.04862
675.061,0.04884
669.275,0.04861
663.488,0.04982
657.702,0.04990
651.916,0.05195
646.13,0.05422
640.343,0.05637
634.557,0.05693
628.771,0.05797
622.985,0.05851
617.198,0.05885
611.412,0.06098
605.626,0.05830
599.84,0.05876