File: 01_Data/PUF_Mattress_Pad/FTIR/IS/PUF_Mattress_Pad_IS_S_221003_R4.dpt
7497.03,0.67034
7491.25,0.68636
7485.46,0.66947
7479.67,0.67529
7473.89,0.68712
7468.1,0.67788
7462.32,0.67877
7456.53,0.66799
7450.74,0.66745
7444.96,0.67578
7439.17,0.67258
7433.38,0.68045
7427.6,0.67047
7421.81,0.67773
7416.03,0.66719
7410.24,0.66403
7404.45,0.67241
7398.67,0.66803
7392.88,0.66555
7387.09,0.66850
7381.31,0.66274
7375.52,0.66681
7369.74,0.65482
7363.95,0.65745
7358.16,0.66486
7352.38,0.66814
7346.59,0.66445
7340.8,0.66298
7335.02,0.65696
7329.23,0.66077
7323.45,0.64873
7317.66,0.66160
7311.87,0.66408
7306.09,0.65788
7300.3,0.66161
7294.51,0.66189
7288.73,0.65408
7282.94,0.65070
7277.16,0.64902
7271.37,0.64824
7265.58,0.63957
7259.8,0.64922
7254.01,0.64783
7248.22,0.64519
7242.44,0.64616
7236.65,0.64397
7230.87,0.64190
7225.08,0.65634
7219.29,0.65152
7213.51,0.64906
7207.72,0.64576
7201.93,0.64732
7196.15,0.64440
7190.36,0.64840
7184.58,0.64436
7178.79,0.65407
7173,0.64629
7167.22,0.64825
7161.43,0.64981
7155.65,0.64765
7149.86,0.65956
7144.07,0.65451
7138.29,0.65009
7132.5,0.64941
7126.71,0.64220
7120.93,0.65181
7115.14,0.65394
7109.36,0.64725
7103.57,0.65195
7097.78,0.65155
7092,0.65319
7086.21,0.65106
7080.42,0.65466
7074.64,0.65469
7068.85,0.65546
7063.07,0.65153
7057.28,0.65341
7051.49,0.65392
7045.71,0.65798
7039.92,0.65963
7034.13,0.66308
7028.35,0.66126
7022.56,0.65543
7016.78,0.65692
7010.99,0.65535
7005.2,0.65357
6999.42,0.65357
6993.63,0.65755
6987.84,0.65394
6982.06,0.65220
6976.27,0.65201
6970.49,0.64567
6964.7,0.65341
6958.91,0.65187
6953.13,0.64978
6947.34,0.65340
6941.55,0.64855
6935.77,0.65292
6929.98,0.65902
6924.2,0.65288
6918.41,0.66012
6912.62,0.65557
6906.84,0.65493
6901.05,0.65536
6895.26,0.65455
6889.48,0.65442
6883.69,0.66034
6877.91,0.65803
6872.12,0.65799
6866.33,0.65220
6860.55,0.65611
6854.76,0.65345
6848.97,0.66128
6843.19,0.66389
6837.4,0.66051
6831.62,0.66029
6825.83,0.65660
6820.04,0.66352
6814.26,0.65622
6808.47,0.65502
6802.68,0.65630
6796.9,0.65564
6791.11,0.65441
6785.33,0.65773
6779.54,0.65391
6773.75,0.64967
6767.97,0.64967
6762.18,0.65231
6756.39,0.64971
6750.61,0.65023
6744.82,0.64707
6739.04,0.64490
6733.25,0.65532
6727.46,0.64451
6721.68,0.64402
6715.89,0.63897
6710.1,0.63580
6704.32,0.63924
6698.53,0.62841
6692.75,0.62743
6686.96,0.62832
6681.17,0.63083
6675.39,0.63114
6669.6,0.62820
6663.82,0.62644
6658.03,0.62688
6652.24,0.62842
6646.46,0.62446
6640.67,0.62962
6634.88,0.62318
6629.1,0.63008
6623.31,0.62718
6617.53,0.62860
6611.74,0.62803
6605.95,0.62356
6600.17,0.62802
6594.38,0.63163
6588.59,0.63219
6582.81,0.62912
6577.02,0.63428
6571.24,0.63305
6565.45,0.62837
6559.66,0.63241
6553.88,0.63966
6548.09,0.63822
6542.3,0.63593
6536.52,0.64000
6530.73,0.63741
6524.95,0.64024
6519.16,0.64602
6513.37,0.64289
6507.59,0.64228
6501.8,0.64628
6496.01,0.64805
6490.23,0.64654
6484.44,0.64779
6478.66,0.65111
6472.87,0.64823
6467.08,0.65085
6461.3,0.65024
6455.51,0.64666
6449.72,0.64746
6443.94,0.64813
6438.15,0.65340
6432.37,0.65345
6426.58,0.65412
6420.79,0.65077
6415.01,0.65308
6409.22,0.64924
6403.43,0.64809
6397.65,0.64871
6391.86,0.65526
6386.08,0.64957
6380.29,0.65687
6374.5,0.65446
6368.72,0.65261
6362.93,0.65223
6357.14,0.65464
6351.36,0.65284
6345.57,0.65295
6339.79,0.65676
6334,0.65636
6328.21,0.65662
6322.43,0.65346
6316.64,0.65363
6310.85,0.65707
6305.07,0.66031
6299.28,0.65422
6293.5,0.65380
6287.71,0.65078
6281.92,0.65364
6276.14,0.65079
6270.35,0.65407
6264.56,0.64911
6258.78,0.65100
6252.99,0.65073
6247.21,0.65036
6241.42,0.65229
6235.63,0.65373
6229.85,0.65553
6224.06,0.65467
6218.27,0.65242
6212.49,0.65034
6206.7,0.65648
6200.92,0.65106
6195.13,0.65022
6189.34,0.65287
6183.56,0.65273
6177.77,0.65087
6171.98,0.65210
6166.2,0.65163
6160.41,0.64778
6154.63,0.64750
6148.84,0.65095
6143.05,0.64878
6137.27,0.64750
6131.48,0.64719
6125.7,0.64668
6119.91,0.64302
6114.12,0.64289
6108.34,0.64024
6102.55,0.63823
6096.76,0.63608
6090.98,0.63497
6085.19,0.63322
6079.41,0.63616
6073.62,0.63397
6067.83,0.63273
6062.05,0.63322
6056.26,0.62985
6050.47,0.63109
6044.69,0.62859
6038.9,0.62940
6033.12,0.62401
6027.33,0.62493
6021.54,0.61994
6015.76,0.61674
6009.97,0.61193
6004.18,0.61212
5998.4,0.60506
5992.61,0.60626
5986.83,0.59782
5981.04,0.59081
5975.25,0.58567
5969.47,0.57399
5963.68,0.56510
5957.89,0.55212
5952.11,0.54279
5946.32,0.53458
5940.54,0.53179
5934.75,0.53431
5928.96,0.53931
5923.18,0.53980
5917.39,0.53911
5911.6,0.52993
5905.82,0.52612
5900.03,0.52210
5894.25,0.52657
5888.46,0.53133
5882.67,0.53832
5876.89,0.54193
5871.1,0.54807
5865.31,0.54886
5859.53,0.54896
5853.74,0.54923
5847.96,0.54739
5842.17,0.54236
5836.38,0.54053
5830.6,0.53929
5824.81,0.53677
5819.02,0.53275
5813.24,0.52864
5807.45,0.52669
5801.67,0.52218
5795.88,0.51884
5790.09,0.51460
5784.31,0.51220
5778.52,0.51211
5772.73,0.50817
5766.95,0.50815
5761.16,0.51109
5755.38,0.51547
5749.59,0.52031
5743.8,0.52401
5738.02,0.53022
5732.23,0.53350
5726.44,0.53885
5720.66,0.54284
5714.87,0.54802
5709.09,0.55298
5703.3,0.55765
5697.51,0.55921
5691.73,0.55957
5685.94,0.56060
5680.15,0.56067
5674.37,0.56068
5668.58,0.55960
5662.8,0.55899
5657.01,0.55893
5651.22,0.56253
5645.44,0.56484
5639.65,0.56733
5633.87,0.56981
5628.08,0.57420
5622.29,0.57890
5616.51,0.57837
5610.72,0.57974
5604.93,0.58418
5599.15,0.58341
5593.36,0.58248
5587.58,0.58368
5581.79,0.58166
5576,0.58241
5570.22,0.58267
5564.43,0.58175
5558.64,0.58367
5552.86,0.58364
5547.07,0.58090
5541.29,0.58011
5535.5,0.58071
5529.71,0.58244
5523.93,0.58259
5518.14,0.58221
5512.35,0.58409
5506.57,0.58687
5500.78,0.58629
5495,0.58744
5489.21,0.58783
5483.42,0.58726
5477.64,0.58861
5471.85,0.58957
5466.06,0.59040
5460.28,0.59057
5454.49,0.58933
5448.71,0.58926
5442.92,0.59259
5437.13,0.59315
5431.35,0.59698
5425.56,0.59786
5419.77,0.59915
5413.99,0.60342
5408.2,0.60618
5402.42,0.60944
5396.63,0.61120
5390.84,0.61290
5385.06,0.61586
5379.27,0.61436
5373.48,0.61703
5367.7,0.61568
5361.91,0.61635
5356.13,0.61640
5350.34,0.61669
5344.55,0.61628
5338.77,0.61856
5332.98,0.61767
5327.19,0.61830
5321.41,0.61898
5315.62,0.61962
5309.84,0.62046
5304.05,0.61895
5298.26,0.61940
5292.48,0.61707
5286.69,0.61746
5280.9,0.61534
5275.12,0.61512
5269.33,0.61354
5263.55,0.61269
5257.76,0.61187
5251.97,0.60920
5246.19,0.60860
5240.4,0.60807
5234.61,0.60785
5228.83,0.60641
5223.04,0.60468
5217.26,0.60594
5211.47,0.60536
5205.68,0.60506
5199.9,0.60506
5194.11,0.60583
5188.32,0.60502
5182.54,0.60582
5176.75,0.60711
5170.97,0.60854
5165.18,0.60728
5159.39,0.60709
5153.61,0.60774
5147.82,0.60413
5142.03,0.60594
5136.25,0.60610
5130.46,0.60720
5124.68,0.60585
5118.89,0.60510
5113.1,0.60442
5107.32,0.60374
5101.53,0.60273
5095.75,0.60092
5089.96,0.59909
5084.17,0.59579
5078.39,0.59459
5072.6,0.59308
5066.81,0.58970
5061.03,0.58903
5055.24,0.58524
5049.46,0.58362
5043.67,0.58203
5037.88,0.57843
5032.1,0.57656
5026.31,0.57455
5020.52,0.57236
5014.74,0.57006
5008.95,0.56681
5003.17,0.56192
4997.38,0.55942
4991.59,0.55629
4985.81,0.55249
4980.02,0.54944
4974.23,0.54276
4968.45,0.53540
4962.66,0.53252
4956.88,0.52662
4951.09,0.52001
4945.3,0.51350
4939.52,0.50910
4933.73,0.50499
4927.94,0.50054
4922.16,0.49988
4916.37,0.49443
4910.59,0.49011
4904.8,0.48503
4899.01,0.48181
4893.23,0.47907
4887.44,0.47712
4881.65,0.47475
4875.87,0.47116
4870.08,0.46900
4864.3,0.46538
4858.51,0.46276
4852.72,0.46031
4846.94,0.45990
4841.15,0.45966
4835.36,0.46048
4829.58,0.46280
4823.79,0.46512
4818.01,0.46852
4812.22,0.47199
4806.43,0.47490
4800.65,0.47974
4794.86,0.48287
4789.07,0.48737
4783.29,0.49095
4777.5,0.49456
4771.72,0.49746
4765.93,0.50081
4760.14,0.50243
4754.36,0.50362
4748.57,0.50687
4742.78,0.50714
4737,0.50666
4731.21,0.50585
4725.43,0.50570
4719.64,0.50494
4713.85,0.50370
4708.07,0.50163
4702.28,0.50034
4696.49,0.49727
4690.71,0.49502
4684.92,0.49167
4679.14,0.48818
4673.35,0.48528
4667.56,0.47976
4661.78,0.47648
4655.99,0.47427
4650.2,0.47272
4644.42,0.47250
4638.63,0.47073
4632.85,0.47035
4627.06,0.46951
4621.27,0.46887
4615.49,0.46800
4609.7,0.46754
4603.92,0.46729
4598.13,0.46722
4592.34,0.46795
4586.56,0.46965
4580.77,0.46920
4574.98,0.46843
4569.2,0.46859
4563.41,0.46728
4557.63,0.46580
4551.84,0.46456
4546.05,0.46399
4540.27,0.46336
4534.48,0.46217
4528.69,0.46140
4522.91,0.46084
4517.12,0.46119
4511.34,0.45975
4505.55,0.45763
4499.76,0.45691
4493.98,0.45338
4488.19,0.45128
4482.4,0.44752
4476.62,0.44245
4470.83,0.43629
4465.05,0.42791
4459.26,0.41718
4453.47,0.40373
4447.69,0.38759
4441.9,0.36852
4436.11,0.34781
4430.33,0.32726
4424.54,0.30981
4418.76,0.29620
4412.97,0.28830
4407.18,0.29126
4401.4,0.29813
4395.61,0.30337
4389.82,0.30242
4384.04,0.29826
4378.25,0.29115
4372.47,0.28318
4366.68,0.27374
4360.89,0.26358
4355.11,0.25214
4349.32,0.24392
4343.53,0.23618
4337.75,0.23280
4331.96,0.23172
4326.18,0.23301
4320.39,0.23733
4314.6,0.24476
4308.82,0.25524
4303.03,0.26705
4297.24,0.27761
4291.46,0.28363
4285.67,0.28765
4279.89,0.28835
4274.1,0.28845
4268.31,0.28996
4262.53,0.29355
4256.74,0.29856
4250.95,0.30246
4245.17,0.30388
4239.38,0.30607
4233.6,0.30845
4227.81,0.31172
4222.02,0.31683
4216.24,0.32194
4210.45,0.32673
4204.66,0.33282
4198.88,0.33547
4193.09,0.33674
4187.31,0.33572
4181.52,0.33443
4175.73,0.33162
4169.95,0.32822
4164.16,0.32476
4158.37,0.32224
4152.59,0.32068
4146.8,0.31900
4141.02,0.31811
4135.23,0.31801
4129.44,0.31590
4123.66,0.31445
4117.87,0.31252
4112.09,0.31055
4106.3,0.30701
4100.51,0.30226
4094.73,0.29787
4088.94,0.29291
4083.15,0.28627
4077.37,0.28188
4071.58,0.27732
4065.8,0.27329
4060.01,0.26965
4054.22,0.26733
4048.44,0.26527
4042.65,0.26343
4036.86,0.26159
4031.08,0.26130
4025.29,0.26111
4019.51,0.26208
4013.72,0.26319
4007.93,0.26413
4002.15,0.26511
3996.36,0.26705
3990.57,0.27011
3984.79,0.27381
3979,0.27801
3973.22,0.28298
3967.43,0.28714
3961.64,0.29296
3955.86,0.29750
3950.07,0.30359
3944.28,0.31118
3938.5,0.31906
3932.71,0.32656
3926.93,0.33368
3921.14,0.33914
3915.35,0.34445
3909.57,0.34765
3903.78,0.34984
3897.99,0.35203
3892.21,0.35340
3886.42,0.35546
3880.64,0.35680
3874.85,0.35803
3869.06,0.35864
3863.28,0.35845
3857.49,0.35840
3851.7,0.36011
3845.92,0.36158
3840.13,0.36436
3834.35,0.36813
3828.56,0.37049
3822.77,0.37337
3816.99,0.37515
3811.2,0.37605
3805.41,0.37668
3799.63,0.37685
3793.84,0.37815
3788.06,0.38006
3782.27,0.38375
3776.48,0.38812
3770.7,0.39254
3764.91,0.39871
3759.12,0.40491
3753.34,0.41134
3747.55,0.41653
3741.77,0.42232
3735.98,0.42472
3730.19,0.42852
3724.41,0.43229
3718.62,0.43468
3712.83,0.43663
3707.05,0.43780
3701.26,0.43883
3695.48,0.43749
3689.69,0.43447
3683.9,0.43016
3678.12,0.42615
3672.33,0.42137
3666.54,0.41475
3660.76,0.40770
3654.97,0.40026
3649.19,0.39235
3643.4,0.38519
3637.61,0.37785
3631.83,0.37073
3626.04,0.36404
3620.25,0.35745
3614.47,0.35045
3608.68,0.34414
3602.9,0.33943
3597.11,0.33448
3591.32,0.33033
3585.54,0.32596
3579.75,0.32205
3573.97,0.31809
3568.18,0.31288
3562.39,0.30783
3556.61,0.30316
3550.82,0.29701
3545.03,0.29255
3539.25,0.28619
3533.46,0.27987
3527.68,0.27302
3521.89,0.26743
3516.1,0.26180
3510.32,0.25694
3504.53,0.25174
3498.74,0.24609
3492.96,0.23996
3487.17,0.23240
3481.39,0.22337
3475.6,0.21281
3469.81,0.20005
3464.03,0.18581
3458.24,0.17531
3452.45,0.16864
3446.67,0.16246
3440.88,0.15427
3435.1,0.14232
3429.31,0.12594
3423.52,0.10856
3417.74,0.09500
3411.95,0.08771
3406.16,0.08477
3400.38,0.08177
3394.59,0.07629
3388.81,0.07013
3383.02,0.06496
3377.23,0.06073
3371.45,0.05802
3365.66,0.05664
3359.87,0.05409
3354.09,0.05262
3348.3,0.05142
3342.52,0.04968
3336.73,0.04899
3330.94,0.04761
3325.16,0.04686
3319.37,0.04588
3313.58,0.04559
3307.8,0.04487
3302.01,0.04416
3296.23,0.04496
3290.44,0.04433
3284.65,0.04463
3278.87,0.04428
3273.08,0.04524
3267.29,0.04646
3261.51,0.04674
3255.72,0.04790
3249.94,0.04886
3244.15,0.05011
3238.36,0.05117
3232.58,0.05245
3226.79,0.05432
3221,0.05547
3215.22,0.05811
3209.43,0.05880
3203.65,0.05964
3197.86,0.06097
3192.07,0.06203
3186.29,0.06329
3180.5,0.06526
3174.71,0.06676
3168.93,0.06804
3163.14,0.07015
3157.36,0.07136
3151.57,0.07187
3145.78,0.07351
3140,0.07437
3134.21,0.07493
3128.42,0.07546
3122.64,0.07727
3116.85,0.07861
3111.07,0.07899
3105.28,0.07899
3099.49,0.07829
3093.71,0.07692
3087.92,0.07585
3082.14,0.07496
3076.35,0.07424
3070.56,0.07387
3064.78,0.07406
3058.99,0.07513
3053.2,0.07596
3047.42,0.07684
3041.63,0.07614
3035.85,0.07525
3030.06,0.07432
3024.27,0.07433
3018.49,0.07422
3012.7,0.07237
3006.91,0.06679
3001.13,0.05916
2995.34,0.05072
2989.56,0.04474
2983.77,0.04221
2977.98,0.04051
2972.2,0.03961
2966.41,0.04182
2960.62,0.04476
2954.84,0.04606
2949.05,0.04584
2943.27,0.04289
2937.48,0.04167
2931.69,0.04067
2925.91,0.04148
2920.12,0.04170
2914.33,0.04162
2908.55,0.04191
2902.76,0.04211
2896.98,0.04159
2891.19,0.04188
2885.4,0.04228
2879.62,0.04217
2873.83,0.04188
2868.04,0.04218
2862.26,0.04366
2856.47,0.04487
2850.69,0.04749
2844.9,0.05114
2839.11,0.05593
2833.33,0.06231
2827.54,0.06760
2821.75,0.07262
2815.97,0.07597
2810.18,0.07778
2804.4,0.07887
2798.61,0.08008
2792.82,0.08097
2787.04,0.08343
2781.25,0.08636
2775.46,0.08874
2769.68,0.09145
2763.89,0.09507
2758.11,0.09862
2752.32,0.10186
2746.53,0.10510
2740.75,0.10709
2734.96,0.11026
2729.17,0.11447
2723.39,0.12043
2717.6,0.12686
2711.82,0.13330
2706.03,0.13901
2700.24,0.14400
2694.46,0.14985
2688.67,0.15547
2682.88,0.15891
2677.1,0.16073
2671.31,0.16300
2665.53,0.16675
2659.74,0.17133
2653.95,0.17564
2648.17,0.17775
2642.38,0.17998
2636.59,0.18349
2630.81,0.18889
2625.02,0.19540
2619.24,0.20043
2613.45,0.20226
2607.66,0.20120
2601.88,0.19948
2596.09,0.19891
2590.3,0.19932
2584.52,0.20199
2578.73,0.20850
2572.95,0.21873
2567.16,0.23095
2561.37,0.24063
2555.59,0.24682
2549.8,0.25042
2544.02,0.25280
2538.23,0.25606
2532.44,0.25906
2526.66,0.26237
2520.87,0.26505
2515.08,0.26588
2509.3,0.26638
2503.51,0.26595
2497.73,0.26555
2491.94,0.26554
2486.15,0.26560
2480.37,0.26545
2474.58,0.26526
2468.79,0.26659
2463.01,0.26893
2457.22,0.27022
2451.44,0.27210
2445.65,0.27547
2439.86,0.27871
2434.08,0.28227
2428.29,0.28483
2422.5,0.28632
2416.72,0.28572
2410.93,0.28339
2405.15,0.28060
2399.36,0.27850
2393.57,0.27550
2387.79,0.27273
2382,0.26986
2376.21,0.26825
2370.43,0.26668
2364.64,0.26569
2358.86,0.26479
2353.07,0.26293
2347.28,0.26093
2341.5,0.25748
2335.71,0.25202
2329.92,0.24546
2324.14,0.23658
2318.35,0.22489
2312.57,0.21120
2306.78,0.19458
2300.99,0.17518
2295.21,0.15379
2289.42,0.13162
2283.63,0.11352
2277.85,0.10160
2272.06,0.10015
2266.28,0.10964
2260.49,0.12782
2254.7,0.14970
2248.92,0.16890
2243.13,0.18386
2237.34,0.19485
2231.56,0.20330
2225.77,0.20960
2219.99,0.21375
2214.2,0.21751
2208.41,0.22159
2202.63,0.22506
2196.84,0.22833
2191.05,0.23061
2185.27,0.23246
2179.48,0.23386
2173.7,0.23498
2167.91,0.23598
2162.12,0.23714
2156.34,0.23814
2150.55,0.24042
2144.76,0.24226
2138.98,0.24382
2133.19,0.24519
2127.41,0.24671
2121.62,0.24805
2115.83,0.24949
2110.05,0.24994
2104.26,0.24949
2098.47,0.24815
2092.69,0.24631
2086.9,0.24483
2081.12,0.24370
2075.33,0.24122
2069.54,0.23951
2063.76,0.23787
2057.97,0.23615
2052.19,0.23397
2046.4,0.23068
2040.61,0.22646
2034.83,0.22199
2029.04,0.21805
2023.25,0.21476
2017.47,0.21301
2011.68,0.21238
2005.9,0.21297
2000.11,0.21382
1994.32,0.21514
1988.54,0.21583
1982.75,0.21636
1976.96,0.21617
1971.18,0.21637
1965.39,0.21630
1959.61,0.21588
1953.82,0.21581
1948.03,0.21527
1942.25,0.21491
1936.46,0.21410
1930.67,0.21272
1924.89,0.21054
1919.1,0.20910
1913.32,0.20881
1907.53,0.20973
1901.74,0.21043
1895.96,0.21036
1890.17,0.20987
1884.38,0.21056
1878.6,0.21173
1872.81,0.21308
1867.03,0.21346
1861.24,0.21284
1855.45,0.21182
1849.67,0.21001
1843.88,0.20757
1838.09,0.20466
1832.31,0.20040
1826.52,0.19561
1820.74,0.19011
1814.95,0.18383
1809.16,0.17609
1803.38,0.16747
1797.59,0.15820
1791.8,0.14957
1786.02,0.14065
1780.23,0.13285
1774.45,0.12645
1768.66,0.11790
1762.87,0.10625
1757.09,0.08864
1751.3,0.06739
1745.51,0.04772
1739.73,0.03711
1733.94,0.03334
1728.16,0.03285
1722.37,0.03396
1716.58,0.03561
1710.8,0.03666
1705.01,0.03760
1699.22,0.03811
1693.44,0.03826
1687.65,0.03836
1681.87,0.03773
1676.08,0.03672
1670.29,0.03561
1664.51,0.03419
1658.72,0.03309
1652.93,0.03128
1647.15,0.03008
1641.36,0.03088
1635.58,0.03371
1629.79,0.03621
1624,0.03661
1618.22,0.03573
1612.43,0.03369
1606.64,0.03284
1600.86,0.03271
1595.07,0.03325
1589.29,0.03414
1583.5,0.03515
1577.71,0.03513
1571.93,0.03214
1566.14,0.03008
1560.35,0.03010
1554.57,0.03100
1548.78,0.03165
1543,0.03290
1537.21,0.03381
1531.42,0.03453
1525.64,0.03574
1519.85,0.03694
1514.07,0.03721
1508.28,0.03729
1502.49,0.03809
1496.71,0.03877
1490.92,0.03932
1485.13,0.03861
1479.35,0.03776
1473.56,0.03818
1467.78,0.03835
1461.99,0.03798
1456.2,0.03758
1450.42,0.03771
1444.63,0.03944
1438.84,0.04171
1433.06,0.04483
1427.27,0.04469
1421.49,0.04217
1415.7,0.04026
1409.91,0.04044
1404.13,0.04143
1398.34,0.04189
1392.55,0.04141
1386.77,0.03922
1380.98,0.03651
1375.2,0.03542
1369.41,0.03862
1363.62,0.04378
1357.84,0.04545
1352.05,0.04336
1346.26,0.04077
1340.48,0.04030
1334.69,0.04074
1328.91,0.04002
1323.12,0.03852
1317.33,0.03713
1311.55,0.03579
1305.76,0.03505
1299.97,0.03425
1294.19,0.03490
1288.4,0.03610
1282.62,0.03580
1276.83,0.03533
1271.04,0.03541
1265.26,0.03504
1259.47,0.03501
1253.68,0.03389
1247.9,0.03316
1242.11,0.03196
1236.33,0.03135
1230.54,0.03150
1224.75,0.03271
1218.97,0.03391
1213.18,0.03563
1207.39,0.03585
1201.61,0.03607
1195.82,0.03566
1190.04,0.03528
1184.25,0.03408
1178.46,0.03278
1172.68,0.03054
1166.89,0.02950
1161.1,0.02882
1155.32,0.02943
1149.53,0.02925
1143.75,0.02883
1137.96,0.02875
1132.17,0.02846
1126.39,0.02929
1120.6,0.02987
1114.81,0.03169
1109.03,0.03476
1103.24,0.03753
1097.46,0.03893
1091.67,0.04004
1085.88,0.04168
1080.1,0.04288
1074.31,0.04432
1068.52,0.04499
1062.74,0.04587
1056.95,0.04686
1051.17,0.04933
1045.38,0.05070
1039.59,0.05225
1033.81,0.05333
1028.02,0.05284
1022.24,0.05024
1016.45,0.04953
1010.66,0.05003
1004.88,0.05120
999.09,0.05482
993.304,0.06104
987.518,0.06789
981.731,0.07063
975.945,0.07014
970.159,0.06852
964.373,0.06931
958.586,0.07220
952.8,0.07337
947.014,0.06765
941.228,0.05779
935.441,0.05293
929.655,0.05158
923.869,0.05267
918.083,0.05633
912.297,0.05843
906.51,0.06072
900.724,0.06450
894.938,0.06661
889.152,0.06450
883.365,0.06282
877.579,0.06083
871.793,0.05960
866.007,0.06001
860.22,0.06107
854.434,0.06366
848.648,0.06447
842.862,0.06269
837.075,0.06082
831.289,0.05734
825.503,0.05246
819.717,0.05030
813.931,0.05155
808.144,0.05362
802.358,0.05794
796.572,0.06138
790.786,0.06361
784.999,0.06316
779.213,0.06180
773.427,0.05883
767.641,0.05668
761.854,0.05469
756.068,0.05446
750.282,0.05974
744.496,0.06589
738.709,0.06898
732.923,0.06865
727.137,0.06602
721.351,0.06179
715.565,0.05620
709.778,0.05274
703.992,0.05511
698.206,0.05328
692.42,0.05149
686.633,0.04981
680.847,0.04981
675.061,0.04839
669.275,0.04945
663.488,0.05061
657.702,0.05110
651.916,0.05358
646.13,0.05614
640.343,0.05544
634.557,0.05665
628.771,0.05755
622.985,0.05795
617.198,0.05822
611.412,0.05959
605.626,0.05821
599.84,0.05883