File: 01_Data/PUF_Mattress_Pad/FTIR/IS/PUF_Mattress_Pad_IS_S_221003_R8.dpt
7497.03,0.67172
7491.25,0.68139
7485.46,0.68537
7479.67,0.66948
7473.89,0.67355
7468.1,0.66869
7462.32,0.68201
7456.53,0.66846
7450.74,0.67270
7444.96,0.67500
7439.17,0.66998
7433.38,0.67670
7427.6,0.66618
7421.81,0.66915
7416.03,0.67285
7410.24,0.67665
7404.45,0.66954
7398.67,0.67246
7392.88,0.66999
7387.09,0.66669
7381.31,0.66125
7375.52,0.67012
7369.74,0.66511
7363.95,0.65578
7358.16,0.66096
7352.38,0.66906
7346.59,0.65693
7340.8,0.66484
7335.02,0.65777
7329.23,0.65568
7323.45,0.66139
7317.66,0.65981
7311.87,0.65920
7306.09,0.65479
7300.3,0.66047
7294.51,0.65779
7288.73,0.65069
7282.94,0.64794
7277.16,0.66096
7271.37,0.65814
7265.58,0.65321
7259.8,0.64996
7254.01,0.65278
7248.22,0.65258
7242.44,0.65095
7236.65,0.64969
7230.87,0.64372
7225.08,0.65335
7219.29,0.64250
7213.51,0.64359
7207.72,0.64809
7201.93,0.64126
7196.15,0.64226
7190.36,0.64322
7184.58,0.64905
7178.79,0.64838
7173,0.64655
7167.22,0.64155
7161.43,0.64594
7155.65,0.65036
7149.86,0.64791
7144.07,0.65136
7138.29,0.65136
7132.5,0.65007
7126.71,0.65153
7120.93,0.64372
7115.14,0.65533
7109.36,0.65147
7103.57,0.65440
7097.78,0.64831
7092,0.65155
7086.21,0.64919
7080.42,0.64995
7074.64,0.65430
7068.85,0.65026
7063.07,0.65310
7057.28,0.65025
7051.49,0.65739
7045.71,0.65000
7039.92,0.65041
7034.13,0.65272
7028.35,0.64861
7022.56,0.65704
7016.78,0.65656
7010.99,0.65405
7005.2,0.65235
6999.42,0.65659
6993.63,0.65277
6987.84,0.65370
6982.06,0.65188
6976.27,0.65038
6970.49,0.64898
6964.7,0.64799
6958.91,0.64187
6953.13,0.65115
6947.34,0.64956
6941.55,0.64997
6935.77,0.65294
6929.98,0.65637
6924.2,0.65705
6918.41,0.65316
6912.62,0.65920
6906.84,0.65851
6901.05,0.65657
6895.26,0.65511
6889.48,0.65818
6883.69,0.65790
6877.91,0.65638
6872.12,0.66051
6866.33,0.65554
6860.55,0.65331
6854.76,0.65503
6848.97,0.66043
6843.19,0.65693
6837.4,0.65560
6831.62,0.66142
6825.83,0.65855
6820.04,0.65894
6814.26,0.65643
6808.47,0.66029
6802.68,0.65486
6796.9,0.65600
6791.11,0.65141
6785.33,0.64716
6779.54,0.65108
6773.75,0.65121
6767.97,0.65283
6762.18,0.64571
6756.39,0.64905
6750.61,0.64526
6744.82,0.64796
6739.04,0.64241
6733.25,0.63847
6727.46,0.64517
6721.68,0.64187
6715.89,0.63972
6710.1,0.63658
6704.32,0.63294
6698.53,0.63445
6692.75,0.62700
6686.96,0.62619
6681.17,0.62648
6675.39,0.62404
6669.6,0.62614
6663.82,0.63195
6658.03,0.62681
6652.24,0.62384
6646.46,0.62274
6640.67,0.62674
6634.88,0.62446
6629.1,0.62741
6623.31,0.62182
6617.53,0.62369
6611.74,0.62318
6605.95,0.62406
6600.17,0.62882
6594.38,0.62382
6588.59,0.62430
6582.81,0.62860
6577.02,0.63041
6571.24,0.62868
6565.45,0.63225
6559.66,0.62695
6553.88,0.63428
6548.09,0.63648
6542.3,0.63836
6536.52,0.63914
6530.73,0.64395
6524.95,0.63917
6519.16,0.64096
6513.37,0.64366
6507.59,0.64322
6501.8,0.64379
6496.01,0.64541
6490.23,0.64537
6484.44,0.64685
6478.66,0.64851
6472.87,0.64364
6467.08,0.64727
6461.3,0.64830
6455.51,0.64636
6449.72,0.65338
6443.94,0.65287
6438.15,0.64938
6432.37,0.65181
6426.58,0.65168
6420.79,0.65230
6415.01,0.65369
6409.22,0.65185
6403.43,0.65088
6397.65,0.65234
6391.86,0.65398
6386.08,0.65333
6380.29,0.65042
6374.5,0.65273
6368.72,0.65095
6362.93,0.65159
6357.14,0.65206
6351.36,0.65153
6345.57,0.65170
6339.79,0.64997
6334,0.65206
6328.21,0.65227
6322.43,0.65327
6316.64,0.65256
6310.85,0.65274
6305.07,0.65140
6299.28,0.65113
6293.5,0.65315
6287.71,0.65122
6281.92,0.65062
6276.14,0.65330
6270.35,0.65396
6264.56,0.64948
6258.78,0.65058
6252.99,0.65168
6247.21,0.64874
6241.42,0.65011
6235.63,0.65127
6229.85,0.64574
6224.06,0.65382
6218.27,0.64892
6212.49,0.65401
6206.7,0.64807
6200.92,0.64652
6195.13,0.65124
6189.34,0.64919
6183.56,0.64941
6177.77,0.64848
6171.98,0.64534
6166.2,0.64672
6160.41,0.64705
6154.63,0.64635
6148.84,0.64489
6143.05,0.64691
6137.27,0.64249
6131.48,0.64282
6125.7,0.64427
6119.91,0.63986
6114.12,0.64044
6108.34,0.63704
6102.55,0.63544
6096.76,0.63507
6090.98,0.63409
6085.19,0.63219
6079.41,0.63183
6073.62,0.63248
6067.83,0.62996
6062.05,0.63082
6056.26,0.62864
6050.47,0.62757
6044.69,0.62552
6038.9,0.62480
6033.12,0.62449
6027.33,0.62218
6021.54,0.61874
6015.76,0.61860
6009.97,0.61170
6004.18,0.60978
5998.4,0.60410
5992.61,0.60169
5986.83,0.59685
5981.04,0.58953
5975.25,0.58367
5969.47,0.57518
5963.68,0.55965
5957.89,0.55137
5952.11,0.54073
5946.32,0.53210
5940.54,0.53136
5934.75,0.53536
5928.96,0.53735
5923.18,0.54222
5917.39,0.53379
5911.6,0.52851
5905.82,0.52393
5900.03,0.52228
5894.25,0.52445
5888.46,0.53054
5882.67,0.53862
5876.89,0.54198
5871.1,0.54473
5865.31,0.54438
5859.53,0.54547
5853.74,0.54718
5847.96,0.54491
5842.17,0.54252
5836.38,0.54052
5830.6,0.53720
5824.81,0.53295
5819.02,0.52921
5813.24,0.52829
5807.45,0.52361
5801.67,0.51983
5795.88,0.51650
5790.09,0.51301
5784.31,0.50982
5778.52,0.50818
5772.73,0.50657
5766.95,0.50940
5761.16,0.50976
5755.38,0.51399
5749.59,0.51959
5743.8,0.52147
5738.02,0.52636
5732.23,0.53180
5726.44,0.53903
5720.66,0.54424
5714.87,0.54618
5709.09,0.55106
5703.3,0.55451
5697.51,0.55728
5691.73,0.56002
5685.94,0.56013
5680.15,0.56018
5674.37,0.55971
5668.58,0.55856
5662.8,0.55802
5657.01,0.56110
5651.22,0.56398
5645.44,0.56233
5639.65,0.56661
5633.87,0.56685
5628.08,0.57162
5622.29,0.57357
5616.51,0.57792
5610.72,0.57774
5604.93,0.58119
5599.15,0.58131
5593.36,0.58142
5587.58,0.58049
5581.79,0.58193
5576,0.58004
5570.22,0.58087
5564.43,0.57798
5558.64,0.58022
5552.86,0.58054
5547.07,0.58033
5541.29,0.57933
5535.5,0.58151
5529.71,0.58161
5523.93,0.58061
5518.14,0.58242
5512.35,0.58428
5506.57,0.58287
5500.78,0.58584
5495,0.58543
5489.21,0.58700
5483.42,0.58674
5477.64,0.58639
5471.85,0.58644
5466.06,0.58784
5460.28,0.58805
5454.49,0.58840
5448.71,0.58654
5442.92,0.58959
5437.13,0.59126
5431.35,0.59239
5425.56,0.59638
5419.77,0.59744
5413.99,0.60098
5408.2,0.60612
5402.42,0.60806
5396.63,0.60857
5390.84,0.61005
5385.06,0.61077
5379.27,0.61309
5373.48,0.61502
5367.7,0.61525
5361.91,0.61467
5356.13,0.61425
5350.34,0.61489
5344.55,0.61468
5338.77,0.61487
5332.98,0.61661
5327.19,0.61605
5321.41,0.61615
5315.62,0.61779
5309.84,0.61758
5304.05,0.61989
5298.26,0.61721
5292.48,0.61611
5286.69,0.61796
5280.9,0.61555
5275.12,0.61506
5269.33,0.61481
5263.55,0.61304
5257.76,0.61072
5251.97,0.61093
5246.19,0.60769
5240.4,0.60800
5234.61,0.60705
5228.83,0.60687
5223.04,0.60702
5217.26,0.60622
5211.47,0.60566
5205.68,0.60484
5199.9,0.60478
5194.11,0.60565
5188.32,0.60599
5182.54,0.60578
5176.75,0.60780
5170.97,0.60798
5165.18,0.60729
5159.39,0.60863
5153.61,0.60706
5147.82,0.60516
5142.03,0.60565
5136.25,0.60515
5130.46,0.60626
5124.68,0.60510
5118.89,0.60393
5113.1,0.60390
5107.32,0.60262
5101.53,0.60185
5095.75,0.59916
5089.96,0.59801
5084.17,0.59503
5078.39,0.59344
5072.6,0.59090
5066.81,0.58822
5061.03,0.58789
5055.24,0.58565
5049.46,0.58338
5043.67,0.57937
5037.88,0.57823
5032.1,0.57663
5026.31,0.57442
5020.52,0.57120
5014.74,0.56740
5008.95,0.56517
5003.17,0.56283
4997.38,0.55990
4991.59,0.55616
4985.81,0.55169
4980.02,0.54772
4974.23,0.54129
4968.45,0.53581
4962.66,0.53021
4956.88,0.52445
4951.09,0.51758
4945.3,0.51292
4939.52,0.50852
4933.73,0.50293
4927.94,0.50105
4922.16,0.49665
4916.37,0.49278
4910.59,0.48827
4904.8,0.48408
4899.01,0.47936
4893.23,0.47787
4887.44,0.47538
4881.65,0.47266
4875.87,0.47031
4870.08,0.46714
4864.3,0.46371
4858.51,0.46171
4852.72,0.46027
4846.94,0.45926
4841.15,0.45935
4835.36,0.46036
4829.58,0.46103
4823.79,0.46462
4818.01,0.46781
4812.22,0.47138
4806.43,0.47539
4800.65,0.47913
4794.86,0.48315
4789.07,0.48720
4783.29,0.49109
4777.5,0.49459
4771.72,0.49768
4765.93,0.49948
4760.14,0.50158
4754.36,0.50410
4748.57,0.50433
4742.78,0.50514
4737,0.50430
4731.21,0.50403
4725.43,0.50424
4719.64,0.50375
4713.85,0.50275
4708.07,0.50180
4702.28,0.50012
4696.49,0.49681
4690.71,0.49368
4684.92,0.49003
4679.14,0.48671
4673.35,0.48268
4667.56,0.47910
4661.78,0.47593
4655.99,0.47381
4650.2,0.47132
4644.42,0.47113
4638.63,0.47053
4632.85,0.46943
4627.06,0.46918
4621.27,0.46764
4615.49,0.46676
4609.7,0.46677
4603.92,0.46625
4598.13,0.46666
4592.34,0.46728
4586.56,0.46761
4580.77,0.46790
4574.98,0.46822
4569.2,0.46652
4563.41,0.46631
4557.63,0.46458
4551.84,0.46372
4546.05,0.46300
4540.27,0.46250
4534.48,0.46253
4528.69,0.46114
4522.91,0.46024
4517.12,0.45960
4511.34,0.45897
4505.55,0.45730
4499.76,0.45524
4493.98,0.45376
4488.19,0.45022
4482.4,0.44660
4476.62,0.44200
4470.83,0.43587
4465.05,0.42714
4459.26,0.41651
4453.47,0.40330
4447.69,0.38694
4441.9,0.36754
4436.11,0.34725
4430.33,0.32715
4424.54,0.30906
4418.76,0.29584
4412.97,0.28820
4407.18,0.29092
4401.4,0.29699
4395.61,0.30309
4389.82,0.30272
4384.04,0.29762
4378.25,0.29165
4372.47,0.28227
4366.68,0.27380
4360.89,0.26327
4355.11,0.25172
4349.32,0.24310
4343.53,0.23662
4337.75,0.23290
4331.96,0.23107
4326.18,0.23284
4320.39,0.23756
4314.6,0.24518
4308.82,0.25441
4303.03,0.26652
4297.24,0.27716
4291.46,0.28419
4285.67,0.28731
4279.89,0.28760
4274.1,0.28804
4268.31,0.28908
4262.53,0.29311
4256.74,0.29779
4250.95,0.30257
4245.17,0.30454
4239.38,0.30595
4233.6,0.30829
4227.81,0.31148
4222.02,0.31622
4216.24,0.32186
4210.45,0.32754
4204.66,0.33251
4198.88,0.33550
4193.09,0.33660
4187.31,0.33624
4181.52,0.33393
4175.73,0.33139
4169.95,0.32828
4164.16,0.32483
4158.37,0.32183
4152.59,0.32018
4146.8,0.31889
4141.02,0.31771
4135.23,0.31798
4129.44,0.31612
4123.66,0.31461
4117.87,0.31233
4112.09,0.30915
4106.3,0.30657
4100.51,0.30218
4094.73,0.29789
4088.94,0.29232
4083.15,0.28673
4077.37,0.28137
4071.58,0.27710
4065.8,0.27287
4060.01,0.27044
4054.22,0.26699
4048.44,0.26469
4042.65,0.26264
4036.86,0.26192
4031.08,0.26118
4025.29,0.26142
4019.51,0.26207
4013.72,0.26281
4007.93,0.26457
4002.15,0.26564
3996.36,0.26735
3990.57,0.26944
3984.79,0.27307
3979,0.27728
3973.22,0.28242
3967.43,0.28765
3961.64,0.29260
3955.86,0.29811
3950.07,0.30473
3944.28,0.31120
3938.5,0.31882
3932.71,0.32725
3926.93,0.33329
3921.14,0.33921
3915.35,0.34375
3909.57,0.34708
3903.78,0.35033
3897.99,0.35228
3892.21,0.35346
3886.42,0.35530
3880.64,0.35658
3874.85,0.35752
3869.06,0.35821
3863.28,0.35846
3857.49,0.35872
3851.7,0.35967
3845.92,0.36155
3840.13,0.36447
3834.35,0.36794
3828.56,0.37056
3822.77,0.37287
3816.99,0.37584
3811.2,0.37629
3805.41,0.37650
3799.63,0.37726
3793.84,0.37867
3788.06,0.37994
3782.27,0.38336
3776.48,0.38835
3770.7,0.39276
3764.91,0.40029
3759.12,0.40583
3753.34,0.41167
3747.55,0.41726
3741.77,0.42226
3735.98,0.42591
3730.19,0.42977
3724.41,0.43268
3718.62,0.43493
3712.83,0.43728
3707.05,0.43891
3701.26,0.44032
3695.48,0.43991
3689.69,0.43931
3683.9,0.43671
3678.12,0.43325
3672.33,0.43004
3666.54,0.42495
3660.76,0.41896
3654.97,0.41295
3649.19,0.40637
3643.4,0.39933
3637.61,0.39344
3631.83,0.38719
3626.04,0.38187
3620.25,0.37560
3614.47,0.36940
3608.68,0.36365
3602.9,0.35871
3597.11,0.35470
3591.32,0.35063
3585.54,0.34639
3579.75,0.34245
3573.97,0.33824
3568.18,0.33253
3562.39,0.32696
3556.61,0.32208
3550.82,0.31677
3545.03,0.31104
3539.25,0.30501
3533.46,0.29802
3527.68,0.29208
3521.89,0.28534
3516.1,0.27963
3510.32,0.27340
3504.53,0.26719
3498.74,0.26146
3492.96,0.25360
3487.17,0.24495
3481.39,0.23466
3475.6,0.22259
3469.81,0.20879
3464.03,0.19214
3458.24,0.18081
3452.45,0.17321
3446.67,0.16627
3440.88,0.15813
3435.1,0.14578
3429.31,0.12853
3423.52,0.10944
3417.74,0.09548
3411.95,0.08924
3406.16,0.08601
3400.38,0.08205
3394.59,0.07703
3388.81,0.07101
3383.02,0.06576
3377.23,0.06171
3371.45,0.05840
3365.66,0.05620
3359.87,0.05470
3354.09,0.05323
3348.3,0.05205
3342.52,0.04984
3336.73,0.04907
3330.94,0.04828
3325.16,0.04743
3319.37,0.04618
3313.58,0.04529
3307.8,0.04469
3302.01,0.04492
3296.23,0.04479
3290.44,0.04473
3284.65,0.04558
3278.87,0.04546
3273.08,0.04524
3267.29,0.04601
3261.51,0.04659
3255.72,0.04877
3249.94,0.04889
3244.15,0.05049
3238.36,0.05152
3232.58,0.05336
3226.79,0.05493
3221,0.05674
3215.22,0.05836
3209.43,0.05924
3203.65,0.05998
3197.86,0.06062
3192.07,0.06238
3186.29,0.06354
3180.5,0.06553
3174.71,0.06758
3168.93,0.06835
3163.14,0.07006
3157.36,0.07157
3151.57,0.07300
3145.78,0.07444
3140,0.07430
3134.21,0.07547
3128.42,0.07619
3122.64,0.07759
3116.85,0.07814
3111.07,0.07865
3105.28,0.07861
3099.49,0.07857
3093.71,0.07747
3087.92,0.07635
3082.14,0.07549
3076.35,0.07455
3070.56,0.07430
3064.78,0.07510
3058.99,0.07535
3053.2,0.07632
3047.42,0.07676
3041.63,0.07640
3035.85,0.07528
3030.06,0.07424
3024.27,0.07477
3018.49,0.07449
3012.7,0.07231
3006.91,0.06670
3001.13,0.05874
2995.34,0.05038
2989.56,0.04454
2983.77,0.04162
2977.98,0.04007
2972.2,0.04047
2966.41,0.04196
2960.62,0.04523
2954.84,0.04640
2949.05,0.04537
2943.27,0.04310
2937.48,0.04149
2931.69,0.04077
2925.91,0.04088
2920.12,0.04163
2914.33,0.04190
2908.55,0.04168
2902.76,0.04157
2896.98,0.04199
2891.19,0.04174
2885.4,0.04254
2879.62,0.04250
2873.83,0.04260
2868.04,0.04220
2862.26,0.04333
2856.47,0.04532
2850.69,0.04744
2844.9,0.05103
2839.11,0.05604
2833.33,0.06206
2827.54,0.06780
2821.75,0.07239
2815.97,0.07561
2810.18,0.07790
2804.4,0.07900
2798.61,0.07992
2792.82,0.08180
2787.04,0.08331
2781.25,0.08569
2775.46,0.08830
2769.68,0.09080
2763.89,0.09465
2758.11,0.09828
2752.32,0.10178
2746.53,0.10469
2740.75,0.10773
2734.96,0.10996
2729.17,0.11409
2723.39,0.12038
2717.6,0.12692
2711.82,0.13383
2706.03,0.13880
2700.24,0.14353
2694.46,0.14967
2688.67,0.15547
2682.88,0.15944
2677.1,0.16085
2671.31,0.16280
2665.53,0.16638
2659.74,0.17160
2653.95,0.17586
2648.17,0.17773
2642.38,0.17998
2636.59,0.18351
2630.81,0.18896
2625.02,0.19571
2619.24,0.20030
2613.45,0.20221
2607.66,0.20117
2601.88,0.19977
2596.09,0.19878
2590.3,0.19911
2584.52,0.20136
2578.73,0.20816
2572.95,0.21874
2567.16,0.23083
2561.37,0.24044
2555.59,0.24677
2549.8,0.25041
2544.02,0.25284
2538.23,0.25562
2532.44,0.25890
2526.66,0.26196
2520.87,0.26446
2515.08,0.26566
2509.3,0.26615
2503.51,0.26619
2497.73,0.26576
2491.94,0.26558
2486.15,0.26566
2480.37,0.26528
2474.58,0.26507
2468.79,0.26613
2463.01,0.26822
2457.22,0.27052
2451.44,0.27283
2445.65,0.27549
2439.86,0.27860
2434.08,0.28161
2428.29,0.28453
2422.5,0.28640
2416.72,0.28564
2410.93,0.28329
2405.15,0.27999
2399.36,0.27785
2393.57,0.27539
2387.79,0.27264
2382,0.27006
2376.21,0.26813
2370.43,0.26651
2364.64,0.26541
2358.86,0.26475
2353.07,0.26311
2347.28,0.26052
2341.5,0.25771
2335.71,0.25222
2329.92,0.24494
2324.14,0.23636
2318.35,0.22469
2312.57,0.21127
2306.78,0.19448
2300.99,0.17495
2295.21,0.15357
2289.42,0.13193
2283.63,0.11316
2277.85,0.10168
2272.06,0.10008
2266.28,0.10935
2260.49,0.12795
2254.7,0.14945
2248.92,0.16919
2243.13,0.18384
2237.34,0.19508
2231.56,0.20337
2225.77,0.20952
2219.99,0.21349
2214.2,0.21732
2208.41,0.22121
2202.63,0.22469
2196.84,0.22816
2191.05,0.23062
2185.27,0.23262
2179.48,0.23379
2173.7,0.23528
2167.91,0.23630
2162.12,0.23685
2156.34,0.23845
2150.55,0.24032
2144.76,0.24203
2138.98,0.24405
2133.19,0.24538
2127.41,0.24675
2121.62,0.24850
2115.83,0.24933
2110.05,0.25007
2104.26,0.24951
2098.47,0.24839
2092.69,0.24676
2086.9,0.24494
2081.12,0.24333
2075.33,0.24161
2069.54,0.23983
2063.76,0.23815
2057.97,0.23640
2052.19,0.23400
2046.4,0.23080
2040.61,0.22640
2034.83,0.22200
2029.04,0.21805
2023.25,0.21491
2017.47,0.21336
2011.68,0.21231
2005.9,0.21286
2000.11,0.21411
1994.32,0.21527
1988.54,0.21592
1982.75,0.21626
1976.96,0.21647
1971.18,0.21637
1965.39,0.21632
1959.61,0.21624
1953.82,0.21582
1948.03,0.21515
1942.25,0.21476
1936.46,0.21389
1930.67,0.21249
1924.89,0.21068
1919.1,0.20923
1913.32,0.20894
1907.53,0.20984
1901.74,0.21040
1895.96,0.21060
1890.17,0.21034
1884.38,0.21023
1878.6,0.21148
1872.81,0.21295
1867.03,0.21365
1861.24,0.21311
1855.45,0.21150
1849.67,0.21013
1843.88,0.20765
1838.09,0.20440
1832.31,0.20033
1826.52,0.19575
1820.74,0.19026
1814.95,0.18375
1809.16,0.17602
1803.38,0.16739
1797.59,0.15800
1791.8,0.14941
1786.02,0.14088
1780.23,0.13313
1774.45,0.12651
1768.66,0.11774
1762.87,0.10613
1757.09,0.08857
1751.3,0.06732
1745.51,0.04762
1739.73,0.03700
1733.94,0.03388
1728.16,0.03343
1722.37,0.03416
1716.58,0.03562
1710.8,0.03679
1705.01,0.03761
1699.22,0.03830
1693.44,0.03852
1687.65,0.03859
1681.87,0.03764
1676.08,0.03688
1670.29,0.03579
1664.51,0.03466
1658.72,0.03287
1652.93,0.03150
1647.15,0.03050
1641.36,0.03069
1635.58,0.03401
1629.79,0.03624
1624,0.03646
1618.22,0.03540
1612.43,0.03406
1606.64,0.03225
1600.86,0.03270
1595.07,0.03345
1589.29,0.03401
1583.5,0.03523
1577.71,0.03481
1571.93,0.03232
1566.14,0.03055
1560.35,0.03021
1554.57,0.03043
1548.78,0.03165
1543,0.03297
1537.21,0.03349
1531.42,0.03471
1525.64,0.03616
1519.85,0.03685
1514.07,0.03739
1508.28,0.03812
1502.49,0.03854
1496.71,0.03912
1490.92,0.03931
1485.13,0.03867
1479.35,0.03817
1473.56,0.03823
1467.78,0.03827
1461.99,0.03810
1456.2,0.03785
1450.42,0.03778
1444.63,0.03916
1438.84,0.04245
1433.06,0.04486
1427.27,0.04456
1421.49,0.04272
1415.7,0.04032
1409.91,0.04043
1404.13,0.04108
1398.34,0.04141
1392.55,0.04116
1386.77,0.03918
1380.98,0.03613
1375.2,0.03559
1369.41,0.03864
1363.62,0.04413
1357.84,0.04571
1352.05,0.04299
1346.26,0.04115
1340.48,0.04047
1334.69,0.04073
1328.91,0.04066
1323.12,0.03884
1317.33,0.03704
1311.55,0.03558
1305.76,0.03498
1299.97,0.03430
1294.19,0.03493
1288.4,0.03620
1282.62,0.03598
1276.83,0.03549
1271.04,0.03518
1265.26,0.03494
1259.47,0.03482
1253.68,0.03438
1247.9,0.03328
1242.11,0.03246
1236.33,0.03165
1230.54,0.03175
1224.75,0.03286
1218.97,0.03421
1213.18,0.03532
1207.39,0.03560
1201.61,0.03578
1195.82,0.03564
1190.04,0.03484
1184.25,0.03411
1178.46,0.03286
1172.68,0.03105
1166.89,0.02977
1161.1,0.02953
1155.32,0.02908
1149.53,0.02837
1143.75,0.02854
1137.96,0.02878
1132.17,0.02895
1126.39,0.02944
1120.6,0.03056
1114.81,0.03303
1109.03,0.03473
1103.24,0.03751
1097.46,0.03955
1091.67,0.04019
1085.88,0.04176
1080.1,0.04281
1074.31,0.04401
1068.52,0.04463
1062.74,0.04661
1056.95,0.04780
1051.17,0.04882
1045.38,0.05158
1039.59,0.05248
1033.81,0.05266
1028.02,0.05353
1022.24,0.05139
1016.45,0.05034
1010.66,0.05012
1004.88,0.05140
999.09,0.05438
993.304,0.06129
987.518,0.06788
981.731,0.07046
975.945,0.06962
970.159,0.06897
964.373,0.07003
958.586,0.07247
952.8,0.07351
947.014,0.06775
941.228,0.05771
935.441,0.05307
929.655,0.05230
923.869,0.05352
918.083,0.05689
912.297,0.05902
906.51,0.06018
900.724,0.06465
894.938,0.06723
889.152,0.06518
883.365,0.06180
877.579,0.06090
871.793,0.06052
866.007,0.06042
860.22,0.06127
854.434,0.06330
848.648,0.06418
842.862,0.06394
837.075,0.06139
831.289,0.05752
825.503,0.05378
819.717,0.05103
813.931,0.05131
808.144,0.05469
802.358,0.05732
796.572,0.06129
790.786,0.06360
784.999,0.06396
779.213,0.06197
773.427,0.05918
767.641,0.05600
761.854,0.05499
756.068,0.05499
750.282,0.06072
744.496,0.06655
738.709,0.06936
732.923,0.06916
727.137,0.06645
721.351,0.06184
715.565,0.05655
709.778,0.05442
703.992,0.05540
698.206,0.05346
692.42,0.05195
686.633,0.05096
680.847,0.04979
675.061,0.04898
669.275,0.04992
663.488,0.05007
657.702,0.05157
651.916,0.05266
646.13,0.05587
640.343,0.05654
634.557,0.05748
628.771,0.05738
622.985,0.06072
617.198,0.05952
611.412,0.06037
605.626,0.06002
599.84,0.06017