File: 01_Data/PUF_Mattress_Pad/FTIR/IS/PUF_Mattress_Pad_IS_S_221003_R7.dpt
7497.03,0.67996
7491.25,0.67608
7485.46,0.67260
7479.67,0.67595
7473.89,0.68133
7468.1,0.67826
7462.32,0.67731
7456.53,0.66801
7450.74,0.67293
7444.96,0.66639
7439.17,0.66136
7433.38,0.67028
7427.6,0.66380
7421.81,0.67497
7416.03,0.66518
7410.24,0.66919
7404.45,0.66375
7398.67,0.66819
7392.88,0.67727
7387.09,0.66611
7381.31,0.66560
7375.52,0.66267
7369.74,0.66126
7363.95,0.65628
7358.16,0.65680
7352.38,0.67056
7346.59,0.65691
7340.8,0.66939
7335.02,0.66570
7329.23,0.66089
7323.45,0.66511
7317.66,0.66113
7311.87,0.66338
7306.09,0.65676
7300.3,0.65927
7294.51,0.65639
7288.73,0.65161
7282.94,0.65765
7277.16,0.64960
7271.37,0.64811
7265.58,0.65473
7259.8,0.65404
7254.01,0.63896
7248.22,0.64391
7242.44,0.64905
7236.65,0.65257
7230.87,0.64900
7225.08,0.65486
7219.29,0.65332
7213.51,0.64702
7207.72,0.63968
7201.93,0.64204
7196.15,0.64377
7190.36,0.64185
7184.58,0.64693
7178.79,0.64538
7173,0.64598
7167.22,0.64656
7161.43,0.64470
7155.65,0.64783
7149.86,0.64750
7144.07,0.64928
7138.29,0.64762
7132.5,0.64859
7126.71,0.65926
7120.93,0.65229
7115.14,0.65315
7109.36,0.65122
7103.57,0.65288
7097.78,0.65776
7092,0.65874
7086.21,0.65170
7080.42,0.65166
7074.64,0.65732
7068.85,0.65283
7063.07,0.65280
7057.28,0.65389
7051.49,0.65560
7045.71,0.65323
7039.92,0.64852
7034.13,0.65081
7028.35,0.65283
7022.56,0.65813
7016.78,0.65782
7010.99,0.65321
7005.2,0.64961
6999.42,0.65203
6993.63,0.64999
6987.84,0.65098
6982.06,0.65096
6976.27,0.65595
6970.49,0.66276
6964.7,0.65190
6958.91,0.65567
6953.13,0.65466
6947.34,0.65555
6941.55,0.65590
6935.77,0.65550
6929.98,0.65776
6924.2,0.65134
6918.41,0.65862
6912.62,0.65811
6906.84,0.65161
6901.05,0.65965
6895.26,0.65343
6889.48,0.65636
6883.69,0.65915
6877.91,0.65881
6872.12,0.65829
6866.33,0.65369
6860.55,0.65630
6854.76,0.65701
6848.97,0.65697
6843.19,0.65618
6837.4,0.65913
6831.62,0.66182
6825.83,0.65697
6820.04,0.65981
6814.26,0.65606
6808.47,0.66023
6802.68,0.65429
6796.9,0.65668
6791.11,0.65542
6785.33,0.65040
6779.54,0.64938
6773.75,0.65472
6767.97,0.65217
6762.18,0.65320
6756.39,0.65129
6750.61,0.64512
6744.82,0.64612
6739.04,0.64730
6733.25,0.64312
6727.46,0.64262
6721.68,0.63950
6715.89,0.64185
6710.1,0.63938
6704.32,0.63543
6698.53,0.63349
6692.75,0.63057
6686.96,0.62920
6681.17,0.62562
6675.39,0.62301
6669.6,0.62551
6663.82,0.62660
6658.03,0.62306
6652.24,0.62490
6646.46,0.62532
6640.67,0.62445
6634.88,0.62619
6629.1,0.62651
6623.31,0.62547
6617.53,0.62775
6611.74,0.62147
6605.95,0.62646
6600.17,0.62694
6594.38,0.63038
6588.59,0.62918
6582.81,0.62812
6577.02,0.62814
6571.24,0.63151
6565.45,0.63146
6559.66,0.63358
6553.88,0.63397
6548.09,0.63442
6542.3,0.63490
6536.52,0.63948
6530.73,0.64068
6524.95,0.64453
6519.16,0.64227
6513.37,0.64532
6507.59,0.64398
6501.8,0.64701
6496.01,0.65007
6490.23,0.64345
6484.44,0.64164
6478.66,0.64793
6472.87,0.65100
6467.08,0.65291
6461.3,0.64901
6455.51,0.64942
6449.72,0.65078
6443.94,0.65028
6438.15,0.65353
6432.37,0.65254
6426.58,0.64776
6420.79,0.64828
6415.01,0.64896
6409.22,0.65170
6403.43,0.65345
6397.65,0.65240
6391.86,0.65441
6386.08,0.65165
6380.29,0.64752
6374.5,0.64960
6368.72,0.65164
6362.93,0.65555
6357.14,0.65068
6351.36,0.65050
6345.57,0.65283
6339.79,0.65217
6334,0.65348
6328.21,0.65191
6322.43,0.65109
6316.64,0.65382
6310.85,0.65034
6305.07,0.64966
6299.28,0.65228
6293.5,0.65479
6287.71,0.65321
6281.92,0.65419
6276.14,0.65109
6270.35,0.65242
6264.56,0.64942
6258.78,0.65360
6252.99,0.65227
6247.21,0.65049
6241.42,0.65181
6235.63,0.65298
6229.85,0.65381
6224.06,0.64972
6218.27,0.65194
6212.49,0.65156
6206.7,0.65594
6200.92,0.65171
6195.13,0.65000
6189.34,0.65109
6183.56,0.65090
6177.77,0.65033
6171.98,0.65173
6166.2,0.64849
6160.41,0.64832
6154.63,0.64622
6148.84,0.64679
6143.05,0.64631
6137.27,0.64705
6131.48,0.64694
6125.7,0.64655
6119.91,0.64372
6114.12,0.64272
6108.34,0.63846
6102.55,0.63998
6096.76,0.63554
6090.98,0.63482
6085.19,0.63325
6079.41,0.63419
6073.62,0.63255
6067.83,0.63046
6062.05,0.63312
6056.26,0.62987
6050.47,0.62890
6044.69,0.62977
6038.9,0.62655
6033.12,0.62342
6027.33,0.62239
6021.54,0.61745
6015.76,0.61398
6009.97,0.61348
6004.18,0.60947
5998.4,0.60584
5992.61,0.60187
5986.83,0.59494
5981.04,0.59362
5975.25,0.58356
5969.47,0.57602
5963.68,0.56460
5957.89,0.55142
5952.11,0.54133
5946.32,0.53562
5940.54,0.53171
5934.75,0.53698
5928.96,0.53620
5923.18,0.53945
5917.39,0.53699
5911.6,0.52823
5905.82,0.52458
5900.03,0.52147
5894.25,0.52428
5888.46,0.52953
5882.67,0.53730
5876.89,0.54488
5871.1,0.54549
5865.31,0.54562
5859.53,0.54591
5853.74,0.54826
5847.96,0.54433
5842.17,0.54359
5836.38,0.53951
5830.6,0.53836
5824.81,0.53592
5819.02,0.53157
5813.24,0.52985
5807.45,0.52438
5801.67,0.52048
5795.88,0.51681
5790.09,0.51382
5784.31,0.51084
5778.52,0.50714
5772.73,0.50708
5766.95,0.50732
5761.16,0.51020
5755.38,0.51600
5749.59,0.51654
5743.8,0.52186
5738.02,0.52834
5732.23,0.53404
5726.44,0.53785
5720.66,0.54374
5714.87,0.54861
5709.09,0.55272
5703.3,0.55795
5697.51,0.55975
5691.73,0.56215
5685.94,0.56141
5680.15,0.55992
5674.37,0.56055
5668.58,0.55995
5662.8,0.55851
5657.01,0.56126
5651.22,0.56255
5645.44,0.56392
5639.65,0.56508
5633.87,0.56988
5628.08,0.57224
5622.29,0.57521
5616.51,0.58061
5610.72,0.58029
5604.93,0.58048
5599.15,0.58066
5593.36,0.58008
5587.58,0.58175
5581.79,0.58073
5576,0.58047
5570.22,0.58053
5564.43,0.58056
5558.64,0.58101
5552.86,0.58148
5547.07,0.58188
5541.29,0.58029
5535.5,0.58044
5529.71,0.58282
5523.93,0.58246
5518.14,0.58380
5512.35,0.58270
5506.57,0.58553
5500.78,0.58572
5495,0.58597
5489.21,0.58690
5483.42,0.58937
5477.64,0.58808
5471.85,0.58825
5466.06,0.58914
5460.28,0.58907
5454.49,0.58875
5448.71,0.58802
5442.92,0.59184
5437.13,0.59170
5431.35,0.59441
5425.56,0.59612
5419.77,0.60076
5413.99,0.60251
5408.2,0.60563
5402.42,0.60918
5396.63,0.61068
5390.84,0.61042
5385.06,0.61258
5379.27,0.61282
5373.48,0.61554
5367.7,0.61695
5361.91,0.61633
5356.13,0.61641
5350.34,0.61632
5344.55,0.61640
5338.77,0.61525
5332.98,0.61672
5327.19,0.61665
5321.41,0.61858
5315.62,0.61828
5309.84,0.61981
5304.05,0.61867
5298.26,0.61847
5292.48,0.61775
5286.69,0.61707
5280.9,0.61590
5275.12,0.61399
5269.33,0.61379
5263.55,0.61200
5257.76,0.61229
5251.97,0.61262
5246.19,0.61024
5240.4,0.60889
5234.61,0.60801
5228.83,0.60756
5223.04,0.60750
5217.26,0.60707
5211.47,0.60620
5205.68,0.60588
5199.9,0.60726
5194.11,0.60594
5188.32,0.60656
5182.54,0.60806
5176.75,0.60792
5170.97,0.60592
5165.18,0.60683
5159.39,0.60747
5153.61,0.60616
5147.82,0.60761
5142.03,0.60848
5136.25,0.60657
5130.46,0.60513
5124.68,0.60746
5118.89,0.60630
5113.1,0.60304
5107.32,0.60473
5101.53,0.60184
5095.75,0.60130
5089.96,0.59850
5084.17,0.59727
5078.39,0.59492
5072.6,0.59271
5066.81,0.59080
5061.03,0.58791
5055.24,0.58579
5049.46,0.58319
5043.67,0.58098
5037.88,0.57897
5032.1,0.57643
5026.31,0.57319
5020.52,0.57163
5014.74,0.56915
5008.95,0.56638
5003.17,0.56331
4997.38,0.56030
4991.59,0.55638
4985.81,0.55352
4980.02,0.54738
4974.23,0.54247
4968.45,0.53725
4962.66,0.53113
4956.88,0.52510
4951.09,0.52023
4945.3,0.51504
4939.52,0.50920
4933.73,0.50460
4927.94,0.50087
4922.16,0.49855
4916.37,0.49394
4910.59,0.48928
4904.8,0.48517
4899.01,0.48119
4893.23,0.47869
4887.44,0.47737
4881.65,0.47497
4875.87,0.47162
4870.08,0.46759
4864.3,0.46537
4858.51,0.46246
4852.72,0.46063
4846.94,0.45982
4841.15,0.45875
4835.36,0.45965
4829.58,0.46214
4823.79,0.46486
4818.01,0.46849
4812.22,0.47099
4806.43,0.47445
4800.65,0.48021
4794.86,0.48324
4789.07,0.48675
4783.29,0.49077
4777.5,0.49440
4771.72,0.49715
4765.93,0.50105
4760.14,0.50374
4754.36,0.50444
4748.57,0.50577
4742.78,0.50672
4737,0.50591
4731.21,0.50584
4725.43,0.50494
4719.64,0.50422
4713.85,0.50211
4708.07,0.50138
4702.28,0.50002
4696.49,0.49812
4690.71,0.49490
4684.92,0.49148
4679.14,0.48826
4673.35,0.48332
4667.56,0.47961
4661.78,0.47515
4655.99,0.47405
4650.2,0.47193
4644.42,0.47145
4638.63,0.46980
4632.85,0.46966
4627.06,0.46940
4621.27,0.46731
4615.49,0.46752
4609.7,0.46705
4603.92,0.46746
4598.13,0.46750
4592.34,0.46824
4586.56,0.46873
4580.77,0.46894
4574.98,0.46919
4569.2,0.46803
4563.41,0.46649
4557.63,0.46484
4551.84,0.46412
4546.05,0.46275
4540.27,0.46278
4534.48,0.46158
4528.69,0.46117
4522.91,0.46172
4517.12,0.46099
4511.34,0.45926
4505.55,0.45782
4499.76,0.45613
4493.98,0.45329
4488.19,0.45213
4482.4,0.44761
4476.62,0.44234
4470.83,0.43622
4465.05,0.42819
4459.26,0.41792
4453.47,0.40416
4447.69,0.38790
4441.9,0.36802
4436.11,0.34745
4430.33,0.32755
4424.54,0.30968
4418.76,0.29582
4412.97,0.28965
4407.18,0.29014
4401.4,0.29789
4395.61,0.30355
4389.82,0.30304
4384.04,0.29746
4378.25,0.29177
4372.47,0.28377
4366.68,0.27398
4360.89,0.26299
4355.11,0.25197
4349.32,0.24222
4343.53,0.23712
4337.75,0.23240
4331.96,0.23139
4326.18,0.23345
4320.39,0.23727
4314.6,0.24533
4308.82,0.25503
4303.03,0.26623
4297.24,0.27737
4291.46,0.28476
4285.67,0.28703
4279.89,0.28800
4274.1,0.28825
4268.31,0.28986
4262.53,0.29300
4256.74,0.29842
4250.95,0.30308
4245.17,0.30457
4239.38,0.30645
4233.6,0.30844
4227.81,0.31102
4222.02,0.31623
4216.24,0.32264
4210.45,0.32760
4204.66,0.33233
4198.88,0.33617
4193.09,0.33724
4187.31,0.33654
4181.52,0.33411
4175.73,0.33067
4169.95,0.32830
4164.16,0.32504
4158.37,0.32274
4152.59,0.32064
4146.8,0.31853
4141.02,0.31736
4135.23,0.31774
4129.44,0.31683
4123.66,0.31544
4117.87,0.31272
4112.09,0.30967
4106.3,0.30643
4100.51,0.30313
4094.73,0.29734
4088.94,0.29215
4083.15,0.28739
4077.37,0.28104
4071.58,0.27707
4065.8,0.27318
4060.01,0.27039
4054.22,0.26667
4048.44,0.26513
4042.65,0.26336
4036.86,0.26209
4031.08,0.26161
4025.29,0.26193
4019.51,0.26239
4013.72,0.26326
4007.93,0.26454
4002.15,0.26492
3996.36,0.26724
3990.57,0.26999
3984.79,0.27314
3979,0.27749
3973.22,0.28244
3967.43,0.28738
3961.64,0.29249
3955.86,0.29812
3950.07,0.30422
3944.28,0.31126
3938.5,0.31942
3932.71,0.32697
3926.93,0.33371
3921.14,0.33973
3915.35,0.34461
3909.57,0.34766
3903.78,0.35115
3897.99,0.35200
3892.21,0.35350
3886.42,0.35526
3880.64,0.35735
3874.85,0.35767
3869.06,0.35839
3863.28,0.35871
3857.49,0.35912
3851.7,0.36033
3845.92,0.36147
3840.13,0.36473
3834.35,0.36855
3828.56,0.37092
3822.77,0.37346
3816.99,0.37583
3811.2,0.37649
3805.41,0.37703
3799.63,0.37734
3793.84,0.37887
3788.06,0.38092
3782.27,0.38351
3776.48,0.38787
3770.7,0.39311
3764.91,0.39926
3759.12,0.40635
3753.34,0.41179
3747.55,0.41868
3741.77,0.42262
3735.98,0.42655
3730.19,0.42962
3724.41,0.43228
3718.62,0.43580
3712.83,0.43758
3707.05,0.43978
3701.26,0.44143
3695.48,0.44050
3689.69,0.43890
3683.9,0.43583
3678.12,0.43260
3672.33,0.42889
3666.54,0.42338
3660.76,0.41753
3654.97,0.41155
3649.19,0.40548
3643.4,0.39842
3637.61,0.39249
3631.83,0.38553
3626.04,0.37945
3620.25,0.37382
3614.47,0.36715
3608.68,0.36169
3602.9,0.35702
3597.11,0.35322
3591.32,0.34904
3585.54,0.34467
3579.75,0.34048
3573.97,0.33526
3568.18,0.33069
3562.39,0.32587
3556.61,0.32082
3550.82,0.31481
3545.03,0.30932
3539.25,0.30273
3533.46,0.29611
3527.68,0.28981
3521.89,0.28327
3516.1,0.27787
3510.32,0.27195
3504.53,0.26568
3498.74,0.26054
3492.96,0.25258
3487.17,0.24410
3481.39,0.23315
3475.6,0.22155
3469.81,0.20793
3464.03,0.19181
3458.24,0.18035
3452.45,0.17246
3446.67,0.16626
3440.88,0.15688
3435.1,0.14511
3429.31,0.12843
3423.52,0.10932
3417.74,0.09584
3411.95,0.08838
3406.16,0.08601
3400.38,0.08164
3394.59,0.07640
3388.81,0.07110
3383.02,0.06518
3377.23,0.06190
3371.45,0.05840
3365.66,0.05637
3359.87,0.05408
3354.09,0.05241
3348.3,0.05171
3342.52,0.04988
3336.73,0.04839
3330.94,0.04771
3325.16,0.04737
3319.37,0.04601
3313.58,0.04553
3307.8,0.04466
3302.01,0.04405
3296.23,0.04488
3290.44,0.04409
3284.65,0.04451
3278.87,0.04488
3273.08,0.04540
3267.29,0.04637
3261.51,0.04717
3255.72,0.04797
3249.94,0.04902
3244.15,0.05023
3238.36,0.05156
3232.58,0.05347
3226.79,0.05491
3221,0.05617
3215.22,0.05768
3209.43,0.05886
3203.65,0.06052
3197.86,0.06057
3192.07,0.06156
3186.29,0.06387
3180.5,0.06487
3174.71,0.06647
3168.93,0.06812
3163.14,0.06956
3157.36,0.07148
3151.57,0.07248
3145.78,0.07337
3140,0.07416
3134.21,0.07515
3128.42,0.07637
3122.64,0.07722
3116.85,0.07802
3111.07,0.07877
3105.28,0.07888
3099.49,0.07825
3093.71,0.07713
3087.92,0.07654
3082.14,0.07529
3076.35,0.07483
3070.56,0.07455
3064.78,0.07479
3058.99,0.07518
3053.2,0.07532
3047.42,0.07655
3041.63,0.07640
3035.85,0.07537
3030.06,0.07439
3024.27,0.07463
3018.49,0.07394
3012.7,0.07153
3006.91,0.06649
3001.13,0.05888
2995.34,0.05086
2989.56,0.04530
2983.77,0.04184
2977.98,0.03977
2972.2,0.03944
2966.41,0.04143
2960.62,0.04466
2954.84,0.04619
2949.05,0.04530
2943.27,0.04350
2937.48,0.04124
2931.69,0.04046
2925.91,0.04101
2920.12,0.04149
2914.33,0.04143
2908.55,0.04147
2902.76,0.04176
2896.98,0.04154
2891.19,0.04179
2885.4,0.04199
2879.62,0.04201
2873.83,0.04187
2868.04,0.04252
2862.26,0.04364
2856.47,0.04460
2850.69,0.04749
2844.9,0.05103
2839.11,0.05586
2833.33,0.06223
2827.54,0.06849
2821.75,0.07244
2815.97,0.07561
2810.18,0.07768
2804.4,0.07934
2798.61,0.07950
2792.82,0.08133
2787.04,0.08369
2781.25,0.08577
2775.46,0.08890
2769.68,0.09173
2763.89,0.09510
2758.11,0.09858
2752.32,0.10161
2746.53,0.10514
2740.75,0.10699
2734.96,0.10983
2729.17,0.11455
2723.39,0.11989
2717.6,0.12777
2711.82,0.13356
2706.03,0.13842
2700.24,0.14380
2694.46,0.14997
2688.67,0.15568
2682.88,0.15909
2677.1,0.16088
2671.31,0.16283
2665.53,0.16651
2659.74,0.17182
2653.95,0.17571
2648.17,0.17793
2642.38,0.17983
2636.59,0.18366
2630.81,0.18926
2625.02,0.19558
2619.24,0.20070
2613.45,0.20205
2607.66,0.20114
2601.88,0.19993
2596.09,0.19934
2590.3,0.19968
2584.52,0.20209
2578.73,0.20847
2572.95,0.21891
2567.16,0.23093
2561.37,0.24123
2555.59,0.24703
2549.8,0.25071
2544.02,0.25330
2538.23,0.25592
2532.44,0.25953
2526.66,0.26225
2520.87,0.26473
2515.08,0.26602
2509.3,0.26621
2503.51,0.26603
2497.73,0.26553
2491.94,0.26555
2486.15,0.26580
2480.37,0.26561
2474.58,0.26539
2468.79,0.26651
2463.01,0.26873
2457.22,0.27027
2451.44,0.27258
2445.65,0.27544
2439.86,0.27890
2434.08,0.28218
2428.29,0.28472
2422.5,0.28656
2416.72,0.28570
2410.93,0.28330
2405.15,0.28058
2399.36,0.27822
2393.57,0.27526
2387.79,0.27264
2382,0.27023
2376.21,0.26859
2370.43,0.26694
2364.64,0.26581
2358.86,0.26460
2353.07,0.26359
2347.28,0.26102
2341.5,0.25723
2335.71,0.25279
2329.92,0.24554
2324.14,0.23625
2318.35,0.22498
2312.57,0.21108
2306.78,0.19441
2300.99,0.17509
2295.21,0.15368
2289.42,0.13199
2283.63,0.11328
2277.85,0.10157
2272.06,0.09969
2266.28,0.10947
2260.49,0.12811
2254.7,0.14937
2248.92,0.16920
2243.13,0.18400
2237.34,0.19429
2231.56,0.20336
2225.77,0.20944
2219.99,0.21377
2214.2,0.21766
2208.41,0.22150
2202.63,0.22547
2196.84,0.22826
2191.05,0.23059
2185.27,0.23250
2179.48,0.23391
2173.7,0.23516
2167.91,0.23614
2162.12,0.23750
2156.34,0.23882
2150.55,0.24062
2144.76,0.24271
2138.98,0.24419
2133.19,0.24589
2127.41,0.24729
2121.62,0.24848
2115.83,0.24945
2110.05,0.25012
2104.26,0.25002
2098.47,0.24875
2092.69,0.24695
2086.9,0.24541
2081.12,0.24366
2075.33,0.24143
2069.54,0.23986
2063.76,0.23798
2057.97,0.23673
2052.19,0.23395
2046.4,0.23107
2040.61,0.22654
2034.83,0.22208
2029.04,0.21818
2023.25,0.21516
2017.47,0.21345
2011.68,0.21271
2005.9,0.21312
2000.11,0.21419
1994.32,0.21525
1988.54,0.21617
1982.75,0.21647
1976.96,0.21643
1971.18,0.21657
1965.39,0.21664
1959.61,0.21615
1953.82,0.21628
1948.03,0.21563
1942.25,0.21488
1936.46,0.21410
1930.67,0.21274
1924.89,0.21068
1919.1,0.20922
1913.32,0.20901
1907.53,0.20968
1901.74,0.21075
1895.96,0.21048
1890.17,0.21031
1884.38,0.21046
1878.6,0.21183
1872.81,0.21309
1867.03,0.21357
1861.24,0.21321
1855.45,0.21196
1849.67,0.21018
1843.88,0.20790
1838.09,0.20418
1832.31,0.20046
1826.52,0.19579
1820.74,0.19044
1814.95,0.18350
1809.16,0.17596
1803.38,0.16762
1797.59,0.15854
1791.8,0.14917
1786.02,0.14082
1780.23,0.13295
1774.45,0.12648
1768.66,0.11764
1762.87,0.10603
1757.09,0.08884
1751.3,0.06710
1745.51,0.04762
1739.73,0.03743
1733.94,0.03374
1728.16,0.03309
1722.37,0.03428
1716.58,0.03570
1710.8,0.03688
1705.01,0.03772
1699.22,0.03796
1693.44,0.03797
1687.65,0.03842
1681.87,0.03761
1676.08,0.03632
1670.29,0.03542
1664.51,0.03453
1658.72,0.03292
1652.93,0.03156
1647.15,0.03074
1641.36,0.03068
1635.58,0.03371
1629.79,0.03648
1624,0.03677
1618.22,0.03531
1612.43,0.03371
1606.64,0.03260
1600.86,0.03264
1595.07,0.03352
1589.29,0.03447
1583.5,0.03488
1577.71,0.03492
1571.93,0.03196
1566.14,0.03040
1560.35,0.03066
1554.57,0.03021
1548.78,0.03152
1543,0.03278
1537.21,0.03377
1531.42,0.03478
1525.64,0.03604
1519.85,0.03686
1514.07,0.03712
1508.28,0.03743
1502.49,0.03854
1496.71,0.03921
1490.92,0.03904
1485.13,0.03883
1479.35,0.03798
1473.56,0.03798
1467.78,0.03832
1461.99,0.03835
1456.2,0.03776
1450.42,0.03790
1444.63,0.03960
1438.84,0.04228
1433.06,0.04453
1427.27,0.04448
1421.49,0.04266
1415.7,0.04059
1409.91,0.03996
1404.13,0.04131
1398.34,0.04188
1392.55,0.04156
1386.77,0.03970
1380.98,0.03656
1375.2,0.03574
1369.41,0.03893
1363.62,0.04429
1357.84,0.04566
1352.05,0.04343
1346.26,0.04077
1340.48,0.04032
1334.69,0.04101
1328.91,0.04044
1323.12,0.03825
1317.33,0.03696
1311.55,0.03587
1305.76,0.03474
1299.97,0.03423
1294.19,0.03525
1288.4,0.03572
1282.62,0.03585
1276.83,0.03514
1271.04,0.03496
1265.26,0.03468
1259.47,0.03468
1253.68,0.03384
1247.9,0.03337
1242.11,0.03212
1236.33,0.03167
1230.54,0.03135
1224.75,0.03289
1218.97,0.03445
1213.18,0.03589
1207.39,0.03565
1201.61,0.03585
1195.82,0.03609
1190.04,0.03526
1184.25,0.03360
1178.46,0.03185
1172.68,0.03052
1166.89,0.02967
1161.1,0.02934
1155.32,0.02921
1149.53,0.02873
1143.75,0.02834
1137.96,0.02832
1132.17,0.02844
1126.39,0.02921
1120.6,0.03031
1114.81,0.03265
1109.03,0.03443
1103.24,0.03754
1097.46,0.03915
1091.67,0.04019
1085.88,0.04172
1080.1,0.04262
1074.31,0.04399
1068.52,0.04491
1062.74,0.04603
1056.95,0.04718
1051.17,0.04897
1045.38,0.05073
1039.59,0.05183
1033.81,0.05262
1028.02,0.05253
1022.24,0.05037
1016.45,0.04998
1010.66,0.05003
1004.88,0.05043
999.09,0.05387
993.304,0.06150
987.518,0.06801
981.731,0.07032
975.945,0.07055
970.159,0.06833
964.373,0.06957
958.586,0.07271
952.8,0.07322
947.014,0.06746
941.228,0.05767
935.441,0.05309
929.655,0.05222
923.869,0.05311
918.083,0.05629
912.297,0.05877
906.51,0.06049
900.724,0.06453
894.938,0.06648
889.152,0.06629
883.365,0.06261
877.579,0.06103
871.793,0.05963
866.007,0.05989
860.22,0.06180
854.434,0.06332
848.648,0.06424
842.862,0.06375
837.075,0.06129
831.289,0.05725
825.503,0.05317
819.717,0.05010
813.931,0.05144
808.144,0.05381
802.358,0.05766
796.572,0.06179
790.786,0.06334
784.999,0.06228
779.213,0.06251
773.427,0.05844
767.641,0.05636
761.854,0.05392
756.068,0.05454
750.282,0.05984
744.496,0.06552
738.709,0.06848
732.923,0.06952
727.137,0.06564
721.351,0.06180
715.565,0.05619
709.778,0.05321
703.992,0.05459
698.206,0.05293
692.42,0.05145
686.633,0.05050
680.847,0.04982
675.061,0.04870
669.275,0.04751
663.488,0.04844
657.702,0.05070
651.916,0.05250
646.13,0.05567
640.343,0.05683
634.557,0.05610
628.771,0.05814
622.985,0.06060
617.198,0.05963
611.412,0.05797
605.626,0.05591
599.84,0.05825