File: 01_Data/PUF_Mattress_Pad/FTIR/IS/PUF_Mattress_Pad_IS_S_221003_R6.dpt
7497.03,0.67945
7491.25,0.66720
7485.46,0.67598
7479.67,0.66031
7473.89,0.67521
7468.1,0.67804
7462.32,0.66685
7456.53,0.67087
7450.74,0.66864
7444.96,0.67061
7439.17,0.66885
7433.38,0.66713
7427.6,0.67048
7421.81,0.66589
7416.03,0.66614
7410.24,0.67010
7404.45,0.66830
7398.67,0.66274
7392.88,0.66529
7387.09,0.66041
7381.31,0.67004
7375.52,0.66382
7369.74,0.66012
7363.95,0.65587
7358.16,0.66357
7352.38,0.66251
7346.59,0.65573
7340.8,0.65567
7335.02,0.66384
7329.23,0.66254
7323.45,0.66878
7317.66,0.65733
7311.87,0.65892
7306.09,0.64979
7300.3,0.67185
7294.51,0.66334
7288.73,0.64914
7282.94,0.65430
7277.16,0.65358
7271.37,0.65247
7265.58,0.64757
7259.8,0.65103
7254.01,0.65311
7248.22,0.65150
7242.44,0.64927
7236.65,0.64728
7230.87,0.63918
7225.08,0.64661
7219.29,0.64165
7213.51,0.64433
7207.72,0.64272
7201.93,0.65090
7196.15,0.64590
7190.36,0.64243
7184.58,0.64333
7178.79,0.64418
7173,0.64325
7167.22,0.65009
7161.43,0.64860
7155.65,0.65149
7149.86,0.65031
7144.07,0.65314
7138.29,0.64273
7132.5,0.64647
7126.71,0.65438
7120.93,0.64843
7115.14,0.65205
7109.36,0.65375
7103.57,0.65121
7097.78,0.65036
7092,0.65477
7086.21,0.65457
7080.42,0.65200
7074.64,0.65290
7068.85,0.65439
7063.07,0.65866
7057.28,0.65296
7051.49,0.65427
7045.71,0.65593
7039.92,0.65247
7034.13,0.65650
7028.35,0.65605
7022.56,0.65589
7016.78,0.64731
7010.99,0.64881
7005.2,0.65083
6999.42,0.64866
6993.63,0.65395
6987.84,0.65000
6982.06,0.65048
6976.27,0.64718
6970.49,0.65528
6964.7,0.65353
6958.91,0.65560
6953.13,0.65981
6947.34,0.65083
6941.55,0.65756
6935.77,0.66158
6929.98,0.65630
6924.2,0.64698
6918.41,0.65702
6912.62,0.65915
6906.84,0.65994
6901.05,0.65159
6895.26,0.65461
6889.48,0.65627
6883.69,0.65446
6877.91,0.65637
6872.12,0.65593
6866.33,0.65383
6860.55,0.65644
6854.76,0.65704
6848.97,0.65660
6843.19,0.65831
6837.4,0.65496
6831.62,0.65924
6825.83,0.66062
6820.04,0.65163
6814.26,0.65369
6808.47,0.65541
6802.68,0.65677
6796.9,0.65631
6791.11,0.65270
6785.33,0.65324
6779.54,0.65138
6773.75,0.64843
6767.97,0.64867
6762.18,0.65163
6756.39,0.64963
6750.61,0.64899
6744.82,0.64848
6739.04,0.64548
6733.25,0.64318
6727.46,0.64437
6721.68,0.64147
6715.89,0.63333
6710.1,0.63317
6704.32,0.63566
6698.53,0.63574
6692.75,0.62827
6686.96,0.62547
6681.17,0.62551
6675.39,0.62193
6669.6,0.62935
6663.82,0.62219
6658.03,0.62996
6652.24,0.62949
6646.46,0.62402
6640.67,0.62599
6634.88,0.62758
6629.1,0.62343
6623.31,0.62328
6617.53,0.62867
6611.74,0.62708
6605.95,0.62111
6600.17,0.62561
6594.38,0.62770
6588.59,0.62652
6582.81,0.62875
6577.02,0.62758
6571.24,0.62857
6565.45,0.62996
6559.66,0.63369
6553.88,0.63300
6548.09,0.63468
6542.3,0.63646
6536.52,0.64239
6530.73,0.64069
6524.95,0.64219
6519.16,0.64372
6513.37,0.65000
6507.59,0.64938
6501.8,0.64818
6496.01,0.64432
6490.23,0.64844
6484.44,0.64475
6478.66,0.65061
6472.87,0.65050
6467.08,0.64919
6461.3,0.64878
6455.51,0.65070
6449.72,0.65013
6443.94,0.65050
6438.15,0.64974
6432.37,0.65355
6426.58,0.65330
6420.79,0.65029
6415.01,0.64962
6409.22,0.65098
6403.43,0.65406
6397.65,0.65317
6391.86,0.64978
6386.08,0.65284
6380.29,0.65295
6374.5,0.65627
6368.72,0.65378
6362.93,0.65592
6357.14,0.64979
6351.36,0.65032
6345.57,0.65731
6339.79,0.65382
6334,0.65381
6328.21,0.65253
6322.43,0.65244
6316.64,0.65368
6310.85,0.65155
6305.07,0.65371
6299.28,0.65043
6293.5,0.65551
6287.71,0.65362
6281.92,0.65140
6276.14,0.65444
6270.35,0.65239
6264.56,0.65138
6258.78,0.65181
6252.99,0.65381
6247.21,0.65567
6241.42,0.64867
6235.63,0.65083
6229.85,0.65435
6224.06,0.65009
6218.27,0.65108
6212.49,0.65726
6206.7,0.65106
6200.92,0.64759
6195.13,0.64961
6189.34,0.65160
6183.56,0.65145
6177.77,0.64742
6171.98,0.64918
6166.2,0.64957
6160.41,0.64645
6154.63,0.64750
6148.84,0.64702
6143.05,0.64817
6137.27,0.64808
6131.48,0.64510
6125.7,0.64411
6119.91,0.64401
6114.12,0.64122
6108.34,0.63932
6102.55,0.63851
6096.76,0.63553
6090.98,0.63560
6085.19,0.63366
6079.41,0.63322
6073.62,0.63246
6067.83,0.63311
6062.05,0.63446
6056.26,0.63263
6050.47,0.63081
6044.69,0.62830
6038.9,0.62593
6033.12,0.62438
6027.33,0.62206
6021.54,0.61916
6015.76,0.61802
6009.97,0.61442
6004.18,0.60833
5998.4,0.60793
5992.61,0.60361
5986.83,0.59697
5981.04,0.59105
5975.25,0.58364
5969.47,0.57546
5963.68,0.56692
5957.89,0.55294
5952.11,0.54241
5946.32,0.53561
5940.54,0.53341
5934.75,0.53590
5928.96,0.53909
5923.18,0.54125
5917.39,0.53780
5911.6,0.53135
5905.82,0.52572
5900.03,0.51970
5894.25,0.52347
5888.46,0.53207
5882.67,0.53885
5876.89,0.54455
5871.1,0.54805
5865.31,0.54858
5859.53,0.54706
5853.74,0.54889
5847.96,0.54614
5842.17,0.54212
5836.38,0.54214
5830.6,0.53865
5824.81,0.53534
5819.02,0.53372
5813.24,0.52936
5807.45,0.52499
5801.67,0.52012
5795.88,0.51729
5790.09,0.51250
5784.31,0.51126
5778.52,0.50969
5772.73,0.50791
5766.95,0.50925
5761.16,0.51052
5755.38,0.51807
5749.59,0.52056
5743.8,0.52408
5738.02,0.52873
5732.23,0.53343
5726.44,0.53813
5720.66,0.54404
5714.87,0.54797
5709.09,0.55351
5703.3,0.55632
5697.51,0.56016
5691.73,0.56228
5685.94,0.56197
5680.15,0.56300
5674.37,0.56090
5668.58,0.55862
5662.8,0.55958
5657.01,0.56348
5651.22,0.56112
5645.44,0.56586
5639.65,0.57013
5633.87,0.57082
5628.08,0.57359
5622.29,0.57623
5616.51,0.57781
5610.72,0.58150
5604.93,0.58320
5599.15,0.58177
5593.36,0.58065
5587.58,0.58360
5581.79,0.58222
5576,0.58067
5570.22,0.57943
5564.43,0.57813
5558.64,0.57974
5552.86,0.58207
5547.07,0.58224
5541.29,0.58108
5535.5,0.58208
5529.71,0.58147
5523.93,0.58381
5518.14,0.58273
5512.35,0.58323
5506.57,0.58467
5500.78,0.58415
5495,0.58682
5489.21,0.58933
5483.42,0.58933
5477.64,0.59006
5471.85,0.59094
5466.06,0.59064
5460.28,0.58849
5454.49,0.58913
5448.71,0.58973
5442.92,0.59005
5437.13,0.59220
5431.35,0.59300
5425.56,0.59815
5419.77,0.60021
5413.99,0.60308
5408.2,0.60493
5402.42,0.60867
5396.63,0.60991
5390.84,0.61311
5385.06,0.61452
5379.27,0.61585
5373.48,0.61514
5367.7,0.61655
5361.91,0.61481
5356.13,0.61724
5350.34,0.61794
5344.55,0.61723
5338.77,0.61736
5332.98,0.61741
5327.19,0.61859
5321.41,0.61801
5315.62,0.62001
5309.84,0.61966
5304.05,0.62027
5298.26,0.62031
5292.48,0.61915
5286.69,0.61815
5280.9,0.61768
5275.12,0.61492
5269.33,0.61432
5263.55,0.61299
5257.76,0.61216
5251.97,0.61247
5246.19,0.61138
5240.4,0.60904
5234.61,0.60896
5228.83,0.60823
5223.04,0.60759
5217.26,0.60711
5211.47,0.60575
5205.68,0.60653
5199.9,0.60622
5194.11,0.60552
5188.32,0.60645
5182.54,0.60689
5176.75,0.60832
5170.97,0.60731
5165.18,0.60894
5159.39,0.60919
5153.61,0.60851
5147.82,0.60877
5142.03,0.60722
5136.25,0.60849
5130.46,0.60629
5124.68,0.60671
5118.89,0.60574
5113.1,0.60532
5107.32,0.60434
5101.53,0.60147
5095.75,0.60065
5089.96,0.59938
5084.17,0.59742
5078.39,0.59486
5072.6,0.59304
5066.81,0.59031
5061.03,0.58936
5055.24,0.58740
5049.46,0.58464
5043.67,0.58114
5037.88,0.57992
5032.1,0.57710
5026.31,0.57482
5020.52,0.57165
5014.74,0.56987
5008.95,0.56555
5003.17,0.56328
4997.38,0.56262
4991.59,0.55731
4985.81,0.55381
4980.02,0.54839
4974.23,0.54337
4968.45,0.53785
4962.66,0.53134
4956.88,0.52540
4951.09,0.52013
4945.3,0.51394
4939.52,0.50940
4933.73,0.50527
4927.94,0.50137
4922.16,0.49831
4916.37,0.49421
4910.59,0.48988
4904.8,0.48508
4899.01,0.48171
4893.23,0.47989
4887.44,0.47704
4881.65,0.47667
4875.87,0.47304
4870.08,0.46901
4864.3,0.46543
4858.51,0.46224
4852.72,0.46084
4846.94,0.46085
4841.15,0.46100
4835.36,0.46189
4829.58,0.46243
4823.79,0.46488
4818.01,0.46849
4812.22,0.47148
4806.43,0.47632
4800.65,0.48027
4794.86,0.48399
4789.07,0.48724
4783.29,0.49194
4777.5,0.49565
4771.72,0.49871
4765.93,0.50018
4760.14,0.50205
4754.36,0.50526
4748.57,0.50659
4742.78,0.50781
4737,0.50653
4731.21,0.50658
4725.43,0.50513
4719.64,0.50455
4713.85,0.50348
4708.07,0.50184
4702.28,0.49983
4696.49,0.49793
4690.71,0.49554
4684.92,0.49224
4679.14,0.48761
4673.35,0.48355
4667.56,0.48067
4661.78,0.47577
4655.99,0.47418
4650.2,0.47366
4644.42,0.47204
4638.63,0.47063
4632.85,0.46948
4627.06,0.46974
4621.27,0.46876
4615.49,0.46757
4609.7,0.46650
4603.92,0.46669
4598.13,0.46716
4592.34,0.46792
4586.56,0.46915
4580.77,0.46904
4574.98,0.46904
4569.2,0.46798
4563.41,0.46652
4557.63,0.46532
4551.84,0.46415
4546.05,0.46395
4540.27,0.46376
4534.48,0.46313
4528.69,0.46127
4522.91,0.46143
4517.12,0.46056
4511.34,0.46021
4505.55,0.45926
4499.76,0.45645
4493.98,0.45433
4488.19,0.45112
4482.4,0.44712
4476.62,0.44367
4470.83,0.43655
4465.05,0.42828
4459.26,0.41799
4453.47,0.40471
4447.69,0.38785
4441.9,0.36814
4436.11,0.34833
4430.33,0.32814
4424.54,0.31051
4418.76,0.29663
4412.97,0.28870
4407.18,0.29014
4401.4,0.29730
4395.61,0.30333
4389.82,0.30319
4384.04,0.29849
4378.25,0.29211
4372.47,0.28362
4366.68,0.27423
4360.89,0.26267
4355.11,0.25242
4349.32,0.24338
4343.53,0.23587
4337.75,0.23318
4331.96,0.23144
4326.18,0.23239
4320.39,0.23800
4314.6,0.24472
4308.82,0.25526
4303.03,0.26734
4297.24,0.27723
4291.46,0.28428
4285.67,0.28838
4279.89,0.28866
4274.1,0.28901
4268.31,0.28980
4262.53,0.29329
4256.74,0.29858
4250.95,0.30249
4245.17,0.30468
4239.38,0.30663
4233.6,0.30893
4227.81,0.31148
4222.02,0.31669
4216.24,0.32240
4210.45,0.32773
4204.66,0.33258
4198.88,0.33622
4193.09,0.33731
4187.31,0.33642
4181.52,0.33504
4175.73,0.33131
4169.95,0.32876
4164.16,0.32611
4158.37,0.32293
4152.59,0.32083
4146.8,0.31907
4141.02,0.31849
4135.23,0.31811
4129.44,0.31719
4123.66,0.31546
4117.87,0.31268
4112.09,0.30954
4106.3,0.30678
4100.51,0.30251
4094.73,0.29768
4088.94,0.29260
4083.15,0.28680
4077.37,0.28202
4071.58,0.27687
4065.8,0.27361
4060.01,0.26990
4054.22,0.26733
4048.44,0.26538
4042.65,0.26328
4036.86,0.26203
4031.08,0.26162
4025.29,0.26195
4019.51,0.26249
4013.72,0.26347
4007.93,0.26456
4002.15,0.26606
3996.36,0.26755
3990.57,0.27011
3984.79,0.27414
3979,0.27748
3973.22,0.28238
3967.43,0.28749
3961.64,0.29240
3955.86,0.29831
3950.07,0.30473
3944.28,0.31116
3938.5,0.31919
3932.71,0.32718
3926.93,0.33395
3921.14,0.34000
3915.35,0.34418
3909.57,0.34784
3903.78,0.35127
3897.99,0.35274
3892.21,0.35448
3886.42,0.35552
3880.64,0.35740
3874.85,0.35885
3869.06,0.35926
3863.28,0.35911
3857.49,0.35925
3851.7,0.36117
3845.92,0.36222
3840.13,0.36520
3834.35,0.36829
3828.56,0.37153
3822.77,0.37412
3816.99,0.37601
3811.2,0.37670
3805.41,0.37760
3799.63,0.37834
3793.84,0.37899
3788.06,0.38084
3782.27,0.38420
3776.48,0.38866
3770.7,0.39363
3764.91,0.39994
3759.12,0.40611
3753.34,0.41275
3747.55,0.41773
3741.77,0.42290
3735.98,0.42718
3730.19,0.42991
3724.41,0.43384
3718.62,0.43559
3712.83,0.43795
3707.05,0.44024
3701.26,0.44070
3695.48,0.44065
3689.69,0.43841
3683.9,0.43551
3678.12,0.43203
3672.33,0.42777
3666.54,0.42179
3660.76,0.41615
3654.97,0.41006
3649.19,0.40387
3643.4,0.39597
3637.61,0.38974
3631.83,0.38324
3626.04,0.37671
3620.25,0.37040
3614.47,0.36492
3608.68,0.35816
3602.9,0.35369
3597.11,0.34927
3591.32,0.34587
3585.54,0.34151
3579.75,0.33692
3573.97,0.33196
3568.18,0.32763
3562.39,0.32202
3556.61,0.31650
3550.82,0.31151
3545.03,0.30621
3539.25,0.29959
3533.46,0.29340
3527.68,0.28647
3521.89,0.28028
3516.1,0.27493
3510.32,0.26903
3504.53,0.26354
3498.74,0.25719
3492.96,0.24979
3487.17,0.24214
3481.39,0.23212
3475.6,0.22018
3469.81,0.20661
3464.03,0.19143
3458.24,0.17933
3452.45,0.17232
3446.67,0.16613
3440.88,0.15707
3435.1,0.14528
3429.31,0.12854
3423.52,0.11006
3417.74,0.09513
3411.95,0.08879
3406.16,0.08605
3400.38,0.08256
3394.59,0.07718
3388.81,0.07083
3383.02,0.06593
3377.23,0.06159
3371.45,0.05863
3365.66,0.05655
3359.87,0.05527
3354.09,0.05338
3348.3,0.05196
3342.52,0.05058
3336.73,0.04884
3330.94,0.04756
3325.16,0.04656
3319.37,0.04583
3313.58,0.04516
3307.8,0.04513
3302.01,0.04452
3296.23,0.04468
3290.44,0.04460
3284.65,0.04444
3278.87,0.04487
3273.08,0.04529
3267.29,0.04576
3261.51,0.04668
3255.72,0.04770
3249.94,0.04930
3244.15,0.05050
3238.36,0.05232
3232.58,0.05376
3226.79,0.05475
3221,0.05667
3215.22,0.05776
3209.43,0.05942
3203.65,0.05963
3197.86,0.06096
3192.07,0.06234
3186.29,0.06352
3180.5,0.06561
3174.71,0.06743
3168.93,0.06804
3163.14,0.06953
3157.36,0.07153
3151.57,0.07235
3145.78,0.07370
3140,0.07462
3134.21,0.07504
3128.42,0.07633
3122.64,0.07746
3116.85,0.07830
3111.07,0.07860
3105.28,0.07895
3099.49,0.07842
3093.71,0.07730
3087.92,0.07576
3082.14,0.07564
3076.35,0.07466
3070.56,0.07463
3064.78,0.07483
3058.99,0.07565
3053.2,0.07557
3047.42,0.07621
3041.63,0.07679
3035.85,0.07545
3030.06,0.07441
3024.27,0.07452
3018.49,0.07441
3012.7,0.07206
3006.91,0.06723
3001.13,0.05945
2995.34,0.05089
2989.56,0.04476
2983.77,0.04129
2977.98,0.04058
2972.2,0.03964
2966.41,0.04121
2960.62,0.04481
2954.84,0.04634
2949.05,0.04572
2943.27,0.04322
2937.48,0.04133
2931.69,0.04040
2925.91,0.04111
2920.12,0.04169
2914.33,0.04155
2908.55,0.04223
2902.76,0.04201
2896.98,0.04178
2891.19,0.04261
2885.4,0.04209
2879.62,0.04216
2873.83,0.04195
2868.04,0.04230
2862.26,0.04382
2856.47,0.04529
2850.69,0.04769
2844.9,0.05126
2839.11,0.05591
2833.33,0.06248
2827.54,0.06828
2821.75,0.07233
2815.97,0.07565
2810.18,0.07797
2804.4,0.07927
2798.61,0.07985
2792.82,0.08109
2787.04,0.08384
2781.25,0.08606
2775.46,0.08929
2769.68,0.09126
2763.89,0.09509
2758.11,0.09863
2752.32,0.10178
2746.53,0.10451
2740.75,0.10743
2734.96,0.10987
2729.17,0.11435
2723.39,0.12043
2717.6,0.12718
2711.82,0.13358
2706.03,0.13858
2700.24,0.14436
2694.46,0.15015
2688.67,0.15576
2682.88,0.15944
2677.1,0.16106
2671.31,0.16336
2665.53,0.16666
2659.74,0.17139
2653.95,0.17602
2648.17,0.17820
2642.38,0.18011
2636.59,0.18369
2630.81,0.18939
2625.02,0.19581
2619.24,0.20062
2613.45,0.20267
2607.66,0.20136
2601.88,0.20030
2596.09,0.19955
2590.3,0.19972
2584.52,0.20206
2578.73,0.20863
2572.95,0.21909
2567.16,0.23137
2561.37,0.24133
2555.59,0.24684
2549.8,0.25056
2544.02,0.25341
2538.23,0.25611
2532.44,0.25976
2526.66,0.26244
2520.87,0.26489
2515.08,0.26614
2509.3,0.26636
2503.51,0.26626
2497.73,0.26583
2491.94,0.26587
2486.15,0.26585
2480.37,0.26566
2474.58,0.26553
2468.79,0.26687
2463.01,0.26870
2457.22,0.27099
2451.44,0.27298
2445.65,0.27599
2439.86,0.27918
2434.08,0.28239
2428.29,0.28541
2422.5,0.28679
2416.72,0.28620
2410.93,0.28346
2405.15,0.28074
2399.36,0.27821
2393.57,0.27564
2387.79,0.27262
2382,0.27026
2376.21,0.26828
2370.43,0.26673
2364.64,0.26581
2358.86,0.26543
2353.07,0.26353
2347.28,0.26118
2341.5,0.25797
2335.71,0.25283
2329.92,0.24556
2324.14,0.23653
2318.35,0.22517
2312.57,0.21136
2306.78,0.19425
2300.99,0.17525
2295.21,0.15344
2289.42,0.13162
2283.63,0.11343
2277.85,0.10148
2272.06,0.10011
2266.28,0.10955
2260.49,0.12814
2254.7,0.15009
2248.92,0.16941
2243.13,0.18379
2237.34,0.19508
2231.56,0.20413
2225.77,0.21004
2219.99,0.21404
2214.2,0.21762
2208.41,0.22181
2202.63,0.22524
2196.84,0.22859
2191.05,0.23109
2185.27,0.23293
2179.48,0.23435
2173.7,0.23559
2167.91,0.23640
2162.12,0.23752
2156.34,0.23862
2150.55,0.24057
2144.76,0.24266
2138.98,0.24451
2133.19,0.24602
2127.41,0.24723
2121.62,0.24893
2115.83,0.24985
2110.05,0.25023
2104.26,0.24979
2098.47,0.24882
2092.69,0.24717
2086.9,0.24530
2081.12,0.24384
2075.33,0.24145
2069.54,0.23985
2063.76,0.23850
2057.97,0.23690
2052.19,0.23464
2046.4,0.23072
2040.61,0.22707
2034.83,0.22214
2029.04,0.21808
2023.25,0.21495
2017.47,0.21331
2011.68,0.21287
2005.9,0.21352
2000.11,0.21451
1994.32,0.21577
1988.54,0.21622
1982.75,0.21692
1976.96,0.21695
1971.18,0.21678
1965.39,0.21686
1959.61,0.21656
1953.82,0.21597
1948.03,0.21549
1942.25,0.21502
1936.46,0.21440
1930.67,0.21294
1924.89,0.21081
1919.1,0.20934
1913.32,0.20936
1907.53,0.21001
1901.74,0.21104
1895.96,0.21107
1890.17,0.21061
1884.38,0.21074
1878.6,0.21197
1872.81,0.21367
1867.03,0.21383
1861.24,0.21340
1855.45,0.21200
1849.67,0.21044
1843.88,0.20812
1838.09,0.20488
1832.31,0.20100
1826.52,0.19563
1820.74,0.19022
1814.95,0.18405
1809.16,0.17600
1803.38,0.16796
1797.59,0.15871
1791.8,0.14922
1786.02,0.14089
1780.23,0.13347
1774.45,0.12651
1768.66,0.11771
1762.87,0.10675
1757.09,0.08876
1751.3,0.06721
1745.51,0.04757
1739.73,0.03733
1733.94,0.03330
1728.16,0.03320
1722.37,0.03453
1716.58,0.03587
1710.8,0.03692
1705.01,0.03761
1699.22,0.03826
1693.44,0.03867
1687.65,0.03862
1681.87,0.03763
1676.08,0.03702
1670.29,0.03544
1664.51,0.03412
1658.72,0.03293
1652.93,0.03162
1647.15,0.03067
1641.36,0.03065
1635.58,0.03372
1629.79,0.03630
1624,0.03635
1618.22,0.03538
1612.43,0.03402
1606.64,0.03274
1600.86,0.03273
1595.07,0.03324
1589.29,0.03413
1583.5,0.03519
1577.71,0.03494
1571.93,0.03223
1566.14,0.03039
1560.35,0.03049
1554.57,0.03076
1548.78,0.03197
1543,0.03301
1537.21,0.03383
1531.42,0.03488
1525.64,0.03625
1519.85,0.03713
1514.07,0.03712
1508.28,0.03771
1502.49,0.03842
1496.71,0.03951
1490.92,0.03937
1485.13,0.03889
1479.35,0.03781
1473.56,0.03830
1467.78,0.03844
1461.99,0.03782
1456.2,0.03728
1450.42,0.03778
1444.63,0.03965
1438.84,0.04223
1433.06,0.04505
1427.27,0.04447
1421.49,0.04260
1415.7,0.04064
1409.91,0.04057
1404.13,0.04130
1398.34,0.04203
1392.55,0.04101
1386.77,0.03925
1380.98,0.03613
1375.2,0.03542
1369.41,0.03913
1363.62,0.04393
1357.84,0.04575
1352.05,0.04341
1346.26,0.04072
1340.48,0.04033
1334.69,0.04080
1328.91,0.04001
1323.12,0.03860
1317.33,0.03715
1311.55,0.03627
1305.76,0.03510
1299.97,0.03451
1294.19,0.03482
1288.4,0.03576
1282.62,0.03555
1276.83,0.03520
1271.04,0.03540
1265.26,0.03485
1259.47,0.03430
1253.68,0.03443
1247.9,0.03323
1242.11,0.03232
1236.33,0.03188
1230.54,0.03142
1224.75,0.03306
1218.97,0.03412
1213.18,0.03545
1207.39,0.03662
1201.61,0.03629
1195.82,0.03573
1190.04,0.03493
1184.25,0.03364
1178.46,0.03240
1172.68,0.03107
1166.89,0.02942
1161.1,0.02859
1155.32,0.02924
1149.53,0.02869
1143.75,0.02816
1137.96,0.02837
1132.17,0.02838
1126.39,0.02891
1120.6,0.02995
1114.81,0.03281
1109.03,0.03542
1103.24,0.03781
1097.46,0.03886
1091.67,0.04086
1085.88,0.04240
1080.1,0.04338
1074.31,0.04380
1068.52,0.04517
1062.74,0.04608
1056.95,0.04781
1051.17,0.04883
1045.38,0.05073
1039.59,0.05212
1033.81,0.05303
1028.02,0.05258
1022.24,0.05140
1016.45,0.04993
1010.66,0.05003
1004.88,0.05120
999.09,0.05422
993.304,0.06141
987.518,0.06787
981.731,0.07033
975.945,0.07008
970.159,0.06867
964.373,0.07037
958.586,0.07320
952.8,0.07388
947.014,0.06766
941.228,0.05785
935.441,0.05311
929.655,0.05209
923.869,0.05341
918.083,0.05679
912.297,0.05907
906.51,0.06071
900.724,0.06477
894.938,0.06687
889.152,0.06556
883.365,0.06226
877.579,0.06067
871.793,0.06051
866.007,0.05979
860.22,0.06185
854.434,0.06348
848.648,0.06411
842.862,0.06436
837.075,0.06090
831.289,0.05717
825.503,0.05285
819.717,0.05042
813.931,0.05111
808.144,0.05388
802.358,0.05751
796.572,0.06162
790.786,0.06335
784.999,0.06388
779.213,0.06253
773.427,0.05919
767.641,0.05598
761.854,0.05366
756.068,0.05507
750.282,0.05993
744.496,0.06532
738.709,0.06846
732.923,0.06896
727.137,0.06614
721.351,0.06100
715.565,0.05616
709.778,0.05321
703.992,0.05461
698.206,0.05409
692.42,0.05200
686.633,0.05063
680.847,0.04964
675.061,0.04886
669.275,0.04974
663.488,0.05054
657.702,0.05144
651.916,0.05306
646.13,0.05455
640.343,0.05554
634.557,0.05916
628.771,0.05993
622.985,0.05851
617.198,0.05854
611.412,0.06057
605.626,0.05927
599.84,0.05912