File: 01_Data/PUF_Mattress_Pad/FTIR/IS/PUF_Mattress_Pad_IS_T_221003_R5.dpt
7497.03,0.03643
7491.25,0.02033
7485.46,0.02064
7479.67,0.02957
7473.89,0.02988
7468.1,0.02424
7462.32,0.02593
7456.53,0.02277
7450.74,0.02386
7444.96,0.03375
7439.17,0.02206
7433.38,0.01499
7427.6,0.02254
7421.81,0.02167
7416.03,0.02262
7410.24,0.01814
7404.45,0.02278
7398.67,0.03091
7392.88,0.02117
7387.09,0.02247
7381.31,0.02090
7375.52,0.02273
7369.74,0.03240
7363.95,0.02798
7358.16,0.02504
7352.38,0.03076
7346.59,0.03075
7340.8,0.01821
7335.02,0.01850
7329.23,0.02133
7323.45,0.02909
7317.66,0.02732
7311.87,0.02333
7306.09,0.02795
7300.3,0.02882
7294.51,0.02735
7288.73,0.02138
7282.94,0.02705
7277.16,0.02680
7271.37,0.02474
7265.58,0.02577
7259.8,0.02143
7254.01,0.02100
7248.22,0.02796
7242.44,0.02475
7236.65,0.03566
7230.87,0.02804
7225.08,0.02944
7219.29,0.03036
7213.51,0.02804
7207.72,0.03068
7201.93,0.02274
7196.15,0.02207
7190.36,0.02854
7184.58,0.02065
7178.79,0.01644
7173,0.03137
7167.22,0.03185
7161.43,0.02639
7155.65,0.03308
7149.86,0.02290
7144.07,0.02285
7138.29,0.01860
7132.5,0.02578
7126.71,0.01957
7120.93,0.02696
7115.14,0.02697
7109.36,0.02620
7103.57,0.02700
7097.78,0.02875
7092,0.03727
7086.21,0.02447
7080.42,0.01943
7074.64,0.01943
7068.85,0.02315
7063.07,0.02286
7057.28,0.02436
7051.49,0.02524
7045.71,0.02698
7039.92,0.02459
7034.13,0.02263
7028.35,0.02874
7022.56,0.02480
7016.78,0.02235
7010.99,0.02956
7005.2,0.02669
6999.42,0.02780
6993.63,0.03020
6987.84,0.02656
6982.06,0.02827
6976.27,0.02123
6970.49,0.02825
6964.7,0.02919
6958.91,0.02480
6953.13,0.02729
6947.34,0.02429
6941.55,0.02458
6935.77,0.02538
6929.98,0.02493
6924.2,0.02327
6918.41,0.02364
6912.62,0.02568
6906.84,0.02823
6901.05,0.02631
6895.26,0.02535
6889.48,0.02565
6883.69,0.02363
6877.91,0.02152
6872.12,0.02702
6866.33,0.02704
6860.55,0.02732
6854.76,0.02152
6848.97,0.02301
6843.19,0.02348
6837.4,0.01976
6831.62,0.02158
6825.83,0.02568
6820.04,0.02391
6814.26,0.02365
6808.47,0.02156
6802.68,0.01902
6796.9,0.02287
6791.11,0.02222
6785.33,0.02336
6779.54,0.02834
6773.75,0.02291
6767.97,0.02819
6762.18,0.02528
6756.39,0.01774
6750.61,0.02078
6744.82,0.02305
6739.04,0.02052
6733.25,0.02348
6727.46,0.02664
6721.68,0.02044
6715.89,0.02371
6710.1,0.02300
6704.32,0.02372
6698.53,0.02625
6692.75,0.01930
6686.96,0.02185
6681.17,0.02725
6675.39,0.02314
6669.6,0.02404
6663.82,0.02324
6658.03,0.02418
6652.24,0.02361
6646.46,0.02601
6640.67,0.02444
6634.88,0.02432
6629.1,0.02248
6623.31,0.02138
6617.53,0.02157
6611.74,0.02438
6605.95,0.02418
6600.17,0.02324
6594.38,0.02007
6588.59,0.02600
6582.81,0.02622
6577.02,0.02303
6571.24,0.02180
6565.45,0.02517
6559.66,0.02263
6553.88,0.02202
6548.09,0.02463
6542.3,0.02114
6536.52,0.02151
6530.73,0.02468
6524.95,0.02330
6519.16,0.02426
6513.37,0.01959
6507.59,0.02030
6501.8,0.02331
6496.01,0.02643
6490.23,0.02604
6484.44,0.02336
6478.66,0.02172
6472.87,0.02274
6467.08,0.02646
6461.3,0.02323
6455.51,0.02652
6449.72,0.02551
6443.94,0.02541
6438.15,0.02152
6432.37,0.02258
6426.58,0.02217
6420.79,0.02403
6415.01,0.02192
6409.22,0.01827
6403.43,0.02406
6397.65,0.02562
6391.86,0.02184
6386.08,0.02425
6380.29,0.01966
6374.5,0.02390
6368.72,0.02413
6362.93,0.02202
6357.14,0.01920
6351.36,0.02040
6345.57,0.02047
6339.79,0.02378
6334,0.02279
6328.21,0.02450
6322.43,0.02253
6316.64,0.02110
6310.85,0.02240
6305.07,0.01923
6299.28,0.02178
6293.5,0.02436
6287.71,0.02448
6281.92,0.02417
6276.14,0.02285
6270.35,0.02488
6264.56,0.02495
6258.78,0.02107
6252.99,0.02347
6247.21,0.02327
6241.42,0.02306
6235.63,0.01917
6229.85,0.02380
6224.06,0.02176
6218.27,0.02270
6212.49,0.02570
6206.7,0.02363
6200.92,0.02412
6195.13,0.02031
6189.34,0.02242
6183.56,0.02364
6177.77,0.02511
6171.98,0.02378
6166.2,0.02210
6160.41,0.02475
6154.63,0.02126
6148.84,0.01791
6143.05,0.02229
6137.27,0.01904
6131.48,0.02208
6125.7,0.01969
6119.91,0.02259
6114.12,0.02125
6108.34,0.02046
6102.55,0.02236
6096.76,0.02027
6090.98,0.02289
6085.19,0.02245
6079.41,0.01874
6073.62,0.02153
6067.83,0.02347
6062.05,0.02400
6056.26,0.02435
6050.47,0.02206
6044.69,0.02264
6038.9,0.02330
6033.12,0.02027
6027.33,0.02113
6021.54,0.02095
6015.76,0.02207
6009.97,0.02250
6004.18,0.02350
5998.4,0.02315
5992.61,0.02342
5986.83,0.02356
5981.04,0.01930
5975.25,0.02173
5969.47,0.02255
5963.68,0.02182
5957.89,0.02279
5952.11,0.02203
5946.32,0.01960
5940.54,0.02408
5934.75,0.02285
5928.96,0.02424
5923.18,0.02341
5917.39,0.02020
5911.6,0.02136
5905.82,0.02283
5900.03,0.01992
5894.25,0.02092
5888.46,0.02056
5882.67,0.02093
5876.89,0.02303
5871.1,0.01997
5865.31,0.02164
5859.53,0.02232
5853.74,0.02311
5847.96,0.02525
5842.17,0.02179
5836.38,0.02436
5830.6,0.02170
5824.81,0.02237
5819.02,0.02389
5813.24,0.02272
5807.45,0.02040
5801.67,0.02239
5795.88,0.02365
5790.09,0.02208
5784.31,0.02278
5778.52,0.01998
5772.73,0.02428
5766.95,0.02134
5761.16,0.02361
5755.38,0.02436
5749.59,0.02238
5743.8,0.02199
5738.02,0.02330
5732.23,0.02112
5726.44,0.02096
5720.66,0.02258
5714.87,0.01985
5709.09,0.02177
5703.3,0.02021
5697.51,0.02198
5691.73,0.02142
5685.94,0.02321
5680.15,0.02296
5674.37,0.02233
5668.58,0.02340
5662.8,0.02030
5657.01,0.02250
5651.22,0.02223
5645.44,0.02401
5639.65,0.02321
5633.87,0.02159
5628.08,0.02158
5622.29,0.02237
5616.51,0.02198
5610.72,0.02051
5604.93,0.01910
5599.15,0.02191
5593.36,0.02210
5587.58,0.02183
5581.79,0.02219
5576,0.02259
5570.22,0.02191
5564.43,0.02283
5558.64,0.02114
5552.86,0.02175
5547.07,0.02310
5541.29,0.02186
5535.5,0.02189
5529.71,0.02182
5523.93,0.02260
5518.14,0.02186
5512.35,0.02289
5506.57,0.02255
5500.78,0.02263
5495,0.02054
5489.21,0.02036
5483.42,0.02183
5477.64,0.02123
5471.85,0.02259
5466.06,0.02151
5460.28,0.02321
5454.49,0.02193
5448.71,0.02204
5442.92,0.02166
5437.13,0.02232
5431.35,0.02223
5425.56,0.02222
5419.77,0.02215
5413.99,0.02293
5408.2,0.02416
5402.42,0.02158
5396.63,0.02264
5390.84,0.02143
5385.06,0.01921
5379.27,0.02054
5373.48,0.02265
5367.7,0.02117
5361.91,0.02124
5356.13,0.02206
5350.34,0.02222
5344.55,0.02161
5338.77,0.02222
5332.98,0.02352
5327.19,0.02239
5321.41,0.02172
5315.62,0.02231
5309.84,0.02302
5304.05,0.02275
5298.26,0.02242
5292.48,0.02326
5286.69,0.02173
5280.9,0.02311
5275.12,0.02359
5269.33,0.02168
5263.55,0.02130
5257.76,0.02280
5251.97,0.02240
5246.19,0.02187
5240.4,0.02160
5234.61,0.02224
5228.83,0.02285
5223.04,0.02255
5217.26,0.02255
5211.47,0.02296
5205.68,0.02165
5199.9,0.02195
5194.11,0.02168
5188.32,0.02144
5182.54,0.02089
5176.75,0.02300
5170.97,0.02162
5165.18,0.02247
5159.39,0.02201
5153.61,0.02204
5147.82,0.02228
5142.03,0.02208
5136.25,0.02129
5130.46,0.02248
5124.68,0.02228
5118.89,0.02118
5113.1,0.02209
5107.32,0.02200
5101.53,0.02240
5095.75,0.02308
5089.96,0.02248
5084.17,0.02296
5078.39,0.02140
5072.6,0.02098
5066.81,0.02014
5061.03,0.02095
5055.24,0.02188
5049.46,0.02288
5043.67,0.02224
5037.88,0.02263
5032.1,0.02130
5026.31,0.02236
5020.52,0.02154
5014.74,0.02142
5008.95,0.02348
5003.17,0.02235
4997.38,0.02305
4991.59,0.02237
4985.81,0.02267
4980.02,0.02197
4974.23,0.02091
4968.45,0.02226
4962.66,0.02211
4956.88,0.02196
4951.09,0.02241
4945.3,0.02291
4939.52,0.02253
4933.73,0.02326
4927.94,0.02258
4922.16,0.02276
4916.37,0.02306
4910.59,0.02248
4904.8,0.02164
4899.01,0.02244
4893.23,0.02153
4887.44,0.02135
4881.65,0.02133
4875.87,0.02220
4870.08,0.02195
4864.3,0.02220
4858.51,0.02309
4852.72,0.02237
4846.94,0.02271
4841.15,0.02280
4835.36,0.02155
4829.58,0.02105
4823.79,0.02104
4818.01,0.02175
4812.22,0.02202
4806.43,0.02223
4800.65,0.02145
4794.86,0.02184
4789.07,0.02253
4783.29,0.02237
4777.5,0.02273
4771.72,0.02271
4765.93,0.02264
4760.14,0.02299
4754.36,0.02143
4748.57,0.02152
4742.78,0.02218
4737,0.02160
4731.21,0.02179
4725.43,0.02169
4719.64,0.02213
4713.85,0.02134
4708.07,0.02209
4702.28,0.02236
4696.49,0.02128
4690.71,0.02191
4684.92,0.02162
4679.14,0.02306
4673.35,0.02294
4667.56,0.02308
4661.78,0.02346
4655.99,0.02314
4650.2,0.02233
4644.42,0.02267
4638.63,0.02214
4632.85,0.02265
4627.06,0.02292
4621.27,0.02284
4615.49,0.02242
4609.7,0.02227
4603.92,0.02234
4598.13,0.02225
4592.34,0.02340
4586.56,0.02314
4580.77,0.02226
4574.98,0.02231
4569.2,0.02234
4563.41,0.02206
4557.63,0.02192
4551.84,0.02174
4546.05,0.02273
4540.27,0.02305
4534.48,0.02257
4528.69,0.02309
4522.91,0.02239
4517.12,0.02197
4511.34,0.02227
4505.55,0.02209
4499.76,0.02250
4493.98,0.02206
4488.19,0.02225
4482.4,0.02286
4476.62,0.02273
4470.83,0.02253
4465.05,0.02243
4459.26,0.02246
4453.47,0.02206
4447.69,0.02255
4441.9,0.02173
4436.11,0.02285
4430.33,0.02181
4424.54,0.02190
4418.76,0.02261
4412.97,0.02221
4407.18,0.02258
4401.4,0.02237
4395.61,0.02205
4389.82,0.02219
4384.04,0.02260
4378.25,0.02217
4372.47,0.02175
4366.68,0.02235
4360.89,0.02224
4355.11,0.02230
4349.32,0.02129
4343.53,0.02200
4337.75,0.02212
4331.96,0.02206
4326.18,0.02203
4320.39,0.02226
4314.6,0.02179
4308.82,0.02288
4303.03,0.02186
4297.24,0.02122
4291.46,0.02229
4285.67,0.02281
4279.89,0.02274
4274.1,0.02258
4268.31,0.02280
4262.53,0.02233
4256.74,0.02266
4250.95,0.02267
4245.17,0.02241
4239.38,0.02261
4233.6,0.02251
4227.81,0.02225
4222.02,0.02224
4216.24,0.02184
4210.45,0.02189
4204.66,0.02178
4198.88,0.02207
4193.09,0.02250
4187.31,0.02210
4181.52,0.02167
4175.73,0.02228
4169.95,0.02234
4164.16,0.02231
4158.37,0.02315
4152.59,0.02305
4146.8,0.02318
4141.02,0.02291
4135.23,0.02224
4129.44,0.02223
4123.66,0.02201
4117.87,0.02213
4112.09,0.02223
4106.3,0.02208
4100.51,0.02293
4094.73,0.02231
4088.94,0.02213
4083.15,0.02300
4077.37,0.02252
4071.58,0.02279
4065.8,0.02216
4060.01,0.02225
4054.22,0.02232
4048.44,0.02239
4042.65,0.02201
4036.86,0.02242
4031.08,0.02233
4025.29,0.02308
4019.51,0.02235
4013.72,0.02235
4007.93,0.02277
4002.15,0.02237
3996.36,0.02254
3990.57,0.02242
3984.79,0.02198
3979,0.02255
3973.22,0.02225
3967.43,0.02219
3961.64,0.02236
3955.86,0.02250
3950.07,0.02255
3944.28,0.02215
3938.5,0.02252
3932.71,0.02214
3926.93,0.02214
3921.14,0.02217
3915.35,0.02231
3909.57,0.02245
3903.78,0.02263
3897.99,0.02256
3892.21,0.02290
3886.42,0.02234
3880.64,0.02263
3874.85,0.02231
3869.06,0.02223
3863.28,0.02239
3857.49,0.02270
3851.7,0.02193
3845.92,0.02289
3840.13,0.02288
3834.35,0.02253
3828.56,0.02246
3822.77,0.02250
3816.99,0.02214
3811.2,0.02224
3805.41,0.02298
3799.63,0.02266
3793.84,0.02225
3788.06,0.02305
3782.27,0.02260
3776.48,0.02281
3770.7,0.02296
3764.91,0.02252
3759.12,0.02240
3753.34,0.02226
3747.55,0.02292
3741.77,0.02144
3735.98,0.02187
3730.19,0.02270
3724.41,0.02211
3718.62,0.02205
3712.83,0.02204
3707.05,0.02144
3701.26,0.02165
3695.48,0.02219
3689.69,0.02180
3683.9,0.02241
3678.12,0.02234
3672.33,0.02147
3666.54,0.02187
3660.76,0.02225
3654.97,0.02246
3649.19,0.02244
3643.4,0.02191
3637.61,0.02147
3631.83,0.02147
3626.04,0.02198
3620.25,0.02171
3614.47,0.02080
3608.68,0.02224
3602.9,0.02152
3597.11,0.02174
3591.32,0.02135
3585.54,0.02062
3579.75,0.02133
3573.97,0.02070
3568.18,0.02084
3562.39,0.02064
3556.61,0.02120
3550.82,0.02108
3545.03,0.02143
3539.25,0.02124
3533.46,0.02122
3527.68,0.02094
3521.89,0.02081
3516.1,0.02065
3510.32,0.02125
3504.53,0.02091
3498.74,0.02071
3492.96,0.02029
3487.17,0.02065
3481.39,0.02036
3475.6,0.02021
3469.81,0.02088
3464.03,0.02125
3458.24,0.02065
3452.45,0.02081
3446.67,0.02012
3440.88,0.02045
3435.1,0.02002
3429.31,0.02064
3423.52,0.02005
3417.74,0.02014
3411.95,0.02091
3406.16,0.02066
3400.38,0.02044
3394.59,0.02052
3388.81,0.02081
3383.02,0.01979
3377.23,0.01969
3371.45,0.02008
3365.66,0.02045
3359.87,0.02012
3354.09,0.02031
3348.3,0.01990
3342.52,0.01978
3336.73,0.01980
3330.94,0.01960
3325.16,0.02021
3319.37,0.02009
3313.58,0.02017
3307.8,0.02011
3302.01,0.01985
3296.23,0.02041
3290.44,0.01975
3284.65,0.01940
3278.87,0.02057
3273.08,0.02032
3267.29,0.02058
3261.51,0.02038
3255.72,0.01976
3249.94,0.02033
3244.15,0.02078
3238.36,0.02038
3232.58,0.01981
3226.79,0.01990
3221,0.01973
3215.22,0.02020
3209.43,0.02052
3203.65,0.01985
3197.86,0.02109
3192.07,0.02056
3186.29,0.02083
3180.5,0.02045
3174.71,0.02044
3168.93,0.02035
3163.14,0.01991
3157.36,0.02048
3151.57,0.02031
3145.78,0.01996
3140,0.02020
3134.21,0.02074
3128.42,0.02016
3122.64,0.02038
3116.85,0.02088
3111.07,0.02055
3105.28,0.02062
3099.49,0.02092
3093.71,0.02091
3087.92,0.02057
3082.14,0.02024
3076.35,0.01999
3070.56,0.02031
3064.78,0.02013
3058.99,0.02010
3053.2,0.01985
3047.42,0.02055
3041.63,0.02027
3035.85,0.02052
3030.06,0.02040
3024.27,0.02071
3018.49,0.02043
3012.7,0.01985
3006.91,0.02053
3001.13,0.01984
2995.34,0.02003
2989.56,0.01989
2983.77,0.02017
2977.98,0.01970
2972.2,0.01965
2966.41,0.01891
2960.62,0.01922
2954.84,0.01923
2949.05,0.01944
2943.27,0.01941
2937.48,0.01921
2931.69,0.01980
2925.91,0.01969
2920.12,0.01992
2914.33,0.02057
2908.55,0.02046
2902.76,0.02009
2896.98,0.01991
2891.19,0.02027
2885.4,0.02018
2879.62,0.01995
2873.83,0.02007
2868.04,0.02021
2862.26,0.02024
2856.47,0.02027
2850.69,0.02072
2844.9,0.02121
2839.11,0.02075
2833.33,0.02138
2827.54,0.02134
2821.75,0.02083
2815.97,0.02100
2810.18,0.02089
2804.4,0.02156
2798.61,0.02058
2792.82,0.02055
2787.04,0.02084
2781.25,0.02094
2775.46,0.02121
2769.68,0.02072
2763.89,0.02094
2758.11,0.02109
2752.32,0.02150
2746.53,0.02118
2740.75,0.02101
2734.96,0.02109
2729.17,0.02091
2723.39,0.02037
2717.6,0.02139
2711.82,0.02124
2706.03,0.02095
2700.24,0.02109
2694.46,0.02140
2688.67,0.02098
2682.88,0.02081
2677.1,0.02068
2671.31,0.02143
2665.53,0.02123
2659.74,0.02084
2653.95,0.02108
2648.17,0.02114
2642.38,0.02093
2636.59,0.02081
2630.81,0.02137
2625.02,0.02131
2619.24,0.02126
2613.45,0.02074
2607.66,0.02084
2601.88,0.02085
2596.09,0.02103
2590.3,0.02113
2584.52,0.02107
2578.73,0.02110
2572.95,0.02083
2567.16,0.02102
2561.37,0.02139
2555.59,0.02063
2549.8,0.02101
2544.02,0.02096
2538.23,0.02088
2532.44,0.02083
2526.66,0.02106
2520.87,0.02100
2515.08,0.02126
2509.3,0.02089
2503.51,0.02062
2497.73,0.02113
2491.94,0.02115
2486.15,0.02098
2480.37,0.02098
2474.58,0.02134
2468.79,0.02129
2463.01,0.02133
2457.22,0.02134
2451.44,0.02119
2445.65,0.02138
2439.86,0.02106
2434.08,0.02060
2428.29,0.02080
2422.5,0.02129
2416.72,0.02101
2410.93,0.02083
2405.15,0.02074
2399.36,0.02084
2393.57,0.02116
2387.79,0.02095
2382,0.02083
2376.21,0.02097
2370.43,0.02148
2364.64,0.02068
2358.86,0.02077
2353.07,0.02120
2347.28,0.02104
2341.5,0.02059
2335.71,0.02115
2329.92,0.02129
2324.14,0.02111
2318.35,0.02077
2312.57,0.02076
2306.78,0.02103
2300.99,0.02076
2295.21,0.02064
2289.42,0.02103
2283.63,0.02088
2277.85,0.02103
2272.06,0.02074
2266.28,0.02088
2260.49,0.02067
2254.7,0.02080
2248.92,0.02056
2243.13,0.02066
2237.34,0.02058
2231.56,0.02105
2225.77,0.02050
2219.99,0.02060
2214.2,0.02085
2208.41,0.02095
2202.63,0.02131
2196.84,0.02081
2191.05,0.02086
2185.27,0.02098
2179.48,0.02033
2173.7,0.02038
2167.91,0.02055
2162.12,0.02042
2156.34,0.02102
2150.55,0.02054
2144.76,0.02035
2138.98,0.02089
2133.19,0.02113
2127.41,0.02033
2121.62,0.02072
2115.83,0.02099
2110.05,0.02065
2104.26,0.02043
2098.47,0.02083
2092.69,0.02057
2086.9,0.02118
2081.12,0.02070
2075.33,0.02073
2069.54,0.02076
2063.76,0.02071
2057.97,0.02064
2052.19,0.02035
2046.4,0.02052
2040.61,0.02066
2034.83,0.02065
2029.04,0.02046
2023.25,0.02081
2017.47,0.02057
2011.68,0.02062
2005.9,0.02089
2000.11,0.02056
1994.32,0.02022
1988.54,0.02022
1982.75,0.02025
1976.96,0.02055
1971.18,0.02067
1965.39,0.02070
1959.61,0.02063
1953.82,0.02022
1948.03,0.02026
1942.25,0.02049
1936.46,0.02068
1930.67,0.02035
1924.89,0.02066
1919.1,0.02045
1913.32,0.02034
1907.53,0.02051
1901.74,0.02047
1895.96,0.02041
1890.17,0.02035
1884.38,0.02037
1878.6,0.02013
1872.81,0.01988
1867.03,0.02006
1861.24,0.02008
1855.45,0.02037
1849.67,0.02002
1843.88,0.01988
1838.09,0.01987
1832.31,0.01980
1826.52,0.01993
1820.74,0.01991
1814.95,0.01992
1809.16,0.01953
1803.38,0.01980
1797.59,0.01921
1791.8,0.01920
1786.02,0.01905
1780.23,0.01904
1774.45,0.01873
1768.66,0.01820
1762.87,0.01772
1757.09,0.01740
1751.3,0.01717
1745.51,0.01744
1739.73,0.01868
1733.94,0.01997
1728.16,0.02039
1722.37,0.02081
1716.58,0.02099
1710.8,0.02043
1705.01,0.02001
1699.22,0.01986
1693.44,0.01977
1687.65,0.01933
1681.87,0.01903
1676.08,0.01879
1670.29,0.01905
1664.51,0.01886
1658.72,0.01840
1652.93,0.01854
1647.15,0.01830
1641.36,0.01833
1635.58,0.01843
1629.79,0.01834
1624,0.01881
1618.22,0.01876
1612.43,0.01833
1606.64,0.01892
1600.86,0.01840
1595.07,0.01884
1589.29,0.01858
1583.5,0.01867
1577.71,0.01860
1571.93,0.01845
1566.14,0.01788
1560.35,0.01795
1554.57,0.01806
1548.78,0.01826
1543,0.01843
1537.21,0.01828
1531.42,0.01848
1525.64,0.01874
1519.85,0.01818
1514.07,0.01832
1508.28,0.01860
1502.49,0.01812
1496.71,0.01849
1490.92,0.01900
1485.13,0.01873
1479.35,0.01802
1473.56,0.01837
1467.78,0.01816
1461.99,0.01848
1456.2,0.01874
1450.42,0.01876
1444.63,0.01877
1438.84,0.01857
1433.06,0.01867
1427.27,0.01816
1421.49,0.01811
1415.7,0.01812
1409.91,0.01784
1404.13,0.01786
1398.34,0.01775
1392.55,0.01796
1386.77,0.01822
1380.98,0.01817
1375.2,0.01789
1369.41,0.01830
1363.62,0.01802
1357.84,0.01777
1352.05,0.01758
1346.26,0.01751
1340.48,0.01778
1334.69,0.01714
1328.91,0.01777
1323.12,0.01741
1317.33,0.01683
1311.55,0.01667
1305.76,0.01718
1299.97,0.01702
1294.19,0.01761
1288.4,0.01816
1282.62,0.01835
1276.83,0.01893
1271.04,0.01922
1265.26,0.01933
1259.47,0.02014
1253.68,0.02046
1247.9,0.02004
1242.11,0.02029
1236.33,0.01969
1230.54,0.01938
1224.75,0.01963
1218.97,0.01915
1213.18,0.01909
1207.39,0.01800
1201.61,0.01827
1195.82,0.01881
1190.04,0.01828
1184.25,0.01795
1178.46,0.01786
1172.68,0.01800
1166.89,0.01741
1161.1,0.01751
1155.32,0.01717
1149.53,0.01725
1143.75,0.01783
1137.96,0.01778
1132.17,0.01789
1126.39,0.01785
1120.6,0.01868
1114.81,0.01876
1109.03,0.01868
1103.24,0.01880
1097.46,0.01891
1091.67,0.01795
1085.88,0.01783
1080.1,0.01831
1074.31,0.01942
1068.52,0.01968
1062.74,0.01960
1056.95,0.01952
1051.17,0.02009
1045.38,0.01870
1039.59,0.01907
1033.81,0.01949
1028.02,0.01967
1022.24,0.01969
1016.45,0.01950
1010.66,0.01991
1004.88,0.02048
999.09,0.02069
993.304,0.02061
987.518,0.02068
981.731,0.02102
975.945,0.02046
970.159,0.02017
964.373,0.02068
958.586,0.01998
952.8,0.01979
947.014,0.01941
941.228,0.01911
935.441,0.01932
929.655,0.01969
923.869,0.01930
918.083,0.01913
912.297,0.01891
906.51,0.01862
900.724,0.01913
894.938,0.01871
889.152,0.01903
883.365,0.01936
877.579,0.01912
871.793,0.01928
866.007,0.01876
860.22,0.01888
854.434,0.01937
848.648,0.01976
842.862,0.01852
837.075,0.01857
831.289,0.01865
825.503,0.01866
819.717,0.01880
813.931,0.01923
808.144,0.01919
802.358,0.01878
796.572,0.01911
790.786,0.01846
784.999,0.01855
779.213,0.01813
773.427,0.01913
767.641,0.01901
761.854,0.01837
756.068,0.01846
750.282,0.01836
744.496,0.01791
738.709,0.01797
732.923,0.01864
727.137,0.01859
721.351,0.01810
715.565,0.01809
709.778,0.01740
703.992,0.01771
698.206,0.01843
692.42,0.01713
686.633,0.01721
680.847,0.01721
675.061,0.01716
669.275,0.01672
663.488,0.01614
657.702,0.01798
651.916,0.01733
646.13,0.01648
640.343,0.01696
634.557,0.01673
628.771,0.01542
622.985,0.01603
617.198,0.01453
611.412,0.01613
605.626,0.01519
599.84,0.01695