File: 01_Data/PUF_Mattress_Pad/FTIR/IS/PUF_Mattress_Pad_IS_S_221003_R3.dpt
7497.03,0.67949
7491.25,0.67855
7485.46,0.68184
7479.67,0.67457
7473.89,0.67131
7468.1,0.66883
7462.32,0.68482
7456.53,0.67556
7450.74,0.67507
7444.96,0.67235
7439.17,0.67283
7433.38,0.67202
7427.6,0.66548
7421.81,0.66479
7416.03,0.66592
7410.24,0.66829
7404.45,0.66296
7398.67,0.66831
7392.88,0.65890
7387.09,0.65946
7381.31,0.66198
7375.52,0.66359
7369.74,0.65092
7363.95,0.64985
7358.16,0.66091
7352.38,0.65539
7346.59,0.66174
7340.8,0.66372
7335.02,0.66591
7329.23,0.65593
7323.45,0.65377
7317.66,0.66176
7311.87,0.66144
7306.09,0.64622
7300.3,0.66284
7294.51,0.65715
7288.73,0.65291
7282.94,0.65574
7277.16,0.65563
7271.37,0.64131
7265.58,0.64797
7259.8,0.65512
7254.01,0.64244
7248.22,0.64583
7242.44,0.65045
7236.65,0.64754
7230.87,0.64723
7225.08,0.64913
7219.29,0.65011
7213.51,0.64809
7207.72,0.65258
7201.93,0.64124
7196.15,0.64717
7190.36,0.65523
7184.58,0.64780
7178.79,0.64712
7173,0.64793
7167.22,0.65024
7161.43,0.64983
7155.65,0.64128
7149.86,0.64230
7144.07,0.64470
7138.29,0.64493
7132.5,0.65009
7126.71,0.64537
7120.93,0.65796
7115.14,0.65167
7109.36,0.65170
7103.57,0.64919
7097.78,0.65043
7092,0.64996
7086.21,0.65433
7080.42,0.65428
7074.64,0.65270
7068.85,0.65371
7063.07,0.64947
7057.28,0.65295
7051.49,0.65665
7045.71,0.65392
7039.92,0.64570
7034.13,0.65495
7028.35,0.64743
7022.56,0.65366
7016.78,0.65657
7010.99,0.65478
7005.2,0.65734
6999.42,0.65405
6993.63,0.65123
6987.84,0.64827
6982.06,0.65447
6976.27,0.65016
6970.49,0.65569
6964.7,0.65051
6958.91,0.65173
6953.13,0.65216
6947.34,0.65655
6941.55,0.65562
6935.77,0.65804
6929.98,0.65885
6924.2,0.65646
6918.41,0.65436
6912.62,0.65717
6906.84,0.65853
6901.05,0.65975
6895.26,0.65654
6889.48,0.65700
6883.69,0.65928
6877.91,0.65757
6872.12,0.65934
6866.33,0.66127
6860.55,0.65979
6854.76,0.65361
6848.97,0.65837
6843.19,0.65936
6837.4,0.65426
6831.62,0.65492
6825.83,0.65440
6820.04,0.65581
6814.26,0.65987
6808.47,0.66195
6802.68,0.65951
6796.9,0.65490
6791.11,0.65028
6785.33,0.65951
6779.54,0.65553
6773.75,0.64680
6767.97,0.65736
6762.18,0.65032
6756.39,0.64277
6750.61,0.64441
6744.82,0.64918
6739.04,0.64215
6733.25,0.64554
6727.46,0.64775
6721.68,0.64170
6715.89,0.63445
6710.1,0.63403
6704.32,0.63728
6698.53,0.63038
6692.75,0.63402
6686.96,0.62959
6681.17,0.62484
6675.39,0.62675
6669.6,0.62905
6663.82,0.62570
6658.03,0.62965
6652.24,0.62372
6646.46,0.62687
6640.67,0.62687
6634.88,0.62474
6629.1,0.62736
6623.31,0.62251
6617.53,0.62726
6611.74,0.62501
6605.95,0.62358
6600.17,0.63131
6594.38,0.62579
6588.59,0.62638
6582.81,0.62838
6577.02,0.62945
6571.24,0.63011
6565.45,0.63065
6559.66,0.63423
6553.88,0.63281
6548.09,0.63134
6542.3,0.63497
6536.52,0.63253
6530.73,0.63701
6524.95,0.63869
6519.16,0.64586
6513.37,0.64432
6507.59,0.64245
6501.8,0.64515
6496.01,0.64286
6490.23,0.64152
6484.44,0.64427
6478.66,0.64847
6472.87,0.64601
6467.08,0.64957
6461.3,0.64955
6455.51,0.64701
6449.72,0.64679
6443.94,0.64874
6438.15,0.65179
6432.37,0.64875
6426.58,0.65269
6420.79,0.65152
6415.01,0.65052
6409.22,0.65013
6403.43,0.65416
6397.65,0.65213
6391.86,0.65012
6386.08,0.65037
6380.29,0.65187
6374.5,0.65351
6368.72,0.65358
6362.93,0.65252
6357.14,0.65554
6351.36,0.65333
6345.57,0.65462
6339.79,0.65429
6334,0.64898
6328.21,0.65309
6322.43,0.65235
6316.64,0.65541
6310.85,0.65431
6305.07,0.65449
6299.28,0.65440
6293.5,0.65233
6287.71,0.65146
6281.92,0.65282
6276.14,0.65058
6270.35,0.65281
6264.56,0.65293
6258.78,0.65100
6252.99,0.65090
6247.21,0.65055
6241.42,0.65095
6235.63,0.65264
6229.85,0.65228
6224.06,0.64848
6218.27,0.64957
6212.49,0.65241
6206.7,0.65017
6200.92,0.64972
6195.13,0.65126
6189.34,0.65365
6183.56,0.65243
6177.77,0.64869
6171.98,0.65064
6166.2,0.64875
6160.41,0.64799
6154.63,0.65104
6148.84,0.64648
6143.05,0.64691
6137.27,0.64570
6131.48,0.64179
6125.7,0.64088
6119.91,0.64322
6114.12,0.64194
6108.34,0.63679
6102.55,0.63904
6096.76,0.63335
6090.98,0.63550
6085.19,0.63185
6079.41,0.63273
6073.62,0.63558
6067.83,0.63256
6062.05,0.63111
6056.26,0.62998
6050.47,0.62951
6044.69,0.62836
6038.9,0.62635
6033.12,0.62433
6027.33,0.62223
6021.54,0.61918
6015.76,0.61889
6009.97,0.61479
6004.18,0.61015
5998.4,0.60715
5992.61,0.59997
5986.83,0.59612
5981.04,0.58865
5975.25,0.58437
5969.47,0.57469
5963.68,0.56501
5957.89,0.55156
5952.11,0.54149
5946.32,0.53512
5940.54,0.53295
5934.75,0.53233
5928.96,0.53626
5923.18,0.53922
5917.39,0.53803
5911.6,0.52996
5905.82,0.52351
5900.03,0.52213
5894.25,0.52238
5888.46,0.53127
5882.67,0.53885
5876.89,0.54300
5871.1,0.54496
5865.31,0.54784
5859.53,0.54744
5853.74,0.54572
5847.96,0.54275
5842.17,0.54230
5836.38,0.54018
5830.6,0.53756
5824.81,0.53535
5819.02,0.52954
5813.24,0.52624
5807.45,0.52573
5801.67,0.52185
5795.88,0.51643
5790.09,0.51210
5784.31,0.51072
5778.52,0.50741
5772.73,0.50793
5766.95,0.50862
5761.16,0.50969
5755.38,0.51249
5749.59,0.51772
5743.8,0.52165
5738.02,0.52845
5732.23,0.53417
5726.44,0.53804
5720.66,0.54149
5714.87,0.54950
5709.09,0.55123
5703.3,0.55589
5697.51,0.55722
5691.73,0.55907
5685.94,0.56151
5680.15,0.55773
5674.37,0.55975
5668.58,0.55968
5662.8,0.55758
5657.01,0.56164
5651.22,0.55970
5645.44,0.56345
5639.65,0.56850
5633.87,0.56897
5628.08,0.57217
5622.29,0.57402
5616.51,0.57846
5610.72,0.58016
5604.93,0.58229
5599.15,0.58155
5593.36,0.58186
5587.58,0.58002
5581.79,0.58181
5576,0.58162
5570.22,0.58041
5564.43,0.58107
5558.64,0.58022
5552.86,0.58042
5547.07,0.58059
5541.29,0.57902
5535.5,0.57945
5529.71,0.58066
5523.93,0.58094
5518.14,0.58071
5512.35,0.58414
5506.57,0.58508
5500.78,0.58552
5495,0.58660
5489.21,0.58538
5483.42,0.58849
5477.64,0.58786
5471.85,0.58965
5466.06,0.58831
5460.28,0.58825
5454.49,0.58629
5448.71,0.58755
5442.92,0.59042
5437.13,0.59146
5431.35,0.59411
5425.56,0.59784
5419.77,0.59917
5413.99,0.60088
5408.2,0.60427
5402.42,0.60914
5396.63,0.60936
5390.84,0.61170
5385.06,0.61241
5379.27,0.61450
5373.48,0.61658
5367.7,0.61740
5361.91,0.61469
5356.13,0.61519
5350.34,0.61534
5344.55,0.61746
5338.77,0.61603
5332.98,0.61739
5327.19,0.61691
5321.41,0.61925
5315.62,0.61742
5309.84,0.61866
5304.05,0.61998
5298.26,0.61849
5292.48,0.61674
5286.69,0.61591
5280.9,0.61574
5275.12,0.61390
5269.33,0.61266
5263.55,0.61098
5257.76,0.60968
5251.97,0.60832
5246.19,0.60614
5240.4,0.60652
5234.61,0.60486
5228.83,0.60367
5223.04,0.60309
5217.26,0.60276
5211.47,0.60360
5205.68,0.60147
5199.9,0.60396
5194.11,0.60327
5188.32,0.60358
5182.54,0.60526
5176.75,0.60516
5170.97,0.60389
5165.18,0.60491
5159.39,0.60584
5153.61,0.60522
5147.82,0.60606
5142.03,0.60520
5136.25,0.60518
5130.46,0.60349
5124.68,0.60285
5118.89,0.60368
5113.1,0.60333
5107.32,0.60306
5101.53,0.60094
5095.75,0.59750
5089.96,0.59696
5084.17,0.59502
5078.39,0.59248
5072.6,0.59109
5066.81,0.58899
5061.03,0.58725
5055.24,0.58514
5049.46,0.58209
5043.67,0.57980
5037.88,0.57920
5032.1,0.57637
5026.31,0.57286
5020.52,0.57112
5014.74,0.56872
5008.95,0.56512
5003.17,0.56270
4997.38,0.55943
4991.59,0.55545
4985.81,0.55195
4980.02,0.54793
4974.23,0.54216
4968.45,0.53687
4962.66,0.53129
4956.88,0.52506
4951.09,0.51841
4945.3,0.51335
4939.52,0.50862
4933.73,0.50458
4927.94,0.50139
4922.16,0.49775
4916.37,0.49394
4910.59,0.48909
4904.8,0.48515
4899.01,0.48060
4893.23,0.47861
4887.44,0.47643
4881.65,0.47461
4875.87,0.47002
4870.08,0.46748
4864.3,0.46447
4858.51,0.46138
4852.72,0.45966
4846.94,0.45796
4841.15,0.45918
4835.36,0.46014
4829.58,0.46147
4823.79,0.46523
4818.01,0.46836
4812.22,0.47035
4806.43,0.47530
4800.65,0.47875
4794.86,0.48201
4789.07,0.48650
4783.29,0.49061
4777.5,0.49393
4771.72,0.49713
4765.93,0.49991
4760.14,0.50124
4754.36,0.50360
4748.57,0.50442
4742.78,0.50566
4737,0.50640
4731.21,0.50538
4725.43,0.50427
4719.64,0.50353
4713.85,0.50215
4708.07,0.50141
4702.28,0.50039
4696.49,0.49668
4690.71,0.49394
4684.92,0.49119
4679.14,0.48712
4673.35,0.48267
4667.56,0.47820
4661.78,0.47637
4655.99,0.47456
4650.2,0.47304
4644.42,0.47082
4638.63,0.47155
4632.85,0.46915
4627.06,0.46806
4621.27,0.46667
4615.49,0.46732
4609.7,0.46693
4603.92,0.46712
4598.13,0.46767
4592.34,0.46789
4586.56,0.46865
4580.77,0.46843
4574.98,0.46842
4569.2,0.46813
4563.41,0.46585
4557.63,0.46504
4551.84,0.46344
4546.05,0.46321
4540.27,0.46137
4534.48,0.46197
4528.69,0.46110
4522.91,0.46178
4517.12,0.45975
4511.34,0.45857
4505.55,0.45754
4499.76,0.45540
4493.98,0.45340
4488.19,0.45065
4482.4,0.44646
4476.62,0.44243
4470.83,0.43642
4465.05,0.42808
4459.26,0.41743
4453.47,0.40334
4447.69,0.38668
4441.9,0.36801
4436.11,0.34784
4430.33,0.32823
4424.54,0.30928
4418.76,0.29599
4412.97,0.28884
4407.18,0.28962
4401.4,0.29768
4395.61,0.30311
4389.82,0.30184
4384.04,0.29831
4378.25,0.29098
4372.47,0.28294
4366.68,0.27287
4360.89,0.26300
4355.11,0.25197
4349.32,0.24188
4343.53,0.23531
4337.75,0.23216
4331.96,0.23069
4326.18,0.23327
4320.39,0.23722
4314.6,0.24521
4308.82,0.25504
4303.03,0.26679
4297.24,0.27700
4291.46,0.28436
4285.67,0.28754
4279.89,0.28735
4274.1,0.28802
4268.31,0.28974
4262.53,0.29295
4256.74,0.29762
4250.95,0.30228
4245.17,0.30474
4239.38,0.30578
4233.6,0.30809
4227.81,0.31113
4222.02,0.31588
4216.24,0.32164
4210.45,0.32672
4204.66,0.33193
4198.88,0.33570
4193.09,0.33650
4187.31,0.33604
4181.52,0.33419
4175.73,0.33101
4169.95,0.32827
4164.16,0.32506
4158.37,0.32270
4152.59,0.31998
4146.8,0.31817
4141.02,0.31738
4135.23,0.31747
4129.44,0.31646
4123.66,0.31480
4117.87,0.31211
4112.09,0.30970
4106.3,0.30640
4100.51,0.30194
4094.73,0.29731
4088.94,0.29134
4083.15,0.28656
4077.37,0.28183
4071.58,0.27731
4065.8,0.27291
4060.01,0.26932
4054.22,0.26693
4048.44,0.26405
4042.65,0.26261
4036.86,0.26172
4031.08,0.26110
4025.29,0.26198
4019.51,0.26172
4013.72,0.26282
4007.93,0.26355
4002.15,0.26466
3996.36,0.26688
3990.57,0.26897
3984.79,0.27256
3979,0.27704
3973.22,0.28200
3967.43,0.28636
3961.64,0.29207
3955.86,0.29744
3950.07,0.30290
3944.28,0.31067
3938.5,0.31839
3932.71,0.32638
3926.93,0.33289
3921.14,0.33915
3915.35,0.34315
3909.57,0.34707
3903.78,0.34976
3897.99,0.35207
3892.21,0.35344
3886.42,0.35422
3880.64,0.35590
3874.85,0.35799
3869.06,0.35872
3863.28,0.35821
3857.49,0.35776
3851.7,0.36002
3845.92,0.36068
3840.13,0.36360
3834.35,0.36725
3828.56,0.37063
3822.77,0.37328
3816.99,0.37464
3811.2,0.37568
3805.41,0.37593
3799.63,0.37608
3793.84,0.37784
3788.06,0.37976
3782.27,0.38299
3776.48,0.38653
3770.7,0.39204
3764.91,0.39724
3759.12,0.40426
3753.34,0.41047
3747.55,0.41600
3741.77,0.42103
3735.98,0.42520
3730.19,0.42747
3724.41,0.43044
3718.62,0.43322
3712.83,0.43493
3707.05,0.43731
3701.26,0.43701
3695.48,0.43514
3689.69,0.43160
3683.9,0.42695
3678.12,0.42263
3672.33,0.41641
3666.54,0.40913
3660.76,0.40113
3654.97,0.39315
3649.19,0.38560
3643.4,0.37672
3637.61,0.36963
3631.83,0.36263
3626.04,0.35517
3620.25,0.34848
3614.47,0.34113
3608.68,0.33475
3602.9,0.32925
3597.11,0.32414
3591.32,0.31962
3585.54,0.31610
3579.75,0.31177
3573.97,0.30720
3568.18,0.30310
3562.39,0.29755
3556.61,0.29358
3550.82,0.28839
3545.03,0.28374
3539.25,0.27699
3533.46,0.27005
3527.68,0.26494
3521.89,0.25890
3516.1,0.25299
3510.32,0.24867
3504.53,0.24463
3498.74,0.23949
3492.96,0.23359
3487.17,0.22617
3481.39,0.21795
3475.6,0.20741
3469.81,0.19623
3464.03,0.18325
3458.24,0.17283
3452.45,0.16587
3446.67,0.16053
3440.88,0.15187
3435.1,0.14151
3429.31,0.12622
3423.52,0.10777
3417.74,0.09421
3411.95,0.08648
3406.16,0.08492
3400.38,0.08151
3394.59,0.07662
3388.81,0.07078
3383.02,0.06595
3377.23,0.06074
3371.45,0.05804
3365.66,0.05554
3359.87,0.05434
3354.09,0.05219
3348.3,0.05110
3342.52,0.04996
3336.73,0.04852
3330.94,0.04779
3325.16,0.04731
3319.37,0.04582
3313.58,0.04582
3307.8,0.04470
3302.01,0.04460
3296.23,0.04460
3290.44,0.04416
3284.65,0.04414
3278.87,0.04476
3273.08,0.04502
3267.29,0.04533
3261.51,0.04718
3255.72,0.04767
3249.94,0.04821
3244.15,0.05031
3238.36,0.05166
3232.58,0.05317
3226.79,0.05503
3221,0.05640
3215.22,0.05672
3209.43,0.05855
3203.65,0.05966
3197.86,0.06077
3192.07,0.06276
3186.29,0.06316
3180.5,0.06488
3174.71,0.06636
3168.93,0.06805
3163.14,0.07016
3157.36,0.07083
3151.57,0.07211
3145.78,0.07381
3140,0.07388
3134.21,0.07441
3128.42,0.07520
3122.64,0.07657
3116.85,0.07772
3111.07,0.07779
3105.28,0.07778
3099.49,0.07765
3093.71,0.07633
3087.92,0.07620
3082.14,0.07532
3076.35,0.07446
3070.56,0.07428
3064.78,0.07505
3058.99,0.07501
3053.2,0.07615
3047.42,0.07657
3041.63,0.07589
3035.85,0.07513
3030.06,0.07387
3024.27,0.07424
3018.49,0.07417
3012.7,0.07146
3006.91,0.06677
3001.13,0.05852
2995.34,0.05044
2989.56,0.04493
2983.77,0.04142
2977.98,0.04023
2972.2,0.03985
2966.41,0.04168
2960.62,0.04451
2954.84,0.04646
2949.05,0.04553
2943.27,0.04330
2937.48,0.04106
2931.69,0.04014
2925.91,0.04087
2920.12,0.04131
2914.33,0.04178
2908.55,0.04193
2902.76,0.04129
2896.98,0.04152
2891.19,0.04199
2885.4,0.04208
2879.62,0.04196
2873.83,0.04194
2868.04,0.04262
2862.26,0.04352
2856.47,0.04508
2850.69,0.04754
2844.9,0.05107
2839.11,0.05658
2833.33,0.06180
2827.54,0.06780
2821.75,0.07240
2815.97,0.07546
2810.18,0.07774
2804.4,0.07835
2798.61,0.07963
2792.82,0.08112
2787.04,0.08402
2781.25,0.08567
2775.46,0.08838
2769.68,0.09145
2763.89,0.09475
2758.11,0.09820
2752.32,0.10171
2746.53,0.10459
2740.75,0.10716
2734.96,0.10981
2729.17,0.11341
2723.39,0.11951
2717.6,0.12728
2711.82,0.13353
2706.03,0.13864
2700.24,0.14332
2694.46,0.14991
2688.67,0.15558
2682.88,0.15899
2677.1,0.16083
2671.31,0.16248
2665.53,0.16650
2659.74,0.17109
2653.95,0.17500
2648.17,0.17806
2642.38,0.17995
2636.59,0.18329
2630.81,0.18889
2625.02,0.19518
2619.24,0.19967
2613.45,0.20149
2607.66,0.20139
2601.88,0.19922
2596.09,0.19836
2590.3,0.19917
2584.52,0.20143
2578.73,0.20798
2572.95,0.21796
2567.16,0.23026
2561.37,0.24056
2555.59,0.24680
2549.8,0.25029
2544.02,0.25268
2538.23,0.25557
2532.44,0.25864
2526.66,0.26207
2520.87,0.26416
2515.08,0.26557
2509.3,0.26597
2503.51,0.26557
2497.73,0.26493
2491.94,0.26556
2486.15,0.26528
2480.37,0.26448
2474.58,0.26485
2468.79,0.26601
2463.01,0.26820
2457.22,0.27041
2451.44,0.27230
2445.65,0.27487
2439.86,0.27845
2434.08,0.28153
2428.29,0.28456
2422.5,0.28606
2416.72,0.28536
2410.93,0.28281
2405.15,0.28015
2399.36,0.27760
2393.57,0.27498
2387.79,0.27223
2382,0.26960
2376.21,0.26744
2370.43,0.26635
2364.64,0.26526
2358.86,0.26427
2353.07,0.26240
2347.28,0.26063
2341.5,0.25743
2335.71,0.25194
2329.92,0.24529
2324.14,0.23589
2318.35,0.22426
2312.57,0.21075
2306.78,0.19419
2300.99,0.17479
2295.21,0.15343
2289.42,0.13199
2283.63,0.11302
2277.85,0.10113
2272.06,0.09942
2266.28,0.10923
2260.49,0.12775
2254.7,0.14936
2248.92,0.16884
2243.13,0.18342
2237.34,0.19453
2231.56,0.20333
2225.77,0.20946
2219.99,0.21333
2214.2,0.21690
2208.41,0.22090
2202.63,0.22467
2196.84,0.22775
2191.05,0.23011
2185.27,0.23183
2179.48,0.23351
2173.7,0.23434
2167.91,0.23567
2162.12,0.23674
2156.34,0.23788
2150.55,0.23993
2144.76,0.24200
2138.98,0.24318
2133.19,0.24475
2127.41,0.24621
2121.62,0.24799
2115.83,0.24886
2110.05,0.24900
2104.26,0.24856
2098.47,0.24776
2092.69,0.24600
2086.9,0.24436
2081.12,0.24273
2075.33,0.24070
2069.54,0.23910
2063.76,0.23745
2057.97,0.23566
2052.19,0.23331
2046.4,0.23006
2040.61,0.22594
2034.83,0.22173
2029.04,0.21756
2023.25,0.21441
2017.47,0.21257
2011.68,0.21218
2005.9,0.21219
2000.11,0.21357
1994.32,0.21481
1988.54,0.21582
1982.75,0.21604
1976.96,0.21596
1971.18,0.21595
1965.39,0.21614
1959.61,0.21570
1953.82,0.21523
1948.03,0.21466
1942.25,0.21435
1936.46,0.21337
1930.67,0.21218
1924.89,0.21008
1919.1,0.20904
1913.32,0.20857
1907.53,0.20917
1901.74,0.20981
1895.96,0.21009
1890.17,0.20943
1884.38,0.20996
1878.6,0.21132
1872.81,0.21241
1867.03,0.21340
1861.24,0.21277
1855.45,0.21128
1849.67,0.20984
1843.88,0.20723
1838.09,0.20396
1832.31,0.20009
1826.52,0.19546
1820.74,0.18979
1814.95,0.18369
1809.16,0.17567
1803.38,0.16728
1797.59,0.15806
1791.8,0.14879
1786.02,0.14055
1780.23,0.13273
1774.45,0.12645
1768.66,0.11736
1762.87,0.10576
1757.09,0.08861
1751.3,0.06751
1745.51,0.04731
1739.73,0.03669
1733.94,0.03337
1728.16,0.03310
1722.37,0.03417
1716.58,0.03539
1710.8,0.03658
1705.01,0.03751
1699.22,0.03822
1693.44,0.03822
1687.65,0.03835
1681.87,0.03753
1676.08,0.03679
1670.29,0.03586
1664.51,0.03435
1658.72,0.03304
1652.93,0.03133
1647.15,0.03037
1641.36,0.03065
1635.58,0.03365
1629.79,0.03645
1624,0.03681
1618.22,0.03581
1612.43,0.03396
1606.64,0.03259
1600.86,0.03244
1595.07,0.03335
1589.29,0.03420
1583.5,0.03519
1577.71,0.03478
1571.93,0.03214
1566.14,0.03008
1560.35,0.03087
1554.57,0.03061
1548.78,0.03171
1543,0.03256
1537.21,0.03378
1531.42,0.03490
1525.64,0.03620
1519.85,0.03735
1514.07,0.03688
1508.28,0.03746
1502.49,0.03815
1496.71,0.03861
1490.92,0.03908
1485.13,0.03897
1479.35,0.03794
1473.56,0.03803
1467.78,0.03826
1461.99,0.03816
1456.2,0.03765
1450.42,0.03778
1444.63,0.03941
1438.84,0.04247
1433.06,0.04499
1427.27,0.04454
1421.49,0.04273
1415.7,0.04051
1409.91,0.04030
1404.13,0.04109
1398.34,0.04170
1392.55,0.04172
1386.77,0.03913
1380.98,0.03591
1375.2,0.03546
1369.41,0.03882
1363.62,0.04370
1357.84,0.04520
1352.05,0.04335
1346.26,0.04054
1340.48,0.04014
1334.69,0.04101
1328.91,0.04023
1323.12,0.03892
1317.33,0.03748
1311.55,0.03555
1305.76,0.03517
1299.97,0.03459
1294.19,0.03513
1288.4,0.03519
1282.62,0.03554
1276.83,0.03543
1271.04,0.03505
1265.26,0.03511
1259.47,0.03455
1253.68,0.03360
1247.9,0.03311
1242.11,0.03219
1236.33,0.03089
1230.54,0.03148
1224.75,0.03337
1218.97,0.03452
1213.18,0.03542
1207.39,0.03599
1201.61,0.03617
1195.82,0.03576
1190.04,0.03493
1184.25,0.03367
1178.46,0.03247
1172.68,0.03058
1166.89,0.02932
1161.1,0.02928
1155.32,0.02933
1149.53,0.02907
1143.75,0.02863
1137.96,0.02897
1132.17,0.02900
1126.39,0.02969
1120.6,0.03031
1114.81,0.03224
1109.03,0.03489
1103.24,0.03756
1097.46,0.03892
1091.67,0.04016
1085.88,0.04220
1080.1,0.04302
1074.31,0.04462
1068.52,0.04519
1062.74,0.04583
1056.95,0.04710
1051.17,0.04826
1045.38,0.05029
1039.59,0.05170
1033.81,0.05313
1028.02,0.05293
1022.24,0.05134
1016.45,0.04923
1010.66,0.05041
1004.88,0.05155
999.09,0.05394
993.304,0.06102
987.518,0.06729
981.731,0.07034
975.945,0.06985
970.159,0.06826
964.373,0.06949
958.586,0.07235
952.8,0.07346
947.014,0.06706
941.228,0.05747
935.441,0.05387
929.655,0.05179
923.869,0.05245
918.083,0.05618
912.297,0.05871
906.51,0.06004
900.724,0.06394
894.938,0.06710
889.152,0.06482
883.365,0.06204
877.579,0.06095
871.793,0.05974
866.007,0.05967
860.22,0.06173
854.434,0.06305
848.648,0.06374
842.862,0.06335
837.075,0.06076
831.289,0.05708
825.503,0.05338
819.717,0.05116
813.931,0.05180
808.144,0.05423
802.358,0.05834
796.572,0.06120
790.786,0.06305
784.999,0.06337
779.213,0.06204
773.427,0.05881
767.641,0.05579
761.854,0.05409
756.068,0.05450
750.282,0.05976
744.496,0.06574
738.709,0.06850
732.923,0.06843
727.137,0.06605
721.351,0.06095
715.565,0.05585
709.778,0.05441
703.992,0.05391
698.206,0.05342
692.42,0.05255
686.633,0.05012
680.847,0.04968
675.061,0.04818
669.275,0.04823
663.488,0.04912
657.702,0.05188
651.916,0.05371
646.13,0.05533
640.343,0.05637
634.557,0.05687
628.771,0.05714
622.985,0.05876
617.198,0.05941
611.412,0.05765
605.626,0.05780
599.84,0.05898