File: 01_Data/PUF_Mattress_Pad/FTIR/IS/PUF_Mattress_Pad_IS_S_221003_R5.dpt
7497.03,0.67420
7491.25,0.69020
7485.46,0.68534
7479.67,0.67610
7473.89,0.66840
7468.1,0.67079
7462.32,0.67704
7456.53,0.67550
7450.74,0.67096
7444.96,0.67236
7439.17,0.67381
7433.38,0.67506
7427.6,0.66728
7421.81,0.67061
7416.03,0.66714
7410.24,0.66826
7404.45,0.66326
7398.67,0.66926
7392.88,0.66076
7387.09,0.65506
7381.31,0.66335
7375.52,0.66406
7369.74,0.66047
7363.95,0.65774
7358.16,0.66748
7352.38,0.66110
7346.59,0.65933
7340.8,0.66381
7335.02,0.65745
7329.23,0.65457
7323.45,0.65395
7317.66,0.65719
7311.87,0.66537
7306.09,0.65828
7300.3,0.65706
7294.51,0.65008
7288.73,0.65961
7282.94,0.65506
7277.16,0.64811
7271.37,0.65488
7265.58,0.64956
7259.8,0.64828
7254.01,0.65102
7248.22,0.64887
7242.44,0.64958
7236.65,0.65144
7230.87,0.64351
7225.08,0.64871
7219.29,0.64821
7213.51,0.64332
7207.72,0.63826
7201.93,0.65179
7196.15,0.64599
7190.36,0.64575
7184.58,0.64676
7178.79,0.64311
7173,0.64159
7167.22,0.64257
7161.43,0.64127
7155.65,0.64539
7149.86,0.64610
7144.07,0.64142
7138.29,0.64552
7132.5,0.64950
7126.71,0.64680
7120.93,0.64085
7115.14,0.65167
7109.36,0.65052
7103.57,0.64991
7097.78,0.64919
7092,0.65210
7086.21,0.64639
7080.42,0.65394
7074.64,0.65938
7068.85,0.65203
7063.07,0.65462
7057.28,0.65282
7051.49,0.65638
7045.71,0.65355
7039.92,0.65039
7034.13,0.65731
7028.35,0.65171
7022.56,0.65402
7016.78,0.65472
7010.99,0.65729
7005.2,0.64935
6999.42,0.65428
6993.63,0.65014
6987.84,0.65771
6982.06,0.64846
6976.27,0.65348
6970.49,0.65326
6964.7,0.65195
6958.91,0.65744
6953.13,0.65490
6947.34,0.66061
6941.55,0.65655
6935.77,0.65344
6929.98,0.65486
6924.2,0.65918
6918.41,0.65848
6912.62,0.65581
6906.84,0.65546
6901.05,0.65610
6895.26,0.65873
6889.48,0.66210
6883.69,0.65843
6877.91,0.65863
6872.12,0.65251
6866.33,0.65557
6860.55,0.66060
6854.76,0.65562
6848.97,0.65381
6843.19,0.65721
6837.4,0.66133
6831.62,0.65832
6825.83,0.65530
6820.04,0.65517
6814.26,0.65637
6808.47,0.66085
6802.68,0.66245
6796.9,0.65008
6791.11,0.65889
6785.33,0.65550
6779.54,0.65412
6773.75,0.64735
6767.97,0.65413
6762.18,0.65402
6756.39,0.65048
6750.61,0.65122
6744.82,0.64412
6739.04,0.63976
6733.25,0.64465
6727.46,0.64485
6721.68,0.64054
6715.89,0.63995
6710.1,0.64131
6704.32,0.63513
6698.53,0.63699
6692.75,0.63279
6686.96,0.62892
6681.17,0.62555
6675.39,0.62690
6669.6,0.62632
6663.82,0.62693
6658.03,0.62393
6652.24,0.62783
6646.46,0.62702
6640.67,0.62558
6634.88,0.62871
6629.1,0.62511
6623.31,0.62928
6617.53,0.62851
6611.74,0.62996
6605.95,0.62615
6600.17,0.62786
6594.38,0.62641
6588.59,0.63052
6582.81,0.62729
6577.02,0.63117
6571.24,0.63105
6565.45,0.62662
6559.66,0.63217
6553.88,0.63970
6548.09,0.63843
6542.3,0.63154
6536.52,0.63857
6530.73,0.63880
6524.95,0.64065
6519.16,0.64455
6513.37,0.64733
6507.59,0.64423
6501.8,0.64467
6496.01,0.64658
6490.23,0.64565
6484.44,0.65111
6478.66,0.64755
6472.87,0.64863
6467.08,0.65012
6461.3,0.64994
6455.51,0.64959
6449.72,0.64949
6443.94,0.65091
6438.15,0.64960
6432.37,0.65211
6426.58,0.65276
6420.79,0.65443
6415.01,0.65457
6409.22,0.65375
6403.43,0.65391
6397.65,0.65338
6391.86,0.65574
6386.08,0.65445
6380.29,0.65818
6374.5,0.65160
6368.72,0.65714
6362.93,0.65546
6357.14,0.65381
6351.36,0.65114
6345.57,0.65104
6339.79,0.65354
6334,0.65121
6328.21,0.65394
6322.43,0.65414
6316.64,0.65076
6310.85,0.65490
6305.07,0.64987
6299.28,0.65015
6293.5,0.65433
6287.71,0.64986
6281.92,0.65110
6276.14,0.65224
6270.35,0.65557
6264.56,0.64888
6258.78,0.65111
6252.99,0.65173
6247.21,0.64859
6241.42,0.65357
6235.63,0.65092
6229.85,0.65542
6224.06,0.65404
6218.27,0.65315
6212.49,0.64911
6206.7,0.65159
6200.92,0.65285
6195.13,0.65227
6189.34,0.65188
6183.56,0.65131
6177.77,0.64886
6171.98,0.65246
6166.2,0.64770
6160.41,0.64782
6154.63,0.64534
6148.84,0.64847
6143.05,0.64373
6137.27,0.64574
6131.48,0.64560
6125.7,0.64368
6119.91,0.64204
6114.12,0.64344
6108.34,0.63783
6102.55,0.63521
6096.76,0.63778
6090.98,0.63830
6085.19,0.63607
6079.41,0.63743
6073.62,0.63453
6067.83,0.63181
6062.05,0.63381
6056.26,0.63037
6050.47,0.62591
6044.69,0.62631
6038.9,0.62660
6033.12,0.62302
6027.33,0.62127
6021.54,0.62083
6015.76,0.61687
6009.97,0.61484
6004.18,0.61179
5998.4,0.60713
5992.61,0.60106
5986.83,0.59551
5981.04,0.58917
5975.25,0.58258
5969.47,0.57395
5963.68,0.55979
5957.89,0.55198
5952.11,0.54198
5946.32,0.53427
5940.54,0.53155
5934.75,0.53266
5928.96,0.53775
5923.18,0.54013
5917.39,0.53807
5911.6,0.52927
5905.82,0.52568
5900.03,0.52339
5894.25,0.52385
5888.46,0.52929
5882.67,0.54110
5876.89,0.54411
5871.1,0.54756
5865.31,0.54828
5859.53,0.54723
5853.74,0.54636
5847.96,0.54665
5842.17,0.54292
5836.38,0.54146
5830.6,0.53664
5824.81,0.53516
5819.02,0.53223
5813.24,0.52962
5807.45,0.52445
5801.67,0.51970
5795.88,0.51923
5790.09,0.51217
5784.31,0.50986
5778.52,0.50839
5772.73,0.50994
5766.95,0.50931
5761.16,0.51232
5755.38,0.51563
5749.59,0.51904
5743.8,0.52309
5738.02,0.52849
5732.23,0.53410
5726.44,0.54025
5720.66,0.54461
5714.87,0.54997
5709.09,0.55327
5703.3,0.55574
5697.51,0.56055
5691.73,0.55999
5685.94,0.56021
5680.15,0.56099
5674.37,0.55802
5668.58,0.55953
5662.8,0.55847
5657.01,0.55991
5651.22,0.56185
5645.44,0.56511
5639.65,0.56627
5633.87,0.56955
5628.08,0.57330
5622.29,0.57637
5616.51,0.57844
5610.72,0.57969
5604.93,0.58191
5599.15,0.58235
5593.36,0.58095
5587.58,0.58264
5581.79,0.58069
5576,0.58107
5570.22,0.58155
5564.43,0.58037
5558.64,0.58321
5552.86,0.58220
5547.07,0.58224
5541.29,0.58134
5535.5,0.58349
5529.71,0.58231
5523.93,0.58340
5518.14,0.58232
5512.35,0.58315
5506.57,0.58546
5500.78,0.58585
5495,0.58790
5489.21,0.58855
5483.42,0.58689
5477.64,0.58806
5471.85,0.58767
5466.06,0.59132
5460.28,0.59044
5454.49,0.58846
5448.71,0.59041
5442.92,0.59053
5437.13,0.59358
5431.35,0.59360
5425.56,0.59717
5419.77,0.60079
5413.99,0.60244
5408.2,0.60527
5402.42,0.60876
5396.63,0.61113
5390.84,0.61182
5385.06,0.61469
5379.27,0.61436
5373.48,0.61636
5367.7,0.61648
5361.91,0.61811
5356.13,0.61624
5350.34,0.61716
5344.55,0.61652
5338.77,0.61579
5332.98,0.61784
5327.19,0.61903
5321.41,0.62025
5315.62,0.62013
5309.84,0.62097
5304.05,0.62006
5298.26,0.61844
5292.48,0.61740
5286.69,0.61785
5280.9,0.61858
5275.12,0.61490
5269.33,0.61454
5263.55,0.61363
5257.76,0.61397
5251.97,0.61112
5246.19,0.61049
5240.4,0.61029
5234.61,0.60918
5228.83,0.60848
5223.04,0.60776
5217.26,0.60640
5211.47,0.60664
5205.68,0.60593
5199.9,0.60573
5194.11,0.60596
5188.32,0.60625
5182.54,0.60629
5176.75,0.60914
5170.97,0.60762
5165.18,0.60699
5159.39,0.60812
5153.61,0.60800
5147.82,0.60801
5142.03,0.60861
5136.25,0.60651
5130.46,0.60665
5124.68,0.60616
5118.89,0.60616
5113.1,0.60461
5107.32,0.60424
5101.53,0.60243
5095.75,0.60095
5089.96,0.59849
5084.17,0.59773
5078.39,0.59347
5072.6,0.59206
5066.81,0.59031
5061.03,0.58832
5055.24,0.58736
5049.46,0.58410
5043.67,0.58183
5037.88,0.57917
5032.1,0.57703
5026.31,0.57445
5020.52,0.57095
5014.74,0.56824
5008.95,0.56818
5003.17,0.56324
4997.38,0.56085
4991.59,0.55695
4985.81,0.55299
4980.02,0.54871
4974.23,0.54380
4968.45,0.53829
4962.66,0.53265
4956.88,0.52634
4951.09,0.52159
4945.3,0.51504
4939.52,0.50960
4933.73,0.50560
4927.94,0.50179
4922.16,0.49813
4916.37,0.49484
4910.59,0.49041
4904.8,0.48549
4899.01,0.48241
4893.23,0.47890
4887.44,0.47655
4881.65,0.47493
4875.87,0.47212
4870.08,0.46985
4864.3,0.46554
4858.51,0.46337
4852.72,0.46056
4846.94,0.45932
4841.15,0.45998
4835.36,0.46162
4829.58,0.46354
4823.79,0.46609
4818.01,0.46929
4812.22,0.47313
4806.43,0.47538
4800.65,0.47979
4794.86,0.48407
4789.07,0.48851
4783.29,0.49108
4777.5,0.49394
4771.72,0.49769
4765.93,0.50052
4760.14,0.50312
4754.36,0.50514
4748.57,0.50539
4742.78,0.50581
4737,0.50682
4731.21,0.50632
4725.43,0.50516
4719.64,0.50459
4713.85,0.50368
4708.07,0.50194
4702.28,0.50061
4696.49,0.49729
4690.71,0.49640
4684.92,0.49167
4679.14,0.48792
4673.35,0.48436
4667.56,0.48007
4661.78,0.47769
4655.99,0.47519
4650.2,0.47277
4644.42,0.47240
4638.63,0.47169
4632.85,0.47014
4627.06,0.46911
4621.27,0.46812
4615.49,0.46783
4609.7,0.46781
4603.92,0.46826
4598.13,0.46832
4592.34,0.46798
4586.56,0.46918
4580.77,0.46959
4574.98,0.46922
4569.2,0.46795
4563.41,0.46732
4557.63,0.46549
4551.84,0.46353
4546.05,0.46421
4540.27,0.46250
4534.48,0.46194
4528.69,0.46256
4522.91,0.46179
4517.12,0.46051
4511.34,0.45921
4505.55,0.45728
4499.76,0.45643
4493.98,0.45467
4488.19,0.45111
4482.4,0.44773
4476.62,0.44344
4470.83,0.43669
4465.05,0.42922
4459.26,0.41798
4453.47,0.40453
4447.69,0.38752
4441.9,0.36903
4436.11,0.34814
4430.33,0.32788
4424.54,0.31064
4418.76,0.29660
4412.97,0.28929
4407.18,0.29068
4401.4,0.29763
4395.61,0.30335
4389.82,0.30291
4384.04,0.29896
4378.25,0.29144
4372.47,0.28417
4366.68,0.27432
4360.89,0.26319
4355.11,0.25232
4349.32,0.24240
4343.53,0.23692
4337.75,0.23255
4331.96,0.23171
4326.18,0.23282
4320.39,0.23774
4314.6,0.24523
4308.82,0.25557
4303.03,0.26784
4297.24,0.27745
4291.46,0.28440
4285.67,0.28748
4279.89,0.28856
4274.1,0.28891
4268.31,0.28937
4262.53,0.29375
4256.74,0.29859
4250.95,0.30320
4245.17,0.30464
4239.38,0.30674
4233.6,0.30889
4227.81,0.31215
4222.02,0.31733
4216.24,0.32245
4210.45,0.32781
4204.66,0.33307
4198.88,0.33616
4193.09,0.33766
4187.31,0.33695
4181.52,0.33473
4175.73,0.33196
4169.95,0.32878
4164.16,0.32569
4158.37,0.32317
4152.59,0.32102
4146.8,0.31903
4141.02,0.31841
4135.23,0.31732
4129.44,0.31653
4123.66,0.31535
4117.87,0.31265
4112.09,0.31013
4106.3,0.30689
4100.51,0.30282
4094.73,0.29751
4088.94,0.29304
4083.15,0.28664
4077.37,0.28147
4071.58,0.27790
4065.8,0.27367
4060.01,0.27054
4054.22,0.26774
4048.44,0.26552
4042.65,0.26395
4036.86,0.26230
4031.08,0.26163
4025.29,0.26196
4019.51,0.26227
4013.72,0.26361
4007.93,0.26456
4002.15,0.26509
3996.36,0.26764
3990.57,0.26990
3984.79,0.27376
3979,0.27841
3973.22,0.28314
3967.43,0.28761
3961.64,0.29294
3955.86,0.29847
3950.07,0.30484
3944.28,0.31178
3938.5,0.31935
3932.71,0.32699
3926.93,0.33432
3921.14,0.33957
3915.35,0.34415
3909.57,0.34800
3903.78,0.35106
3897.99,0.35303
3892.21,0.35470
3886.42,0.35590
3880.64,0.35702
3874.85,0.35811
3869.06,0.35910
3863.28,0.36008
3857.49,0.36025
3851.7,0.36040
3845.92,0.36240
3840.13,0.36532
3834.35,0.36864
3828.56,0.37210
3822.77,0.37442
3816.99,0.37623
3811.2,0.37669
3805.41,0.37776
3799.63,0.37799
3793.84,0.37883
3788.06,0.38037
3782.27,0.38446
3776.48,0.38915
3770.7,0.39397
3764.91,0.39980
3759.12,0.40639
3753.34,0.41233
3747.55,0.41843
3741.77,0.42298
3735.98,0.42676
3730.19,0.43025
3724.41,0.43310
3718.62,0.43525
3712.83,0.43795
3707.05,0.43999
3701.26,0.44058
3695.48,0.43975
3689.69,0.43730
3683.9,0.43416
3678.12,0.43029
3672.33,0.42524
3666.54,0.41974
3660.76,0.41336
3654.97,0.40646
3649.19,0.40018
3643.4,0.39218
3637.61,0.38534
3631.83,0.37896
3626.04,0.37228
3620.25,0.36588
3614.47,0.35989
3608.68,0.35393
3602.9,0.34787
3597.11,0.34382
3591.32,0.33943
3585.54,0.33562
3579.75,0.33145
3573.97,0.32691
3568.18,0.32192
3562.39,0.31695
3556.61,0.31176
3550.82,0.30565
3545.03,0.30062
3539.25,0.29437
3533.46,0.28746
3527.68,0.28146
3521.89,0.27546
3516.1,0.26951
3510.32,0.26453
3504.53,0.25884
3498.74,0.25353
3492.96,0.24629
3487.17,0.23756
3481.39,0.22798
3475.6,0.21734
3469.81,0.20495
3464.03,0.18936
3458.24,0.17831
3452.45,0.17091
3446.67,0.16451
3440.88,0.15621
3435.1,0.14393
3429.31,0.12847
3423.52,0.10905
3417.74,0.09530
3411.95,0.08834
3406.16,0.08593
3400.38,0.08251
3394.59,0.07701
3388.81,0.07132
3383.02,0.06527
3377.23,0.06118
3371.45,0.05834
3365.66,0.05648
3359.87,0.05452
3354.09,0.05333
3348.3,0.05116
3342.52,0.05015
3336.73,0.04883
3330.94,0.04782
3325.16,0.04661
3319.37,0.04637
3313.58,0.04529
3307.8,0.04497
3302.01,0.04477
3296.23,0.04435
3290.44,0.04437
3284.65,0.04489
3278.87,0.04540
3273.08,0.04537
3267.29,0.04609
3261.51,0.04682
3255.72,0.04764
3249.94,0.04889
3244.15,0.04925
3238.36,0.05129
3232.58,0.05373
3226.79,0.05443
3221,0.05627
3215.22,0.05748
3209.43,0.05882
3203.65,0.05965
3197.86,0.06075
3192.07,0.06208
3186.29,0.06329
3180.5,0.06572
3174.71,0.06678
3168.93,0.06846
3163.14,0.06955
3157.36,0.07185
3151.57,0.07259
3145.78,0.07395
3140,0.07486
3134.21,0.07561
3128.42,0.07626
3122.64,0.07753
3116.85,0.07819
3111.07,0.07776
3105.28,0.07813
3099.49,0.07848
3093.71,0.07749
3087.92,0.07685
3082.14,0.07581
3076.35,0.07466
3070.56,0.07455
3064.78,0.07430
3058.99,0.07536
3053.2,0.07597
3047.42,0.07701
3041.63,0.07617
3035.85,0.07426
3030.06,0.07488
3024.27,0.07484
3018.49,0.07446
3012.7,0.07203
3006.91,0.06635
3001.13,0.05934
2995.34,0.05082
2989.56,0.04456
2983.77,0.04140
2977.98,0.03989
2972.2,0.03999
2966.41,0.04205
2960.62,0.04498
2954.84,0.04639
2949.05,0.04600
2943.27,0.04343
2937.48,0.04155
2931.69,0.04059
2925.91,0.04106
2920.12,0.04163
2914.33,0.04245
2908.55,0.04188
2902.76,0.04176
2896.98,0.04204
2891.19,0.04202
2885.4,0.04220
2879.62,0.04188
2873.83,0.04215
2868.04,0.04257
2862.26,0.04346
2856.47,0.04571
2850.69,0.04758
2844.9,0.05125
2839.11,0.05637
2833.33,0.06228
2827.54,0.06825
2821.75,0.07263
2815.97,0.07597
2810.18,0.07781
2804.4,0.07877
2798.61,0.08018
2792.82,0.08197
2787.04,0.08373
2781.25,0.08606
2775.46,0.08864
2769.68,0.09191
2763.89,0.09577
2758.11,0.09840
2752.32,0.10154
2746.53,0.10452
2740.75,0.10677
2734.96,0.10987
2729.17,0.11468
2723.39,0.12084
2717.6,0.12717
2711.82,0.13355
2706.03,0.13896
2700.24,0.14384
2694.46,0.15002
2688.67,0.15573
2682.88,0.15916
2677.1,0.16109
2671.31,0.16295
2665.53,0.16680
2659.74,0.17171
2653.95,0.17582
2648.17,0.17826
2642.38,0.17990
2636.59,0.18363
2630.81,0.18903
2625.02,0.19600
2619.24,0.20071
2613.45,0.20208
2607.66,0.20158
2601.88,0.19975
2596.09,0.19900
2590.3,0.19974
2584.52,0.20233
2578.73,0.20832
2572.95,0.21946
2567.16,0.23108
2561.37,0.24125
2555.59,0.24697
2549.8,0.25051
2544.02,0.25353
2538.23,0.25643
2532.44,0.25940
2526.66,0.26258
2520.87,0.26497
2515.08,0.26631
2509.3,0.26653
2503.51,0.26630
2497.73,0.26630
2491.94,0.26597
2486.15,0.26608
2480.37,0.26563
2474.58,0.26548
2468.79,0.26643
2463.01,0.26882
2457.22,0.27072
2451.44,0.27318
2445.65,0.27575
2439.86,0.27926
2434.08,0.28232
2428.29,0.28532
2422.5,0.28694
2416.72,0.28628
2410.93,0.28361
2405.15,0.28065
2399.36,0.27882
2393.57,0.27602
2387.79,0.27306
2382,0.27062
2376.21,0.26837
2370.43,0.26724
2364.64,0.26626
2358.86,0.26564
2353.07,0.26377
2347.28,0.26138
2341.5,0.25807
2335.71,0.25241
2329.92,0.24570
2324.14,0.23661
2318.35,0.22527
2312.57,0.21127
2306.78,0.19421
2300.99,0.17493
2295.21,0.15354
2289.42,0.13202
2283.63,0.11352
2277.85,0.10196
2272.06,0.10003
2266.28,0.10934
2260.49,0.12815
2254.7,0.14966
2248.92,0.16941
2243.13,0.18393
2237.34,0.19480
2231.56,0.20396
2225.77,0.20993
2219.99,0.21398
2214.2,0.21766
2208.41,0.22171
2202.63,0.22508
2196.84,0.22821
2191.05,0.23089
2185.27,0.23256
2179.48,0.23398
2173.7,0.23499
2167.91,0.23630
2162.12,0.23747
2156.34,0.23884
2150.55,0.24102
2144.76,0.24262
2138.98,0.24412
2133.19,0.24573
2127.41,0.24718
2121.62,0.24889
2115.83,0.24982
2110.05,0.25017
2104.26,0.24970
2098.47,0.24862
2092.69,0.24714
2086.9,0.24549
2081.12,0.24352
2075.33,0.24175
2069.54,0.24020
2063.76,0.23832
2057.97,0.23678
2052.19,0.23426
2046.4,0.23117
2040.61,0.22667
2034.83,0.22236
2029.04,0.21819
2023.25,0.21473
2017.47,0.21365
2011.68,0.21252
2005.9,0.21327
2000.11,0.21438
1994.32,0.21561
1988.54,0.21621
1982.75,0.21694
1976.96,0.21701
1971.18,0.21701
1965.39,0.21668
1959.61,0.21636
1953.82,0.21587
1948.03,0.21554
1942.25,0.21502
1936.46,0.21471
1930.67,0.21269
1924.89,0.21068
1919.1,0.20919
1913.32,0.20898
1907.53,0.20995
1901.74,0.21059
1895.96,0.21094
1890.17,0.21031
1884.38,0.21049
1878.6,0.21203
1872.81,0.21357
1867.03,0.21409
1861.24,0.21331
1855.45,0.21187
1849.67,0.21034
1843.88,0.20804
1838.09,0.20491
1832.31,0.20066
1826.52,0.19582
1820.74,0.19036
1814.95,0.18397
1809.16,0.17631
1803.38,0.16801
1797.59,0.15857
1791.8,0.14925
1786.02,0.14088
1780.23,0.13324
1774.45,0.12637
1768.66,0.11794
1762.87,0.10603
1757.09,0.08868
1751.3,0.06737
1745.51,0.04749
1739.73,0.03694
1733.94,0.03335
1728.16,0.03313
1722.37,0.03431
1716.58,0.03510
1710.8,0.03676
1705.01,0.03777
1699.22,0.03825
1693.44,0.03817
1687.65,0.03870
1681.87,0.03729
1676.08,0.03663
1670.29,0.03547
1664.51,0.03458
1658.72,0.03309
1652.93,0.03187
1647.15,0.03033
1641.36,0.03073
1635.58,0.03400
1629.79,0.03591
1624,0.03666
1618.22,0.03531
1612.43,0.03374
1606.64,0.03282
1600.86,0.03263
1595.07,0.03337
1589.29,0.03418
1583.5,0.03514
1577.71,0.03508
1571.93,0.03215
1566.14,0.03038
1560.35,0.03039
1554.57,0.03074
1548.78,0.03154
1543,0.03309
1537.21,0.03326
1531.42,0.03464
1525.64,0.03582
1519.85,0.03715
1514.07,0.03738
1508.28,0.03767
1502.49,0.03818
1496.71,0.03937
1490.92,0.03968
1485.13,0.03883
1479.35,0.03773
1473.56,0.03851
1467.78,0.03870
1461.99,0.03823
1456.2,0.03771
1450.42,0.03801
1444.63,0.03964
1438.84,0.04210
1433.06,0.04503
1427.27,0.04471
1421.49,0.04259
1415.7,0.04033
1409.91,0.04073
1404.13,0.04133
1398.34,0.04204
1392.55,0.04157
1386.77,0.03940
1380.98,0.03649
1375.2,0.03563
1369.41,0.03879
1363.62,0.04347
1357.84,0.04576
1352.05,0.04352
1346.26,0.04057
1340.48,0.04060
1334.69,0.04067
1328.91,0.04032
1323.12,0.03859
1317.33,0.03707
1311.55,0.03574
1305.76,0.03492
1299.97,0.03445
1294.19,0.03461
1288.4,0.03534
1282.62,0.03582
1276.83,0.03551
1271.04,0.03482
1265.26,0.03472
1259.47,0.03460
1253.68,0.03405
1247.9,0.03325
1242.11,0.03199
1236.33,0.03138
1230.54,0.03184
1224.75,0.03292
1218.97,0.03457
1213.18,0.03548
1207.39,0.03583
1201.61,0.03623
1195.82,0.03620
1190.04,0.03518
1184.25,0.03364
1178.46,0.03250
1172.68,0.03087
1166.89,0.02969
1161.1,0.02941
1155.32,0.02842
1149.53,0.02854
1143.75,0.02834
1137.96,0.02837
1132.17,0.02809
1126.39,0.02916
1120.6,0.03052
1114.81,0.03254
1109.03,0.03523
1103.24,0.03724
1097.46,0.03952
1091.67,0.04104
1085.88,0.04185
1080.1,0.04263
1074.31,0.04404
1068.52,0.04498
1062.74,0.04561
1056.95,0.04716
1051.17,0.04849
1045.38,0.05093
1039.59,0.05216
1033.81,0.05331
1028.02,0.05346
1022.24,0.05111
1016.45,0.04953
1010.66,0.05054
1004.88,0.05150
999.09,0.05400
993.304,0.06169
987.518,0.06798
981.731,0.07093
975.945,0.06993
970.159,0.06868
964.373,0.06989
958.586,0.07262
952.8,0.07361
947.014,0.06726
941.228,0.05861
935.441,0.05376
929.655,0.05166
923.869,0.05236
918.083,0.05655
912.297,0.05852
906.51,0.06016
900.724,0.06427
894.938,0.06749
889.152,0.06618
883.365,0.06269
877.579,0.06086
871.793,0.05993
866.007,0.06072
860.22,0.06153
854.434,0.06369
848.648,0.06436
842.862,0.06342
837.075,0.06034
831.289,0.05700
825.503,0.05342
819.717,0.05066
813.931,0.05090
808.144,0.05355
802.358,0.05729
796.572,0.06203
790.786,0.06274
784.999,0.06363
779.213,0.06299
773.427,0.05969
767.641,0.05479
761.854,0.05456
756.068,0.05469
750.282,0.05946
744.496,0.06567
738.709,0.06981
732.923,0.06861
727.137,0.06548
721.351,0.06102
715.565,0.05563
709.778,0.05311
703.992,0.05484
698.206,0.05368
692.42,0.05148
686.633,0.04989
680.847,0.04976
675.061,0.04820
669.275,0.04934
663.488,0.04888
657.702,0.05282
651.916,0.05444
646.13,0.05557
640.343,0.05568
634.557,0.05677
628.771,0.05923
622.985,0.05886
617.198,0.05739
611.412,0.05945
605.626,0.05796
599.84,0.05744