File: 01_Data/PUF_Mattress_Pad/FTIR/IS/PUF_Mattress_Pad_IS_S_221003_R1.dpt
7497.03,0.66888
7491.25,0.68056
7485.46,0.67840
7479.67,0.67276
7473.89,0.68608
7468.1,0.67097
7462.32,0.67152
7456.53,0.67200
7450.74,0.66856
7444.96,0.66810
7439.17,0.67179
7433.38,0.66607
7427.6,0.67497
7421.81,0.68976
7416.03,0.67836
7410.24,0.66610
7404.45,0.66038
7398.67,0.66300
7392.88,0.66185
7387.09,0.66156
7381.31,0.65183
7375.52,0.66222
7369.74,0.64712
7363.95,0.65848
7358.16,0.65262
7352.38,0.66604
7346.59,0.65929
7340.8,0.66292
7335.02,0.66136
7329.23,0.64944
7323.45,0.64898
7317.66,0.65239
7311.87,0.65425
7306.09,0.65637
7300.3,0.66668
7294.51,0.65182
7288.73,0.65958
7282.94,0.65082
7277.16,0.63921
7271.37,0.65023
7265.58,0.64594
7259.8,0.64852
7254.01,0.65174
7248.22,0.64786
7242.44,0.64320
7236.65,0.65134
7230.87,0.64694
7225.08,0.65164
7219.29,0.63781
7213.51,0.63887
7207.72,0.64257
7201.93,0.64679
7196.15,0.63089
7190.36,0.64817
7184.58,0.64179
7178.79,0.64074
7173,0.64843
7167.22,0.63898
7161.43,0.64305
7155.65,0.64252
7149.86,0.64402
7144.07,0.64553
7138.29,0.64958
7132.5,0.65070
7126.71,0.65151
7120.93,0.64822
7115.14,0.64370
7109.36,0.64316
7103.57,0.65532
7097.78,0.65137
7092,0.64931
7086.21,0.64970
7080.42,0.65012
7074.64,0.65266
7068.85,0.64668
7063.07,0.65037
7057.28,0.64860
7051.49,0.65169
7045.71,0.65054
7039.92,0.65124
7034.13,0.65811
7028.35,0.65472
7022.56,0.65079
7016.78,0.64808
7010.99,0.64872
7005.2,0.65373
6999.42,0.65097
6993.63,0.64688
6987.84,0.65083
6982.06,0.65229
6976.27,0.65450
6970.49,0.64895
6964.7,0.65033
6958.91,0.65544
6953.13,0.65449
6947.34,0.65209
6941.55,0.65281
6935.77,0.65330
6929.98,0.65355
6924.2,0.65511
6918.41,0.65694
6912.62,0.65905
6906.84,0.65934
6901.05,0.65419
6895.26,0.65281
6889.48,0.65278
6883.69,0.64884
6877.91,0.65309
6872.12,0.65252
6866.33,0.65068
6860.55,0.65010
6854.76,0.65362
6848.97,0.65528
6843.19,0.65382
6837.4,0.65939
6831.62,0.65252
6825.83,0.65298
6820.04,0.65154
6814.26,0.65715
6808.47,0.65297
6802.68,0.65205
6796.9,0.64526
6791.11,0.65037
6785.33,0.65082
6779.54,0.65323
6773.75,0.64732
6767.97,0.64711
6762.18,0.64557
6756.39,0.64850
6750.61,0.63849
6744.82,0.64148
6739.04,0.64816
6733.25,0.64570
6727.46,0.64279
6721.68,0.63933
6715.89,0.63627
6710.1,0.63362
6704.32,0.63037
6698.53,0.62965
6692.75,0.63062
6686.96,0.62410
6681.17,0.62202
6675.39,0.62533
6669.6,0.62165
6663.82,0.62354
6658.03,0.62775
6652.24,0.62589
6646.46,0.62215
6640.67,0.62262
6634.88,0.62161
6629.1,0.62311
6623.31,0.62460
6617.53,0.62539
6611.74,0.62151
6605.95,0.62095
6600.17,0.62490
6594.38,0.62576
6588.59,0.62250
6582.81,0.62683
6577.02,0.62708
6571.24,0.62808
6565.45,0.63195
6559.66,0.63208
6553.88,0.63378
6548.09,0.63483
6542.3,0.63612
6536.52,0.63743
6530.73,0.63573
6524.95,0.64047
6519.16,0.64500
6513.37,0.64641
6507.59,0.64165
6501.8,0.64413
6496.01,0.64702
6490.23,0.64004
6484.44,0.64592
6478.66,0.64405
6472.87,0.64874
6467.08,0.64636
6461.3,0.64930
6455.51,0.64992
6449.72,0.65140
6443.94,0.65135
6438.15,0.64758
6432.37,0.64519
6426.58,0.64763
6420.79,0.64540
6415.01,0.64695
6409.22,0.64556
6403.43,0.64721
6397.65,0.65098
6391.86,0.65176
6386.08,0.65064
6380.29,0.64987
6374.5,0.64978
6368.72,0.64894
6362.93,0.65134
6357.14,0.65179
6351.36,0.64946
6345.57,0.65007
6339.79,0.65446
6334,0.65182
6328.21,0.65030
6322.43,0.64661
6316.64,0.64687
6310.85,0.64857
6305.07,0.65224
6299.28,0.64948
6293.5,0.65115
6287.71,0.64948
6281.92,0.65397
6276.14,0.65345
6270.35,0.64927
6264.56,0.65079
6258.78,0.64841
6252.99,0.64870
6247.21,0.64688
6241.42,0.64863
6235.63,0.64974
6229.85,0.64883
6224.06,0.65105
6218.27,0.64950
6212.49,0.65003
6206.7,0.65237
6200.92,0.65315
6195.13,0.64982
6189.34,0.64923
6183.56,0.64655
6177.77,0.64868
6171.98,0.64619
6166.2,0.64696
6160.41,0.64897
6154.63,0.64437
6148.84,0.64624
6143.05,0.64732
6137.27,0.64767
6131.48,0.64492
6125.7,0.64437
6119.91,0.64211
6114.12,0.63919
6108.34,0.63748
6102.55,0.63449
6096.76,0.63699
6090.98,0.63555
6085.19,0.63191
6079.41,0.63147
6073.62,0.63193
6067.83,0.62903
6062.05,0.62949
6056.26,0.63004
6050.47,0.62669
6044.69,0.62555
6038.9,0.62110
6033.12,0.62139
6027.33,0.62123
6021.54,0.61620
6015.76,0.61556
6009.97,0.61417
6004.18,0.61135
5998.4,0.60575
5992.61,0.60101
5986.83,0.59321
5981.04,0.58657
5975.25,0.58025
5969.47,0.57409
5963.68,0.56208
5957.89,0.55164
5952.11,0.54104
5946.32,0.53351
5940.54,0.53019
5934.75,0.53328
5928.96,0.53714
5923.18,0.53975
5917.39,0.53465
5911.6,0.52936
5905.82,0.52432
5900.03,0.51767
5894.25,0.52031
5888.46,0.52954
5882.67,0.53635
5876.89,0.53878
5871.1,0.54419
5865.31,0.54450
5859.53,0.54732
5853.74,0.54616
5847.96,0.54221
5842.17,0.54312
5836.38,0.53803
5830.6,0.53651
5824.81,0.53360
5819.02,0.52787
5813.24,0.52523
5807.45,0.52213
5801.67,0.51533
5795.88,0.51683
5790.09,0.51169
5784.31,0.50821
5778.52,0.50679
5772.73,0.50361
5766.95,0.50606
5761.16,0.51003
5755.38,0.51412
5749.59,0.51525
5743.8,0.52116
5738.02,0.52758
5732.23,0.52952
5726.44,0.53679
5720.66,0.54226
5714.87,0.54555
5709.09,0.55049
5703.3,0.55657
5697.51,0.55689
5691.73,0.55918
5685.94,0.55944
5680.15,0.55767
5674.37,0.55732
5668.58,0.55841
5662.8,0.55885
5657.01,0.55631
5651.22,0.56046
5645.44,0.55949
5639.65,0.56482
5633.87,0.56614
5628.08,0.56957
5622.29,0.57284
5616.51,0.57654
5610.72,0.57651
5604.93,0.57781
5599.15,0.57778
5593.36,0.57908
5587.58,0.58011
5581.79,0.57769
5576,0.57903
5570.22,0.57609
5564.43,0.57962
5558.64,0.57823
5552.86,0.58079
5547.07,0.58023
5541.29,0.57904
5535.5,0.57845
5529.71,0.57924
5523.93,0.57959
5518.14,0.57961
5512.35,0.58083
5506.57,0.58224
5500.78,0.58252
5495,0.58407
5489.21,0.58599
5483.42,0.58715
5477.64,0.58733
5471.85,0.58657
5466.06,0.58733
5460.28,0.58642
5454.49,0.58849
5448.71,0.58574
5442.92,0.58985
5437.13,0.58957
5431.35,0.59143
5425.56,0.59344
5419.77,0.59678
5413.99,0.60006
5408.2,0.60343
5402.42,0.60478
5396.63,0.60541
5390.84,0.61052
5385.06,0.61279
5379.27,0.61297
5373.48,0.61232
5367.7,0.61327
5361.91,0.61486
5356.13,0.61223
5350.34,0.61395
5344.55,0.61516
5338.77,0.61332
5332.98,0.61409
5327.19,0.61610
5321.41,0.61556
5315.62,0.61556
5309.84,0.61643
5304.05,0.61489
5298.26,0.61422
5292.48,0.61218
5286.69,0.61176
5280.9,0.60933
5275.12,0.60725
5269.33,0.60439
5263.55,0.60429
5257.76,0.60178
5251.97,0.59941
5246.19,0.59797
5240.4,0.59593
5234.61,0.59523
5228.83,0.59384
5223.04,0.59491
5217.26,0.59358
5211.47,0.59255
5205.68,0.59371
5199.9,0.59176
5194.11,0.59331
5188.32,0.59487
5182.54,0.59661
5176.75,0.59526
5170.97,0.59633
5165.18,0.59771
5159.39,0.59732
5153.61,0.59594
5147.82,0.59620
5142.03,0.59590
5136.25,0.59716
5130.46,0.59657
5124.68,0.59618
5118.89,0.59620
5113.1,0.59649
5107.32,0.59576
5101.53,0.59450
5095.75,0.59164
5089.96,0.59090
5084.17,0.59003
5078.39,0.58901
5072.6,0.58672
5066.81,0.58573
5061.03,0.58306
5055.24,0.58183
5049.46,0.57908
5043.67,0.57632
5037.88,0.57462
5032.1,0.57311
5026.31,0.56923
5020.52,0.56756
5014.74,0.56576
5008.95,0.56340
5003.17,0.56073
4997.38,0.55653
4991.59,0.55415
4985.81,0.54920
4980.02,0.54429
4974.23,0.53965
4968.45,0.53340
4962.66,0.52718
4956.88,0.52339
4951.09,0.51779
4945.3,0.51177
4939.52,0.50556
4933.73,0.50157
4927.94,0.49831
4922.16,0.49535
4916.37,0.49137
4910.59,0.48630
4904.8,0.48188
4899.01,0.47842
4893.23,0.47643
4887.44,0.47379
4881.65,0.47202
4875.87,0.47013
4870.08,0.46542
4864.3,0.46275
4858.51,0.45981
4852.72,0.45749
4846.94,0.45672
4841.15,0.45642
4835.36,0.45776
4829.58,0.45983
4823.79,0.46267
4818.01,0.46593
4812.22,0.46897
4806.43,0.47304
4800.65,0.47659
4794.86,0.48067
4789.07,0.48340
4783.29,0.48774
4777.5,0.49053
4771.72,0.49542
4765.93,0.49759
4760.14,0.50029
4754.36,0.50160
4748.57,0.50139
4742.78,0.50283
4737,0.50309
4731.21,0.50311
4725.43,0.50098
4719.64,0.50177
4713.85,0.50036
4708.07,0.49867
4702.28,0.49718
4696.49,0.49423
4690.71,0.49299
4684.92,0.48941
4679.14,0.48442
4673.35,0.48098
4667.56,0.47734
4661.78,0.47371
4655.99,0.47160
4650.2,0.47106
4644.42,0.46886
4638.63,0.46812
4632.85,0.46687
4627.06,0.46608
4621.27,0.46552
4615.49,0.46449
4609.7,0.46421
4603.92,0.46444
4598.13,0.46457
4592.34,0.46441
4586.56,0.46607
4580.77,0.46517
4574.98,0.46540
4569.2,0.46458
4563.41,0.46446
4557.63,0.46259
4551.84,0.46144
4546.05,0.46125
4540.27,0.46061
4534.48,0.45932
4528.69,0.45904
4522.91,0.45770
4517.12,0.45713
4511.34,0.45695
4505.55,0.45432
4499.76,0.45277
4493.98,0.45112
4488.19,0.44738
4482.4,0.44361
4476.62,0.43869
4470.83,0.43320
4465.05,0.42610
4459.26,0.41474
4453.47,0.40144
4447.69,0.38489
4441.9,0.36587
4436.11,0.34526
4430.33,0.32543
4424.54,0.30840
4418.76,0.29491
4412.97,0.28720
4407.18,0.28870
4401.4,0.29563
4395.61,0.30102
4389.82,0.30034
4384.04,0.29566
4378.25,0.28982
4372.47,0.28141
4366.68,0.27229
4360.89,0.26094
4355.11,0.25093
4349.32,0.24145
4343.53,0.23438
4337.75,0.23069
4331.96,0.22937
4326.18,0.23115
4320.39,0.23523
4314.6,0.24337
4308.82,0.25370
4303.03,0.26527
4297.24,0.27554
4291.46,0.28213
4285.67,0.28531
4279.89,0.28620
4274.1,0.28649
4268.31,0.28848
4262.53,0.29221
4256.74,0.29704
4250.95,0.30040
4245.17,0.30288
4239.38,0.30457
4233.6,0.30684
4227.81,0.31009
4222.02,0.31426
4216.24,0.31982
4210.45,0.32482
4204.66,0.33056
4198.88,0.33384
4193.09,0.33432
4187.31,0.33392
4181.52,0.33198
4175.73,0.32939
4169.95,0.32575
4164.16,0.32254
4158.37,0.32083
4152.59,0.31720
4146.8,0.31642
4141.02,0.31658
4135.23,0.31522
4129.44,0.31383
4123.66,0.31291
4117.87,0.31042
4112.09,0.30693
4106.3,0.30376
4100.51,0.29912
4094.73,0.29565
4088.94,0.28963
4083.15,0.28396
4077.37,0.27925
4071.58,0.27473
4065.8,0.27093
4060.01,0.26779
4054.22,0.26492
4048.44,0.26268
4042.65,0.26100
4036.86,0.25958
4031.08,0.25909
4025.29,0.25944
4019.51,0.26043
4013.72,0.26052
4007.93,0.26160
4002.15,0.26301
3996.36,0.26466
3990.57,0.26742
3984.79,0.27134
3979,0.27510
3973.22,0.27990
3967.43,0.28472
3961.64,0.28963
3955.86,0.29530
3950.07,0.30176
3944.28,0.30852
3938.5,0.31601
3932.71,0.32364
3926.93,0.33054
3921.14,0.33647
3915.35,0.34049
3909.57,0.34452
3903.78,0.34831
3897.99,0.34980
3892.21,0.35109
3886.42,0.35322
3880.64,0.35474
3874.85,0.35567
3869.06,0.35651
3863.28,0.35650
3857.49,0.35631
3851.7,0.35831
3845.92,0.35930
3840.13,0.36264
3834.35,0.36535
3828.56,0.36748
3822.77,0.37084
3816.99,0.37282
3811.2,0.37288
3805.41,0.37391
3799.63,0.37448
3793.84,0.37442
3788.06,0.37527
3782.27,0.37970
3776.48,0.38348
3770.7,0.38894
3764.91,0.39485
3759.12,0.40122
3753.34,0.40702
3747.55,0.41271
3741.77,0.41643
3735.98,0.42019
3730.19,0.42250
3724.41,0.42576
3718.62,0.42611
3712.83,0.42791
3707.05,0.42729
3701.26,0.42599
3695.48,0.42068
3689.69,0.41375
3683.9,0.40191
3678.12,0.39565
3672.33,0.38593
3666.54,0.37390
3660.76,0.36333
3654.97,0.35333
3649.19,0.34459
3643.4,0.33249
3637.61,0.32291
3631.83,0.31523
3626.04,0.30494
3620.25,0.29782
3614.47,0.28947
3608.68,0.28174
3602.9,0.27460
3597.11,0.27000
3591.32,0.26529
3585.54,0.26099
3579.75,0.25654
3573.97,0.25320
3568.18,0.25012
3562.39,0.24599
3556.61,0.24210
3550.82,0.23734
3545.03,0.23340
3539.25,0.22736
3533.46,0.22177
3527.68,0.21673
3521.89,0.21236
3516.1,0.20788
3510.32,0.20540
3504.53,0.20272
3498.74,0.20013
3492.96,0.19594
3487.17,0.19176
3481.39,0.18578
3475.6,0.18079
3469.81,0.17254
3464.03,0.16361
3458.24,0.15573
3452.45,0.15168
3446.67,0.14686
3440.88,0.14143
3435.1,0.13284
3429.31,0.11951
3423.52,0.10360
3417.74,0.09143
3411.95,0.08573
3406.16,0.08321
3400.38,0.08032
3394.59,0.07445
3388.81,0.06944
3383.02,0.06412
3377.23,0.06027
3371.45,0.05769
3365.66,0.05536
3359.87,0.05362
3354.09,0.05228
3348.3,0.05044
3342.52,0.04957
3336.73,0.04898
3330.94,0.04776
3325.16,0.04657
3319.37,0.04584
3313.58,0.04502
3307.8,0.04519
3302.01,0.04461
3296.23,0.04444
3290.44,0.04381
3284.65,0.04425
3278.87,0.04419
3273.08,0.04507
3267.29,0.04566
3261.51,0.04592
3255.72,0.04688
3249.94,0.04888
3244.15,0.04925
3238.36,0.05123
3232.58,0.05316
3226.79,0.05468
3221,0.05619
3215.22,0.05707
3209.43,0.05775
3203.65,0.05890
3197.86,0.05996
3192.07,0.06145
3186.29,0.06255
3180.5,0.06530
3174.71,0.06597
3168.93,0.06782
3163.14,0.06913
3157.36,0.07003
3151.57,0.07215
3145.78,0.07224
3140,0.07389
3134.21,0.07433
3128.42,0.07512
3122.64,0.07555
3116.85,0.07698
3111.07,0.07752
3105.28,0.07777
3099.49,0.07683
3093.71,0.07621
3087.92,0.07506
3082.14,0.07467
3076.35,0.07359
3070.56,0.07338
3064.78,0.07389
3058.99,0.07410
3053.2,0.07513
3047.42,0.07599
3041.63,0.07559
3035.85,0.07436
3030.06,0.07367
3024.27,0.07324
3018.49,0.07415
3012.7,0.07141
3006.91,0.06597
3001.13,0.05817
2995.34,0.05066
2989.56,0.04500
2983.77,0.04132
2977.98,0.04002
2972.2,0.03960
2966.41,0.04106
2960.62,0.04477
2954.84,0.04637
2949.05,0.04537
2943.27,0.04348
2937.48,0.04039
2931.69,0.03996
2925.91,0.04089
2920.12,0.04162
2914.33,0.04222
2908.55,0.04138
2902.76,0.04139
2896.98,0.04121
2891.19,0.04205
2885.4,0.04217
2879.62,0.04147
2873.83,0.04180
2868.04,0.04201
2862.26,0.04284
2856.47,0.04490
2850.69,0.04714
2844.9,0.05052
2839.11,0.05599
2833.33,0.06174
2827.54,0.06767
2821.75,0.07215
2815.97,0.07505
2810.18,0.07748
2804.4,0.07801
2798.61,0.07951
2792.82,0.08100
2787.04,0.08313
2781.25,0.08526
2775.46,0.08794
2769.68,0.09147
2763.89,0.09415
2758.11,0.09787
2752.32,0.10094
2746.53,0.10420
2740.75,0.10666
2734.96,0.10918
2729.17,0.11346
2723.39,0.11957
2717.6,0.12637
2711.82,0.13265
2706.03,0.13797
2700.24,0.14278
2694.46,0.14895
2688.67,0.15446
2682.88,0.15798
2677.1,0.15961
2671.31,0.16221
2665.53,0.16550
2659.74,0.17042
2653.95,0.17424
2648.17,0.17672
2642.38,0.17870
2636.59,0.18195
2630.81,0.18769
2625.02,0.19418
2619.24,0.19922
2613.45,0.20088
2607.66,0.19985
2601.88,0.19842
2596.09,0.19732
2590.3,0.19771
2584.52,0.20044
2578.73,0.20692
2572.95,0.21727
2567.16,0.22891
2561.37,0.23912
2555.59,0.24510
2549.8,0.24873
2544.02,0.25134
2538.23,0.25430
2532.44,0.25704
2526.66,0.26060
2520.87,0.26290
2515.08,0.26408
2509.3,0.26449
2503.51,0.26375
2497.73,0.26380
2491.94,0.26344
2486.15,0.26355
2480.37,0.26319
2474.58,0.26328
2468.79,0.26433
2463.01,0.26652
2457.22,0.26810
2451.44,0.27019
2445.65,0.27325
2439.86,0.27685
2434.08,0.27981
2428.29,0.28262
2422.5,0.28419
2416.72,0.28345
2410.93,0.28087
2405.15,0.27848
2399.36,0.27577
2393.57,0.27318
2387.79,0.27052
2382,0.26816
2376.21,0.26683
2370.43,0.26631
2364.64,0.26584
2358.86,0.26492
2353.07,0.26260
2347.28,0.26026
2341.5,0.25710
2335.71,0.25181
2329.92,0.24484
2324.14,0.23557
2318.35,0.22387
2312.57,0.21001
2306.78,0.19320
2300.99,0.17351
2295.21,0.15198
2289.42,0.13084
2283.63,0.11241
2277.85,0.10093
2272.06,0.09953
2266.28,0.10885
2260.49,0.12703
2254.7,0.14908
2248.92,0.16808
2243.13,0.18282
2237.34,0.19305
2231.56,0.20154
2225.77,0.20807
2219.99,0.21174
2214.2,0.21547
2208.41,0.21902
2202.63,0.22322
2196.84,0.22634
2191.05,0.22795
2185.27,0.22995
2179.48,0.23142
2173.7,0.23208
2167.91,0.23316
2162.12,0.23462
2156.34,0.23560
2150.55,0.23724
2144.76,0.23924
2138.98,0.24098
2133.19,0.24231
2127.41,0.24367
2121.62,0.24499
2115.83,0.24612
2110.05,0.24668
2104.26,0.24623
2098.47,0.24469
2092.69,0.24347
2086.9,0.24171
2081.12,0.24006
2075.33,0.23820
2069.54,0.23618
2063.76,0.23485
2057.97,0.23329
2052.19,0.23114
2046.4,0.22768
2040.61,0.22363
2034.83,0.21904
2029.04,0.21530
2023.25,0.21223
2017.47,0.21082
2011.68,0.20976
2005.9,0.21047
2000.11,0.21150
1994.32,0.21254
1988.54,0.21370
1982.75,0.21381
1976.96,0.21396
1971.18,0.21412
1965.39,0.21402
1959.61,0.21366
1953.82,0.21356
1948.03,0.21320
1942.25,0.21289
1936.46,0.21190
1930.67,0.21023
1924.89,0.20825
1919.1,0.20728
1913.32,0.20672
1907.53,0.20753
1901.74,0.20842
1895.96,0.20816
1890.17,0.20823
1884.38,0.20852
1878.6,0.20959
1872.81,0.21118
1867.03,0.21161
1861.24,0.21065
1855.45,0.20989
1849.67,0.20820
1843.88,0.20640
1838.09,0.20229
1832.31,0.19897
1826.52,0.19436
1820.74,0.18850
1814.95,0.18210
1809.16,0.17475
1803.38,0.16639
1797.59,0.15732
1791.8,0.14839
1786.02,0.13974
1780.23,0.13234
1774.45,0.12605
1768.66,0.11662
1762.87,0.10541
1757.09,0.08829
1751.3,0.06750
1745.51,0.04757
1739.73,0.03731
1733.94,0.03374
1728.16,0.03324
1722.37,0.03422
1716.58,0.03565
1710.8,0.03664
1705.01,0.03740
1699.22,0.03806
1693.44,0.03794
1687.65,0.03836
1681.87,0.03788
1676.08,0.03658
1670.29,0.03525
1664.51,0.03417
1658.72,0.03279
1652.93,0.03196
1647.15,0.03056
1641.36,0.03030
1635.58,0.03380
1629.79,0.03619
1624,0.03642
1618.22,0.03519
1612.43,0.03357
1606.64,0.03229
1600.86,0.03272
1595.07,0.03303
1589.29,0.03407
1583.5,0.03501
1577.71,0.03507
1571.93,0.03221
1566.14,0.03027
1560.35,0.03044
1554.57,0.03095
1548.78,0.03195
1543,0.03314
1537.21,0.03373
1531.42,0.03450
1525.64,0.03605
1519.85,0.03719
1514.07,0.03713
1508.28,0.03769
1502.49,0.03811
1496.71,0.03891
1490.92,0.03952
1485.13,0.03850
1479.35,0.03759
1473.56,0.03795
1467.78,0.03850
1461.99,0.03803
1456.2,0.03748
1450.42,0.03783
1444.63,0.03960
1438.84,0.04269
1433.06,0.04502
1427.27,0.04469
1421.49,0.04259
1415.7,0.04065
1409.91,0.04022
1404.13,0.04139
1398.34,0.04183
1392.55,0.04146
1386.77,0.03899
1380.98,0.03629
1375.2,0.03540
1369.41,0.03921
1363.62,0.04400
1357.84,0.04545
1352.05,0.04292
1346.26,0.04041
1340.48,0.03999
1334.69,0.04067
1328.91,0.04013
1323.12,0.03873
1317.33,0.03684
1311.55,0.03563
1305.76,0.03520
1299.97,0.03433
1294.19,0.03475
1288.4,0.03568
1282.62,0.03543
1276.83,0.03538
1271.04,0.03474
1265.26,0.03458
1259.47,0.03457
1253.68,0.03407
1247.9,0.03348
1242.11,0.03188
1236.33,0.03122
1230.54,0.03175
1224.75,0.03266
1218.97,0.03397
1213.18,0.03552
1207.39,0.03629
1201.61,0.03580
1195.82,0.03568
1190.04,0.03477
1184.25,0.03377
1178.46,0.03226
1172.68,0.03099
1166.89,0.02965
1161.1,0.02971
1155.32,0.02881
1149.53,0.02891
1143.75,0.02903
1137.96,0.02975
1132.17,0.02947
1126.39,0.02965
1120.6,0.03031
1114.81,0.03292
1109.03,0.03506
1103.24,0.03754
1097.46,0.03846
1091.67,0.04046
1085.88,0.04130
1080.1,0.04272
1074.31,0.04397
1068.52,0.04474
1062.74,0.04598
1056.95,0.04734
1051.17,0.04872
1045.38,0.05040
1039.59,0.05160
1033.81,0.05270
1028.02,0.05243
1022.24,0.05095
1016.45,0.04900
1010.66,0.04978
1004.88,0.05076
999.09,0.05340
993.304,0.06053
987.518,0.06724
981.731,0.06985
975.945,0.06961
970.159,0.06804
964.373,0.06969
958.586,0.07218
952.8,0.07334
947.014,0.06707
941.228,0.05823
935.441,0.05300
929.655,0.05141
923.869,0.05274
918.083,0.05605
912.297,0.05854
906.51,0.05900
900.724,0.06350
894.938,0.06634
889.152,0.06560
883.365,0.06192
877.579,0.06110
871.793,0.05938
866.007,0.06007
860.22,0.06116
854.434,0.06264
848.648,0.06339
842.862,0.06269
837.075,0.06002
831.289,0.05698
825.503,0.05282
819.717,0.05035
813.931,0.05070
808.144,0.05351
802.358,0.05786
796.572,0.06147
790.786,0.06249
784.999,0.06261
779.213,0.06199
773.427,0.05854
767.641,0.05496
761.854,0.05365
756.068,0.05363
750.282,0.05841
744.496,0.06449
738.709,0.06840
732.923,0.06742
727.137,0.06441
721.351,0.06077
715.565,0.05460
709.778,0.05286
703.992,0.05347
698.206,0.05228
692.42,0.05125
686.633,0.05060
680.847,0.04975
675.061,0.04900
669.275,0.04831
663.488,0.05071
657.702,0.05160
651.916,0.05219
646.13,0.05360
640.343,0.05530
634.557,0.05615
628.771,0.05794
622.985,0.05893
617.198,0.05717
611.412,0.05746
605.626,0.05604
599.84,0.05778