File: 01_Data/Bean_Bag_Chair_Outer_Cover/FTIR/IS/Bean_Bag_Chair_Outer_Cover_IS_S_220909_R6.dpt
7497.03,0.79677
7491.25,0.80908
7485.46,0.81228
7479.67,0.80554
7473.89,0.79886
7468.1,0.80533
7462.32,0.80615
7456.53,0.80254
7450.74,0.79825
7444.96,0.79224
7439.17,0.80343
7433.38,0.78674
7427.6,0.79185
7421.81,0.79398
7416.03,0.78126
7410.24,0.78707
7404.45,0.78644
7398.67,0.77636
7392.88,0.76989
7387.09,0.77061
7381.31,0.77690
7375.52,0.77579
7369.74,0.76279
7363.95,0.76777
7358.16,0.75532
7352.38,0.76157
7346.59,0.76111
7340.8,0.75803
7335.02,0.74608
7329.23,0.73715
7323.45,0.74290
7317.66,0.74278
7311.87,0.74827
7306.09,0.72784
7300.3,0.74666
7294.51,0.74710
7288.73,0.73965
7282.94,0.73668
7277.16,0.72443
7271.37,0.73714
7265.58,0.74131
7259.8,0.73497
7254.01,0.74043
7248.22,0.74005
7242.44,0.73751
7236.65,0.73911
7230.87,0.73294
7225.08,0.73400
7219.29,0.73407
7213.51,0.73342
7207.72,0.72611
7201.93,0.73017
7196.15,0.73004
7190.36,0.72821
7184.58,0.73012
7178.79,0.72697
7173,0.73022
7167.22,0.71903
7161.43,0.71693
7155.65,0.71113
7149.86,0.71579
7144.07,0.71103
7138.29,0.70527
7132.5,0.70412
7126.71,0.69608
7120.93,0.69347
7115.14,0.69198
7109.36,0.69082
7103.57,0.68297
7097.78,0.67220
7092,0.67767
7086.21,0.66252
7080.42,0.66127
7074.64,0.65100
7068.85,0.65021
7063.07,0.64741
7057.28,0.63262
7051.49,0.62612
7045.71,0.62891
7039.92,0.62217
7034.13,0.61474
7028.35,0.61378
7022.56,0.60585
7016.78,0.60192
7010.99,0.60437
7005.2,0.59585
6999.42,0.58894
6993.63,0.59332
6987.84,0.58718
6982.06,0.58501
6976.27,0.58008
6970.49,0.57535
6964.7,0.57038
6958.91,0.57674
6953.13,0.57237
6947.34,0.56897
6941.55,0.57216
6935.77,0.56567
6929.98,0.56340
6924.2,0.56057
6918.41,0.55645
6912.62,0.56350
6906.84,0.56315
6901.05,0.55871
6895.26,0.55553
6889.48,0.55269
6883.69,0.55664
6877.91,0.55082
6872.12,0.55054
6866.33,0.54924
6860.55,0.54956
6854.76,0.54513
6848.97,0.53672
6843.19,0.54600
6837.4,0.54833
6831.62,0.54063
6825.83,0.53806
6820.04,0.53622
6814.26,0.53015
6808.47,0.53092
6802.68,0.53384
6796.9,0.52469
6791.11,0.52590
6785.33,0.52712
6779.54,0.52349
6773.75,0.51994
6767.97,0.51904
6762.18,0.51489
6756.39,0.51121
6750.61,0.51280
6744.82,0.51553
6739.04,0.51766
6733.25,0.51538
6727.46,0.51848
6721.68,0.51947
6715.89,0.51664
6710.1,0.51582
6704.32,0.51712
6698.53,0.51673
6692.75,0.51435
6686.96,0.51517
6681.17,0.51447
6675.39,0.51900
6669.6,0.51959
6663.82,0.51625
6658.03,0.51586
6652.24,0.51748
6646.46,0.52011
6640.67,0.52171
6634.88,0.52267
6629.1,0.52482
6623.31,0.52667
6617.53,0.52859
6611.74,0.53149
6605.95,0.53231
6600.17,0.52781
6594.38,0.53181
6588.59,0.53500
6582.81,0.53429
6577.02,0.53685
6571.24,0.53445
6565.45,0.53887
6559.66,0.53416
6553.88,0.53574
6548.09,0.53333
6542.3,0.53717
6536.52,0.53373
6530.73,0.53912
6524.95,0.53484
6519.16,0.53901
6513.37,0.53828
6507.59,0.53437
6501.8,0.53774
6496.01,0.53776
6490.23,0.53329
6484.44,0.53680
6478.66,0.53469
6472.87,0.53884
6467.08,0.54042
6461.3,0.53713
6455.51,0.54243
6449.72,0.53708
6443.94,0.53781
6438.15,0.53731
6432.37,0.54303
6426.58,0.54530
6420.79,0.54017
6415.01,0.54149
6409.22,0.54124
6403.43,0.53977
6397.65,0.54128
6391.86,0.54226
6386.08,0.54384
6380.29,0.53821
6374.5,0.54403
6368.72,0.54103
6362.93,0.53973
6357.14,0.54628
6351.36,0.54721
6345.57,0.54029
6339.79,0.54234
6334,0.54226
6328.21,0.54429
6322.43,0.54266
6316.64,0.54548
6310.85,0.54878
6305.07,0.54703
6299.28,0.54682
6293.5,0.54960
6287.71,0.55004
6281.92,0.55011
6276.14,0.55094
6270.35,0.55293
6264.56,0.55571
6258.78,0.55818
6252.99,0.56342
6247.21,0.55969
6241.42,0.56803
6235.63,0.56564
6229.85,0.57106
6224.06,0.57226
6218.27,0.57841
6212.49,0.58048
6206.7,0.57987
6200.92,0.58400
6195.13,0.58450
6189.34,0.58699
6183.56,0.58808
6177.77,0.59568
6171.98,0.59429
6166.2,0.59914
6160.41,0.60158
6154.63,0.60503
6148.84,0.60500
6143.05,0.60825
6137.27,0.60994
6131.48,0.61112
6125.7,0.61179
6119.91,0.61399
6114.12,0.61743
6108.34,0.62073
6102.55,0.62164
6096.76,0.62553
6090.98,0.62700
6085.19,0.62651
6079.41,0.62929
6073.62,0.62940
6067.83,0.63421
6062.05,0.63576
6056.26,0.63757
6050.47,0.64145
6044.69,0.64134
6038.9,0.64168
6033.12,0.64662
6027.33,0.64815
6021.54,0.64864
6015.76,0.64653
6009.97,0.64626
6004.18,0.65110
5998.4,0.65445
5992.61,0.65591
5986.83,0.65411
5981.04,0.65900
5975.25,0.65593
5969.47,0.65820
5963.68,0.66143
5957.89,0.65624
5952.11,0.65621
5946.32,0.65589
5940.54,0.65609
5934.75,0.65274
5928.96,0.65155
5923.18,0.64987
5917.39,0.65082
5911.6,0.64817
5905.82,0.64797
5900.03,0.64509
5894.25,0.64305
5888.46,0.64208
5882.67,0.63814
5876.89,0.63569
5871.1,0.63340
5865.31,0.63166
5859.53,0.63131
5853.74,0.63285
5847.96,0.63628
5842.17,0.63190
5836.38,0.63406
5830.6,0.62902
5824.81,0.63064
5819.02,0.62870
5813.24,0.62758
5807.45,0.62701
5801.67,0.62956
5795.88,0.62845
5790.09,0.62678
5784.31,0.62495
5778.52,0.62591
5772.73,0.62624
5766.95,0.62372
5761.16,0.62570
5755.38,0.62578
5749.59,0.62427
5743.8,0.62345
5738.02,0.62261
5732.23,0.61968
5726.44,0.62121
5720.66,0.62215
5714.87,0.61961
5709.09,0.61854
5703.3,0.61881
5697.51,0.61975
5691.73,0.61636
5685.94,0.61629
5680.15,0.61365
5674.37,0.61522
5668.58,0.61415
5662.8,0.61355
5657.01,0.61284
5651.22,0.61206
5645.44,0.61280
5639.65,0.61096
5633.87,0.61158
5628.08,0.61033
5622.29,0.60816
5616.51,0.60975
5610.72,0.61129
5604.93,0.61201
5599.15,0.61246
5593.36,0.60992
5587.58,0.61180
5581.79,0.61338
5576,0.61368
5570.22,0.61589
5564.43,0.61575
5558.64,0.61364
5552.86,0.61531
5547.07,0.61766
5541.29,0.61628
5535.5,0.61640
5529.71,0.61573
5523.93,0.61435
5518.14,0.61500
5512.35,0.61677
5506.57,0.61577
5500.78,0.61432
5495,0.61607
5489.21,0.61473
5483.42,0.61551
5477.64,0.61651
5471.85,0.61614
5466.06,0.61656
5460.28,0.61633
5454.49,0.61859
5448.71,0.62028
5442.92,0.62127
5437.13,0.62340
5431.35,0.62556
5425.56,0.62672
5419.77,0.62876
5413.99,0.63074
5408.2,0.63297
5402.42,0.63298
5396.63,0.63327
5390.84,0.63450
5385.06,0.63602
5379.27,0.63604
5373.48,0.63712
5367.7,0.63520
5361.91,0.63444
5356.13,0.63494
5350.34,0.63491
5344.55,0.63212
5338.77,0.62925
5332.98,0.62744
5327.19,0.62701
5321.41,0.62245
5315.62,0.61965
5309.84,0.61497
5304.05,0.60782
5298.26,0.60172
5292.48,0.59647
5286.69,0.58772
5280.9,0.57963
5275.12,0.57012
5269.33,0.56108
5263.55,0.55209
5257.76,0.54046
5251.97,0.53099
5246.19,0.52063
5240.4,0.51415
5234.61,0.50478
5228.83,0.49935
5223.04,0.49360
5217.26,0.48776
5211.47,0.48274
5205.68,0.47812
5199.9,0.47588
5194.11,0.47522
5188.32,0.47253
5182.54,0.47192
5176.75,0.47243
5170.97,0.47246
5165.18,0.47388
5159.39,0.47554
5153.61,0.47654
5147.82,0.47952
5142.03,0.48123
5136.25,0.48315
5130.46,0.48768
5124.68,0.48948
5118.89,0.49241
5113.1,0.49617
5107.32,0.49943
5101.53,0.50245
5095.75,0.50613
5089.96,0.50782
5084.17,0.51007
5078.39,0.51302
5072.6,0.51538
5066.81,0.51937
5061.03,0.52156
5055.24,0.52274
5049.46,0.52641
5043.67,0.52772
5037.88,0.53087
5032.1,0.53378
5026.31,0.53453
5020.52,0.53714
5014.74,0.53804
5008.95,0.53971
5003.17,0.54187
4997.38,0.54097
4991.59,0.54188
4985.81,0.54195
4980.02,0.54041
4974.23,0.53956
4968.45,0.53806
4962.66,0.53524
4956.88,0.53480
4951.09,0.53063
4945.3,0.52752
4939.52,0.52262
4933.73,0.51899
4927.94,0.51226
4922.16,0.50754
4916.37,0.50104
4910.59,0.49551
4904.8,0.48912
4899.01,0.48181
4893.23,0.47391
4887.44,0.46765
4881.65,0.46212
4875.87,0.45392
4870.08,0.44822
4864.3,0.44283
4858.51,0.43792
4852.72,0.43332
4846.94,0.43049
4841.15,0.42543
4835.36,0.42033
4829.58,0.41648
4823.79,0.41167
4818.01,0.40741
4812.22,0.40332
4806.43,0.40089
4800.65,0.39913
4794.86,0.39671
4789.07,0.39412
4783.29,0.39254
4777.5,0.39135
4771.72,0.38987
4765.93,0.38941
4760.14,0.38754
4754.36,0.38741
4748.57,0.38896
4742.78,0.39002
4737,0.39173
4731.21,0.39336
4725.43,0.39442
4719.64,0.39747
4713.85,0.40030
4708.07,0.40076
4702.28,0.40425
4696.49,0.40657
4690.71,0.41145
4684.92,0.41371
4679.14,0.41698
4673.35,0.41928
4667.56,0.42091
4661.78,0.42431
4655.99,0.42657
4650.2,0.43016
4644.42,0.43153
4638.63,0.43352
4632.85,0.43592
4627.06,0.43999
4621.27,0.44130
4615.49,0.44349
4609.7,0.44717
4603.92,0.44903
4598.13,0.45242
4592.34,0.45424
4586.56,0.45693
4580.77,0.45840
4574.98,0.46134
4569.2,0.46448
4563.41,0.46704
4557.63,0.47004
4551.84,0.47261
4546.05,0.47367
4540.27,0.47574
4534.48,0.47828
4528.69,0.47954
4522.91,0.48116
4517.12,0.48241
4511.34,0.48337
4505.55,0.48479
4499.76,0.48552
4493.98,0.48548
4488.19,0.48639
4482.4,0.48614
4476.62,0.48633
4470.83,0.48490
4465.05,0.48366
4459.26,0.47944
4453.47,0.47405
4447.69,0.46730
4441.9,0.45932
4436.11,0.45110
4430.33,0.44047
4424.54,0.43064
4418.76,0.42076
4412.97,0.41232
4407.18,0.40510
4401.4,0.40030
4395.61,0.39901
4389.82,0.40084
4384.04,0.40297
4378.25,0.40799
4372.47,0.41096
4366.68,0.41311
4360.89,0.41318
4355.11,0.41059
4349.32,0.40855
4343.53,0.40510
4337.75,0.40247
4331.96,0.39929
4326.18,0.39415
4320.39,0.38995
4314.6,0.38746
4308.82,0.38448
4303.03,0.38077
4297.24,0.37763
4291.46,0.37414
4285.67,0.37160
4279.89,0.36909
4274.1,0.36777
4268.31,0.36718
4262.53,0.36815
4256.74,0.36822
4250.95,0.36831
4245.17,0.36763
4239.38,0.36905
4233.6,0.37102
4227.81,0.37277
4222.02,0.37411
4216.24,0.37310
4210.45,0.37381
4204.66,0.37666
4198.88,0.37904
4193.09,0.38082
4187.31,0.38031
4181.52,0.38048
4175.73,0.38063
4169.95,0.38175
4164.16,0.38333
4158.37,0.38264
4152.59,0.38046
4146.8,0.37840
4141.02,0.37502
4135.23,0.37400
4129.44,0.37180
4123.66,0.36861
4117.87,0.36312
4112.09,0.35829
4106.3,0.35347
4100.51,0.34683
4094.73,0.33986
4088.94,0.33301
4083.15,0.32696
4077.37,0.32120
4071.58,0.31403
4065.8,0.30775
4060.01,0.30071
4054.22,0.29371
4048.44,0.28660
4042.65,0.27960
4036.86,0.27540
4031.08,0.27233
4025.29,0.26991
4019.51,0.26934
4013.72,0.26961
4007.93,0.27125
4002.15,0.27293
3996.36,0.27626
3990.57,0.27810
3984.79,0.28062
3979,0.28121
3973.22,0.28356
3967.43,0.28461
3961.64,0.28682
3955.86,0.28774
3950.07,0.29020
3944.28,0.29274
3938.5,0.29614
3932.71,0.29995
3926.93,0.30335
3921.14,0.30725
3915.35,0.30985
3909.57,0.31264
3903.78,0.31502
3897.99,0.31808
3892.21,0.31953
3886.42,0.32197
3880.64,0.32481
3874.85,0.32606
3869.06,0.33014
3863.28,0.33464
3857.49,0.33882
3851.7,0.34324
3845.92,0.34512
3840.13,0.34886
3834.35,0.35031
3828.56,0.35006
3822.77,0.35085
3816.99,0.34951
3811.2,0.34860
3805.41,0.34931
3799.63,0.34851
3793.84,0.34868
3788.06,0.34809
3782.27,0.34700
3776.48,0.34582
3770.7,0.34545
3764.91,0.34377
3759.12,0.34267
3753.34,0.34162
3747.55,0.33786
3741.77,0.33531
3735.98,0.33238
3730.19,0.32617
3724.41,0.32159
3718.62,0.31438
3712.83,0.30699
3707.05,0.29840
3701.26,0.28849
3695.48,0.27718
3689.69,0.26631
3683.9,0.24997
3678.12,0.23611
3672.33,0.21853
3666.54,0.19856
3660.76,0.18117
3654.97,0.16379
3649.19,0.14795
3643.4,0.13198
3637.61,0.11873
3631.83,0.10799
3626.04,0.09670
3620.25,0.08761
3614.47,0.07879
3608.68,0.07180
3602.9,0.06484
3597.11,0.05956
3591.32,0.05425
3585.54,0.04981
3579.75,0.04654
3573.97,0.04368
3568.18,0.04060
3562.39,0.03792
3556.61,0.03560
3550.82,0.03419
3545.03,0.03204
3539.25,0.03090
3533.46,0.02989
3527.68,0.02893
3521.89,0.02768
3516.1,0.02642
3510.32,0.02554
3504.53,0.02428
3498.74,0.02392
3492.96,0.02391
3487.17,0.02476
3481.39,0.02605
3475.6,0.02411
3469.81,0.02396
3464.03,0.02422
3458.24,0.02463
3452.45,0.02546
3446.67,0.02531
3440.88,0.02664
3435.1,0.02619
3429.31,0.02642
3423.52,0.02588
3417.74,0.02555
3411.95,0.02582
3406.16,0.02618
3400.38,0.02575
3394.59,0.02588
3388.81,0.02567
3383.02,0.02672
3377.23,0.02669
3371.45,0.02603
3365.66,0.02620
3359.87,0.02637
3354.09,0.02633
3348.3,0.02721
3342.52,0.02743
3336.73,0.02748
3330.94,0.02898
3325.16,0.02896
3319.37,0.02851
3313.58,0.02887
3307.8,0.02953
3302.01,0.02997
3296.23,0.02921
3290.44,0.02908
3284.65,0.02932
3278.87,0.03011
3273.08,0.02957
3267.29,0.03034
3261.51,0.03090
3255.72,0.03116
3249.94,0.03184
3244.15,0.03176
3238.36,0.03203
3232.58,0.03275
3226.79,0.03192
3221,0.03271
3215.22,0.03355
3209.43,0.03387
3203.65,0.03410
3197.86,0.03432
3192.07,0.03547
3186.29,0.03616
3180.5,0.03615
3174.71,0.03719
3168.93,0.03728
3163.14,0.03888
3157.36,0.03881
3151.57,0.03993
3145.78,0.04044
3140,0.04204
3134.21,0.04355
3128.42,0.04456
3122.64,0.04689
3116.85,0.04819
3111.07,0.04964
3105.28,0.05179
3099.49,0.05412
3093.71,0.05534
3087.92,0.05771
3082.14,0.05953
3076.35,0.06193
3070.56,0.06453
3064.78,0.06647
3058.99,0.06946
3053.2,0.07231
3047.42,0.07471
3041.63,0.07664
3035.85,0.07926
3030.06,0.08139
3024.27,0.08341
3018.49,0.08583
3012.7,0.08709
3006.91,0.08859
3001.13,0.08814
2995.34,0.08702
2989.56,0.08308
2983.77,0.07616
2977.98,0.07149
2972.2,0.06383
2966.41,0.05910
2960.62,0.05672
2954.84,0.05345
2949.05,0.05092
2943.27,0.04880
2937.48,0.04610
2931.69,0.04452
2925.91,0.04316
2920.12,0.04136
2914.33,0.03976
2908.55,0.03887
2902.76,0.03788
2896.98,0.03843
2891.19,0.03954
2885.4,0.04115
2879.62,0.04248
2873.83,0.04400
2868.04,0.04583
2862.26,0.04787
2856.47,0.05019
2850.69,0.05342
2844.9,0.05798
2839.11,0.06276
2833.33,0.06696
2827.54,0.07085
2821.75,0.07409
2815.97,0.07774
2810.18,0.08218
2804.4,0.08504
2798.61,0.08830
2792.82,0.09157
2787.04,0.09397
2781.25,0.09588
2775.46,0.09754
2769.68,0.09965
2763.89,0.10125
2758.11,0.10292
2752.32,0.10329
2746.53,0.10270
2740.75,0.10272
2734.96,0.10295
2729.17,0.10365
2723.39,0.10527
2717.6,0.10700
2711.82,0.10909
2706.03,0.11255
2700.24,0.11547
2694.46,0.11905
2688.67,0.12211
2682.88,0.12566
2677.1,0.12931
2671.31,0.13198
2665.53,0.13428
2659.74,0.13647
2653.95,0.13919
2648.17,0.14208
2642.38,0.14529
2636.59,0.14822
2630.81,0.15046
2625.02,0.15238
2619.24,0.15510
2613.45,0.15713
2607.66,0.15913
2601.88,0.16083
2596.09,0.16303
2590.3,0.16401
2584.52,0.16494
2578.73,0.16653
2572.95,0.16719
2567.16,0.16737
2561.37,0.16680
2555.59,0.16654
2549.8,0.16657
2544.02,0.16559
2538.23,0.16515
2532.44,0.16608
2526.66,0.16748
2520.87,0.16856
2515.08,0.16975
2509.3,0.17301
2503.51,0.17645
2497.73,0.17982
2491.94,0.18336
2486.15,0.18640
2480.37,0.18917
2474.58,0.19209
2468.79,0.19512
2463.01,0.19693
2457.22,0.19968
2451.44,0.20265
2445.65,0.20535
2439.86,0.20879
2434.08,0.21214
2428.29,0.21610
2422.5,0.21976
2416.72,0.22325
2410.93,0.22574
2405.15,0.22792
2399.36,0.23037
2393.57,0.23285
2387.79,0.23498
2382,0.23688
2376.21,0.23968
2370.43,0.24172
2364.64,0.24431
2358.86,0.24540
2353.07,0.24812
2347.28,0.25111
2341.5,0.25377
2335.71,0.25614
2329.92,0.25772
2324.14,0.25878
2318.35,0.26033
2312.57,0.26128
2306.78,0.26236
2300.99,0.26082
2295.21,0.26021
2289.42,0.25864
2283.63,0.25754
2277.85,0.25600
2272.06,0.25294
2266.28,0.24861
2260.49,0.24434
2254.7,0.24113
2248.92,0.23919
2243.13,0.23669
2237.34,0.23466
2231.56,0.23329
2225.77,0.23338
2219.99,0.23432
2214.2,0.23464
2208.41,0.23469
2202.63,0.23480
2196.84,0.23325
2191.05,0.23120
2185.27,0.22764
2179.48,0.22333
2173.7,0.21909
2167.91,0.21521
2162.12,0.21112
2156.34,0.20890
2150.55,0.20696
2144.76,0.20535
2138.98,0.20365
2133.19,0.20300
2127.41,0.20483
2121.62,0.20695
2115.83,0.20952
2110.05,0.21300
2104.26,0.21627
2098.47,0.21902
2092.69,0.22127
2086.9,0.22356
2081.12,0.22487
2075.33,0.22493
2069.54,0.22365
2063.76,0.22314
2057.97,0.22309
2052.19,0.22331
2046.4,0.22364
2040.61,0.22499
2034.83,0.22841
2029.04,0.23358
2023.25,0.23916
2017.47,0.24543
2011.68,0.25028
2005.9,0.25364
2000.11,0.25534
1994.32,0.25623
1988.54,0.25816
1982.75,0.26119
1976.96,0.26415
1971.18,0.26729
1965.39,0.27025
1959.61,0.27256
1953.82,0.27612
1948.03,0.28052
1942.25,0.28509
1936.46,0.28910
1930.67,0.29199
1924.89,0.29457
1919.1,0.29662
1913.32,0.29816
1907.53,0.30014
1901.74,0.30117
1895.96,0.30162
1890.17,0.30178
1884.38,0.30105
1878.6,0.30046
1872.81,0.29996
1867.03,0.29914
1861.24,0.29650
1855.45,0.29374
1849.67,0.29078
1843.88,0.28740
1838.09,0.28326
1832.31,0.28142
1826.52,0.27888
1820.74,0.27583
1814.95,0.27258
1809.16,0.26859
1803.38,0.26505
1797.59,0.26060
1791.8,0.25715
1786.02,0.25275
1780.23,0.24986
1774.45,0.24673
1768.66,0.24173
1762.87,0.23823
1757.09,0.23375
1751.3,0.22928
1745.51,0.22392
1739.73,0.21778
1733.94,0.21160
1728.16,0.20396
1722.37,0.19788
1716.58,0.19131
1710.8,0.18262
1705.01,0.17411
1699.22,0.16389
1693.44,0.15189
1687.65,0.14169
1681.87,0.12783
1676.08,0.11775
1670.29,0.10832
1664.51,0.10033
1658.72,0.09334
1652.93,0.09076
1647.15,0.08864
1641.36,0.08807
1635.58,0.08989
1629.79,0.09158
1624,0.09641
1618.22,0.10221
1612.43,0.10788
1606.64,0.11236
1600.86,0.11575
1595.07,0.11881
1589.29,0.12134
1583.5,0.12327
1577.71,0.12600
1571.93,0.12910
1566.14,0.13062
1560.35,0.13188
1554.57,0.13177
1548.78,0.13026
1543,0.12870
1537.21,0.12538
1531.42,0.12483
1525.64,0.12413
1519.85,0.12060
1514.07,0.11441
1508.28,0.10962
1502.49,0.10150
1496.71,0.09377
1490.92,0.08362
1485.13,0.06897
1479.35,0.06007
1473.56,0.05420
1467.78,0.04882
1461.99,0.04465
1456.2,0.04107
1450.42,0.03815
1444.63,0.03628
1438.84,0.03476
1433.06,0.03323
1427.27,0.03303
1421.49,0.03436
1415.7,0.03704
1409.91,0.03818
1404.13,0.03856
1398.34,0.03754
1392.55,0.03584
1386.77,0.03285
1380.98,0.02900
1375.2,0.02734
1369.41,0.02824
1363.62,0.02919
1357.84,0.03065
1352.05,0.03192
1346.26,0.03223
1340.48,0.03137
1334.69,0.03065
1328.91,0.03177
1323.12,0.03140
1317.33,0.03029
1311.55,0.03220
1305.76,0.03595
1299.97,0.03861
1294.19,0.03990
1288.4,0.03920
1282.62,0.03601
1276.83,0.03620
1271.04,0.03860
1265.26,0.03844
1259.47,0.03876
1253.68,0.03971
1247.9,0.03919
1242.11,0.03785
1236.33,0.03560
1230.54,0.03555
1224.75,0.03685
1218.97,0.03816
1213.18,0.03546
1207.39,0.03065
1201.61,0.02805
1195.82,0.02788
1190.04,0.02884
1184.25,0.02696
1178.46,0.02494
1172.68,0.02546
1166.89,0.03017
1161.1,0.03203
1155.32,0.02966
1149.53,0.02590
1143.75,0.02324
1137.96,0.02054
1132.17,0.01953
1126.39,0.02104
1120.6,0.02496
1114.81,0.02815
1109.03,0.02874
1103.24,0.02733
1097.46,0.02721
1091.67,0.02737
1085.88,0.03184
1080.1,0.03822
1074.31,0.04097
1068.52,0.04384
1062.74,0.04821
1056.95,0.04844
1051.17,0.04517
1045.38,0.04277
1039.59,0.04227
1033.81,0.04601
1028.02,0.04618
1022.24,0.04668
1016.45,0.04723
1010.66,0.04683
1004.88,0.04546
999.09,0.04760
993.304,0.05087
987.518,0.05406
981.731,0.06165
975.945,0.07023
970.159,0.07277
964.373,0.07619
958.586,0.08565
952.8,0.09962
947.014,0.10848
941.228,0.11168
935.441,0.11129
929.655,0.10959
923.869,0.11013
918.083,0.10718
912.297,0.09691
906.51,0.08352
900.724,0.07053
894.938,0.06658
889.152,0.08223
883.365,0.10017
877.579,0.11256
871.793,0.12009
866.007,0.12255
860.22,0.12258
854.434,0.11965
848.648,0.11675
842.862,0.11323
837.075,0.10832
831.289,0.10533
825.503,0.10188
819.717,0.09865
813.931,0.09454
808.144,0.09175
802.358,0.08804
796.572,0.08500
790.786,0.08112
784.999,0.07802
779.213,0.07331
773.427,0.07097
767.641,0.06782
761.854,0.06365
756.068,0.06020
750.282,0.05711
744.496,0.05306
738.709,0.05102
732.923,0.04717
727.137,0.04473
721.351,0.04146
715.565,0.04045
709.778,0.03959
703.992,0.03973
698.206,0.04003
692.42,0.03933
686.633,0.03813
680.847,0.03659
675.061,0.03515
669.275,0.03655
663.488,0.03758
657.702,0.03836
651.916,0.03673
646.13,0.03639
640.343,0.03625
634.557,0.03616
628.771,0.03421
622.985,0.03368
617.198,0.03153
611.412,0.03293
605.626,0.03683
599.84,0.03732