File: 01_Data/Bean_Bag_Chair_Outer_Cover/FTIR/IS/Bean_Bag_Chair_Outer_Cover_IS_S_220909_R4.dpt
7497.03,0.81222
7491.25,0.82245
7485.46,0.81069
7479.67,0.80774
7473.89,0.80730
7468.1,0.81049
7462.32,0.80877
7456.53,0.80268
7450.74,0.79743
7444.96,0.79020
7439.17,0.79467
7433.38,0.78863
7427.6,0.78728
7421.81,0.79292
7416.03,0.78491
7410.24,0.77552
7404.45,0.77999
7398.67,0.77215
7392.88,0.77274
7387.09,0.77216
7381.31,0.77612
7375.52,0.77231
7369.74,0.75666
7363.95,0.76328
7358.16,0.76415
7352.38,0.76452
7346.59,0.76421
7340.8,0.75195
7335.02,0.73782
7329.23,0.73259
7323.45,0.72937
7317.66,0.73728
7311.87,0.74465
7306.09,0.74286
7300.3,0.74517
7294.51,0.73851
7288.73,0.73760
7282.94,0.73503
7277.16,0.72758
7271.37,0.73210
7265.58,0.73281
7259.8,0.73687
7254.01,0.73546
7248.22,0.73513
7242.44,0.73302
7236.65,0.73289
7230.87,0.72560
7225.08,0.72957
7219.29,0.72700
7213.51,0.72523
7207.72,0.72558
7201.93,0.73415
7196.15,0.72889
7190.36,0.73041
7184.58,0.72462
7178.79,0.72766
7173,0.72262
7167.22,0.72066
7161.43,0.71345
7155.65,0.71486
7149.86,0.71126
7144.07,0.70629
7138.29,0.71507
7132.5,0.70237
7126.71,0.69627
7120.93,0.69234
7115.14,0.68742
7109.36,0.68306
7103.57,0.68307
7097.78,0.67458
7092,0.67515
7086.21,0.66322
7080.42,0.65758
7074.64,0.65961
7068.85,0.64693
7063.07,0.64206
7057.28,0.63988
7051.49,0.63355
7045.71,0.62833
7039.92,0.62384
7034.13,0.61779
7028.35,0.61562
7022.56,0.60803
7016.78,0.60110
7010.99,0.59465
7005.2,0.58896
6999.42,0.58477
6993.63,0.58719
6987.84,0.58745
6982.06,0.57722
6976.27,0.57626
6970.49,0.57771
6964.7,0.57832
6958.91,0.56913
6953.13,0.56873
6947.34,0.56877
6941.55,0.56048
6935.77,0.56691
6929.98,0.56534
6924.2,0.56730
6918.41,0.56262
6912.62,0.55946
6906.84,0.55949
6901.05,0.55661
6895.26,0.55194
6889.48,0.55400
6883.69,0.55297
6877.91,0.54710
6872.12,0.54424
6866.33,0.55005
6860.55,0.54996
6854.76,0.54054
6848.97,0.54441
6843.19,0.54153
6837.4,0.53957
6831.62,0.53958
6825.83,0.53568
6820.04,0.53398
6814.26,0.53353
6808.47,0.53119
6802.68,0.52420
6796.9,0.52861
6791.11,0.52302
6785.33,0.52209
6779.54,0.52433
6773.75,0.52504
6767.97,0.52479
6762.18,0.52002
6756.39,0.51453
6750.61,0.51375
6744.82,0.51304
6739.04,0.51382
6733.25,0.51692
6727.46,0.51372
6721.68,0.51386
6715.89,0.51599
6710.1,0.51651
6704.32,0.51417
6698.53,0.51515
6692.75,0.51415
6686.96,0.52295
6681.17,0.51415
6675.39,0.51414
6669.6,0.51851
6663.82,0.51937
6658.03,0.51950
6652.24,0.51759
6646.46,0.52151
6640.67,0.51881
6634.88,0.52359
6629.1,0.52728
6623.31,0.52934
6617.53,0.52730
6611.74,0.53146
6605.95,0.52871
6600.17,0.52650
6594.38,0.52493
6588.59,0.52884
6582.81,0.52997
6577.02,0.53317
6571.24,0.53413
6565.45,0.53300
6559.66,0.52929
6553.88,0.53233
6548.09,0.53134
6542.3,0.53603
6536.52,0.53839
6530.73,0.53438
6524.95,0.53554
6519.16,0.54098
6513.37,0.53631
6507.59,0.53144
6501.8,0.53319
6496.01,0.53176
6490.23,0.53411
6484.44,0.53358
6478.66,0.53833
6472.87,0.53433
6467.08,0.53945
6461.3,0.53452
6455.51,0.53793
6449.72,0.53241
6443.94,0.53586
6438.15,0.53848
6432.37,0.54019
6426.58,0.53977
6420.79,0.53974
6415.01,0.53797
6409.22,0.54184
6403.43,0.53722
6397.65,0.54086
6391.86,0.54332
6386.08,0.54433
6380.29,0.54438
6374.5,0.54031
6368.72,0.54075
6362.93,0.54224
6357.14,0.54441
6351.36,0.54094
6345.57,0.54304
6339.79,0.54253
6334,0.54278
6328.21,0.54755
6322.43,0.54524
6316.64,0.54305
6310.85,0.54372
6305.07,0.54270
6299.28,0.54513
6293.5,0.54821
6287.71,0.54726
6281.92,0.54935
6276.14,0.55115
6270.35,0.55446
6264.56,0.55599
6258.78,0.55994
6252.99,0.56209
6247.21,0.56377
6241.42,0.56462
6235.63,0.56869
6229.85,0.57097
6224.06,0.57172
6218.27,0.57326
6212.49,0.57866
6206.7,0.58310
6200.92,0.58094
6195.13,0.58792
6189.34,0.59155
6183.56,0.58888
6177.77,0.59201
6171.98,0.59270
6166.2,0.59595
6160.41,0.59922
6154.63,0.60228
6148.84,0.60441
6143.05,0.60683
6137.27,0.60632
6131.48,0.61026
6125.7,0.61222
6119.91,0.61493
6114.12,0.61551
6108.34,0.61869
6102.55,0.62319
6096.76,0.62376
6090.98,0.62815
6085.19,0.62861
6079.41,0.62682
6073.62,0.62967
6067.83,0.63249
6062.05,0.63580
6056.26,0.63769
6050.47,0.63852
6044.69,0.63894
6038.9,0.64059
6033.12,0.64108
6027.33,0.64535
6021.54,0.64682
6015.76,0.64864
6009.97,0.65136
6004.18,0.65169
5998.4,0.65562
5992.61,0.65706
5986.83,0.65745
5981.04,0.65495
5975.25,0.65611
5969.47,0.65535
5963.68,0.65706
5957.89,0.65636
5952.11,0.65313
5946.32,0.65519
5940.54,0.65094
5934.75,0.65153
5928.96,0.64971
5923.18,0.64912
5917.39,0.64814
5911.6,0.64629
5905.82,0.64891
5900.03,0.64484
5894.25,0.64131
5888.46,0.64055
5882.67,0.63665
5876.89,0.63386
5871.1,0.63077
5865.31,0.63031
5859.53,0.63205
5853.74,0.63283
5847.96,0.63400
5842.17,0.63332
5836.38,0.63202
5830.6,0.63194
5824.81,0.63020
5819.02,0.62935
5813.24,0.62737
5807.45,0.62869
5801.67,0.62544
5795.88,0.62664
5790.09,0.62808
5784.31,0.62518
5778.52,0.62345
5772.73,0.62549
5766.95,0.62394
5761.16,0.62403
5755.38,0.62449
5749.59,0.62455
5743.8,0.62323
5738.02,0.62290
5732.23,0.62188
5726.44,0.62328
5720.66,0.62206
5714.87,0.62070
5709.09,0.62016
5703.3,0.61846
5697.51,0.61847
5691.73,0.61655
5685.94,0.61448
5680.15,0.61337
5674.37,0.61267
5668.58,0.61067
5662.8,0.60973
5657.01,0.61087
5651.22,0.60984
5645.44,0.61072
5639.65,0.61152
5633.87,0.61048
5628.08,0.60963
5622.29,0.61055
5616.51,0.60981
5610.72,0.61029
5604.93,0.61074
5599.15,0.61108
5593.36,0.61100
5587.58,0.61046
5581.79,0.61023
5576,0.61266
5570.22,0.61258
5564.43,0.61349
5558.64,0.61444
5552.86,0.61407
5547.07,0.61489
5541.29,0.61378
5535.5,0.61418
5529.71,0.61449
5523.93,0.61393
5518.14,0.61478
5512.35,0.61436
5506.57,0.61559
5500.78,0.61389
5495,0.61433
5489.21,0.61610
5483.42,0.61420
5477.64,0.61449
5471.85,0.61536
5466.06,0.61614
5460.28,0.61613
5454.49,0.61812
5448.71,0.61965
5442.92,0.62230
5437.13,0.62490
5431.35,0.62546
5425.56,0.62559
5419.77,0.62730
5413.99,0.62993
5408.2,0.63284
5402.42,0.63236
5396.63,0.63601
5390.84,0.63399
5385.06,0.63427
5379.27,0.63577
5373.48,0.63644
5367.7,0.63701
5361.91,0.63574
5356.13,0.63437
5350.34,0.63155
5344.55,0.63219
5338.77,0.62900
5332.98,0.62673
5327.19,0.62483
5321.41,0.62108
5315.62,0.61773
5309.84,0.61367
5304.05,0.60472
5298.26,0.59995
5292.48,0.59387
5286.69,0.58517
5280.9,0.57510
5275.12,0.56526
5269.33,0.55534
5263.55,0.54571
5257.76,0.53448
5251.97,0.52479
5246.19,0.51599
5240.4,0.50630
5234.61,0.49849
5228.83,0.49379
5223.04,0.48677
5217.26,0.48105
5211.47,0.47519
5205.68,0.47247
5199.9,0.46878
5194.11,0.46788
5188.32,0.46609
5182.54,0.46498
5176.75,0.46520
5170.97,0.46646
5165.18,0.46669
5159.39,0.46864
5153.61,0.47062
5147.82,0.47138
5142.03,0.47421
5136.25,0.47634
5130.46,0.48041
5124.68,0.48213
5118.89,0.48458
5113.1,0.48949
5107.32,0.49114
5101.53,0.49482
5095.75,0.49720
5089.96,0.49993
5084.17,0.50307
5078.39,0.50504
5072.6,0.50803
5066.81,0.51028
5061.03,0.51300
5055.24,0.51516
5049.46,0.51996
5043.67,0.52155
5037.88,0.52569
5032.1,0.52707
5026.31,0.52948
5020.52,0.53043
5014.74,0.53324
5008.95,0.53395
5003.17,0.53488
4997.38,0.53554
4991.59,0.53672
4985.81,0.53766
4980.02,0.53633
4974.23,0.53536
4968.45,0.53367
4962.66,0.53300
4956.88,0.53031
4951.09,0.52661
4945.3,0.52412
4939.52,0.52016
4933.73,0.51713
4927.94,0.51253
4922.16,0.50545
4916.37,0.50005
4910.59,0.49434
4904.8,0.48722
4899.01,0.48005
4893.23,0.47340
4887.44,0.46665
4881.65,0.46104
4875.87,0.45406
4870.08,0.44732
4864.3,0.44233
4858.51,0.43796
4852.72,0.43336
4846.94,0.43013
4841.15,0.42514
4835.36,0.42021
4829.58,0.41625
4823.79,0.41114
4818.01,0.40759
4812.22,0.40355
4806.43,0.40140
4800.65,0.39869
4794.86,0.39612
4789.07,0.39446
4783.29,0.39315
4777.5,0.39107
4771.72,0.39031
4765.93,0.38972
4760.14,0.38911
4754.36,0.38842
4748.57,0.38914
4742.78,0.38943
4737,0.39163
4731.21,0.39345
4725.43,0.39581
4719.64,0.39869
4713.85,0.39972
4708.07,0.40204
4702.28,0.40393
4696.49,0.40641
4690.71,0.41029
4684.92,0.41361
4679.14,0.41627
4673.35,0.42014
4667.56,0.42107
4661.78,0.42451
4655.99,0.42688
4650.2,0.42877
4644.42,0.43190
4638.63,0.43498
4632.85,0.43649
4627.06,0.43941
4621.27,0.44182
4615.49,0.44375
4609.7,0.44614
4603.92,0.44961
4598.13,0.45124
4592.34,0.45341
4586.56,0.45621
4580.77,0.45905
4574.98,0.46231
4569.2,0.46428
4563.41,0.46732
4557.63,0.46996
4551.84,0.47179
4546.05,0.47349
4540.27,0.47616
4534.48,0.47805
4528.69,0.47896
4522.91,0.48175
4517.12,0.48330
4511.34,0.48369
4505.55,0.48426
4499.76,0.48491
4493.98,0.48577
4488.19,0.48630
4482.4,0.48616
4476.62,0.48637
4470.83,0.48503
4465.05,0.48217
4459.26,0.47922
4453.47,0.47402
4447.69,0.46756
4441.9,0.46038
4436.11,0.45068
4430.33,0.44121
4424.54,0.43141
4418.76,0.42045
4412.97,0.41235
4407.18,0.40550
4401.4,0.40098
4395.61,0.39995
4389.82,0.40064
4384.04,0.40360
4378.25,0.40769
4372.47,0.41072
4366.68,0.41261
4360.89,0.41209
4355.11,0.41051
4349.32,0.40769
4343.53,0.40657
4337.75,0.40278
4331.96,0.39865
4326.18,0.39442
4320.39,0.39028
4314.6,0.38770
4308.82,0.38389
4303.03,0.38137
4297.24,0.37735
4291.46,0.37452
4285.67,0.37147
4279.89,0.36904
4274.1,0.36872
4268.31,0.36833
4262.53,0.36809
4256.74,0.36824
4250.95,0.36882
4245.17,0.36740
4239.38,0.36843
4233.6,0.37145
4227.81,0.37293
4222.02,0.37371
4216.24,0.37335
4210.45,0.37388
4204.66,0.37621
4198.88,0.37954
4193.09,0.38013
4187.31,0.38140
4181.52,0.38033
4175.73,0.38095
4169.95,0.38104
4164.16,0.38272
4158.37,0.38219
4152.59,0.37990
4146.8,0.37723
4141.02,0.37462
4135.23,0.37342
4129.44,0.37104
4123.66,0.36797
4117.87,0.36281
4112.09,0.35755
4106.3,0.35268
4100.51,0.34585
4094.73,0.33916
4088.94,0.33356
4083.15,0.32650
4077.37,0.32019
4071.58,0.31392
4065.8,0.30726
4060.01,0.29985
4054.22,0.29270
4048.44,0.28568
4042.65,0.27987
4036.86,0.27509
4031.08,0.27175
4025.29,0.26883
4019.51,0.26878
4013.72,0.26917
4007.93,0.27048
4002.15,0.27261
3996.36,0.27510
3990.57,0.27743
3984.79,0.27959
3979,0.28140
3973.22,0.28303
3967.43,0.28481
3961.64,0.28615
3955.86,0.28760
3950.07,0.28947
3944.28,0.29223
3938.5,0.29534
3932.71,0.29845
3926.93,0.30238
3921.14,0.30623
3915.35,0.30890
3909.57,0.31081
3903.78,0.31392
3897.99,0.31658
3892.21,0.31873
3886.42,0.32139
3880.64,0.32290
3874.85,0.32607
3869.06,0.32910
3863.28,0.33320
3857.49,0.33698
3851.7,0.34300
3845.92,0.34304
3840.13,0.34800
3834.35,0.34857
3828.56,0.34886
3822.77,0.34945
3816.99,0.34801
3811.2,0.34586
3805.41,0.34629
3799.63,0.34722
3793.84,0.34633
3788.06,0.34550
3782.27,0.34528
3776.48,0.34312
3770.7,0.34368
3764.91,0.34168
3759.12,0.34028
3753.34,0.33813
3747.55,0.33536
3741.77,0.33171
3735.98,0.33031
3730.19,0.32249
3724.41,0.31752
3718.62,0.31026
3712.83,0.30410
3707.05,0.29431
3701.26,0.28428
3695.48,0.27239
3689.69,0.26045
3683.9,0.24461
3678.12,0.23125
3672.33,0.21259
3666.54,0.19284
3660.76,0.17530
3654.97,0.15831
3649.19,0.14324
3643.4,0.12676
3637.61,0.11360
3631.83,0.10313
3626.04,0.09196
3620.25,0.08485
3614.47,0.07607
3608.68,0.06849
3602.9,0.06215
3597.11,0.05806
3591.32,0.05283
3585.54,0.04853
3579.75,0.04508
3573.97,0.04266
3568.18,0.03987
3562.39,0.03672
3556.61,0.03486
3550.82,0.03268
3545.03,0.03157
3539.25,0.03031
3533.46,0.02924
3527.68,0.02896
3521.89,0.02742
3516.1,0.02597
3510.32,0.02480
3504.53,0.02463
3498.74,0.02424
3492.96,0.02433
3487.17,0.02483
3481.39,0.02419
3475.6,0.02439
3469.81,0.02446
3464.03,0.02304
3458.24,0.02399
3452.45,0.02431
3446.67,0.02563
3440.88,0.02614
3435.1,0.02505
3429.31,0.02534
3423.52,0.02619
3417.74,0.02574
3411.95,0.02533
3406.16,0.02559
3400.38,0.02585
3394.59,0.02625
3388.81,0.02576
3383.02,0.02629
3377.23,0.02685
3371.45,0.02643
3365.66,0.02609
3359.87,0.02634
3354.09,0.02649
3348.3,0.02611
3342.52,0.02765
3336.73,0.02757
3330.94,0.02873
3325.16,0.02834
3319.37,0.02865
3313.58,0.02887
3307.8,0.02807
3302.01,0.02876
3296.23,0.02880
3290.44,0.02910
3284.65,0.02940
3278.87,0.02974
3273.08,0.03062
3267.29,0.03045
3261.51,0.03073
3255.72,0.03198
3249.94,0.03099
3244.15,0.03221
3238.36,0.03248
3232.58,0.03245
3226.79,0.03234
3221,0.03297
3215.22,0.03404
3209.43,0.03360
3203.65,0.03382
3197.86,0.03429
3192.07,0.03497
3186.29,0.03537
3180.5,0.03578
3174.71,0.03681
3168.93,0.03736
3163.14,0.03795
3157.36,0.03845
3151.57,0.03975
3145.78,0.04018
3140,0.04140
3134.21,0.04349
3128.42,0.04404
3122.64,0.04527
3116.85,0.04698
3111.07,0.04865
3105.28,0.05031
3099.49,0.05280
3093.71,0.05421
3087.92,0.05684
3082.14,0.05863
3076.35,0.06100
3070.56,0.06280
3064.78,0.06587
3058.99,0.06828
3053.2,0.07033
3047.42,0.07208
3041.63,0.07481
3035.85,0.07724
3030.06,0.08026
3024.27,0.08187
3018.49,0.08399
3012.7,0.08522
3006.91,0.08691
3001.13,0.08663
2995.34,0.08549
2989.56,0.08269
2983.77,0.07555
2977.98,0.07063
2972.2,0.06298
2966.41,0.05801
2960.62,0.05677
2954.84,0.05364
2949.05,0.05064
2943.27,0.04813
2937.48,0.04660
2931.69,0.04475
2925.91,0.04389
2920.12,0.04145
2914.33,0.04027
2908.55,0.03831
2902.76,0.03792
2896.98,0.03860
2891.19,0.03909
2885.4,0.04153
2879.62,0.04288
2873.83,0.04371
2868.04,0.04585
2862.26,0.04864
2856.47,0.05039
2850.69,0.05337
2844.9,0.05773
2839.11,0.06306
2833.33,0.06665
2827.54,0.07002
2821.75,0.07362
2815.97,0.07732
2810.18,0.08108
2804.4,0.08453
2798.61,0.08837
2792.82,0.09119
2787.04,0.09332
2781.25,0.09563
2775.46,0.09763
2769.68,0.09918
2763.89,0.10079
2758.11,0.10225
2752.32,0.10265
2746.53,0.10226
2740.75,0.10193
2734.96,0.10248
2729.17,0.10340
2723.39,0.10497
2717.6,0.10674
2711.82,0.10885
2706.03,0.11159
2700.24,0.11484
2694.46,0.11819
2688.67,0.12190
2682.88,0.12500
2677.1,0.12865
2671.31,0.13186
2665.53,0.13395
2659.74,0.13612
2653.95,0.13880
2648.17,0.14226
2642.38,0.14487
2636.59,0.14752
2630.81,0.15028
2625.02,0.15248
2619.24,0.15468
2613.45,0.15695
2607.66,0.15855
2601.88,0.16073
2596.09,0.16224
2590.3,0.16407
2584.52,0.16514
2578.73,0.16578
2572.95,0.16668
2567.16,0.16732
2561.37,0.16709
2555.59,0.16666
2549.8,0.16565
2544.02,0.16518
2538.23,0.16540
2532.44,0.16567
2526.66,0.16701
2520.87,0.16829
2515.08,0.16934
2509.3,0.17227
2503.51,0.17655
2497.73,0.17977
2491.94,0.18269
2486.15,0.18595
2480.37,0.18865
2474.58,0.19176
2468.79,0.19495
2463.01,0.19668
2457.22,0.19931
2451.44,0.20221
2445.65,0.20482
2439.86,0.20826
2434.08,0.21174
2428.29,0.21536
2422.5,0.21877
2416.72,0.22206
2410.93,0.22472
2405.15,0.22723
2399.36,0.22943
2393.57,0.23164
2387.79,0.23403
2382,0.23630
2376.21,0.23860
2370.43,0.24123
2364.64,0.24327
2358.86,0.24485
2353.07,0.24690
2347.28,0.24962
2341.5,0.25328
2335.71,0.25451
2329.92,0.25646
2324.14,0.25777
2318.35,0.25871
2312.57,0.25998
2306.78,0.26052
2300.99,0.25922
2295.21,0.25835
2289.42,0.25684
2283.63,0.25563
2277.85,0.25390
2272.06,0.25064
2266.28,0.24671
2260.49,0.24254
2254.7,0.23904
2248.92,0.23681
2243.13,0.23456
2237.34,0.23260
2231.56,0.23127
2225.77,0.23146
2219.99,0.23182
2214.2,0.23233
2208.41,0.23259
2202.63,0.23200
2196.84,0.23090
2191.05,0.22856
2185.27,0.22484
2179.48,0.22128
2173.7,0.21719
2167.91,0.21268
2162.12,0.20913
2156.34,0.20672
2150.55,0.20459
2144.76,0.20346
2138.98,0.20186
2133.19,0.20099
2127.41,0.20245
2121.62,0.20503
2115.83,0.20787
2110.05,0.21106
2104.26,0.21402
2098.47,0.21671
2092.69,0.21928
2086.9,0.22094
2081.12,0.22252
2075.33,0.22236
2069.54,0.22143
2063.76,0.22113
2057.97,0.22100
2052.19,0.22063
2046.4,0.22129
2040.61,0.22285
2034.83,0.22619
2029.04,0.23132
2023.25,0.23731
2017.47,0.24329
2011.68,0.24827
2005.9,0.25105
2000.11,0.25284
1994.32,0.25407
1988.54,0.25608
1982.75,0.25870
1976.96,0.26180
1971.18,0.26510
1965.39,0.26792
1959.61,0.27020
1953.82,0.27337
1948.03,0.27827
1942.25,0.28251
1936.46,0.28628
1930.67,0.28908
1924.89,0.29175
1919.1,0.29357
1913.32,0.29527
1907.53,0.29739
1901.74,0.29846
1895.96,0.29875
1890.17,0.29887
1884.38,0.29835
1878.6,0.29757
1872.81,0.29669
1867.03,0.29585
1861.24,0.29359
1855.45,0.29143
1849.67,0.28802
1843.88,0.28474
1838.09,0.28080
1832.31,0.27876
1826.52,0.27630
1820.74,0.27320
1814.95,0.27033
1809.16,0.26618
1803.38,0.26207
1797.59,0.25847
1791.8,0.25498
1786.02,0.25054
1780.23,0.24738
1774.45,0.24384
1768.66,0.23915
1762.87,0.23495
1757.09,0.23047
1751.3,0.22636
1745.51,0.22101
1739.73,0.21458
1733.94,0.20813
1728.16,0.20063
1722.37,0.19435
1716.58,0.18740
1710.8,0.17817
1705.01,0.16981
1699.22,0.15951
1693.44,0.14662
1687.65,0.13608
1681.87,0.12276
1676.08,0.11320
1670.29,0.10376
1664.51,0.09537
1658.72,0.09003
1652.93,0.08697
1647.15,0.08520
1641.36,0.08388
1635.58,0.08587
1629.79,0.08818
1624,0.09357
1618.22,0.09950
1612.43,0.10451
1606.64,0.10950
1600.86,0.11320
1595.07,0.11635
1589.29,0.11851
1583.5,0.12097
1577.71,0.12438
1571.93,0.12679
1566.14,0.12826
1560.35,0.12971
1554.57,0.12990
1548.78,0.12836
1543,0.12747
1537.21,0.12373
1531.42,0.12338
1525.64,0.12222
1519.85,0.11910
1514.07,0.11343
1508.28,0.10904
1502.49,0.10002
1496.71,0.09273
1490.92,0.08299
1485.13,0.06859
1479.35,0.06008
1473.56,0.05450
1467.78,0.04846
1461.99,0.04424
1456.2,0.04045
1450.42,0.03818
1444.63,0.03591
1438.84,0.03495
1433.06,0.03317
1427.27,0.03308
1421.49,0.03457
1415.7,0.03672
1409.91,0.03831
1404.13,0.03861
1398.34,0.03772
1392.55,0.03509
1386.77,0.03271
1380.98,0.02898
1375.2,0.02792
1369.41,0.02803
1363.62,0.02913
1357.84,0.03080
1352.05,0.03206
1346.26,0.03185
1340.48,0.03077
1334.69,0.03059
1328.91,0.03208
1323.12,0.03185
1317.33,0.03066
1311.55,0.03256
1305.76,0.03581
1299.97,0.03900
1294.19,0.04012
1288.4,0.03984
1282.62,0.03643
1276.83,0.03594
1271.04,0.03874
1265.26,0.03887
1259.47,0.03847
1253.68,0.03999
1247.9,0.03893
1242.11,0.03805
1236.33,0.03568
1230.54,0.03578
1224.75,0.03600
1218.97,0.03821
1213.18,0.03628
1207.39,0.03066
1201.61,0.02764
1195.82,0.02793
1190.04,0.02903
1184.25,0.02658
1178.46,0.02418
1172.68,0.02542
1166.89,0.02995
1161.1,0.03153
1155.32,0.02940
1149.53,0.02582
1143.75,0.02370
1137.96,0.02110
1132.17,0.01981
1126.39,0.02150
1120.6,0.02456
1114.81,0.02742
1109.03,0.02949
1103.24,0.02779
1097.46,0.02702
1091.67,0.02755
1085.88,0.03180
1080.1,0.03818
1074.31,0.04043
1068.52,0.04372
1062.74,0.04797
1056.95,0.04914
1051.17,0.04475
1045.38,0.04132
1039.59,0.04139
1033.81,0.04553
1028.02,0.04639
1022.24,0.04668
1016.45,0.04675
1010.66,0.04725
1004.88,0.04472
999.09,0.04763
993.304,0.05129
987.518,0.05405
981.731,0.06216
975.945,0.07048
970.159,0.07240
964.373,0.07508
958.586,0.08532
952.8,0.09949
947.014,0.10811
941.228,0.11024
935.441,0.10970
929.655,0.10834
923.869,0.10969
918.083,0.10624
912.297,0.09541
906.51,0.08265
900.724,0.06897
894.938,0.06514
889.152,0.08081
883.365,0.09980
877.579,0.11085
871.793,0.11771
866.007,0.11967
860.22,0.11831
854.434,0.11672
848.648,0.11280
842.862,0.10979
837.075,0.10552
831.289,0.10129
825.503,0.09827
819.717,0.09578
813.931,0.09229
808.144,0.08827
802.358,0.08582
796.572,0.08155
790.786,0.07823
784.999,0.07539
779.213,0.07212
773.427,0.06814
767.641,0.06529
761.854,0.06178
756.068,0.05770
750.282,0.05513
744.496,0.05283
738.709,0.04912
732.923,0.04710
727.137,0.04312
721.351,0.04119
715.565,0.04022
709.778,0.03934
703.992,0.03962
698.206,0.03844
692.42,0.03902
686.633,0.03811
680.847,0.03555
675.061,0.03428
669.275,0.03659
663.488,0.03602
657.702,0.03777
651.916,0.03843
646.13,0.03734
640.343,0.03613
634.557,0.03263
628.771,0.03347
622.985,0.03353
617.198,0.03371
611.412,0.03495
605.626,0.03765
599.84,0.04060