File: 01_Data/Bean_Bag_Chair_Outer_Cover/FTIR/IS/Bean_Bag_Chair_Outer_Cover_IS_T_220909_R8.dpt
7497.03,0.03292
7491.25,0.02476
7485.46,0.01635
7479.67,0.03244
7473.89,0.02876
7468.1,0.02152
7462.32,0.02201
7456.53,0.02060
7450.74,0.02578
7444.96,0.03355
7439.17,0.02887
7433.38,0.02429
7427.6,0.01760
7421.81,0.02305
7416.03,0.02649
7410.24,0.02294
7404.45,0.02210
7398.67,0.03002
7392.88,0.02413
7387.09,0.02602
7381.31,0.01610
7375.52,0.02005
7369.74,0.01562
7363.95,0.03196
7358.16,0.02544
7352.38,0.01753
7346.59,0.02253
7340.8,0.02425
7335.02,0.02331
7329.23,0.02411
7323.45,0.02220
7317.66,0.03120
7311.87,0.02639
7306.09,0.03004
7300.3,0.03407
7294.51,0.02051
7288.73,0.02943
7282.94,0.02349
7277.16,0.02623
7271.37,0.03297
7265.58,0.03303
7259.8,0.02195
7254.01,0.02280
7248.22,0.02265
7242.44,0.01379
7236.65,0.01329
7230.87,0.02372
7225.08,0.02479
7219.29,0.01915
7213.51,0.02148
7207.72,0.02960
7201.93,0.02742
7196.15,0.02149
7190.36,0.03239
7184.58,0.02506
7178.79,0.03098
7173,0.02693
7167.22,0.03382
7161.43,0.02574
7155.65,0.02789
7149.86,0.03111
7144.07,0.02585
7138.29,0.03076
7132.5,0.02512
7126.71,0.02062
7120.93,0.01821
7115.14,0.01980
7109.36,0.01781
7103.57,0.01724
7097.78,0.02405
7092,0.02310
7086.21,0.02510
7080.42,0.02317
7074.64,0.02664
7068.85,0.02259
7063.07,0.02495
7057.28,0.02377
7051.49,0.03274
7045.71,0.02292
7039.92,0.02771
7034.13,0.02482
7028.35,0.02437
7022.56,0.02165
7016.78,0.01928
7010.99,0.02485
7005.2,0.02998
6999.42,0.02641
6993.63,0.02017
6987.84,0.02095
6982.06,0.02543
6976.27,0.02569
6970.49,0.02377
6964.7,0.02290
6958.91,0.02365
6953.13,0.02271
6947.34,0.02465
6941.55,0.02661
6935.77,0.02579
6929.98,0.02194
6924.2,0.02291
6918.41,0.02464
6912.62,0.02500
6906.84,0.02512
6901.05,0.02373
6895.26,0.02626
6889.48,0.02222
6883.69,0.02725
6877.91,0.02632
6872.12,0.02161
6866.33,0.02360
6860.55,0.02293
6854.76,0.02396
6848.97,0.02377
6843.19,0.02201
6837.4,0.02323
6831.62,0.02685
6825.83,0.02084
6820.04,0.02240
6814.26,0.01932
6808.47,0.02213
6802.68,0.02577
6796.9,0.02149
6791.11,0.02213
6785.33,0.02664
6779.54,0.02586
6773.75,0.02216
6767.97,0.02402
6762.18,0.02242
6756.39,0.02228
6750.61,0.02634
6744.82,0.02196
6739.04,0.02449
6733.25,0.02320
6727.46,0.02628
6721.68,0.02487
6715.89,0.02538
6710.1,0.02307
6704.32,0.02826
6698.53,0.02680
6692.75,0.01785
6686.96,0.02626
6681.17,0.02481
6675.39,0.02380
6669.6,0.02454
6663.82,0.02196
6658.03,0.02310
6652.24,0.02218
6646.46,0.02316
6640.67,0.02223
6634.88,0.02311
6629.1,0.02302
6623.31,0.02462
6617.53,0.02015
6611.74,0.02468
6605.95,0.02025
6600.17,0.02298
6594.38,0.02236
6588.59,0.02181
6582.81,0.02132
6577.02,0.02921
6571.24,0.02065
6565.45,0.02016
6559.66,0.02072
6553.88,0.02074
6548.09,0.02037
6542.3,0.01846
6536.52,0.02700
6530.73,0.02373
6524.95,0.02020
6519.16,0.02376
6513.37,0.02244
6507.59,0.02080
6501.8,0.01946
6496.01,0.02366
6490.23,0.02103
6484.44,0.01929
6478.66,0.02311
6472.87,0.01747
6467.08,0.02249
6461.3,0.02031
6455.51,0.02284
6449.72,0.01940
6443.94,0.01869
6438.15,0.02521
6432.37,0.02331
6426.58,0.01753
6420.79,0.02302
6415.01,0.02010
6409.22,0.02294
6403.43,0.02158
6397.65,0.01976
6391.86,0.01928
6386.08,0.02436
6380.29,0.02009
6374.5,0.02311
6368.72,0.02379
6362.93,0.02023
6357.14,0.02026
6351.36,0.02416
6345.57,0.02722
6339.79,0.02161
6334,0.02313
6328.21,0.01900
6322.43,0.01938
6316.64,0.02140
6310.85,0.02021
6305.07,0.01720
6299.28,0.02209
6293.5,0.02436
6287.71,0.02381
6281.92,0.02361
6276.14,0.02057
6270.35,0.02426
6264.56,0.02536
6258.78,0.01867
6252.99,0.02232
6247.21,0.02159
6241.42,0.02285
6235.63,0.02012
6229.85,0.01997
6224.06,0.02269
6218.27,0.02532
6212.49,0.02767
6206.7,0.02159
6200.92,0.02144
6195.13,0.02376
6189.34,0.02242
6183.56,0.02438
6177.77,0.02473
6171.98,0.02392
6166.2,0.02182
6160.41,0.02212
6154.63,0.02426
6148.84,0.02160
6143.05,0.02070
6137.27,0.02243
6131.48,0.02204
6125.7,0.02148
6119.91,0.02165
6114.12,0.02204
6108.34,0.02141
6102.55,0.02411
6096.76,0.02035
6090.98,0.02001
6085.19,0.02290
6079.41,0.02005
6073.62,0.02145
6067.83,0.02340
6062.05,0.02250
6056.26,0.02307
6050.47,0.02081
6044.69,0.02136
6038.9,0.02401
6033.12,0.02295
6027.33,0.02035
6021.54,0.02093
6015.76,0.02154
6009.97,0.01968
6004.18,0.02453
5998.4,0.02451
5992.61,0.02167
5986.83,0.02246
5981.04,0.02138
5975.25,0.02024
5969.47,0.02413
5963.68,0.02119
5957.89,0.02297
5952.11,0.02434
5946.32,0.02371
5940.54,0.02083
5934.75,0.01966
5928.96,0.02268
5923.18,0.02049
5917.39,0.02365
5911.6,0.02060
5905.82,0.02277
5900.03,0.02109
5894.25,0.02101
5888.46,0.02212
5882.67,0.02312
5876.89,0.02369
5871.1,0.02126
5865.31,0.02185
5859.53,0.02233
5853.74,0.02269
5847.96,0.02116
5842.17,0.02336
5836.38,0.02065
5830.6,0.02280
5824.81,0.02318
5819.02,0.02370
5813.24,0.02152
5807.45,0.02186
5801.67,0.02235
5795.88,0.02160
5790.09,0.02031
5784.31,0.02194
5778.52,0.02250
5772.73,0.02099
5766.95,0.02162
5761.16,0.02090
5755.38,0.02277
5749.59,0.02190
5743.8,0.02344
5738.02,0.02225
5732.23,0.02180
5726.44,0.02103
5720.66,0.02015
5714.87,0.02168
5709.09,0.02184
5703.3,0.02075
5697.51,0.02251
5691.73,0.02113
5685.94,0.02010
5680.15,0.02120
5674.37,0.02149
5668.58,0.02176
5662.8,0.02317
5657.01,0.02279
5651.22,0.02197
5645.44,0.02309
5639.65,0.02414
5633.87,0.02216
5628.08,0.02279
5622.29,0.02271
5616.51,0.02111
5610.72,0.02128
5604.93,0.02114
5599.15,0.02280
5593.36,0.02285
5587.58,0.02204
5581.79,0.02251
5576,0.02237
5570.22,0.02445
5564.43,0.02178
5558.64,0.02104
5552.86,0.02301
5547.07,0.02161
5541.29,0.02287
5535.5,0.02377
5529.71,0.02134
5523.93,0.01969
5518.14,0.02236
5512.35,0.02175
5506.57,0.02208
5500.78,0.02194
5495,0.02296
5489.21,0.02334
5483.42,0.02194
5477.64,0.02101
5471.85,0.02231
5466.06,0.02115
5460.28,0.02284
5454.49,0.02129
5448.71,0.02229
5442.92,0.02217
5437.13,0.02228
5431.35,0.02080
5425.56,0.02075
5419.77,0.02206
5413.99,0.02213
5408.2,0.02382
5402.42,0.02305
5396.63,0.02395
5390.84,0.02196
5385.06,0.02310
5379.27,0.02354
5373.48,0.02285
5367.7,0.02116
5361.91,0.02280
5356.13,0.02192
5350.34,0.02292
5344.55,0.02368
5338.77,0.02337
5332.98,0.02397
5327.19,0.02333
5321.41,0.02245
5315.62,0.02096
5309.84,0.02234
5304.05,0.02197
5298.26,0.02179
5292.48,0.02208
5286.69,0.02319
5280.9,0.02001
5275.12,0.02190
5269.33,0.02264
5263.55,0.02250
5257.76,0.02364
5251.97,0.02194
5246.19,0.02238
5240.4,0.02188
5234.61,0.02209
5228.83,0.02086
5223.04,0.02210
5217.26,0.02094
5211.47,0.02189
5205.68,0.02329
5199.9,0.02168
5194.11,0.02229
5188.32,0.02188
5182.54,0.02153
5176.75,0.02174
5170.97,0.02141
5165.18,0.02151
5159.39,0.02195
5153.61,0.02216
5147.82,0.02171
5142.03,0.02208
5136.25,0.02193
5130.46,0.02249
5124.68,0.02247
5118.89,0.02219
5113.1,0.02208
5107.32,0.02155
5101.53,0.02199
5095.75,0.02181
5089.96,0.02231
5084.17,0.02233
5078.39,0.02190
5072.6,0.02239
5066.81,0.02308
5061.03,0.02177
5055.24,0.02181
5049.46,0.02151
5043.67,0.02228
5037.88,0.02212
5032.1,0.02144
5026.31,0.02141
5020.52,0.02162
5014.74,0.02165
5008.95,0.02252
5003.17,0.02213
4997.38,0.02198
4991.59,0.02074
4985.81,0.02217
4980.02,0.02398
4974.23,0.02192
4968.45,0.02238
4962.66,0.02263
4956.88,0.02186
4951.09,0.02239
4945.3,0.02268
4939.52,0.02192
4933.73,0.02270
4927.94,0.02139
4922.16,0.02289
4916.37,0.02212
4910.59,0.02116
4904.8,0.02225
4899.01,0.02299
4893.23,0.02166
4887.44,0.02204
4881.65,0.02200
4875.87,0.02243
4870.08,0.02181
4864.3,0.02233
4858.51,0.02193
4852.72,0.02241
4846.94,0.02162
4841.15,0.02169
4835.36,0.02198
4829.58,0.02210
4823.79,0.02247
4818.01,0.02201
4812.22,0.02224
4806.43,0.02261
4800.65,0.02232
4794.86,0.02302
4789.07,0.02310
4783.29,0.02312
4777.5,0.02223
4771.72,0.02220
4765.93,0.02257
4760.14,0.02251
4754.36,0.02282
4748.57,0.02246
4742.78,0.02245
4737,0.02187
4731.21,0.02319
4725.43,0.02156
4719.64,0.02268
4713.85,0.02313
4708.07,0.02193
4702.28,0.02210
4696.49,0.02207
4690.71,0.02297
4684.92,0.02261
4679.14,0.02255
4673.35,0.02347
4667.56,0.02298
4661.78,0.02175
4655.99,0.02299
4650.2,0.02205
4644.42,0.02210
4638.63,0.02236
4632.85,0.02198
4627.06,0.02235
4621.27,0.02169
4615.49,0.02199
4609.7,0.02232
4603.92,0.02251
4598.13,0.02220
4592.34,0.02187
4586.56,0.02229
4580.77,0.02247
4574.98,0.02283
4569.2,0.02222
4563.41,0.02363
4557.63,0.02225
4551.84,0.02300
4546.05,0.02290
4540.27,0.02312
4534.48,0.02294
4528.69,0.02234
4522.91,0.02197
4517.12,0.02222
4511.34,0.02253
4505.55,0.02212
4499.76,0.02219
4493.98,0.02255
4488.19,0.02110
4482.4,0.02308
4476.62,0.02204
4470.83,0.02254
4465.05,0.02229
4459.26,0.02243
4453.47,0.02224
4447.69,0.02266
4441.9,0.02178
4436.11,0.02251
4430.33,0.02236
4424.54,0.02224
4418.76,0.02219
4412.97,0.02228
4407.18,0.02324
4401.4,0.02216
4395.61,0.02254
4389.82,0.02244
4384.04,0.02186
4378.25,0.02238
4372.47,0.02218
4366.68,0.02225
4360.89,0.02232
4355.11,0.02136
4349.32,0.02220
4343.53,0.02254
4337.75,0.02235
4331.96,0.02225
4326.18,0.02194
4320.39,0.02179
4314.6,0.02300
4308.82,0.02199
4303.03,0.02213
4297.24,0.02272
4291.46,0.02232
4285.67,0.02257
4279.89,0.02259
4274.1,0.02200
4268.31,0.02198
4262.53,0.02265
4256.74,0.02202
4250.95,0.02215
4245.17,0.02318
4239.38,0.02236
4233.6,0.02215
4227.81,0.02293
4222.02,0.02196
4216.24,0.02215
4210.45,0.02193
4204.66,0.02308
4198.88,0.02286
4193.09,0.02276
4187.31,0.02262
4181.52,0.02277
4175.73,0.02260
4169.95,0.02246
4164.16,0.02276
4158.37,0.02337
4152.59,0.02226
4146.8,0.02236
4141.02,0.02324
4135.23,0.02225
4129.44,0.02296
4123.66,0.02236
4117.87,0.02315
4112.09,0.02241
4106.3,0.02217
4100.51,0.02296
4094.73,0.02238
4088.94,0.02325
4083.15,0.02228
4077.37,0.02242
4071.58,0.02269
4065.8,0.02293
4060.01,0.02292
4054.22,0.02306
4048.44,0.02203
4042.65,0.02203
4036.86,0.02267
4031.08,0.02270
4025.29,0.02284
4019.51,0.02214
4013.72,0.02256
4007.93,0.02289
4002.15,0.02254
3996.36,0.02313
3990.57,0.02256
3984.79,0.02242
3979,0.02245
3973.22,0.02240
3967.43,0.02294
3961.64,0.02306
3955.86,0.02231
3950.07,0.02215
3944.28,0.02332
3938.5,0.02285
3932.71,0.02351
3926.93,0.02291
3921.14,0.02225
3915.35,0.02239
3909.57,0.02233
3903.78,0.02303
3897.99,0.02291
3892.21,0.02252
3886.42,0.02268
3880.64,0.02342
3874.85,0.02272
3869.06,0.02307
3863.28,0.02309
3857.49,0.02303
3851.7,0.02264
3845.92,0.02340
3840.13,0.02303
3834.35,0.02278
3828.56,0.02274
3822.77,0.02391
3816.99,0.02319
3811.2,0.02278
3805.41,0.02294
3799.63,0.02328
3793.84,0.02299
3788.06,0.02252
3782.27,0.02288
3776.48,0.02304
3770.7,0.02257
3764.91,0.02265
3759.12,0.02225
3753.34,0.02269
3747.55,0.02305
3741.77,0.02214
3735.98,0.02377
3730.19,0.02256
3724.41,0.02297
3718.62,0.02328
3712.83,0.02307
3707.05,0.02234
3701.26,0.02273
3695.48,0.02252
3689.69,0.02289
3683.9,0.02163
3678.12,0.02279
3672.33,0.02308
3666.54,0.02232
3660.76,0.02290
3654.97,0.02245
3649.19,0.02234
3643.4,0.02207
3637.61,0.02218
3631.83,0.02208
3626.04,0.02140
3620.25,0.02215
3614.47,0.02199
3608.68,0.02207
3602.9,0.02197
3597.11,0.02240
3591.32,0.02254
3585.54,0.02252
3579.75,0.02190
3573.97,0.02129
3568.18,0.02212
3562.39,0.02113
3556.61,0.02159
3550.82,0.02143
3545.03,0.02091
3539.25,0.02118
3533.46,0.02130
3527.68,0.02095
3521.89,0.02090
3516.1,0.02121
3510.32,0.02110
3504.53,0.02138
3498.74,0.02091
3492.96,0.02117
3487.17,0.02028
3481.39,0.02093
3475.6,0.02047
3469.81,0.02100
3464.03,0.02082
3458.24,0.02063
3452.45,0.02052
3446.67,0.02053
3440.88,0.02093
3435.1,0.02025
3429.31,0.02035
3423.52,0.02036
3417.74,0.02078
3411.95,0.02106
3406.16,0.02093
3400.38,0.02102
3394.59,0.02109
3388.81,0.02003
3383.02,0.02041
3377.23,0.02100
3371.45,0.02018
3365.66,0.02030
3359.87,0.02022
3354.09,0.02020
3348.3,0.02037
3342.52,0.02023
3336.73,0.02032
3330.94,0.01995
3325.16,0.02068
3319.37,0.02079
3313.58,0.02058
3307.8,0.02062
3302.01,0.02014
3296.23,0.02015
3290.44,0.02085
3284.65,0.01983
3278.87,0.02047
3273.08,0.02038
3267.29,0.02028
3261.51,0.02039
3255.72,0.02079
3249.94,0.02028
3244.15,0.02043
3238.36,0.01985
3232.58,0.02105
3226.79,0.01958
3221,0.02131
3215.22,0.02144
3209.43,0.02071
3203.65,0.02123
3197.86,0.02098
3192.07,0.02075
3186.29,0.02111
3180.5,0.02138
3174.71,0.02143
3168.93,0.02125
3163.14,0.02110
3157.36,0.02031
3151.57,0.02092
3145.78,0.02128
3140,0.02181
3134.21,0.02078
3128.42,0.02094
3122.64,0.02104
3116.85,0.02099
3111.07,0.02126
3105.28,0.02074
3099.49,0.02062
3093.71,0.02088
3087.92,0.02063
3082.14,0.02084
3076.35,0.02085
3070.56,0.02069
3064.78,0.02063
3058.99,0.02113
3053.2,0.02070
3047.42,0.02069
3041.63,0.02094
3035.85,0.02068
3030.06,0.02024
3024.27,0.02065
3018.49,0.02035
3012.7,0.02061
3006.91,0.02075
3001.13,0.02060
2995.34,0.02034
2989.56,0.02042
2983.77,0.01983
2977.98,0.02008
2972.2,0.01982
2966.41,0.01978
2960.62,0.01973
2954.84,0.01977
2949.05,0.01959
2943.27,0.01988
2937.48,0.01958
2931.69,0.01953
2925.91,0.01975
2920.12,0.02019
2914.33,0.02005
2908.55,0.02022
2902.76,0.02028
2896.98,0.02095
2891.19,0.02077
2885.4,0.02042
2879.62,0.02032
2873.83,0.02021
2868.04,0.02055
2862.26,0.02050
2856.47,0.02060
2850.69,0.02096
2844.9,0.02113
2839.11,0.02108
2833.33,0.02161
2827.54,0.02177
2821.75,0.02155
2815.97,0.02163
2810.18,0.02200
2804.4,0.02104
2798.61,0.02097
2792.82,0.02109
2787.04,0.02137
2781.25,0.02112
2775.46,0.02141
2769.68,0.02141
2763.89,0.02127
2758.11,0.02153
2752.32,0.02122
2746.53,0.02161
2740.75,0.02135
2734.96,0.02115
2729.17,0.02149
2723.39,0.02097
2717.6,0.02144
2711.82,0.02099
2706.03,0.02117
2700.24,0.02105
2694.46,0.02121
2688.67,0.02077
2682.88,0.02161
2677.1,0.02130
2671.31,0.02148
2665.53,0.02132
2659.74,0.02130
2653.95,0.02082
2648.17,0.02100
2642.38,0.02127
2636.59,0.02135
2630.81,0.02159
2625.02,0.02134
2619.24,0.02142
2613.45,0.02097
2607.66,0.02111
2601.88,0.02154
2596.09,0.02123
2590.3,0.02110
2584.52,0.02122
2578.73,0.02140
2572.95,0.02157
2567.16,0.02097
2561.37,0.02094
2555.59,0.02124
2549.8,0.02113
2544.02,0.02113
2538.23,0.02126
2532.44,0.02133
2526.66,0.02141
2520.87,0.02130
2515.08,0.02133
2509.3,0.02148
2503.51,0.02163
2497.73,0.02098
2491.94,0.02127
2486.15,0.02090
2480.37,0.02134
2474.58,0.02132
2468.79,0.02134
2463.01,0.02139
2457.22,0.02185
2451.44,0.02120
2445.65,0.02112
2439.86,0.02149
2434.08,0.02106
2428.29,0.02131
2422.5,0.02154
2416.72,0.02154
2410.93,0.02123
2405.15,0.02158
2399.36,0.02125
2393.57,0.02117
2387.79,0.02157
2382,0.02128
2376.21,0.02113
2370.43,0.02180
2364.64,0.02139
2358.86,0.02202
2353.07,0.02141
2347.28,0.02154
2341.5,0.02151
2335.71,0.02167
2329.92,0.02142
2324.14,0.02105
2318.35,0.02167
2312.57,0.02130
2306.78,0.02152
2300.99,0.02109
2295.21,0.02143
2289.42,0.02140
2283.63,0.02121
2277.85,0.02136
2272.06,0.02186
2266.28,0.02123
2260.49,0.02140
2254.7,0.02102
2248.92,0.02084
2243.13,0.02076
2237.34,0.02093
2231.56,0.02136
2225.77,0.02105
2219.99,0.02117
2214.2,0.02134
2208.41,0.02123
2202.63,0.02119
2196.84,0.02127
2191.05,0.02114
2185.27,0.02105
2179.48,0.02138
2173.7,0.02125
2167.91,0.02086
2162.12,0.02096
2156.34,0.02062
2150.55,0.02096
2144.76,0.02073
2138.98,0.02144
2133.19,0.02107
2127.41,0.02080
2121.62,0.02066
2115.83,0.02116
2110.05,0.02093
2104.26,0.02110
2098.47,0.02092
2092.69,0.02115
2086.9,0.02118
2081.12,0.02122
2075.33,0.02047
2069.54,0.02097
2063.76,0.02092
2057.97,0.02132
2052.19,0.02112
2046.4,0.02098
2040.61,0.02053
2034.83,0.02111
2029.04,0.02068
2023.25,0.02101
2017.47,0.02099
2011.68,0.02079
2005.9,0.02077
2000.11,0.02062
1994.32,0.02120
1988.54,0.02105
1982.75,0.02076
1976.96,0.02079
1971.18,0.02058
1965.39,0.02097
1959.61,0.02094
1953.82,0.02078
1948.03,0.02109
1942.25,0.02111
1936.46,0.02134
1930.67,0.02121
1924.89,0.02111
1919.1,0.02118
1913.32,0.02093
1907.53,0.02156
1901.74,0.02091
1895.96,0.02058
1890.17,0.02064
1884.38,0.02032
1878.6,0.02085
1872.81,0.02048
1867.03,0.02011
1861.24,0.02046
1855.45,0.02032
1849.67,0.02034
1843.88,0.02041
1838.09,0.02033
1832.31,0.02064
1826.52,0.02019
1820.74,0.01994
1814.95,0.02022
1809.16,0.01994
1803.38,0.01988
1797.59,0.01958
1791.8,0.01986
1786.02,0.01935
1780.23,0.01922
1774.45,0.01909
1768.66,0.01867
1762.87,0.01831
1757.09,0.01780
1751.3,0.01775
1745.51,0.01820
1739.73,0.01890
1733.94,0.01973
1728.16,0.02041
1722.37,0.02095
1716.58,0.02105
1710.8,0.02111
1705.01,0.02093
1699.22,0.02035
1693.44,0.01975
1687.65,0.01916
1681.87,0.01887
1676.08,0.01938
1670.29,0.01888
1664.51,0.01885
1658.72,0.01878
1652.93,0.01820
1647.15,0.01888
1641.36,0.01850
1635.58,0.01925
1629.79,0.01885
1624,0.01921
1618.22,0.01912
1612.43,0.01926
1606.64,0.01906
1600.86,0.01925
1595.07,0.01862
1589.29,0.01863
1583.5,0.01910
1577.71,0.01906
1571.93,0.01904
1566.14,0.01858
1560.35,0.01879
1554.57,0.01822
1548.78,0.01827
1543,0.01873
1537.21,0.01852
1531.42,0.01888
1525.64,0.01858
1519.85,0.01911
1514.07,0.01919
1508.28,0.01982
1502.49,0.01903
1496.71,0.01851
1490.92,0.01920
1485.13,0.01852
1479.35,0.01825
1473.56,0.01830
1467.78,0.01856
1461.99,0.01858
1456.2,0.01871
1450.42,0.01886
1444.63,0.01889
1438.84,0.01855
1433.06,0.01890
1427.27,0.01869
1421.49,0.01884
1415.7,0.01866
1409.91,0.01839
1404.13,0.01841
1398.34,0.01846
1392.55,0.01817
1386.77,0.01829
1380.98,0.01790
1375.2,0.01842
1369.41,0.01879
1363.62,0.01852
1357.84,0.01813
1352.05,0.01831
1346.26,0.01823
1340.48,0.01782
1334.69,0.01774
1328.91,0.01755
1323.12,0.01755
1317.33,0.01749
1311.55,0.01703
1305.76,0.01714
1299.97,0.01754
1294.19,0.01800
1288.4,0.01839
1282.62,0.01886
1276.83,0.01941
1271.04,0.01973
1265.26,0.01954
1259.47,0.02011
1253.68,0.02011
1247.9,0.02058
1242.11,0.01991
1236.33,0.01981
1230.54,0.01991
1224.75,0.01979
1218.97,0.01954
1213.18,0.01938
1207.39,0.01908
1201.61,0.01870
1195.82,0.01908
1190.04,0.01838
1184.25,0.01806
1178.46,0.01809
1172.68,0.01759
1166.89,0.01828
1161.1,0.01788
1155.32,0.01808
1149.53,0.01738
1143.75,0.01778
1137.96,0.01812
1132.17,0.01794
1126.39,0.01912
1120.6,0.01900
1114.81,0.01882
1109.03,0.01874
1103.24,0.01831
1097.46,0.01861
1091.67,0.01885
1085.88,0.01839
1080.1,0.01897
1074.31,0.01865
1068.52,0.01999
1062.74,0.01974
1056.95,0.02090
1051.17,0.01998
1045.38,0.01976
1039.59,0.02004
1033.81,0.01963
1028.02,0.01957
1022.24,0.01917
1016.45,0.01952
1010.66,0.02126
1004.88,0.02118
999.09,0.02180
993.304,0.02134
987.518,0.02136
981.731,0.02076
975.945,0.02073
970.159,0.02038
964.373,0.01973
958.586,0.02019
952.8,0.01977
947.014,0.01981
941.228,0.01956
935.441,0.01996
929.655,0.01932
923.869,0.01978
918.083,0.01957
912.297,0.01948
906.51,0.01988
900.724,0.01948
894.938,0.01982
889.152,0.01977
883.365,0.01955
877.579,0.01900
871.793,0.01955
866.007,0.01916
860.22,0.01967
854.434,0.01920
848.648,0.01897
842.862,0.01869
837.075,0.01934
831.289,0.01927
825.503,0.01921
819.717,0.01902
813.931,0.01940
808.144,0.01798
802.358,0.01943
796.572,0.01874
790.786,0.01816
784.999,0.01924
779.213,0.01908
773.427,0.01840
767.641,0.01871
761.854,0.01836
756.068,0.01822
750.282,0.01767
744.496,0.01850
738.709,0.01962
732.923,0.01807
727.137,0.01768
721.351,0.01723
715.565,0.01803
709.778,0.01818
703.992,0.01821
698.206,0.01812
692.42,0.01783
686.633,0.01837
680.847,0.01938
675.061,0.01884
669.275,0.01801
663.488,0.01705
657.702,0.01793
651.916,0.01713
646.13,0.01588
640.343,0.01677
634.557,0.01523
628.771,0.01598
622.985,0.01516
617.198,0.01627
611.412,0.01456
605.626,0.01681
599.84,0.01639