File: 01_Data/Bean_Bag_Chair_Outer_Cover/FTIR/IS/Bean_Bag_Chair_Outer_Cover_IS_S_220909_R5.dpt
7497.03,0.80633
7491.25,0.81288
7485.46,0.81448
7479.67,0.81656
7473.89,0.81136
7468.1,0.81896
7462.32,0.81745
7456.53,0.80119
7450.74,0.79677
7444.96,0.80135
7439.17,0.79677
7433.38,0.79084
7427.6,0.78512
7421.81,0.79596
7416.03,0.79049
7410.24,0.77838
7404.45,0.77647
7398.67,0.77574
7392.88,0.77274
7387.09,0.77092
7381.31,0.78295
7375.52,0.78041
7369.74,0.76903
7363.95,0.76792
7358.16,0.75618
7352.38,0.76091
7346.59,0.75548
7340.8,0.76402
7335.02,0.75605
7329.23,0.74667
7323.45,0.73834
7317.66,0.73440
7311.87,0.73505
7306.09,0.73585
7300.3,0.75145
7294.51,0.74048
7288.73,0.74095
7282.94,0.73401
7277.16,0.73339
7271.37,0.73490
7265.58,0.73509
7259.8,0.74157
7254.01,0.73082
7248.22,0.72911
7242.44,0.73821
7236.65,0.74384
7230.87,0.73704
7225.08,0.73368
7219.29,0.73442
7213.51,0.73161
7207.72,0.73743
7201.93,0.73635
7196.15,0.72651
7190.36,0.72640
7184.58,0.72437
7178.79,0.72543
7173,0.72107
7167.22,0.72048
7161.43,0.71711
7155.65,0.71510
7149.86,0.71098
7144.07,0.71079
7138.29,0.70416
7132.5,0.70645
7126.71,0.69579
7120.93,0.69391
7115.14,0.68276
7109.36,0.68980
7103.57,0.68596
7097.78,0.67478
7092,0.67174
7086.21,0.66708
7080.42,0.66024
7074.64,0.65244
7068.85,0.65263
7063.07,0.64521
7057.28,0.63591
7051.49,0.62792
7045.71,0.62174
7039.92,0.61808
7034.13,0.61729
7028.35,0.61189
7022.56,0.60880
7016.78,0.59622
7010.99,0.59502
7005.2,0.59613
6999.42,0.59453
6993.63,0.59013
6987.84,0.58288
6982.06,0.57979
6976.27,0.57513
6970.49,0.57617
6964.7,0.57178
6958.91,0.57151
6953.13,0.56976
6947.34,0.56653
6941.55,0.56826
6935.77,0.56719
6929.98,0.56514
6924.2,0.55871
6918.41,0.55647
6912.62,0.56134
6906.84,0.55349
6901.05,0.55829
6895.26,0.55710
6889.48,0.55675
6883.69,0.55360
6877.91,0.55386
6872.12,0.55142
6866.33,0.55061
6860.55,0.54428
6854.76,0.54211
6848.97,0.54185
6843.19,0.54022
6837.4,0.53983
6831.62,0.53602
6825.83,0.53919
6820.04,0.53147
6814.26,0.53059
6808.47,0.52997
6802.68,0.52753
6796.9,0.53185
6791.11,0.52469
6785.33,0.52308
6779.54,0.52384
6773.75,0.51813
6767.97,0.51826
6762.18,0.51587
6756.39,0.51850
6750.61,0.51772
6744.82,0.51885
6739.04,0.51657
6733.25,0.51512
6727.46,0.51326
6721.68,0.51074
6715.89,0.51452
6710.1,0.51559
6704.32,0.51572
6698.53,0.50747
6692.75,0.51427
6686.96,0.51764
6681.17,0.51401
6675.39,0.51835
6669.6,0.51826
6663.82,0.51394
6658.03,0.51830
6652.24,0.51843
6646.46,0.52191
6640.67,0.53109
6634.88,0.52579
6629.1,0.52718
6623.31,0.53086
6617.53,0.52724
6611.74,0.52760
6605.95,0.53003
6600.17,0.53377
6594.38,0.53406
6588.59,0.53179
6582.81,0.53352
6577.02,0.53697
6571.24,0.53591
6565.45,0.53906
6559.66,0.54054
6553.88,0.53412
6548.09,0.53542
6542.3,0.53415
6536.52,0.53393
6530.73,0.53207
6524.95,0.53637
6519.16,0.53344
6513.37,0.53387
6507.59,0.53891
6501.8,0.53620
6496.01,0.53920
6490.23,0.53124
6484.44,0.53696
6478.66,0.53522
6472.87,0.53477
6467.08,0.53510
6461.3,0.53873
6455.51,0.53479
6449.72,0.53689
6443.94,0.53818
6438.15,0.53444
6432.37,0.53772
6426.58,0.54086
6420.79,0.54018
6415.01,0.53975
6409.22,0.53766
6403.43,0.53822
6397.65,0.54023
6391.86,0.53981
6386.08,0.54385
6380.29,0.53858
6374.5,0.53837
6368.72,0.54377
6362.93,0.54151
6357.14,0.54076
6351.36,0.54347
6345.57,0.54230
6339.79,0.54450
6334,0.54232
6328.21,0.54371
6322.43,0.54444
6316.64,0.54622
6310.85,0.54620
6305.07,0.54506
6299.28,0.54617
6293.5,0.55099
6287.71,0.54876
6281.92,0.54976
6276.14,0.55217
6270.35,0.55525
6264.56,0.55582
6258.78,0.55667
6252.99,0.55883
6247.21,0.55933
6241.42,0.56540
6235.63,0.56819
6229.85,0.57158
6224.06,0.57202
6218.27,0.57556
6212.49,0.57663
6206.7,0.58017
6200.92,0.58128
6195.13,0.58426
6189.34,0.58555
6183.56,0.59052
6177.77,0.59182
6171.98,0.58989
6166.2,0.59661
6160.41,0.59846
6154.63,0.60087
6148.84,0.60340
6143.05,0.60819
6137.27,0.60743
6131.48,0.61023
6125.7,0.61279
6119.91,0.61630
6114.12,0.61446
6108.34,0.61860
6102.55,0.61909
6096.76,0.62164
6090.98,0.62227
6085.19,0.62706
6079.41,0.62606
6073.62,0.62769
6067.83,0.63300
6062.05,0.63544
6056.26,0.63544
6050.47,0.63788
6044.69,0.64033
6038.9,0.64140
6033.12,0.64244
6027.33,0.64169
6021.54,0.64705
6015.76,0.64909
6009.97,0.64601
6004.18,0.64984
5998.4,0.65198
5992.61,0.65037
5986.83,0.65153
5981.04,0.65388
5975.25,0.65466
5969.47,0.65640
5963.68,0.65644
5957.89,0.65420
5952.11,0.65561
5946.32,0.65379
5940.54,0.65344
5934.75,0.65214
5928.96,0.65022
5923.18,0.65112
5917.39,0.65128
5911.6,0.64790
5905.82,0.64694
5900.03,0.64519
5894.25,0.64210
5888.46,0.63718
5882.67,0.63406
5876.89,0.63144
5871.1,0.62985
5865.31,0.62938
5859.53,0.62995
5853.74,0.62952
5847.96,0.63171
5842.17,0.63006
5836.38,0.63137
5830.6,0.63217
5824.81,0.63007
5819.02,0.62794
5813.24,0.62780
5807.45,0.62702
5801.67,0.62549
5795.88,0.62384
5790.09,0.62390
5784.31,0.62597
5778.52,0.62414
5772.73,0.62251
5766.95,0.62179
5761.16,0.62368
5755.38,0.62305
5749.59,0.62294
5743.8,0.62211
5738.02,0.62126
5732.23,0.61922
5726.44,0.61873
5720.66,0.61723
5714.87,0.61903
5709.09,0.61784
5703.3,0.61553
5697.51,0.61499
5691.73,0.61472
5685.94,0.61352
5680.15,0.61437
5674.37,0.61185
5668.58,0.61235
5662.8,0.60995
5657.01,0.61131
5651.22,0.60953
5645.44,0.61034
5639.65,0.61116
5633.87,0.60870
5628.08,0.60839
5622.29,0.60868
5616.51,0.61043
5610.72,0.60892
5604.93,0.60988
5599.15,0.60793
5593.36,0.60839
5587.58,0.60973
5581.79,0.60998
5576,0.61288
5570.22,0.61167
5564.43,0.61301
5558.64,0.61316
5552.86,0.61458
5547.07,0.61380
5541.29,0.61355
5535.5,0.61322
5529.71,0.61284
5523.93,0.61415
5518.14,0.61497
5512.35,0.61374
5506.57,0.61398
5500.78,0.61339
5495,0.61493
5489.21,0.61519
5483.42,0.61451
5477.64,0.61388
5471.85,0.61401
5466.06,0.61498
5460.28,0.61830
5454.49,0.61930
5448.71,0.61912
5442.92,0.62123
5437.13,0.62222
5431.35,0.62475
5425.56,0.62511
5419.77,0.62859
5413.99,0.62871
5408.2,0.63164
5402.42,0.63327
5396.63,0.63472
5390.84,0.63240
5385.06,0.63279
5379.27,0.63439
5373.48,0.63425
5367.7,0.63305
5361.91,0.63330
5356.13,0.63203
5350.34,0.63123
5344.55,0.63101
5338.77,0.62841
5332.98,0.62578
5327.19,0.62589
5321.41,0.62255
5315.62,0.61747
5309.84,0.61248
5304.05,0.60650
5298.26,0.60132
5292.48,0.59260
5286.69,0.58560
5280.9,0.57640
5275.12,0.56606
5269.33,0.55817
5263.55,0.54850
5257.76,0.53760
5251.97,0.52763
5246.19,0.51853
5240.4,0.50881
5234.61,0.50214
5228.83,0.49595
5223.04,0.49080
5217.26,0.48331
5211.47,0.47783
5205.68,0.47476
5199.9,0.47166
5194.11,0.47132
5188.32,0.46897
5182.54,0.46929
5176.75,0.46916
5170.97,0.46797
5165.18,0.47008
5159.39,0.47139
5153.61,0.47325
5147.82,0.47483
5142.03,0.47770
5136.25,0.48095
5130.46,0.48273
5124.68,0.48616
5118.89,0.48753
5113.1,0.49117
5107.32,0.49342
5101.53,0.49783
5095.75,0.49958
5089.96,0.50199
5084.17,0.50643
5078.39,0.50753
5072.6,0.51085
5066.81,0.51468
5061.03,0.51722
5055.24,0.51997
5049.46,0.52026
5043.67,0.52439
5037.88,0.52647
5032.1,0.52892
5026.31,0.53091
5020.52,0.53343
5014.74,0.53391
5008.95,0.53693
5003.17,0.53785
4997.38,0.53917
4991.59,0.53914
4985.81,0.53767
4980.02,0.53760
4974.23,0.53609
4968.45,0.53557
4962.66,0.53325
4956.88,0.53144
4951.09,0.52917
4945.3,0.52486
4939.52,0.52057
4933.73,0.51591
4927.94,0.50979
4922.16,0.50490
4916.37,0.49900
4910.59,0.49287
4904.8,0.48646
4899.01,0.48035
4893.23,0.47346
4887.44,0.46618
4881.65,0.45949
4875.87,0.45307
4870.08,0.44639
4864.3,0.44216
4858.51,0.43729
4852.72,0.43235
4846.94,0.42832
4841.15,0.42362
4835.36,0.41987
4829.58,0.41525
4823.79,0.41006
4818.01,0.40566
4812.22,0.40341
4806.43,0.40051
4800.65,0.39728
4794.86,0.39536
4789.07,0.39388
4783.29,0.39213
4777.5,0.38999
4771.72,0.38919
4765.93,0.38827
4760.14,0.38658
4754.36,0.38632
4748.57,0.38693
4742.78,0.38856
4737,0.38949
4731.21,0.39263
4725.43,0.39458
4719.64,0.39688
4713.85,0.39857
4708.07,0.40103
4702.28,0.40195
4696.49,0.40553
4690.71,0.40967
4684.92,0.41359
4679.14,0.41551
4673.35,0.41823
4667.56,0.42031
4661.78,0.42336
4655.99,0.42535
4650.2,0.42761
4644.42,0.43035
4638.63,0.43316
4632.85,0.43648
4627.06,0.43774
4621.27,0.43931
4615.49,0.44291
4609.7,0.44554
4603.92,0.44742
4598.13,0.45063
4592.34,0.45179
4586.56,0.45567
4580.77,0.45852
4574.98,0.46108
4569.2,0.46341
4563.41,0.46530
4557.63,0.46935
4551.84,0.47116
4546.05,0.47229
4540.27,0.47435
4534.48,0.47645
4528.69,0.47891
4522.91,0.47922
4517.12,0.48150
4511.34,0.48243
4505.55,0.48306
4499.76,0.48401
4493.98,0.48463
4488.19,0.48487
4482.4,0.48510
4476.62,0.48478
4470.83,0.48397
4465.05,0.48069
4459.26,0.47829
4453.47,0.47250
4447.69,0.46670
4441.9,0.45881
4436.11,0.44924
4430.33,0.44016
4424.54,0.43049
4418.76,0.42036
4412.97,0.41241
4407.18,0.40487
4401.4,0.40017
4395.61,0.39873
4389.82,0.39942
4384.04,0.40292
4378.25,0.40636
4372.47,0.41045
4366.68,0.41208
4360.89,0.41132
4355.11,0.40964
4349.32,0.40660
4343.53,0.40435
4337.75,0.40176
4331.96,0.39833
4326.18,0.39330
4320.39,0.38982
4314.6,0.38721
4308.82,0.38281
4303.03,0.37942
4297.24,0.37692
4291.46,0.37336
4285.67,0.37043
4279.89,0.36806
4274.1,0.36731
4268.31,0.36658
4262.53,0.36673
4256.74,0.36706
4250.95,0.36707
4245.17,0.36717
4239.38,0.36781
4233.6,0.37051
4227.81,0.37140
4222.02,0.37281
4216.24,0.37289
4210.45,0.37347
4204.66,0.37541
4198.88,0.37801
4193.09,0.37958
4187.31,0.37978
4181.52,0.37927
4175.73,0.37988
4169.95,0.38048
4164.16,0.38180
4158.37,0.38136
4152.59,0.37980
4146.8,0.37628
4141.02,0.37493
4135.23,0.37252
4129.44,0.36990
4123.66,0.36728
4117.87,0.36223
4112.09,0.35748
4106.3,0.35167
4100.51,0.34558
4094.73,0.33946
4088.94,0.33244
4083.15,0.32585
4077.37,0.31988
4071.58,0.31367
4065.8,0.30759
4060.01,0.29953
4054.22,0.29209
4048.44,0.28549
4042.65,0.27919
4036.86,0.27494
4031.08,0.27175
4025.29,0.26895
4019.51,0.26844
4013.72,0.26910
4007.93,0.26964
4002.15,0.27195
3996.36,0.27521
3990.57,0.27716
3984.79,0.27944
3979,0.28076
3973.22,0.28174
3967.43,0.28338
3961.64,0.28626
3955.86,0.28714
3950.07,0.28908
3944.28,0.29212
3938.5,0.29455
3932.71,0.29882
3926.93,0.30333
3921.14,0.30562
3915.35,0.30854
3909.57,0.31104
3903.78,0.31425
3897.99,0.31673
3892.21,0.31864
3886.42,0.32130
3880.64,0.32408
3874.85,0.32536
3869.06,0.32981
3863.28,0.33436
3857.49,0.33807
3851.7,0.34225
3845.92,0.34397
3840.13,0.34749
3834.35,0.34934
3828.56,0.34877
3822.77,0.35012
3816.99,0.34923
3811.2,0.34734
3805.41,0.34793
3799.63,0.34816
3793.84,0.34735
3788.06,0.34608
3782.27,0.34594
3776.48,0.34457
3770.7,0.34361
3764.91,0.34217
3759.12,0.34089
3753.34,0.33935
3747.55,0.33761
3741.77,0.33311
3735.98,0.33046
3730.19,0.32485
3724.41,0.31893
3718.62,0.31222
3712.83,0.30600
3707.05,0.29571
3701.26,0.28646
3695.48,0.27486
3689.69,0.26476
3683.9,0.24807
3678.12,0.23423
3672.33,0.21537
3666.54,0.19581
3660.76,0.17871
3654.97,0.16136
3649.19,0.14624
3643.4,0.12989
3637.61,0.11734
3631.83,0.10628
3626.04,0.09409
3620.25,0.08645
3614.47,0.07754
3608.68,0.06998
3602.9,0.06342
3597.11,0.05842
3591.32,0.05371
3585.54,0.04987
3579.75,0.04650
3573.97,0.04335
3568.18,0.04074
3562.39,0.03767
3556.61,0.03564
3550.82,0.03394
3545.03,0.03187
3539.25,0.03028
3533.46,0.02942
3527.68,0.02923
3521.89,0.02782
3516.1,0.02641
3510.32,0.02580
3504.53,0.02501
3498.74,0.02434
3492.96,0.02416
3487.17,0.02406
3481.39,0.02461
3475.6,0.02504
3469.81,0.02469
3464.03,0.02440
3458.24,0.02422
3452.45,0.02391
3446.67,0.02549
3440.88,0.02612
3435.1,0.02691
3429.31,0.02594
3423.52,0.02603
3417.74,0.02553
3411.95,0.02576
3406.16,0.02585
3400.38,0.02571
3394.59,0.02551
3388.81,0.02583
3383.02,0.02620
3377.23,0.02595
3371.45,0.02610
3365.66,0.02698
3359.87,0.02713
3354.09,0.02714
3348.3,0.02731
3342.52,0.02820
3336.73,0.02820
3330.94,0.02833
3325.16,0.02885
3319.37,0.02856
3313.58,0.02904
3307.8,0.02933
3302.01,0.02851
3296.23,0.02935
3290.44,0.02982
3284.65,0.02927
3278.87,0.02971
3273.08,0.03045
3267.29,0.03079
3261.51,0.03062
3255.72,0.03100
3249.94,0.03161
3244.15,0.03304
3238.36,0.03182
3232.58,0.03346
3226.79,0.03351
3221,0.03308
3215.22,0.03410
3209.43,0.03381
3203.65,0.03416
3197.86,0.03487
3192.07,0.03471
3186.29,0.03569
3180.5,0.03651
3174.71,0.03714
3168.93,0.03715
3163.14,0.03809
3157.36,0.03943
3151.57,0.03978
3145.78,0.04100
3140,0.04180
3134.21,0.04307
3128.42,0.04502
3122.64,0.04622
3116.85,0.04727
3111.07,0.04944
3105.28,0.05132
3099.49,0.05308
3093.71,0.05488
3087.92,0.05696
3082.14,0.05914
3076.35,0.06146
3070.56,0.06415
3064.78,0.06629
3058.99,0.06850
3053.2,0.07124
3047.42,0.07378
3041.63,0.07624
3035.85,0.07832
3030.06,0.08044
3024.27,0.08245
3018.49,0.08415
3012.7,0.08583
3006.91,0.08716
3001.13,0.08758
2995.34,0.08638
2989.56,0.08293
2983.77,0.07602
2977.98,0.07040
2972.2,0.06322
2966.41,0.05896
2960.62,0.05709
2954.84,0.05286
2949.05,0.05069
2943.27,0.04834
2937.48,0.04659
2931.69,0.04466
2925.91,0.04363
2920.12,0.04190
2914.33,0.03962
2908.55,0.03911
2902.76,0.03818
2896.98,0.03850
2891.19,0.03946
2885.4,0.04102
2879.62,0.04268
2873.83,0.04407
2868.04,0.04568
2862.26,0.04849
2856.47,0.05092
2850.69,0.05335
2844.9,0.05776
2839.11,0.06277
2833.33,0.06708
2827.54,0.07042
2821.75,0.07380
2815.97,0.07740
2810.18,0.08113
2804.4,0.08529
2798.61,0.08826
2792.82,0.09117
2787.04,0.09401
2781.25,0.09588
2775.46,0.09729
2769.68,0.09935
2763.89,0.10082
2758.11,0.10224
2752.32,0.10277
2746.53,0.10265
2740.75,0.10216
2734.96,0.10261
2729.17,0.10350
2723.39,0.10478
2717.6,0.10651
2711.82,0.10916
2706.03,0.11204
2700.24,0.11502
2694.46,0.11830
2688.67,0.12202
2682.88,0.12490
2677.1,0.12826
2671.31,0.13157
2665.53,0.13402
2659.74,0.13652
2653.95,0.13921
2648.17,0.14215
2642.38,0.14479
2636.59,0.14764
2630.81,0.14996
2625.02,0.15197
2619.24,0.15437
2613.45,0.15664
2607.66,0.15836
2601.88,0.16010
2596.09,0.16231
2590.3,0.16387
2584.52,0.16441
2578.73,0.16566
2572.95,0.16689
2567.16,0.16703
2561.37,0.16678
2555.59,0.16640
2549.8,0.16571
2544.02,0.16504
2538.23,0.16495
2532.44,0.16546
2526.66,0.16621
2520.87,0.16798
2515.08,0.16929
2509.3,0.17230
2503.51,0.17595
2497.73,0.17931
2491.94,0.18292
2486.15,0.18596
2480.37,0.18828
2474.58,0.19182
2468.79,0.19473
2463.01,0.19638
2457.22,0.19887
2451.44,0.20182
2445.65,0.20454
2439.86,0.20759
2434.08,0.21143
2428.29,0.21497
2422.5,0.21875
2416.72,0.22206
2410.93,0.22464
2405.15,0.22726
2399.36,0.22985
2393.57,0.23174
2387.79,0.23400
2382,0.23616
2376.21,0.23896
2370.43,0.24103
2364.64,0.24299
2358.86,0.24472
2353.07,0.24677
2347.28,0.25027
2341.5,0.25365
2335.71,0.25551
2329.92,0.25675
2324.14,0.25804
2318.35,0.25916
2312.57,0.26003
2306.78,0.26030
2300.99,0.25942
2295.21,0.25859
2289.42,0.25729
2283.63,0.25639
2277.85,0.25457
2272.06,0.25116
2266.28,0.24693
2260.49,0.24283
2254.7,0.24006
2248.92,0.23740
2243.13,0.23510
2237.34,0.23356
2231.56,0.23231
2225.77,0.23231
2219.99,0.23259
2214.2,0.23308
2208.41,0.23350
2202.63,0.23271
2196.84,0.23154
2191.05,0.22961
2185.27,0.22599
2179.48,0.22186
2173.7,0.21745
2167.91,0.21337
2162.12,0.21008
2156.34,0.20712
2150.55,0.20577
2144.76,0.20420
2138.98,0.20246
2133.19,0.20215
2127.41,0.20322
2121.62,0.20543
2115.83,0.20838
2110.05,0.21157
2104.26,0.21514
2098.47,0.21783
2092.69,0.21993
2086.9,0.22171
2081.12,0.22311
2075.33,0.22355
2069.54,0.22233
2063.76,0.22171
2057.97,0.22168
2052.19,0.22186
2046.4,0.22251
2040.61,0.22376
2034.83,0.22658
2029.04,0.23173
2023.25,0.23801
2017.47,0.24356
2011.68,0.24891
2005.9,0.25202
2000.11,0.25323
1994.32,0.25471
1988.54,0.25686
1982.75,0.25927
1976.96,0.26278
1971.18,0.26581
1965.39,0.26851
1959.61,0.27118
1953.82,0.27477
1948.03,0.27891
1942.25,0.28359
1936.46,0.28730
1930.67,0.29014
1924.89,0.29289
1919.1,0.29483
1913.32,0.29605
1907.53,0.29797
1901.74,0.29933
1895.96,0.29991
1890.17,0.29993
1884.38,0.29945
1878.6,0.29854
1872.81,0.29795
1867.03,0.29735
1861.24,0.29461
1855.45,0.29222
1849.67,0.28910
1843.88,0.28578
1838.09,0.28194
1832.31,0.27966
1826.52,0.27777
1820.74,0.27425
1814.95,0.27061
1809.16,0.26712
1803.38,0.26311
1797.59,0.25915
1791.8,0.25576
1786.02,0.25143
1780.23,0.24806
1774.45,0.24509
1768.66,0.24094
1762.87,0.23616
1757.09,0.23180
1751.3,0.22827
1745.51,0.22227
1739.73,0.21616
1733.94,0.21000
1728.16,0.20240
1722.37,0.19575
1716.58,0.18923
1710.8,0.18008
1705.01,0.17203
1699.22,0.16198
1693.44,0.14885
1687.65,0.13909
1681.87,0.12501
1676.08,0.11587
1670.29,0.10653
1664.51,0.09812
1658.72,0.09181
1652.93,0.08885
1647.15,0.08735
1641.36,0.08613
1635.58,0.08812
1629.79,0.09008
1624,0.09539
1618.22,0.10077
1612.43,0.10639
1606.64,0.11071
1600.86,0.11456
1595.07,0.11744
1589.29,0.12009
1583.5,0.12227
1577.71,0.12547
1571.93,0.12786
1566.14,0.13022
1560.35,0.13082
1554.57,0.13109
1548.78,0.12855
1543,0.12807
1537.21,0.12452
1531.42,0.12393
1525.64,0.12299
1519.85,0.11976
1514.07,0.11348
1508.28,0.10934
1502.49,0.10072
1496.71,0.09301
1490.92,0.08325
1485.13,0.06888
1479.35,0.06024
1473.56,0.05451
1467.78,0.04803
1461.99,0.04419
1456.2,0.04113
1450.42,0.03793
1444.63,0.03598
1438.84,0.03522
1433.06,0.03296
1427.27,0.03324
1421.49,0.03452
1415.7,0.03683
1409.91,0.03850
1404.13,0.03848
1398.34,0.03757
1392.55,0.03558
1386.77,0.03268
1380.98,0.02898
1375.2,0.02783
1369.41,0.02790
1363.62,0.02919
1357.84,0.03097
1352.05,0.03202
1346.26,0.03207
1340.48,0.03085
1334.69,0.03054
1328.91,0.03190
1323.12,0.03152
1317.33,0.03047
1311.55,0.03223
1305.76,0.03610
1299.97,0.03856
1294.19,0.03956
1288.4,0.03940
1282.62,0.03593
1276.83,0.03602
1271.04,0.03889
1265.26,0.03864
1259.47,0.03868
1253.68,0.03971
1247.9,0.03925
1242.11,0.03798
1236.33,0.03551
1230.54,0.03506
1224.75,0.03614
1218.97,0.03793
1213.18,0.03624
1207.39,0.03064
1201.61,0.02791
1195.82,0.02843
1190.04,0.02928
1184.25,0.02719
1178.46,0.02396
1172.68,0.02522
1166.89,0.03020
1161.1,0.03165
1155.32,0.02935
1149.53,0.02665
1143.75,0.02361
1137.96,0.02093
1132.17,0.01960
1126.39,0.02126
1120.6,0.02486
1114.81,0.02834
1109.03,0.02917
1103.24,0.02739
1097.46,0.02697
1091.67,0.02727
1085.88,0.03161
1080.1,0.03823
1074.31,0.03991
1068.52,0.04332
1062.74,0.04800
1056.95,0.04891
1051.17,0.04481
1045.38,0.04230
1039.59,0.04202
1033.81,0.04556
1028.02,0.04691
1022.24,0.04635
1016.45,0.04680
1010.66,0.04601
1004.88,0.04532
999.09,0.04738
993.304,0.05127
987.518,0.05426
981.731,0.06241
975.945,0.07058
970.159,0.07231
964.373,0.07569
958.586,0.08580
952.8,0.09871
947.014,0.10766
941.228,0.11040
935.441,0.11027
929.655,0.10912
923.869,0.11021
918.083,0.10719
912.297,0.09658
906.51,0.08301
900.724,0.06994
894.938,0.06591
889.152,0.08249
883.365,0.10070
877.579,0.11165
871.793,0.11907
866.007,0.12168
860.22,0.12100
854.434,0.11847
848.648,0.11454
842.862,0.11104
837.075,0.10746
831.289,0.10359
825.503,0.09911
819.717,0.09724
813.931,0.09373
808.144,0.08983
802.358,0.08616
796.572,0.08377
790.786,0.08052
784.999,0.07681
779.213,0.07371
773.427,0.06893
767.641,0.06613
761.854,0.06220
756.068,0.05880
750.282,0.05621
744.496,0.05278
738.709,0.04986
732.923,0.04672
727.137,0.04365
721.351,0.04187
715.565,0.03966
709.778,0.04024
703.992,0.03922
698.206,0.03848
692.42,0.03948
686.633,0.03770
680.847,0.03553
675.061,0.03507
669.275,0.03542
663.488,0.03647
657.702,0.03748
651.916,0.03689
646.13,0.03646
640.343,0.03651
634.557,0.03451
628.771,0.03362
622.985,0.03521
617.198,0.03579
611.412,0.03471
605.626,0.03638
599.84,0.03859