File: 01_Data/Bean_Bag_Chair_Outer_Cover/FTIR/IS/Bean_Bag_Chair_Outer_Cover_IS_S_220909_R2.dpt
7497.03,0.81604
7491.25,0.81910
7485.46,0.81161
7479.67,0.80570
7473.89,0.80281
7468.1,0.79352
7462.32,0.79201
7456.53,0.80058
7450.74,0.80275
7444.96,0.79747
7439.17,0.79390
7433.38,0.79039
7427.6,0.78744
7421.81,0.79257
7416.03,0.78775
7410.24,0.78017
7404.45,0.78543
7398.67,0.77673
7392.88,0.77090
7387.09,0.77456
7381.31,0.76209
7375.52,0.76416
7369.74,0.76775
7363.95,0.76285
7358.16,0.75897
7352.38,0.76204
7346.59,0.75513
7340.8,0.75173
7335.02,0.74458
7329.23,0.73654
7323.45,0.73586
7317.66,0.73170
7311.87,0.73381
7306.09,0.73608
7300.3,0.74090
7294.51,0.73052
7288.73,0.72874
7282.94,0.72934
7277.16,0.73325
7271.37,0.72920
7265.58,0.72196
7259.8,0.72787
7254.01,0.72794
7248.22,0.72020
7242.44,0.73395
7236.65,0.73895
7230.87,0.73365
7225.08,0.74023
7219.29,0.73077
7213.51,0.72853
7207.72,0.72997
7201.93,0.72768
7196.15,0.72512
7190.36,0.72157
7184.58,0.72179
7178.79,0.72929
7173,0.71706
7167.22,0.71754
7161.43,0.70553
7155.65,0.71197
7149.86,0.70841
7144.07,0.69651
7138.29,0.70270
7132.5,0.70111
7126.71,0.69182
7120.93,0.68534
7115.14,0.67953
7109.36,0.67178
7103.57,0.67584
7097.78,0.66382
7092,0.67165
7086.21,0.66294
7080.42,0.65563
7074.64,0.65120
7068.85,0.63591
7063.07,0.63802
7057.28,0.62689
7051.49,0.63375
7045.71,0.61975
7039.92,0.62137
7034.13,0.61246
7028.35,0.60551
7022.56,0.59820
7016.78,0.60262
7010.99,0.59346
7005.2,0.59376
6999.42,0.58712
6993.63,0.58243
6987.84,0.58220
6982.06,0.57998
6976.27,0.57806
6970.49,0.57252
6964.7,0.57857
6958.91,0.56832
6953.13,0.56535
6947.34,0.56623
6941.55,0.56065
6935.77,0.56637
6929.98,0.56026
6924.2,0.56216
6918.41,0.55996
6912.62,0.55566
6906.84,0.55205
6901.05,0.54654
6895.26,0.55510
6889.48,0.54526
6883.69,0.55096
6877.91,0.54924
6872.12,0.54842
6866.33,0.55113
6860.55,0.54821
6854.76,0.54312
6848.97,0.54566
6843.19,0.54088
6837.4,0.53821
6831.62,0.53448
6825.83,0.53488
6820.04,0.53213
6814.26,0.53175
6808.47,0.52513
6802.68,0.52203
6796.9,0.52564
6791.11,0.51828
6785.33,0.52076
6779.54,0.52263
6773.75,0.51791
6767.97,0.51664
6762.18,0.51428
6756.39,0.51025
6750.61,0.51772
6744.82,0.51138
6739.04,0.51438
6733.25,0.51095
6727.46,0.51357
6721.68,0.51087
6715.89,0.51290
6710.1,0.51583
6704.32,0.51691
6698.53,0.51822
6692.75,0.51470
6686.96,0.51608
6681.17,0.51602
6675.39,0.51380
6669.6,0.51329
6663.82,0.51914
6658.03,0.51717
6652.24,0.51480
6646.46,0.51604
6640.67,0.52417
6634.88,0.52480
6629.1,0.52589
6623.31,0.52337
6617.53,0.52374
6611.74,0.52708
6605.95,0.52960
6600.17,0.52658
6594.38,0.53132
6588.59,0.52737
6582.81,0.53251
6577.02,0.53315
6571.24,0.53243
6565.45,0.53112
6559.66,0.53469
6553.88,0.53093
6548.09,0.53517
6542.3,0.53500
6536.52,0.53498
6530.73,0.53273
6524.95,0.53281
6519.16,0.53707
6513.37,0.53065
6507.59,0.53392
6501.8,0.53548
6496.01,0.52923
6490.23,0.53029
6484.44,0.53194
6478.66,0.53010
6472.87,0.53177
6467.08,0.53230
6461.3,0.53595
6455.51,0.53193
6449.72,0.54052
6443.94,0.53311
6438.15,0.53391
6432.37,0.53651
6426.58,0.53462
6420.79,0.53698
6415.01,0.54264
6409.22,0.53507
6403.43,0.53763
6397.65,0.53812
6391.86,0.54286
6386.08,0.53710
6380.29,0.53488
6374.5,0.53926
6368.72,0.54135
6362.93,0.54290
6357.14,0.54241
6351.36,0.54252
6345.57,0.54141
6339.79,0.54467
6334,0.53994
6328.21,0.54218
6322.43,0.54475
6316.64,0.54313
6310.85,0.54220
6305.07,0.54318
6299.28,0.54321
6293.5,0.54676
6287.71,0.55167
6281.92,0.54773
6276.14,0.54857
6270.35,0.55386
6264.56,0.55636
6258.78,0.55480
6252.99,0.56091
6247.21,0.56222
6241.42,0.56289
6235.63,0.56979
6229.85,0.56961
6224.06,0.57053
6218.27,0.57276
6212.49,0.57461
6206.7,0.57670
6200.92,0.58047
6195.13,0.58006
6189.34,0.58406
6183.56,0.58657
6177.77,0.58857
6171.98,0.59464
6166.2,0.59502
6160.41,0.59701
6154.63,0.59928
6148.84,0.60017
6143.05,0.60421
6137.27,0.60397
6131.48,0.60769
6125.7,0.60935
6119.91,0.60992
6114.12,0.61487
6108.34,0.61595
6102.55,0.61645
6096.76,0.61791
6090.98,0.62061
6085.19,0.62243
6079.41,0.62599
6073.62,0.62875
6067.83,0.62841
6062.05,0.63169
6056.26,0.63047
6050.47,0.63195
6044.69,0.63688
6038.9,0.63811
6033.12,0.64185
6027.33,0.64266
6021.54,0.64197
6015.76,0.64671
6009.97,0.64892
6004.18,0.64732
5998.4,0.64760
5992.61,0.64970
5986.83,0.65039
5981.04,0.65156
5975.25,0.65253
5969.47,0.65624
5963.68,0.65542
5957.89,0.65278
5952.11,0.64956
5946.32,0.65043
5940.54,0.64954
5934.75,0.64742
5928.96,0.64592
5923.18,0.64678
5917.39,0.64745
5911.6,0.64772
5905.82,0.64506
5900.03,0.64227
5894.25,0.64052
5888.46,0.63419
5882.67,0.63507
5876.89,0.63153
5871.1,0.62785
5865.31,0.62753
5859.53,0.63031
5853.74,0.62952
5847.96,0.62977
5842.17,0.63210
5836.38,0.63048
5830.6,0.62857
5824.81,0.62678
5819.02,0.62522
5813.24,0.62477
5807.45,0.62619
5801.67,0.62547
5795.88,0.62618
5790.09,0.62413
5784.31,0.62396
5778.52,0.62151
5772.73,0.62065
5766.95,0.62302
5761.16,0.62291
5755.38,0.62235
5749.59,0.62181
5743.8,0.62132
5738.02,0.61832
5732.23,0.61799
5726.44,0.61813
5720.66,0.61839
5714.87,0.61449
5709.09,0.61599
5703.3,0.61539
5697.51,0.61568
5691.73,0.61316
5685.94,0.61078
5680.15,0.61445
5674.37,0.61315
5668.58,0.60913
5662.8,0.60922
5657.01,0.60844
5651.22,0.60855
5645.44,0.60989
5639.65,0.60779
5633.87,0.60556
5628.08,0.60759
5622.29,0.60668
5616.51,0.61015
5610.72,0.60890
5604.93,0.60760
5599.15,0.60918
5593.36,0.60874
5587.58,0.60933
5581.79,0.60866
5576,0.60829
5570.22,0.61045
5564.43,0.61012
5558.64,0.61120
5552.86,0.60975
5547.07,0.61078
5541.29,0.61278
5535.5,0.61324
5529.71,0.61292
5523.93,0.61292
5518.14,0.61271
5512.35,0.61246
5506.57,0.61311
5500.78,0.61256
5495,0.61319
5489.21,0.61070
5483.42,0.61123
5477.64,0.61282
5471.85,0.61189
5466.06,0.61386
5460.28,0.61578
5454.49,0.61677
5448.71,0.61718
5442.92,0.61770
5437.13,0.62051
5431.35,0.62271
5425.56,0.62468
5419.77,0.62439
5413.99,0.62756
5408.2,0.62886
5402.42,0.62974
5396.63,0.63001
5390.84,0.63088
5385.06,0.63164
5379.27,0.63112
5373.48,0.63169
5367.7,0.63083
5361.91,0.63005
5356.13,0.62878
5350.34,0.62750
5344.55,0.62580
5338.77,0.62541
5332.98,0.62176
5327.19,0.61821
5321.41,0.61529
5315.62,0.61036
5309.84,0.60517
5304.05,0.59827
5298.26,0.59333
5292.48,0.58526
5286.69,0.57835
5280.9,0.56820
5275.12,0.55804
5269.33,0.54613
5263.55,0.53640
5257.76,0.52650
5251.97,0.51664
5246.19,0.50567
5240.4,0.49717
5234.61,0.49032
5228.83,0.48147
5223.04,0.47731
5217.26,0.47013
5211.47,0.46517
5205.68,0.46233
5199.9,0.45795
5194.11,0.45524
5188.32,0.45439
5182.54,0.45463
5176.75,0.45322
5170.97,0.45564
5165.18,0.45557
5159.39,0.45839
5153.61,0.45857
5147.82,0.45929
5142.03,0.46340
5136.25,0.46591
5130.46,0.46893
5124.68,0.47061
5118.89,0.47478
5113.1,0.47694
5107.32,0.48099
5101.53,0.48242
5095.75,0.48614
5089.96,0.48957
5084.17,0.49256
5078.39,0.49605
5072.6,0.49741
5066.81,0.50026
5061.03,0.50382
5055.24,0.50562
5049.46,0.50909
5043.67,0.51230
5037.88,0.51516
5032.1,0.51821
5026.31,0.51959
5020.52,0.52155
5014.74,0.52360
5008.95,0.52466
5003.17,0.52592
4997.38,0.52749
4991.59,0.52813
4985.81,0.52811
4980.02,0.52775
4974.23,0.52819
4968.45,0.52678
4962.66,0.52578
4956.88,0.52414
4951.09,0.52100
4945.3,0.51810
4939.52,0.51486
4933.73,0.50998
4927.94,0.50707
4922.16,0.50133
4916.37,0.49538
4910.59,0.48985
4904.8,0.48453
4899.01,0.47796
4893.23,0.47199
4887.44,0.46340
4881.65,0.45780
4875.87,0.45121
4870.08,0.44594
4864.3,0.44139
4858.51,0.43546
4852.72,0.43166
4846.94,0.42849
4841.15,0.42322
4835.36,0.41841
4829.58,0.41371
4823.79,0.41038
4818.01,0.40611
4812.22,0.40264
4806.43,0.39983
4800.65,0.39716
4794.86,0.39493
4789.07,0.39255
4783.29,0.39101
4777.5,0.38955
4771.72,0.38880
4765.93,0.38830
4760.14,0.38665
4754.36,0.38652
4748.57,0.38722
4742.78,0.38887
4737,0.39094
4731.21,0.39274
4725.43,0.39412
4719.64,0.39576
4713.85,0.39926
4708.07,0.40086
4702.28,0.40217
4696.49,0.40611
4690.71,0.40960
4684.92,0.41330
4679.14,0.41539
4673.35,0.41766
4667.56,0.42036
4661.78,0.42229
4655.99,0.42471
4650.2,0.42798
4644.42,0.42991
4638.63,0.43203
4632.85,0.43510
4627.06,0.43725
4621.27,0.43999
4615.49,0.44174
4609.7,0.44400
4603.92,0.44699
4598.13,0.44960
4592.34,0.45184
4586.56,0.45442
4580.77,0.45718
4574.98,0.46000
4569.2,0.46269
4563.41,0.46516
4557.63,0.46817
4551.84,0.46995
4546.05,0.47170
4540.27,0.47413
4534.48,0.47518
4528.69,0.47630
4522.91,0.47818
4517.12,0.48014
4511.34,0.48155
4505.55,0.48284
4499.76,0.48317
4493.98,0.48363
4488.19,0.48376
4482.4,0.48403
4476.62,0.48432
4470.83,0.48237
4465.05,0.48053
4459.26,0.47675
4453.47,0.47260
4447.69,0.46619
4441.9,0.45896
4436.11,0.44963
4430.33,0.43878
4424.54,0.42903
4418.76,0.41969
4412.97,0.41174
4407.18,0.40536
4401.4,0.39963
4395.61,0.39857
4389.82,0.39894
4384.04,0.40176
4378.25,0.40568
4372.47,0.40981
4366.68,0.41140
4360.89,0.41113
4355.11,0.40912
4349.32,0.40662
4343.53,0.40426
4337.75,0.40140
4331.96,0.39739
4326.18,0.39359
4320.39,0.38917
4314.6,0.38541
4308.82,0.38263
4303.03,0.37975
4297.24,0.37637
4291.46,0.37343
4285.67,0.36975
4279.89,0.36780
4274.1,0.36723
4268.31,0.36632
4262.53,0.36656
4256.74,0.36699
4250.95,0.36641
4245.17,0.36627
4239.38,0.36625
4233.6,0.36879
4227.81,0.37089
4222.02,0.37190
4216.24,0.37209
4210.45,0.37282
4204.66,0.37511
4198.88,0.37719
4193.09,0.37834
4187.31,0.37826
4181.52,0.37741
4175.73,0.37768
4169.95,0.37907
4164.16,0.38083
4158.37,0.37974
4152.59,0.37715
4146.8,0.37500
4141.02,0.37242
4135.23,0.37058
4129.44,0.36876
4123.66,0.36545
4117.87,0.36165
4112.09,0.35582
4106.3,0.34968
4100.51,0.34397
4094.73,0.33730
4088.94,0.33137
4083.15,0.32461
4077.37,0.31809
4071.58,0.31225
4065.8,0.30515
4060.01,0.29857
4054.22,0.29064
4048.44,0.28399
4042.65,0.27881
4036.86,0.27357
4031.08,0.27030
4025.29,0.26829
4019.51,0.26685
4013.72,0.26771
4007.93,0.26921
4002.15,0.27143
3996.36,0.27369
3990.57,0.27575
3984.79,0.27830
3979,0.28016
3973.22,0.28116
3967.43,0.28240
3961.64,0.28399
3955.86,0.28559
3950.07,0.28776
3944.28,0.28975
3938.5,0.29298
3932.71,0.29679
3926.93,0.30055
3921.14,0.30365
3915.35,0.30614
3909.57,0.30850
3903.78,0.31240
3897.99,0.31441
3892.21,0.31658
3886.42,0.31862
3880.64,0.31957
3874.85,0.32207
3869.06,0.32654
3863.28,0.33043
3857.49,0.33396
3851.7,0.33741
3845.92,0.34062
3840.13,0.34318
3834.35,0.34512
3828.56,0.34481
3822.77,0.34488
3816.99,0.34475
3811.2,0.34264
3805.41,0.34196
3799.63,0.34231
3793.84,0.34175
3788.06,0.34144
3782.27,0.34028
3776.48,0.33880
3770.7,0.33731
3764.91,0.33653
3759.12,0.33374
3753.34,0.33292
3747.55,0.32991
3741.77,0.32597
3735.98,0.32244
3730.19,0.31671
3724.41,0.31120
3718.62,0.30376
3712.83,0.29756
3707.05,0.28629
3701.26,0.27687
3695.48,0.26540
3689.69,0.25325
3683.9,0.23651
3678.12,0.22266
3672.33,0.20403
3666.54,0.18507
3660.76,0.16809
3654.97,0.14972
3649.19,0.13576
3643.4,0.11963
3637.61,0.10790
3631.83,0.09860
3626.04,0.08619
3620.25,0.07984
3614.47,0.07167
3608.68,0.06432
3602.9,0.05929
3597.11,0.05476
3591.32,0.04995
3585.54,0.04602
3579.75,0.04323
3573.97,0.04084
3568.18,0.03906
3562.39,0.03636
3556.61,0.03388
3550.82,0.03229
3545.03,0.03053
3539.25,0.03020
3533.46,0.02896
3527.68,0.02772
3521.89,0.02656
3516.1,0.02562
3510.32,0.02572
3504.53,0.02484
3498.74,0.02410
3492.96,0.02428
3487.17,0.02458
3481.39,0.02345
3475.6,0.02410
3469.81,0.02336
3464.03,0.02422
3458.24,0.02411
3452.45,0.02433
3446.67,0.02528
3440.88,0.02586
3435.1,0.02531
3429.31,0.02529
3423.52,0.02607
3417.74,0.02523
3411.95,0.02576
3406.16,0.02572
3400.38,0.02578
3394.59,0.02550
3388.81,0.02541
3383.02,0.02622
3377.23,0.02623
3371.45,0.02592
3365.66,0.02599
3359.87,0.02709
3354.09,0.02620
3348.3,0.02603
3342.52,0.02787
3336.73,0.02799
3330.94,0.02877
3325.16,0.02900
3319.37,0.02879
3313.58,0.02818
3307.8,0.02915
3302.01,0.02920
3296.23,0.02980
3290.44,0.02943
3284.65,0.02967
3278.87,0.02981
3273.08,0.03015
3267.29,0.03016
3261.51,0.03145
3255.72,0.03139
3249.94,0.03099
3244.15,0.03109
3238.36,0.03211
3232.58,0.03197
3226.79,0.03335
3221,0.03279
3215.22,0.03343
3209.43,0.03295
3203.65,0.03393
3197.86,0.03439
3192.07,0.03464
3186.29,0.03449
3180.5,0.03568
3174.71,0.03656
3168.93,0.03687
3163.14,0.03785
3157.36,0.03820
3151.57,0.03939
3145.78,0.04025
3140,0.04076
3134.21,0.04198
3128.42,0.04384
3122.64,0.04492
3116.85,0.04574
3111.07,0.04695
3105.28,0.04990
3099.49,0.05162
3093.71,0.05270
3087.92,0.05453
3082.14,0.05720
3076.35,0.05930
3070.56,0.06089
3064.78,0.06286
3058.99,0.06591
3053.2,0.06784
3047.42,0.06980
3041.63,0.07287
3035.85,0.07479
3030.06,0.07733
3024.27,0.07908
3018.49,0.08109
3012.7,0.08313
3006.91,0.08374
3001.13,0.08398
2995.34,0.08292
2989.56,0.08012
2983.77,0.07380
2977.98,0.06927
2972.2,0.06254
2966.41,0.05792
2960.62,0.05660
2954.84,0.05307
2949.05,0.05055
2943.27,0.04841
2937.48,0.04611
2931.69,0.04405
2925.91,0.04298
2920.12,0.04135
2914.33,0.03995
2908.55,0.03836
2902.76,0.03731
2896.98,0.03839
2891.19,0.03955
2885.4,0.04143
2879.62,0.04234
2873.83,0.04369
2868.04,0.04605
2862.26,0.04731
2856.47,0.05040
2850.69,0.05300
2844.9,0.05766
2839.11,0.06237
2833.33,0.06639
2827.54,0.06936
2821.75,0.07314
2815.97,0.07660
2810.18,0.08066
2804.4,0.08403
2798.61,0.08724
2792.82,0.09039
2787.04,0.09268
2781.25,0.09467
2775.46,0.09649
2769.68,0.09809
2763.89,0.09975
2758.11,0.10083
2752.32,0.10168
2746.53,0.10146
2740.75,0.10110
2734.96,0.10148
2729.17,0.10222
2723.39,0.10376
2717.6,0.10587
2711.82,0.10784
2706.03,0.11058
2700.24,0.11388
2694.46,0.11654
2688.67,0.12062
2682.88,0.12436
2677.1,0.12743
2671.31,0.13073
2665.53,0.13323
2659.74,0.13513
2653.95,0.13792
2648.17,0.14077
2642.38,0.14410
2636.59,0.14675
2630.81,0.14923
2625.02,0.15170
2619.24,0.15322
2613.45,0.15607
2607.66,0.15758
2601.88,0.15929
2596.09,0.16100
2590.3,0.16293
2584.52,0.16376
2578.73,0.16472
2572.95,0.16599
2567.16,0.16596
2561.37,0.16522
2555.59,0.16517
2549.8,0.16503
2544.02,0.16392
2538.23,0.16381
2532.44,0.16461
2526.66,0.16591
2520.87,0.16725
2515.08,0.16868
2509.3,0.17102
2503.51,0.17500
2497.73,0.17856
2491.94,0.18163
2486.15,0.18431
2480.37,0.18719
2474.58,0.19002
2468.79,0.19332
2463.01,0.19561
2457.22,0.19754
2451.44,0.19991
2445.65,0.20346
2439.86,0.20625
2434.08,0.21039
2428.29,0.21387
2422.5,0.21704
2416.72,0.22076
2410.93,0.22343
2405.15,0.22524
2399.36,0.22733
2393.57,0.22984
2387.79,0.23190
2382,0.23399
2376.21,0.23694
2370.43,0.23933
2364.64,0.24171
2358.86,0.24309
2353.07,0.24495
2347.28,0.24740
2341.5,0.25120
2335.71,0.25283
2329.92,0.25457
2324.14,0.25527
2318.35,0.25660
2312.57,0.25707
2306.78,0.25690
2300.99,0.25592
2295.21,0.25474
2289.42,0.25346
2283.63,0.25203
2277.85,0.24980
2272.06,0.24683
2266.28,0.24283
2260.49,0.23851
2254.7,0.23566
2248.92,0.23315
2243.13,0.23058
2237.34,0.22935
2231.56,0.22814
2225.77,0.22766
2219.99,0.22770
2214.2,0.22829
2208.41,0.22801
2202.63,0.22780
2196.84,0.22657
2191.05,0.22425
2185.27,0.22092
2179.48,0.21701
2173.7,0.21299
2167.91,0.20887
2162.12,0.20517
2156.34,0.20268
2150.55,0.20086
2144.76,0.19980
2138.98,0.19836
2133.19,0.19746
2127.41,0.19845
2121.62,0.20082
2115.83,0.20363
2110.05,0.20688
2104.26,0.21007
2098.47,0.21251
2092.69,0.21495
2086.9,0.21705
2081.12,0.21849
2075.33,0.21831
2069.54,0.21746
2063.76,0.21707
2057.97,0.21713
2052.19,0.21719
2046.4,0.21757
2040.61,0.21906
2034.83,0.22213
2029.04,0.22727
2023.25,0.23310
2017.47,0.23906
2011.68,0.24364
2005.9,0.24720
2000.11,0.24847
1994.32,0.24962
1988.54,0.25168
1982.75,0.25437
1976.96,0.25779
1971.18,0.26069
1965.39,0.26330
1959.61,0.26590
1953.82,0.26925
1948.03,0.27336
1942.25,0.27822
1936.46,0.28173
1930.67,0.28433
1924.89,0.28680
1919.1,0.28870
1913.32,0.29067
1907.53,0.29211
1901.74,0.29352
1895.96,0.29404
1890.17,0.29361
1884.38,0.29358
1878.6,0.29284
1872.81,0.29201
1867.03,0.29118
1861.24,0.28894
1855.45,0.28665
1849.67,0.28309
1843.88,0.27960
1838.09,0.27591
1832.31,0.27416
1826.52,0.27160
1820.74,0.26857
1814.95,0.26517
1809.16,0.26167
1803.38,0.25770
1797.59,0.25334
1791.8,0.24987
1786.02,0.24570
1780.23,0.24258
1774.45,0.23911
1768.66,0.23444
1762.87,0.23001
1757.09,0.22542
1751.3,0.22151
1745.51,0.21516
1739.73,0.20893
1733.94,0.20254
1728.16,0.19477
1722.37,0.18759
1716.58,0.18076
1710.8,0.17132
1705.01,0.16250
1699.22,0.15171
1693.44,0.13915
1687.65,0.12901
1681.87,0.11661
1676.08,0.10668
1670.29,0.09817
1664.51,0.09008
1658.72,0.08470
1652.93,0.08239
1647.15,0.08002
1641.36,0.07927
1635.58,0.08117
1629.79,0.08400
1624,0.08881
1618.22,0.09457
1612.43,0.10055
1606.64,0.10545
1600.86,0.10937
1595.07,0.11282
1589.29,0.11523
1583.5,0.11755
1577.71,0.12065
1571.93,0.12321
1566.14,0.12529
1560.35,0.12619
1554.57,0.12633
1548.78,0.12500
1543,0.12352
1537.21,0.12061
1531.42,0.12061
1525.64,0.11969
1519.85,0.11610
1514.07,0.11105
1508.28,0.10620
1502.49,0.09816
1496.71,0.09130
1490.92,0.08148
1485.13,0.06772
1479.35,0.05906
1473.56,0.05383
1467.78,0.04787
1461.99,0.04442
1456.2,0.04071
1450.42,0.03804
1444.63,0.03569
1438.84,0.03459
1433.06,0.03342
1427.27,0.03320
1421.49,0.03454
1415.7,0.03673
1409.91,0.03829
1404.13,0.03882
1398.34,0.03750
1392.55,0.03484
1386.77,0.03268
1380.98,0.02891
1375.2,0.02738
1369.41,0.02787
1363.62,0.02902
1357.84,0.03075
1352.05,0.03204
1346.26,0.03224
1340.48,0.03113
1334.69,0.03080
1328.91,0.03212
1323.12,0.03129
1317.33,0.03083
1311.55,0.03237
1305.76,0.03590
1299.97,0.03838
1294.19,0.03978
1288.4,0.03899
1282.62,0.03595
1276.83,0.03577
1271.04,0.03834
1265.26,0.03838
1259.47,0.03849
1253.68,0.03967
1247.9,0.03911
1242.11,0.03799
1236.33,0.03564
1230.54,0.03581
1224.75,0.03651
1218.97,0.03784
1213.18,0.03638
1207.39,0.02994
1201.61,0.02828
1195.82,0.02879
1190.04,0.02867
1184.25,0.02683
1178.46,0.02422
1172.68,0.02500
1166.89,0.02962
1161.1,0.03156
1155.32,0.02899
1149.53,0.02595
1143.75,0.02312
1137.96,0.02024
1132.17,0.02001
1126.39,0.02169
1120.6,0.02453
1114.81,0.02778
1109.03,0.02913
1103.24,0.02773
1097.46,0.02692
1091.67,0.02670
1085.88,0.03119
1080.1,0.03776
1074.31,0.03977
1068.52,0.04327
1062.74,0.04712
1056.95,0.04782
1051.17,0.04438
1045.38,0.04142
1039.59,0.04098
1033.81,0.04514
1028.02,0.04619
1022.24,0.04579
1016.45,0.04666
1010.66,0.04620
1004.88,0.04455
999.09,0.04742
993.304,0.05128
987.518,0.05469
981.731,0.06167
975.945,0.07059
970.159,0.07210
964.373,0.07506
958.586,0.08543
952.8,0.09805
947.014,0.10640
941.228,0.10940
935.441,0.10784
929.655,0.10832
923.869,0.10781
918.083,0.10508
912.297,0.09461
906.51,0.08153
900.724,0.06904
894.938,0.06439
889.152,0.08068
883.365,0.09674
877.579,0.10788
871.793,0.11406
866.007,0.11623
860.22,0.11495
854.434,0.11164
848.648,0.10861
842.862,0.10487
837.075,0.10135
831.289,0.09865
825.503,0.09518
819.717,0.09122
813.931,0.08755
808.144,0.08445
802.358,0.08068
796.572,0.07800
790.786,0.07498
784.999,0.07154
779.213,0.06836
773.427,0.06477
767.641,0.06196
761.854,0.05920
756.068,0.05646
750.282,0.05259
744.496,0.04985
738.709,0.04727
732.923,0.04508
727.137,0.04223
721.351,0.03958
715.565,0.03867
709.778,0.03793
703.992,0.03853
698.206,0.03841
692.42,0.03743
686.633,0.03766
680.847,0.03584
675.061,0.03440
669.275,0.03629
663.488,0.03785
657.702,0.03504
651.916,0.03626
646.13,0.03646
640.343,0.03487
634.557,0.03292
628.771,0.03545
622.985,0.03301
617.198,0.03433
611.412,0.03715
605.626,0.03738
599.84,0.03811