File: 01_Data/Bean_Bag_Chair_Outer_Cover/FTIR/IS/Bean_Bag_Chair_Outer_Cover_IS_S_220909_R7.dpt
7497.03,0.81321
7491.25,0.80462
7485.46,0.80644
7479.67,0.80850
7473.89,0.80176
7468.1,0.80788
7462.32,0.80568
7456.53,0.80213
7450.74,0.79412
7444.96,0.79770
7439.17,0.79585
7433.38,0.79054
7427.6,0.78785
7421.81,0.79788
7416.03,0.78549
7410.24,0.78167
7404.45,0.78923
7398.67,0.78646
7392.88,0.76393
7387.09,0.77104
7381.31,0.77320
7375.52,0.78104
7369.74,0.76790
7363.95,0.75393
7358.16,0.75795
7352.38,0.75418
7346.59,0.75604
7340.8,0.75223
7335.02,0.74899
7329.23,0.73803
7323.45,0.73900
7317.66,0.74444
7311.87,0.73668
7306.09,0.73800
7300.3,0.74110
7294.51,0.74496
7288.73,0.73536
7282.94,0.73568
7277.16,0.73274
7271.37,0.73600
7265.58,0.73711
7259.8,0.73802
7254.01,0.73747
7248.22,0.73429
7242.44,0.72880
7236.65,0.73693
7230.87,0.73398
7225.08,0.72984
7219.29,0.73872
7213.51,0.73451
7207.72,0.73079
7201.93,0.73103
7196.15,0.73049
7190.36,0.72420
7184.58,0.72827
7178.79,0.72168
7173,0.71415
7167.22,0.72240
7161.43,0.72386
7155.65,0.71412
7149.86,0.70610
7144.07,0.71487
7138.29,0.70924
7132.5,0.70612
7126.71,0.70495
7120.93,0.69530
7115.14,0.68527
7109.36,0.69071
7103.57,0.68294
7097.78,0.67644
7092,0.67565
7086.21,0.66724
7080.42,0.66084
7074.64,0.65948
7068.85,0.64304
7063.07,0.64012
7057.28,0.64140
7051.49,0.63017
7045.71,0.62571
7039.92,0.61920
7034.13,0.61252
7028.35,0.61355
7022.56,0.60656
7016.78,0.60338
7010.99,0.59956
7005.2,0.59425
6999.42,0.59147
6993.63,0.58846
6987.84,0.59028
6982.06,0.57882
6976.27,0.58413
6970.49,0.58509
6964.7,0.58161
6958.91,0.57159
6953.13,0.57182
6947.34,0.57194
6941.55,0.56904
6935.77,0.56749
6929.98,0.57001
6924.2,0.57162
6918.41,0.56262
6912.62,0.56102
6906.84,0.56258
6901.05,0.55642
6895.26,0.55375
6889.48,0.55387
6883.69,0.54787
6877.91,0.55022
6872.12,0.54815
6866.33,0.54957
6860.55,0.54190
6854.76,0.54476
6848.97,0.54455
6843.19,0.54209
6837.4,0.54027
6831.62,0.53703
6825.83,0.53350
6820.04,0.53447
6814.26,0.53051
6808.47,0.53285
6802.68,0.53016
6796.9,0.52557
6791.11,0.52310
6785.33,0.52802
6779.54,0.52142
6773.75,0.52056
6767.97,0.52269
6762.18,0.52184
6756.39,0.51381
6750.61,0.51542
6744.82,0.51574
6739.04,0.51317
6733.25,0.52126
6727.46,0.51634
6721.68,0.51775
6715.89,0.51384
6710.1,0.52516
6704.32,0.51436
6698.53,0.51640
6692.75,0.51461
6686.96,0.51838
6681.17,0.52133
6675.39,0.51812
6669.6,0.51865
6663.82,0.52021
6658.03,0.51590
6652.24,0.52039
6646.46,0.52323
6640.67,0.52158
6634.88,0.52710
6629.1,0.52886
6623.31,0.53389
6617.53,0.52773
6611.74,0.53050
6605.95,0.52880
6600.17,0.53474
6594.38,0.52845
6588.59,0.53310
6582.81,0.53348
6577.02,0.53453
6571.24,0.53787
6565.45,0.53680
6559.66,0.53717
6553.88,0.53878
6548.09,0.53462
6542.3,0.53749
6536.52,0.53729
6530.73,0.53676
6524.95,0.53534
6519.16,0.53108
6513.37,0.53522
6507.59,0.53683
6501.8,0.53758
6496.01,0.53531
6490.23,0.53882
6484.44,0.53531
6478.66,0.53699
6472.87,0.54018
6467.08,0.53978
6461.3,0.53993
6455.51,0.53699
6449.72,0.53672
6443.94,0.53501
6438.15,0.53723
6432.37,0.54064
6426.58,0.53842
6420.79,0.53869
6415.01,0.53841
6409.22,0.53994
6403.43,0.54204
6397.65,0.54260
6391.86,0.54453
6386.08,0.54285
6380.29,0.54219
6374.5,0.54456
6368.72,0.54460
6362.93,0.54300
6357.14,0.54269
6351.36,0.54253
6345.57,0.54696
6339.79,0.54379
6334,0.54703
6328.21,0.53901
6322.43,0.54609
6316.64,0.54736
6310.85,0.54697
6305.07,0.54947
6299.28,0.54709
6293.5,0.54797
6287.71,0.54861
6281.92,0.54858
6276.14,0.55093
6270.35,0.55595
6264.56,0.55526
6258.78,0.55987
6252.99,0.56202
6247.21,0.56272
6241.42,0.56559
6235.63,0.56649
6229.85,0.57066
6224.06,0.57334
6218.27,0.57570
6212.49,0.57708
6206.7,0.58066
6200.92,0.58426
6195.13,0.58511
6189.34,0.58575
6183.56,0.58820
6177.77,0.59242
6171.98,0.59280
6166.2,0.59799
6160.41,0.60481
6154.63,0.60508
6148.84,0.60617
6143.05,0.60574
6137.27,0.60649
6131.48,0.61212
6125.7,0.61141
6119.91,0.61248
6114.12,0.61528
6108.34,0.61909
6102.55,0.62048
6096.76,0.62171
6090.98,0.62431
6085.19,0.62552
6079.41,0.62702
6073.62,0.63148
6067.83,0.63400
6062.05,0.63212
6056.26,0.63613
6050.47,0.63715
6044.69,0.63973
6038.9,0.64172
6033.12,0.64301
6027.33,0.64688
6021.54,0.64757
6015.76,0.64739
6009.97,0.65164
6004.18,0.64980
5998.4,0.65124
5992.61,0.65534
5986.83,0.65592
5981.04,0.65683
5975.25,0.65803
5969.47,0.65793
5963.68,0.65688
5957.89,0.65623
5952.11,0.65622
5946.32,0.65230
5940.54,0.65334
5934.75,0.65175
5928.96,0.65138
5923.18,0.65149
5917.39,0.64912
5911.6,0.64795
5905.82,0.64872
5900.03,0.64500
5894.25,0.64254
5888.46,0.63799
5882.67,0.63673
5876.89,0.63166
5871.1,0.62986
5865.31,0.63018
5859.53,0.62967
5853.74,0.63314
5847.96,0.63236
5842.17,0.63414
5836.38,0.63166
5830.6,0.63074
5824.81,0.62965
5819.02,0.62948
5813.24,0.62557
5807.45,0.62665
5801.67,0.62631
5795.88,0.62665
5790.09,0.62650
5784.31,0.62596
5778.52,0.62399
5772.73,0.62354
5766.95,0.62289
5761.16,0.62436
5755.38,0.62145
5749.59,0.62203
5743.8,0.62186
5738.02,0.62078
5732.23,0.62084
5726.44,0.62065
5720.66,0.61900
5714.87,0.61859
5709.09,0.61751
5703.3,0.61713
5697.51,0.61779
5691.73,0.61542
5685.94,0.61371
5680.15,0.61457
5674.37,0.61306
5668.58,0.61119
5662.8,0.61135
5657.01,0.61033
5651.22,0.61156
5645.44,0.60803
5639.65,0.61093
5633.87,0.61070
5628.08,0.60740
5622.29,0.60888
5616.51,0.61163
5610.72,0.61139
5604.93,0.61132
5599.15,0.60889
5593.36,0.61205
5587.58,0.61168
5581.79,0.61156
5576,0.61108
5570.22,0.61344
5564.43,0.61384
5558.64,0.61255
5552.86,0.61255
5547.07,0.61376
5541.29,0.61607
5535.5,0.61404
5529.71,0.61387
5523.93,0.61381
5518.14,0.61291
5512.35,0.61319
5506.57,0.61462
5500.78,0.61477
5495,0.61467
5489.21,0.61578
5483.42,0.61407
5477.64,0.61535
5471.85,0.61609
5466.06,0.61559
5460.28,0.61603
5454.49,0.61820
5448.71,0.61917
5442.92,0.62179
5437.13,0.62159
5431.35,0.62490
5425.56,0.62586
5419.77,0.62904
5413.99,0.62941
5408.2,0.63064
5402.42,0.63153
5396.63,0.63260
5390.84,0.63450
5385.06,0.63381
5379.27,0.63370
5373.48,0.63428
5367.7,0.63479
5361.91,0.63514
5356.13,0.63288
5350.34,0.63260
5344.55,0.63105
5338.77,0.63177
5332.98,0.62873
5327.19,0.62609
5321.41,0.62205
5315.62,0.61953
5309.84,0.61375
5304.05,0.60941
5298.26,0.60355
5292.48,0.59475
5286.69,0.58876
5280.9,0.58058
5275.12,0.57062
5269.33,0.56410
5263.55,0.55279
5257.76,0.54199
5251.97,0.53119
5246.19,0.52119
5240.4,0.51432
5234.61,0.50776
5228.83,0.50033
5223.04,0.49345
5217.26,0.48812
5211.47,0.48358
5205.68,0.48071
5199.9,0.47757
5194.11,0.47607
5188.32,0.47493
5182.54,0.47470
5176.75,0.47438
5170.97,0.47700
5165.18,0.47703
5159.39,0.47671
5153.61,0.48068
5147.82,0.48247
5142.03,0.48262
5136.25,0.48609
5130.46,0.48960
5124.68,0.49300
5118.89,0.49417
5113.1,0.49740
5107.32,0.50014
5101.53,0.50312
5095.75,0.50487
5089.96,0.50813
5084.17,0.51156
5078.39,0.51325
5072.6,0.51684
5066.81,0.52008
5061.03,0.52301
5055.24,0.52487
5049.46,0.52845
5043.67,0.53050
5037.88,0.53211
5032.1,0.53380
5026.31,0.53506
5020.52,0.53766
5014.74,0.53992
5008.95,0.53979
5003.17,0.54106
4997.38,0.54256
4991.59,0.54225
4985.81,0.54259
4980.02,0.54196
4974.23,0.54038
4968.45,0.53918
4962.66,0.53640
4956.88,0.53518
4951.09,0.53103
4945.3,0.52732
4939.52,0.52265
4933.73,0.51876
4927.94,0.51377
4922.16,0.50790
4916.37,0.49970
4910.59,0.49516
4904.8,0.48783
4899.01,0.48139
4893.23,0.47363
4887.44,0.46750
4881.65,0.45898
4875.87,0.45407
4870.08,0.44753
4864.3,0.44190
4858.51,0.43664
4852.72,0.43342
4846.94,0.42826
4841.15,0.42407
4835.36,0.41990
4829.58,0.41458
4823.79,0.41047
4818.01,0.40611
4812.22,0.40356
4806.43,0.40003
4800.65,0.39689
4794.86,0.39629
4789.07,0.39304
4783.29,0.39214
4777.5,0.38980
4771.72,0.38958
4765.93,0.38771
4760.14,0.38772
4754.36,0.38658
4748.57,0.38730
4742.78,0.38854
4737,0.39021
4731.21,0.39222
4725.43,0.39458
4719.64,0.39612
4713.85,0.39741
4708.07,0.40049
4702.28,0.40317
4696.49,0.40548
4690.71,0.40913
4684.92,0.41310
4679.14,0.41611
4673.35,0.41821
4667.56,0.42143
4661.78,0.42389
4655.99,0.42655
4650.2,0.42836
4644.42,0.43169
4638.63,0.43432
4632.85,0.43634
4627.06,0.43864
4621.27,0.44076
4615.49,0.44331
4609.7,0.44525
4603.92,0.44839
4598.13,0.45068
4592.34,0.45346
4586.56,0.45524
4580.77,0.45798
4574.98,0.46156
4569.2,0.46406
4563.41,0.46623
4557.63,0.46873
4551.84,0.47030
4546.05,0.47314
4540.27,0.47558
4534.48,0.47722
4528.69,0.47765
4522.91,0.47986
4517.12,0.48153
4511.34,0.48339
4505.55,0.48394
4499.76,0.48387
4493.98,0.48555
4488.19,0.48549
4482.4,0.48567
4476.62,0.48474
4470.83,0.48351
4465.05,0.48192
4459.26,0.47806
4453.47,0.47355
4447.69,0.46636
4441.9,0.45866
4436.11,0.45063
4430.33,0.44051
4424.54,0.43014
4418.76,0.41994
4412.97,0.41141
4407.18,0.40488
4401.4,0.40034
4395.61,0.39832
4389.82,0.39944
4384.04,0.40300
4378.25,0.40650
4372.47,0.41039
4366.68,0.41179
4360.89,0.41167
4355.11,0.40919
4349.32,0.40685
4343.53,0.40475
4337.75,0.40225
4331.96,0.39815
4326.18,0.39393
4320.39,0.38931
4314.6,0.38549
4308.82,0.38271
4303.03,0.37988
4297.24,0.37603
4291.46,0.37301
4285.67,0.37051
4279.89,0.36875
4274.1,0.36781
4268.31,0.36709
4262.53,0.36763
4256.74,0.36729
4250.95,0.36765
4245.17,0.36703
4239.38,0.36718
4233.6,0.37012
4227.81,0.37200
4222.02,0.37274
4216.24,0.37344
4210.45,0.37400
4204.66,0.37622
4198.88,0.37846
4193.09,0.38017
4187.31,0.37970
4181.52,0.37923
4175.73,0.37981
4169.95,0.38231
4164.16,0.38269
4158.37,0.38163
4152.59,0.37991
4146.8,0.37715
4141.02,0.37486
4135.23,0.37360
4129.44,0.37134
4123.66,0.36765
4117.87,0.36318
4112.09,0.35846
4106.3,0.35272
4100.51,0.34706
4094.73,0.33975
4088.94,0.33307
4083.15,0.32688
4077.37,0.31993
4071.58,0.31319
4065.8,0.30705
4060.01,0.30059
4054.22,0.29275
4048.44,0.28549
4042.65,0.27954
4036.86,0.27474
4031.08,0.27117
4025.29,0.26960
4019.51,0.26875
4013.72,0.26951
4007.93,0.27053
4002.15,0.27234
3996.36,0.27504
3990.57,0.27740
3984.79,0.28000
3979,0.28165
3973.22,0.28286
3967.43,0.28460
3961.64,0.28595
3955.86,0.28737
3950.07,0.29066
3944.28,0.29249
3938.5,0.29528
3932.71,0.30009
3926.93,0.30396
3921.14,0.30649
3915.35,0.30868
3909.57,0.31135
3903.78,0.31516
3897.99,0.31745
3892.21,0.31921
3886.42,0.32181
3880.64,0.32399
3874.85,0.32587
3869.06,0.32972
3863.28,0.33405
3857.49,0.33819
3851.7,0.34235
3845.92,0.34426
3840.13,0.34757
3834.35,0.34949
3828.56,0.34973
3822.77,0.34995
3816.99,0.34987
3811.2,0.34810
3805.41,0.34824
3799.63,0.34814
3793.84,0.34783
3788.06,0.34820
3782.27,0.34698
3776.48,0.34634
3770.7,0.34554
3764.91,0.34410
3759.12,0.34275
3753.34,0.34067
3747.55,0.33839
3741.77,0.33510
3735.98,0.33191
3730.19,0.32670
3724.41,0.32118
3718.62,0.31475
3712.83,0.30763
3707.05,0.29864
3701.26,0.28888
3695.48,0.27750
3689.69,0.26657
3683.9,0.25091
3678.12,0.23803
3672.33,0.21933
3666.54,0.19955
3660.76,0.18281
3654.97,0.16610
3649.19,0.14945
3643.4,0.13354
3637.61,0.12066
3631.83,0.10992
3626.04,0.09770
3620.25,0.08939
3614.47,0.08062
3608.68,0.07297
3602.9,0.06499
3597.11,0.05970
3591.32,0.05560
3585.54,0.05087
3579.75,0.04749
3573.97,0.04342
3568.18,0.04090
3562.39,0.03881
3556.61,0.03635
3550.82,0.03419
3545.03,0.03270
3539.25,0.03100
3533.46,0.02941
3527.68,0.02842
3521.89,0.02707
3516.1,0.02630
3510.32,0.02564
3504.53,0.02498
3498.74,0.02468
3492.96,0.02440
3487.17,0.02469
3481.39,0.02452
3475.6,0.02421
3469.81,0.02398
3464.03,0.02391
3458.24,0.02459
3452.45,0.02507
3446.67,0.02605
3440.88,0.02660
3435.1,0.02546
3429.31,0.02646
3423.52,0.02625
3417.74,0.02608
3411.95,0.02559
3406.16,0.02583
3400.38,0.02582
3394.59,0.02615
3388.81,0.02619
3383.02,0.02568
3377.23,0.02537
3371.45,0.02607
3365.66,0.02588
3359.87,0.02624
3354.09,0.02696
3348.3,0.02741
3342.52,0.02719
3336.73,0.02809
3330.94,0.02845
3325.16,0.02877
3319.37,0.02822
3313.58,0.02800
3307.8,0.02880
3302.01,0.02868
3296.23,0.02859
3290.44,0.02899
3284.65,0.02974
3278.87,0.02963
3273.08,0.03037
3267.29,0.03107
3261.51,0.03078
3255.72,0.03180
3249.94,0.03172
3244.15,0.03147
3238.36,0.03290
3232.58,0.03278
3226.79,0.03340
3221,0.03327
3215.22,0.03352
3209.43,0.03406
3203.65,0.03468
3197.86,0.03514
3192.07,0.03566
3186.29,0.03643
3180.5,0.03691
3174.71,0.03716
3168.93,0.03796
3163.14,0.03800
3157.36,0.03906
3151.57,0.04063
3145.78,0.04156
3140,0.04231
3134.21,0.04424
3128.42,0.04483
3122.64,0.04678
3116.85,0.04844
3111.07,0.05055
3105.28,0.05214
3099.49,0.05393
3093.71,0.05616
3087.92,0.05801
3082.14,0.06034
3076.35,0.06277
3070.56,0.06484
3064.78,0.06725
3058.99,0.06997
3053.2,0.07220
3047.42,0.07444
3041.63,0.07730
3035.85,0.07985
3030.06,0.08197
3024.27,0.08428
3018.49,0.08634
3012.7,0.08767
3006.91,0.08895
3001.13,0.08827
2995.34,0.08697
2989.56,0.08380
2983.77,0.07692
2977.98,0.07178
2972.2,0.06400
2966.41,0.05885
2960.62,0.05685
2954.84,0.05340
2949.05,0.05088
2943.27,0.04821
2937.48,0.04595
2931.69,0.04459
2925.91,0.04365
2920.12,0.04156
2914.33,0.04051
2908.55,0.03915
2902.76,0.03801
2896.98,0.03878
2891.19,0.03928
2885.4,0.04177
2879.62,0.04252
2873.83,0.04380
2868.04,0.04553
2862.26,0.04803
2856.47,0.05060
2850.69,0.05355
2844.9,0.05832
2839.11,0.06280
2833.33,0.06699
2827.54,0.07036
2821.75,0.07445
2815.97,0.07723
2810.18,0.08214
2804.4,0.08528
2798.61,0.08888
2792.82,0.09200
2787.04,0.09407
2781.25,0.09595
2775.46,0.09789
2769.68,0.09962
2763.89,0.10140
2758.11,0.10248
2752.32,0.10311
2746.53,0.10268
2740.75,0.10261
2734.96,0.10259
2729.17,0.10326
2723.39,0.10533
2717.6,0.10663
2711.82,0.10939
2706.03,0.11216
2700.24,0.11531
2694.46,0.11834
2688.67,0.12227
2682.88,0.12598
2677.1,0.12979
2671.31,0.13213
2665.53,0.13421
2659.74,0.13677
2653.95,0.13970
2648.17,0.14236
2642.38,0.14555
2636.59,0.14790
2630.81,0.15018
2625.02,0.15270
2619.24,0.15481
2613.45,0.15675
2607.66,0.15872
2601.88,0.16050
2596.09,0.16250
2590.3,0.16375
2584.52,0.16525
2578.73,0.16635
2572.95,0.16703
2567.16,0.16720
2561.37,0.16704
2555.59,0.16713
2549.8,0.16600
2544.02,0.16538
2538.23,0.16566
2532.44,0.16566
2526.66,0.16680
2520.87,0.16831
2515.08,0.16995
2509.3,0.17268
2503.51,0.17648
2497.73,0.17992
2491.94,0.18276
2486.15,0.18571
2480.37,0.18852
2474.58,0.19212
2468.79,0.19537
2463.01,0.19710
2457.22,0.19871
2451.44,0.20162
2445.65,0.20541
2439.86,0.20862
2434.08,0.21204
2428.29,0.21585
2422.5,0.21931
2416.72,0.22288
2410.93,0.22552
2405.15,0.22801
2399.36,0.23002
2393.57,0.23260
2387.79,0.23486
2382,0.23664
2376.21,0.23922
2370.43,0.24140
2364.64,0.24349
2358.86,0.24536
2353.07,0.24805
2347.28,0.25102
2341.5,0.25407
2335.71,0.25607
2329.92,0.25783
2324.14,0.25912
2318.35,0.26020
2312.57,0.26167
2306.78,0.26184
2300.99,0.26127
2295.21,0.26017
2289.42,0.25897
2283.63,0.25743
2277.85,0.25570
2272.06,0.25317
2266.28,0.24867
2260.49,0.24445
2254.7,0.24145
2248.92,0.23925
2243.13,0.23685
2237.34,0.23523
2231.56,0.23433
2225.77,0.23375
2219.99,0.23416
2214.2,0.23521
2208.41,0.23534
2202.63,0.23470
2196.84,0.23385
2191.05,0.23137
2185.27,0.22795
2179.48,0.22366
2173.7,0.21934
2167.91,0.21553
2162.12,0.21177
2156.34,0.20911
2150.55,0.20728
2144.76,0.20547
2138.98,0.20424
2133.19,0.20345
2127.41,0.20494
2121.62,0.20738
2115.83,0.20996
2110.05,0.21387
2104.26,0.21694
2098.47,0.21946
2092.69,0.22163
2086.9,0.22378
2081.12,0.22568
2075.33,0.22493
2069.54,0.22425
2063.76,0.22375
2057.97,0.22321
2052.19,0.22353
2046.4,0.22401
2040.61,0.22551
2034.83,0.22899
2029.04,0.23396
2023.25,0.23949
2017.47,0.24551
2011.68,0.25067
2005.9,0.25431
2000.11,0.25524
1994.32,0.25628
1988.54,0.25871
1982.75,0.26149
1976.96,0.26447
1971.18,0.26732
1965.39,0.27031
1959.61,0.27342
1953.82,0.27656
1948.03,0.28089
1942.25,0.28574
1936.46,0.28941
1930.67,0.29240
1924.89,0.29494
1919.1,0.29660
1913.32,0.29863
1907.53,0.30056
1901.74,0.30147
1895.96,0.30191
1890.17,0.30194
1884.38,0.30144
1878.6,0.30117
1872.81,0.29994
1867.03,0.29888
1861.24,0.29693
1855.45,0.29451
1849.67,0.29118
1843.88,0.28743
1838.09,0.28372
1832.31,0.28183
1826.52,0.27928
1820.74,0.27621
1814.95,0.27298
1809.16,0.26919
1803.38,0.26538
1797.59,0.26121
1791.8,0.25719
1786.02,0.25358
1780.23,0.25023
1774.45,0.24694
1768.66,0.24200
1762.87,0.23818
1757.09,0.23425
1751.3,0.23042
1745.51,0.22449
1739.73,0.21815
1733.94,0.21209
1728.16,0.20494
1722.37,0.19884
1716.58,0.19216
1710.8,0.18391
1705.01,0.17552
1699.22,0.16555
1693.44,0.15303
1687.65,0.14286
1681.87,0.12939
1676.08,0.11938
1670.29,0.10973
1664.51,0.10131
1658.72,0.09549
1652.93,0.09192
1647.15,0.09017
1641.36,0.08870
1635.58,0.09045
1629.79,0.09308
1624,0.09747
1618.22,0.10350
1612.43,0.10817
1606.64,0.11302
1600.86,0.11666
1595.07,0.11935
1589.29,0.12211
1583.5,0.12376
1577.71,0.12680
1571.93,0.12988
1566.14,0.13105
1560.35,0.13221
1554.57,0.13170
1548.78,0.13071
1543,0.12870
1537.21,0.12532
1531.42,0.12450
1525.64,0.12413
1519.85,0.12066
1514.07,0.11458
1508.28,0.10926
1502.49,0.10140
1496.71,0.09346
1490.92,0.08385
1485.13,0.06892
1479.35,0.05986
1473.56,0.05412
1467.78,0.04866
1461.99,0.04457
1456.2,0.04115
1450.42,0.03829
1444.63,0.03595
1438.84,0.03476
1433.06,0.03265
1427.27,0.03272
1421.49,0.03445
1415.7,0.03712
1409.91,0.03873
1404.13,0.03862
1398.34,0.03753
1392.55,0.03561
1386.77,0.03298
1380.98,0.02933
1375.2,0.02763
1369.41,0.02775
1363.62,0.02904
1357.84,0.03048
1352.05,0.03199
1346.26,0.03209
1340.48,0.03053
1334.69,0.03089
1328.91,0.03166
1323.12,0.03142
1317.33,0.03022
1311.55,0.03207
1305.76,0.03549
1299.97,0.03860
1294.19,0.03983
1288.4,0.03929
1282.62,0.03661
1276.83,0.03587
1271.04,0.03866
1265.26,0.03884
1259.47,0.03854
1253.68,0.03958
1247.9,0.03923
1242.11,0.03783
1236.33,0.03574
1230.54,0.03560
1224.75,0.03658
1218.97,0.03778
1213.18,0.03583
1207.39,0.03038
1201.61,0.02781
1195.82,0.02852
1190.04,0.02881
1184.25,0.02663
1178.46,0.02444
1172.68,0.02482
1166.89,0.03039
1161.1,0.03201
1155.32,0.02930
1149.53,0.02624
1143.75,0.02364
1137.96,0.02078
1132.17,0.02034
1126.39,0.02187
1120.6,0.02496
1114.81,0.02849
1109.03,0.02932
1103.24,0.02776
1097.46,0.02711
1091.67,0.02698
1085.88,0.03175
1080.1,0.03828
1074.31,0.04097
1068.52,0.04271
1062.74,0.04884
1056.95,0.04880
1051.17,0.04555
1045.38,0.04223
1039.59,0.04196
1033.81,0.04576
1028.02,0.04652
1022.24,0.04644
1016.45,0.04680
1010.66,0.04708
1004.88,0.04572
999.09,0.04703
993.304,0.05089
987.518,0.05446
981.731,0.06239
975.945,0.07112
970.159,0.07234
964.373,0.07538
958.586,0.08623
952.8,0.09966
947.014,0.10787
941.228,0.11181
935.441,0.11052
929.655,0.11034
923.869,0.11051
918.083,0.10735
912.297,0.09710
906.51,0.08370
900.724,0.07055
894.938,0.06704
889.152,0.08205
883.365,0.10109
877.579,0.11308
871.793,0.12111
866.007,0.12317
860.22,0.12265
854.434,0.12028
848.648,0.11751
842.862,0.11380
837.075,0.10985
831.289,0.10584
825.503,0.10333
819.717,0.09954
813.931,0.09578
808.144,0.09179
802.358,0.08867
796.572,0.08481
790.786,0.08182
784.999,0.07850
779.213,0.07470
773.427,0.07108
767.641,0.06807
761.854,0.06408
756.068,0.06160
750.282,0.05752
744.496,0.05356
738.709,0.05049
732.923,0.04786
727.137,0.04551
721.351,0.04238
715.565,0.04090
709.778,0.03895
703.992,0.03954
698.206,0.04012
692.42,0.03956
686.633,0.03957
680.847,0.03665
675.061,0.03489
669.275,0.03721
663.488,0.03628
657.702,0.03728
651.916,0.03770
646.13,0.03812
640.343,0.03554
634.557,0.03445
628.771,0.03289
622.985,0.03509
617.198,0.03560
611.412,0.03600
605.626,0.03691
599.84,0.03709