File: 01_Data/Bean_Bag_Chair_Outer_Cover/FTIR/IS/Bean_Bag_Chair_Outer_Cover_IS_S_220909_R8.dpt
7497.03,0.81583
7491.25,0.81405
7485.46,0.80626
7479.67,0.80727
7473.89,0.81310
7468.1,0.80387
7462.32,0.80121
7456.53,0.80480
7450.74,0.80191
7444.96,0.80047
7439.17,0.79272
7433.38,0.79267
7427.6,0.80344
7421.81,0.80011
7416.03,0.78488
7410.24,0.78135
7404.45,0.77759
7398.67,0.77209
7392.88,0.77457
7387.09,0.77952
7381.31,0.77643
7375.52,0.77636
7369.74,0.75557
7363.95,0.76017
7358.16,0.75879
7352.38,0.76425
7346.59,0.75546
7340.8,0.75724
7335.02,0.74943
7329.23,0.74555
7323.45,0.74423
7317.66,0.73905
7311.87,0.74505
7306.09,0.73985
7300.3,0.73877
7294.51,0.73624
7288.73,0.73893
7282.94,0.73466
7277.16,0.73974
7271.37,0.73361
7265.58,0.73397
7259.8,0.73524
7254.01,0.74260
7248.22,0.73984
7242.44,0.73022
7236.65,0.73614
7230.87,0.72452
7225.08,0.73749
7219.29,0.73423
7213.51,0.73185
7207.72,0.73167
7201.93,0.72989
7196.15,0.72892
7190.36,0.73652
7184.58,0.72281
7178.79,0.72754
7173,0.72647
7167.22,0.71345
7161.43,0.72015
7155.65,0.71777
7149.86,0.71360
7144.07,0.70901
7138.29,0.71172
7132.5,0.71066
7126.71,0.70652
7120.93,0.70062
7115.14,0.69818
7109.36,0.68149
7103.57,0.68905
7097.78,0.68019
7092,0.67763
7086.21,0.67358
7080.42,0.65986
7074.64,0.66162
7068.85,0.65314
7063.07,0.64783
7057.28,0.63968
7051.49,0.63339
7045.71,0.62061
7039.92,0.63185
7034.13,0.61910
7028.35,0.61076
7022.56,0.60897
7016.78,0.59796
7010.99,0.59859
7005.2,0.59627
6999.42,0.58746
6993.63,0.58887
6987.84,0.58449
6982.06,0.58044
6976.27,0.57910
6970.49,0.57817
6964.7,0.57353
6958.91,0.57279
6953.13,0.56959
6947.34,0.57138
6941.55,0.56693
6935.77,0.56945
6929.98,0.57019
6924.2,0.56869
6918.41,0.55617
6912.62,0.55925
6906.84,0.56058
6901.05,0.55788
6895.26,0.56174
6889.48,0.56193
6883.69,0.55460
6877.91,0.54919
6872.12,0.54832
6866.33,0.54644
6860.55,0.54591
6854.76,0.54686
6848.97,0.54744
6843.19,0.54638
6837.4,0.54313
6831.62,0.54147
6825.83,0.53631
6820.04,0.53697
6814.26,0.53478
6808.47,0.53022
6802.68,0.52908
6796.9,0.53107
6791.11,0.52670
6785.33,0.52562
6779.54,0.52524
6773.75,0.52259
6767.97,0.51723
6762.18,0.52022
6756.39,0.51057
6750.61,0.51656
6744.82,0.52125
6739.04,0.52048
6733.25,0.51505
6727.46,0.51704
6721.68,0.51637
6715.89,0.51648
6710.1,0.51571
6704.32,0.51473
6698.53,0.51736
6692.75,0.51535
6686.96,0.51519
6681.17,0.51816
6675.39,0.51767
6669.6,0.52247
6663.82,0.51801
6658.03,0.51869
6652.24,0.52318
6646.46,0.52355
6640.67,0.52187
6634.88,0.52702
6629.1,0.52693
6623.31,0.52720
6617.53,0.53401
6611.74,0.53050
6605.95,0.53167
6600.17,0.53512
6594.38,0.53089
6588.59,0.53333
6582.81,0.53668
6577.02,0.53751
6571.24,0.54029
6565.45,0.53995
6559.66,0.53530
6553.88,0.54109
6548.09,0.53931
6542.3,0.54308
6536.52,0.53797
6530.73,0.53759
6524.95,0.53830
6519.16,0.53835
6513.37,0.54022
6507.59,0.54038
6501.8,0.53422
6496.01,0.53550
6490.23,0.53581
6484.44,0.53923
6478.66,0.54187
6472.87,0.53548
6467.08,0.53511
6461.3,0.53719
6455.51,0.53848
6449.72,0.54065
6443.94,0.53872
6438.15,0.54186
6432.37,0.54070
6426.58,0.54072
6420.79,0.54389
6415.01,0.54102
6409.22,0.54502
6403.43,0.54106
6397.65,0.54113
6391.86,0.54433
6386.08,0.54753
6380.29,0.54512
6374.5,0.54369
6368.72,0.54463
6362.93,0.54606
6357.14,0.54651
6351.36,0.54692
6345.57,0.54295
6339.79,0.54157
6334,0.54732
6328.21,0.54662
6322.43,0.54859
6316.64,0.54949
6310.85,0.54503
6305.07,0.54973
6299.28,0.54935
6293.5,0.55070
6287.71,0.55002
6281.92,0.55299
6276.14,0.55577
6270.35,0.55604
6264.56,0.55827
6258.78,0.56034
6252.99,0.55948
6247.21,0.56181
6241.42,0.56812
6235.63,0.56945
6229.85,0.57051
6224.06,0.57624
6218.27,0.57759
6212.49,0.58054
6206.7,0.58085
6200.92,0.58594
6195.13,0.58597
6189.34,0.58474
6183.56,0.58864
6177.77,0.59204
6171.98,0.59567
6166.2,0.59860
6160.41,0.60160
6154.63,0.60567
6148.84,0.60440
6143.05,0.60536
6137.27,0.61013
6131.48,0.61144
6125.7,0.61645
6119.91,0.61272
6114.12,0.61766
6108.34,0.61895
6102.55,0.62150
6096.76,0.62247
6090.98,0.62189
6085.19,0.62703
6079.41,0.63009
6073.62,0.63218
6067.83,0.63166
6062.05,0.63590
6056.26,0.64029
6050.47,0.64146
6044.69,0.64322
6038.9,0.64450
6033.12,0.64525
6027.33,0.65025
6021.54,0.64891
6015.76,0.64921
6009.97,0.64971
6004.18,0.65164
5998.4,0.65418
5992.61,0.65464
5986.83,0.65608
5981.04,0.65862
5975.25,0.65731
5969.47,0.65778
5963.68,0.65979
5957.89,0.65707
5952.11,0.65844
5946.32,0.65617
5940.54,0.65664
5934.75,0.65368
5928.96,0.65244
5923.18,0.65081
5917.39,0.65001
5911.6,0.64764
5905.82,0.64977
5900.03,0.64750
5894.25,0.64442
5888.46,0.63782
5882.67,0.63784
5876.89,0.63314
5871.1,0.63211
5865.31,0.63159
5859.53,0.63323
5853.74,0.63194
5847.96,0.63295
5842.17,0.63511
5836.38,0.63271
5830.6,0.63368
5824.81,0.63252
5819.02,0.62647
5813.24,0.62973
5807.45,0.63064
5801.67,0.62683
5795.88,0.62760
5790.09,0.62823
5784.31,0.62767
5778.52,0.62571
5772.73,0.62658
5766.95,0.62519
5761.16,0.62464
5755.38,0.62607
5749.59,0.62576
5743.8,0.62633
5738.02,0.62352
5732.23,0.62210
5726.44,0.62075
5720.66,0.62176
5714.87,0.61918
5709.09,0.62331
5703.3,0.62071
5697.51,0.61960
5691.73,0.61829
5685.94,0.61683
5680.15,0.61352
5674.37,0.61283
5668.58,0.61306
5662.8,0.61220
5657.01,0.61294
5651.22,0.61116
5645.44,0.61060
5639.65,0.61049
5633.87,0.61163
5628.08,0.61134
5622.29,0.61253
5616.51,0.60916
5610.72,0.61174
5604.93,0.61165
5599.15,0.61334
5593.36,0.61205
5587.58,0.61059
5581.79,0.61127
5576,0.61299
5570.22,0.61505
5564.43,0.61523
5558.64,0.61510
5552.86,0.61588
5547.07,0.61761
5541.29,0.61732
5535.5,0.61709
5529.71,0.61590
5523.93,0.61454
5518.14,0.61677
5512.35,0.61603
5506.57,0.61491
5500.78,0.61534
5495,0.61373
5489.21,0.61673
5483.42,0.61643
5477.64,0.61574
5471.85,0.61694
5466.06,0.61726
5460.28,0.61946
5454.49,0.62002
5448.71,0.62189
5442.92,0.62186
5437.13,0.62296
5431.35,0.62689
5425.56,0.62868
5419.77,0.62826
5413.99,0.63149
5408.2,0.63325
5402.42,0.63251
5396.63,0.63413
5390.84,0.63466
5385.06,0.63569
5379.27,0.63737
5373.48,0.63634
5367.7,0.63385
5361.91,0.63630
5356.13,0.63412
5350.34,0.63416
5344.55,0.63490
5338.77,0.63399
5332.98,0.62868
5327.19,0.62868
5321.41,0.62378
5315.62,0.62057
5309.84,0.61656
5304.05,0.61006
5298.26,0.60362
5292.48,0.59768
5286.69,0.59031
5280.9,0.58161
5275.12,0.57386
5269.33,0.56508
5263.55,0.55259
5257.76,0.54436
5251.97,0.53409
5246.19,0.52438
5240.4,0.51619
5234.61,0.50760
5228.83,0.50139
5223.04,0.49491
5217.26,0.49138
5211.47,0.48599
5205.68,0.48283
5199.9,0.48046
5194.11,0.47864
5188.32,0.47650
5182.54,0.47704
5176.75,0.47672
5170.97,0.47702
5165.18,0.47903
5159.39,0.47880
5153.61,0.48188
5147.82,0.48315
5142.03,0.48642
5136.25,0.48955
5130.46,0.49277
5124.68,0.49403
5118.89,0.49678
5113.1,0.49939
5107.32,0.50324
5101.53,0.50547
5095.75,0.50837
5089.96,0.51189
5084.17,0.51333
5078.39,0.51652
5072.6,0.51917
5066.81,0.52248
5061.03,0.52555
5055.24,0.52715
5049.46,0.52974
5043.67,0.53056
5037.88,0.53314
5032.1,0.53572
5026.31,0.53761
5020.52,0.53981
5014.74,0.54042
5008.95,0.54254
5003.17,0.54466
4997.38,0.54568
4991.59,0.54517
4985.81,0.54469
4980.02,0.54389
4974.23,0.54267
4968.45,0.54170
4962.66,0.53823
4956.88,0.53576
4951.09,0.53357
4945.3,0.52856
4939.52,0.52443
4933.73,0.52033
4927.94,0.51432
4922.16,0.50866
4916.37,0.50102
4910.59,0.49653
4904.8,0.48855
4899.01,0.48230
4893.23,0.47485
4887.44,0.46777
4881.65,0.46097
4875.87,0.45335
4870.08,0.44877
4864.3,0.44350
4858.51,0.43801
4852.72,0.43428
4846.94,0.42893
4841.15,0.42470
4835.36,0.41982
4829.58,0.41475
4823.79,0.41086
4818.01,0.40664
4812.22,0.40384
4806.43,0.40044
4800.65,0.39764
4794.86,0.39599
4789.07,0.39429
4783.29,0.39254
4777.5,0.39204
4771.72,0.38989
4765.93,0.38924
4760.14,0.38774
4754.36,0.38703
4748.57,0.38877
4742.78,0.39050
4737,0.39139
4731.21,0.39224
4725.43,0.39531
4719.64,0.39709
4713.85,0.39996
4708.07,0.40210
4702.28,0.40398
4696.49,0.40835
4690.71,0.40974
4684.92,0.41311
4679.14,0.41661
4673.35,0.41876
4667.56,0.42196
4661.78,0.42451
4655.99,0.42620
4650.2,0.42824
4644.42,0.43163
4638.63,0.43388
4632.85,0.43732
4627.06,0.43915
4621.27,0.44164
4615.49,0.44433
4609.7,0.44662
4603.92,0.44971
4598.13,0.45122
4592.34,0.45408
4586.56,0.45627
4580.77,0.45901
4574.98,0.46135
4569.2,0.46445
4563.41,0.46731
4557.63,0.46899
4551.84,0.47091
4546.05,0.47426
4540.27,0.47628
4534.48,0.47712
4528.69,0.47942
4522.91,0.48166
4517.12,0.48301
4511.34,0.48380
4505.55,0.48492
4499.76,0.48504
4493.98,0.48452
4488.19,0.48484
4482.4,0.48593
4476.62,0.48517
4470.83,0.48402
4465.05,0.48264
4459.26,0.47887
4453.47,0.47393
4447.69,0.46756
4441.9,0.45970
4436.11,0.45153
4430.33,0.44068
4424.54,0.43018
4418.76,0.42095
4412.97,0.41276
4407.18,0.40616
4401.4,0.40149
4395.61,0.39888
4389.82,0.40092
4384.04,0.40325
4378.25,0.40648
4372.47,0.41062
4366.68,0.41255
4360.89,0.41214
4355.11,0.40992
4349.32,0.40753
4343.53,0.40481
4337.75,0.40170
4331.96,0.39850
4326.18,0.39426
4320.39,0.39057
4314.6,0.38661
4308.82,0.38423
4303.03,0.38018
4297.24,0.37708
4291.46,0.37396
4285.67,0.37150
4279.89,0.36933
4274.1,0.36811
4268.31,0.36840
4262.53,0.36877
4256.74,0.36838
4250.95,0.36788
4245.17,0.36699
4239.38,0.36783
4233.6,0.37050
4227.81,0.37323
4222.02,0.37364
4216.24,0.37377
4210.45,0.37463
4204.66,0.37644
4198.88,0.37885
4193.09,0.38103
4187.31,0.38050
4181.52,0.38065
4175.73,0.38075
4169.95,0.38123
4164.16,0.38302
4158.37,0.38305
4152.59,0.38081
4146.8,0.37791
4141.02,0.37567
4135.23,0.37455
4129.44,0.37178
4123.66,0.36869
4117.87,0.36405
4112.09,0.35908
4106.3,0.35368
4100.51,0.34702
4094.73,0.34051
4088.94,0.33351
4083.15,0.32675
4077.37,0.32044
4071.58,0.31428
4065.8,0.30808
4060.01,0.30060
4054.22,0.29362
4048.44,0.28636
4042.65,0.28031
4036.86,0.27521
4031.08,0.27206
4025.29,0.26957
4019.51,0.26933
4013.72,0.26993
4007.93,0.27128
4002.15,0.27282
3996.36,0.27524
3990.57,0.27846
3984.79,0.27992
3979,0.28178
3973.22,0.28389
3967.43,0.28499
3961.64,0.28664
3955.86,0.28870
3950.07,0.29082
3944.28,0.29364
3938.5,0.29626
3932.71,0.30041
3926.93,0.30325
3921.14,0.30721
3915.35,0.31026
3909.57,0.31172
3903.78,0.31564
3897.99,0.31770
3892.21,0.32000
3886.42,0.32281
3880.64,0.32567
3874.85,0.32642
3869.06,0.33078
3863.28,0.33599
3857.49,0.33864
3851.7,0.34283
3845.92,0.34574
3840.13,0.34873
3834.35,0.35033
3828.56,0.35102
3822.77,0.35138
3816.99,0.35072
3811.2,0.34915
3805.41,0.34915
3799.63,0.34981
3793.84,0.34918
3788.06,0.34929
3782.27,0.34825
3776.48,0.34752
3770.7,0.34587
3764.91,0.34501
3759.12,0.34383
3753.34,0.34207
3747.55,0.33917
3741.77,0.33625
3735.98,0.33251
3730.19,0.32741
3724.41,0.32286
3718.62,0.31514
3712.83,0.30970
3707.05,0.30011
3701.26,0.29054
3695.48,0.27940
3689.69,0.26833
3683.9,0.25260
3678.12,0.23941
3672.33,0.22144
3666.54,0.20130
3660.76,0.18476
3654.97,0.16710
3649.19,0.15197
3643.4,0.13495
3637.61,0.12184
3631.83,0.11075
3626.04,0.09806
3620.25,0.08994
3614.47,0.08070
3608.68,0.07377
3602.9,0.06658
3597.11,0.06083
3591.32,0.05652
3585.54,0.05139
3579.75,0.04745
3573.97,0.04380
3568.18,0.04101
3562.39,0.03863
3556.61,0.03702
3550.82,0.03523
3545.03,0.03321
3539.25,0.03187
3533.46,0.03012
3527.68,0.02815
3521.89,0.02765
3516.1,0.02600
3510.32,0.02563
3504.53,0.02473
3498.74,0.02385
3492.96,0.02504
3487.17,0.02460
3481.39,0.02490
3475.6,0.02449
3469.81,0.02389
3464.03,0.02481
3458.24,0.02434
3452.45,0.02408
3446.67,0.02488
3440.88,0.02648
3435.1,0.02655
3429.31,0.02538
3423.52,0.02605
3417.74,0.02664
3411.95,0.02543
3406.16,0.02583
3400.38,0.02586
3394.59,0.02617
3388.81,0.02634
3383.02,0.02617
3377.23,0.02622
3371.45,0.02609
3365.66,0.02615
3359.87,0.02658
3354.09,0.02658
3348.3,0.02666
3342.52,0.02875
3336.73,0.02845
3330.94,0.02835
3325.16,0.02794
3319.37,0.02816
3313.58,0.02865
3307.8,0.02922
3302.01,0.02882
3296.23,0.03002
3290.44,0.02955
3284.65,0.02963
3278.87,0.03028
3273.08,0.03020
3267.29,0.03073
3261.51,0.03127
3255.72,0.03131
3249.94,0.03156
3244.15,0.03238
3238.36,0.03304
3232.58,0.03232
3226.79,0.03324
3221,0.03337
3215.22,0.03354
3209.43,0.03469
3203.65,0.03444
3197.86,0.03510
3192.07,0.03512
3186.29,0.03556
3180.5,0.03658
3174.71,0.03688
3168.93,0.03724
3163.14,0.03802
3157.36,0.03957
3151.57,0.04083
3145.78,0.04201
3140,0.04214
3134.21,0.04396
3128.42,0.04515
3122.64,0.04649
3116.85,0.04838
3111.07,0.05081
3105.28,0.05253
3099.49,0.05404
3093.71,0.05644
3087.92,0.05867
3082.14,0.06047
3076.35,0.06275
3070.56,0.06529
3064.78,0.06789
3058.99,0.07015
3053.2,0.07289
3047.42,0.07521
3041.63,0.07780
3035.85,0.08020
3030.06,0.08220
3024.27,0.08469
3018.49,0.08667
3012.7,0.08823
3006.91,0.08899
3001.13,0.08882
2995.34,0.08802
2989.56,0.08426
2983.77,0.07698
2977.98,0.07200
2972.2,0.06410
2966.41,0.05888
2960.62,0.05731
2954.84,0.05412
2949.05,0.05070
2943.27,0.04849
2937.48,0.04696
2931.69,0.04491
2925.91,0.04305
2920.12,0.04155
2914.33,0.04003
2908.55,0.03882
2902.76,0.03863
2896.98,0.03789
2891.19,0.03961
2885.4,0.04105
2879.62,0.04250
2873.83,0.04368
2868.04,0.04569
2862.26,0.04853
2856.47,0.05061
2850.69,0.05335
2844.9,0.05817
2839.11,0.06329
2833.33,0.06742
2827.54,0.07110
2821.75,0.07416
2815.97,0.07816
2810.18,0.08252
2804.4,0.08537
2798.61,0.08897
2792.82,0.09200
2787.04,0.09447
2781.25,0.09651
2775.46,0.09824
2769.68,0.09962
2763.89,0.10166
2758.11,0.10255
2752.32,0.10317
2746.53,0.10336
2740.75,0.10242
2734.96,0.10290
2729.17,0.10415
2723.39,0.10558
2717.6,0.10699
2711.82,0.10972
2706.03,0.11248
2700.24,0.11532
2694.46,0.11878
2688.67,0.12204
2682.88,0.12609
2677.1,0.12929
2671.31,0.13271
2665.53,0.13468
2659.74,0.13717
2653.95,0.13941
2648.17,0.14251
2642.38,0.14492
2636.59,0.14807
2630.81,0.15033
2625.02,0.15296
2619.24,0.15522
2613.45,0.15719
2607.66,0.15845
2601.88,0.16053
2596.09,0.16286
2590.3,0.16433
2584.52,0.16520
2578.73,0.16648
2572.95,0.16768
2567.16,0.16741
2561.37,0.16704
2555.59,0.16689
2549.8,0.16661
2544.02,0.16567
2538.23,0.16563
2532.44,0.16631
2526.66,0.16732
2520.87,0.16867
2515.08,0.17049
2509.3,0.17322
2503.51,0.17713
2497.73,0.18024
2491.94,0.18333
2486.15,0.18613
2480.37,0.18865
2474.58,0.19248
2468.79,0.19542
2463.01,0.19721
2457.22,0.19936
2451.44,0.20239
2445.65,0.20517
2439.86,0.20854
2434.08,0.21233
2428.29,0.21611
2422.5,0.22009
2416.72,0.22340
2410.93,0.22610
2405.15,0.22819
2399.36,0.23085
2393.57,0.23303
2387.79,0.23537
2382,0.23756
2376.21,0.24020
2370.43,0.24234
2364.64,0.24457
2358.86,0.24702
2353.07,0.24909
2347.28,0.25164
2341.5,0.25495
2335.71,0.25696
2329.92,0.25862
2324.14,0.25992
2318.35,0.26133
2312.57,0.26224
2306.78,0.26294
2300.99,0.26191
2295.21,0.26092
2289.42,0.25961
2283.63,0.25814
2277.85,0.25666
2272.06,0.25384
2266.28,0.24944
2260.49,0.24530
2254.7,0.24210
2248.92,0.23995
2243.13,0.23750
2237.34,0.23590
2231.56,0.23466
2225.77,0.23463
2219.99,0.23537
2214.2,0.23573
2208.41,0.23600
2202.63,0.23573
2196.84,0.23459
2191.05,0.23232
2185.27,0.22931
2179.48,0.22482
2173.7,0.22058
2167.91,0.21583
2162.12,0.21224
2156.34,0.20979
2150.55,0.20794
2144.76,0.20651
2138.98,0.20496
2133.19,0.20417
2127.41,0.20564
2121.62,0.20784
2115.83,0.21097
2110.05,0.21388
2104.26,0.21751
2098.47,0.22031
2092.69,0.22251
2086.9,0.22503
2081.12,0.22623
2075.33,0.22567
2069.54,0.22517
2063.76,0.22468
2057.97,0.22472
2052.19,0.22420
2046.4,0.22474
2040.61,0.22620
2034.83,0.22959
2029.04,0.23462
2023.25,0.24003
2017.47,0.24654
2011.68,0.25127
2005.9,0.25487
2000.11,0.25639
1994.32,0.25729
1988.54,0.25951
1982.75,0.26224
1976.96,0.26557
1971.18,0.26865
1965.39,0.27131
1959.61,0.27387
1953.82,0.27753
1948.03,0.28206
1942.25,0.28644
1936.46,0.29020
1930.67,0.29343
1924.89,0.29605
1919.1,0.29796
1913.32,0.29953
1907.53,0.30171
1901.74,0.30287
1895.96,0.30329
1890.17,0.30303
1884.38,0.30255
1878.6,0.30181
1872.81,0.30105
1867.03,0.30013
1861.24,0.29796
1855.45,0.29575
1849.67,0.29234
1843.88,0.28844
1838.09,0.28488
1832.31,0.28286
1826.52,0.28026
1820.74,0.27721
1814.95,0.27378
1809.16,0.26992
1803.38,0.26630
1797.59,0.26201
1791.8,0.25825
1786.02,0.25467
1780.23,0.25132
1774.45,0.24752
1768.66,0.24318
1762.87,0.23917
1757.09,0.23503
1751.3,0.23105
1745.51,0.22516
1739.73,0.21916
1733.94,0.21332
1728.16,0.20578
1722.37,0.19979
1716.58,0.19370
1710.8,0.18499
1705.01,0.17626
1699.22,0.16605
1693.44,0.15445
1687.65,0.14383
1681.87,0.13087
1676.08,0.12073
1670.29,0.11077
1664.51,0.10244
1658.72,0.09644
1652.93,0.09331
1647.15,0.09060
1641.36,0.08988
1635.58,0.09067
1629.79,0.09352
1624,0.09873
1618.22,0.10418
1612.43,0.10977
1606.64,0.11374
1600.86,0.11707
1595.07,0.11997
1589.29,0.12220
1583.5,0.12462
1577.71,0.12707
1571.93,0.13028
1566.14,0.13183
1560.35,0.13310
1554.57,0.13255
1548.78,0.13120
1543,0.12898
1537.21,0.12590
1531.42,0.12537
1525.64,0.12470
1519.85,0.12033
1514.07,0.11474
1508.28,0.11004
1502.49,0.10164
1496.71,0.09361
1490.92,0.08367
1485.13,0.06934
1479.35,0.06020
1473.56,0.05450
1467.78,0.04883
1461.99,0.04472
1456.2,0.04120
1450.42,0.03844
1444.63,0.03594
1438.84,0.03483
1433.06,0.03257
1427.27,0.03307
1421.49,0.03464
1415.7,0.03671
1409.91,0.03844
1404.13,0.03839
1398.34,0.03752
1392.55,0.03540
1386.77,0.03291
1380.98,0.02872
1375.2,0.02770
1369.41,0.02800
1363.62,0.02896
1357.84,0.03085
1352.05,0.03225
1346.26,0.03200
1340.48,0.03095
1334.69,0.03074
1328.91,0.03216
1323.12,0.03180
1317.33,0.03105
1311.55,0.03248
1305.76,0.03602
1299.97,0.03874
1294.19,0.03997
1288.4,0.03893
1282.62,0.03602
1276.83,0.03650
1271.04,0.03871
1265.26,0.03834
1259.47,0.03916
1253.68,0.03964
1247.9,0.03943
1242.11,0.03781
1236.33,0.03576
1230.54,0.03580
1224.75,0.03644
1218.97,0.03818
1213.18,0.03584
1207.39,0.03034
1201.61,0.02810
1195.82,0.02786
1190.04,0.02896
1184.25,0.02726
1178.46,0.02434
1172.68,0.02508
1166.89,0.03033
1161.1,0.03199
1155.32,0.02958
1149.53,0.02642
1143.75,0.02400
1137.96,0.02086
1132.17,0.01934
1126.39,0.02122
1120.6,0.02481
1114.81,0.02767
1109.03,0.02931
1103.24,0.02731
1097.46,0.02753
1091.67,0.02774
1085.88,0.03217
1080.1,0.03758
1074.31,0.04015
1068.52,0.04288
1062.74,0.04778
1056.95,0.04827
1051.17,0.04490
1045.38,0.04191
1039.59,0.04209
1033.81,0.04560
1028.02,0.04646
1022.24,0.04612
1016.45,0.04685
1010.66,0.04745
1004.88,0.04563
999.09,0.04703
993.304,0.05105
987.518,0.05472
981.731,0.06186
975.945,0.07054
970.159,0.07222
964.373,0.07543
958.586,0.08621
952.8,0.10024
947.014,0.10835
941.228,0.11174
935.441,0.11123
929.655,0.11021
923.869,0.11096
918.083,0.10785
912.297,0.09701
906.51,0.08344
900.724,0.07085
894.938,0.06580
889.152,0.08331
883.365,0.10125
877.579,0.11370
871.793,0.12097
866.007,0.12455
860.22,0.12407
854.434,0.12108
848.648,0.11806
842.862,0.11439
837.075,0.11057
831.289,0.10690
825.503,0.10404
819.717,0.10005
813.931,0.09663
808.144,0.09311
802.358,0.08901
796.572,0.08570
790.786,0.08254
784.999,0.07863
779.213,0.07537
773.427,0.07106
767.641,0.06808
761.854,0.06415
756.068,0.06094
750.282,0.05825
744.496,0.05431
738.709,0.05078
732.923,0.04821
727.137,0.04485
721.351,0.04134
715.565,0.03985
709.778,0.03941
703.992,0.04077
698.206,0.03957
692.42,0.03966
686.633,0.03858
680.847,0.03650
675.061,0.03580
669.275,0.03533
663.488,0.03654
657.702,0.03813
651.916,0.03760
646.13,0.03766
640.343,0.03646
634.557,0.03526
628.771,0.03504
622.985,0.03335
617.198,0.03593
611.412,0.03559
605.626,0.03917
599.84,0.03997