File: 01_Data/Bean_Bag_Chair_Outer_Cover/FTIR/IS/Bean_Bag_Chair_Outer_Cover_IS_S_220909_R3.dpt
7497.03,0.81320
7491.25,0.81443
7485.46,0.80087
7479.67,0.80762
7473.89,0.81184
7468.1,0.80850
7462.32,0.80315
7456.53,0.78772
7450.74,0.79785
7444.96,0.80066
7439.17,0.79382
7433.38,0.78711
7427.6,0.78842
7421.81,0.78401
7416.03,0.78709
7410.24,0.78487
7404.45,0.78322
7398.67,0.77426
7392.88,0.77204
7387.09,0.76634
7381.31,0.77066
7375.52,0.76286
7369.74,0.76692
7363.95,0.75402
7358.16,0.75962
7352.38,0.76812
7346.59,0.75821
7340.8,0.76368
7335.02,0.74164
7329.23,0.73734
7323.45,0.73097
7317.66,0.74035
7311.87,0.74348
7306.09,0.73452
7300.3,0.74508
7294.51,0.74658
7288.73,0.74642
7282.94,0.73472
7277.16,0.73109
7271.37,0.73644
7265.58,0.73638
7259.8,0.73490
7254.01,0.73362
7248.22,0.73179
7242.44,0.72969
7236.65,0.73667
7230.87,0.73368
7225.08,0.74141
7219.29,0.73506
7213.51,0.73468
7207.72,0.72163
7201.93,0.73401
7196.15,0.72674
7190.36,0.72329
7184.58,0.72643
7178.79,0.72015
7173,0.72468
7167.22,0.71536
7161.43,0.71322
7155.65,0.71245
7149.86,0.71143
7144.07,0.70852
7138.29,0.70007
7132.5,0.70609
7126.71,0.69730
7120.93,0.69420
7115.14,0.69244
7109.36,0.68252
7103.57,0.67910
7097.78,0.66966
7092,0.66452
7086.21,0.66279
7080.42,0.65726
7074.64,0.65236
7068.85,0.64495
7063.07,0.63111
7057.28,0.62958
7051.49,0.62321
7045.71,0.62404
7039.92,0.62415
7034.13,0.61248
7028.35,0.60701
7022.56,0.60146
7016.78,0.60111
7010.99,0.59841
7005.2,0.59561
6999.42,0.58901
6993.63,0.58747
6987.84,0.58143
6982.06,0.58003
6976.27,0.57196
6970.49,0.57340
6964.7,0.56980
6958.91,0.56959
6953.13,0.56941
6947.34,0.56815
6941.55,0.57070
6935.77,0.56542
6929.98,0.55747
6924.2,0.55505
6918.41,0.55671
6912.62,0.55068
6906.84,0.55090
6901.05,0.55359
6895.26,0.55597
6889.48,0.55089
6883.69,0.54723
6877.91,0.55147
6872.12,0.54751
6866.33,0.54582
6860.55,0.54320
6854.76,0.54577
6848.97,0.53971
6843.19,0.54004
6837.4,0.53664
6831.62,0.53584
6825.83,0.53572
6820.04,0.53533
6814.26,0.53559
6808.47,0.53512
6802.68,0.53122
6796.9,0.52674
6791.11,0.52400
6785.33,0.51979
6779.54,0.52172
6773.75,0.52041
6767.97,0.51719
6762.18,0.51444
6756.39,0.51282
6750.61,0.51197
6744.82,0.51111
6739.04,0.51249
6733.25,0.50923
6727.46,0.51560
6721.68,0.51213
6715.89,0.51550
6710.1,0.51241
6704.32,0.50813
6698.53,0.51663
6692.75,0.51545
6686.96,0.51638
6681.17,0.51468
6675.39,0.51471
6669.6,0.51489
6663.82,0.51545
6658.03,0.51913
6652.24,0.51907
6646.46,0.51844
6640.67,0.52091
6634.88,0.52074
6629.1,0.52266
6623.31,0.52741
6617.53,0.52547
6611.74,0.52665
6605.95,0.52858
6600.17,0.53085
6594.38,0.53274
6588.59,0.53459
6582.81,0.53421
6577.02,0.53201
6571.24,0.53663
6565.45,0.53508
6559.66,0.52915
6553.88,0.53006
6548.09,0.53286
6542.3,0.53097
6536.52,0.53566
6530.73,0.53222
6524.95,0.53139
6519.16,0.53282
6513.37,0.53750
6507.59,0.53234
6501.8,0.53163
6496.01,0.53134
6490.23,0.53249
6484.44,0.53096
6478.66,0.53212
6472.87,0.53686
6467.08,0.53497
6461.3,0.53617
6455.51,0.53357
6449.72,0.53310
6443.94,0.53747
6438.15,0.54064
6432.37,0.53708
6426.58,0.54006
6420.79,0.54157
6415.01,0.54281
6409.22,0.54061
6403.43,0.54463
6397.65,0.54038
6391.86,0.53943
6386.08,0.54047
6380.29,0.54480
6374.5,0.54213
6368.72,0.54448
6362.93,0.54005
6357.14,0.54104
6351.36,0.53775
6345.57,0.54443
6339.79,0.54404
6334,0.54190
6328.21,0.54293
6322.43,0.54521
6316.64,0.54639
6310.85,0.54438
6305.07,0.54601
6299.28,0.54687
6293.5,0.54646
6287.71,0.54875
6281.92,0.54678
6276.14,0.55079
6270.35,0.55417
6264.56,0.55031
6258.78,0.55413
6252.99,0.55698
6247.21,0.56089
6241.42,0.56040
6235.63,0.56452
6229.85,0.56915
6224.06,0.56948
6218.27,0.57643
6212.49,0.57610
6206.7,0.57879
6200.92,0.57993
6195.13,0.58095
6189.34,0.58677
6183.56,0.58994
6177.77,0.59618
6171.98,0.59621
6166.2,0.59667
6160.41,0.59848
6154.63,0.60251
6148.84,0.60356
6143.05,0.60286
6137.27,0.60839
6131.48,0.61039
6125.7,0.61210
6119.91,0.61050
6114.12,0.61544
6108.34,0.61889
6102.55,0.61636
6096.76,0.61782
6090.98,0.62501
6085.19,0.62455
6079.41,0.62769
6073.62,0.62786
6067.83,0.63465
6062.05,0.63229
6056.26,0.63457
6050.47,0.63626
6044.69,0.63954
6038.9,0.64054
6033.12,0.64357
6027.33,0.64491
6021.54,0.64580
6015.76,0.64417
6009.97,0.64529
6004.18,0.64862
5998.4,0.65092
5992.61,0.65102
5986.83,0.65222
5981.04,0.65408
5975.25,0.65396
5969.47,0.65811
5963.68,0.65562
5957.89,0.65388
5952.11,0.65261
5946.32,0.65315
5940.54,0.64990
5934.75,0.64801
5928.96,0.64601
5923.18,0.65111
5917.39,0.64940
5911.6,0.64705
5905.82,0.64763
5900.03,0.64306
5894.25,0.64200
5888.46,0.63888
5882.67,0.63337
5876.89,0.63107
5871.1,0.63192
5865.31,0.62914
5859.53,0.63059
5853.74,0.62933
5847.96,0.63091
5842.17,0.63125
5836.38,0.62826
5830.6,0.62756
5824.81,0.62973
5819.02,0.62731
5813.24,0.62548
5807.45,0.62626
5801.67,0.62561
5795.88,0.62542
5790.09,0.62341
5784.31,0.62502
5778.52,0.62275
5772.73,0.62016
5766.95,0.62101
5761.16,0.62107
5755.38,0.62159
5749.59,0.62189
5743.8,0.61872
5738.02,0.61869
5732.23,0.61928
5726.44,0.61860
5720.66,0.61843
5714.87,0.61668
5709.09,0.61574
5703.3,0.61696
5697.51,0.61572
5691.73,0.61553
5685.94,0.61294
5680.15,0.61217
5674.37,0.61146
5668.58,0.60923
5662.8,0.60943
5657.01,0.60870
5651.22,0.60808
5645.44,0.61057
5639.65,0.60749
5633.87,0.60917
5628.08,0.60834
5622.29,0.60878
5616.51,0.60901
5610.72,0.60765
5604.93,0.60753
5599.15,0.60855
5593.36,0.61004
5587.58,0.60857
5581.79,0.61114
5576,0.61058
5570.22,0.61136
5564.43,0.61094
5558.64,0.61090
5552.86,0.61202
5547.07,0.61051
5541.29,0.61313
5535.5,0.61545
5529.71,0.61197
5523.93,0.61456
5518.14,0.61232
5512.35,0.61090
5506.57,0.61259
5500.78,0.61084
5495,0.61267
5489.21,0.61149
5483.42,0.61310
5477.64,0.61366
5471.85,0.61638
5466.06,0.61486
5460.28,0.61506
5454.49,0.61794
5448.71,0.61738
5442.92,0.62137
5437.13,0.62104
5431.35,0.62342
5425.56,0.62373
5419.77,0.62448
5413.99,0.62640
5408.2,0.62774
5402.42,0.62952
5396.63,0.63097
5390.84,0.63267
5385.06,0.63276
5379.27,0.63213
5373.48,0.63157
5367.7,0.63236
5361.91,0.63299
5356.13,0.63234
5350.34,0.63022
5344.55,0.62937
5338.77,0.62610
5332.98,0.62344
5327.19,0.62135
5321.41,0.61764
5315.62,0.61169
5309.84,0.60691
5304.05,0.60241
5298.26,0.59656
5292.48,0.58778
5286.69,0.57889
5280.9,0.56943
5275.12,0.56089
5269.33,0.55147
5263.55,0.53941
5257.76,0.52987
5251.97,0.51915
5246.19,0.51076
5240.4,0.50042
5234.61,0.49382
5228.83,0.48636
5223.04,0.48057
5217.26,0.47436
5211.47,0.46973
5205.68,0.46786
5199.9,0.46450
5194.11,0.46223
5188.32,0.45985
5182.54,0.46161
5176.75,0.45984
5170.97,0.45968
5165.18,0.46143
5159.39,0.46237
5153.61,0.46456
5147.82,0.46723
5142.03,0.46963
5136.25,0.47062
5130.46,0.47396
5124.68,0.47677
5118.89,0.48184
5113.1,0.48326
5107.32,0.48684
5101.53,0.48840
5095.75,0.49138
5089.96,0.49474
5084.17,0.49747
5078.39,0.49950
5072.6,0.50253
5066.81,0.50551
5061.03,0.50868
5055.24,0.51182
5049.46,0.51303
5043.67,0.51809
5037.88,0.51889
5032.1,0.52187
5026.31,0.52388
5020.52,0.52602
5014.74,0.52799
5008.95,0.52939
5003.17,0.52945
4997.38,0.53105
4991.59,0.53141
4985.81,0.53211
4980.02,0.53160
4974.23,0.53186
4968.45,0.53079
4962.66,0.52929
4956.88,0.52722
4951.09,0.52403
4945.3,0.52115
4939.52,0.51655
4933.73,0.51262
4927.94,0.50877
4922.16,0.50344
4916.37,0.49742
4910.59,0.49123
4904.8,0.48555
4899.01,0.47799
4893.23,0.47097
4887.44,0.46413
4881.65,0.45808
4875.87,0.45214
4870.08,0.44688
4864.3,0.44172
4858.51,0.43660
4852.72,0.43262
4846.94,0.42708
4841.15,0.42316
4835.36,0.41863
4829.58,0.41417
4823.79,0.40990
4818.01,0.40689
4812.22,0.40281
4806.43,0.40018
4800.65,0.39796
4794.86,0.39622
4789.07,0.39313
4783.29,0.39155
4777.5,0.39001
4771.72,0.38876
4765.93,0.38761
4760.14,0.38649
4754.36,0.38640
4748.57,0.38708
4742.78,0.38867
4737,0.39077
4731.21,0.39303
4725.43,0.39371
4719.64,0.39600
4713.85,0.39779
4708.07,0.40066
4702.28,0.40339
4696.49,0.40582
4690.71,0.40828
4684.92,0.41142
4679.14,0.41496
4673.35,0.41879
4667.56,0.42169
4661.78,0.42361
4655.99,0.42543
4650.2,0.42784
4644.42,0.42957
4638.63,0.43236
4632.85,0.43481
4627.06,0.43786
4621.27,0.44068
4615.49,0.44223
4609.7,0.44471
4603.92,0.44794
4598.13,0.45033
4592.34,0.45275
4586.56,0.45513
4580.77,0.45753
4574.98,0.46035
4569.2,0.46267
4563.41,0.46494
4557.63,0.46855
4551.84,0.47066
4546.05,0.47258
4540.27,0.47390
4534.48,0.47637
4528.69,0.47822
4522.91,0.47937
4517.12,0.48180
4511.34,0.48240
4505.55,0.48327
4499.76,0.48383
4493.98,0.48459
4488.19,0.48413
4482.4,0.48493
4476.62,0.48489
4470.83,0.48328
4465.05,0.48052
4459.26,0.47708
4453.47,0.47284
4447.69,0.46666
4441.9,0.45814
4436.11,0.44916
4430.33,0.43949
4424.54,0.42974
4418.76,0.42039
4412.97,0.41166
4407.18,0.40491
4401.4,0.40018
4395.61,0.39897
4389.82,0.39928
4384.04,0.40212
4378.25,0.40586
4372.47,0.40963
4366.68,0.41249
4360.89,0.41167
4355.11,0.40942
4349.32,0.40720
4343.53,0.40482
4337.75,0.40213
4331.96,0.39779
4326.18,0.39323
4320.39,0.38940
4314.6,0.38650
4308.82,0.38261
4303.03,0.37971
4297.24,0.37707
4291.46,0.37386
4285.67,0.37040
4279.89,0.36908
4274.1,0.36783
4268.31,0.36715
4262.53,0.36670
4256.74,0.36666
4250.95,0.36691
4245.17,0.36628
4239.38,0.36623
4233.6,0.36933
4227.81,0.37140
4222.02,0.37205
4216.24,0.37228
4210.45,0.37262
4204.66,0.37506
4198.88,0.37751
4193.09,0.37882
4187.31,0.37943
4181.52,0.37870
4175.73,0.37872
4169.95,0.37934
4164.16,0.38139
4158.37,0.38061
4152.59,0.37838
4146.8,0.37536
4141.02,0.37282
4135.23,0.37129
4129.44,0.36916
4123.66,0.36593
4117.87,0.36133
4112.09,0.35605
4106.3,0.35120
4100.51,0.34525
4094.73,0.33777
4088.94,0.33166
4083.15,0.32521
4077.37,0.31813
4071.58,0.31196
4065.8,0.30604
4060.01,0.29851
4054.22,0.29219
4048.44,0.28504
4042.65,0.27827
4036.86,0.27420
4031.08,0.27105
4025.29,0.26946
4019.51,0.26805
4013.72,0.26846
4007.93,0.26963
4002.15,0.27100
3996.36,0.27416
3990.57,0.27692
3984.79,0.27888
3979,0.28045
3973.22,0.28137
3967.43,0.28247
3961.64,0.28526
3955.86,0.28674
3950.07,0.28872
3944.28,0.29075
3938.5,0.29374
3932.71,0.29754
3926.93,0.30087
3921.14,0.30468
3915.35,0.30751
3909.57,0.30892
3903.78,0.31361
3897.99,0.31544
3892.21,0.31706
3886.42,0.31973
3880.64,0.32225
3874.85,0.32365
3869.06,0.32675
3863.28,0.33234
3857.49,0.33509
3851.7,0.33975
3845.92,0.34166
3840.13,0.34537
3834.35,0.34684
3828.56,0.34619
3822.77,0.34764
3816.99,0.34726
3811.2,0.34411
3805.41,0.34474
3799.63,0.34520
3793.84,0.34379
3788.06,0.34295
3782.27,0.34253
3776.48,0.34074
3770.7,0.34019
3764.91,0.33899
3759.12,0.33695
3753.34,0.33519
3747.55,0.33269
3741.77,0.32899
3735.98,0.32617
3730.19,0.31980
3724.41,0.31443
3718.62,0.30730
3712.83,0.30086
3707.05,0.29035
3701.26,0.28052
3695.48,0.26841
3689.69,0.25675
3683.9,0.24135
3678.12,0.22706
3672.33,0.20888
3666.54,0.18871
3660.76,0.17200
3654.97,0.15494
3649.19,0.13983
3643.4,0.12378
3637.61,0.11175
3631.83,0.10065
3626.04,0.08955
3620.25,0.08265
3614.47,0.07426
3608.68,0.06739
3602.9,0.06118
3597.11,0.05625
3591.32,0.05194
3585.54,0.04775
3579.75,0.04383
3573.97,0.04124
3568.18,0.03957
3562.39,0.03727
3556.61,0.03474
3550.82,0.03311
3545.03,0.03146
3539.25,0.03095
3533.46,0.02900
3527.68,0.02761
3521.89,0.02613
3516.1,0.02694
3510.32,0.02532
3504.53,0.02491
3498.74,0.02384
3492.96,0.02359
3487.17,0.02453
3481.39,0.02501
3475.6,0.02505
3469.81,0.02462
3464.03,0.02494
3458.24,0.02438
3452.45,0.02447
3446.67,0.02480
3440.88,0.02580
3435.1,0.02628
3429.31,0.02574
3423.52,0.02623
3417.74,0.02610
3411.95,0.02658
3406.16,0.02588
3400.38,0.02546
3394.59,0.02627
3388.81,0.02642
3383.02,0.02616
3377.23,0.02623
3371.45,0.02603
3365.66,0.02625
3359.87,0.02636
3354.09,0.02646
3348.3,0.02721
3342.52,0.02736
3336.73,0.02738
3330.94,0.02805
3325.16,0.02846
3319.37,0.02892
3313.58,0.02841
3307.8,0.02866
3302.01,0.02935
3296.23,0.02896
3290.44,0.02926
3284.65,0.02985
3278.87,0.02997
3273.08,0.03014
3267.29,0.03100
3261.51,0.03065
3255.72,0.03182
3249.94,0.03154
3244.15,0.03166
3238.36,0.03272
3232.58,0.03145
3226.79,0.03206
3221,0.03229
3215.22,0.03355
3209.43,0.03351
3203.65,0.03390
3197.86,0.03439
3192.07,0.03504
3186.29,0.03570
3180.5,0.03532
3174.71,0.03583
3168.93,0.03758
3163.14,0.03774
3157.36,0.03808
3151.57,0.03888
3145.78,0.04029
3140,0.04154
3134.21,0.04283
3128.42,0.04362
3122.64,0.04554
3116.85,0.04682
3111.07,0.04813
3105.28,0.05016
3099.49,0.05165
3093.71,0.05410
3087.92,0.05581
3082.14,0.05782
3076.35,0.05981
3070.56,0.06242
3064.78,0.06405
3058.99,0.06670
3053.2,0.06933
3047.42,0.07121
3041.63,0.07382
3035.85,0.07586
3030.06,0.07826
3024.27,0.08082
3018.49,0.08303
3012.7,0.08426
3006.91,0.08599
3001.13,0.08582
2995.34,0.08434
2989.56,0.08133
2983.77,0.07439
2977.98,0.07026
2972.2,0.06277
2966.41,0.05867
2960.62,0.05630
2954.84,0.05310
2949.05,0.05043
2943.27,0.04814
2937.48,0.04632
2931.69,0.04478
2925.91,0.04336
2920.12,0.04161
2914.33,0.03988
2908.55,0.03862
2902.76,0.03793
2896.98,0.03836
2891.19,0.03936
2885.4,0.04146
2879.62,0.04229
2873.83,0.04363
2868.04,0.04503
2862.26,0.04827
2856.47,0.05043
2850.69,0.05296
2844.9,0.05740
2839.11,0.06249
2833.33,0.06649
2827.54,0.06954
2821.75,0.07295
2815.97,0.07737
2810.18,0.08079
2804.4,0.08467
2798.61,0.08751
2792.82,0.09043
2787.04,0.09290
2781.25,0.09480
2775.46,0.09721
2769.68,0.09886
2763.89,0.10049
2758.11,0.10156
2752.32,0.10193
2746.53,0.10207
2740.75,0.10145
2734.96,0.10199
2729.17,0.10287
2723.39,0.10406
2717.6,0.10615
2711.82,0.10873
2706.03,0.11129
2700.24,0.11420
2694.46,0.11750
2688.67,0.12083
2682.88,0.12494
2677.1,0.12823
2671.31,0.13109
2665.53,0.13358
2659.74,0.13563
2653.95,0.13830
2648.17,0.14163
2642.38,0.14408
2636.59,0.14710
2630.81,0.14934
2625.02,0.15141
2619.24,0.15416
2613.45,0.15626
2607.66,0.15771
2601.88,0.15969
2596.09,0.16167
2590.3,0.16319
2584.52,0.16453
2578.73,0.16523
2572.95,0.16622
2567.16,0.16620
2561.37,0.16575
2555.59,0.16580
2549.8,0.16567
2544.02,0.16442
2538.23,0.16431
2532.44,0.16495
2526.66,0.16594
2520.87,0.16756
2515.08,0.16898
2509.3,0.17147
2503.51,0.17569
2497.73,0.17872
2491.94,0.18172
2486.15,0.18474
2480.37,0.18812
2474.58,0.19094
2468.79,0.19390
2463.01,0.19616
2457.22,0.19838
2451.44,0.20107
2445.65,0.20401
2439.86,0.20705
2434.08,0.21079
2428.29,0.21441
2422.5,0.21795
2416.72,0.22160
2410.93,0.22394
2405.15,0.22590
2399.36,0.22816
2393.57,0.23034
2387.79,0.23312
2382,0.23505
2376.21,0.23747
2370.43,0.23986
2364.64,0.24116
2358.86,0.24275
2353.07,0.24545
2347.28,0.24819
2341.5,0.25196
2335.71,0.25331
2329.92,0.25442
2324.14,0.25548
2318.35,0.25746
2312.57,0.25818
2306.78,0.25857
2300.99,0.25749
2295.21,0.25613
2289.42,0.25486
2283.63,0.25336
2277.85,0.25150
2272.06,0.24833
2266.28,0.24430
2260.49,0.24031
2254.7,0.23738
2248.92,0.23507
2243.13,0.23287
2237.34,0.23054
2231.56,0.22936
2225.77,0.22930
2219.99,0.22963
2214.2,0.23020
2208.41,0.22997
2202.63,0.22978
2196.84,0.22871
2191.05,0.22638
2185.27,0.22317
2179.48,0.21932
2173.7,0.21470
2167.91,0.21050
2162.12,0.20709
2156.34,0.20464
2150.55,0.20272
2144.76,0.20159
2138.98,0.19977
2133.19,0.19953
2127.41,0.20059
2121.62,0.20244
2115.83,0.20538
2110.05,0.20892
2104.26,0.21183
2098.47,0.21424
2092.69,0.21673
2086.9,0.21907
2081.12,0.22039
2075.33,0.22034
2069.54,0.21958
2063.76,0.21898
2057.97,0.21882
2052.19,0.21922
2046.4,0.21938
2040.61,0.22137
2034.83,0.22402
2029.04,0.22939
2023.25,0.23516
2017.47,0.24099
2011.68,0.24598
2005.9,0.24895
2000.11,0.25076
1994.32,0.25156
1988.54,0.25369
1982.75,0.25631
1976.96,0.25965
1971.18,0.26242
1965.39,0.26532
1959.61,0.26815
1953.82,0.27123
1948.03,0.27583
1942.25,0.28059
1936.46,0.28377
1930.67,0.28709
1924.89,0.28905
1919.1,0.29137
1913.32,0.29284
1907.53,0.29482
1901.74,0.29556
1895.96,0.29602
1890.17,0.29607
1884.38,0.29557
1878.6,0.29516
1872.81,0.29444
1867.03,0.29359
1861.24,0.29142
1855.45,0.28841
1849.67,0.28538
1843.88,0.28209
1838.09,0.27837
1832.31,0.27605
1826.52,0.27355
1820.74,0.27079
1814.95,0.26761
1809.16,0.26408
1803.38,0.25952
1797.59,0.25590
1791.8,0.25237
1786.02,0.24806
1780.23,0.24463
1774.45,0.24159
1768.66,0.23693
1762.87,0.23272
1757.09,0.22830
1751.3,0.22410
1745.51,0.21817
1739.73,0.21161
1733.94,0.20547
1728.16,0.19756
1722.37,0.19104
1716.58,0.18415
1710.8,0.17476
1705.01,0.16638
1699.22,0.15635
1693.44,0.14345
1687.65,0.13284
1681.87,0.12012
1676.08,0.11032
1670.29,0.10123
1664.51,0.09320
1658.72,0.08765
1652.93,0.08446
1647.15,0.08287
1641.36,0.08217
1635.58,0.08448
1629.79,0.08661
1624,0.09150
1618.22,0.09654
1612.43,0.10311
1606.64,0.10747
1600.86,0.11136
1595.07,0.11440
1589.29,0.11696
1583.5,0.11920
1577.71,0.12240
1571.93,0.12503
1566.14,0.12680
1560.35,0.12803
1554.57,0.12799
1548.78,0.12665
1543,0.12549
1537.21,0.12316
1531.42,0.12176
1525.64,0.12094
1519.85,0.11775
1514.07,0.11196
1508.28,0.10829
1502.49,0.09951
1496.71,0.09186
1490.92,0.08234
1485.13,0.06836
1479.35,0.05948
1473.56,0.05401
1467.78,0.04817
1461.99,0.04416
1456.2,0.04129
1450.42,0.03824
1444.63,0.03594
1438.84,0.03495
1433.06,0.03274
1427.27,0.03318
1421.49,0.03431
1415.7,0.03675
1409.91,0.03866
1404.13,0.03874
1398.34,0.03741
1392.55,0.03561
1386.77,0.03265
1380.98,0.02882
1375.2,0.02738
1369.41,0.02794
1363.62,0.02944
1357.84,0.03081
1352.05,0.03220
1346.26,0.03207
1340.48,0.03086
1334.69,0.03076
1328.91,0.03181
1323.12,0.03143
1317.33,0.03055
1311.55,0.03191
1305.76,0.03567
1299.97,0.03825
1294.19,0.03945
1288.4,0.03937
1282.62,0.03606
1276.83,0.03613
1271.04,0.03852
1265.26,0.03861
1259.47,0.03882
1253.68,0.03933
1247.9,0.03943
1242.11,0.03804
1236.33,0.03546
1230.54,0.03598
1224.75,0.03686
1218.97,0.03832
1213.18,0.03595
1207.39,0.03015
1201.61,0.02762
1195.82,0.02859
1190.04,0.02913
1184.25,0.02684
1178.46,0.02429
1172.68,0.02517
1166.89,0.02973
1161.1,0.03168
1155.32,0.02940
1149.53,0.02606
1143.75,0.02295
1137.96,0.02092
1132.17,0.01992
1126.39,0.02129
1120.6,0.02469
1114.81,0.02743
1109.03,0.02895
1103.24,0.02751
1097.46,0.02699
1091.67,0.02698
1085.88,0.03160
1080.1,0.03854
1074.31,0.03980
1068.52,0.04322
1062.74,0.04745
1056.95,0.04794
1051.17,0.04456
1045.38,0.04206
1039.59,0.04153
1033.81,0.04573
1028.02,0.04662
1022.24,0.04621
1016.45,0.04673
1010.66,0.04620
1004.88,0.04505
999.09,0.04677
993.304,0.05070
987.518,0.05422
981.731,0.06208
975.945,0.07050
970.159,0.07240
964.373,0.07495
958.586,0.08576
952.8,0.09847
947.014,0.10670
941.228,0.11015
935.441,0.10898
929.655,0.10835
923.869,0.10839
918.083,0.10517
912.297,0.09579
906.51,0.08219
900.724,0.06847
894.938,0.06538
889.152,0.08036
883.365,0.09758
877.579,0.10924
871.793,0.11604
866.007,0.11827
860.22,0.11742
854.434,0.11447
848.648,0.11042
842.862,0.10761
837.075,0.10408
831.289,0.10004
825.503,0.09687
819.717,0.09437
813.931,0.09065
808.144,0.08657
802.358,0.08345
796.572,0.08053
790.786,0.07684
784.999,0.07330
779.213,0.06986
773.427,0.06677
767.641,0.06418
761.854,0.06044
756.068,0.05686
750.282,0.05365
744.496,0.05131
738.709,0.04846
732.923,0.04611
727.137,0.04300
721.351,0.04054
715.565,0.03953
709.778,0.03821
703.992,0.03899
698.206,0.03865
692.42,0.03879
686.633,0.03661
680.847,0.03606
675.061,0.03410
669.275,0.03444
663.488,0.03609
657.702,0.03636
651.916,0.03569
646.13,0.03647
640.343,0.03476
634.557,0.03291
628.771,0.03430
622.985,0.03191
617.198,0.03226
611.412,0.03680
605.626,0.03726
599.84,0.03533