File: 01_Data/Bean_Bag_Chair_Outer_Cover/FTIR/IS/Bean_Bag_Chair_Outer_Cover_IS_S_220909_R1.dpt
7497.03,0.81428
7491.25,0.81101
7485.46,0.80793
7479.67,0.80274
7473.89,0.80168
7468.1,0.81445
7462.32,0.79821
7456.53,0.78472
7450.74,0.79973
7444.96,0.79340
7439.17,0.77836
7433.38,0.78839
7427.6,0.78987
7421.81,0.79650
7416.03,0.77930
7410.24,0.77468
7404.45,0.77373
7398.67,0.76611
7392.88,0.77812
7387.09,0.77160
7381.31,0.76517
7375.52,0.75738
7369.74,0.75440
7363.95,0.75168
7358.16,0.74783
7352.38,0.76282
7346.59,0.74521
7340.8,0.74322
7335.02,0.74449
7329.23,0.73293
7323.45,0.73588
7317.66,0.73234
7311.87,0.73039
7306.09,0.72761
7300.3,0.73703
7294.51,0.74009
7288.73,0.72806
7282.94,0.72903
7277.16,0.72991
7271.37,0.72690
7265.58,0.72536
7259.8,0.72928
7254.01,0.73513
7248.22,0.71930
7242.44,0.73235
7236.65,0.73196
7230.87,0.72349
7225.08,0.72505
7219.29,0.72755
7213.51,0.72435
7207.72,0.72647
7201.93,0.72085
7196.15,0.72066
7190.36,0.72769
7184.58,0.71766
7178.79,0.71498
7173,0.72130
7167.22,0.70056
7161.43,0.70228
7155.65,0.70440
7149.86,0.70328
7144.07,0.70150
7138.29,0.69644
7132.5,0.69757
7126.71,0.68425
7120.93,0.68376
7115.14,0.67796
7109.36,0.66970
7103.57,0.66564
7097.78,0.66197
7092,0.65920
7086.21,0.65621
7080.42,0.64658
7074.64,0.64835
7068.85,0.64144
7063.07,0.63254
7057.28,0.63150
7051.49,0.62510
7045.71,0.61583
7039.92,0.60928
7034.13,0.60952
7028.35,0.60195
7022.56,0.59751
7016.78,0.59212
7010.99,0.59053
7005.2,0.58654
6999.42,0.59186
6993.63,0.58603
6987.84,0.58088
6982.06,0.57884
6976.27,0.57079
6970.49,0.56913
6964.7,0.56807
6958.91,0.56356
6953.13,0.56128
6947.34,0.56361
6941.55,0.56398
6935.77,0.56179
6929.98,0.55384
6924.2,0.55621
6918.41,0.55074
6912.62,0.55519
6906.84,0.55447
6901.05,0.54905
6895.26,0.54984
6889.48,0.55013
6883.69,0.54242
6877.91,0.53922
6872.12,0.54302
6866.33,0.54083
6860.55,0.54181
6854.76,0.54130
6848.97,0.53466
6843.19,0.53164
6837.4,0.53091
6831.62,0.52547
6825.83,0.53080
6820.04,0.52560
6814.26,0.52151
6808.47,0.52068
6802.68,0.52022
6796.9,0.51735
6791.11,0.52203
6785.33,0.51739
6779.54,0.51231
6773.75,0.51685
6767.97,0.51212
6762.18,0.51186
6756.39,0.50901
6750.61,0.51579
6744.82,0.50758
6739.04,0.50874
6733.25,0.51174
6727.46,0.51181
6721.68,0.51135
6715.89,0.50760
6710.1,0.51009
6704.32,0.50653
6698.53,0.50968
6692.75,0.51294
6686.96,0.51136
6681.17,0.51171
6675.39,0.51118
6669.6,0.51008
6663.82,0.51135
6658.03,0.51247
6652.24,0.51363
6646.46,0.51583
6640.67,0.51543
6634.88,0.51761
6629.1,0.52172
6623.31,0.52101
6617.53,0.52436
6611.74,0.52810
6605.95,0.52942
6600.17,0.52891
6594.38,0.53079
6588.59,0.53009
6582.81,0.52569
6577.02,0.52540
6571.24,0.52787
6565.45,0.53050
6559.66,0.52687
6553.88,0.53062
6548.09,0.53211
6542.3,0.52672
6536.52,0.52786
6530.73,0.53001
6524.95,0.53135
6519.16,0.53160
6513.37,0.53053
6507.59,0.53548
6501.8,0.53411
6496.01,0.53031
6490.23,0.52837
6484.44,0.52753
6478.66,0.53392
6472.87,0.53162
6467.08,0.52871
6461.3,0.52921
6455.51,0.53414
6449.72,0.53752
6443.94,0.53341
6438.15,0.53475
6432.37,0.53375
6426.58,0.53613
6420.79,0.53488
6415.01,0.53331
6409.22,0.53439
6403.43,0.53667
6397.65,0.53692
6391.86,0.53283
6386.08,0.53468
6380.29,0.53379
6374.5,0.53666
6368.72,0.53746
6362.93,0.54146
6357.14,0.53610
6351.36,0.54237
6345.57,0.53795
6339.79,0.53896
6334,0.53857
6328.21,0.54074
6322.43,0.53746
6316.64,0.53806
6310.85,0.54029
6305.07,0.54208
6299.28,0.54304
6293.5,0.54689
6287.71,0.54606
6281.92,0.54600
6276.14,0.54586
6270.35,0.54924
6264.56,0.55085
6258.78,0.55113
6252.99,0.55247
6247.21,0.55722
6241.42,0.55922
6235.63,0.56407
6229.85,0.56408
6224.06,0.56327
6218.27,0.57061
6212.49,0.56942
6206.7,0.57707
6200.92,0.57728
6195.13,0.57818
6189.34,0.58332
6183.56,0.58429
6177.77,0.58482
6171.98,0.58832
6166.2,0.58971
6160.41,0.59516
6154.63,0.59787
6148.84,0.59790
6143.05,0.60582
6137.27,0.60409
6131.48,0.60584
6125.7,0.60809
6119.91,0.60807
6114.12,0.60930
6108.34,0.61292
6102.55,0.61679
6096.76,0.61516
6090.98,0.62044
6085.19,0.61754
6079.41,0.62040
6073.62,0.62573
6067.83,0.62490
6062.05,0.62962
6056.26,0.62971
6050.47,0.63169
6044.69,0.63563
6038.9,0.63629
6033.12,0.63607
6027.33,0.63636
6021.54,0.64063
6015.76,0.64394
6009.97,0.64303
6004.18,0.64421
5998.4,0.64691
5992.61,0.64947
5986.83,0.64862
5981.04,0.64707
5975.25,0.64878
5969.47,0.64880
5963.68,0.65016
5957.89,0.65058
5952.11,0.65134
5946.32,0.64707
5940.54,0.64632
5934.75,0.64549
5928.96,0.64609
5923.18,0.64468
5917.39,0.64215
5911.6,0.64147
5905.82,0.64156
5900.03,0.63887
5894.25,0.63615
5888.46,0.63516
5882.67,0.63053
5876.89,0.62809
5871.1,0.62660
5865.31,0.62563
5859.53,0.62675
5853.74,0.62656
5847.96,0.62815
5842.17,0.62467
5836.38,0.62693
5830.6,0.62598
5824.81,0.62440
5819.02,0.62355
5813.24,0.61943
5807.45,0.62275
5801.67,0.62290
5795.88,0.62239
5790.09,0.62059
5784.31,0.61980
5778.52,0.61899
5772.73,0.61747
5766.95,0.61729
5761.16,0.61697
5755.38,0.61771
5749.59,0.61770
5743.8,0.61842
5738.02,0.61460
5732.23,0.61567
5726.44,0.61617
5720.66,0.61234
5714.87,0.61450
5709.09,0.61319
5703.3,0.61208
5697.51,0.61133
5691.73,0.60989
5685.94,0.61010
5680.15,0.61052
5674.37,0.60922
5668.58,0.60786
5662.8,0.60438
5657.01,0.60527
5651.22,0.60481
5645.44,0.60207
5639.65,0.60208
5633.87,0.60438
5628.08,0.60445
5622.29,0.60336
5616.51,0.60441
5610.72,0.60583
5604.93,0.60462
5599.15,0.60262
5593.36,0.60367
5587.58,0.60496
5581.79,0.60446
5576,0.60537
5570.22,0.60611
5564.43,0.60781
5558.64,0.60903
5552.86,0.60758
5547.07,0.60968
5541.29,0.60909
5535.5,0.60900
5529.71,0.60833
5523.93,0.60811
5518.14,0.60880
5512.35,0.60799
5506.57,0.60920
5500.78,0.60852
5495,0.60695
5489.21,0.60725
5483.42,0.61071
5477.64,0.60943
5471.85,0.60790
5466.06,0.60909
5460.28,0.60993
5454.49,0.61155
5448.71,0.61265
5442.92,0.61180
5437.13,0.61462
5431.35,0.61551
5425.56,0.61803
5419.77,0.62028
5413.99,0.61981
5408.2,0.62083
5402.42,0.62426
5396.63,0.62429
5390.84,0.62683
5385.06,0.62554
5379.27,0.62608
5373.48,0.62677
5367.7,0.62768
5361.91,0.62517
5356.13,0.62231
5350.34,0.62016
5344.55,0.61544
5338.77,0.61641
5332.98,0.61515
5327.19,0.61120
5321.41,0.60879
5315.62,0.60522
5309.84,0.59880
5304.05,0.59112
5298.26,0.58563
5292.48,0.57723
5286.69,0.56679
5280.9,0.55821
5275.12,0.55053
5269.33,0.53784
5263.55,0.52625
5257.76,0.51694
5251.97,0.50655
5246.19,0.49497
5240.4,0.48798
5234.61,0.48021
5228.83,0.47146
5223.04,0.46649
5217.26,0.46029
5211.47,0.45777
5205.68,0.45058
5199.9,0.44823
5194.11,0.44675
5188.32,0.44602
5182.54,0.44383
5176.75,0.44476
5170.97,0.44500
5165.18,0.44427
5159.39,0.44778
5153.61,0.45006
5147.82,0.45125
5142.03,0.45287
5136.25,0.45621
5130.46,0.46007
5124.68,0.46226
5118.89,0.46579
5113.1,0.46808
5107.32,0.47015
5101.53,0.47434
5095.75,0.47678
5089.96,0.47943
5084.17,0.48304
5078.39,0.48584
5072.6,0.48971
5066.81,0.49191
5061.03,0.49456
5055.24,0.49751
5049.46,0.49940
5043.67,0.50330
5037.88,0.50521
5032.1,0.50876
5026.31,0.51091
5020.52,0.51287
5014.74,0.51382
5008.95,0.51599
5003.17,0.51798
4997.38,0.52054
4991.59,0.52164
4985.81,0.52155
4980.02,0.51966
4974.23,0.52067
4968.45,0.51916
4962.66,0.51843
4956.88,0.51710
4951.09,0.51414
4945.3,0.51135
4939.52,0.50815
4933.73,0.50562
4927.94,0.50191
4922.16,0.49703
4916.37,0.49239
4910.59,0.48471
4904.8,0.47865
4899.01,0.47240
4893.23,0.46666
4887.44,0.46028
4881.65,0.45370
4875.87,0.44794
4870.08,0.44387
4864.3,0.43851
4858.51,0.43424
4852.72,0.42975
4846.94,0.42429
4841.15,0.42179
4835.36,0.41716
4829.58,0.41213
4823.79,0.40727
4818.01,0.40311
4812.22,0.40224
4806.43,0.39819
4800.65,0.39479
4794.86,0.39294
4789.07,0.39205
4783.29,0.38987
4777.5,0.38882
4771.72,0.38775
4765.93,0.38567
4760.14,0.38558
4754.36,0.38497
4748.57,0.38603
4742.78,0.38586
4737,0.38863
4731.21,0.38998
4725.43,0.39168
4719.64,0.39390
4713.85,0.39594
4708.07,0.39930
4702.28,0.40077
4696.49,0.40435
4690.71,0.40671
4684.92,0.40978
4679.14,0.41331
4673.35,0.41651
4667.56,0.41818
4661.78,0.42061
4655.99,0.42253
4650.2,0.42599
4644.42,0.42755
4638.63,0.43007
4632.85,0.43328
4627.06,0.43472
4621.27,0.43806
4615.49,0.44010
4609.7,0.44195
4603.92,0.44546
4598.13,0.44800
4592.34,0.45052
4586.56,0.45321
4580.77,0.45495
4574.98,0.45799
4569.2,0.46090
4563.41,0.46328
4557.63,0.46495
4551.84,0.46775
4546.05,0.46904
4540.27,0.47113
4534.48,0.47258
4528.69,0.47453
4522.91,0.47694
4517.12,0.47760
4511.34,0.47925
4505.55,0.48003
4499.76,0.48066
4493.98,0.48122
4488.19,0.48199
4482.4,0.48144
4476.62,0.48200
4470.83,0.48058
4465.05,0.47803
4459.26,0.47407
4453.47,0.46936
4447.69,0.46332
4441.9,0.45618
4436.11,0.44733
4430.33,0.43704
4424.54,0.42749
4418.76,0.41782
4412.97,0.40911
4407.18,0.40292
4401.4,0.39799
4395.61,0.39616
4389.82,0.39782
4384.04,0.40156
4378.25,0.40449
4372.47,0.40920
4366.68,0.41068
4360.89,0.40945
4355.11,0.40739
4349.32,0.40509
4343.53,0.40321
4337.75,0.39994
4331.96,0.39676
4326.18,0.39132
4320.39,0.38778
4314.6,0.38444
4308.82,0.38118
4303.03,0.37797
4297.24,0.37474
4291.46,0.37161
4285.67,0.36887
4279.89,0.36602
4274.1,0.36494
4268.31,0.36415
4262.53,0.36490
4256.74,0.36511
4250.95,0.36510
4245.17,0.36453
4239.38,0.36427
4233.6,0.36689
4227.81,0.36842
4222.02,0.36974
4216.24,0.36961
4210.45,0.37023
4204.66,0.37254
4198.88,0.37499
4193.09,0.37618
4187.31,0.37635
4181.52,0.37562
4175.73,0.37606
4169.95,0.37688
4164.16,0.37783
4158.37,0.37753
4152.59,0.37528
4146.8,0.37246
4141.02,0.36989
4135.23,0.36822
4129.44,0.36630
4123.66,0.36302
4117.87,0.35822
4112.09,0.35351
4106.3,0.34780
4100.51,0.34222
4094.73,0.33545
4088.94,0.32850
4083.15,0.32247
4077.37,0.31609
4071.58,0.31033
4065.8,0.30351
4060.01,0.29615
4054.22,0.28979
4048.44,0.28262
4042.65,0.27669
4036.86,0.27233
4031.08,0.26900
4025.29,0.26702
4019.51,0.26573
4013.72,0.26580
4007.93,0.26663
4002.15,0.26901
3996.36,0.27079
3990.57,0.27412
3984.79,0.27562
3979,0.27739
3973.22,0.27907
3967.43,0.27976
3961.64,0.28138
3955.86,0.28286
3950.07,0.28504
3944.28,0.28641
3938.5,0.29055
3932.71,0.29287
3926.93,0.29635
3921.14,0.29915
3915.35,0.30267
3909.57,0.30560
3903.78,0.30458
3897.99,0.30870
3892.21,0.30988
3886.42,0.31289
3880.64,0.31368
3874.85,0.31634
3869.06,0.31833
3863.28,0.32246
3857.49,0.32698
3851.7,0.32829
3845.92,0.33418
3840.13,0.33200
3834.35,0.33572
3828.56,0.33809
3822.77,0.33543
3816.99,0.33444
3811.2,0.33725
3805.41,0.33414
3799.63,0.33345
3793.84,0.33649
3788.06,0.33625
3782.27,0.33450
3776.48,0.33397
3770.7,0.33027
3764.91,0.32851
3759.12,0.32496
3753.34,0.32125
3747.55,0.31693
3741.77,0.31498
3735.98,0.30899
3730.19,0.30781
3724.41,0.30175
3718.62,0.29638
3712.83,0.28647
3707.05,0.27940
3701.26,0.26908
3695.48,0.25826
3689.69,0.24179
3683.9,0.22953
3678.12,0.21332
3672.33,0.19332
3666.54,0.17641
3660.76,0.16068
3654.97,0.14283
3649.19,0.12522
3643.4,0.11378
3637.61,0.10262
3631.83,0.09259
3626.04,0.08216
3620.25,0.07511
3614.47,0.06736
3608.68,0.06101
3602.9,0.05620
3597.11,0.05119
3591.32,0.04859
3585.54,0.04404
3579.75,0.04204
3573.97,0.03914
3568.18,0.03740
3562.39,0.03522
3556.61,0.03417
3550.82,0.03214
3545.03,0.03094
3539.25,0.02928
3533.46,0.02826
3527.68,0.02747
3521.89,0.02629
3516.1,0.02577
3510.32,0.02469
3504.53,0.02460
3498.74,0.02358
3492.96,0.02362
3487.17,0.02396
3481.39,0.02428
3475.6,0.02431
3469.81,0.02458
3464.03,0.02386
3458.24,0.02450
3452.45,0.02455
3446.67,0.02529
3440.88,0.02572
3435.1,0.02545
3429.31,0.02577
3423.52,0.02601
3417.74,0.02532
3411.95,0.02579
3406.16,0.02553
3400.38,0.02561
3394.59,0.02638
3388.81,0.02553
3383.02,0.02612
3377.23,0.02653
3371.45,0.02604
3365.66,0.02621
3359.87,0.02639
3354.09,0.02680
3348.3,0.02732
3342.52,0.02774
3336.73,0.02760
3330.94,0.02828
3325.16,0.02775
3319.37,0.02883
3313.58,0.02895
3307.8,0.02874
3302.01,0.02885
3296.23,0.02859
3290.44,0.02876
3284.65,0.02964
3278.87,0.03000
3273.08,0.03046
3267.29,0.03092
3261.51,0.03104
3255.72,0.03045
3249.94,0.03086
3244.15,0.03217
3238.36,0.03143
3232.58,0.03246
3226.79,0.03243
3221,0.03265
3215.22,0.03287
3209.43,0.03306
3203.65,0.03326
3197.86,0.03375
3192.07,0.03428
3186.29,0.03449
3180.5,0.03562
3174.71,0.03590
3168.93,0.03645
3163.14,0.03680
3157.36,0.03822
3151.57,0.03774
3145.78,0.03915
3140,0.03967
3134.21,0.04123
3128.42,0.04320
3122.64,0.04424
3116.85,0.04589
3111.07,0.04676
3105.28,0.04791
3099.49,0.04987
3093.71,0.05173
3087.92,0.05358
3082.14,0.05571
3076.35,0.05737
3070.56,0.05954
3064.78,0.06176
3058.99,0.06418
3053.2,0.06604
3047.42,0.06837
3041.63,0.07069
3035.85,0.07270
3030.06,0.07481
3024.27,0.07751
3018.49,0.07943
3012.7,0.08082
3006.91,0.08215
3001.13,0.08237
2995.34,0.08165
2989.56,0.07879
2983.77,0.07246
2977.98,0.06765
2972.2,0.06160
2966.41,0.05711
2960.62,0.05548
2954.84,0.05275
2949.05,0.04975
2943.27,0.04769
2937.48,0.04602
2931.69,0.04391
2925.91,0.04336
2920.12,0.04161
2914.33,0.04006
2908.55,0.03816
2902.76,0.03798
2896.98,0.03865
2891.19,0.03933
2885.4,0.04094
2879.62,0.04201
2873.83,0.04347
2868.04,0.04556
2862.26,0.04777
2856.47,0.05039
2850.69,0.05299
2844.9,0.05697
2839.11,0.06139
2833.33,0.06614
2827.54,0.06932
2821.75,0.07239
2815.97,0.07652
2810.18,0.07992
2804.4,0.08288
2798.61,0.08681
2792.82,0.08926
2787.04,0.09196
2781.25,0.09382
2775.46,0.09567
2769.68,0.09699
2763.89,0.09897
2758.11,0.10021
2752.32,0.10034
2746.53,0.10049
2740.75,0.09994
2734.96,0.10034
2729.17,0.10147
2723.39,0.10293
2717.6,0.10463
2711.82,0.10685
2706.03,0.10971
2700.24,0.11286
2694.46,0.11593
2688.67,0.11966
2682.88,0.12349
2677.1,0.12666
2671.31,0.12958
2665.53,0.13194
2659.74,0.13444
2653.95,0.13691
2648.17,0.13992
2642.38,0.14293
2636.59,0.14583
2630.81,0.14784
2625.02,0.15040
2619.24,0.15261
2613.45,0.15455
2607.66,0.15670
2601.88,0.15859
2596.09,0.16038
2590.3,0.16166
2584.52,0.16291
2578.73,0.16380
2572.95,0.16441
2567.16,0.16450
2561.37,0.16446
2555.59,0.16452
2549.8,0.16405
2544.02,0.16293
2538.23,0.16276
2532.44,0.16376
2526.66,0.16466
2520.87,0.16605
2515.08,0.16696
2509.3,0.17013
2503.51,0.17360
2497.73,0.17747
2491.94,0.18058
2486.15,0.18305
2480.37,0.18624
2474.58,0.18937
2468.79,0.19197
2463.01,0.19438
2457.22,0.19645
2451.44,0.19908
2445.65,0.20186
2439.86,0.20554
2434.08,0.20890
2428.29,0.21223
2422.5,0.21579
2416.72,0.21905
2410.93,0.22140
2405.15,0.22366
2399.36,0.22552
2393.57,0.22764
2387.79,0.23008
2382,0.23235
2376.21,0.23558
2370.43,0.23839
2364.64,0.24034
2358.86,0.24257
2353.07,0.24419
2347.28,0.24616
2341.5,0.24989
2335.71,0.25201
2329.92,0.25264
2324.14,0.25320
2318.35,0.25387
2312.57,0.25428
2306.78,0.25423
2300.99,0.25315
2295.21,0.25161
2289.42,0.25019
2283.63,0.24864
2277.85,0.24662
2272.06,0.24382
2266.28,0.23970
2260.49,0.23589
2254.7,0.23263
2248.92,0.23001
2243.13,0.22748
2237.34,0.22542
2231.56,0.22495
2225.77,0.22448
2219.99,0.22459
2214.2,0.22498
2208.41,0.22486
2202.63,0.22420
2196.84,0.22322
2191.05,0.22100
2185.27,0.21765
2179.48,0.21375
2173.7,0.20968
2167.91,0.20553
2162.12,0.20198
2156.34,0.19968
2150.55,0.19794
2144.76,0.19630
2138.98,0.19536
2133.19,0.19482
2127.41,0.19572
2121.62,0.19802
2115.83,0.20089
2110.05,0.20361
2104.26,0.20703
2098.47,0.20906
2092.69,0.21164
2086.9,0.21368
2081.12,0.21507
2075.33,0.21495
2069.54,0.21420
2063.76,0.21373
2057.97,0.21397
2052.19,0.21429
2046.4,0.21453
2040.61,0.21561
2034.83,0.21920
2029.04,0.22436
2023.25,0.22995
2017.47,0.23494
2011.68,0.24020
2005.9,0.24354
2000.11,0.24490
1994.32,0.24591
1988.54,0.24766
1982.75,0.25070
1976.96,0.25401
1971.18,0.25668
1965.39,0.25936
1959.61,0.26240
1953.82,0.26556
1948.03,0.26981
1942.25,0.27333
1936.46,0.27765
1930.67,0.28061
1924.89,0.28226
1919.1,0.28381
1913.32,0.28591
1907.53,0.28749
1901.74,0.28923
1895.96,0.28903
1890.17,0.28834
1884.38,0.28864
1878.6,0.28831
1872.81,0.28686
1867.03,0.28457
1861.24,0.28446
1855.45,0.28204
1849.67,0.27863
1843.88,0.27292
1838.09,0.27144
1832.31,0.26860
1826.52,0.26551
1820.74,0.26388
1814.95,0.26111
1809.16,0.25631
1803.38,0.25220
1797.59,0.24764
1791.8,0.24325
1786.02,0.24098
1780.23,0.23658
1774.45,0.23265
1768.66,0.22789
1762.87,0.22425
1757.09,0.21978
1751.3,0.21399
1745.51,0.20781
1739.73,0.20173
1733.94,0.19431
1728.16,0.18880
1722.37,0.18202
1716.58,0.17112
1710.8,0.16497
1705.01,0.15429
1699.22,0.14295
1693.44,0.13248
1687.65,0.12239
1681.87,0.10875
1676.08,0.10102
1670.29,0.09164
1664.51,0.08565
1658.72,0.08070
1652.93,0.07620
1647.15,0.07532
1641.36,0.07579
1635.58,0.07663
1629.79,0.08042
1624,0.08460
1618.22,0.09078
1612.43,0.09703
1606.64,0.10199
1600.86,0.10655
1595.07,0.10932
1589.29,0.11228
1583.5,0.11488
1577.71,0.11628
1571.93,0.11973
1566.14,0.12111
1560.35,0.12019
1554.57,0.12089
1548.78,0.12142
1543,0.11782
1537.21,0.11576
1531.42,0.11631
1525.64,0.11503
1519.85,0.11075
1514.07,0.10698
1508.28,0.10086
1502.49,0.09602
1496.71,0.08843
1490.92,0.07895
1485.13,0.06672
1479.35,0.05835
1473.56,0.05218
1467.78,0.04746
1461.99,0.04341
1456.2,0.03985
1450.42,0.03794
1444.63,0.03573
1438.84,0.03473
1433.06,0.03263
1427.27,0.03287
1421.49,0.03401
1415.7,0.03653
1409.91,0.03831
1404.13,0.03831
1398.34,0.03723
1392.55,0.03510
1386.77,0.03243
1380.98,0.02896
1375.2,0.02751
1369.41,0.02760
1363.62,0.02873
1357.84,0.03065
1352.05,0.03198
1346.26,0.03250
1340.48,0.03050
1334.69,0.03049
1328.91,0.03170
1323.12,0.03136
1317.33,0.03014
1311.55,0.03215
1305.76,0.03590
1299.97,0.03891
1294.19,0.03950
1288.4,0.03892
1282.62,0.03571
1276.83,0.03565
1271.04,0.03872
1265.26,0.03813
1259.47,0.03835
1253.68,0.03977
1247.9,0.03974
1242.11,0.03798
1236.33,0.03550
1230.54,0.03544
1224.75,0.03685
1218.97,0.03828
1213.18,0.03615
1207.39,0.02991
1201.61,0.02776
1195.82,0.02844
1190.04,0.02913
1184.25,0.02687
1178.46,0.02382
1172.68,0.02463
1166.89,0.02985
1161.1,0.03171
1155.32,0.02863
1149.53,0.02631
1143.75,0.02370
1137.96,0.02119
1132.17,0.02000
1126.39,0.02116
1120.6,0.02480
1114.81,0.02807
1109.03,0.02870
1103.24,0.02741
1097.46,0.02675
1091.67,0.02734
1085.88,0.03220
1080.1,0.03778
1074.31,0.04003
1068.52,0.04201
1062.74,0.04766
1056.95,0.04845
1051.17,0.04488
1045.38,0.04170
1039.59,0.04121
1033.81,0.04519
1028.02,0.04619
1022.24,0.04681
1016.45,0.04708
1010.66,0.04586
1004.88,0.04504
999.09,0.04663
993.304,0.05110
987.518,0.05364
981.731,0.06207
975.945,0.07030
970.159,0.07182
964.373,0.07415
958.586,0.08525
952.8,0.09780
947.014,0.10556
941.228,0.10813
935.441,0.10680
929.655,0.10605
923.869,0.10608
918.083,0.10309
912.297,0.09295
906.51,0.08067
900.724,0.06713
894.938,0.06338
889.152,0.07887
883.365,0.09561
877.579,0.10547
871.793,0.11147
866.007,0.11314
860.22,0.11102
854.434,0.10867
848.648,0.10548
842.862,0.10182
837.075,0.09910
831.289,0.09530
825.503,0.09098
819.717,0.08821
813.931,0.08455
808.144,0.08092
802.358,0.07826
796.572,0.07613
790.786,0.07236
784.999,0.06905
779.213,0.06602
773.427,0.06392
767.641,0.06101
761.854,0.05761
756.068,0.05458
750.282,0.05207
744.496,0.04847
738.709,0.04617
732.923,0.04390
727.137,0.04225
721.351,0.04042
715.565,0.03853
709.778,0.03759
703.992,0.03796
698.206,0.03809
692.42,0.03797
686.633,0.03761
680.847,0.03485
675.061,0.03344
669.275,0.03612
663.488,0.03685
657.702,0.03620
651.916,0.03589
646.13,0.03582
640.343,0.03669
634.557,0.03384
628.771,0.03340
622.985,0.03244
617.198,0.03597
611.412,0.03267
605.626,0.03655
599.84,0.03617