File: 01_Data/HIPS/Cone/HIPS_Cone_HF50Scan_220218_R2.csv
Names,Time,Stack TC,Smoke TC,Exh Press,Smoke Comp,Smoke Meas,CO Meter,CO2 Meter,O2 Meter,Sample Mass,Ext Coeff,Start Test,Flame Verif
Chan Gain,,500,500,1,1,1,1,1,1,1,1,1.0,1.0
Offset,,0,0,0.134285,0,0,0,0,0,0,0,0.0,0.0
Gain,,1,1,25.011,13.3843,12.7012,1,1,1,1.00088,1.02252,1.0,1.0
Units,sec,C,C,Pa,%,%,%,%,%,g,/m,,
Baseline,,31.4648,32.4345,149.192,100.266,95.0865,0.000262075,0.0471871,21.0104,-0.0793195,0.475841,,
3,0.5,28.7307,28.8226,149.812,101.06,95.9686,0.000138834,0.0545572,21.0001,897.676,0.463682,0.0,0.0
6,1.25,27.4913,28.1334,149.763,101.057,96.1593,0.000161367,0.0551164,20.9996,897.706,0.445586,0.0,0.0
9,2,27.9664,28.2211,145.431,101.077,96.5276,0.000173554,0.0556742,20.9993,897.676,0.413116,0.0,0.0
12,2.75,27.7196,28.1491,147.573,101.073,95.4109,0.000159397,0.056206,20.999,897.706,0.517125,0.0,0.0
15,3.5,27.9897,28.5502,148.331,101.069,96.1555,0.000136674,0.056647,20.9992,897.686,0.447035,0.0,0.0
18,4.25,27.8048,28.5837,147.204,101.084,95.6194,0.000118867,0.0568892,20.9996,897.716,0.498485,0.0,0.0
21,5,28.1367,28.5902,148.667,101.103,96.0973,0.000106664,0.0568989,20.9999,897.696,0.455468,0.0,0.0
24,5.75,27.8538,28.4144,150.331,101.097,96.6004,0.000100003,0.0567105,21.0005,897.696,0.408124,0.0,0.0
27,6.5,27.9824,28.5669,147.267,101.063,95.519,9.51475e-05,0.0563604,21.0012,897.716,0.506022,0.0,0.0
30,7.25,28.0805,28.4451,149.101,101.084,96.4524,9.34227e-05,0.0558674,21.0016,897.706,0.420723,0.0,0.0
33,8,27.7861,29.0169,148.924,101.118,96.8024,9.21654e-05,0.0553553,21.002,897.716,0.391241,0.0,0.0
36,8.75,28.5305,29.1434,148.845,101.107,95.6144,8.8764e-05,0.0549167,21.0023,897.726,0.501023,0.0,0.0
39,9.5,28.6416,28.6762,144.44,101.105,95.5973,8.06496e-05,0.0542592,21.0027,897.726,0.502442,0.0,0.0
42,10.25,28.0818,28.463,147.337,101.109,96.3962,5.58007e-05,0.0537799,21.0035,897.716,0.428161,0.0,0.0
45,11,28.2508,28.9633,146.058,101.117,96.4807,1.86894e-05,0.0532479,21.0042,897.726,0.420991,0.0,0.0
48,11.75,28.3622,28.9119,147.237,101.124,95.8907,-5.08664e-05,0.0525478,21.0051,897.716,0.476583,0.0,0.0
51,12.5,28.3301,28.8965,151.606,101.127,96.4923,-0.000130129,0.0518396,21.0066,897.726,0.420815,0.0,0.0
54,13.25,28.081,28.7846,148.852,101.137,95.8985,-0.000200085,0.0511709,21.0077,897.726,0.47709,0.0,0.0
57,14,28.7458,29.2216,148.488,101.136,95.8438,-0.00027219,0.0505891,21.0085,897.736,0.482095,0.0,0.0
60,14.75,28.5484,29.2517,147.105,101.144,95.8407,-0.000332446,0.0501151,21.009,897.736,0.483109,0.0,0.0
63,15.5,28.374,29.3347,148.767,101.139,95.6748,-0.000374138,0.0496707,21.0095,897.736,0.498142,0.0,0.0
66,16.25,28.2982,29.3177,152.282,101.141,96.3512,-0.000387149,0.0493248,21.0102,897.716,0.435172,0.0,0.0
69,17,28.4979,29.3653,148.787,101.137,95.5345,-0.000381399,0.0490353,21.0109,897.716,0.511161,0.0,0.0
72,17.75,28.8241,29.6912,149.978,101.164,96.1516,-0.000369079,0.0487549,21.0115,897.716,0.455767,0.0,0.0
75,18.5,28.5292,29.7155,149.867,101.15,96.0931,-0.00034439,0.0484918,21.0121,897.706,0.460032,0.0,0.0
78,19.25,28.7759,29.7242,149.4,101.149,95.202,-0.000298709,0.0482501,21.0126,897.716,0.543489,0.0,0.0
81,20,28.989,29.3579,147.299,101.153,96.138,-0.000248647,0.0480609,21.0129,897.706,0.456126,0.0,0.0
84,20.75,28.6558,29.4748,146.165,101.176,95.5233,-0.000200388,0.0479967,21.0131,897.696,0.515693,0.0,0.0
87,21.5,28.8604,29.7575,150.286,101.169,95.8535,-0.000145093,0.0479694,21.0127,897.696,0.484122,0.0,0.0
90,22.25,28.493,29.6448,147.445,101.155,94.6713,-9.59281e-05,0.0478663,21.0123,897.706,0.594167,0.0,0.0
93,23,28.7785,29.2317,149.573,101.158,96.2946,-6.38121e-05,0.0477485,21.0121,897.696,0.441963,0.0,0.0
96,23.75,29.0739,29.6173,149.755,101.168,95.1872,-4.72157e-05,0.0476501,21.0119,897.696,0.546616,0.0,0.0
99,24.5,28.8349,29.7441,147.349,101.162,95.0318,-4.40569e-05,0.0475857,21.0118,897.706,0.560696,0.0,0.0
102,25.25,28.6994,29.5756,150.337,101.149,95.1167,-5.23795e-05,0.0475512,21.0117,897.696,0.551565,0.0,0.0
105,26,29.2258,29.6155,145.872,101.151,95.2771,-6.58962e-05,0.0475458,21.0116,897.676,0.536553,0.0,0.0
108,26.75,29.1195,29.7275,145.354,101.16,95.3973,-7.89258e-05,0.0475141,21.0116,897.676,0.526044,0.0,0.0
111,27.5,28.6024,30.2429,150.166,101.158,95.2667,-8.71825e-05,0.0474865,21.0115,897.676,0.53819,0.0,0.0
114,28.25,28.9652,29.6922,148.888,101.147,95.1345,-8.09098e-05,0.0474789,21.0115,897.686,0.549702,0.0,0.0
117,29,29.0765,29.5868,146.231,101.142,94.2461,-5.62232e-05,0.0474733,21.0115,897.686,0.633385,0.0,0.0
120,29.75,28.9491,29.8671,149.633,101.151,94.5201,-9.57471e-07,0.047513,21.0115,897.686,0.608175,0.0,0.0
123,30.5,29.1293,29.8426,147.904,101.157,94.938,5.52197e-05,0.0476168,21.0115,897.676,0.569155,0.0,0.0
126,31.25,28.6719,30.1242,152.186,101.126,94.819,0.00012104,0.0478588,21.0113,897.656,0.577579,0.0,0.0
129,32,29.1136,30.3865,149.355,101.126,94.4453,0.000183552,0.0482301,21.0108,897.646,0.612994,0.0,0.0
132,32.75,29.1047,29.9579,149.187,101.117,94.0015,0.000235841,0.048713,21.0098,897.656,0.654518,0.0,0.0
135,33.5,29.352,30.2096,147.517,101.134,94.6298,0.000288156,0.0492768,21.0087,897.646,0.59625,0.0,0.0
138,34.25,28.9541,30.0167,149.097,101.114,94.238,0.000326294,0.0500499,21.0077,897.656,0.631696,0.0,0.0
141,35,29.4725,30.4307,150.617,101.102,95.3632,0.00044647,0.0513661,21.0051,897.616,0.524108,0.0,0.0
144,35.75,29.0787,30.3155,149.345,101.096,93.7259,0.000595188,0.0537309,21.0026,897.746,0.678933,0.0,0.0
147,36.5,29.4485,30.2279,151.206,101.09,94.3252,0.000808102,0.0560539,20.9969,897.586,0.621224,0.0,0.0
150,37.25,28.6616,30.2554,146.923,101.075,94.6213,0.00123439,0.0623963,20.9856,897.586,0.591841,0.0,1.0
153,38,29.3949,30.5788,142.493,101.061,94.5884,0.00199596,0.0690018,20.9744,897.566,0.593695,0.0,1.0
156,38.75,29.4123,30.509,140.781,101.054,86.6408,0.00269406,0.0864623,20.9417,897.546,1.38024,0.0,1.0
159,39.5,29.9576,30.723,146.159,101.054,78.834,0.00394556,0.110397,20.8965,897.516,2.22723,0.0,1.0
162,40.25,29.3097,31.0859,138.825,101.036,70.8543,0.00522852,0.132623,20.8545,897.436,3.18282,0.0,1.0
165,41,29.7605,31.2415,139.745,101.035,64.5692,0.00679755,0.175766,20.7772,897.366,4.01587,0.0,1.0
168,41.75,30.0234,31.8943,132.544,100.999,55.2382,0.0087836,0.226216,20.705,897.266,5.41272,0.0,1.0
171,42.5,30.6489,32.3261,129.837,101,52.5599,0.0108918,0.271094,20.6252,897.236,5.85856,0.0,0.0
174,43.25,31.0065,33.0067,129.188,100.985,55.9185,0.0129439,0.332167,20.5235,897.095,5.30167,0.0,0.0
177,44,31.2499,33.9709,119.302,100.967,51.04,0.0151873,0.386181,20.429,897.055,6.11885,0.0,0.0
180,44.75,32.0323,35.2264,127.301,100.948,52.099,0.0173005,0.441787,20.3405,896.945,5.93295,0.0,0.0
183,45.5,33.354,36.3231,121.082,100.954,50.1226,0.0192804,0.49552,20.2572,896.855,6.28038,0.0,0.0
186,46.25,34.3131,37.5065,124.196,100.929,46.6341,0.0211269,0.545126,20.175,896.685,6.92522,0.0,0.0
189,47,34.8845,38.7609,122.966,100.902,48.0779,0.0231104,0.594969,20.0987,896.645,6.6493,0.0,0.0
192,47.75,35.8942,40.2707,118.608,100.885,42.8793,0.0245564,0.640636,20.0361,896.565,7.67419,0.0,0.0
195,48.5,36.7509,41.2789,117.647,100.872,48.0442,0.0264056,0.686864,19.9781,896.395,6.65294,0.0,0.0
198,49.25,37.3849,42.6135,116.349,100.857,42.3785,0.0279387,0.728821,19.9305,896.315,7.77712,0.0,0.0
201,50,39.1533,44.5463,109.041,100.832,40.0823,0.0293727,0.762927,19.8807,896.205,8.27453,0.0,0.0
204,50.75,39.8678,46.042,112.844,100.806,44.16,0.0309503,0.801536,19.831,896.125,7.40321,0.0,0.0
207,51.5,40.8712,47.2494,114.767,100.8,43.7072,0.0323547,0.829682,19.7817,895.964,7.49513,0.0,0.0
210,52.25,42.1706,49.3883,113.887,100.785,43.8844,0.0336233,0.863407,19.7331,895.924,7.45747,0.0,0.0
213,53,43.0183,50.0321,121.773,100.777,40.9928,0.0347809,0.894328,19.6929,895.754,8.06816,0.0,0.0
216,53.75,44.0711,52.1945,121.01,100.737,40.6114,0.0356249,0.919571,19.6557,895.604,8.14844,0.0,0.0
219,54.5,45.4361,53.1035,110.577,100.712,37.6954,0.036785,0.946496,19.6217,895.434,8.81457,0.0,0.0
222,55.25,46.8182,54.7571,114.518,100.711,39.1133,0.0378225,0.973019,19.5941,895.374,8.48328,0.0,0.0
225,56,47.2708,56.7808,114.993,100.688,41.0254,0.0389066,0.995294,19.5581,895.224,8.0531,0.0,0.0
228,56.75,48.1597,58.2635,107.902,100.667,38.214,0.0401495,1.02167,19.526,895.084,8.68794,0.0,0.0
231,57.5,49.7407,59.4165,112.457,100.638,37.1233,0.0413887,1.04521,19.4857,894.964,8.94516,0.0,0.0
234,58.25,50.5352,61.2727,108.077,100.63,36.9283,0.0424342,1.0732,19.4443,894.723,8.99166,0.0,0.0
237,59,51.7794,62.4973,110.681,100.614,39.1269,0.0438411,1.09812,19.3996,894.653,8.4715,0.0,0.0
240,59.75,53.1734,64.4558,108.218,100.584,36.8109,0.0452041,1.124,19.3607,894.493,9.01616,0.0,0.0
243,60.5,54.4175,65.7999,109.905,100.572,34.0906,0.0463415,1.15172,19.3197,894.443,9.70366,0.0,0.0
246,61.25,55.3215,67.7565,116.042,100.569,36.7105,0.0477441,1.17712,19.2827,894.243,9.03927,0.0,0.0
249,62,56.6468,69.5284,102.819,100.55,35.1337,0.0487666,1.19786,19.2528,894.143,9.43133,0.0,0.0
252,62.75,58.3176,70.8629,108.772,100.538,33.5999,0.0502049,1.2209,19.2234,893.913,9.83068,0.0,0.0
255,63.5,59.1808,72.7397,107.264,100.498,34.9779,0.0516012,1.24079,19.1938,893.793,9.46657,0.0,0.0
258,64.25,59.9427,74.0816,107.973,100.495,37.8094,0.0529231,1.26055,19.1639,893.652,8.76813,0.0,0.0
261,65,61.2778,75.7753,104.817,100.493,32.829,0.0541532,1.28303,19.1238,893.452,10.0348,0.0,0.0
264,65.75,62.451,77.2747,110.398,100.479,32.9507,0.0554519,1.30285,19.0853,893.312,10.0004,0.0,0.0
267,66.5,63.6783,78.9562,100.032,100.45,33.61,0.0567209,1.32678,19.0492,893.132,9.82016,0.0,0.0
270,67.25,64.9429,80.501,103.552,100.461,33.8197,0.057973,1.35036,19.0162,892.992,9.76535,0.0,0.0
273,68,65.7224,82.4234,109.205,100.435,32.7604,0.05921,1.37083,18.9756,892.882,10.0485,0.0,0.0
276,68.75,67.5147,83.6243,103.33,100.435,30.4727,0.0603928,1.39552,18.9395,892.632,10.6977,0.0,0.0
279,69.5,68.8808,85.5406,102.009,100.412,29.2668,0.0617355,1.42063,18.9021,892.531,11.0578,0.0,0.0
282,70.25,69.2793,86.2542,106.315,100.403,30.4529,0.063378,1.45042,18.8687,892.321,10.7007,0.0,0.0
285,71,70.7182,88.7459,96.9991,100.411,25.588,0.0648595,1.47662,18.834,892.121,12.2626,0.0,0.0
288,71.75,72.144,90.3178,99.8652,100.386,29.9091,0.0664255,1.50335,18.7944,891.981,10.8608,0.0,0.0
291,72.5,73.0464,92.4385,94.781,100.372,29.2083,0.0682345,1.52903,18.7482,891.771,11.0722,0.0,0.0
294,73.25,74.4864,94.1701,92.5546,100.379,30.1932,0.0700205,1.55831,18.6993,891.561,10.7754,0.0,0.0
297,74,75.9314,95.6744,94.9871,100.408,27.5625,0.0717654,1.5915,18.65,891.37,11.5956,0.0,0.0
300,74.75,76.2087,97.0368,95.7939,100.442,26.0388,0.0734541,1.61973,18.599,891.24,12.1088,0.0,0.0
303,75.5,78.3578,99.8127,104.771,100.463,28.544,0.0752154,1.65118,18.5617,891.08,11.2867,0.0,0.0
306,76.25,79.8868,101.33,98.6035,100.497,26.5536,0.0767255,1.68094,18.5271,890.88,11.9381,0.0,0.0
309,77,80.8683,102.875,108.365,100.519,27.0044,0.0780954,1.71422,18.4891,890.67,11.7891,0.0,0.0
312,77.75,81.6286,104.659,99.8599,100.564,27.5842,0.0795541,1.74343,18.4493,890.5,11.6024,0.0,0.0
315,78.5,83.3256,106.363,86.3132,100.59,24.4035,0.0810646,1.77318,18.4057,890.289,12.7037,0.0,0.0
318,79.25,84.6965,108.325,95.0505,100.606,26.9265,0.0824973,1.79486,18.3637,890.019,11.8227,0.0,0.0
321,80,86.0614,109.691,89.4885,100.643,25.0256,0.0836831,1.83152,18.3155,889.829,12.4826,0.0,0.0
324,80.75,87.6036,112.184,97.7441,100.656,23.7461,0.0847722,1.86473,18.278,889.679,12.9545,0.0,0.0
327,81.5,88.9281,113.728,91.5653,100.69,26.2404,0.086366,1.89538,18.2347,889.429,12.0617,0.0,0.0
330,82.25,89.927,115.918,90.7158,100.687,23.9202,0.0881018,1.924,18.1877,889.279,12.8918,0.0,0.0
333,83,91.4904,117.864,91.9958,100.738,25.2861,0.0898182,1.95823,18.1443,889.048,12.3982,0.0,0.0
336,83.75,92.9635,119.365,97.6364,100.746,25.94,0.0918409,1.97573,18.0972,888.778,12.1699,0.0,0.0
339,84.5,94.4503,121.27,89.935,100.759,21.3123,0.0942143,2.01478,18.0446,888.588,13.9336,0.0,0.0
342,85.25,95.3213,123.029,90.425,100.79,22.4895,0.09671,2.04774,17.9946,888.408,13.4541,0.0,0.0
345,86,96.6626,124.979,82.8365,100.796,23.9849,0.0991761,2.07945,17.9513,888.158,12.8772,0.0,0.0
348,86.75,98.1152,127.319,90.7479,100.817,22.6221,0.101522,2.10902,17.9008,887.937,13.4038,0.0,0.0
351,87.5,99.4589,128.705,99.9896,100.838,21.6856,0.104029,2.13726,17.8524,887.747,13.7849,0.0,0.0
354,88.25,100.595,130.602,89.9587,100.863,23.0035,0.106406,2.16456,17.8071,887.407,13.258,0.0,0.0
357,89,102.898,133.228,93.0499,100.87,24.1663,0.108373,2.1937,17.7653,887.337,12.8162,0.0,0.0
360,89.75,103.697,134.37,108.84,100.882,20.4394,0.110373,2.22174,17.7242,887.107,14.3197,0.0,0.0
363,90.5,104.985,135.918,90.1098,100.899,20.1433,0.112298,2.24931,17.6897,886.806,14.4521,0.0,0.0
366,91.25,106.587,138.277,94.6039,100.916,20.534,0.114084,2.27665,17.648,886.516,14.2813,0.0,0.0
369,92,107.999,139.997,83.1609,100.907,21.2732,0.115992,2.30309,17.6147,886.336,13.9632,0.0,0.0
372,92.75,109.501,142.592,90.999,100.923,23.4434,0.117647,2.32514,17.5852,886.126,13.0934,0.0,0.0
375,93.5,110.615,144.157,87.336,100.93,18.5812,0.119303,2.34813,17.5497,885.916,15.1788,0.0,0.0
378,94.25,112.099,145.934,90.151,100.944,20.7069,0.121119,2.36985,17.5075,885.625,14.2086,0.0,0.0
381,95,113.657,147.893,85.5538,100.947,20.8666,0.122876,2.39418,17.4697,885.465,14.1399,0.0,0.0
384,95.75,114.952,149.436,86.0041,100.973,20.553,0.124342,2.42704,17.4238,885.155,14.278,0.0,0.0
387,96.5,115.666,151.234,84.889,100.971,21.5453,0.126089,2.45403,17.3859,884.935,13.855,0.0,0.0
390,97.25,117.327,153.225,85.8843,100.97,19.8902,0.127878,2.48157,17.3507,884.705,14.5718,0.0,0.0
393,98,118.934,154.683,84.2486,100.975,16.8447,0.129572,2.50622,17.3149,884.394,16.0629,0.0,0.0
396,98.75,120.111,156.757,90.9944,100.987,18.5084,0.131248,2.52914,17.2889,884.164,15.2191,0.0,0.0
399,99.5,121.238,158.858,99.1393,100.981,19.458,0.132658,2.55431,17.2579,883.984,14.7698,0.0,0.0
402,100.25,122.685,160.373,89.9304,100.985,20.0514,0.134463,2.58609,17.2188,883.654,14.5007,0.0,0.0
405,101,123.926,162.101,82.1221,100.983,19.2115,0.136913,2.62106,17.171,883.333,14.8843,0.0,0.0
408,101.75,125.1,164.192,82.09,100.982,19.3762,0.138286,2.65693,17.1196,883.093,14.8077,0.0,0.0
411,102.5,126.509,166.068,79.3194,100.98,19.1417,0.140225,2.69058,17.0752,882.843,14.9167,0.0,0.0
414,103.25,127.932,167.816,81.5275,100.978,18.934,0.142239,2.72794,17.0278,882.603,15.0144,0.0,0.0
417,104,128.488,169.647,92.018,100.972,18.2839,0.143708,2.7719,16.9867,882.363,15.3272,0.0,0.0
420,104.75,130.372,171.659,84.4783,100.969,17.7754,0.145851,2.78924,16.9466,882.152,15.58,0.0,0.0
423,105.5,131.822,174.104,74.7145,100.965,19.5944,0.147753,2.8155,16.913,881.952,14.7057,0.0,0.0
426,106.25,133.274,175.959,85.7935,100.954,18.101,0.149393,2.83464,16.8885,881.702,15.4159,0.0,0.0
429,107,134.959,177.49,83.8631,100.946,16.0548,0.150775,2.84987,16.8707,881.312,16.4911,0.0,0.0
432,107.75,136.351,179.636,83.9906,100.939,18.4285,0.152118,2.85705,16.8505,880.941,15.2537,0.0,0.0
435,108.5,137.208,181.276,89.5877,100.94,16.7246,0.153558,2.8556,16.8324,880.701,16.1239,0.0,0.0
438,109.25,138.552,183.17,94.3162,100.927,18.2909,0.155171,2.84843,16.8183,880.361,15.3198,0.0,0.0
441,110,139.849,183.905,83.4227,100.905,17.6021,0.156976,2.84864,16.8081,880.221,15.6622,0.0,0.0
444,110.75,139.868,184.657,83.8425,100.905,15.6668,0.1595,2.85925,16.7866,879.85,16.7069,0.0,0.0
447,111.5,141.305,186.096,87.6772,100.89,15.3145,0.161857,2.88089,16.747,879.69,16.9095,0.0,0.0
450,112.25,142.606,187.994,81.9687,100.882,17.1614,0.164871,2.92331,16.6924,879.29,15.8876,0.0,0.0
453,113,143.689,190.02,77.0303,100.863,17.33,0.167523,2.96351,16.632,879,15.7982,0.0,0.0
456,113.75,144.752,191.553,79.5407,100.858,15.8335,0.170537,3.00869,16.5716,878.749,16.6078,0.0,0.0
459,114.5,145.749,193.404,80.3116,100.835,16.3401,0.173251,3.0594,16.5137,878.559,16.3233,0.0,0.0
462,115.25,147.623,195.351,74.9275,100.831,14.7792,0.175842,3.09756,16.4714,878.269,17.2235,0.0,0.0
465,116,148.849,197.442,72.7995,100.813,14.9044,0.178012,3.12739,16.4406,877.969,17.1462,0.0,0.0
468,116.75,150.115,199.223,91.1692,100.781,14.8869,0.179713,3.1437,16.4182,877.628,17.1538,0.0,0.0
471,117.5,151.441,201.143,74.1146,100.767,14.0652,0.181097,3.15095,16.4042,877.498,17.6619,0.0,0.0
474,118.25,152.161,202.34,85.0073,100.759,15.9094,0.182136,3.15227,16.3979,877.108,16.556,0.0,0.0
477,119,153.208,203.701,87.2712,100.746,13.8063,0.18284,3.14642,16.4054,876.878,17.8267,0.0,0.0
480,119.75,154.507,205.398,70.3181,100.711,14.385,0.182923,3.13882,16.4117,876.598,17.4553,0.0,0.0
483,120.5,155.348,206.823,79.2102,100.703,16.5734,0.18254,3.13186,16.42,876.297,16.1843,0.0,0.0
486,121.25,156.585,208.135,80.0781,100.669,14.8861,0.181796,3.12224,16.4316,876.017,17.1443,0.0,0.0
489,122,157.095,208.993,85.4065,100.654,14.6772,0.180785,3.10699,16.4476,875.747,17.2698,0.0,0.0
492,122.75,158.138,210.478,79.1598,100.63,15.1664,0.180048,3.09236,16.472,875.406,16.9736,0.0,0.0
495,123.5,159.07,211.433,87.4902,100.611,18.3824,0.178236,3.07563,16.491,875.206,15.2469,0.0,0.0
498,124.25,159.99,212.371,89.132,100.575,19.2072,0.176915,3.06515,16.5071,874.936,14.85,0.0,0.0
501,125,160.63,213.368,80.4406,100.562,17.4967,0.17494,3.05823,16.5202,874.756,15.6855,0.0,0.0
504,125.75,161.371,214.255,79.4415,100.535,16.6955,0.173228,3.0568,16.5304,874.356,16.1035,0.0,0.0
507,126.5,162.48,215.917,88.8099,100.504,16.9525,0.171513,3.05729,16.5398,874.175,15.9638,0.0,0.0
510,127.25,163.128,216.394,78.724,100.49,17.5603,0.169253,3.05406,16.5479,873.765,15.6466,0.0,0.0
513,128,163.984,217.77,77.4173,100.462,17.2661,0.166893,3.05018,16.5636,873.615,15.7956,0.0,0.0
516,128.75,164.871,218.612,82.2862,100.46,15.835,0.164477,3.03294,16.5905,873.385,16.5715,0.0,0.0
519,129.5,164.97,219.04,86.8949,100.408,16.3486,0.162047,3.00803,16.6387,873.084,16.2805,0.0,0.0
522,130.25,166.155,220.114,82.1908,100.401,16.635,0.159292,2.97906,16.6863,872.764,16.1241,0.0,0.0
525,131,166.816,220.738,88.3649,100.365,17.7118,0.157283,2.94844,16.7263,872.604,15.5583,0.0,0.0
528,131.75,167.148,221.053,77.4249,100.311,17.4149,0.154405,2.91613,16.7638,872.354,15.7051,0.0,0.0
531,132.5,167.748,221.465,84.9241,100.296,18.6665,0.151495,2.88914,16.8004,872.094,15.0813,0.0,0.0
534,133.25,167.825,221.565,86.5491,100.278,19.1475,0.149028,2.86357,16.8367,871.843,14.8514,0.0,0.0
537,134,168.653,222.41,83.6723,100.248,19.0936,0.145635,2.83121,16.8751,871.633,14.874,0.0,0.0
540,134.75,169.539,223.328,82.4961,100.211,18.0808,0.141953,2.79764,16.9264,871.423,15.3596,0.0,0.0
543,135.5,169.158,222.814,82.4007,100.161,19.8193,0.138754,2.75608,16.9949,871.253,14.5317,0.0,0.0
546,136.25,169.442,222.899,96.777,100.16,19.8057,0.134585,2.69277,17.0852,870.993,14.5377,0.0,0.0
549,137,170.353,223.661,98.457,100.147,22.26,0.13038,2.64661,17.1879,870.812,13.4887,0.0,0.0
552,137.75,170.247,223.228,92.2973,100.167,20.4003,0.126818,2.56724,17.2963,870.582,14.2731,0.0,0.0
555,138.5,170.206,222.872,102.431,100.145,20.4073,0.122645,2.48678,17.3936,870.392,14.268,0.0,0.0
558,139.25,168.948,221.194,93.4491,100.162,22.8643,0.118263,2.4085,17.4957,870.132,13.2498,0.0,0.0
561,140,170.165,222.064,92.3553,100.172,24.6097,0.113925,2.33432,17.6094,870.022,12.5909,0.0,0.0
564,140.75,167.984,219.379,99.1073,100.169,24.7186,0.109005,2.25764,17.7207,869.822,12.551,0.0,0.0
567,141.5,169.677,220.767,97.6265,100.171,26.5648,0.104225,2.1921,17.814,869.611,11.9051,0.0,0.0
570,142.25,169.307,219.829,97.6945,100.176,28.385,0.100232,2.11055,17.9377,869.481,11.3111,0.0,0.0
573,143,168.993,219.759,96.0633,100.179,27.9529,0.095385,2.0323,18.0582,869.281,11.449,0.0,0.0
576,143.75,168.559,218.104,100.474,100.186,31.0882,0.0911518,1.96725,18.1588,869.111,10.4961,0.0,0.0
579,144.5,169.666,218.57,97.638,100.192,30.665,0.0868698,1.8902,18.274,868.961,10.6196,0.0,0.0
582,145.25,168.254,216.791,107.551,100.191,33.0941,0.0837482,1.81395,18.358,868.781,9.93571,0.0,0.0
585,146,167.614,215.439,101.984,100.197,34.5965,0.0792094,1.7498,18.4192,868.691,9.53805,0.0,0.0
588,146.75,166.708,213.929,101.105,100.215,33.9496,0.0759006,1.67578,18.5075,868.55,9.70893,0.0,0.0
591,147.5,166.164,212.653,106.037,100.215,33.4286,0.0714617,1.62182,18.5991,868.48,9.84763,0.0,0.0
594,148.25,165.483,211.355,110.483,100.217,34.4213,0.0673802,1.54448,18.6943,868.33,9.58534,0.0,0.0
597,149,164.582,209.819,106.015,100.225,32.4697,0.0636455,1.48809,18.7925,868.27,10.1096,0.0,0.0
600,149.75,163.536,208.045,109.308,100.24,37.7357,0.060241,1.41152,18.9331,868.14,8.76287,0.0,0.0
603,150.5,162.904,206.755,110.412,100.237,36.0392,0.0567129,1.33136,19.0733,867.96,9.17515,0.0,0.0
606,151.25,162.024,205.053,115.187,100.238,33.998,0.0534083,1.25716,19.2196,867.9,9.69826,0.0,0.0
609,152,161.161,203.031,114.808,100.254,40.1234,0.0506868,1.17763,19.3382,867.82,8.21374,0.0,0.0
612,152.75,160.091,201.611,115.351,100.264,42.2107,0.0473423,1.10241,19.4513,867.72,7.75978,0.0,0.0
615,153.5,158.355,199.004,118.217,100.267,45.7461,0.0442748,1.03168,19.5574,867.66,7.03867,0.0,0.0
618,154.25,157.969,197.731,120.103,100.258,47.4903,0.0417703,0.965499,19.656,867.54,6.70223,0.0,0.0
621,155,156.623,195.579,126.123,100.285,49.3047,0.0387686,0.898772,19.7528,867.51,6.3683,0.0,0.0
624,155.75,155.227,193.048,124.475,100.283,55.1491,0.0362255,0.831838,19.8339,867.49,5.36336,0.0,0.0
627,156.5,153.531,190.794,122.765,100.283,55.8363,0.0337646,0.765239,19.9431,867.449,5.25227,0.0,0.0
630,157.25,152.347,188.73,130.579,100.284,58.5062,0.0312413,0.698987,20.0497,867.419,4.83344,0.0,0.0
633,158,151.227,186.525,131.034,100.304,68.6522,0.0289916,0.643143,20.1552,867.389,3.40078,0.0,0.0
636,158.75,149.113,183.419,135.132,100.307,73.0063,0.0271766,0.574986,20.2596,867.349,2.84952,0.0,0.0
639,159.5,147.839,181.541,132.045,100.315,77.9475,0.0254894,0.508273,20.3479,867.359,2.2628,0.0,0.0
642,160.25,146.274,178.989,132.785,100.307,84.4586,0.0240454,0.446573,20.433,867.339,1.54249,0.0,0.0
645,161,144.122,176.021,137.199,100.318,87.8482,0.0228918,0.391665,20.5173,867.319,1.19061,0.0,0.0
648,161.75,143.032,174.153,134.958,100.325,87.2606,0.0220723,0.341664,20.5902,867.299,1.25135,0.0,0.0
651,162.5,140.961,171.155,138.818,100.332,88.4068,0.0215595,0.300962,20.654,867.299,1.135,0.0,0.0
654,163.25,139.626,168.869,136.754,100.324,90.2654,0.0212219,0.264142,20.71,867.299,0.947657,0.0,0.0
657,164,138.191,166.668,139.356,100.334,89.1925,0.0211358,0.232112,20.7566,867.299,1.05582,0.0,0.0
660,164.75,136.629,164.355,137.07,100.336,89.7502,0.0211294,0.205103,20.7931,867.299,1.00009,0.0,0.0
663,165.5,134.58,161.706,141.593,100.346,89.925,0.0211487,0.181243,20.8247,867.289,0.983509,0.0,0.0
666,166.25,133.182,159.144,139.962,100.353,90.2355,0.0211324,0.161784,20.8478,867.299,0.953179,0.0,0.0
669,167,131.893,156.494,138.801,100.363,90.6247,0.0210687,0.145995,20.8684,867.299,0.915529,0.0,0.0
672,167.75,129.98,154.746,140.855,100.376,89.5979,0.0209226,0.133247,20.8856,867.309,1.01883,0.0,0.0
675,168.5,128.189,152.381,137.695,100.369,90.1514,0.0207367,0.12321,20.8992,867.299,0.963005,0.0,0.0
678,169.25,127.177,150.642,142.638,100.363,90.1188,0.0205674,0.114621,20.9099,867.299,0.96566,0.0,0.0
681,170,126.306,148.728,137.96,100.38,90.1874,0.0203765,0.107915,20.9194,867.289,0.960404,0.0,0.0
684,170.75,125.192,146.614,138.435,100.384,90.6456,0.0200048,0.102036,20.9254,867.279,0.915282,0.0,0.0
687,171.5,123.88,144.9,142.083,100.392,90.2867,0.0198044,0.0973571,20.9312,867.299,0.951599,0.0,0.0
690,172.25,122.344,142.945,136.847,100.385,90.2743,0.0194161,0.0939464,20.9368,867.289,0.952247,0.0,0.0
693,173,121.292,141.066,144.154,100.39,90.4999,0.019133,0.0906582,20.9413,867.289,0.930298,0.0,0.0
696,173.75,119.62,139.501,140.963,100.395,90.525,0.0186892,0.0879101,20.9458,867.279,0.92824,0.0,0.0
699,174.5,118.618,137.591,139.717,100.396,90.2142,0.0182552,0.0855798,20.9493,867.259,0.959131,0.0,0.0
702,175.25,117.837,136.145,143.437,100.403,90.4064,0.0178916,0.0835781,20.9523,867.249,0.940729,0.0,0.0
705,176,116.368,133.71,140.319,100.395,90.0615,0.017429,0.081659,20.9558,867.249,0.974254,0.0,0.0
708,176.75,114.634,132.034,143.199,100.408,89.7836,0.0169577,0.0800977,20.9585,867.239,1.00314,0.0,0.0
711,177.5,114.242,131.285,147.814,100.421,90.8584,0.016491,0.0786821,20.9609,867.249,0.897607,0.0,0.0
714,178.25,112.859,129.747,141.138,100.417,90.2336,0.0160377,0.0773507,20.9633,867.239,0.959102,0.0,0.0
717,179,111.204,127.426,143.596,100.417,90.5673,0.0155229,0.0762474,20.9654,867.239,0.926025,0.0,0.0
720,179.75,110.616,126.117,140.93,100.425,90.7316,0.0151477,0.0752165,20.9672,867.239,0.910421,0.0,0.0
723,180.5,110.084,125.1,135.646,100.435,90.8006,0.0145658,0.0741992,20.969,867.239,0.904551,0.0,0.0
726,181.25,108.683,123.586,134.717,100.423,90.3754,0.0139752,0.0732487,20.9707,867.239,0.945594,0.0,0.0
729,182,107.733,121.806,142.206,100.421,90.8634,0.0133894,0.0723922,20.9723,867.239,0.897036,0.0,0.0
732,182.75,106.837,120.271,141.81,100.42,90.0479,0.0128179,0.0714489,20.9741,867.229,0.977868,0.0,0.0
735,183.5,106.025,119.38,137.086,100.436,90.6933,0.0121846,0.0706436,20.9759,867.249,0.915236,0.0,0.0
738,184.25,104.941,117.713,143.704,100.44,90.9824,0.0116542,0.0698555,20.9774,867.229,0.887012,0.0,0.0
741,185,103.86,116.928,137.914,100.437,90.327,0.01115,0.0691134,20.9785,867.239,0.951645,0.0,0.0
744,185.75,103.291,115.471,141.485,100.429,89.932,0.0105822,0.0683835,20.9792,867.229,0.990186,0.0,0.0
747,186.5,102.352,113.924,139.169,100.444,90.0219,0.0101682,0.0676504,20.9803,867.239,0.982571,0.0,0.0
750,187.25,101.37,112.904,143.478,100.439,91.1165,0.00963975,0.0668773,20.9818,867.239,0.873764,0.0,0.0
753,188,100.346,111.517,144.018,100.433,90.8743,0.00908874,0.0661463,20.983,867.239,0.89706,0.0,0.0
756,188.75,100.273,110.701,143.362,100.436,91.0596,0.00856872,0.0655421,20.9843,867.239,0.879083,0.0,0.0
759,189.5,98.9233,109.544,139.682,100.461,90.3328,0.00808425,0.0649065,20.986,867.229,0.95322,0.0,0.0
762,190.25,98.2025,107.972,141.076,100.444,90.3278,0.00764565,0.0643599,20.9873,867.249,0.952187,0.0,0.0
765,191,96.7943,106.704,137.257,100.435,90.9313,0.00725667,0.0637031,20.9882,867.229,0.891656,0.0,0.0
768,191.75,96.6588,105.923,141.896,100.437,91.4452,0.00691118,0.0630571,20.9893,867.219,0.84121,0.0,0.0
771,192.5,95.4645,104.547,141.763,100.45,91.1115,0.00655342,0.0624417,20.9893,867.239,0.875208,0.0,0.0
774,193.25,94.7033,103.662,141.908,100.443,90.7774,0.00617072,0.0618677,20.9889,867.219,0.907505,0.0,0.0
777,194,93.6364,102.836,141.506,100.443,90.8603,0.00589172,0.0613101,20.9899,867.219,0.89935,0.0,0.0
780,194.75,93.3789,101.992,138.782,100.441,91.139,0.00550146,0.0608442,20.9906,867.209,0.871698,0.0,0.0
783,195.5,92.7562,100.863,141.912,100.449,90.6487,0.00513577,0.0603515,20.9911,867.199,0.920776,0.0,0.0
786,196.25,91.7763,99.8542,141.359,100.464,91.3317,0.0049246,0.0599271,20.9916,867.199,0.854765,0.0,0.0
789,197,91.0009,98.7011,140.277,100.447,91.0964,0.0045597,0.0594788,20.9924,867.199,0.876442,0.0,0.0
792,197.75,90.3498,97.5036,141.364,100.445,90.9018,0.0042343,0.0590934,20.9937,867.199,0.895438,0.0,0.0
795,198.5,90.4389,97.2092,139.579,100.446,91.0464,0.00397178,0.0587123,20.9945,867.209,0.881293,0.0,0.0
798,199.25,88.8747,95.6322,143.222,100.465,90.1615,0.00370123,0.0584062,20.995,867.199,0.970539,0.0,0.0
801,200,88.2984,95.3993,143.444,100.453,90.4095,0.00348676,0.0579937,20.9953,867.209,0.944873,0.0,0.0
804,200.75,87.5715,94.09,143.471,100.441,91.0572,0.00330093,0.0575921,20.9958,867.219,0.879787,0.0,0.0
807,201.5,87.4635,93.4649,141.291,100.443,90.6789,0.00314624,0.0571603,20.9965,867.199,0.917274,0.0,0.0
810,202.25,86.3763,92.2282,146.63,100.455,90.7995,0.00300062,0.056735,20.9971,867.199,0.906416,0.0,0.0
813,203,85.7123,91.5835,143.141,100.467,90.8026,0.0028532,0.0563375,20.9975,867.199,0.907204,0.0,0.0
816,203.75,85.117,90.9048,141.881,100.444,91.7755,0.0027118,0.0559366,20.9978,867.199,0.80957,0.0,0.0
819,204.5,84.553,89.8369,140.916,100.457,91.9898,0.00257312,0.0555969,20.998,867.179,0.78974,0.0,0.0
822,205.25,84.2446,89.2108,142.186,100.455,90.3669,0.00243585,0.0553294,20.9986,867.199,0.949287,0.0,0.0
825,206,83.2835,88.3406,142.409,100.466,91.1514,0.00227855,0.0550789,20.9992,867.189,0.872738,0.0,0.0
828,206.75,82.6842,87.6699,139.757,100.462,91.4735,0.0021288,0.0547995,20.9997,867.189,0.840733,0.0,0.0
831,207.5,81.9838,86.3359,140.39,100.452,90.0436,0.00200467,0.0544708,21,867.189,0.981138,0.0,0.0
834,208.25,81.9794,86.5983,142.192,100.473,90.7944,0.0018566,0.0541123,21.0002,867.199,0.908519,0.0,0.0
837,209,81.5886,85.7446,140.361,100.471,91.0196,0.00172411,0.0538232,21.0006,867.189,0.886153,0.0,0.0
840,209.75,80.1949,84.5478,143.257,100.456,90.275,0.00157582,0.0536007,21.0009,867.169,0.958445,0.0,0.0
843,210.5,80.169,84.2458,139.817,100.476,91.3038,0.00145773,0.0533604,21.0011,867.199,0.8586,0.0,0.0
846,211.25,79.8182,83.4664,142.563,100.476,90.4111,0.00136607,0.0531852,21.0026,867.199,0.946725,0.0,0.0
849,212,79.2047,82.6453,145.743,100.471,91.729,0.001297,0.0529981,21.0036,867.179,0.816524,0.0,0.0
852,212.75,78.7889,82.5228,142.135,100.472,92.0007,0.00123419,0.0528325,21.0044,867.179,0.79003,0.0,0.0
855,213.5,78.4142,81.4596,135.8,100.458,91.5189,0.00117591,0.0526545,21.0049,867.189,0.835886,0.0,0.0
858,214.25,77.6913,80.8949,145.319,100.477,91.4917,0.0011281,0.0525123,21.0053,867.189,0.840224,0.0,0.0
861,215,76.662,80.0503,141.112,100.478,90.8673,0.00109326,0.0524085,21.0056,867.199,0.901797,0.0,0.0
864,215.75,76.1998,79.4632,142.287,100.479,91.5991,0.00105005,0.052311,21.0059,867.189,0.82996,0.0,0.0
867,216.5,76.2364,79.4498,142.977,100.467,90.4758,0.00101981,0.0522025,21.0061,867.169,0.939539,0.0,0.0
870,217.25,75.9302,78.3265,140.572,100.472,91.3522,0.000993692,0.0520639,21.0063,867.189,0.853549,0.0,0.0
873,218,75.8272,78.1825,142.795,100.486,91.879,0.000966795,0.0519629,21.0064,867.179,0.803181,0.0,0.0
876,218.75,74.7522,77.3302,139.456,100.478,91.5073,0.000918537,0.0518616,21.0065,867.169,0.838812,0.0,0.0
879,219.5,74.8887,77.0942,143.273,100.475,90.9758,0.000858684,0.0517612,21.0064,867.179,0.890835,0.0,0.0
882,220.25,73.9994,76.3207,142.627,100.467,91.1844,0.000793745,0.0516631,21.0063,867.189,0.869569,0.0,0.0
885,221,73.5779,76.1558,145.827,100.484,91.1247,0.000740177,0.0515638,21.0062,867.179,0.876974,0.0,0.0
888,221.75,73.3683,75.1177,141.186,100.476,91.2929,0.000698471,0.0514796,21.0061,867.179,0.859666,0.0,0.0
891,222.5,73.1835,75.2452,143.777,100.472,91.2979,0.000675174,0.0513577,21.0065,867.179,0.858806,0.0,0.0
894,223.25,72.6744,74.368,142.661,100.474,91.6883,0.000661468,0.051144,21.007,867.189,0.820723,0.0,0.0
897,224,71.716,74.2103,139.32,100.493,91.7631,0.000657081,0.0509349,21.0073,867.179,0.815158,0.0,0.0
900,224.75,72.0295,73.4343,144.418,100.473,91.7704,0.000662768,0.0507232,21.0076,867.169,0.812615,0.0,0.0
903,225.5,71.3623,72.9153,145.24,100.466,91.5607,0.000678128,0.0505688,21.0078,867.169,0.832514,0.0,0.0
906,226.25,70.7718,72.7515,138.521,100.459,91.4685,0.000696731,0.0504959,21.0079,867.179,0.840973,0.0,0.0
909,227,70.8238,72.2933,135.4,100.495,91.1324,0.000715436,0.0503872,21.008,867.179,0.877159,0.0,0.0
912,227.75,70.4394,71.2093,143.333,100.478,91.47,0.000730194,0.0502551,21.0081,867.169,0.842461,0.0,0.0
915,228.5,69.9496,71.5467,140.042,100.472,91.1669,0.000740953,0.0501089,21.0081,867.179,0.871686,0.0,0.0
918,229.25,69.9331,70.7969,143.846,100.468,91.2084,0.000736352,0.0499628,21.0082,867.149,0.867315,0.0,0.0
921,230,69.0866,69.71,141.635,100.464,90.7223,0.000736263,0.0498424,21.0082,867.139,0.914806,0.0,0.0
924,230.75,68.936,69.7369,143.374,100.481,91.6247,0.000741781,0.049756,21.0084,867.159,0.827564,0.0,0.0
927,231.5,68.4314,69.335,144.513,100.463,90.9483,0.000760029,0.0497055,21.0086,867.159,0.892455,0.0,0.0
930,232.25,68.3558,68.9851,141.677,100.444,91.6398,0.000778667,0.0496687,21.0088,867.159,0.822802,0.0,0.0
933,233,67.9385,68.6382,141.101,100.457,90.9084,0.000784773,0.049564,21.0091,867.179,0.895846,0.0,0.0
936,233.75,67.839,68.3217,140.442,100.448,91.7224,0.000776195,0.0494876,21.0097,867.179,0.815053,0.0,0.0
939,234.5,67.3301,67.8407,142.006,100.446,91.6336,0.000753117,0.0494246,21.0102,867.169,0.823554,0.0,0.0
942,235.25,66.999,67.7473,144.26,100.424,91.2724,0.000736293,0.0493662,21.0105,867.169,0.857089,0.0,0.0
945,236,67.1139,67.2386,142.722,100.43,92.0747,0.000684943,0.0492643,21.0108,867.179,0.779132,0.0,0.0
948,236.75,66.6985,67.0815,139.576,100.432,91.2227,0.000640026,0.0491346,21.0109,867.169,0.862695,0.0,0.0
951,237.5,66.3681,66.7335,141.607,100.44,91.2305,0.000588132,0.0490164,21.0111,867.179,0.862626,0.0,0.0
954,238.25,66.0593,66.3455,139.785,100.403,92.0662,0.000529353,0.0488906,21.011,867.189,0.777519,0.0,0.0
957,239,65.8021,65.6054,143.912,100.41,91.5654,0.000450681,0.0488063,21.0107,867.169,0.827098,0.0,0.0
960,239.75,65.634,65.4447,138.183,100.414,91.3092,0.000350792,0.0487719,21.0104,867.179,0.852559,0.0,0.0
963,240.5,64.9185,64.9464,139.207,100.405,91.3886,0.000275342,0.0487322,21.0103,867.179,0.84399,0.0,0.0
966,241.25,64.7542,64.8614,145.064,100.388,91.8871,0.00021584,0.0486835,21.0104,867.169,0.793632,0.0,0.0
969,242,64.6192,64.1288,141.029,100.384,92.279,0.00020436,0.0486203,21.0104,867.179,0.755096,0.0,0.0
972,242.75,63.9601,63.9234,145.034,100.394,91.8739,0.000195991,0.0485623,21.0105,867.199,0.795466,0.0,0.0
975,243.5,63.6832,64.4188,141.594,100.376,92.1611,0.000246643,0.0484817,21.0105,867.169,0.765827,0.0,0.0
978,244.25,64.0705,63.5287,143.363,100.352,91.1623,0.000297255,0.0484368,21.0106,867.179,0.86149,0.0,0.0
981,245,63.5682,63.3156,140.854,100.35,91.2925,0.000338676,0.04841,21.0106,867.179,0.84843,0.0,0.0
984,245.75,63.549,63.2112,143.329,100.363,91.9588,0.000366633,0.0483509,21.0106,867.169,0.784445,0.0,0.0
987,246.5,63.1145,62.5667,141.797,100.336,91.9953,0.000376364,0.0483006,21.0106,867.179,0.778409,0.0,0.0
990,247.25,63.245,62.4679,140.626,100.321,92.315,0.000371017,0.0482514,21.0111,867.169,0.74597,0.0,0.0
993,248,62.681,62.2653,140.592,100.319,92.4654,0.000349381,0.0482353,21.0116,867.189,0.731223,0.0,0.0
996,248.75,61.8785,61.9064,144.095,100.311,92.0065,0.000328307,0.0481681,21.012,867.189,0.775086,0.0,0.0
999,249.5,62.3719,61.9415,143.383,100.303,92.1542,0.000298026,0.0480809,21.0122,867.199,0.760005,0.0,0.0
1002,250.25,62.2143,61.6634,141.859,100.276,91.5902,0.000269592,0.0479924,21.0124,867.179,0.812619,0.0,0.0
1005,251,62.0602,61.421,143.73,100.256,92.9933,0.000261323,0.0479081,21.0126,867.179,0.674533,0.0,0.0
1008,251.75,61.5255,61.1111,147.806,100.257,92.0449,0.000273699,0.0478248,21.0127,867.189,0.766523,0.0,0.0
1011,252.5,62.0103,60.8714,142.022,100.26,92.6906,0.000305107,0.0477266,21.0125,867.189,0.704108,0.0,0.0
1014,253.25,60.9986,59.8829,144.524,100.254,92.2584,0.000345751,0.0476543,21.0124,867.179,0.74548,0.0,0.0
1017,254,60.2817,60.1435,142.132,100.233,92.7302,0.00036667,0.0476012,21.0123,867.179,0.697833,0.0,0.0
1020,254.75,60.9883,60.0666,139.847,100.228,91.3138,0.00036446,0.0475032,21.0123,867.189,0.835449,0.0,0.0
1023,255.5,60.3551,59.4449,141.864,100.231,91.8185,0.00033934,0.0474179,21.0122,867.199,0.786342,0.0,0.0
1026,256.25,60.2431,58.9284,142.085,100.211,91.7945,0.000312522,0.0473425,21.0122,867.199,0.786826,0.0,0.0
1029,257,60.0327,58.9518,141.603,100.188,91.9061,0.000278429,0.0472751,21.0122,867.199,0.773914,0.0,0.0
1032,257.75,59.8555,58.823,145.811,100.178,92.1088,0.000267757,0.0472062,21.0122,867.199,0.753237,0.0,0.0
1035,258.5,59.491,58.6188,143.019,100.167,91.665,0.000268681,0.047156,21.0122,867.199,0.795573,0.0,0.0
1038,259.25,59.7902,58.0118,146.499,100.165,91.8278,0.000270446,0.0471786,21.0121,867.189,0.779437,0.0,0.0
1041,260,59.7578,58.3781,141.684,100.115,91.9069,0.000267258,0.0471259,21.0121,867.169,0.767327,0.0,0.0
1044,260.75,58.7986,58.2778,144.876,100.123,92.5495,0.000264934,0.0470725,21.0121,867.159,0.705521,0.0,0.0
1047,261.5,59.2728,58.2416,142.486,100.133,92.2274,0.00024558,0.0470585,21.0121,867.159,0.73767,0.0,0.0
1050,262.25,58.4352,57.7642,141.61,100.112,92.0084,0.000201273,0.0470621,21.0119,867.149,0.757092,0.0,0.0
1053,263,58.5388,57.4234,142.379,100.082,91.8084,0.000154801,0.0470707,21.0118,867.169,0.773975,0.0,0.0
1056,263.75,58.2629,57.3652,145.165,100.066,91.7499,0.000126807,0.0471046,21.0117,867.179,0.778268,0.0,0.0
1059,264.5,58.211,56.7524,142.313,100.061,91.2774,0.000116459,0.0471412,21.0116,867.169,0.824103,0.0,0.0
1062,265.25,57.988,56.9385,143.043,100.069,91.3003,0.000124864,0.0471402,21.0116,867.169,0.822515,0.0,0.0
1065,266,57.8351,56.6354,142.133,100.016,90.6406,0.000127852,0.0471276,21.0116,867.169,0.882873,0.0,0.0
1068,266.75,57.763,56.1376,143.775,100.002,91.5429,0.000129625,0.0470986,21.0115,867.179,0.792775,0.0,0.0
1071,267.5,57.1414,56.4406,140.596,99.9905,92.2705,0.000132689,0.0470557,21.0115,867.159,0.72071,0.0,0.0
1074,268.25,56.6116,56.3495,144.267,99.9856,91.4212,0.000141464,0.046987,21.0115,867.179,0.803206,0.0,0.0
1077,269,57.3611,55.9005,144.44,99.9693,91.4914,0.000165588,0.0469518,21.0115,867.179,0.79486,0.0,0.0
1080,269.75,56.6843,56.0658,142.917,99.9476,92.0146,0.000194362,0.0469186,21.0115,867.169,0.741764,0.0,0.0
1083,270.5,56.5614,55.6556,142.493,99.9358,92.1538,0.000208796,0.0469068,21.0115,867.179,0.727146,0.0,0.0
1086,271.25,56.7551,55.5121,142.954,99.9239,91.1514,0.00020813,0.0468586,21.0115,867.179,0.82418,0.0,0.0
1089,272,56.3934,54.8274,141.149,99.8982,92.1127,0.000160443,0.0467682,21.0115,867.179,0.727773,0.0,0.0
1092,272.75,56.4174,54.8249,147.723,99.8631,91.996,8.59515e-05,0.0466859,21.0115,867.169,0.735987,0.0,0.0
1095,273.5,56.226,55.3097,143.249,99.8688,92.6286,,0.0466383,,867.159,0.675036,0.0,0.0
1098,274.25,56.3404,54.7508,141.56,99.8463,92.5162,,0.0466183,,867.169,0.683909,0.0,0.0
1101,275,56.3398,54.7649,147.071,99.8173,92.1503,,0.0466286,,867.169,0.716848,0.0,0.0
1104,275.75,55.4357,54.2154,142.564,99.7985,90.9309,,0.0466361,,867.179,0.834645,0.0,0.0
1107,276.5,56.2485,53.9217,145.467,99.8042,92.7802,,,,867.169,0.654574,0.0,0.0
1110,277.25,55.3773,54.0287,143.766,99.7899,91.1274,,,,867.179,0.814509,0.0,0.0
1113,278,55.7818,53.4766,141.139,99.7614,90.7999,,,,867.189,0.844236,0.0,0.0
1116,278.75,55.4943,53.2536,147.592,99.7483,91.8906,,,,867.179,0.735958,0.0,0.0
1119,279.5,54.4186,53.5872,139.096,99.7369,91.0972,,,,867.179,0.812713,0.0,0.0
1122,280.25,54.8657,53.6893,144.041,99.7397,91.9588,,,,867.179,0.728528,0.0,0.0
1125,281,54.9101,53.452,144.536,99.7168,91.6096,,,,867.199,0.7606,0.0,0.0
1128,281.75,55.1703,53.3363,144.06,99.6731,92.7212,,,,867.169,0.648481,0.0,0.0
1131,282.5,54.7711,53.2834,141.99,99.6666,93.1813,,,,867.159,0.603496,0.0,0.0
1134,283.25,55.0797,53.2914,146.643,99.6568,91.5014,,,,867.179,0.765792,0.0,0.0
1137,284,54.3601,53.0152,143.265,99.6482,90.6568,,,,867.189,0.848197,0.0,0.0
1138,284.25,55.0259,52.8613,143.192,99.6327,91.8402,,,,867.179,0.730476,0.0,0.0