File: 01_Data/HIPS/Cone/HIPS_Cone_HF25Scan_220218_R3.csv
Names,Time,Stack TC,Smoke TC,Exh Press,Smoke Comp,Smoke Meas,CO Meter,CO2 Meter,O2 Meter,Sample Mass,Ext Coeff,Start Test,Flame Verif
Chan Gain,,500,500,1,1,1,1,1,1,1,1,1.0,1.0
Offset,,0,0,0.134285,0,0,0,0,0,0,0,0.0,0.0
Gain,,1,1,25.011,13.3843,12.7012,1,1,1,1.00088,1.02252,1.0,1.0
Units,sec,C,C,Pa,%,%,%,%,%,g,/m,,
Baseline,,21.4363,20.8581,155.368,100.22,97.6802,0.000106534,0.0498375,21.0064,0.00717295,0.230215,,
4,0.75,19.5463,19.141,150.442,99.2769,96.8803,0.000137304,0.0522855,21.0036,898.026,0.219188,0.0,0.0
8,1.75,19.9764,19.6076,155.132,99.3268,96.8121,0.000134108,0.0524063,21.0037,897.936,0.230007,0.0,0.0
12,2.75,19.5783,19.0227,153.749,99.3709,96.547,0.000161198,0.0524855,21.0037,897.966,0.258587,0.0,0.0
16,3.75,19.8021,19.4151,153.473,99.4411,97.0388,0.00021723,0.0523878,21.0046,897.996,0.219345,0.0,0.0
20,4.75,19.6348,18.6403,155.49,99.4808,97.014,0.000287766,0.0521449,21.0055,897.976,0.225212,0.0,0.0
24,5.75,19.2111,19.0927,154.966,99.5375,97.0822,0.000349812,0.0517655,21.006,897.996,0.224024,0.0,0.0
28,6.75,19.8205,18.8854,154.333,99.5984,96.8427,0.000362125,0.0513554,21.0064,897.976,0.251665,0.0,0.0
32,7.75,19.5659,19.1151,154.998,99.6543,96.764,0.000337703,0.0509751,21.0066,897.966,0.263994,0.0,0.0
36,8.75,19.6251,19.0027,151.402,99.7091,97.2443,0.000246659,0.0505823,21.0067,897.966,0.224513,0.0,0.0
40,9.75,19.5634,19.2963,155.785,99.7802,97.1974,0.000152505,0.0502355,21.0077,897.986,0.235232,0.0,0.0
44,10.75,19.8198,19.3964,151.491,99.8488,97.1935,0.00010409,0.0498575,21.0082,897.986,0.241756,0.0,0.0
48,11.75,19.3609,19.1545,158.48,99.908,97.3245,0.000112137,0.0494512,21.0086,897.966,0.234992,0.0,0.0
52,12.75,19.6676,19.3064,157.546,99.9562,97.6419,0.000144533,0.0490235,21.0095,897.956,0.210108,0.0,0.0
56,13.75,19.3939,19.5776,148.443,100.024,97.7439,0.000163592,0.0485726,21.0103,897.966,0.206868,0.0,0.0
60,14.75,19.9151,19.7436,156.291,100.049,97.5563,0.000158372,0.0481803,21.0106,897.966,0.22626,0.0,0.0
64,15.75,19.4777,19.162,156.457,100.134,97.7431,0.000146636,0.0478784,21.0107,897.956,0.216786,0.0,0.0
68,16.75,19.7118,19.5525,156.331,100.195,97.9032,0.000134256,0.0476354,21.0107,897.946,0.207558,0.0,0.0
72,17.75,20.0593,19.5631,150.399,100.239,97.6683,0.000109451,0.0474226,21.0108,897.966,0.233016,0.0,0.0
76,18.75,19.6503,19.4985,155.745,100.31,97.9482,7.46605e-05,0.0471827,21.0108,897.946,0.213709,0.0,0.0
80,19.75,19.9324,19.6562,155.515,100.354,98.0288,4.57998e-05,0.046925,21.0108,897.966,0.210272,0.0,0.0
84,20.75,20.0301,19.5111,147.671,100.415,97.8555,2.68644e-05,0.0468061,21.0108,897.956,0.231614,0.0,0.0
88,21.75,19.9673,19.2479,153.339,100.459,98.0683,2.02535e-06,0.046728,21.0108,897.956,0.216033,0.0,0.0
92,22.75,19.6862,19.0957,159.605,100.515,98.1683,-3.1516e-05,0.0466695,21.0108,897.946,0.211887,0.0,0.0
96,23.75,19.7617,19.7359,153.748,100.561,98.1966,-7.30311e-05,0.0466863,21.0107,897.936,0.213383,0.0,0.0
100,24.75,20.0306,19.63,156.25,100.603,98.0389,-0.000104437,0.0468751,21.0102,897.946,0.231592,0.0,0.0
104,25.75,19.677,19.6209,153.306,100.655,98.1268,-0.000125409,0.0474756,21.0099,897.936,0.228207,0.0,0.0
108,26.75,19.8754,20.1879,156.312,100.686,98.4369,-0.000144604,0.0481673,21.0097,897.956,0.202636,0.0,0.0
112,27.75,19.4699,19.866,158.474,100.73,98.2493,-0.000158792,0.0488595,21.0096,897.956,0.223675,0.0,0.0
116,28.75,19.8062,19.7455,155.078,100.768,98.2226,-0.000173413,0.0493167,21.0091,897.966,0.2295,0.0,0.0
120,29.75,19.9579,19.8274,152.582,100.799,98.4257,-0.000186207,0.049428,21.0086,897.956,0.213734,0.0,0.0
124,30.75,19.4331,19.9991,161.141,100.832,98.49,-0.000193835,0.0494531,21.0089,897.936,0.21078,0.0,0.0
128,31.75,19.9388,19.479,155.53,100.858,97.8784,-0.000191626,0.0494696,21.0091,897.936,0.268982,0.0,0.0
132,32.75,20.1974,19.463,158.88,100.882,98.3989,-0.000181606,0.0494051,21.0092,897.936,0.223511,0.0,0.0
136,33.75,19.6831,19.5207,150.817,100.919,98.0644,-0.000179046,0.0492122,21.0095,897.936,0.257359,0.0,0.0
140,34.75,19.6659,19.8404,156.835,100.933,98.4617,-0.000181389,0.0490104,21.0102,897.936,0.222327,0.0,0.0
144,35.75,19.9701,19.6939,151.379,100.955,98.3846,-0.000167195,0.0489031,21.0107,897.936,0.231317,0.0,0.0
148,36.75,19.8475,19.7565,153.474,100.973,98.4416,-0.000124172,0.0487141,21.0111,897.936,0.227755,0.0,0.0
152,37.75,20.3281,19.8199,153.092,100.983,98.3986,-7.34711e-05,0.0485779,21.0113,901.239,0.232585,0.0,0.0
156,38.75,19.9564,19.873,156.168,101,98.611,-4.19775e-05,0.0484939,21.0114,901.079,0.214694,0.0,0.0
160,39.75,20.2306,19.7876,157.385,101.002,98.4358,-2.88752e-05,0.0484388,21.0115,899.347,0.230825,0.0,0.0
164,40.75,20.1311,19.8641,159.605,101.011,98.3509,-3.28098e-05,0.048388,21.0116,897.926,0.239362,0.0,0.0
168,41.75,19.9612,19.7685,156.51,101.008,98.3885,-3.82496e-05,0.0483191,21.0116,897.936,0.235716,0.0,0.0
172,42.75,20.0236,19.9296,157.432,101.011,98.2183,-4.18186e-05,0.0482885,21.0117,897.936,0.251496,0.0,0.0
176,43.75,19.9125,19.6363,154.055,101.018,98.3474,-2.92608e-05,0.048304,21.0117,897.926,0.240297,0.0,0.0
180,44.75,20.2712,20.3046,151.718,101.014,98.2393,-1.48182e-05,0.0485712,21.0116,897.946,0.249838,0.0,0.0
184,45.75,19.9856,19.9629,157.159,100.993,98.0327,-2.81429e-05,0.0488157,21.0105,897.946,0.266835,0.0,0.0
188,46.75,19.6485,19.8685,159.297,101.007,98.3536,-6.34863e-05,0.0493024,21.0097,897.936,0.238788,0.0,0.0
192,47.75,19.969,19.6216,157.92,100.99,97.9451,-0.000116871,0.0495414,21.0091,897.956,0.274599,0.0,0.0
196,48.75,19.764,19.9339,157.907,100.977,98.1055,-0.000151777,0.0495778,21.0089,897.946,0.258791,0.0,0.0
200,49.75,20.0631,19.45,157.733,100.958,98.1431,-0.000194903,0.0495552,21.0087,897.936,0.253649,0.0,0.0
204,50.75,19.8033,19.7896,153.988,100.943,98.1749,-0.000217886,0.0496066,21.0085,897.936,0.249365,0.0,0.0
208,51.75,19.2107,19.3002,155.258,100.937,98.242,-0.000213557,0.0495748,21.0085,897.926,0.24277,0.0,0.0
212,52.75,19.5275,19.655,160.794,100.923,98.2017,-0.000198321,0.0494539,21.0089,897.926,0.24518,0.0,0.0
216,53.75,20.2139,20.311,155.026,100.895,97.9683,-0.000174365,0.0492241,21.0095,897.936,0.264013,0.0,0.0
220,54.75,19.7398,19.6609,156.309,100.878,98.1292,-0.000149581,0.0489739,21.0099,897.926,0.247773,0.0,0.0
224,55.75,20.0483,19.9466,155.9,100.849,98.1555,-0.000132804,0.0487837,21.0101,897.936,0.242821,0.0,0.0
228,56.75,20.1701,19.5814,154.05,100.832,97.7885,-0.000115037,0.0485522,21.0109,897.926,0.274937,0.0,0.0
232,57.75,20.189,20.1056,160.834,100.806,98.0009,-8.3155e-05,0.0484003,21.0116,897.936,0.25315,0.0,0.0
236,58.75,20.2711,20.2651,155.591,100.782,97.5458,-1.72815e-05,0.0483495,21.0121,897.936,0.292751,0.0,0.0
240,59.75,20.3678,19.7625,152.16,100.757,97.992,5.53076e-05,0.0483102,21.0123,897.936,0.249567,0.0,0.0
244,60.75,19.8298,19.8663,152.163,100.73,97.7633,0.000177835,0.0481834,21.0126,897.926,0.268124,0.0,0.0
248,61.75,20.3371,20.0959,156.539,100.708,97.7691,0.000221763,0.0480038,21.0127,897.936,0.265663,0.0,0.0
252,62.75,20.225,19.8048,154.095,100.693,97.6644,0.000239353,0.0478548,21.0128,897.916,0.273886,0.0,0.0
256,63.75,20.0444,19.524,155.308,100.664,97.8179,0.000195388,0.0476761,21.0129,897.916,0.257254,0.0,0.0
260,64.75,19.7433,20.2591,157.866,100.647,97.6466,0.000136247,0.0475764,21.0129,897.906,0.271484,0.0,0.0
264,65.75,20.1138,19.7284,157.621,100.612,97.8772,5.24428e-05,0.047504,21.0129,897.906,0.247157,0.0,0.0
268,66.75,19.6669,19.5895,158.108,100.593,97.3485,-2.11654e-05,0.0474479,21.0128,897.916,0.2941,0.0,0.0
272,67.75,19.6027,20.2611,156.042,100.574,97.266,-8.33037e-05,0.0473857,21.0125,897.926,0.299998,0.0,0.0
276,68.75,19.8015,20.2809,154.346,100.54,97.6834,-0.000109409,0.0473104,21.0123,897.916,0.258523,0.0,0.0
280,69.75,19.9096,19.6972,157.927,100.525,97.3319,-0.000115474,0.0472412,21.0121,897.926,0.289551,0.0,0.0
284,70.75,19.6406,19.8257,155.016,100.497,97.7152,-5.56911e-05,0.0471905,21.012,897.916,0.251815,0.0,0.0
288,71.75,20.2486,19.7677,155.676,100.465,97.3582,3.61348e-05,0.047177,21.012,897.896,0.281728,0.0,0.0
292,72.75,20.1162,19.7354,153.335,100.453,97.5609,0.00011833,0.0471319,21.0119,897.896,0.26205,0.0,0.0
296,73.75,19.9919,20.0814,154.345,100.429,97.5191,0.000175598,0.047054,21.0119,897.896,0.263747,0.0,0.0
300,74.75,20.1686,19.6861,153.136,100.421,97.2768,0.000202532,0.0469747,21.0119,897.906,0.28529,0.0,0.0
304,75.75,20.1108,19.8862,153.798,100.375,97.2043,0.000199655,0.0469331,21.0119,897.906,0.287889,0.0,0.0
308,76.75,19.8046,20.0823,156.193,100.37,97.3501,0.000189739,0.0469026,21.0119,897.906,0.274049,0.0,0.0
312,77.75,20.1694,19.9327,155.309,100.345,97.2768,0.000175257,0.0469182,21.0124,897.916,0.278539,0.0,0.0
316,78.75,20.06,19.796,157.35,100.325,97.2749,0.000165755,0.0468768,21.0127,897.906,0.276891,0.0,0.0
320,79.75,19.6267,20.3625,154.349,100.311,97.1319,0.000155024,0.0468694,21.0125,897.886,0.288847,0.0,0.0
324,80.75,19.8172,20.0872,155.332,100.294,96.7148,0.000147983,0.046856,21.012,897.906,0.325947,0.0,0.0
328,81.75,20.3061,20.3546,153.917,100.291,97.0257,0.000138866,0.0468083,21.0116,897.906,0.29687,0.0,0.0
332,82.75,20.5183,20.3697,154.039,100.272,96.826,0.000117145,0.0467473,21.0114,897.866,0.313699,0.0,0.0
336,83.75,19.8873,20.4168,157.695,100.268,97.2621,8.67504e-05,0.0466968,21.0115,897.876,0.272993,0.0,0.0
340,84.75,20.0557,20.2969,154.485,100.324,97.3032,5.74568e-05,0.046696,21.0121,897.866,0.27421,0.0,0.0
344,85.75,20.1083,20.3465,156.631,100.371,97.0539,4.71372e-05,0.0467456,21.0125,897.856,0.301448,0.0,0.0
348,86.75,19.6718,20.2028,155.64,100.426,97.1055,6.05984e-05,0.0468137,21.0128,897.866,0.301575,0.0,0.0
352,87.75,19.9431,19.9962,157.883,100.484,97.2873,8.9667e-05,0.0468979,21.0124,897.866,0.289942,0.0,0.0
356,88.75,20.1369,20.1567,154.607,100.555,97.3877,0.000123095,0.0471812,21.0119,897.856,0.287106,0.0,0.0
360,89.75,20.2976,20.5706,155.684,100.597,97.2861,0.000159943,0.0475641,21.0115,897.866,0.300178,0.0,0.0
364,90.75,19.6461,20.5685,158.959,100.626,97.0931,0.000196202,0.0480663,21.0109,897.856,0.320579,0.0,0.0
368,91.75,20.5011,20.3449,156.283,100.692,97.2567,0.000210991,0.048508,21.0099,897.846,0.311378,0.0,0.0
372,92.75,20.1668,20.7886,154.218,100.72,97.5795,0.000210057,0.0489735,21.0091,897.866,0.284087,0.0,0.0
376,93.75,20.2761,20.4566,158.114,100.763,97.5671,0.00021722,0.0492928,21.0086,897.856,0.289118,0.0,0.0
380,94.75,20.1351,20.5174,149.883,100.785,97.4605,0.000242515,0.0494989,21.0082,897.866,0.300886,0.0,0.0
384,95.75,20.0671,20.4994,153.772,100.814,97.3133,0.000242601,0.0496205,21.008,897.866,0.316996,0.0,0.0
388,96.75,20.4401,20.3795,154.849,100.842,97.6761,0.000193452,0.0497609,21.0078,897.866,0.286125,0.0,0.0
392,97.75,20.1611,20.0807,154.379,100.885,97.3629,0.00010573,0.0498344,21.0077,897.856,0.318709,0.0,0.0
396,98.75,19.8844,20.3076,154.696,100.887,97.4098,-4.50038e-06,0.0497935,21.0077,897.836,0.31457,0.0,0.0
400,99.75,20.1627,20.2946,156.738,100.916,97.4202,-8.28315e-05,0.0497166,21.0076,897.826,0.316186,0.0,0.0
404,100.75,20.2259,20.1652,154.77,100.92,97.5385,-0.000129443,0.0496265,21.007,897.826,0.30567,0.0,0.0
408,101.75,19.7211,20.2111,153.525,100.905,97.416,-0.000133058,0.0495013,21.0064,897.816,0.315634,0.0,0.0
412,102.75,20.0872,20.2935,152.375,100.897,97.4249,-0.000103966,0.0493188,21.006,897.826,0.314086,0.0,0.0
416,103.75,20.0794,20.2872,155.693,100.925,97.385,-5.34166e-05,0.0491126,21.0063,897.836,0.320268,0.0,0.0
420,104.75,20.1917,20.2933,153.688,100.92,97.2865,-1.67085e-05,0.0489297,21.0067,897.846,0.328868,0.0,0.0
424,105.75,20.1444,19.8987,152.99,100.906,97.3729,-9.38294e-06,0.0487985,21.007,897.836,0.319705,0.0,0.0
428,106.75,20.5292,20.5611,155.522,100.901,97.3454,-2.42702e-05,0.048727,21.0072,897.836,0.321768,0.0,0.0
432,107.75,20.2177,20.2662,154.044,100.875,96.8295,-5.85466e-05,0.0487157,21.0074,897.846,0.367107,0.0,0.0
436,108.75,20.4007,20.0079,149.028,100.859,97.1222,-0.000102267,0.0488086,21.0077,897.826,0.338623,0.0,0.0
440,109.75,19.9432,20.2754,154.81,100.834,97.121,-0.00014497,0.0489198,21.008,897.836,0.336514,0.0,0.0
444,110.75,20.2778,20.3824,151.875,100.795,96.7462,-0.00017701,0.0488436,21.0081,897.846,0.367744,0.0,0.0
448,111.75,20.3108,20.2122,149.81,100.756,97.1915,-0.000167925,0.0486933,21.0082,897.836,0.323096,0.0,0.0
452,112.75,20.2632,20.3269,153.226,100.711,96.8884,-0.000138183,0.0485156,21.0091,897.816,0.347039,0.0,0.0
456,113.75,19.2725,19.8308,155.622,100.667,97.0241,-8.04166e-05,0.0482946,21.0103,897.816,0.330631,0.0,0.0
460,114.75,20.1499,20.3622,152.063,100.61,96.6524,-3.35248e-05,0.0480823,21.011,897.806,0.359928,0.0,0.0
464,115.75,20.2638,20.4322,157.15,100.562,96.8652,-1.11757e-05,0.0478321,21.0115,897.786,0.33594,0.0,0.0
468,116.75,20.0533,20.2733,152.785,100.5,96.3613,-6.07639e-06,0.0475505,21.0119,897.806,0.377182,0.0,0.0
472,117.75,20.0027,20.1301,155.443,100.447,96.5958,-2.52039e-05,0.0473571,21.0121,897.816,0.350677,0.0,0.0
476,118.75,19.974,20.4988,152.439,100.362,96.1822,-3.0304e-05,0.0472276,21.0125,897.786,0.381536,0.0,0.0
480,119.75,19.9735,20.7895,154.929,100.287,96.1357,-2.01663e-05,0.0470899,21.0133,897.806,0.379229,0.0,0.0
484,120.75,20.1931,20.7481,156.282,100.205,96.0446,-9.44125e-06,0.0469658,21.0138,897.816,0.380348,0.0,0.0
488,121.75,20.3666,20.3742,154.339,100.162,96.002,-7.18612e-06,0.0469095,21.0142,897.816,0.380456,0.0,0.0
492,122.75,20.3357,20.4722,148.722,100.173,95.9566,-4.61588e-05,0.0469319,21.0138,897.816,0.385718,0.0,0.0
496,123.75,20.4755,20.5407,153.025,100.187,95.683,-0.000127911,0.0469822,21.0133,897.806,0.41254,0.0,0.0
500,124.75,20.485,20.7701,156.953,100.187,95.8322,-0.000235485,0.0470344,21.0131,897.796,0.398599,0.0,0.0
504,125.75,20.1156,20.5464,156.38,100.205,96.2745,-0.000322002,0.0470383,21.0129,897.786,0.358909,0.0,0.0
508,126.75,19.8547,20.7056,154.755,100.223,96.2613,-0.000329925,0.0470072,21.0128,897.786,0.361709,0.0,0.0
512,127.75,20.5293,20.7507,160.913,100.244,96.5128,-0.000252512,0.0469868,21.0127,897.786,0.340201,0.0,0.0
516,128.75,20.3432,20.6572,152.419,100.26,96.1504,-9.66703e-05,0.0469735,21.0125,897.786,0.375407,0.0,0.0
520,129.75,20.4236,20.6419,154.023,100.277,95.8826,9.37585e-05,0.0471151,21.0118,897.776,0.401962,0.0,0.0
524,130.75,20.3834,20.9611,158.424,100.294,96.2062,0.000251121,0.0475342,21.0109,897.766,0.37327,0.0,0.0
528,131.75,20.6117,20.9438,156.934,100.324,95.7318,0.000359621,0.0481087,21.0104,897.776,0.420278,0.0,0.0
532,132.75,20.3531,20.4517,154.088,100.336,96.2066,0.00040602,0.0486363,21.01,897.756,0.376959,0.0,0.0
536,133.75,20.2767,20.1888,154.374,100.358,96.4125,0.000393669,0.0490075,21.0098,897.736,0.359726,0.0,0.0
540,134.75,20.1054,20.8485,156.624,100.375,96.0686,0.000342799,0.0491255,21.0096,897.726,0.393338,0.0,0.0
544,135.75,20.5757,20.0827,153.298,100.397,95.7345,0.000292023,0.0490782,21.0095,897.736,0.42656,0.0,0.0
548,136.75,20.4163,20.6604,154.287,100.409,96.3318,0.000241345,0.0489184,21.0093,897.746,0.371829,0.0,0.0
552,137.75,20.2311,20.9104,157.155,100.427,96.1031,0.00020886,0.0487911,21.0092,897.726,0.394752,0.0,0.0
556,138.75,20.1507,20.4874,155.017,100.443,96.1183,0.000181055,0.0486482,21.0091,897.726,0.3948,0.0,0.0
560,139.75,20.3297,20.7785,154.237,100.456,95.6617,0.000176453,0.0487758,21.0087,897.726,0.438642,0.0,0.0
564,140.75,20.4427,20.523,154.271,100.468,95.9551,0.000205616,0.0492666,21.0083,897.706,0.412193,0.0,0.0
568,141.75,20.3664,20.8426,156.563,100.483,96.4179,0.00026675,0.0502158,21.0073,897.696,0.370385,0.0,0.0
572,142.75,20.4684,20.5715,154.59,100.49,95.314,0.000353156,0.0515525,21.0047,897.706,0.474328,0.0,0.0
576,143.75,20.8945,20.5655,158.119,100.503,96.0462,0.000454691,0.0528318,21.0024,897.686,0.406818,0.0,0.0
580,144.75,19.8288,20.5553,154.539,100.505,95.5334,0.000582873,0.0537215,21,897.696,0.455018,0.0,0.0
584,145.75,20.2386,20.833,157.627,100.52,96.0128,0.00070131,0.0554359,20.9961,897.566,0.411463,0.0,0.0
588,146.75,20.3841,21.3528,151.879,100.508,96.3458,0.00103466,0.060727,20.9823,897.636,0.379355,0.0,0.0
592,147.75,21.1036,21.2446,147.21,100.508,88.7587,0.00161929,0.0720628,20.9605,897.636,1.11501,0.0,1.0
596,148.75,20.5263,20.549,149.924,100.505,82.0678,0.00257725,0.0931087,20.9313,897.596,1.81775,0.0,1.0
600,149.75,21.1911,21.0759,141.024,100.506,76.6475,0.00398812,0.121528,20.8819,897.516,2.43074,0.0,1.0
604,150.75,21.6543,22.2253,139.459,100.494,68.2096,0.00588976,0.161412,20.8113,897.436,3.47577,0.0,0.0
608,151.75,21.8001,22.6239,137.002,100.491,65.2653,0.00811356,0.197275,20.7174,897.346,3.87129,0.0,1.0
612,152.75,21.7332,23.236,135.692,100.479,58.4973,0.0102819,0.255603,20.6314,897.296,4.85218,0.0,1.0
616,153.75,23.042,24.0597,125.51,100.467,54.8018,0.0132309,0.333255,20.5218,897.125,5.43644,0.0,1.0
620,154.75,24.0589,25.6239,119.916,100.471,52.3122,0.016173,0.405381,20.4057,896.995,5.85383,0.0,1.0
624,155.75,24.5989,27.0146,126.591,100.448,50.7183,0.0189621,0.48248,20.2958,896.855,6.12936,0.0,1.0
628,156.75,25.9955,28.9659,118.857,100.423,48.5574,0.0214306,0.553854,20.1794,896.765,6.51767,0.0,0.0
632,157.75,27.4916,30.9638,122.78,100.414,48.1085,0.0234288,0.613876,20.0933,896.545,6.60013,0.0,0.0
636,158.75,28.4728,32.5221,123.59,100.413,49.2198,0.0251918,0.665974,20.0282,896.495,6.39519,0.0,0.0
640,159.75,30.0195,34.3324,125.53,100.375,51.1784,0.0265682,0.705127,19.9851,896.325,6.04183,0.0,0.0
644,160.75,31.5133,35.7081,128.651,100.376,51.5517,0.0277471,0.731677,19.9527,896.135,5.97676,0.0,0.0
648,161.75,32.0659,37.3948,122.25,100.366,48.1787,0.0286435,0.753194,19.9269,896.004,6.58275,0.0,0.0
652,162.75,33.4577,38.9886,121.991,100.326,47.3124,0.0293123,0.772233,19.8989,895.864,6.74196,0.0,0.0
656,163.75,34.8015,40.5371,131.533,100.312,53.268,0.0299091,0.787881,19.8737,895.744,5.67726,0.0,0.0
660,164.75,35.568,42.1458,125.901,100.283,47.3709,0.0304746,0.802891,19.8507,895.604,6.727,0.0,0.0
664,165.75,37.069,43.5003,121.325,100.249,47.893,0.0309913,0.816526,19.8294,895.514,6.62565,0.0,0.0
668,166.75,37.9264,45.0814,119.396,100.233,47.4597,0.0314196,0.829386,19.8125,895.344,6.70575,0.0,0.0
672,167.75,39.0502,46.3097,128.208,100.213,47.8151,0.0318436,0.840254,19.7968,895.194,6.637,0.0,0.0
676,168.75,40.0777,48.4352,119.582,100.179,46.9291,0.0322613,0.849649,19.7855,895.044,6.80174,0.0,0.0
680,169.75,40.9788,49.4134,120.698,100.157,46.3759,0.032676,0.857858,19.7732,894.914,6.90611,0.0,0.0
684,170.75,42.2923,50.8663,111.08,100.11,47.362,0.0330582,0.868219,19.7546,894.823,6.71322,0.0,0.0
688,171.75,43.4252,52.7243,117.329,100.076,49.7435,0.0334779,0.878537,19.7376,894.703,6.27011,0.0,0.0
692,172.75,44.6873,53.7574,125.695,100.041,46.7756,0.0338651,0.889168,19.7203,894.683,6.81875,0.0,0.0
696,173.75,45.8705,55.4404,123.233,100.002,43.1095,0.0343749,0.900901,19.7066,894.463,7.54733,0.0,0.0
700,174.75,46.4017,56.6091,129.537,99.9635,45.0212,0.0350064,0.912542,19.6891,894.183,7.1547,0.0,0.0
704,175.75,47.7797,57.9612,121.378,99.9296,44.4972,0.0358427,0.926214,19.6708,894.063,7.25668,0.0,0.0
708,176.75,49.5739,60.1026,112.953,99.8863,42.8405,0.0366968,0.938186,19.6499,893.923,7.5931,0.0,0.0
712,177.75,49.767,60.9518,116.124,99.859,43.2266,0.0377349,0.955136,19.6209,893.712,7.51018,0.0,0.0
716,178.75,50.7036,62.3136,127.412,99.8153,45.1585,0.0386805,0.972681,19.5874,893.552,7.11409,0.0,0.0
720,179.75,52.2205,64.0916,108.78,99.7793,43.0506,0.0395498,0.993234,19.5525,893.412,7.53961,0.0,0.0
724,180.75,52.9726,64.9024,116.824,99.7475,43.351,0.0404473,1.01395,19.5296,893.232,7.47437,0.0,0.0
728,181.75,54.6701,67.0341,116.657,99.7128,40.575,0.0413824,1.03283,19.5076,893.082,8.06484,0.0,0.0
732,182.75,55.6745,68.561,116.724,99.6625,42.1983,0.0420125,1.04784,19.4904,892.902,7.70847,0.0,0.0
736,183.75,56.7409,70.0649,119.734,99.6347,38.7989,0.0428306,1.06156,19.4743,892.742,8.45928,0.0,0.0
740,184.75,57.355,70.7999,116.792,99.6033,38.4974,0.0437015,1.07831,19.4526,892.552,8.52644,0.0,0.0
744,185.75,59.0507,72.9489,123.257,99.5686,42.2316,0.0445871,1.09216,19.4203,892.371,7.69293,0.0,0.0
748,186.75,59.771,73.9619,104.887,99.5232,39.8765,0.0454469,1.11374,19.3813,892.181,8.20353,0.0,0.0
752,187.75,61.156,75.8687,104.04,99.4861,40.7599,0.0461469,1.13516,19.3443,892.011,8.00365,0.0,0.0
756,188.75,61.9508,76.8796,115.49,99.4575,41.4382,0.0468459,1.16198,19.308,891.861,7.85303,0.0,0.0
760,189.75,63.8873,79.314,106.442,99.4178,39.361,0.0474847,1.18507,19.2753,891.661,8.31074,0.0,0.0
764,190.75,64.5593,80.3141,112.229,99.3709,37.8764,0.0481398,1.20776,19.245,891.43,8.65134,0.0,0.0
768,191.75,65.9116,82.4129,106.594,99.3427,36.4818,0.048778,1.2308,19.205,891.24,8.98529,0.0,0.0
772,192.75,66.6417,83.1418,101.844,99.3084,37.7524,0.0496241,1.25503,19.1692,891.1,8.67512,0.0,0.0
776,193.75,68.8755,85.4814,112.8,99.2769,35.0108,0.0505352,1.27859,19.1349,890.86,9.3485,0.0,0.0
780,194.75,69.8268,86.9306,108.815,99.2467,36.745,0.0511118,1.30201,19.1155,890.63,8.91214,0.0,0.0
784,195.75,71.118,88.508,113.859,99.1961,37.0338,0.051938,1.32485,19.0846,890.46,8.83735,0.0,0.0
788,196.75,71.4363,89.6284,104.024,99.1724,36.3089,0.0526894,1.34535,19.0498,890.269,9.0125,0.0,0.0
792,197.75,73.2897,91.567,111.047,99.1393,34.669,0.0533729,1.35755,19.0261,890.099,9.42407,0.0,0.0
796,198.75,74.9528,93.7549,106.6,99.1041,33.5775,0.0540479,1.37086,19.0018,889.869,9.70782,0.0,0.0
800,199.75,75.4096,94.806,106.668,99.0882,36.5314,0.0547933,1.38488,18.9761,889.649,8.95009,0.0,0.0
804,200.75,76.6676,95.9302,115.156,99.0625,37.6912,0.0555293,1.4007,18.944,889.389,8.66744,0.0,0.0
808,201.75,77.5813,97.61,106.416,99.0368,34.6085,0.0564979,1.4201,18.9162,889.179,9.43045,0.0,0.0
812,202.75,79.0887,99.2122,111.213,99.0147,34.0465,0.0575554,1.4401,18.8905,889.068,9.5753,0.0,0.0
816,203.75,80.5729,101.178,102.262,98.9877,32.3185,0.058765,1.45971,18.8684,888.858,10.0401,0.0,0.0
820,204.75,81.405,102.699,107.376,98.9636,34.4159,0.0597853,1.47556,18.8455,888.638,9.47389,0.0,0.0
824,205.75,83.0462,104.187,112.066,98.951,36.5388,0.0611569,1.49012,18.8272,888.428,8.93585,0.0,0.0
828,206.75,83.4189,105.844,106.73,98.922,34.1496,0.0624361,1.50418,18.8089,888.188,9.53978,0.0,0.0
832,207.75,84.8174,107.015,99.0264,98.915,32.9856,0.0636242,1.5185,18.786,887.977,9.85021,0.0,0.0
836,208.75,85.9694,108.356,108.827,98.8901,32.7654,0.0645852,1.5342,18.7617,887.697,9.90802,0.0,0.0
840,209.75,86.9077,109.691,101.198,98.8824,33.0197,0.0656099,1.55177,18.7367,887.477,9.83797,0.0,0.0
844,210.75,88.0254,111.214,108.967,98.8628,31.8379,0.0666766,1.56801,18.7081,887.267,10.1631,0.0,0.0
848,211.75,89.4424,112.995,95.6588,98.846,33.1371,0.0677702,1.58629,18.6813,887.047,9.80283,0.0,0.0
852,212.75,90.1827,114.144,101.002,98.837,31.6867,0.0687526,1.60225,18.6565,886.826,10.2035,0.0,0.0
856,213.75,91.623,115.812,106.918,98.8346,30.4711,0.0697507,1.61691,18.6339,886.606,10.5541,0.0,0.0
860,214.75,92.7136,116.981,111.351,98.8288,30.4808,0.0705891,1.6327,18.6078,886.436,10.5507,0.0,0.0
864,215.75,93.3924,118.293,101.063,98.8174,31.1937,0.0711696,1.64742,18.5867,886.116,10.3423,0.0,0.0
868,216.75,94.8436,120.112,106.31,98.817,32.665,0.0715599,1.6598,18.5692,885.806,9.92891,0.0,0.0
872,217.75,95.4357,121.078,101.475,98.817,29.9707,0.0718063,1.66893,18.5571,885.595,10.701,0.0,0.0
876,218.75,97.1925,122.676,100.633,98.8129,30.0041,0.072003,1.67525,18.5484,885.365,10.6907,0.0,0.0
880,219.75,97.491,123.657,108.762,98.8129,30.8436,0.0722444,1.68105,18.5386,885.125,10.4432,0.0,0.0
884,220.75,99.105,125.409,107.828,98.8121,31.5282,0.0725743,1.68761,18.5258,884.965,10.2462,0.0,0.0
888,221.75,100.123,126.706,103.781,98.8182,31.3181,0.0729543,1.69662,18.5093,884.675,10.3067,0.0,0.0
892,222.75,101.397,128.056,98.5104,98.8174,29.8076,0.0735645,1.70607,18.494,884.384,10.75,0.0,0.0
896,223.75,101.786,129.003,103.225,98.8182,28.9455,0.0742386,1.71782,18.4792,884.214,11.0133,0.0,0.0
900,224.75,103.185,130.396,112.563,98.828,29.7424,0.0749921,1.73014,18.4615,883.934,10.7706,0.0,0.0
904,225.75,104.223,131.847,102.827,98.837,30.1727,0.0758307,1.743,18.4407,883.734,10.6426,0.0,0.0
908,226.75,105.148,132.952,104.547,98.8493,27.3176,0.0767055,1.75684,18.4231,883.464,11.5354,0.0,0.0
912,227.75,105.684,133.865,103.035,98.8619,31.5258,0.0774815,1.76921,18.4071,883.223,10.2514,0.0,0.0
916,228.75,107.316,135.587,95.5458,98.8717,26.14,0.0781963,1.77955,18.3947,882.973,11.9326,0.0,0.0
920,229.75,108.45,136.832,99.6889,98.8844,27.3955,0.0786978,1.78737,18.3859,882.703,11.513,0.0,0.0
924,230.75,109.287,138.053,107.674,98.9065,28.5447,0.0789573,1.79326,18.3802,882.523,11.1464,0.0,0.0
928,231.75,110.324,139.296,106.707,98.9105,27.8036,0.0791215,1.79897,18.3732,882.222,11.3827,0.0,0.0
932,232.75,111.053,140.098,102.846,98.9367,30.2506,0.0793714,1.80619,18.3622,881.922,10.6285,0.0,0.0
936,233.75,111.722,140.994,99.6889,98.9547,29.6754,0.0797188,1.81445,18.346,881.702,10.8023,0.0,0.0
940,234.75,112.958,142.182,103.055,98.9902,28.061,0.0802273,1.82424,18.3332,881.502,11.3073,0.0,0.0
944,235.75,113.759,143.245,99.9362,98.9939,29.4238,0.0809557,1.83394,18.3188,881.232,10.8823,0.0,0.0
948,236.75,114.386,144.16,96.8335,98.9959,28.042,0.0815967,1.84129,18.3093,881.051,11.3139,0.0,0.0
952,237.75,115.04,145.17,105.95,99.0351,27.0218,0.0822745,1.84336,18.303,880.731,11.6498,0.0,0.0
956,238.75,115.977,146.106,105.657,99.0551,29.3816,0.082771,1.84283,18.2997,880.511,10.9007,0.0,0.0
960,239.75,116.705,146.949,101.643,99.0829,29.1095,0.0830161,1.84247,18.3007,880.221,10.9867,0.0,0.0
964,240.75,117.512,147.882,100.533,99.1099,27.9354,0.0830676,1.84028,18.3033,879.98,11.3584,0.0,0.0
968,241.75,118.215,148.856,99.5912,99.1311,28.1943,0.0830577,1.83525,18.3055,879.74,11.2775,0.0,0.0
972,242.75,118.887,149.621,105.874,99.1552,28.0385,0.083083,1.83085,18.307,879.44,11.3294,0.0,0.0
976,243.75,119.163,149.983,92.4072,99.1785,29.0947,0.0833263,1.83148,18.3003,879.17,10.9999,0.0,0.0
980,244.75,120.353,150.978,94.9787,99.2087,24.5272,0.0838249,1.83826,18.2885,879.01,12.5344,0.0,0.0
984,245.75,121.069,151.96,101.372,99.232,29.492,0.0844323,1.84817,18.2711,878.789,10.883,0.0,0.0
988,246.75,120.844,151.937,91.4096,99.2549,27.6714,0.0849663,1.86198,18.2513,878.559,11.4566,0.0,0.0
992,247.75,122.492,153.356,101.678,99.29,25.5287,0.0853905,1.87494,18.2349,878.299,12.1827,0.0,0.0
996,248.75,122.944,154.199,87.307,99.3178,31.1871,0.0856101,1.88444,18.2235,877.949,10.3895,0.0,0.0
1000,249.75,124.039,155.4,93.8842,99.3406,26.0059,0.0857007,1.89011,18.216,877.729,12.0212,0.0,0.0
1004,250.75,124.475,156.177,97.1258,99.3627,27.8195,0.085612,1.89433,18.2109,877.478,11.4185,0.0,0.0
1008,251.75,125.124,157.046,96.8915,99.3868,28.2145,0.0855395,1.89918,18.2076,877.208,11.2942,0.0,0.0
1012,252.75,125.867,157.886,99.8896,99.415,28.1501,0.0855089,1.90517,18.2054,876.948,11.3173,0.0,0.0
1016,253.75,126.477,158.546,100.473,99.4444,25.5632,0.0855431,1.91093,18.201,876.668,12.1845,0.0,0.0
1020,254.75,126.854,158.92,105.732,99.4771,26.4982,0.0856439,1.91949,18.1881,876.497,11.8653,0.0,0.0
1024,255.75,127.796,159.987,102.054,99.4844,26.3935,0.0859037,1.92791,18.1784,876.177,11.9015,0.0,0.0
1028,256.75,128.727,161.198,101.146,99.5204,29.0851,0.0862235,1.93314,18.1713,875.937,11.0337,0.0,0.0
1032,257.75,129.116,161.748,93.8857,99.5555,26.1198,0.0864297,1.9399,18.1665,875.607,12.0014,0.0,0.0
1036,258.75,129.971,162.705,89.5076,99.5722,30.3029,0.0865639,1.94337,18.1633,875.406,10.6705,0.0,0.0
1040,259.75,130.172,163.173,101.888,99.5972,31.0696,0.0866939,1.94281,18.1612,875.096,10.4486,0.0,0.0
1044,260.75,131.31,164.034,89.6045,99.6184,28.8362,0.0869601,1.93817,18.1599,874.896,11.1196,0.0,0.0
1048,261.75,131.55,164.571,94.978,99.6482,24.6175,0.0874088,1.93639,18.159,874.696,12.541,0.0,0.0
1052,262.75,131.896,165.092,98.6821,99.6768,25.5504,0.0879033,1.93947,18.1592,874.416,12.21,0.0,0.0
1056,263.75,132.393,165.443,99.453,99.7034,28.1753,0.0882762,1.94333,18.1594,874.135,11.3352,0.0,0.0
1060,264.75,132.797,165.922,94.2467,99.7364,26.8075,0.0882899,1.9428,18.1595,873.915,11.7846,0.0,0.0
1064,265.75,133.731,167.077,97.8952,99.7532,28.0102,0.0880034,1.93596,18.1628,873.645,11.3924,0.0,0.0
1068,266.75,134.2,167.629,107.596,99.7867,27.4342,0.0874621,1.92673,18.1744,873.395,11.5818,0.0,0.0
1072,267.75,134.608,167.961,93.9117,99.8002,26.2388,0.0869187,1.91807,18.1854,873.134,11.9826,0.0,0.0
1076,268.75,134.826,168.01,98.7386,99.8292,29.8021,0.0865423,1.91176,18.1932,872.874,10.843,0.0,0.0
1080,269.75,135.433,168.805,100.799,99.8529,28.1478,0.086325,1.90495,18.2016,872.614,11.3574,0.0,0.0
1084,270.75,135.798,169.08,104.192,99.8814,27.9784,0.0862053,1.89931,18.2079,872.384,11.4141,0.0,0.0
1088,271.75,136.616,170.087,104.388,99.9162,27.0443,0.0858755,1.89648,18.2134,872.144,11.7218,0.0,0.0
1092,272.75,136.442,169.857,101.454,99.9407,30.0638,0.0852428,1.89312,18.2194,871.933,10.7746,0.0,0.0
1096,273.75,137.016,170.484,105.95,99.9668,30.4498,0.084422,1.88588,18.2244,871.753,10.6625,0.0,0.0
1100,274.75,137.135,170.466,101.049,99.986,28.8936,0.0836309,1.87486,18.2366,871.403,11.1348,0.0,0.0
1104,275.75,137.82,171.071,94.1872,99.9885,28.3877,0.0822196,1.86134,18.2613,871.173,11.2935,0.0,0.0
1108,276.75,137.434,170.749,100.448,100.034,32.7193,0.0808313,1.84362,18.2922,870.953,10.0238,0.0,0.0
1112,277.75,138.129,171.286,97.0128,100.055,30.0347,0.0794175,1.82419,18.3238,870.692,10.7936,0.0,0.0
1116,278.75,137.783,170.837,99.5767,100.071,30.5235,0.0782077,1.80108,18.3557,870.512,10.6502,0.0,0.0
1120,279.75,138.183,171.128,110.316,100.087,32.867,0.0768237,1.77991,18.3869,870.302,9.9882,0.0,0.0
1124,280.75,137.762,170.816,103.785,100.102,33.6244,0.0753785,1.75934,18.4203,870.082,9.7852,0.0,0.0
1128,281.75,138.213,170.769,98.0349,100.129,31.5317,0.0743045,1.73217,18.4516,869.741,10.364,0.0,0.0
1132,282.75,137.915,170.172,100.089,100.143,32.3588,0.0725724,1.70336,18.4997,869.601,10.133,0.0,0.0
1136,283.75,138.823,170.873,105.614,100.162,36.2147,0.0706375,1.66738,18.5593,869.401,9.12486,0.0,0.0
1140,284.75,138.5,170.449,108.27,100.18,35.0461,0.0685085,1.64022,18.6262,869.201,9.42073,0.0,0.0
1144,285.75,137.94,169.244,109.551,100.206,35.1856,0.0662367,1.59668,18.6938,869.081,9.38735,0.0,0.0
1148,286.75,137.824,169.096,108.966,100.223,37.7086,0.0632242,1.53965,18.763,868.941,8.76775,0.0,0.0
1152,287.75,138.176,168.938,111.863,100.223,40.2746,0.060214,1.48297,18.8452,868.741,8.17724,0.0,0.0
1156,288.75,137.103,167.491,113.464,100.271,40.8812,0.056703,1.42435,18.9439,868.601,8.04746,0.0,0.0
1160,289.75,136.245,166.329,112.872,100.26,42.9072,0.0532625,1.35231,19.0626,868.45,7.61261,0.0,0.0
1164,290.75,134.753,164.197,111.98,100.272,43.8813,0.0500639,1.28016,19.1744,868.35,7.41233,0.0,0.0
1168,291.75,135.202,164.192,119.923,100.299,48.1671,0.0469211,1.20472,19.2889,868.22,6.57893,0.0,0.0
1172,292.75,134.004,162.352,116.177,100.301,44.0138,0.0427221,1.12286,19.3972,868.09,7.38787,0.0,0.0
1176,293.75,133.218,160.894,121.28,100.343,52.3009,0.0398719,1.04044,19.4994,868.03,5.84438,0.0,0.0
1180,294.75,131.652,158.721,124.256,100.35,49.1865,0.0361317,0.964774,19.6123,867.91,6.39568,0.0,0.0
1184,295.75,130.668,156.974,128.735,100.353,48.7663,0.0326791,0.86515,19.7267,867.83,6.47285,0.0,0.0
1188,296.75,129.161,154.736,131.874,100.376,56.2867,0.0291395,0.803208,19.8453,867.75,5.1885,0.0,0.0
1192,297.75,127.437,152.114,133.925,100.404,59.2558,0.0262455,0.728644,19.9476,867.66,4.72994,0.0,0.0
1196,298.75,124.973,148.856,137.653,100.424,67.0599,0.0229386,0.649585,20.0576,867.71,3.62203,0.0,0.0
1200,299.75,124.447,147.548,137.893,100.433,77.137,0.0200298,0.571318,20.1482,867.67,2.3671,0.0,0.0
1204,300.75,122.61,144.869,143.226,100.444,85.773,0.0170059,0.508642,20.2518,867.67,1.41624,0.0,0.0
1208,301.75,118.896,140.447,145.799,100.446,88.5874,0.0144455,0.439899,20.3682,867.69,1.12684,0.0,0.0
1212,302.75,118.632,139.447,145.385,100.47,89.0963,0.0121978,0.373569,20.4746,867.68,1.07757,0.0,0.0
1216,303.75,117.25,137.167,143.526,100.477,89.9944,0.0102919,0.317909,20.5722,867.66,0.988267,0.0,0.0
1220,304.75,115.017,134.211,144.208,100.48,90.822,0.00871689,0.272576,20.6536,867.65,0.90642,0.0,0.0
1224,305.75,113.179,131.601,147.406,100.499,91.4421,0.00739275,0.234738,20.7185,867.65,0.847094,0.0,0.0
1228,306.75,111.29,128.958,139.608,100.508,91.6991,0.00633865,0.204184,20.7678,867.64,0.822723,0.0,0.0
1232,307.75,108.996,125.9,146.523,100.52,92.3394,0.00536923,0.17947,20.8038,867.64,0.761366,0.0,0.0
1236,308.75,107.32,123.837,145.612,100.529,93.153,0.0045853,0.160018,20.833,867.65,0.683484,0.0,0.0
1240,309.75,106.399,122.249,145.84,100.536,92.5402,0.00393141,0.144081,20.8598,867.64,0.743341,0.0,0.0
1244,310.75,103.727,118.825,144.267,100.542,94.0271,0.00339275,0.129816,20.883,867.66,0.600918,0.0,0.0
1248,311.75,104.577,119.165,145.153,100.551,94.3798,0.0029571,0.117976,20.9014,867.64,0.568134,0.0,0.0
1252,312.75,101.792,115.629,148.627,100.556,93.6527,0.00252829,0.107892,20.9176,867.63,0.637946,0.0,0.0
1256,313.75,100.181,113.236,150.283,100.554,93.8519,0.00212916,0.0995085,20.9303,867.64,0.618666,0.0,0.0
1260,314.75,98.0911,110.687,143.752,100.564,93.9538,0.00178038,0.0927255,20.9407,867.64,0.609876,0.0,0.0
1264,315.75,96.5109,108.92,148.727,100.57,95.4946,0.00152296,0.087193,20.9489,867.62,0.464489,0.0,0.0
1268,316.75,95.5045,106.458,144.86,100.565,94.8198,0.00135168,0.0827538,20.9563,867.62,0.527624,0.0,0.0
1272,317.75,93.3283,104.766,146.082,100.571,94.0542,0.00127132,0.0789548,20.9619,867.64,0.600843,0.0,0.0
1276,318.75,92.6524,103.146,148.988,100.574,95.0136,0.00124653,0.0758044,20.9664,867.63,0.510113,0.0,0.0
1280,319.75,91.3102,101.612,145.36,100.573,95.0136,0.00124747,0.0732822,20.9699,867.63,0.510003,0.0,0.0
1284,320.75,90.0938,99.9216,147.837,100.59,94.193,0.00123905,0.0713746,20.9723,867.62,0.589332,0.0,0.0
1288,321.75,88.4372,97.5684,145.882,100.572,94.9477,0.00118732,0.0698451,20.9733,867.62,0.516189,0.0,0.0
1292,322.75,87.4686,96.41,150.232,100.578,94.5554,0.00109691,0.0686027,20.9729,867.62,0.553832,0.0,0.0
1296,323.75,86.267,94.9437,146.925,100.566,94.4581,0.000976085,0.0677233,20.9734,867.62,0.562009,0.0,0.0
1300,324.75,85.5097,93.2807,144.117,100.572,94.0601,0.000849528,0.0669275,20.9745,867.63,0.600435,0.0,0.0
1304,325.75,83.8262,91.0557,146.999,100.568,95.5175,0.000735019,0.0662271,20.9753,867.63,0.462122,0.0,0.0
1308,326.75,83.399,90.2173,146.154,100.567,95.1872,0.000645509,0.0655763,20.9758,867.65,0.493115,0.0,0.0
1312,327.75,82.066,88.6731,146.962,100.558,94.9434,0.000567256,0.0649474,20.9761,867.64,0.515353,0.0,0.0
1316,328.75,81.4026,87.6953,146.723,100.551,95.1566,0.000482318,0.0644125,20.9763,867.64,0.494581,0.0,0.0
1320,329.75,79.6786,85.6316,144.276,100.555,95.0543,0.000388822,0.0639983,20.9763,867.64,0.504631,0.0,0.0
1324,330.75,79.4112,84.5656,149.395,100.542,94.574,0.000298249,0.0636414,20.9764,867.62,0.548897,0.0,0.0
1328,331.75,78.1736,83.5059,150.932,100.537,95.0539,0.000227927,0.063282,20.977,867.65,0.502991,0.0,0.0
1332,332.75,77.135,82.3872,145.29,100.532,94.3011,0.000203172,0.062868,20.9774,867.65,0.573904,0.0,0.0
1336,333.75,76.0836,81.1208,146.75,100.519,94.4446,0.000226815,0.0625208,20.9777,867.64,0.55907,0.0,0.0
1340,334.75,75.1771,80.0641,148.487,100.522,94.474,0.000283131,0.0622533,20.9779,867.63,0.556564,0.0,0.0
1344,335.75,74.6778,78.7388,151.1,100.519,94.7504,0.000315086,0.061928,20.978,867.62,0.530073,0.0,0.0
1348,336.75,73.6437,77.0693,147.688,100.501,94.4368,0.000289191,0.0616075,20.9785,867.64,0.558202,0.0,0.0
1352,337.75,72.3982,76.1609,149.574,100.5,94.367,0.000232395,0.0613042,20.9792,867.62,0.564795,0.0,0.0
1356,338.75,72.184,75.4555,149.494,100.489,94.6911,0.000185019,0.0610159,20.9797,867.62,0.533028,0.0,0.0
1360,339.75,71.2121,74.2989,150.988,100.477,94.2085,0.000156862,0.0607763,20.98,867.61,0.577761,0.0,0.0
1364,340.75,69.9652,73.0271,147.986,100.475,94.0841,0.000146313,0.0605939,20.9802,867.63,0.589433,0.0,0.0
1368,341.75,69.4774,72.3282,150.721,100.463,94.1876,0.000148961,0.0604742,20.9805,867.62,0.578515,0.0,0.0
1372,342.75,69.0296,71.077,144.271,100.457,94.2523,0.000157446,0.0602964,20.9808,867.62,0.571806,0.0,0.0
1376,343.75,68.0165,70.1902,147.799,100.452,94.6364,0.000182515,0.0600806,20.981,867.62,0.534887,0.0,0.0
1380,344.75,67.4851,68.9916,150.023,100.43,95.0702,0.000215989,0.0598565,20.9812,867.62,0.491903,0.0,0.0
1384,345.75,66.2233,68.7569,148.706,100.428,93.9655,0.000269305,0.0596645,20.9806,867.62,0.59659,0.0,0.0
1388,346.75,66.2446,67.6017,150.373,100.406,94.1725,0.000311917,0.0595385,20.981,867.62,0.574884,0.0,0.0
1392,347.75,65.089,67.0128,145.848,100.401,94.9698,0.000340883,0.0594001,20.9813,867.63,0.498862,0.0,0.0
1396,348.75,64.692,66.1332,147.563,100.388,94.7213,0.000371148,0.0592225,20.9814,867.64,0.52119,0.0,0.0
1400,349.75,63.9657,65.4175,149.546,100.387,95.8427,0.000398104,0.0590126,20.9816,867.62,0.41552,0.0,0.0
1404,350.75,63.204,64.7147,150.098,100.37,94.9081,0.000405317,0.058845,20.9815,867.63,0.501838,0.0,0.0
1408,351.75,62.9205,63.4668,151.182,100.359,94.3349,0.000387201,0.0587164,20.9813,867.63,0.555232,0.0,0.0
1412,352.75,61.9045,62.752,147.879,100.35,94.9357,0.000343462,0.0586142,20.9812,867.63,0.497484,0.0,0.0
1416,353.75,61.0522,61.9954,147.332,100.343,94.9729,0.000292694,0.0584953,20.9811,867.62,0.493314,0.0,0.0
1420,354.75,60.9595,61.6559,148.624,100.345,95.5399,0.000247305,0.0584172,20.981,867.6,0.440099,0.0,0.0
1424,355.75,60.6527,60.732,150.647,100.335,94.6763,0.000215275,0.0583408,20.981,867.61,0.520704,0.0,0.0
1428,356.75,59.2498,59.2674,147.723,100.325,95.5686,0.000223505,0.0582907,20.981,867.62,0.435654,0.0,0.0
1432,357.75,59.8289,59.7407,152.066,100.304,94.8415,0.00025366,0.05823,20.9809,867.63,0.502263,0.0,0.0
1436,358.75,58.4258,58.767,147.384,100.293,95.443,0.000268943,0.0581259,20.9809,867.62,0.444563,0.0,0.0
1440,359.75,59.0639,58.1079,154.95,100.281,95.3485,0.000242968,0.0580385,20.9809,867.61,0.45236,0.0,0.0
1444,360.75,57.5561,56.95,146.078,100.271,95.3996,0.000185127,0.0580241,20.9814,867.62,0.446671,0.0,0.0
1448,361.75,57.7644,56.88,144.444,100.276,95.414,0.000123787,0.0580465,20.9821,867.62,0.445797,0.0,0.0
1452,362.75,56.8151,56.2704,151.065,100.26,95.1128,5.65247e-05,0.0580436,20.9828,867.62,0.472766,0.0,0.0
1456,363.75,56.7542,55.8428,150.583,100.248,95.4454,2.03628e-05,0.0579713,20.9833,867.63,0.440326,0.0,0.0
1460,364.75,55.679,54.6437,152.078,100.243,94.9868,7.65881e-05,0.0578988,20.9836,867.63,0.483081,0.0,0.0
1464,365.75,55.9912,54.7465,147.607,100.255,95.3698,0.000154964,0.0577718,20.9838,867.64,0.448089,0.0,0.0
1468,366.75,55.199,54.0349,147.204,100.223,94.9391,0.000251419,0.0575878,20.9839,867.64,0.485794,0.0,0.0
1472,367.75,54.5423,53.9793,151.763,100.212,95.0364,0.00032217,0.0573762,20.9837,867.63,0.475657,0.0,0.0
1476,368.75,54.7809,53.6387,147.734,100.215,94.7577,0.000384648,0.0571672,20.9828,867.63,0.502254,0.0,0.0
1480,369.75,53.9302,52.9084,146.156,100.197,95.0171,0.000375342,0.0570188,20.9824,867.63,0.476133,0.0,0.0
1484,370.75,53.6657,52.4505,150.661,100.195,94.6035,0.000336625,0.0569611,20.9821,867.63,0.515077,0.0,0.0
1488,371.75,52.8486,52.055,146.132,100.178,95.2531,0.000276533,0.0569287,20.9822,867.63,0.452122,0.0,0.0
1492,372.75,53.1956,51.3691,151.718,100.17,95.5287,0.000221093,0.0569014,20.9824,867.65,0.425551,0.0,0.0
1496,373.75,52.2468,51.0794,150.055,100.166,95.1988,0.000184108,0.0568659,20.9826,867.65,0.456173,0.0,0.0
1500,374.75,51.859,50.6219,147.042,100.152,95.1267,0.000171501,0.0568731,20.983,867.64,0.461725,0.0,0.0
1504,375.75,51.8569,49.9241,144.511,100.134,95.714,0.00017098,0.056795,20.9838,867.64,0.404952,0.0,0.0
1508,376.75,51.3473,49.6119,151.667,100.119,95.4814,0.000162217,0.0566724,20.9843,867.64,0.425382,0.0,0.0
1512,377.75,51.12,49.5735,147.486,100.127,95.6853,0.000138477,0.056592,20.9846,867.65,0.406945,0.0,0.0
1516,378.75,50.8228,48.7186,148.348,100.097,95.2481,0.000105571,0.0565392,20.9849,867.64,0.44539,0.0,0.0
1520,379.75,49.506,47.7574,146.01,100.091,95.5585,6.75942e-05,0.0564907,20.985,867.64,0.415614,0.0,0.0
1524,380.75,50.0836,47.8646,150.728,100.088,95.2977,2.99276e-05,0.0564615,20.9851,867.64,0.439877,0.0,0.0
1528,381.75,49.4263,47.8531,147.43,100.071,95.8737,6.64755e-07,0.0564536,20.9852,867.63,0.38429,0.0,0.0
1532,382.75,49.7372,47.1063,150.928,100.073,95.3942,-6.138e-06,0.0564484,20.9854,867.64,0.429479,0.0,0.0
1536,383.75,49.059,47.1005,151.502,100.066,94.662,3.35943e-06,0.0564311,20.9861,867.62,0.497931,0.0,0.0
1540,384.75,48.9304,46.7807,148.714,100.013,95.0174,2.11429e-05,0.0564236,20.9869,867.63,0.459628,0.0,0.0
1544,385.75,48.5688,45.8838,149.71,100.033,95.2581,5.9732e-05,0.0564554,20.9875,867.62,0.438693,0.0,0.0
1548,386.75,47.8345,45.7632,148.821,100.022,96.1051,0.000129747,0.0564511,20.9878,867.64,0.358272,0.0,0.0
1552,387.75,48.0274,45.4378,149.907,100.016,95.564,0.000236176,0.056398,20.9881,867.63,0.408441,0.0,0.0
1556,388.75,47.1625,45.311,148.271,100.015,95.8446,0.000361814,0.0563128,20.9882,867.64,0.38203,0.0,0.0
1560,389.75,47.4638,44.7724,150.099,100.014,95.5868,0.00047592,0.0561311,20.9883,867.63,0.406111,0.0,0.0
1564,390.75,46.9272,44.5417,150.599,99.9787,96.0334,0.000586074,0.0560912,20.9884,867.64,0.361121,0.0,0.0
1568,391.75,46.0364,43.5167,148.438,99.9603,95.2461,0.000669549,0.0561459,20.9874,867.64,0.433303,0.0,0.0
1572,392.75,46.5165,44.0812,147.476,99.935,94.5926,0.000690442,0.0561867,20.9867,867.64,0.492783,0.0,0.0
1576,393.75,45.8229,44.0661,149.882,99.9399,95.5605,0.000692951,0.0562047,20.986,867.64,0.401915,0.0,0.0
1580,394.75,46.3123,43.7654,146.254,99.9284,95.357,0.000712643,0.056225,20.9855,867.64,0.42001,0.0,0.0
1584,395.75,45.7906,43.1877,145.253,99.9194,95.1469,0.000759411,0.0561932,20.9852,867.64,0.438986,0.0,0.0
1588,396.75,45.6703,43.2052,147.429,99.8896,95.3651,0.000791342,0.0561266,20.985,867.65,0.415761,0.0,0.0
1592,397.75,45.3424,42.8114,146.392,99.877,95.352,0.000794601,0.0560829,20.9851,867.65,0.415863,0.0,0.0
1596,398.75,44.9377,42.4297,150.688,99.8492,95.7043,0.00075418,0.0560469,20.9858,867.66,0.380286,0.0,0.0
1600,399.75,44.8702,42.0679,150.07,99.85,95.2062,0.000683045,0.0560055,20.9862,867.65,0.427161,0.0,0.0
1604,400.75,44.6768,41.8429,150.913,99.8251,95.4713,0.000605773,0.0560286,20.9865,867.66,0.39998,0.0,0.0
1608,401.75,44.3243,41.5996,148.313,99.8234,95.0244,0.000540017,0.0561444,20.9866,867.66,0.44192,0.0,0.0
1612,402.75,44.48,41.5118,147.636,99.8026,94.9136,0.000492842,0.0562707,20.9868,867.67,0.450516,0.0,0.0
1616,403.75,43.7156,41.0579,149.381,99.8014,95.7555,0.000437125,0.0563788,20.9868,867.65,0.371198,0.0,0.0
1620,404.75,44.0143,41.1074,146.623,99.7773,95.7113,0.000378061,0.056349,20.9869,867.65,0.373171,0.0,0.0
1624,405.75,43.5252,41.0679,149.167,99.7683,95.6741,0.000321309,0.0563156,20.9869,867.65,0.375851,0.0,0.0
1628,406.75,43.5559,40.935,147.341,99.7483,95.4233,0.000258975,0.0562685,20.9869,867.65,0.397594,0.0,0.0
1632,407.75,43.0416,40.3854,152.185,99.7344,95.4299,0.000233587,0.056219,20.987,867.67,0.395725,0.0,0.0
1636,408.75,42.9803,40.4997,143.87,99.7177,94.6837,0.000225688,0.0561687,20.987,867.66,0.464625,0.0,0.0
1640,409.75,42.9227,39.8317,151.399,99.6989,94.786,0.000248296,0.0561001,20.987,867.67,0.453247,0.0,0.0
1644,410.75,42.8721,40.1145,153.223,99.6784,95.826,0.000315201,0.0560134,20.987,867.66,0.353536,0.0,0.0
1648,411.75,42.4106,39.713,150.371,99.6351,95.1942,0.00040248,0.0558577,20.9878,867.66,0.408974,0.0,0.0
1652,412.75,42.1635,39.4713,149.912,99.6102,94.8585,0.000483724,0.0557556,20.9888,867.66,0.438414,0.0,0.0
1656,413.75,41.6538,38.9381,150.947,99.5784,94.4969,0.000546996,0.0556291,20.9896,867.67,0.469805,0.0,0.0
1660,414.75,41.5575,38.7879,150.132,99.5387,94.676,0.00058786,0.055431,20.9897,867.67,0.449254,0.0,0.0
1664,415.75,41.9556,38.6969,154.066,99.4934,95.0186,0.000588926,0.0552744,20.9898,867.67,0.412764,0.0,0.0
1668,416.75,41.204,38.5484,153.007,99.4742,95.5128,0.000574493,0.0549705,20.99,867.67,0.364502,0.0,0.0
1672,417.75,41.1208,38.6884,148.266,99.4342,95.1481,0.000494036,0.0546454,20.9908,867.67,0.39521,0.0,0.0
1676,418.75,40.9058,37.5219,149.893,99.3933,94.6798,0.000389837,0.0543818,20.9921,867.66,0.435774,0.0,0.0
1680,419.75,41.1597,38.3132,145.066,99.3521,95.3903,0.000274184,0.0541811,20.993,867.66,0.364993,0.0,0.0
1684,420.75,40.8815,37.9509,148.5,99.2345,95.119,0.000154639,0.0540196,20.9935,867.66,0.379917,0.0,0.0
1688,421.75,40.5108,37.7745,150.813,99.2831,95.438,5.66636e-05,0.0538958,20.9939,867.66,0.354277,0.0,0.0
1692,422.75,40.0514,37.1096,149.907,99.2565,94.7546,,0.0537383,,867.66,0.416333,0.0,0.0
1696,423.75,40.0802,37.5548,144.181,99.2075,95.3601,,0.0534737,,867.67,0.354773,0.0,0.0
1700,424.75,40.0156,37.3394,148.77,99.1801,94.9023,,0.0532109,,867.65,0.39546,0.0,0.0
1704,425.75,40.2627,37.2856,151.49,99.1515,95.2884,,,,867.64,0.35646,0.0,0.0
1708,426.75,39.1476,37.0793,147.429,99.1123,94.681,,,,867.63,0.410268,0.0,0.0
1712,427.75,39.697,36.8336,153.076,99.0805,94.6473,,,,867.66,0.41058,0.0,0.0
1716,428.75,39.7862,36.5303,151.214,99.049,94.9802,,,,867.66,0.376235,0.0,0.0
1720,429.75,38.6804,36.0307,152.183,99.0355,94.6496,,,,867.67,0.406291,0.0,0.0
1724,430.75,39.6576,36.7984,147.351,98.9849,94.9213,,,,867.67,0.375989,0.0,0.0
1728,431.75,39.308,36.8942,148.298,98.9551,94.5721,,,,867.66,0.406349,0.0,0.0
1732,432.75,39.0392,36.4233,150.494,98.9444,95.0744,,,,867.67,0.357869,0.0,0.0
1733,433,38.9111,36.0979,153.849,98.944,95.0205,,,,867.67,0.362917,0.0,0.0