File: 01_Data/HIPS/Cone/HIPS_Cone_HF50Scan_220218_R3.csv
Names,Time,Stack TC,Smoke TC,Exh Press,Smoke Comp,Smoke Meas,CO Meter,CO2 Meter,O2 Meter,Sample Mass,Ext Coeff,Start Test,Flame Verif
Chan Gain,,500,500,1,1,1,1,1,1,1,1,1.0,1.0
Offset,,0,0,0.134285,0,0,0,0,0,0,0,0.0,0.0
Gain,,1,1,25.011,13.3843,12.7012,1,1,1,1.00088,1.02252,1.0,1.0
Units,sec,C,C,Pa,%,%,%,%,%,g,/m,,
Baseline,,30.7323,31.7179,149.404,99.1881,95.1711,2.93522e-05,0.0473911,21.0091,0.01518,0.370866,,
3,0.5,28.6751,28.9931,150.752,100.441,95.5799,1.04132e-05,0.0506342,21.0031,898.136,0.444964,0.0,0.0
6,1.25,27.8033,28.4227,149.777,100.414,96.1237,-1.08996e-05,0.0508991,21.0027,898.156,0.391705,0.0,0.0
9,2,27.7208,28.7047,148.73,100.412,95.8741,-3.55854e-05,0.0511336,21.0024,898.176,0.414808,0.0,0.0
12,2.75,27.6818,28.2711,151.762,100.38,95.7899,-6.92258e-05,0.0514233,21.0022,898.166,0.419797,0.0,0.0
15,3.5,28.0808,28.2661,146.718,100.376,95.7365,-0.000104375,0.05169,21.002,898.186,0.424516,0.0,0.0
18,4.25,27.8107,28.6077,151.068,100.357,95.7589,-0.000134965,0.0519081,21.0019,898.196,0.420657,0.0,0.0
21,5,28.1539,28.9221,150.724,100.338,96.3838,-0.000165264,0.0520473,21.0019,898.176,0.360606,0.0,0.0
24,5.75,27.8357,28.7397,149.722,100.327,96.0043,-0.000197409,0.0521415,21.0018,898.186,0.395004,0.0,0.0
27,6.5,27.9845,28.6052,150.369,100.315,96.1497,-0.000236782,0.0521684,21.0018,898.176,0.380411,0.0,0.0
30,7.25,28.0036,29.4193,150.941,100.312,96.3528,-0.000272673,0.0521381,21.0017,898.166,0.361228,0.0,0.0
33,8,28.0168,28.7384,148.12,100.284,96.0489,-0.000311128,0.0521021,21.0017,898.176,0.387041,0.0,0.0
36,8.75,28.5154,29.2789,151.691,100.278,95.9938,-0.000332744,0.0520627,21.0017,898.146,0.391597,0.0,0.0
39,9.5,28.6637,29.0778,155.253,100.266,96.1919,-0.000360233,0.0520214,21.001,898.136,0.37205,0.0,0.0
42,10.25,28.25,29.2229,147.661,100.26,95.9132,-0.000364335,0.0520111,21.0006,898.146,0.397527,0.0,0.0
45,11,28.4515,29.2963,147.292,100.252,96.1272,-0.000354908,0.0520036,21.0002,898.156,0.37681,0.0,0.0
48,11.75,28.3936,29.279,151.345,100.243,95.6574,-0.000326804,0.0519998,20.9997,898.136,0.420021,0.0,0.0
51,12.5,28.6026,29.2124,148.948,100.236,95.7795,-0.000285405,0.0520246,20.999,898.166,0.407885,0.0,0.0
54,13.25,28.4086,29.4235,146.375,100.223,95.7194,-0.000219467,0.0520926,20.9984,898.156,0.412343,0.0,0.0
57,14,28.2712,29.3629,149.446,100.283,95.4969,-0.000138988,0.0521818,20.9978,898.156,0.438588,0.0,0.0
60,14.75,28.3839,29.447,150.591,100.346,95.7248,-0.00010169,0.0522469,20.9976,898.136,0.422904,0.0,0.0
63,15.5,28.5482,29.3703,149.721,100.423,95.6481,-5.18871e-05,0.0523637,20.9973,898.136,0.436923,0.0,0.0
66,16.25,28.382,29.418,149.728,100.504,96.0182,-1.91417e-06,0.0525077,20.9971,898.146,0.409535,0.0,0.0
69,17,28.5179,29.4589,148.851,100.548,95.7896,4.03422e-05,0.0527189,20.997,898.136,0.434821,0.0,0.0
72,17.75,28.7139,29.3794,150.812,100.603,95.8508,8.35551e-05,0.0528151,20.9969,898.126,0.434043,0.0,0.0
75,18.5,28.6025,29.0813,152.575,100.659,95.6872,0.0001163,0.0529044,20.9968,898.116,0.454315,0.0,0.0
78,19.25,28.3919,29.2638,147.848,100.717,96.1946,0.00013743,0.052932,20.9968,898.106,0.412046,0.0,0.0
81,20,28.8044,29.5932,150.891,100.754,95.4698,0.000147241,0.0529244,20.9967,898.126,0.48316,0.0,0.0
84,20.75,28.631,29.2333,155.603,100.775,95.6748,0.000129584,0.052907,20.9967,898.236,0.465808,0.0,0.0
87,21.5,28.7635,29.6125,148.164,100.817,95.3136,0.000110176,0.0528349,20.9967,898.106,0.503519,0.0,0.0
90,22.25,28.6661,29.3872,149.77,100.861,95.938,8.48493e-05,0.0526833,20.9973,898.126,0.4488,0.0,0.0
93,23,28.9372,29.4761,147.599,100.884,95.2531,6.63865e-05,0.0525583,20.9977,898.116,0.515169,0.0,0.0
96,23.75,28.8577,29.6539,149.431,100.899,94.9248,5.29272e-05,0.0524421,20.9981,898.096,0.547408,0.0,0.0
99,24.5,28.5653,29.8915,149.491,100.92,95.1826,4.66572e-05,0.0522386,20.9983,898.096,0.52501,0.0,0.0
102,25.25,28.6893,29.4496,148.448,100.948,95.0667,4.82962e-05,0.0520319,20.9985,898.116,0.538443,0.0,0.0
105,26,29.091,29.8404,151.795,100.974,95.7803,5.54071e-05,0.0517812,20.9986,898.126,0.473617,0.0,0.0
108,26.75,28.7909,30.261,152.972,100.977,95.5698,6.61801e-05,0.0515985,20.9993,898.096,0.493638,0.0,0.0
111,27.5,29.1619,30.0182,147.949,100.99,95.0531,6.3404e-05,0.0514507,20.9999,898.116,0.543424,0.0,0.0
114,28.25,29.1106,29.8872,151.539,101.014,95.876,4.76567e-05,0.051318,21.0002,898.096,0.468211,0.0,0.0
117,29,29.1511,29.7108,146.603,101.016,94.4841,1.27095e-05,0.0512213,21.0005,898.096,0.599563,0.0,0.0
120,29.75,29.3441,30.2994,149.774,100.999,95.5256,-2.89087e-05,0.0513034,21.0003,898.106,0.49971,0.0,0.0
123,30.5,28.8832,30.3579,147.787,101.015,94.3128,-6.61297e-05,0.0514283,20.9993,898.026,0.615734,0.0,0.0
126,31.25,28.8592,29.9579,150.373,101.013,94.7775,-6.84706e-05,0.0519352,20.9981,898.106,0.571534,0.0,0.0
129,32,29.136,30.5125,151.286,101.012,95.3268,-1.05514e-05,0.0524801,20.9968,898.136,0.519561,0.0,0.0
132,32.75,28.9852,30.1048,148.683,101.008,94.581,0.00013445,0.0531774,20.9955,898.116,0.58968,0.0,0.0
135,33.5,29.496,30.0422,149.652,100.977,94.619,0.000372441,0.0564725,20.987,898.116,0.583285,0.0,0.0
138,34.25,29.1515,29.9973,144.954,100.988,94.695,0.000949783,0.0630158,20.9807,898.086,0.577102,0.0,1.0
141,35,29.1501,30.6109,145.642,100.967,92.5457,0.00137067,0.0728357,20.9642,897.876,0.781179,0.0,1.0
144,35.75,29.0299,30.3977,144.825,100.947,81.7275,0.00243831,0.0904551,20.9392,898.006,1.89438,0.0,1.0
147,36.5,29.2602,31.02,147.586,100.916,72.9861,0.00354097,0.114676,20.9075,897.956,2.90633,0.0,1.0
150,37.25,29.5642,30.8216,136.401,100.893,66.0785,0.00555611,0.144162,20.8618,897.956,3.79602,0.0,1.0
153,38,30.0497,31.4011,134.268,100.885,59.081,0.00740928,0.180286,20.8188,897.786,4.79929,0.0,1.0
156,38.75,30.188,32.0197,125.888,100.857,54.8642,0.00941712,0.231639,20.7394,897.836,5.46099,0.0,1.0
159,39.5,30.2312,32.2797,127.126,100.818,53.7932,0.0115044,0.292726,20.6393,897.686,5.63436,0.0,0.0
162,40.25,30.975,33.5797,125.227,100.796,55.0103,0.0138096,0.347341,20.5484,897.646,5.43176,0.0,0.0
165,41,31.3642,33.972,120.996,100.776,51.3214,0.0157108,0.415434,20.4366,897.456,6.05257,0.0,0.0
168,41.75,32.4721,35.3944,124.469,100.751,49.8885,0.0178779,0.471871,20.3368,897.386,6.30428,0.0,0.0
171,42.5,33.4468,36.7566,124.846,100.709,48.2217,0.0198971,0.524635,20.2494,897.386,6.60532,0.0,0.0
174,43.25,34.4538,38.1769,123.208,100.674,48.5454,0.0210605,0.575612,20.1963,897.256,6.54223,0.0,0.0
177,44,35.546,39.6724,127.694,100.644,50.1865,0.02306,0.621258,20.1281,897.115,6.24136,0.0,0.0
180,44.75,36.4606,41.0763,123.184,100.605,46.0794,0.0250131,0.661618,20.0669,897.085,7.00368,0.0,0.0
183,45.5,37.3189,42.5394,118.941,100.568,42.8146,0.0268061,0.696968,20.0077,896.895,7.65951,0.0,0.0
186,46.25,38.4914,43.8136,112.593,100.524,41.4486,0.0286688,0.719417,19.9548,896.825,7.9464,0.0,0.0
189,47,39.525,45.3393,119.323,100.481,41.9983,0.030367,0.750977,19.912,896.655,7.82441,0.0,0.0
192,47.75,40.1636,46.4094,117.791,100.446,43.4448,0.03175,0.786346,19.8575,896.545,7.51761,0.0,0.0
195,48.5,41.1576,47.7997,111.388,100.392,43.1929,0.0333292,0.815893,19.8066,896.465,7.56489,0.0,0.0
198,49.25,42.1962,49.3904,114.964,100.373,43.1189,0.0347133,0.847256,19.7648,896.325,7.57864,0.0,0.0
201,50,43.2058,50.7983,117.342,100.391,40.3118,0.0361204,0.875913,19.721,896.265,8.184,0.0,0.0
204,50.75,44.4917,52.5068,117.721,100.417,41.6777,0.0374217,0.904736,19.6821,896.115,7.88748,0.0,0.0
207,51.5,45.3016,53.8492,122.553,100.425,40.0106,0.0388414,0.929129,19.6417,895.964,8.25433,0.0,0.0
210,52.25,46.88,55.6178,112.123,100.422,34.7364,0.0403759,0.962513,19.5945,895.804,9.52197,0.0,0.0
213,53,46.9915,56.2885,109.924,100.432,38.071,0.0417727,0.992366,19.5465,895.674,8.70069,0.0,0.0
216,53.75,48.2798,57.9672,115.748,100.465,35.4089,0.0430446,1.02356,19.5011,895.484,9.35377,0.0,0.0
219,54.5,50.2068,60.1233,114.835,100.482,33.6092,0.044203,1.05065,19.4497,895.374,9.82321,0.0,0.0
222,55.25,50.9671,61.4252,110.491,100.486,34.7628,0.0454972,1.08055,19.4024,895.184,9.52085,0.0,0.0
225,56,51.8297,62.8138,113.299,100.506,33.2933,0.0468295,1.10699,19.3536,895.034,9.91006,0.0,0.0
228,56.75,53.3292,64.886,114.228,100.549,33.6174,0.0479666,1.13493,19.3137,894.854,9.82701,0.0,0.0
231,57.5,54.166,66.3914,108.849,100.564,35.3244,0.0496689,1.16355,19.2845,894.713,9.38409,0.0,0.0
234,58.25,55.4823,68.0052,106.221,100.583,31.8162,0.0509098,1.19454,19.2504,894.613,10.3239,0.0,0.0
237,59,56.8366,69.6019,103.712,100.601,32.2007,0.0522352,1.22844,19.2201,894.393,10.2178,0.0,0.0
240,59.75,57.7769,71.1107,109.742,100.643,34.8457,0.053921,1.26973,19.174,894.283,9.5135,0.0,0.0
243,60.5,58.991,72.7826,99.8622,100.671,35.1651,0.0557838,1.3069,19.1192,894.123,9.43414,0.0,0.0
246,61.25,59.9198,74.4989,99.1454,100.68,30.8712,0.0574957,1.34369,19.0581,893.943,10.603,0.0,0.0
249,62,61.7865,76.6055,104.14,100.694,33.7313,0.0590839,1.3871,18.9933,893.793,9.80955,0.0,0.0
252,62.75,63.2243,78.8988,101.409,100.741,31.0634,0.0605656,1.42416,18.9295,893.682,10.5528,0.0,0.0
255,63.5,64.8912,80.5142,104.343,100.761,31.8801,0.0619835,1.45528,18.8802,893.502,10.3218,0.0,0.0
258,64.25,66.0468,83.2643,97.5769,100.775,27.7207,0.0628091,1.48106,18.8517,893.272,11.577,0.0,0.0
261,65,67.8537,84.6901,109.224,100.8,29.5897,0.0643317,1.50536,18.8128,893.062,10.994,0.0,0.0
264,65.75,68.578,86.2432,101.216,100.816,28.7099,0.0659459,1.52862,18.7745,892.962,11.2662,0.0,0.0
267,66.5,70.265,88.2839,93.311,100.845,29.2052,0.0675706,1.55106,18.7352,892.752,11.1153,0.0,0.0
270,67.25,71.6507,90.3786,101.238,100.862,27.4641,0.0693122,1.56784,18.6994,892.461,11.6682,0.0,0.0
273,68,72.7562,92.1318,92.7393,100.879,26.4726,0.0712916,1.58722,18.6629,892.411,11.9995,0.0,0.0
276,68.75,74.1025,93.7628,96.5732,100.918,27.0148,0.0729359,1.60899,18.6234,892.141,11.8211,0.0,0.0
279,69.5,75.5327,95.8389,102.569,100.936,28.9471,0.0742721,1.63265,18.5957,891.971,11.203,0.0,0.0
282,70.25,76.8827,97.5573,98.6058,100.954,27.1183,0.0760942,1.65767,18.5542,891.801,11.79,0.0,0.0
285,71,78.1138,99.3743,110.251,100.99,25.5365,0.0778986,1.68953,18.503,891.631,12.3323,0.0,0.0
288,71.75,79.3635,101.171,99.6408,101.001,26.6606,0.0796971,1.72186,18.4596,891.42,11.9469,0.0,0.0
291,72.5,80.6982,102.673,105.965,101.03,25.3547,0.081214,1.74111,18.4176,891.29,12.3999,0.0,0.0
294,73.25,82.3304,105.404,100.338,101.052,24.6279,0.0824931,1.76754,18.3938,891.01,12.6627,0.0,0.0
297,74,83.5036,107.024,107.616,101.046,26.3547,0.0843038,1.79036,18.3632,890.78,12.0543,0.0,0.0
300,74.75,85.178,109.149,96.922,101.065,23.9035,0.0865559,1.81,18.3315,890.59,12.9316,0.0,0.0
303,75.5,86.282,110.721,97.4227,101.095,23.7066,0.0888187,1.83699,18.2792,890.43,13.0085,0.0,0.0
306,76.25,87.182,112.108,98.4341,101.115,21.5805,0.091615,1.85456,18.2171,890.229,13.8531,0.0,0.0
309,77,88.7145,113.979,88.5596,101.113,22.4682,0.0945633,1.89525,18.1504,889.969,13.4914,0.0,0.0
312,77.75,89.8939,116.052,91.36,101.119,21.8592,0.0971005,1.93901,18.0826,889.709,13.7384,0.0,0.0
315,78.5,91.7241,118.061,94.407,101.127,21.5964,0.1002,1.98394,18.0226,889.389,13.8476,0.0,0.0
318,79.25,92.6373,119.538,88.2657,101.151,19.7433,0.103345,2.02868,17.9609,889.279,14.6543,0.0,0.0
321,80,94.3065,122.072,84.9394,101.151,21.6953,0.10624,2.07756,17.8931,888.988,13.8087,0.0,0.0
324,80.75,96.1468,124.27,87.8635,101.139,21.1728,0.108932,2.11853,17.8437,888.788,14.0263,0.0,0.0
327,81.5,97.4088,126.229,87.6627,101.156,20.1728,0.111142,2.15751,17.7975,888.558,14.4618,0.0,0.0
330,82.25,98.8151,128.567,97.3701,101.162,21.6647,0.113104,2.19128,17.7594,888.278,13.8223,0.0,0.0
333,83,100.362,130.375,78.3966,101.158,19.4514,0.115134,2.22186,17.7256,888.017,14.7886,0.0,0.0
336,83.75,101.756,132.313,97.3082,101.156,21.3232,0.116854,2.25044,17.7024,887.897,13.9643,0.0,0.0
339,84.5,103.162,134.482,86.9025,101.146,18.7243,0.119146,2.27128,17.6681,887.517,15.1293,0.0,0.0
342,85.25,104.359,136.554,80.9917,101.146,17.7591,0.121336,2.31194,17.607,887.377,15.604,0.0,0.0
345,86,105.805,138.111,95.4932,101.131,17.5731,0.123334,2.35145,17.5624,887.107,15.6971,0.0,0.0
348,86.75,107.192,140.162,83.3136,101.143,19.9836,0.125475,2.37458,17.5065,886.876,14.5451,0.0,0.0
351,87.5,108.945,142.52,87.2002,101.115,19.4088,0.127626,2.40493,17.4608,886.646,14.8044,0.0,0.0
354,88.25,110.203,144.694,91.0997,101.111,18.2797,0.13,2.43208,17.4203,886.426,15.3417,0.0,0.0
357,89,111.687,146.418,96.6915,101.087,19.5316,0.132284,2.45784,17.3819,886.176,14.7454,0.0,0.0
360,89.75,112.946,148.006,86.7865,101.077,18.6196,0.13449,2.4824,17.3267,885.846,15.1734,0.0,0.0
363,90.5,114.572,150.158,93.0545,101.055,18.9177,0.136972,2.51021,17.2792,885.625,15.029,0.0,0.0
366,91.25,115.829,152.193,90.2037,101.042,17.0362,0.139123,2.54447,17.2321,885.405,15.9675,0.0,0.0
369,92,117.297,153.952,91.7554,101.023,16.2191,0.141276,2.57639,17.1839,885.065,16.4066,0.0,0.0
372,92.75,118.969,156.178,92.6729,100.992,17.4122,0.143408,2.60912,17.144,884.835,15.7672,0.0,0.0
375,93.5,120.042,157.828,82.1076,100.958,16.9781,0.145203,2.63574,17.107,884.544,15.9907,0.0,0.0
378,94.25,121.832,160.537,97.2403,100.933,19.1731,0.147069,2.66535,17.0693,884.334,14.8978,0.0,0.0
381,95,123.147,162.296,78.9164,100.899,17.0475,0.14864,2.69011,17.0335,884.044,15.9488,0.0,0.0
384,95.75,124.58,164.41,91.1578,100.88,17.9742,0.14994,2.71359,17.001,883.814,15.4723,0.0,0.0
387,96.5,125.634,166.183,84.7203,100.844,18.4448,0.150997,2.74309,16.9596,883.544,15.2373,0.0,0.0
390,97.25,126.697,167.485,80.5765,100.799,17.5374,0.151918,2.76987,16.9111,883.333,15.6858,0.0,0.0
393,98,128.419,169.767,83.7204,100.756,19.8022,0.152757,2.80035,16.8712,882.953,14.5925,0.0,0.0
396,98.75,129.83,171.7,85.9889,100.715,17.9766,0.153544,2.82836,16.8307,882.803,15.4564,0.0,0.0
399,99.5,131.078,173.584,77.0692,100.651,16.8052,0.1544,2.85479,16.7949,882.353,16.0552,0.0,0.0
402,100.25,132.785,175.692,82.3725,100.592,15.0532,0.155274,2.88016,16.758,882.142,17.0374,0.0,0.0
405,101,134.183,177.735,71.9446,100.533,15.999,0.155878,2.90525,16.737,881.932,16.4856,0.0,0.0
408,101.75,135.32,179.449,89.1282,100.484,17.4238,0.156778,2.92384,16.71,881.682,15.7159,0.0,0.0
411,102.5,136.541,181.161,87.8139,100.409,17.1277,0.157971,2.93787,16.6898,881.372,15.863,0.0,0.0
414,103.25,138.043,183.249,78.8507,100.349,14.3175,0.159169,2.95094,16.6642,881.081,17.4651,0.0,0.0
417,104,139.426,184.472,83.3525,100.286,16.6777,0.160434,2.95846,16.6456,880.891,16.0908,0.0,0.0
420,104.75,140.1,186.04,82.4518,100.22,16.2746,0.161525,2.97395,16.6249,880.671,16.3044,0.0,0.0
423,105.5,141.14,187.942,79.3415,100.151,16.3796,0.162448,2.98975,16.6046,880.231,16.2405,0.0,0.0
426,106.25,142.526,189.489,74.3046,100.087,15.716,0.163342,3.00571,16.5861,880.07,16.6057,0.0,0.0
429,107,143.697,191.192,75.0473,100.024,16.2738,0.164114,3.02164,16.5696,879.73,16.2873,0.0,0.0
432,107.75,144.844,192.644,88.5901,99.9729,18.5746,0.164817,3.03325,16.5524,879.48,15.0966,0.0,0.0
435,108.5,146.656,194.505,77.5814,99.908,15.6075,0.165484,3.05523,16.5271,879.19,16.6518,0.0,0.0
438,109.25,147.204,196.116,90.2533,99.8353,18.0769,0.166407,3.07918,16.494,878.869,15.3278,0.0,0.0
441,110,148.119,197.56,81.297,99.7863,15.2269,0.167528,3.10001,16.4603,878.649,16.8624,0.0,0.0
444,110.75,149.808,199.297,84.1311,99.7242,16.6598,0.168771,3.12197,16.4302,878.379,16.0501,0.0,0.0
447,111.5,150.686,200.734,85.8942,99.6646,17.6669,0.170079,3.14265,16.3989,877.979,15.5183,0.0,0.0
450,112.25,151.912,202.269,82.4465,99.598,15.0102,0.171282,3.15972,16.3699,877.768,16.974,0.0,0.0
453,113,152.315,203.334,78.8011,99.5551,19.0014,0.172265,3.18313,16.3452,877.388,14.8553,0.0,0.0
456,113.75,153.177,204.593,70.6669,99.4922,15.7672,0.172716,3.20323,16.3272,877.098,16.5231,0.0,0.0
459,114.5,155.143,206.881,89.8113,99.4321,15.9207,0.172931,3.21693,16.3141,876.908,16.4308,0.0,0.0
462,115.25,156.392,208.656,87.1933,99.3611,14.652,0.172546,3.22304,16.3041,876.598,17.1692,0.0,0.0
465,116,158.064,210.875,86.4758,99.3133,16.3637,0.172056,3.22054,16.2966,876.307,16.1739,0.0,0.0
468,116.75,158.703,211.486,86.6514,99.2577,16.1668,0.171519,3.21575,16.2911,876.077,16.2775,0.0,0.0
471,117.5,159.331,212.216,74.1779,99.2046,14.804,0.170855,3.2159,16.2878,875.797,17.0626,0.0,0.0
474,118.25,160.183,213.472,69.4037,99.1524,14.7861,0.170171,3.2186,16.2961,875.487,17.0686,0.0,0.0
477,119,161.082,214.673,79.8018,99.125,16.3133,0.169193,3.22234,16.3036,875.136,16.1845,0.0,0.0
480,119.75,161.847,215.565,70.7463,99.1041,15.4214,0.16848,3.21816,16.3095,874.916,16.687,0.0,0.0
483,120.5,163.271,217.388,86.8475,99.0711,16.8998,0.166922,3.20929,16.321,874.726,15.8629,0.0,0.0
486,121.25,164.123,218.553,76.6372,99.0441,15.7707,0.16582,3.19677,16.329,874.496,16.4807,0.0,0.0
489,122,164.423,218.995,76.8868,99.0359,15.1106,0.164154,3.18156,16.3535,874.175,16.8634,0.0,0.0
492,122.75,165.351,220.059,78.2622,99.0298,16.33,0.16172,3.15781,16.3977,873.935,16.1668,0.0,0.0
495,123.5,166.016,221.124,79.6155,99.0319,16.4319,0.160406,3.13511,16.417,873.605,16.1111,0.0,0.0
498,124.25,166.364,221.278,84.0914,99.0245,17.7048,0.158504,3.11015,16.4684,873.385,15.4412,0.0,0.0
501,125,167.498,222.518,83.0953,99.0404,16.161,0.155613,3.07505,16.5363,873.124,16.261,0.0,0.0
504,125.75,168.126,222.743,78.6607,99.0715,17.094,0.153609,3.0213,16.5639,872.944,15.7604,0.0,0.0
507,126.5,169.642,224.709,88.4344,99.1262,17.3494,0.151293,2.99152,16.6295,872.674,15.6323,0.0,0.0
510,127.25,169.293,224.54,96.5999,99.1323,17.749,0.14821,2.93925,16.6773,872.374,15.4286,0.0,0.0
513,128,169.316,224.44,95.1474,99.1654,18.4494,0.145367,2.86956,16.7393,872.184,15.0845,0.0,0.0
516,128.75,169.602,224.6,91.4455,99.1981,20.4995,0.141766,2.82856,16.7961,872.003,14.1424,0.0,0.0
519,129.5,170.31,225.187,89.0832,99.2765,20.9584,0.137992,2.76865,16.8853,871.803,13.9509,0.0,0.0
522,130.25,170.67,225.232,91.0601,99.3402,22.5771,0.134388,2.70355,16.9789,871.533,13.2893,0.0,0.0
525,131,170.651,225.047,86.6964,99.4064,21.6294,0.130386,2.65609,17.1011,871.293,13.6799,0.0,0.0
528,131.75,170.957,225.161,92.7385,99.4595,20.8747,0.126923,2.57375,17.208,871.113,14.0033,0.0,0.0
531,132.5,170.887,224.799,95.6794,99.5498,23.5984,0.123468,2.49554,17.3387,870.932,12.9114,0.0,0.0
534,133.25,171.125,224.618,101.315,99.6106,22.9895,0.118991,2.42055,17.462,870.762,13.1513,0.0,0.0
537,134,171.084,224.214,92.4225,99.6854,23.974,0.115727,2.34841,17.5639,870.482,12.7819,0.0,0.0
540,134.75,170.827,223.531,95.829,99.7667,24.3551,0.11101,2.26534,17.6729,870.382,12.6478,0.0,0.0
543,135.5,170.474,222.92,102.735,99.841,26.0036,0.106855,2.1923,17.7672,870.142,12.0671,0.0,0.0
546,136.25,170.007,221.773,101.289,99.9182,25.7698,0.102052,2.11771,17.8835,870.002,12.155,0.0,0.0
549,137,170.082,221.142,89.8976,99.9811,29.6269,0.0976096,2.03079,18.0071,869.862,10.9096,0.0,0.0
552,137.75,169.5,219.962,95.7847,100.046,30.8405,0.0929109,1.96743,18.1382,869.721,10.5553,0.0,0.0
555,138.5,168.814,218.962,98.5669,100.127,27.9168,0.0884806,1.88325,18.269,869.521,11.4559,0.0,0.0
558,139.25,168.633,217.978,97.1884,100.158,28.2385,0.0859159,1.80114,18.3572,869.421,11.3559,0.0,0.0
561,140,167.628,216.438,105.236,100.226,30.232,0.0815765,1.71401,18.4877,869.191,10.7502,0.0,0.0
564,140.75,166.552,214.606,104.751,100.288,29.9545,0.0776363,1.64264,18.5949,869.121,10.8384,0.0,0.0
567,141.5,166.823,213.697,103.143,100.331,34.1496,0.0734355,1.56513,18.7099,869.021,9.66665,0.0,0.0
570,142.25,165.907,212.414,107.499,100.36,35.9237,0.0688703,1.50836,18.8178,868.841,9.21498,0.0,0.0
573,143,164.581,210.401,110.049,100.404,33.4468,0.0649515,1.44277,18.9067,868.791,9.85965,0.0,0.0
576,143.75,164.355,209.536,108.58,100.423,36.2326,0.0610844,1.36725,19.0097,868.721,9.14376,0.0,0.0
579,144.5,162.873,207.176,113.142,100.45,38.7827,0.0569269,1.3007,19.1203,868.581,8.53611,0.0,0.0
582,145.25,162.393,205.923,110.308,100.471,37.8315,0.0533249,1.23253,19.2162,868.49,8.76073,0.0,0.0
585,146,160.718,203.66,114.262,100.472,38.2043,0.0497222,1.15807,19.315,868.36,8.67287,0.0,0.0
588,146.75,159.801,201.741,123.817,100.465,40.9823,0.04591,1.093,19.431,868.28,8.04266,0.0,0.0
591,147.5,158.464,199.624,120.712,100.494,40.2936,0.0431309,1.02713,19.5291,868.19,8.19728,0.0,0.0
594,148.25,156.894,197.396,124.058,100.494,46.3616,0.0394552,0.951264,19.6291,868.14,6.93905,0.0,0.0
597,149,155.689,195.421,123.383,100.492,47.3186,0.036054,0.884426,19.7338,868.1,6.75556,0.0,0.0
600,149.75,154.646,193.256,129.525,100.486,53.5614,0.0329535,0.815983,19.8438,868.06,5.64346,0.0,0.0
603,150.5,153.208,191.232,129.27,100.478,62.1462,0.0301574,0.735739,19.924,868.05,4.30936,0.0,0.0
606,151.25,151.667,188.569,128.925,100.485,66.1607,0.028119,0.66533,20.0238,868.03,3.74852,0.0,0.0
609,152,150.205,186.196,131.808,100.46,71.3872,0.0258965,0.593633,20.1319,867.99,3.06433,0.0,0.0
612,152.75,148.643,183.734,136.659,100.422,80.2018,0.0241864,0.526395,20.2388,868.01,2.01667,0.0,0.0
615,153.5,147.105,181.122,136.644,100.414,87.6606,0.02293,0.470996,20.3392,868.02,1.21836,0.0,0.0
618,154.25,145.725,178.388,142.639,100.392,90.0529,0.0220631,0.412322,20.4416,868.03,0.974812,0.0,0.0
621,155,143.716,176.464,140.775,100.368,89.4324,0.0214966,0.357157,20.5247,868.03,1.03475,0.0,0.0
624,155.75,141.279,172.955,139.826,100.325,90.3549,0.0212855,0.309086,20.5773,868.02,0.938874,0.0,0.0
627,156.5,140.056,170.338,138.109,100.318,90.3332,0.0211676,0.266684,20.6422,868.01,0.940371,0.0,0.0
630,157.25,138.52,168.54,138.817,100.298,89.9018,0.021186,0.2334,20.6968,868,0.981558,0.0,0.0
633,158,136.422,165.694,139.098,100.265,89.5692,0.021286,0.205078,20.7448,868.01,1.0118,0.0,0.0
636,158.75,135.948,163.708,142.776,100.233,90.2964,0.0214629,0.189194,20.7843,868.02,0.93643,0.0,0.0
639,159.5,134.082,161.673,138.623,100.224,89.5475,0.0216373,0.169035,20.8164,868.01,1.01032,0.0,0.0
642,160.25,132.303,158.484,138.628,100.211,89.8816,0.0217831,0.152816,20.8421,868,0.975711,0.0,0.0
645,161,130.741,156.756,142.327,100.194,90.7607,0.0218882,0.139827,20.8635,868,0.886874,0.0,0.0
648,161.75,128.739,154.847,138.127,100.198,89.606,0.0218877,0.129046,20.8797,867.99,1.00209,0.0,0.0
651,162.5,127.988,152.874,139.03,100.33,89.0215,0.0218175,0.120447,20.8928,867.96,1.07266,0.0,0.0
654,163.25,126.307,150.425,139.375,100.438,91.2448,0.0217032,0.113211,20.9042,867.97,0.861033,0.0,0.0
657,164,125.038,148.504,140.259,100.531,90.446,0.0215063,0.107616,20.913,867.97,0.948185,0.0,0.0
660,164.75,123.894,147.071,138.407,100.609,89.4614,0.0213044,0.102992,20.9202,867.94,1.05331,0.0,0.0
663,165.5,122.193,144.52,141.854,100.697,89.6944,0.0210574,0.0991417,20.9267,867.96,1.03785,0.0,0.0
666,166.25,120.873,143.292,139.46,100.773,90.5805,0.0207117,0.0959158,20.9318,867.97,0.956405,0.0,0.0
669,167,120.489,141.249,136.305,100.829,90.9576,0.0203808,0.0931967,20.9361,867.99,0.924189,0.0,0.0
672,167.75,119.046,139.752,141.46,100.872,90.6386,0.0200048,0.0906341,20.9404,867.99,0.959444,0.0,0.0
675,168.5,117.856,137.997,139.391,100.915,90.7952,0.0195354,0.088513,20.9441,867.98,0.947846,0.0,0.0
678,169.25,116.696,136.046,139.713,100.964,90.6479,0.0191099,0.0868588,20.9475,867.99,0.966765,0.0,0.0
681,170,115.652,134.956,137.421,100.978,90.4161,0.0185474,0.0852724,20.9505,867.98,0.990926,0.0,0.0
684,170.75,114.56,132.943,139.272,100.993,91.2131,0.0179383,0.0839238,20.9531,867.95,0.913558,0.0,0.0
687,171.5,113.092,131.641,142.415,100.996,91.4297,0.0173046,0.0826122,20.9554,867.96,0.89253,0.0,0.0
690,172.25,112.004,130.228,136.88,100.999,91.0006,0.0163883,0.0813055,20.9583,867.97,0.934978,0.0,0.0
693,173,111.198,128.172,142.58,100.997,90.7592,0.0159183,0.0800191,20.9594,867.96,0.958666,0.0,0.0
696,173.75,110.169,126.874,142.708,100.966,91.1286,0.0153753,0.078766,20.9619,867.94,0.919513,0.0,0.0
699,174.5,109.101,125.465,143.186,100.937,91.3669,0.0146017,0.0773731,20.9632,867.93,0.893504,0.0,0.0
702,175.25,107.598,123.165,142.183,100.923,91.2755,0.0140377,0.0757453,20.9634,867.95,0.901255,0.0,0.0
705,176,107.362,122.723,141.513,100.893,91.1313,0.0133923,0.0751048,20.9637,867.94,0.912748,0.0,0.0
708,176.75,106.059,120.898,139.161,100.853,91.3301,0.0128219,0.0740013,20.9643,867.93,0.889639,0.0,0.0
711,177.5,104.948,119.774,138.937,100.802,90.703,0.0121726,0.0730418,20.9651,867.94,0.946866,0.0,0.0
714,178.25,104.53,118.6,143.667,100.757,90.4332,0.0115583,0.072006,20.9665,867.92,0.96962,0.0,0.0
717,179,103.744,117.607,142.148,100.712,90.465,0.010982,0.0711076,20.9687,867.9,0.962468,0.0,0.0
720,179.75,102.362,115.757,142.042,100.646,90.6324,0.0104448,0.0700344,20.9709,867.9,0.939986,0.0,0.0
723,180.5,101.457,114.567,142.619,100.577,89.8456,0.0098739,0.0691198,20.973,867.91,1.01208,0.0,0.0
726,181.25,100.816,113.55,140.326,100.517,90.006,0.0093401,0.068227,20.9749,867.91,0.990681,0.0,0.0
729,182,99.6777,112.434,142.107,100.457,90.7107,0.00890084,0.0672379,20.9767,867.9,0.915408,0.0,0.0
732,182.75,98.99,111.161,140.326,100.389,90.4727,0.00841451,0.0662799,20.9783,867.9,0.932878,0.0,0.0
735,183.5,97.8926,110.067,143.339,100.374,90.6747,0.00792706,0.0653924,20.9798,867.89,0.91153,0.0,0.0
738,184.25,97.0388,108.699,141.475,100.397,90.7541,0.00746547,0.0645949,20.9809,867.88,0.905754,0.0,0.0
741,185,96.7663,107.422,138.2,100.413,90.0324,0.00698483,0.0638185,20.982,867.92,0.978793,0.0,0.0
744,185.75,95.9891,106.392,138.312,100.437,90.8855,0.00657803,0.0631693,20.9832,867.91,0.896351,0.0,0.0
747,186.5,95.1096,105.27,142.131,100.447,89.5959,0.00618502,0.062418,20.9846,867.92,1.02541,0.0,0.0
750,187.25,94.3138,104.38,143.125,100.493,90.0382,0.00575333,0.061797,20.9857,867.89,0.985324,0.0,0.0
753,188,93.6809,103.827,143.127,100.511,90.0351,0.00537518,0.0612191,20.9865,867.91,0.987238,0.0,0.0
756,188.75,92.7512,102.037,140.551,100.541,91.2452,0.00499103,0.0605992,20.9877,867.9,0.870146,0.0,0.0
759,189.5,91.8722,101.203,139.879,100.547,90.8293,0.00464377,0.0599109,20.9886,867.86,0.911671,0.0,0.0
762,190.25,91.3954,100.121,143.038,100.572,91.2898,0.00427565,0.0593082,20.9893,867.87,0.868535,0.0,0.0
765,191,90.1527,99.5488,143.95,100.613,91.0634,0.00390116,0.0586705,20.9902,867.86,0.894446,0.0,0.0
768,191.75,89.8388,98.2713,142.542,100.631,91.2491,0.00355765,0.0581325,20.991,867.87,0.877778,0.0,0.0
771,192.5,89.4114,97.5504,143.052,100.644,91.096,0.00324742,0.0576152,20.9916,867.87,0.894042,0.0,0.0
774,193.25,88.5536,96.7562,140.811,100.675,90.2103,0.00297036,0.0570434,20.9927,867.88,0.984478,0.0,0.0
777,194,88.212,96.0491,143.817,100.713,91.108,0.00269678,0.0564925,20.994,867.86,0.898973,0.0,0.0
780,194.75,87.5257,94.6862,140.321,100.744,90.6134,0.00246475,0.0560034,20.9951,867.88,0.950562,0.0,0.0
783,195.5,86.5825,94.0468,144.892,100.748,90.9972,0.00228171,0.0555477,20.9959,867.89,0.913022,0.0,0.0
786,196.25,86.3592,92.9072,142.535,100.76,90.0409,0.0021082,0.0551717,20.9964,867.88,1.00883,0.0,0.0
789,197,85.4751,92.4937,145.132,100.798,90.8964,0.00196462,0.0548225,20.9973,867.89,0.927432,0.0,0.0
792,197.75,84.8166,91.432,138.283,100.816,91.1755,0.0018323,0.054469,20.9981,867.89,0.901571,0.0,0.0
795,198.5,84.3769,90.3264,140.9,100.841,91.6693,0.00168856,0.0541279,20.9991,867.9,0.855267,0.0,0.0
798,199.25,83.2726,89.8296,138.949,100.847,90.5987,0.00154278,0.0538438,20.9997,867.9,0.96118,0.0,0.0
801,200,83.182,89.2648,145.2,100.872,91.7185,0.00141654,0.0536366,21.0002,867.9,0.853284,0.0,0.0
804,200.75,82.7588,88.4381,142.966,100.89,90.0882,0.00130744,0.0534064,21.0006,867.89,1.01571,0.0,0.0
807,201.5,81.9279,87.5503,142.922,100.906,91.8464,0.00124145,0.0531691,21.0008,867.89,0.843797,0.0,0.0
810,202.25,81.6361,86.7952,140.4,100.912,91.1483,0.00115023,0.052952,21.001,867.88,0.912777,0.0,0.0
813,203,81.0572,86.3052,142.461,100.935,92.0026,0.00107736,0.0527687,21.0012,867.9,0.831133,0.0,0.0
816,203.75,80.2075,85.8467,141.975,100.957,92.1999,0.00101799,0.0525955,21.0015,867.89,0.813844,0.0,0.0
819,204.5,79.7517,84.6078,145.127,100.961,91.4146,0.000972058,0.0524778,21.0022,867.87,0.890893,0.0,0.0
822,205.25,79.5014,84.4042,140.104,100.964,91.5712,0.000938572,0.0523042,21.0026,867.88,0.875869,0.0,0.0
825,206,78.9877,83.8798,140.242,100.981,92.2189,0.000921276,0.0521222,21.003,867.88,0.8141,0.0,0.0
828,206.75,78.0687,83.1685,142.068,101.001,90.8755,0.000910637,0.0519658,21.0032,867.89,0.947508,0.0,0.0
831,207.5,77.5822,81.9508,143.988,101.014,91.2995,0.000907547,0.0518123,21.0034,867.86,0.906913,0.0,0.0
834,208.25,77.4286,81.5036,146.227,101.018,91.879,0.000907525,0.0516864,21.0036,867.88,0.850526,0.0,0.0
837,209,77.0892,80.8383,140.773,101.03,91.898,0.000902904,0.0515742,21.0039,867.87,0.849722,0.0,0.0
840,209.75,76.7026,80.6423,139.391,101.03,91.8135,0.000891677,0.0514674,21.0048,867.89,0.858011,0.0,0.0
843,210.5,76.2253,80.0284,146.678,101.057,91.5162,0.000869713,0.0512522,21.0054,867.89,0.889531,0.0,0.0
846,211.25,75.3455,79.1527,140.573,101.041,91.0394,0.000817679,0.0511422,21.0059,867.86,0.934931,0.0,0.0
849,212,75.2276,79.042,141.068,101.05,91.3448,0.000758443,0.0509558,21.0062,867.87,0.905685,0.0,0.0
852,212.75,74.7707,78.5527,141.17,101.052,91.3673,0.000679158,0.0508198,21.0067,867.89,0.903696,0.0,0.0
855,213.5,74.3597,77.6064,143.466,101.071,91.741,0.000582409,0.0507208,21.0074,867.87,0.868721,0.0,0.0
858,214.25,73.6623,77.2726,141.429,101.077,92.4751,0.000471589,0.0506485,21.008,867.86,0.797737,0.0,0.0
861,215,73.4918,76.9759,142.919,101.064,92.6422,0.000346505,0.0505959,21.0084,867.87,0.780425,0.0,0.0
864,215.75,72.8606,75.7773,146.481,101.081,91.0944,0.000235453,0.0505575,21.0087,867.86,0.933098,0.0,0.0
867,216.5,72.7135,75.7225,141.821,101.089,90.8204,0.000146027,0.0505156,21.0089,867.89,0.960773,0.0,0.0
870,217.25,72.7981,74.7044,140.354,101.104,91.6332,7.09023e-05,0.0504646,21.009,867.88,0.882234,0.0,0.0
873,218,71.9196,74.1148,140.613,101.076,91.6549,1.91065e-05,0.0503733,21.0092,867.85,0.877608,0.0,0.0
876,218.75,71.5785,73.9834,143.821,101.085,92.2026,-6.33341e-06,0.0502567,21.0092,867.86,0.824931,0.0,0.0
879,219.5,70.6011,73.556,142.98,101.088,91.7398,4.92305e-06,0.0501718,21.0093,867.89,0.870356,0.0,0.0
882,220.25,70.7077,73.2917,142.156,101.085,92.3852,2.58341e-05,0.0501098,21.0093,867.88,0.807189,0.0,0.0
885,221,69.9699,72.7973,143.654,101.07,91.3146,5.80834e-05,0.0500361,21.0091,867.88,0.910431,0.0,0.0
888,221.75,69.6706,72.114,143.29,101.081,92.5891,0.000110672,0.0499702,21.008,867.9,0.78709,0.0,0.0
891,222.5,69.7266,72.0701,141.116,101.083,92.4809,0.000166744,0.0498233,21.0071,867.89,0.797754,0.0,0.0
894,223.25,69.1737,71.0658,143.374,101.084,92.1887,0.000211169,0.0497162,21.007,867.87,0.826216,0.0,0.0
897,224,68.2646,71.2083,144.692,101.07,92.3298,0.000243555,0.0495392,21.0071,867.87,0.811303,0.0,0.0
900,224.75,68.7578,70.4871,141.645,101.061,92.0732,0.000238788,0.0493825,21.0071,867.85,0.835467,0.0,0.0
903,225.5,68.2504,69.7408,138.901,101.095,91.0037,0.000217915,0.0492491,21.0072,867.87,0.943265,0.0,0.0
906,226.25,67.5127,69.163,142.14,101.087,92.06,0.000202046,0.0491394,21.0072,867.88,0.839035,0.0,0.0
909,227,67.6839,69.0101,143.336,101.077,91.9534,0.000171309,0.0490456,21.0072,867.88,0.848484,0.0,0.0
912,227.75,67.0595,68.5472,141.914,101.064,91.5216,0.000148901,0.0489713,21.0072,867.9,0.88958,0.0,0.0
915,228.5,67.0865,68.3307,143.903,101.065,91.7336,0.000132566,0.0488578,21.0072,867.92,0.868896,0.0,0.0
918,229.25,66.6461,67.9226,140.453,101.062,91.603,0.000118886,0.0487779,21.0072,867.92,0.881424,0.0,0.0
921,230,66.6642,67.5666,141.725,101.06,91.7224,0.000107671,0.0486356,21.0073,867.9,0.86956,0.0,0.0
924,230.75,65.7966,67.044,141.603,101.053,92.6833,9.89653e-05,0.0484944,21.0073,867.91,0.775505,0.0,0.0
927,231.5,65.9079,67.1333,140.433,101.064,92.2437,0.00010877,0.0483915,21.0073,867.9,0.819087,0.0,0.0
930,232.25,65.098,66.2957,138.798,101.061,91.6053,0.00013652,0.0483165,21.0073,867.89,0.881088,0.0,0.0
933,233,64.9816,66.0561,142.087,101.061,92.2019,0.000151029,0.0482223,21.0073,867.88,0.822868,0.0,0.0
936,233.75,64.191,65.6253,143.115,101.044,92.6809,0.00017311,0.0481463,21.0073,867.89,0.774933,0.0,0.0
939,234.5,64.3586,65.4861,144.096,101.05,92.0456,0.000192936,0.0480785,21.0075,867.87,0.837134,0.0,0.0
942,235.25,64.1431,64.8654,140.905,101.051,92.4383,0.000208979,0.0480152,21.0081,867.87,0.799026,0.0,0.0
945,236,63.2322,64.2644,143.093,101.028,91.6573,0.000220675,0.0479558,21.0085,867.88,0.873102,0.0,0.0
948,236.75,63.4108,63.9497,147.636,101.034,92.2991,0.000218563,0.0479,21.0088,867.89,0.811015,0.0,0.0
951,237.5,63.7249,64.4282,140.684,101.021,92.3007,0.000220295,0.0478396,21.009,867.89,0.80974,0.0,0.0
954,238.25,62.7744,63.3854,141.578,101.026,93.5383,0.000227151,0.0478154,21.0092,867.89,0.690742,0.0,0.0
957,239,62.8796,63.589,141.206,101.013,92.303,0.000254534,0.0477838,21.0093,867.91,0.808825,0.0,0.0
960,239.75,62.9311,63.2057,141.593,101.002,91.8232,0.000284038,0.0477549,21.0094,867.89,0.854598,0.0,0.0
963,240.5,62.3263,62.886,141.737,101.002,91.5728,0.000328617,0.0477141,21.0094,867.9,0.879054,0.0,0.0
966,241.25,62.2316,62.8897,143.556,101.008,91.9344,0.000347428,0.0476624,21.0095,867.9,0.844283,0.0,0.0
969,242,62.1989,61.9947,142.017,101.002,91.9604,0.000337636,0.0475874,21.0095,867.88,0.841168,0.0,0.0
972,242.75,61.6693,62.4406,144.327,100.968,92.3522,0.000300282,0.0474911,21.0095,867.9,0.79998,0.0,0.0
975,243.5,61.547,61.7718,142.35,100.969,92.9085,0.000242981,0.0474031,21.0096,867.89,0.746229,0.0,0.0
978,244.25,61.6022,61.6184,143.651,100.971,91.689,0.000149787,0.0473193,21.009,867.88,0.864914,0.0,0.0
981,245,60.9398,61.1059,142.925,100.966,93.2976,7.53139e-05,0.0472582,21.0087,867.9,0.708484,0.0,0.0
984,245.75,60.9298,61.2326,145.648,100.961,92.4123,9.84858e-06,0.0472136,21.0084,867.9,0.793602,0.0,0.0
987,246.5,60.5528,61.0511,143.078,100.954,92.7437,-3.61044e-05,0.0472602,21.0082,867.92,0.760805,0.0,0.0
990,247.25,60.4638,60.4418,140.215,100.953,92.0088,-8.20203e-05,0.0472722,21.008,867.91,0.832089,0.0,0.0
993,248,60.3205,60.4249,144.133,100.936,93.2092,-0.000129281,0.0472436,21.0079,867.93,0.714299,0.0,0.0
996,248.75,60.3398,59.7164,141.287,100.921,92.5209,-0.000178261,0.0471812,21.0078,867.93,0.779445,0.0,0.0
999,249.5,59.8325,59.8913,141.669,100.912,92.4143,-0.000231351,0.0471107,21.0078,867.91,0.789059,0.0,0.0
1002,250.25,59.5792,59.691,141.113,100.915,92.3596,-0.000277463,0.0470468,21.0077,867.9,0.794619,0.0,0.0
1005,251,59.2606,59.4223,141.835,100.907,92.6798,-0.000314621,0.047028,21.0077,867.86,0.762891,0.0,0.0
1008,251.75,58.9755,58.9622,145.775,100.895,92.6348,-0.000341709,0.0470115,21.0077,867.85,0.766154,0.0,0.0
1011,252.5,59.1316,58.4226,142.689,100.881,93.0658,-0.000318953,0.0469745,21.0077,867.85,0.723246,0.0,0.0
1014,253.25,58.9723,58.7855,143.362,100.883,92.879,-0.000272258,0.0469752,21.0077,867.88,0.74145,0.0,0.0
1017,254,58.6147,58.4249,144.321,100.877,92.5236,-0.000227762,0.0469876,21.0076,867.88,0.775297,0.0,0.0
1020,254.75,58.2584,58.1966,145.217,100.874,92.8468,-0.000177446,0.0470361,21.0083,867.88,0.74376,0.0,0.0
1023,255.5,58.235,58.0437,143.379,100.85,91.7941,-0.000138995,0.0470715,21.0087,867.86,0.843898,0.0,0.0
1026,256.25,57.8517,57.3998,143.942,100.838,93.1065,-0.000129587,0.0470973,21.0091,867.87,0.715473,0.0,0.0
1029,257,57.8824,57.4555,144.599,100.844,92.7274,-0.000142432,0.0471951,21.0093,867.84,0.752648,0.0,0.0
1032,257.75,57.37,57.3538,140.507,100.826,92.8088,-0.000171909,0.0473219,21.0089,867.83,0.743179,0.0,0.0
1035,258.5,57.6961,56.7834,142.201,100.818,91.9743,-0.000224439,0.0474525,21.0085,867.82,0.823434,0.0,0.0
1038,259.25,57.2926,56.3753,140.594,100.795,92.41,-0.00028054,0.0475727,21.0083,867.82,0.779011,0.0,0.0
1041,260,56.9632,56.4803,140.688,100.8,91.7921,-0.000329261,0.0476998,21.0081,867.84,0.839618,0.0,0.0
1044,260.75,57.0219,56.4285,143.512,100.785,92.4174,-0.000352362,0.0478217,21.008,867.87,0.777387,0.0,0.0
1047,261.5,56.6084,56.3669,142.632,100.76,92.0681,-0.000363909,0.0479604,21.0079,867.85,0.809165,0.0,0.0
1050,262.25,55.5406,55.6113,139.662,100.756,92.7592,-0.000342221,0.0480615,21.0078,867.84,0.741759,0.0,0.0
1053,263,56.0044,55.8394,141.535,100.76,93.1685,-0.000312753,0.0481207,21.0078,867.83,0.702558,0.0,0.0
1056,263.75,56.0318,55.7328,142.18,100.755,93.0034,,0.0481388,,867.84,0.718033,0.0,0.0
1059,264.5,56.2594,55.2194,145.714,100.74,92.7302,,0.0481521,,867.83,0.743152,0.0,0.0
1062,265.25,55.2933,54.9087,148.836,100.73,93.6887,,0.0481544,,867.83,0.650001,0.0,0.0
1065,266,55.8349,54.8654,142.739,100.735,92.7511,,0.0481437,,867.84,0.740656,0.0,0.0
1068,266.75,55.5955,54.5949,143.114,100.724,91.8328,,,,867.86,0.828916,0.0,0.0
1071,267.5,55.4994,54.68,143.037,100.702,92.6232,,,,867.85,0.750125,0.0,0.0
1074,268.25,55.2658,54.8929,138.38,100.699,91.229,,,,867.82,0.885875,0.0,0.0
1077,269,55.1632,54.2819,140.603,100.699,93.1011,,,,867.84,0.703671,0.0,0.0
1080,269.75,54.8749,54.0481,143.457,100.691,92.3185,,,,867.86,0.77862,0.0,0.0
1083,270.5,55.1838,54.0975,140.719,100.676,92.9972,,,,867.84,0.711647,0.0,0.0
1086,271.25,54.6143,53.5217,143.195,100.653,92.0929,,,,867.85,0.79718,0.0,0.0
1089,272,55.0267,54.3133,139.606,100.654,92.5092,,,,867.87,0.756835,0.0,0.0
1092,272.75,54.4921,53.7844,142.435,100.653,93.2441,,,,867.86,0.685826,0.0,0.0
1095,273.5,54.4654,53.1297,144.579,100.635,92.0507,,,,867.84,0.799768,0.0,0.0
1098,274.25,54.0756,53.2704,145.817,100.623,93.1073,,,,867.85,0.696303,0.0,0.0