File: 01_Data/HIPS/Cone/HIPS_Cone_HF25Scan_220218_R1.csv
Names,Time,Stack TC,Smoke TC,Exh Press,Smoke Comp,Smoke Meas,CO Meter,CO2 Meter,O2 Meter,Sample Mass,Ext Coeff,Start Test,Flame Verif
Chan Gain,,500,500,1,1,1,1,1,1,1,1,1.0,1.0
Offset,,0,0,0.134285,0,0,0,0,0,0,0,0.0,0.0
Gain,,1,1,25.011,13.3843,12.7012,1,1,1,1.00088,1.02252,1.0,1.0
Units,sec,C,C,Pa,%,%,%,%,%,g,/m,,
Baseline,,18.6392,19.6947,155.763,100.675,98.6251,0.000165577,0.0518636,21.0047,-0.0026273,0.184579,,
4,0.75,17.3491,18.0757,159.795,100.992,98.7633,0.000107467,0.0584067,20.9934,901.339,0.200196,0.0,0.0
8,1.75,17.9174,19.0434,151.482,100.96,98.2447,0.000124139,0.0581325,20.9933,901.329,0.244518,0.0,0.0
12,2.75,17.9766,18.6983,157.616,100.871,98.3509,0.000109183,0.0577543,20.9936,901.349,0.226949,0.0,0.0
16,3.75,17.5781,18.3152,152.298,100.747,98.4889,8.66329e-05,0.0573796,20.9941,901.349,0.203361,0.0,0.0
20,4.75,17.2551,18.3738,156.819,100.582,98.1644,6.4122e-05,0.056948,20.9945,901.359,0.218253,0.0,0.0
24,5.75,17.5068,18.7331,153.871,100.376,97.9567,6.2306e-05,0.056625,20.9948,901.349,0.218806,0.0,0.0
28,6.75,17.8861,18.6275,152.731,100.347,98.0625,7.11241e-05,0.0564159,20.995,901.349,0.206603,0.0,0.0
32,7.75,17.7889,18.5943,156.529,100.426,97.904,7.51562e-05,0.0561721,20.9951,901.349,0.22816,0.0,0.0
36,8.75,18.5306,18.5124,153.824,100.517,98.0881,4.94416e-05,0.055987,20.9952,901.329,0.219439,0.0,0.0
40,9.75,17.7975,18.5725,159.391,100.604,98.3334,2.28764e-06,0.0558061,20.9953,901.309,0.204718,0.0,0.0
44,10.75,17.7997,18.567,154.706,100.704,98.499,-7.58309e-05,0.0556714,20.9954,901.319,0.198588,0.0,0.0
48,11.75,17.7149,19.0989,154.155,100.804,98.6858,-0.000175756,0.0555969,20.9956,901.289,0.1905,0.0,0.0
52,12.75,17.7523,18.6138,153.781,100.9,98.6742,-0.000262897,0.0555593,20.9949,901.279,0.200058,0.0,0.0
56,13.75,17.902,18.4126,152.967,100.986,98.8497,-0.000310507,0.0557358,20.9945,901.279,0.191806,0.0,0.0
60,14.75,17.4719,18.7331,153.81,101.027,98.773,-0.000302785,0.0559212,20.9942,901.289,0.202399,0.0,0.0
64,15.75,17.7403,18.8251,156.546,101.072,98.7544,-0.000224314,0.0561388,20.9941,901.309,0.208041,0.0,0.0
68,16.75,17.7522,18.7823,160.281,101.05,99.0722,-0.000109059,0.0563756,20.9935,901.289,0.177261,0.0,0.0
72,17.75,17.9162,18.3796,156.889,101.026,98.8691,1.91736e-05,0.0566278,20.9928,901.299,0.193602,0.0,0.0
76,18.75,17.3554,18.5499,155.114,100.956,98.6431,0.000125262,0.0568867,20.9923,901.319,0.207886,0.0,0.0
80,19.75,17.6349,18.8094,151.617,100.887,98.5261,0.000199982,0.057154,20.992,901.289,0.212437,0.0,0.0
84,20.75,17.8325,18.8656,155.486,100.753,98.5323,0.000251446,0.0574877,20.9915,901.329,0.199918,0.0,0.0
88,21.75,17.9678,18.3796,160.24,100.608,98.4877,0.000290001,0.0579269,20.9907,901.319,0.191022,0.0,0.0
92,22.75,17.6729,18.674,158.821,100.446,98.1699,0.000331059,0.0584473,20.9901,901.309,0.205583,0.0,0.0
96,23.75,17.9908,18.9766,156.997,100.246,98.1621,0.000353494,0.0594187,20.9891,901.309,0.188438,0.0,0.0
100,24.75,18.1482,18.7513,158.627,100.055,97.9416,0.000338946,0.060725,20.9864,901.309,0.191492,0.0,0.0
104,25.75,17.9755,19.2678,155.568,99.8676,97.6117,0.000293395,0.0628217,20.9825,901.319,0.204929,0.0,0.0
108,26.75,17.5593,19.1028,153.469,99.6674,97.5842,0.000241489,0.0652798,20.9805,901.319,0.189464,0.0,0.0
112,27.75,17.9017,19.1017,154.676,99.4652,97.2012,0.000166149,0.067675,20.9784,901.319,0.20652,0.0,0.0
116,28.75,18.2176,18.8465,151.401,99.2916,97.1834,7.84487e-05,0.069709,20.9764,901.299,0.192498,0.0,0.0
120,29.75,17.8531,18.9573,156.83,99.1479,96.7446,-4.58112e-06,0.0708163,20.9754,901.309,0.220088,0.0,0.0
124,30.75,17.5857,19.2096,154.558,99.0433,96.3225,-7.03553e-05,0.0717287,20.9753,901.299,0.249844,0.0,0.0
128,31.75,18.0406,19.1995,157.205,98.9269,96.6927,-0.000106674,0.0719221,20.9752,901.319,0.204891,0.0,0.0
132,32.75,18.159,19.3437,156.204,98.8742,96.0524,-0.000111377,0.0718212,20.9756,901.329,0.25971,0.0,0.0
136,33.75,17.8519,18.6281,155.216,98.864,96.4749,-6.47891e-05,0.0713754,20.9761,901.329,0.219416,0.0,0.0
140,34.75,18.2571,19.3476,156.877,98.8726,96.3671,6.01282e-06,0.070744,20.9759,901.319,0.230217,0.0,0.0
144,35.75,18.5398,19.4008,158.816,98.9244,96.3698,0.000117716,0.0702386,20.9765,901.319,0.23467,0.0,0.0
148,36.75,18.3068,19.341,157.699,99.0278,96.3683,0.000218104,0.0688456,20.9777,901.309,0.24418,0.0,0.0
152,37.75,18.3481,19.027,156.161,99.1442,96.8144,0.000297769,0.0674342,20.9794,901.309,0.213289,0.0,0.0
156,38.75,18.6,19.2651,157.204,99.31,96.5365,0.000353807,0.0660677,20.9821,901.319,0.254064,0.0,0.0
160,39.75,18.1275,18.9311,153.684,99.4632,97.0183,0.000373052,0.0647138,20.9839,901.329,0.223233,0.0,0.0
164,40.75,18.3061,19.5285,154.255,99.6294,96.9935,0.000358531,0.0635169,20.9851,901.329,0.240506,0.0,0.0
168,41.75,18.0314,19.4348,153.711,99.7961,97.1524,0.000301129,0.0625791,20.9853,901.309,0.240814,0.0,0.0
172,42.75,18.6129,19.2781,157.101,99.948,97.1342,0.000231098,0.0622113,20.9847,901.309,0.256141,0.0,0.0
176,43.75,18.3325,19.2058,156.18,100.115,97.4427,0.000174939,0.0623321,20.984,901.289,0.242638,0.0,0.0
180,44.75,18.4832,19.5582,154.152,100.263,97.6354,0.000125375,0.0628539,20.9831,901.309,0.238198,0.0,0.0
184,45.75,18.4719,19.4756,153.644,100.354,97.3024,7.09166e-05,0.0636974,20.9811,901.289,0.277019,0.0,0.0
188,46.75,18.2527,20.0852,155.892,100.433,97.3245,2.01122e-06,0.0649076,20.9788,901.289,0.282026,0.0,0.0
192,47.75,17.9684,19.3323,155.216,100.492,97.8075,-6.02941e-05,0.0662792,20.9762,901.289,0.242841,0.0,0.0
196,48.75,18.4534,19.1809,152.965,100.559,97.6768,-0.000157354,0.0678658,20.9744,901.289,0.260805,0.0,0.0
200,49.75,18.3252,19.3669,153.352,100.566,97.7044,-0.000223282,0.0692104,20.9733,901.299,0.25897,0.0,0.0
204,50.75,18.0991,19.8164,153.652,100.56,97.6222,-0.000241818,0.0703122,20.9725,901.309,0.265971,0.0,0.0
208,51.75,18.7697,19.2298,154.149,100.524,97.4443,-0.000222517,0.071234,20.9714,901.329,0.279053,0.0,0.0
212,52.75,18.7365,19.9129,155.271,100.48,97.2625,-0.000173898,0.0719963,20.9698,901.319,0.2919,0.0,0.0
216,53.75,18.2251,19.569,158.003,100.411,97.321,-0.000115435,0.0726602,20.9687,901.309,0.280377,0.0,0.0
220,54.75,18.6081,19.5722,149.366,100.346,97.2477,-5.9473e-05,0.0731692,20.9679,901.319,0.281329,0.0,0.0
224,55.75,18.7833,19.723,155.944,100.276,97.2361,2.75432e-06,0.0735678,20.9678,901.299,0.276083,0.0,0.0
228,56.75,18.666,19.9623,156.747,100.229,97.0667,3.82659e-05,0.0738634,20.9685,901.299,0.287519,0.0,0.0
232,57.75,18.7239,19.6742,154.206,100.403,97.3567,3.7106e-05,0.0738546,20.9691,901.299,0.276325,0.0,0.0
236,58.75,18.756,19.9552,151.979,100.626,97.0993,1.24416e-05,0.073569,20.9705,901.289,0.320006,0.0,0.0
240,59.75,18.2364,19.6271,157.259,100.813,97.7137,-1.73596e-05,0.0726992,20.972,901.279,0.280094,0.0,0.0
244,60.75,19.1773,19.7708,157.163,100.92,97.9396,-4.46069e-05,0.071572,20.974,901.289,0.268889,0.0,0.0
248,61.75,18.7048,19.7963,160.072,100.968,97.7931,-6.06457e-05,0.0703773,20.9759,901.289,0.286601,0.0,0.0
252,62.75,18.5023,19.8748,154.304,100.971,97.5195,-5.33978e-05,0.0691387,20.9772,901.309,0.31199,0.0,0.0
256,63.75,18.5913,20.129,150.342,100.906,97.5028,-2.47348e-05,0.0682249,20.9781,901.299,0.307716,0.0,0.0
260,64.75,18.5548,19.783,158.024,100.772,97.7183,2.3297e-05,0.0677265,20.9787,901.279,0.276032,0.0,0.0
264,65.75,18.4883,19.8001,154.703,100.599,96.9749,6.15568e-05,0.0676384,20.9778,901.279,0.329068,0.0,0.0
268,66.75,18.8277,19.4548,156.706,100.351,97.2012,9.55201e-05,0.0678543,20.9764,901.269,0.286022,0.0,0.0
272,67.75,18.3437,19.5783,153.464,100.368,97.1772,0.000137915,0.0682466,20.9751,901.289,0.289808,0.0,0.0
276,68.75,18.9071,20.1653,153.52,100.47,97.1481,0.000178351,0.0687159,20.9743,901.279,0.301614,0.0,0.0
280,69.75,19.1872,20.0174,156.461,100.573,96.9702,0.000222725,0.0690597,20.9738,901.269,0.327239,0.0,0.0
284,70.75,19.3584,20.0989,155.589,100.693,97.3373,0.000240141,0.0693612,20.9742,901.249,0.304018,0.0,0.0
288,71.75,18.5744,20.1759,154.963,100.834,97.2667,0.000223625,0.0693313,20.9745,901.239,0.323065,0.0,0.0
292,72.75,18.4726,19.6491,152.162,100.924,97.9342,0.000190664,0.0691125,20.9755,901.239,0.269751,0.0,0.0
296,73.75,18.6598,20.2687,153.023,101.021,97.5474,0.000157875,0.0688357,20.9762,901.269,0.313849,0.0,0.0
300,74.75,18.6433,20.3175,156.186,101.051,97.2962,0.000127369,0.0685628,20.9766,901.289,0.339657,0.0,0.0
304,75.75,18.7185,20.3198,158.857,101.071,97.1563,0.000108597,0.0681457,20.9771,901.269,0.354306,0.0,0.0
308,76.75,19.2752,20.0962,152.25,101.022,97.5749,9.23172e-05,0.0676133,20.978,901.269,0.311428,0.0,0.0
312,77.75,18.9956,19.7379,153.52,100.93,97.2993,5.77459e-05,0.0671957,20.9786,901.269,0.328633,0.0,0.0
316,78.75,18.6968,20.2405,152.285,100.803,97.1377,1.8972e-05,0.0669754,20.979,901.279,0.332213,0.0,0.0
320,79.75,19.3211,20.1694,152.361,100.638,97.0853,-6.31359e-05,0.0669066,20.9782,901.289,0.322351,0.0,0.0
324,80.75,19.0189,20.1314,158.643,100.439,96.7446,-0.000157044,0.066981,20.9769,901.279,0.336174,0.0,0.0
328,81.75,18.9832,20.3778,153.468,100.214,96.4148,-0.000216472,0.0671574,20.9761,901.279,0.346686,0.0,0.0
332,82.75,18.8924,20.5374,155.076,99.9938,96.0721,-0.000228248,0.0675136,20.9755,901.279,0.358857,0.0,0.0
336,83.75,19.0349,19.9956,156.135,99.7467,96.2229,-0.000197238,0.0677211,20.9751,901.279,0.322598,0.0,0.0
340,84.75,18.7313,20.7783,154.704,99.5236,95.9965,-0.000157232,0.0677496,20.9749,901.279,0.323646,0.0,0.0
344,85.75,19.293,20.2141,155.983,99.3153,95.5066,-0.00011852,0.0675157,20.9755,901.279,0.350747,0.0,0.0
348,86.75,19.0562,20.5842,154.413,99.1466,95.619,-8.99344e-05,0.0671034,20.9766,901.289,0.324948,0.0,0.0
352,87.75,18.9548,19.5664,151.678,99.018,95.1062,-7.34269e-05,0.0665046,20.9774,901.309,0.361534,0.0,0.0
356,88.75,18.9101,19.5553,154.594,98.9285,95.3151,-7.15858e-05,0.0657493,20.9793,901.309,0.333745,0.0,0.0
360,89.75,19.0789,20.1685,157.315,98.8893,95.0504,-8.52762e-05,0.06471,20.981,901.299,0.355137,0.0,0.0
364,90.75,19.2476,20.3113,150.459,98.924,94.8461,-0.000126192,0.0634873,20.983,901.309,0.377582,0.0,0.0
368,91.75,18.7511,20.3094,155.059,98.953,95.388,-0.000188993,0.062309,20.9851,901.309,0.329112,0.0,0.0
372,92.75,18.9211,19.9714,154.194,99.0494,95.3535,-0.000256221,0.0611964,20.9872,901.319,0.34109,0.0,0.0
376,93.75,18.8335,20.0266,156.707,99.1609,95.4089,-0.0003038,0.0601894,20.9892,901.269,0.34597,0.0,0.0
380,94.75,19.1559,20.2941,157.412,99.299,95.3051,-0.000312098,0.0592015,20.9913,901.279,0.36822,0.0,0.0
384,95.75,19.2047,19.8572,154.58,99.4714,95.3198,-0.000288853,0.0582955,20.9927,901.269,0.38239,0.0,0.0
388,96.75,19.2482,20.3953,157.048,99.6257,96.0675,-0.000238184,0.0574929,20.9936,901.249,0.326219,0.0,0.0
392,97.75,19.0176,20.2545,154.093,99.7834,95.6985,-0.000154682,0.0567903,20.9942,901.249,0.374922,0.0,0.0
396,98.75,18.8606,20.2096,154.586,99.9341,96.0624,-5.2909e-05,0.0561391,20.9951,901.249,0.354411,0.0,0.0
400,99.75,19.2051,19.9853,153.598,100.069,96.0907,7.41382e-05,0.0555881,20.996,901.249,0.363895,0.0,0.0
404,100.75,19.2499,20.2514,154.192,100.181,96.1055,0.000206322,0.0552015,20.9966,901.239,0.372511,0.0,0.0
408,101.75,19.3442,20.0954,161.847,100.284,96.1,0.0003122,0.0547718,20.997,901.229,0.382264,0.0,0.0
412,102.75,18.6527,20.2359,155.987,100.384,96.7722,0.000435767,0.0543642,20.9964,901.249,0.328661,0.0,0.0
416,103.75,19.4393,20.2769,154.602,100.426,96.3721,0.000534285,0.0541219,20.9956,901.279,0.369609,0.0,0.0
420,104.75,19.1172,20.087,156.462,100.472,96.3594,0.000609315,0.0539118,20.9956,901.269,0.374883,0.0,0.0
424,105.75,19.211,20.2596,151.279,100.498,95.7748,0.000642399,0.0536491,20.9957,901.229,0.431755,0.0,0.0
428,106.75,19.596,20.5775,156.703,100.492,95.9353,0.000621632,0.0532507,20.9965,901.199,0.416192,0.0,0.0
432,107.75,18.9307,20.3649,152.857,100.477,96.0791,0.000582431,0.0528385,20.9977,901.199,0.401409,0.0,0.0
436,108.75,19.2678,19.8339,155.99,100.453,96.0861,0.000511664,0.0525087,20.9986,901.229,0.398643,0.0,0.0
440,109.75,19.1776,20.2596,157.247,100.379,95.9,0.000420215,0.0522347,20.9992,901.199,0.409459,0.0,0.0
444,110.75,19.5321,20.4606,158.695,100.328,95.9555,0.000316731,0.051992,20.9996,901.199,0.399677,0.0,0.0
448,111.75,19.1665,20.3517,155.413,100.279,95.9896,0.000201196,0.051725,20.9999,901.179,0.392106,0.0,0.0
452,112.75,19.2733,20.2445,154.052,100.231,95.9264,0.000115991,0.0514608,21.0001,901.179,0.393736,0.0,0.0
456,113.75,19.1246,20.5464,157.044,100.183,95.7868,6.36411e-05,0.0511619,21.0002,901.179,0.402515,0.0,0.0
460,114.75,19.6177,20.2018,156.131,100.216,95.8004,3.40759e-05,0.0509658,21.0002,901.179,0.404133,0.0,0.0
464,115.75,19.2185,20.7721,152.855,100.412,95.6795,-5.18752e-06,0.0508767,21.0003,901.179,0.433031,0.0,0.0
468,116.75,19.3883,20.3427,153.178,100.584,95.5248,-4.70394e-05,0.0508091,21.0003,901.199,0.462925,0.0,0.0
472,117.75,19.5154,20.2315,155.543,100.726,96.1434,-0.000155959,0.0507396,21.0003,901.169,0.417655,0.0,0.0
476,118.75,19.0811,19.9568,154.707,100.828,96.059,-0.000271683,0.0508272,21.0004,901.159,0.434593,0.0,0.0
480,119.75,19.3949,20.5783,161.79,100.899,95.9531,-0.000358263,0.0511162,21.0004,901.159,0.450837,0.0,0.0
484,120.75,18.945,20.4656,154.184,100.941,96.3756,-0.000389167,0.0514632,21.0001,901.149,0.415169,0.0,0.0
488,121.75,18.8377,20.654,161.239,100.948,96.0365,-0.000366039,0.0518097,20.9994,901.149,0.447333,0.0,0.0
492,122.75,19.5007,20.4171,157.999,100.928,96.2535,-0.000296457,0.0521192,20.9992,901.169,0.425341,0.0,0.0
496,123.75,19.0461,20.2401,151.706,100.891,95.712,-0.000224656,0.0523474,20.9996,901.169,0.472638,0.0,0.0
500,124.75,19.2652,20.623,153.332,100.821,95.6372,-0.000107872,0.0525222,20.9999,901.169,0.473477,0.0,0.0
504,125.75,19.5324,20.0013,155.683,100.721,95.8954,-1.26095e-05,0.0526621,21.0005,901.169,0.440355,0.0,0.0
508,126.75,19.0919,20.579,154.489,100.601,95.9527,6.17041e-05,0.052833,21.0019,901.139,0.424291,0.0,0.0
512,127.75,19.324,20.3222,153.194,100.457,96.0113,9.85222e-05,0.0529665,21.0029,901.139,0.406029,0.0,0.0
516,128.75,19.3566,20.2503,156.63,100.292,95.7256,0.000113107,0.0531546,21.003,901.139,0.41801,0.0,0.0
520,129.75,19.4945,19.9285,162.303,100.31,95.5264,0.000113682,0.0533177,21.0031,901.159,0.438269,0.0,0.0
524,130.75,19.2413,20.7327,154.494,100.362,96.0268,0.000116307,0.05345,21.0031,901.159,0.396043,0.0,0.0
528,131.75,18.7393,20.4204,155.604,100.422,95.3066,0.000132941,0.0535626,21.0032,901.139,0.468967,0.0,0.0
532,132.75,19.3067,20.4492,157.936,100.492,95.714,0.000203819,0.0537033,21.0032,901.129,0.436945,0.0,0.0
536,133.75,19.2572,20.8016,157.057,100.563,95.7496,0.000309261,0.0540747,21.0019,901.119,0.439946,0.0,0.0
540,134.75,18.9781,20.5775,155.36,100.625,95.0283,0.000490559,0.0548891,20.9928,901.049,0.513274,0.0,0.0
544,135.75,18.1801,20.2837,149.075,100.7,96.0365,0.00079888,0.0602426,20.9763,901.069,0.425349,0.0,0.0
548,136.75,19.2006,20.5707,152.018,100.778,90.9119,0.00133537,0.0715598,20.9475,901.029,0.924121,0.0,1.0
552,137.75,19.3935,20.5011,152.76,100.819,87.4606,0.00187358,0.0904445,20.9068,901.019,1.27493,0.0,1.0
556,138.75,19.8085,20.9187,146.797,100.881,78.613,0.0030525,0.11608,20.8631,900.959,2.23702,0.0,1.0
560,139.75,19.9337,21.3636,145.121,100.923,70.5422,0.00465792,0.149267,20.806,901.049,3.21243,0.0,1.0
564,140.75,20.2013,21.6718,134.624,100.957,65.9386,0.00683365,0.186715,20.7302,900.869,3.82077,0.0,1.0
568,141.75,20.1757,21.9288,137.738,100.99,60.407,0.00964819,0.234925,20.6356,900.749,4.60957,0.0,0.0
572,142.75,21.2187,23.1699,132.39,101.015,57.5841,0.0125814,0.301983,20.507,900.649,5.04105,0.0,0.0
576,143.75,22.2283,24.4655,130.776,101.032,52.0978,0.0154853,0.36728,20.3746,900.468,5.94059,0.0,0.0
580,144.75,23.0315,25.7174,126.084,101.042,50.9222,0.0179257,0.447409,20.2619,900.328,6.14625,0.0,0.0
584,145.75,24.1864,27.4977,127.252,101.044,52.3424,0.0205106,0.522048,20.1672,900.238,5.89963,0.0,0.0
588,146.75,25.4888,29.2383,118.622,101.041,53.3812,0.0226238,0.583749,20.094,900.098,5.72311,0.0,0.0
592,147.75,27.2116,31.4666,118.146,101.017,50.0109,0.0243589,0.642878,20.0284,899.958,6.30593,0.0,0.0
596,148.75,28.407,33.0769,125.508,100.994,50.0656,0.0258769,0.69143,19.9741,899.828,6.29414,0.0,0.0
600,149.75,29.6909,34.7785,115.502,100.957,46.3147,0.0271098,0.730128,19.9316,899.658,6.9893,0.0,0.0
604,150.75,31.0472,36.8975,123.683,100.927,48.2361,0.0283061,0.756652,19.9,899.498,6.62209,0.0,0.0
608,151.75,32.2302,38.5527,130.99,100.881,47.6651,0.0294671,0.77873,19.8754,899.427,6.72476,0.0,0.0
612,152.75,33.2281,40.2999,124.868,100.839,48.495,0.0305026,0.79795,19.8508,899.237,6.56623,0.0,0.0
616,153.75,34.6622,41.4127,117.41,100.779,44.3545,0.0315616,0.815839,19.8258,899.077,7.36137,0.0,0.0
620,154.75,35.8196,43.2613,127.391,100.731,44.5794,0.0325236,0.832784,19.8006,899.047,7.31174,0.0,0.0
624,155.75,36.8434,44.884,127.08,100.678,44.9146,0.0334092,0.850044,19.7664,898.857,7.23987,0.0,0.0
628,156.75,38.0807,46.2228,122.239,100.607,42.615,0.0342508,0.868189,19.7336,898.627,7.70493,0.0,0.0
632,157.75,39.5509,48.2297,119.703,100.548,44.3507,0.0350505,0.887008,19.7008,898.527,7.3416,0.0,0.0
636,158.75,40.6135,49.4256,128.667,100.481,41.9952,0.0356797,0.905359,19.6762,898.377,7.82507,0.0,0.0
640,159.75,41.8638,51.57,114.62,100.414,43.5824,0.0363453,0.923873,19.6559,898.216,7.48637,0.0,0.0
644,160.75,42.6313,52.4415,117.198,100.352,45.5294,0.0368683,0.939456,19.6386,898.036,7.08878,0.0,0.0
648,161.75,43.8258,54.0809,124.553,100.283,45.2178,0.0372977,0.956046,19.6164,897.926,7.14429,0.0,0.0
652,162.75,44.4299,55.0993,122.21,100.229,46.7837,0.0377007,0.970677,19.5946,897.706,6.8341,0.0,0.0
656,163.75,46.2698,57.5051,125.525,100.165,45.5309,0.0380875,0.984407,19.5737,897.646,7.07177,0.0,0.0
660,164.75,47.4591,58.7898,108.454,100.092,44.2701,0.038432,0.997764,19.5603,897.466,7.31712,0.0,0.0
664,165.75,49.0442,60.8755,117.276,100.036,44.5104,0.0388149,1.00889,19.5453,897.296,7.26355,0.0,0.0
668,166.75,49.0618,61.5412,113.891,99.986,46.6934,0.0394108,1.02114,19.532,897.115,6.82962,0.0,0.0
672,167.75,50.9702,63.846,123.266,99.9117,44.7394,0.0400342,1.02908,19.5151,896.965,7.20636,0.0,0.0
676,168.75,51.5887,64.8942,118.205,99.8422,44.9891,0.0406599,1.03989,19.4987,896.725,7.15022,0.0,0.0
680,169.75,52.7342,66.0909,126.146,99.7834,40.3777,0.0413449,1.05056,19.4834,896.625,8.11492,0.0,0.0
684,170.75,54.1481,67.7011,109.674,99.7303,42.2626,0.0419038,1.0628,19.4662,896.505,7.7009,0.0,0.0
688,171.75,55.7368,69.2759,116.325,99.6727,41.4428,0.0425949,1.07728,19.4476,896.225,7.87142,0.0,0.0
692,172.75,56.7003,70.5289,109.715,99.62,39.5641,0.043188,1.09093,19.4317,896.075,8.2828,0.0,0.0
696,173.75,57.9189,72.2329,120.071,99.5637,37.7419,0.0437588,1.10238,19.4156,895.944,8.70063,0.0,0.0
700,174.75,58.357,73.2488,105.375,99.5151,42.0874,0.0443058,1.11717,19.3937,895.744,7.71878,0.0,0.0
704,175.75,59.8889,74.6617,122.428,99.4656,39.9498,0.0447892,1.13147,19.3698,895.574,8.18187,0.0,0.0
708,176.75,60.8362,76.4967,110.64,99.4109,41.3355,0.0452841,1.14366,19.3517,895.374,7.87109,0.0,0.0
712,177.75,61.8294,77.8018,111.015,99.368,40.5482,0.0458459,1.15377,19.3374,895.194,8.03969,0.0,0.0
716,178.75,62.689,78.7701,115.692,99.3304,37.3454,0.0465396,1.16304,19.3211,895.004,8.77433,0.0,0.0
720,179.75,64.2701,79.9533,113.871,99.2847,39.3249,0.0471576,1.17239,19.3019,894.843,8.30694,0.0,0.0
724,180.75,64.6598,81.2744,101.326,99.2443,33.7271,0.0480545,1.18481,19.2839,894.593,9.68062,0.0,0.0
728,181.75,65.7452,82.4461,111.691,99.1956,35.0558,0.0490809,1.1972,19.2665,894.403,9.32964,0.0,0.0
732,182.75,66.7659,84.2788,112.802,99.156,36.2396,0.050283,1.20958,19.2486,894.293,9.02818,0.0,0.0
736,183.75,67.8219,85.1374,104.146,99.114,35.7054,0.0509475,1.22159,19.2233,894.053,9.15755,0.0,0.0
740,184.75,68.5683,86.5752,114.143,99.0899,35.3849,0.0517677,1.23845,19.1972,893.763,9.23626,0.0,0.0
744,185.75,69.8044,87.7957,108.818,99.049,35.8593,0.052466,1.25508,19.1642,893.702,9.1131,0.0,0.0
748,186.75,70.395,88.5141,114.567,99.0274,38.3691,0.0530756,1.27462,19.1333,893.482,8.50437,0.0,0.0
752,187.75,72.3146,90.308,109.234,99.002,39.3094,0.0538215,1.29622,19.1048,893.302,8.2849,0.0,0.0
756,188.75,73.1851,92.1952,108.431,98.9812,37.1605,0.0546581,1.31827,19.075,893.122,8.78726,0.0,0.0
760,189.75,73.7488,92.9496,113.793,98.9555,37.2776,0.0556019,1.3379,19.0492,892.892,8.75671,0.0,0.0
764,190.75,75.604,94.9766,99.9652,98.9547,34.6255,0.056536,1.35532,19.0267,892.642,9.41859,0.0,0.0
768,191.75,76.1064,96.2083,106.955,98.9171,34.8128,0.0574006,1.37276,19.0024,892.471,9.36682,0.0,0.0
772,192.75,77.0356,97.3772,103.576,98.9077,36.8582,0.0582627,1.3895,18.9789,892.211,8.85386,0.0,0.0
776,193.75,78.4203,98.8057,114.504,98.8979,33.6189,0.0589576,1.4025,18.9621,892.051,9.67806,0.0,0.0
780,194.75,79.5548,100.067,112.429,98.8905,33.3433,0.0596577,1.41498,18.9447,891.851,9.75123,0.0,0.0
784,195.75,80.5738,101.593,108.416,98.8791,35.7349,0.0608441,1.42588,18.9325,891.601,9.12888,0.0,0.0
788,196.75,81.6944,103,93.1957,98.8762,32.9499,0.0620438,1.43833,18.9149,891.35,9.85639,0.0,0.0
792,197.75,82.2811,103.877,110.932,98.8832,32.3763,0.0630753,1.44793,18.8849,891.15,10.0146,0.0,0.0
796,198.75,83.415,105.407,109.428,98.884,35.5058,0.0640114,1.46596,18.8563,890.99,9.18701,0.0,0.0
800,199.75,83.8663,106.217,99.6675,98.8738,31.9034,0.0648768,1.48599,18.8295,890.79,10.1457,0.0,0.0
804,200.75,85.5069,107.933,100.64,98.8836,31.641,0.0656485,1.50452,18.7984,890.55,10.2206,0.0,0.0
808,201.75,86.5669,109.296,103.661,98.8962,30.9874,0.0662553,1.52517,18.7747,890.289,10.409,0.0,0.0
812,202.75,87.4077,110.392,105.73,98.9028,30.3502,0.0669575,1.54675,18.7448,890.009,10.596,0.0,0.0
816,203.75,88.5715,111.832,96.0435,98.915,32.7487,0.0675994,1.56398,18.7195,889.879,9.91484,0.0,0.0
820,204.75,89.5624,113.487,104.83,98.9183,29.2211,0.0681232,1.58017,18.6989,889.619,10.9374,0.0,0.0
824,205.75,90.9533,114.913,102.84,98.9314,31.2956,0.0684926,1.59565,18.6726,889.349,10.3234,0.0,0.0
828,206.75,91.8447,116.155,103.621,98.942,32.1739,0.0686855,1.61009,18.6553,889.159,10.0761,0.0,0.0
832,207.75,92.6772,117.384,112.604,98.9522,32.9914,0.0687799,1.62268,18.6399,888.958,9.852,0.0,0.0
836,208.75,93.799,118.574,101.563,98.9677,33.0189,0.0688657,1.63319,18.6272,888.718,9.84593,0.0,0.0
840,209.75,94.2854,119.582,106.982,98.9857,34.2189,0.0690524,1.64265,18.6154,888.478,9.52735,0.0,0.0
844,210.75,95.8788,120.924,98.8638,99.0122,31.4103,0.0693923,1.65072,18.6034,888.288,10.2979,0.0,0.0
848,211.75,96.6768,122.534,107.52,99.04,31.3216,0.0697774,1.65812,18.5889,888.048,10.3258,0.0,0.0
852,212.75,97.5229,123.297,108.128,99.0662,31.9286,0.0701673,1.67089,18.5691,887.757,10.156,0.0,0.0
856,213.75,98.5858,124.845,95.0711,99.0952,31.741,0.070579,1.68269,18.5545,887.527,10.2115,0.0,0.0
860,214.75,99.36,125.74,97.1876,99.118,33.4933,0.0709551,1.69136,18.5417,887.287,9.73158,0.0,0.0
864,215.75,100.351,127.495,104.442,99.1617,29.7413,0.0714576,1.69826,18.5333,887.037,10.8012,0.0,0.0
868,216.75,101.264,128.145,102.776,99.185,30.9998,0.0721631,1.70791,18.5278,886.857,10.4316,0.0,0.0
872,217.75,102.091,129.055,98.3875,99.2206,29.9603,0.072793,1.72012,18.5074,886.576,10.7407,0.0,0.0
876,218.75,103.177,129.97,100.25,99.259,30.0518,0.0737126,1.73324,18.4877,886.316,10.7168,0.0,0.0
880,219.75,103.827,131.723,104.991,99.2994,31.508,0.0746449,1.7452,18.4692,886.096,10.2961,0.0,0.0
884,220.75,105.225,132.82,96.9449,99.3464,31.7119,0.0754685,1.75442,18.457,885.816,10.2424,0.0,0.0
888,221.75,105.963,133.841,102.818,99.386,29.768,0.0763057,1.76088,18.4478,885.595,10.8134,0.0,0.0
892,222.75,106.432,134.468,100.441,99.4362,28.1928,0.0769415,1.76497,18.4414,885.345,11.3056,0.0,0.0
896,223.75,107.689,135.728,97.1457,99.473,29.206,0.0775972,1.76782,18.4372,885.105,10.9922,0.0,0.0
900,224.75,107.484,136.158,97.7899,99.5269,27.2873,0.0781198,1.76993,18.4328,884.905,11.6066,0.0,0.0
904,225.75,108.889,137.655,98.3486,99.5543,29.0657,0.0785462,1.77324,18.4268,884.685,11.0427,0.0,0.0
908,226.75,109.484,138.302,104.591,99.5939,29.7669,0.0788965,1.77645,18.4204,884.344,10.8325,0.0,0.0
912,227.75,110.709,139.391,90.8196,99.6339,26.1237,0.079198,1.77941,18.4122,884.124,12.0071,0.0,0.0
916,228.75,111.059,139.825,107.064,99.6797,29.2955,0.0794014,1.78271,18.4066,883.864,10.9834,0.0,0.0
920,229.75,112.417,141.304,92.8507,99.7091,28.2784,0.0797887,1.78617,18.4011,883.564,11.303,0.0,0.0
924,230.75,112.707,142.256,96.2236,99.7516,28.3629,0.080236,1.79072,18.3944,883.343,11.28,0.0,0.0
928,231.75,113.79,142.695,103.522,99.7949,29.4455,0.080617,1.79465,18.3875,883.063,10.9479,0.0,0.0
932,232.75,114.044,143.448,105.002,99.8459,27.9001,0.0808387,1.80081,18.3826,882.823,11.4361,0.0,0.0
936,233.75,114.968,144.578,99.0935,99.8839,28.9777,0.0808896,1.80464,18.3753,882.683,11.0996,0.0,0.0
940,234.75,116.06,145.534,106.829,99.917,27.0203,0.0807079,1.80702,18.3692,882.443,11.7299,0.0,0.0
944,235.75,115.97,146.04,97.3914,99.9611,27.5156,0.0804253,1.81557,18.3524,882.152,11.5709,0.0,0.0
948,236.75,116.974,147.504,105.155,100.003,31.6681,0.0800563,1.82641,18.3407,881.902,10.3139,0.0,0.0
952,237.75,118.011,148.336,93.2316,100.031,30.0297,0.0796642,1.83521,18.3329,881.642,10.793,0.0,0.0
956,238.75,117.848,148.804,98.6608,100.072,27.3978,0.0793692,1.84039,18.3277,881.372,11.6193,0.0,0.0
960,239.75,119.496,149.94,101.45,100.116,26.9234,0.0792197,1.84309,18.3246,881.181,11.78,0.0,0.0
964,240.75,119.558,150.661,105.097,100.138,30.5743,0.0791948,1.8443,18.3231,880.851,10.6414,0.0,0.0
968,241.75,120.531,151.019,102.802,100.175,31.5192,0.0794238,1.84414,18.3274,880.671,10.3716,0.0,0.0
972,242.75,120.806,152.163,101.827,100.211,28.2149,0.0797374,1.84299,18.3303,880.521,11.3682,0.0,0.0
976,243.75,122.029,152.646,103.161,100.228,28.4436,0.0801795,1.84141,18.3334,880.251,11.2973,0.0,0.0
980,244.75,122.188,153.584,99.1363,100.256,28.6129,0.0806531,1.83899,18.337,879.93,11.2466,0.0,0.0
984,245.75,122.514,153.928,104.486,100.272,26.5443,0.0810086,1.83612,18.3416,879.74,11.9211,0.0,0.0
988,246.75,123.258,154.542,97.6189,100.292,28.3439,0.0812002,1.83254,18.3457,879.48,11.3345,0.0,0.0
992,247.75,123.528,155.354,99.3187,100.314,26.1105,0.0812388,1.82778,18.3484,879.21,12.0726,0.0,0.0
996,248.75,123.912,155.577,95.4771,100.334,30.0832,0.0811467,1.82461,18.3506,878.92,10.8041,0.0,0.0
1000,249.75,124.806,156.42,104.536,100.345,28.775,0.0810077,1.82478,18.3524,878.679,11.2038,0.0,0.0
1004,250.75,125.106,156.738,98.0333,100.366,27.1253,0.0807483,1.82732,18.3536,878.529,11.7353,0.0,0.0
1008,251.75,124.914,156.949,96.722,100.378,30.5944,0.0804338,1.82789,18.3544,878.249,10.6569,0.0,0.0
1012,252.75,126.079,157.859,107.867,100.385,30.277,0.08007,1.82503,18.3605,878.079,10.7511,0.0,0.0
1016,253.75,126.499,157.817,95.4832,100.386,30.1925,0.0797198,1.819,18.3747,877.789,10.7762,0.0,0.0
1020,254.75,127.05,158.682,101.541,100.393,33.4825,0.0793048,1.80861,18.3949,877.558,9.84914,0.0,0.0
1024,255.75,127.448,158.913,91.9477,100.41,31.8995,0.0788597,1.79456,18.4166,877.288,10.2851,0.0,0.0
1028,256.75,127.467,159.231,93.4934,100.426,29.9386,0.0784368,1.77775,18.4359,877.088,10.8555,0.0,0.0
1032,257.75,128.064,159.378,101.636,100.429,31.0146,0.0778772,1.76162,18.4582,876.858,10.5391,0.0,0.0
1036,258.75,128.168,159.52,106.539,100.429,30.2339,0.0772316,1.74692,18.4776,876.537,10.7677,0.0,0.0
1040,259.75,128.121,159.745,98.3516,100.439,28.4164,0.0764806,1.7348,18.4904,876.477,11.3247,0.0,0.0
1044,260.75,128.535,159.854,101.636,100.435,30.2971,0.0756455,1.7269,18.4987,876.187,10.7495,0.0,0.0
1048,261.75,128.88,159.892,107.941,100.436,29.5529,0.0747848,1.72265,18.5042,875.987,10.9727,0.0,0.0
1052,262.75,129.008,159.872,105.627,100.434,30.1514,0.0740329,1.72145,18.5078,875.737,10.7928,0.0,0.0
1056,263.75,129.249,160.351,90.3632,100.436,33.1871,0.0734177,1.72049,18.5102,875.446,9.93245,0.0,0.0
1060,264.75,128.712,160.014,100.757,100.44,32.6577,0.0727169,1.71556,18.517,875.206,10.077,0.0,0.0
1064,265.75,129.697,160.894,105.289,100.426,33.1666,0.0718096,1.70912,18.5291,875.066,9.93706,0.0,0.0
1068,266.75,129.792,160.592,104.783,100.419,32.4569,0.0706877,1.69098,18.5589,874.856,10.1305,0.0,0.0
1072,267.75,130.3,161.129,106.609,100.415,32.5751,0.069386,1.66647,18.6081,874.646,10.0975,0.0,0.0
1076,268.75,129.665,160.106,102.615,100.409,30.6758,0.0680445,1.64002,18.6556,874.366,10.6358,0.0,0.0
1080,269.75,130.026,160.4,108.694,100.401,35.9876,0.0664653,1.61217,18.7016,874.145,9.20263,0.0,0.0
1084,270.75,129.809,160.472,101.243,100.388,32.7243,0.0650482,1.58423,18.7382,873.925,10.0541,0.0,0.0
1088,271.75,130.288,160.006,108.194,100.384,37.7059,0.0634215,1.5555,18.7775,873.795,8.78282,0.0,0.0
1092,272.75,130.067,159.404,111.059,100.365,35.3903,0.0618642,1.52961,18.8169,873.635,9.34962,0.0,0.0
1096,273.75,129.957,159.427,110.442,100.36,36.5911,0.0603149,1.49901,18.8621,873.445,9.04985,0.0,0.0
1100,274.75,129.37,159.108,99.3958,100.355,37.4051,0.0588955,1.46353,18.9295,873.195,8.85203,0.0,0.0
1104,275.75,129.679,158.26,104.544,100.343,38.5772,0.0571971,1.42229,18.9959,873.054,8.57419,0.0,0.0
1108,276.75,129.442,158.16,108.401,100.328,39.7711,0.0551673,1.37715,19.0675,872.944,8.2995,0.0,0.0
1112,277.75,128.831,156.875,122.05,100.324,40.6936,0.0531828,1.3322,19.1296,872.734,8.09346,0.0,0.0
1116,278.75,128.38,156.189,112.466,100.303,43.7681,0.0509148,1.28717,19.2019,872.564,7.43827,0.0,0.0
1120,279.75,127.915,155.557,117.447,100.298,41.0765,0.0486454,1.23577,19.2806,872.474,8.00718,0.0,0.0
1124,280.75,127.855,154.333,117.266,100.3,43.751,0.0464111,1.18586,19.3646,872.324,7.44151,0.0,0.0
1128,281.75,126.088,153.112,124.216,100.287,39.2846,0.0441428,1.12755,19.4581,872.204,8.4062,0.0,0.0
1132,282.75,125.608,151.844,117.927,100.285,43.9549,0.0423911,1.07254,19.5244,872.134,7.39849,0.0,0.0
1136,283.75,125.362,150.663,119.573,100.271,42.4056,0.0401775,1.01049,19.6179,871.913,7.71907,0.0,0.0
1140,284.75,124.652,149.664,127.413,100.259,44.1549,0.0376166,0.947803,19.6984,871.883,7.35544,0.0,0.0
1144,285.75,123.197,147.568,121.464,100.252,45.7515,0.0345242,0.896928,19.7666,871.753,7.03618,0.0,0.0
1148,286.75,122.569,146.454,123.337,100.24,49.5338,0.0321956,0.833435,19.8411,871.653,6.32274,0.0,0.0
1152,287.75,120.774,144.044,134.907,100.236,56.3476,0.0290548,0.77847,19.9278,871.603,5.16628,0.0,0.0
1156,288.75,119.098,141.896,135.989,100.231,66.4498,0.0254028,0.703552,20.0426,871.573,3.6867,0.0,0.0
1160,289.75,118.309,139.738,142.793,100.22,69.01,0.022007,0.63998,20.1827,871.533,3.34663,0.0,0.0
1164,290.75,116.177,137.478,149.48,100.216,79.1169,0.0189407,0.555722,20.3321,871.523,2.12036,0.0,0.0
1168,291.75,114.717,135.057,142.936,100.217,82.5794,0.0163821,0.476778,20.4488,871.503,1.73627,0.0,0.0
1172,292.75,113.157,132.651,140.875,100.193,84.5656,0.0139392,0.407094,20.5472,871.513,1.52094,0.0,0.0
1176,293.75,111.169,130.239,142.883,100.189,85.0187,0.0118155,0.351378,20.6266,871.503,1.47268,0.0,0.0
1180,294.75,109.299,127.74,149.054,100.186,85.5753,0.0100752,0.302853,20.6872,871.493,1.41389,0.0,0.0
1184,295.75,107.811,125.366,145.223,100.179,87.2482,0.00860249,0.261594,20.7399,871.493,1.23962,0.0,0.0
1188,296.75,105.873,122.611,141.912,100.165,86.5276,0.00722793,0.228953,20.7795,871.493,1.31269,0.0,0.0
1192,297.75,104.558,120.749,148.432,100.165,87.3819,0.00609816,0.203394,20.8113,871.483,1.22456,0.0,0.0
1196,298.75,103.26,117.998,147.827,100.146,89.0328,0.00516675,0.183236,20.8349,871.503,1.05505,0.0,0.0
1200,299.75,101.184,115.729,147.003,100.138,88.692,0.00439834,0.166525,20.8556,871.483,1.08867,0.0,0.0
1204,300.75,99.8313,113.427,146.308,100.137,89.7584,0.00379719,0.153235,20.873,871.493,0.981437,0.0,0.0
1208,301.75,98.1447,111.905,147.465,100.14,90.494,0.00330238,0.142085,20.8878,871.483,0.908513,0.0,0.0
1212,302.75,96.7888,109.75,146.12,100.119,90.4216,0.00284781,0.13216,20.9011,871.503,0.913798,0.0,0.0
1216,303.75,95.6833,108.049,145.129,100.147,91.5375,0.00244653,0.123999,20.912,871.483,0.80623,0.0,0.0
1220,304.75,94.1836,105.721,147.912,100.116,90.6142,0.00213659,0.117077,20.9203,871.483,0.894416,0.0,0.0
1224,305.75,92.8547,103.559,148.65,100.114,91.2146,0.00187221,0.111278,20.9273,871.473,0.835034,0.0,0.0
1228,306.75,91.7454,102.459,147.231,100.12,91.6278,0.0016716,0.106372,20.9338,871.463,0.795007,0.0,0.0
1232,307.75,90.3198,99.947,147.5,100.151,90.7258,0.00151503,0.102206,20.9391,871.443,0.886519,0.0,0.0
1236,308.75,89.1992,98.5762,143.712,100.197,90.6371,0.00137709,0.0987243,20.9428,871.443,0.899431,0.0,0.0
1240,309.75,87.5462,97.2093,146.519,100.229,90.1471,0.00127892,0.0958024,20.946,871.423,0.950898,0.0,0.0
1244,310.75,86.5882,95.8951,149.815,100.253,90.6774,0.00116255,0.0933064,20.9487,871.443,0.900414,0.0,0.0
1248,311.75,84.9842,93.7154,144.999,100.289,91.4185,0.00106362,0.0906751,20.9512,871.433,0.830657,0.0,0.0
1252,312.75,84.3643,92.8103,143.966,100.327,92.3503,0.000982711,0.0882739,20.9539,871.433,0.743128,0.0,0.0
1256,313.75,83.1025,91.0347,144.355,100.363,92.072,0.000909315,0.085908,20.9577,871.453,0.773375,0.0,0.0
1260,314.75,82.46,89.932,149.361,100.405,92.3534,0.000828199,0.0834585,20.9615,871.433,0.749799,0.0,0.0
1264,315.75,81.1169,88.5276,148.772,100.449,92.4019,0.000720642,0.0811133,20.9649,871.423,0.748961,0.0,0.0
1268,316.75,79.5534,86.8307,147.443,100.487,92.6751,0.000602471,0.0786112,20.9681,871.403,0.725903,0.0,0.0
1272,317.75,78.7415,84.9178,144.682,100.527,93.2313,0.000499602,0.0763112,20.9713,871.423,0.675802,0.0,0.0
1276,318.75,77.9319,84.652,144.971,100.562,92.7418,0.000414552,0.0741442,20.975,871.433,0.726122,0.0,0.0
1280,319.75,76.7679,82.5989,144.833,100.58,92.5647,0.000342794,0.0721155,20.9779,871.423,0.744873,0.0,0.0
1284,320.75,76.1528,81.7383,146.954,100.607,94.1973,0.000280787,0.0703265,20.9811,871.423,0.590492,0.0,0.0
1288,321.75,75.1459,80.2776,147.827,100.63,93.4092,0.000231926,0.0686249,20.9839,871.443,0.667845,0.0,0.0
1292,322.75,74.1028,79.3558,148.709,100.665,93.898,0.000200211,0.0671809,20.9861,871.423,0.624165,0.0,0.0
1296,323.75,73.8659,78.0966,145.759,100.675,93.9659,0.000172791,0.0655032,20.9884,871.393,0.618597,0.0,0.0
1300,324.75,72.478,76.9505,149.033,100.696,94.2341,0.00013872,0.0640985,20.9907,871.413,0.594849,0.0,0.0
1304,325.75,71.9312,75.6104,149.238,100.72,94.2201,0.00010079,0.062824,20.9926,871.403,0.598397,0.0,0.0
1308,326.75,71.1158,74.3756,149.514,100.737,94.3104,4.72134e-05,0.0616854,20.9946,871.393,0.591257,0.0,0.0
1312,327.75,69.9969,73.5224,151.465,100.753,94.4984,-1.26592e-05,0.0606866,20.996,871.393,0.574815,0.0,0.0
1316,328.75,69.1647,72.8048,151.111,100.757,94.4244,-5.86821e-05,0.0597137,20.9975,871.393,0.582208,0.0,0.0
1320,329.75,68.4018,71.6506,150.466,100.769,94.4546,-8.88778e-05,0.0588232,20.9986,871.393,0.580464,0.0,0.0
1324,330.75,67.8859,70.7066,146.299,100.788,94.8643,-9.52055e-05,0.0579508,21,871.403,0.543278,0.0,0.0
1328,331.75,66.9805,69.5845,150.818,100.802,94.2302,-7.91317e-05,0.0571596,21.0013,871.413,0.604709,0.0,0.0
1332,332.75,65.9194,69.2295,146.624,100.821,94.4612,-6.85856e-05,0.0563208,21.0028,871.413,0.584454,0.0,0.0
1336,333.75,65.3792,67.7478,149.21,100.829,94.6403,-3.24514e-05,0.0554314,21.0036,871.403,0.568158,0.0,0.0
1340,334.75,64.7513,66.69,149.549,100.849,94.8698,6.99239e-06,0.0547467,21.0042,871.403,0.548216,0.0,0.0
1344,335.75,63.5284,66.2603,146.02,100.847,94.3674,5.98558e-05,0.0539609,21.0045,871.413,0.595619,0.0,0.0
1348,336.75,62.8857,64.6167,149.352,100.847,94.9062,0.000135036,0.0531604,21.0048,871.423,0.544591,0.0,0.0
1352,337.75,62.4493,64.1925,150.155,100.856,94.3267,0.000200117,0.0524085,21.0054,871.403,0.60036,0.0,0.0
1356,338.75,61.7334,62.9907,151.576,100.87,95.3911,0.000232174,0.0518174,21.0061,871.413,0.50095,0.0,0.0
1360,339.75,61.6914,62.498,145.74,100.879,94.7217,0.000238568,0.0512988,21.0066,871.403,0.564878,0.0,0.0
1364,340.75,61.0152,62.2921,149.98,100.872,95.5593,0.000214695,0.0508215,21.0069,871.403,0.485291,0.0,0.0
1368,341.75,60.3692,60.7073,147.892,100.877,94.3837,0.000200627,0.0503659,21.0079,871.403,0.596759,0.0,0.0
1372,342.75,59.8574,60.4396,146.539,100.883,94.862,0.000203953,0.0500077,21.0086,871.403,0.552,0.0,0.0
1376,343.75,59.1495,59.5465,146.674,100.879,95.8392,0.000205402,0.0497567,21.009,871.413,0.459715,0.0,0.0
1380,344.75,58.4016,58.8031,149.676,100.876,94.7233,0.000188933,0.0495781,21.0085,871.413,0.564476,0.0,0.0
1384,345.75,57.5142,58.3236,147,100.887,94.8647,0.000158988,0.0494082,21.0082,871.433,0.552106,0.0,0.0
1388,346.75,57.3503,57.0471,147.916,100.874,95.8973,0.00011277,0.0492075,21.008,871.413,0.453768,0.0,0.0
1392,347.75,56.8704,57.2767,148.91,100.887,95.0236,6.82149e-05,0.0490309,21.0078,871.413,0.537093,0.0,0.0
1396,348.75,56.4807,56.5588,147.102,100.893,95.331,3.70466e-05,0.0488859,21.008,871.393,0.508635,0.0,0.0
1400,349.75,56.0556,55.599,148.008,100.896,94.8267,1.78796e-05,0.0487196,21.0087,871.403,0.556425,0.0,0.0
1404,350.75,55.7012,55.1708,150.018,100.897,95.8047,5.22416e-06,0.0486105,21.0094,871.403,0.464542,0.0,0.0
1408,351.75,55.3215,54.4535,149.11,100.898,95.7047,-2.08502e-05,0.0486156,21.0099,871.393,0.473982,0.0,0.0
1412,352.75,54.4589,54.3218,152.84,100.908,95.3229,-6.18656e-05,0.0485004,21.011,871.393,0.510744,0.0,0.0
1416,353.75,54.1848,53.4298,149.088,100.889,95.0442,-0.000124194,0.0482742,21.0113,871.403,0.535263,0.0,0.0
1420,354.75,53.7647,52.8532,147.932,100.901,95.619,-0.000178158,0.048094,21.0111,871.413,0.482269,0.0,0.0
1424,355.75,52.8473,52.7809,150.599,100.885,95.1423,-0.000205367,0.0479757,21.0118,871.403,0.525723,0.0,0.0
1428,356.75,52.7465,51.5215,147.486,100.894,94.3535,-0.000189142,0.0478398,21.0119,871.393,0.601194,0.0,0.0
1432,357.75,52.1694,51.1567,149.698,100.911,95.5361,-0.000138699,0.0476083,21.012,871.393,0.490925,0.0,0.0
1436,358.75,51.7474,51.5658,147.29,100.894,95.2523,-7.85075e-05,0.0474703,21.0121,871.393,0.516078,0.0,0.0
1440,359.75,51.3237,50.4419,144.596,100.888,94.9426,-1.87288e-05,0.0473712,21.0121,871.383,0.544816,0.0,0.0
1444,360.75,51.1933,50.18,150.246,100.885,95.5093,9.38084e-06,0.0473206,21.0113,871.383,0.491184,0.0,0.0
1448,361.75,50.3433,49.2218,147.275,100.897,95.4438,-9.07861e-06,0.0472919,21.0105,871.423,0.498392,0.0,0.0
1452,362.75,50.2752,48.9936,147.969,100.897,95.6241,-4.96714e-05,0.0472725,21.01,871.433,0.481469,0.0,0.0
1456,363.75,50.0991,48.4684,145.988,100.899,94.905,-8.61541e-05,0.0472095,21.0096,871.433,0.549277,0.0,0.0
1460,364.75,49.4399,48.2508,152.188,100.891,95.0209,-0.000100368,0.0471432,21.0094,871.423,0.53764,0.0,0.0
1464,365.75,48.5346,46.9293,151.524,100.898,95.1345,-8.59142e-05,0.0470997,21.0093,871.403,0.527544,0.0,0.0
1468,366.75,48.8565,47.439,146.029,100.899,95.6861,-5.73055e-05,0.0470908,21.0092,871.393,0.4758,0.0,0.0
1472,367.75,48.5067,46.7394,150.396,100.9,95.314,-2.61375e-05,0.0470706,21.0091,871.383,0.510857,0.0,0.0
1476,368.75,48.1171,46.7611,150.837,100.895,95.0295,-5.82404e-07,0.0470125,21.0091,871.403,0.537235,0.0,0.0
1480,369.75,47.2583,45.8634,145.833,100.904,95.1934,2.65977e-05,0.0469222,21.0091,871.383,0.522535,0.0,0.0
1484,370.75,47.8798,46.2288,145.84,100.898,94.9236,5.70565e-05,0.046857,21.0097,871.393,0.547481,0.0,0.0
1488,371.75,47.6495,45.9775,151.937,100.901,95.219,0.000102845,0.0468221,21.0104,871.413,0.519834,0.0,0.0
1492,372.75,46.9558,44.8944,151.638,100.903,95.5585,0.000126081,0.0467636,21.0106,871.413,0.488124,0.0,0.0
1496,373.75,46.3481,45.1075,149.306,100.899,95.3074,0.000144737,0.0467503,21.0109,871.403,0.511405,0.0,0.0
1500,374.75,45.6416,44.331,146.352,100.894,95.1946,0.000125495,0.0467399,21.011,871.383,0.521554,0.0,0.0
1504,375.75,46.3028,44.6913,147.716,100.893,94.7306,8.9842e-05,0.0467359,21.0111,871.383,0.565268,0.0,0.0
1508,376.75,45.6573,44.2098,146.71,100.891,94.9469,4.90198e-05,0.0467716,21.0112,871.383,0.544667,0.0,0.0
1512,377.75,45.6154,44.0877,147.412,100.883,95.6012,2.59605e-05,0.0467839,21.0113,871.393,0.482308,0.0,0.0
1516,378.75,45.1732,43.3658,147.297,100.88,96.0745,1.58082e-05,0.0467458,21.0116,871.393,0.43776,0.0,0.0
1520,379.75,45.3942,43.0778,152.933,100.875,95.7403,1.39287e-05,0.0467386,21.0118,871.403,0.468572,0.0,0.0
1524,380.75,44.7376,42.2297,149.773,100.861,95.688,1.26956e-05,0.046813,21.0119,871.393,0.472276,0.0,0.0
1528,381.75,44.8409,42.5858,149.404,100.866,95.5225,-1.77075e-06,0.0468632,21.012,871.423,0.488241,0.0,0.0
1532,382.75,44.6377,42.3362,152.588,100.863,95.483,-3.47406e-05,0.0469048,21.0121,871.403,0.491626,0.0,0.0
1536,383.75,44.439,41.8384,154.384,100.854,95.5919,-6.89122e-05,0.0469359,21.0121,871.413,0.480675,0.0,0.0
1540,384.75,43.9501,41.7738,151.676,100.852,95.424,-8.96186e-05,0.0469386,21.0122,871.403,0.496254,0.0,0.0
1544,385.75,43.9432,41.0441,148.378,100.839,95.7403,-9.02545e-05,0.0469654,21.0122,871.393,0.465411,0.0,0.0
1548,386.75,43.4973,41.521,153.144,100.828,95.9481,-7.60916e-05,0.0469329,21.0122,871.373,0.44495,0.0,0.0
1552,387.75,43.1855,40.6775,148.52,100.839,95.4322,-5.08609e-05,0.0468522,21.0122,871.373,0.49429,0.0,0.0
1556,388.75,42.5354,40.6498,146.233,100.815,95.7682,-3.43071e-05,0.0468427,21.0122,871.403,0.460653,0.0,0.0
1560,389.75,42.7376,40.5532,151.196,100.807,95.7527,-3.69298e-05,0.0468919,21.0122,871.393,0.461415,0.0,0.0
1564,390.75,42.8616,40.3112,145.575,100.797,94.695,-6.87554e-05,0.0469071,21.0122,871.383,0.560107,0.0,0.0
1568,391.75,41.9609,39.9389,149.603,100.792,96.1365,-0.000107667,0.0468946,21.0122,871.403,0.42416,0.0,0.0
1572,392.75,42.4058,39.8382,148.419,100.786,95.0062,-0.000128827,0.0468864,21.0122,871.413,0.529693,0.0,0.0
1576,393.75,41.9454,39.8385,151.585,100.769,95.3322,-0.000115271,0.046881,21.0122,871.393,0.49748,0.0,0.0
1580,394.75,41.8029,39.1744,150.423,100.762,95.2938,-9.22964e-05,0.0469026,21.0122,871.393,0.500473,0.0,0.0
1584,395.75,41.8201,39.0456,148.659,100.767,95.338,-4.53435e-05,0.0468666,21.0122,871.393,0.496787,0.0,0.0
1588,396.75,41.5507,38.7934,148.251,100.756,96.1194,-4.19107e-06,0.0468429,21.0122,871.403,0.422552,0.0,0.0
1592,397.75,41.3621,38.8832,151.488,100.738,96.0148,-1.51084e-06,0.046869,21.0122,871.403,0.430759,0.0,0.0
1596,398.75,40.9481,38.1566,148.216,100.726,96.2458,-3.29861e-05,0.0469052,21.0126,871.383,0.408077,0.0,0.0
1600,399.75,40.8077,38.1621,151.157,100.737,96.2345,-6.96368e-05,0.046886,21.0133,871.383,0.410143,0.0,0.0
1604,400.75,40.6178,38.1879,151.102,100.718,95.6213,-9.60652e-05,0.0468557,21.0137,871.413,0.46577,0.0,0.0
1608,401.75,40.2313,36.9677,147.392,100.691,94.9151,-0.000106664,0.0467857,21.014,871.413,0.529859,0.0,0.0
1612,402.75,40.041,37.962,150.176,100.698,95.2206,-0.000114272,0.0467397,21.0142,871.393,0.501625,0.0,0.0
1616,403.75,39.8159,37.4322,149.876,100.679,95.7175,-0.000133272,0.0466403,21.0143,871.383,0.453264,0.0,0.0
1620,404.75,40.2277,37.4986,154.145,100.662,96.0911,-0.000176021,0.046519,21.0144,871.363,0.416789,0.0,0.0
1624,405.75,39.1458,36.5033,150.131,100.656,96.0539,-0.000271486,0.0465397,21.0136,871.363,0.41979,0.0,0.0
1628,406.75,39.8575,36.8066,147.006,100.642,95.6764,-0.000361089,0.0465533,21.0131,871.393,0.453875,0.0,0.0
1632,407.75,39.422,36.5716,147.313,100.623,96.0353,-0.000395156,0.0465206,21.0128,871.393,0.418579,0.0,0.0
1636,408.75,39.11,36.2168,147.667,100.612,95.65,-0.000363573,0.0464517,21.0126,871.393,0.453653,0.0,0.0
1640,409.75,38.6065,36.2869,151.814,100.586,96.4128,-0.000313053,0.0464025,21.0125,871.383,0.380037,0.0,0.0
1644,410.75,39.1293,36.6932,147.345,100.574,95.7783,-0.000248321,0.0463953,21.0124,871.383,0.438207,0.0,0.0
1648,411.75,38.5932,35.8238,148.922,100.564,96.1617,-0.000203084,0.0464157,21.0123,871.373,0.401467,0.0,0.0
1652,412.75,38.7183,36.1095,148.582,100.535,96.1458,-0.000181373,0.0464468,21.0123,871.383,0.400435,0.0,0.0
1656,413.75,38.3097,36.0765,148.04,100.518,96.3051,-0.000173871,0.0464171,21.0129,871.393,0.38402,0.0,0.0
1660,414.75,38.7824,35.4444,149.454,100.495,96.0931,-0.000157713,0.0463976,21.0135,871.393,0.401783,0.0,0.0
1664,415.75,38.3532,36.0066,148.609,100.466,95.407,-0.000111154,0.0463571,21.0138,871.393,0.463463,0.0,0.0
1668,416.75,37.9474,35.8092,150.15,100.458,95.3023,-2.92321e-05,0.0462666,21.0141,871.403,0.472578,0.0,0.0
1672,417.75,38.093,35.2884,148.862,100.43,95.8663,6.49304e-05,0.0461874,21.0142,871.393,0.417102,0.0,0.0
1676,418.75,38.1205,35.1021,153.193,100.388,95.9826,0.000139184,0.0461685,21.0143,871.393,0.402471,0.0,0.0
1680,419.75,37.7682,34.7758,148.718,100.359,95.5648,0.000178693,0.0462094,21.0144,871.383,0.439011,0.0,0.0
1684,420.75,37.7106,35.2205,151.531,100.326,95.9078,0.000189343,0.0462363,21.0145,871.383,0.403952,0.0,0.0
1688,421.75,37.3801,35.0285,152.762,100.298,96.0477,0.000182357,0.0462288,21.0145,871.383,0.388355,0.0,0.0
1692,422.75,37.4437,34.5851,149.103,100.26,95.352,0.000174913,0.0462668,21.0145,871.373,0.450204,0.0,0.0
1696,423.75,36.7596,34.854,149.833,100.218,95.9481,0.000158783,0.0463031,21.0145,871.393,0.390537,0.0,0.0
1700,424.75,36.3366,34.6113,152.18,100.196,95.5624,0.000138262,0.046398,21.0145,871.383,0.424652,0.0,0.0
1704,425.75,36.9582,34.5578,151.422,100.168,95.2636,9.81222e-05,0.0465105,21.0143,871.403,0.450296,0.0,0.0
1708,426.75,36.7462,34.4262,147.181,100.139,96.083,3.97089e-05,0.0465842,21.0141,871.393,0.370841,0.0,0.0
1712,427.75,36.8249,34.0291,153.365,100.111,95.4783,-5.57381e-05,0.0466721,21.014,871.413,0.425015,0.0,0.0
1716,428.75,36.3549,33.7137,153.1,100.105,95.6004,-0.000166414,0.04678,21.0132,871.413,0.412966,0.0,0.0
1720,429.75,36.6005,33.4448,152.524,100.109,95.5345,-0.000242475,0.0468614,21.0127,871.383,0.419553,0.0,0.0
1724,430.75,36.1522,33.9747,150.758,100.112,95.4202,-0.000311068,0.0469938,21.0123,871.413,0.430551,0.0,0.0
1728,431.75,35.9166,33.5095,148.474,100.104,95.707,-0.000320178,0.0471217,21.0121,871.393,0.402934,0.0,0.0
1732,432.75,36.2048,33.6232,152.44,100.121,95.6182,-0.000293606,0.047192,21.0119,871.393,0.412757,0.0,0.0
1736,433.75,36.0952,33.4129,149.722,100.119,96.1942,-0.000268737,0.0472716,21.0118,871.393,0.358706,0.0,0.0
1740,434.75,35.676,33.571,150.802,100.133,95.9954,-0.000250762,0.0474105,21.0117,871.383,0.378546,0.0,0.0
1744,435.75,35.6141,33.3307,149.953,100.13,95.612,-0.000232338,0.0476262,21.0116,871.403,0.414108,0.0,0.0
1748,436.75,35.2738,33.5184,152.18,100.144,95.4961,-0.00022324,0.0477426,21.0116,871.393,0.426304,0.0,0.0
1752,437.75,35.366,32.6516,150.138,100.131,95.6446,-0.000210328,0.0477992,21.0116,871.403,0.411201,0.0,0.0
1756,438.75,35.3071,33.0365,150.766,100.136,95.9462,-0.000192868,0.047812,21.0116,871.413,0.383367,0.0,0.0
1760,439.75,35.5777,33.2042,151.449,100.15,96.1686,-0.000167929,0.0477861,21.0116,871.403,0.363836,0.0,0.0
1764,440.75,34.9058,32.2606,148.847,100.153,96.3741,-0.000133875,0.0477472,21.0116,871.403,0.345025,0.0,0.0
1768,441.75,35.2603,32.4531,147.791,100.174,95.5287,-0.000110671,0.0477078,21.0116,871.393,0.425916,0.0,0.0
1772,442.75,35.3644,33.2813,148.313,100.178,95.7756,-0.00010501,0.0476984,21.0116,871.403,0.403093,0.0,0.0
1776,443.75,35.2045,32.1496,150.938,100.183,96.0353,,0.0477009,,871.393,0.379242,0.0,0.0
1780,444.75,34.7893,32.0059,153.686,100.187,95.4051,,0.0476912,,871.383,0.438667,0.0,0.0
1784,445.75,34.7461,32.2915,148.015,100.202,95.9194,,0.0476631,,871.363,0.391829,0.0,0.0
1788,446.75,34.3266,31.7031,148.658,100.206,96.2353,,,,871.383,0.362666,0.0,0.0
1792,447.75,34.754,32.0954,152.867,100.23,95.6597,,,,871.383,0.418596,0.0,0.0
1796,448.75,34.2756,31.5119,153.566,100.212,96.2997,,,,871.393,0.357183,0.0,0.0
1800,449.75,34.594,31.812,148.959,100.233,95.757,,,,871.393,0.409772,0.0,0.0
1804,450.75,34.5674,31.9878,153.259,100.246,95.862,,,,871.413,0.40107,0.0,0.0
1808,451.75,34.7378,32.2951,151.379,100.248,96.121,,,,871.363,0.377059,0.0,0.0
1812,452.75,34.1727,32.0166,150.073,100.271,95.4969,,,,871.353,0.437565,0.0,0.0
1816,453.75,33.6016,31.5329,149.087,100.263,95.6996,,,,871.353,0.41785,0.0,0.0