File: 01_Data/HIPS/Cone/HIPS_Cone_HF25Scan_220218_R2.csv
Names,Time,Stack TC,Smoke TC,Exh Press,Smoke Comp,Smoke Meas,CO Meter,CO2 Meter,O2 Meter,Sample Mass,Ext Coeff,Start Test,Flame Verif
Chan Gain,,500,500,1,1,1,1,1,1,1,1,1.0,1.0
Offset,,0,0,0.134285,0,0,0,0,0,0,0,0.0,0.0
Gain,,1,1,25.011,13.3843,12.7012,1,1,1,1.00088,1.02252,1.0,1.0
Units,sec,C,C,Pa,%,%,%,%,%,g,/m,,
Baseline,,21.8562,21.6363,154.587,99.7301,97.2106,-0.000243897,0.0461581,21.0158,-4.17032e-05,0.229523,,
4,0.75,19.477,19.4846,155.209,100.894,98.561,-0.000357671,0.0493009,21.0146,898.176,0.209843,0.0,0.0
8,1.75,19.309,19.3743,154.404,100.912,98.6885,-0.000426623,0.0490533,21.0154,898.166,0.199844,0.0,0.0
12,2.75,19.1048,18.7904,153.772,100.921,98.5428,-0.000510067,0.0488358,21.0159,898.176,0.213898,0.0,0.0
16,3.75,19.319,18.5598,154.636,100.926,98.7993,-0.000582792,0.0485499,21.0163,898.186,0.191045,0.0,0.0
20,4.75,19.4072,18.8636,151.675,100.934,98.4013,-0.000618091,0.0482457,21.0165,898.186,0.22791,0.0,0.0
24,5.75,19.1791,19.2793,155.231,100.941,98.7024,-0.000618778,0.0479959,21.0166,898.186,0.201116,0.0,0.0
28,6.75,19.5893,19.0246,155.116,100.932,98.5738,-0.000575224,0.0477877,21.0175,898.206,0.21202,0.0,0.0
32,7.75,19.4453,19.4119,156.699,100.923,98.4924,-0.000500109,0.0475977,21.0181,898.196,0.218631,0.0,0.0
36,8.75,18.7461,18.6869,152.205,100.912,98.628,-0.000413068,0.0473941,21.0185,898.206,0.20534,0.0,0.0
40,9.75,19.4648,18.7861,152.089,100.902,98.4958,-0.000341616,0.0471601,21.018,898.196,0.216461,0.0,0.0
44,10.75,19.6375,19.0758,151.142,100.885,98.5571,-0.000294736,0.0469657,21.0176,898.206,0.209434,0.0,0.0
48,11.75,19.2154,18.9938,159.714,100.856,98.6129,-0.000263978,0.0468525,21.0174,898.186,0.201705,0.0,0.0
52,12.75,18.9968,19.1228,158.539,100.83,98.6098,-0.000248293,0.046744,21.0172,898.186,0.199733,0.0,0.0
56,13.75,19.2439,19.2773,154.248,100.794,98.4958,-0.000248628,0.0466346,21.0171,898.166,0.206908,0.0,0.0
60,14.75,18.9459,19.1782,155.22,100.777,98.5377,-0.000251706,0.0465694,21.0179,898.176,0.201569,0.0,0.0
64,15.75,19.2932,19.6636,157.434,100.738,98.3703,-0.000278445,0.0466197,21.0175,898.176,0.213333,0.0,0.0
68,16.75,19.4414,18.6383,150.629,100.7,98.2427,-0.000306614,0.0467061,21.0171,898.196,0.221549,0.0,0.0
72,17.75,19.4797,19.5176,156.299,100.637,98.4734,-0.000325706,0.0467429,21.0168,898.196,0.194949,0.0,0.0
76,18.75,19.7073,19.463,160.065,100.595,98.4559,-0.000332024,0.0467691,21.0168,898.186,0.192789,0.0,0.0
80,19.75,19.6271,19.2553,154.726,100.538,98.2978,-0.0003299,0.0468114,21.0174,898.176,0.202106,0.0,0.0
84,20.75,19.9254,19.3335,156.43,100.47,98.3676,-0.000321293,0.0468642,21.0178,898.176,0.189691,0.0,0.0
88,21.75,19.5577,19.1857,153.74,100.417,98.0237,-0.000295718,0.0469166,21.0179,898.186,0.216391,0.0,0.0
92,22.75,19.3813,19.7638,154.786,100.363,98.1548,-0.000258179,0.0469707,21.0171,898.186,0.199557,0.0,0.0
96,23.75,19.8604,19.4613,159.336,100.269,98.0094,-0.000232718,0.0469721,21.016,898.196,0.20445,0.0,0.0
100,24.75,19.4197,19.6686,149.987,100.21,97.8443,-0.000221042,0.0469425,21.0153,898.196,0.214274,0.0,0.0
104,25.75,19.9342,19.7946,155.052,100.182,97.7354,-0.000267316,0.0468981,21.0142,898.176,0.221815,0.0,0.0
108,26.75,19.9156,19.1765,155.498,100.191,97.6873,-0.000317155,0.0468636,21.0133,898.176,0.226958,0.0,0.0
112,27.75,19.781,19.2437,156.681,100.205,97.573,-0.000350129,0.046841,21.0127,898.186,0.23878,0.0,0.0
116,28.75,19.5724,19.3053,157.655,100.213,97.6826,-0.000361532,0.0468407,21.0126,898.186,0.229395,0.0,0.0
120,29.75,19.1502,19.7468,153.289,100.223,97.7881,-0.000354053,0.0468761,21.013,898.166,0.220561,0.0,0.0
124,30.75,19.3654,19.3654,153.654,100.233,97.7505,-0.000328685,0.0468492,21.0133,898.166,0.22496,0.0,0.0
128,31.75,19.8215,19.5772,156.354,100.251,97.6819,-0.000301983,0.0467814,21.0135,898.176,0.232866,0.0,0.0
132,32.75,19.479,20.0268,156.395,100.258,97.8144,-0.00023053,0.0467369,21.0137,898.166,0.22136,0.0,0.0
136,33.75,19.0853,19.6181,156.986,100.281,97.7059,-0.000156682,0.0466682,21.0138,898.166,0.233327,0.0,0.0
140,34.75,19.5338,19.6688,155.335,100.305,97.7164,-0.00010823,0.0465848,21.0138,898.166,0.234559,0.0,0.0
144,35.75,19.4011,19.7517,156.874,100.323,97.7346,-9.21727e-05,0.0465295,21.0139,898.156,0.234493,0.0,0.0
148,36.75,19.3593,19.8328,153.577,100.334,97.8102,-0.000111742,0.0465612,21.0139,900.388,0.228508,0.0,0.0
152,37.75,19.4201,19.886,154.191,100.344,97.9408,-0.00013268,0.0466321,21.0139,902.43,0.217414,0.0,0.0
156,38.75,19.5023,19.821,153.456,100.364,98.0544,-0.000195858,0.046736,21.0141,901.719,0.208809,0.0,0.0
160,39.75,19.2655,19.1911,157.181,100.392,97.8051,-0.0002311,0.0468576,21.0143,900.038,0.234191,0.0,0.0
164,40.75,19.2965,19.5864,150.177,100.393,98.0772,-0.00022188,0.0469512,21.0144,898.587,0.209345,0.0,0.0
168,41.75,19.5316,19.9247,153.271,100.404,97.8466,-0.000172598,0.0470238,21.0144,898.136,0.231447,0.0,0.0
172,42.75,19.2461,19.9913,153.975,100.42,97.7908,-0.000121926,0.0470715,21.0145,898.146,0.237987,0.0,0.0
176,43.75,19.6561,19.8943,152.124,100.443,97.7978,-9.55162e-05,0.0470777,21.0145,898.146,0.239391,0.0,0.0
180,44.75,19.6296,19.7222,154.123,100.446,97.7214,-0.000114697,0.0470225,21.0143,898.166,0.246688,0.0,0.0
184,45.75,19.9893,20.1683,151.673,100.457,97.9117,-0.00014136,0.0470691,21.0136,898.166,0.230185,0.0,0.0
188,46.75,19.9237,19.6627,153.225,100.466,97.8377,-0.000190316,0.0471856,21.0131,898.166,0.237808,0.0,0.0
192,47.75,19.7961,20.1617,155.169,100.47,97.797,-0.000234852,0.0472779,21.0128,898.166,0.241905,0.0,0.0
196,48.75,19.3997,19.8717,151.942,100.491,97.7648,-0.000274129,0.0473583,21.0126,898.156,0.246679,0.0,0.0
200,49.75,19.9285,19.7677,159.029,100.506,97.7024,-0.000296173,0.0474309,21.0125,898.156,0.253756,0.0,0.0
204,50.75,19.8267,19.9542,153.14,100.496,97.666,-0.000301412,0.0475141,21.0124,898.176,0.256226,0.0,0.0
208,51.75,19.3614,19.5132,150.973,100.504,97.8284,-0.000288647,0.0475938,21.0124,898.166,0.241979,0.0,0.0
212,52.75,19.858,19.7564,156.131,100.498,97.9423,-0.00027122,0.0475458,21.0123,898.166,0.231027,0.0,0.0
216,53.75,19.6484,19.879,151.405,100.51,97.7439,-0.000214841,0.0474641,21.0123,898.156,0.250349,0.0,0.0
220,54.75,19.6953,20.199,157.035,100.511,97.8265,-0.00015313,0.0474356,21.0123,898.156,0.24285,0.0,0.0
224,55.75,19.5764,19.7722,152.878,100.517,97.6501,-0.00011489,0.0474762,21.0116,898.156,0.259582,0.0,0.0
228,56.75,19.7709,19.6297,152.963,100.525,97.628,-0.000110025,0.0477959,21.011,898.166,0.262266,0.0,0.0
232,57.75,19.7112,19.5655,154.015,100.534,97.4947,-0.000124542,0.0485492,21.0107,898.156,0.275327,0.0,0.0
236,58.75,19.5802,19.8488,153.047,100.528,97.8505,-0.000132623,0.0496765,21.0102,898.146,0.242105,0.0,0.0
240,59.75,19.856,20.0047,154.603,100.533,97.5834,-0.000132896,0.051039,21.0093,898.146,0.267055,0.0,0.0
244,60.75,19.6231,19.9024,156.128,100.529,97.7803,-0.000106108,0.0521916,21.0085,898.136,0.248683,0.0,0.0
248,61.75,19.4006,19.654,159.331,100.526,97.7997,-9.10163e-05,0.0535515,21.0074,898.136,0.246577,0.0,0.0
252,62.75,19.9292,19.9155,153.222,100.519,97.5772,-8.54519e-05,0.054642,21.0074,898.146,0.266459,0.0,0.0
256,63.75,19.3723,20.1766,157.396,100.521,97.7586,-8.10686e-05,0.0554108,21.0075,898.136,0.249945,0.0,0.0
260,64.75,19.6706,20.0166,151.911,100.523,97.5133,-7.65996e-05,0.0556178,21.0075,898.146,0.272631,0.0,0.0
264,65.75,19.2449,19.9794,155.436,100.521,97.4772,-6.69243e-05,0.05537,21.0075,898.136,0.275802,0.0,0.0
268,66.75,19.7304,20.2402,153.427,100.499,97.6892,-5.38345e-05,0.0547746,21.0082,898.146,0.254381,0.0,0.0
272,67.75,20.0812,19.9598,155.724,100.493,97.159,-5.23302e-05,0.054007,21.0092,898.146,0.302653,0.0,0.0
276,68.75,19.6633,19.6283,152.601,100.488,97.5811,-7.93223e-05,0.0531127,21.0103,898.146,0.263259,0.0,0.0
280,69.75,19.7782,20.162,156.031,100.482,97.4059,-0.000133181,0.0522659,21.0112,898.146,0.278868,0.0,0.0
284,70.75,19.6662,19.4568,151.593,100.467,97.2757,-0.000227523,0.0515144,21.0126,898.166,0.289519,0.0,0.0
288,71.75,19.5197,19.8673,156.122,100.45,97.4803,-0.000312752,0.0507201,21.0141,898.156,0.269173,0.0,0.0
292,72.75,19.402,20.2123,154.326,100.434,97.0493,-0.000376193,0.049942,21.0151,898.166,0.307498,0.0,0.0
296,73.75,19.8249,19.9843,153.198,100.417,97.1601,-0.000398946,0.0492635,21.0156,898.156,0.29569,0.0,0.0
300,74.75,19.4732,19.6735,152.808,100.409,97.3167,-0.000382805,0.0487522,21.016,898.146,0.280552,0.0,0.0
304,75.75,19.7078,19.6137,155.248,100.39,97.0923,-0.000356899,0.048327,21.0163,898.146,0.299582,0.0,0.0
308,76.75,20.1667,19.8587,156.264,100.379,97.0927,-0.000356182,0.0480613,21.0165,898.136,0.298597,0.0,0.0
312,77.75,19.8009,20.3925,153.452,100.364,97.1361,-0.000383497,0.0477522,21.0167,898.146,0.293237,0.0,0.0
316,78.75,19.8723,20.203,154.374,100.352,97.4167,-0.000410095,0.0474741,21.0168,898.146,0.266266,0.0,0.0
320,79.75,19.6841,20.3137,152.204,100.321,96.9826,-0.000428903,0.0471664,21.0168,898.136,0.303588,0.0,0.0
324,80.75,19.6401,20.3972,155.987,100.294,97.2602,-0.000439649,0.0468892,21.0169,898.116,0.27551,0.0,0.0
328,81.75,19.6852,20.5378,153.836,100.278,97.1315,-0.000457937,0.0467575,21.0169,898.136,0.28596,0.0,0.0
332,82.75,19.6309,20.2104,155.453,100.242,97.0001,-0.000469935,0.0466118,21.0169,898.126,0.294851,0.0,0.0
336,83.75,20.0297,20.145,157.067,100.209,96.7958,-0.000460098,0.0464726,21.0169,898.116,0.310835,0.0,0.0
340,84.75,19.5516,20.2299,155.737,100.185,96.6512,-0.000433197,0.0463297,21.0169,898.116,0.322121,0.0,0.0
344,85.75,19.5373,20.0851,155.41,100.151,97.0857,-0.000377296,0.0461648,21.0165,898.106,0.278779,0.0,0.0
348,86.75,19.6184,20.2891,154.075,100.118,96.826,-0.00032183,0.0460566,21.0162,898.106,0.29984,0.0,0.0
352,87.75,19.7335,20.3267,157.227,100.088,97.0299,-0.000245799,0.0459995,21.016,898.106,0.278302,0.0,0.0
356,88.75,19.5558,20.4433,155.758,100.047,96.7625,-0.000183519,0.0460148,21.0159,898.106,0.299435,0.0,0.0
360,89.75,20.0132,20.0056,157.338,99.9938,96.5636,-0.000138668,0.0460565,21.0158,898.106,0.313088,0.0,0.0
364,90.75,20.1717,20.2657,154.725,99.9529,96.602,-0.000106994,0.0461109,21.0157,898.096,0.30586,0.0,0.0
368,91.75,19.2719,20.2977,154.519,99.9084,96.7183,-8.33126e-05,0.0461466,21.0157,898.096,0.291072,0.0,0.0
372,92.75,19.8206,20.2394,153.644,99.881,96.457,-6.328e-05,0.0462201,21.0157,898.096,0.312876,0.0,0.0
376,93.75,19.6976,20.3637,153.295,99.8373,96.3566,-3.82583e-05,0.0462684,21.0156,898.106,0.31829,0.0,0.0
380,94.75,20.0291,20.2809,152.579,99.8083,96.0152,-1.48018e-05,0.046221,21.0156,898.106,0.347529,0.0,0.0
384,95.75,19.9362,20.2897,154.064,99.7597,96.74,2.0821e-05,0.0461687,21.0156,898.086,0.275702,0.0,0.0
388,96.75,19.6642,20.3015,154.044,99.7038,96.0566,4.86895e-05,0.0461541,21.0156,898.096,0.334253,0.0,0.0
392,97.75,20.2399,20.5084,153.912,99.6535,95.5806,5.98868e-05,0.0461637,21.0152,898.096,0.374288,0.0,0.0
396,98.75,19.7706,20.1317,159.371,99.636,96.1818,6.53269e-05,0.0461674,21.0145,898.086,0.316469,0.0,0.0
400,99.75,19.6828,20.2639,154.249,99.5865,95.9097,7.3865e-05,0.0461513,21.0141,898.096,0.337429,0.0,0.0
404,100.75,20.0934,20.3194,151.656,99.5453,95.9035,7.72812e-05,0.0461229,21.0138,898.076,0.334293,0.0,0.0
408,101.75,20.1634,20.444,151.745,99.5179,95.5543,7.44921e-05,0.0461545,21.0136,898.076,0.36455,0.0,0.0
412,102.75,20.1858,20.2207,148.971,99.4665,95.8124,3.67011e-05,0.0461752,21.0141,898.086,0.33571,0.0,0.0
416,103.75,20.0389,20.5243,155.988,99.435,95.45,-1.50609e-05,0.0462085,21.0146,898.086,0.366864,0.0,0.0
420,104.75,19.8015,20.2703,160.048,99.3819,95.9295,-7.8237e-05,0.0462772,21.015,898.086,0.31713,0.0,0.0
424,105.75,20.121,20.0831,158.915,99.3308,95.5171,-0.000142159,0.046356,21.0152,898.076,0.351165,0.0,0.0
428,106.75,20.2561,20.8384,158.01,99.2924,95.6535,-0.000193087,0.0464004,21.0153,898.066,0.334895,0.0,0.0
432,107.75,19.8624,20.178,154.258,99.2557,95.7407,-0.000222581,0.0463753,21.0154,898.056,0.323399,0.0,0.0
436,108.75,20.0723,20.4925,157.191,99.1993,95.4252,-0.000232369,0.0462772,21.0159,898.046,0.347911,0.0,0.0
440,109.75,20.2939,20.8126,149.977,99.1724,95.0849,-0.000209575,0.0462306,21.0163,898.056,0.37752,0.0,0.0
444,110.75,19.7798,20.2561,152.423,99.1299,95.2411,-0.000188413,0.0462593,21.0165,898.056,0.358954,0.0,0.0
448,111.75,20.1127,20.5708,157.068,99.089,95.3457,-0.000183157,0.0462525,21.0166,898.046,0.345407,0.0,0.0
452,112.75,20.2736,20.5981,153.191,99.0666,95.3465,-0.000205671,0.0462072,21.0167,898.036,0.3433,0.0,0.0
456,113.75,20.0028,20.6398,153.843,99.0155,95.1504,-0.000226302,0.0461596,21.0168,898.046,0.357146,0.0,0.0
460,114.75,20.1536,20.005,157.402,98.9943,95.0155,-0.000217428,0.0461535,21.0168,898.046,0.367946,0.0,0.0
464,115.75,20.099,20.4114,158.982,98.9767,94.9566,-0.000197526,0.0461494,21.0169,898.046,0.371918,0.0,0.0
468,116.75,19.922,20.503,157.148,98.9489,94.8202,-0.000119298,0.0461863,21.0169,898.036,0.382297,0.0,0.0
472,117.75,20.5162,20.3933,155.868,98.9326,94.9019,-3.64966e-05,0.0462804,21.0169,898.026,0.373082,0.0,0.0
476,118.75,19.4921,20.1398,155.806,98.9154,94.9213,1.78291e-05,0.0463858,21.0169,898.036,0.369696,0.0,0.0
480,119.75,20.2741,20.4182,151.796,98.8999,94.4678,2.19972e-05,0.0464628,21.0169,897.996,0.411244,0.0,0.0
484,120.75,19.7461,20.4044,155.571,98.8681,94.9907,-3.82488e-06,0.0464639,21.0169,898.006,0.358845,0.0,0.0
488,121.75,20.1184,20.6765,154.091,98.8591,94.6779,-6.87293e-05,0.0464534,21.0169,898.016,0.387615,0.0,0.0
492,122.75,20.3547,20.7141,153.65,98.8497,94.2884,-0.000131427,0.0464173,21.0169,898.016,0.423742,0.0,0.0
496,123.75,20.3,20.4623,155.324,98.8427,94.6399,-0.000201777,0.0463226,21.0169,897.996,0.389731,0.0,0.0
500,124.75,20.1863,20.2971,156.68,98.8427,95.0473,-0.000265912,0.0461814,21.0169,897.986,0.351205,0.0,0.0
504,125.75,20.4714,20.347,152.324,98.8346,94.4457,-0.000316981,0.0460872,21.0163,897.976,0.407414,0.0,0.0
508,126.75,20.508,20.7203,146.272,98.8288,94.5384,-0.000345991,0.0460862,21.0157,897.986,0.398101,0.0,0.0
512,127.75,20.067,20.6676,154.746,98.8219,94.2465,-0.000331316,0.0462106,21.0153,897.986,0.425205,0.0,0.0
516,128.75,20.4552,20.4158,153.359,98.819,94.6132,-0.000263259,0.0465534,21.0151,897.956,0.390116,0.0,0.0
520,129.75,20.3853,20.919,154.245,98.8244,94.5783,-0.000180115,0.0469311,21.0149,897.956,0.393906,0.0,0.0
524,130.75,19.8719,21.2549,151.951,98.8346,94.4806,-9.43853e-05,0.0471465,21.0148,897.946,0.404102,0.0,0.0
528,131.75,20.2138,20.7294,151.954,98.8337,94.4097,1.77662e-05,0.047245,21.0146,897.956,0.410762,0.0,0.0
532,132.75,20.5304,20.8124,151.681,98.848,94.4988,0.000137567,0.0472918,21.0145,897.956,0.403595,0.0,0.0
536,133.75,20.2768,20.6923,158.925,98.848,94.3205,0.000281209,0.047308,21.0146,897.936,0.420535,0.0,0.0
540,134.75,19.8977,20.8335,154.644,98.8619,94.4643,0.000393203,0.047283,21.0147,897.896,0.40813,0.0,0.0
544,135.75,20.6078,20.5229,155.404,98.8717,94.6903,0.000466523,0.0475677,21.0147,897.936,0.387588,0.0,0.0
548,136.75,19.8826,21.2716,155.923,98.8766,94.0376,0.000498641,0.0478904,21.0139,897.926,0.450077,0.0,0.0
552,137.75,20.3532,21.1113,153.706,98.9073,94.0507,0.000470149,0.0479995,21.0134,897.926,0.451598,0.0,0.0
556,138.75,19.9547,20.6282,153.169,98.9077,94.317,0.000442447,0.0480193,21.0131,897.936,0.426276,0.0,0.0
560,139.75,20.4205,20.9118,153.586,98.9297,94.1678,0.000491861,0.0488731,21.0103,897.946,0.442479,0.0,0.0
564,140.75,20.3047,20.793,150.709,98.9453,94.3635,0.000689034,0.0518853,20.9965,897.896,0.42526,0.0,0.0
568,141.75,20.1607,20.787,150.463,98.9775,94.088,0.00109237,0.0631743,20.975,897.856,0.454419,0.0,1.0
572,142.75,20.4967,20.8576,152.523,98.9902,88.5343,0.00170838,0.0783122,20.9471,897.856,1.00127,0.0,1.0
576,143.75,20.5924,21.223,144.309,99.0024,81.7612,0.00239716,0.101741,20.9134,897.866,1.71624,0.0,1.0
580,144.75,20.7788,21.6033,138.971,99.038,73.9532,0.00433327,0.134343,20.8645,897.576,2.61973,0.0,1.0
584,145.75,21.4469,21.8439,141.147,99.0555,66.4704,0.00675681,0.170843,20.7923,897.736,3.57814,0.0,1.0
588,146.75,20.8301,21.7947,131.321,99.0939,55.263,0.00961306,0.2254,20.6919,897.516,5.23786,0.0,0.0
592,147.75,22.6417,23.8746,128.432,99.0997,52.9413,0.0127521,0.292237,20.5434,897.416,5.62336,0.0,0.0
596,148.75,23.2412,24.9841,132.415,99.125,51.0164,0.0159778,0.374246,20.3914,897.326,5.95784,0.0,0.0
600,149.75,23.7363,26.1446,128.14,99.1605,49.2908,0.018827,0.459685,20.2523,897.125,6.2697,0.0,0.0
604,150.75,25.1542,28.1691,115.377,99.1899,47.3961,0.0215758,0.542074,20.1451,897.035,6.62393,0.0,0.0
608,151.75,26.9776,30.1701,117.144,99.2136,48.7543,0.0241049,0.616891,20.0499,896.815,6.37266,0.0,0.0
612,152.75,28.0815,32.2359,123.361,99.2438,47.6089,0.0260813,0.678366,19.9777,896.775,6.58862,0.0,0.0
616,153.75,29.458,33.9704,119.594,99.2757,44.9488,0.0278308,0.732554,19.921,896.575,7.10722,0.0,0.0
620,154.75,31.0166,35.592,119.947,99.3055,45.7372,0.0293292,0.775073,19.8747,896.435,6.95396,0.0,0.0
624,155.75,32.1765,38.1385,124.516,99.3251,47.3043,0.0305206,0.808145,19.8365,896.275,6.65355,0.0,0.0
628,156.75,33.6913,39.6633,117.433,99.3713,44.7197,0.0315046,0.829844,19.8065,896.115,7.16168,0.0,0.0
632,157.75,34.9495,41.0693,119.881,99.3999,46.2907,0.0323378,0.849423,19.7829,896.014,6.85458,0.0,0.0
636,158.75,36.5598,43.7246,121.635,99.4403,45.2914,0.0331248,0.867278,19.7545,895.844,7.05397,0.0,0.0
640,159.75,37.5189,45.08,120.303,99.482,45.1972,0.0338759,0.886156,19.7264,895.704,7.0764,0.0,0.0
644,160.75,38.9146,46.5412,121.299,99.5069,46.3294,0.0345986,0.905872,19.6949,895.544,6.85672,0.0,0.0
648,161.75,40.7723,48.9027,117.532,99.5526,43.634,0.0352584,0.925508,19.6623,895.384,7.39848,0.0,0.0
652,162.75,41.9079,50.6062,115.803,99.5947,47.0477,0.0359065,0.946648,19.6281,895.174,6.72665,0.0,0.0
656,163.75,42.9804,51.948,116.519,99.6302,43.8034,0.0366069,0.967818,19.5983,895.054,7.37072,0.0,0.0
660,164.75,44.4732,53.9906,115.486,99.6744,43.8487,0.0372761,0.987823,19.5747,894.944,7.36541,0.0,0.0
664,165.75,45.9388,55.9555,116.757,99.7054,46.4236,0.038146,1.00528,19.5521,894.673,6.85638,0.0,0.0
668,166.75,46.6649,57.2822,109.808,99.7405,46.6275,0.0390602,1.02118,19.5276,894.543,6.82023,0.0,0.0
672,167.75,48.5923,59.5949,114.889,99.7826,41.749,0.0400011,1.03658,19.5051,894.373,7.81527,0.0,0.0
676,168.75,49.7364,60.9116,116.335,99.8328,41.4254,0.0409608,1.05222,19.4735,894.233,7.88959,0.0,0.0
680,169.75,50.6731,62.3367,111.703,99.8819,40.6168,0.041944,1.0705,19.4398,894.083,8.07079,0.0,0.0
684,170.75,51.838,64.1412,117.015,99.908,40.0253,0.0428569,1.09055,19.4057,893.853,8.20472,0.0,0.0
688,171.75,53.2695,65.8779,119.362,99.9492,41.0742,0.0439311,1.1116,19.3771,893.652,7.9764,0.0,0.0
692,172.75,54.4681,67.4976,116.847,99.9836,42.525,0.0450802,1.13242,19.3485,893.512,7.66813,0.0,0.0
696,173.75,55.8722,69.3165,114.906,100.021,42.2913,0.0460342,1.15216,19.3257,893.362,7.72093,0.0,0.0
700,174.75,56.8067,70.96,109.843,100.066,40.4319,0.0470232,1.16776,19.3019,893.112,8.12821,0.0,0.0
704,175.75,58.2369,72.5902,118.4,100.106,40.2424,0.047964,1.18411,19.2782,892.972,8.17394,0.0,0.0
708,176.75,59.3272,74.2284,115.328,100.138,39.9145,0.0487999,1.20494,19.2539,892.712,8.25026,0.0,0.0
712,177.75,61.1135,76.0643,111.226,100.171,39.1218,0.0497703,1.22686,19.2235,892.602,8.4331,0.0,0.0
716,178.75,61.8859,77.4407,109.215,100.218,36.2531,0.050706,1.24865,19.1976,892.381,9.12038,0.0,0.0
720,179.75,63.382,79.6326,105.162,100.24,36.7376,0.0519347,1.26797,19.171,892.161,9.00331,0.0,0.0
724,180.75,64.6799,81.167,111.451,100.273,36.4159,0.053289,1.2895,19.1391,891.971,9.08512,0.0,0.0
728,181.75,66.065,82.8334,121.246,100.312,38.5342,0.0548046,1.31801,19.0858,891.731,8.58149,0.0,0.0
732,182.75,67.3911,85.1011,104.158,100.346,38.5443,0.0562118,1.34755,19.0331,891.481,8.58218,0.0,0.0
736,183.75,68.3502,86.114,117.185,100.386,35.4721,0.0573936,1.37611,18.9899,891.34,9.33074,0.0,0.0
740,184.75,69.9484,88.1754,105.21,100.41,37.7834,0.0583903,1.40227,18.952,891.12,8.76674,0.0,0.0
744,185.75,71.7097,90.4416,107.315,100.459,39.5699,0.0593373,1.42711,18.9204,890.92,8.35666,0.0,0.0
748,186.75,72.9743,91.9547,106.032,100.479,34.2616,0.0600547,1.45231,18.8954,890.74,9.65049,0.0,0.0
752,187.75,74.3072,93.8137,109.054,100.524,34.8833,0.0610395,1.4752,18.857,890.45,9.49323,0.0,0.0
756,188.75,75.2899,95.2743,104.02,100.555,32.0259,0.0621684,1.50404,18.8132,890.179,10.2625,0.0,0.0
760,189.75,77.0873,97.4523,98.8768,100.585,33.3185,0.0633384,1.52479,18.7714,889.919,9.91031,0.0,0.0
764,190.75,78.4989,99.4,112.451,100.608,31.9925,0.0647636,1.54833,18.741,889.819,10.2767,0.0,0.0
768,191.75,79.8899,101.169,97.696,100.651,29.9599,0.0661705,1.56576,18.7179,889.469,10.8692,0.0,0.0
772,192.75,80.7916,102.52,109.893,100.686,32.5092,0.067962,1.58384,18.6907,889.339,10.1398,0.0,0.0
776,193.75,81.917,104.27,97.7937,100.713,30.8657,0.0696546,1.60597,18.6568,889.048,10.6075,0.0,0.0
780,194.75,83.6976,106.096,106.074,100.738,30.1595,0.0712557,1.62984,18.621,888.898,10.8174,0.0,0.0
784,195.75,84.7159,107.798,109.904,100.758,30.7417,0.0727087,1.65333,18.5853,888.588,10.6477,0.0,0.0
788,196.75,86.1427,109.5,104.758,100.784,29.0478,0.0740618,1.67709,18.5471,888.318,11.1584,0.0,0.0
792,197.75,87.6673,111.161,97.7227,100.807,29.9979,0.0752685,1.6981,18.5102,888.128,10.8717,0.0,0.0
796,198.75,88.3651,112.713,99.6897,100.834,31.1592,0.0763487,1.72003,18.4751,887.887,10.5335,0.0,0.0
800,199.75,90.4536,115.011,90.2472,100.872,29.2595,0.0774203,1.74456,18.445,887.637,11.1011,0.0,0.0
804,200.75,91.6261,116.777,100.562,100.89,27.7214,0.0785688,1.76812,18.416,887.377,11.587,0.0,0.0
808,201.75,92.9051,118.388,99.5385,100.903,27.949,0.079557,1.79326,18.3854,887.057,11.5149,0.0,0.0
812,202.75,94.2827,120.331,101.396,100.932,29.2665,0.0808071,1.81182,18.3619,886.826,11.1043,0.0,0.0
816,203.75,95.7795,122.197,103.156,100.948,30.7522,0.0817501,1.82973,18.3366,886.536,10.6615,0.0,0.0
820,204.75,96.844,123.57,94.6772,100.963,28.9641,0.0824378,1.84272,18.3189,886.336,11.2002,0.0,0.0
824,205.75,97.6113,124.744,100.685,100.981,27.6932,0.0829704,1.85105,18.3016,886.106,11.6043,0.0,0.0
828,206.75,99.0485,126.263,97.4304,100.975,27.6548,0.0835776,1.86199,18.2857,885.816,11.6161,0.0,0.0
832,207.75,100.011,127.535,98.2845,101.005,27.3838,0.0843066,1.87491,18.2685,885.535,11.7071,0.0,0.0
836,208.75,101.205,129.258,95.3176,101.028,29.4688,0.0851276,1.88684,18.2458,885.315,11.051,0.0,0.0
840,209.75,102.353,130.746,99.7499,101.019,26.2958,0.0859439,1.89991,18.2223,885.045,12.072,0.0,0.0
844,210.75,103.933,132.634,98.4554,101.011,27.5935,0.0867164,1.91285,18.1981,884.745,11.6392,0.0,0.0
848,211.75,104.916,133.59,99.463,101.027,26.6741,0.0874569,1.92685,18.1747,884.484,11.9446,0.0,0.0
852,212.75,105.948,135.026,96.2519,101.026,29.1889,0.0880838,1.94159,18.156,884.164,11.1364,0.0,0.0
856,213.75,107.482,136.787,102.273,101.026,26.9722,0.088771,1.95868,18.1342,883.964,11.8448,0.0,0.0
860,214.75,108.261,137.704,98.2852,101.013,26.6889,0.0893978,1.97442,18.1102,883.714,11.9384,0.0,0.0
864,215.75,109.706,139.621,88.9656,101.026,26.4489,0.0899208,1.99044,18.09,883.393,12.0206,0.0,0.0
868,216.75,109.949,140.112,92.9202,101.018,27.1458,0.0904014,2.00289,18.0746,883.173,11.7866,0.0,0.0
872,217.75,111.943,142.454,85.6408,101.017,28.2439,0.0908289,2.01191,18.063,882.863,11.4308,0.0,0.0
876,218.75,113.101,143.951,91.4005,101.006,27.2575,0.0911789,2.01834,18.0542,882.603,11.7487,0.0,0.0
880,219.75,114.012,145.029,97.0243,100.99,29.2215,0.0915222,2.02314,18.0473,882.272,11.1232,0.0,0.0
884,220.75,114.921,146.215,99.7805,100.985,28.0967,0.0918951,2.02761,18.0404,882.072,11.4749,0.0,0.0
888,221.75,116.228,147.856,97.1693,100.99,28.6521,0.092373,2.03152,18.0342,881.772,11.2997,0.0,0.0
892,222.75,117.083,148.81,86.1362,100.959,24.9822,0.0928606,2.03793,18.0265,881.542,12.5263,0.0,0.0
896,223.75,116.975,148.923,95.0871,100.937,25.9245,0.0933482,2.05152,18.0085,881.202,12.1923,0.0,0.0
900,224.75,118.407,150.889,95.5199,100.936,29.2564,0.0936896,2.0727,17.9795,880.891,11.1077,0.0,0.0
904,225.75,119.97,152.621,87.8429,100.922,26.3935,0.0937527,2.09239,17.9533,880.731,12.0302,0.0,0.0
908,226.75,121.111,153.942,88.1695,100.906,25.7516,0.0937525,2.11232,17.9361,880.391,12.2496,0.0,0.0
912,227.75,121.459,154.637,94.7681,100.884,27.7866,0.0933978,2.12167,17.9248,880.131,11.5654,0.0,0.0
916,228.75,123.141,156.374,98.189,100.871,25.6756,0.0931055,2.12315,17.9174,879.9,12.2729,0.0,0.0
920,229.75,123.929,157.313,97.9028,100.85,26.2985,0.0930362,2.12264,17.9125,879.63,12.0561,0.0,0.0
924,230.75,124.813,158.4,89.0572,100.833,25.2884,0.0932459,2.12431,17.9081,879.39,12.4059,0.0,0.0
928,231.75,125.393,159.227,88.036,100.819,25.5163,0.0936927,2.12917,17.901,879.05,12.3241,0.0,0.0
932,232.75,126.504,160.416,97.4616,100.8,25.4737,0.0943195,2.13446,17.8953,878.89,12.3374,0.0,0.0
936,233.75,127.441,161.677,100.226,100.764,23.6957,0.0950236,2.13815,17.8916,878.569,12.9832,0.0,0.0
940,234.75,127.918,162.449,99.0897,100.756,27.611,0.095755,2.1397,17.8901,878.249,11.6109,0.0,0.0
944,235.75,128.79,163.289,90.4181,100.715,25.5427,0.0963848,2.13981,17.8898,877.949,12.3056,0.0,0.0
948,236.75,129.591,164.249,96.3938,100.698,26.8679,0.096945,2.13893,17.8915,877.779,11.8504,0.0,0.0
952,237.75,130.4,165.286,88.597,100.684,25.647,0.0973472,2.1348,17.8971,877.518,12.2663,0.0,0.0
956,238.75,131.046,166.052,87.0704,100.663,23.7004,0.0975045,2.12629,17.9097,877.168,12.9725,0.0,0.0
960,239.75,131.708,166.861,102.433,100.643,26.3888,0.0974643,2.11732,17.9196,876.868,12.0069,0.0,0.0
964,240.75,132.448,167.46,92.7667,100.622,26.5629,0.0971574,2.11161,17.926,876.698,11.946,0.0,0.0
968,241.75,133.087,168.48,97.757,100.6,29.7176,0.0967011,2.10739,17.9321,876.427,10.9375,0.0,0.0
972,242.75,133.921,169.223,92.637,100.586,25.7059,0.096206,2.10284,17.9383,876.167,12.2371,0.0,0.0
976,243.75,134.387,169.852,91.5394,100.565,26.0303,0.0957312,2.09791,17.9459,875.817,12.1226,0.0,0.0
980,244.75,135.188,171.341,100.818,100.536,27.7195,0.0952823,2.09182,17.9529,875.567,11.5561,0.0,0.0
984,245.75,135.656,171.344,85.1599,100.528,27.811,0.094926,2.08464,17.96,875.296,11.5258,0.0,0.0
988,246.75,135.537,171.328,101.522,100.501,29.1707,0.094612,2.07471,17.9764,875.026,11.0952,0.0,0.0
992,247.75,136.19,171.91,85.2431,100.5,26.7734,0.094384,2.0649,17.9885,874.686,11.8644,0.0,0.0
996,248.75,137.078,172.723,96.7052,100.466,26.1032,0.094204,2.05919,17.9999,874.466,12.0888,0.0,0.0
1000,249.75,137.559,173.239,98.3707,100.466,27.8141,0.0939935,2.05492,18.0098,874.205,11.5193,0.0,0.0
1004,250.75,138.033,173.858,99.0058,100.466,25.7621,0.0935982,2.04943,18.0179,873.965,12.2067,0.0,0.0
1008,251.75,137.819,173.712,102.215,100.444,26.116,0.0929358,2.03744,18.0378,873.715,12.0824,0.0,0.0
1012,252.75,138.667,174.587,91.2814,100.43,26.8563,0.092023,2.01911,18.0717,873.525,11.8304,0.0,0.0
1016,253.75,139.023,174.822,106.547,100.413,26.2016,0.0911059,2.00049,18.094,873.174,12.0503,0.0,0.0
1020,254.75,139.47,174.99,97.4097,100.369,26.7144,0.0900883,1.98516,18.1092,872.934,11.8725,0.0,0.0
1024,255.75,139.873,175.328,88.8969,100.398,26.2311,0.0890125,1.9777,18.1207,872.734,12.0388,0.0,0.0
1028,256.75,139.691,175.158,96.919,100.395,29.094,0.0881563,1.97261,18.1275,872.434,11.1094,0.0,0.0
1032,257.75,139.251,174.721,94.2605,100.381,30.2491,0.0868211,1.96573,18.139,872.204,10.759,0.0,0.0
1036,258.75,140.545,175.979,93.527,100.378,27.4633,0.0855795,1.95107,18.1591,871.903,11.6253,0.0,0.0
1040,259.75,140.542,175.844,93.2881,100.385,27.3447,0.0839383,1.93748,18.1908,871.713,11.6648,0.0,0.0
1044,260.75,141.039,176.064,104.442,100.368,30.3204,0.0823552,1.91333,18.2293,871.473,10.7366,0.0,0.0
1048,261.75,141.206,176.288,96.8342,100.352,30.1366,0.0805007,1.88346,18.2704,871.243,10.7898,0.0,0.0
1052,262.75,141.473,176.396,95.5519,100.35,30.3739,0.0782596,1.8521,18.3189,870.983,10.7192,0.0,0.0
1056,263.75,141.225,175.858,106.393,100.35,33.3263,0.0758997,1.81858,18.3743,870.752,9.88726,0.0,0.0
1060,264.75,141.129,175.625,95.4306,100.343,30.4165,0.0736504,1.78199,18.438,870.592,10.7061,0.0,0.0
1064,265.75,141.583,175.529,109.247,100.328,30.3351,0.0712165,1.73579,18.5152,870.382,10.7287,0.0,0.0
1068,266.75,141.306,175.029,112.913,100.32,31.4297,0.068438,1.68568,18.6009,870.202,10.4101,0.0,0.0
1072,267.75,140.74,174.258,104.61,100.321,35.8512,0.0658441,1.63305,18.6627,870.012,9.22959,0.0,0.0
1076,268.75,140.355,173.566,115.506,100.303,37.138,0.0635178,1.57609,18.7293,869.822,8.9117,0.0,0.0
1080,269.75,139.752,172.763,102.315,100.292,38.1555,0.0609364,1.52323,18.7903,869.571,8.66828,0.0,0.0
1084,270.75,139.887,172.078,108.032,100.298,41.6901,0.0578475,1.46036,18.8651,869.451,7.87419,0.0,0.0
1088,271.75,139.337,170.845,108.65,100.304,39.0311,0.0550797,1.41911,18.9382,869.321,8.46583,0.0,0.0
1092,272.75,138.533,169.448,116.528,100.285,40.2916,0.0519842,1.34223,19.0473,869.141,8.17899,0.0,0.0
1096,273.75,137.517,168.208,111.847,100.289,43.0533,0.0492331,1.26824,19.1874,868.981,7.58471,0.0,0.0
1100,274.75,136.139,166.151,120.31,100.312,44.5786,0.0467387,1.19051,19.3164,868.901,7.27453,0.0,0.0
1104,275.75,135.383,164.723,117.023,100.341,40.9893,0.0438522,1.11514,19.4296,868.791,8.03008,0.0,0.0
1108,276.75,134.468,163.205,116.934,100.367,43.2289,0.0410382,1.04236,19.5376,868.601,7.55522,0.0,0.0
1112,277.75,133.239,161.217,124.717,100.394,41.132,0.0382038,0.975066,19.6427,868.57,8.00359,0.0,0.0
1116,278.75,131.635,159.071,124.891,100.414,41.4389,0.0353058,0.911153,19.7572,868.49,7.93869,0.0,0.0
1120,279.75,130.017,156.756,124.43,100.433,46.3779,0.0324382,0.842892,19.863,868.43,6.93043,0.0,0.0
1124,280.75,128.86,154.762,127.7,100.455,49.4268,0.0296258,0.773899,19.9607,868.33,6.36127,0.0,0.0
1128,281.75,127.277,152.416,135.279,100.475,52.485,0.0272368,0.70387,20.0533,868.24,5.82464,0.0,0.0
1132,282.75,125.459,149.826,136.986,100.511,61.4458,0.0244116,0.641092,20.1512,868.19,4.41398,0.0,0.0
1136,283.75,124.28,147.806,140.293,100.528,70.981,0.0214712,0.566681,20.2484,868.18,3.1216,0.0,0.0
1140,284.75,122.323,145.049,142.064,100.548,75.5253,0.0188684,0.49807,20.3534,868.15,2.56674,0.0,0.0
1144,285.75,120.031,142.052,140.85,100.572,81.1092,0.0165567,0.43397,20.4721,868.15,1.92911,0.0,0.0
1148,286.75,118.602,139.892,145.78,100.588,85.3191,0.0146212,0.371702,20.5742,868.15,1.4767,0.0,0.0
1152,287.75,117.13,137.54,146.18,100.61,89.8553,0.0127962,0.3162,20.6605,868.14,1.01399,0.0,0.0
1156,288.75,114.785,134.402,149.283,100.64,93.0096,0.0110323,0.268028,20.7247,868.15,0.707247,0.0,0.0
1160,289.75,113.045,131.842,143.448,100.668,93.7267,0.00937664,0.227172,20.7762,868.14,0.640835,0.0,0.0
1164,290.75,110.475,129.214,142.427,100.667,93.762,0.00787425,0.194726,20.818,868.15,0.637388,0.0,0.0
1168,291.75,109.258,126.848,146.809,100.681,94.3151,0.00655718,0.168609,20.8499,868.16,0.585868,0.0,0.0
1172,292.75,107.295,124.621,147.584,100.698,94.1232,0.00537225,0.146577,20.877,868.16,0.605662,0.0,0.0
1176,293.75,105.815,122.253,148.12,100.703,93.5124,0.00435243,0.129355,20.8995,868.17,0.6645,0.0,0.0
1180,294.75,103.332,119.33,143.812,100.718,94.3821,0.00351963,0.116377,20.9186,868.16,0.582731,0.0,0.0
1184,295.75,102.344,117.21,143.931,100.722,93.81,0.00284661,0.105198,20.9339,868.16,0.637666,0.0,0.0
1188,296.75,101.633,115.746,143.705,100.739,93.6267,0.00227654,0.0965929,20.9467,868.18,0.656741,0.0,0.0
1192,297.75,99.5637,113.164,144.969,100.74,92.6972,0.00182008,0.0901367,20.9565,868.19,0.746341,0.0,0.0
1196,298.75,98.0386,111.259,145.42,100.755,93.2558,0.0014708,0.0846835,20.9642,868.19,0.693766,0.0,0.0
1200,299.75,96.4791,109.03,147.903,100.772,94.2372,0.00123,0.0803075,20.9709,868.21,0.601392,0.0,0.0
1204,300.75,95.2431,107.55,146.155,100.755,94.5717,0.0010773,0.0766434,20.9762,868.19,0.568046,0.0,0.0
1208,301.75,93.779,105.538,145.948,100.748,93.2387,0.000985124,0.0736656,20.9802,868.19,0.694789,0.0,0.0
1212,302.75,92.4544,103.87,147.797,100.751,94.1422,0.000935315,0.071221,20.9831,868.18,0.60858,0.0,0.0
1216,303.75,91.1384,102.111,148.263,100.749,93.6193,0.000905505,0.0689981,20.9852,868.18,0.658283,0.0,0.0
1220,304.75,90.0636,100.698,146.704,100.754,93.7659,0.000874727,0.067217,20.9873,868.18,0.644765,0.0,0.0
1224,305.75,88.4671,98.7047,145.539,100.742,94.4008,0.000831733,0.0656011,20.9894,868.17,0.583109,0.0,0.0
1228,306.75,87.3149,97.0418,147.571,100.738,94.2403,0.000760032,0.064188,20.9909,868.18,0.598078,0.0,0.0
1232,307.75,86.1693,95.2536,145.101,100.705,94.0628,0.000656886,0.0630339,20.9927,868.18,0.612008,0.0,0.0
1236,308.75,84.6445,93.9303,149.696,100.698,94.0256,0.000565017,0.0619491,20.9945,868.17,0.614902,0.0,0.0
1240,309.75,83.9984,92.1616,149.343,100.688,94.4384,0.000457471,0.0609099,20.9963,868.17,0.574772,0.0,0.0
1244,310.75,82.4993,91.0649,149.465,100.672,94.7027,0.000362162,0.0600015,20.9976,868.17,0.548245,0.0,0.0
1248,311.75,82.23,89.299,151.013,100.654,94.9391,0.000281908,0.0592269,20.999,868.18,0.524277,0.0,0.0
1252,312.75,80.7912,87.9384,145.4,100.637,94.8074,0.000207097,0.0585594,21.0002,868.2,0.535208,0.0,0.0
1256,313.75,79.4814,86.8335,147.53,100.613,94.9407,0.000138962,0.0579801,21.001,868.2,0.520454,0.0,0.0
1260,314.75,79.0335,85.032,145.817,100.575,94.7748,9.02359e-05,0.0574751,21.0015,868.19,0.532789,0.0,0.0
1264,315.75,77.9331,84.2285,146.975,100.557,94.6674,0.000112222,0.0568671,21.0017,868.19,0.541354,0.0,0.0
1268,316.75,76.3233,82.9884,144.711,100.468,94.3535,0.000155238,0.0562166,21.0018,868.2,0.563168,0.0,0.0
1272,317.75,75.679,81.6845,144.068,100.48,94.7128,0.000211593,0.0556092,21.0018,868.19,0.530169,0.0,0.0
1276,318.75,74.7027,80.4228,144.817,100.464,94.5949,0.000240162,0.055006,21.0021,868.18,0.53995,0.0,0.0
1280,319.75,73.4168,78.5953,151.626,100.442,94.2469,0.000228947,0.0544676,21.0028,868.19,0.571046,0.0,0.0
1284,320.75,73.348,78.5658,145.575,100.411,95.145,0.000185603,0.0538882,21.0033,868.2,0.483169,0.0,0.0
1288,321.75,71.412,76.3875,151.81,100.361,94.5911,0.000135837,0.0532819,21.0045,868.2,0.531123,0.0,0.0
1292,322.75,71.6942,76.2957,146.45,100.326,94.1263,9.0433e-05,0.0528339,21.0052,868.19,0.57216,0.0,0.0
1296,323.75,70.7566,74.9182,147.298,100.267,94.0663,6.06435e-05,0.0524897,21.0057,868.18,0.572554,0.0,0.0
1300,324.75,70.3851,73.8561,145.421,100.256,94.9376,4.46403e-05,0.0521847,21.006,868.19,0.488901,0.0,0.0
1304,325.75,68.6974,72.4149,147.985,100.279,93.7965,2.6239e-05,0.0518939,21.0062,868.18,0.599412,0.0,0.0
1308,326.75,68.7452,71.8807,148.671,100.281,94.8938,-7.69551e-06,0.0516469,21.0068,868.18,0.495232,0.0,0.0
1312,327.75,67.9534,70.7313,143.538,100.312,94.7256,-5.64508e-05,0.0512548,21.0075,868.17,0.513997,0.0,0.0
1316,328.75,67.1187,70.3369,151.702,100.282,95.3155,-0.000118949,0.050919,21.008,868.2,0.45557,0.0,0.0
1320,329.75,66.0345,68.8584,146.365,100.34,95.3159,-0.000180346,0.0506663,21.0083,868.23,0.460719,0.0,0.0
1324,330.75,65.7731,68.2673,145.644,100.342,94.5085,-0.000256713,0.0504503,21.0086,868.27,0.537203,0.0,0.0
1328,331.75,65.1421,67.0982,146.822,100.385,94.6748,-0.000313191,0.050273,21.0087,868.22,0.525304,0.0,0.0
1332,332.75,64.1352,66.821,149.878,100.401,95.0066,-0.000336763,0.0500562,21.0088,868.18,0.495312,0.0,0.0
1336,333.75,63.9735,65.7247,148.772,100.427,94.9519,-0.000305036,0.0498724,21.0088,868.18,0.502845,0.0,0.0
1340,334.75,63.3663,65.2101,146.068,100.458,94.5391,-0.000232533,0.0497181,21.0089,868.22,0.544698,0.0,0.0
1344,335.75,62.4578,64.6075,147.942,100.505,95.0019,-0.000128777,0.0495891,21.0095,868.21,0.505088,0.0,0.0
1348,336.75,61.9178,63.6978,151.933,100.532,95.138,-3.58538e-05,0.0494602,21.0101,868.2,0.494657,0.0,0.0
1352,337.75,61.4041,62.5397,144.266,100.571,94.9438,4.52406e-05,0.0493076,21.0105,868.22,0.516409,0.0,0.0
1356,338.75,60.3918,61.8098,146.237,100.591,95.0539,0.000111946,0.0491719,21.0105,868.21,0.507874,0.0,0.0
1360,339.75,60.3923,61.5002,150.705,100.65,94.3345,0.000175964,0.0490326,21.0103,868.21,0.581223,0.0,0.0
1364,340.75,59.5271,61.1307,152.416,100.674,95.8644,0.000235975,0.0489413,21.0102,868.21,0.439108,0.0,0.0
1368,341.75,59.3678,60.2469,144.955,100.724,95.5062,0.000284354,0.0488595,21.0101,868.21,0.477121,0.0,0.0
1372,342.75,58.6694,59.412,143.647,100.756,95.2039,0.000307225,0.0487305,21.0101,868.22,0.508432,0.0,0.0
1376,343.75,58.0115,58.6572,147.139,100.801,95.588,0.000319845,0.0486341,21.01,868.21,0.476278,0.0,0.0
1380,344.75,57.3773,57.6363,145.918,100.839,95.2926,0.000283113,0.0485973,21.01,868.2,0.507415,0.0,0.0
1384,345.75,57.0496,57.5014,149.702,100.871,95.9136,0.000205042,0.0485553,21.01,868.21,0.452027,0.0,0.0
1388,346.75,56.887,57.018,148.442,100.906,95.8535,0.000124602,0.0484882,21.01,868.24,0.460771,0.0,0.0
1392,347.75,55.8856,56.529,147.1,100.926,96.0341,6.28366e-05,0.0484197,21.0106,868.21,0.445664,0.0,0.0
1396,348.75,55.8955,55.6938,150.208,100.95,95.9892,4.25375e-05,0.0483497,21.0112,868.18,0.451969,0.0,0.0
1400,349.75,55.6058,54.9695,151.13,100.968,95.4256,4.6932e-05,0.0482787,21.0116,868.19,0.506347,0.0,0.0
1404,350.75,55.059,55.0236,144.418,100.999,95.9888,5.20955e-05,0.0482135,21.0118,868.14,0.456395,0.0,0.0
1408,351.75,54.759,54.3258,147.043,101.007,95.9621,4.10533e-05,0.048153,21.012,868.16,0.459547,0.0,0.0
1412,352.75,54.0723,54.0723,143.164,100.993,95.5628,1.59089e-05,0.0481133,21.0121,868.19,0.495745,0.0,0.0
1416,353.75,53.9729,53.7209,145.827,101.006,95.3295,-2.36344e-05,0.048012,21.0122,868.19,0.518834,0.0,0.0
1420,354.75,52.973,52.4509,146.103,101,95.8427,-5.71816e-05,0.0479258,21.0122,868.17,0.470096,0.0,0.0
1424,355.75,52.9164,52.3765,145.591,100.987,95.1496,-6.91821e-05,0.047889,21.0122,868.16,0.534066,0.0,0.0
1428,356.75,52.6702,51.6138,145.783,100.971,94.8942,-6.43054e-05,0.0478846,21.0123,868.24,0.556763,0.0,0.0
1432,357.75,52.116,51.1906,146.933,100.943,95.1058,-5.04804e-05,0.047887,21.0127,868.25,0.534314,0.0,0.0
1436,358.75,51.0424,50.8992,147.141,100.904,95.8477,-3.14686e-05,0.0479302,21.0129,868.24,0.461133,0.0,0.0
1440,359.75,51.7852,50.6809,149.709,100.853,95.9496,-2.41725e-05,0.047963,21.0127,868.23,0.447023,0.0,0.0
1444,360.75,51.306,50.3299,148.462,100.778,95.4415,-2.1291e-05,0.0479134,21.0126,868.21,0.488001,0.0,0.0
1448,361.75,50.9542,49.6529,143.499,100.737,96.1279,-7.96624e-05,0.0478307,21.0125,868.22,0.420084,0.0,0.0
1452,362.75,50.7128,49.5664,147.409,100.668,95.7973,-0.000149836,0.0478517,21.0124,868.22,0.444838,0.0,0.0
1456,363.75,50.2568,48.8795,149.776,100.593,96.221,-0.000254307,0.0478931,21.0124,868.2,0.398561,0.0,0.0
1460,364.75,49.9014,48.7677,146.013,100.486,95.4752,-0.000354726,0.0479567,21.0124,868.22,0.458765,0.0,0.0
1464,365.75,49.5515,48.5891,150.089,100.403,95.3775,-0.000419253,0.0480373,21.0123,868.21,0.460615,0.0,0.0
1468,366.75,49.3985,47.9287,149.387,100.311,95.3496,-0.000428711,0.0481126,21.0123,868.24,0.454954,0.0,0.0
1472,367.75,48.9896,47.6067,146.442,100.191,95.1519,-0.000387488,0.0481621,21.0123,868.21,0.462897,0.0,0.0
1476,368.75,48.727,47.7923,147.524,100.075,94.4694,-0.000322177,0.0482196,21.0123,868.22,0.517081,0.0,0.0
1480,369.75,48.797,46.6175,149.378,99.955,94.3686,-0.000258802,0.0482072,21.0123,868.2,0.515849,0.0,0.0
1484,370.75,48.5908,46.6168,151.84,99.8533,95.2198,-0.000211188,0.048199,21.0123,868.2,0.426177,0.0,0.0
1488,371.75,47.8651,46.5196,145.468,99.7397,94.3957,-0.000159723,0.0482332,21.0123,868.21,0.493933,0.0,0.0
1492,372.75,47.9655,46.1744,146.139,99.6102,94.8574,-0.000119215,0.0482465,21.0129,868.21,0.438524,0.0,0.0
1496,373.75,47.4584,46.0889,146.598,99.5126,94.4496,-7.91545e-05,0.048151,21.0135,868.21,0.46837,0.0,0.0
1500,374.75,47.3136,45.7439,149.937,99.3909,94.7267,-3.67564e-05,0.048048,21.0139,868.2,0.431111,0.0,0.0
1504,375.75,46.8431,45.1305,145.851,99.2978,93.9651,2.02647e-05,0.0479838,21.0143,868.2,0.495113,0.0,0.0
1508,376.75,46.6311,45.2429,151.46,99.192,94.0666,8.31676e-05,0.0479772,21.0147,868.21,0.475864,0.0,0.0
1512,377.75,46.0743,44.6856,146.062,99.1242,94.3411,0.000136283,0.0479492,21.015,868.21,0.443601,0.0,0.0
1516,378.75,45.8216,44.6254,150.605,99.031,94.2969,0.000192533,0.0479058,21.0152,868.19,0.439373,0.0,0.0
1520,379.75,45.911,44.5444,150.386,98.9571,93.6077,0.000223183,0.0478523,21.0153,868.2,0.498467,0.0,0.0
1524,380.75,45.6773,43.5034,148.843,98.9065,93.229,0.000213021,0.0478369,21.0154,868.19,0.530236,0.0,0.0
1528,381.75,45.153,43.2513,146.99,98.864,93.4089,0.000179235,0.0478737,21.0154,868.2,0.509095,0.0,0.0
1532,382.75,45.5022,42.7414,151.008,98.8415,93.8969,0.000135194,0.0479176,21.0154,868.19,0.460321,0.0,0.0
1536,383.75,45.363,42.749,149.182,98.8182,94.1294,8.31364e-05,0.047866,21.0151,868.18,0.436018,0.0,0.0
1540,384.75,44.8267,42.8711,148.804,98.8117,94.5694,6.15961e-05,0.0477621,21.0143,868.19,0.393602,0.0,0.0
1544,385.75,44.4922,42.5064,150.399,98.8411,94.4806,5.74559e-05,0.0476995,21.0135,868.2,0.404693,0.0,0.0
1548,386.75,44.3233,42.3431,146.804,98.8583,93.5434,5.11973e-05,0.0476557,21.0128,868.2,0.495671,0.0,0.0
1552,387.75,44.0283,42.1591,147.275,98.9016,93.9876,4.43666e-05,0.0476964,21.0122,868.21,0.457107,0.0,0.0
1556,388.75,43.848,41.7527,148.129,98.951,93.5689,4.29516e-05,0.0478,21.0119,868.19,0.501628,0.0,0.0
1560,389.75,43.2852,41.2232,145.586,99.0249,94.2356,3.58912e-05,0.047957,21.0112,868.21,0.444645,0.0,0.0
1564,390.75,43.8539,41.109,152.068,99.0833,94.712,2.2269e-05,0.0480599,21.0108,868.21,0.404707,0.0,0.0
1568,391.75,42.9071,41.1954,151.811,99.2197,94.1225,8.15852e-06,0.0480449,21.0109,868.21,0.473054,0.0,0.0
1572,392.75,43.2322,40.8623,148.675,99.2892,94.6027,-1.16821e-05,0.04801,21.011,868.2,0.433681,0.0,0.0
1576,393.75,43.1481,41.0084,148.938,99.379,94.2825,-3.1075e-05,0.0479693,21.011,868.2,0.472201,0.0,0.0
1580,394.75,41.8827,39.9174,148.904,99.4934,94.7806,-4.37987e-05,0.0478674,21.0111,868.21,0.435257,0.0,0.0
1584,395.75,42.6774,40.4461,142.854,99.5857,94.331,-3.64154e-05,0.047761,21.0111,868.21,0.486228,0.0,0.0
1588,396.75,42.25,40.4331,146.873,99.6887,95.0954,-1.80873e-05,0.0477201,21.0111,868.19,0.423106,0.0,0.0
1592,397.75,41.7962,39.9831,150.786,99.7842,95.1516,-7.83364e-06,0.0477038,21.0111,868.2,0.426402,0.0,0.0
1596,398.75,42.0151,39.6366,146.834,99.8676,94.8198,,0.0477209,,868.21,0.465221,0.0,0.0
1600,399.75,42.0864,39.784,145.595,99.9586,94.8275,,0.0477473,,868.2,0.472664,0.0,0.0
1604,400.75,41.9285,39.809,150.424,100.051,94.8694,,0.0477468,,868.19,0.476985,0.0,0.0
1608,401.75,41.9625,39.3636,148.753,100.142,94.9012,,,,868.21,0.482143,0.0,0.0
1612,402.75,41.4912,38.7646,150.07,100.219,95.357,,,,868.21,0.446039,0.0,0.0
1616,403.75,41.3846,39.0556,151.433,100.282,95.7202,,,,868.21,0.417606,0.0,0.0
1620,404.75,41.1972,39.06,146.942,100.349,95.6803,,,,868.17,0.427336,0.0,0.0
1624,405.75,40.7601,38.7964,149.806,100.391,95.6314,,,,868.16,0.43564,0.0,0.0
1628,406.75,40.6215,38.7515,149.755,100.414,95.7919,,,,868.16,0.422682,0.0,0.0
1632,407.75,40.5557,37.9031,152.585,100.441,95.9651,,,,868.17,0.408881,0.0,0.0
1636,408.75,40.2054,37.9859,151.869,100.484,96.1919,,,,868.16,0.391541,0.0,0.0