File: 01_Data/HIPS/Cone/HIPS_HRRPUA_50.csv
Time after Ignition,HIPS_R1,HIPS_R2,HIPS_R3,Mean,Std. Dev.
0.0,15.4,14.0,14.9,14.7,0.7
0.25,18.7,16.0,18.6,17.8,1.6
0.5,22.0,17.4,21.9,20.4,2.7
0.75,24.4,23.2,25.5,24.4,1.1
1.0,27.6,28.3,27.8,27.9,0.4
1.25,29.2,33.0,34.0,32.1,2.5
1.5,37.2,37.2,39.1,37.8,1.1
1.75,46.3,45.8,43.8,45.3,1.3
2.0,51.7,55.5,49.9,52.4,2.9
2.25,56.6,62.3,52.2,57.1,5.1
2.5,71.7,67.8,61.5,67.0,5.2
2.75,85.2,74.1,69.4,76.2,8.1
3.0,96.5,87.3,76.9,86.9,9.8
3.25,106.2,99.5,83.3,96.3,11.8
3.5,123.4,111.0,88.8,107.7,17.5
3.75,139.8,117.1,104.0,120.3,18.1
4.0,149.8,126.6,113.2,129.8,18.5
4.25,157.7,141.3,121.7,140.2,18.1
4.5,169.0,151.8,133.0,151.3,18.0
4.75,191.3,165.6,154.9,170.6,18.7
5.0,209.3,175.9,167.3,184.2,22.2
5.25,223.2,210.1,176.2,203.2,24.3
5.5,237.3,207.4,192.8,212.5,22.7
5.75,256.8,221.3,206.2,228.1,26.0
6.0,270.9,231.1,223.1,241.7,25.6
6.25,277.0,246.5,240.3,254.6,19.6
6.5,295.8,253.3,251.2,266.8,25.1
6.75,303.4,271.4,264.2,279.7,20.9
7.0,320.6,280.1,287.3,296.0,21.6
7.25,329.8,300.7,298.1,309.5,17.6
7.5,341.1,314.8,307.2,321.0,17.8
7.75,348.1,326.1,320.6,331.6,14.5
8.0,360.2,328.4,336.3,341.6,16.5
8.25,361.5,351.6,359.3,357.5,5.2
8.5,368.5,357.0,354.3,359.9,7.5
8.75,380.9,367.8,356.5,368.4,12.2
9.0,383.3,373.0,353.5,369.9,15.1
9.25,401.0,389.3,357.3,382.5,22.6
9.5,411.5,398.4,392.1,400.7,9.9
9.75,424.1,405.8,390.7,406.9,16.7
10.0,428.5,410.7,395.3,411.5,16.6
10.25,436.3,417.0,410.9,421.4,13.3
10.5,431.5,437.0,422.4,430.3,7.4
10.75,443.0,424.5,423.3,430.3,11.0
11.0,446.5,439.0,428.0,437.8,9.3
11.25,465.0,447.1,442.1,451.4,12.0
11.5,471.1,441.8,446.1,453.0,15.8
11.75,460.4,455.8,437.2,451.1,12.3
12.0,482.0,475.3,445.5,467.6,19.4
12.25,492.7,470.6,455.9,473.1,18.5
12.5,484.0,459.9,467.2,470.3,12.4
12.75,488.8,498.3,478.5,488.5,9.9
13.0,502.8,499.8,475.8,492.8,14.8
13.25,501.2,487.4,486.3,491.6,8.3
13.5,499.1,498.4,488.8,495.4,5.8
13.75,513.9,495.7,504.9,504.8,9.1
14.0,516.4,510.8,492.5,506.6,12.5
14.25,517.9,523.6,493.9,511.8,15.8
14.5,544.0,526.5,516.4,529.0,14.0
14.75,556.7,527.4,516.5,533.5,20.8
15.0,543.4,514.8,533.7,530.6,14.5
15.25,547.4,534.3,520.8,534.2,13.3
15.5,562.9,561.3,538.8,554.3,13.4
15.75,584.6,556.1,550.4,563.7,18.3
16.0,571.3,569.1,522.8,554.4,27.4
16.25,580.3,574.0,554.5,569.6,13.5
16.5,581.8,559.6,560.6,567.3,12.6
16.75,591.4,565.2,560.9,572.5,16.5
17.0,588.3,560.9,581.8,577.0,14.3
17.25,607.6,572.3,581.6,587.1,18.3
17.5,632.8,571.8,557.6,587.4,39.9
17.75,595.3,580.6,573.8,583.2,11.0
18.0,597.2,583.7,578.7,586.5,9.6
18.25,619.5,594.3,590.2,601.4,15.8
18.5,630.3,595.8,586.8,604.3,23.0
18.75,613.9,581.7,583.2,592.9,18.2
19.0,641.8,590.1,616.2,616.0,25.9
19.25,648.0,588.7,619.0,618.6,29.7
19.5,635.1,602.7,627.8,621.9,17.0
19.75,655.3,611.2,606.8,624.4,26.8
20.0,655.3,615.3,635.1,635.2,20.0
20.25,656.9,611.9,618.1,628.9,24.4
20.5,634.0,643.6,632.0,636.6,6.2
20.75,635.4,618.4,640.6,631.4,11.6
21.0,650.7,643.8,654.1,649.5,5.2
21.25,670.2,612.6,669.3,650.7,33.0
21.5,647.5,641.9,666.9,652.1,13.1
21.75,672.3,661.7,644.1,659.4,14.3
22.0,702.6,629.8,686.5,672.9,38.2
22.25,679.9,648.2,683.7,670.6,19.5
22.5,666.6,631.8,669.4,655.9,20.9
22.75,690.2,673.8,675.5,679.8,9.0
23.0,668.0,667.7,677.6,671.1,5.6
23.25,689.3,687.3,713.8,696.8,14.7
23.5,697.6,639.9,698.7,678.7,33.6
23.75,683.9,699.6,680.8,688.1,10.1
24.0,680.9,677.1,710.2,689.4,18.1
24.25,677.0,692.9,693.5,687.8,9.4
24.5,664.5,668.3,682.5,671.8,9.5
24.75,707.0,687.5,698.8,697.7,9.8
25.0,702.1,705.7,685.6,697.8,10.7
25.25,706.8,696.7,718.5,707.3,10.9
25.5,733.1,694.6,685.3,704.3,25.3
25.75,724.2,680.2,672.2,692.2,28.0
26.0,714.1,702.0,703.9,706.7,6.5
26.25,728.8,718.2,711.9,719.7,8.6
26.5,749.9,695.6,707.9,717.8,28.5
26.75,760.3,714.7,722.2,732.4,24.5
27.0,752.1,720.9,732.0,735.0,15.8
27.25,779.1,723.8,758.5,753.8,27.9
27.5,747.8,717.5,761.8,742.3,22.6
27.75,754.5,723.2,758.6,745.5,19.4
28.0,742.5,716.8,747.1,735.5,16.4
28.25,765.4,749.6,772.9,762.6,11.9
28.5,773.3,745.7,795.2,771.4,24.8
28.75,782.6,716.2,792.9,763.9,41.6
29.0,746.7,725.1,799.9,757.2,38.5
29.25,772.1,775.5,794.8,780.8,12.2
29.5,786.7,768.9,807.5,787.7,19.3
29.75,769.2,748.3,782.2,766.6,17.1
30.0,782.0,733.3,810.3,775.2,38.9
30.25,787.6,761.0,807.1,785.3,23.1
30.5,822.9,782.6,839.6,815.0,29.3
30.75,817.3,781.2,819.0,805.8,21.3
31.0,780.6,796.6,845.7,807.6,33.9
31.25,801.1,772.2,820.9,798.0,24.5
31.5,802.5,791.3,813.4,802.4,11.1
31.75,789.2,802.1,831.2,807.5,21.5
32.0,812.8,779.0,799.5,797.1,17.0
32.25,777.4,762.9,822.0,787.4,30.8
32.5,796.0,817.4,844.5,819.3,24.3
32.75,834.2,806.9,843.6,828.2,19.1
33.0,855.4,783.0,839.5,825.9,38.0
33.25,776.7,829.6,845.5,817.3,36.0
33.5,838.1,781.1,818.4,812.5,29.0
33.75,815.7,794.2,896.0,835.3,53.6
34.0,825.0,822.0,850.5,832.5,15.7
34.25,827.9,804.7,846.9,826.5,21.1
34.5,831.6,803.0,883.9,839.5,41.0
34.75,806.3,829.6,864.8,833.5,29.4
35.0,861.8,798.6,880.7,847.0,43.0
35.25,829.6,863.3,843.3,845.4,16.9
35.5,877.2,838.3,874.3,863.3,21.7
35.75,846.0,803.8,876.0,841.9,36.2
36.0,856.3,860.8,905.9,874.4,27.4
36.25,823.9,856.5,894.1,858.2,35.2
36.5,892.0,829.2,943.1,888.1,57.0
36.75,825.6,817.5,858.8,834.0,21.9
37.0,865.1,863.8,846.2,858.4,10.6
37.25,830.1,849.6,909.7,863.1,41.5
37.5,859.0,820.0,857.7,845.6,22.2
37.75,879.7,904.9,929.5,904.7,24.9
38.0,848.2,898.9,951.1,899.4,51.4
38.25,853.7,854.5,876.0,861.4,12.6
38.5,821.2,877.8,899.4,866.1,40.4
38.75,895.4,881.9,931.5,902.9,25.6
39.0,867.5,903.3,913.0,894.6,24.0
39.25,871.8,855.4,912.0,879.7,29.2
39.5,903.9,936.7,973.8,938.1,34.9
39.75,913.2,860.6,949.4,907.7,44.6
40.0,944.1,876.7,975.0,931.9,50.3
40.25,862.3,911.8,932.5,902.2,36.1
40.5,912.6,923.3,894.7,910.2,14.4
40.75,891.1,895.8,997.1,928.0,59.9
41.0,939.7,859.4,950.8,916.6,49.9
41.25,944.6,941.0,936.0,940.5,4.3
41.5,978.3,903.9,952.5,944.9,37.8
41.75,950.7,913.9,975.1,946.6,30.8
42.0,962.0,909.8,967.4,946.4,31.8
42.25,944.0,949.9,1035.0,976.3,50.9
42.5,953.9,900.4,943.9,932.7,28.4
42.75,971.5,942.9,955.9,956.7,14.3
43.0,899.4,925.0,972.2,932.2,36.9
43.25,981.3,951.4,978.6,970.4,16.5
43.5,968.6,900.1,967.1,945.3,39.1
43.75,923.4,951.2,980.4,951.7,28.5
44.0,950.4,933.0,1011.6,965.0,41.3
44.25,972.7,952.1,1088.4,1004.4,73.5
44.5,955.2,954.7,1043.5,984.5,51.1
44.75,920.0,942.3,996.0,952.8,39.1
45.0,980.3,972.0,1074.4,1008.9,56.9
45.25,1044.6,963.3,1000.9,1002.9,40.7
45.5,1043.4,960.7,995.3,999.8,41.6
45.75,995.0,1003.5,1026.2,1008.3,16.1
46.0,963.6,983.8,1061.0,1002.8,51.4
46.25,954.1,1003.1,1024.8,994.0,36.2
46.5,1013.3,1012.8,1028.6,1018.2,9.0
46.75,994.0,986.7,1062.6,1014.4,41.8
47.0,1018.1,977.2,1036.0,1010.4,30.1
47.25,995.8,1009.4,1084.8,1030.0,47.9
47.5,1022.3,1016.7,1045.4,1028.1,15.2
47.75,1002.6,994.3,1101.9,1032.9,59.9
48.0,1036.0,995.4,1061.3,1030.9,33.3
48.25,1055.9,995.4,1120.7,1057.3,62.7
48.5,1008.8,962.8,996.4,989.3,23.8
48.75,992.6,1039.1,1130.6,1054.1,70.2
49.0,1059.1,1048.6,1036.5,1048.1,11.3
49.25,1026.1,1021.5,1115.4,1054.3,52.9
49.5,1036.3,1067.9,1056.5,1053.6,16.0
49.75,1018.1,1029.9,1142.0,1063.3,68.4
50.0,1052.0,1086.0,1062.3,1066.8,17.4
50.25,1102.7,1075.2,1152.0,1110.0,38.9
50.5,1056.3,1053.3,1153.9,1087.9,57.2
50.75,1037.6,1042.4,1041.5,1040.5,2.6
51.0,1040.0,1040.3,1095.8,1058.7,32.1
51.25,1068.9,1004.1,1130.3,1067.8,63.1
51.5,1030.0,1069.9,1142.7,1080.9,57.1
51.75,1065.1,1034.4,1127.2,1075.6,47.3
52.0,982.8,1067.3,1077.6,1042.6,52.0
52.25,1001.5,1169.7,1081.6,1084.3,84.1
52.5,1079.5,1038.0,1150.2,1089.2,56.7
52.75,1123.8,1084.1,1086.6,1098.2,22.2
53.0,1032.0,1073.0,1117.5,1074.2,42.7
53.25,1097.8,1042.8,1104.9,1081.8,34.0
53.5,1105.0,1137.4,1172.9,1138.5,34.0
53.75,1000.9,1110.0,1152.5,1087.8,78.2
54.0,1197.3,1055.8,1125.9,1126.3,70.8
54.25,1105.8,1059.8,1132.3,1099.3,36.7
54.5,1004.0,1048.5,1196.9,1083.1,101.0
54.75,1117.4,1157.6,1123.9,1133.0,21.6
55.0,1129.7,1027.4,1153.4,1103.5,67.0
55.25,1092.7,1103.6,1148.2,1114.8,29.4
55.5,1118.8,1154.8,1110.1,1127.9,23.7
55.75,1117.9,1083.5,1173.6,1125.0,45.5
56.0,1057.5,1090.0,1200.7,1116.1,75.1
56.25,1158.4,1163.9,1208.9,1177.1,27.7
56.5,1101.6,1084.1,1184.7,1123.4,53.7
56.75,1140.0,1118.0,1194.2,1150.7,39.2
57.0,1095.7,1132.8,1092.7,1107.1,22.3
57.25,1171.9,1101.5,1186.5,1153.3,45.5
57.5,1138.4,1097.9,1216.5,1150.9,60.3
57.75,1133.7,1107.8,1157.5,1133.0,24.8
58.0,1090.4,1096.3,1123.2,1103.3,17.5
58.25,1132.2,1112.3,1231.7,1158.7,64.0
58.5,1167.3,1156.4,1268.4,1197.4,61.8
58.75,1174.4,1097.5,1212.0,1161.3,58.3
59.0,1170.4,1114.9,1168.2,1151.2,31.4
59.25,1128.5,1105.8,1263.0,1165.7,85.0
59.5,1114.6,1174.9,1218.7,1169.4,52.3
59.75,1193.2,1129.2,1279.8,1200.7,75.5
60.0,1138.1,1145.5,1190.0,1157.9,28.1
60.25,1160.3,1125.1,1181.9,1155.7,28.7
60.5,1179.4,1126.3,1160.7,1155.5,26.9
60.75,1168.6,1102.6,1190.3,1153.8,45.6
61.0,1176.1,1169.3,1188.8,1178.1,9.9
61.25,1072.2,1176.5,1254.7,1167.8,91.5
61.5,1179.4,1091.3,1266.7,1179.1,87.7
61.75,1112.5,1066.9,1234.8,1138.1,86.8
62.0,1241.9,1235.8,1219.6,1232.4,11.5
62.25,1150.1,1101.8,1222.9,1158.3,61.0
62.5,1154.9,1144.8,1203.6,1167.8,31.5
62.75,1135.8,1186.3,1201.0,1174.4,34.2
63.0,1134.2,1120.1,1250.3,1168.2,71.4
63.25,1148.2,1211.2,1221.5,1193.6,39.7
63.5,1244.2,1145.1,1232.6,1207.3,54.1
63.75,1189.9,1145.5,1255.1,1196.9,55.1
64.0,1143.0,1166.7,1236.8,1182.2,48.8
64.25,1271.4,1157.5,1258.3,1229.1,62.3
64.5,1093.5,1192.2,1246.0,1177.3,77.3
64.75,1165.4,1188.2,1229.7,1194.4,32.6
65.0,1217.9,1147.8,1198.8,1188.2,36.2
65.25,1189.1,1159.0,1212.7,1186.9,26.9
65.5,1128.5,1233.8,1299.2,1220.5,86.1
65.75,1186.4,1174.6,1246.8,1202.6,38.7
66.0,1121.8,1149.8,1364.5,1212.0,132.7
66.25,1194.5,1183.8,1261.7,1213.3,42.2
66.5,1210.6,1259.0,1168.5,1212.7,45.3
66.75,1163.9,1198.9,1286.5,1216.5,63.2
67.0,1211.6,1225.9,1258.4,1232.0,24.0
67.25,1193.9,1214.6,1306.4,1238.3,59.9
67.5,1144.0,1205.1,1227.3,1192.1,43.2
67.75,1186.5,1252.9,1290.9,1243.4,52.8
68.0,1172.4,1149.0,1300.4,1207.3,81.5
68.25,1234.9,1249.6,1210.2,1231.6,19.9
68.5,1143.3,1263.7,1333.6,1246.9,96.3
68.75,1167.0,1235.9,1236.8,1213.2,40.0
69.0,1173.5,1202.7,1282.2,1219.5,56.3
69.25,1179.9,1247.0,1233.0,1220.0,35.4
69.5,1253.1,1224.2,1274.5,1250.6,25.2
69.75,1192.5,1204.2,1298.9,1231.8,58.4
70.0,1282.7,1165.1,1313.0,1253.6,78.1
70.25,1226.3,1228.6,1272.1,1242.3,25.8
70.5,1143.5,1190.4,1244.9,1192.9,50.7
70.75,1206.5,1283.0,1389.4,1293.0,91.9
71.0,1198.5,1272.7,1251.6,1240.9,38.2
71.25,1197.4,1244.2,1316.5,1252.7,60.0
71.5,1179.9,1193.7,1237.9,1203.8,30.3
71.75,1240.9,1307.8,1213.9,1254.2,48.3
72.0,1158.9,1168.3,1258.5,1195.2,55.0
72.25,1306.1,1322.5,1318.6,1315.7,8.6
72.5,1233.2,1230.8,1222.4,1228.8,5.6
72.75,1244.2,1226.1,1324.6,1265.0,52.4
73.0,1260.0,1258.5,1332.2,1283.6,42.2
73.25,1188.7,1239.7,1331.1,1253.1,72.1
73.5,1223.2,1276.6,1319.2,1273.0,48.1
73.75,1229.8,1274.5,1296.0,1266.8,33.8
74.0,1153.8,1276.5,1249.4,1226.5,64.5
74.25,1233.4,1227.6,1262.0,1241.0,18.4
74.5,1174.8,1178.0,1238.1,1197.0,35.6
74.75,1204.4,1246.9,1355.9,1269.0,78.1
75.0,1256.9,1282.6,1325.6,1288.4,34.7
75.25,1218.8,1249.0,1351.7,1273.2,69.6
75.5,1328.9,1222.8,1294.3,1282.0,54.2
75.75,1190.6,1162.8,1318.3,1223.9,82.9
76.0,1244.9,1319.7,1273.1,1279.2,37.8
76.25,1243.6,1256.7,1322.0,1274.1,42.0
76.5,1220.1,1271.4,1371.8,1287.8,77.2
76.75,1238.0,1218.9,1292.7,1249.9,38.3
77.0,1269.6,1276.5,1342.8,1296.3,40.4
77.25,1254.8,1246.1,1210.5,1237.1,23.5
77.5,1258.6,1278.3,1361.4,1299.4,54.5
77.75,1253.5,1240.8,1321.3,1271.9,43.2
78.0,1197.2,1310.7,1518.9,1342.2,163.1
78.25,1171.7,1262.9,1220.8,1218.4,45.6
78.5,1258.7,1228.9,1297.4,1261.7,34.4
78.75,1281.5,1425.4,1338.1,1348.4,72.5
79.0,1252.2,1228.1,1289.4,1256.6,30.9
79.25,1244.6,1379.4,1231.7,1285.2,81.8
79.5,1262.3,1295.5,1298.7,1285.5,20.2
79.75,1191.3,1361.7,1295.0,1282.7,85.9
80.0,1215.6,1245.3,1389.0,1283.3,92.7
80.25,1212.0,1327.3,1282.2,1273.8,58.1
80.5,1280.5,1404.2,1270.7,1318.5,74.4
80.75,1180.6,1334.2,1369.3,1294.7,100.3
81.0,1283.4,1271.4,1360.3,1305.0,48.2
81.25,1235.1,1393.0,1237.2,1288.4,90.6
81.5,1190.7,1348.1,1363.0,1300.6,95.5
81.75,1191.0,1269.2,1362.7,1274.3,86.0
82.0,1310.2,1351.5,1306.2,1322.6,25.1
82.25,1284.9,1206.8,1364.8,1285.5,79.0
82.5,1245.8,1397.8,1291.5,1311.7,78.0
82.75,1225.2,1326.0,1372.6,1307.9,75.3
83.0,1295.9,1277.4,1262.6,1278.6,16.7
83.25,1211.1,1310.8,1292.3,1271.4,53.0
83.5,1245.8,1364.4,1386.8,1332.4,75.8
83.75,1227.2,1279.6,1218.2,1241.6,33.2
84.0,1201.2,1278.9,1375.1,1285.1,87.2
84.25,1187.2,1329.0,1366.6,1294.3,94.6
84.5,1235.9,1316.4,1303.0,1285.1,43.1
84.75,1271.7,1237.4,1357.4,1288.8,61.9
85.0,1253.6,1310.7,1330.7,1298.3,40.0
85.25,1191.7,1259.6,1224.3,1225.2,34.0
85.5,1379.4,1295.4,1286.2,1320.3,51.4
85.75,1262.9,1309.0,1327.7,1299.9,33.4
86.0,1315.6,1317.7,1351.3,1328.2,20.0
86.25,1320.4,1264.4,1314.2,1299.6,30.7
86.5,1250.8,1229.0,1298.1,1259.3,35.3
86.75,1239.4,1324.2,1266.1,1276.6,43.4
87.0,1265.5,1286.0,1289.5,1280.4,13.0
87.25,1224.1,1288.2,1320.6,1277.6,49.1
87.5,1279.3,1253.7,1261.7,1264.9,13.1
87.75,1202.0,1306.5,1316.9,1275.1,63.6
88.0,1242.5,1325.6,1356.6,1308.2,59.0
88.25,1243.2,1242.2,1260.4,1248.6,10.2
88.5,1268.7,1239.2,1316.7,1274.9,39.1
88.75,1200.3,1308.1,1299.9,1269.4,60.0
89.0,1208.7,1309.2,1265.4,1261.1,50.4
89.25,1224.8,1236.3,1293.5,1251.5,36.8
89.5,1223.2,1179.1,1274.0,1225.5,47.5
89.75,1179.8,1229.7,1286.6,1232.0,53.5
90.0,1272.2,1375.8,1274.8,1307.6,59.0
90.25,1211.7,1233.2,1267.4,1237.4,28.1
90.5,1294.5,1214.3,1259.7,1256.2,40.2
90.75,1260.4,1238.8,1258.2,1252.4,11.9
91.0,1199.6,1258.7,1265.7,1241.3,36.3
91.25,1208.5,1243.6,1217.8,1223.3,18.2
91.5,1258.0,1246.1,1278.3,1260.8,16.3
91.75,1217.1,1218.8,1238.7,1224.9,12.0
92.0,1237.1,1265.0,1271.5,1257.9,18.2
92.25,1279.1,1244.8,1319.5,1281.1,37.4
92.5,1198.4,1190.1,1244.3,1210.9,29.2
92.75,1272.5,1216.2,1316.0,1268.2,50.0
93.0,1247.8,1214.9,1242.5,1235.1,17.7
93.25,1185.0,1241.0,1215.3,1213.8,28.1
93.5,1190.2,1249.4,1288.7,1242.8,49.6
93.75,1190.9,1232.1,1254.3,1225.8,32.2
94.0,1177.4,1305.3,1230.2,1237.6,64.3
94.25,1175.7,1159.5,1247.5,1194.2,46.8
94.5,1208.5,1205.9,1230.5,1215.0,13.5
94.75,1185.7,1182.5,1244.5,1204.3,34.9
95.0,1132.8,1203.9,1206.1,1180.9,41.7
95.25,1132.2,1249.7,1171.7,1184.5,59.8
95.5,1199.6,1186.9,1170.1,1185.5,14.8
95.75,1161.5,1205.5,1193.2,1186.8,22.7
96.0,1156.2,1216.9,1234.2,1202.4,41.0
96.25,1200.4,1237.8,1179.7,1206.0,29.4
96.5,1116.3,1174.1,1131.4,1140.6,30.0
96.75,1174.0,1162.2,1086.0,1140.7,47.7
97.0,1144.8,1163.3,1131.4,1146.5,16.0
97.25,1120.5,1151.3,1139.9,1137.2,15.6
97.5,1158.7,1165.3,1131.3,1151.8,18.1
97.75,1110.4,1216.3,1136.1,1154.3,55.2
98.0,1074.1,1133.2,1120.7,1109.3,31.2
98.25,1144.0,1188.4,1095.9,1142.8,46.2
98.5,1099.4,1171.1,1039.1,1103.2,66.1
98.75,1090.4,1202.0,1116.7,1136.3,58.3
99.0,1116.9,1180.1,1023.3,1106.8,78.9
99.25,1113.5,1110.7,1032.7,1085.7,45.9
99.5,1082.8,1181.6,1037.8,1100.8,73.5
99.75,1091.4,1211.0,1026.6,1109.7,93.6
100.0,1088.4,1123.9,1031.0,1081.1,46.9
100.25,1129.8,1113.8,1025.6,1089.7,56.1
100.5,1078.2,1105.3,999.5,1061.0,55.0
100.75,1080.3,1140.8,984.9,1068.7,78.6
101.0,1077.3,1144.7,1034.1,1085.4,55.7
101.25,1059.9,1069.4,1032.8,1054.0,19.0
101.5,1088.0,1082.1,987.8,1052.6,56.2
101.75,1068.9,1065.9,992.5,1042.5,43.3
102.0,1062.8,1043.3,980.2,1028.8,43.1
102.25,1032.6,1101.7,954.9,1029.7,73.4
102.5,998.4,1026.0,900.0,974.8,66.2
102.75,1005.9,1027.3,940.3,991.2,45.3
103.0,999.6,1091.4,908.7,999.9,91.4
103.25,1019.4,1032.7,891.1,981.1,78.2
103.5,990.7,977.8,889.4,952.7,55.1
103.75,1007.5,1001.0,874.2,960.9,75.2
104.0,959.8,995.6,865.5,940.3,67.2
104.25,962.2,983.3,868.1,937.9,61.3
104.5,918.2,990.0,834.8,914.3,77.7
104.75,935.6,960.0,833.3,909.6,67.2
105.0,939.0,956.7,856.7,917.4,53.4
105.25,946.6,945.9,832.4,908.3,65.7
105.5,940.0,916.9,827.3,894.7,59.5
105.75,891.4,910.5,828.1,876.7,43.1
106.0,921.6,905.5,800.6,875.9,65.7
106.25,913.7,907.8,792.8,871.5,68.2
106.5,930.4,880.3,764.6,858.4,85.0
106.75,878.0,898.5,778.4,851.6,64.3
107.0,863.7,859.5,750.6,824.6,64.1
107.25,860.1,836.1,764.6,820.3,49.7
107.5,847.5,870.9,742.9,820.4,68.2
107.75,856.5,877.1,732.5,822.0,78.2
108.0,885.5,861.6,750.4,832.5,72.1
108.25,858.0,812.3,711.6,794.0,74.9
108.5,837.6,835.9,713.3,795.6,71.3
108.75,836.6,848.2,703.2,796.0,80.6
109.0,786.9,835.3,705.7,776.0,65.5
109.25,780.8,806.1,675.3,754.0,69.4
109.5,809.9,790.9,686.2,762.3,66.6
109.75,771.3,797.0,663.2,743.8,71.0
110.0,745.5,797.1,653.6,732.1,72.7
110.25,719.2,783.3,647.2,716.6,68.1
110.5,717.3,776.4,640.6,711.4,68.1
110.75,719.2,783.5,614.0,705.6,85.6
111.0,714.4,768.8,631.5,704.9,69.1
111.25,706.3,746.1,603.8,685.4,73.4
111.5,685.7,737.0,592.7,671.8,73.2
111.75,708.7,752.4,592.6,684.6,82.6
112.0,675.8,713.3,582.6,657.2,67.3
112.25,667.2,703.6,576.6,649.1,65.4
112.5,650.2,698.2,562.1,636.8,69.0
112.75,652.8,691.0,538.8,627.6,79.2
113.0,657.4,661.6,535.7,618.2,71.5
113.25,651.6,650.4,520.1,607.4,75.6
113.5,624.9,639.0,515.3,593.1,67.7
113.75,606.1,627.0,508.3,580.4,63.4
114.0,593.7,609.5,497.8,567.0,60.5
114.25,580.0,596.3,494.7,557.0,54.6
114.5,580.9,586.4,470.0,545.8,65.7
114.75,588.3,576.3,465.5,543.4,67.7
115.0,567.2,560.7,446.5,524.8,67.9
115.25,549.5,549.8,441.4,513.6,62.5
115.5,546.3,553.9,427.4,509.2,70.9
115.75,527.2,532.9,416.5,492.2,65.6
116.0,507.4,520.8,411.9,480.0,59.3
116.25,500.0,508.6,403.1,470.5,58.6
116.5,481.7,496.0,390.8,456.1,57.0
116.75,463.4,490.4,374.9,442.9,60.4
117.0,453.2,481.0,372.3,435.5,56.4
117.25,437.4,472.8,355.9,422.0,59.9
117.5,420.9,468.2,338.8,409.3,65.5
117.75,393.0,469.5,326.5,396.4,71.5
118.0,378.8,441.4,318.6,379.6,61.4
118.25,371.1,436.5,304.1,370.6,66.2
118.5,354.8,422.4,291.4,356.2,65.5
118.75,341.6,412.3,275.4,343.1,68.5
119.0,323.2,394.9,265.4,327.8,64.8
119.25,308.9,387.7,252.8,316.5,67.8
119.5,293.2,375.2,241.8,303.4,67.3
119.75,281.7,367.8,230.5,293.3,69.4
120.0,266.7,355.1,218.1,280.0,69.4
120.25,253.8,343.5,,298.6,63.4
120.5,236.9,329.1,,283.0,65.2
120.75,227.5,316.3,,271.9,62.8