File: 01_Data/HIPS/Cone/HIPS_Cone_HF75Scan_220218_R1.csv
Names,Time,Stack TC,Smoke TC,Exh Press,Smoke Comp,Smoke Meas,CO Meter,CO2 Meter,O2 Meter,Sample Mass,Ext Coeff,Start Test,Flame Verif
Chan Gain,,500,500,1,1,1,1,1,1,1,1,1.0,1.0
Offset,,0,0,0.134285,0,0,0,0,0,0,0,0.0,0.0
Gain,,1,1,25.011,13.3843,12.7012,1,1,1,1.00088,1.02252,1.0,1.0
Units,sec,C,C,Pa,%,%,%,%,%,g,/m,,
Baseline,,33.5219,35.7304,155.827,100.483,95.8777,0.000180492,0.0448602,21.0151,-0.0980858,0.420871,,
2,0.25,32.3848,34.6074,154.457,100.526,96.0605,-9.88548e-05,0.0487116,21.0118,897.636,0.407557,0.0,0.0
4,0.75,32.4757,34.0025,155.143,100.566,96.1679,-0.000133163,0.048749,21.0118,897.556,0.401108,0.0,0.0
6,1.25,32.3304,33.537,155.551,100.56,95.4376,-0.000169187,0.0487794,21.0119,897.546,0.468968,0.0,0.0
8,1.75,31.9971,33.9381,157.813,100.584,96.0853,-0.000195752,0.0487762,21.0119,897.556,0.410377,0.0,0.0
10,2.25,32.2999,34.1565,153.706,100.571,95.7093,-0.000214917,0.0487737,21.0124,897.566,0.444452,0.0,0.0
12,2.75,31.7072,33.9378,158.27,100.599,96.3621,-0.000226519,0.0487716,21.0128,897.516,0.385965,0.0,0.0
14,3.25,32.3472,34.0989,152.569,100.578,95.7066,-0.000232389,0.048748,21.0131,897.546,0.445326,0.0,0.0
16,3.75,32.0959,33.7282,157.802,100.6,95.9462,-0.000235183,0.0487093,21.0133,897.536,0.424833,0.0,0.0
18,4.25,32.4738,34.0217,155.254,100.583,95.9543,-0.000235682,0.0486778,21.0135,897.516,0.422579,0.0,0.0
20,4.75,32.6475,34.4945,153.3,100.594,95.8958,-0.000236086,0.0486663,21.0137,897.536,0.428999,0.0,0.0
22,5.25,32.3728,34.2127,158.669,100.574,95.533,-0.000237655,0.0486569,21.0141,897.506,0.461213,0.0,0.0
24,5.75,32.2533,34.1279,156.223,100.583,96.2128,-0.000238926,0.0486354,21.0146,897.516,0.398409,0.0,0.0
26,6.25,32.1831,34.2,154.997,100.562,95.9376,-0.000239302,0.048618,21.015,897.506,0.422244,0.0,0.0
28,6.75,31.9008,33.8225,157.622,100.566,96.2256,-0.000239018,0.0485069,21.0153,897.496,0.395723,0.0,0.0
30,7.25,32.5194,34.5043,158.082,100.554,95.6113,-0.000238788,0.048417,21.0156,897.536,0.452117,0.0,0.0
32,7.75,32.3681,34.1122,153.343,100.546,95.612,-0.000234878,0.0482193,21.0158,897.496,0.451279,0.0,0.0
34,8.25,32.2855,34.4236,158.667,100.516,95.0609,-0.00023171,0.0480593,21.016,897.476,0.50051,0.0,0.0
36,8.75,32.35,34.0269,157.808,100.526,94.757,-0.000216076,0.0478713,21.0161,897.526,0.530105,0.0,0.0
38,9.25,32.3279,34.4913,154.69,100.49,94.4519,-0.000191649,0.0476666,21.0163,897.506,0.555856,0.0,0.0
40,9.75,32.2546,34.686,159.168,100.473,94.6853,-0.000138338,0.0475007,21.0164,897.526,0.532156,0.0,0.0
42,10.25,31.6232,34.2298,158.649,100.441,94.7217,-9.51553e-05,0.0473248,21.0164,897.536,0.525825,0.0,0.0
44,10.75,32.5019,34.153,154.577,100.445,93.9604,-4.25182e-05,0.0471823,21.0163,897.476,0.598603,0.0,0.0
46,11.25,32.4353,34.3665,157.299,100.399,94.667,1.60114e-05,0.0470115,21.0159,897.526,0.52728,0.0,0.0
48,11.75,31.9322,34.6053,155.973,100.397,93.1856,7.52025e-05,0.0468732,21.0156,897.466,0.66857,0.0,0.0
50,12.25,32.3768,34.3963,154.974,100.379,94.238,0.000133751,0.0467757,21.015,897.476,0.566275,0.0,0.0
52,12.75,32.5475,34.3392,155.162,100.354,94.0523,0.000181176,0.0467098,21.0144,897.486,0.581664,0.0,0.0
54,13.25,33.1289,34.3376,154.928,100.323,93.3135,0.00026191,0.0467877,21.0126,897.436,0.649659,0.0,0.0
56,13.75,32.5137,34.289,154.352,100.321,94.1651,0.000327305,0.046969,21.0098,897.446,0.567956,0.0,0.0
58,14.25,32.8254,34.2994,156.562,100.289,94.0775,0.000507528,0.0475172,21.0058,897.436,0.573491,0.0,0.0
60,14.75,32.8722,34.4493,155.516,100.285,93.2465,0.000653509,0.0483225,21.0008,897.376,0.652711,0.0,1.0
62,15.25,32.2821,34.1934,155.707,100.255,94.1325,0.000968743,0.0489748,20.9968,897.446,0.565214,0.0,1.0
64,15.75,32.1346,33.9563,153.774,100.262,94.9624,0.00140137,0.0519514,20.9829,897.486,0.487106,0.0,1.0
66,16.25,32.7308,34.7378,152.624,100.236,93.3352,0.00201998,0.0543625,20.9717,897.396,0.639755,0.0,1.0
68,16.75,33.1014,34.7801,153.123,100.233,86.9474,0.0027624,0.0595149,20.9361,897.336,1.27542,0.0,1.0
70,17.25,32.6238,34.5517,148.538,100.276,78.594,0.00336376,0.0665678,20.9073,897.346,2.18528,0.0,1.0
72,17.75,33.0177,35.3188,140.129,100.353,68.0483,0.00458679,0.076779,20.8517,897.326,3.48445,0.0,1.0
74,18.25,33.3056,35.1859,141.46,100.414,61.1838,0.00604269,0.0890987,20.8067,897.286,4.4437,0.0,1.0
76,18.75,33.4932,35.2461,137.409,100.497,53.7533,0.0076407,0.0990777,20.7309,897.226,5.61237,0.0,1.0
78,19.25,33.7895,35.5193,138.279,100.531,49.7574,0.00893508,0.120866,20.6695,897.186,6.30829,0.0,1.0
80,19.75,34.0204,35.782,140.483,100.588,47.8426,0.0107175,0.138515,20.6198,897.156,6.66541,0.0,1.0
82,20.25,34.0616,36.1131,136.554,100.64,42.7964,0.0128219,0.16737,20.5425,897.055,7.66981,0.0,1.0
84,20.75,34.6178,36.8982,127.097,100.704,45.9608,0.0149927,0.198741,20.4798,896.995,7.03568,0.0,1.0
86,21.25,35.2755,37.5893,131.731,100.739,41.8262,0.0171706,0.231351,20.3995,896.925,7.88426,0.0,1.0
88,21.75,35.6397,38.1078,129.525,100.796,40.7343,0.0193148,0.257764,20.3344,896.775,8.12661,0.0,0.0
90,22.25,37.1393,39.775,126.154,100.813,40.1157,0.0213938,0.290271,20.2817,896.715,8.26537,0.0,0.0
92,22.75,38.5435,40.2818,127.005,100.858,40.53,0.0230778,0.326601,20.2279,896.585,8.17723,0.0,0.0
94,23.25,39.0681,41.845,131.275,100.874,39.9377,0.0244418,0.356028,20.1742,896.565,8.31068,0.0,0.0
96,23.75,40.2331,43.5165,130.448,100.913,38.2117,0.0265897,0.395372,20.1194,896.465,8.7104,0.0,0.0
98,24.25,41.3003,44.0099,122.522,100.912,38.4935,0.0283294,0.42724,20.0648,896.385,8.64446,0.0,0.0
100,24.75,42.1904,45.0271,122.853,100.947,34.5069,0.0304128,0.464589,20.0115,896.315,9.62817,0.0,0.0
102,25.25,42.2837,45.6423,127.597,100.963,33.4112,0.0321004,0.494841,19.9602,896.135,9.91907,0.0,0.0
104,25.75,43.3718,46.7661,119.072,100.965,33.0662,0.0338862,0.519345,19.9186,896.115,10.0123,0.0,0.0
106,26.25,44.7367,48.2191,115.154,100.967,32.3879,0.0357097,0.558486,19.8606,896.085,10.1984,0.0,0.0
108,26.75,45.4656,49.9351,113.548,100.97,32.9305,0.0371868,0.590191,19.8137,895.854,10.0496,0.0,0.0
110,27.25,46.3247,50.378,105.782,100.972,29.9828,0.0389488,0.622859,19.7756,895.854,10.891,0.0,0.0
112,27.75,47.3088,51.9011,122.934,100.944,30.6568,0.0408852,0.655609,19.7105,895.704,10.689,0.0,0.0
114,28.25,48.6523,52.8691,113.403,100.923,30.4545,0.042898,0.68952,19.6577,895.544,10.7465,0.0,0.0
116,28.75,49.3356,54.2435,115.086,100.913,31.6526,0.0449284,0.723632,19.5915,895.554,10.3996,0.0,0.0
118,29.25,50.2735,55.7268,119.92,100.886,30.4432,0.046573,0.751263,19.5379,895.354,10.7466,0.0,0.0
120,29.75,52.0091,56.5328,117.721,100.853,29.0847,0.0487441,0.792308,19.4817,895.234,11.1531,0.0,0.0
122,30.25,52.6459,58.5041,121.19,100.818,28.7091,0.0496696,0.825555,19.4517,895.224,11.2666,0.0,0.0
124,30.75,54.0238,59.7546,114.658,100.785,30.0064,0.0515956,0.852485,19.4003,895.064,10.8672,0.0,0.0
126,31.25,55.0894,61.4274,104.15,100.739,27.647,0.0534647,0.891247,19.3344,894.944,11.5977,0.0,0.0
128,31.75,56.4982,62.5917,119.991,100.688,27.7811,0.0552766,0.922645,19.281,894.733,11.5497,0.0,0.0
130,32.25,57.8861,64.0441,109.707,100.629,29.525,0.0570123,0.960276,19.2179,894.653,10.9984,0.0,0.0
132,32.75,59.0203,65.4063,111.19,100.568,25.0721,0.0587407,0.990757,19.1667,894.713,12.4593,0.0,0.0
134,33.25,59.6864,67.2963,101.418,100.521,27.38,0.0604308,1.01148,19.1067,894.433,11.6653,0.0,0.0
136,33.75,61.369,68.6735,110.599,100.455,23.4329,0.0617998,1.04691,19.0582,894.353,13.0557,0.0,0.0
138,34.25,62.5355,70.0185,106.598,100.384,25.5706,0.0633542,1.08215,19.0188,894.223,12.2663,0.0,0.0
140,34.75,63.6505,71.8094,104.376,100.3,26.3179,0.0650141,1.11659,18.9697,894.083,12.0004,0.0,0.0
142,35.25,64.7698,73.341,110.376,100.298,23.8329,0.0667378,1.14448,18.9299,893.943,12.8899,0.0,0.0
144,35.75,65.8486,74.7663,106.431,100.314,26.3357,0.0684751,1.17826,18.8848,893.893,11.9956,0.0,0.0
146,36.25,67.4489,76.2262,105.139,100.338,21.4782,0.0698824,1.20562,18.8483,893.743,13.8265,0.0,0.0
148,36.75,67.8963,78.272,102.628,100.345,21.6375,0.0718769,1.23939,18.8127,893.572,13.7609,0.0,0.0
150,37.25,69.5635,79.4611,107.854,100.381,25.3915,0.0734925,1.26674,18.7784,893.512,12.3291,0.0,0.0
152,37.75,70.54,80.9044,111.094,100.397,23.3167,0.0754739,1.29502,18.7404,893.332,13.0952,0.0,0.0
154,38.25,72.077,82.4836,94.923,100.429,24.4574,0.0770789,1.32346,18.7004,893.252,12.6695,0.0,0.0
156,38.75,73.2026,83.694,98.3532,100.446,24.7008,0.0790017,1.34649,18.6556,893.002,12.5822,0.0,0.0
158,39.25,74.4339,85.8493,97.7983,100.498,24.3217,0.0808701,1.37475,18.6194,892.902,12.7256,0.0,0.0
160,39.75,75.8944,87.0702,103.823,100.533,25.0066,0.0826633,1.39765,18.583,892.822,12.4796,0.0,0.0
162,40.25,76.9189,88.3967,95.6214,100.563,25.2962,0.0841157,1.42626,18.5473,892.642,12.379,0.0,0.0
164,40.75,78.2585,90.2354,95.2611,100.587,21.3007,0.0852922,1.44944,18.5183,892.511,13.9232,0.0,0.0
166,41.25,79.1799,91.9248,102.106,100.645,23.2159,0.0870098,1.47664,18.4842,892.321,13.1561,0.0,0.0
168,41.75,80.6304,93.6898,102.95,100.659,22.3376,0.0884011,1.49867,18.4567,892.251,13.5033,0.0,0.0
170,42.25,81.9863,94.9892,110.005,100.702,21.5774,0.0899526,1.52472,18.4283,892.071,13.8177,0.0,0.0
172,42.75,82.7884,96.8903,101.347,100.728,21.322,0.0912093,1.54583,18.3998,891.851,13.9268,0.0,0.0
174,43.25,84.2545,98.1866,100.404,100.774,20.4235,0.0926255,1.56882,18.3691,891.821,14.3171,0.0,0.0
176,43.75,85.3538,99.98,97.4349,100.794,21.7042,0.0937725,1.59275,18.3373,891.611,13.7733,0.0,0.0
178,44.25,86.455,101.423,103.246,100.853,21.9778,0.09515,1.61214,18.3041,891.43,13.6661,0.0,0.0
180,44.75,87.1706,102.78,92.6751,100.848,20.3871,0.0962658,1.63845,18.2705,891.36,14.3396,0.0,0.0
182,45.25,88.7923,104.684,102.933,100.892,20.9821,0.0976998,1.65976,18.2433,891.19,14.0856,0.0,0.0
184,45.75,89.9929,106.018,103.236,100.902,19.1874,0.0988614,1.68516,18.2138,891.07,14.8884,0.0,0.0
186,46.25,91.0211,107.989,104.559,100.939,20.0696,0.0998022,1.70573,18.1832,890.87,14.4884,0.0,0.0
188,46.75,91.7458,109.333,103.851,100.954,20.9406,0.101137,1.73239,18.1585,890.7,14.1088,0.0,0.0
190,47.25,93.147,110.732,97.5861,100.983,22.3972,0.102734,1.754,18.1234,890.63,13.5082,0.0,0.0
192,47.75,94.1863,112.191,98.2028,100.984,19.8716,0.104027,1.78129,18.0951,890.39,14.5814,0.0,0.0
194,48.25,94.4997,113.244,94.9306,101.015,18.3719,0.105692,1.8034,18.0721,890.229,15.288,0.0,0.0
196,48.75,96.3494,114.643,98.4348,101.015,17.2851,0.107595,1.82131,18.0365,890.149,15.835,0.0,0.0
198,49.25,98.0549,116.721,97.9654,101.028,18.7262,0.108407,1.84445,18.0214,889.919,15.1179,0.0,0.0
200,49.75,99.4179,117.73,96.9167,101.024,20.1592,0.110707,1.87097,17.9852,889.819,14.4561,0.0,0.0
202,50.25,100.455,119.912,94.8619,101.041,18.7359,0.112571,1.89246,17.9467,889.659,15.1144,0.0,0.0
204,50.75,101.681,121.389,94.4391,101.031,17.0862,0.115361,1.92676,17.8975,889.429,15.9402,0.0,0.0
206,51.25,102.318,122.995,86.0934,101.017,18.058,0.117621,1.95455,17.8416,889.138,15.4427,0.0,0.0
208,51.75,103.705,123.853,88.0863,100.996,17.4428,0.120429,1.98506,17.7963,889.098,15.7518,0.0,0.0
210,52.25,105.032,125.926,104.807,100.982,16.9083,0.122704,2.00185,17.7388,889.018,16.0297,0.0,0.0
212,52.75,106.18,127.966,84.1517,100.948,17.0281,0.125071,2.03057,17.6922,888.758,15.9633,0.0,0.0
214,53.25,107.603,129.492,89.8487,100.94,17.9328,0.12746,2.06491,17.6394,888.638,15.4983,0.0,0.0
216,53.75,108.432,132.073,87.2651,100.906,16.763,0.129876,2.09272,17.5967,888.408,16.1004,0.0,0.0
218,54.25,110.333,133.223,98.1043,100.88,17.1804,0.132265,2.1218,17.5452,888.168,15.8775,0.0,0.0
220,54.75,111.33,134.481,82.8991,100.843,16.5742,0.1342,2.15124,17.5036,888.058,16.1964,0.0,0.0
222,55.25,112.489,136.156,86.4774,100.816,16.475,0.13654,2.18201,17.4552,887.917,16.2479,0.0,0.0
224,55.75,113.123,138.072,91.2929,100.773,16.8847,0.139131,2.21315,17.4027,887.697,16.0237,0.0,0.0
226,56.25,114.638,139.596,96.6274,100.736,14.7311,0.141806,2.24577,17.3603,887.537,17.2442,0.0,0.0
228,56.75,116.269,140.835,77.7959,100.689,13.9698,0.144491,2.27885,17.2998,887.237,17.716,0.0,0.0
230,57.25,117.403,143.049,89.9167,100.648,15.3819,0.146666,2.30565,17.2508,887.147,16.8486,0.0,0.0
232,57.75,118.429,144.356,97.6708,100.591,14.2803,0.149706,2.34372,17.2034,887.007,17.5101,0.0,0.0
234,58.25,119.781,146.318,83.2685,100.553,14.071,0.152168,2.37456,17.1581,886.756,17.6391,0.0,0.0
236,58.75,120.957,147.753,82.6526,100.485,14.409,0.155214,2.40648,17.1144,886.556,17.4201,0.0,0.0
238,59.25,122.474,149.795,93.0904,100.434,13.4497,0.159258,2.43858,17.0728,886.236,18.0336,0.0,0.0
240,59.75,123.691,151.24,91.96,100.375,12.7128,0.160677,2.47043,17.026,886.086,18.5337,0.0,0.0
242,60.25,125.103,153.2,91.0616,100.306,13.716,0.164645,2.50151,16.9552,885.926,17.8463,0.0,0.0
244,60.75,125.971,154.501,96.1549,100.256,14.7734,0.166032,2.52668,16.9361,885.726,17.1757,0.0,0.0
246,61.25,127.533,155.998,90.4907,100.191,15.3784,0.169415,2.56545,16.8341,885.635,16.8098,0.0,0.0
248,61.75,128.216,158.11,82.6488,100.126,14.6982,0.170325,2.59684,16.8067,885.305,17.2098,0.0,0.0
250,62.25,129.755,159.793,83.0144,100.061,17.7366,0.17316,2.63975,16.7505,885.235,15.5186,0.0,0.0
252,62.75,131.096,161.137,73.794,100.006,16.6703,0.175456,2.6745,16.6965,884.935,16.0698,0.0,0.0
254,63.25,133.151,163.464,88.2382,99.9321,14.0198,0.178061,2.73294,16.6494,884.835,17.6162,0.0,0.0
256,63.75,133.701,166.197,79.7277,99.8667,12.9058,0.180171,2.74866,16.608,884.594,18.353,0.0,0.0
258,64.25,135.488,167.633,90.6448,99.8042,12.8582,0.182325,2.79517,16.5745,884.474,18.3806,0.0,0.0
260,64.75,136.8,169.628,78.6286,99.7344,13.8698,0.18447,2.81284,16.5288,884.214,17.695,0.0,0.0
262,65.25,137.923,171.572,92.0393,99.6617,11.9329,0.186626,2.84304,16.4918,884.074,19.0375,0.0,0.0
264,65.75,139.049,173.429,82.5808,99.5967,12.8334,0.18875,2.87524,16.433,883.724,18.3792,0.0,0.0
266,66.25,140.17,174.872,77.9913,99.5273,12.5648,0.190878,2.90828,16.3854,883.584,18.5627,0.0,0.0
268,66.75,141.534,176.005,74.7435,99.4742,12.6035,0.192969,2.94164,16.3296,883.303,18.5303,0.0,0.0
270,67.25,142.979,177.86,84.6165,99.4044,11.4446,0.194994,2.9746,16.2844,883.113,19.3892,0.0,0.0
272,67.75,143.342,180.265,84.5333,99.3643,11.3934,0.196933,3.00764,16.2389,883.013,19.4258,0.0,0.0
274,68.25,144.62,181.722,79.6522,99.2945,10.9992,0.198504,3.04011,16.1941,882.743,19.7353,0.0,0.0
276,68.75,146.328,183.256,90.093,99.2561,11.5667,0.200126,3.07266,16.1579,882.503,19.2806,0.0,0.0
278,69.25,147.789,184.904,82.0931,99.1924,13.407,0.201755,3.10465,16.1285,882.323,17.9505,0.0,0.0
280,69.75,148.714,186.786,85.6049,99.1536,11.5322,0.203074,3.13574,16.0883,882.032,19.2981,0.0,0.0
282,70.25,149.61,188.684,67.8336,99.0964,11.1442,0.204565,3.16558,16.0558,881.762,19.5999,0.0,0.0
284,70.75,150.574,189.882,81.8679,99.0527,11.4779,0.206153,3.18974,16.0307,881.592,19.3313,0.0,0.0
286,71.25,152.241,191.948,83.0106,99.009,11.2856,0.207439,3.218,16.0104,881.372,19.4789,0.0,0.0
288,71.75,153.492,193.489,75.8839,98.9849,10.4558,0.209201,3.24089,15.9918,881.151,20.1617,0.0,0.0
290,72.25,153.989,194.942,92.7751,98.9351,11.1031,0.210628,3.25943,15.9749,880.901,19.6184,0.0,0.0
292,72.75,155.067,196.318,95.2718,98.9175,11.131,0.212364,3.27445,15.9484,880.711,19.5943,0.0,0.0
294,73.25,156.258,197.599,69.9906,98.8795,13.7803,0.213771,3.30063,15.9154,880.451,17.6758,0.0,0.0
296,73.75,157.108,198.86,87.7474,98.8811,10.0895,0.215393,3.32183,15.8854,880.321,20.4722,0.0,0.0
298,74.25,158.289,200.433,82.2641,98.8423,11.5868,0.216707,3.34596,15.8581,880.01,19.2275,0.0,0.0
300,74.75,159.353,202.084,87.4559,98.8468,9.61814,0.218219,3.3655,15.8265,879.84,20.8982,0.0,0.0
302,75.25,159.182,203.538,78.75,98.8211,10.8755,0.219444,3.38961,15.7923,879.6,19.7938,0.0,0.0
304,75.75,160.351,205.294,81.9794,98.8207,9.73675,0.220835,3.40914,15.7646,879.33,20.7859,0.0,0.0
306,76.25,162.398,206.578,80.7459,98.828,10.5662,0.222322,3.43457,15.724,879.09,20.0532,0.0,0.0
308,76.75,162.348,208.111,83.5624,98.8346,10.0139,0.223953,3.45518,15.6911,878.95,20.5354,0.0,0.0
310,77.25,163.57,209.228,77.302,98.8444,10.7159,0.225658,3.48231,15.6568,878.709,19.9286,0.0,0.0
312,77.75,165.391,210.467,77.6661,98.8709,11.0069,0.22704,3.50428,15.622,878.189,19.6906,0.0,0.0
314,78.25,166.109,211.591,81.3016,98.8717,10.1523,0.229394,3.52772,15.5923,878.219,20.4157,0.0,0.0
316,78.75,166.964,213.454,85.2134,98.9044,9.54566,0.231302,3.55177,15.5667,877.819,20.9713,0.0,0.0
318,79.25,166.816,214.124,80.7215,98.9342,10.1244,0.234007,3.57126,15.5392,877.658,20.446,0.0,0.0
320,79.75,167.832,216.088,94.5795,98.9653,10.5081,0.236198,3.59464,15.5109,877.538,20.1152,0.0,0.0
322,80.25,169.451,217.434,77.2745,98.9922,10.6655,0.238579,3.61359,15.4879,877.198,19.9843,0.0,0.0
324,80.75,169.919,218.985,94.2452,99.049,9.93288,0.241054,3.63766,15.4507,876.988,20.6277,0.0,0.0
326,81.25,171.08,219.808,79.843,99.0866,11.1368,0.243551,3.65715,15.4206,876.778,19.605,0.0,0.0
328,81.75,172.166,221.053,86.6689,99.1315,9.11735,0.246016,3.67958,15.3709,876.487,21.4036,0.0,0.0
330,82.25,173.059,222.554,72.2957,99.1805,11.2178,0.248012,3.70372,15.3307,876.317,19.5485,0.0,0.0
332,82.75,174.137,223.644,78.1386,99.2308,10.5748,0.249629,3.72956,15.2818,876.107,20.0825,0.0,0.0
334,83.25,174.267,224.529,83.7479,99.279,10.0422,0.251731,3.75615,15.2421,875.737,20.5503,0.0,0.0
336,83.75,175.237,225.997,89.7175,99.3415,11.3384,0.253433,3.78339,15.2093,875.597,19.4671,0.0,0.0
338,84.25,177.43,228.119,73.9955,99.3831,11.024,0.254941,3.81057,15.1821,875.356,19.7231,0.0,0.0
340,84.75,178.268,229.831,84.8829,99.4722,10.9023,0.25628,3.83259,15.157,875.196,19.8307,0.0,0.0
342,85.25,179.411,231.453,85.0264,99.5016,10.6492,0.257448,3.85572,15.134,874.946,20.044,0.0,0.0
344,85.75,180.273,232.873,73.3444,99.5555,11.6143,0.25847,3.87921,15.1153,874.686,19.2707,0.0,0.0
346,86.25,180.939,233.72,85.0363,99.6049,12.3155,0.259277,3.89823,15.1002,874.305,18.7494,0.0,0.0
348,86.75,181.418,235.043,83.0922,99.6723,12.0132,0.25993,3.92861,15.088,874.205,18.9784,0.0,0.0
350,87.25,182.768,236.778,75.6243,99.7213,19.5344,0.260161,3.95321,15.078,874.035,14.6221,0.0,0.0
352,87.75,183.356,238.481,78.5164,99.7814,9.89451,0.260349,3.98031,15.0705,873.725,20.7285,0.0,0.0
354,88.25,185.245,239.701,75.5076,99.8239,10.4228,0.260134,4.00226,15.0648,873.625,20.2657,0.0,0.0
356,88.75,186.329,241.455,109.6,99.8978,9.31426,0.259629,4.01625,15.0601,873.285,21.281,0.0,0.0
358,89.25,187.126,243.132,84.3577,99.9399,11.6368,0.259221,4.02758,15.0708,873.024,19.2879,0.0,0.0
360,89.75,188.133,244.228,72.4087,100.006,11.1535,0.258041,4.0266,15.0925,872.844,19.6744,0.0,0.0
362,90.25,189.167,245.555,77.0746,100.054,11.4508,0.256322,4.0258,15.1101,872.534,19.4427,0.0,0.0
364,90.75,189.817,247.052,82.635,100.109,10.5038,0.2542,4.01205,15.1507,872.474,20.2219,0.0,0.0
366,91.25,190.342,247.216,84.7249,100.149,11.6946,0.251826,4.00091,15.1837,872.154,19.2623,0.0,0.0
368,91.75,190.659,248.709,84.8943,100.204,10.3093,0.249903,3.99189,15.2103,871.913,20.3981,0.0,0.0
370,92.25,191.532,249.586,80.2086,100.243,11.0422,0.248345,3.96262,15.2629,871.763,19.7855,0.0,0.0
372,92.75,192.271,250.492,84.4669,100.298,11.5562,0.24437,3.93891,15.3055,871.453,19.3824,0.0,0.0
374,93.25,192.437,251.063,88.2001,100.33,11.9508,0.24115,3.91002,15.3574,871.463,19.084,0.0,0.0
376,93.75,192.827,251.673,79.0591,100.352,12.8182,0.235995,3.8779,15.4151,871.113,18.4576,0.0,0.0
378,94.25,193.254,251.576,94.1513,100.383,12.0488,0.231819,3.84353,15.4774,870.903,19.0156,0.0,0.0
380,94.75,193.857,252.513,78.7133,100.397,13.0636,0.227066,3.80818,15.5419,870.732,18.2915,0.0,0.0
382,95.25,194.449,253.029,80.4765,100.422,14.0962,0.221983,3.77955,15.5941,870.532,17.6114,0.0,0.0
384,95.75,194.664,253.788,80.1361,100.455,13.909,0.216325,3.75636,15.6856,870.452,17.7342,0.0,0.0
386,96.25,195.365,253.862,81.9923,100.475,14.6629,0.210355,3.7038,15.7597,870.132,17.2625,0.0,0.0
388,96.75,195.631,254.833,88.4466,100.5,15.8862,0.20552,3.66122,15.8972,870.002,16.5461,0.0,0.0
390,97.25,195.972,254.946,91.5798,100.501,14.8796,0.199542,3.60076,16.0086,869.932,17.1334,0.0,0.0
392,97.75,196.379,255.242,88.555,100.528,16.173,0.192844,3.55179,16.1284,869.631,16.3881,0.0,0.0
394,98.25,196.14,255.359,87.6559,100.523,14.878,0.186126,3.49525,16.2521,869.601,17.1362,0.0,0.0
396,98.75,196.328,255.315,97.0876,100.529,15.8982,0.179521,3.43427,16.3523,869.501,16.5419,0.0,0.0
398,99.25,196.19,254.731,92.6813,100.533,17.8707,0.172596,3.38487,16.4892,869.191,15.4932,0.0,0.0
400,99.75,195.581,254.921,103.306,100.52,18.6413,0.16557,3.30598,16.6002,869.291,15.1134,0.0,0.0
402,100.25,195.546,254.146,93.9826,100.527,16.3626,0.159879,3.24208,16.7595,868.921,16.2835,0.0,0.0
404,100.75,195.785,254.021,93.862,100.515,18.5157,0.152722,3.16802,16.8886,868.871,15.1736,0.0,0.0
406,101.25,195.078,253.188,92.1599,100.506,20.2619,0.145636,3.08795,17.0614,868.721,14.3644,0.0,0.0
408,101.75,194.957,252.789,106.548,100.488,23.7326,0.138737,3.00611,17.2013,868.57,12.9446,0.0,0.0
410,102.25,194.453,252.192,99.5187,100.475,23.9438,0.133148,2.92453,17.378,868.38,12.864,0.0,0.0
412,102.75,194.361,251.111,103.584,100.45,22.6275,0.123311,2.83785,17.5821,868.37,13.369,0.0,0.0
414,103.25,193.503,250.413,95.4542,100.428,23.6236,0.118283,2.7491,17.7153,868.2,12.9806,0.0,0.0
416,103.75,192.674,249.311,111.372,100.409,25.6935,0.116139,2.65867,17.7857,868.13,12.2256,0.0,0.0
418,104.25,191.849,248.254,111.903,100.385,26.5885,0.108975,2.56873,17.9063,868.05,11.9163,0.0,0.0
420,104.75,191.684,246.65,108.98,100.352,24.7082,0.103171,2.47814,18.0328,868.01,12.5712,0.0,0.0
422,105.25,190.048,245.836,114.529,100.356,26.2574,0.0964141,2.3888,18.1613,867.76,12.0261,0.0,0.0
424,105.75,189.661,244.534,110.061,100.304,25.3931,0.0909411,2.28559,18.3189,867.81,12.3216,0.0,0.0
426,106.25,188.787,242.688,112.751,100.294,26.1943,0.0847316,2.19169,18.4466,867.66,12.0421,0.0,0.0
428,106.75,187.625,241.875,122.18,100.257,24.8981,0.0797019,2.15167,18.5846,867.55,12.494,0.0,0.0
430,107.25,186.055,239.555,122.94,100.244,30.0494,0.0739506,2.08322,18.7273,867.58,10.8061,0.0,0.0
432,107.75,185.537,238.528,120.327,100.216,33.8604,0.0686774,1.98338,18.843,867.449,9.73262,0.0,0.0
434,108.25,184.309,235.978,120.087,100.209,33.0201,0.0638529,1.90251,18.988,867.51,9.95741,0.0,0.0
436,108.75,183.176,234.023,128.912,100.187,36.4791,0.0592142,1.80673,19.1055,867.379,9.0619,0.0,0.0
438,109.25,181.502,232.687,122.732,100.226,40.7192,0.0547991,1.72914,19.2409,867.369,8.07906,0.0,0.0
440,109.75,179.702,230.557,125.804,100.314,45.3681,0.0512229,1.6402,19.3506,867.349,7.11721,0.0,0.0
442,110.25,178.86,228.342,134.538,100.415,50.0702,0.0483262,1.56816,19.4395,867.319,6.24172,0.0,0.0
444,110.75,177.516,226.76,133.623,100.487,54.2568,0.0441328,1.48508,19.5315,867.249,5.52791,0.0,0.0
446,111.25,175.617,224.112,132.314,100.565,56.2925,0.0407362,1.41778,19.6241,867.239,5.20446,0.0,0.0
448,111.75,173.529,222.22,137.5,100.626,68.5635,0.0371467,1.33949,19.725,867.199,3.44116,0.0,0.0
450,112.25,172.778,220.235,136.023,100.708,66.9762,0.0342392,1.27607,19.8299,867.209,3.65856,0.0,0.0
452,112.75,171.303,218.378,136.428,100.747,75.435,0.0312622,1.19672,19.932,867.189,2.59527,0.0,0.0
454,113.25,169.458,216.112,138.926,100.814,83.7578,0.0288509,1.13244,20.0299,867.179,1.66244,0.0,0.0
456,113.75,168.652,214.352,141.081,100.845,87.4815,0.0264617,1.08038,20.1265,867.179,1.27511,0.0,0.0
458,114.25,166.793,211.425,140.938,100.89,89.0188,0.0245264,1.01098,20.2203,867.159,1.12282,0.0,0.0
460,114.75,164.939,209.399,143.562,100.911,88.9452,0.0227654,0.954763,20.2962,867.169,1.1321,0.0,0.0
462,115.25,163.753,207.459,143.689,100.943,89.0614,0.0211648,0.893227,20.3578,867.179,1.12321,0.0,0.0
464,115.75,162.556,205.407,139.069,100.941,89.0475,0.0198683,0.843382,20.4222,867.189,1.12447,0.0,0.0
466,116.25,160.612,202.583,144.601,100.96,89.0297,0.0186492,0.790319,20.4744,867.179,1.12797,0.0,0.0
468,116.75,158.739,200.787,139.644,100.946,89.9529,0.0175098,0.747337,20.523,867.189,1.03416,0.0,0.0
470,117.25,157.566,198.695,145.811,100.944,89.1665,0.0165869,0.706147,20.5624,867.189,1.11275,0.0,0.0
472,117.75,156.51,196.974,141.867,100.906,90.3859,0.015668,0.667046,20.5987,867.189,0.987574,0.0,0.0
474,118.25,154.109,193.762,143.645,100.9,90.12,0.0149237,0.635374,20.6321,867.169,1.01342,0.0,0.0
476,118.75,152.551,192.189,141.945,100.85,90.113,0.014225,0.602923,20.6629,867.169,1.00972,0.0,0.0
478,119.25,151.909,190.872,142.07,100.814,90.0374,0.013659,0.570521,20.6912,867.169,1.01397,0.0,0.0
480,119.75,150.815,188.568,148.102,100.768,89.5618,0.0131245,0.544274,20.7169,867.149,1.05741,0.0,0.0
482,120.25,149.063,186.56,145.481,100.709,89.7064,0.0126915,0.515032,20.7402,867.149,1.0377,0.0,0.0
484,120.75,147.923,184.81,140.69,100.628,89.7882,0.0122899,0.491346,20.7591,867.159,1.02229,0.0,0.0
486,121.25,146.429,183.03,147.655,100.573,90.1855,0.0119187,0.468639,20.7793,867.159,0.977843,0.0,0.0
488,121.75,145.523,182.181,143.069,100.479,90.4557,0.0115858,0.447077,20.7956,867.179,0.942632,0.0,0.0
490,122.25,144.077,179.411,143.769,100.406,88.9963,0.011287,0.42717,20.8103,867.169,1.08195,0.0,0.0
492,122.75,142.606,177.599,143.494,100.312,89.5855,0.0110451,0.408848,20.8234,867.159,1.01434,0.0,0.0
494,123.25,141.828,176.668,143.95,100.303,90.0068,0.0108008,0.391681,20.8354,867.159,0.971448,0.0,0.0
496,123.75,141.23,175.094,143.919,100.31,89.1959,0.010603,0.375682,20.8464,867.129,1.05324,0.0,0.0
498,124.25,140.484,173.558,144.221,100.354,89.2149,0.0104427,0.362722,20.8553,867.139,1.05528,0.0,0.0
500,124.75,138.577,171.39,143.199,100.379,89.7072,0.0102648,0.347809,20.8639,867.119,1.00815,0.0,0.0
502,125.25,137.622,170.225,142.304,100.422,89.2045,0.0101206,0.335729,20.8721,867.119,1.06242,0.0,0.0
504,125.75,136.325,168.387,146.078,100.448,89.4719,0.00997392,0.322746,20.8795,867.119,1.03787,0.0,0.0
506,126.25,135.835,167.219,142.654,100.507,89.1393,0.0098551,0.31223,20.8861,867.119,1.0766,0.0,0.0
508,126.75,134.333,165.628,144.619,100.544,89.7785,0.00971337,0.301771,20.8924,867.119,1.01579,0.0,0.0
510,127.25,133.705,163.857,145.701,100.598,90.046,0.00959857,0.291552,20.8983,867.129,0.993954,0.0,0.0
512,127.75,132.434,162.506,140.436,100.642,90.5165,0.00944328,0.283275,20.9043,867.119,0.951063,0.0,0.0
514,128.25,131.752,161.464,145.246,100.71,89.6494,0.0093175,0.274702,20.9101,867.129,1.04348,0.0,0.0
516,128.75,130.387,159.809,143.588,100.742,89.894,0.00914436,0.266075,20.9158,867.129,1.02195,0.0,0.0
518,129.25,129.598,158.234,145.38,100.798,90.4041,0.00900411,0.257883,20.9213,867.119,0.976103,0.0,0.0
520,129.75,128.421,156.924,144.105,100.825,90.3626,0.00882455,0.250162,20.9261,867.119,0.982619,0.0,0.0
522,130.25,127.787,155.33,141.319,100.874,90.7076,0.0086791,0.242839,20.9305,867.129,0.952874,0.0,0.0
524,130.75,126.911,154.181,145.617,100.909,90.6522,0.00856129,0.235945,20.9341,867.099,0.961442,0.0,0.0
526,131.25,125.749,153.231,144.764,100.957,90.8433,0.00840259,0.228535,20.9378,867.099,0.946837,0.0,0.0
528,131.75,125.401,151.495,142.73,100.969,90.4126,0.00827404,0.222533,20.9408,867.079,0.990474,0.0,0.0
530,132.25,124.101,150.307,145.614,101.01,90.5933,0.00813767,0.216064,20.944,867.099,0.976237,0.0,0.0
532,132.75,123.25,149.561,143.393,101.01,90.175,0.00802721,0.210824,20.9472,867.089,1.01778,0.0,0.0
534,133.25,122.38,147.639,144.021,101.033,90.425,0.00791454,0.205568,20.95,867.109,0.994974,0.0,0.0
536,133.75,121.613,146.707,143.579,101.028,90.1723,0.00782328,0.200398,20.9525,867.089,1.01964,0.0,0.0
538,134.25,120.617,145.475,144.43,101.053,89.6839,0.00771844,0.196211,20.9552,867.079,1.07053,0.0,0.0
540,134.75,120.1,144.24,141.063,101.022,90.5278,0.00763353,0.19172,20.9581,867.099,0.983776,0.0,0.0
542,135.25,118.982,142.859,144.053,101.021,90.5033,0.00753495,0.187093,20.9603,867.089,0.986124,0.0,0.0
544,135.75,118.201,141.84,143.818,100.987,90.07,0.00742829,0.182675,20.9631,867.089,1.02616,0.0,0.0
546,136.25,117.633,141.249,145.834,100.963,89.9785,0.00731282,0.178493,20.9653,867.069,1.0331,0.0,0.0
548,136.75,116.695,139.718,144.871,100.919,89.6231,0.00719313,0.174461,20.9675,867.059,1.06472,0.0,0.0
550,137.25,116.253,139.081,144.279,100.883,89.2556,0.00709617,0.170615,20.9694,867.059,1.09841,0.0,0.0
552,137.75,115.489,137.612,143.177,100.833,90.1502,0.00696905,0.166964,20.9708,867.089,1.00449,0.0,0.0
554,138.25,114.763,136.903,144.563,100.789,89.8374,0.00682234,0.163524,20.972,867.089,1.03178,0.0,0.0
556,138.75,113.851,135.531,144.821,100.715,89.8037,0.00670351,0.160052,20.9734,867.089,1.02849,0.0,0.0
558,139.25,113.333,134.371,141.956,100.658,90.3518,0.00654534,0.156622,20.9746,867.079,0.968894,0.0,0.0
560,139.75,112.412,133.597,146.643,100.578,90.1382,0.00636149,0.153844,20.9753,867.079,0.982948,0.0,0.0
562,140.25,111.565,131.911,141.753,100.511,89.4932,0.00616961,0.150453,20.9759,867.069,1.04142,0.0,0.0
564,140.75,111.035,131.637,146.087,100.419,90.1498,0.00597551,0.147707,20.9768,867.049,0.967574,0.0,0.0
566,141.25,109.747,130.302,144.278,100.325,89.9401,0.00577876,0.145482,20.9776,867.069,0.980066,0.0,0.0
568,141.75,109.884,129.243,144.768,100.237,89.6847,0.00558383,0.14368,20.9791,867.079,0.997758,0.0,0.0
570,142.25,108.919,128.555,142.495,100.154,89.5746,0.00542592,0.140666,20.9803,867.069,1.00135,0.0,0.0
572,142.75,108.223,127.891,139.963,100.042,90.0266,0.00522053,0.137788,20.9822,867.079,0.946109,0.0,0.0
574,143.25,106.983,126.731,148.706,99.9554,89.4281,0.00502345,0.135063,20.9837,867.069,0.998202,0.0,0.0
576,143.75,106.902,125.742,144.514,99.832,89.4219,0.00483619,0.132855,20.9849,867.079,0.987749,0.0,0.0
578,144.25,105.967,124.937,144.969,99.7409,89.125,0.00468451,0.130266,20.9859,867.079,1.00939,0.0,0.0
580,144.75,105.437,124.632,145.292,99.6266,88.6738,0.00451634,0.128168,20.9867,867.069,1.04462,0.0,0.0
582,145.25,105.521,123.187,141.155,99.524,88.1637,0.00433936,0.125627,20.9878,867.079,1.08713,0.0,0.0
584,145.75,104.614,122.43,145.365,99.435,88.5785,0.00415943,0.123569,20.9887,867.079,1.03701,0.0,0.0
586,146.25,103.859,121.199,146.797,99.3533,89.12,0.0040654,0.121289,20.9895,867.079,0.974974,0.0,0.0
588,146.75,103.788,120.388,144.368,99.2696,88.8831,0.00390462,0.119442,20.9909,867.059,0.991278,0.0,0.0
590,147.25,102.976,120.272,143.476,99.2005,88.7118,0.00371638,0.117264,20.9921,867.049,1.00234,0.0,0.0
592,147.75,102.718,119.283,142.206,99.1184,88.4862,0.0035639,0.115499,20.9931,867.059,1.01776,0.0,0.0
594,148.25,101.754,118,144.82,99.0535,89.425,0.00340386,0.113711,20.9941,867.049,0.917217,0.0,0.0
596,148.75,101.639,117.921,142.445,98.9914,88.8358,0.00327424,0.111939,20.9951,867.059,0.970883,0.0,0.0
598,149.25,100.955,117.175,146.398,98.9493,88.1758,0.00314155,0.111184,20.9964,867.069,1.03397,0.0,0.0
600,149.75,99.9621,116.144,143.712,98.9093,88.0141,0.00303408,0.109542,20.9978,867.049,1.0468,0.0,0.0
602,150.25,99.5749,114.45,146.608,98.8795,88.3548,0.00292942,0.107896,20.999,867.079,1.00944,0.0,0.0
604,150.75,98.4046,113.577,148.483,98.8668,88.173,0.00284464,0.106054,21,867.059,1.02676,0.0,0.0
606,151.25,98.6895,113.427,147.903,98.8578,88.1889,0.00277597,0.104561,21.0008,867.059,1.02433,0.0,0.0
608,151.75,98.1026,112.744,143.588,98.8599,89.6118,0.00268893,0.1029,21.0014,867.069,0.880949,0.0,0.0
610,152.25,97.5265,111.771,146.017,98.8717,88.6017,0.00261842,0.101554,21.0019,867.069,0.983701,0.0,0.0
612,152.75,97.0798,111.444,145.381,98.8885,88.3203,0.00253115,0.100211,21.0025,867.059,1.01375,0.0,0.0
614,153.25,96.7464,111.025,142.625,98.9195,89.4165,0.00246046,0.098896,21.0033,867.059,0.905932,0.0,0.0
616,153.75,96.2516,110.483,145.076,98.96,88.4409,0.00236807,0.097556,21.004,867.069,1.008,0.0,0.0
618,154.25,95.2149,109.078,143.492,99.0049,88.4265,0.00232868,0.0962234,21.0043,867.039,1.01353,0.0,0.0
620,154.75,94.3489,108.139,147.62,99.0641,88.6145,0.00223889,0.0951439,21.0049,867.039,0.999843,0.0,0.0
622,155.25,94.4369,108.337,142.859,99.1148,88.9029,0.00214598,0.0937201,21.0058,867.039,0.975285,0.0,0.0
624,155.75,94.2015,107.528,148.943,99.192,89.1828,0.00204634,0.0925667,21.0065,867.049,0.954079,0.0,0.0
626,156.25,93.6,106.938,145.688,99.2573,88.875,0.00194369,0.0914182,21.0071,867.079,0.990993,0.0,0.0
628,156.75,93.1676,105.961,150.048,99.3398,88.8645,0.00186054,0.0902951,21.0076,867.069,0.999501,0.0,0.0
630,157.25,93.0469,105.669,144.841,99.4129,88.7405,0.00176884,0.0896534,21.0082,867.079,1.01863,0.0,0.0
632,157.75,92.6133,105.465,145.953,99.4869,89.806,0.00167265,0.0885562,21.0089,867.069,0.918239,0.0,0.0
634,158.25,91.7027,104.054,144.995,99.5612,88.6897,0.00159473,0.0876674,21.0095,867.059,1.03713,0.0,0.0
636,158.75,91.0141,102.744,145.815,99.6478,88.2944,0.00148915,0.0865962,21.0099,867.069,1.085,0.0,0.0
638,159.25,91.2456,103.325,147.806,99.7078,88.6409,0.00140364,0.0857286,21.0103,867.089,1.05527,0.0,0.0
640,159.75,90.6849,102.324,148.297,99.8051,89.1971,0.0013278,0.0848558,21.0106,867.089,1.0079,0.0,0.0
642,160.25,90.0684,102.211,145.527,99.877,89.3785,0.00126046,0.0839958,21.0113,867.069,0.99614,0.0,0.0
644,160.75,89.8558,101.52,142.307,99.9444,89.6661,0.00120526,0.0832993,21.0119,867.069,0.973375,0.0,0.0
646,161.25,89.8305,101.07,144.116,100.007,89.7603,0.00115995,0.0823002,21.0123,867.069,0.969565,0.0,0.0
648,161.75,89.6354,100.511,141.716,100.071,88.7626,0.00112326,0.0814909,21.0127,867.059,1.07553,0.0,0.0
650,162.25,89.1091,99.353,142.491,100.131,89.6638,0.00110141,0.0806805,21.013,867.059,0.990307,0.0,0.0
652,162.75,88.5084,99.3448,142.742,100.193,89.2002,0.00109082,0.0798846,21.0117,867.059,1.04236,0.0,0.0
654,163.25,88.4522,98.9841,148.745,100.24,90.4293,0.00108223,0.0790998,21.0106,867.039,0.923889,0.0,0.0
656,163.75,87.3992,98.2351,147.374,100.309,90.0285,0.00107528,0.078338,21.01,867.039,0.969871,0.0,0.0
658,164.25,87.3796,97.5719,146.005,100.336,90.2595,0.00106965,0.077721,21.0097,867.029,0.949293,0.0,0.0
660,164.75,86.8123,96.8519,146.047,100.384,89.4269,0.00106012,0.0770297,21.0096,867.039,1.03672,0.0,0.0
662,165.25,86.7669,96.24,146.14,100.392,90.2785,0.0010524,0.0762972,21.0097,867.059,0.952408,0.0,0.0
664,165.75,85.9766,96.2947,146.077,100.431,90.4068,0.00104615,0.075704,21.0097,867.059,0.943136,0.0,0.0
666,166.25,85.6449,95.285,149.351,100.437,89.8165,0.00102362,0.0750136,21.0098,867.049,1.00241,0.0,0.0
668,166.75,85.7029,94.7389,144.815,100.468,89.1049,0.00100536,0.0744544,21.0098,867.059,1.0766,0.0,0.0
670,167.25,85.0092,94.6236,143.563,100.466,89.7425,0.000946943,0.0737907,21.0098,867.049,1.01243,0.0,0.0
672,167.75,85.1803,93.9848,145.654,100.488,89.7673,0.000899622,0.0732532,21.0098,867.039,1.01195,0.0,0.0
674,168.25,84.3547,93.5677,144.22,100.476,88.968,0.000833113,0.0726854,21.0099,867.029,1.09108,0.0,0.0
676,168.75,83.885,92.9698,151.546,100.473,89.9599,0.000753879,0.0721063,21.0103,867.039,0.991379,0.0,0.0
678,169.25,83.6132,92.5529,142.284,100.46,88.601,0.000664831,0.0716372,21.0107,867.039,1.12674,0.0,0.0
680,169.75,83.6235,92.0097,143.976,100.459,89.9836,0.00057032,0.0710197,21.011,867.049,0.987709,0.0,0.0
682,170.25,82.9936,91.2251,145.994,100.426,89.9549,0.000475462,0.0705196,21.0112,867.039,0.987614,0.0,0.0
684,170.75,82.5807,91.2203,149.421,100.428,89.6029,0.000382154,0.0699969,21.0114,867.049,1.02303,0.0,0.0
686,171.25,82.3198,90.6012,148.197,100.38,90.17,0.000298079,0.0694677,21.0116,867.059,0.962138,0.0,0.0
688,171.75,82.2785,89.9625,146.55,100.351,89.5378,0.000258213,0.0689583,21.0117,867.039,1.02262,0.0,0.0
690,172.25,81.7315,90.0262,144.631,100.323,91.232,0.000160979,0.0684729,21.0118,867.049,0.851999,0.0,0.0
692,172.75,81.821,89.3261,144.739,100.296,89.2882,0.000118732,0.0679916,21.0119,867.049,1.04277,0.0,0.0
694,173.25,81.0761,89.3208,148.441,100.25,89.5917,0.000100721,0.0675224,21.0119,867.049,1.0082,0.0,0.0
696,173.75,80.833,88.6713,144.585,100.239,89.3277,6.99228e-05,0.0671424,21.012,867.069,1.03368,0.0,0.0
698,174.25,80.6224,88.259,143.007,100.198,88.7858,6.23579e-05,0.0666812,21.012,867.059,1.0846,0.0,0.0
700,174.75,80.1251,88.2723,145.691,100.187,89.1316,5.62303e-05,0.0664845,21.0121,867.069,1.04879,0.0,0.0
702,175.25,79.9917,87.4228,146.918,100.167,89.3587,7.36259e-05,0.0658376,21.0121,867.029,1.02409,0.0,0.0
704,175.75,79.6492,86.6521,147.039,100.158,89.5405,0.0001008,0.065457,21.0121,867.009,1.0051,0.0,0.0
706,176.25,79.4113,86.1067,147.75,100.25,90.5421,0.000134585,0.065236,21.0122,867.029,0.913549,0.0,0.0
708,176.75,79.159,86.0656,151.914,100.367,89.4122,0.000161952,0.0648581,21.0122,867.039,1.03667,0.0,0.0
710,177.25,78.831,86.3923,145.963,100.46,89.5219,0.000194066,0.0645521,21.0122,867.029,1.03395,0.0,0.0
712,177.75,79.133,85.2727,148.074,100.567,89.8301,0.000220079,0.0641927,21.0122,867.039,1.01268,0.0,0.0
714,178.25,77.8572,85.2261,146.585,100.644,89.8204,0.000227473,0.0639015,21.0122,867.049,1.02049,0.0,0.0
716,178.75,78.4086,84.7868,142.97,100.715,90.7642,0.000233461,0.0635403,21.0122,867.039,0.933066,0.0,0.0
718,179.25,78.0972,84.3356,143.058,100.772,90.1371,0.000238312,0.0632478,21.0122,867.039,1.00039,0.0,0.0
720,179.75,77.737,84.1188,143.253,100.834,90.3471,0.000214899,0.0628854,21.0122,867.039,0.984957,0.0,0.0
722,180.25,77.5676,83.8495,147.364,100.881,90.2095,0.000195935,0.0625919,21.0122,867.049,1.00281,0.0,0.0
724,180.75,77.3413,83.1809,148.133,100.905,89.9262,0.000160703,0.0622736,21.0122,867.029,1.03316,0.0,0.0
726,181.25,77.269,83.3552,142.327,100.921,90.7735,0.000132166,0.0619432,21.0123,867.029,0.950463,0.0,0.0
728,181.75,76.9579,82.8573,144.287,100.933,89.8774,9.99018e-05,0.0616755,21.0123,867.049,1.04058,0.0,0.0
730,182.25,76.1493,82.3461,143.197,100.927,89.6242,6.55344e-05,0.0613613,21.0123,867.049,1.06529,0.0,0.0
732,182.75,76.1046,82.2984,145.884,100.911,90.7588,3.24688e-05,0.0611067,21.0123,867.029,0.951047,0.0,0.0
734,183.25,76.2265,81.531,148.66,100.889,89.4448,9.80438e-07,0.0608566,21.0123,867.019,1.07993,0.0,0.0
736,183.75,75.9145,81.6619,147.73,100.844,89.9018,-2.32179e-05,0.0606144,21.0123,867.009,1.03023,0.0,0.0
738,184.25,75.4951,81.3024,146.487,100.803,89.2587,-4.16421e-05,0.0603377,21.0123,867.029,1.09098,0.0,0.0
740,184.75,75.4539,80.8649,146.717,100.754,89.5882,-6.29279e-05,0.0600411,21.0123,867.029,1.0535,0.0,0.0
742,185.25,74.5928,79.3185,144.027,100.697,89.6735,-6.86539e-05,0.0597642,21.0123,867.029,1.03991,0.0,0.0
744,185.75,73.8023,79.4357,141.498,100.623,90.113,-5.98221e-05,0.0595069,21.0125,867.029,0.989498,0.0,0.0
746,186.25,74.4316,79.7893,147.39,100.539,89.6824,-5.26684e-05,0.0592986,21.013,867.039,1.02496,0.0,0.0
748,186.75,74.6084,79.705,145.657,100.421,90.5274,-4.68739e-05,0.0590741,21.0134,867.039,0.930345,0.0,0.0
750,187.25,74.5056,79.187,150.74,100.349,89.5266,-2.2312e-05,0.0588924,21.014,867.039,1.0236,0.0,0.0
752,187.75,74.4463,79.1365,145.067,100.282,90.1568,-2.41692e-06,0.0587451,21.0146,867.039,0.954686,0.0,0.0
754,188.25,74.0106,78.793,144.892,100.312,90.0615,2.73637e-05,0.058538,21.0152,867.029,0.966807,0.0,0.0
756,188.75,73.7725,78.8423,146.517,100.335,90.0378,5.1486e-05,0.0582912,21.0156,867.029,0.97128,0.0,0.0
758,189.25,72.9081,77.5877,146.632,100.387,89.5277,7.42952e-05,0.0580913,21.0159,867.019,1.02688,0.0,0.0
760,189.75,72.517,77.569,147.02,100.405,90.453,9.57137e-05,0.0578181,21.0162,867.019,0.936262,0.0,0.0
762,190.25,72.9611,77.8254,149.478,100.458,91.2766,0.000113063,0.0575969,21.0164,867.029,0.859661,0.0,0.0
764,190.75,72.438,76.9985,143.86,100.494,89.7161,0.000127115,0.0573481,21.0166,867.019,1.01754,0.0,0.0
766,191.25,72.6824,77.1887,146.091,100.55,89.8274,0.00013392,0.0571467,21.0168,867.029,1.01146,0.0,0.0
768,191.75,71.7602,76.661,148.144,100.597,90.239,0.000135312,0.0569688,21.0169,867.019,0.974637,0.0,0.0
770,192.25,72.3243,76.9142,147.217,100.642,89.4204,0.000131209,0.0568116,21.017,867.009,1.06038,0.0,0.0
772,192.75,71.8679,75.9268,146.561,100.7,89.8708,0.000123177,0.0566404,21.0171,867.029,1.02052,0.0,0.0
774,193.25,71.5,75.3141,146.291,100.744,89.9696,0.000116672,0.0564622,21.0172,867.019,1.01456,0.0,0.0
776,193.75,70.8358,74.908,146.377,100.767,89.7599,0.000100224,0.0562886,21.0172,867.019,1.03756,0.0,0.0
778,194.25,71.6316,75.912,144.635,100.827,90.2363,8.69022e-05,0.0561217,21.0172,867.029,0.995351,0.0,0.0
780,194.75,71.0721,75.3335,146.123,100.852,90.1359,7.87258e-05,0.055928,21.0173,867.029,1.00759,0.0,0.0
782,195.25,71.1769,74.9543,145.059,100.907,90.308,7.44561e-05,0.0557184,21.0173,867.019,0.995345,0.0,0.0
784,195.75,70.4938,74.7904,146.241,100.926,90.0192,7.49199e-05,0.0555487,21.0173,866.999,1.02578,0.0,0.0
786,196.25,71.0958,74.3908,145.43,100.968,91.0689,7.88257e-05,0.0553556,21.0174,867.009,0.9255,0.0,0.0
788,196.75,70.5967,74.5428,145.583,100.981,91.615,8.52585e-05,0.0551992,21.0174,866.999,0.873103,0.0,0.0
790,197.25,69.6106,73.6095,144.229,101.016,90.2537,9.34113e-05,0.055014,21.0174,866.999,1.01046,0.0,0.0
792,197.75,69.9473,73.3097,145.83,101.017,91.4886,9.80535e-05,0.0548114,21.0174,866.989,0.888675,0.0,0.0
794,198.25,70.5183,73.7356,148.348,101.035,89.6359,0.000100048,0.0546181,21.0174,866.979,1.07374,0.0,0.0
796,198.75,69.5918,73.2932,149.63,101.024,90.4502,0.000101664,0.0544351,21.0174,867.009,0.991642,0.0,0.0
798,199.25,69.3817,72.825,150.11,101.043,90.3595,8.06182e-05,0.054287,21.0174,867.019,1.00231,0.0,0.0
800,199.75,69.6271,72.5454,149.186,101.025,91.1134,6.35712e-05,0.0540836,21.0174,867.019,0.926188,0.0,0.0
802,200.25,69.0805,72.6925,146.149,101.029,90.7952,4.97632e-05,0.053897,21.0174,867.009,0.957933,0.0,0.0
804,200.75,69.0178,72.4642,143.508,101.012,90.5417,1.2506e-05,0.0537261,21.0174,867.009,0.981523,0.0,0.0
806,201.25,69.124,71.8826,143.717,100.991,90.4956,-1.76724e-05,0.0535877,21.0174,867.009,0.984245,0.0,0.0
808,201.75,68.5439,72.2455,147.826,100.959,91.339,-4.14632e-05,0.0534829,21.0174,867.009,0.898204,0.0,0.0
810,202.25,68.4331,71.752,148.598,100.932,90.2002,-6.01456e-05,0.0534046,21.0174,866.979,1.00831,0.0,0.0
812,202.75,68.4307,71.3918,145.485,100.898,90.3502,-6.53458e-05,0.0533411,21.0177,866.989,0.990388,0.0,0.0
814,203.25,68.1553,71.5022,145.219,100.866,90.0874,-6.9558e-05,0.0532064,21.0181,867.009,1.01368,0.0,0.0
816,203.75,67.8786,70.5554,147.904,100.814,89.9619,-6.67622e-05,0.0530973,21.0184,867.009,1.02158,0.0,0.0
818,204.25,68.3719,71.2421,144.737,100.785,90.0103,-6.44976e-05,0.0529651,21.0186,867.009,1.01413,0.0,0.0
820,204.75,68.0069,70.3082,147.168,100.727,90.3157,-6.76291e-05,0.0528186,21.0188,866.999,0.978622,0.0,0.0
822,205.25,67.7272,70.6768,149.471,100.692,90.4874,-7.01656e-05,0.0526853,21.019,867.009,0.958421,0.0,0.0
824,205.75,67.8149,70.5313,144.366,100.625,90.4592,-7.74641e-05,0.0525642,21.0192,866.999,0.955257,0.0,0.0
826,206.25,67.1327,69.6689,148,100.587,89.9037,-8.80953e-05,0.0524515,21.0193,867.009,1.00715,0.0,0.0
828,206.75,67.572,69.8264,146.818,100.535,90.7049,-9.67065e-05,0.052347,21.0194,867.009,0.922946,0.0,0.0
830,207.25,66.9923,69.5461,145.151,100.471,89.7312,-0.000119823,0.0522624,21.0194,867.009,1.01403,0.0,0.0
832,207.75,66.7075,69.5064,147.055,100.398,89.8033,-0.000138547,0.0521939,21.0196,867.019,1.00026,0.0,0.0
834,208.25,67.1512,69.2386,147.786,100.346,90.9402,-0.000153713,0.0521165,21.0198,867.019,0.882821,0.0,0.0
836,208.75,66.9145,69.4787,144.623,100.267,90.9534,-0.000169265,0.052034,21.0199,867.039,0.874472,0.0,0.0
838,209.25,66.6924,68.8885,148.258,100.216,90.6006,-0.000184803,0.0519673,21.0197,867.029,0.904756,0.0,0.0
840,209.75,65.7937,68.524,146.473,100.138,89.0514,-0.000197388,0.0517891,21.0194,867.029,1.0524,0.0,0.0
842,210.25,66.1513,68.7744,148.332,100.072,89.6409,-0.00019765,0.0516448,21.0192,867.039,0.987362,0.0,0.0
844,210.75,66.2626,68.3943,150.941,99.997,90.4638,-0.000191981,0.051528,21.0191,867.039,0.898659,0.0,0.0
846,211.25,66.0687,68.4278,145.727,99.9211,89.825,-0.000182095,0.0514187,21.019,867.049,0.955402,0.0,0.0
848,211.75,65.8527,68.3366,148.271,99.8549,89.1986,-0.000169514,0.051317,21.0189,867.029,1.01223,0.0,0.0
850,212.25,65.3999,67.2822,145.591,99.7912,88.4866,-0.000155206,0.0512347,21.0185,867.049,1.07839,0.0,0.0
852,212.75,65.0356,67.3919,146.688,99.7111,89.482,-0.000141656,0.0511264,21.0181,867.039,0.970855,0.0,0.0
854,213.25,65.1367,67.615,144.175,99.6519,89.1917,-0.000128917,0.0510386,21.0177,867.029,0.994674,0.0,0.0
856,213.75,65.1552,67.6849,148.619,99.58,90.2623,-0.000118598,0.050926,21.0174,867.019,0.881181,0.0,0.0
858,214.25,65.3579,67.3667,143.423,99.5273,89.8479,-0.000110239,0.0508347,21.0172,867.009,0.917704,0.0,0.0
860,214.75,65.4457,67.3401,145.134,99.462,89.9785,-0.000103469,0.0507192,21.017,867.029,0.89878,0.0,0.0
862,215.25,64.6064,67.0058,145.633,99.4146,89.3607,-9.6678e-05,0.0506256,21.0168,867.019,0.95631,0.0,0.0
864,215.75,65.024,67.0007,144.786,99.3419,88.7157,-9.00013e-05,0.0505359,21.0167,867.009,1.01472,0.0,0.0
866,216.25,64.0267,66.473,145.533,99.2978,89.2018,-7.93655e-05,0.0504633,21.0166,867.039,0.961729,0.0,0.0
868,216.75,63.8491,66.0783,148.931,99.2304,89.1533,-6.60457e-05,0.0503825,21.0165,867.039,0.960513,0.0,0.0
870,217.25,64.9329,66.9169,150.057,99.1826,88.2777,-5.13356e-05,0.0502974,21.0164,867.039,1.04472,0.0,0.0
872,217.75,64.447,66.4151,143.225,99.1368,88.8975,-3.58915e-05,0.0502285,21.0163,867.019,0.977829,0.0,0.0
874,218.25,64.67,66.1274,147.56,99.0878,88.9203,-2.07672e-05,0.0501727,21.0163,867.029,0.971086,0.0,0.0
876,218.75,64.4459,65.9282,147.815,99.058,89.1079,-6.16342e-06,0.0501274,21.0167,867.019,0.949482,0.0,0.0
878,219.25,64.2127,66.0224,143.298,99.0351,88.5758,5.66566e-06,0.0500631,21.017,867.019,1.00114,0.0,0.0
880,219.75,64.4737,66.0368,146.674,98.9886,88.6614,1.77317e-05,0.0500109,21.0171,867.009,0.988253,0.0,0.0
882,220.25,63.5586,65.7237,144.655,98.9542,89.1758,2.75051e-05,0.049941,21.0169,867.019,0.933258,0.0,0.0
884,220.75,63.9979,65.5406,149.043,98.9338,88.7955,3.54216e-05,0.0498843,21.0167,867.029,0.969735,0.0,0.0
886,221.25,63.4627,65.3637,146.237,98.9056,89.0715,3.56239e-05,0.0498245,21.0166,867.019,0.939345,0.0,0.0
888,221.75,63.6184,65.6338,147.226,98.9048,88.9746,3.57877e-05,0.0497761,21.0165,867.009,0.949035,0.0,0.0
890,222.25,63.6237,65.4161,147.726,98.8799,88.3769,2.35044e-05,0.0497369,21.0164,866.989,1.00723,0.0,0.0
892,222.75,63.5093,64.6339,146.459,98.8783,90.0126,1.35548e-05,0.0497051,21.0164,866.999,0.84259,0.0,0.0
894,223.25,63.1582,65.1753,145.18,98.8726,88.6498,-9.40335e-06,0.0497013,21.0163,867.009,0.978911,0.0,0.0
896,223.75,63.1574,64.649,148.075,98.8681,88.5525,-2.79995e-05,0.0497179,21.0163,867.019,0.988353,0.0,0.0
898,224.25,62.3977,64.368,147.373,98.8693,88.6176,,0.0497313,,867.039,0.981871,0.0,0.0
900,224.75,62.3487,64.1325,143.08,98.8803,88.9351,,0.0497284,,867.029,0.950798,0.0,0.0
902,225.25,63.0906,65.2164,146.51,98.8783,88.9866,,0.0497259,,867.039,0.945415,0.0,0.0
904,225.75,62.9302,64.1444,145.884,98.8967,89.7169,,0.0497101,,867.049,0.873776,0.0,0.0
906,226.25,62.7144,64.4646,145.94,98.9036,88.7653,,0.0496973,,867.039,0.970047,0.0,0.0
908,226.75,62.7509,63.8933,147.911,98.9281,89.4134,,0.0496578,,867.029,0.907022,0.0,0.0
910,227.25,62.7842,64.1189,147.075,98.9428,88.7417,,,,867.019,0.975992,0.0,0.0
912,227.75,62.5396,63.7746,142.725,98.9792,89.2599,,,,866.999,0.92706,0.0,0.0
914,228.25,62.679,63.8611,146.259,99.0045,88.8533,,,,867.009,0.970306,0.0,0.0
916,228.75,62.778,63.5401,146.648,99.0286,89.0909,,,,867.019,0.948536,0.0,0.0
918,229.25,61.977,63.1813,146.913,99.0396,89.125,,,,867.019,0.946101,0.0,0.0
920,229.75,62.1227,63.562,147.021,99.0862,89.0359,,,,867.009,0.959295,0.0,0.0
922,230.25,61.8069,63.3344,148.528,99.1054,88.7862,,,,866.999,0.986214,0.0,0.0
924,230.75,62.0995,63.1922,143.861,99.1454,88.9397,,,,867.019,0.974343,0.0,0.0
926,231.25,61.893,63.1209,147.123,99.1715,88.9921,,,,867.009,0.971432,0.0,0.0
928,231.75,62.3048,63.0113,145.2,99.2193,89.1859,,,,867.009,0.956241,0.0,0.0
930,232.25,61.6532,62.5712,146.908,99.2467,89.8029,,,,866.989,0.896869,0.0,0.0
932,232.75,61.947,62.9972,146.015,99.2896,90.0785,,,,866.989,0.87326,0.0,0.0
934,233.25,61.8053,62.5999,146.388,99.3125,89.444,,,,866.979,0.938731,0.0,0.0
936,233.75,61.2978,62.7036,149.199,99.3635,89.5615,,,,866.979,0.931571,0.0,0.0
938,234.25,61.3853,62.5723,147.399,99.4048,89.8898,,,,866.969,0.902476,0.0,0.0
940,234.75,61.2938,62.3721,147.527,99.4362,89.6153,,,,866.979,0.932738,0.0,0.0
941,235,61.6982,62.3915,149.989,99.4448,89.3576,,,,866.989,0.959348,0.0,0.0