File: 01_Data/HIPS/Cone/HIPS_Cone_HF75Scan_220218_R2.csv
Names,Time,Stack TC,Smoke TC,Exh Press,Smoke Comp,Smoke Meas,CO Meter,CO2 Meter,O2 Meter,Sample Mass,Ext Coeff,Start Test,Flame Verif
Chan Gain,,500,500,1,1,1,1,1,1,1,1,1.0,1.0
Offset,,0,0,0.134285,0,0,0,0,0,0,0,0.0,0.0
Gain,,1,1,25.011,13.3843,12.7012,1,1,1,1.00088,1.02252,1.0,1.0
Units,sec,C,C,Pa,%,%,%,%,%,g,/m,,
Baseline,,45.2434,45.3596,151.714,100.866,93.7157,-0.000373721,0.046441,21.0152,-0.254264,0.659606,,
2,0.25,41.6272,41.264,155.977,100.793,94.757,-0.00042768,0.0510128,21.0121,898.026,0.553872,0.0,0.0
4,0.75,40.8089,40.9667,152.357,100.798,93.9988,-0.000418919,0.0509736,21.0124,898.006,0.626399,0.0,0.0
6,1.25,40.9272,41.2234,150.821,100.787,92.9871,-0.000411822,0.0509418,21.0126,897.976,0.722474,0.0,0.0
8,1.75,41.005,40.9529,153.336,100.793,93.4624,-0.000408558,0.0508467,21.0126,898.016,0.677262,0.0,0.0
10,2.25,40.8508,40.8523,153.459,100.789,94.5705,-0.000405913,0.0507697,21.0123,898.056,0.57121,0.0,0.0
12,2.75,40.6511,40.6243,155.214,100.792,93.5027,-0.000412462,0.0507438,21.0121,897.926,0.673322,0.0,0.0
14,3.25,40.6018,40.9397,151.877,100.782,93.981,-0.000417767,0.0507557,21.012,898.016,0.626683,0.0,0.0
16,3.75,41.238,40.9701,150.504,100.787,94.1546,-0.000430558,0.0507653,21.0118,898.006,0.610598,0.0,0.0
18,4.25,41.1273,41.1957,151.269,100.769,94.25,-0.000448565,0.0509119,21.0113,897.926,0.599883,0.0,0.0
20,4.75,41.0539,41.4185,151.321,100.783,93.3724,-0.000464392,0.0510306,21.0106,898.006,0.685024,0.0,0.0
22,5.25,41.1701,41.005,155.353,100.763,94.2128,-0.000477212,0.0512509,21.0098,897.966,0.60288,0.0,0.0
24,5.75,40.5556,40.9709,153.074,100.771,94.3356,-0.000477663,0.0515411,21.0092,897.966,0.59188,0.0,0.0
26,6.25,40.5253,40.9526,155.313,100.752,94.5903,-0.000478029,0.0519077,21.0087,897.996,0.566027,0.0,0.0
28,6.75,41.1682,41.1414,154.674,100.759,93.5213,-0.000471791,0.0523231,21.0083,897.956,0.668592,0.0,0.0
30,7.25,41.0791,41.4333,154.893,100.735,93.9868,-0.000460857,0.0527327,21.008,897.996,0.621946,0.0,0.0
32,7.75,40.7993,41.4362,152.928,100.76,93.4166,-0.000452001,0.0531302,21.0077,897.946,0.678707,0.0,0.0
34,8.25,40.8237,40.8802,152.466,100.731,93.6387,-0.000436136,0.0534815,21.0075,897.936,0.654863,0.0,0.0
36,8.75,40.7728,41.2342,155.554,100.741,92.915,-0.000423285,0.0537923,21.0073,897.946,0.72536,0.0,0.0
38,9.25,41.0559,41.3744,153.494,100.72,93.5891,-0.000411569,0.0540441,21.0072,897.896,0.658634,0.0,0.0
40,9.75,41.0682,41.2959,151.361,100.725,92.5681,-0.000400903,0.054248,21.0071,897.976,0.757493,0.0,0.0
42,10.25,41.1582,40.9425,155.867,100.709,93.2984,-0.000390303,0.0544132,21.007,897.926,0.685592,0.0,0.0
44,10.75,41.1108,41.2938,151.99,100.722,92.7247,-0.000379953,0.0544498,21.0069,897.906,0.742042,0.0,0.0
46,11.25,40.8073,41.6881,152.576,100.695,92.6499,-0.000359154,0.0544794,21.0068,897.976,0.74688,0.0,0.0
48,11.75,41.0163,41.5415,149.993,100.707,93.1585,-0.000331132,0.0544083,21.0068,897.896,0.698836,0.0,0.0
50,12.25,40.9258,41.7292,152.269,100.684,93.3686,-0.000308435,0.0542653,21.0068,897.946,0.676631,0.0,0.0
52,12.75,40.92,41.3932,153.286,100.7,92.2228,-0.000244112,0.0541494,21.0067,897.946,0.788764,0.0,0.0
54,13.25,41.1306,41.4758,153.671,100.675,92.6476,-0.00019201,0.0539305,21.0067,897.896,0.745285,0.0,0.0
56,13.75,40.5626,41.3648,152.469,100.684,92.8631,-6.5271e-05,0.0537533,21.0058,897.976,0.725245,0.0,0.0
58,14.25,41.2939,41.5557,150.445,100.659,93.1736,3.73875e-05,0.0537208,21.0041,897.916,0.693125,0.0,0.0
60,14.75,40.7297,41.56,153.355,100.67,91.5852,0.000253972,0.0536944,21.0028,897.936,0.8483,0.0,0.0
62,15.25,41.1604,41.9949,150.98,100.647,92.5619,0.000549494,0.0547435,20.9956,897.886,0.751144,0.0,0.0
64,15.75,40.9442,41.5126,148.622,100.638,92.4449,0.000991719,0.0555932,20.9897,897.836,0.761621,0.0,0.0
66,16.25,41.2182,41.4667,148.322,100.633,93.1352,0.00153249,0.0593388,20.9726,897.876,0.694453,0.0,1.0
68,16.75,41.2654,41.3666,149.105,100.631,90.0526,0.00226988,0.0623728,20.9587,897.816,0.996174,0.0,1.0
70,17.25,40.9483,41.2861,144.042,100.614,81.46,0.00272604,0.0686889,20.9528,897.776,1.89419,0.0,1.0
72,17.75,41.1359,42.1726,138.115,100.62,68.5201,0.00350609,0.0772778,20.9303,897.786,3.44633,0.0,1.0
74,18.25,41.5726,41.9667,138.053,100.604,60.0764,0.00413792,0.0842348,20.901,897.736,4.62441,0.0,1.0
76,18.75,41.6851,42.0777,137.221,100.604,57.0689,0.00537617,0.101883,20.8773,897.686,5.08506,0.0,1.0
78,19.25,41.5543,42.3336,140.416,100.595,49.5594,0.00703295,0.123354,20.8226,897.586,6.34974,0.0,1.0
80,19.75,41.8098,42.5086,135.919,100.58,44.0235,0.00891689,0.147204,20.7784,897.566,7.41084,0.0,1.0
82,20.25,42.5742,43.5414,134.056,100.561,44.5139,0.0109306,0.157371,20.7067,897.546,7.30982,0.0,1.0
84,20.75,43.0984,43.6465,123.257,100.559,42.1289,0.0130226,0.174758,20.6486,897.406,7.80359,0.0,1.0
86,21.25,43.102,44.1145,123.622,100.542,42.2867,0.0151317,0.203651,20.5572,897.366,7.76854,0.0,1.0
88,21.75,43.7177,44.9537,127.84,100.55,41.3141,0.0168401,0.240382,20.4833,897.336,7.97788,0.0,0.0
90,22.25,44.1595,45.2464,125.865,100.553,42.9588,0.0187878,0.280521,20.4234,897.226,7.62804,0.0,0.0
92,22.75,44.9457,46.3089,121.488,100.536,41.163,0.0208728,0.32238,20.3337,897.206,8.00956,0.0,0.0
94,23.25,46.1175,47.0981,125.947,100.513,39.7412,0.0229373,0.363555,20.261,897.025,8.32273,0.0,0.0
96,23.75,47.242,48.1493,123.76,100.516,38.8144,0.0249477,0.40345,20.1809,896.955,8.53467,0.0,0.0
98,24.25,48.1129,49.5371,123.966,100.494,38.223,0.0269316,0.435764,20.116,896.825,8.67047,0.0,0.0
100,24.75,48.6295,50.5984,127.036,100.493,37.5369,0.0288584,0.469923,20.0462,896.785,8.83278,0.0,0.0
102,25.25,49.445,51.906,118.198,100.477,36.49,0.0307595,0.504777,19.9897,896.725,9.08508,0.0,0.0
104,25.75,50.8232,53.2098,117.767,100.477,34.7883,0.0326057,0.540705,19.9186,896.605,9.51349,0.0,0.0
106,26.25,51.318,53.7806,121.24,100.472,36.8535,0.0344647,0.576733,19.8611,896.575,8.99572,0.0,0.0
108,26.75,51.817,55.3709,117.824,100.474,35.3105,0.0362976,0.61251,19.7906,896.535,9.37955,0.0,0.0
110,27.25,52.9251,55.9231,117.239,100.456,31.7239,0.0381457,0.647423,19.7335,896.365,10.3386,0.0,0.0
112,27.75,54.1508,57.7901,113.593,100.447,31.4266,0.0399696,0.675703,19.6655,896.305,10.4223,0.0,0.0
114,28.25,54.8644,58.4628,110.043,100.426,32.9623,0.041447,0.712008,19.6105,896.125,9.99247,0.0,0.0
116,28.75,56.1585,59.99,118.241,100.415,36.1209,0.0432168,0.748411,19.5659,896.024,9.17074,0.0,0.0
118,29.25,56.3515,61.1542,116.798,100.396,34.7756,0.045997,0.784192,19.5099,896.004,9.50953,0.0,0.0
120,29.75,57.7858,62.3772,113.522,100.389,33.3949,0.0467449,0.820047,19.4645,895.864,9.87228,0.0,0.0
122,30.25,59.3978,63.9088,119.371,100.384,29.9549,0.0487983,0.855274,19.4175,895.784,10.8469,0.0,0.0
124,30.75,60.6517,65.4515,110.26,100.365,33.8007,0.0504617,0.883808,19.3702,895.574,9.76178,0.0,0.0
126,31.25,61.4562,66.9445,112.763,100.354,33.2658,0.0523389,0.923836,19.3207,895.514,9.90391,0.0,0.0
128,31.75,62.4055,68.1258,103.669,100.356,30.4692,0.0538594,0.95626,19.2705,895.354,10.6917,0.0,0.0
130,32.25,63.8739,69.9929,105.505,100.336,29.7304,0.0555437,0.982522,19.2187,895.284,10.9101,0.0,0.0
132,32.75,65.0607,71.3735,109.713,100.318,27.6118,0.0569079,1.01254,19.1667,895.154,11.5716,0.0,0.0
134,33.25,66.2012,72.5071,109.128,100.322,28.8382,0.0584764,1.04473,19.1168,895.084,11.1821,0.0,0.0
136,33.75,67.0146,74.3053,112.683,100.292,30.156,0.0597469,1.0817,19.0696,894.934,10.7786,0.0,0.0
138,34.25,68.5401,75.6058,110.756,100.284,26.4392,0.0613055,1.11165,19.0245,894.934,11.9578,0.0,0.0
140,34.75,69.1484,77.5293,107.212,100.274,29.8173,0.0625679,1.14503,18.9819,894.723,10.8784,0.0,0.0
142,35.25,70.3666,78.9924,111.156,100.265,29.6576,0.0639511,1.17207,18.9474,894.593,10.9257,0.0,0.0
144,35.75,71.8637,80.1981,109.927,100.245,26.2098,0.065396,1.20306,18.9062,894.533,12.0324,0.0,0.0
146,36.25,72.1893,81.8899,105.496,100.236,26.414,0.0668736,1.22815,18.8729,894.353,11.962,0.0,0.0
148,36.75,73.7087,83.2902,103.802,100.208,25.1869,0.0683471,1.25844,18.829,894.183,12.3862,0.0,0.0
150,37.25,75.1593,84.2978,109.804,100.201,25.5105,0.0698878,1.28297,18.7935,894.053,12.271,0.0,0.0
152,37.75,75.9915,85.8756,102.075,100.164,25.6163,0.0714484,1.30954,18.7474,893.923,12.2306,0.0,0.0
154,38.25,76.8708,87.4779,102.457,100.166,24.6403,0.0727125,1.3371,18.7101,893.893,12.5792,0.0,0.0
156,38.75,77.8994,88.5103,98.0715,100.138,22.9876,0.0744528,1.35943,18.6701,893.743,13.1995,0.0,0.0
158,39.25,79.0899,90.6376,104.027,100.124,25.3008,0.0758625,1.39052,18.6289,893.542,12.3382,0.0,0.0
160,39.75,80.5549,92.0526,99.2324,100.095,24.3295,0.0776489,1.41571,18.5956,893.352,12.6867,0.0,0.0
162,40.25,81.29,93.1641,101.045,100.094,22.5783,0.079096,1.44567,18.5685,893.302,13.3567,0.0,0.0
164,40.75,82.8546,95.1118,98.2921,100.08,22.3073,0.080268,1.46993,18.5335,893.142,13.4637,0.0,0.0
166,41.25,84.1042,96.7071,101.082,100.091,20.5406,0.081801,1.50082,18.5052,893.012,14.2047,0.0,0.0
168,41.75,84.9213,97.9087,106.501,100.08,23.1977,0.0827309,1.52583,18.4879,892.782,13.1127,0.0,0.0
170,42.25,86.176,99.6153,100.83,100.105,23.2973,0.0843211,1.5512,18.4584,892.772,13.0765,0.0,0.0
172,42.75,87.6453,101.116,99.2347,100.093,23.4884,0.0856091,1.57635,18.4345,892.552,13.0022,0.0,0.0
174,43.25,88.5853,102.755,96.4396,100.104,20.2286,0.0873972,1.59672,18.3987,892.431,14.3432,0.0,0.0
176,43.75,89.6609,104.478,103.282,100.094,21.1852,0.0897536,1.61322,18.3697,892.321,13.9279,0.0,0.0
178,44.25,90.8914,105.664,100.298,100.11,21.8426,0.0905709,1.64019,18.3411,892.071,13.6552,0.0,0.0
180,44.75,91.7319,107.05,100.397,100.098,21.3457,0.0919685,1.65168,18.3133,892.091,13.8605,0.0,0.0
182,45.25,93.4822,108.516,96.2633,100.113,22.0383,0.0936869,1.67619,18.2817,891.901,13.5754,0.0,0.0
184,45.75,94.1636,110.641,90.5792,100.106,20.6464,0.0950788,1.7004,18.248,891.811,14.16,0.0,0.0
186,46.25,95.1411,112.012,103.175,100.132,20.4111,0.0968927,1.72001,18.208,891.531,14.2652,0.0,0.0
188,46.75,96.1593,113.21,98.5371,100.12,19.8929,0.098362,1.74772,18.1643,891.38,14.4948,0.0,0.0
190,47.25,97.6263,114.557,94.3505,100.134,19.9774,0.100315,1.77016,18.1201,891.31,14.458,0.0,0.0
192,47.75,98.7419,116.33,95.1886,100.12,19.8448,0.101898,1.79847,18.0762,891.11,14.5165,0.0,0.0
194,48.25,99.3528,117.075,101.597,100.14,17.1091,0.103942,1.82141,18.0312,890.98,15.8488,0.0,0.0
196,48.75,100.295,118.715,97.0762,100.128,19.0925,0.105598,1.85142,17.9861,890.86,14.8638,0.0,0.0
198,49.25,102.057,120.62,104.107,100.157,15.9474,0.106939,1.87573,17.9495,890.64,16.4809,0.0,0.0
200,49.75,103.118,121.786,91.989,100.14,17.2591,0.109082,1.90707,17.9088,890.47,15.7704,0.0,0.0
202,50.25,104.235,123.776,98.9569,100.168,18.2242,0.110818,1.93245,17.8656,890.31,15.2848,0.0,0.0
204,50.75,105.301,125.389,91.3875,100.165,18.3661,0.112565,1.96513,17.8307,890.009,15.215,0.0,0.0
206,51.25,106.713,126.816,89.0733,100.187,15.14,0.114288,1.9916,17.7815,889.959,16.9496,0.0,0.0
208,51.75,107.662,128.175,87.8482,100.169,17.9017,0.11595,2.01304,17.7304,889.739,15.4451,0.0,0.0
210,52.25,108.255,129.523,100.374,100.18,17.6785,0.117534,2.04765,17.6789,889.629,15.5587,0.0,0.0
212,52.75,109.176,131.043,87.8154,100.188,17.9959,0.119095,2.07568,17.6258,889.499,15.3998,0.0,0.0
214,53.25,111.8,133.206,93.8994,100.205,18.3925,0.120608,2.11385,17.5725,889.289,15.2058,0.0,0.0
216,53.75,112.401,134.869,98.8439,100.201,15.7924,0.122687,2.14477,17.5293,889.118,16.5725,0.0,0.0
218,54.25,113.709,136.61,87.6307,100.204,16.0377,0.124371,2.1772,17.4709,888.888,16.4344,0.0,0.0
220,54.75,115.152,138.364,89.7846,100.216,16.7211,0.126336,2.21012,17.4235,888.668,16.0613,0.0,0.0
222,55.25,115.671,139.822,87.5345,100.218,17.0509,0.128468,2.24345,17.3626,888.568,15.8862,0.0,0.0
224,55.75,117.324,141.173,80.4696,100.241,15.8683,0.130195,2.27645,17.3132,888.408,16.533,0.0,0.0
226,56.25,117.523,142.267,93.8872,100.248,18.2727,0.13251,2.31085,17.2732,888.268,15.2682,0.0,0.0
228,56.75,118.708,144.006,87.1315,100.255,17.3118,0.135211,2.34561,17.2191,887.837,15.7534,0.0,0.0
230,57.25,120.775,146.277,78.3263,100.242,13.9718,0.138018,2.38184,17.1753,887.827,17.6748,0.0,0.0
232,57.75,122.545,147.914,95.4382,100.249,17.1199,0.139508,2.41845,17.1466,887.627,15.8528,0.0,0.0
234,58.25,123.408,149.553,94.8696,100.258,14.5454,0.143753,2.44811,17.0975,887.527,17.3154,0.0,0.0
236,58.75,124.819,151.315,95.3626,100.276,13.8489,0.14528,2.48647,17.0577,887.227,17.757,0.0,0.0
238,59.25,125.794,152.413,86.746,100.265,13.1338,0.147892,2.51754,17.01,887.057,18.2317,0.0,0.0
240,59.75,126.546,154.145,85.2935,100.279,15.3575,0.150683,2.55001,16.9713,886.907,16.83,0.0,0.0
242,60.25,128.735,156.645,87.7948,100.28,14.8377,0.153551,2.58287,16.9179,886.706,17.1388,0.0,0.0
244,60.75,129.576,157.904,82.6098,100.301,12.9764,0.156351,2.59689,16.8746,886.566,18.343,0.0,0.0
246,61.25,130.581,160.106,92.2637,100.301,15.8001,0.159047,2.64925,16.8277,886.266,16.577,0.0,0.0
248,61.75,131.784,161.23,83.3632,100.309,14.2257,0.161232,2.66333,16.779,886.016,17.5193,0.0,0.0
250,62.25,133.407,163.19,77.4028,100.306,12.1775,0.163914,2.69678,16.7271,885.896,18.9133,0.0,0.0
252,62.75,134.701,165.204,86.9155,100.314,14.3726,0.166087,2.73229,16.6736,885.826,17.4276,0.0,0.0
254,63.25,135.534,166.976,86.0079,100.316,13.547,0.167847,2.76775,16.6304,885.395,17.9584,0.0,0.0
256,63.75,136.83,169.012,89.2977,100.326,12.0523,0.170319,2.8025,16.5953,885.375,19.0079,0.0,0.0
258,64.25,138.122,170.668,82.1458,100.326,12.1892,0.172321,2.83065,16.5587,885.165,18.9066,0.0,0.0
260,64.75,139.251,172.511,84.7546,100.336,12.4004,0.173943,2.86655,16.5218,884.945,18.7533,0.0,0.0
262,65.25,140.862,174.018,87.504,100.336,12.8624,0.176663,2.89564,16.4859,884.625,18.4253,0.0,0.0
264,65.75,141.706,175.727,80.0284,100.345,11.7097,0.178867,2.92455,16.4515,884.474,19.2683,0.0,0.0
266,66.25,142.893,177.87,89.6793,100.35,12.9617,0.181711,2.95279,16.4201,884.384,18.3576,0.0,0.0
268,66.75,144.141,179.47,85.4584,100.363,11.8597,0.184014,2.97566,16.3915,884.014,19.1557,0.0,0.0
270,67.25,145.317,180.907,107.358,100.363,11.8291,0.18681,2.99419,16.3613,883.914,19.1789,0.0,0.0
272,67.75,146.914,182.83,86.7369,100.364,11.6539,0.189074,3.02138,16.3306,883.634,19.3128,0.0,0.0
274,68.25,147.584,184.212,82.8014,100.36,12.374,0.191831,3.0434,16.2945,883.383,18.7746,0.0,0.0
276,68.75,149.147,185.509,80.6246,100.376,12.4578,0.194064,3.0657,16.2551,883.323,18.7155,0.0,0.0
278,69.25,149.977,187.616,101.747,100.364,12.8303,0.196823,3.08778,16.2233,883.173,18.4502,0.0,0.0
280,69.75,151.022,189.122,95.4321,100.379,12.0423,0.199058,3.11098,16.1775,882.883,19.0201,0.0,0.0
282,70.25,152.047,190.38,79.8911,100.379,10.6755,0.200868,3.13456,16.1404,882.503,20.1006,0.0,0.0
284,70.75,152.838,192.05,87.8528,100.386,10.5934,0.203643,3.16498,16.0994,882.232,20.1706,0.0,0.0
286,71.25,154.387,192.849,87.9459,100.384,11.9256,0.205891,3.18963,16.0563,882.062,19.1078,0.0,0.0
288,71.75,155.082,194.862,94.7948,100.397,10.6713,0.208332,3.22407,16.0214,881.922,20.1058,0.0,0.0
290,72.25,156.047,196.364,75.89,100.387,13.1636,0.210869,3.25197,15.9664,881.562,18.2222,0.0,0.0
292,72.75,156.799,198.165,76.2823,100.4,10.1934,0.213643,3.27457,15.9218,881.362,20.517,0.0,0.0
294,73.25,158.14,199.831,77.2036,100.387,11.1015,0.216536,3.31568,15.8582,881.141,19.7503,0.0,0.0
296,73.75,159.324,201.699,75.6732,100.407,10.6693,0.219544,3.34897,15.8067,880.911,20.1083,0.0,0.0
298,74.25,160.378,203.009,80.8955,100.388,12.8446,0.222577,3.38617,15.7325,880.721,18.4424,0.0,0.0
300,74.75,161.879,204.81,72.3392,100.409,11.6659,0.225653,3.42551,15.6725,880.491,19.3076,0.0,0.0
302,75.25,162.407,206.569,103.033,100.387,11.6136,0.228703,3.45737,15.6025,880.431,19.3459,0.0,0.0
304,75.75,163.737,208.22,73.4482,100.42,11.926,0.23176,3.50095,15.5459,879.91,19.1108,0.0,0.0
306,76.25,165.009,209.945,72.8773,100.397,10.536,0.234766,3.54394,15.4783,879.82,20.2202,0.0,0.0
308,76.75,166.029,211.679,80.0681,100.401,12.2989,0.237201,3.58568,15.4235,879.54,18.8329,0.0,0.0
310,77.25,167.749,213.533,77.0456,100.403,13.0438,0.239705,3.62778,15.3791,879.34,18.3056,0.0,0.0
312,77.75,168.986,215.952,74.8069,100.412,12.4516,0.242212,3.66934,15.3152,879.15,18.7232,0.0,0.0
314,78.25,170.054,217.474,82.6541,100.398,15.4571,0.244464,3.71087,15.2635,878.819,16.7826,0.0,0.0
316,78.75,171.233,219.072,69.3136,100.408,11.1236,0.246487,3.75159,15.21,878.589,19.7344,0.0,0.0
318,79.25,172.211,221.244,70.5119,100.385,11.3949,0.248249,3.78457,15.1667,878.459,19.5162,0.0,0.0
320,79.75,174.066,222.988,106.281,100.388,10.8155,0.249787,3.82315,15.1317,878.249,19.9846,0.0,0.0
322,80.25,175.28,224.691,77.7722,100.385,11.9531,0.251076,3.85441,15.1032,877.959,19.0873,0.0,0.0
324,80.75,175.907,227.025,77.3783,100.392,10.1976,0.252161,3.88395,15.0802,877.779,20.5126,0.0,0.0
326,81.25,177.119,228.483,75.5892,100.38,13.5869,0.252992,3.91168,15.0616,877.618,17.9377,0.0,0.0
328,81.75,178.806,229.992,60.3894,100.383,15.7455,0.253623,3.93577,15.0469,877.028,16.6155,0.0,0.0
330,82.25,179.107,231.595,68.6503,100.383,13.2419,0.254134,3.95674,15.0351,877.008,18.1686,0.0,0.0
332,82.75,180.41,232.913,87.807,100.386,11.3353,0.254385,3.97372,15.039,876.908,19.5634,0.0,0.0
334,83.25,181.135,234.12,75.0984,100.383,9.7259,0.254588,3.98149,15.0544,876.517,20.9365,0.0,0.0
336,83.75,182.428,235.994,71.8507,100.366,8.83246,0.254752,3.98778,15.0668,876.327,21.7994,0.0,0.0
338,84.25,183.633,237.972,75.1862,100.362,11.9291,0.254788,3.98416,15.0867,876.117,19.1032,0.0,0.0
340,84.75,184.543,239.496,83.367,100.37,13.9121,0.254816,3.98122,15.1028,875.877,17.7247,0.0,0.0
342,85.25,184.99,240.159,70.4272,100.365,11.1337,0.254745,3.97073,15.1158,875.737,19.7225,0.0,0.0
344,85.75,185.74,241.109,81.8428,100.368,11.6391,0.254687,3.96224,15.1263,875.376,19.3245,0.0,0.0
346,86.25,186.749,242.739,67.7786,100.37,9.41969,0.25433,3.95524,15.1349,875.196,21.2223,0.0,0.0
348,86.75,187.685,243.49,109.698,100.36,10.3848,0.254041,3.94947,15.1418,875.036,20.3466,0.0,0.0
350,87.25,188.063,244.225,89.3404,100.36,12.3136,0.253807,3.9448,15.1545,874.826,18.8185,0.0,0.0
352,87.75,188.493,245.454,67.1489,100.357,13.4043,0.253071,3.94514,15.1648,874.546,18.057,0.0,0.0
354,88.25,189.401,247.228,99.163,100.354,11.7911,0.251984,3.94542,15.1763,874.296,19.2069,0.0,0.0
356,88.75,190.527,248.478,71.8416,100.358,12.576,0.250466,3.94547,15.1855,874.045,18.6292,0.0,0.0
358,89.25,191.735,250.11,78.6752,100.352,12.3628,0.248664,3.94552,15.1931,874.005,18.7821,0.0,0.0
360,89.75,192.463,250.947,90.6174,100.353,11.1814,0.24656,3.94556,15.1992,873.785,19.6831,0.0,0.0
362,90.25,193.258,252.193,68.7007,100.363,11.6767,0.244276,3.94108,15.2041,873.425,19.2951,0.0,0.0
364,90.75,193.927,253.258,69.7433,100.336,11.9151,0.242426,3.9334,15.2177,873.205,19.1114,0.0,0.0
366,91.25,194.181,253.738,86.0469,100.343,13.5032,0.239776,3.92179,15.2373,873.074,17.9899,0.0,0.0
368,91.75,194.571,254.666,80.6406,100.353,14.2667,0.236593,3.90754,15.2532,872.724,17.4973,0.0,0.0
370,92.25,195.958,255.945,81.9679,100.341,12.7934,0.234015,3.89033,15.2985,872.724,18.474,0.0,0.0
372,92.75,196.465,257.185,72.9307,100.335,13.9129,0.230272,3.87129,15.3352,872.384,17.721,0.0,0.0
374,93.25,197.417,257.031,74.8985,100.333,11.6678,0.227239,3.85586,15.375,872.274,19.2993,0.0,0.0
376,93.75,197.339,258.082,83.4418,100.319,13.3051,0.223309,3.83069,15.4162,872.144,18.1203,0.0,0.0
378,94.25,197.904,258.188,86.0675,100.327,12.7124,0.220126,3.8103,15.4697,871.803,18.5297,0.0,0.0
380,94.75,198.59,258.805,81.6336,100.319,13.6559,0.215965,3.78437,15.5312,871.713,17.8869,0.0,0.0
382,95.25,198.572,259.005,75.8571,100.318,13.219,0.212594,3.75489,15.605,871.523,18.1784,0.0,0.0
384,95.75,198.877,260.225,82.5328,100.312,12.3733,0.208233,3.73101,15.6865,871.333,18.7709,0.0,0.0
386,96.25,200.162,260.662,83.8799,100.308,12.8667,0.204701,3.6893,15.7789,871.123,18.4198,0.0,0.0
388,96.75,200.071,261.21,85.7988,100.309,15.1873,0.200116,3.65551,15.8775,870.983,16.9326,0.0,0.0
390,97.25,200.491,261.375,88.9267,100.305,14.8288,0.196402,3.60241,15.9773,870.903,17.1465,0.0,0.0
392,97.75,200.912,261.3125,87.207,100.298,12.7787,0.193393,3.55939,16.076,870.612,18.4804,0.0,0.0
394,98.25,201.052,261.999,97.3609,100.305,15.3707,0.18816,3.5017,16.1559,870.502,16.8245,0.0,0.0
396,98.75,201.243,261.909,79.3774,100.298,16.5967,0.183921,3.45497,16.2414,870.232,16.1356,0.0,0.0
398,99.25,200.639,261.825,88.1924,100.298,16.0769,0.17813,3.39345,16.3295,870.222,16.4211,0.0,0.0
400,99.75,200.815,261.434,93.0805,100.289,16.8905,0.173439,3.34363,16.4239,869.972,15.9774,0.0,0.0
402,100.25,201.248,261.306,89.5083,100.301,16.9056,0.167228,3.27226,16.5212,869.842,15.9705,0.0,0.0
404,100.75,200.922,261.735,95.4718,100.281,19.3107,0.162197,3.21445,16.6346,869.641,14.7755,0.0,0.0
406,101.25,201.016,261.083,93.2072,100.275,19.8355,0.15647,3.16762,16.7576,869.481,14.5345,0.0,0.0
408,101.75,200.996,260.674,99.5797,100.268,20.5119,0.150343,3.08945,16.8572,869.441,14.2331,0.0,0.0
410,102.25,200.411,260.383,101.214,100.272,18.1665,0.144128,3.02613,17.0108,869.301,15.3226,0.0,0.0
412,102.75,200.787,259.576,102.852,100.26,23.3461,0.137966,2.94045,17.1351,869.081,13.0715,0.0,0.0
414,103.25,200.225,259.312,105.499,100.264,20.8511,0.132974,2.87105,17.2639,869.041,14.0857,0.0,0.0
416,103.75,199.748,258.311,107.094,100.254,23.6279,0.126378,2.79427,17.3935,868.831,12.9634,0.0,0.0
418,104.25,198.98,257.352,103.883,100.257,21.6441,0.121035,2.71357,17.4984,868.721,13.7503,0.0,0.0
420,104.75,198.271,255.712,105.984,100.249,24.4551,0.116707,2.63096,17.6389,868.651,12.6544,0.0,0.0
422,105.25,197.277,255.251,107.672,100.262,28.5021,0.110434,2.54854,17.7527,868.52,11.2819,0.0,0.0
424,105.75,196.889,253.532,106.831,100.244,27.8703,0.105352,2.48178,17.8716,868.45,11.4814,0.0,0.0
426,106.25,196.489,252.56,115.313,100.243,25.7028,0.0993217,2.39111,17.9918,868.34,12.2075,0.0,0.0
428,106.75,195.052,251.641,108.994,100.23,32.3414,0.0944375,2.31766,18.1172,868.28,10.1456,0.0,0.0
430,107.25,194.956,249.829,109.401,100.235,27.6935,0.0895392,2.23944,18.2441,868.12,11.5376,0.0,0.0
432,107.75,193.967,248.995,112.457,100.22,26.2563,0.0847238,2.15921,18.3468,868.06,12.0143,0.0,0.0
434,108.25,192.784,247.103,116.189,100.223,29.6103,0.0797754,2.09422,18.482,868.02,10.9363,0.0,0.0
436,108.75,191.743,245.68,115.857,100.21,26.5675,0.0748241,2.00386,18.5915,867.9,11.9077,0.0,0.0
438,109.25,190.814,243.833,117.759,100.205,32.0766,0.0698141,1.93066,18.7424,867.88,10.2171,0.0,0.0
440,109.75,189.61,242.552,114.745,100.207,38.0396,0.0648566,1.84128,18.8646,867.87,8.6879,0.0,0.0
442,110.25,188.574,240.645,121.232,100.211,42.6367,0.060841,1.76888,18.9636,867.84,7.665,0.0,0.0
444,110.75,187.155,239.418,122.023,100.191,43.6584,0.0591291,1.68154,19.0345,867.77,7.45084,0.0,0.0
446,111.25,186.238,237.661,124.727,100.196,52.3176,0.0539198,1.6108,19.1558,867.73,5.82836,0.0,0.0
448,111.75,184.7,235.661,129.309,100.179,57.6534,0.0497003,1.53322,19.2541,867.75,4.95574,0.0,0.0
450,112.25,183.424,233.316,132.83,100.184,65.6913,0.0462825,1.45214,19.3837,867.7,3.78551,0.0,0.0
452,112.75,182.121,231.372,134.505,100.175,70.5926,0.0419348,1.37101,19.4887,867.7,3.13927,0.0,0.0
454,113.25,180.676,229.518,137.853,100.182,73.873,0.0384132,1.29138,19.5738,867.69,2.73252,0.0,0.0
456,113.75,179.478,227,140.412,100.164,77.7731,0.0351178,1.25744,19.691,867.65,2.26937,0.0,0.0
458,114.25,177.947,225.123,137.352,100.168,81.8938,0.03205,1.19939,19.786,867.65,1.8067,0.0,0.0
460,114.75,176.363,223.225,143.807,100.153,85.8009,0.029565,1.12969,19.9042,867.66,1.38728,0.0,0.0
462,115.25,174.699,220.716,141.326,100.168,88.1913,0.027071,1.0528,19.9999,867.66,1.14216,0.0,0.0
464,115.75,172.939,218.639,141.571,100.153,88.7265,0.0250509,0.990521,20.1156,867.64,1.08657,0.0,0.0
466,116.25,171.437,215.984,141.774,100.159,88.8843,0.0231227,0.927922,20.2094,867.64,1.07118,0.0,0.0
468,116.75,169.644,213.595,140.418,100.127,89.2308,0.0215608,0.866279,20.2944,867.61,1.03339,0.0,0.0
470,117.25,168.006,211.44,147.671,100.147,89.2161,0.0200801,0.808842,20.3714,867.62,1.03663,0.0,0.0
472,117.75,166.612,209.601,141.68,100.129,89.3587,0.0188807,0.755562,20.4392,867.63,1.02069,0.0,0.0
474,118.25,165.181,207.199,144.237,100.136,89.2483,0.0177515,0.712406,20.499,867.6,1.03241,0.0,0.0
476,118.75,164.028,205.093,140.146,100.118,89.5917,0.0168368,0.666272,20.5508,867.61,0.996388,0.0,0.0
478,119.25,162.452,203.261,142.422,100.126,89.6343,0.016096,0.628903,20.596,867.61,0.992852,0.0,0.0
480,119.75,161.12,200.964,139.941,100.107,89.5239,0.015352,0.590331,20.6326,867.63,1.00216,0.0,0.0
482,120.25,159.45,198.662,142.406,100.133,89.5118,0.0147494,0.559087,20.6672,867.65,1.0057,0.0,0.0
484,120.75,157.394,196.582,142.832,100.103,89.1676,0.0141901,0.526574,20.6951,867.64,1.03759,0.0,0.0
486,121.25,157.492,195.04,143.005,100.113,89.1033,0.0137372,0.500238,20.7222,867.62,1.04494,0.0,0.0
488,121.75,156.04,193.034,141.415,100.089,88.9986,0.0133111,0.475269,20.7442,867.62,1.05332,0.0,0.0
490,122.25,154.448,191.337,138.701,100.107,88.8614,0.012966,0.451771,20.7638,867.62,1.06877,0.0,0.0
492,122.75,153.41,189.95,143.789,100.089,90.0967,0.0126287,0.429535,20.7814,867.6,0.943404,0.0,0.0
494,123.25,151.467,187.773,146.386,100.098,89.2812,0.0123555,0.408641,20.7956,867.59,1.02573,0.0,0.0
496,123.75,150.527,185.607,142.842,100.057,89.3987,0.0121155,0.389635,20.8112,867.62,1.01028,0.0,0.0
498,124.25,150.257,184.139,144.19,100.086,89.2859,0.0119044,0.372364,20.8238,867.62,1.02424,0.0,0.0
500,124.75,148.651,183.03,144.27,100.066,89.5378,0.0117258,0.358375,20.8357,867.61,0.997171,0.0,0.0
502,125.25,147.175,180.972,143.228,100.077,89.6463,0.0115744,0.34295,20.8454,867.59,0.987222,0.0,0.0
504,125.75,146.26,179.836,144.665,100.059,89.3801,0.0114516,0.330457,20.8544,867.57,1.01229,0.0,0.0
506,126.25,145.529,177.58,142.228,100.065,89.3207,0.0113426,0.317014,20.8628,867.59,1.0188,0.0,0.0
508,126.75,144.214,176.14,140.416,100.051,89.7149,0.0112456,0.306125,20.8696,867.6,0.978053,0.0,0.0
510,127.25,142.622,174.541,140.581,100.065,89.6351,0.011167,0.295446,20.8777,867.61,0.987321,0.0,0.0
512,127.75,141.546,172.842,143.275,100.035,89.1126,0.0110654,0.285123,20.8843,867.6,1.03701,0.0,0.0
514,128.25,141.548,171.816,142.285,100.046,89.7115,0.0109831,0.276762,20.8905,867.61,0.977999,0.0,0.0
516,128.75,140.316,169.828,138.652,100.037,89.2138,0.0108629,0.267059,20.8956,867.6,1.02709,0.0,0.0
518,129.25,138.977,168.171,142.588,100.049,89.7622,0.0107331,0.259201,20.9019,867.61,0.973143,0.0,0.0
520,129.75,138.402,166.924,143.685,100.028,89.4653,0.010599,0.251221,20.907,867.61,1.00096,0.0,0.0
522,130.25,137.368,165.69,144.565,100.028,89.2758,0.0104547,0.243305,20.9129,867.6,1.02005,0.0,0.0
524,130.75,136.38,165.047,143.738,100.011,88.8176,0.0103057,0.235773,20.9177,867.59,1.06466,0.0,0.0
526,131.25,135.339,162.301,143.695,100.011,89.5797,0.010185,0.228664,20.9229,867.6,0.988036,0.0,0.0
528,131.75,133.435,161.061,141.959,99.9995,89.4541,0.0100118,0.221919,20.9271,867.58,0.999556,0.0,0.0
530,132.25,133.25,160.632,141.572,100.005,89.7091,0.00987146,0.215567,20.931,867.58,0.974533,0.0,0.0
532,132.75,132.975,159.205,142.536,100.002,89.7975,0.00975781,0.209588,20.9346,867.56,0.965407,0.0,0.0
534,133.25,131.815,157.733,143.083,99.9925,89.4409,0.0095282,0.203994,20.9375,867.57,1.00025,0.0,0.0
536,133.75,130.544,156.579,143.134,99.9979,89.5308,0.00934222,0.198672,20.9398,867.58,0.991718,0.0,0.0
538,134.25,129.707,154.884,143.671,99.9938,89.8467,0.00919157,0.193649,20.943,867.58,0.959759,0.0,0.0
540,134.75,128.951,153.547,144.121,99.9823,90.1076,0.00899944,0.189581,20.9456,867.56,0.932728,0.0,0.0
542,135.25,128.113,152.315,142.362,99.977,89.3758,0.00878072,0.184467,20.9479,867.55,1.0054,0.0,0.0
544,135.75,127.561,151.477,147.939,99.9721,90.1878,0.00856283,0.180324,20.9497,867.54,0.923829,0.0,0.0
546,136.25,126.849,150.489,143.166,99.9664,89.1986,0.00834968,0.176969,20.9525,867.55,1.02224,0.0,0.0
548,136.75,125.79,148.656,140.594,99.9619,89.5293,0.00813503,0.174251,20.9548,867.57,0.988648,0.0,0.0
550,137.25,124.945,148.107,141.829,99.9542,89.7099,0.00792335,0.170563,20.9571,867.55,0.969875,0.0,0.0
552,137.75,124.112,146.526,147.658,99.9444,89.0107,0.00771268,0.166237,20.9589,867.56,1.03918,0.0,0.0
554,138.25,123.38,145.664,141.197,99.9439,90.0425,0.00750674,0.162732,20.9618,867.55,0.935768,0.0,0.0
556,138.75,122.561,145.335,142.701,99.9382,89.6735,0.00730416,0.158576,20.9641,867.55,0.972088,0.0,0.0
558,139.25,121.924,143.579,145.546,99.939,89.7366,0.00710788,0.15521,20.9664,867.53,0.965845,0.0,0.0
560,139.75,121.562,142.866,146.511,99.9305,90.1409,0.00694889,0.151473,20.9682,867.54,0.924756,0.0,0.0
562,140.25,120.698,141.65,142.97,99.9292,89.4231,0.00672541,0.147908,20.9702,867.53,0.996362,0.0,0.0
564,140.75,119.711,140.943,145.325,99.9194,90.0095,0.00654439,0.144537,20.9722,867.54,0.936851,0.0,0.0
566,141.25,118.93,139.557,139.348,99.9088,89.3967,0.00635141,0.14136,20.9739,867.54,0.997173,0.0,0.0
568,141.75,118.785,138.589,143.026,99.9207,89.7243,0.00615336,0.138386,20.9756,867.53,0.965433,0.0,0.0
570,142.25,117.919,137.137,144.321,99.8986,89.8595,0.00593999,0.135977,20.9771,867.53,0.949941,0.0,0.0
572,142.75,116.945,136.09,145.333,99.8921,90.2498,0.00571951,0.133095,20.9787,867.52,0.910478,0.0,0.0
574,143.25,116.556,135.409,141.645,99.8921,89.9479,0.00554091,0.13076,20.98,867.53,0.940538,0.0,0.0
576,143.75,115.997,134.497,141.907,99.8892,89.9642,0.00528703,0.128403,20.9813,867.54,0.938657,0.0,0.0
578,144.25,115.091,133.311,142.762,99.8823,89.7471,0.00508138,0.126074,20.9825,867.56,0.959701,0.0,0.0
580,144.75,114.693,132.632,143.814,99.8819,90.4781,0.00483625,0.12376,20.9835,867.55,0.8869,0.0,0.0
582,145.25,113.971,131.802,146.481,99.8855,89.5688,0.0046377,0.121501,20.9848,867.56,0.977831,0.0,0.0
584,145.75,113.252,130.592,146.672,99.8725,89.6611,0.0044283,0.119304,20.9858,867.54,0.967425,0.0,0.0
586,146.25,112.942,129.84,148.368,99.8573,89.5804,0.00421498,0.117194,20.9867,867.55,0.974136,0.0,0.0
588,146.75,111.809,129.108,143.465,99.8623,89.601,0.00404218,0.115485,20.9873,867.56,0.97252,0.0,0.0
590,147.25,111.033,127.88,138.795,99.861,89.637,0.00384582,0.11363,20.9879,867.56,0.968802,0.0,0.0
592,147.75,110.507,127.36,144.26,99.8598,90.0859,0.00363599,0.111704,20.9888,867.56,0.92389,0.0,0.0
594,148.25,110.104,126.354,146.42,99.8353,89.7603,0.0034283,0.109815,20.9895,867.55,0.954166,0.0,0.0
596,148.75,109.414,125.914,145.321,99.8349,89.9192,0.00322611,0.10799,20.9905,867.54,0.938262,0.0,0.0
598,149.25,108.953,124.146,144.246,99.8218,89.5459,0.00303194,0.106512,20.9913,867.57,0.974398,0.0,0.0
600,149.75,108.406,123.951,141.622,99.8337,89.4417,0.0028473,0.104678,20.992,867.58,0.985913,0.0,0.0
602,150.25,107.639,122.85,142.212,99.8214,89.5816,0.00266738,0.103192,20.9925,867.6,0.970791,0.0,0.0
604,150.75,107.249,122.515,143.613,99.8218,89.3014,0.00249433,0.101989,20.9934,867.58,0.99893,0.0,0.0
606,151.25,107.159,122.143,143.028,99.8002,90.0262,0.0023232,0.10035,20.9941,867.58,0.924477,0.0,0.0
608,151.75,105.912,120.267,144.524,99.801,88.8246,0.00215671,0.0990225,20.9952,867.57,1.04507,0.0,0.0
610,152.25,105.099,119.693,143.582,99.7875,89.5138,0.00202185,0.0975099,20.9965,867.57,0.974537,0.0,0.0
612,152.75,105.328,119.54,141.86,99.7961,89.9898,0.00184888,0.0962847,20.9975,867.56,0.927741,0.0,0.0
614,153.25,104.943,118.109,140.271,99.785,90.4844,0.00170878,0.0948554,20.9983,867.54,0.877587,0.0,0.0
616,153.75,104.389,117.679,144.818,99.7965,89.6107,0.00159529,0.0936976,20.999,867.53,0.965641,0.0,0.0
618,154.25,103.818,117.25,143.615,99.7789,89.7696,0.00148102,0.0923937,20.9995,867.53,0.94817,0.0,0.0
620,154.75,103.156,116.584,148.148,99.7863,90.0491,0.00136835,0.0913375,21.0004,867.52,0.920951,0.0,0.0
622,155.25,102.122,115.714,144.502,99.7732,89.8355,0.00126724,0.0900881,21.0011,867.53,0.941073,0.0,0.0
624,155.75,101.669,114.937,139.935,99.7732,90.0293,0.00117649,0.089076,21.0018,867.53,0.921744,0.0,0.0
626,156.25,101.381,114.382,145.697,99.7605,89.4312,0.00110297,0.0882563,21.0024,867.54,0.980392,0.0,0.0
628,156.75,101.348,113.813,142.415,99.7691,90.4169,0.001021,0.0871144,21.0029,867.54,0.882843,0.0,0.0
630,157.25,99.7946,111.921,144.282,99.7614,89.994,0.000954594,0.0861895,21.0036,867.54,0.924195,0.0,0.0
632,157.75,99.3254,111.84,142.59,99.752,89.6928,0.000900808,0.0852339,21.0043,867.53,0.953419,0.0,0.0
634,158.25,99.3925,111.905,144.811,99.7507,89.7638,0.000817393,0.084274,21.0045,867.53,0.946217,0.0,0.0
636,158.75,99.3751,111.091,147.249,99.7422,89.977,0.000749828,0.0834966,21.0043,867.54,0.924169,0.0,0.0
638,159.25,98.4293,109.936,142.577,99.7328,89.6684,0.000673949,0.0825161,21.0042,867.54,0.954133,0.0,0.0
640,159.75,98.1593,109.629,144.968,99.7254,90.113,0.000612487,0.0817219,21.004,867.56,0.909111,0.0,0.0
642,160.25,98.0668,109.124,148.657,99.7128,90.3847,0.000546536,0.0810786,21.0042,867.56,0.880966,0.0,0.0
644,160.75,97.5453,108.703,142.419,99.7291,89.4913,0.000493116,0.080151,21.0045,867.56,0.971539,0.0,0.0
646,161.25,97.3257,108.198,146.478,99.7034,89.618,0.000449846,0.0793996,21.0048,867.55,0.95653,0.0,0.0
648,161.75,96.4364,107.573,142.094,99.7054,89.4366,0.000407338,0.0785389,21.005,867.54,0.974887,0.0,0.0
650,162.25,96.1734,107.1,142.551,99.6833,90.4398,0.000372906,0.0778417,21.0051,867.56,0.872861,0.0,0.0
652,162.75,96.2367,106.139,145.343,99.6964,89.4227,0.000347503,0.077039,21.0053,867.55,0.975478,0.0,0.0
654,163.25,95.6865,105.651,144.452,99.6686,90.2188,0.000326927,0.0763888,21.0054,867.55,0.893476,0.0,0.0
656,163.75,94.683,105.197,148.471,99.6797,89.8669,0.000316476,0.0757516,21.0055,867.55,0.929527,0.0,0.0
658,164.25,94.9764,104.572,144.972,99.6646,88.9056,0.000308011,0.0751361,21.0056,867.54,1.02463,0.0,0.0
660,164.75,94.3908,103.704,143.473,99.6776,88.9986,0.000298536,0.0746375,21.0056,867.55,1.01642,0.0,0.0
662,165.25,93.7771,102.993,144.592,99.6588,89.6463,0.000288507,0.07394,21.0061,867.52,0.949692,0.0,0.0
664,165.75,93.518,102.935,143.483,99.6519,89.4134,0.000280382,0.073375,21.0065,867.53,0.972406,0.0,0.0
666,166.25,92.7934,102.54,143.333,99.6274,90.0479,0.000266343,0.0727496,21.0068,867.52,0.906773,0.0,0.0
668,166.75,92.4327,101.792,147.404,99.6413,89.5956,0.000254972,0.072243,21.0071,867.54,0.953194,0.0,0.0
670,167.25,92.1829,101.365,140.067,99.6147,89.72,0.000239547,0.071651,21.0073,867.55,0.938356,0.0,0.0
672,167.75,92.0225,100.882,148.747,99.6184,89.0921,0.000227053,0.0711715,21.0075,867.57,1.00168,0.0,0.0
674,168.25,91.9701,100.511,144.076,99.607,89.3223,0.000216933,0.0707831,21.0076,867.57,0.977504,0.0,0.0
676,168.75,91.192,99.7142,146.264,99.6115,90.3522,0.000186374,0.0702311,21.0077,867.56,0.875082,0.0,0.0
678,169.25,91.2895,99.3837,146.494,99.5731,88.8758,0.000161621,0.0697839,21.0078,867.54,1.0194,0.0,0.0
680,169.75,90.6226,98.8444,141.29,99.5763,89.8983,0.000121704,0.0692682,21.0081,867.55,0.91709,0.0,0.0
682,170.25,90.2003,98.0118,141.258,99.5612,89.513,8.9372e-05,0.0688504,21.0086,867.54,0.954253,0.0,0.0
684,170.75,90.0235,97.5171,145.155,99.5584,89.6781,3.71095e-05,0.0684312,21.009,867.53,0.937465,0.0,0.0
686,171.25,89.7872,97.0913,147.294,99.5465,90.2223,-5.22313e-06,0.0680189,21.0093,867.56,0.882131,0.0,0.0
688,171.75,89.1745,96.8794,143.847,99.5367,89.3545,-5.93782e-05,0.067685,21.0093,867.56,0.967944,0.0,0.0
690,172.25,89.0798,96.143,146.058,99.5294,89.6471,-0.000103244,0.067247,21.0091,867.55,0.937954,0.0,0.0
692,172.75,88.8751,96.181,143.286,99.5196,89.4634,-0.0001425,0.0668923,21.0089,867.56,0.955472,0.0,0.0
694,173.25,88.0858,95.2405,145.204,99.5102,89.6731,-0.000174297,0.0665389,21.0088,867.54,0.933625,0.0,0.0
696,173.75,87.7976,95.1137,146.304,99.5053,89.6316,-0.00019012,0.0661932,21.0087,867.55,0.937333,0.0,0.0
698,174.25,87.4869,94.4146,148.455,99.4946,89.9874,-0.000202937,0.0658574,21.0086,867.54,0.900839,0.0,0.0
700,174.75,87.6155,94.265,142.341,99.4865,90.2611,-0.000213319,0.0655854,21.0085,867.55,0.872868,0.0,0.0
702,175.25,86.548,93.7017,147.196,99.484,89.4727,-0.00019938,0.0652954,21.0084,867.56,0.951336,0.0,0.0
704,175.75,86.9861,93.6224,141.996,99.4665,89.8289,-0.000188089,0.0650604,21.0084,867.54,0.914113,0.0,0.0
706,176.25,86.1994,92.1875,143.151,99.4579,90.9797,-0.000167769,0.0647726,21.0084,867.54,0.799161,0.0,0.0
708,176.75,86.1676,92.3573,144.444,99.4579,89.8522,-0.00015131,0.0645394,21.0079,867.52,0.911018,0.0,0.0
710,177.25,85.8639,92.0795,146.182,99.4399,89.9235,-0.000141245,0.0643065,21.0075,867.5,0.90228,0.0,0.0
712,177.75,85.4257,91.7449,143.44,99.4452,89.6983,-0.000136033,0.0640782,21.0072,867.51,0.92525,0.0,0.0
714,178.25,84.6622,91.0711,146.974,99.4424,89.5928,-0.000133772,0.0638933,21.0069,867.51,0.93554,0.0,0.0
716,178.75,84.9914,91.0802,145.99,99.4358,89.5297,-0.000133704,0.0636042,21.0067,867.51,0.941279,0.0,0.0
718,179.25,84.8201,90.5627,145.37,99.462,89.4645,-0.000132343,0.06337,21.0066,867.51,0.950164,0.0,0.0
720,179.75,84.584,90.3689,146.149,99.4452,90.1681,-0.000130064,0.063129,21.0064,867.5,0.878397,0.0,0.0
722,180.25,83.9134,89.9899,145.081,99.4513,89.3878,-0.000128219,0.0628876,21.0068,867.5,0.956903,0.0,0.0
724,180.75,83.8819,89.37,146.077,99.4493,89.1936,-0.000119535,0.0626407,21.007,867.5,0.976225,0.0,0.0
726,181.25,83.6878,89.1035,145.457,99.4558,89.4262,-0.000106032,0.0623946,21.007,867.5,0.953458,0.0,0.0
728,181.75,83.0738,88.5268,144.43,99.4346,90.0169,-9.50942e-05,0.0621439,21.007,867.52,0.892489,0.0,0.0
730,182.25,83.1516,87.9035,144.622,99.437,89.3622,-8.03539e-05,0.0618947,21.007,867.54,0.95818,0.0,0.0
732,182.75,82.7402,87.7973,145.009,99.4277,90.8828,-6.31215e-05,0.0616928,21.0069,867.51,0.805992,0.0,0.0
734,183.25,82.7664,86.9844,145.711,99.4301,89.8944,-5.24305e-05,0.0615293,21.0069,867.52,0.904296,0.0,0.0
736,183.75,82.4567,87.4149,150.502,99.4338,89.7622,-4.67113e-05,0.0612715,21.0074,867.51,0.917826,0.0,0.0
738,184.25,82.0536,86.8688,149.167,99.4277,89.1277,-5.38411e-05,0.0610627,21.0077,867.49,0.980902,0.0,0.0
740,184.75,81.474,86.4456,140.986,99.4174,89.9049,-7.02025e-05,0.0608496,21.008,867.479,0.902109,0.0,0.0
742,185.25,81.7485,85.3371,147.678,99.4244,89.8746,-9.26036e-05,0.0606375,21.0082,867.49,0.905753,0.0,0.0
744,185.75,80.1369,85.2928,145.633,99.4211,90.4196,-0.000118982,0.0604217,21.0084,867.51,0.851234,0.0,0.0
746,186.25,81.1691,85.6483,144.988,99.4223,89.8638,-0.000140349,0.0602073,21.0086,867.53,0.906652,0.0,0.0
748,186.75,80.8162,85.3508,146.32,99.4215,89.675,-0.000175007,0.0600337,21.0087,867.53,0.925439,0.0,0.0
750,187.25,80.6264,85.2813,146.201,99.4223,90.2692,-0.00020308,0.0598374,21.0088,867.53,0.866275,0.0,0.0
752,187.75,80.2247,84.7206,146.112,99.4031,89.5006,-0.000230785,0.0596052,21.0088,867.54,0.941245,0.0,0.0
754,188.25,80.1034,84.376,147.711,99.4101,90.0967,-0.000253226,0.0593512,21.0087,867.53,0.882325,0.0,0.0
756,188.75,80.1115,84.2063,144.229,99.4085,89.2471,-0.000271404,0.0591454,21.0086,867.51,0.967164,0.0,0.0
758,189.25,79.4038,83.2872,144.657,99.4048,89.3855,-0.000293577,0.0588527,21.0086,867.52,0.952936,0.0,0.0
760,189.75,78.568,83.317,147.977,99.3835,89.6994,-0.000311537,0.0586157,21.0085,867.51,0.91957,0.0,0.0
762,190.25,79.5106,83.3877,146.87,99.4035,89.4347,-0.000328568,0.058387,21.0087,867.52,0.947887,0.0,0.0
764,190.75,79.1542,82.9489,143.219,99.3942,89.5956,-0.000342363,0.0581689,21.0091,867.53,0.930921,0.0,0.0
766,191.25,79.1762,82.7639,145.942,99.3987,89.3936,-0.000355497,0.0579922,21.0094,867.53,0.951567,0.0,0.0
768,191.75,78.7093,82.6108,143.203,99.3921,89.8777,-0.0003679,0.0578213,21.0096,867.53,0.902532,0.0,0.0
770,192.25,78.622,82.0127,145.953,99.3987,89.2192,-0.000377947,0.0576829,21.0098,867.5,0.969085,0.0,0.0
772,192.75,78.2099,82.4135,146.372,99.3848,89.8898,-0.000386084,0.0575122,21.01,867.5,0.900669,0.0,0.0
774,193.25,77.6404,80.8298,149.471,99.4003,89.7006,-0.000394636,0.0573213,21.0101,867.54,0.920964,0.0,0.0
776,193.75,77.3154,80.5986,143.051,99.3921,89.4773,-0.000399211,0.0571081,21.0102,867.51,0.94258,0.0,0.0
778,194.25,78.0761,81.2831,146.598,99.4023,89.1378,-0.000407033,0.0568827,21.0103,867.54,0.977602,0.0,0.0
780,194.75,77.4393,80.8353,141.981,99.3868,89.618,-0.00042206,0.0566636,21.0106,867.51,0.928007,0.0,0.0
782,195.25,77.6172,80.8078,147.126,99.4109,88.6393,-0.000434231,0.0564532,21.0111,867.53,1.02868,0.0,0.0
784,195.75,76.9838,80.3135,148.107,99.3962,90.5382,-0.000446051,0.0562609,21.0114,867.51,0.837227,0.0,0.0
786,196.25,76.7099,79.5072,142.918,99.4097,89.7475,-0.000457389,0.0560853,21.0117,867.53,0.917123,0.0,0.0
788,196.75,76.4231,79.1968,145.25,99.3917,89.6545,-0.000466573,0.0560105,21.012,867.54,0.924803,0.0,0.0
790,197.25,76.2815,79.4642,145.237,99.4023,90.5309,-0.00046617,0.0558269,21.0122,867.54,0.838509,0.0,0.0
792,197.75,76.4073,79.1177,144.956,99.3864,89.6987,-0.000458787,0.0556782,21.0123,867.52,0.919904,0.0,0.0
794,198.25,75.9576,78.7824,145.068,99.3803,89.7998,-0.000443659,0.0555066,21.0125,867.52,0.90924,0.0,0.0
796,198.75,76.3154,78.5931,146.827,99.3668,89.8076,-0.000423171,0.0553215,21.0126,867.53,0.90725,0.0,0.0
798,199.25,75.9943,78.646,147.863,99.3754,89.4409,-0.000409862,0.0551716,21.0126,867.53,0.944721,0.0,0.0
800,199.75,75.7609,78.5342,148.229,99.3684,90.0812,-0.000387104,0.0549807,21.0127,867.53,0.880109,0.0,0.0
802,200.25,75.3557,77.9134,144.897,99.3888,89.7576,-0.000369978,0.0548261,21.0128,867.52,0.914236,0.0,0.0
804,200.75,75.3046,77.7948,145.579,99.3696,89.4812,-0.000357282,0.0546643,21.0132,867.51,0.940163,0.0,0.0
806,201.25,75.315,77.5382,147.163,99.3664,89.9367,-0.000351572,0.0545004,21.0136,867.51,0.894331,0.0,0.0
808,201.75,74.9404,77.0228,142.933,99.3623,89.9498,-0.000351063,0.0543384,21.014,867.5,0.892649,0.0,0.0
810,202.25,74.4731,76.8664,148.8,99.3774,89.6572,-0.000350652,0.0542554,21.0142,867.53,0.923243,0.0,0.0
812,202.75,74.6548,76.8354,139.281,99.359,89.7045,-0.000354239,0.0540917,21.0144,867.51,0.916853,0.0,0.0
814,203.25,74.7871,76.6099,144.952,99.3578,89.6421,-0.000360673,0.0539394,21.0146,867.54,0.922984,0.0,0.0
816,203.75,73.9081,76.6165,149.653,99.3472,89.7917,-0.000365885,0.0538013,21.0148,867.53,0.907067,0.0,0.0
818,204.25,74.0944,76.0872,145.959,99.3643,90.0057,-0.000372067,0.0536764,21.0149,867.52,0.887269,0.0,0.0
820,204.75,74.0531,76.3333,149.096,99.3423,89.0587,-0.000378839,0.0535752,21.0153,867.52,0.980143,0.0,0.0
822,205.25,73.9528,75.6714,146.723,99.359,89.8386,-0.000384324,0.0534238,21.0157,867.51,0.903454,0.0,0.0
824,205.75,73.5246,76.2448,147.52,99.3562,90.3936,-0.000390009,0.0533012,21.016,867.49,0.847949,0.0,0.0
826,206.25,73.4102,75.3913,145.792,99.3631,90.4607,-0.000394614,0.0532018,21.0162,867.5,0.841924,0.0,0.0
828,206.75,73.3399,75.123,143.937,99.3611,89.8463,-0.00040331,0.0531214,21.0164,867.51,0.902863,0.0,0.0
830,207.25,73.527,75.0227,148.164,99.3794,89.3711,-0.000410353,0.0529729,21.0166,867.52,0.952089,0.0,0.0
832,207.75,72.5313,74.6781,149.639,99.3733,88.9773,-0.000419325,0.0528527,21.0167,867.49,0.991147,0.0,0.0
834,208.25,73.2649,74.5084,141.368,99.3884,89.9045,-0.000429534,0.0526998,21.0168,867.52,0.899531,0.0,0.0
836,208.75,72.9896,74.3606,143.906,99.3831,90.0157,-0.000438456,0.0525759,21.0169,867.51,0.88796,0.0,0.0
838,209.25,72.814,74.0545,146.706,99.3987,90.1029,-0.000446271,0.0524062,21.0169,867.49,0.880676,0.0,0.0
840,209.75,72.4577,74.0677,145.475,99.3982,90.1095,-0.000452601,0.0522687,21.017,867.5,0.879983,0.0,0.0
842,210.25,72.2998,73.6738,144.331,99.4297,90.0909,-0.000454462,0.05215,21.017,867.5,0.884672,0.0,0.0
844,210.75,71.9674,73.6479,148.255,99.4309,90.2607,-0.000453028,0.0520474,21.0171,867.5,0.867897,0.0,0.0
846,211.25,71.9941,73.4311,146.662,99.4518,90.5456,-0.000449907,0.0519642,21.0171,867.51,0.841509,0.0,0.0
848,211.75,71.6428,73.6752,146.761,99.4714,89.908,-0.000447647,0.0518829,21.0171,867.49,0.906663,0.0,0.0
850,212.25,71.9497,72.8178,146.959,99.4955,90.6491,-0.00044313,0.0518171,21.0171,867.49,0.835203,0.0,0.0
852,212.75,71.5823,73.0121,144.979,99.4901,90.4223,-0.000438883,0.0516806,21.0172,867.479,0.85719,0.0,0.0
854,213.25,70.9537,72.8806,146.739,99.4987,90.6859,-0.000433482,0.05157,21.0172,867.49,0.831856,0.0,0.0
856,213.75,71.4889,72.9407,146.158,99.5057,90.7216,-0.000427343,0.051422,21.0172,867.49,0.828955,0.0,0.0
858,214.25,71.0631,72.4108,148.221,99.5151,90.5797,-0.000419104,0.0512495,21.0172,867.5,0.843838,0.0,0.0
860,214.75,70.8427,72.1772,145.614,99.5318,89.3859,-0.000409489,0.051176,21.0172,867.49,0.964352,0.0,0.0
862,215.25,70.111,71.7974,144.084,99.5318,89.8146,-0.000392553,0.0510364,21.0172,867.5,0.921437,0.0,0.0
864,215.75,71.1637,71.8134,149.54,99.5294,90.151,-0.000370601,0.0509233,21.0172,867.51,0.887679,0.0,0.0
866,216.25,70.5607,71.7031,145.259,99.5465,89.6417,-0.00035282,0.0507901,21.0172,867.52,0.940043,0.0,0.0
868,216.75,70.2565,72.1776,143.27,99.5776,90.4824,-0.0003162,0.0506823,21.0172,867.5,0.859109,0.0,0.0
870,217.25,70.5787,71.5333,146.575,99.591,89.6227,-0.000266542,0.0505949,21.0172,867.52,0.945954,0.0,0.0
872,217.75,70.0757,71.331,143.64,99.6188,89.4014,-0.000216517,0.0504949,21.0172,867.49,0.970633,0.0,0.0
874,218.25,70.5356,70.8377,147.063,99.618,90.2498,-0.000167174,0.0503876,21.0172,867.49,0.885834,0.0,0.0
876,218.75,70.0417,71.2575,143.615,99.6445,90.6072,-0.000127206,0.0503008,21.0172,867.479,0.852777,0.0,0.0
878,219.25,70.1305,70.6805,142.986,99.6613,90.1611,-0.000104767,0.0502165,21.0172,867.479,0.898558,0.0,0.0
880,219.75,69.7792,70.9818,147.076,99.6752,90.6871,-8.65905e-05,0.0501483,21.0172,867.49,0.847632,0.0,0.0
882,220.25,69.8795,70.5439,142.76,99.6719,90.1882,-9.66987e-05,0.0501003,21.0172,867.479,0.896815,0.0,0.0
884,220.75,69.1911,70.4539,147.397,99.7029,90.2402,-0.000104886,0.050068,21.0172,867.5,0.894444,0.0,0.0
886,221.25,68.7585,69.5021,145.452,99.6915,91.3875,-0.000125894,0.0500419,21.0172,867.479,0.780095,0.0,0.0
888,221.75,68.5818,69.6055,145.482,99.7283,89.8595,-0.000155849,0.0499929,21.0172,867.49,0.934635,0.0,0.0
890,222.25,68.9464,70.0464,149.182,99.7401,90.2006,-0.000189914,0.0499533,21.0172,867.47,0.901718,0.0,0.0
892,222.75,69.1438,69.6131,146.787,99.7561,90.8041,-0.000226329,0.0499285,21.0172,867.5,0.843337,0.0,0.0
894,223.25,69.222,69.5036,147.344,99.7573,89.0141,-0.000255824,0.049915,21.0172,867.47,1.02203,0.0,0.0
896,223.75,68.7815,69.7686,148.124,99.7895,89.6196,-0.000284943,0.0499113,21.0172,867.5,0.964125,0.0,0.0
898,224.25,68.4161,68.9222,139.234,99.8018,90.2018,-0.000313235,0.049915,21.0168,867.5,0.907146,0.0,0.0
900,224.75,68.3749,69.0789,147.306,99.8324,90.6522,-0.000333537,0.0499106,21.0164,867.51,0.865224,0.0,0.0
902,225.25,68.4358,69.0446,145.92,99.859,90.2254,,0.0499005,,867.54,0.909934,0.0,0.0
904,225.75,68.2402,68.9575,146.214,99.8712,90.1731,,0.0498923,,867.53,0.916238,0.0,0.0
906,226.25,68.2604,68.985,146.953,99.8786,90.0161,,0.0498718,,867.52,0.932527,0.0,0.0
908,226.75,67.9472,68.5281,145.863,99.8961,90.3991,,0.0498552,,867.51,0.896025,0.0,0.0
910,227.25,67.996,68.6473,143.985,99.9096,91.3863,,0.049849,,867.54,0.799812,0.0,0.0
912,227.75,67.9638,68.841,143.658,99.9448,90.2119,,0.0498506,,867.53,0.918984,0.0,0.0
914,228.25,67.0295,68.206,147.287,99.9448,90.5165,,,,867.53,0.888743,0.0,0.0
916,228.75,67.7198,68.0455,145.517,99.966,89.9987,,,,867.51,0.942112,0.0,0.0
918,229.25,67.6852,68.0241,149.758,99.9693,90.9022,,,,867.49,0.852807,0.0,0.0
920,229.75,67.1134,67.6855,147.26,99.9913,91.5983,,,,867.409,0.786357,0.0,0.0
922,230.25,67.2629,67.7074,148.344,99.9905,90.6115,,,,867.429,0.883442,0.0,0.0
924,230.75,67.5586,67.5835,151.78,100.031,90.3685,,,,867.319,0.911196,0.0,0.0
926,231.25,67.3698,67.5708,147.642,100.032,90.5692,,,,867.449,0.891362,0.0,0.0
928,231.75,66.8416,67.738,147.457,100.06,90.453,,,,867.449,0.905339,0.0,0.0
930,232.25,66.8653,67.2409,152.773,100.053,90.1386,,,,867.47,0.93598,0.0,0.0
932,232.75,66.4619,66.8654,149.455,100.075,90.5332,,,,867.439,0.898742,0.0,0.0
934,233.25,66.7902,67.3287,147.533,100.084,91.2402,,,,867.429,0.829774,0.0,0.0
936,233.75,66.4999,67.081,147.06,100.11,91.2456,,,,867.409,0.831583,0.0,0.0
938,234.25,66.6133,66.7718,146.079,100.107,91.1545,,,,867.49,0.840248,0.0,0.0
940,234.75,66.5689,66.4823,149.87,100.126,91.2522,,,,867.429,0.832398,0.0,0.0
942,235.25,65.6117,65.8245,149.106,100.13,91.5898,,,,867.439,0.799641,0.0,0.0
944,235.75,65.6258,66.044,149.969,100.152,90.2026,,,,867.49,0.938511,0.0,0.0
945,236,65.71,66.432,143.749,100.151,90.1747,,,,867.46,0.941177,0.0,0.0