File: 01_Data/HIPS/Cone/HIPS_Cone_HF75Scan_220218_R3.csv
Names,Time,Stack TC,Smoke TC,Exh Press,Smoke Comp,Smoke Meas,CO Meter,CO2 Meter,O2 Meter,Sample Mass,Ext Coeff,Start Test,Flame Verif
Chan Gain,,500,500,1,1,1,1,1,1,1,1,1.0,1.0
Offset,,0,0,0.134285,0,0,0,0,0,0,0,0.0,0.0
Gain,,1,1,25.011,13.3843,12.7012,1,1,1,1.00088,1.02252,1.0,1.0
Units,sec,C,C,Pa,%,%,%,%,%,g,/m,,
Baseline,,50.5569,49.6248,151.252,100.834,93.7023,-0.000505934,0.0469659,21.0121,-0.319363,0.658132,,
2,0.25,45.469,44.6647,151.337,100.657,93.8744,-0.000299327,0.0581256,21.0023,514.37,0.625695,0.0,0.0
4,0.75,44.9542,44.1172,152.521,100.655,94.012,-0.000292605,0.0575556,21.003,514.3,0.612411,0.0,0.0
6,1.25,45.0631,44.3909,150.392,100.642,94.517,-0.000289643,0.0569951,21.004,514.33,0.563188,0.0,0.0
8,1.75,45.2543,44.5005,153.423,100.63,93.6786,-0.000287244,0.0564534,21.0053,514.33,0.642051,0.0,0.0
10,2.25,44.7657,44.5253,153.824,100.623,93.6143,-0.000305166,0.0559356,21.0065,514.31,0.647559,0.0,0.0
12,2.75,45.0937,44.2968,154.226,100.607,92.8457,-0.000319682,0.0555162,21.0077,514.31,0.720088,0.0,0.0
14,3.25,44.677,44.4396,155.555,100.597,94.2151,-0.000359997,0.0550742,21.0087,514.32,0.587884,0.0,0.0
16,3.75,44.9575,43.8148,154.397,100.598,93.5344,-0.000392652,0.0546241,21.0095,514.3,0.652991,0.0,0.0
18,4.25,44.9744,44.2428,149.345,100.586,93.9775,-0.000450142,0.0542596,21.0102,514.32,0.609514,0.0,0.0
20,4.75,44.9448,43.8256,155.622,100.577,94.231,-0.000496708,0.0537977,21.0107,514.23,0.584587,0.0,0.0
22,5.25,45.0877,44.4273,150.779,100.572,93.1767,-0.000554292,0.0534236,21.0111,514.27,0.685033,0.0,0.0
24,5.75,45.1729,44.4903,152.217,100.592,93.1705,-0.000600935,0.053084,21.0115,514.33,0.687452,0.0,0.0
26,6.25,44.6619,44.6441,151.073,100.555,93.5519,-0.000638716,0.0527761,21.0118,514.34,0.647494,0.0,0.0
28,6.75,44.3661,44.8885,152.94,100.544,92.6588,-0.000676507,0.0524756,21.012,514.3,0.732545,0.0,0.0
30,7.25,44.687,44.4555,154.906,100.543,93.4372,-0.000713586,0.0521862,21.0121,514.33,0.657444,0.0,0.0
32,7.75,44.8271,44.3373,152.691,100.53,94.029,-0.000743621,0.051908,21.0122,514.3,0.599604,0.0,0.0
34,8.25,45.2058,44.3481,151.916,100.526,92.779,-0.000753049,0.0516432,21.0123,514.31,0.719354,0.0,0.0
36,8.75,45.1807,44.5887,150.042,100.513,92.5263,-0.000760687,0.0514287,21.0123,514.32,0.742617,0.0,0.0
38,9.25,45.1259,44.5368,154.578,100.513,94.0589,-0.000737076,0.051255,21.0122,514.31,0.595227,0.0,0.0
40,9.75,45.1554,44.7534,152.429,100.506,93.5624,-0.00071795,0.0511142,21.0118,514.31,0.642153,0.0,0.0
42,10.25,45.3219,44.8442,151.356,100.49,92.2282,-0.000682872,0.0510222,21.0115,514.3,0.769553,0.0,0.0
44,10.75,45.1685,44.0911,152.083,100.48,93.5438,-0.00063683,0.0509673,21.0113,514.31,0.641604,0.0,0.0
46,11.25,45.1941,44.6437,157.334,100.469,93.0949,-0.000599536,0.0509228,21.0111,514.32,0.683762,0.0,0.0
48,11.75,44.9788,44.3614,150.938,100.458,92.8154,-0.000540772,0.0509452,21.0105,514.28,0.709743,0.0,0.0
50,12.25,45.2344,44.6321,151.774,100.45,92.9216,-0.000493173,0.051016,21.0098,514.3,0.698793,0.0,0.0
52,12.75,44.8013,44.4734,152.93,100.437,93.3651,-0.000419853,0.0512266,21.0087,514.3,0.654851,0.0,0.0
54,13.25,45.1962,44.7689,152.866,100.437,92.3251,-0.000360463,0.0515354,21.0074,514.31,0.75532,0.0,0.0
56,13.75,44.9413,44.5733,150.388,100.424,92.4705,-0.00024404,0.0519613,21.0056,514.3,0.74008,0.0,0.0
58,14.25,45.1092,44.8956,153.487,100.414,91.4821,-0.000149737,0.0524645,21.0036,514.29,0.835557,0.0,0.0
60,14.75,45.0837,44.6223,150.766,100.403,91.3499,-7.33516e-05,0.0528722,21.0019,514.29,0.847541,0.0,0.0
62,15.25,45.7353,44.927,154.853,100.391,91.6507,0.000243007,0.0543706,20.9957,514.27,0.816997,0.0,0.0
64,15.75,45.4797,44.6342,151.003,100.391,91.4569,0.000499258,0.0555844,20.9906,514.26,0.835984,0.0,1.0
66,16.25,44.851,44.9979,147.282,100.368,91.4131,0.00112725,0.0591785,20.9802,514.23,0.838273,0.0,1.0
68,16.75,45.4553,44.7195,147.291,100.351,90.3061,0.00163592,0.0620898,20.9662,514.26,0.945987,0.0,1.0
70,17.25,45.176,44.854,150.212,100.345,80.2836,0.0026475,0.0685829,20.9426,514.26,2.0006,0.0,1.0
72,17.75,45.4659,45.0164,144.086,100.325,68.8457,0.00346688,0.0775638,20.9126,514.14,3.37748,0.0,1.0
74,18.25,45.5089,45.147,136.367,100.334,57.4972,0.00488199,0.0848383,20.8685,514.05,4.99389,0.0,1.0
76,18.75,45.6934,45.4132,143.295,100.314,55.4317,0.00602822,0.103836,20.8149,514.07,5.32025,0.0,1.0
78,19.25,45.9772,45.6288,135.234,100.312,48.9376,0.00783594,0.119224,20.7537,513.91,6.43774,0.0,1.0
80,19.75,46.1809,46.3528,135.375,100.299,42.6254,0.00930018,0.145328,20.6882,513.93,7.67526,0.0,1.0
82,20.25,46.7324,46.5027,130.203,100.296,43.7018,0.0113448,0.166472,20.6189,513.84,7.45132,0.0,1.0
84,20.75,46.6618,46.5804,128.887,100.277,41.82,0.013001,0.198858,20.548,513.8,7.8444,0.0,1.0
86,21.25,47.3066,47.3421,120.674,100.278,43.4181,0.0143425,0.22509,20.4905,513.7,7.5081,0.0,0.0
88,21.75,47.6168,47.824,131.518,100.263,45.9825,0.0154291,0.261896,20.4165,513.7,6.99199,0.0,0.0
90,22.25,47.9986,48.9602,129.733,100.264,43.7154,0.0177071,0.291708,20.3566,513.59,7.44561,0.0,0.0
92,22.75,49.1857,49.6839,122.486,100.247,42.0894,0.0195522,0.330989,20.296,513.53,7.7841,0.0,0.0
94,23.25,49.7726,50.2898,119.197,100.251,45.8275,0.0216562,0.362807,20.2362,513.44,7.02123,0.0,0.0
96,23.75,50.486,51.0532,129.03,100.236,46.3252,0.0233603,0.388579,20.1682,513.4,6.92303,0.0,0.0
98,24.25,51.2807,52.5679,119.502,100.234,38.8334,0.025299,0.428342,20.1131,513.279,8.50509,0.0,0.0
100,24.75,52.2131,53.4052,120.524,100.227,41.0141,0.0268694,0.46055,20.0499,513.199,8.01446,0.0,0.0
102,25.25,53.0782,54.6131,122.067,100.236,37.9229,0.028742,0.486638,19.9987,513.109,8.71804,0.0,0.0
104,25.75,53.9824,55.6521,122.003,100.233,38.9292,0.0295403,0.52334,19.936,513.059,8.48293,0.0,0.0
106,26.25,54.4375,56.4896,119.658,100.255,37.3958,0.0315734,0.553068,19.9092,512.939,8.84535,0.0,0.0
108,26.75,55.3573,57.5263,116.753,100.231,33.8941,0.0332203,0.588372,19.8539,512.889,9.72504,0.0,0.0
110,27.25,56.2883,58.5814,120.675,100.241,36.8407,0.0349629,0.616969,19.8005,512.779,8.97821,0.0,0.0
112,27.75,57.1907,59.6491,121.848,100.234,35.9349,0.036742,0.65062,19.7572,512.709,9.20092,0.0,0.0
114,28.25,57.1462,60.0908,122.467,100.245,33.0809,0.0381831,0.684264,19.7221,512.589,9.94411,0.0,0.0
116,28.75,57.8577,61.2527,116.814,100.231,33.4999,0.0393504,0.701633,19.672,512.469,9.83001,0.0,0.0
118,29.25,59.8993,62.6416,110.089,100.249,35.919,0.0417929,0.731333,19.6314,512.359,9.2062,0.0,0.0
120,29.75,60.5332,64.2264,121.569,100.238,28.4428,0.0437713,0.768525,19.5915,512.268,11.2985,0.0,0.0
122,30.25,61.5069,65.0963,108.669,100.257,28.4684,0.0460207,0.79865,19.5528,512.158,11.2921,0.0,0.0
124,30.75,62.1623,66.5097,113.615,100.256,29.4316,0.0478427,0.830631,19.5215,512.038,10.9935,0.0,0.0
126,31.25,63.6832,68.1273,111.032,100.263,27.2749,0.0497051,0.863359,19.4783,511.908,11.6767,0.0,0.0
128,31.75,64.4617,69.3012,111.557,100.254,27.1013,0.0515617,0.889869,19.4434,511.838,11.7332,0.0,0.0
130,32.25,65.9362,70.4444,114.487,100.26,28.4688,0.0530655,0.911341,19.4029,511.738,11.2922,0.0,0.0
132,32.75,66.3681,71.951,110.213,100.246,28.5463,0.0549511,0.947032,19.3592,511.588,11.2666,0.0,0.0
134,33.25,67.4289,73.0126,103.888,100.263,23.5411,0.0564785,0.975941,19.3123,511.508,12.9972,0.0,0.0
136,33.75,68.2611,74.5937,111.146,100.254,23.3632,0.0579876,1.00913,19.2641,511.378,13.0644,0.0,0.0
138,34.25,69.1738,75.8638,108.28,100.26,28.7595,0.0594548,1.03601,19.2166,511.208,11.2011,0.0,0.0
140,34.75,69.9424,77.1617,108.421,100.254,24.5524,0.0609163,1.05778,19.1705,511.128,12.6191,0.0,0.0
142,35.25,71.1605,78.3109,115.309,100.263,25.8974,0.0623459,1.08849,19.1332,511.007,12.1416,0.0,0.0
144,35.75,72.2416,79.6577,109.222,100.255,25.0857,0.0635039,1.11336,19.0861,510.917,12.4265,0.0,0.0
146,36.25,73.3152,80.6613,111.498,100.267,22.4314,0.0648192,1.14356,19.048,510.757,13.4307,0.0,0.0
148,36.75,74.1217,82.2432,114.019,100.256,23.9159,0.0662242,1.16803,19.0073,510.617,12.8549,0.0,0.0
150,37.25,75.2591,83.3112,104.426,100.266,23.9287,0.0679047,1.1937,18.9655,510.497,12.851,0.0,0.0
152,37.75,76.5278,84.7839,102.129,100.271,21.6391,0.0692659,1.21976,18.9248,510.347,13.7536,0.0,0.0
154,38.25,77.4574,86.2143,109.94,100.26,24.5993,0.0706554,1.24656,18.8858,510.317,12.6026,0.0,0.0
156,38.75,78.2278,87.4546,100.676,100.256,22.7414,0.0713836,1.27341,18.8691,510.087,13.3066,0.0,0.0
158,39.25,79.6345,88.6084,106.049,100.258,22.512,0.0726289,1.29515,18.8292,510.037,13.3978,0.0,0.0
160,39.75,80.2444,90.2107,103.968,100.255,21.7352,0.0742218,1.32234,18.7968,509.886,13.7124,0.0,0.0
162,40.25,81.0864,91.4639,112.858,100.263,23.8849,0.0757888,1.34436,18.7541,509.716,12.8672,0.0,0.0
164,40.75,82.6332,93.1716,103.701,100.263,19.5979,0.0773071,1.37137,18.7195,509.576,14.6415,0.0,0.0
166,41.25,83.1168,94.2943,103.846,100.26,20.6166,0.0788034,1.39324,18.6773,509.476,14.1868,0.0,0.0
168,41.75,84.6347,95.6101,109.347,100.268,21.4274,0.0802552,1.40793,18.6431,509.316,13.8415,0.0,0.0
170,42.25,85.2178,96.8043,107.956,100.25,22.6019,0.0814312,1.43305,18.6154,509.196,13.3613,0.0,0.0
172,42.75,86.0538,98.2179,104.337,100.254,21.9879,0.0823837,1.45832,18.5766,508.976,13.6086,0.0,0.0
174,43.25,87.3587,100.117,98.0868,100.258,20.2123,0.0839799,1.48323,18.5451,508.886,14.3642,0.0,0.0
176,43.75,88.7299,101.267,102.848,100.268,21.8736,0.0852729,1.50772,18.5138,508.805,13.6567,0.0,0.0
178,44.25,89.7384,102.19,103.643,100.258,22.3314,0.0868473,1.53144,18.4833,508.605,13.4699,0.0,0.0
180,44.75,90.8572,104.334,101.4,100.268,22.5659,0.0881225,1.55066,18.4537,508.445,13.3772,0.0,0.0
182,45.25,91.4067,105.344,96.7007,100.258,20.5073,0.0889153,1.57659,18.4388,508.335,14.2343,0.0,0.0
184,45.75,92.5807,107.112,109.853,100.263,21.3844,0.090271,1.59759,18.4043,508.235,13.8591,0.0,0.0
186,46.25,93.8779,107.789,101.418,100.256,19.0747,0.0916106,1.6146,18.3684,508.045,14.8837,0.0,0.0
188,46.75,94.5309,109.438,94.1101,100.252,18.6584,0.0929132,1.63956,18.3328,507.875,15.0813,0.0,0.0
190,47.25,95.7665,110.497,98.6211,100.252,18.0246,0.0944596,1.65977,18.298,507.755,15.3912,0.0,0.0
192,47.75,96.6193,112.452,103.676,100.269,19.1018,0.0957122,1.68343,18.2619,507.594,14.872,0.0,0.0
194,48.25,97.4176,113.084,99.911,100.244,18.1114,0.0972952,1.69351,18.2256,507.414,15.3473,0.0,0.0
196,48.75,99.2529,114.548,97.2548,100.258,20.1452,0.0985774,1.71546,18.1853,507.314,14.394,0.0,0.0
198,49.25,99.6437,116.12,100.522,100.232,21.1472,0.099616,1.73747,18.1431,507.124,13.9564,0.0,0.0
200,49.75,100.565,117.22,100.702,100.252,17.9789,0.101287,1.7657,18.1089,506.974,15.414,0.0,0.0
202,50.25,101.682,119.02,97.9479,100.241,17.4905,0.10264,1.78856,18.0651,506.864,15.66,0.0,0.0
204,50.75,102.696,120.207,85.0561,100.245,19.7328,0.104282,1.81795,18.0297,506.664,14.5784,0.0,0.0
206,51.25,103.631,121.838,98.8493,100.24,19.28125,0.105613,1.84175,18.0011,506.594,14.7857,0.0,0.0
208,51.75,104.504,123.816,96.0504,100.247,15.747,0.106691,1.86682,17.9711,506.323,16.6024,0.0,0.0
210,52.25,105.824,124.647,91.3928,100.234,17.5742,0.108421,1.89232,17.9406,506.173,15.6165,0.0,0.0
212,52.75,106.923,126.622,88.4306,100.24,17.1746,0.109822,1.91298,17.916,506.003,15.8234,0.0,0.0
214,53.25,108.167,127.608,91.1845,100.23,17.1444,0.110957,1.93999,17.8892,505.863,15.8383,0.0,0.0
216,53.75,109.331,129.195,102.105,100.241,17.4901,0.112927,1.96612,17.8675,505.623,15.6602,0.0,0.0
218,54.25,109.737,129.916,92.366,100.222,14.9443,0.114522,1.99112,17.8418,505.473,17.0694,0.0,0.0
220,54.75,110.673,131.547,85.782,100.235,15.0404,0.116713,2.01137,17.8138,505.302,17.0131,0.0,0.0
222,55.25,112.347,133.319,94.0223,100.222,15.7121,0.118487,2.02777,17.7808,505.152,16.62,0.0,0.0
224,55.75,113.427,134.368,90.7006,100.234,15.2404,0.120502,2.05013,17.7449,504.942,16.8945,0.0,0.0
226,56.25,114.223,136.032,100.302,100.22,14.7962,0.122653,2.07641,17.7157,504.742,17.1586,0.0,0.0
228,56.75,115.183,137.298,92.5584,100.229,14.3509,0.124396,2.0977,17.6614,504.562,17.4336,0.0,0.0
230,57.25,116.211,138.622,99.5248,100.231,14.302,0.126653,2.1283,17.6175,504.422,17.4643,0.0,0.0
232,57.75,117.749,139.712,87.1811,100.246,13.3714,0.129243,2.15309,17.5713,504.211,18.0691,0.0,0.0
234,58.25,117.874,140.755,98.1761,100.228,14.3136,0.132439,2.18551,17.5245,504.051,17.4567,0.0,0.0
236,58.75,119.278,142.793,83.7021,100.252,12.9965,0.135027,2.21176,17.4732,503.861,18.3247,0.0,0.0
238,59.25,120.516,144.466,97.3494,100.231,13.7764,0.137618,2.24191,17.4196,503.711,17.8002,0.0,0.0
240,59.75,121.63,145.517,83.9761,100.234,13.7586,0.140163,2.27433,17.3618,503.461,17.812,0.0,0.0
242,60.25,122.69,147.205,83.3418,100.228,13.4799,0.142672,2.30059,17.3018,503.301,17.995,0.0,0.0
244,60.75,123.711,149.066,86.2667,100.245,13.6047,0.145109,2.33942,17.2458,503.12,17.9138,0.0,0.0
246,61.25,124.779,150.805,80.9131,100.229,13.8237,0.147453,2.37087,17.1937,502.86,17.7692,0.0,0.0
248,61.75,126.168,152.291,97.2517,100.235,14.0784,0.149684,2.40695,17.1449,502.79,17.606,0.0,0.0
250,62.25,126.988,153.422,94.9276,100.233,13.8919,0.151862,2.43618,17.0995,502.52,17.7254,0.0,0.0
252,62.75,128.193,155.113,90.5433,100.244,15.9447,0.15396,2.47061,17.0627,502.35,16.4902,0.0,0.0
254,63.25,129.624,157.523,94.7574,100.232,16.6509,0.15566,2.4985,17.0233,502.23,16.1004,0.0,0.0
256,63.75,131.209,158.912,90.2067,100.244,13.4411,0.157682,2.53191,16.9828,501.969,18.0223,0.0,0.0
258,64.25,131.621,160.763,88.3161,100.236,12.324,0.159901,2.55897,16.9499,501.869,18.7998,0.0,0.0
260,64.75,133.182,162.139,79.3781,100.254,13.1217,0.161698,2.58988,16.9109,501.569,18.2388,0.0,0.0
262,65.25,133.623,163.172,85.8927,100.249,12.5303,0.164198,2.61491,16.8793,501.529,18.6522,0.0,0.0
264,65.75,135.395,164.922,87.3803,100.245,15.0873,0.166223,2.64011,16.8488,501.159,16.9861,0.0,0.0
266,66.25,135.774,166.301,84.0311,100.251,10.6934,0.168915,2.66494,16.8198,501.019,20.0742,0.0,0.0
268,66.75,137.159,168.014,84.402,100.273,13.345,0.171096,2.68506,16.7825,500.829,18.0892,0.0,0.0
270,67.25,138.35,169.933,84.157,100.268,12.2667,0.173944,2.70787,16.7523,500.708,18.8446,0.0,0.0
272,67.75,139.467,171.418,87.4734,100.268,11.8578,0.176251,2.73221,16.7074,500.378,19.1486,0.0,0.0
274,68.25,140.37,173.092,84.5066,100.263,12.0632,0.179068,2.75663,16.671,500.208,18.9941,0.0,0.0
276,68.75,141.593,174.489,86.1629,100.276,11.293,0.181349,2.78063,16.6313,500.028,19.587,0.0,0.0
278,69.25,142.312,175.736,83.3212,100.278,11.4399,0.184067,2.80411,16.5991,499.888,19.4713,0.0,0.0
280,69.75,143.907,177.22,91.4852,100.289,11.4062,0.186269,2.82676,16.5679,499.597,19.4987,0.0,0.0
282,70.25,144.357,179.054,93.5941,100.292,10.3643,0.188052,2.84887,16.538,499.427,20.3582,0.0,0.0
284,70.75,145.684,180.621,81.3283,100.291,14.7431,0.190561,2.87016,16.5092,499.167,17.1972,0.0,0.0
286,71.25,146.479,181.761,81.2092,100.292,11.1461,0.192593,2.891,16.4815,498.927,19.7059,0.0,0.0
288,71.75,147.396,183.341,90.1144,100.307,13.0272,0.195061,2.91113,16.4526,498.787,18.3085,0.0,0.0
290,72.25,148.896,185.086,74.9183,100.307,10.938,0.197059,2.92743,16.4233,498.486,19.8763,0.0,0.0
292,72.75,149.667,186.289,84.3883,100.3,11.7837,0.199469,2.94997,16.3878,498.446,19.2077,0.0,0.0
294,73.25,150.96,187.464,91.6539,100.307,11.3132,0.201421,2.96823,16.3486,498.026,19.5738,0.0,0.0
296,73.75,152.049,188.645,78.9858,100.305,10.7879,0.203484,2.98302,16.3168,497.916,20.0001,0.0,0.0
298,74.25,152.827,190.385,77.444,100.317,12.0306,0.205588,3.01068,16.291,497.686,19.0232,0.0,0.0
300,74.75,153.845,191.865,79.4873,100.318,10.2794,0.207292,3.03308,16.256,497.536,20.4343,0.0,0.0
302,75.25,154.934,193.626,77.1677,100.324,10.9802,0.208673,3.05624,16.2275,497.265,19.8433,0.0,0.0
304,75.75,155.669,194.917,85.2935,100.327,9.92125,0.21106,3.0795,16.2027,497.055,20.7532,0.0,0.0
306,76.25,156.76,196.597,85.392,100.331,10.7155,0.212994,3.10569,16.181,496.855,20.0628,0.0,0.0
308,76.75,157.799,198.343,86.7476,100.334,13.09,0.215177,3.12691,16.1576,496.545,18.2678,0.0,0.0
310,77.25,159.171,199.768,81.6313,100.339,13.1725,0.216946,3.1441,16.1333,496.395,18.2119,0.0,0.0
312,77.75,159.542,200.68,84.8272,100.324,12.3744,0.218378,3.1641,16.1136,496.124,18.7711,0.0,0.0
314,78.25,160.495,202.29,83.1724,100.34,10.3554,0.220108,3.18578,16.0923,495.954,20.3702,0.0,0.0
316,78.75,161.775,203.889,89.0519,100.339,12.0395,0.221509,3.20334,16.0702,495.824,19.0185,0.0,0.0
318,79.25,163.299,205.48,99.4538,100.346,12.5814,0.222911,3.22012,16.0504,495.504,18.6243,0.0,0.0
320,79.75,163.71,207.057,83.7693,100.345,11.824,0.224047,3.23602,16.0327,495.214,19.1811,0.0,0.0
322,80.25,164.971,208.031,83.3052,100.365,10.2794,0.225122,3.2489,16.0092,495.103,20.4385,0.0,0.0
324,80.75,166.111,209.315,88.471,100.359,11.7519,0.225994,3.26727,15.982,494.803,19.2372,0.0,0.0
326,81.25,166.654,210.835,74.7076,100.378,11.6616,0.226688,3.28216,15.9494,494.573,19.3081,0.0,0.0
328,81.75,167.147,211.834,78.7965,100.379,10.6705,0.227251,3.3006,15.9134,494.393,20.1048,0.0,0.0
330,82.25,168.973,213.869,84.1143,100.389,8.67664,0.22752,3.32128,15.8844,494.243,21.9611,0.0,0.0
332,82.75,169.768,215.063,72.6186,100.388,11.6891,0.227738,3.34302,15.8608,493.912,19.2878,0.0,0.0
334,83.25,171.206,216.76,79.8643,100.409,13.2338,0.227808,3.36511,15.8396,493.632,18.1765,0.0,0.0
336,83.75,171.71,217.912,77.8981,100.403,11.1725,0.227768,3.38571,15.8205,493.542,19.6947,0.0,0.0
338,84.25,172.492,219.528,85.966,100.426,10.8077,0.227736,3.40484,15.8051,493.212,19.9944,0.0,0.0
340,84.75,173.878,220.779,84.4646,100.421,8.99758,0.227773,3.42033,15.791,493.112,21.6381,0.0,0.0
342,85.25,174.571,221.937,75.561,100.436,12.2729,0.22786,3.43288,15.778,492.721,18.855,0.0,0.0
344,85.75,175.117,223.46,84.8539,100.426,9.31658,0.22793,3.44315,15.7675,492.671,21.3261,0.0,0.0
346,86.25,175.809,224.686,84.3249,100.453,10.2728,0.228365,3.45157,15.7591,492.431,20.4521,0.0,0.0
348,86.75,176.641,225.257,83.2991,100.445,10.9802,0.228718,3.45839,15.7522,492.161,19.8541,0.0,0.0
350,87.25,177.074,226.803,78.1027,100.464,11.7298,0.229119,3.46796,15.7483,491.911,19.2635,0.0,0.0
352,87.75,177.985,227,77.9653,100.468,10.336,0.229443,3.47572,15.7465,491.811,20.3985,0.0,0.0
354,88.25,178.98,228.582,89.3206,100.491,10.8728,0.229463,3.48472,15.7452,491.57,19.9463,0.0,0.0
356,88.75,180.102,229.961,65.1774,100.474,13.2454,0.229479,3.49444,15.744,491.18,18.1744,0.0,0.0
358,89.25,180.449,231.007,75.6335,100.499,10.0499,0.229005,3.50231,15.7511,491.11,20.653,0.0,0.0
360,89.75,181.936,232.01,83.8914,100.496,10.4023,0.228622,3.50385,15.764,490.89,20.3436,0.0,0.0
362,90.25,182.15,233.399,90.3052,100.515,8.86579,0.227668,3.5051,15.7885,490.65,21.7789,0.0,0.0
364,90.75,182.959,234.341,89.0992,100.506,10.5422,0.226896,3.49473,15.821,490.439,20.2247,0.0,0.0
366,91.25,183.817,234.928,78.7141,100.528,9.63752,0.22627,3.48634,15.8473,490.229,21.0314,0.0,0.0
368,91.75,183.858,235.563,88.9954,100.524,10.7027,0.224797,3.47004,15.8735,490.019,20.0908,0.0,0.0
370,92.25,184.121,236.87,87.2521,100.544,10.0778,0.223603,3.45684,15.8948,489.829,20.6321,0.0,0.0
372,92.75,184.817,237.236,88.2558,100.548,12.1419,0.22175,3.44059,15.9134,489.649,18.9613,0.0,0.0
374,93.25,184.736,237.131,89.0381,100.557,11.6868,0.220248,3.42742,15.9297,489.439,19.3047,0.0,0.0
376,93.75,185.003,237.376,87.3063,100.55,9.91273,0.21814,3.41359,15.9488,489.268,20.7809,0.0,0.0
378,94.25,186.129,238.378,92.5317,100.577,11.8446,0.215975,3.39954,15.9695,489.048,19.1862,0.0,0.0
380,94.75,186.785,238.864,85.2744,100.574,13.4051,0.21381,3.38816,15.9992,488.838,18.0759,0.0,0.0
382,95.25,187.168,239.617,84.4844,100.588,12.2175,0.212057,3.36887,16.0349,488.568,18.9092,0.0,0.0
384,95.75,187.779,240.036,93.3491,100.598,10.0302,0.209372,3.35325,16.0743,488.488,20.6795,0.0,0.0
386,96.25,187.582,240.721,94.2292,100.615,10.9569,0.207197,3.33038,16.1157,488.257,19.8883,0.0,0.0
388,96.75,188.578,241.519,82.8694,100.615,10.8794,0.20458,3.31187,16.1493,488.037,19.952,0.0,0.0
390,97.25,188.53,240.919,85.5988,100.638,13.0717,0.201689,3.28758,16.1764,487.807,18.3074,0.0,0.0
392,97.75,188.299,241.082,88.3833,100.63,14.1036,0.199347,3.26791,16.2096,487.567,17.6253,0.0,0.0
394,98.25,188.938,241.794,86.8369,100.643,12.9109,0.197451,3.2457,16.2364,487.537,18.4189,0.0,0.0
396,98.75,189.214,242.203,90.2266,100.646,12.3527,0.194226,3.22207,16.2582,487.257,18.8156,0.0,0.0
398,99.25,189.674,242.634,92.3729,100.66,15.0648,0.190095,3.20292,16.3048,487.106,17.0365,0.0,0.0
400,99.75,190.268,243.258,85.8431,100.661,13.0528,0.185713,3.16812,16.3426,486.906,18.3225,0.0,0.0
402,100.25,190.445,243.358,88.3023,100.69,12.012,0.181231,3.13993,16.3912,486.716,19.0704,0.0,0.0
404,100.75,190.481,243.555,97.3876,100.673,12.7241,0.177602,3.11709,16.4469,486.576,18.5523,0.0,0.0
406,101.25,190.153,242.92,92.9728,100.693,12.3349,0.174965,3.07998,16.4973,486.426,18.8328,0.0,0.0
408,101.75,190.205,242.722,100.705,100.698,12.7857,0.170456,3.03316,16.5836,486.436,18.5112,0.0,0.0
410,102.25,190.157,243.609,89.2259,100.704,15.2687,0.164494,2.99524,16.6863,486.116,16.9199,0.0,0.0
412,102.75,190.239,242.819,95.242,100.695,16.3517,0.159666,2.9364,16.799,485.945,16.3044,0.0,0.0
414,103.25,190.64,242.379,89.535,100.713,16.5564,0.15337,2.88874,16.9116,485.835,16.1945,0.0,0.0
416,103.75,190.211,242.596,98.3432,100.717,17.5397,0.14827,2.82755,17.0221,485.645,15.6773,0.0,0.0
418,104.25,190.266,241.614,97.8013,100.736,18.1688,0.141974,2.80146,17.1364,485.655,15.3629,0.0,0.0
420,104.75,189.47,240.947,95.4138,100.722,18.3351,0.136875,2.74388,17.2513,485.485,15.28,0.0,0.0
422,105.25,189.065,240.451,98.2264,100.754,21.1639,0.132745,2.68557,17.3444,485.305,13.9959,0.0,0.0
424,105.75,188.549,239.764,96.0557,100.733,21.61,0.127688,2.62302,17.4198,485.245,13.8069,0.0,0.0
426,106.25,188.955,239.647,102.747,100.758,24.7589,0.122051,2.55858,17.5361,485.025,12.589,0.0,0.0
428,106.75,188.494,239.176,105.868,100.752,21.665,0.116297,2.49071,17.6303,484.995,13.7858,0.0,0.0
430,107.25,187.999,238.403,105.08,100.765,23.0197,0.110566,2.42161,17.7315,484.865,13.2429,0.0,0.0
432,107.75,187.684,237.139,102.758,100.759,25.7136,0.105006,2.36565,17.8358,484.794,12.2497,0.0,0.0
434,108.25,186.82,236.918,106.384,100.782,27.7032,0.0996769,2.28706,17.9446,484.724,11.5833,0.0,0.0
436,108.75,186.8,235.418,108.307,100.77,22.6798,0.0945137,2.2234,18.0547,484.614,13.3768,0.0,0.0
438,109.25,185.741,234.273,109.187,100.785,28.1432,0.0895698,2.17184,18.2098,484.524,11.4422,0.0,0.0
440,109.75,184.816,232.592,115.019,100.785,27.0373,0.0848199,2.09009,18.3355,484.454,11.8018,0.0,0.0
442,110.25,184.003,231.9,117.381,100.79,27.9629,0.0803016,2.02387,18.4898,484.384,11.5003,0.0,0.0
444,110.75,183.251,230.942,122.449,100.801,32.0685,0.0758954,1.9398,18.6148,484.274,10.2725,0.0,0.0
446,111.25,182.322,229.387,124.414,100.814,30.6657,0.0716545,1.8717,18.7543,484.254,10.6749,0.0,0.0
448,111.75,182.059,228.355,119.061,100.803,30.3839,0.0682195,1.79026,18.8673,484.184,10.7567,0.0,0.0
450,112.25,181.249,226.636,119.154,100.815,35.0232,0.0644342,1.72429,18.9589,484.154,9.4832,0.0,0.0
452,112.75,179.264,224.729,122.592,100.813,36.9229,0.0604657,1.64711,19.07,484.064,9.00924,0.0,0.0
454,113.25,178.349,223.517,122.346,100.825,41.1428,0.0566037,1.57252,19.16,483.994,8.03965,0.0,0.0
456,113.75,177.676,221.832,123.06,100.843,45.3399,0.0528928,1.50124,19.2686,483.964,7.17005,0.0,0.0
458,114.25,176.303,220.894,120.961,100.829,46.2767,0.0492325,1.4435,19.3565,483.924,6.98529,0.0,0.0
460,114.75,175.406,219.35,128.013,100.827,49.3392,0.047362,1.36959,19.4123,483.894,6.41042,0.0,0.0
462,115.25,174.43,217.18,128.757,100.834,51.0974,0.0441635,1.30972,19.5076,483.854,6.09693,0.0,0.0
464,115.75,173.253,214.95,127.79,100.848,61.1175,0.0404714,1.24679,19.5848,483.834,4.49209,0.0,0.0
466,116.25,171.841,213.716,134.146,100.84,63.373,0.0374809,1.18282,19.6986,483.814,4.16631,0.0,0.0
468,116.75,170.504,211.869,135.312,100.84,69.091,0.0345736,1.131,19.7908,483.814,3.39146,0.0,0.0
470,117.25,169.591,209.775,135.435,100.845,75.2063,0.0317821,1.06651,19.8839,483.794,2.63116,0.0,0.0
472,117.75,168.238,207.963,141.325,100.839,84.1869,0.0295211,1.03901,19.9761,483.784,1.61886,0.0,0.0
474,118.25,166.782,205.905,139.692,100.843,88.0075,0.0271243,0.970701,20.0658,483.784,1.22109,0.0,0.0
476,118.75,165.719,204.546,138.72,100.847,89.9588,0.0251828,0.91537,20.152,483.784,1.0248,0.0,0.0
478,119.25,164.337,202.751,140.694,100.844,89.813,0.0236103,0.860089,20.2219,483.784,1.03909,0.0,0.0
480,119.75,162.731,200.271,140.813,100.852,90.0886,0.0219451,0.805894,20.2907,483.774,1.01226,0.0,0.0
482,120.25,161.031,197.771,141.386,100.849,91.1309,0.0205963,0.761996,20.3573,483.774,0.908828,0.0,0.0
484,120.75,159.645,196.102,142.142,100.861,90.4456,0.0193268,0.710434,20.4113,483.764,0.977586,0.0,0.0
486,121.25,158.585,194.097,147.042,100.847,90.7913,0.0182984,0.668669,20.4633,483.764,0.9422,0.0,0.0
488,121.75,157.471,192.88,140.287,100.852,90.8863,0.0174654,0.628706,20.5128,483.764,0.933187,0.0,0.0
490,122.25,155.849,190.244,143.348,100.847,90.1619,0.0165774,0.590815,20.5563,483.754,1.0046,0.0,0.0
492,122.75,154.51,188.925,143.06,100.854,89.8808,0.0158581,0.560124,20.5946,483.774,1.03322,0.0,0.0
494,123.25,153.509,187.289,143.837,100.847,90.7022,0.0152102,0.525648,20.6256,483.764,0.95094,0.0,0.0
496,123.75,152.36,185.055,143.218,100.848,90.0537,0.0146266,0.497721,20.6588,483.774,1.01544,0.0,0.0
498,124.25,150.25,183.245,142.664,100.845,90.1262,0.0140874,0.475101,20.6856,483.774,1.0079,0.0,0.0
500,124.75,150.007,181.908,144.389,100.854,90.6665,0.0135909,0.451816,20.7132,483.764,0.955085,0.0,0.0
502,125.25,148.85,180.389,145.72,100.843,90.5487,0.0131403,0.428488,20.7355,483.764,0.965768,0.0,0.0
504,125.75,147.548,178.411,142.265,100.853,90.6522,0.0127319,0.406815,20.7593,483.754,0.956467,0.0,0.0
506,126.25,146.135,176.95,138.761,100.844,91.0786,0.0124011,0.38676,20.7786,483.754,0.913544,0.0,0.0
508,126.75,145.503,175.128,147.052,100.844,91.4266,0.0120883,0.368209,20.7943,483.754,0.87933,0.0,0.0
510,127.25,144.16,174.049,141.775,100.851,90.5219,0.0117947,0.351106,20.8096,483.774,0.969144,0.0,0.0
512,127.75,143.147,172.229,144.499,100.843,90.6394,0.0115568,0.335388,20.8221,483.764,0.95686,0.0,0.0
514,128.25,143.004,170.821,142.868,100.836,90.6309,0.0113289,0.320979,20.8338,483.764,0.957014,0.0,0.0
516,128.75,141.303,169.234,144.744,100.846,91.0828,0.0111442,0.309307,20.8447,483.744,0.913342,0.0,0.0
518,129.25,140.264,167.712,145.865,100.852,90.1576,0.0109837,0.296168,20.8548,483.744,1.00546,0.0,0.0
520,129.75,138.783,165.898,141.99,100.844,90.5526,0.0108437,0.285526,20.864,483.734,0.965494,0.0,0.0
522,130.25,138.582,165.536,147.99,100.849,90.2797,0.0107121,0.276906,20.8726,483.734,0.992998,0.0,0.0
524,130.75,137.828,163.687,139.452,100.854,90.3898,0.0106054,0.266117,20.8806,483.754,0.982541,0.0,0.0
526,131.25,136.618,162.128,144.209,100.845,90.3239,0.0104995,0.257378,20.8878,483.754,0.988283,0.0,0.0
528,131.75,135.377,160.992,144.451,100.846,90.0684,0.0104137,0.248919,20.8943,483.744,1.01379,0.0,0.0
530,132.25,134.389,159.612,141.313,100.835,90.8363,0.0103076,0.240826,20.9002,483.724,0.936669,0.0,0.0
532,132.75,133.429,158.397,141.195,100.848,91.5786,0.0102218,0.233169,20.9057,483.724,0.864799,0.0,0.0
534,133.25,132.986,157.147,140.75,100.833,90.2871,0.0101522,0.225975,20.9101,483.724,0.99085,0.0,0.0
536,133.75,132.122,155.885,143.867,100.841,90.2603,0.0100203,0.219193,20.9144,483.724,0.994234,0.0,0.0
538,134.25,131.291,155.097,143.918,100.829,91.4859,0.0099135,0.212841,20.9185,483.724,0.872242,0.0,0.0
540,134.75,130.462,153.279,143.474,100.828,90.0971,0.00976457,0.205863,20.9223,483.703,1.0093,0.0,0.0
542,135.25,129.32,152.115,144.952,100.829,90.6452,0.00964394,0.200212,20.9258,483.693,0.954977,0.0,0.0
544,135.75,128.621,150.611,144.15,100.836,91.6065,0.00948393,0.194605,20.9295,483.693,0.860976,0.0,0.0
546,136.25,127.989,149.627,145.218,100.824,90.8708,0.00935432,0.189138,20.9334,483.703,0.932247,0.0,0.0
548,136.75,126.986,148.793,145.556,100.827,90.6921,0.0091936,0.184709,20.937,483.693,0.950156,0.0,0.0
550,137.25,126.1,147.343,144.526,100.824,91.0654,0.00906342,0.179354,20.9404,483.703,0.913097,0.0,0.0
552,137.75,125.486,146.481,144.76,100.826,91.1251,0.00888293,0.175016,20.9436,483.693,0.907365,0.0,0.0
554,138.25,124.968,145.07,147.761,100.815,90.3979,0.00873673,0.170867,20.9466,483.673,0.978282,0.0,0.0
556,138.75,123.258,143.774,144.261,100.818,90.9948,0.00857481,0.166934,20.949,483.693,0.91954,0.0,0.0
558,139.25,123.252,142.597,144.552,100.804,90.451,0.0084045,0.162531,20.9519,483.693,0.971996,0.0,0.0
560,139.75,122.417,141.73,146.134,100.809,90.8638,0.00826655,0.158964,20.9542,483.673,0.931591,0.0,0.0
562,140.25,121.059,140.202,144.146,100.795,90.2987,0.008085,0.155413,20.9561,483.684,0.986352,0.0,0.0
564,140.75,119.955,138.733,141.45,100.802,90.7537,0.00787511,0.151942,20.958,483.684,0.941882,0.0,0.0
566,141.25,120.357,139.161,145.879,100.787,90.665,0.00765037,0.148501,20.9596,483.663,0.949314,0.0,0.0
568,141.75,119.114,137.788,145.441,100.8,90.4491,0.00741906,0.145147,20.9618,483.653,0.971861,0.0,0.0
570,142.25,118.699,136.665,146.655,100.777,90.1343,0.0072317,0.142431,20.9636,483.653,1.00106,0.0,0.0
572,142.75,118.322,135.776,140.343,100.792,90.7344,0.00699028,0.139125,20.9652,483.673,0.942925,0.0,0.0
574,143.25,117.303,135.027,140.798,100.77,90.1448,0.00675639,0.136448,20.9668,483.663,0.999397,0.0,0.0
576,143.75,116.895,133.876,144.811,100.778,90.1851,0.00653243,0.133707,20.968,483.663,0.996076,0.0,0.0
578,144.25,116.236,132.765,145.457,100.76,90.3863,0.00635102,0.130971,20.9695,483.643,0.974529,0.0,0.0
580,144.75,115.521,132.226,146.847,100.768,90.7723,0.00620408,0.128755,20.9712,483.643,0.93699,0.0,0.0
582,145.25,114.687,131.036,146.133,100.751,90.815,0.00598814,0.126189,20.9727,483.673,0.931324,0.0,0.0
584,145.75,114.132,130.233,149.238,100.765,90.8747,0.00581322,0.124111,20.9743,483.663,0.92663,0.0,0.0
586,146.25,112.79,129.244,146.712,100.736,91.1727,0.00560028,0.121615,20.976,483.663,0.894676,0.0,0.0
588,146.75,112.611,128.772,148.104,100.733,91.1964,0.00542779,0.119593,20.9778,483.643,0.892096,0.0,0.0
590,147.25,112.322,127.315,145.546,100.727,90.6875,0.00528808,0.117956,20.9793,483.643,0.941783,0.0,0.0
592,147.75,111.664,126.473,142.929,100.727,90.8022,0.00510944,0.115549,20.9807,483.653,0.930369,0.0,0.0
594,148.25,111.023,125.923,144.197,100.696,91.5073,0.00490583,0.1136,20.982,483.643,0.858227,0.0,0.0
596,148.75,110.522,124.611,145.202,100.718,91.2739,0.00481902,0.111663,20.9826,483.653,0.883128,0.0,0.0
598,149.25,110.173,124.266,142.116,100.684,90.3654,0.0044665,0.109771,20.984,483.633,0.96984,0.0,0.0
600,149.75,109.192,122.936,143.287,100.702,91.17,0.00437167,0.108239,20.9844,483.623,0.891888,0.0,0.0
602,150.25,108.687,122.981,148.349,100.665,90.8727,0.00416632,0.106205,20.9853,483.613,0.917945,0.0,0.0
604,150.75,108.095,121.473,144.164,100.654,90.146,0.00396111,0.104557,20.9862,483.613,0.988986,0.0,0.0
606,151.25,107.5,120.8,145.886,100.647,90.7487,0.00372684,0.102776,20.9872,483.603,0.928594,0.0,0.0
608,151.75,107.488,119.817,143.082,100.632,91.1068,0.00353709,0.101806,20.9882,483.623,0.891919,0.0,0.0
610,152.25,106.445,119.446,142.517,100.632,90.6549,0.00332803,0.099439,20.9895,483.653,0.936487,0.0,0.0
612,152.75,105.902,118.889,145.551,100.619,90.7274,0.0031587,0.098535,20.991,483.633,0.92819,0.0,0.0
614,153.25,105.364,117.797,144.655,100.597,91.2138,0.00297128,0.0969891,20.9921,483.623,0.878298,0.0,0.0
616,153.75,105.083,117.2,147.471,100.595,90.7646,0.00281948,0.0955144,20.9931,483.623,0.922327,0.0,0.0
618,154.25,104.53,116.17,145.093,100.58,91.0367,0.00269652,0.0941197,20.9939,483.633,0.894203,0.0,0.0
620,154.75,103.711,115.909,141.176,100.57,90.9786,0.0025367,0.0925817,20.9947,483.633,0.898986,0.0,0.0
622,155.25,103.549,115.113,148.168,100.554,90.4301,0.00240726,0.091336,20.9957,483.633,0.951802,0.0,0.0
624,155.75,103.358,114.735,146.043,100.533,90.9925,0.00226232,0.0900901,20.9966,483.643,0.894295,0.0,0.0
626,156.25,102.806,113.629,143.305,100.52,91.5324,0.00214491,0.0888677,20.9976,483.653,0.840135,0.0,0.0
628,156.75,102.308,112.903,144.724,100.512,90.5708,0.00202353,0.0878776,20.9984,483.653,0.934104,0.0,0.0
630,157.25,101.524,112.257,149.188,100.5,91.803,0.00192521,0.086626,20.9991,483.653,0.81184,0.0,0.0
632,157.75,101.184,111.334,143.822,100.477,90.9142,0.00183682,0.0856122,20.9996,483.643,0.897059,0.0,0.0
634,158.25,100.605,111.169,144.309,100.465,90.7867,0.00176522,0.0843139,21.0001,483.643,0.908592,0.0,0.0
636,158.75,100.086,110.4,146.293,100.441,91.2162,0.0017046,0.0832623,21.0004,483.623,0.864073,0.0,0.0
638,159.25,99.5618,109.633,145.108,100.422,90.9448,0.00165314,0.082226,21.0011,483.643,0.889151,0.0,0.0
640,159.75,99.35,109.049,144.175,100.401,91.529,0.00161146,0.0812205,21.0017,483.653,0.829791,0.0,0.0
642,160.25,98.7113,108.453,144.191,100.383,90.4417,0.00156645,0.0801258,21.0021,483.643,0.935442,0.0,0.0
644,160.75,97.7261,107.939,142.551,100.39,91.7336,0.00152998,0.0792392,21.0023,483.633,0.808772,0.0,0.0
646,161.25,97.6208,107.391,147.163,100.351,91.4336,0.00148992,0.0783583,21.0025,483.633,0.834687,0.0,0.0
648,161.75,97.0947,106.471,146.123,100.336,90.9855,0.001448,0.0774985,21.0027,483.633,0.877474,0.0,0.0
650,162.25,96.5052,106.338,145.525,100.322,90.4192,0.00141404,0.0768021,21.0028,483.633,0.932196,0.0,0.0
652,162.75,96.498,105.147,145.497,100.289,90.0239,0.00136904,0.0759581,21.0029,483.613,0.968543,0.0,0.0
654,163.25,95.7906,104.733,145.088,100.284,90.1762,0.0013326,0.0752745,21.003,483.623,0.952903,0.0,0.0
656,163.75,95.7599,104.648,146.533,100.252,91.1631,0.00128309,0.0745441,21.0033,483.643,0.852465,0.0,0.0
658,164.25,94.8629,103.849,145.622,100.228,91.2456,0.001243,0.0737935,21.0038,483.643,0.842153,0.0,0.0
660,164.75,95.1782,103.24,145.082,100.194,91.2464,0.0011918,0.0731855,21.0044,483.643,0.839079,0.0,0.0
662,165.25,93.9051,102.424,142.34,100.185,90.6359,0.00115032,0.0723857,21.0051,483.663,0.898449,0.0,0.0
664,165.75,93.8506,101.797,147.551,100.146,90.7754,0.00109802,0.0717378,21.0056,483.663,0.88114,0.0,0.0
666,166.25,93.5802,101.552,147.585,100.118,90.2805,0.00105565,0.0710034,21.0061,483.693,0.927658,0.0,0.0
668,166.75,93.3428,101.327,145.796,100.087,90.4564,0.00100263,0.0704087,21.0065,483.673,0.907483,0.0,0.0
670,167.25,92.5535,100.553,146.859,100.06,91.084,0.000959684,0.0698167,21.007,483.673,0.84302,0.0,0.0
672,167.75,92.3695,99.9454,146.93,100.04,90.7344,0.000924898,0.069238,21.0076,483.673,0.875684,0.0,0.0
674,168.25,91.6752,99.2845,146.004,100.059,90.7223,0.000896721,0.0685738,21.0082,483.673,0.878592,0.0,0.0
676,168.75,91.7183,98.2144,146.205,100.041,89.8432,0.000832784,0.0680359,21.0082,483.653,0.964319,0.0,0.0
678,169.25,91.2066,98.5867,143.984,100.045,90.115,0.000780995,0.0674049,21.008,483.653,0.9376,0.0,0.0
680,169.75,91.0681,97.9962,146.276,100.041,90.5406,0.00072331,0.0668938,21.0078,483.653,0.894972,0.0,0.0
682,170.25,90.4109,97.2442,142.383,100.061,90.7925,0.000662421,0.0664798,21.0078,483.663,0.871878,0.0,0.0
684,170.75,90.1952,97.3379,142.994,100.062,89.8851,0.000613101,0.0659903,21.0078,483.653,0.962082,0.0,0.0
686,171.25,90.2074,96.434,146.718,100.066,91.101,0.000552007,0.0654552,21.0078,483.663,0.841853,0.0,0.0
688,171.75,90.052,96.0659,146.472,100.054,91.4495,0.000502521,0.0650218,21.0078,483.653,0.806584,0.0,0.0
690,172.25,88.9139,95.0767,147.622,100.069,90.7727,0.000447519,0.0645538,21.0078,483.643,0.874564,0.0,0.0
692,172.75,88.1705,94.8576,143.273,100.069,90.9704,0.000402967,0.0640695,21.0078,483.653,0.854979,0.0,0.0
694,173.25,88.9927,94.7226,146.204,100.078,90.7983,0.000346998,0.0636773,21.0078,483.653,0.872769,0.0,0.0
696,173.75,87.9905,94.7024,147.707,100.087,91.5239,0.000301663,0.0632203,21.0078,483.663,0.802254,0.0,0.0
698,174.25,88.0427,93.9842,147.315,100.094,90.9774,0.000232655,0.0628501,21.0082,483.653,0.856598,0.0,0.0
700,174.75,87.5993,93.2265,146.29,100.095,91.2305,0.000176759,0.062411,21.0086,483.673,0.831751,0.0,0.0
702,175.25,87.4159,93.0277,144.331,100.097,89.5777,0.000113839,0.0620553,21.0089,483.663,0.995919,0.0,0.0
704,175.75,87.1821,92.365,145.307,100.094,91.7991,4.69944e-05,0.0615584,21.0091,483.653,0.775946,0.0,0.0
706,176.25,86.2161,91.719,146.236,100.104,89.994,-7.14958e-06,0.0611559,21.0093,483.653,0.954954,0.0,0.0
708,176.75,86.0163,91.2068,145.737,100.115,90.1995,-4.47978e-05,0.0606907,21.0095,483.653,0.935454,0.0,0.0
710,177.25,86.425,91.065,146.691,100.123,90.8603,-7.52928e-05,0.060314,21.0096,483.663,0.870744,0.0,0.0
712,177.75,85.974,90.531,143.722,100.128,91.1072,-7.8887e-05,0.0599429,21.0097,483.653,0.846805,0.0,0.0
714,178.25,85.7834,90.4298,145.538,100.135,91.2855,-8.17983e-05,0.059583,21.0098,483.653,0.829891,0.0,0.0
716,178.75,85.3549,89.5551,148.884,100.139,91.4235,-5.68407e-05,0.0592914,21.0101,483.643,0.816708,0.0,0.0
718,179.25,85.1645,89.7159,146.84,100.156,91.6762,-3.66251e-05,0.0589997,21.0105,483.653,0.793485,0.0,0.0
720,179.75,84.2143,89.4732,144.186,100.133,90.2716,1.20538e-05,0.0587634,21.0109,483.673,0.92997,0.0,0.0
722,180.25,84.4495,89.1822,143.396,100.158,90.2867,5.14837e-05,0.0584885,21.0112,483.653,0.9307,0.0,0.0
724,180.75,84.2255,88.3728,146.378,100.152,91.2437,8.93107e-05,0.0582658,21.0114,483.643,0.835542,0.0,0.0
726,181.25,84.0354,87.5593,146.504,100.172,91.0336,0.00012525,0.0579464,21.0116,483.653,0.858046,0.0,0.0
728,181.75,83.6033,87.7161,146.678,100.168,91.6708,0.000154362,0.0576877,21.0118,483.643,0.795077,0.0,0.0
730,182.25,83.6313,87.337,146.033,100.199,90.3068,0.000171399,0.0573977,21.0119,483.653,0.932319,0.0,0.0
732,182.75,82.9425,87.1192,153.949,100.178,90.9003,0.00017931,0.0570904,21.012,483.673,0.871669,0.0,0.0
734,183.25,82.965,86.4188,148.597,100.21,90.8158,0.000178523,0.0568414,21.0121,483.663,0.882899,0.0,0.0
736,183.75,82.6829,86.2687,150.823,100.198,91.696,0.000171411,0.0565564,21.0122,483.684,0.795355,0.0,0.0
738,184.25,81.7431,86.3799,146.484,100.212,91.3615,0.000163688,0.0563255,21.0122,483.684,0.829378,0.0,0.0
740,184.75,82.12,85.6863,141.709,100.223,91.3821,0.000155667,0.056069,21.0123,483.693,0.828348,0.0,0.0
742,185.25,81.862,85.4281,144.247,100.231,91.2018,0.000151786,0.0558613,21.0123,483.684,0.846752,0.0,0.0
744,185.75,81.7711,85.4928,146.042,100.226,90.6638,0.000150996,0.0556418,21.0123,483.673,0.899381,0.0,0.0
746,186.25,81.2482,84.8241,144.663,100.239,90.9747,0.000151664,0.055418,21.0124,483.693,0.869812,0.0,0.0
748,186.75,80.6536,84.552,146.948,100.236,90.9634,0.000153383,0.0552367,21.0128,483.684,0.870629,0.0,0.0
750,187.25,80.5305,84.0427,145.986,100.253,90.7836,0.000154775,0.0550343,21.0132,483.653,0.889952,0.0,0.0
752,187.75,80.7903,83.7961,146.939,100.258,91.5553,0.000155902,0.0548703,21.0135,483.673,0.814465,0.0,0.0
754,188.25,80.6108,83.9469,146.038,100.265,89.9808,0.000156816,0.0546403,21.0138,483.673,0.970712,0.0,0.0
756,188.75,80.2577,83.4526,147.234,100.271,90.9681,0.000157556,0.054454,21.014,483.673,0.873313,0.0,0.0
758,189.25,79.8819,82.5877,145.611,100.287,91.0979,0.000158155,0.0542475,21.0141,483.684,0.861944,0.0,0.0
760,189.75,79.4543,82.5812,147.236,100.28,90.9964,0.00015864,0.0540803,21.0143,483.663,0.871363,0.0,0.0
762,190.25,79.3366,82.4194,143.947,100.299,91.5918,0.000150336,0.0538893,21.0144,483.663,0.814587,0.0,0.0
764,190.75,79.2824,82.0775,148.526,100.29,90.8041,0.000143609,0.0537346,21.0144,483.653,0.891247,0.0,0.0
766,191.25,78.5792,81.4517,149.435,100.303,91.6096,0.000138161,0.053526,21.0145,483.673,0.813169,0.0,0.0
768,191.75,78.8022,81.7438,146.497,100.314,90.7165,0.000129171,0.053357,21.0144,483.663,0.902023,0.0,0.0
770,192.25,78.464,80.7878,148.748,100.316,91.791,0.000117771,0.0532201,21.014,483.653,0.796557,0.0,0.0
772,192.75,78.4047,80.6315,145.874,100.319,91.4526,0.000111806,0.0529843,21.0138,483.663,0.830013,0.0,0.0
774,193.25,77.9174,80.4727,147.997,100.327,91.1065,0.000109916,0.0527933,21.0135,483.663,0.86472,0.0,0.0
776,193.75,77.929,80.5945,145.777,100.33,91.9263,0.000111654,0.0526386,21.0134,483.653,0.784591,0.0,0.0
778,194.25,77.7338,80.4065,147.545,100.35,91.2704,0.000116004,0.0525133,21.0132,483.643,0.850601,0.0,0.0
780,194.75,77.3941,79.6192,146.282,100.326,90.9724,0.000119528,0.0524118,21.0131,483.633,0.877824,0.0,0.0
782,195.25,77.3894,79.4136,148.077,100.331,91.2774,0.000112444,0.0523077,21.013,483.623,0.848272,0.0,0.0
784,195.75,76.9599,79.2553,149.235,100.34,91.5832,0.000106706,0.0522036,21.0129,483.643,0.819037,0.0,0.0
786,196.25,76.9661,79.0474,149.216,100.342,90.7747,0.000101404,0.0520755,21.0129,483.653,0.898759,0.0,0.0
788,196.75,76.6083,78.7393,142.928,100.346,90.908,9.65216e-05,0.0519323,21.0128,483.653,0.885995,0.0,0.0
790,197.25,75.8997,78.1817,142.333,100.346,91.4255,9.45278e-05,0.0518163,21.0128,483.653,0.835085,0.0,0.0
792,197.75,76.2656,78.4552,141.751,100.359,91.6743,9.4678e-05,0.0516669,21.0128,483.653,0.8118,0.0,0.0
794,198.25,75.931,77.9549,142.666,100.339,92.4457,9.47997e-05,0.0515458,21.0127,483.643,0.73493,0.0,0.0
796,198.75,75.7426,77.4114,147.177,100.341,91.7107,8.62036e-05,0.0514331,21.0127,483.633,0.806702,0.0,0.0
798,199.25,75.4495,77.2269,145.587,100.339,91.8794,7.92408e-05,0.0513287,21.0127,483.633,0.789972,0.0,0.0
800,199.75,75.5001,77.1704,148.523,100.332,91.3336,6.11843e-05,0.0512442,21.0127,483.653,0.84286,0.0,0.0
802,200.25,75.119,76.7526,147.84,100.336,91.7809,4.65585e-05,0.0511202,21.0127,483.653,0.799368,0.0,0.0
804,200.75,74.8603,76.6641,148.243,100.335,91.4375,3.90165e-05,0.0510198,21.0127,483.643,0.832884,0.0,0.0
806,201.25,75.2085,76.5136,148.284,100.326,91.015,2.61197e-05,0.0508552,21.0127,483.643,0.873657,0.0,0.0
808,201.75,75.0281,76.1514,151.366,100.324,90.7832,1.56732e-05,0.0507219,21.0126,483.643,0.896346,0.0,0.0
810,202.25,73.8912,75.5086,148.465,100.316,91.3049,1.83857e-05,0.0505723,21.0126,483.613,0.844181,0.0,0.0
812,202.75,73.7507,75.2861,145.038,100.31,91.4534,2.05827e-05,0.0504512,21.0126,483.603,0.82906,0.0,0.0
814,203.25,74.2958,75.8106,146.709,100.3,91.4041,2.49769e-05,0.0503238,21.0126,483.613,0.83305,0.0,0.0
816,203.75,74.0781,75.3964,143.455,100.314,90.0576,3.08893e-05,0.0502557,21.0131,483.593,0.967375,0.0,0.0
818,204.25,74.125,75.084,145.081,100.292,90.2995,3.37175e-05,0.0501392,21.0134,483.583,0.941382,0.0,0.0
820,204.75,73.6251,74.8539,149.838,100.301,91.9735,3.42435e-05,0.0500033,21.0137,483.563,0.777384,0.0,0.0
822,205.25,73.5998,74.3271,144.094,100.287,92.6771,3.46696e-05,0.0498932,21.014,483.583,0.707832,0.0,0.0
824,205.75,73.054,74.3326,148.302,100.29,91.1518,3.12895e-05,0.0498186,21.0142,483.573,0.856968,0.0,0.0
826,206.25,73.1803,74.1026,147.601,100.279,90.2836,2.85516e-05,0.0497713,21.0143,483.583,0.941792,0.0,0.0
828,206.75,73.1767,74.1357,146.206,100.28,90.3029,2.50919e-05,0.049733,21.0144,483.583,0.939977,0.0,0.0
830,207.25,72.7309,73.9773,146.561,100.269,91.4778,2.22896e-05,0.0496326,21.0145,483.613,0.823013,0.0,0.0
832,207.75,72.4279,74.0453,143.812,100.262,91.4197,2.37449e-05,0.0495514,21.0146,483.613,0.828094,0.0,0.0
834,208.25,72.1698,73.579,150.097,100.25,91.3991,2.49237e-05,0.0494717,21.0147,483.593,0.82905,0.0,0.0
836,208.75,72.4575,73.0191,145.664,100.239,90.984,3.20885e-05,0.0494071,21.0147,483.613,0.868895,0.0,0.0
838,209.25,71.9319,72.9363,147.749,100.238,91.4069,3.78919e-05,0.0492994,21.0148,483.593,0.827193,0.0,0.0
840,209.75,72.0115,72.994,147.17,100.234,92.0201,4.45538e-05,0.0492121,21.0148,483.603,0.766858,0.0,0.0
842,210.25,71.7679,72.29,147.995,100.196,91.6824,5.1715e-05,0.0491137,21.0148,483.623,0.796499,0.0,0.0
844,210.75,71.468,72.452,149.154,100.21,91.684,5.75155e-05,0.0490339,21.0149,483.633,0.79759,0.0,0.0
846,211.25,71.048,72.0275,148.692,100.179,92.4484,5.84878e-05,0.0489555,21.0149,483.613,0.720343,0.0,0.0
848,211.75,71.6911,72.0797,145.55,100.184,91.3479,5.92754e-05,0.048892,21.0149,483.623,0.828187,0.0,0.0
850,212.25,70.8806,71.5479,147.233,100.154,91.7712,5.33775e-05,0.0488259,21.0149,483.643,0.784015,0.0,0.0
852,212.75,70.9707,71.811,150.556,100.147,92.0282,4.27179e-05,0.0487593,21.0149,483.613,0.758311,0.0,0.0
854,213.25,70.7202,71.1264,145.807,100.125,92.1177,3.08165e-05,0.0487053,21.0149,483.613,0.747614,0.0,0.0
856,213.75,71.0215,71.7709,147.563,100.114,91.0607,1.82359e-05,0.048647,21.0149,483.603,0.850179,0.0,0.0
858,214.25,70.4334,70.8147,148.313,100.084,91.5937,8.04552e-06,0.0485867,21.0149,483.623,0.79509,0.0,0.0
860,214.75,70.8032,70.9234,147.941,100.087,91.1968,-8.62236e-07,0.0485378,21.0149,483.623,0.834334,0.0,0.0
862,215.25,69.6301,70.9852,142.328,100.049,91.8573,-8.66575e-06,0.0484982,21.0151,483.623,0.766167,0.0,0.0
864,215.75,69.9488,70.1277,148.379,100.039,91.4728,-1.6947e-05,0.0484515,21.0153,483.603,0.802949,0.0,0.0
866,216.25,69.8166,70.1437,148.226,100.01,91.3592,-2.54192e-05,0.0484006,21.0154,483.623,0.811492,0.0,0.0
868,216.75,70.3704,70.432,144.141,99.997,91.4038,-3.22816e-05,0.0483593,21.0155,483.633,0.805944,0.0,0.0
870,217.25,69.4147,70.0028,152.141,99.9599,92.2414,-3.78402e-05,0.0483259,21.0156,483.603,0.720787,0.0,0.0
872,217.75,69.5345,69.8161,146.881,99.9415,91.2355,-4.23427e-05,0.0482018,21.0157,483.623,0.817483,0.0,0.0
874,218.25,69.1143,69.7772,144.379,99.9121,90.9623,-4.53361e-05,0.0481013,21.0157,483.633,0.841749,0.0,0.0
876,218.75,69.0666,69.7853,147.21,99.8957,91.5921,-4.71725e-05,0.0480338,21.0158,483.623,0.778386,0.0,0.0
878,219.25,69.2277,69.7352,149.656,99.861,91.5987,-4.866e-05,0.0479791,21.0158,483.623,0.774624,0.0,0.0
880,219.75,69.2731,69.2012,147.339,99.839,91.4747,-4.36572e-05,0.0479493,21.0158,483.643,0.784796,0.0,0.0
882,220.25,68.5459,68.9317,147.271,99.8014,91.5976,-4.15653e-05,0.0479384,21.0159,483.633,0.76938,0.0,0.0
884,220.75,68.6272,69.1333,145.331,99.7814,90.9227,-4.16352e-05,0.0478857,21.0159,483.623,0.833906,0.0,0.0
886,221.25,69.0578,68.9698,145.71,99.7528,90.6906,-4.16919e-05,0.0478037,21.0159,483.623,0.854269,0.0,0.0
888,221.75,68.8419,68.5133,148.434,99.716,90.2409,-5.53642e-05,0.0477373,21.0159,483.623,0.895543,0.0,0.0
890,222.25,67.8023,68.3158,146.972,99.6793,90.7336,-6.64388e-05,0.0476696,21.0159,483.623,0.843401,0.0,0.0
892,222.75,68.1416,68.366,144.097,99.6646,91.5449,-8.06372e-05,0.0476148,21.0159,483.633,0.762237,0.0,0.0
894,223.25,68.0418,68.3454,149.909,99.62,91.334,-9.68431e-05,0.0475704,21.0158,483.623,0.778913,0.0,0.0
896,223.75,68.1072,68.0339,143.84,99.609,91.7518,-0.00010997,0.0475345,21.0157,483.623,0.736979,0.0,0.0
898,224.25,67.9535,68.3188,145.161,99.5567,91.0805,-0.000123216,0.0475053,21.0155,483.613,0.79814,0.0,0.0
900,224.75,67.8871,67.8372,146.863,99.54,91.3545,-0.000136298,0.0474818,21.0155,483.633,0.769685,0.0,0.0
902,225.25,67.1938,67.8291,147.097,99.5089,91.3352,-0.000145587,0.0474618,21.0154,483.623,0.76879,0.0,0.0
904,225.75,67.489,67.7868,145.891,99.4775,91.2906,-0.000151936,0.0474457,21.0153,483.623,0.770333,0.0,0.0
906,226.25,67.311,67.5018,150.89,99.4317,90.3336,-0.000158385,0.0474326,21.0153,483.613,0.860731,0.0,0.0
908,226.75,67.5819,67.4161,148.609,99.3991,90.1095,-0.000164784,0.0474082,21.0153,483.603,0.880056,0.0,0.0
910,227.25,67.2281,66.6002,143.577,99.3643,91.2948,-0.000171275,0.0473884,21.0152,483.613,0.759706,0.0,0.0
912,227.75,67.3782,67.0877,150.86,99.3321,90.47,-0.000177709,0.0473724,21.0152,483.613,0.838199,0.0,0.0
914,228.25,66.8434,66.6497,144.469,99.3006,90.644,,0.0473455,,483.603,0.818122,0.0,0.0
916,228.75,66.8943,66.6698,150.687,99.2777,91.4445,,0.0473019,,483.603,0.7372,0.0,0.0
918,229.25,67.0813,66.556,145.805,99.2438,92.0123,,0.0472469,,483.613,0.678609,0.0,0.0
920,229.75,66.6396,66.509,150.01,99.2152,90.8638,,0.0471732,,483.623,0.788685,0.0,0.0
922,230.25,65.8976,65.88,148.603,99.1899,90.3483,,0.0470872,,483.613,0.83743,0.0,0.0
924,230.75,66.0009,65.7427,145.185,99.1609,90.763,,0.0470103,,483.633,0.793727,0.0,0.0
926,231.25,66.4989,66.0117,147.774,99.134,91.1867,,,,483.613,0.749518,0.0,0.0
928,231.75,66.5731,66.0507,148.609,99.0956,91.1084,,,,483.623,0.753749,0.0,0.0
930,232.25,66.3056,65.8242,149.402,99.0711,91.1654,,,,483.603,0.745922,0.0,0.0
932,232.75,66.2037,65.828,147.863,99.0609,91.8484,,,,483.583,0.678052,0.0,0.0
934,233.25,66.1717,65.8533,146.125,99.0192,90.8227,,,,483.603,0.775,0.0,0.0
936,233.75,66.2621,65.4681,148.69,99.0061,91.0588,,,,483.613,0.750534,0.0,0.0
938,234.25,65.1484,65.257,145.797,98.9783,90.8987,,,,483.633,0.7638,0.0,0.0
940,234.75,65.1876,64.5932,149.104,98.9542,90.0533,,,,483.663,0.845424,0.0,0.0
942,235.25,65.4101,65.3793,154.184,98.9359,90.4851,,,,483.633,0.800854,0.0,0.0
944,235.75,65.3413,65.061,145.933,98.9212,90.2987,,,,483.623,0.81802,0.0,0.0
946,236.25,65.471,64.7225,149.26,98.8983,90.6964,,,,483.613,0.776529,0.0,0.0
948,236.75,65.4769,64.7547,143.953,98.8762,90.7661,,,,483.603,0.767631,0.0,0.0
950,237.25,65.105,64.4973,149.455,98.8832,90.8475,,,,483.593,0.760221,0.0,0.0
952,237.75,64.8862,64.8377,146.23,98.8497,89.9526,,,,483.593,0.845984,0.0,0.0
954,238.25,64.226,63.8443,151.326,98.8448,89.9801,,,,483.583,0.842796,0.0,0.0
956,238.75,64.3694,64.0421,149.43,98.835,91.1786,,,,483.593,0.723226,0.0,0.0
957,239,64.8359,64.8828,150.082,98.8223,91.4487,,,,483.593,0.695539,0.0,0.0