File: 01_Data/HIPS/Cone/HIPS_Cone_HF50Scan_220218_R1.csv
Names,Time,Stack TC,Smoke TC,Exh Press,Smoke Comp,Smoke Meas,CO Meter,CO2 Meter,O2 Meter,Sample Mass,Ext Coeff,Start Test,Flame Verif
Chan Gain,,500,500,1,1,1,1,1,1,1,1,1.0,1.0
Offset,,0,0,0.134285,0,0,0,0,0,0,0,0.0,0.0
Gain,,1,1,25.011,13.3843,12.7012,1,1,1,1.00088,1.02252,1.0,1.0
Units,sec,C,C,Pa,%,%,%,%,%,g,/m,,
Baseline,,27.4813,28.8729,150.695,100.242,96.3853,1.18734e-05,0.0472266,21.0154,-0.0312357,0.351909,,
3,0.5,25.2326,25.8457,153.51,100.556,97.0807,5.85529e-05,0.0483167,21.0143,898.337,0.315497,0.0,0.0
6,1.25,24.6801,25.0577,151.716,100.605,97.0233,4.4397e-05,0.0481236,21.0146,898.256,0.32517,0.0,0.0
9,2,24.3544,25.2139,151.773,100.636,97.107,5.01946e-06,0.0479551,21.0149,898.337,0.3202,0.0,0.0
12,2.75,24.2392,25.2876,149.759,100.673,97.2249,-2.36868e-05,0.0478278,21.0151,898.246,0.312635,0.0,0.0
15,3.5,24.6829,25.1904,155.107,100.731,97.2067,-8.71152e-05,0.0477474,21.0148,898.337,0.319482,0.0,0.0
18,4.25,24.3465,24.8466,152.906,100.759,97.4365,-0.000135838,0.0477064,21.0144,898.266,0.300771,0.0,0.0
21,5,24.4187,25.2781,150.629,100.79,97.671,-0.000172416,0.0476589,21.0141,898.326,0.281936,0.0,0.0
24,5.75,24.7637,25.5353,150.452,100.816,97.4055,-0.000177829,0.0476441,21.0139,898.297,0.308679,0.0,0.0
27,6.5,24.9953,25.1056,152.645,100.851,97.49,-0.000159427,0.0476041,21.0138,898.307,0.304026,0.0,0.0
30,7.25,24.3836,25.3049,148.509,100.878,97.4757,-0.000136485,0.0475251,21.0136,898.297,0.30778,0.0,0.0
33,8,24.8085,25.7823,151.333,100.901,97.7652,-0.00010205,0.0474082,21.0136,898.286,0.283173,0.0,0.0
36,8.75,24.7073,25.5907,151.821,100.907,97.5997,-7.44635e-05,0.047323,21.0135,898.307,0.298879,0.0,0.0
39,9.5,24.7334,25.6756,154.486,100.932,97.4896,-5.32942e-05,0.0472609,21.0135,898.266,0.311288,0.0,0.0
42,10.25,24.8637,25.6699,151.703,100.946,96.8326,-4.67169e-05,0.0472017,21.0134,898.276,0.373173,0.0,0.0
45,11,25.0375,25.5191,150.271,100.947,97.2005,-4.51892e-05,0.0471089,21.0134,898.307,0.3392,0.0,0.0
48,11.75,24.7359,25.6902,153.275,100.954,97.0338,-4.96625e-05,0.0469665,21.0134,898.297,0.355211,0.0,0.0
51,12.5,24.8218,26.0039,152.344,100.96,97.6195,-5.4884e-05,0.0467934,21.0134,898.276,0.30178,0.0,0.0
54,13.25,24.5077,25.9116,150.197,100.98,97.2869,-6.91964e-05,0.0466377,21.0135,898.297,0.334169,0.0,0.0
57,14,24.7694,26.4026,153.623,100.986,97.209,-8.14292e-05,0.0466032,21.0141,898.297,0.341935,0.0,0.0
60,14.75,24.9233,26.1913,153.745,100.963,97.1667,-0.000105495,0.0465781,21.0147,898.297,0.343765,0.0,0.0
63,15.5,24.853,26.2613,149.58,100.967,97.0931,-0.000127274,0.0465203,21.0152,898.297,0.350893,0.0,0.0
66,16.25,25.3451,26.0983,154.306,100.939,97.1264,-0.000144921,0.0464075,21.0155,898.256,0.34531,0.0,0.0
69,17,25.291,26.533,151.913,100.931,97.1179,-0.000157786,0.0463432,21.0157,898.246,0.345408,0.0,0.0
72,17.75,25.2329,25.9348,152.221,100.931,96.1566,-0.000170706,0.0462503,21.0154,898.236,0.434629,0.0,0.0
75,18.5,25.0793,27.0106,149.458,100.911,96.4919,-0.000185092,0.0462023,21.0153,898.236,0.40163,0.0,0.0
78,19.25,24.5613,26.4574,148.248,100.903,96.721,-0.000197697,0.0461673,21.0156,898.297,0.379708,0.0,0.0
81,20,25.2914,26.5997,157.291,100.881,96.5938,-0.000221052,0.0461812,21.0151,898.286,0.389509,0.0,0.0
84,20.75,25.2558,26.2504,151.499,100.851,96.8047,-0.000245528,0.0461769,21.0148,898.206,0.367298,0.0,0.0
87,21.5,25.0982,26.8636,152.479,100.823,97.0865,-0.000269031,0.0461487,21.0146,898.256,0.338756,0.0,0.0
90,22.25,25.5569,26.6145,151.625,100.8,96.6485,-0.000281995,0.0461836,21.0144,898.236,0.377241,0.0,0.0
93,23,25.4797,26.4138,154.32,100.774,96.1822,-0.000282505,0.0463202,21.0143,898.206,0.418258,0.0,0.0
96,23.75,25.4507,26.4119,151.679,100.723,95.8958,-0.000270462,0.0465693,21.0142,898.997,0.440537,0.0,0.0
99,24.5,25.4083,26.4888,152.291,100.679,96.3373,-0.000240451,0.0468696,21.0135,899.648,0.395408,0.0,0.0
102,25.25,25.2006,26.483,151.266,100.638,96.2454,-0.000197321,0.0471716,21.013,898.847,0.400326,0.0,0.0
105,26,24.965,26.7005,148.351,100.599,95.8586,-0.000165879,0.0474782,21.0127,897.836,0.432954,0.0,0.0
108,26.75,25.5796,26.6931,148.461,100.548,95.2702,-0.000121664,0.0477891,21.0124,897.626,0.483662,0.0,0.0
111,27.5,25.8747,26.9049,150.145,100.492,95.9004,-7.57717e-05,0.0480574,21.0121,897.356,0.419454,0.0,0.0
114,28.25,25.6264,26.7971,149.106,100.449,95.4585,-2.66846e-05,0.0482706,21.0118,898.236,0.457086,0.0,0.0
117,29,25.4494,26.9685,152.028,100.394,95.4531,2.5871e-05,0.0483865,21.0115,898.216,0.452634,0.0,0.0
120,29.75,25.4174,27.0814,149.882,100.336,95.3012,8.01383e-05,0.0484852,21.0109,898.206,0.461813,0.0,0.0
123,30.5,25.3861,27.0998,152.04,100.264,95.2826,0.000119699,0.0485814,21.0102,898.186,0.457098,0.0,0.0
126,31.25,25.6496,26.7509,153.614,100.222,95.2085,0.000159178,0.0487899,21.0098,898.176,0.46027,0.0,0.0
129,32,25.5671,26.8162,145,100.196,94.5783,0.000191688,0.0490003,21.0092,898.166,0.517539,0.0,0.0
132,32.75,25.7237,26.7058,151.645,100.191,94.9337,0.000224833,0.0492535,21.0084,898.266,0.483419,0.0,0.0
135,33.5,25.7773,27.2899,148.409,100.198,94.0197,0.000262427,0.0497546,21.0071,898.186,0.570849,0.0,0.0
138,34.25,25.78,27.3243,148.816,100.208,94.3457,0.000364403,0.0503976,21.0062,898.196,0.540719,0.0,0.0
141,35,25.6814,26.9621,147.508,100.226,94.0732,0.000438744,0.051341,21.0037,898.186,0.56827,0.0,0.0
144,35.75,25.5498,27.2134,150.222,100.242,94.7535,0.000887057,0.0555238,20.9979,898.156,0.505034,0.0,0.0
147,36.5,25.5658,26.833,150.722,100.236,94.493,0.00144706,0.0646717,20.9921,898.146,0.529248,0.0,1.0
150,37.25,25.8834,27.2407,147.123,100.248,90.3781,0.00225406,0.0739405,20.9707,898.126,0.929625,0.0,1.0
153,38,26.0464,27.5059,142.324,100.266,77.9618,0.0032937,0.0910244,20.9552,898.076,2.25681,0.0,1.0
156,38.75,26.0976,28.1384,140.587,100.275,70.1023,0.0048234,0.121138,20.9081,898.036,3.21071,0.0,1.0
159,39.5,26.741,28.0249,136.936,100.286,61.3915,0.0069112,0.165743,20.8357,897.966,4.4018,0.0,1.0
162,40.25,26.6682,27.9909,132.61,100.301,60.1756,0.00879681,0.210357,20.7504,897.956,4.58262,0.0,1.0
165,41,27.2091,29.3485,121.26,100.321,51.4265,0.0107932,0.263565,20.6603,897.806,5.99356,0.0,1.0
168,41.75,27.4915,29.8323,129.7,100.33,51.1156,0.013058,0.314227,20.5587,897.716,6.04875,0.0,0.0
171,42.5,28.0205,30.8903,128.116,100.343,49.697,0.0152926,0.371463,20.4499,897.646,6.30238,0.0,0.0
174,43.25,29.2025,32.0451,128.348,100.354,49.785,0.0174053,0.432383,20.3623,897.526,6.2875,0.0,0.0
177,44,29.3453,32.7485,124.669,100.376,50.752,0.0193472,0.488335,20.2751,897.386,6.1169,0.0,0.0
180,44.75,30.3691,33.9811,124.303,100.378,46.7535,0.0212941,0.539563,20.2033,897.376,6.85319,0.0,0.0
183,45.5,32.2266,36.2841,119.868,100.395,46.0135,0.0231525,0.586346,20.1371,897.256,6.99781,0.0,0.0
186,46.25,33.0126,37.4835,121.637,100.402,45.1522,0.0248706,0.632792,20.0711,897.095,7.16788,0.0,0.0
189,47,33.9971,38.8758,122.953,100.423,44.3859,0.0265651,0.671501,20.0169,897.055,7.32334,0.0,0.0
192,47.75,35.1474,40.1002,117.499,100.441,44.4639,0.0282123,0.708015,19.9671,896.905,7.30915,0.0,0.0
195,48.5,35.6102,40.8974,114.061,100.447,42.3498,0.0297952,0.74325,19.9166,896.795,7.74665,0.0,0.0
198,49.25,37.1089,43.1586,116.218,100.459,41.013,0.0314409,0.780013,19.8672,896.675,8.03542,0.0,0.0
201,50,38.2396,44.8226,118.311,100.466,38.7637,0.0326204,0.80997,19.8341,896.565,8.54196,0.0,0.0
204,50.75,39.2998,45.7807,114.717,100.472,40.3149,0.0342288,0.845013,19.7757,896.475,8.1906,0.0,0.0
207,51.5,39.7838,47.0546,124.995,100.494,39.3602,0.035651,0.875391,19.7332,896.285,8.4075,0.0,0.0
210,52.25,41.181,48.743,118.673,100.492,37,0.0371144,0.9058,19.6807,896.155,8.96192,0.0,0.0
213,53,42.5865,50.8219,117.604,100.506,39.999,0.0386324,0.930503,19.6286,896.014,8.26416,0.0,0.0
216,53.75,42.9032,51.5545,112.903,100.516,37.0299,0.040059,0.964274,19.5786,895.934,8.95683,0.0,0.0
219,54.5,44.6336,53.849,109.138,100.52,39.2106,0.0414018,0.997838,19.5313,895.764,8.44399,0.0,0.0
222,55.25,45.8663,55.0573,115.405,100.52,35.8194,0.0426652,1.02956,19.483,895.594,9.25531,0.0,0.0
225,56,46.3009,56.4676,116.25,100.522,34.0779,0.0439767,1.0584,19.4433,895.514,9.70254,0.0,0.0
228,56.75,48.4488,58.9042,114.445,100.533,33.3588,0.0450989,1.08389,19.4069,895.384,9.89476,0.0,0.0
231,57.5,48.3799,59.1579,104.213,100.528,34.5872,0.0462009,1.11014,19.3803,895.174,9.56999,0.0,0.0
234,58.25,50.4555,61.6683,105.207,100.516,35.0384,0.0470042,1.13205,19.3508,895.034,9.45272,0.0,0.0
237,59,51.7639,63.2312,113.626,100.51,33.7705,0.0479674,1.15274,19.3293,894.893,9.78272,0.0,0.0
240,59.75,52.7141,65.037,106.842,100.525,33.812,0.0493152,1.17798,19.3037,894.783,9.7731,0.0,0.0
243,60.5,53.6095,66.0483,108.286,100.521,32.0437,0.0508208,1.19638,19.2713,894.593,10.2545,0.0,0.0
246,61.25,55.1981,68.2955,98.631,100.51,34.6635,0.0522736,1.21718,19.2343,894.413,9.54861,0.0,0.0
249,62,56.506,70.1259,107.363,100.484,31.7557,0.0534842,1.24499,19.1946,894.273,10.3322,0.0,0.0
252,62.75,57.723,71.6095,104.337,100.481,33.048,0.0548544,1.26935,19.1442,894.153,9.97418,0.0,0.0
255,63.5,58.909,73.7021,112.921,100.481,31.6084,0.0563605,1.2941,19.0951,893.943,10.3736,0.0,0.0
258,64.25,60.0276,75.1311,104.671,100.461,30.8522,0.0577825,1.32205,19.0488,893.783,10.589,0.0,0.0
261,65,61.3033,76.9565,105.636,100.433,31.503,0.0589574,1.34921,19.0064,893.652,10.3993,0.0,0.0
264,65.75,62.7173,78.51,97.6784,100.443,30.7153,0.0600849,1.375,18.9714,893.472,10.6273,0.0,0.0
267,66.5,63.8116,80.4624,100.908,100.44,29.6153,0.061543,1.3991,18.9392,893.362,10.9542,0.0,0.0
270,67.25,65.1673,82.1663,112.363,100.418,30.4351,0.0629013,1.42384,18.9049,893.172,10.7073,0.0,0.0
273,68,66.4911,84.014,103.995,100.402,30.3401,0.0642703,1.44579,18.8746,892.952,10.7339,0.0,0.0
276,68.75,67.7828,85.4974,104.52,100.397,31.3518,0.0655678,1.46851,18.8433,892.782,10.4393,0.0,0.0
279,69.5,68.7453,87.3717,107.286,100.382,26.8199,0.06675,1.49183,18.8108,892.652,11.8383,0.0,0.0
282,70.25,70.2059,89.454,106.026,100.364,30.087,0.0679398,1.51319,18.7813,892.381,10.8056,0.0,0.0
285,71,71.3764,90.8541,101.685,100.352,29.3122,0.069094,1.5313,18.757,892.251,11.0385,0.0,0.0
288,71.75,72.8194,92.7685,107.894,100.331,27.4044,0.0701867,1.55015,18.7273,892.081,11.6404,0.0,0.0
291,72.5,73.374,94.1632,101.643,100.293,25.183,0.0714198,1.56798,18.6981,891.921,12.3952,0.0,0.0
294,73.25,75.2001,95.8402,110.478,100.286,26.1776,0.0725047,1.58796,18.6641,891.711,12.0471,0.0,0.0
297,74,76.3705,97.5715,93.2881,100.26,27.9443,0.0738473,1.61338,18.6287,891.5,11.459,0.0,0.0
300,74.75,77.748,99.4267,94.9016,100.232,24.8702,0.0753168,1.6375,18.5909,891.31,12.5018,0.0,0.0
303,75.5,78.81,100.907,102.781,100.215,27.6583,0.0768415,1.66466,18.5506,891.19,11.5473,0.0,0.0
306,76.25,79.6976,102.249,100.507,100.186,23.4159,0.0783706,1.69646,18.4934,890.95,13.0382,0.0,0.0
309,77,81.1774,104.064,87.8871,100.169,26.4009,0.0801457,1.73037,18.4345,890.76,11.9605,0.0,0.0
312,77.75,82.5858,106.006,100.306,100.108,25.4904,0.0821062,1.76471,18.3745,890.6,12.2698,0.0,0.0
315,78.5,83.7277,107.876,98.689,100.123,25.421,0.0835353,1.80738,18.3145,890.32,12.2956,0.0,0.0
318,79.25,84.631,109.189,95.7137,100.1,24.345,0.0857208,1.84891,18.2575,890.159,12.6815,0.0,0.0
321,80,86.6716,111.691,98.6333,100.075,25.6543,0.087697,1.88747,18.2102,889.889,12.2093,0.0,0.0
324,80.75,88.2387,113.999,90.525,100.029,22.5193,0.0897926,1.92214,18.1714,889.729,13.3743,0.0,0.0
327,81.5,89.2515,115.517,83.067,100.014,22.0476,0.0913203,1.95519,18.1355,889.469,13.5628,0.0,0.0
330,82.25,90.6286,117.923,104.489,99.986,21.4941,0.0937328,1.9826,18.0953,889.259,13.7884,0.0,0.0
333,83,92.0428,119.317,85.5637,99.957,20.108,0.0960316,2.01811,18.057,889.008,14.3837,0.0,0.0
336,83.75,93.168,121.022,95.0527,99.9239,21.7899,0.0982764,2.04399,18.0135,888.878,13.6602,0.0,0.0
339,84.5,95.0321,123.484,90.4365,99.9125,19.3712,0.100492,2.06792,17.9748,888.528,14.7145,0.0,0.0
342,85.25,96.8428,124.955,89.7312,99.868,21.1898,0.102976,2.09033,17.9343,888.408,13.9056,0.0,0.0
345,86,98.0368,127.204,91.1776,99.8484,20.3906,0.104786,2.11145,17.8994,888.158,14.2487,0.0,0.0
348,86.75,99.1423,129.057,93.7353,99.8124,22.35,0.107445,2.14012,17.8576,887.907,13.4226,0.0,0.0
351,87.5,100.256,130.548,89.1481,99.7769,21.1449,0.110087,2.16963,17.8145,887.627,13.9165,0.0,0.0
354,88.25,101.254,132.942,86.0018,99.7728,18.2952,0.11261,2.19481,17.7735,887.457,15.2146,0.0,0.0
357,89,103.094,134.468,79.9315,99.7373,20.7228,0.114958,2.2207,17.7354,887.267,14.0938,0.0,0.0
360,89.75,104.532,136.423,83.5761,99.7005,18.118,0.117177,2.24266,17.7016,887.047,15.2953,0.0,0.0
363,90.5,105.935,138.093,77.3532,99.6515,19.1545,0.119189,2.26394,17.6666,886.626,14.7919,0.0,0.0
366,91.25,107.069,139.897,76.4273,99.6315,18.775,0.120962,2.28787,17.6284,886.436,14.9696,0.0,0.0
369,92,108.48,141.709,89.0626,99.5963,20.3123,0.122604,2.30865,17.5922,886.216,14.2606,0.0,0.0
372,92.75,109.799,143.376,82.3381,99.569,20.3092,0.123802,2.32947,17.5622,886.016,14.2595,0.0,0.0
375,93.5,110.98,144.928,94.2452,99.5273,19.1281,0.125079,2.35423,17.5283,885.806,14.7931,0.0,0.0
378,94.25,112.362,146.823,92.6606,99.5151,17.5971,0.126153,2.37877,17.4951,885.625,15.5403,0.0,0.0
381,95,113.627,148.393,90.4846,99.4901,17.8789,0.127099,2.40079,17.4648,885.275,15.3956,0.0,0.0
384,95.75,114.685,150.051,95.5313,99.4436,17.5723,0.12796,2.42089,17.4365,885.105,15.5465,0.0,0.0
387,96.5,116.254,151.773,97.9883,99.4166,18.025,0.128998,2.43727,17.4034,884.775,15.3159,0.0,0.0
390,97.25,117.276,153.416,94.1765,99.4011,19.6235,0.130095,2.4587,17.3665,884.564,14.5524,0.0,0.0
393,98,118.926,155.224,76.6029,99.3656,17.242,0.131239,2.48267,17.3269,884.214,15.7097,0.0,0.0
396,98.75,119.567,156.732,100.738,99.3341,18.1417,0.132415,2.50812,17.2841,884.004,15.2506,0.0,0.0
399,99.5,120.624,158.028,83.1899,99.3039,18.4219,0.133555,2.5342,17.2529,883.784,15.1104,0.0,0.0
402,100.25,122.347,160.333,98.4302,99.2728,17.0695,0.134871,2.56334,17.2156,883.494,15.7915,0.0,0.0
405,101,123.422,161.971,101.467,99.2549,16.4676,0.136381,2.59078,17.1838,883.353,16.1119,0.0,0.0
408,101.75,124.776,163.849,92.0203,99.2345,18.6401,0.13797,2.61631,17.1526,883.063,14.9985,0.0,0.0
411,102.5,125.751,165.482,86.2636,99.1985,19.8941,0.13956,2.63989,17.1221,882.733,14.4113,0.0,0.0
414,103.25,126.914,167.066,89.132,99.176,16.8633,0.141163,2.66,17.0998,882.533,15.8917,0.0,0.0
417,104,128.596,168.911,86.0942,99.1785,16.6405,0.14252,2.67968,17.0765,882.232,16.0113,0.0,0.0
420,104.75,129.208,170.192,82.1068,99.1458,15.8381,0.143997,2.70083,17.0497,882.022,16.4516,0.0,0.0
423,105.5,130.532,172.125,80.4467,99.1307,15.5614,0.145389,2.7224,17.0185,881.692,16.6083,0.0,0.0
426,106.25,131.858,173.784,91.7936,99.1017,17.411,0.146585,2.74371,16.9892,881.472,15.5983,0.0,0.0
429,107,133.159,175.728,87.2132,99.0894,16.1021,0.147585,2.75924,16.965,881.202,16.2982,0.0,0.0
432,107.75,134.09,176.87,82.8022,99.0666,17.0161,0.148533,2.7737,16.9467,880.901,15.801,0.0,0.0
435,108.5,135.251,178.361,88.4687,99.0555,15.0214,0.149531,2.78373,16.9329,880.701,16.9183,0.0,0.0
438,109.25,136.474,179.919,87.0803,99.0319,17.6979,0.150639,2.79105,16.9192,880.451,15.4454,0.0,0.0
441,110,137.339,181.521,80.4971,99.0233,15.6284,0.151837,2.80165,16.9032,880.141,16.56,0.0,0.0
444,110.75,138.531,182.588,75.1236,99.011,15.6792,0.153102,2.81532,16.8757,879.86,16.5298,0.0,0.0
447,111.5,139.269,183.657,81.0833,99.002,17.4455,0.15447,2.83116,16.8503,879.61,15.5715,0.0,0.0
450,112.25,140.447,185.372,97.7967,98.98,15.8463,0.155656,2.84845,16.8226,879.36,16.432,0.0,0.0
453,113,140.973,186.431,84.6119,98.9943,16.3486,0.156704,2.87138,16.7923,879.1,16.1533,0.0,0.0
456,113.75,142.772,188.744,87.7146,98.9685,16.9428,0.15739,2.88976,16.7702,878.819,15.8308,0.0,0.0
459,114.5,143.848,190.015,85.063,98.9469,16.4691,0.157755,2.906,16.7522,878.459,16.0831,0.0,0.0
462,115.25,144.837,191.602,85.4798,98.9485,16.4912,0.15767,2.91658,16.7391,878.229,16.0713,0.0,0.0
465,116,146.353,193.597,83.5349,98.9322,16.5374,0.157367,2.92375,16.7295,877.909,16.0447,0.0,0.0
468,116.75,147.572,194.483,79.6857,98.9342,16.3897,0.157026,2.9313,16.7225,877.758,16.1254,0.0,0.0
471,117.5,148.364,196.011,75.1198,98.9314,17.7564,0.156749,2.93726,16.7168,877.448,15.4067,0.0,0.0
474,118.25,149.261,197.148,76.3891,98.924,18.0103,0.1568,2.94175,16.7113,877.248,15.2787,0.0,0.0
477,119,149.337,197.328,88.6901,98.9077,15.8017,0.157138,2.94494,16.704,876.998,16.4507,0.0,0.0
480,119.75,150.804,199.463,90.1296,98.9208,14.0772,0.157513,2.95063,16.6938,876.718,17.4884,0.0,0.0
483,120.5,151.741,200.539,80.7467,98.9146,15.6404,0.157932,2.95779,16.6864,876.467,16.5433,0.0,0.0
486,121.25,153.211,202.186,81.9923,98.9052,18.8874,0.158484,2.96429,16.681,876.057,14.8505,0.0,0.0
489,122,153.513,202.944,76.1571,98.9007,16.685,0.158823,2.97091,16.677,875.817,15.9621,0.0,0.0
492,122.75,154.549,204.787,92.937,98.9036,16.4447,0.158856,2.97394,16.6742,875.747,16.0925,0.0,0.0
495,123.5,155.824,205.334,82.7953,98.8958,16.5901,0.158558,2.97307,16.6761,875.306,16.0129,0.0,0.0
498,124.25,156.488,207.089,88.6832,98.904,18.9812,0.157695,2.96736,16.685,875.156,14.8059,0.0,0.0
501,125,157.103,207.842,84.2463,98.8922,17.1692,0.156628,2.96102,16.6954,874.846,15.7048,0.0,0.0
504,125.75,157.751,209.172,80.049,98.9199,17.6405,0.155458,2.95618,16.7042,874.556,15.4644,0.0,0.0
507,126.5,159.114,209.78,76.8517,98.9114,20.2014,0.154255,2.94921,16.7146,874.265,14.2478,0.0,0.0
510,127.25,159.386,210.307,93.1499,98.9069,15.9854,0.153377,2.93916,16.729,874.095,16.3469,0.0,0.0
513,128,160.418,211.655,81.9511,98.9044,16.6703,0.152166,2.9258,16.7452,873.745,15.9704,0.0,0.0
516,128.75,161.189,212.111,86.8468,98.9216,17.9374,0.150891,2.90427,16.7668,873.525,15.3149,0.0,0.0
519,129.5,161.248,212.61,93.198,98.9191,16.1532,0.14971,2.88857,16.799,873.345,16.2543,0.0,0.0
522,130.25,162.158,214.06,83.0579,98.9216,18.0041,0.148254,2.86251,16.8362,873.094,15.2816,0.0,0.0
525,131,162.946,214.442,83.0121,98.9224,19.4223,0.146716,2.83728,16.886,872.804,14.6015,0.0,0.0
528,131.75,162.853,215.019,79.3621,98.9322,18.2056,0.14499,2.79677,16.951,872.534,15.1827,0.0,0.0
531,132.5,164.003,215.792,86.398,98.951,18.3797,0.143048,2.75255,17.021,872.314,15.0991,0.0,0.0
534,133.25,164.495,215.66,82.4541,98.9477,19.4262,0.140618,2.70778,17.0882,872.114,14.602,0.0,0.0
537,134,164.909,216.609,85.5775,98.9587,17.8231,0.138413,2.6644,17.1484,871.853,15.3756,0.0,0.0
540,134.75,165.071,216.332,80.6436,98.9681,17.7661,0.13539,2.61926,17.1997,871.673,15.4052,0.0,0.0
543,135.5,165.619,216.581,85.295,98.9734,21.4457,0.132016,2.58635,17.2499,871.413,13.7173,0.0,0.0
546,136.25,164.959,216.19,86.8872,98.9894,19.6572,0.128587,2.54106,17.3175,871.253,14.4998,0.0,0.0
549,137,165.252,216.006,96.9503,98.9849,21.5344,0.12576,2.49928,17.3649,871.023,13.6813,0.0,0.0
552,137.75,165.972,216.55,92.3454,98.9935,21.417,0.121959,2.45385,17.4513,870.862,13.7311,0.0,0.0
555,138.5,165.832,216.038,95.2978,99.011,22.1996,0.118277,2.39433,17.5402,870.622,13.4108,0.0,0.0
558,139.25,165.827,215.738,87.8016,99.0241,23.638,0.114062,2.3433,17.6397,870.422,12.8489,0.0,0.0
561,140,165.41,215.279,97.0029,99.0237,22.9546,0.109417,2.30807,17.7438,870.242,13.1119,0.0,0.0
564,140.75,165.653,215.133,90.6441,99.0519,23.5829,0.10603,2.24063,17.8331,870.052,12.8723,0.0,0.0
567,141.5,166.175,214.549,92.908,99.0649,26.2741,0.101109,2.16692,17.9564,869.862,11.9042,0.0,0.0
570,142.25,165.507,214.244,100.218,99.0772,28.7494,0.0961492,2.09045,18.0642,869.661,11.0978,0.0,0.0
573,143,165.928,214.02,101.819,99.0931,29.3913,0.0919484,2.0137,18.1736,869.491,10.9012,0.0,0.0
576,143.75,165.328,213.036,98.0059,99.1021,28.9789,0.0868452,1.9198,18.2848,869.351,11.0287,0.0,0.0
579,144.5,164.501,211.826,102.862,99.1299,29.7777,0.082097,1.83729,18.3792,869.171,10.7873,0.0,0.0
582,145.25,164.152,210.47,108.167,99.1524,28.8843,0.0781974,1.75308,18.5082,869.111,11.0626,0.0,0.0
585,146,163.117,208.901,103.4,99.1634,30.5084,0.0737587,1.66663,18.6332,868.921,10.5729,0.0,0.0
588,146.75,162.551,207.534,104.292,99.185,31.9088,0.0695025,1.59292,18.7572,868.781,10.1723,0.0,0.0
591,147.5,161.342,205.646,107.865,99.2152,33.3271,0.0659646,1.50776,18.8811,868.691,9.78501,0.0,0.0
594,148.25,160.627,204.687,108.218,99.2271,37.0853,0.0619586,1.42425,18.9897,868.581,8.82768,0.0,0.0
597,149,160.589,203.444,114.129,99.2479,33.8577,0.0578403,1.34266,19.0999,868.51,9.64628,0.0,0.0
600,149.75,158.727,200.894,119.842,99.2671,37.2276,0.0538296,1.26341,19.1803,868.39,8.79696,0.0,0.0
603,150.5,158.041,199.34,113.638,99.2994,43.1084,0.0509058,1.18075,19.2825,868.35,7.48434,0.0,0.0
606,151.25,156.529,197.295,117.677,99.3284,44.6274,0.0466646,1.10988,19.3892,868.22,7.17633,0.0,0.0
609,152,155.386,194.66,121.528,99.3349,43.4065,0.0427347,1.01899,19.5072,868.2,7.42574,0.0,0.0
612,152.75,154.397,192.969,123.393,99.3476,49.5687,0.0390758,0.952723,19.6382,868.1,6.23618,0.0,0.0
615,153.5,153.05,191.01,126.245,99.3754,56.7856,0.0356619,0.866933,19.7771,868.09,5.01952,0.0,0.0
618,154.25,151.665,188.738,132.012,99.406,63.0055,0.0325773,0.777769,19.9202,868.06,4.08999,0.0,0.0
621,155,149.545,185.38,134.697,99.417,67.9166,0.0300746,0.694567,20.0644,868.03,3.41777,0.0,0.0
624,155.75,149.004,183.571,137.105,99.4277,77.5107,0.0279201,0.607885,20.197,868.04,2.23353,0.0,0.0
627,156.5,147.483,180.707,137.295,99.4611,87.5001,0.0261792,0.544694,20.3054,868.03,1.14923,0.0,0.0
630,157.25,145.332,178.66,137.839,99.4926,89.8301,0.0248594,0.46873,20.4223,868.03,0.916354,0.0,0.0
633,158,143.229,175.2,139.761,99.511,90.2409,0.0239599,0.401258,20.5204,868.04,0.87708,0.0,0.0
636,158.75,140.829,172.009,138.465,99.5167,90.563,0.0233717,0.346916,20.6035,868.03,0.845637,0.0,0.0
639,159.5,140.157,169.947,140.082,99.5375,91.3301,0.0229998,0.296196,20.6744,868.03,0.77186,0.0,0.0
642,160.25,138.252,167.58,138.935,99.571,89.5502,0.0227895,0.254723,20.7324,868.01,0.951408,0.0,0.0
645,161,136.281,164.812,140.887,99.6,90.1855,0.0226572,0.221174,20.7804,868,0.890614,0.0,0.0
648,161.75,133.913,162.431,140.438,99.598,90.5247,0.0225536,0.194324,20.8154,868,0.856761,0.0,0.0
651,162.5,132.709,159.137,142.465,99.6315,91.4569,0.0224656,0.172002,20.8434,868.01,0.767883,0.0,0.0
654,163.25,131.231,157.646,143.34,99.6588,90.5871,0.0223464,0.154351,20.865,868.01,0.856059,0.0,0.0
657,164,129.951,155.845,143.312,99.6797,90.8456,0.0222595,0.140223,20.8827,867.98,0.832371,0.0,0.0
660,164.75,128.563,153.546,137.713,99.6952,91.2092,0.0220862,0.128777,20.8969,868,0.797942,0.0,0.0
663,165.5,127.186,150.779,145.681,99.7181,90.3913,0.0218966,0.119429,20.9082,867.99,0.88079,0.0,0.0
666,166.25,126.105,148.963,144.853,99.7426,91.5398,0.0217026,0.112187,20.918,867.97,0.769749,0.0,0.0
669,167,124.349,147.316,140.609,99.7818,91.577,0.0215117,0.105982,20.9271,867.97,0.769629,0.0,0.0
672,167.75,123.381,145.297,143.388,99.7867,91.2778,0.0212788,0.101148,20.9343,867.95,0.799426,0.0,0.0
675,168.5,122.397,142.779,140.772,99.8255,91.896,0.0210463,0.097091,20.9396,867.96,0.742366,0.0,0.0
678,169.25,120.342,141.225,143.541,99.8459,90.6847,0.0207697,0.0936722,20.9447,867.96,0.863214,0.0,0.0
681,170,119.402,139.829,142.765,99.8765,92.2363,0.0204105,0.0910393,20.9484,867.97,0.713797,0.0,0.0
684,170.75,118.231,137.56,139.356,99.8863,90.891,0.0200168,0.08906,20.9514,867.96,0.846473,0.0,0.0
687,171.5,117.093,135.626,145.86,99.9047,91.6088,0.01959,0.0875168,20.9539,867.96,0.777562,0.0,0.0
690,172.25,115.658,134.016,138.537,99.9505,91.8701,0.0191361,0.0863638,20.9558,867.97,0.756125,0.0,0.0
693,173,114.457,132.859,140.739,99.9586,91.4301,0.0188053,0.0855112,20.9571,867.94,0.799913,0.0,0.0
696,173.75,113.206,131.107,140.983,99.9734,92.0852,0.0181775,0.0848496,20.9573,867.92,0.7372,0.0,0.0
699,174.5,112.165,129.268,143.968,99.9995,91.834,0.0176005,0.0841668,20.9571,867.93,0.764043,0.0,0.0
702,175.25,110.954,127.17,141.745,100.038,91.1906,0.016976,0.0836691,20.9576,867.95,0.830552,0.0,0.0
705,176,110.089,125.915,141.929,100.066,91.5421,0.0164155,0.082885,20.9579,867.95,0.798528,0.0,0.0
708,176.75,108.692,124.389,143.49,100.084,91.2929,0.0158268,0.0819193,20.9586,867.96,0.824665,0.0,0.0
711,177.5,107.492,122.407,139.334,100.106,92.2216,0.0151893,0.0808482,20.9599,867.98,0.735821,0.0,0.0
714,178.25,106.841,121.363,139.507,100.134,91.8995,0.0145657,0.0797724,20.9618,867.97,0.769692,0.0,0.0
717,179,105.627,120.24,144.344,100.152,91.6809,0.0139671,0.0784836,20.9639,867.96,0.792701,0.0,0.0
720,179.75,105.089,118.295,145.999,100.181,92.2654,0.0134003,0.0771382,20.9661,867.95,0.738257,0.0,0.0
723,180.5,104.066,117.933,140.983,100.21,91.8185,0.0127716,0.0759843,20.9686,867.94,0.784405,0.0,0.0
726,181.25,102.51,115.459,141.969,100.234,90.951,0.0121042,0.0748239,20.9712,867.95,0.871706,0.0,0.0
729,182,101.82,114.221,143.225,100.258,91.1375,0.0116177,0.0736588,20.9733,867.94,0.855457,0.0,0.0
732,182.75,100.549,113.03,140.417,100.304,91.3983,0.0109842,0.07253,20.9753,867.95,0.833986,0.0,0.0
735,183.5,100.367,112.349,144.733,100.289,92.2344,0.0103939,0.071463,20.9771,867.95,0.750958,0.0,0.0
738,184.25,99.3263,110.827,146.093,100.311,91.589,0.00990882,0.0704714,20.9789,867.94,0.815875,0.0,0.0
741,185,98.3069,109.746,144.302,100.344,92.1267,0.009332,0.0695392,20.9804,867.94,0.766374,0.0,0.0
744,185.75,97.3804,108.303,140.446,100.353,91.4902,0.00883284,0.0687703,20.9819,867.94,0.82932,0.0,0.0
747,186.5,96.3247,107.302,145.927,100.355,92.4274,0.00833447,0.0678317,20.9832,867.91,0.738122,0.0,0.0
750,187.25,95.8335,105.25,143.279,100.397,92.2813,0.00781,0.0669522,20.9847,867.9,0.756001,0.0,0.0
753,188,95.1319,104.85,142.261,100.423,92.6751,0.0073214,0.0662277,20.9861,867.9,0.720213,0.0,0.0
756,188.75,93.7007,103.579,138.268,100.443,91.0154,0.00691991,0.0652834,20.9876,867.89,0.884021,0.0,0.0
759,189.5,92.7231,102.068,142.54,100.446,92.2487,0.00648938,0.0644277,20.9889,867.89,0.763617,0.0,0.0
762,190.25,92.4673,101.727,142.369,100.462,92.686,0.00607389,0.0636447,20.9902,867.89,0.722592,0.0,0.0
765,191,91.644,100.512,141.883,100.499,93.1844,0.00569769,0.0629235,20.9912,867.88,0.6778,0.0,0.0
768,191.75,90.6161,99.7084,142.512,100.505,93.586,0.00534009,0.0621749,20.9925,867.87,0.639778,0.0,0.0
771,192.5,90.154,98.9935,143.473,100.524,92.6523,0.00501607,0.0615342,20.9935,867.89,0.731433,0.0,0.0
774,193.25,89.6096,97.1579,140.078,100.538,92.3693,0.00473804,0.0608488,20.9947,867.88,0.760106,0.0,0.0
777,194,88.9853,96.7912,145.074,100.56,92.6026,0.00458343,0.0601822,20.9959,867.87,0.739444,0.0,0.0
780,194.75,88.2104,95.4215,143.712,100.571,92.974,0.0043326,0.0595811,20.9972,867.86,0.704496,0.0,0.0
783,195.5,87.3758,94.5757,142.431,100.6,92.1383,0.00414975,0.0590679,20.9982,867.87,0.788032,0.0,0.0
786,196.25,86.9279,93.5126,138.783,100.588,91.1344,0.00401645,0.0585548,20.9988,867.86,0.885241,0.0,0.0
789,197,85.9566,93.0293,140.478,100.606,92.4364,0.00372298,0.0582092,20.9992,867.87,0.759644,0.0,0.0
792,197.75,85.9792,91.8215,143.984,100.64,93.1038,0.00346496,0.0578098,20.9994,867.85,0.698169,0.0,0.0
795,198.5,84.9531,91.3629,141.503,100.635,92.4584,0.00323754,0.0575187,21.0001,867.86,0.760086,0.0,0.0
798,199.25,84.6017,90.5503,143.498,100.653,92.7015,0.00303665,0.0569893,21.0007,867.88,0.738142,0.0,0.0
801,200,83.4512,89.9978,143.605,100.655,93.0771,0.00285374,0.0565741,21.0012,867.88,0.702056,0.0,0.0
804,200.75,82.8161,88.6779,144.058,100.677,92.1348,0.00268438,0.0562214,21.0022,867.89,0.795252,0.0,0.0
807,201.5,82.3782,88.0247,143.073,100.686,92.3697,0.00252588,0.0558453,21.0029,867.89,0.773214,0.0,0.0
810,202.25,81.8069,87.3293,142.752,100.678,92.9023,0.00234594,0.0555017,21.0034,867.87,0.720956,0.0,0.0
813,203,80.9106,85.8942,144.332,100.698,92.6298,0.00225396,0.0552143,21.0037,867.88,0.749086,0.0,0.0
816,203.75,81.1485,85.627,141.819,100.709,91.8871,0.00207088,0.0549923,21.004,867.88,0.822235,0.0,0.0
819,204.5,80.2584,84.4264,143.815,100.723,92.2666,0.00190489,0.0548503,21.0042,867.88,0.786578,0.0,0.0
822,205.25,79.4316,84.0849,141.387,100.731,92.7577,0.00175619,0.0547028,21.0044,867.88,0.739618,0.0,0.0
825,206,79.21,84.0055,142.217,100.736,92.6092,0.00162416,0.0545749,21.0045,867.9,0.754422,0.0,0.0
828,206.75,78.5987,82.4191,140.323,100.759,92.2332,0.00151213,0.0543906,21.0046,867.91,0.792984,0.0,0.0
831,207.5,77.9804,82.1042,143.195,100.748,92.1933,0.00139428,0.0541937,21.0053,867.9,0.795885,0.0,0.0
834,208.25,77.4484,81.23,143.374,100.758,92.2274,0.00129264,0.0539709,21.0058,867.89,0.793476,0.0,0.0
837,209,76.3046,80.3762,140.463,100.764,92.6906,0.00120981,0.053772,21.0062,867.9,0.749052,0.0,0.0
840,209.75,76.5728,80.0811,140.343,100.772,93.4189,0.00114569,0.0535645,21.0064,867.89,0.679575,0.0,0.0
843,210.5,76.1826,80.0003,144.045,100.77,92.5891,0.00111394,0.0533855,21.0069,867.9,0.759465,0.0,0.0
846,211.25,75.2054,78.9686,140.452,100.775,92.0154,0.00110045,0.0532139,21.0076,867.89,0.815611,0.0,0.0
849,212,74.9428,77.801,144.001,100.776,93.1705,0.00109624,0.0530388,21.0081,867.9,0.703826,0.0,0.0
852,212.75,74.1061,77.3338,141.88,100.778,93.6108,0.0011003,0.0528747,21.0085,867.9,0.661681,0.0,0.0
855,213.5,74.0853,76.7146,141.589,100.79,92.8763,0.00110825,0.0526925,21.009,867.89,0.733429,0.0,0.0
858,214.25,74.0751,76.5079,142.029,100.792,93.8895,0.00111486,0.052441,21.0097,867.89,0.636327,0.0,0.0
861,215,72.6895,75.568,144.63,100.794,93.0189,0.00111743,0.0522284,21.0103,867.87,0.719991,0.0,0.0
864,215.75,72.9623,75.6502,140.974,100.808,92.9701,0.00110862,0.0520235,21.0107,867.88,0.72601,0.0,0.0
867,216.5,71.9536,74.1693,144.272,100.825,93.4686,0.0011022,0.0518147,21.011,867.87,0.679538,0.0,0.0
870,217.25,71.9805,73.9572,140.89,100.807,94.1333,0.00108753,0.0516348,21.0112,867.89,0.614374,0.0,0.0
873,218,71.4015,74.2038,143.594,100.807,92.9089,0.00107257,0.0514699,21.0114,867.89,0.731775,0.0,0.0
876,218.75,71.2306,73.0988,143.944,100.804,93.2461,0.00105773,0.0513122,21.0115,867.9,0.699061,0.0,0.0
879,219.5,70.7513,72.4275,143.05,100.838,93.048,0.00104017,0.0511833,21.0108,867.88,0.721186,0.0,0.0
882,220.25,70.2245,71.71,147.33,100.84,94.081,0.0010149,0.0510835,21.0099,867.89,0.622305,0.0,0.0
885,221,69.7536,71.82,143.882,100.827,93.7341,0.000986159,0.0510107,21.0092,867.89,0.654313,0.0,0.0
888,221.75,69.6453,71.439,141.874,100.826,92.9484,0.000965052,0.0509993,21.0088,867.88,0.729704,0.0,0.0
891,222.5,69.5074,70.5327,143.274,100.846,93.3686,0.000953033,0.0510379,21.009,867.88,0.690993,0.0,0.0
894,223.25,68.8279,70.0981,141.926,100.861,92.7542,0.000946051,0.051116,21.0093,867.88,0.751515,0.0,0.0
897,224,68.045,69.6116,147.397,100.851,93.2186,0.000940961,0.0511334,21.0094,867.88,0.70585,0.0,0.0
900,224.75,67.5237,68.9569,144.422,100.849,94.243,0.00091768,0.0511183,21.0095,867.88,0.60767,0.0,0.0
903,225.5,67.8617,69.3081,145.375,100.865,93.1759,0.00088824,0.0510735,21.0096,867.88,0.711189,0.0,0.0
906,226.25,67.3515,68.019,142.351,100.871,92.4038,0.000852278,0.0510035,21.0097,867.89,0.786407,0.0,0.0
909,227,66.5982,68.1931,143.874,100.866,94.0585,0.000810359,0.0509246,21.0103,867.9,0.626774,0.0,0.0
912,227.75,66.521,67.6156,142.931,100.869,94.05,0.000749906,0.0508553,21.0108,867.91,0.627805,0.0,0.0
915,228.5,66.6882,67.5216,144.518,100.874,92.8135,0.000672787,0.050785,21.0112,867.88,0.747015,0.0,0.0
918,229.25,66.1954,67.0978,145.848,100.889,93.686,0.000581848,0.0507061,21.0115,867.89,0.664399,0.0,0.0
921,230,65.8061,66.7189,144.751,100.889,92.9798,0.000490686,0.0506228,21.0116,867.87,0.732269,0.0,0.0
924,230.75,65.7879,66.5026,144.286,100.902,93.824,0.000413628,0.0505561,21.0118,867.88,0.652359,0.0,0.0
927,231.5,65.3212,65.7043,142.116,100.916,93.3061,0.000360999,0.0505076,21.0114,867.88,0.703237,0.0,0.0
930,232.25,65.2665,65.5102,142.373,100.92,92.3367,0.000333591,0.0504284,21.0109,867.87,0.797239,0.0,0.0
933,233,64.554,64.9298,141.636,100.925,93.6608,0.000333364,0.0502957,21.0107,867.9,0.670042,0.0,0.0
936,233.75,64.3928,64.7496,140.823,100.924,93.8914,0.000341505,0.050102,21.0105,867.89,0.647837,0.0,0.0
939,234.5,64.0524,64.8555,145.753,100.925,93.6058,0.000354538,0.0499194,21.0103,867.89,0.675314,0.0,0.0
942,235.25,64.019,64.298,141.988,100.94,93.6081,0.000360307,0.0496751,21.0104,867.89,0.676399,0.0,0.0
945,236,63.4412,63.8817,143.184,100.948,93.9399,0.000360956,0.0495866,21.0109,867.9,0.645316,0.0,0.0
948,236.75,63.1018,63.4719,142.343,100.928,93.4755,0.000358071,0.0494916,21.0112,867.9,0.688021,0.0,0.0
951,237.5,62.8992,62.9286,141.766,100.934,93.2228,0.000359896,0.0494129,21.0115,867.89,0.712849,0.0,0.0
954,238.25,62.8541,63.07,145.675,100.951,92.6263,0.000367945,0.0493181,21.0117,867.9,0.771953,0.0,0.0
957,239,62.3335,62.3629,144.011,100.942,93.9566,0.000392478,0.0492293,21.0118,867.88,0.643216,0.0,0.0
960,239.75,61.8235,62.1379,139.522,100.947,93.7682,0.000422907,0.0491572,21.0119,867.9,0.661653,0.0,0.0
963,240.5,61.9861,61.7495,140.501,100.964,93.3123,0.000452933,0.0490922,21.012,867.89,0.706924,0.0,0.0
966,241.25,61.6957,61.9058,141.8,100.97,93.1844,0.000474822,0.0490229,21.012,867.89,0.719771,0.0,0.0
969,242,60.7296,61.0324,144.822,100.967,94.3124,0.000473023,0.0489349,21.0121,867.89,0.611561,0.0,0.0
972,242.75,60.7384,60.393,144.128,100.961,93.6476,0.000446829,0.048857,21.0121,867.89,0.674426,0.0,0.0
975,243.5,60.6215,60.4951,140.879,100.972,93.6624,0.000404036,0.0487942,21.0121,867.89,0.674067,0.0,0.0
978,244.25,60.5624,60.9035,140.022,100.98,93.4437,0.00035046,0.0487623,21.0121,867.89,0.695681,0.0,0.0
981,245,60.1885,59.5856,144.464,100.988,94.8779,0.000302704,0.0487377,21.0121,867.89,0.55979,0.0,0.0
984,245.75,60.2165,59.6651,142.897,100.98,93.9732,0.000273993,0.0487073,21.0121,867.88,0.645001,0.0,0.0
987,246.5,59.9459,59.1577,143.982,100.969,94.298,0.000269844,0.0486258,21.0126,867.88,0.613107,0.0,0.0
990,247.25,59.5989,59.4268,144.627,100.994,93.8155,0.00029418,0.048581,21.0131,867.89,0.661304,0.0,0.0
993,248,59.8056,58.7276,140.974,100.997,93.0368,0.000332102,0.0485732,21.0135,867.87,0.736319,0.0,0.0
996,248.75,59.0883,58.9618,145.098,100.994,94.0903,0.000374306,0.0485815,21.0138,867.88,0.63514,0.0,0.0
999,249.5,58.6376,57.88,146.41,100.989,94.3573,0.000388895,0.0485934,21.0137,867.88,0.60921,0.0,0.0
1002,250.25,58.7979,57.7341,142.98,100.993,94.7481,0.000382814,0.0486021,21.0133,867.9,0.572545,0.0,0.0
1005,251,58.5994,57.8388,145.964,101.017,94.193,0.000361589,0.0486084,21.013,867.88,0.627312,0.0,0.0
1008,251.75,58.6746,57.8683,143.504,100.998,94.8996,0.000346115,0.0485911,21.0128,867.89,0.558608,0.0,0.0
1011,252.5,57.8063,57.0588,145.837,100.989,93.8631,0.000334835,0.0485411,21.0126,867.88,0.656311,0.0,0.0
1014,253.25,58.2429,57.1568,143.328,101.006,93.8469,0.000335481,0.0485046,21.0125,867.88,0.659355,0.0,0.0
1017,254,57.9726,56.9703,147.143,101.026,92.9139,0.000335952,0.048478,21.0124,867.87,0.750748,0.0,0.0
1020,254.75,57.606,56.4165,148.243,101.023,94.4139,0.000333022,0.048518,21.0123,867.87,0.606879,0.0,0.0
1023,255.5,57.3524,56.1628,142.825,101.006,94.6263,0.000325291,0.0485887,21.0123,867.87,0.585236,0.0,0.0
1026,256.25,56.635,55.7103,141.092,101.019,94.4701,0.000307239,0.048658,21.0122,867.87,0.601179,0.0,0.0
1029,257,57.0001,56.5981,140.179,101.028,94.1085,0.000290351,0.0487085,21.0125,867.86,0.636414,0.0,0.0
1032,257.75,56.8712,55.8198,146.276,101.033,94.3608,0.000276449,0.0487175,21.013,867.87,0.612796,0.0,0.0
1035,258.5,56.7127,55.6656,142.556,101.026,93.7798,0.000265071,0.0487342,21.0134,867.87,0.667616,0.0,0.0
1038,259.25,56.5282,55.2305,142.544,101.041,93.8639,0.000256246,0.0487765,21.0137,867.88,0.660844,0.0,0.0
1041,260,55.785,54.7111,143.075,101.051,93.7364,0.000246114,0.0487949,21.0139,867.87,0.673981,0.0,0.0
1044,260.75,55.5363,54.7069,143.342,101.026,94.6434,0.000231917,0.0488221,21.0141,867.86,0.585395,0.0,0.0
1047,261.5,55.694,55.0221,148.516,101.023,94.0372,0.00021262,0.0488479,21.0139,867.84,0.642707,0.0,0.0
1050,262.25,55.9998,55.0319,144.801,101.029,94.6236,0.000184374,0.0489083,21.0134,867.86,0.587524,0.0,0.0
1053,263,55.5011,54.4092,143.729,101.031,94.3736,0.000152605,0.0489701,21.0128,867.85,0.611434,0.0,0.0
1056,263.75,55.1899,54.4928,142.945,101.037,95.2392,0.000124679,0.0490535,21.0124,867.88,0.530055,0.0,0.0
1059,264.5,55.4923,54.0303,142.82,101.04,94.1349,9.9354e-05,0.0491004,21.012,867.87,0.634918,0.0,0.0
1062,265.25,55.0905,54.1487,145.344,101.034,92.7604,7.87748e-05,0.0490995,21.0115,867.86,0.766339,0.0,0.0
1065,266,54.9636,53.8536,142.028,101.045,93.6783,7.08568e-05,0.049049,21.0111,867.86,0.678965,0.0,0.0
1068,266.75,55.1337,53.521,139.527,101.05,93.6976,,0.0490048,,867.84,0.677546,0.0,0.0
1071,267.5,54.9551,53.7389,143.995,101.033,93.51,,0.0489601,,867.86,0.694035,0.0,0.0
1074,268.25,54.9273,53.3395,142.321,101.026,94.9411,,0.0489414,,867.87,0.557155,0.0,0.0
1077,269,54.2818,53.4531,144.9,101.036,94.3601,,0.0488973,,867.86,0.613159,0.0,0.0
1080,269.75,54.3814,52.8787,147.092,101.042,94.9543,,,,867.86,0.557397,0.0,0.0
1083,270.5,54.0019,53.7187,144.177,101.032,93.7744,,,,867.87,0.668605,0.0,0.0
1086,271.25,54.0154,52.806,143.112,101.003,93.4011,,,,867.87,0.701877,0.0,0.0
1089,272,54.0744,52.7042,144.025,101.033,94.8031,,,,867.87,0.570891,0.0,0.0
1092,272.75,53.6836,52.5846,142.289,101.045,93.6748,,,,867.86,0.679336,0.0,0.0
1095,273.5,53.5026,52.104,143.388,101.039,94.9345,,,,867.87,0.558975,0.0,0.0
1098,274.25,53.3273,51.6716,141.176,101.027,94.638,,,,867.87,0.585982,0.0,0.0
1101,275,53.4266,51.5628,142.127,101.032,93.9232,,,,867.87,0.65438,0.0,0.0
1104,275.75,52.7767,51.7672,141.224,101.031,95,,,,867.87,0.552099,0.0,0.0
1107,276.5,53.2704,51.6974,145.383,101.029,94.5217,,,,867.87,0.597191,0.0,0.0
1110,277.25,52.9368,51.7429,145.136,101.012,94.35,,,,867.87,0.612014,0.0,0.0