File: 01_Data/LDPE/Cone/LDPE_HRRPUA_25.csv
Time after Ignition,LDPE_R1,LDPE_R2,LDPE_R3,Mean,Std. Dev.
0.0,29.5,23.2,12.5,21.8,8.6
0.25,29.8,23.9,12.7,22.1,8.6
0.5,30.3,24.9,13.2,22.8,8.8
0.75,30.8,24.8,13.7,23.1,8.7
1.0,31.3,25.2,14.3,23.6,8.6
1.25,31.6,25.6,14.3,23.8,8.8
1.5,32.3,26.0,14.9,24.4,8.8
1.75,32.7,26.7,14.9,24.8,9.0
2.0,33.3,27.3,15.5,25.4,9.1
2.25,34.0,27.7,15.8,25.9,9.2
2.5,35.3,28.8,16.2,26.8,9.7
2.75,35.4,29.0,16.6,27.0,9.6
3.0,35.6,30.1,17.1,27.6,9.5
3.25,36.7,30.8,17.5,28.3,9.8
3.5,38.2,30.8,17.9,29.0,10.2
3.75,38.7,31.1,18.3,29.4,10.3
4.0,39.9,32.0,18.8,30.3,10.6
4.25,39.7,32.4,18.9,30.3,10.6
4.5,40.8,33.0,19.2,31.0,10.9
4.75,41.5,33.4,19.6,31.5,11.1
5.0,42.7,33.1,19.7,31.8,11.5
5.25,42.0,34.2,20.5,32.2,10.9
5.5,42.2,34.3,20.9,32.5,10.8
5.75,43.7,35.3,21.2,33.4,11.3
6.0,45.5,36.4,21.9,34.6,11.9
6.25,46.1,36.4,22.3,34.9,11.9
6.5,46.3,36.9,22.4,35.2,12.0
6.75,46.4,37.2,22.8,35.5,11.9
7.0,46.0,38.6,23.4,36.0,11.5
7.25,47.3,38.2,24.2,36.6,11.7
7.5,47.4,39.0,24.4,36.9,11.7
7.75,48.7,39.6,24.7,37.7,12.1
8.0,49.0,40.4,25.1,38.2,12.1
8.25,49.8,40.3,25.8,38.6,12.1
8.5,51.0,40.8,26.2,39.3,12.5
8.75,51.4,41.7,27.1,40.1,12.2
9.0,51.5,42.6,27.6,40.6,12.1
9.25,52.2,43.4,28.2,41.3,12.2
9.5,53.1,43.5,28.2,41.6,12.6
9.75,53.9,44.3,29.2,42.5,12.4
10.0,54.1,45.9,29.3,43.1,12.6
10.25,54.9,45.1,29.7,43.3,12.7
10.5,55.6,46.7,30.0,44.1,13.0
10.75,55.7,46.5,30.4,44.2,12.8
11.0,56.6,47.5,30.7,44.9,13.1
11.25,56.4,48.3,31.4,45.4,12.8
11.5,57.7,48.3,31.6,45.9,13.2
11.75,58.1,48.9,32.2,46.4,13.1
12.0,57.5,50.0,32.4,46.6,12.9
12.25,59.4,49.7,32.9,47.4,13.4
12.5,60.2,50.2,33.4,47.9,13.6
12.75,60.4,50.9,33.1,48.1,13.8
13.0,61.2,50.4,33.5,48.4,14.0
13.25,63.2,52.8,34.1,50.0,14.7
13.5,64.1,52.0,34.6,50.2,14.8
13.75,64.2,51.7,35.1,50.3,14.6
14.0,66.3,52.9,35.5,51.6,15.5
14.25,68.2,53.3,36.1,52.5,16.1
14.5,68.2,54.3,36.3,52.9,16.0
14.75,69.6,55.0,37.0,53.9,16.3
15.0,71.0,54.7,37.4,54.4,16.8
15.25,71.2,57.0,38.1,55.4,16.6
15.5,72.0,57.4,38.3,55.9,16.9
15.75,73.7,57.2,38.5,56.5,17.6
16.0,73.4,57.9,39.8,57.0,16.8
16.25,74.1,58.3,39.1,57.2,17.5
16.5,76.9,58.7,40.2,58.6,18.3
16.75,77.2,59.4,40.1,58.9,18.5
17.0,76.5,60.4,40.9,59.3,17.8
17.25,76.8,61.7,41.1,59.9,17.9
17.5,78.9,61.9,41.2,60.7,18.9
17.75,78.4,62.8,41.4,60.9,18.6
18.0,79.1,62.7,42.7,61.5,18.3
18.25,80.4,63.1,43.3,62.3,18.5
18.5,79.9,64.0,43.4,62.4,18.3
18.75,81.4,63.9,43.7,63.0,18.9
19.0,80.8,64.7,45.3,63.6,17.8
19.25,80.0,65.2,45.1,63.4,17.6
19.5,81.5,66.1,45.5,64.4,18.1
19.75,82.1,64.7,46.6,64.5,17.7
20.0,83.6,65.9,46.5,65.4,18.6
20.25,82.8,67.3,47.5,65.9,17.7
20.5,84.7,67.2,47.6,66.5,18.6
20.75,84.8,65.9,48.2,66.3,18.3
21.0,85.0,67.9,49.8,67.5,17.6
21.25,85.8,66.9,50.1,67.6,17.9
21.5,87.2,68.7,50.3,68.7,18.5
21.75,87.1,69.2,51.2,69.2,18.0
22.0,89.7,68.2,51.7,69.9,19.0
22.25,90.7,69.0,51.7,70.5,19.5
22.5,90.2,70.2,52.3,70.9,18.9
22.75,91.5,70.1,53.4,71.7,19.1
23.0,93.7,70.4,54.1,72.7,19.9
23.25,93.7,70.4,53.7,72.6,20.1
23.5,96.0,71.6,54.8,74.1,20.7
23.75,96.4,71.8,56.0,74.7,20.3
24.0,96.0,72.2,55.8,74.7,20.2
24.25,99.0,73.2,56.9,76.4,21.2
24.5,99.4,74.5,57.4,77.1,21.1
24.75,99.8,75.1,58.0,77.6,21.1
25.0,102.4,76.9,58.1,79.1,22.2
25.25,103.8,76.0,58.3,79.4,23.0
25.5,103.9,77.1,59.4,80.1,22.4
25.75,105.4,77.9,59.5,80.9,23.1
26.0,105.1,77.1,59.0,80.4,23.2
26.25,107.2,79.9,60.6,82.6,23.4
26.5,107.0,79.2,61.5,82.6,23.0
26.75,107.7,81.4,61.0,83.4,23.4
27.0,109.1,81.2,61.4,83.9,23.9
27.25,110.3,82.9,62.5,85.2,24.0
27.5,112.4,82.2,63.8,86.1,24.5
27.75,112.2,83.2,63.4,86.2,24.5
28.0,112.0,83.5,65.2,86.9,23.6
28.25,114.6,84.6,65.5,88.2,24.7
28.5,114.3,86.4,66.1,88.9,24.2
28.75,116.3,85.7,67.6,89.8,24.6
29.0,114.4,86.3,67.6,89.4,23.6
29.25,118.1,88.6,68.6,91.8,24.9
29.5,117.9,90.3,69.4,92.5,24.3
29.75,117.4,90.3,71.2,93.0,23.2
30.0,119.6,91.5,70.2,93.8,24.8
30.25,118.5,90.9,71.6,93.6,23.5
30.5,120.3,91.7,73.6,95.2,23.6
30.75,122.6,91.9,74.9,96.5,24.2
31.0,122.5,91.8,73.4,95.9,24.8
31.25,123.8,93.3,75.0,97.4,24.7
31.5,124.4,93.6,76.1,98.0,24.5
31.75,125.2,95.1,77.3,99.2,24.2
32.0,125.3,95.0,77.2,99.2,24.3
32.25,126.8,95.5,76.9,99.7,25.2
32.5,126.1,96.2,78.1,100.1,24.2
32.75,126.1,98.6,78.6,101.1,23.8
33.0,128.7,98.0,81.0,102.6,24.2
33.25,128.3,98.9,80.8,102.7,23.9
33.5,127.6,99.6,81.6,102.9,23.1
33.75,129.0,101.0,81.9,104.0,23.7
34.0,130.2,100.3,83.1,104.5,23.9
34.25,131.6,99.1,83.6,104.8,24.5
34.5,131.4,100.7,85.3,105.8,23.5
34.75,129.9,101.6,85.0,105.5,22.7
35.0,132.3,102.2,86.4,106.9,23.3
35.25,132.1,103.9,88.4,108.1,22.2
35.5,134.9,103.9,88.1,109.0,23.8
35.75,133.9,104.9,89.9,109.6,22.4
36.0,135.8,106.4,89.9,110.7,23.2
36.25,135.6,106.5,94.0,112.0,21.3
36.5,137.0,108.1,93.6,112.9,22.1
36.75,138.2,110.3,93.9,114.1,22.4
37.0,139.3,110.9,95.7,115.3,22.1
37.25,139.3,110.4,95.8,115.2,22.2
37.5,141.3,110.8,94.5,115.6,23.8
37.75,138.8,111.9,97.1,115.9,21.1
38.0,141.5,113.4,99.1,118.0,21.5
38.25,141.7,115.6,99.7,119.0,21.2
38.5,143.3,115.4,99.8,119.5,22.0
38.75,144.4,117.2,100.3,120.6,22.3
39.0,144.1,118.5,102.2,121.6,21.1
39.25,146.7,119.2,101.4,122.5,22.8
39.5,146.6,118.0,101.0,121.9,23.0
39.75,147.3,118.7,104.4,123.5,21.8
40.0,145.2,120.0,106.2,123.8,19.8
40.25,149.7,120.4,105.6,125.2,22.5
40.5,148.7,120.1,107.1,125.3,21.3
40.75,149.4,122.3,106.8,126.2,21.6
41.0,149.5,123.7,104.6,125.9,22.6
41.25,152.5,123.4,108.8,128.2,22.2
41.5,150.4,124.0,107.9,127.4,21.4
41.75,152.5,124.7,109.9,129.1,21.6
42.0,151.0,124.3,110.9,128.7,20.4
42.25,153.0,124.7,111.9,129.8,21.0
42.5,155.4,126.9,112.6,131.6,21.8
42.75,151.6,129.6,115.3,132.1,18.3
43.0,153.0,127.6,115.9,132.2,19.0
43.25,152.9,128.5,113.6,131.7,19.9
43.5,154.0,130.4,116.6,133.6,18.9
43.75,156.6,127.6,117.8,134.0,20.2
44.0,156.1,132.4,120.5,136.3,18.1
44.25,157.5,128.2,121.3,135.7,19.2
44.5,158.1,132.5,123.1,137.9,18.1
44.75,160.7,131.2,121.1,137.7,20.6
45.0,160.1,134.9,124.0,139.7,18.5
45.25,161.0,132.1,123.1,138.7,19.8
45.5,160.5,135.2,126.0,140.6,17.9
45.75,161.5,134.5,128.9,141.6,17.4
46.0,162.8,138.0,129.1,143.3,17.5
46.25,167.6,139.1,127.4,144.7,20.7
46.5,166.0,138.5,131.7,145.4,18.2
46.75,166.0,139.3,133.8,146.4,17.2
47.0,167.8,142.1,131.0,147.0,18.8
47.25,170.0,140.4,134.5,148.3,19.0
47.5,171.1,142.2,135.7,149.7,18.8
47.75,171.4,143.2,134.8,149.8,19.2
48.0,169.4,142.5,136.5,149.5,17.5
48.25,176.1,144.1,141.1,153.8,19.4
48.5,176.1,144.7,136.4,152.4,21.0
48.75,175.5,145.4,138.3,153.1,19.8
49.0,179.3,147.8,140.3,155.8,20.7
49.25,176.2,146.7,140.1,154.4,19.2
49.5,183.2,148.6,139.6,157.1,23.0
49.75,182.2,150.8,140.8,157.9,21.6
50.0,178.9,153.3,142.6,158.3,18.7
50.25,179.4,149.5,144.3,157.7,18.9
50.5,182.1,151.0,144.4,159.2,20.1
50.75,189.0,154.7,148.1,163.9,22.0
51.0,187.8,154.6,149.2,163.9,20.9
51.25,188.9,155.5,149.3,164.6,21.3
51.5,192.7,156.7,151.5,167.0,22.5
51.75,191.0,153.2,146.9,163.7,23.8
52.0,195.6,155.2,152.0,167.6,24.3
52.25,198.2,157.0,151.3,168.8,25.6
52.5,196.4,158.9,152.3,169.2,23.8
52.75,198.0,157.7,154.0,169.9,24.4
53.0,199.6,157.5,154.4,170.5,25.3
53.25,198.5,160.2,157.2,172.0,23.0
53.5,201.2,162.1,158.1,173.8,23.8
53.75,200.3,161.3,155.6,172.4,24.4
54.0,199.7,164.5,156.7,173.6,22.9
54.25,205.5,162.6,160.1,176.1,25.5
54.5,205.1,165.2,159.9,176.8,24.7
54.75,204.8,166.7,159.4,177.0,24.4
55.0,209.2,168.8,161.8,179.9,25.6
55.25,207.5,166.8,162.0,178.8,25.0
55.5,209.5,167.0,162.1,179.5,26.0
55.75,213.5,169.4,162.6,181.8,27.6
56.0,212.5,166.3,162.7,180.5,27.8
56.25,210.9,171.2,165.0,182.4,24.9
56.5,214.6,170.8,168.7,184.7,25.9
56.75,213.5,171.9,165.0,183.5,26.2
57.0,216.7,170.9,168.8,185.4,27.1
57.25,221.8,174.2,171.6,189.2,28.3
57.5,221.1,173.2,172.0,188.8,28.0
57.75,222.4,176.8,172.1,190.4,27.8
58.0,223.0,176.1,175.9,191.7,27.2
58.25,225.3,177.9,176.2,193.2,27.9
58.5,231.2,180.1,174.8,195.3,31.2
58.75,234.6,180.7,176.0,197.1,32.6
59.0,231.7,184.3,178.4,198.1,29.3
59.25,239.4,182.3,179.1,200.3,33.9
59.5,242.0,185.8,179.7,202.5,34.3
59.75,242.0,186.3,182.1,203.5,33.4
60.0,254.3,189.9,179.6,208.0,40.5
60.25,244.2,190.9,184.5,206.5,32.8
60.5,250.5,198.3,185.6,211.5,34.4
60.75,249.1,191.8,185.3,208.7,35.1
61.0,254.9,194.4,185.0,211.5,37.9
61.25,257.0,199.0,184.5,213.5,38.3
61.5,258.1,203.0,186.6,215.9,37.5
61.75,257.3,202.8,189.0,216.4,36.1
62.0,265.0,203.2,191.7,220.0,39.4
62.25,264.6,206.8,190.7,220.7,38.8
62.5,268.8,205.1,190.6,221.5,41.6
62.75,266.9,212.0,191.3,223.4,39.1
63.0,263.6,208.6,192.7,221.6,37.2
63.25,271.7,213.9,192.5,226.0,41.0
63.5,270.1,211.7,199.1,227.0,37.8
63.75,274.4,218.7,199.7,230.9,38.8
64.0,274.0,217.7,198.9,230.2,39.1
64.25,280.0,216.5,200.6,232.4,42.0
64.5,279.3,215.0,202.1,232.1,41.4
64.75,278.5,219.1,202.9,233.5,39.8
65.0,280.5,225.3,206.0,237.3,38.7
65.25,285.1,216.3,207.8,236.4,42.4
65.5,288.5,222.1,208.5,239.7,42.8
65.75,294.7,228.7,209.7,244.4,44.6
66.0,292.1,229.8,213.1,245.0,41.6
66.25,295.1,230.1,217.2,247.5,41.7
66.5,295.9,230.1,214.8,246.9,43.1
66.75,300.7,238.1,223.1,253.9,41.2
67.0,301.7,231.8,217.7,250.4,45.0
67.25,310.8,236.2,219.7,255.6,48.5
67.5,312.1,234.7,229.3,258.7,46.3
67.75,307.0,242.8,229.1,259.6,41.6
68.0,316.8,241.1,234.9,264.3,45.6
68.25,318.8,240.8,228.8,262.8,48.9
68.5,323.6,241.4,232.2,265.7,50.3
68.75,325.2,246.9,241.2,271.1,46.9
69.0,333.1,255.4,241.0,276.5,49.5
69.25,332.7,257.8,243.6,278.0,47.9
69.5,342.9,256.4,243.2,280.8,54.1
69.75,335.9,255.0,249.5,280.2,48.4
70.0,347.0,262.9,248.7,286.2,53.1
70.25,341.4,265.1,247.7,284.7,49.9
70.5,352.1,269.0,253.2,291.4,53.1
70.75,365.7,270.3,255.6,297.2,59.8
71.0,356.9,275.7,264.1,298.9,50.5
71.25,360.5,283.2,266.2,303.3,50.2
71.5,369.0,275.7,268.7,304.5,56.0
71.75,359.1,283.0,269.2,303.7,48.4
72.0,374.5,282.5,268.0,308.3,57.7
72.25,371.8,290.4,271.3,311.1,53.4
72.5,392.9,291.2,280.2,321.4,62.1
72.75,373.3,300.5,275.3,316.4,50.9
73.0,380.8,300.0,285.4,322.1,51.4
73.25,390.9,305.4,288.4,328.2,54.9
73.5,382.1,313.4,290.0,328.5,47.8
73.75,398.7,308.2,295.2,334.1,56.4
74.0,386.8,320.8,295.0,334.2,47.4
74.25,399.7,317.5,297.4,338.2,54.2
74.5,401.9,323.4,289.6,338.3,57.6
74.75,396.6,326.0,296.8,339.8,51.3
75.0,399.5,330.5,303.5,344.5,49.5
75.25,407.2,335.9,306.8,350.0,51.6
75.5,418.5,326.4,312.1,352.3,57.7
75.75,408.8,335.2,313.8,352.6,49.9
76.0,399.3,339.8,317.1,352.1,42.4
76.25,407.0,330.9,319.8,352.6,47.5
76.5,434.8,337.5,320.9,364.4,61.5
76.75,427.4,348.4,328.2,368.0,52.4
77.0,433.0,340.2,328.6,367.3,57.2
77.25,433.6,346.5,329.5,369.9,55.9
77.5,419.2,357.5,333.2,369.9,44.4
77.75,442.0,358.6,335.4,378.7,56.1
78.0,443.3,351.5,339.1,378.0,56.9
78.25,448.5,366.6,340.5,385.2,56.4
78.5,447.9,364.1,353.3,388.4,51.7
78.75,452.8,361.8,357.9,390.8,53.7
79.0,454.2,362.0,361.1,392.4,53.5
79.25,461.8,374.2,349.0,395.0,59.2
79.5,464.2,378.2,363.3,401.9,54.5
79.75,463.0,384.8,367.6,405.1,50.8
80.0,489.6,379.7,364.5,411.3,68.3
80.25,480.0,379.6,361.6,407.1,63.8
80.5,474.9,395.7,371.3,414.0,54.1
80.75,484.1,396.9,369.1,416.7,60.0
81.0,485.1,388.1,376.8,416.7,59.5
81.25,486.7,401.6,381.9,423.4,55.7
81.5,487.5,407.0,387.9,427.5,52.8
81.75,475.1,407.8,393.9,425.6,43.4
82.0,492.3,413.4,385.7,430.5,55.3
82.25,491.0,406.5,388.4,428.6,54.7
82.5,498.9,415.5,404.4,439.6,51.7
82.75,512.2,408.0,398.4,439.6,63.1
83.0,502.9,407.9,395.1,435.3,58.9
83.25,503.8,415.4,400.4,439.9,55.9
83.5,517.2,422.3,400.0,446.5,62.3
83.75,509.6,424.9,399.9,444.8,57.5
84.0,532.7,418.2,407.4,452.8,69.4
84.25,524.2,408.4,404.4,445.7,68.0
84.5,521.6,436.0,396.1,451.2,64.1
84.75,507.2,429.1,418.6,451.6,48.4
85.0,507.4,432.6,415.5,451.8,48.9
85.25,536.3,434.8,411.2,460.8,66.5
85.5,510.0,425.4,421.2,452.2,50.1
85.75,525.9,441.1,423.8,463.6,54.6
86.0,523.4,450.6,416.0,463.4,54.8
86.25,544.6,449.3,423.1,472.3,63.9
86.5,526.6,454.3,425.7,468.9,52.0
86.75,527.7,453.2,433.9,471.6,49.5
87.0,532.2,442.1,432.9,469.1,54.8
87.25,540.2,451.2,438.3,476.6,55.5
87.5,537.5,444.2,443.1,474.9,54.2
87.75,534.6,461.8,434.3,476.9,51.8
88.0,544.0,448.1,441.0,477.7,57.6
88.25,546.4,455.4,444.0,481.9,56.1
88.5,563.4,459.6,452.5,491.9,62.1
88.75,573.0,474.1,452.4,499.8,64.3
89.0,547.9,469.2,455.3,490.8,50.0
89.25,562.7,480.9,459.3,501.0,54.6
89.5,559.7,472.9,469.7,500.8,51.0
89.75,561.3,486.9,457.2,501.8,53.6
90.0,553.9,489.9,462.5,502.1,46.9
90.25,583.7,501.1,481.8,522.2,54.1
90.5,552.8,485.0,467.3,501.7,45.1
90.75,568.5,473.0,473.4,505.0,55.0
91.0,571.6,494.4,488.0,518.0,46.5
91.25,562.1,489.2,478.5,509.9,45.5
91.5,578.4,490.3,479.7,516.1,54.2
91.75,575.4,488.5,485.2,516.4,51.2
92.0,577.0,477.1,489.8,514.6,54.4
92.25,594.6,505.1,494.1,531.3,55.1
92.5,610.0,509.8,497.8,539.2,61.6
92.75,610.8,505.2,503.3,539.8,61.5
93.0,604.3,492.3,487.4,528.0,66.1
93.25,607.6,527.8,503.4,546.3,54.5
93.5,585.7,526.0,518.5,543.4,36.8
93.75,587.0,519.2,517.2,541.1,39.7
94.0,605.6,527.5,525.4,552.8,45.7
94.25,627.7,547.7,518.7,564.7,56.4
94.5,618.9,527.7,512.3,553.0,57.6
94.75,583.8,547.2,523.7,551.6,30.3
95.0,588.1,537.2,536.2,553.8,29.7
95.25,609.7,547.8,536.1,564.6,39.6
95.5,633.9,542.3,524.6,567.0,58.7
95.75,604.4,537.7,540.6,560.9,37.7
96.0,632.7,554.7,544.3,577.2,48.3
96.25,604.9,566.9,530.5,567.4,37.2
96.5,604.0,572.1,547.3,574.4,28.4
96.75,615.5,556.9,541.6,571.3,39.0
97.0,639.5,555.3,543.0,579.3,52.5
97.25,621.1,568.7,547.6,579.2,37.9
97.5,635.1,572.3,530.5,579.3,52.6
97.75,617.0,590.1,549.9,585.7,33.8
98.0,642.5,579.3,573.2,598.3,38.4
98.25,630.3,597.2,556.2,594.6,37.1
98.5,638.8,590.6,547.1,592.2,45.9
98.75,652.2,592.2,560.8,601.7,46.5
99.0,650.9,601.9,584.0,612.3,34.6
99.25,654.9,573.5,581.1,603.2,44.9
99.5,661.5,592.0,566.0,606.5,49.4
99.75,660.3,589.6,562.7,604.2,50.4
100.0,636.4,583.3,579.2,599.6,31.9
100.25,651.6,603.9,594.5,616.7,30.6
100.5,667.5,616.4,584.6,622.9,41.8
100.75,663.0,615.2,603.7,627.3,31.4
101.0,679.8,603.2,587.2,623.4,49.5
101.25,666.0,601.6,613.3,627.0,34.3
101.5,672.0,621.2,606.8,633.3,34.3
101.75,687.8,619.8,607.1,638.3,43.4
102.0,675.7,632.0,602.1,636.6,37.0
102.25,688.1,631.4,625.3,648.3,34.7
102.5,698.8,630.5,607.7,645.7,47.4
102.75,697.2,636.0,601.5,644.9,48.5
103.0,678.6,637.6,618.3,644.8,30.8
103.25,703.6,636.6,614.2,651.5,46.5
103.5,697.6,633.2,653.3,661.4,32.9
103.75,683.4,627.9,618.5,643.3,35.1
104.0,662.2,648.0,617.0,642.4,23.1
104.25,691.2,677.3,604.9,657.8,46.3
104.5,706.3,634.6,656.6,665.8,36.7
104.75,700.9,645.6,648.5,665.0,31.2
105.0,721.4,660.4,645.7,675.8,40.1
105.25,686.5,661.6,645.7,664.6,20.6
105.5,702.0,673.8,644.9,673.5,28.5
105.75,737.1,654.6,636.6,676.1,53.6
106.0,770.9,694.8,659.4,708.4,57.0
106.25,693.7,682.1,623.3,666.4,37.7
106.5,709.2,666.0,651.2,675.5,30.1
106.75,730.2,688.2,669.8,696.1,31.0
107.0,770.7,667.2,655.6,697.8,63.4
107.25,709.3,674.3,676.8,686.8,19.6
107.5,748.5,727.9,670.5,715.6,40.4
107.75,739.8,698.5,651.7,696.7,44.1
108.0,741.7,662.9,678.1,694.2,41.8
108.25,760.8,703.7,619.1,694.5,71.3
108.5,771.5,688.9,674.7,711.7,52.3
108.75,744.2,682.6,634.0,686.9,55.2
109.0,770.4,686.0,676.2,710.9,51.8
109.25,769.4,692.9,689.8,717.4,45.1
109.5,725.2,753.9,706.1,728.4,24.1
109.75,788.3,707.4,672.5,722.7,59.4
110.0,737.0,731.2,681.6,716.6,30.4
110.25,738.4,728.7,670.8,712.6,36.5
110.5,749.2,716.5,665.4,710.4,42.2
110.75,797.1,733.5,702.4,744.3,48.3
111.0,791.4,747.7,719.3,752.8,36.3
111.25,775.2,717.6,692.7,728.5,42.3
111.5,763.8,743.3,683.6,730.2,41.7
111.75,773.8,751.9,700.3,742.0,37.8
112.0,777.9,737.3,717.6,744.2,30.8
112.25,812.9,738.9,716.6,756.1,50.4
112.5,795.2,710.9,697.0,734.4,53.2
112.75,756.8,740.1,707.8,734.9,24.9
113.0,805.4,742.8,696.1,748.1,54.8
113.25,784.6,710.7,720.8,738.7,40.1
113.5,803.7,737.8,752.6,764.7,34.6
113.75,769.0,748.3,721.1,746.1,24.0
114.0,808.6,752.5,693.2,751.5,57.7
114.25,782.7,773.4,734.2,763.5,25.7
114.5,807.9,785.5,690.6,761.3,62.3
114.75,825.8,742.0,710.1,759.3,59.8
115.0,831.1,783.8,737.4,784.1,46.8
115.25,834.7,766.2,729.4,776.8,53.4
115.5,812.3,753.2,715.9,760.5,48.6
115.75,825.1,822.0,729.5,792.2,54.4
116.0,871.9,780.8,734.7,795.8,69.8
116.25,835.0,801.5,730.3,788.9,53.5
116.5,871.6,836.5,729.0,812.4,74.3
116.75,826.6,787.3,718.3,777.4,54.9
117.0,820.8,836.1,752.5,803.1,44.5
117.25,811.3,820.3,740.4,790.7,43.8
117.5,844.2,830.0,753.0,809.1,49.1
117.75,800.9,814.2,750.9,788.7,33.4
118.0,849.7,793.8,760.3,801.3,45.1
118.25,793.4,846.9,726.1,788.8,60.5
118.5,821.1,835.8,760.6,805.8,39.8
118.75,844.4,837.3,768.3,816.7,42.0
119.0,819.6,849.0,775.5,814.7,37.0
119.25,805.4,790.7,760.6,785.6,22.8
119.5,881.5,850.7,759.9,830.7,63.2
119.75,837.5,882.1,794.4,838.0,43.9
120.0,872.9,832.8,782.5,829.4,45.3
120.25,882.5,854.4,793.4,843.4,45.6
120.5,865.2,882.2,790.1,845.8,49.0
120.75,905.7,915.1,808.4,876.4,59.1
121.0,880.6,892.5,800.4,857.8,50.1
121.25,881.5,836.0,788.8,835.4,46.4
121.5,875.2,876.9,796.3,849.5,46.1
121.75,883.3,837.4,778.3,833.0,52.6
122.0,874.1,827.8,776.8,826.2,48.6
122.25,891.6,873.9,795.7,853.7,51.0
122.5,861.5,845.3,782.6,829.8,41.7
122.75,887.1,994.0,792.1,891.1,101.0
123.0,880.8,893.3,777.4,850.5,63.6
123.25,936.5,891.0,790.0,872.5,75.0
123.5,914.0,958.1,832.5,901.5,63.7
123.75,860.6,849.8,826.3,845.6,17.6
124.0,889.1,955.2,836.4,893.6,59.6
124.25,922.7,893.5,766.5,860.9,83.0
124.5,923.8,944.8,811.9,893.5,71.4
124.75,905.4,939.1,848.9,897.8,45.6
125.0,910.7,958.9,849.9,906.5,54.6
125.25,970.0,912.2,839.1,907.1,65.6
125.5,885.1,931.1,829.8,882.0,50.7
125.75,953.3,983.4,809.6,915.4,92.9
126.0,849.9,983.0,876.1,903.0,70.5
126.25,939.8,955.7,816.9,904.1,76.0
126.5,954.6,1003.7,823.0,927.1,93.4
126.75,926.3,923.7,878.6,909.5,26.8
127.0,975.7,978.3,874.5,942.8,59.2
127.25,927.0,970.1,901.4,932.8,34.7
127.5,977.1,1079.5,868.7,975.1,105.4
127.75,873.7,1008.6,844.0,908.8,87.7
128.0,898.6,966.9,812.2,892.6,77.5
128.25,935.6,1028.3,898.7,954.2,66.8
128.5,927.6,940.4,870.0,912.7,37.5
128.75,926.1,954.0,876.0,918.7,39.5
129.0,945.8,981.7,896.6,941.4,42.7
129.25,941.7,994.8,891.6,942.7,51.6
129.5,961.7,947.9,869.2,926.3,49.9
129.75,918.5,1104.9,887.9,970.4,117.5
130.0,943.7,981.5,932.9,952.7,25.5
130.25,939.5,959.2,880.4,926.4,41.0
130.5,977.1,1070.2,932.2,993.2,70.4
130.75,1045.5,975.5,896.9,972.6,74.3
131.0,971.9,1102.1,858.0,977.3,122.1
131.25,947.2,961.5,828.4,912.4,73.1
131.5,989.7,1079.3,906.2,991.7,86.6
131.75,996.6,1041.5,943.6,993.9,49.0
132.0,954.1,1089.2,917.8,987.0,90.3
132.25,1033.6,1005.5,893.3,977.5,74.2
132.5,939.6,1093.1,840.9,957.9,127.1
132.75,935.0,1059.2,909.3,967.8,80.2
133.0,946.5,1099.6,893.2,979.8,107.1
133.25,1036.3,1102.8,935.3,1024.8,84.4
133.5,932.2,1090.3,949.0,990.5,86.8
133.75,955.9,1104.4,886.1,982.1,111.5
134.0,1003.2,1104.5,905.8,1004.5,99.4
134.25,971.8,1051.7,927.0,983.5,63.2
134.5,994.2,1071.3,978.0,1014.5,49.9
134.75,1007.6,1121.9,987.1,1038.9,72.6
135.0,956.3,1050.3,948.9,985.2,56.5
135.25,978.9,1079.0,964.9,1007.6,62.2
135.5,992.3,1112.7,1038.5,1047.8,60.8
135.75,1016.6,1120.0,946.8,1027.8,87.2
136.0,1018.8,1114.5,980.6,1037.9,69.0
136.25,977.1,1095.5,903.5,992.0,96.9
136.5,1018.8,1200.7,1026.3,1081.9,102.9
136.75,1040.6,1027.7,1019.1,1029.1,10.8
137.0,1057.6,1140.0,957.1,1051.6,91.6
137.25,1059.1,1153.5,961.3,1058.0,96.1
137.5,971.6,1147.5,1029.3,1049.5,89.7
137.75,1093.8,1070.2,940.3,1034.8,82.7
138.0,1020.5,1127.6,1028.9,1059.0,59.6
138.25,1010.2,1189.9,1055.7,1085.3,93.4
138.5,1006.5,1251.0,1021.7,1093.0,137.0
138.75,1019.0,1187.3,1035.5,1080.6,92.8
139.0,1008.4,1168.9,1027.2,1068.2,87.8
139.25,1082.8,1136.4,941.2,1053.5,100.9
139.5,1024.8,1186.4,1048.5,1086.6,87.3
139.75,1044.1,1181.6,995.5,1073.7,96.5
140.0,1036.0,1319.6,1122.5,1159.4,145.4
140.25,1158.2,1138.8,1041.2,1112.7,62.7
140.5,1081.1,1119.7,1072.6,1091.1,25.1
140.75,1048.5,1122.7,1120.2,1097.1,42.1
141.0,1031.7,1222.4,1088.0,1114.0,98.0
141.25,1071.1,1350.9,1033.9,1152.0,173.3
141.5,1014.5,1238.1,1107.3,1120.0,112.3
141.75,1022.2,1228.8,1107.0,1119.3,103.8
142.0,1028.5,1260.0,1059.6,1116.0,125.6
142.25,1071.5,1220.4,1041.6,1111.1,95.8
142.5,1076.5,1238.6,1120.5,1145.2,83.8
142.75,1056.1,1323.7,1094.1,1158.0,144.8
143.0,1114.8,1274.7,1130.0,1173.2,88.3
143.25,1012.8,1207.9,1100.9,1107.2,97.7
143.5,1039.5,1215.4,1092.7,1115.9,90.2
143.75,1071.6,1211.6,1133.7,1139.0,70.2
144.0,1052.7,1362.1,1022.2,1145.7,188.1
144.25,1015.9,1329.4,1139.1,1161.5,157.9
144.5,1117.7,1331.1,1209.0,1219.3,107.0
144.75,1019.7,1391.0,1148.9,1186.5,188.5
145.0,1112.7,1232.1,1095.3,1146.7,74.5
145.25,1038.2,1454.6,1130.8,1207.9,218.6
145.5,1132.1,1243.7,1059.1,1145.0,93.0
145.75,1045.8,1396.3,1162.9,1201.7,178.4
146.0,1062.9,1418.5,1103.6,1195.0,194.6
146.25,1012.9,1477.7,1153.0,1214.5,238.4
146.5,1100.8,1429.6,1164.2,1231.5,174.5
146.75,1119.3,1428.5,1201.5,1249.8,160.2
147.0,1062.3,1418.3,1141.8,1207.5,186.8
147.25,1021.2,1476.3,1126.1,1207.9,238.3
147.5,1122.9,1532.2,1234.2,1296.5,211.6
147.75,1145.3,1297.7,1158.7,1200.6,84.4
148.0,1176.9,1456.6,1300.8,1311.5,140.2
148.25,1102.1,1395.5,1119.3,1205.6,164.7
148.5,1148.7,1400.1,1187.3,1245.4,135.4
148.75,1129.1,1470.7,1158.7,1252.8,189.3
149.0,1213.4,1474.9,1218.9,1302.4,149.4
149.25,1100.9,1493.8,1188.7,1261.1,206.2
149.5,1108.4,1554.5,1144.7,1269.2,247.8
149.75,1040.4,1506.9,1199.1,1248.8,237.2
150.0,1109.5,1431.8,1175.0,1238.8,170.4
150.25,1187.5,1439.1,1145.1,1257.2,159.0
150.5,1161.4,1561.9,1295.4,1339.6,203.9
150.75,1075.1,1313.6,1173.8,1187.5,119.9
151.0,1031.8,1395.4,1256.7,1228.0,183.5
151.25,1145.3,1538.4,1209.8,1297.8,210.8
151.5,1103.8,1501.3,1280.6,1295.2,199.1
151.75,1170.3,1526.0,1212.4,1302.9,194.4
152.0,1164.8,1604.9,1202.9,1324.2,243.9
152.25,1068.0,1492.6,1192.4,1251.0,218.3
152.5,1100.5,1413.2,1314.9,1276.2,159.9
152.75,1145.2,1570.5,1273.2,1329.6,218.2
153.0,1196.6,1491.5,1268.3,1318.8,153.8
153.25,1091.4,1487.2,1249.8,1276.1,199.2
153.5,1178.9,1683.7,1420.9,1427.8,252.5
153.75,1177.2,1414.9,1211.3,1267.8,128.5
154.0,1156.6,1460.4,1179.5,1265.5,169.2
154.25,1173.6,1631.2,1366.7,1390.5,229.8
154.5,1212.1,1615.5,1175.6,1334.4,244.2
154.75,1188.2,1492.4,1339.6,1340.1,152.1
155.0,1215.0,1423.6,1269.3,1302.6,108.3
155.25,1187.5,1514.6,1560.4,1420.9,203.3
155.5,1125.8,1679.8,1349.2,1384.9,278.8
155.75,1130.5,1366.4,1117.4,1204.8,140.1
156.0,1135.6,1660.1,1273.8,1356.5,271.8
156.25,1216.2,1534.8,1204.2,1318.4,187.5
156.5,1224.8,1624.5,1288.0,1379.1,214.9
156.75,1064.9,1619.7,1267.4,1317.3,280.8
157.0,1326.4,1345.4,1458.4,1376.7,71.4
157.25,1131.4,1519.2,1398.9,1349.8,198.5
157.5,1339.2,1820.4,1433.6,1531.1,255.0
157.75,1266.5,1599.3,1411.3,1425.7,166.9
158.0,1216.9,1628.1,1349.2,1398.1,209.9
158.25,1212.1,1589.9,1459.9,1420.6,191.9
158.5,1134.8,1317.8,1376.2,1276.2,125.9
158.75,1154.7,1645.6,1246.0,1348.8,261.1
159.0,1229.3,1500.5,1452.5,1394.1,144.7
159.25,1161.8,1632.2,1481.6,1425.2,240.2
159.5,1301.7,1710.6,1373.0,1461.8,218.4
159.75,1207.0,1545.8,1352.6,1368.5,170.0
160.0,1267.9,1624.9,1466.2,1453.0,178.9
160.25,1139.8,1678.9,1555.4,1458.0,282.5
160.5,1271.4,1740.6,1445.9,1486.0,237.2
160.75,1206.7,1676.0,1427.7,1436.8,234.8
161.0,1313.9,1784.8,1308.2,1469.0,273.5
161.25,1155.5,1610.6,1555.7,1440.6,248.4
161.5,1266.1,1687.5,1424.8,1459.4,212.8
161.75,1169.8,1651.3,1565.8,1462.3,256.9
162.0,1339.6,1572.5,1530.2,1480.8,124.1
162.25,1266.2,1453.6,1292.6,1337.4,101.4
162.5,1235.9,1681.2,1646.6,1521.2,247.7
162.75,1217.9,1573.7,1460.7,1417.4,181.8
163.0,1189.5,1677.5,1611.4,1492.8,264.8
163.25,1264.5,1596.1,1330.3,1397.0,175.6
163.5,1250.3,1664.4,1512.0,1475.6,209.5
163.75,1262.0,1691.5,1577.5,1510.3,222.5
164.0,1341.2,1665.6,1588.5,1531.8,169.5
164.25,1279.4,1640.5,1604.9,1508.3,199.0
164.5,1210.3,1846.0,1410.4,1488.9,325.0
164.75,1225.2,1638.0,1529.8,1464.3,214.0
165.0,1269.1,1675.0,1528.4,1490.9,205.5
165.25,1206.1,1750.0,1570.7,1508.9,277.1
165.5,1360.2,1876.9,1398.7,1545.2,287.9
165.75,1194.1,1516.8,1523.6,1411.5,188.3
166.0,1305.4,1816.8,1454.7,1525.6,263.0
166.25,1215.9,1763.6,1570.0,1516.5,277.8
166.5,1309.0,1665.1,1701.0,1558.3,216.7
166.75,1232.9,1815.2,1369.0,1472.4,304.6
167.0,1161.3,1735.0,1597.9,1498.1,299.6
167.25,1255.9,1641.8,1631.6,1509.8,219.9
167.5,1282.7,1574.1,1692.4,1516.4,210.9
167.75,1406.7,1731.0,1516.4,1551.4,165.0
168.0,1224.4,1919.1,1530.1,1557.9,348.2
168.25,1297.1,1459.5,1521.0,1425.9,115.6
168.5,1253.1,1812.0,1737.9,1601.0,303.6
168.75,1475.6,1521.7,1682.4,1559.9,108.5
169.0,1264.4,1714.4,1318.2,1432.3,245.8
169.25,1209.2,1948.8,1346.7,1501.6,393.4
169.5,1390.5,1632.1,1611.2,1544.6,133.8
169.75,1261.2,1842.7,1890.2,1664.7,350.2
170.0,1242.4,1734.4,1612.3,1529.7,256.2
170.25,1314.4,1688.2,1487.7,1496.8,187.1
170.5,1303.3,1728.2,1650.8,1560.8,226.3
170.75,1147.1,1715.2,1716.2,1526.1,328.3
171.0,1322.0,1785.8,1644.9,1584.2,237.8
171.25,1427.2,1549.7,1703.9,1560.3,138.7
171.5,1305.8,1939.4,1661.6,1635.6,317.6
171.75,1356.9,1673.0,1612.3,1547.4,167.7
172.0,1319.9,1711.0,1625.8,1552.2,205.7
172.25,1395.9,1744.6,1503.1,1547.9,178.6
172.5,1406.5,1708.0,1685.2,1599.9,167.9
172.75,1191.9,1708.1,1699.0,1533.0,295.5
173.0,1328.1,1615.9,1463.5,1469.2,144.0
173.25,1228.0,1760.6,1721.9,1570.1,297.0
173.5,1506.2,1816.0,1732.1,1684.7,160.2
173.75,1338.5,1537.3,1626.3,1500.7,147.4
174.0,1277.7,1764.6,1263.9,1435.4,285.2
174.25,1216.9,1635.2,1663.9,1505.3,250.2
174.5,1272.1,1801.8,1910.0,1661.3,341.4
174.75,1348.5,1777.6,1708.1,1611.4,230.3
175.0,1249.7,1695.9,1922.7,1622.8,342.4
175.25,1489.1,1592.2,1684.7,1588.7,97.9
175.5,1348.7,1565.2,1611.9,1508.6,140.4
175.75,1460.5,1596.1,1672.6,1576.4,107.4
176.0,1223.6,1616.2,1588.3,1476.1,219.1
176.25,1385.7,1542.1,1753.7,1560.5,184.7
176.5,1385.6,1655.3,1501.7,1514.2,135.3
176.75,1338.5,1578.6,1754.2,1557.1,208.7
177.0,1428.1,1591.0,1858.6,1625.9,217.4
177.25,1387.5,1631.8,1571.2,1530.1,127.2
177.5,1373.2,1581.0,1896.5,1616.9,263.5
177.75,1398.1,1502.9,1552.0,1484.3,78.6
178.0,1393.3,1608.2,1855.6,1619.0,231.4
178.25,1330.9,1538.2,1626.8,1498.6,151.8
178.5,1435.1,1564.1,1689.2,1562.8,127.0
178.75,1363.8,1660.8,1618.7,1547.8,160.7
179.0,1381.2,1657.7,1762.1,1600.3,196.9
179.25,1471.0,1621.1,1767.9,1620.0,148.4
179.5,1301.8,1617.3,1855.7,1591.6,277.8
179.75,1280.9,1548.6,1670.4,1500.0,199.3
180.0,1275.0,1535.0,1901.8,1570.6,314.9
180.25,1259.3,1425.9,1753.8,1479.7,251.6
180.5,1432.5,1540.3,1626.5,1533.1,97.2
180.75,1283.5,1495.2,1889.2,1556.0,307.4
181.0,1410.1,1551.9,1732.8,1564.9,161.8
181.25,1359.0,1501.0,1887.7,1582.6,273.6
181.5,1330.9,1491.9,1656.4,1493.1,162.8
181.75,1379.7,1444.2,1619.8,1481.3,124.2
182.0,1357.3,1439.3,1602.2,1466.3,124.7
182.25,1348.2,1438.3,1707.3,1497.9,186.8
182.5,1440.1,1434.1,1650.5,1508.2,123.2
182.75,1311.5,1412.2,1755.0,1492.9,232.5
183.0,1410.7,1399.0,1612.8,1474.2,120.2
183.25,1350.9,1386.6,1586.8,1441.5,127.2
183.5,1296.0,1410.5,1832.7,1513.0,282.7
183.75,1225.0,1319.4,1706.8,1417.1,255.3
184.0,1296.4,1325.3,1755.4,1459.0,257.1
184.25,1226.9,1337.6,1666.7,1410.4,228.7
184.5,1281.3,1298.4,1554.8,1378.1,153.2
184.75,1281.2,1412.9,1621.3,1438.5,171.5
185.0,1276.1,1342.0,1521.5,1379.9,127.0
185.25,1352.7,1232.4,1525.5,1370.2,147.3
185.5,1253.7,1261.4,1701.4,1405.5,256.3
185.75,1212.9,1286.5,1521.2,1340.2,161.0
186.0,1264.6,1240.3,1553.8,1352.9,174.4
186.25,1233.7,1210.0,1730.9,1391.5,294.2
186.5,1203.8,1187.4,1560.5,1317.2,210.8
186.75,1244.1,1170.9,1668.1,1361.0,268.5
187.0,1316.6,1211.1,1627.3,1385.0,216.4
187.25,1224.4,1179.4,1482.2,1295.3,163.4
187.5,1334.4,1153.0,1551.7,1346.3,199.6
187.75,1200.1,1149.9,1550.2,1300.1,218.1
188.0,1265.4,1207.4,1594.7,1355.8,208.9
188.25,1203.4,1087.1,1463.1,1251.2,192.5
188.5,1248.1,1059.1,1547.1,1284.8,246.1
188.75,1236.0,1052.2,1498.4,1262.2,224.3
189.0,1247.4,1092.1,1408.5,1249.3,158.2
189.25,1257.5,1025.4,1570.3,1284.4,273.4
189.5,1141.0,1002.4,1456.7,1200.0,232.9
189.75,1267.3,1023.5,1605.4,1298.7,292.2
190.0,1214.9,1026.9,1413.9,1218.6,193.5
190.25,1202.8,1001.8,1437.5,1214.0,218.0
190.5,1278.9,977.2,1402.8,1219.6,218.9
190.75,1190.1,997.9,1410.7,1199.6,206.6
191.0,1185.0,955.9,1416.8,1185.9,230.5
191.25,1174.4,924.8,1370.6,1156.6,223.4
191.5,1235.3,953.9,1344.8,1178.0,201.6
191.75,1152.7,912.1,1434.8,1166.5,261.6
192.0,1196.4,912.9,1369.8,1159.7,230.7
192.25,1065.8,887.3,1385.9,1113.0,252.6
192.5,1207.6,873.5,1270.3,1117.1,213.3
192.75,1232.2,868.0,1364.1,1154.8,257.0
193.0,1164.5,841.2,1318.9,1108.2,243.8
193.25,1119.2,855.2,1377.7,1117.4,261.3
193.5,1100.6,827.6,1281.5,1069.9,228.5
193.75,1158.0,803.6,1333.8,1098.5,270.1
194.0,1126.5,806.2,1271.8,1068.2,238.2
194.25,1181.9,782.0,1284.9,1082.9,265.7
194.5,1094.9,784.5,1226.9,1035.4,227.1
194.75,1132.0,770.5,1197.2,1033.2,229.9
195.0,1142.0,740.1,1238.2,1040.1,264.2
195.25,1069.9,728.8,1235.7,1011.5,258.5
195.5,1119.8,700.5,1196.4,1005.6,267.0
195.75,1147.7,686.6,1279.5,1037.9,311.3
196.0,1045.0,665.0,1178.9,963.0,266.6
196.25,1124.9,646.3,1142.0,971.1,281.4
196.5,1035.9,623.0,1179.8,946.2,289.0
196.75,1090.9,601.4,1131.8,941.4,295.1
197.0,1076.6,580.8,1162.1,939.9,313.9
197.25,1012.0,569.8,1175.3,919.0,313.3
197.5,1021.1,549.0,1123.0,897.7,306.3
197.75,1017.4,525.4,1133.8,892.2,322.9
198.0,975.9,508.8,1053.9,846.2,294.8
198.25,1023.9,493.7,1108.6,875.4,333.3
198.5,989.3,481.5,1088.8,853.2,325.8
198.75,1008.0,455.1,1100.6,854.6,349.0
199.0,978.8,433.2,1100.5,837.5,355.4
199.25,977.4,425.9,1093.2,832.2,356.6
199.5,964.4,409.1,1068.6,814.0,354.5
199.75,978.2,397.0,1058.1,811.1,360.8
200.0,957.8,387.3,1060.8,801.9,362.8
200.25,900.2,379.0,1091.4,790.2,368.7
200.5,952.1,353.2,1049.4,784.9,377.0
200.75,927.5,343.0,1087.8,786.1,392.0
201.0,999.0,330.9,1027.0,785.6,394.0
201.25,864.9,320.9,1015.1,733.7,365.2
201.5,902.8,305.9,1031.0,746.6,387.0
201.75,924.9,294.4,983.9,734.4,382.2
202.0,889.9,276.4,954.7,707.0,374.3
202.25,909.0,268.1,983.2,720.1,393.2
202.5,927.8,261.1,958.8,715.9,394.2
202.75,894.6,247.5,937.3,693.2,386.5
203.0,865.5,243.9,930.9,680.1,379.2
203.25,864.1,230.7,927.9,674.2,385.4
203.5,848.9,223.5,911.1,661.2,380.3
203.75,834.3,213.1,876.9,641.4,371.5
204.0,846.0,204.6,864.6,638.4,375.8
204.25,843.8,193.7,876.5,638.0,385.1
204.5,842.8,184.6,841.6,623.0,379.6
204.75,795.6,177.3,821.1,598.0,364.6
205.0,792.7,169.9,823.5,595.4,368.8
205.25,798.4,163.3,782.4,581.4,362.1
205.5,815.6,156.1,774.5,582.1,369.4
205.75,793.8,148.3,757.2,566.4,362.6
206.0,800.5,143.0,741.3,561.6,363.7
206.25,774.8,138.1,713.3,542.1,351.2
206.5,772.1,131.7,697.8,533.9,350.3
206.75,751.7,125.0,693.2,523.3,346.2
207.0,731.0,121.0,670.2,507.4,336.0
207.25,746.7,114.1,650.1,503.6,340.8
207.5,738.1,112.8,645.9,498.9,337.6
207.75,742.3,106.4,626.2,491.6,338.6
208.0,729.7,104.2,612.7,482.2,332.5
208.25,707.8,98.7,594.0,466.8,323.9
208.5,682.8,95.0,582.9,453.6,314.5
208.75,701.0,94.5,558.6,451.4,317.2
209.0,684.2,90.1,547.1,440.5,311.0
209.25,694.0,87.1,527.9,436.4,313.7
209.5,661.5,81.8,509.8,417.7,300.6
209.75,672.8,80.6,487.1,413.5,302.8
210.0,648.5,76.4,481.7,402.2,294.3
210.25,652.7,74.0,467.4,398.0,295.5
210.5,650.2,70.7,451.3,390.7,294.4
210.75,639.6,68.0,429.0,378.8,289.1
211.0,635.0,65.9,414.9,371.9,286.9
211.25,619.2,62.7,408.6,363.5,281.0
211.5,633.3,,398.7,516.0,165.9
211.75,624.2,,381.3,502.7,171.7
212.0,598.5,,371.2,484.8,160.8
212.25,600.4,,356.3,478.4,172.6
212.5,595.1,,351.3,473.2,172.4
212.75,574.6,,337.1,455.9,167.9
213.0,566.2,,330.1,448.1,167.0
213.25,553.3,,316.8,435.0,167.2
213.5,562.2,,304.2,433.2,182.4
213.75,561.2,,289.6,425.4,192.0
214.0,551.3,,277.7,414.5,193.5
214.25,550.3,,268.0,409.2,199.6
214.5,540.6,,259.1,399.8,199.1
214.75,539.7,,245.3,392.5,208.2
215.0,538.7,,231.6,385.2,217.1
215.25,517.7,,222.1,369.9,209.1
215.5,522.0,,214.6,368.3,217.4
215.75,500.9,,203.7,352.3,210.1
216.0,499.3,,194.4,346.9,215.6
216.25,499.1,,185.1,342.1,222.1
216.5,481.8,,178.8,330.3,214.3
216.75,475.6,,173.1,324.3,213.9
217.0,472.6,,161.5,317.0,219.9
217.25,468.7,,,468.7,
217.5,464.3,,,464.3,
217.75,439.9,,,439.9,
218.0,441.0,,,441.0,
218.25,429.7,,,429.7,
218.5,427.0,,,427.0,
218.75,421.1,,,421.1,
219.0,413.1,,,413.1,
219.25,413.7,,,413.7,
219.5,395.5,,,395.5,
219.75,395.3,,,395.3,
220.0,394.8,,,394.8,
220.25,385.8,,,385.8,
220.5,376.8,,,376.8,
220.75,365.8,,,365.8,
221.0,369.7,,,369.7,
221.25,353.6,,,353.6,
221.5,359.2,,,359.2,
221.75,351.1,,,351.1,
222.0,344.2,,,344.2,
222.25,341.0,,,341.0,
222.5,339.2,,,339.2,
222.75,332.4,,,332.4,
223.0,327.8,,,327.8,
223.25,323.8,,,323.8,
223.5,323.7,,,323.7,
223.75,316.5,,,316.5,
224.0,312.2,,,312.2,
224.25,307.7,,,307.7,
224.5,310.6,,,310.6,
224.75,305.7,,,305.7,
225.0,295.8,,,295.8,
225.25,292.6,,,292.6,
225.5,290.4,,,290.4,
225.75,284.7,,,284.7,
226.0,284.1,,,284.1,
226.25,272.3,,,272.3,
226.5,269.2,,,269.2,
226.75,260.9,,,260.9,
227.0,255.6,,,255.6,
227.25,255.8,,,255.8,
227.5,248.3,,,248.3,
227.75,244.9,,,244.9,
228.0,233.3,,,233.3,
228.25,226.2,,,226.2,
228.5,219.2,,,219.2,
228.75,214.2,,,214.2,
229.0,207.0,,,207.0,
229.25,201.8,,,201.8,
229.5,196.7,,,196.7,
229.75,185.1,,,185.1,
230.0,181.9,,,181.9,
230.25,177.7,,,177.7,
230.5,167.6,,,167.6,
230.75,161.8,,,161.8,
231.0,158.3,,,158.3,
231.25,152.5,,,152.5,
231.5,144.9,,,144.9,
231.75,141.7,,,141.7,
232.0,138.1,,,138.1,
232.25,132.4,,,132.4,
232.5,127.7,,,127.7,
232.75,124.7,,,124.7,
233.0,119.6,,,119.6,
233.25,117.3,,,117.3,
233.5,113.6,,,113.6,
233.75,107.8,,,107.8,
234.0,104.8,,,104.8,
234.25,102.2,,,102.2,
234.5,98.3,,,98.3,
234.75,95.1,,,95.1,
235.0,93.0,,,93.0,
235.25,90.0,,,90.0,
235.5,86.6,,,86.6,
235.75,84.2,,,84.2,
236.0,81.8,,,81.8,
236.25,80.3,,,80.3,
236.5,76.4,,,76.4,
236.75,74.1,,,74.1,
237.0,72.0,,,72.0,
237.25,68.8,,,68.8,
237.5,66.8,,,66.8,
237.75,64.9,,,64.9,
238.0,62.3,,,62.3,
238.25,59.7,,,59.7,
238.5,57.0,,,57.0,
238.75,56.0,,,56.0,
239.0,54.5,,,54.5,
239.25,51.3,,,51.3,
239.5,49.0,,,49.0,
239.75,48.5,,,48.5,
240.0,46.5,,,46.5,
240.25,45.0,,,45.0,
240.5,43.1,,,43.1,
240.75,41.0,,,41.0,