File: 01_Data/Masonite_Board/Cone/Masonite_Cone_HF50Scan_230105_R4.csv
Names,Time,Stack TC,Smoke TC,Exh Press,Smoke Comp,Smoke Meas,CO Meter,CO2 Meter,O2 Meter,Sample Mass,Ext Coeff,Start Test,Flame Verif
Chan Gain,,500,500,1,1,1,1,1,1,1,1,1.0,1.0
Offset,,0,0,0.131978,0,0,0,0,0,0,0,0.0,0.0
Gain,,1,1,25.011,13.4278,14.1503,1,1,1,1.00089,1.02125,1.0,1.0
Units,sec,C,C,Pa,%,%,%,%,%,g,/m,,
Baseline,,32.2387,33.0704,156.357,98.9645,99.0801,0.000796806,0.0467086,20.9384,-449.165,-0.0104518,,
4,0.75,31.0212,31.7319,159.396,100.079,100.117,0.000774292,0.0574365,20.9315,174.666,-0.00338274,0.0,0.0
8,1.75,31.5019,31.7813,154.111,100.123,100.208,0.000802976,0.0582429,20.9297,174.686,-0.00760521,0.0,0.0
12,2.75,31.2373,31.9538,155.746,100.162,100.244,0.000821931,0.0587354,20.9277,174.636,-0.00728991,0.0,0.0
16,3.75,31.0655,31.8798,155.159,100.195,100.265,0.000831357,0.0587463,20.9266,174.626,-0.00621264,0.0,0.0
20,4.75,31.1175,32.1961,154.473,100.22,100.294,0.000822138,0.0585427,20.9257,174.626,-0.0065995,0.0,0.0
24,5.75,30.9964,31.4863,154.912,100.258,100.345,0.000807123,0.058108,20.925,174.545,-0.00785746,0.0,0.0
28,6.75,30.7725,31.5825,157.13,100.303,100.255,0.000795968,0.0577191,20.9246,174.505,0.00430588,0.0,0.0
32,7.75,30.8163,31.8666,157.297,100.337,100.356,0.000791662,0.0573608,20.9243,174.505,-0.00168427,0.0,0.0
36,8.75,31.2543,31.7065,160.352,100.367,100.392,0.000800046,0.0570485,20.9247,174.465,-0.00217401,0.0,0.0
40,9.75,31.1876,31.5783,158.45,100.406,100.317,0.000821714,0.0566633,20.9251,174.465,0.00797167,0.0,0.0
44,10.75,31.3486,31.8308,158.03,100.423,100.335,0.000844963,0.056228,20.9259,174.455,0.00784897,0.0,0.0
48,11.75,31.4352,32.1576,158.716,100.457,100.254,0.000886735,0.0558933,20.9267,174.415,0.0180968,0.0,0.0
52,12.75,31.6772,31.8649,154.883,100.473,100.382,0.000926273,0.0553113,20.9272,174.355,0.00814452,0.0,0.0
56,13.75,31.4401,31.6474,156.608,100.523,100.16,0.000962463,0.0545178,20.9273,174.335,0.032356,0.0,0.0
60,14.75,31.352,32.1886,161.675,100.539,100.249,0.00100363,0.0536628,20.9273,174.235,0.0258267,0.0,0.0
64,15.75,31.159,32.0633,157.094,100.564,100.155,0.00105682,0.0528448,20.9276,174.275,0.036505,0.0,0.0
68,16.75,31.3173,31.789,154.752,100.588,100.089,0.00111099,0.0520245,20.9286,174.295,0.04461,0.0,0.0
72,17.75,31.4846,32.0734,150.913,100.602,100.179,0.00115156,0.0511672,20.9298,174.275,0.0377386,0.0,0.0
76,18.75,31.2855,32.2467,150.563,100.628,100.071,0.00117817,0.0504115,20.9306,174.245,0.0497325,0.0,0.0
80,19.75,31.0738,32.2785,151.623,100.648,99.9499,0.00120462,0.0497526,20.9317,174.205,0.0623158,0.0,0.0
84,20.75,31.2686,31.9551,154.048,100.653,100.022,0.00124146,0.0491522,20.9333,174.155,0.0563654,0.0,0.0
88,21.75,31.7513,31.9525,155.405,100.671,99.9111,0.00127087,0.0487036,20.9345,174.115,0.0678786,0.0,0.0
92,22.75,31.3666,32.4614,156.695,100.684,99.7953,0.00124767,0.048358,20.9353,174.065,0.0793919,0.0,0.0
96,23.75,31.0769,32.3341,154.858,100.697,99.9525,0.00117148,0.0481825,20.9358,174.035,0.0664594,0.0,0.0
100,24.75,31.2438,32.2427,156.015,100.703,99.864,0.00109447,0.0482293,20.9361,174.025,0.074944,0.0,0.0
104,25.75,31.5787,32.2049,155.268,100.705,99.7306,0.00101053,0.048488,20.9363,174.015,0.087068,0.0,0.0
108,26.75,31.692,32.2056,154.833,100.718,99.6058,0.000946491,0.0490343,20.9365,174.005,0.0994882,0.0,0.0
112,27.75,31.2762,32.338,150.212,100.716,99.4417,0.000909978,0.0498749,20.9366,173.975,0.114113,0.0,0.0
116,28.75,31.0592,31.899,160.744,100.719,99.3782,0.000893974,0.0506681,20.9364,173.915,0.120016,0.0,0.0
120,29.75,31.3227,32.4175,155.718,100.717,99.5928,0.000894077,0.0519602,20.9354,173.905,0.10058,0.0,0.0
124,30.75,31.2499,32.0896,155.771,100.728,99.5185,0.000907603,0.0529882,20.9342,173.815,0.108249,0.0,0.0
128,31.75,31.1252,32.2052,153.645,100.721,99.348,0.000933687,0.0534824,20.9329,173.755,0.122924,0.0,0.0
132,32.75,31.5055,31.6197,155.495,100.712,99.0996,0.000985818,0.0535508,20.9321,173.705,0.144539,0.0,0.0
136,33.75,31.4091,32.2787,154.476,100.714,98.9839,0.0010582,0.0532987,20.9316,173.675,0.15519,0.0,0.0
140,34.75,31.9737,31.9782,159.223,100.701,98.7287,0.00110215,0.0528322,20.9313,173.655,0.177224,0.0,0.0
144,35.75,31.8365,32.4311,155.357,100.691,98.2986,0.00111587,0.0522433,20.9311,173.625,0.215387,0.0,0.0
148,36.75,31.5998,31.9302,155.611,100.681,98.3599,0.00110514,0.0516265,20.9314,173.575,0.208963,0.0,0.0
152,37.75,31.6214,32.3903,154.998,100.689,98.5175,0.00108321,0.0511639,20.9325,173.525,0.195347,0.0,0.0
156,38.75,31.6722,32.2639,157.391,100.662,98.0853,0.00106596,0.0508968,20.9335,173.485,0.232261,0.0,0.0
160,39.75,31.126,32.5033,151.951,100.651,97.9281,0.00106209,0.0506959,20.9341,173.434,0.245717,0.0,0.0
164,40.75,31.8757,32.1129,154.882,100.636,97.5096,0.00107724,0.0505636,20.9344,173.324,0.282692,0.0,0.0
168,41.75,31.4654,32.2795,156.92,100.623,97.1335,0.00113125,0.0503854,20.9347,173.264,0.316146,0.0,0.0
172,42.75,31.6415,32.1762,156.226,100.601,96.9448,0.00119856,0.0502981,20.9349,173.224,0.331634,0.0,0.0
176,43.75,31.7221,32.3018,155.929,100.599,99.6269,0.00127645,0.0502943,20.935,173.164,0.0869728,0.0,1.0
180,44.75,31.3902,32.2343,146.505,100.605,100.537,0.0013388,0.0503487,20.9351,173.094,0.00607653,0.0,1.0
184,45.75,32.2537,32.9186,146.526,100.544,100.476,0.00137722,0.050439,20.9352,173.034,0.00606586,0.0,1.0
188,46.75,32.5179,32.9756,150.089,100.539,100.449,0.00138675,0.050524,20.935,172.914,0.00805276,0.0,1.0
192,47.75,32.0915,32.6857,146.924,100.51,99.7707,0.00137199,0.0506569,20.9345,172.734,0.0661657,0.0,1.0
196,48.75,32.6937,33.0806,151.03,100.487,99.4801,0.00135675,0.0508726,20.9346,172.624,0.0902529,0.0,0.0
200,49.75,33.2475,33.246,144.465,100.467,99.0457,0.00136366,0.051297,20.934,172.464,0.12767,0.0,0.0
204,50.75,33.468,34.0299,142.208,100.439,98.9632,0.00140637,0.0529907,20.9336,172.323,0.132647,0.0,0.0
208,51.75,34.2944,34.0547,142.837,100.411,98.5564,0.00145554,0.0541019,20.9334,172.193,0.167025,0.0,0.0
212,52.75,34.0951,34.5819,143.949,100.387,98.2865,0.00159239,0.0648809,20.9333,172.083,0.189433,0.0,0.0
216,53.75,35.0341,34.811,136.99,100.365,98.8349,0.00180893,0.0831474,20.9341,171.913,0.137647,0.0,0.0
220,54.75,35.5848,35.872,140.629,100.339,98.4826,0.00205355,0.107302,20.9333,171.763,0.167266,0.0,0.0
224,55.75,36.2642,35.9727,137.278,100.316,98.1673,0.00231136,0.134735,20.9262,171.633,0.193937,0.0,0.0
228,56.75,37.0668,36.2614,133.399,100.307,98.0425,0.00253036,0.166012,20.9034,171.473,0.204529,0.0,0.0
232,57.75,37.5979,37.0228,138.093,100.284,98.4791,0.00271485,0.197016,20.8669,171.343,0.162713,0.0,0.0
236,58.75,38.3233,38.0203,142.488,100.26,98.4769,0.0028858,0.227539,20.8271,171.122,0.160749,0.0,0.0
240,59.75,38.6422,38.3303,138.89,100.239,98.0637,0.002994,0.249401,20.8003,170.952,0.196555,0.0,0.0
244,60.75,39.4598,38.8216,135.604,100.231,97.4181,0.00316093,0.277288,20.7674,170.762,0.25503,0.0,0.0
248,61.75,39.6389,39.6583,135.189,100.189,96.8969,0.00329969,0.30301,20.7347,170.582,0.29928,0.0,0.0
252,62.75,40.5804,40.5804,134.879,100.171,97.4742,0.00342154,0.3265,20.7027,170.362,0.244483,0.0,0.0
256,63.75,41.0641,41.1058,138.579,100.149,97.0325,0.00352092,0.348216,20.669,170.222,0.283161,0.0,0.0
260,64.75,41.2567,42.0155,135.15,100.122,97.1499,0.00359419,0.367608,20.6398,170.041,0.269976,0.0,0.0
264,65.75,42.8725,41.9326,133.215,100.102,96.5773,0.00362793,0.383426,20.6126,169.861,0.321138,0.0,0.0
268,66.75,43.0246,43.3619,133.576,100.069,97.1054,0.00362484,0.401946,20.5908,169.641,0.269348,0.0,0.0
272,67.75,44.2937,43.5972,130.091,100.067,96.7462,0.0035917,0.421025,20.5692,169.451,0.302336,0.0,0.0
276,68.75,44.5289,44.8436,131.84,100.042,96.5367,0.00357132,0.438606,20.5469,169.231,0.319475,0.0,0.0
280,69.75,45.2693,45.6313,130.52,100.038,96.1662,0.00358532,0.456206,20.5236,169.021,0.353593,0.0,0.0
284,70.75,46.1476,46.1135,131.648,100.006,95.4999,0.00366663,0.473777,20.4986,168.79,0.413054,0.0,0.0
288,71.75,47.1288,46.3596,132.185,99.9948,94.97,0.00376708,0.490858,20.4746,168.56,0.461868,0.0,0.0
292,72.75,47.5939,47.6428,131.351,99.9748,95.4697,0.00385134,0.508323,20.4543,168.36,0.413064,0.0,0.0
296,73.75,48.8212,47.9434,132.631,99.9539,95.1605,0.00394308,0.525365,20.4353,168.14,0.440251,0.0,0.0
300,74.75,49.3714,49.0326,130.468,99.951,95.6653,0.00401468,0.539956,20.4214,167.96,0.392596,0.0,0.0
304,75.75,49.8734,49.9754,124.284,99.9367,95.2317,0.00406165,0.557654,20.405,167.749,0.432003,0.0,0.0
308,76.75,50.3782,51.1615,130.425,99.924,95.7249,0.00408051,0.570638,20.3934,167.529,0.384593,0.0,0.0
312,77.75,51.3027,51.6232,134.592,99.9157,95.1747,0.00410935,0.589069,20.3741,167.329,0.435492,0.0,0.0
316,78.75,51.9562,52.7756,126.002,99.9076,95.0054,0.00415565,0.607409,20.3515,167.059,0.450706,0.0,0.0
320,79.75,53.1707,53.2017,125.799,99.8961,94.1914,0.004213,0.623743,20.3258,166.829,0.526762,0.0,0.0
324,80.75,53.8265,54.0906,125.534,99.8826,95.1665,0.00429194,0.64134,20.3047,166.578,0.433289,0.0,0.0
328,81.75,54.6521,54.7229,126.914,99.9252,95.0914,0.00440163,0.658555,20.2837,166.288,0.444186,0.0,0.0
332,82.75,55.3696,55.7778,123.813,99.9637,94.1599,0.00451943,0.676021,20.2637,166.018,0.535822,0.0,0.0
336,83.75,56.3287,56.5821,129.22,100.015,94.1578,0.00467927,0.693948,20.2442,165.798,0.54058,0.0,0.0
340,84.75,57.0446,57.5202,121.389,100.046,94.0459,0.00489088,0.710224,20.2217,165.557,0.554017,0.0,0.0
344,85.75,58.184,58.3194,124.105,100.077,93.5955,0.00510781,0.727154,20.2019,165.337,0.599812,0.0,0.0
348,86.75,58.7181,59.1787,122.823,100.101,93.6473,0.00534667,0.741281,20.1827,165.067,0.597017,0.0,0.0
352,87.75,59.5113,60.357,129.096,100.13,92.3864,0.00551609,0.7594,20.1662,164.817,0.7211,0.0,0.0
356,88.75,60.3457,61.2661,116.527,100.149,92.7435,0.00566024,0.777074,20.1486,164.497,0.688223,0.0,0.0
360,89.75,61.3329,62.657,123.475,100.187,92.1407,0.0057644,0.793764,20.1291,164.176,0.750052,0.0,0.0
364,90.75,61.9688,63.4307,125.647,100.212,91.2584,0.00585219,0.812442,20.1066,163.876,0.838439,0.0,0.0
368,91.75,63.1146,64.3734,116.363,100.24,92.2883,0.00594277,0.83357,20.0815,163.626,0.740393,0.0,0.0
372,92.75,63.8046,65.2539,125.534,100.253,92.4274,0.00605162,0.855456,20.0561,163.325,0.728077,0.0,0.0
376,93.75,65.0312,66.3641,117.537,100.28,92.5017,0.00616389,0.877249,20.0299,163.045,0.723334,0.0,0.0
380,94.75,66.1154,67.4245,120.32,100.296,92.4252,0.00631829,0.896877,20.0038,162.775,0.732167,0.0,0.0
384,95.75,66.9102,68.3042,116.38,100.321,91.8738,0.00647965,0.914517,19.982,162.515,0.787936,0.0,0.0
388,96.75,67.9173,69.5193,124.476,100.335,91.9722,0.00665913,0.936211,19.9599,162.194,0.779659,0.0,0.0
392,97.75,68.784,70.5002,123.822,100.351,91.6769,0.00684163,0.959064,19.9403,161.844,0.809865,0.0,0.0
396,98.75,69.7614,71.5567,120.985,100.37,91.6808,0.00700569,0.976376,19.9232,161.504,0.811167,0.0,0.0
400,99.75,70.8115,72.7106,115.692,100.388,91.977,0.00713889,1.0005,19.9006,161.184,0.783878,0.0,0.0
404,100.75,71.4313,73.4609,118.877,100.408,90.6811,0.00724212,1.02364,19.8757,160.913,0.912825,0.0,0.0
408,101.75,72.3246,74.885,120.363,100.421,89.6637,0.00733329,1.0433,19.8502,160.593,1.015,0.0,0.0
412,102.75,72.7935,75.3773,119.336,100.444,91.1738,0.00745146,1.06045,19.8231,160.323,0.867461,0.0,0.0
416,103.75,74.2814,76.5543,120.665,100.442,90.0143,0.00757508,1.07751,19.7941,159.993,0.981897,0.0,0.0
420,104.75,74.9165,77.7731,125.765,100.454,91.0563,0.00771889,1.09424,19.7706,159.682,0.879922,0.0,0.0
424,105.75,75.9802,78.5964,117.989,100.461,92.0115,0.00785509,1.1103,19.7471,159.292,0.78702,0.0,0.0
428,106.75,76.8251,79.7217,117.455,100.465,91.8531,0.00797743,1.12503,19.7247,158.922,0.802829,0.0,0.0
432,107.75,77.8437,80.6539,116.764,100.47,91.1682,0.00812162,1.13942,19.7054,158.611,0.870351,0.0,0.0
436,108.75,78.7754,81.539,117.941,100.473,91.0075,0.00826831,1.15698,19.6901,158.201,0.886406,0.0,0.0
440,109.75,79.0686,82.7098,115.496,100.48,90.8482,0.00849212,1.17517,19.6737,157.871,0.902726,0.0,0.0
444,110.75,80.5322,83.5505,117.191,100.481,90.732,0.00876375,1.19344,19.6548,157.5,0.914261,0.0,0.0
448,111.75,81.3739,84.6877,113.254,100.487,92.3704,0.00905751,1.21392,19.6337,157.19,0.754525,0.0,0.0
452,112.75,82.3218,85.5966,112.31,100.489,91.1526,0.00932169,1.23569,19.6109,156.8,0.873596,0.0,0.0
456,113.75,82.8711,86.5296,115.343,100.484,92.0845,0.00956068,1.25753,19.5861,156.499,0.782,0.0,0.0
460,114.75,83.5889,87.6858,119.831,100.49,91.1189,0.00971044,1.27506,19.5601,156.149,0.876943,0.0,0.0
464,115.75,84.3734,88.6224,113.579,100.489,91.6985,0.00976854,1.29394,19.5385,155.789,0.820111,0.0,0.0
468,116.75,85.3953,89.2458,115.15,100.485,93.4647,0.00975982,1.31281,19.5159,155.358,0.648768,0.0,0.0
472,117.75,86.0039,90.5387,123.906,100.479,92.6075,0.00971376,1.33302,19.496,154.978,0.730832,0.0,0.0
476,118.75,86.7622,90.8289,115.077,100.482,92.4745,0.00967026,1.35103,19.4765,154.618,0.743963,0.0,0.0
480,119.75,86.8726,92.4664,108.907,100.477,92.6031,0.00965108,1.36719,19.4543,154.227,0.731067,0.0,0.0
484,120.75,88.2095,92.6283,119.921,100.465,92.047,0.00965723,1.38035,19.4302,153.947,0.783975,0.0,0.0
488,121.75,88.4133,93.7053,112.622,100.46,91.3215,0.0096847,1.38988,19.4106,153.667,0.854423,0.0,0.0
492,122.75,89.0618,94.4492,107.624,100.459,92.0124,0.00970272,1.39697,19.3932,153.407,0.78679,0.0,0.0
496,123.75,89.736,95.0305,121.253,100.446,92.3449,0.00977549,1.40277,19.3802,153.076,0.753305,0.0,0.0
500,124.75,90.3412,95.852,114.817,100.445,91.3569,0.00986545,1.40981,19.3693,152.756,0.849597,0.0,0.0
504,125.75,91.0238,96.4093,109.351,100.439,90.0083,0.00996908,1.41525,19.3616,152.426,0.982315,0.0,0.0
508,126.75,91.281,96.7526,121.33,100.43,89.5462,0.0100746,1.41777,19.3522,152.105,1.02755,0.0,0.0
512,127.75,91.3868,97.3264,114.341,100.418,90.5347,0.010168,1.4167,19.3448,151.785,0.92814,0.0,0.0
516,128.75,91.7054,98.0392,122.123,100.412,91.7606,0.0102449,1.41141,19.3399,151.465,0.807095,0.0,0.0
520,129.75,92.0246,98.4904,122.307,100.401,90.5947,0.0102897,1.39892,19.3367,151.215,0.920703,0.0,0.0
524,130.75,92.4138,98.5577,123.658,100.388,91.4562,0.0102821,1.38545,19.3371,150.944,0.834747,0.0,0.0
528,131.75,92.3072,99.0133,121.765,100.385,90.1274,0.0102183,1.36611,19.3437,150.734,0.965563,0.0,0.0
532,132.75,92.5538,99.759,122.48,100.37,92.2175,0.0101219,1.34748,19.3577,150.484,0.758909,0.0,0.0
536,133.75,92.9157,99.6187,127.558,100.36,92.338,0.0100271,1.32647,19.3726,150.234,0.746298,0.0,0.0
540,134.75,93.3257,99.9708,121.398,100.355,90.6495,0.00995313,1.30328,19.3924,149.924,0.911186,0.0,0.0
544,135.75,92.9762,100.105,120.915,100.351,92.2508,0.00992103,1.27886,19.4122,149.593,0.75396,0.0,0.0
548,136.75,93.2831,100.133,120.532,100.344,91.7516,0.00994617,1.25311,19.4315,149.323,0.801947,0.0,0.0
552,137.75,93.6058,100.339,124.058,100.325,92.5556,0.00998158,1.22643,19.4578,149.093,0.722062,0.0,0.0
556,138.75,93.1039,100.622,118.338,100.326,91.7637,0.00999778,1.1972,19.4852,148.833,0.79912,0.0,0.0
560,139.75,93.3227,100.532,120.186,100.31,92.5215,0.00995869,1.16862,19.5147,148.602,0.724047,0.0,0.0
564,140.75,93.2758,101.018,126.14,100.303,91.1755,0.00988483,1.13934,19.5452,148.422,0.854673,0.0,0.0
568,141.75,93.4875,101.143,120.235,100.283,91.1928,0.00973377,1.11179,19.5749,148.162,0.851182,0.0,0.0
572,142.75,93.4463,100.854,123.433,100.271,90.1646,0.00960148,1.08938,19.6064,147.892,0.951773,0.0,0.0
576,143.75,93.0821,101.063,125.946,100.263,91.7663,0.00950178,1.0712,19.6355,147.601,0.793266,0.0,0.0
580,144.75,93.6683,100.871,124.078,100.246,92.7081,0.00945502,1.05607,19.6672,147.311,0.700328,0.0,0.0
584,145.75,93.385,100.757,124.029,100.238,92.6843,0.00945241,1.04232,19.6927,147.031,0.701891,0.0,0.0
588,146.75,92.8163,100.826,129.375,100.219,92.921,0.00946698,1.0278,19.7202,146.801,0.677289,0.0,0.0
592,147.75,93.0274,100.532,131.267,100.204,90.8102,0.00949898,1.01707,19.7403,146.601,0.881852,0.0,0.0
596,148.75,92.5021,101.094,125.614,100.196,88.569,0.00956447,1.0066,19.7572,146.47,1.10502,0.0,0.0
600,149.75,92.2543,100.486,123.494,100.179,87.476,0.00963526,0.999327,19.769,146.24,1.21472,0.0,0.0
604,150.75,92.3835,100.303,131.223,100.176,92.2689,0.00970007,0.987571,19.7811,146.07,0.736565,0.0,0.0
608,151.75,91.4837,100.327,132.091,100.157,95.1916,0.00972321,0.974972,19.7931,145.95,0.455522,0.0,0.0
612,152.75,91.3574,99.5432,140.044,100.148,97.669,0.00965301,0.963825,19.8073,145.78,0.224551,0.0,0.0
616,153.75,90.5603,99.1448,141.69,100.143,98.8125,0.00944773,0.953008,19.8231,145.69,0.1198,0.0,0.0
620,154.75,89.5798,98.4884,143.82,100.127,100.359,0.00917564,0.941029,19.8382,145.67,-0.02074,0.0,0.0
624,155.75,88.4274,98.1166,139.37,100.126,100.504,0.00878299,0.924804,19.8495,145.67,-0.0336813,0.0,0.0
628,156.75,88.0137,96.9818,149.839,100.114,100.66,0.00838607,0.905678,19.862,145.65,-0.0487038,0.0,0.0
632,157.75,87.0397,96.0252,145.47,100.088,100.915,0.00807266,0.88245,19.8746,145.65,-0.0737359,0.0,0.0
636,158.75,86.2818,95.4344,147.822,100.085,100.852,0.00784382,0.842734,19.8893,145.6,-0.0683571,0.0,0.0
640,159.75,85.0188,94.8126,147.489,100.077,100.806,0.00767161,0.783697,19.9057,145.54,-0.0650234,0.0,0.0
644,160.75,83.971,93.5996,149.832,100.061,100.703,0.00749356,0.715813,19.9406,145.53,-0.0572763,0.0,0.0
648,161.75,83.3114,92.782,150.995,100.051,100.923,0.00726052,0.638341,19.9995,145.46,-0.0777655,0.0,0.0
652,162.75,82.0705,91.8954,151.154,100.038,100.73,0.006942,0.56035,20.0821,145.42,-0.0617141,0.0,0.0
656,163.75,81.1823,90.8504,149.495,100.02,100.83,0.00660067,0.490629,20.167,145.389,-0.0723094,0.0,0.0
660,164.75,80.3765,90.1104,149.35,100.002,100.747,0.00611725,0.42493,20.2506,145.369,-0.0664805,0.0,0.0
664,165.75,79.4996,89.4876,148.148,99.9866,100.64,0.0056787,0.370828,20.3388,145.379,-0.0583856,0.0,0.0
668,166.75,79.1259,88.2722,150.629,99.9932,100.786,0.00532693,0.324571,20.4213,145.42,-0.0707813,0.0,0.0
672,167.75,78.4644,87.0453,148.839,99.9641,100.749,0.00508242,0.284419,20.4992,145.4,-0.0700865,0.0,0.0
676,168.75,77.4631,87.1382,146.752,99.9424,100.799,0.00494943,0.255014,20.5593,145.379,-0.0764476,0.0,0.0
680,169.75,76.3691,85.9617,150.655,99.9203,100.731,0.00489145,0.230132,20.6085,145.299,-0.0723654,0.0,0.0
684,170.75,75.9007,85.3869,150.579,99.9055,100.711,0.00492481,0.210951,20.6479,145.229,-0.0719595,0.0,0.0
688,171.75,75.3404,84.4031,148.987,99.8891,100.631,0.00505325,0.195065,20.6801,145.209,-0.066282,0.0,0.0
692,172.75,74.604,83.4532,146.21,99.8731,100.65,0.0052295,0.182287,20.7088,145.249,-0.0694069,0.0,0.0
696,173.75,73.8351,82.8465,147.647,99.8588,100.567,0.00541288,0.17242,20.734,145.259,-0.0633105,0.0,0.0
700,174.75,72.8433,82.4748,151.703,99.8416,100.517,0.00557223,0.164681,20.7542,145.229,-0.060391,0.0,0.0
704,175.75,72.9415,81.2906,153.063,99.8215,100.535,0.00572153,0.158529,20.7709,145.209,-0.0637714,0.0,0.0
708,176.75,71.8131,80.9451,152.88,99.8108,100.59,0.00585043,0.153553,20.7841,145.189,-0.0696517,0.0,0.0
712,177.75,70.9585,80.1534,145.975,99.7899,100.617,0.00596276,0.149402,20.7939,145.169,-0.0739115,0.0,0.0
716,178.75,70.5583,79.41,148.23,99.7691,100.493,0.00609407,0.14579,20.8016,145.109,-0.0647464,0.0,0.0
720,179.75,69.6431,78.8043,148.012,99.7543,100.504,0.0062148,0.142451,20.8076,145.119,-0.0670718,0.0,0.0
724,180.75,69.5153,78.3994,147.053,99.7318,100.513,0.0063231,0.139901,20.8117,145.129,-0.0698659,0.0,0.0
728,181.75,68.6951,77.5779,151.775,99.7113,100.473,0.00643896,0.137482,20.8151,145.139,-0.0682037,0.0,0.0
732,182.75,68.1848,77.2043,148.774,99.7006,100.434,0.00658452,0.135309,20.8193,145.179,-0.0656565,0.0,0.0
736,183.75,67.8213,76.2178,149.567,99.6654,100.517,0.00674146,0.133404,20.8229,145.119,-0.0762543,0.0,0.0
740,184.75,67.6789,75.5534,151.08,99.69,100.464,0.00686824,0.131881,20.8257,145.089,-0.0692707,0.0,0.0
744,185.75,66.9391,74.8801,149.623,99.6662,100.412,0.00700234,0.130724,20.8292,145.059,-0.066785,0.0,0.0
748,186.75,66.2582,74.3919,154.816,99.6732,100.409,0.00712969,0.129801,20.8322,145.099,-0.0658888,0.0,0.0
752,187.75,65.9219,73.8258,145.79,99.6789,100.344,0.00725728,0.129319,20.8343,145.089,-0.0595541,0.0,0.0
756,188.75,65.4913,73.4191,149.122,99.676,100.361,0.0073799,0.129127,20.8354,145.109,-0.0613539,0.0,0.0
760,189.75,65.1947,72.7078,149.492,99.6793,100.361,0.00756836,0.129028,20.8364,145.089,-0.0610592,0.0,0.0
764,190.75,64.6076,71.8472,146.515,99.6797,100.202,0.00775457,0.128831,20.837,145.019,-0.046826,0.0,0.0
768,191.75,63.6554,72.0256,151.043,99.6793,100.263,0.00791108,0.128466,20.8374,144.999,-0.0522666,0.0,0.0
772,192.75,63.755,70.6173,149.895,99.6793,100.48,0.00801309,0.128036,20.8377,144.989,-0.0716538,0.0,0.0
776,193.75,62.6823,70.5479,148.844,99.692,100.375,0.00807837,0.127314,20.8371,144.979,-0.0611899,0.0,0.0
780,194.75,62.654,69.9127,148.674,99.6904,100.351,0.00808399,0.126191,20.836,144.969,-0.0591402,0.0,0.0
784,195.75,62.0544,69.5811,150.337,99.6826,100.325,0.00807373,0.125062,20.8353,144.979,-0.0575262,0.0,0.0
788,196.75,62.0043,68.8078,150.814,99.6982,100.309,0.00810653,0.123965,20.8353,144.959,-0.0547005,0.0,0.0
792,197.75,60.8091,68.4817,149.02,99.6998,100.375,0.00820483,0.122838,20.8361,144.949,-0.0604518,0.0,0.0
796,198.75,60.9288,68.0746,148.441,99.6965,100.431,0.00838149,0.12133,20.8376,144.899,-0.0657931,0.0,0.0
800,199.75,61.0234,67.2682,151.755,99.7018,100.363,0.00854427,0.120456,20.8387,144.899,-0.0592267,0.0,0.0
804,200.75,60.4514,66.7002,151.913,99.7051,100.298,0.00873535,0.119399,20.8403,144.859,-0.0531486,0.0,0.0
808,201.75,59.2974,66.5463,148.623,99.7002,100.293,0.00887936,0.118667,20.8413,144.859,-0.0530889,0.0,0.0
812,202.75,59.553,66.5125,157.157,99.7076,100.348,0.00897624,0.118108,20.8428,144.849,-0.0573623,0.0,0.0
816,203.75,58.9172,66.317,148.241,99.7072,100.295,0.00903192,0.117688,20.8444,144.859,-0.0526173,0.0,0.0
820,204.75,58.6042,65.5141,150.543,99.7096,100.496,0.00904666,0.117387,20.8456,144.839,-0.0703529,0.0,0.0
824,205.75,58.2846,65.043,153.45,99.7174,100.226,0.00903148,0.117168,20.8464,144.829,-0.0456012,0.0,0.0
828,206.75,58.0274,64.5044,149.633,99.715,100.329,0.00896784,0.116902,20.8469,144.799,-0.055003,0.0,0.0
832,207.75,57.8,64.1896,150.483,99.715,100.355,0.00891209,0.116545,20.8473,144.759,-0.0572774,0.0,0.0
836,208.75,57.3313,63.7704,150.52,99.7223,100.406,0.00888485,0.116123,20.8478,144.729,-0.0612012,0.0,0.0
840,209.75,57.074,63.577,152.474,99.7264,100.396,0.00887248,0.115635,20.8486,144.759,-0.059947,0.0,0.0
844,210.75,56.577,63.3986,147.702,99.7223,100.348,0.00885419,0.115147,20.8492,144.749,-0.0559985,0.0,0.0
848,211.75,56.6672,62.5087,153.083,99.7289,100.369,0.00883833,0.114768,20.8496,144.739,-0.0573371,0.0,0.0
852,212.75,56.2741,62.3648,149.247,99.7342,100.341,0.00882479,0.114625,20.8498,144.699,-0.0543142,0.0,0.0
856,213.75,55.9268,61.9288,150.77,99.7248,100.33,0.00886023,0.114385,20.85,144.689,-0.0542353,0.0,0.0
860,214.75,55.338,61.4107,151.627,99.7305,100.293,0.00891851,0.114068,20.8501,144.629,-0.0503645,0.0,0.0
864,215.75,55.2657,61.3973,149.508,99.7441,100.282,0.00898901,0.113849,20.8502,144.629,-0.0482238,0.0,0.0
868,216.75,55.0218,60.9526,151.344,99.74,100.514,0.00912312,0.113616,20.8516,144.649,-0.0692842,0.0,0.0
872,217.75,55.2204,60.2583,154.323,99.7432,100.354,0.00922664,0.113461,20.8523,144.639,-0.0546607,0.0,0.0
876,218.75,54.1904,60.1559,153.793,99.7568,100.329,0.00936199,0.113293,20.853,144.599,-0.0512484,0.0,0.0
880,219.75,54.1188,60.1213,151.281,99.7428,100.471,0.00946756,0.11314,20.8534,144.559,-0.0651772,0.0,0.0
884,220.75,54.1865,59.2637,150.314,99.7436,100.358,0.00956494,0.112975,20.8537,144.499,-0.0550481,0.0,0.0
888,221.75,53.7216,59.1414,156.409,99.7543,100.311,0.00965696,0.112721,20.8539,144.449,-0.0498887,0.0,0.0
892,222.75,53.8777,59.0027,150.819,99.7559,100.298,0.00974689,0.112516,20.854,144.459,-0.0485841,0.0,0.0
896,223.75,53.2001,58.9332,149.188,99.7539,100.283,0.00983459,0.112329,20.8541,144.459,-0.0474181,0.0,0.0
900,224.75,53.6823,58.0882,156.284,99.758,100.341,0.00991411,0.112207,20.8546,144.439,-0.0522178,0.0,0.0
904,225.75,52.7489,57.9121,151.76,99.765,100.356,0.00996271,0.112179,20.8553,144.439,-0.0529026,0.0,0.0
908,226.75,52.6288,57.6247,150.996,99.7695,100.332,0.00998829,0.112223,20.8558,144.419,-0.0503387,0.0,0.0
912,227.75,52.6647,57.1319,153.971,99.7699,100.312,0.009991,0.11224,20.8561,144.369,-0.0485674,0.0,0.0
916,228.75,52.3858,56.7741,152.529,99.7785,100.272,0.00997167,0.112204,20.8562,144.349,-0.044207,0.0,0.0
920,229.75,51.6178,57.0358,144.311,99.7731,100.389,0.00991678,0.112071,20.8564,144.339,-0.0550964,0.0,0.0
924,230.75,51.8501,56.474,153.448,99.7822,100.289,0.00983276,0.11183,20.8565,144.289,-0.0453806,0.0,0.0
928,231.75,51.3727,56.5591,150.291,99.7867,100.422,0.00972598,0.111631,20.8565,144.309,-0.0568491,0.0,0.0
932,232.75,51.1026,56.1292,149.969,99.7879,100.404,0.00963774,0.111537,20.8565,144.319,-0.0551201,0.0,0.0
936,233.75,50.8053,55.7086,146.401,99.7867,100.354,0.00957356,0.111561,20.8566,144.289,-0.0507608,0.0,0.0
940,234.75,50.9054,55.411,151.468,99.7969,100.407,0.00955953,0.111607,20.8568,144.268,-0.0545812,0.0,0.0
944,235.75,50.9001,55.0548,157.739,99.8027,100.277,0.00957139,0.11161,20.857,144.228,-0.0424616,0.0,0.0
948,236.75,50.4176,55.0261,147.544,99.8039,100.385,0.00959578,0.111493,20.8572,144.248,-0.0520292,0.0,0.0
952,237.75,50.4044,54.2298,151.616,99.8158,100.275,0.00962733,0.111396,20.8573,144.238,-0.0410915,0.0,0.0
956,238.75,50.1355,54.6446,152.099,99.8199,100.326,0.00965032,0.111421,20.8574,144.218,-0.0453522,0.0,0.0
960,239.75,50.3186,54.3037,150.677,99.8154,100.362,0.00966034,0.11157,20.8571,144.198,-0.0489185,0.0,0.0
964,240.75,49.1358,54.6574,153.316,99.8195,100.349,0.00965861,0.111524,20.8569,144.178,-0.0474326,0.0,0.0
968,241.75,49.2305,54.2773,147.506,99.8207,100.306,0.0096364,0.111234,20.8575,144.178,-0.0434274,0.0,0.0
972,242.75,49.5689,53.7549,152.682,99.8281,100.353,0.00958905,0.110928,20.858,144.138,-0.0469688,0.0,0.0
976,243.75,49.2179,53.6144,152.298,99.8322,100.287,0.00952296,0.110715,20.8583,144.148,-0.040701,0.0,0.0
980,244.75,49.1577,53.0217,151.099,99.8367,100.401,0.00945597,0.110594,20.8584,144.118,-0.0504746,0.0,0.0
984,245.75,48.8521,53.1138,148.06,99.8375,100.357,0.00941213,0.110646,20.8583,144.118,-0.0464691,0.0,0.0
988,246.75,48.6486,52.9094,150.301,99.8383,100.358,0.00940701,0.110701,20.8582,144.108,-0.0464734,0.0,0.0
992,247.75,48.6148,52.7148,152.277,99.8395,100.388,0.00941516,0.110743,20.8582,144.078,-0.0490995,0.0,0.0
996,248.75,48.5283,52.4322,149.891,99.844,100.299,0.00942519,0.110741,20.8582,144.058,-0.0407144,0.0,0.0
1000,249.75,47.7625,52.9603,151.752,99.8457,100.428,0.00942007,0.110586,20.8581,144.048,-0.0520926,0.0,0.0
1004,250.75,48.2358,51.9633,150.311,99.8653,100.402,0.00941671,0.110316,20.8581,144.058,-0.0480161,0.0,0.0
1008,251.75,47.5595,51.4413,153.971,99.8563,100.244,0.00943557,0.109951,20.8581,144.038,-0.0346735,0.0,0.0
1012,252.75,47.3356,51.1367,146.431,99.8584,100.346,0.00949406,0.109618,20.8581,144.028,-0.0436694,0.0,0.0
1016,253.75,47.3347,50.4871,153.081,99.8625,100.366,0.00961871,0.1094,20.8581,144.028,-0.0450753,0.0,0.0
1020,254.75,47.0567,50.6501,153.315,99.8731,100.274,0.00972037,0.109257,20.8581,144.088,-0.0359048,0.0,0.0
1024,255.75,46.992,50.5073,155.555,99.8658,100.257,0.00991147,0.109221,20.8581,144.058,-0.0349854,0.0,0.0
1028,256.75,46.6851,50.5366,149.401,99.867,100.435,0.010058,0.109245,20.8581,144.038,-0.0508354,0.0,0.0
1032,257.75,46.8306,50.0654,154.534,99.8613,100.277,0.0101025,0.109217,20.8581,143.998,-0.0372028,0.0,0.0
1036,258.75,47.0008,49.9677,154.124,99.8678,100.288,0.010094,0.109151,20.8581,144.008,-0.0376184,0.0,0.0
1040,259.75,46.5451,49.6343,152.593,99.8768,100.363,0.0100346,0.109018,20.8581,143.988,-0.043518,0.0,0.0
1044,260.75,46.4844,49.5545,151.183,99.8699,100.368,0.00996039,0.108874,20.8583,143.978,-0.0445284,0.0,0.0
1048,261.75,46.3602,49.4837,156.503,99.8752,100.38,0.00991172,0.108531,20.8591,143.908,-0.0452073,0.0,0.0
1052,262.75,46.5409,49.4497,157.326,99.8797,100.476,0.00980014,0.108193,20.8598,143.948,-0.0533543,0.0,0.0
1056,263.75,46.2128,48.7968,150.143,99.8748,100.314,0.00970586,0.107936,20.8603,143.958,-0.0392684,0.0,0.0
1060,264.75,46.0135,49.0624,159.12,99.8924,100.32,0.00965505,0.108016,20.8606,143.918,-0.0382667,0.0,0.0
1064,265.75,45.7608,48.9863,152.793,99.8871,100.395,0.0096454,0.10822,20.8609,143.888,-0.0454515,0.0,0.0
1068,266.75,45.5781,48.4902,150.391,99.8867,100.386,0.00967784,0.108458,20.8614,143.908,-0.0446792,0.0,0.0
1072,267.75,45.5492,48.5221,152.321,99.8965,100.409,0.00971954,0.108668,20.8614,143.918,-0.0458395,0.0,0.0
1076,268.75,45.0195,47.9441,151.923,99.8932,100.478,0.00974275,0.108747,20.861,143.878,-0.0522956,0.0,0.0
1080,269.75,45.5358,48.0085,151.64,99.8895,100.365,0.00973142,0.108782,20.8606,143.858,-0.0425335,0.0,0.0
1084,270.75,45.4057,48.1111,150.607,99.8965,100.369,0.00969822,0.108786,20.8609,143.858,-0.0422942,0.0,0.0
1088,271.75,45.0803,47.875,151.375,99.8936,100.373,0.00966941,0.108869,20.8614,143.838,-0.0428983,0.0,0.0
1092,272.75,44.1985,47.3011,148.504,99.8932,100.442,0.00964816,0.108811,20.8616,143.828,-0.0490613,0.0,0.0
1096,273.75,45.1385,47.6194,153.935,99.8961,100.227,0.00963657,0.108469,20.8618,143.808,-0.0296416,0.0,0.0
1100,274.75,44.7339,47.2674,154.159,99.9088,100.367,0.0096345,0.108096,20.8619,143.778,-0.0409606,0.0,0.0
1104,275.75,44.8858,47.0206,152.299,99.8961,100.348,0.00963463,0.107766,20.862,143.748,-0.0404419,0.0,0.0
1108,276.75,44.8721,46.6287,149.872,99.9129,100.347,0.00966752,0.107511,20.8618,143.748,-0.0388587,0.0,0.0
1112,277.75,44.5793,47.5973,153.668,99.8994,100.324,0.00969848,0.10733,20.8616,143.748,-0.0379894,0.0,0.0
1116,278.75,44.3817,47.1795,153.145,99.8989,100.337,0.00970473,0.107267,20.8615,143.708,-0.0392212,0.0,0.0
1120,279.75,44.0858,47.2293,155.301,99.9018,100.355,0.00968541,0.107225,20.8621,143.728,-0.0405058,0.0,0.0
1124,280.75,44.3306,46.527,153.264,99.9096,100.295,0.00964463,0.107198,20.8626,143.718,-0.034525,0.0,0.0
1128,281.75,44.1171,46.4872,150.62,99.9063,100.426,0.00958276,0.10718,20.8629,143.658,-0.0464605,0.0,0.0
1132,282.75,44.0788,46.7379,150.934,99.919,100.353,0.00952537,0.106984,20.8632,143.678,-0.0388088,0.0,0.0
1136,283.75,44.4203,46.6077,152.611,99.9137,100.428,0.00947023,0.106814,20.8633,143.658,-0.0460295,0.0,0.0
1140,284.75,43.4529,46.1652,151.716,99.919,100.393,0.00943091,0.106722,20.8634,143.638,-0.0423543,0.0,0.0
1144,285.75,43.5826,46.2946,151.412,99.9153,100.271,0.00940382,0.106736,20.8637,143.618,-0.0318121,0.0,0.0
1148,286.75,44.1498,45.9166,149.482,99.928,100.374,0.00939146,0.106798,20.8642,143.598,-0.0398503,0.0,0.0
1152,287.75,43.8339,45.9985,150.881,99.928,100.305,0.00940151,0.106997,20.8642,143.588,-0.033759,0.0,0.0
1156,288.75,43.6298,45.8259,150.597,99.9149,100.45,0.00942538,0.107127,20.8636,143.558,-0.0478073,0.0,0.0
1160,289.75,43.8609,45.9573,152.726,99.9199,100.432,0.00945763,0.10714,20.8633,143.558,-0.0457864,0.0,0.0
1164,290.75,43.1891,45.337,149.957,99.9231,100.488,0.00949753,0.10712,20.863,143.558,-0.0504601,0.0,0.0
1168,291.75,43.1055,45.4093,155.847,99.9207,100.286,0.00952604,0.107136,20.8629,143.518,-0.0326845,0.0,0.0
1172,292.75,43.4401,45.0448,152.291,99.9149,100.422,0.009519,0.107004,20.8628,143.508,-0.0453415,0.0,0.0
1176,293.75,43.4328,45.3489,151.958,99.919,100.437,0.00948488,0.106857,20.8632,143.488,-0.0463612,0.0,0.0
1180,294.75,42.9269,45.5054,150.796,99.928,100.366,0.00941585,0.106799,20.8638,143.478,-0.0391955,0.0,0.0
1184,295.75,42.9425,45.2674,154.134,99.9264,100.34,0.00933253,0.10676,20.8642,143.458,-0.0369905,0.0,0.0
1188,296.75,43.3359,45.0548,153.003,99.9231,100.398,0.00927043,0.106714,20.8644,143.378,-0.0424493,0.0,0.0
1192,297.75,43.0175,44.9655,148.674,99.9153,100.332,0.00920866,0.106686,20.8646,143.378,-0.0372495,0.0,0.0
1196,298.75,43.009,44.862,152.649,99.9252,100.414,0.00920786,0.106701,20.8647,143.388,-0.0437294,0.0,0.0
1200,299.75,42.7284,44.788,152.544,99.9162,100.311,0.00925175,0.106669,20.8648,143.378,-0.0353639,0.0,0.0
1204,300.75,42.9704,44.4896,150.959,99.917,100.313,0.00932499,0.106464,20.8648,143.318,-0.0354063,0.0,0.0
1208,301.75,42.9597,44.6302,149.659,99.9153,100.304,0.00941284,0.106141,20.8649,143.278,-0.0347817,0.0,0.0
1212,302.75,43.0463,44.4555,151.461,99.9244,100.327,0.00949156,0.105904,20.8649,143.288,-0.0360179,0.0,0.0
1216,303.75,42.4301,44.1292,151.224,99.9244,100.358,0.00955873,0.105805,20.8651,143.268,-0.0387557,0.0,0.0
1220,304.75,42.3421,44.2792,150.665,99.9182,100.227,0.00961539,0.105872,20.8659,143.238,-0.0276183,0.0,0.0
1224,305.75,42.2758,44.3213,151.729,99.9186,100.231,0.00964479,0.105942,20.8663,143.228,-0.0279676,0.0,0.0
1228,306.75,42.3098,43.708,149.108,99.9317,100.38,0.00964894,0.106046,20.8667,143.198,-0.0401362,0.0,0.0
1232,307.75,42.383,43.9028,151.413,99.9297,100.307,0.00963007,0.106161,20.8669,143.178,-0.0337274,0.0,0.0
1236,308.75,42.2379,43.4178,150.457,99.928,100.455,0.00959441,0.106158,20.8668,143.168,-0.0471314,0.0,0.0
1240,309.75,42.2513,43.6302,152.219,99.9252,100.305,0.00955079,0.106073,20.8661,143.158,-0.0339772,0.0,0.0
1244,310.75,41.877,43.4212,149.371,99.9317,100.472,0.00951886,0.105937,20.8657,143.158,-0.0483414,0.0,0.0
1248,311.75,41.7194,44.0845,151.114,99.9272,100.472,0.00948854,0.105747,20.8655,143.178,-0.0487457,0.0,0.0
1252,312.75,42.2012,43.6054,149.267,99.9248,100.255,0.00946164,0.105499,20.8653,143.127,-0.0295392,0.0,0.0
1256,313.75,41.8657,43.3595,153.637,99.9334,100.26,0.00944214,0.105348,20.8652,143.097,-0.0292312,0.0,0.0
1260,314.75,42.2411,43.1105,155.259,99.9362,100.433,0.00942701,0.105222,20.8655,143.057,-0.0443943,0.0,0.0
1264,315.75,42.0622,43.0816,154.265,99.933,100.391,0.00941191,0.105129,20.8655,143.077,-0.0409515,0.0,0.0
1268,316.75,42.2558,43.2203,157.204,99.935,100.275,0.00939094,0.105086,20.8657,143.117,-0.0303954,0.0,0.0
1272,317.75,41.9005,43.2753,151.981,99.9408,100.418,0.00936197,0.10512,20.8663,143.087,-0.0427186,0.0,0.0
1276,318.75,41.9122,42.9572,152.395,99.9539,100.369,0.00931312,0.105118,20.8666,143.067,-0.0371508,0.0,0.0
1280,319.75,41.9358,42.9213,154.716,99.9428,100.213,0.00926003,0.105149,20.8668,143.017,-0.0241793,0.0,0.0
1284,320.75,41.6336,42.7858,149.779,99.9469,100.413,0.00922287,0.105219,20.867,143.067,-0.0417052,0.0,0.0
1288,321.75,41.1178,42.9706,153.483,99.9592,100.389,0.00919147,0.105233,20.8671,143.027,-0.0384458,0.0,0.0
1292,322.75,41.6081,42.6326,148.437,99.9735,100.347,0.00917321,0.105091,20.8671,142.987,-0.0334219,0.0,0.0
1296,323.75,41.3299,43.1541,153.188,99.9616,100.303,0.00917525,0.104881,20.8672,142.977,-0.0305154,0.0,0.0
1300,324.75,41.1124,42.2593,152.819,99.951,100.27,0.00919854,0.104687,20.8672,142.967,-0.0285771,0.0,0.0
1304,325.75,41.2646,42.2195,155.198,99.9567,100.283,0.00925616,0.104454,20.8672,142.947,-0.0292199,0.0,0.0
1308,326.75,41.1578,42.0578,151.739,99.9563,100.422,0.00933712,0.104407,20.8672,142.967,-0.0416312,0.0,0.0
1312,327.75,40.9315,42.3714,154.469,99.9604,100.322,0.00942203,0.104405,20.8672,142.947,-0.0323227,0.0,0.0
1316,328.75,41.2206,42.7805,154.923,99.9666,100.263,0.00951884,0.10434,20.8673,142.927,-0.0264867,0.0,0.0
1320,329.75,41.0285,42.333,151.313,99.951,100.287,0.00960561,0.104169,20.8673,142.927,-0.0300819,0.0,0.0
1324,330.75,40.9959,41.4526,155.811,99.9662,100.198,0.0097024,0.104009,20.8673,142.937,-0.0207347,0.0,0.0
1328,331.75,41.1463,41.8916,150.385,99.9743,100.446,0.0097659,0.103905,20.8673,142.917,-0.042173,0.0,0.0
1332,332.75,40.788,42.1597,149.533,99.9739,100.342,0.00984743,0.10388,20.8673,142.927,-0.0328844,0.0,0.0
1336,333.75,41.0032,42.1606,152.842,99.9731,100.349,0.00990796,0.103899,20.8673,142.937,-0.0335747,0.0,0.0
1340,334.75,40.6153,41.6775,148.882,99.9711,100.273,0.00991484,0.103896,20.8673,142.917,-0.0269708,0.0,0.0
1344,335.75,40.7322,42.0489,153.422,99.9629,100.247,0.00986309,0.103868,20.8673,142.907,-0.025429,0.0,0.0
1348,336.75,40.7451,42.0693,153.138,99.9674,100.348,0.00978667,0.103789,20.8673,142.887,-0.034012,0.0,0.0
1352,337.75,40.9294,41.5306,154.985,99.9887,100.368,0.00969936,0.103681,20.8673,142.847,-0.0338754,0.0,0.0
1356,338.75,40.572,41.2744,148.245,99.9784,100.313,0.00964344,0.103663,20.8673,142.837,-0.0299362,0.0,0.0
1360,339.75,40.7405,41.736,151.142,99.9768,100.347,0.00961416,0.103734,20.8673,142.827,-0.0331288,0.0,0.0
1364,340.75,40.0334,41.5633,152.046,99.969,100.397,0.0096049,0.103803,20.8673,142.867,-0.0382581,0.0,0.0
1368,341.75,40.3064,41.4153,154.399,99.9805,100.47,0.00959649,0.103761,20.8673,142.837,-0.0437783,0.0,0.0
1372,342.75,39.9126,41.0112,148.457,99.9834,100.38,0.00958161,0.103605,20.8673,142.827,-0.0355086,0.0,0.0
1376,343.75,40.3096,41.6089,153.867,99.9756,100.343,0.00958589,0.103398,20.8673,142.787,-0.0328533,0.0,0.0
1380,344.75,40.7949,41.6848,152.7,99.9715,100.314,0.00962149,0.103245,20.8673,142.777,-0.0305984,0.0,0.0
1384,345.75,40.3372,41.2869,154.338,99.9928,100.258,0.00970395,0.103219,20.8673,142.767,-0.0237135,0.0,0.0
1388,346.75,40.1412,41.6326,149.227,99.9735,100.267,0.00980168,0.103255,20.8673,142.747,-0.0262874,0.0,0.0
1392,347.75,40.1214,41.3183,154.168,99.9871,100.411,0.00988881,0.103357,20.8673,142.737,-0.0379144,0.0,0.0
1396,348.75,40.1737,41.3111,150.85,99.9911,100.24,0.00996473,0.103466,20.8673,142.737,-0.0222778,0.0,0.0
1400,349.75,39.8345,41.2534,153.241,99.9825,100.3,0.0100309,0.103507,20.8673,142.737,-0.028373,0.0,0.0
1404,350.75,40.0684,41.2757,151.596,99.9805,100.387,0.0100728,0.103465,20.8673,142.677,-0.0363439,0.0,0.0
1408,351.75,40.0834,41.4752,149.181,99.9821,100.417,0.0100887,0.103336,20.8665,142.657,-0.0388555,0.0,0.0
1412,352.75,39.8328,41.0479,155.084,99.9727,100.37,0.0100769,0.103122,20.8659,142.657,-0.0355001,0.0,0.0
1416,353.75,40.0618,40.6158,153.872,99.9797,100.379,0.0100438,0.102928,20.8656,142.647,-0.0357241,0.0,0.0
1420,354.75,39.9531,41.2097,154.057,99.9813,100.247,0.0100063,0.102756,20.8654,142.647,-0.0237376,0.0,0.0
1424,355.75,39.9976,41.089,151.34,99.9805,100.191,0.0099503,0.102554,20.8659,142.627,-0.0188312,0.0,0.0
1428,356.75,39.9572,40.745,152.733,99.9784,100.412,0.00990695,0.102477,20.8668,142.607,-0.0388013,0.0,0.0
1432,357.75,40.043,40.4823,154.427,99.9965,100.377,0.00988418,0.10261,20.8674,142.567,-0.034026,0.0,0.0
1436,358.75,39.9725,40.8585,153.516,99.9883,100.387,0.00987215,0.102882,20.8678,142.587,-0.0356084,0.0,0.0
1440,359.75,39.5554,40.5385,151.224,99.9727,100.352,0.0098632,0.103074,20.8681,142.577,-0.0339204,0.0,0.0
1444,360.75,39.4108,40.7915,154.779,99.9743,100.244,0.00984327,0.103113,20.8683,142.547,-0.0241691,0.0,0.0
1448,361.75,39.5732,40.6411,151.275,99.9821,100.368,0.00980249,0.102828,20.8684,142.537,-0.0344623,0.0,0.0
1452,362.75,39.4621,40.4512,155.656,99.9678,100.369,0.00975721,0.102443,20.8684,142.527,-0.0358635,0.0,0.0
1456,363.75,39.7511,40.3901,153.855,99.9793,100.148,0.00973929,0.102123,20.8685,142.487,-0.0151185,0.0,0.0
1460,364.75,39.9901,40.2791,150.844,99.9653,100.361,0.0097629,0.101955,20.8685,142.497,-0.0353516,0.0,0.0
1464,365.75,39.5372,40.4116,152.106,99.9711,100.257,0.00981271,0.1019,20.869,142.467,-0.0255816,0.0,0.0
1468,366.75,39.8469,39.9869,150.543,99.9711,100.326,0.00984961,0.102048,20.8696,142.457,-0.0317542,0.0,0.0
1472,367.75,39.2986,40.9951,154.405,99.9842,100.286,0.00986718,0.102166,20.8701,142.407,-0.0270303,0.0,0.0
1476,368.75,39.8084,40.4533,148.285,99.9752,100.433,0.00989302,0.102104,20.8704,142.397,-0.0409048,0.0,0.0
1480,369.75,39.4976,40.5685,153.722,99.9703,100.364,0.00995993,0.101924,20.8706,142.367,-0.0352197,0.0,0.0
1484,370.75,39.0358,39.7987,152.501,99.9748,100.333,0.0100452,0.101653,20.871,142.357,-0.0320398,0.0,0.0
1486,371.25,39.7135,40.5699,151.983,99.9739,100.294,0.0100826,0.101522,20.8711,142.367,-0.0286425,0.0,0.0