File: 01_Data/Masonite_Board/Cone/Masonite_Cone_HF75Scan_230106_R2.csv
Names,Time,Stack TC,Smoke TC,Exh Press,Smoke Comp,Smoke Meas,CO Meter,CO2 Meter,O2 Meter,Sample Mass,Ext Coeff,Start Test,Flame Verif
Chan Gain,,500,500,1,1,1,1,1,1,1,1,1.0,1.0
Offset,,0,0,0.303564,0,0,0,0,0,0,0,0.0,0.0
Gain,,1,1,25.011,13.3148,15.9078,1,1,1,1.00088,1.03447,1.0,1.0
Units,sec,C,C,Pa,%,%,%,%,%,g,/m,,
Baseline,,50.0473,53.0334,141.151,100.223,100.199,0.000591831,0.0476297,20.9617,-448.15,0.00210492,,
3,0.5,46.8728,48.8451,145.394,100.311,100.28,0.000488563,0.0464336,20.962,175.894,0.00280128,0.0,0.0
6,1.25,46.1834,48.3686,143.661,100.339,100.576,0.000469029,0.046727,20.962,175.974,-0.0214135,0.0,0.0
9,2,46.0661,48.2068,143.918,100.338,100.387,0.000445834,0.0470863,20.9619,176.084,-0.00442541,0.0,0.0
12,2.75,46.4722,48.7525,145.056,100.345,100.447,0.000418284,0.0474867,20.9619,176.034,-0.00924117,0.0,0.0
15,3.5,46.329,48.6155,140.869,100.343,100.021,0.000382242,0.0479094,20.9619,175.974,0.0291569,0.0,0.0
18,4.25,46.7737,48.8371,143.973,100.368,100.201,0.000355968,0.0483194,20.9619,175.984,0.0151156,0.0,0.0
21,5,46.6042,48.735,144.444,100.379,99.913,0.000317318,0.0486617,20.9614,175.904,0.0422539,0.0,0.0
24,5.75,46.6542,48.9027,139.498,100.37,99.8285,0.00029372,0.0489527,20.9609,175.814,0.0490831,0.0,0.0
27,6.5,46.3015,49.2219,144.389,100.389,100.172,0.000284345,0.0492108,20.9605,175.764,0.0195844,0.0,0.0
30,7.25,46.3295,49.0635,140.072,100.405,100.132,0.000307652,0.0494775,20.9598,175.834,0.024667,0.0,0.0
33,8,47.2525,48.9914,140.774,100.416,100.35,0.000336426,0.0499002,20.959,175.854,0.00600061,0.0,0.0
36,8.75,46.8367,49.3757,137.419,100.41,99.8504,0.000377553,0.0503684,20.9579,175.614,0.0506979,0.0,0.0
39,9.5,47.0969,49.3624,141.613,100.415,99.7601,0.000416244,0.050778,20.957,175.734,0.0593844,0.0,0.0
42,10.25,46.7671,49.8083,141.456,100.439,99.8829,0.000451438,0.051305,20.9564,175.754,0.0503848,0.0,0.0
45,11,47.1299,49.5429,140.211,100.457,99.5654,0.000482695,0.0517505,20.9553,175.724,0.0808538,0.0,0.0
48,11.75,47.0007,49.5899,140.774,100.461,99.3047,0.000506792,0.0521801,20.9545,175.624,0.105085,0.0,0.0
51,12.5,47.1228,49.886,140.282,100.466,99.0581,0.000526599,0.0525516,20.954,175.624,0.128053,0.0,0.0
54,13.25,47.4755,49.5745,140.695,100.473,98.9076,0.000544193,0.0527589,20.9537,175.534,0.142474,0.0,0.0
57,14,46.8484,49.8165,143.732,100.511,98.9178,0.000565763,0.0529568,20.9531,175.584,0.144987,0.0,0.0
60,14.75,47.2692,50.3838,142.702,100.492,98.5469,0.000574812,0.0530282,20.9523,175.484,0.177351,0.0,0.0
63,15.5,47.5488,50.0427,141.392,100.499,98.5581,0.000569084,0.0530493,20.9517,175.484,0.176984,0.0,0.0
66,16.25,47.3134,50.4234,139.043,100.528,97.8808,0.000527643,0.0530646,20.9512,175.474,0.242155,0.0,0.0
69,17,47.2977,50.5522,140.969,100.543,97.6163,0.000479767,0.0534082,20.9509,175.474,0.268111,0.0,0.0
72,17.75,47.2901,50.3972,140.262,100.535,97.04,0.000414657,0.0538888,20.9507,175.394,0.321069,0.0,0.0
75,18.5,47.6805,50.3443,142.051,100.548,96.423,0.000343589,0.0546327,20.9505,175.364,0.380088,0.0,0.0
78,19.25,47.5713,50.6805,141.787,100.55,96.3827,0.000281719,0.055963,20.9504,175.314,0.384101,0.0,0.0
81,20,47.3158,50.2366,137.992,100.566,97.375,0.000234845,0.0572687,20.9503,175.314,0.292621,0.0,1.0
84,20.75,48.0932,50.869,133.434,100.569,100.029,0.000200674,0.0588284,20.9496,175.173,0.0488227,0.0,1.0
87,21.5,47.9646,51.6414,135.636,100.58,100.232,0.000234242,0.061005,20.9491,175.103,0.0314232,0.0,1.0
90,22.25,48.4951,51.5364,128.95,100.588,99.8062,0.000298515,0.0634065,20.9484,174.953,0.0707829,0.0,1.0
93,23,48.785,52.4043,127.09,100.608,99.7644,0.0003879,0.065421,20.947,174.883,0.0764119,0.0,1.0
96,23.75,49.9533,53.0562,127.161,100.603,99.3241,0.000496772,0.0670253,20.9441,174.783,0.116075,0.0,1.0
99,24.5,48.5013,53.13,128.661,100.611,98.6726,0.000641944,0.0682343,20.9406,174.613,0.176561,0.0,1.0
102,25.25,49.5649,53.6194,129.963,100.62,98.8207,0.000747774,0.0690278,20.9375,174.503,0.163762,0.0,1.0
105,26,49.1077,54.5894,127.136,100.65,98.7197,0.000892593,0.0696304,20.9353,174.393,0.175677,0.0,0.0
108,26.75,50.2035,55.2491,121.644,100.65,98.593,0.00101066,0.0701753,20.9336,174.223,0.187368,0.0,0.0
111,27.5,51.2243,55.9131,121.358,100.634,98.1192,0.0011181,0.0723209,20.9324,174.062,0.22969,0.0,0.0
114,28.25,52.0289,57.285,124.248,100.651,97.1526,0.00122853,0.0771466,20.9315,173.892,0.320988,0.0,0.0
117,29,52.3195,58.3614,126.731,100.656,97.4837,0.00133031,0.0849669,20.9309,173.782,0.290593,0.0,0.0
120,29.75,53.331,59.3048,121.961,100.678,97.7138,0.00141357,0.102272,20.9304,173.682,0.271176,0.0,0.0
123,30.5,53.9497,60.1736,121.55,100.674,98.4644,0.00150641,0.121364,20.9282,173.482,0.201376,0.0,0.0
126,31.25,54.4665,61.2194,122.88,100.676,98.058,0.00158787,0.146354,20.9235,173.332,0.239121,0.0,0.0
129,32,55.3007,62.6548,122.138,100.706,97.8012,0.00165313,0.170814,20.9148,173.192,0.265628,0.0,0.0
132,32.75,56.2868,63.8249,119.815,100.708,97.4997,0.00174081,0.19932,20.9026,173.032,0.293826,0.0,0.0
135,33.5,57.3691,64.6692,114.29,100.703,97.3526,0.00184296,0.235041,20.8837,172.821,0.307051,0.0,0.0
138,34.25,57.9708,65.934,119.839,100.71,98.0202,0.00195357,0.264911,20.8475,172.651,0.245702,0.0,0.0
141,35,59.0307,66.973,114.353,100.717,97.0953,0.00210768,0.293232,20.8073,172.471,0.33231,0.0,0.0
144,35.75,59.3279,68.3235,122.506,100.741,97.7187,0.0022485,0.329715,20.7551,172.341,0.276364,0.0,0.0
147,36.5,60.6349,69.6586,119.822,100.738,97.6701,0.0024757,0.356198,20.7136,172.091,0.280616,0.0,0.0
150,37.25,61.4125,71.1468,116.34,100.751,97.7362,0.00260543,0.369733,20.6848,171.87,0.275655,0.0,0.0
153,38,61.8758,71.9371,114.918,100.744,97.5925,0.0027992,0.393956,20.6516,171.77,0.288421,0.0,0.0
156,38.75,63.0598,73.4245,120.45,100.755,96.9507,0.00301552,0.414372,20.6184,171.63,0.349281,0.0,0.0
159,39.5,63.8948,74.6947,119.008,100.774,96.2244,0.00325548,0.43397,20.5912,171.42,0.419197,0.0,0.0
162,40.25,64.7047,75.5338,111.45,100.763,96.7157,0.00346547,0.456524,20.5663,171.21,0.371995,0.0,0.0
165,41,65.7881,76.4957,114.64,100.766,96.1264,0.00369269,0.476014,20.541,171.02,0.427716,0.0,0.0
168,41.75,66.3164,77.7925,109.74,100.775,96.3599,0.00390022,0.495438,20.517,170.83,0.406505,0.0,0.0
171,42.5,67.4394,79.4529,112.797,100.782,96.4307,0.00408273,0.5174,20.495,170.639,0.400455,0.0,0.0
174,43.25,67.9996,80.0262,115.883,100.786,95.9506,0.00423866,0.53341,20.4747,170.449,0.446188,0.0,0.0
177,44,69.1782,81.2117,118.289,100.799,95.92,0.00436169,0.556808,20.4527,170.229,0.450215,0.0,0.0
180,44.75,69.8858,81.7944,114.893,100.812,94.8515,0.0044674,0.578403,20.4273,170.119,0.553036,0.0,0.0
183,45.5,70.6605,83.2668,112.608,100.826,95.0923,0.0045499,0.596079,20.4025,169.879,0.531274,0.0,0.0
186,46.25,71.2434,84.6315,112.927,100.814,94.8287,0.00461004,0.616617,20.3817,169.609,0.555403,0.0,0.0
189,47,72.3955,85.7759,113.137,100.821,95.9249,0.0046684,0.631589,20.359,169.378,0.451694,0.0,0.0
192,47.75,73.0131,86.4629,114.347,100.82,94.602,0.004725,0.650685,20.3392,169.288,0.577636,0.0,0.0
195,48.5,73.841,87.5481,111.067,100.835,94.4797,0.00479031,0.669633,20.3139,169.068,0.590731,0.0,0.0
198,49.25,74.8016,88.5652,108.104,100.819,94.4117,0.00487414,0.68738,20.29,168.828,0.595799,0.0,0.0
201,50,75.6737,90.1294,113.821,100.845,93.6582,0.00495564,0.703381,20.2664,168.628,0.670846,0.0,0.0
204,50.75,76.8643,90.9077,116.555,100.849,94.1442,0.00502374,0.718643,20.2427,168.367,0.624323,0.0,0.0
207,51.5,77.3515,92.556,110.092,100.846,92.7402,0.00512066,0.733679,20.2192,168.267,0.76034,0.0,0.0
210,52.25,78.9674,93.517,111.282,100.845,93.8748,0.00522704,0.748706,20.1973,167.907,0.649929,0.0,0.0
213,53,79.4244,94.5325,108.026,100.868,92.7558,0.00531982,0.764605,20.1777,167.737,0.76083,0.0,0.0
216,53.75,80.3168,94.955,114.261,100.863,92.5339,0.00543089,0.778303,20.1616,167.587,0.782086,0.0,0.0
219,54.5,80.6646,96.298,109.353,100.87,93.7243,0.00553844,0.794747,20.1466,167.357,0.666717,0.0,0.0
222,55.25,81.9116,97.17,105.468,100.869,92.7626,0.00563066,0.808791,20.128,167.136,0.760239,0.0,0.0
225,56,82.2972,98.2342,115.138,100.857,92.6805,0.00570882,0.824946,20.109,166.916,0.767207,0.0,0.0
228,56.75,82.9304,99.1265,107.17,100.863,94.2156,0.00578499,0.840834,20.0901,166.716,0.618691,0.0,0.0
231,57.5,83.8172,100.808,110.95,100.888,93.1844,0.00586891,0.858877,20.0715,166.486,0.720745,0.0,0.0
234,58.25,85.0178,101.699,108.919,100.884,93.5524,0.00596464,0.874316,20.0509,166.296,0.684652,0.0,0.0
237,59,86.2506,102.69,103.047,100.892,93.7573,0.00610878,0.889479,20.0329,166.075,0.665532,0.0,0.0
240,59.75,86.2019,103.664,107.489,100.889,93.3271,0.00624556,0.904778,20.0145,165.815,0.706966,0.0,0.0
243,60.5,87.4056,104.732,103.637,100.902,92.8247,0.00642876,0.917742,19.998,165.685,0.757123,0.0,0.0
246,61.25,88.5657,105.951,102.6,100.905,90.8323,0.00661686,0.932713,19.9808,165.395,0.954266,0.0,0.0
249,62,89.0194,107.289,110.083,100.906,91.194,0.00678641,0.945631,19.9633,165.085,0.91828,0.0,0.0
252,62.75,89.9481,108.446,110.167,100.909,91.8334,0.00693021,0.958477,19.9449,164.834,0.855174,0.0,0.0
255,63.5,90.7747,109.172,112.854,100.908,90.8814,0.00704276,0.973112,19.9271,164.634,0.949661,0.0,0.0
258,64.25,91.7058,110.528,102.202,100.915,88.9011,0.00713964,0.98782,19.9093,164.454,1.15019,0.0,0.0
261,65,92.2972,111.188,113.375,100.91,90.5517,0.00722997,1.00242,19.8906,164.124,0.982854,0.0,0.0
264,65.75,93.7321,112.592,103.41,100.906,87.889,0.00734546,1.01677,19.8769,163.884,1.25333,0.0,0.0
267,66.5,94.3443,113.527,103.723,100.923,89.9148,0.00742965,1.02722,19.8606,163.693,1.04808,0.0,0.0
270,67.25,95.0897,114.328,104.499,100.929,90.0104,0.00752295,1.04339,19.8487,163.493,1.03894,0.0,0.0
273,68,96.026,115.428,102.475,100.926,91.176,0.00764557,1.06069,19.8341,163.173,0.921893,0.0,0.0
276,68.75,96.8337,116.385,111.519,100.923,90.1658,0.00775692,1.07565,19.8211,162.843,1.02275,0.0,0.0
279,69.5,97.3594,117.626,104.252,100.923,89.9022,0.00786038,1.09485,19.8076,162.582,1.04928,0.0,0.0
282,70.25,97.9818,118.575,100.615,100.943,90.8901,0.00795791,1.11168,19.7907,162.352,0.951931,0.0,0.0
285,71,99.145,119.821,103.823,100.943,89.8633,0.00806038,1.12881,19.7708,162.072,1.05502,0.0,0.0
288,71.75,99.7122,120.596,102.398,100.931,91.2057,0.00814938,1.14833,19.7531,161.832,0.919422,0.0,0.0
291,72.5,100.86,122.034,95.7932,100.931,90.5415,0.00823873,1.16551,19.728,161.531,0.985738,0.0,0.0
294,73.25,101.57,122.822,102.241,100.945,90.527,0.00833884,1.18305,19.7065,161.291,0.98844,0.0,0.0
297,74,102.404,124.067,100.306,100.947,91.5135,0.00842673,1.20181,19.6851,161.031,0.890275,0.0,0.0
300,74.75,103.605,124.915,93.7644,100.94,90.2687,0.00853229,1.21803,19.6667,160.671,1.01389,0.0,0.0
303,75.5,104.264,126.469,104.254,100.936,90.9139,0.0086447,1.23667,19.6485,160.451,0.948898,0.0,0.0
306,76.25,105.128,127.331,103.194,100.943,90.358,0.00875701,1.25393,19.6269,160.22,1.00521,0.0,0.0
309,77,105.561,128.09,107.403,100.947,90.0337,0.00887964,1.27062,19.6049,159.95,1.03824,0.0,0.0
312,77.75,106.569,129.14,103.423,100.927,90.7595,0.00899114,1.28714,19.5824,159.54,0.963517,0.0,0.0
315,78.5,107.051,130.189,101.69,100.93,90.093,0.00909073,1.30654,19.5596,159.239,1.03073,0.0,0.0
318,79.25,107.798,131.049,96.2412,100.935,89.2439,0.00917855,1.32384,19.5407,158.979,1.1171,0.0,0.0
321,80,108.549,132.001,102.376,100.939,88.9934,0.00929333,1.34184,19.5227,158.759,1.14293,0.0,0.0
324,80.75,109.683,133.011,103.841,100.921,88.456,0.00939864,1.36182,19.504,158.349,1.19633,0.0,0.0
327,81.5,110.088,133.675,100.759,100.914,90.5517,0.00958495,1.37932,19.4867,158.108,0.983146,0.0,0.0
330,82.25,110.833,134.636,101.624,100.914,90.6493,0.00976748,1.40071,19.4682,157.788,0.973446,0.0,0.0
333,83,111.4,135.024,97.9265,100.924,89.5138,0.0100385,1.41631,19.4483,157.568,1.08867,0.0,0.0
336,83.75,112.473,136.219,105.683,100.911,89.6925,0.0102872,1.43363,19.4272,157.258,1.06945,0.0,0.0
339,84.5,112.803,137.552,105.471,100.895,88.5934,0.010491,1.44972,19.405,156.917,1.17987,0.0,0.0
342,85.25,113.757,138.099,99.2104,100.906,89.7109,0.0106407,1.46392,19.3773,156.597,1.06707,0.0,0.0
345,86,114.544,138.802,101.208,100.896,88.9444,0.0107199,1.47687,19.3522,156.387,1.1441,0.0,0.0
348,86.75,115.876,139.838,93.0912,100.892,88.8303,0.0107685,1.48894,19.3306,156.117,1.15538,0.0,0.0
351,87.5,116.462,140.842,102.27,100.878,89.3318,0.0108001,1.50106,19.3129,155.756,1.10302,0.0,0.0
354,88.25,116.807,141.905,108.004,100.876,89.4478,0.0108642,1.51317,19.2982,155.446,1.09106,0.0,0.0
357,89,116.986,142.592,106.676,100.869,89.2196,0.0109423,1.52518,19.2867,155.256,1.11358,0.0,0.0
360,89.75,117.656,143.196,97.9029,100.845,89.375,0.0110128,1.53393,19.2743,154.926,1.09567,0.0,0.0
363,90.5,118.408,143.794,104.449,100.822,86.1937,0.0110855,1.55077,19.2635,154.575,1.4225,0.0,0.0
366,91.25,118.945,143.879,102.662,100.818,87.9258,0.0111752,1.56715,19.251,154.265,1.24159,0.0,0.0
369,92,119.445,144.155,97.7349,100.817,88.7133,0.0112486,1.57674,19.2407,154.095,1.16054,0.0,0.0
372,92.75,119.58,145.221,97.5716,100.799,89.0114,0.0113617,1.5923,19.2287,153.745,1.12853,0.0,0.0
375,93.5,120.397,145.634,101.883,100.769,89.0594,0.0114928,1.60484,19.211,153.504,1.12092,0.0,0.0
378,94.25,121.163,146.325,105.515,100.721,88.3356,0.0119013,1.62506,19.1663,152.824,1.19066,0.0,0.0
381,95,121.175,146.409,112.599,100.693,89.9896,0.0121594,1.62829,19.1443,152.333,1.01976,0.0,0.0
384,95.75,121.885,146.996,99.7103,100.667,89.2395,0.0124142,1.62903,19.127,151.983,1.0934,0.0,0.0
387,96.5,122.949,147.964,102.659,100.606,88.6492,0.0125339,1.62683,19.1212,151.493,1.1481,0.0,0.0
390,97.25,123.327,147.913,106.816,100.559,87.3195,0.0126043,1.61834,19.1202,151.012,1.28106,0.0,0.0
393,98,122.886,147.788,104.991,100.536,88.9172,0.0125891,1.61303,19.1217,150.652,1.1144,0.0,0.0
396,98.75,123.769,147.883,110.123,100.47,88.3142,0.0125377,1.60509,19.1245,150.212,1.17016,0.0,0.0
399,99.5,123.913,147.626,105.114,100.409,88.7264,0.0124155,1.58844,19.1335,149.721,1.12244,0.0,0.0
402,100.25,124.316,147.909,109.264,100.366,89.4002,0.012252,1.56925,19.1481,149.361,1.04993,0.0,0.0
405,101,123.908,147.605,106.156,100.322,90.4779,0.0121843,1.56075,19.158,149.02,0.937151,0.0,0.0
408,101.75,123.906,147.092,104.465,100.292,89.9803,0.0121244,1.55327,19.1722,148.71,0.984549,0.0,0.0
411,102.5,123.708,147.597,103.148,100.257,90.6231,0.0120618,1.54671,19.1844,148.6,0.916796,0.0,0.0
414,103.25,123.796,147.093,109.903,100.209,91.4275,0.0120163,1.53891,19.194,148.29,0.832261,0.0,0.0
417,104,123.845,146.871,105.213,100.163,90.3041,0.011953,1.53322,19.2024,148.07,0.940254,0.0,0.0
420,104.75,123.509,147.067,114.622,100.129,90.4313,0.011899,1.52397,19.2097,147.859,0.924388,0.0,0.0
423,105.5,123.864,146.655,105.8,100.101,90.5178,0.0118591,1.5147,19.2163,147.679,0.913216,0.0,0.0
426,106.25,123.893,146.408,105.701,100.069,91.1023,0.0118347,1.50503,19.2225,147.449,0.851861,0.0,0.0
429,107,124.502,146.428,108.711,100.001,90.5352,0.0118314,1.49482,19.2275,147.229,0.902362,0.0,0.0
432,107.75,123.451,146.22,112.5,99.9628,89.6041,0.0118351,1.48737,19.2361,147.089,0.992705,0.0,0.0
435,108.5,123.387,145.296,114.006,99.9368,90.7556,0.0118365,1.47149,19.2445,146.949,0.87447,0.0,0.0
438,109.25,122.758,145.144,118.62,99.871,90.9187,0.0118351,1.4563,19.2558,146.809,0.852196,0.0,0.0
441,110,122.258,144.093,119.452,99.8364,91.5824,0.0117814,1.43862,19.2696,146.688,0.783063,0.0,0.0
444,110.75,121.326,142.959,121.999,99.7836,93.0534,0.011762,1.42994,19.275,146.588,0.63367,0.0,0.0
447,111.5,120.974,141.507,126.244,99.7564,94.2238,0.0115897,1.41992,19.2884,146.538,0.517766,0.0,0.0
450,112.25,119.859,139.968,124.423,99.7024,96.4128,0.0113737,1.40609,19.3048,146.418,0.304448,0.0,0.0
453,113,118.782,137.912,128.558,99.6788,98.0027,0.011142,1.39007,19.3228,146.368,0.153883,0.0,0.0
456,113.75,117.533,136.928,133.694,99.6321,98.9561,0.0109119,1.37118,19.3398,146.318,0.0617721,0.0,0.0
459,114.5,116.94,134.859,130.314,99.6174,99.6241,0.0106771,1.34943,19.3561,146.338,-0.000610665,0.0,0.0
462,115.25,115.177,133.322,131.927,99.5723,100.119,0.0104668,1.31677,19.3731,146.298,-0.0497122,0.0,0.0
465,116,113.877,131.101,130.291,99.5252,100.545,0.0102735,1.2783,19.3911,146.268,-0.092515,0.0,0.0
468,116.75,113.612,130.012,132.285,99.5028,101.182,0.0100928,1.24401,19.4149,146.248,-0.1519,0.0,0.0
471,117.5,112.046,127.807,132.511,99.4919,100.605,0.00996102,1.17851,19.4369,146.258,-0.100985,0.0,0.0
474,118.25,110.761,126.57,135.59,99.4606,100.855,0.0097055,1.11464,19.4727,146.228,-0.126361,0.0,0.0
477,119,109.875,124.088,130.295,99.433,100.447,0.00938444,1.0405,19.5082,146.218,-0.0921178,0.0,0.0
480,119.75,108.462,122.807,132.528,99.4029,100.412,0.00909294,0.960469,19.5502,146.158,-0.0916167,0.0,0.0
483,120.5,107.212,121.396,134.49,99.3854,100.496,0.00880189,0.911797,19.5879,146.148,-0.100799,0.0,0.0
486,121.25,106.317,120.346,132.902,99.3842,100.627,0.00832282,0.822315,19.6742,146.148,-0.112737,0.0,0.0
489,122,105.884,118.575,129.689,99.361,100.733,0.00791269,0.738613,19.7745,146.108,-0.124479,0.0,0.0
492,122.75,104.107,116.502,132.163,99.3289,100.373,0.00741622,0.661615,19.8835,146.128,-0.0948594,0.0,0.0
495,123.5,102.976,115.445,135.798,99.3245,100.93,0.00691122,0.591623,19.9921,146.108,-0.14547,0.0,0.0
498,124.25,102.265,113.965,135.005,99.3224,100.512,0.00648208,0.526082,20.095,146.118,-0.108042,0.0,0.0
501,125,101.341,112.584,133.952,99.3086,100.314,0.00602543,0.472114,20.1815,146.058,-0.0914474,0.0,0.0
504,125.75,100.681,111.182,133.17,99.2899,100.259,0.00559716,0.422308,20.2643,146.048,-0.088148,0.0,0.0
507,126.5,99.5437,110.132,134.062,99.281,100.46,0.0052267,0.378294,20.3509,146.038,-0.107138,0.0,0.0
510,127.25,98.7157,108.677,131.55,99.2863,100.194,0.00490847,0.34066,20.421,146.048,-0.082549,0.0,0.0
513,128,96.0498,106.289,135.885,99.27,100.383,0.00464196,0.307936,20.4842,146.008,-0.101209,0.0,0.0
516,128.75,95.4584,105.593,136.565,99.2704,100.501,0.00442375,0.278614,20.5495,145.998,-0.11183,0.0,0.0
519,129.5,94.6432,104.093,134.629,99.2712,100.23,0.00423558,0.255868,20.6005,145.968,-0.0872638,0.0,0.0
522,130.25,93.8352,103.199,137.746,99.2814,100.229,0.00407069,0.234947,20.6438,145.998,-0.0861602,0.0,0.0
525,131,92.9063,101.776,135.916,99.2826,100.036,0.00392432,0.219696,20.6754,145.958,-0.068582,0.0,0.0
528,131.75,91.9864,101.343,136.363,99.2826,100.113,0.00381762,0.206862,20.7054,145.928,-0.0756252,0.0,0.0
531,132.5,91.2188,100.181,134.179,99.2903,99.9747,0.00368805,0.194571,20.7281,145.908,-0.0623267,0.0,0.0
534,133.25,90.8303,99.2357,133.133,99.296,100.254,0.00356489,0.18339,20.7459,145.928,-0.0871513,0.0,0.0
537,134,89.6959,98.4134,136.599,99.3334,100.492,0.00346375,0.174158,20.7628,145.898,-0.105242,0.0,0.0
540,134.75,89.3483,97.6062,135.04,99.3131,100.973,0.00338282,0.166967,20.7778,145.888,-0.150393,0.0,0.0
543,135.5,89.0594,96.3919,137.157,99.3379,100.348,0.00332515,0.16047,20.791,145.898,-0.0918047,0.0,0.0
546,136.25,87.6417,96.1224,138.296,99.3606,100.11,0.00328538,0.155007,20.8027,145.888,-0.0681454,0.0,0.0
549,137,87.1927,94.6808,137.268,99.3846,100.418,0.00326719,0.150468,20.8116,145.878,-0.0938565,0.0,0.0
552,137.75,86.7375,94.0588,137.12,99.3972,100.322,0.00326906,0.146737,20.819,145.818,-0.0840599,0.0,0.0
555,138.5,86.3769,93.3935,132.654,99.4065,100.74,0.00327689,0.143699,20.8256,145.818,-0.120936,0.0,0.0
558,139.25,85.8972,92.7076,133.626,99.4317,100.289,0.00329768,0.140939,20.8306,145.808,-0.0779211,0.0,0.0
561,140,85.6216,91.809,136.403,99.463,100.093,0.00331927,0.138339,20.8345,145.838,-0.0572584,0.0,0.0
564,140.75,84.3921,91.399,132.518,99.4756,100.278,0.00333501,0.136193,20.8382,145.818,-0.0729068,0.0,0.0
567,141.5,84.0227,90.4935,138.4,99.5,100.417,0.00334395,0.134049,20.8413,145.818,-0.0832383,0.0,0.0
570,142.25,83.3848,90.0503,135.247,99.5215,100.512,0.00335073,0.132014,20.8436,145.778,-0.0898254,0.0,0.0
573,143,82.9746,89.5003,136.774,99.5545,100.826,0.00335578,0.130919,20.8456,145.838,-0.115182,0.0,0.0
576,143.75,82.6711,88.4585,132.953,99.5549,100.678,0.00337243,0.129582,20.8484,145.778,-0.101808,0.0,0.0
579,144.5,81.917,87.8288,142.642,99.5922,100.546,0.00338856,0.128544,20.8507,145.758,-0.0864922,0.0,0.0
582,145.25,81.4909,87.2368,136.09,99.6272,100.694,0.00340713,0.127652,20.8523,145.718,-0.0966179,0.0,0.0
585,146,80.8991,87.2169,134.207,99.643,100.996,0.003424,0.126772,20.8535,145.748,-0.12239,0.0,0.0
588,146.75,80.5127,86.5091,133.977,99.6662,100.492,0.00344198,0.125861,20.855,145.618,-0.0748481,0.0,0.0
591,147.5,79.7997,85.5951,138.125,99.6833,100.36,0.0034641,0.124986,20.8561,145.638,-0.0613623,0.0,0.0
594,148.25,79.7664,85.5294,135.508,99.706,100.226,0.00349356,0.124187,20.8569,145.607,-0.0472125,0.0,0.0
597,149,78.9862,84.7111,135.475,99.7426,100.844,0.00355782,0.123396,20.8575,145.688,-0.099666,0.0,0.0
600,149.75,79.0583,83.9986,135.699,99.7621,100.88,0.00363883,0.122675,20.8585,145.648,-0.10108,0.0,0.0
603,150.5,78.0913,83.6725,135.542,99.7763,100.729,0.00372588,0.122055,20.8595,145.638,-0.0861952,0.0,0.0
606,151.25,77.662,83.3796,139.66,99.8019,100.438,0.00383722,0.121588,20.8603,145.628,-0.0576765,0.0,0.0
609,152,76.8761,82.4898,139.054,99.8247,100.877,0.00397084,0.121242,20.8613,145.648,-0.095171,0.0,0.0
612,152.75,77.4086,82.286,139.554,99.8547,100.557,0.00408762,0.120925,20.8622,145.628,-0.0636142,0.0,0.0
615,153.5,76.901,81.6994,136.884,99.8681,100.711,0.00417053,0.120763,20.8626,145.688,-0.076229,0.0,0.0
618,154.25,76.6513,80.8897,137.607,99.8836,100.969,0.0042803,0.120405,20.8632,145.668,-0.0981109,0.0,0.0
621,155,75.922,80.8571,137.212,99.9031,100.929,0.0043894,0.119971,20.8637,145.618,-0.0927161,0.0,0.0
624,155.75,75.2348,80.2992,135.401,99.9185,100.716,0.00442494,0.119676,20.8638,145.607,-0.0721762,0.0,0.0
627,156.5,75.1566,80.0422,138.169,99.9222,100.913,0.00446085,0.119245,20.8642,145.527,-0.0894982,0.0,0.0
630,157.25,75.0372,79.6179,134.865,99.949,100.822,0.00446529,0.118845,20.865,145.527,-0.0789397,0.0,0.0
633,158,74.1535,79.4577,138.439,99.9689,100.899,0.00445583,0.118473,20.8657,145.507,-0.0840768,0.0,0.0
636,158.75,74.4119,79.1088,137.261,99.9965,100.884,0.00444085,0.118031,20.8662,145.507,-0.0801722,0.0,0.0
639,159.5,74.0677,78.8338,136.124,99.9852,100.814,0.00442536,0.117677,20.8666,145.487,-0.0748704,0.0,0.0
642,160.25,73.902,78.7503,136.231,100.001,101.214,0.00441674,0.117365,20.8669,145.497,-0.109331,0.0,0.0
645,161,73.1538,78.1815,135.743,100.026,100.991,0.00441503,0.117122,20.8671,145.517,-0.0870825,0.0,0.0
648,161.75,73.4272,77.8168,135.369,100.048,101.212,0.00441921,0.116918,20.8677,145.537,-0.104918,0.0,0.0
651,162.5,72.8593,77.2962,133.978,100.047,100.571,0.00441758,0.116748,20.8683,145.517,-0.0474354,0.0,0.0
654,163.25,72.7971,76.8645,139.716,100.06,101.065,0.0044084,0.116684,20.8688,145.527,-0.0907754,0.0,0.0
657,164,71.9839,76.8777,135.519,100.07,101.043,0.00439085,0.116678,20.8691,145.537,-0.0877313,0.0,0.0
660,164.75,71.834,76.2865,136.401,100.117,101.017,0.00438059,0.116701,20.8693,145.537,-0.0812211,0.0,0.0
663,165.5,71.4979,75.7027,135.915,100.098,101.143,0.0043761,0.116713,20.8695,145.487,-0.0942468,0.0,0.0
666,166.25,70.9366,75.742,132.876,100.105,101.26,0.00437997,0.116699,20.8696,145.427,-0.104148,0.0,0.0
669,167,71.1446,75.6198,135.08,100.125,100.972,0.00438212,0.116651,20.8697,145.367,-0.0764352,0.0,0.0
672,167.75,70.9604,75.2495,136.142,100.149,101.202,0.00438255,0.116557,20.8698,145.447,-0.0949119,0.0,0.0
675,168.5,70.6101,74.7821,136.735,100.155,100.825,0.00438648,0.116421,20.8698,145.427,-0.0605172,0.0,0.0
678,169.25,70.4336,74.368,135.368,100.162,100.513,0.00440071,0.116172,20.8699,145.397,-0.0317098,0.0,0.0
681,170,70.4682,74.0534,136.742,100.179,101.244,0.0044305,0.115826,20.8699,145.457,-0.095893,0.0,0.0
684,170.75,69.8456,74.0316,133.887,100.199,101.133,0.00448302,0.115473,20.8704,145.447,-0.0842073,0.0,0.0
687,171.5,69.9834,74.2661,133.037,100.213,101.578,0.00452799,0.115162,20.8709,145.417,-0.122806,0.0,0.0
690,172.25,69.6121,73.6942,136.822,100.196,100.64,0.00457222,0.114879,20.8713,145.377,-0.0400935,0.0,0.0
693,173,69.399,73.3845,133.055,100.212,101.089,0.00459539,0.11458,20.872,145.387,-0.0791022,0.0,0.0
696,173.75,69.0327,73.3737,133.921,100.236,100.986,0.00461229,0.114376,20.8727,145.407,-0.0676882,0.0,0.0
699,174.5,69.1261,72.8476,136.264,100.236,101.12,0.00459924,0.114258,20.8733,145.397,-0.0797199,0.0,0.0
702,175.25,68.4931,72.6,135.468,100.252,100.942,0.00458972,0.114212,20.8737,145.337,-0.0622396,0.0,0.0
705,176,68.3899,72.3912,133.293,100.24,101.167,0.00459081,0.114242,20.8739,145.317,-0.0835402,0.0,0.0
708,176.75,68.2136,72.3267,135.106,100.256,101.267,0.00460532,0.114369,20.8741,145.337,-0.0910283,0.0,0.0
711,177.5,67.8531,72.0401,135.383,100.269,100.953,0.00464514,0.114506,20.8743,145.357,-0.0617059,0.0,0.0
714,178.25,67.9876,72.0114,134.122,100.27,101.156,0.00468663,0.114668,20.8744,145.297,-0.0798476,0.0,0.0
717,179,67.7064,71.3121,134.442,100.273,100.89,0.0047306,0.114827,20.8746,145.287,-0.0556567,0.0,0.0
720,179.75,67.5795,71.6391,133.286,100.283,101.026,0.00481064,0.114966,20.875,145.287,-0.0669913,0.0,0.0
723,180.5,67.1567,70.9408,135.211,100.303,100.96,0.00487625,0.115047,20.8753,145.337,-0.0592649,0.0,0.0
726,181.25,67.4098,70.7677,136.354,100.287,101.382,0.00492408,0.114787,20.8755,145.297,-0.0985314,0.0,0.0
729,182,67.5812,71.2649,134.845,100.295,100.917,0.00494623,0.114598,20.8756,145.267,-0.0561226,0.0,0.0
732,182.75,67.2083,70.7191,133.873,100.306,101.132,0.0049522,0.114246,20.8757,145.237,-0.0744412,0.0,0.0
735,183.5,66.738,70.4198,133.146,100.326,101.228,0.00495221,0.114035,20.8758,145.247,-0.0811867,0.0,0.0
738,184.25,66.6265,69.9778,139.101,100.326,100.769,0.00493044,0.113947,20.8759,145.167,-0.0399685,0.0,0.0
741,185,66.604,70.1626,136.268,100.324,100.898,0.00488787,0.113964,20.8763,145.197,-0.0518106,0.0,0.0
744,185.75,66.3444,69.6594,134.172,100.324,100.903,0.00482511,0.114019,20.8769,145.127,-0.0521664,0.0,0.0
747,186.5,65.9314,70.1139,134.546,100.34,100.932,0.00476801,0.114074,20.8773,145.217,-0.0533964,0.0,0.0
750,187.25,65.9679,69.3011,137.408,100.349,101.083,0.00472182,0.11412,20.8776,145.197,-0.0661441,0.0,0.0
753,188,66.0432,69.2822,139.578,100.347,100.828,0.00469282,0.114175,20.8778,145.157,-0.0434189,0.0,0.0
756,188.75,65.891,69.4447,135.771,100.346,101.11,0.00467969,0.114255,20.8773,145.147,-0.0687983,0.0,0.0
759,189.5,65.5438,68.7732,136.335,100.371,101.257,0.0046752,0.11438,20.877,145.207,-0.0797123,0.0,0.0
762,190.25,65.2281,68.8106,136.894,100.369,101.066,0.00467409,0.114578,20.8767,145.167,-0.0627815,0.0,0.0
765,191,65.1898,69.3032,138.1,100.361,101.128,0.0046896,0.114691,20.8765,145.087,-0.0690141,0.0,0.0
768,191.75,64.1777,68.4177,138.735,100.375,101.108,0.00473356,0.114719,20.8764,145.097,-0.066022,0.0,0.0
771,192.5,65.2897,68.8224,134.529,100.368,101.494,0.00478569,0.114761,20.8763,145.167,-0.101219,0.0,0.0
774,193.25,64.9207,67.882,136.328,100.396,100.664,0.00485806,0.1148,20.8762,145.147,-0.0241875,0.0,0.0
777,194,64.9435,67.6843,132.422,100.388,101.515,0.00495442,0.114841,20.8762,145.097,-0.101242,0.0,0.0
780,194.75,64.7399,67.5486,137.621,100.384,101.216,0.00502467,0.114807,20.8761,145.067,-0.074962,0.0,0.0
783,195.5,64.4118,67.5768,134.337,100.396,101.547,0.00508352,0.11479,20.8761,145.077,-0.103488,0.0,0.0
786,196.25,64.7912,67.5263,137.794,100.404,101.05,0.00515084,0.11477,20.8761,145.077,-0.0582284,0.0,0.0
789,197,64.2917,67.6524,136.303,100.388,101.235,0.00519876,0.114741,20.8761,145.047,-0.0762552,0.0,0.0
792,197.75,64.1835,67.3797,136.692,100.403,101.14,0.00521916,0.114705,20.876,145.027,-0.0664001,0.0,0.0
795,198.5,64.4931,66.8418,139.191,100.414,101.035,0.0052251,0.114666,20.876,145.047,-0.0559147,0.0,0.0
798,199.25,64.1057,67.2078,135.632,100.421,101.384,0.00522831,0.114637,20.876,145.077,-0.0866233,0.0,0.0
801,200,63.8861,67.2798,136.638,100.423,101.148,0.00523524,0.114601,20.876,145.027,-0.0652609,0.0,0.0
804,200.75,64.119,67.2727,140.122,100.408,101.06,0.00525484,0.114568,20.876,145.017,-0.058689,0.0,0.0
807,201.5,63.7804,67.1609,135.068,100.407,100.789,0.00526913,0.114545,20.876,145.007,-0.0344795,0.0,0.0
810,202.25,63.4491,67.2272,140.334,100.421,101.015,0.00527954,0.114634,20.876,145.047,-0.053503,0.0,0.0
813,203,62.908,66.1281,136.553,100.406,101.138,0.00529996,0.114744,20.876,144.967,-0.0658891,0.0,0.0
816,203.75,63.7051,66.0472,136.995,100.413,100.963,0.00531015,0.115058,20.876,144.947,-0.0495262,0.0,0.0
819,204.5,63.0207,66.1435,136.789,100.418,101.274,0.00530955,0.115312,20.8763,144.937,-0.0770117,0.0,0.0
822,205.25,63.043,66.1556,133.768,100.42,100.871,0.00529764,0.115536,20.8764,144.977,-0.0407318,0.0,0.0
825,206,62.774,65.7927,137.279,100.421,100.933,0.00527896,0.115636,20.8765,144.967,-0.04621,0.0,0.0
828,206.75,62.8322,66.0361,137.512,100.414,101.42,0.00526318,0.115664,20.8766,144.967,-0.0904684,0.0,0.0
831,207.5,62.8686,66.1976,134.533,100.425,100.906,0.0052553,0.115634,20.8763,144.947,-0.0433178,0.0,0.0
834,208.25,62.9832,65.6426,139.166,100.433,101.325,0.00525594,0.115558,20.8758,144.937,-0.0802563,0.0,0.0
837,209,62.8633,65.823,135.018,100.426,100.974,0.00525912,0.115443,20.8754,144.887,-0.0493914,0.0,0.0
840,209.75,62.6341,65.5795,138.125,100.409,101.267,0.00527234,0.115334,20.8756,144.867,-0.0772108,0.0,0.0
843,210.5,62.8425,65.1827,138.71,100.418,100.989,0.00528132,0.115126,20.876,144.827,-0.0514418,0.0,0.0
846,211.25,62.4795,65.1572,140.194,100.429,101.463,0.00528671,0.114999,20.8762,144.877,-0.0928888,0.0,0.0
849,212,62.1317,65.2309,136.909,100.446,101.108,0.00527145,0.114946,20.8764,144.867,-0.0595529,0.0,0.0
852,212.75,62.3731,64.7668,136.878,100.421,100.767,0.00524343,0.114926,20.8765,144.817,-0.031191,0.0,0.0
855,213.5,62.321,64.5367,139.994,100.432,101.465,0.0052081,0.114882,20.8764,144.807,-0.0928423,0.0,0.0
858,214.25,61.6402,65.1774,136.238,100.423,101.142,0.00517471,0.114837,20.8763,144.777,-0.0647314,0.0,0.0
861,215,61.8064,64.3687,137.213,100.437,101.036,0.00514978,0.114954,20.8762,144.827,-0.05399,0.0,0.0
864,215.75,61.5666,64.7579,136.141,100.416,101.238,0.00514026,0.115014,20.8762,144.787,-0.0739821,0.0,0.0
867,216.5,62.3917,64.7869,139.27,100.417,101.246,0.00514132,0.115061,20.8761,144.727,-0.0746419,0.0,0.0
870,217.25,61.6526,64.3977,138.007,100.429,101.022,0.00516274,0.114976,20.8761,144.707,-0.0534236,0.0,0.0
873,218,61.4,64.5533,137.89,100.447,100.95,0.0052038,0.114863,20.8761,144.717,-0.0453451,0.0,0.0
876,218.75,61.2675,64.6596,133.5,100.435,101.027,0.00523642,0.114632,20.8761,144.677,-0.0533817,0.0,0.0
879,219.5,61.2464,64.3264,135.667,100.427,101.128,0.00526479,0.114388,20.876,144.697,-0.0631442,0.0,0.0
882,220.25,61.0122,64.2412,134.076,100.428,101.049,0.00528366,0.114179,20.876,144.757,-0.055894,0.0,0.0
885,221,61.4409,63.8049,136.973,100.443,101.174,0.00528976,0.114026,20.8763,144.767,-0.0658134,0.0,0.0
888,221.75,61.4731,63.8725,140.001,100.431,101.059,0.00528558,0.113851,20.8768,144.737,-0.056583,0.0,0.0
891,222.5,60.8469,63.8951,137.151,100.422,100.731,0.00527335,0.113724,20.8773,144.717,-0.027889,0.0,0.0
894,223.25,60.897,64.2,135.654,100.427,100.988,0.00526444,0.113545,20.8776,144.687,-0.050553,0.0,0.0
897,224,60.9464,63.6336,129.615,100.428,101.396,0.0052634,0.113392,20.8778,144.727,-0.0870421,0.0,0.0
900,224.75,60.7899,63.7367,134.626,100.421,101.258,0.0052788,0.113199,20.878,144.677,-0.0753187,0.0,0.0
903,225.5,60.5521,63.9367,136.837,100.41,100.932,0.00528681,0.113128,20.8781,144.657,-0.0470271,0.0,0.0
906,226.25,60.7668,63.8888,138.507,100.414,100.863,0.00530547,0.113026,20.8781,144.647,-0.0404672,0.0,0.0
909,227,61.2068,63.9998,134.499,100.418,100.932,0.00533514,0.112997,20.8786,144.687,-0.0463296,0.0,0.0
912,227.75,60.6809,63.4864,138.384,100.423,101.178,0.0053695,0.11301,20.8789,144.647,-0.0679177,0.0,0.0
915,228.5,60.8599,63.3941,138.146,100.405,100.982,0.00540365,0.113046,20.8791,144.577,-0.0519994,0.0,0.0
918,229.25,60.2927,63.1726,138.957,100.416,100.896,0.00543238,0.112924,20.8795,144.587,-0.043289,0.0,0.0
921,230,60.2277,63.6115,136.631,100.412,100.917,0.00545495,0.112834,20.8802,144.607,-0.0454979,0.0,0.0
924,230.75,60.2467,63.5141,139.289,100.422,100.858,0.0054663,0.112769,20.8807,144.587,-0.0392525,0.0,0.0
927,231.5,60.8245,62.8622,135.026,100.429,100.983,0.00547039,0.112999,20.8811,144.557,-0.0499705,0.0,0.0
930,232.25,60.1322,63.3483,133.412,100.4,100.883,0.00546992,0.113226,20.8813,144.537,-0.0435499,0.0,0.0
933,233,59.8871,62.9621,137.547,100.409,101.267,0.00545427,0.113417,20.8815,144.507,-0.0772474,0.0,0.0
936,233.75,59.9933,62.8103,136.983,100.423,100.928,0.00542962,0.113471,20.8817,144.557,-0.0455098,0.0,0.0
939,234.5,60.2386,62.7427,138.553,100.41,100.787,0.00540018,0.113376,20.8818,144.497,-0.0340549,0.0,0.0
942,235.25,60.2826,62.5229,137.132,100.398,100.934,0.00536469,0.113249,20.8818,144.467,-0.0483108,0.0,0.0
945,236,59.831,62.9047,138.904,100.398,100.828,0.00532748,0.113199,20.8819,144.527,-0.0387832,0.0,0.0
948,236.75,59.8521,63.1437,136.913,100.401,100.968,0.00529118,0.113234,20.8819,144.507,-0.0511084,0.0,0.0
951,237.5,59.9103,62.2733,137.678,100.388,100.927,0.00525452,0.11338,20.882,144.507,-0.0486175,0.0,0.0
954,238.25,59.6962,62.7508,138.242,100.382,101.085,0.00522882,0.113442,20.882,144.497,-0.0633871,0.0,0.0
957,239,59.583,62.8795,139.494,100.383,101.132,0.00521925,0.113468,20.882,144.487,-0.0674223,0.0,0.0
960,239.75,59.4065,62.5692,138.204,100.401,100.959,0.00523267,0.113487,20.882,144.537,-0.0502425,0.0,0.0
963,240.5,59.6811,62.9082,136.841,100.399,101.073,0.00526256,0.113586,20.882,144.477,-0.0607546,0.0,0.0
966,241.25,59.5053,62.2537,135.516,100.375,101.094,0.00530385,0.113703,20.882,144.497,-0.0647587,0.0,0.0
969,242,59.7738,62.4907,135.944,100.362,100.973,0.00534488,0.113775,20.882,144.517,-0.0551142,0.0,0.0
972,242.75,59.7791,62.3753,138.11,100.378,100.782,0.00536968,0.113775,20.882,144.607,-0.0364755,0.0,0.0
975,243.5,59.6104,62.0254,137.018,100.366,100.904,0.00538558,0.11379,20.882,144.487,-0.0484696,0.0,0.0
978,244.25,59.5261,62.4527,136.862,100.356,101.096,0.00538309,0.113828,20.882,144.426,-0.0666159,0.0,0.0
981,245,59.6478,62.3148,134.374,100.353,100.815,0.00536491,0.113895,20.882,144.426,-0.0416957,0.0,0.0
984,245.75,59.2256,62.3842,139.783,100.365,100.655,0.00532607,0.114032,20.882,144.276,-0.0261553,0.0,0.0
987,246.5,59.7041,62.2606,138.362,100.356,100.652,0.00529753,0.114297,20.882,144.296,-0.0267373,0.0,0.0
990,247.25,59.3565,62.3366,141.516,100.335,100.857,0.00528934,0.11465,20.882,144.426,-0.0471065,0.0,0.0