File: 01_Data/Masonite_Board/Cone/Masonite_Board_HRRPUA_25.csv
Time after Ignition,Masonite_Board_R1,Masonite_Board_R2,Masonite_Board_R3,Mean,Std. Dev.
0.0,-0.8,2.1,13.8,5.1,7.7
0.25,-0.8,2.2,14.0,5.1,7.8
0.5,-0.8,2.2,13.8,5.1,7.7
0.75,-0.8,2.3,13.4,5.0,7.5
1.0,-0.8,2.3,13.2,4.9,7.3
1.25,-0.8,2.4,13.3,5.0,7.4
1.5,-0.8,2.3,13.1,4.9,7.3
1.75,-0.8,2.3,13.0,4.8,7.2
2.0,-0.8,2.4,13.0,4.8,7.2
2.25,-0.7,2.4,12.9,4.9,7.1
2.5,-0.6,2.4,12.7,4.9,7.0
2.75,-0.5,2.4,12.6,4.8,6.9
3.0,-0.4,2.4,12.6,4.9,6.8
3.25,-0.3,2.4,12.3,4.8,6.7
3.5,-0.3,2.4,12.1,4.7,6.5
3.75,-0.2,2.4,11.9,4.7,6.4
4.0,-0.1,2.4,11.8,4.7,6.3
4.25,-0.1,2.5,11.7,4.7,6.2
4.5,-0.0,2.4,11.6,4.7,6.1
4.75,0.0,2.4,11.4,4.6,6.0
5.0,0.0,2.4,11.3,4.6,5.9
5.25,0.1,2.5,11.4,4.6,5.9
5.5,0.1,2.4,11.0,4.5,5.7
5.75,0.1,2.5,11.1,4.6,5.8
6.0,0.2,2.5,11.1,4.6,5.8
6.25,0.2,2.4,10.9,4.5,5.7
6.5,0.2,2.4,11.0,4.6,5.7
6.75,0.2,2.4,11.0,4.5,5.7
7.0,0.4,2.5,11.1,4.7,5.7
7.25,0.5,2.7,10.9,4.7,5.5
7.5,0.6,2.8,10.8,4.7,5.4
7.75,0.7,2.9,10.7,4.8,5.3
8.0,0.9,3.0,10.6,4.8,5.1
8.25,1.1,3.1,10.4,4.9,4.9
8.5,1.2,3.1,10.4,4.9,4.8
8.75,1.4,3.2,10.2,4.9,4.6
9.0,1.5,3.3,10.1,5.0,4.5
9.25,1.9,3.4,10.0,5.1,4.3
9.5,2.3,3.4,9.9,5.2,4.2
9.75,2.6,3.4,9.8,5.3,4.0
10.0,2.8,3.5,9.8,5.4,3.9
10.25,3.0,3.5,9.7,5.4,3.7
10.5,3.3,4.2,9.6,5.7,3.4
10.75,4.1,4.7,10.0,6.2,3.2
11.0,4.8,5.3,10.5,6.9,3.2
11.25,5.4,5.6,10.6,7.2,3.0
11.5,6.0,6.1,10.9,7.7,2.8
11.75,6.5,6.6,12.9,8.6,3.6
12.0,7.0,8.1,14.1,9.7,3.8
12.25,8.6,9.8,15.7,11.4,3.8
12.5,10.1,11.0,17.3,12.8,3.9
12.75,11.3,12.1,18.3,13.9,3.8
13.0,12.4,15.0,21.5,16.3,4.7
13.25,13.5,17.5,24.7,18.5,5.7
13.5,16.1,19.6,27.8,21.2,6.0
13.75,18.6,22.0,33.4,24.7,7.7
14.0,20.1,26.8,37.4,28.1,8.8
14.25,22.5,30.5,41.8,31.6,9.7
14.5,26.3,35.5,44.8,35.5,9.3
14.75,30.2,37.9,50.2,39.4,10.1
15.0,32.9,44.5,54.2,43.9,10.6
15.25,36.1,49.8,60.4,48.8,12.2
15.5,42.5,54.6,63.2,53.4,10.4
15.75,46.6,57.0,69.1,57.6,11.3
16.0,52.0,63.9,72.0,62.6,10.0
16.25,56.9,69.6,75.8,67.4,9.6
16.5,59.0,73.2,79.1,70.5,10.3
16.75,65.5,75.7,85.6,75.6,10.1
17.0,68.9,81.2,88.7,79.6,10.0
17.25,72.8,85.1,92.2,83.4,9.8
17.5,76.5,89.7,98.6,88.2,11.1
17.75,82.5,92.2,102.8,92.5,10.2
18.0,86.6,96.9,104.2,95.9,8.8
18.25,90.1,100.9,108.8,99.9,9.4
18.5,93.5,106.1,113.0,104.2,9.9
18.75,97.8,108.2,121.7,109.2,12.0
19.0,101.7,111.8,124.5,112.7,11.4
19.25,104.5,116.4,127.9,116.3,11.7
19.5,109.3,117.7,133.1,120.0,12.1
19.75,115.2,120.7,134.9,123.6,10.2
20.0,116.0,125.5,139.7,127.1,11.9
20.25,122.9,129.6,143.7,132.1,10.6
20.5,124.6,131.4,147.5,134.5,11.8
20.75,130.1,136.4,146.5,137.6,8.3
21.0,128.8,137.0,157.1,141.0,14.5
21.25,132.1,142.3,159.2,144.5,13.7
21.5,133.3,144.9,161.2,146.5,14.0
21.75,144.0,148.6,163.5,152.1,10.2
22.0,145.5,156.3,165.9,155.9,10.2
22.25,147.7,158.3,169.4,158.4,10.9
22.5,155.7,157.7,173.0,162.1,9.5
22.75,154.9,163.5,175.7,164.7,10.5
23.0,161.2,167.6,174.4,167.7,6.6
23.25,162.0,170.5,177.7,170.1,7.8
23.5,170.7,171.6,179.9,174.1,5.1
23.75,173.6,170.4,176.0,173.4,2.8
24.0,177.1,183.2,186.4,182.2,4.7
24.25,179.8,181.2,185.6,182.2,3.0
24.5,183.0,184.1,188.8,185.3,3.0
24.75,187.7,181.4,193.3,187.5,6.0
25.0,190.0,184.9,187.8,187.6,2.6
25.25,193.7,187.4,196.2,192.4,4.5
25.5,200.9,193.1,195.7,196.6,4.0
25.75,200.0,197.7,201.5,199.7,1.9
26.0,206.6,191.8,204.8,201.1,8.1
26.25,207.5,193.0,209.5,203.3,9.0
26.5,207.5,201.8,201.7,203.7,3.3
26.75,212.4,206.1,211.4,209.9,3.4
27.0,212.2,202.6,207.7,207.5,4.8
27.25,214.9,204.5,212.4,210.6,5.5
27.5,216.6,203.8,212.9,211.1,6.6
27.75,219.0,202.9,215.8,212.6,8.5
28.0,224.8,209.8,218.2,217.6,7.5
28.25,219.2,211.3,222.1,217.5,5.6
28.5,223.2,210.6,221.9,218.6,6.9
28.75,228.1,215.1,218.3,220.5,6.7
29.0,229.9,216.5,223.8,223.4,6.7
29.25,224.5,217.1,221.8,221.1,3.7
29.5,230.5,225.4,225.2,227.0,3.0
29.75,233.1,219.5,228.5,227.0,6.9
30.0,237.1,225.4,227.8,230.1,6.2
30.25,232.6,224.3,226.6,227.9,4.3
30.5,237.9,225.7,227.8,230.5,6.6
30.75,242.2,225.1,232.6,233.3,8.6
31.0,236.5,228.8,232.8,232.7,3.8
31.25,237.3,232.4,229.6,233.1,3.9
31.5,242.6,234.1,233.8,236.8,4.9
31.75,243.6,238.3,234.9,238.9,4.4
32.0,248.9,227.9,236.1,237.6,10.6
32.25,244.1,233.4,236.2,237.9,5.6
32.5,242.2,231.3,240.1,237.8,5.8
32.75,252.3,233.4,240.4,242.0,9.5
33.0,249.6,239.1,241.2,243.3,5.6
33.25,248.3,242.2,244.0,244.8,3.2
33.5,254.1,238.1,242.1,244.8,8.3
33.75,245.7,237.4,244.6,242.5,4.5
34.0,254.3,238.8,246.8,246.6,7.8
34.25,251.6,234.7,251.4,245.9,9.7
34.5,256.1,236.8,245.4,246.1,9.7
34.75,251.0,241.5,243.6,245.3,5.0
35.0,256.7,241.0,241.4,246.4,9.0
35.25,259.0,244.2,250.9,251.4,7.4
35.5,260.1,245.3,248.0,251.1,7.9
35.75,255.2,249.3,253.3,252.6,3.0
36.0,254.0,240.8,251.5,248.8,7.0
36.25,261.6,245.6,257.3,254.8,8.3
36.5,255.9,242.6,249.9,249.5,6.7
36.75,260.8,243.5,251.7,252.0,8.7
37.0,255.2,250.5,252.7,252.8,2.4
37.25,259.7,251.8,258.6,256.7,4.2
37.5,260.8,253.3,263.2,259.1,5.2
37.75,264.1,249.4,264.9,259.5,8.7
38.0,258.0,255.8,263.1,258.9,3.7
38.25,266.0,251.2,267.2,261.5,8.9
38.5,262.6,256.4,260.2,259.7,3.1
38.75,260.6,265.1,267.0,264.2,3.3
39.0,264.7,256.3,264.0,261.7,4.7
39.25,272.9,255.2,268.6,265.6,9.2
39.5,270.4,262.1,267.3,266.6,4.2
39.75,263.5,261.7,265.4,263.5,1.8
40.0,270.3,259.6,274.3,268.1,7.6
40.25,272.5,256.1,274.2,267.6,10.0
40.5,277.0,263.8,269.5,270.1,6.6
40.75,269.9,262.4,267.4,266.6,3.8
41.0,277.9,267.0,277.3,274.0,6.1
41.25,273.4,263.7,276.8,271.3,6.8
41.5,269.9,261.9,274.1,268.7,6.2
41.75,277.5,260.6,284.3,274.1,12.2
42.0,274.0,267.5,274.5,272.0,3.9
42.25,275.1,273.2,276.3,274.9,1.6
42.5,281.3,265.4,277.0,274.6,8.2
42.75,289.0,271.9,276.8,279.2,8.8
43.0,285.1,268.0,287.8,280.3,10.8
43.25,283.8,272.7,280.7,279.1,5.7
43.5,283.0,273.3,287.6,281.3,7.3
43.75,278.8,273.0,294.7,282.2,11.2
44.0,285.9,277.0,285.3,282.8,5.0
44.25,283.8,271.9,286.3,280.7,7.7
44.5,283.2,267.3,291.9,280.8,12.5
44.75,289.2,269.6,282.4,280.4,10.0
45.0,292.1,271.8,296.4,286.8,13.1
45.25,294.7,270.9,280.0,281.8,12.0
45.5,284.9,276.9,294.4,285.4,8.8
45.75,288.0,275.4,297.4,286.9,11.0
46.0,295.6,274.2,295.3,288.4,12.3
46.25,289.8,277.1,293.4,286.8,8.6
46.5,296.6,270.5,295.5,287.6,14.8
46.75,295.0,280.2,294.8,290.0,8.5
47.0,298.5,280.5,299.2,292.7,10.6
47.25,295.9,280.8,304.5,293.7,12.0
47.5,297.0,284.5,307.0,296.2,11.3
47.75,299.4,285.6,303.6,296.2,9.4
48.0,302.8,287.6,300.4,296.9,8.2
48.25,297.9,293.4,305.8,299.0,6.3
48.5,294.6,289.4,305.5,296.5,8.2
48.75,303.1,289.7,298.2,297.0,6.8
49.0,293.8,279.7,310.1,294.5,15.2
49.25,304.2,290.0,308.3,300.9,9.6
49.5,302.7,293.5,311.3,302.5,8.9
49.75,301.1,290.6,315.0,302.2,12.3
50.0,304.0,288.3,312.2,301.5,12.1
50.25,311.4,295.1,310.8,305.8,9.2
50.5,308.6,295.8,305.2,303.2,6.6
50.75,306.9,294.5,312.1,304.5,9.0
51.0,306.7,303.9,309.1,306.6,2.6
51.25,305.4,297.9,310.2,304.5,6.2
51.5,307.0,297.8,314.4,306.4,8.3
51.75,318.7,296.7,318.7,311.4,12.7
52.0,306.6,297.1,321.4,308.4,12.2
52.25,317.9,302.3,317.2,312.5,8.8
52.5,317.1,299.0,319.6,311.9,11.3
52.75,318.3,301.6,314.9,311.6,8.8
53.0,315.1,300.6,317.7,311.1,9.2
53.25,315.9,304.9,325.1,315.3,10.1
53.5,320.0,299.3,318.1,312.5,11.4
53.75,318.0,307.8,311.4,312.4,5.2
54.0,329.5,304.0,317.7,317.1,12.8
54.25,322.0,303.8,323.6,316.5,11.0
54.5,318.3,301.2,329.9,316.5,14.4
54.75,327.9,311.4,330.5,323.3,10.3
55.0,331.3,304.5,317.9,317.9,13.4
55.25,326.1,309.8,338.0,324.6,14.2
55.5,316.5,310.0,319.3,315.3,4.8
55.75,327.6,311.4,339.9,326.3,14.3
56.0,317.3,315.5,329.8,320.9,7.8
56.25,327.4,314.1,328.4,323.3,8.0
56.5,329.7,311.4,329.0,323.4,10.4
56.75,329.8,314.4,335.5,326.6,10.9
57.0,331.2,314.8,341.5,329.2,13.4
57.25,331.3,315.8,339.4,328.8,12.0
57.5,334.2,319.8,330.0,328.0,7.4
57.75,332.5,320.3,334.1,329.0,7.6
58.0,338.0,314.9,340.7,331.2,14.2
58.25,331.3,317.6,339.4,329.4,11.0
58.5,340.3,319.4,342.6,334.1,12.8
58.75,332.8,326.2,337.5,332.2,5.7
59.0,340.5,320.1,339.1,333.3,11.4
59.25,336.9,326.3,347.6,336.9,10.7
59.5,351.4,321.2,342.8,338.5,15.5
59.75,332.7,323.9,344.1,333.6,10.1
60.0,346.2,333.1,343.8,341.0,7.0
60.25,339.0,332.7,346.8,339.5,7.1
60.5,341.5,327.7,343.2,337.4,8.5
60.75,331.3,329.8,353.9,338.3,13.5
61.0,348.1,330.9,347.2,342.1,9.7
61.25,354.4,327.6,356.7,346.2,16.2
61.5,339.7,329.1,349.7,339.5,10.3
61.75,346.3,332.2,351.2,343.2,9.9
62.0,348.6,335.8,348.6,344.3,7.4
62.25,351.5,321.7,356.1,343.1,18.7
62.5,351.3,337.1,357.2,348.5,10.3
62.75,345.1,336.3,358.9,346.8,11.4
63.0,357.9,337.0,347.1,347.3,10.4
63.25,349.1,330.1,366.4,348.5,18.1
63.5,351.9,339.3,357.8,349.7,9.5
63.75,348.8,342.8,360.8,350.8,9.1
64.0,354.3,338.6,357.6,350.2,10.1
64.25,360.2,337.3,363.3,353.6,14.2
64.5,349.9,345.0,369.1,354.7,12.7
64.75,345.7,341.4,365.2,350.8,12.7
65.0,365.5,349.5,371.0,362.0,11.2
65.25,366.8,344.3,363.9,358.3,12.2
65.5,358.9,347.3,374.7,360.3,13.8
65.75,360.3,345.6,355.1,353.7,7.5
66.0,367.0,348.6,378.7,364.8,15.1
66.25,362.3,352.5,371.7,362.2,9.6
66.5,361.1,355.1,364.9,360.4,4.9
66.75,372.3,361.7,370.5,368.2,5.7
67.0,369.2,352.7,381.8,367.9,14.6
67.25,360.2,351.4,368.5,360.0,8.6
67.5,375.3,348.9,374.5,366.2,15.0
67.75,381.5,358.8,378.3,372.9,12.3
68.0,377.0,360.6,387.5,375.1,13.5
68.25,376.1,352.9,388.2,372.4,17.9
68.5,385.2,355.8,376.1,372.4,15.0
68.75,381.5,362.5,383.1,375.7,11.5
69.0,379.1,364.8,382.4,375.5,9.4
69.25,371.0,356.3,391.2,372.8,17.5
69.5,384.0,362.2,378.6,374.9,11.3
69.75,384.2,359.9,387.3,377.1,15.0
70.0,389.0,371.2,383.9,381.3,9.2
70.25,377.9,360.1,388.3,375.4,14.3
70.5,386.1,370.1,386.8,381.0,9.5
70.75,395.3,356.5,388.4,380.0,20.7
71.0,381.8,372.4,401.7,385.3,14.9
71.25,387.3,357.2,399.3,381.3,21.7
71.5,392.8,367.1,401.2,387.0,17.8
71.75,375.5,364.3,397.9,379.2,17.1
72.0,391.2,375.5,401.3,389.3,13.0
72.25,397.2,371.2,403.0,390.5,16.9
72.5,390.7,373.6,397.1,387.1,12.2
72.75,386.4,377.4,404.4,389.4,13.8
73.0,391.2,373.0,407.3,390.5,17.2
73.25,385.9,364.4,394.3,381.5,15.4
73.5,399.8,374.5,405.8,393.4,16.6
73.75,399.3,368.5,402.3,390.0,18.7
74.0,391.8,375.3,416.6,394.6,20.8
74.25,403.1,376.8,407.6,395.8,16.7
74.5,398.1,381.1,402.0,393.7,11.1
74.75,399.1,377.7,410.3,395.7,16.5
75.0,411.2,373.6,408.2,397.6,20.9
75.25,401.6,379.7,403.6,395.0,13.3
75.5,402.4,390.0,411.6,401.3,10.8
75.75,400.6,376.5,405.3,394.2,15.4
76.0,399.2,378.9,414.1,397.4,17.7
76.25,393.2,387.3,408.3,396.3,10.8
76.5,398.6,389.4,415.2,401.1,13.1
76.75,398.2,387.1,410.9,398.7,11.9
77.0,407.7,383.7,402.5,398.0,12.6
77.25,404.4,383.6,423.3,403.8,19.8
77.5,407.1,388.5,422.7,406.1,17.1
77.75,409.7,385.2,410.8,401.9,14.5
78.0,403.4,387.0,421.4,403.9,17.2
78.25,404.6,389.4,417.5,403.8,14.1
78.5,408.8,392.3,412.8,404.6,10.8
78.75,411.6,388.3,424.9,408.3,18.5
79.0,403.8,379.3,423.0,402.1,21.9
79.25,405.3,384.2,425.4,405.0,20.6
79.5,411.8,387.3,427.8,409.0,20.4
79.75,404.5,396.3,421.6,407.4,12.9
80.0,407.4,384.2,435.8,409.1,25.9
80.25,416.9,384.5,420.7,407.4,19.9
80.5,407.2,400.6,428.8,412.2,14.8
80.75,418.6,393.4,425.6,412.5,16.9
81.0,410.2,392.4,428.9,410.5,18.2
81.25,426.9,394.7,421.6,414.4,17.3
81.5,412.9,397.4,418.9,409.7,11.1
81.75,424.0,387.4,428.1,413.2,22.4
82.0,415.7,397.5,422.6,411.9,12.9
82.25,416.4,412.0,425.0,417.8,6.6
82.5,415.3,404.8,431.2,417.1,13.3
82.75,414.9,406.8,425.7,415.8,9.5
83.0,420.8,402.8,437.4,420.3,17.3
83.25,414.3,397.2,446.1,419.2,24.8
83.5,416.5,401.1,431.3,416.3,15.1
83.75,422.0,401.9,446.8,423.6,22.5
84.0,416.4,410.4,435.0,420.6,12.8
84.25,419.2,399.6,445.2,421.3,22.9
84.5,424.3,417.8,426.6,422.9,4.5
84.75,413.9,408.1,440.5,420.8,17.2
85.0,421.7,409.2,442.0,424.3,16.6
85.25,432.4,419.7,442.3,431.5,11.4
85.5,427.0,418.4,440.1,428.5,10.9
85.75,432.2,407.8,440.4,426.8,17.0
86.0,426.1,414.4,444.4,428.3,15.1
86.25,424.3,412.4,444.0,426.9,16.0
86.5,425.8,420.4,451.5,432.6,16.6
86.75,430.6,410.6,439.2,426.8,14.7
87.0,438.3,405.4,448.6,430.8,22.6
87.25,402.7,400.3,440.1,414.3,22.3
87.5,432.3,412.8,436.7,427.3,12.8
87.75,421.1,412.2,438.2,423.8,13.2
88.0,440.5,407.9,453.2,433.9,23.3
88.25,434.5,418.4,455.9,436.2,18.8
88.5,440.5,411.5,426.9,426.3,14.5
88.75,426.1,426.0,459.5,437.2,19.3
89.0,422.2,424.4,450.7,432.4,15.8
89.25,428.7,423.8,448.0,433.5,12.8
89.5,447.5,422.8,438.8,436.4,12.6
89.75,433.6,425.2,457.2,438.7,16.6
90.0,436.6,416.5,441.9,431.7,13.4
90.25,432.1,420.2,447.1,433.1,13.5
90.5,429.7,411.9,448.1,429.9,18.1
90.75,434.8,421.6,443.6,433.3,11.1
91.0,428.1,433.1,449.3,436.8,11.1
91.25,436.8,428.9,450.3,438.7,10.8
91.5,432.3,419.9,453.2,435.1,16.9
91.75,439.8,424.8,432.7,432.4,7.5
92.0,438.3,424.1,452.2,438.2,14.1
92.25,436.3,436.5,454.3,442.3,10.3
92.5,436.5,419.3,435.1,430.3,9.6
92.75,435.0,433.7,447.1,438.6,7.4
93.0,439.1,434.2,444.8,439.4,5.3
93.25,436.5,431.2,446.3,438.0,7.7
93.5,453.5,430.0,454.6,446.0,13.9
93.75,432.8,435.3,443.5,437.2,5.6
94.0,448.7,440.3,453.0,447.3,6.4
94.25,438.6,449.1,461.8,449.8,11.6
94.5,438.9,444.2,436.8,440.0,3.8
94.75,443.5,441.9,441.7,442.4,1.0
95.0,442.6,422.3,461.1,442.0,19.4
95.25,445.9,438.5,451.2,445.2,6.4
95.5,451.6,448.8,454.4,451.6,2.8
95.75,439.1,426.7,451.3,439.0,12.3
96.0,440.7,437.9,449.8,442.8,6.2
96.25,440.1,441.4,457.9,446.5,10.0
96.5,445.3,443.5,451.2,446.7,4.0
96.75,450.4,426.7,449.3,442.2,13.4
97.0,441.6,444.4,456.2,447.4,7.7
97.25,451.3,455.6,456.0,454.3,2.6
97.5,443.5,438.3,439.2,440.3,2.8
97.75,441.4,446.6,460.3,449.5,9.8
98.0,445.0,438.6,462.0,448.5,12.1
98.25,443.6,440.2,439.4,441.1,2.3
98.5,452.2,435.4,454.0,447.2,10.3
98.75,436.8,453.5,443.1,444.5,8.4
99.0,446.4,440.8,456.1,447.8,7.8
99.25,445.2,431.4,450.3,442.3,9.8
99.5,445.1,440.2,450.5,445.3,5.2
99.75,428.1,454.5,468.5,450.4,20.6
100.0,450.1,436.4,460.0,448.8,11.9
100.25,447.5,435.3,446.8,443.2,6.9
100.5,451.9,440.1,447.8,446.6,6.0
100.75,441.4,437.0,448.1,442.1,5.6
101.0,435.5,435.4,445.8,438.9,6.0
101.25,448.9,445.6,451.1,448.6,2.8
101.5,439.2,439.6,444.7,441.2,3.0
101.75,431.9,440.8,443.3,438.7,6.0
102.0,435.8,439.2,446.4,440.4,5.4
102.25,439.8,448.9,448.3,445.7,5.1
102.5,435.1,438.6,451.2,441.6,8.5
102.75,444.2,438.0,452.7,444.9,7.3
103.0,445.8,445.7,453.1,448.2,4.3
103.25,448.1,455.6,453.1,452.3,3.8
103.5,438.0,438.9,445.9,440.9,4.3
103.75,447.3,446.5,445.5,446.4,0.9
104.0,434.6,440.6,443.6,439.6,4.6
104.25,441.9,447.7,453.6,447.7,5.8
104.5,433.4,441.8,451.5,442.3,9.1
104.75,441.0,462.5,442.0,448.5,12.1
105.0,442.9,451.6,442.9,445.8,5.0
105.25,441.7,439.2,448.3,443.1,4.7
105.5,443.3,448.6,433.5,441.8,7.7
105.75,440.3,443.7,436.4,440.1,3.7
106.0,441.7,445.2,447.8,444.9,3.1
106.25,448.2,452.3,434.8,445.1,9.2
106.5,443.6,452.4,445.5,447.2,4.6
106.75,433.4,436.8,454.9,441.7,11.6
107.0,437.6,436.8,432.3,435.5,2.9
107.25,434.5,455.2,437.5,442.4,11.2
107.5,434.6,448.6,448.5,443.9,8.1
107.75,436.1,441.1,448.2,441.8,6.1
108.0,428.6,447.5,436.5,437.5,9.5
108.25,431.5,452.3,438.1,440.6,10.7
108.5,439.1,452.0,435.6,442.2,8.7
108.75,429.8,445.9,433.1,436.3,8.5
109.0,432.6,437.7,441.9,437.4,4.6
109.25,434.8,452.8,437.5,441.7,9.7
109.5,422.3,438.3,436.5,432.4,8.7
109.75,437.4,440.9,436.9,438.4,2.2
110.0,432.8,444.9,429.2,435.6,8.2
110.25,431.1,437.4,430.8,433.1,3.7
110.5,429.6,441.5,436.9,436.0,6.0
110.75,434.0,446.0,430.5,436.8,8.1
111.0,422.8,441.1,419.5,427.8,11.6
111.25,429.6,440.8,427.0,432.5,7.3
111.5,421.7,436.9,418.4,425.7,9.9
111.75,422.3,440.1,425.1,429.1,9.6
112.0,426.1,438.1,424.6,429.6,7.4
112.25,420.1,435.0,427.4,427.5,7.4
112.5,416.6,443.3,420.7,426.9,14.4
112.75,421.6,438.6,421.8,427.3,9.8
113.0,414.2,444.9,416.0,425.1,17.2
113.25,414.4,440.5,413.7,422.9,15.3
113.5,409.3,428.5,417.7,418.5,9.6
113.75,417.9,434.5,406.0,419.5,14.3
114.0,406.9,427.3,416.2,416.8,10.2
114.25,414.4,431.3,401.1,415.6,15.1
114.5,409.3,429.3,406.1,414.9,12.6
114.75,411.2,428.9,415.3,418.4,9.2
115.0,417.1,421.9,406.8,415.3,7.7
115.25,400.5,416.6,413.5,410.2,8.5
115.5,410.0,429.7,407.4,415.7,12.2
115.75,407.5,418.5,404.2,410.1,7.5
116.0,405.9,412.9,404.0,407.6,4.7
116.25,400.2,430.0,399.9,410.0,17.3
116.5,397.4,418.5,397.0,404.3,12.3
116.75,393.2,435.9,397.5,408.8,23.5
117.0,396.4,411.7,399.4,402.5,8.1
117.25,391.7,404.5,393.0,396.4,7.1
117.5,389.4,419.3,396.2,401.7,15.7
117.75,394.7,411.2,398.4,401.5,8.6
118.0,398.0,409.8,400.6,402.8,6.2
118.25,396.2,401.7,397.1,398.3,2.9
118.5,393.6,417.2,390.3,400.4,14.6
118.75,388.5,406.6,402.9,399.4,9.6
119.0,390.9,407.2,387.9,395.4,10.4
119.25,375.3,407.2,397.6,393.3,16.4
119.5,375.2,403.8,388.7,389.2,14.3
119.75,387.6,399.7,388.4,391.9,6.8
120.0,388.7,401.7,385.2,391.9,8.7
120.25,377.3,392.0,390.7,386.7,8.1
120.5,378.1,388.8,388.2,385.0,6.0
120.75,376.8,395.1,384.0,385.3,9.2
121.0,375.3,393.7,381.0,383.3,9.4
121.25,375.3,394.4,386.0,385.2,9.6
121.5,369.5,394.8,386.7,383.7,12.9
121.75,373.2,384.2,384.8,380.7,6.5
122.0,368.7,388.3,377.0,378.0,9.9
122.25,365.4,389.2,382.6,379.1,12.3
122.5,359.8,390.6,371.7,374.0,15.5
122.75,367.7,376.6,383.2,375.8,7.8
123.0,364.6,387.0,383.4,378.3,12.0
123.25,358.2,376.1,370.3,368.2,9.1
123.5,363.8,383.8,378.1,375.2,10.3
123.75,365.2,379.8,378.6,374.5,8.1
124.0,361.8,395.8,374.8,377.5,17.2
124.25,362.0,377.7,374.0,371.2,8.2
124.5,362.8,384.1,377.0,374.6,10.8
124.75,365.9,378.4,368.7,371.0,6.6
125.0,359.7,387.0,366.9,371.2,14.1
125.25,360.3,376.0,366.4,367.6,7.9
125.5,364.7,384.0,369.2,372.6,10.1
125.75,359.5,383.7,378.6,373.9,12.7
126.0,368.7,386.4,369.3,374.8,10.0
126.25,365.2,376.9,368.5,370.2,6.0
126.5,360.9,377.9,374.0,370.9,8.9
126.75,361.4,387.7,369.5,372.9,13.5
127.0,375.1,374.6,371.9,373.8,1.7
127.25,356.2,376.3,371.0,367.8,10.5
127.5,369.0,371.6,375.9,372.2,3.5
127.75,366.7,375.6,375.2,372.5,5.0
128.0,365.4,375.4,365.1,368.6,5.9
128.25,363.4,377.3,371.8,370.8,7.0
128.5,358.6,372.0,373.7,368.1,8.2
128.75,368.7,380.0,371.9,373.5,5.8
129.0,373.7,370.0,366.6,370.1,3.5
129.25,368.9,371.1,372.5,370.9,1.8
129.5,369.1,379.1,361.6,369.9,8.8
129.75,373.0,381.1,366.6,373.6,7.2
130.0,373.5,373.6,369.0,372.0,2.6
130.25,367.9,377.0,372.2,372.4,4.6
130.5,377.4,377.1,371.5,375.3,3.3
130.75,376.2,380.5,376.4,377.7,2.4
131.0,379.7,373.0,371.1,374.6,4.5
131.25,377.2,378.5,367.1,374.3,6.3
131.5,375.4,381.0,367.5,374.6,6.7
131.75,373.1,384.2,364.0,373.8,10.1
132.0,377.4,378.3,361.4,372.4,9.5
132.25,377.2,379.2,366.4,374.3,6.9
132.5,378.6,380.4,367.0,375.3,7.3
132.75,383.4,382.1,365.0,376.8,10.3
133.0,376.7,381.6,364.5,374.3,8.8
133.25,376.2,374.8,360.6,370.5,8.7
133.5,380.5,389.4,359.0,376.3,15.6
133.75,385.7,380.8,354.5,373.7,16.8
134.0,375.1,386.6,353.1,371.6,17.1
134.25,377.9,384.9,350.3,371.0,18.3
134.5,376.3,378.7,354.2,369.7,13.5
134.75,370.8,378.7,349.9,366.5,14.9
135.0,374.3,383.2,350.3,369.3,17.0
135.25,371.1,384.6,346.6,367.4,19.3
135.5,374.2,376.3,345.2,365.2,17.4
135.75,366.6,384.6,347.3,366.2,18.7
136.0,369.9,375.2,342.2,362.4,17.7
136.25,363.8,371.4,339.7,358.3,16.5
136.5,361.1,371.9,334.6,355.9,19.2
136.75,363.3,368.7,334.5,355.5,18.4
137.0,358.1,369.5,329.7,352.4,20.5
137.25,354.1,368.5,331.0,351.2,18.9
137.5,344.4,366.4,328.2,346.3,19.2
137.75,349.9,361.2,322.2,344.4,20.1
138.0,342.9,355.8,318.4,339.0,19.0
138.25,338.5,354.5,319.7,337.6,17.4
138.5,328.3,357.6,315.0,333.6,21.8
138.75,329.2,353.1,309.1,330.5,22.0
139.0,328.1,350.8,310.4,329.8,20.3
139.25,318.1,344.5,303.5,322.0,20.8
139.5,312.6,341.5,302.6,318.9,20.2
139.75,309.1,338.5,290.2,312.6,24.4
140.0,300.8,332.1,284.1,305.7,24.4
140.25,297.8,329.4,280.9,302.7,24.7
140.5,286.4,331.2,272.9,296.8,30.5
140.75,287.6,325.3,272.5,295.1,27.2
141.0,282.2,318.9,264.9,288.7,27.6
141.25,276.4,314.1,259.6,283.4,27.9
141.5,266.7,307.3,252.7,275.6,28.4
141.75,260.0,306.6,247.0,271.2,31.3
142.0,253.7,301.0,245.0,266.6,30.2
142.25,246.5,298.3,236.3,260.4,33.3
142.5,240.2,289.0,233.4,254.2,30.3
142.75,233.7,283.7,227.0,248.1,31.0
143.0,226.1,276.5,226.3,243.0,29.1
143.25,219.7,270.4,221.0,237.0,28.9
143.5,211.5,266.2,215.2,231.0,30.6
143.75,209.5,262.7,210.7,227.6,30.4
144.0,201.7,261.2,205.8,222.9,33.2
144.25,192.6,255.9,202.3,216.9,34.1
144.5,185.5,246.1,196.8,209.5,32.2
144.75,185.7,239.3,192.7,205.9,29.1
145.0,175.9,235.9,187.5,199.8,31.8
145.25,170.3,232.9,183.5,195.6,33.0
145.5,164.3,223.2,178.1,188.5,30.8
145.75,162.1,222.2,175.5,186.6,31.6
146.0,156.1,214.4,169.7,180.1,30.5
146.25,151.4,213.0,166.5,177.0,32.1
146.5,145.0,205.7,163.6,171.4,31.1
146.75,140.9,203.9,158.5,167.8,32.5
147.0,138.3,195.4,153.2,162.3,29.6
147.25,133.6,191.9,152.1,159.2,29.8
147.5,128.4,189.8,147.2,155.1,31.5
147.75,122.3,187.4,145.9,151.9,32.9
148.0,120.1,180.4,143.1,147.9,30.4
148.25,117.6,177.0,142.5,145.7,29.8
148.5,111.8,171.8,136.3,140.0,30.1
148.75,109.8,164.3,134.9,136.3,27.3
149.0,104.8,159.2,131.7,131.9,27.2
149.25,102.5,153.1,128.1,127.9,25.3
149.5,97.9,149.3,125.8,124.4,25.7
149.75,93.9,146.2,123.2,121.1,26.2
150.0,91.5,141.8,121.5,118.2,25.3
150.25,87.8,138.6,118.5,115.0,25.6
150.5,85.6,134.1,117.8,112.5,24.7
150.75,82.8,130.4,113.1,108.7,24.1
151.0,83.2,126.7,110.3,106.7,21.9
151.25,81.9,123.4,109.5,104.9,21.1
151.5,78.8,119.4,107.6,102.0,20.9
151.75,76.9,115.5,103.3,98.6,19.7
152.0,75.4,113.9,101.6,97.0,19.7
152.25,73.2,111.8,100.3,95.1,19.8
152.5,71.1,105.7,97.8,91.5,18.1
152.75,69.7,104.2,94.0,89.3,17.7
153.0,69.6,100.3,91.9,87.3,15.8
153.25,67.6,98.1,89.7,85.1,15.8
153.5,66.3,94.5,88.6,83.1,14.9
153.75,65.5,92.4,84.9,80.9,13.9
154.0,64.2,90.8,83.3,79.4,13.7
154.25,62.7,87.0,81.6,77.1,12.8
154.5,62.9,84.4,79.2,75.5,11.2
154.75,61.8,82.2,77.4,73.8,10.7
155.0,60.4,79.8,74.8,71.7,10.0
155.25,60.2,78.8,74.5,71.1,9.7
155.5,59.2,75.3,71.4,68.6,8.4