File: 01_Data/Masonite_Board/Cone/Masonite_Cone_HF25Scan_230106_R3.csv
Names,Time,Stack TC,Smoke TC,Exh Press,Smoke Comp,Smoke Meas,CO Meter,CO2 Meter,O2 Meter,Sample Mass,Ext Coeff,Start Test,Flame Verif
Chan Gain,,500,500,1,1,1,1,1,1,1,1,1.0,1.0
Offset,,0,0,0.303564,0,0,0,0,0,0,0,0.0,0.0
Gain,,1,1,25.011,13.226,15.8999,1,1,1,1.00088,1.03447,1.0,1.0
Units,sec,C,C,Pa,%,%,%,%,%,g,/m,,
Baseline,,27.1942,28.2122,153.79,99.9164,99.8235,0.000599543,0.0470715,20.9641,-444.601,0.00845375,,
4,0.75,24.317,24.5938,155.79,99.2409,99.2299,0.000812434,0.0519022,20.9609,180.628,0.00100272,0.0,0.0
8,1.75,24.2038,25.2577,151.384,99.2296,99.2406,0.000777823,0.0519652,20.9595,180.598,-0.00100608,0.0,0.0
12,2.75,24.2107,25.4316,153.858,99.2175,99.2721,0.000750319,0.0521435,20.9578,180.708,-0.00499741,0.0,0.0
16,3.75,24.7257,25.5983,150.753,99.1856,99.1533,0.000732273,0.0525056,20.9567,180.698,0.00295809,0.0,0.0
20,4.75,24.6455,25.3129,155.767,99.1678,99.1693,0.000718179,0.0528889,20.9559,180.658,-0.000131433,0.0,0.0
24,5.75,24.7781,25.0274,152.73,99.1396,99.079,0.000681885,0.0530374,20.9555,180.608,0.00554548,0.0,0.0
28,6.75,24.4076,25.4978,153.445,99.1255,99.1009,0.000640318,0.0529292,20.9545,180.628,0.00225191,0.0,0.0
32,7.75,24.5521,25.063,155.732,99.1073,99.0897,0.000599559,0.0524366,20.9537,180.648,0.00161165,0.0,0.0
36,8.75,24.3481,25.7285,156.314,99.0972,98.9626,0.000571983,0.0519553,20.9532,180.618,0.0123365,0.0,0.0
40,9.75,24.9086,25.3252,156.989,99.0734,99.0839,0.000560895,0.0518472,20.9528,180.598,-0.000960098,0.0,0.0
44,10.75,24.3456,25.6986,151.098,99.0637,98.9834,0.000555792,0.0523513,20.9534,180.618,0.00735612,0.0,0.0
48,11.75,24.3635,25.5373,150.753,99.1101,98.882,0.000542125,0.0532997,20.9546,180.618,0.0209087,0.0,0.0
52,12.75,24.8705,25.5637,152.253,99.1521,98.9538,0.000523575,0.0542376,20.9554,180.588,0.0181637,0.0,0.0
56,13.75,24.8611,25.2944,153.746,99.1791,99.0494,0.000511404,0.0549762,20.9559,180.568,0.0118763,0.0,0.0
60,14.75,24.5108,25.9214,155.037,99.2167,99.0504,0.000526494,0.0555199,20.9562,180.528,0.0152214,0.0,0.0
64,15.75,25.0829,25.8656,152.809,99.2526,99.0062,0.000569995,0.0556918,20.9558,180.518,0.0225523,0.0,0.0
68,16.75,25.2517,25.9218,151.576,99.2865,99.0421,0.000626627,0.0554617,20.9547,180.538,0.0223613,0.0,0.0
72,17.75,24.5673,25.7424,155.468,99.3123,99.2256,0.000667249,0.055031,20.9541,180.508,0.0079322,0.0,0.0
76,18.75,24.8143,25.7749,153.199,99.3374,99.0921,0.000693553,0.0544578,20.9534,180.478,0.0224303,0.0,0.0
80,19.75,24.9274,25.4746,153.532,99.3656,99.2178,0.000686011,0.0537946,20.953,180.478,0.0135096,0.0,0.0
84,20.75,24.7388,26.0292,154.866,99.3894,99.2173,0.00069352,0.0532415,20.9527,180.418,0.0157279,0.0,0.0
88,21.75,25.2408,26.1526,153.055,99.4104,99.3207,0.000728832,0.0526457,20.9525,180.458,0.00819699,0.0,0.0
92,22.75,24.6761,25.9316,156.728,99.4383,99.3279,0.000800012,0.0518916,20.9524,180.448,0.0100741,0.0,0.0
96,23.75,25.2205,26.1629,152.076,99.4617,99.2712,0.000863188,0.0511391,20.9531,180.438,0.0173972,0.0,0.0
100,24.75,24.8618,26.1718,153.579,99.4681,99.3212,0.000894306,0.0505075,20.9542,180.408,0.0134199,0.0,0.0
104,25.75,24.5946,25.4156,150.59,99.473,99.3784,0.00089441,0.0500042,20.9549,180.388,0.00863145,0.0,0.0
108,26.75,24.9141,26.1846,154.063,99.4839,99.4822,0.000880254,0.0494974,20.9562,180.368,0.000149279,0.0,0.0
112,27.75,24.9069,26.2063,150.129,99.4863,99.2095,0.000855922,0.0490529,20.957,180.338,0.0252786,0.0,0.0
116,28.75,24.9922,25.9587,150.609,99.4871,99.294,0.000827594,0.0486823,20.9582,180.328,0.0176326,0.0,0.0
120,29.75,25.0402,25.7226,151.992,99.4887,99.1955,0.000806645,0.0484471,20.9589,180.328,0.0267866,0.0,0.0
124,30.75,24.4585,25.4255,148.477,99.4851,99.3498,0.000791776,0.0481983,20.9596,180.288,0.0123505,0.0,0.0
128,31.75,24.61,25.6801,156.45,99.4867,99.1567,0.000792685,0.0480164,20.9601,180.268,0.0301532,0.0,0.0
132,32.75,25.2479,26.0639,153.84,99.4798,99.0839,0.000796149,0.0479047,20.9604,180.258,0.036191,0.0,0.0
136,33.75,25.1767,25.6645,150.89,99.4802,99.1702,0.00079309,0.0478424,20.9606,180.258,0.0283223,0.0,0.0
140,34.75,25.3078,26.2802,151.858,99.4669,99.1072,0.000786094,0.0477829,20.9607,180.228,0.0328794,0.0,0.0
144,35.75,24.7533,26.0422,151.353,99.4621,99.1081,0.000778581,0.0477175,20.9608,180.188,0.0323491,0.0,0.0
148,36.75,25.1389,26.1069,151.307,99.4536,99.1654,0.000768853,0.047667,20.9608,180.198,0.0263357,0.0,0.0
152,37.75,24.9867,26.336,158.258,99.4617,99.1271,0.00076247,0.0476382,20.9609,180.188,0.0305801,0.0,0.0
156,38.75,25.2721,26.2537,153.13,99.4367,99.0557,0.000737992,0.0476752,20.9609,180.168,0.034829,0.0,0.0
160,39.75,25.5721,25.9018,151.618,99.41,98.9723,0.000679111,0.0476612,20.9609,180.148,0.0400463,0.0,0.0
164,40.75,25.4495,25.7063,154.202,99.3995,99.2222,0.000599941,0.0475818,20.9609,180.148,0.0162052,0.0,0.0
168,41.75,25.2438,25.5751,153.001,99.3797,98.9854,0.000537353,0.0475856,20.9609,180.128,0.0360811,0.0,0.0
172,42.75,24.8863,26.7596,153.948,99.3656,98.8869,0.000506521,0.0478249,20.9609,180.118,0.0438258,0.0,0.0
176,43.75,25.1553,26.0291,156.318,99.3507,99.1547,0.000518233,0.0481349,20.9609,180.088,0.0179165,0.0,0.0
180,44.75,24.8372,26.2445,152.261,99.3277,99.1523,0.000593413,0.0487117,20.9615,180.078,0.0160367,0.0,0.0
184,45.75,25.1452,26.0311,152.461,99.2974,99.0679,0.000694678,0.0494851,20.9623,180.068,0.0210004,0.0,0.0
188,46.75,24.8773,26.2784,152.666,99.2744,99.1174,0.000780876,0.0503614,20.9627,180.048,0.0143661,0.0,0.0
192,47.75,25.4439,26.5089,150.988,99.2502,98.9048,0.000820485,0.0511674,20.9624,180.038,0.0316312,0.0,0.0
196,48.75,25.1771,26.2166,153.34,99.234,98.8267,0.000835557,0.0521625,20.9619,179.998,0.0373244,0.0,0.0
200,49.75,25.4389,26.5448,153.917,99.2086,98.8549,0.000831046,0.0529843,20.961,179.968,0.0324149,0.0,0.0
204,50.75,25.5557,26.3366,156.604,99.1913,98.8529,0.000832597,0.0535678,20.9597,179.968,0.031006,0.0,0.0
208,51.75,24.9513,25.7994,155.461,99.1767,98.8849,0.000844897,0.0537345,20.9583,179.938,0.026737,0.0,0.0
212,52.75,25.2672,27.0703,151.32,99.1622,98.6942,0.00084941,0.0535447,20.957,179.918,0.0429236,0.0,0.0
216,53.75,25.3506,25.9113,151.547,99.1481,98.7559,0.000851415,0.0530512,20.9562,179.888,0.0359669,0.0,0.0
220,54.75,25.1113,25.7526,151.755,99.1376,98.6748,0.000846498,0.052543,20.9556,179.868,0.0424552,0.0,0.0
224,55.75,25.3289,26.1812,152.515,99.1279,98.703,0.000827008,0.0520515,20.9552,179.837,0.0389811,0.0,0.0
228,56.75,25.4741,27.0464,154.71,99.1093,98.5865,0.000795303,0.0516875,20.955,179.797,0.0479931,0.0,0.0
232,57.75,25.145,26.2771,153.462,99.1,98.6389,0.000750516,0.0514812,20.9556,179.767,0.0423206,0.0,0.0
236,58.75,25.0381,26.4512,151.697,99.0895,98.8466,0.000685076,0.0513812,20.9561,179.747,0.0222749,0.0,0.0
240,59.75,25.0369,26.3907,155.827,99.077,98.4929,0.000610241,0.0513156,20.957,179.717,0.053661,0.0,0.0
244,60.75,25.3936,26.609,155.559,99.0673,98.7505,0.000553446,0.0512289,20.9578,179.687,0.0290653,0.0,0.0
248,61.75,25.406,26.3708,154.159,99.0774,98.5239,0.000512989,0.0511221,20.9583,179.657,0.0508366,0.0,0.0
252,62.75,25.5808,26.1748,150.883,99.0807,98.457,0.000472938,0.0510402,20.9586,179.627,0.0573015,0.0,0.0
256,63.75,25.5543,26.7101,155.462,99.0585,98.7005,0.000444174,0.0508548,20.9588,179.597,0.032846,0.0,0.0
260,64.75,25.3309,27.2689,155.401,99.077,98.7209,0.000423287,0.0506502,20.959,179.557,0.0326736,0.0,0.0
264,65.75,25.1996,26.1023,152.701,99.073,98.7214,0.000415801,0.0505144,20.9591,179.517,0.0322586,0.0,0.0
268,66.75,25.5418,26.631,152.497,99.0827,98.6316,0.000415926,0.0504538,20.9591,179.497,0.0414011,0.0,0.0
272,67.75,25.2858,26.8625,152.482,99.0851,98.5492,0.000449724,0.050608,20.9596,179.457,0.0492154,0.0,0.0
276,68.75,25.4744,26.893,154.34,99.0936,98.4803,0.00051293,0.0512983,20.9603,179.437,0.0563383,0.0,0.0
280,69.75,25.1565,26.4495,155.817,99.1093,98.6016,0.000570101,0.0523681,20.9605,179.377,0.0466082,0.0,0.0
284,70.75,25.5033,26.7489,156.115,99.1061,98.7141,0.000601166,0.0535481,20.9602,179.377,0.0359594,0.0,0.0
288,71.75,25.6696,26.7723,149.529,99.1012,98.6559,0.000641177,0.0552861,20.9598,179.337,0.0408691,0.0,0.0
292,72.75,25.7654,26.4338,150.609,99.1243,98.6413,0.000667428,0.0574604,20.9592,179.317,0.0443156,0.0,0.0
296,73.75,25.5029,26.217,152.317,99.1303,98.736,0.00067044,0.059781,20.9575,179.267,0.0361695,0.0,0.0
300,74.75,25.6981,26.9161,151.478,99.1501,98.6671,0.000673921,0.0617917,20.9548,179.227,0.0443145,0.0,0.0
304,75.75,25.4186,26.7008,155.156,99.1662,98.5778,0.000697183,0.0635535,20.9518,179.207,0.0540073,0.0,0.0
308,76.75,25.4324,26.3334,154.652,99.1747,98.6287,0.000731922,0.0646907,20.9486,179.177,0.0500933,0.0,0.0
312,77.75,25.4174,26.7192,153.353,99.184,98.7976,0.000767068,0.06496,20.9458,179.137,0.0354195,0.0,0.0
316,78.75,25.4307,26.3407,150.698,99.1856,98.8519,0.000822744,0.0646395,20.944,179.117,0.030578,0.0,0.0
320,79.75,25.3997,26.5604,149.358,99.2021,98.5632,0.000896629,0.0635591,20.9427,179.097,0.0586332,0.0,0.0
324,80.75,25.0023,26.8787,154.558,99.2219,98.8107,0.000969871,0.0620046,20.9419,179.067,0.0376874,0.0,0.0
328,81.75,25.3865,26.2283,152.526,99.2195,98.6981,0.0010282,0.060198,20.9414,179.057,0.0478102,0.0,0.0
332,82.75,25.3019,26.0024,154.981,99.2324,98.9155,0.00106806,0.0584051,20.9427,179.017,0.0290265,0.0,0.0
336,83.75,25.4868,26.368,154.101,99.2348,98.6239,0.001101,0.0569432,20.9435,178.967,0.0560405,0.0,0.0
340,84.75,25.4304,26.3982,152.066,99.2482,98.6501,0.00112261,0.0558344,20.9446,178.967,0.0548481,0.0,0.0
344,85.75,25.1538,26.3634,154.943,99.2623,98.6433,0.00112181,0.0551597,20.9466,178.937,0.056765,0.0,0.0
348,86.75,25.0655,26.591,152.963,99.2587,98.7597,0.00108046,0.0545508,20.9488,178.897,0.0457267,0.0,0.0
352,87.75,25.3415,26.4036,155.148,99.2615,98.8272,0.00102305,0.0540139,20.9503,178.857,0.0397889,0.0,0.0
356,88.75,25.106,26.7894,155.536,99.2679,98.6855,0.000931505,0.0533302,20.9518,178.837,0.0533986,0.0,0.0
360,89.75,25.3503,26.5932,156.264,99.2801,98.6957,0.000819501,0.0528314,20.953,178.807,0.0535685,0.0,0.0
364,90.75,25.495,26.4961,152.733,99.2691,98.586,0.000755976,0.0523155,20.9542,178.777,0.0626606,0.0,0.0
368,91.75,25.5101,26.6935,151.689,99.3022,98.5443,0.000722365,0.0518847,20.9548,178.727,0.069527,0.0,0.0
372,92.75,25.347,26.898,151.456,99.274,98.6646,0.000734131,0.0517947,20.9552,178.706,0.0558706,0.0,0.0
376,93.75,25.2095,26.8366,152.368,99.2788,98.7078,0.00074636,0.0520999,20.9558,178.706,0.0523425,0.0,0.0
380,94.75,25.5294,26.4578,148.413,99.2825,98.652,0.000756161,0.0527862,20.9567,178.686,0.0578056,0.0,0.0
384,95.75,25.4907,26.3461,152.35,99.2796,98.5763,0.000773734,0.0537462,20.9572,178.626,0.0645135,0.0,0.0
388,96.75,25.3053,26.3689,153.896,99.276,98.4657,0.000791688,0.0545718,20.9571,178.616,0.0743715,0.0,0.0
392,97.75,25.4065,26.2771,153.33,99.2881,98.7001,0.000802647,0.0552257,20.9567,178.596,0.0539051,0.0,0.0
396,98.75,25.33,26.3434,152.295,99.2801,98.752,0.00081067,0.0555756,20.9564,178.576,0.0483945,0.0,0.0
400,99.75,25.5271,26.6314,156.516,99.276,98.685,0.000828977,0.0554846,20.9562,178.536,0.0541815,0.0,0.0
404,100.75,25.107,26.7389,151.091,99.2728,98.6734,0.000864993,0.0550048,20.9553,178.516,0.0549567,0.0,0.0
408,101.75,25.5491,26.09,154.54,99.278,98.7103,0.000920231,0.0544292,20.9547,178.516,0.0520457,0.0,0.0
412,102.75,25.008,26.1507,152.93,99.2772,98.6952,0.000963248,0.0539308,20.9543,178.516,0.0533556,0.0,0.0
416,103.75,25.535,26.0637,152.318,99.2708,98.6399,0.000977921,0.0536358,20.9547,178.486,0.0578518,0.0,0.0
420,104.75,25.1808,26.5315,157.462,99.2643,98.5938,0.000966201,0.0534775,20.9551,178.476,0.0615035,0.0,0.0
424,105.75,25.548,26.5142,154.912,99.2587,98.5103,0.000938336,0.0536637,20.9553,178.436,0.0686714,0.0,0.0
428,106.75,25.0899,26.339,154.225,99.2526,98.7049,0.000876982,0.0538689,20.9555,178.426,0.0502116,0.0,0.0
432,107.75,25.4157,26.6098,153.372,99.2469,98.6181,0.000814259,0.0539844,20.9556,178.456,0.057683,0.0,0.0
436,108.75,25.2602,26.4483,153.311,99.2441,98.784,0.000766424,0.0539659,20.9557,178.416,0.0421688,0.0,0.0
440,109.75,25.5538,26.4061,155.324,99.2312,98.3881,0.000738236,0.0538877,20.9558,178.406,0.077432,0.0,0.0
444,110.75,25.0787,26.1728,151.916,99.2417,98.4997,0.000719742,0.0538093,20.9558,178.416,0.0681046,0.0,0.0
448,111.75,25.4969,26.6575,159.177,99.2268,98.4201,0.000687418,0.0538013,20.9561,178.406,0.0740732,0.0,0.0
452,112.75,25.6064,26.5999,152.414,99.2239,98.3905,0.000653675,0.0538413,20.9562,178.366,0.0765439,0.0,0.0
456,113.75,25.565,26.6056,154.671,99.2268,98.3051,0.000585504,0.0539781,20.9564,178.376,0.0846827,0.0,0.0
460,114.75,25.0998,26.5251,152.722,99.2151,98.4147,0.00050251,0.0543109,20.9566,178.396,0.0734948,0.0,0.0
464,115.75,25.4453,26.6258,151.151,99.1973,98.2192,0.000456925,0.0547404,20.9567,178.386,0.0899186,0.0,0.0
468,116.75,25.3514,26.7885,153.363,99.1969,98.2066,0.000445571,0.0551276,20.9563,178.366,0.0910474,0.0,0.0
472,117.75,25.378,26.6587,153.525,99.182,98.1212,0.000466149,0.05554,20.9557,178.336,0.0975757,0.0,0.0
476,118.75,25.5795,26.4029,151.661,99.1759,98.1644,0.000501257,0.0558988,20.9554,178.336,0.0930285,0.0,0.0
480,119.75,25.0118,26.0012,153.082,99.1602,98.2289,0.000541816,0.056187,20.9551,178.346,0.0856247,0.0,0.0
484,120.75,25.8343,26.8792,151.795,99.1501,97.9795,0.000597729,0.0562786,20.9549,178.346,0.107771,0.0,0.0
488,121.75,25.4591,26.5575,152.833,99.1408,98.2173,0.000659122,0.0561489,20.9548,178.326,0.0849271,0.0,0.0
492,122.75,25.4545,26.5651,149.935,99.1396,98.408,0.000702957,0.0558782,20.9545,178.326,0.0672155,0.0,0.0
496,123.75,24.9661,26.4189,155.826,99.1392,97.9727,0.000721398,0.0553687,20.9542,178.306,0.107402,0.0,0.0
500,124.75,25.457,26.1286,151.052,99.1291,98.2469,0.000717713,0.0547114,20.954,178.296,0.0811219,0.0,0.0
504,125.75,25.8556,27.321,154.142,99.1448,97.864,0.000720625,0.0541305,20.9539,178.276,0.117992,0.0,0.0
508,126.75,25.6063,27.0462,154.735,99.1117,98.1624,0.000737743,0.0534332,20.9538,178.236,0.0873348,0.0,0.0
512,127.75,25.6125,26.7973,157.012,99.1073,98.0494,0.000791098,0.0527888,20.9538,178.246,0.0973852,0.0,0.0
516,128.75,25.4725,27.0036,149.938,99.0976,97.7932,0.000848882,0.0523573,20.9537,178.196,0.120239,0.0,0.0
520,129.75,25.5702,27.1454,157.728,99.0891,97.7941,0.000888972,0.0523553,20.9545,178.236,0.119374,0.0,0.0
524,130.75,25.7125,26.7955,156.757,99.0859,97.9926,0.000908871,0.0526741,20.955,178.216,0.100682,0.0,0.0
528,131.75,25.6385,26.8416,154.107,99.0641,97.7941,0.000901708,0.0531766,20.956,177.916,0.117081,0.0,0.0
532,132.75,25.6906,26.769,155.218,99.0581,97.7985,0.000885728,0.0537323,20.9571,178.156,0.116122,0.0,0.0
536,133.75,25.5743,26.5283,154.357,99.0326,97.7505,0.000859041,0.0545982,20.9578,178.176,0.11825,0.0,0.0
540,134.75,25.3177,27.1707,155.167,99.0371,97.765,0.000822507,0.0554366,20.9583,178.156,0.117305,0.0,0.0
544,135.75,25.5022,26.8921,150.941,99.0173,97.5001,0.000784145,0.0560595,20.957,178.146,0.140118,0.0,0.0
548,136.75,25.5284,26.3549,153.088,99.0032,97.5059,0.000763484,0.0564682,20.9559,178.156,0.138281,0.0,0.0
552,137.75,25.6923,26.7965,156.277,99.008,97.2012,0.000761141,0.0563404,20.9546,178.136,0.167128,0.0,0.0
556,138.75,25.9648,26.7318,152.019,98.9959,97.6277,0.000773672,0.0563885,20.9535,178.116,0.126288,0.0,0.0
560,139.75,26.1077,26.331,156.181,98.9834,97.1221,0.00078967,0.0570026,20.9528,178.096,0.172258,0.0,0.0
564,140.75,25.7894,26.8161,150.152,98.9781,97.1983,0.000800328,0.0582614,20.9525,178.076,0.164662,0.0,0.0
568,141.75,25.4689,26.8542,156.516,98.9592,97.4074,0.000812443,0.0602918,20.9521,178.046,0.143419,0.0,0.0
572,142.75,25.7132,27.0648,156.005,98.9539,97.2944,0.000829282,0.0626566,20.9515,178.056,0.153476,0.0,0.0
576,143.75,25.9093,26.6991,151.05,98.9511,97.0988,0.000860505,0.065138,20.9502,178.066,0.171474,0.0,0.0
580,144.75,24.7807,27.1325,158.891,98.9192,96.8484,0.000912462,0.0670294,20.9477,177.996,0.191977,0.0,0.0
584,145.75,25.9466,26.6605,154.6,98.9119,96.9586,0.000987552,0.0682439,20.9448,178.026,0.180997,0.0,0.0
588,146.75,25.9354,26.707,159.249,98.8893,97.2458,0.00107215,0.0686693,20.9422,178.006,0.152079,0.0,0.0
592,147.75,25.8457,26.6552,155.642,98.8829,97.0862,0.00114889,0.0687286,20.9406,177.986,0.166395,0.0,0.0
596,148.75,25.4804,26.6379,151.356,98.8792,96.897,0.00122413,0.0684586,20.9395,177.986,0.183767,0.0,0.0
600,149.75,25.657,26.699,159.382,98.8603,96.5097,0.00128027,0.067854,20.9388,177.956,0.21836,0.0,0.0
604,150.75,25.7994,26.9688,156.492,98.8603,97.9484,0.0013082,0.0671328,20.9383,177.916,0.0840858,0.0,0.0
608,151.75,25.4779,26.7676,151.53,98.8506,96.255,0.00131165,0.0664323,20.938,177.856,0.241455,0.0,0.0
612,152.75,25.4803,27.1752,149.91,98.8316,97.9931,0.00130181,0.065785,20.938,177.826,0.0773193,0.0,1.0
616,153.75,25.7189,27.5107,148.198,98.8425,98.7622,0.00128997,0.0650932,20.9389,177.776,0.0073799,0.0,1.0
620,154.75,26.0928,27.523,147.624,98.8377,98.3847,0.00128421,0.064527,20.9395,177.736,0.0416864,0.0,1.0
624,155.75,26.5203,27.8392,145.752,98.8401,98.4191,0.00127663,0.0638424,20.9401,177.656,0.0387323,0.0,1.0
628,156.75,26.4894,28.9972,141.844,98.8264,98.2032,0.00127165,0.0634093,20.9412,177.585,0.0574036,0.0,1.0
632,157.75,25.7751,27.2415,140.31,98.8219,97.3293,0.0012666,0.0635667,20.942,177.495,0.138108,0.0,0.0
636,158.75,26.3539,28.8026,140.28,98.8135,97.4069,0.00126459,0.0647898,20.9425,177.355,0.130093,0.0,0.0
640,159.75,26.5953,29.6743,142.232,98.8094,97.1692,0.0012841,0.0664006,20.9429,177.255,0.1519,0.0,0.0
644,160.75,27.463,30.2145,137.587,98.7941,97.1153,0.00132315,0.0706451,20.9431,177.115,0.155522,0.0,0.0
648,161.75,28.5268,31.2348,137.122,98.803,96.5966,0.00142211,0.0826928,20.9441,176.975,0.204935,0.0,0.0
652,162.75,29.0465,32.734,138.16,98.7824,96.5947,0.00159603,0.0956804,20.9448,176.825,0.203227,0.0,0.0
656,163.75,29.3065,33.9257,134.582,98.763,96.5127,0.00179843,0.124301,20.9443,176.695,0.209153,0.0,0.0
660,164.75,30.1347,34.3802,138.382,98.7493,96.517,0.00200413,0.159585,20.9389,176.535,0.207482,0.0,0.0
664,165.75,31.0445,35.6295,140.584,98.7347,96.7674,0.00215694,0.194754,20.9284,176.414,0.182637,0.0,0.0
668,166.75,32.1319,36.8912,139.699,98.7428,96.535,0.00224259,0.230415,20.8986,176.264,0.2052,0.0,0.0
672,167.75,32.6915,37.5967,142.105,98.7416,96.9164,0.00228332,0.263514,20.8664,176.094,0.16931,0.0,0.0
676,168.75,33.5862,38.785,138.106,98.7444,96.9761,0.00229714,0.292913,20.8275,175.934,0.163983,0.0,0.0
680,169.75,33.8411,39.2365,136.877,98.7485,97.1604,0.00229009,0.31686,20.7939,175.784,0.147116,0.0,0.0
684,170.75,35.249,40.519,136.431,98.7501,96.732,0.00229187,0.340666,20.7587,175.634,0.187369,0.0,0.0
688,171.75,35.5672,41.5835,139.525,98.7481,96.7562,0.00233894,0.361313,20.7234,175.474,0.184907,0.0,0.0
692,172.75,36.5178,42.7601,130.983,98.7553,96.5461,0.00243161,0.37958,20.6881,175.324,0.205302,0.0,0.0
696,173.75,37.1825,43.3291,125.235,98.7691,96.6539,0.00254241,0.395803,20.6572,175.183,0.196444,0.0,0.0
700,174.75,38.1837,44.0349,133.267,98.7695,96.4404,0.00267623,0.410704,20.6312,175.003,0.216547,0.0,0.0
704,175.75,38.515,45.3701,135.28,98.763,96.9285,0.00278959,0.425318,20.6088,174.863,0.170139,0.0,0.0
708,176.75,39.3476,46.4636,125.288,98.7892,96.6408,0.00291655,0.434767,20.5936,174.703,0.199528,0.0,0.0
712,177.75,39.9541,46.6359,136.662,98.7937,96.9154,0.00307056,0.447106,20.574,174.513,0.174183,0.0,0.0
716,178.75,40.6376,48.0364,135.554,98.807,96.1929,0.0031716,0.458097,20.5552,174.363,0.243309,0.0,0.0
720,179.75,40.8709,49.1812,137.052,98.8074,96.9028,0.00322169,0.469527,20.5372,174.223,0.176626,0.0,0.0
724,180.75,42.3269,50.2735,132.494,98.8235,97.5952,0.00324136,0.480075,20.5197,174.042,0.113498,0.0,0.0
728,181.75,43.0808,50.7874,129.38,98.8248,96.7519,0.00324789,0.487645,20.5086,173.882,0.192362,0.0,0.0
732,182.75,43.2828,51.8252,132.973,98.8256,96.7548,0.00325825,0.495661,20.4936,173.692,0.192163,0.0,0.0
736,183.75,44.4383,52.9621,132.746,98.8336,96.9595,0.00330389,0.501741,20.4837,173.532,0.17372,0.0,0.0
740,184.75,44.7129,53.5917,129.76,98.8445,96.419,0.00333383,0.509432,20.4732,173.352,0.225451,0.0,0.0
744,185.75,45.2168,54.2049,131.158,98.8498,96.3957,0.00342666,0.517372,20.4638,173.182,0.228125,0.0,0.0
748,186.75,46.0845,55.0973,131.258,98.8522,96.4258,0.00353333,0.525796,20.4545,172.971,0.225515,0.0,0.0
752,187.75,46.8158,56.0869,125.868,98.8635,96.2075,0.00361707,0.533619,20.4451,172.811,0.247125,0.0,0.0
756,188.75,47.498,56.9741,131.114,98.8615,95.3695,0.00366742,0.541997,20.4347,172.601,0.326324,0.0,0.0
760,189.75,48.2609,57.4083,124.801,98.8704,95.8489,0.00369144,0.549823,20.4241,172.421,0.281639,0.0,0.0
764,190.75,49.4491,58.5975,134.184,98.8805,96.2031,0.00370224,0.558406,20.415,172.211,0.249092,0.0,0.0
768,191.75,49.9188,59.662,132.059,98.9059,96.3103,0.00372119,0.567286,20.4056,172.021,0.241317,0.0,0.0
772,192.75,50.5766,60.5879,125.699,98.9023,96.3176,0.00375882,0.576684,20.3944,171.85,0.240298,0.0,0.0
776,193.75,51.3736,60.8095,123.154,98.9119,95.2118,0.00379478,0.586203,20.3834,171.62,0.345972,0.0,0.0
780,194.75,51.043,61.9637,134.169,98.9224,96.6034,0.00381305,0.595421,20.3727,171.43,0.215264,0.0,0.0
784,195.75,52.3818,62.7465,122.744,98.9281,95.7688,0.00380738,0.604735,20.3609,171.24,0.294517,0.0,0.0
788,196.75,53.3399,63.4697,134.697,98.9366,96.8446,0.00379229,0.6136,20.3499,171.02,0.193934,0.0,0.0
792,197.75,54.1031,63.99,120.26,98.9446,96.7587,0.00381126,0.621996,20.3404,170.81,0.202725,0.0,0.0
796,198.75,54.0201,65.4715,129.09,98.9543,96.6956,0.00385676,0.629767,20.3301,170.609,0.209532,0.0,0.0
800,199.75,54.9577,65.5498,123.514,98.9624,96.5034,0.00391875,0.637467,20.3204,170.379,0.228322,0.0,0.0
804,200.75,55.787,66.7354,127.606,98.9697,96.2618,0.00399596,0.644602,20.3112,170.179,0.251738,0.0,0.0
808,201.75,56.154,67.6716,119.22,98.964,95.8891,0.00411613,0.651892,20.3001,169.959,0.286418,0.0,0.0
812,202.75,57.0629,68.2018,129.402,98.9733,95.4287,0.00423433,0.660787,20.2897,169.719,0.330951,0.0,0.0
816,203.75,57.5945,68.7539,124.566,98.9705,96.0216,0.00432371,0.667198,20.2824,169.488,0.274482,0.0,0.0
820,204.75,58.4178,70.1867,127.216,98.9793,95.8756,0.00444082,0.675489,20.2744,169.278,0.289109,0.0,0.0
824,205.75,59.1843,71.0319,121.793,98.9705,95.9711,0.0045231,0.684032,20.2666,169.038,0.279252,0.0,0.0
828,206.75,59.6567,71.9262,116.447,98.9846,95.8246,0.00456765,0.69315,20.2581,168.808,0.294413,0.0,0.0
832,207.75,60.2298,72.6183,127.96,98.9745,95.4486,0.00459173,0.701324,20.2487,168.588,0.32917,0.0,0.0
836,208.75,60.8224,74.0751,131.949,98.9769,95.1288,0.00461443,0.710383,20.2386,168.367,0.359843,0.0,0.0
840,209.75,61.8078,74.0368,125.323,98.9785,95.6616,0.00462932,0.719225,20.2281,168.117,0.309311,0.0,0.0
844,210.75,61.8314,74.7983,120.716,98.9777,94.7013,0.004623,0.7283,20.2171,167.797,0.400787,0.0,0.0
848,211.75,62.9126,75.9999,120.615,98.9737,94.8396,0.00460487,0.737901,20.2079,167.577,0.387176,0.0,0.0
852,212.75,63.7392,76.3776,122.209,98.9725,94.5358,0.00458547,0.748151,20.1971,167.407,0.416174,0.0,0.0
856,213.75,64.4032,77.3252,126.52,98.9689,93.5848,0.0045879,0.756906,20.1879,167.176,0.507593,0.0,0.0
860,214.75,65.2536,78.1335,121.532,98.9644,94.5921,0.00462463,0.768291,20.1769,166.916,0.410033,0.0,0.0
864,215.75,65.655,78.8212,123.061,98.9656,94.4529,0.00467973,0.778167,20.1641,166.686,0.423513,0.0,0.0
868,216.75,66.6506,79.5061,121.208,98.9676,94.4087,0.00478727,0.785655,20.1525,166.436,0.427941,0.0,0.0
872,217.75,66.8491,80.3859,120.48,98.9563,93.3194,0.00493159,0.793416,20.1396,166.186,0.532218,0.0,0.0
876,218.75,67.2844,81.1398,111.169,98.9535,95.0652,0.00507856,0.801889,20.1287,165.925,0.363762,0.0,0.0
880,219.75,67.9717,81.7552,118.42,98.9588,94.9983,0.00524542,0.812042,20.1187,165.675,0.370637,0.0,0.0
884,220.75,68.5364,82.7588,121.155,98.9551,93.9264,0.00538907,0.821419,20.1097,165.415,0.473271,0.0,0.0
888,221.75,69.3166,83.237,121.477,98.9454,93.8919,0.00551657,0.829965,20.099,165.175,0.475713,0.0,0.0
892,222.75,69.8719,84.1876,120.851,98.9422,93.792,0.00561469,0.838357,20.0862,164.894,0.485083,0.0,0.0
896,223.75,70.4021,84.877,118.378,98.9354,93.8012,0.00568437,0.847077,20.0739,164.614,0.483561,0.0,0.0
900,224.75,71.4682,85.4081,121.815,98.9374,94.1161,0.00573501,0.855077,20.0633,164.394,0.453332,0.0,0.0
904,225.75,71.4004,85.9829,123.292,98.9269,92.922,0.00577552,0.862371,20.0541,164.144,0.568242,0.0,0.0
908,226.75,72.2772,86.5086,119.984,98.9245,93.7338,0.00580279,0.869017,20.0451,163.853,0.489088,0.0,0.0
912,227.75,72.4672,87.1666,122.32,98.9269,92.8836,0.00580942,0.876355,20.0354,163.633,0.571985,0.0,0.0
916,228.75,73.3238,87.4728,117.27,98.9192,93.133,0.00579015,0.884291,20.0258,163.373,0.546948,0.0,0.0
920,229.75,73.769,88.3172,118.535,98.9136,94.072,0.00576307,0.892384,20.0172,163.123,0.455406,0.0,0.0
924,230.75,74.5121,89.1999,116.807,98.9228,93.0991,0.00574039,0.8988,20.0094,162.873,0.550592,0.0,0.0
928,231.75,74.6351,89.5725,122.931,98.9087,93.4921,0.00576743,0.903817,20.001,162.612,0.511068,0.0,0.0
932,232.75,75.2589,90.2305,119.26,98.8833,93.5237,0.00582,0.90689,19.9931,162.352,0.505674,0.0,0.0
936,233.75,75.6231,90.9562,119.604,98.8978,93.7794,0.00592679,0.910287,19.9844,162.092,0.48223,0.0,0.0
940,234.75,76.0483,91.0031,118.994,98.9002,93.2679,0.00604515,0.913891,19.9755,161.832,0.532074,0.0,0.0
944,235.75,76.5651,91.8465,116.488,98.8833,92.9511,0.0061605,0.918644,19.9697,161.571,0.561399,0.0,0.0
948,236.75,76.8441,92.1729,126.845,98.8869,93.2971,0.00625592,0.924424,19.9634,161.291,0.528019,0.0,0.0
952,237.75,77.625,92.6023,122.256,98.8825,92.6362,0.00636728,0.928723,19.958,161.011,0.592121,0.0,0.0
956,238.75,77.7372,92.9058,121.003,98.8837,92.9361,0.00650292,0.93128,19.9526,160.721,0.562905,0.0,0.0
960,239.75,78.1095,93.2128,119.316,98.8772,93.8138,0.00661504,0.932424,19.9477,160.481,0.477008,0.0,0.0
964,240.75,78.3725,93.7421,117.493,98.8732,92.9676,0.00669834,0.933573,19.9418,160.25,0.558861,0.0,0.0
968,241.75,78.8034,94.1297,128.143,98.8784,93.1335,0.00673624,0.935257,19.9367,159.97,0.543161,0.0,0.0
972,242.75,79.2985,93.9854,126.235,98.8857,93.3922,0.00672857,0.935908,19.9334,159.75,0.518664,0.0,0.0
976,243.75,79.405,94.3139,118.384,98.8696,91.6691,0.00669237,0.935333,19.9312,159.5,0.686163,0.0,0.0
980,244.75,79.8107,94.5075,112.265,98.8768,91.1106,0.00664412,0.93299,19.929,159.229,0.742284,0.0,0.0
984,245.75,80.0339,94.8283,119.629,98.8692,93.0884,0.00660094,0.930482,19.9275,158.949,0.546707,0.0,0.0
988,246.75,80.1061,95.2769,117.531,98.8712,92.2732,0.0065653,0.928299,19.9265,158.719,0.626706,0.0,0.0
992,247.75,80.2864,95.4975,116.562,98.8659,92.4925,0.0065619,0.926804,19.9264,158.509,0.604682,0.0,0.0
996,248.75,80.5871,95.4225,122.18,98.857,91.9865,0.00658104,0.924778,19.928,158.289,0.653655,0.0,0.0
1000,249.75,80.7992,95.7322,121.721,98.8603,92.3247,0.00661384,0.92108,19.9304,158.048,0.62065,0.0,0.0
1004,250.75,80.8662,95.4671,128.183,98.8562,92.478,0.00663646,0.91638,19.932,157.778,0.605221,0.0,0.0
1008,251.75,80.9194,95.3734,119.017,98.8566,91.772,0.00664329,0.911814,19.933,157.588,0.6748,0.0,0.0
1012,252.75,81.0186,95.7978,134.097,98.8526,91.5105,0.00664465,0.909083,19.9369,157.358,0.700326,0.0,0.0
1016,253.75,81.1802,95.6997,123.294,98.8522,92.1602,0.00668217,0.907505,19.9395,157.108,0.636089,0.0,0.0
1020,254.75,81.0098,95.9095,121.401,98.847,90.3275,0.00674978,0.904477,19.9428,156.917,0.81788,0.0,0.0
1024,255.75,81.5105,95.888,127.884,98.8377,91.7186,0.00687498,0.899347,19.9474,156.697,0.678337,0.0,0.0
1028,256.75,81.1939,95.1415,124.804,98.8296,90.4197,0.00703399,0.892958,19.9517,156.497,0.807028,0.0,0.0
1032,257.75,80.9708,95.2118,123.781,98.834,89.9014,0.00719661,0.885452,19.9559,156.237,0.859594,0.0,0.0
1036,258.75,81.1466,94.7117,121.873,98.8353,90.4352,0.00734744,0.877848,19.9609,156.017,0.805989,0.0,0.0
1040,259.75,81.1337,94.5915,134.151,98.8349,90.8986,0.00747298,0.87002,19.9674,155.856,0.759575,0.0,0.0
1044,260.75,80.4375,94.4139,131.723,98.8235,91.1645,0.0075361,0.860358,19.9742,155.606,0.73203,0.0,0.0
1048,261.75,80.4574,94.1194,124.865,98.8106,91.5415,0.00754582,0.850344,19.9816,155.396,0.693394,0.0,0.0
1052,262.75,80.2436,93.5291,129.248,98.8118,90.1877,0.00754175,0.839238,19.9905,155.196,0.828704,0.0,0.0
1056,263.75,80.5097,93.587,128.118,98.8005,91.3896,0.00753908,0.82823,20.0004,154.996,0.707536,0.0,0.0
1060,264.75,79.9779,93.3479,127.71,98.7989,89.5467,0.00756766,0.816905,20.0119,154.816,0.892242,0.0,0.0
1064,265.75,79.9504,92.6329,128.775,98.7892,90.309,0.00763078,0.806521,20.0235,154.585,0.814431,0.0,0.0
1068,266.75,79.7183,92.4519,122.673,98.7808,92.1674,0.00773293,0.797353,20.0368,154.385,0.628813,0.0,0.0
1072,267.75,79.176,92.0542,131.312,98.7759,91.7657,0.00785035,0.788454,20.0483,154.195,0.668011,0.0,0.0
1076,268.75,79.2515,91.6378,127.638,98.7682,91.8448,0.00798113,0.779662,20.0601,154.005,0.659488,0.0,0.0
1080,269.75,79.1665,90.9565,126.196,98.7582,92.0175,0.00807354,0.771611,20.0704,153.765,0.64151,0.0,0.0
1084,270.75,78.9352,90.8247,129.309,98.7719,92.2834,0.00812585,0.762844,20.0795,153.554,0.616587,0.0,0.0
1088,271.75,78.5523,90.6836,135.207,98.8022,91.4309,0.00815258,0.753572,20.0899,153.354,0.703588,0.0,0.0
1092,272.75,78.6171,90.2038,128.49,98.8369,89.9597,0.00815774,0.745335,20.0999,153.194,0.853978,0.0,0.0
1096,273.75,78.4397,89.7179,127.936,98.868,89.3677,0.00815116,0.73765,20.1081,153.034,0.916742,0.0,0.0
1100,274.75,77.7904,89.4951,130.677,98.9128,90.9869,0.00811736,0.730935,20.1164,152.854,0.757912,0.0,0.0
1104,275.75,78.006,89.1913,132.829,98.9446,90.2183,0.00807066,0.725462,20.1266,152.684,0.837816,0.0,0.0
1108,276.75,77.1544,88.5284,132.732,98.9866,89.6777,0.0080153,0.720662,20.1374,152.534,0.896197,0.0,0.0
1112,277.75,77.0953,88.1948,128.664,99.0177,90.5303,0.00796674,0.716596,20.1467,152.323,0.813187,0.0,0.0
1116,278.75,76.8131,87.7012,138.203,99.0536,92.938,0.0079183,0.712011,20.1546,152.173,0.578295,0.0,0.0
1120,279.75,76.3657,86.8354,133.375,99.0992,93.5853,0.00790125,0.705203,20.1604,152.033,0.519491,0.0,0.0
1124,280.75,75.9042,86.2198,139.23,99.1521,96.271,0.00793456,0.697408,20.166,151.913,0.267582,0.0,0.0
1128,281.75,75.2584,85.3671,137.984,99.2062,97.2604,0.00799793,0.688615,20.1703,151.823,0.179749,0.0,0.0
1132,282.75,74.8385,84.1699,135.485,99.2421,97.0275,0.00813395,0.679154,20.1751,151.703,0.204791,0.0,0.0
1136,283.75,74.1332,83.2096,145.188,99.2958,98.3012,0.00827139,0.666456,20.1823,151.643,0.0913505,0.0,0.0
1140,284.75,73.5777,82.4916,138.363,99.3301,98.5928,0.00837563,0.650984,20.1904,151.553,0.0676053,0.0,0.0
1144,285.75,72.5007,81.279,142.238,99.381,98.6544,0.00834093,0.631507,20.2003,151.463,0.0665798,0.0,0.0
1148,286.75,71.547,79.9918,138.611,99.406,98.8941,0.00811944,0.608944,20.2138,151.423,0.0468438,0.0,0.0
1152,287.75,70.848,78.908,140.759,99.4399,99.0931,0.00771311,0.584656,20.2301,151.373,0.0317013,0.0,0.0
1156,288.75,70.0993,77.7174,145.946,99.4673,99.4512,0.00722482,0.557331,20.2497,151.302,0.00147213,0.0,0.0
1160,289.75,69.5911,76.7464,143.424,99.5057,99.5458,0.0066517,0.519717,20.2709,151.282,-0.00365973,0.0,0.0
1164,290.75,68.6919,75.5669,141.988,99.5049,99.9088,0.00605102,0.48206,20.2941,151.222,-0.0367584,0.0,0.0
1168,291.75,67.511,74.1678,143.512,99.5182,99.9743,0.00554428,0.44355,20.3264,151.242,-0.0414914,0.0,0.0
1172,292.75,66.8608,73.0259,144.363,99.5307,99.9442,0.00506737,0.406923,20.3682,151.212,-0.0376198,0.0,0.0
1176,293.75,66.0497,71.711,149.731,99.5271,100.308,0.00469049,0.372978,20.4158,151.112,-0.0709327,0.0,0.0
1180,294.75,64.9484,70.8733,144.971,99.5287,100.173,0.00442209,0.342672,20.4601,151.152,-0.05853,0.0,0.0
1184,295.75,64.2389,69.7924,143.946,99.5246,100.164,0.00426626,0.31532,20.5001,151.132,-0.0581511,0.0,0.0
1188,296.75,63.1196,68.7372,147.235,99.5093,100.298,0.00419437,0.290991,20.5393,151.102,-0.07163,0.0,0.0
1192,297.75,62.6526,67.2792,147.415,99.4968,100.208,0.00416609,0.268091,20.5764,151.082,-0.0646023,0.0,0.0
1196,298.75,61.7442,66.2168,147.159,99.458,100.085,0.00418286,0.246668,20.6115,151.062,-0.057013,0.0,0.0
1200,299.75,61.2166,65.4212,147.449,99.4476,100.113,0.00427968,0.226368,20.6464,151.032,-0.0604774,0.0,0.0
1204,300.75,60.3462,64.6055,147.079,99.4104,100.021,0.0043936,0.208572,20.6717,150.992,-0.0555941,0.0,0.0
1208,301.75,59.404,63.2444,149.266,99.3684,100.058,0.0047117,0.195693,20.6964,150.972,-0.0627717,0.0,0.0
1212,302.75,58.6217,62.7184,147.399,99.3269,100.056,0.00506462,0.180429,20.7184,150.952,-0.0663495,0.0,0.0
1216,303.75,58.1218,61.3944,147.51,99.2712,99.8238,0.0054882,0.167404,20.7389,150.972,-0.0503795,0.0,0.0
1220,304.75,57.3321,60.5707,145.91,99.2187,99.9185,0.00596815,0.15596,20.7576,150.942,-0.0637744,0.0,0.0
1224,305.75,56.6554,59.8998,146.201,99.1497,99.8753,0.00657666,0.146324,20.7765,150.942,-0.0661664,0.0,0.0
1228,306.75,56.0341,59.0688,148.732,99.0956,99.9165,0.00719901,0.138183,20.7964,150.942,-0.0748639,0.0,0.0
1232,307.75,55.3744,58.5565,152.173,99.1085,99.6307,0.0078728,0.130791,20.8132,150.892,-0.0476888,0.0,0.0
1236,308.75,54.9334,57.6824,150.467,99.1464,99.7346,0.00855773,0.125017,20.8266,150.942,-0.0536684,0.0,0.0
1240,309.75,54.1995,57.0635,148.562,99.1723,99.7613,0.00913805,0.120367,20.8377,150.862,-0.0537321,0.0,0.0
1244,310.75,53.716,55.91,154.914,99.207,99.8171,0.0097716,0.116182,20.847,150.902,-0.0556306,0.0,0.0
1248,311.75,53.2589,55.5216,146.065,99.2324,100.193,0.0103757,0.11284,20.8549,150.812,-0.0873834,0.0,0.0
1252,312.75,52.8135,55.0354,146.767,99.2599,99.8792,0.0109451,0.110146,20.861,150.882,-0.0564404,0.0,0.0
1256,313.75,52.1411,54.5402,145.564,99.3204,99.918,0.0114405,0.10797,20.8663,150.812,-0.0544329,0.0,0.0
1260,314.75,50.6675,52.589,146.673,99.3616,100.067,0.01194,0.106129,20.8708,150.822,-0.0642346,0.0,0.0
1264,315.75,49.7114,51.5878,150.633,99.4048,99.8821,0.0124426,0.104477,20.8737,150.792,-0.0434672,0.0,0.0
1268,316.75,48.569,50.5864,149.469,99.4266,99.9859,0.0129224,0.102955,20.8765,150.752,-0.0509066,0.0,0.0
1272,317.75,48.5153,50.2109,151.287,99.4718,100.069,0.0133153,0.101766,20.8784,150.762,-0.0543089,0.0,0.0
1276,318.75,48.2377,50.1193,147.542,99.4968,100.098,0.0138253,0.100075,20.8803,150.762,-0.0546663,0.0,0.0
1280,319.75,46.9777,49.5138,151.531,99.5339,99.935,0.0142997,0.09851,20.8821,150.742,-0.0364885,0.0,0.0
1284,320.75,46.957,49.0273,148.558,99.5783,100.012,0.0147499,0.0970818,20.8842,150.722,-0.0393997,0.0,0.0
1288,321.75,46.6968,48.5345,149.04,99.6151,100.337,0.015133,0.0955725,20.8858,150.702,-0.0655028,0.0,0.0
1292,322.75,46.1356,47.6087,148.084,99.6421,100.16,0.0156227,0.0938675,20.8871,150.692,-0.0470086,0.0,0.0
1296,323.75,45.8584,47.3854,152.556,99.6651,100.175,0.0161894,0.0920068,20.8888,150.672,-0.0463198,0.0,0.0
1300,324.75,45.4537,46.6867,150.366,99.6986,100.2,0.0167601,0.0901417,20.8899,150.672,-0.045556,0.0,0.0
1304,325.75,44.9244,46.3499,148.408,99.7265,100.185,0.0176701,0.0886024,20.891,150.662,-0.0416593,0.0,0.0
1308,326.75,44.767,45.7732,146.746,99.7588,100.276,0.0186305,0.0874043,20.8925,150.632,-0.0468923,0.0,0.0
1312,327.75,44.7647,45.6518,150.584,99.7801,100.235,0.0194581,0.0864803,20.8937,150.642,-0.0413012,0.0,0.0
1316,328.75,44.0585,45.1948,149.212,99.7987,100.096,0.0201738,0.0857338,20.8951,150.632,-0.0269972,0.0,0.0
1320,329.75,43.8409,44.2863,146.71,99.8314,100.533,0.0207072,0.0852251,20.896,150.632,-0.0635723,0.0,0.0
1324,330.75,43.3816,44.3503,149.598,99.8451,100.594,0.0210828,0.084918,20.8972,150.562,-0.0677983,0.0,0.0
1328,331.75,42.7565,44.21,153.989,99.8637,100.25,0.0213816,0.0848935,20.8982,150.622,-0.0350675,0.0,0.0
1332,332.75,42.6221,43.7702,146.746,99.8923,100.318,0.0216288,0.0850285,20.8989,150.562,-0.038567,0.0,0.0
1336,333.75,42.31,43.4182,146.851,99.9069,100.224,0.0218519,0.0850506,20.8993,150.642,-0.0287284,0.0,0.0
1340,334.75,41.7717,43.2414,150.425,99.9238,100.371,0.0220425,0.0848181,20.8996,150.602,-0.0405352,0.0,0.0
1344,335.75,41.6642,42.6985,146.174,99.9476,100.368,0.02218,0.0845562,20.8997,150.582,-0.0380651,0.0,0.0
1348,336.75,41.7752,42.793,144.557,99.9485,100.476,0.0222437,0.0843724,20.8999,150.572,-0.0477687,0.0,0.0
1352,337.75,40.7142,42.5971,146.503,99.9589,100.419,0.022278,0.0842252,20.8999,150.562,-0.0416446,0.0,0.0
1356,338.75,41.203,41.8019,150.035,99.9642,100.327,0.0222023,0.0840655,20.9,150.532,-0.0328769,0.0,0.0
1360,339.75,40.7402,42.0336,150.358,99.9783,100.689,0.0221261,0.0839228,20.9,150.512,-0.0643196,0.0,0.0
1364,340.75,40.8109,41.4891,150.851,99.9767,100.662,0.0220848,0.0838445,20.9005,150.522,-0.0620168,0.0,0.0
1368,341.75,40.2922,41.498,149.812,99.9941,100.297,0.0220789,0.0837567,20.9012,150.522,-0.0274442,0.0,0.0
1372,342.75,40.6113,41.2329,147.256,100,100.382,0.0221025,0.0837306,20.9016,150.502,-0.0345745,0.0,0.0
1376,343.75,40.288,40.6886,148.551,99.9989,100.412,0.0221327,0.0838513,20.9018,150.492,-0.0374471,0.0,0.0
1380,344.75,39.705,40.0101,148.615,99.9929,100.559,0.022165,0.0840141,20.9017,150.472,-0.0512302,0.0,0.0
1384,345.75,39.7072,40.1873,150.87,99.9997,100.488,0.0222155,0.0844256,20.9017,150.452,-0.0441689,0.0,0.0
1388,346.75,39.2819,40.1091,146.067,99.9969,100.711,0.0222864,0.0846578,20.9016,150.442,-0.0645588,0.0,0.0
1392,347.75,39.0089,39.9006,152.308,99.9981,100.551,0.0223508,0.0845432,20.9016,150.432,-0.0500092,0.0,0.0
1396,348.75,38.7359,39.4648,151.183,100.009,100.483,0.0224265,0.0844215,20.9016,150.412,-0.0428515,0.0,0.0
1400,349.75,38.4868,39.1425,149.048,99.9864,100.555,0.0224734,0.0842204,20.9024,150.392,-0.0514222,0.0,0.0
1404,350.75,38.3416,39.3236,146.532,99.9783,100.528,0.0224596,0.0840695,20.9028,150.382,-0.0497459,0.0,0.0
1408,351.75,38.7521,38.9886,152.666,99.9686,100.522,0.0224206,0.0840238,20.9032,150.372,-0.0500559,0.0,0.0
1412,352.75,38.4227,39.2625,153.719,99.967,100.432,0.0223489,0.0841265,20.9034,150.372,-0.0420956,0.0,0.0
1416,353.75,37.7783,38.5812,148.526,99.9537,100.265,0.0222771,0.0842866,20.9035,150.362,-0.0282542,0.0,0.0
1420,354.75,37.7436,38.6483,148.106,99.9464,100.37,0.0221986,0.0843169,20.9033,150.332,-0.0383948,0.0,0.0
1424,355.75,37.9704,38.0753,151.708,99.9347,100.25,0.022119,0.0842266,20.903,150.312,-0.028571,0.0,0.0
1428,356.75,37.275,38.0573,150.362,99.9121,100.536,0.0220772,0.084114,20.9027,150.332,-0.0564567,0.0,0.0
1432,357.75,37.2399,38.4357,152.547,99.8964,100.335,0.0220801,0.0840023,20.9026,150.312,-0.03978,0.0,0.0
1436,358.75,37.1877,37.9237,148.264,99.8718,100.589,0.0221033,0.083908,20.9025,150.252,-0.0648954,0.0,0.0
1440,359.75,36.8359,38.0186,153.391,99.8625,100.539,0.022166,0.0839141,20.9024,150.272,-0.06123,0.0,0.0
1444,360.75,36.9373,37.1817,150.789,99.8423,100.291,0.0222141,0.0840109,20.9024,150.282,-0.0407003,0.0,0.0
1448,361.75,36.67,37.2159,144.947,99.8213,100.374,0.0222861,0.0842325,20.9023,150.272,-0.0501119,0.0,0.0
1452,362.75,37.2066,37.3595,151.008,99.7975,100.164,0.0223709,0.0844536,20.9023,150.252,-0.0332194,0.0,0.0
1456,363.75,36.3736,37.365,157.464,99.7906,100.172,0.0224678,0.0845676,20.9023,150.262,-0.0346347,0.0,0.0
1460,364.75,36.1909,36.7956,151.478,99.7579,100.026,0.0225564,0.0845667,20.9023,150.222,-0.0243676,0.0,0.0
1464,365.75,36.2276,36.9357,150.899,99.7224,100.196,0.0226022,0.084482,20.9023,150.232,-0.0429493,0.0,0.0
1468,366.75,36.137,36.8617,147.931,99.7055,100.12,0.022578,0.0843743,20.9023,150.192,-0.0376339,0.0,0.0
1472,367.75,36.015,36.4157,149.748,99.6671,100.11,0.0225249,0.084383,20.9023,150.182,-0.0402016,0.0,0.0
1476,368.75,35.7491,36.729,152.328,99.6377,99.9388,0.0224725,0.0845755,20.9023,150.161,-0.0273883,0.0,0.0
1480,369.75,35.7438,36.6307,150.732,99.6009,99.9442,0.0224607,0.0848886,20.9023,150.161,-0.0312192,0.0,0.0
1484,370.75,35.8205,36.3054,149.607,99.5735,100.119,0.0224754,0.0851777,20.9023,150.141,-0.0495659,0.0,0.0
1488,371.75,35.1467,35.9831,146.94,99.5396,99.9466,0.0225002,0.0857412,20.902,150.131,-0.03703,0.0,0.0
1492,372.75,35.614,36.2206,151.35,99.5105,100.003,0.0225376,0.0863636,20.9011,150.131,-0.0447891,0.0,0.0
1496,373.75,35.5468,35.8501,152.796,99.4746,99.9704,0.0225834,0.0869875,20.8997,150.111,-0.0451146,0.0,0.0
1500,374.75,35.2599,35.757,149.106,99.4455,99.8209,0.0226134,0.0876176,20.8988,150.091,-0.0341906,0.0,0.0
1504,375.75,35.179,35.6851,153.879,99.4201,99.6793,0.0226075,0.0883319,20.8982,150.101,-0.0236225,0.0,0.0
1508,376.75,35.3225,35.5448,149.08,99.3967,99.6487,0.0225659,0.0889567,20.8978,150.071,-0.0229755,0.0,0.0
1512,377.75,35.0015,35.1863,151.574,99.3584,99.8399,0.0224873,0.0893245,20.8976,150.051,-0.0438694,0.0,0.0
1516,378.75,35.0082,35.2681,151.262,99.3047,99.5997,0.022415,0.0896649,20.8972,150.051,-0.0269163,0.0,0.0
1520,379.75,34.75,35.1302,150.27,99.278,99.5186,0.0223605,0.089829,20.8963,150.041,-0.0219659,0.0,0.0
1524,380.75,35.0363,35.0979,150.59,99.2449,99.4347,0.0223697,0.0898189,20.8958,150.021,-0.0173336,0.0,0.0
1528,381.75,34.6086,34.4012,150.979,99.2126,99.6603,0.0224232,0.0895676,20.8954,150.001,-0.0408541,0.0,0.0
1532,382.75,34.3029,34.7748,144.856,99.1965,99.4648,0.0225008,0.0892396,20.8952,149.961,-0.0245091,0.0,0.0
1536,383.75,34.4994,35.0434,149.366,99.1658,99.5482,0.0225742,0.0889259,20.895,149.941,-0.0349263,0.0,0.0
1540,384.75,34.2728,34.8124,148.374,99.1565,99.3556,0.0226349,0.0886847,20.8954,149.901,-0.0181991,0.0,0.0
1544,385.75,34.4318,34.6076,149.864,99.1186,99.3333,0.0226905,0.0884697,20.896,149.891,-0.0196332,0.0,0.0
1548,386.75,34.4726,34.5868,153.52,99.0843,99.2702,0.0227493,0.088195,20.8963,149.861,-0.0170101,0.0,0.0
1552,387.75,33.7396,34.1397,149.624,99.0544,99.392,0.0228089,0.0879726,20.8966,149.911,-0.0308729,0.0,0.0
1556,388.75,33.3641,34.7355,149.891,99.027,99.3449,0.022864,0.0877312,20.8968,149.891,-0.0290881,0.0,0.0
1560,389.75,33.6587,34.0844,151.111,99.0104,99.1373,0.0228958,0.0874616,20.8969,149.871,-0.0116162,0.0,0.0
1564,390.75,33.6113,34.1783,148.055,98.9745,99.2091,0.0229039,0.0872579,20.8969,149.821,-0.0214796,0.0,0.0
1568,391.75,33.7606,34.3126,152.951,98.964,99.196,0.0229038,0.0870604,20.897,149.891,-0.0212432,0.0,0.0
1572,392.75,33.5302,34.1498,146.055,98.9483,99.0684,0.0229062,0.0868721,20.897,149.831,-0.0110053,0.0,0.0
1576,393.75,33.8717,34.0462,148.133,98.935,99.1567,0.022894,0.0865591,20.897,149.801,-0.0203124,0.0,0.0
1580,394.75,32.9685,33.3628,155.213,98.8998,98.9102,0.0228748,0.0862063,20.897,149.781,-0.000947657,0.0,0.0
1584,395.75,33.403,34.0333,150.93,98.8784,99.0227,0.022805,0.0858554,20.8973,149.731,-0.0132329,0.0,0.0
1588,396.75,32.9965,33.7354,153.666,98.8696,99.0824,0.022732,0.0856552,20.8977,149.641,-0.0195156,0.0,0.0
1592,397.75,33.1645,32.7941,155.059,98.8538,99.1077,0.0226945,0.085507,20.8979,149.651,-0.0232705,0.0,0.0
1596,398.75,32.834,33.26,155.713,98.8252,99.0455,0.0226599,0.0851563,20.8983,149.721,-0.0202127,0.0,0.0
1600,399.75,33.1579,33.9508,146.91,98.8155,99.1843,0.0226195,0.0847662,20.8991,149.741,-0.0338084,0.0,0.0
1604,400.75,33.0598,32.9228,148.335,98.7993,98.916,0.0225796,0.0844807,20.8997,149.801,-0.010708,0.0,0.0
1608,401.75,33.0927,33.4043,151.788,98.78,98.9553,0.0224885,0.0842696,20.9001,149.821,-0.0160922,0.0,0.0
1612,402.75,32.719,33.27,150.549,98.7658,98.8655,0.0223712,0.0841388,20.9003,149.791,-0.00915508,0.0,0.0
1616,403.75,32.517,33.2245,153.607,98.7537,99.0155,0.0222344,0.0840641,20.9005,149.761,-0.0240183,0.0,0.0
1620,404.75,32.6199,32.8969,153.054,98.74,98.964,0.0220923,0.0839373,20.9006,149.711,-0.020565,0.0,0.0
1624,405.75,31.9543,33.0942,149.742,98.7327,98.9301,0.0220051,0.0838341,20.9006,149.731,-0.0181178,0.0,0.0
1628,406.75,32.7815,32.6415,148.152,98.7053,98.9519,0.0219382,0.0837386,20.9007,149.721,-0.0226437,0.0,0.0
1632,407.75,32.4706,33.1105,147.241,98.6964,98.7724,0.0219221,0.0835919,20.9007,149.731,-0.00698047,0.0,0.0
1636,408.75,33.0065,33.291,150.855,98.6928,98.8121,0.0219754,0.0836498,20.9007,149.711,-0.0109696,0.0,0.0
1640,409.75,32.2237,32.8908,153.374,98.6924,98.8092,0.0220671,0.0840081,20.9007,149.711,-0.0107389,0.0,0.0
1644,410.75,32.2787,32.8178,152.417,98.6754,99.0824,0.0222421,0.0844749,20.9007,149.701,-0.0373509,0.0,0.0
1648,411.75,32.2759,32.5982,153.208,98.6649,98.8311,0.0224346,0.0847908,20.9001,149.621,-0.0152676,0.0,0.0
1652,412.75,31.7677,32.4125,149.33,98.6552,98.8437,0.0225959,0.0847612,20.8995,149.621,-0.0173174,0.0,0.0
1656,413.75,32.2774,32.2156,152.569,98.6581,98.867,0.0226859,0.0845336,20.8991,149.511,-0.0191953,0.0,0.0
1660,414.75,32.3807,31.9739,149.269,98.6552,98.7593,0.0227048,0.0844377,20.8989,149.611,-0.00956332,0.0,0.0
1664,415.75,32.0068,31.8109,154.188,98.6447,98.7437,0.0226729,0.0845009,20.8987,149.591,-0.00910094,0.0,0.0
1668,416.75,31.7368,31.9824,152.44,98.6532,99.0106,0.0226338,0.0844501,20.8994,149.561,-0.0328134,0.0,0.0
1672,417.75,31.671,32.206,149.093,98.6476,98.8044,0.022594,0.0843829,20.8999,149.591,-0.0144132,0.0,0.0
1676,418.75,31.7935,31.89,150.574,98.6528,98.8806,0.0225304,0.0841709,20.9003,149.571,-0.0209245,0.0,0.0
1680,419.75,31.5918,32.1825,151.505,98.6516,98.9582,0.0224314,0.0840595,20.9007,149.501,-0.0281581,0.0,0.0
1684,420.75,32.1209,32.386,151.937,98.6629,98.8408,0.0223289,0.0840999,20.9009,149.521,-0.0163447,0.0,0.0
1688,421.75,31.4853,32.18,149.164,98.6601,98.7088,0.0222601,0.0841945,20.9011,149.581,-0.00447952,0.0,0.0
1692,422.75,32.0131,32.346,151.412,98.6468,98.8922,0.0222189,0.0843374,20.9012,149.581,-0.0225504,0.0,0.0
1696,423.75,31.3909,31.9862,153.28,98.6403,98.865,0.0222468,0.0845699,20.9013,149.531,-0.0206507,0.0,0.0
1700,424.75,31.27,31.7916,151.519,98.6451,98.8675,0.0223451,0.0850463,20.9013,149.541,-0.0204274,0.0,0.0
1704,425.75,31.4891,32.2396,151.135,98.6427,98.6739,0.0224921,0.0855481,20.9014,149.491,-0.00286383,0.0,0.0
1708,426.75,31.6508,32.0411,151.697,98.6548,98.8306,0.0226537,0.0858153,20.9001,149.461,-0.0161518,0.0,0.0
1712,427.75,31.6216,32.1354,147.347,98.677,98.6996,0.0227853,0.0858391,20.8989,149.501,-0.00207286,0.0,0.0
1716,428.75,31.8052,31.4239,152.142,98.669,98.8811,0.022875,0.0856678,20.8982,149.541,-0.0194842,0.0,0.0
1720,429.75,30.7894,32.0015,150.904,98.6669,98.8102,0.0229096,0.0854713,20.8977,149.541,-0.0131662,0.0,0.0
1724,430.75,31.6288,31.7403,151.113,98.6754,98.9131,0.022895,0.085246,20.8982,149.511,-0.0218288,0.0,0.0
1728,431.75,31.6687,32.0545,149.361,98.6968,98.9567,0.0228029,0.0850385,20.8985,149.501,-0.0238681,0.0,0.0
1732,432.75,31.5354,31.7163,150.978,98.6928,98.7525,0.0226924,0.0849101,20.8987,149.441,-0.00548664,0.0,0.0
1736,433.75,31.5381,32.174,153.394,98.7029,98.7568,0.0225849,0.0848525,20.8994,149.431,-0.00496061,0.0,0.0
1737,434,31.3405,31.5591,152.105,98.7041,99.1659,0.0225644,0.084847,20.8996,149.431,-0.0423565,0.0,0.0