File: 01_Data/Masonite_Board/Cone/Masonite_Cone_HF75Scan_230106_R1.csv
Names,Time,Stack TC,Smoke TC,Exh Press,Smoke Comp,Smoke Meas,CO Meter,CO2 Meter,O2 Meter,Sample Mass,Ext Coeff,Start Test,Flame Verif
Chan Gain,,500,500,1,1,1,1,1,1,1,1,1.0,1.0
Offset,,0,0,0.303564,0,0,0,0,0,0,0,0.0,0.0
Gain,,1,1,25.011,13.3935,16.078,1,1,1,1.00088,1.03447,1.0,1.0
Units,sec,C,C,Pa,%,%,%,%,%,g,/m,,
Baseline,,44.4039,47.4004,142.831,100.025,100.076,0.000462937,0.0466608,20.9625,-446.003,-0.00460375,,
3,0.5,42.1707,44.3579,144.071,101.13,100.94,0.000378653,0.0473911,20.9628,177.626,0.0170182,0.0,0.0
6,1.25,42.1482,44.1826,139.492,101.122,101.406,0.000417209,0.0475768,20.9629,177.746,-0.0254859,0.0,0.0
9,2,41.7969,44.5403,141.542,101.12,101.06,0.000466478,0.04783,20.9629,177.706,0.00542656,0.0,0.0
12,2.75,41.8322,44.208,144.441,101.141,100.881,0.000511416,0.0480145,20.963,177.696,0.0233399,0.0,0.0
15,3.5,41.9344,44.2515,144.183,101.131,100.875,0.000552041,0.0482942,20.963,177.706,0.02304,0.0,0.0
18,4.25,42.0612,44.8324,147.811,101.119,100.816,0.000595108,0.0485517,20.9628,177.576,0.0272309,0.0,0.0
21,5,41.8218,44.1617,142.083,101.125,101.181,0.000608739,0.048831,20.9626,177.545,-0.00497305,0.0,0.0
24,5.75,42.1494,44.8844,141.979,101.123,100.639,0.000618676,0.0490969,20.9624,177.515,0.0435189,0.0,0.0
27,6.5,42.6561,44.9942,140.856,101.12,100.594,0.000579763,0.0492907,20.9623,177.535,0.0473335,0.0,0.0
30,7.25,42.288,45.0467,140.22,101.12,100.291,0.000531495,0.0494942,20.962,177.455,0.0747277,0.0,0.0
33,8,42.2654,45.0943,141.431,101.104,100.146,0.000487825,0.0496717,20.9614,177.415,0.0863662,0.0,0.0
36,8.75,42.8668,44.9596,139.409,101.105,100.491,0.000438256,0.0498058,20.961,177.405,0.0552309,0.0,0.0
39,9.5,42.4615,45.1764,138.346,101.106,100.292,0.000398392,0.0498905,20.9604,177.435,0.0733468,0.0,0.0
42,10.25,42.6586,45.0027,144.542,101.091,100.252,0.000367741,0.0499946,20.9596,177.335,0.0755505,0.0,0.0
45,11,42.3509,45.2959,142.664,101.077,100.007,0.000343552,0.0501039,20.959,177.295,0.0965354,0.0,0.0
48,11.75,42.669,45.6999,143.67,101.076,100.066,0.000333377,0.0502097,20.9585,177.275,0.0910764,0.0,0.0
51,12.5,42.6074,45.7056,148.171,101.072,99.7088,0.000329138,0.050185,20.9579,177.305,0.123204,0.0,0.0
54,13.25,42.6683,45.3812,141.663,101.064,99.3349,0.000361521,0.0501159,20.9576,177.215,0.156634,0.0,0.0
57,14,42.9934,45.7489,142.822,101.064,98.8874,0.00039626,0.0500525,20.9573,177.195,0.197568,0.0,0.0
60,14.75,42.7654,45.5064,142.724,101.05,99.0194,0.000443897,0.050079,20.9577,177.185,0.18418,0.0,0.0
63,15.5,42.8079,45.6905,140.132,101.043,98.7068,0.000472172,0.0501296,20.9579,177.185,0.21228,0.0,0.0
66,16.25,43.2271,45.8149,139.956,101.039,98.5366,0.000522505,0.0502287,20.9582,177.115,0.227579,0.0,0.0
69,17,43.1449,45.6268,141.319,101.032,98.0817,0.00055059,0.0503228,20.9584,177.055,0.268939,0.0,0.0
72,17.75,43.4072,45.3558,143.335,101.017,97.9556,0.000593975,0.0504852,20.9585,177.025,0.279218,0.0,0.0
75,18.5,43.2008,45.7946,142.58,101.02,98.1774,0.00066648,0.0506952,20.9586,177.045,0.258989,0.0,0.0
78,19.25,43.0555,46.0362,141.053,101.005,96.8055,0.000719336,0.0509939,20.9587,176.925,0.385326,0.0,0.0
81,20,43.3227,46.3729,134.371,100.981,100.607,0.000802338,0.0512736,20.9583,176.885,0.0336942,0.0,1.0
84,20.75,43.4653,46.145,140.378,100.976,101.128,0.000864844,0.0515808,20.9578,176.805,-0.0136164,0.0,1.0
87,21.5,43.397,47.2998,136.068,100.969,100.544,0.000913828,0.0518564,20.9575,176.765,0.0383036,0.0,1.0
90,22.25,44.2559,47.6686,137.07,100.951,99.9919,0.00093708,0.0520704,20.9569,176.615,0.0866062,0.0,1.0
93,23,44.2964,48.293,127.113,100.945,99.1872,0.000948122,0.0521641,20.9564,176.264,0.15945,0.0,1.0
96,23.75,45.3842,48.9288,127.903,100.934,99.5473,0.000946069,0.0522324,20.956,176.485,0.125533,0.0,1.0
99,24.5,44.3922,48.4164,129.359,100.934,99.6985,0.000955246,0.0522822,20.9558,176.485,0.111731,0.0,1.0
102,25.25,44.5841,48.9755,125.626,100.914,99.2618,0.000975071,0.0524846,20.9556,176.164,0.149801,0.0,0.0
105,26,45.4958,50.1492,127.059,100.89,99.3521,0.00101198,0.0526322,20.9554,175.914,0.139382,0.0,0.0
108,26.75,46.3987,51.6901,126.737,100.882,99.3103,0.00103889,0.0545779,20.9553,175.854,0.142493,0.0,0.0
111,27.5,46.4529,52.40625,126.085,100.861,98.8521,0.00112597,0.0567799,20.9553,175.744,0.182552,0.0,0.0
114,28.25,47.1809,53.0899,124.885,100.86,98.5719,0.00124192,0.0657623,20.9553,175.634,0.208271,0.0,0.0
117,29,48.6348,54.8034,123.198,100.835,98.303,0.00136699,0.0791638,20.9553,175.434,0.23074,0.0,0.0
120,29.75,48.7662,55.3923,125.483,100.824,98.3069,0.00149747,0.0965541,20.9544,175.253,0.229459,0.0,0.0
123,30.5,49.753,56.8562,122.035,100.807,98.1779,0.00160762,0.117267,20.9534,175.093,0.239759,0.0,0.0
126,31.25,50.612,58.1184,124.13,100.799,98.4738,0.00169434,0.143919,20.9406,174.953,0.211792,0.0,0.0
129,32,51.6081,58.9078,124.305,100.766,97.5445,0.00179511,0.172978,20.9205,174.773,0.29489,0.0,0.0
132,32.75,52.317,60.3204,118.509,100.763,98.4708,0.00189743,0.202208,20.8892,174.573,0.208787,0.0,0.0
135,33.5,53.1219,61.9044,120.394,100.732,97.9061,0.00198433,0.233957,20.8613,174.413,0.258219,0.0,0.0
138,34.25,54.0521,62.6095,115.897,100.732,97.0371,0.002105,0.261553,20.8257,174.273,0.339117,0.0,0.0
141,35,54.9478,64.1466,116.642,100.701,96.9365,0.00221216,0.295507,20.7933,174.042,0.345693,0.0,0.0
144,35.75,55.4264,65.1315,115.478,100.688,96.8335,0.00232309,0.324375,20.7538,173.832,0.354239,0.0,0.0
147,36.5,56.1552,66.4876,119.431,100.674,96.9282,0.00244704,0.35246,20.7152,173.682,0.344079,0.0,0.0
150,37.25,57.8502,67.7406,115.634,100.665,96.9665,0.00257392,0.38078,20.6762,173.592,0.339723,0.0,0.0
153,38,58.6751,68.7391,120.053,100.62,96.6245,0.00268199,0.407447,20.6366,173.242,0.367693,0.0,0.0
156,38.75,59.301,70.1904,124.599,100.605,96.2786,0.00282371,0.432548,20.5988,172.991,0.39891,0.0,0.0
159,39.5,60.7656,71.5667,114.621,100.607,96.2099,0.00298384,0.456139,20.5646,172.901,0.405497,0.0,0.0
162,40.25,60.9464,72.1589,120.648,100.593,96.0538,0.00308267,0.47186,20.5437,172.791,0.418973,0.0,0.0
165,41,61.7669,73.118,118.609,100.571,95.7933,0.00323145,0.494727,20.5166,172.581,0.441666,0.0,0.0
168,41.75,62.8644,74.7177,113.357,100.548,93.68,0.0033991,0.518827,20.4915,172.351,0.642028,0.0,0.0
171,42.5,63.6096,76.0907,115.995,100.541,94.2242,0.00357911,0.542249,20.4653,172.131,0.588845,0.0,0.0
174,43.25,64.6664,76.7656,110.578,100.547,94.2678,0.00373315,0.563918,20.4389,171.951,0.585157,0.0,0.0
177,44,65.6679,78.1262,117.762,100.54,94.2389,0.00386853,0.584591,20.4133,171.76,0.587279,0.0,0.0
180,44.75,66.4589,79.2657,115.278,100.52,94.4086,0.00399004,0.604127,20.3819,171.5,0.569139,0.0,0.0
183,45.5,66.9385,80.0915,109.544,100.506,94.2433,0.00412178,0.622447,20.3554,171.29,0.583866,0.0,0.0
186,46.25,68.4131,81.9513,119.051,100.51,94.2482,0.00425361,0.640593,20.3301,171.1,0.583726,0.0,0.0
189,47,68.8553,82.815,117.714,100.503,92.6962,0.00437944,0.655863,20.3047,170.91,0.73373,0.0,0.0
192,47.75,69.8953,83.6745,119.348,100.481,92.4126,0.00448188,0.674709,20.2861,170.649,0.759542,0.0,0.0
195,48.5,70.8628,85.2363,114.035,100.477,91.8974,0.00457487,0.69428,20.2643,170.469,0.809903,0.0,0.0
198,49.25,71.5629,86.1851,114.588,100.471,92.2581,0.00465355,0.711033,20.2484,170.219,0.773883,0.0,0.0
201,50,72.5858,87.1238,118.446,100.472,91.4848,0.0047109,0.727157,20.2298,170.079,0.850335,0.0,0.0
204,50.75,73.1418,88.2563,116.078,100.446,92.4504,0.0048108,0.745599,20.2119,169.799,0.752695,0.0,0.0
207,51.5,74.0887,89.4396,116.701,100.444,93.4396,0.00491421,0.764808,20.197,169.629,0.655971,0.0,0.0
210,52.25,75.0177,90.8564,110.714,100.43,91.077,0.00500262,0.783593,20.174,169.368,0.887103,0.0,0.0
213,53,75.974,92.0561,111.781,100.434,91.4789,0.005127,0.799326,20.15,169.208,0.847449,0.0,0.0
216,53.75,76.7064,92.5457,111.271,100.426,91.4259,0.00525086,0.816709,20.1264,168.928,0.852005,0.0,0.0
219,54.5,77.4906,94.2906,113.446,100.4,90.7179,0.00535529,0.834363,20.1038,168.698,0.920188,0.0,0.0
222,55.25,78.0825,94.8617,104.939,100.402,88.5516,0.00547871,0.849358,20.0816,168.468,1.13973,0.0,0.0
225,56,78.3951,95.4381,117.541,100.407,88.7449,0.00558883,0.865293,20.0628,168.317,1.12034,0.0,0.0
228,56.75,80.2174,96.4448,112.693,100.4,87.4383,0.0057421,0.881197,20.0443,168.017,1.25431,0.0,0.0
231,57.5,80.2593,97.7578,107.5,100.412,89.7204,0.00589995,0.896473,20.0263,167.717,1.02163,0.0,0.0
234,58.25,81.1495,98.9851,108.729,100.422,90.8273,0.00605763,0.913335,20.0092,167.447,0.911281,0.0,0.0
237,59,81.9937,99.5882,114.003,100.456,90.6198,0.00621182,0.92956,19.9891,167.307,0.935069,0.0,0.0
240,59.75,82.99,100.253,107.848,100.473,90.658,0.00638465,0.944836,19.9682,167.166,0.932825,0.0,0.0
243,60.5,84.0006,101.549,113.681,100.497,87.3402,0.00654406,0.959003,19.9474,166.886,1.27329,0.0,0.0
246,61.25,84.299,102.36,107.683,100.516,88.0247,0.00667452,0.972498,19.9275,166.616,1.20415,0.0,0.0
249,62,84.9013,103.704,109.621,100.548,89.7969,0.00681336,0.983686,19.9106,166.446,1.02618,0.0,0.0
252,62.75,86.082,104.805,107.087,100.572,89.1458,0.00693322,0.995267,19.8942,166.236,1.09439,0.0,0.0
255,63.5,86.6064,105.292,104.434,100.56,90.9475,0.00705916,1.00689,19.8788,165.935,0.911755,0.0,0.0
258,64.25,87.5075,106.654,108.194,100.574,90.8773,0.00716901,1.01831,19.8642,165.695,0.920012,0.0,0.0
261,65,88.172,106.839,108.486,100.594,90.8646,0.00727102,1.03272,19.8528,165.525,0.923056,0.0,0.0
264,65.75,88.6067,107.688,109.814,100.621,92.1698,0.00736976,1.04839,19.84,165.265,0.796038,0.0,0.0
267,66.5,89.5341,108.242,100.587,100.614,91.9387,0.0074856,1.06201,19.8262,164.944,0.818266,0.0,0.0
270,67.25,89.6365,109.41,104.259,100.624,91.632,0.00760915,1.07871,19.8143,164.704,0.849432,0.0,0.0
273,68,90.518,109.941,111.405,100.647,90.9696,0.00773408,1.09296,19.7967,164.514,0.91733,0.0,0.0
276,68.75,91.2127,110.634,109.732,100.669,91.9249,0.00785851,1.10691,19.7803,164.304,0.82456,0.0,0.0
279,69.5,91.6483,111.242,114.887,100.689,92.212,0.00800626,1.12048,19.7623,163.974,0.798039,0.0,0.0
282,70.25,92.079,111.967,107.063,100.689,92.7129,0.00817861,1.13301,19.7409,163.713,0.748909,0.0,0.0
285,71,93.0725,113.021,107.399,100.686,92.1104,0.00834834,1.14419,19.7237,163.413,0.807818,0.0,0.0
288,71.75,93.3851,113.737,105.609,100.703,91.9539,0.00850043,1.15516,19.7083,163.243,0.824797,0.0,0.0
291,72.5,94.1767,114.146,105.915,100.721,93.2894,0.00862764,1.16316,19.6952,162.973,0.695565,0.0,0.0
294,73.25,94.5298,115.23,107.959,100.732,91.5079,0.00870677,1.17265,19.6825,162.682,0.87146,0.0,0.0
297,74,95.5557,116.099,110.102,100.756,92.1231,0.00874118,1.18066,19.6688,162.432,0.812821,0.0,0.0
300,74.75,96.2051,116.856,99.892,100.782,91.423,0.00874307,1.18605,19.6618,162.272,0.884445,0.0,0.0
303,75.5,96.7095,117.307,108.909,100.791,91.9921,0.00872511,1.19358,19.6521,161.982,0.8289,0.0,0.0
306,76.25,97.3016,118.571,100.996,100.817,92.9622,0.00869388,1.20128,19.6438,161.581,0.736069,0.0,0.0
309,77,97.998,119.38,101.393,100.827,92.4808,0.00866337,1.21001,19.6358,161.351,0.784095,0.0,0.0
312,77.75,99.0276,120.515,106.113,100.845,92.3415,0.0086744,1.2177,19.6277,161.111,0.799323,0.0,0.0
315,78.5,99.6121,121.372,109.209,100.858,93.2566,0.00871486,1.22585,19.6192,160.931,0.711093,0.0,0.0
318,79.25,100.832,122.153,101.658,100.866,92.943,0.00877253,1.23394,19.6101,160.551,0.742351,0.0,0.0
321,80,101.418,122.829,101.973,100.876,93.0294,0.00883909,1.24267,19.6,160.27,0.734769,0.0,0.0
324,80.75,102.052,124.426,97.7487,100.906,92.1442,0.00889929,1.2523,19.5899,160.02,0.82428,0.0,0.0
327,81.5,102.59,125.545,107.968,100.925,92.8209,0.00893356,1.26131,19.5833,159.81,0.759581,0.0,0.0
330,82.25,103.469,125.753,107.042,100.94,92.9033,0.00897129,1.27172,19.574,159.46,0.752885,0.0,0.0
333,83,104.226,127.111,100.722,100.929,93.9312,0.00900085,1.28765,19.5664,159.229,0.652041,0.0,0.0
336,83.75,105.217,127.874,99.3164,100.94,93.7997,0.00902591,1.30315,19.5538,158.959,0.665708,0.0,0.0
339,84.5,105.791,128.977,104.768,100.954,93.5539,0.00907145,1.32109,19.5418,158.789,0.690807,0.0,0.0
342,85.25,106.785,129.679,101.363,100.961,93.2953,0.00914092,1.34228,19.5283,158.399,0.716547,0.0,0.0
345,86,107.786,130.975,106.139,100.963,92.2169,0.00923369,1.36108,19.5108,158.138,0.822203,0.0,0.0
348,86.75,107.955,132.121,100.621,100.98,92.9686,0.00936074,1.37745,19.4859,157.848,0.750076,0.0,0.0
351,87.5,108.83,132.535,102.05,100.997,92.0594,0.00946776,1.39149,19.4592,157.658,0.840836,0.0,0.0
354,88.25,109.224,133.07,99.6782,101.008,92.944,0.00957039,1.40413,19.4336,157.328,0.755006,0.0,0.0
357,89,109.619,133.745,102.901,101.008,92.1384,0.00964708,1.41438,19.4128,157.068,0.834008,0.0,0.0
360,89.75,110.218,134.122,97.9143,101.015,91.8705,0.00970161,1.42596,19.3966,156.767,0.861091,0.0,0.0
363,90.5,110.284,134.905,104.539,101.052,91.5383,0.00973901,1.43654,19.3823,156.597,0.897265,0.0,0.0
366,91.25,111.493,135.804,116.94,101.044,91.9509,0.00976628,1.44789,19.3696,156.257,0.85568,0.0,0.0
369,92,111.934,135.877,98.9195,101.037,90.7513,0.00978095,1.46017,19.3585,155.927,0.974226,0.0,0.0
372,92.75,112.201,136.415,100.046,101.058,90.4392,0.00978119,1.47099,19.3487,155.576,1.00739,0.0,0.0
375,93.5,113.046,137.479,105.941,101.066,92.314,0.00977145,1.47708,19.3366,155.406,0.8219,0.0,0.0
378,94.25,113.306,137.813,100.761,101.085,90.6875,0.00973415,1.48479,19.3226,155.096,0.984937,0.0,0.0
381,95,114.125,138.729,106.488,101.069,92.0466,0.00969586,1.48933,19.308,154.766,0.848517,0.0,0.0
384,95.75,114.605,139.566,101.034,101.073,91.0304,0.00962884,1.49218,19.2973,154.535,0.949655,0.0,0.0
387,96.5,114.657,139.506,102.995,101.09,91.8312,0.00957999,1.49426,19.2895,154.325,0.871648,0.0,0.0
390,97.25,115.256,139.333,101.954,101.087,92.7605,0.00954574,1.49645,19.2838,154.065,0.780023,0.0,0.0
393,98,115.467,140.292,99.6691,101.089,90.9907,0.00952312,1.4992,19.2806,153.725,0.955049,0.0,0.0
396,98.75,116.003,140.805,99.508,101.095,91.9465,0.00953786,1.50318,19.2773,153.454,0.860739,0.0,0.0
399,99.5,116.918,141.257,96.4618,101.099,91.815,0.00958249,1.51018,19.2733,153.274,0.874057,0.0,0.0
402,100.25,116.704,141.915,99.0959,101.119,91.1585,0.00965019,1.51832,19.2691,153.054,0.941008,0.0,0.0
405,101,117.24,142.313,105.124,101.129,91.9127,0.00975906,1.52555,19.266,152.624,0.867162,0.0,0.0
408,101.75,117.444,142.373,100.105,101.116,91.3145,0.00986583,1.53219,19.2614,152.393,0.925233,0.0,0.0
411,102.5,118.07,142.844,106.236,101.126,91.8552,0.00996565,1.53521,19.2541,152.193,0.872539,0.0,0.0
414,103.25,118.584,142.854,108.727,101.163,91.6624,0.0100561,1.53591,19.2455,151.963,0.894908,0.0,0.0
417,104,118.708,143.526,103.901,101.146,90.1708,0.0101309,1.53386,19.2393,151.593,1.04225,0.0,0.0
420,104.75,119.137,143.897,102.728,101.146,87.5399,0.0102007,1.53087,19.2347,151.353,1.31099,0.0,0.0
423,105.5,118.84,143.544,108.128,101.144,85.0306,0.0102556,1.52807,19.2314,151.142,1.57467,0.0,0.0
426,106.25,118.927,143.27,110.296,101.157,86.1582,0.0102965,1.5262,19.229,150.902,1.45635,0.0,0.0
429,107,118.315,143.182,105.187,101.16,85.5233,0.0103252,1.52462,19.2342,150.682,1.52368,0.0,0.0
432,107.75,118.967,143.085,106.828,101.155,84.3486,0.0103405,1.52256,19.2381,150.332,1.64878,0.0,0.0
435,108.5,119.365,142.669,111.611,101.162,85.564,0.0103551,1.51967,19.2409,150.212,1.51955,0.0,0.0
438,109.25,119.139,143.063,109.991,101.169,85.4551,0.0103717,1.5145,19.2435,150.021,1.53177,0.0,0.0
441,110,118.827,142.251,109.852,101.169,84.7436,0.0104042,1.50942,19.2468,149.771,1.60763,0.0,0.0
444,110.75,119.242,141.837,115.511,101.163,83.9639,0.010428,1.50172,19.2498,149.391,1.69092,0.0,0.0
447,111.5,118.741,141.616,109.808,101.163,85.4835,0.0104882,1.49423,19.2524,149.151,1.52816,0.0,0.0
450,112.25,118.594,141.021,109.163,101.167,84.1975,0.010587,1.48557,19.2568,148.98,1.66608,0.0,0.0
453,113,118.385,140.564,109.978,101.178,84.1308,0.0106826,1.47569,19.2641,148.79,1.67426,0.0,0.0
456,113.75,117.942,140.078,116.96,101.152,85.2176,0.0108775,1.46472,19.2732,148.69,1.55552,0.0,0.0
459,114.5,118.139,139.109,113.586,101.158,91.5952,0.0111354,1.45288,19.2817,148.37,0.901089,0.0,0.0
462,115.25,116.895,138.817,114.754,101.149,93.6295,0.0114511,1.43761,19.2912,148.38,0.701025,0.0,0.0
465,116,117.334,138.238,118.923,101.156,93.8351,0.0118154,1.42306,19.303,148.18,0.681745,0.0,0.0
468,116.75,116.522,137.122,120.713,101.141,94.7997,0.0122506,1.40658,19.316,148.08,0.587579,0.0,0.0
471,117.5,115.821,136.086,124.284,101.142,95.4562,0.01264,1.38891,19.3295,148.01,0.525064,0.0,0.0
474,118.25,114.078,134.303,132.528,101.139,97.2962,0.0130945,1.37362,19.3443,148,0.351522,0.0,0.0
477,119,113.141,132.107,127.84,101.14,99.4654,0.0134392,1.35465,19.3572,147.869,0.151543,0.0,0.0
480,119.75,112.386,131.039,130.972,101.13,101.362,0.0137132,1.34083,19.3665,147.859,-0.0207927,0.0,0.0
483,120.5,111.35,129.121,132.101,101.131,101.625,0.013913,1.31803,19.3849,147.829,-0.044277,0.0,0.0
486,121.25,109.896,127.327,133.833,101.118,102.572,0.0139599,1.28958,19.4026,147.839,-0.129537,0.0,0.0
489,122,108.517,125.61,133.219,101.124,102.555,0.013876,1.25786,19.4206,147.839,-0.127504,0.0,0.0
492,122.75,107.561,123.735,133.985,101.112,102.572,0.013669,1.21222,19.4389,147.749,-0.13013,0.0,0.0
495,123.5,106.592,121.959,131.714,101.1,102.194,0.0133551,1.15874,19.4662,147.709,-0.0976287,0.0,0.0
498,124.25,105.061,120.573,133.771,101.09,102.496,0.0128146,1.11114,19.5053,147.699,-0.125301,0.0,0.0
501,125,104.424,118.093,137.441,101.1,103.058,0.0124205,1.03957,19.5421,147.749,-0.174023,0.0,0.0
504,125.75,103.718,117.188,135.532,101.083,102.459,0.0116764,0.97404,19.5981,147.709,-0.122666,0.0,0.0
507,126.5,102.008,115.439,134.268,101.078,102.493,0.0109223,0.903428,19.6529,147.679,-0.126141,0.0,0.0
510,127.25,101.185,114.217,134.568,101.078,102.675,0.0102823,0.827737,19.7165,147.639,-0.14225,0.0,0.0
513,128,99.9018,112.198,138.524,101.089,102.646,0.00951732,0.753043,19.793,147.669,-0.138773,0.0,0.0
516,128.75,99.1978,111.109,133.213,101.076,102.366,0.00879248,0.682874,19.9009,147.639,-0.115029,0.0,0.0
519,129.5,98.2057,109.837,136.564,101.067,102.452,0.00809717,0.611129,19.9963,147.609,-0.123444,0.0,0.0
522,130.25,96.8626,108.179,138.56,101.062,102.45,0.00742672,0.551455,20.1053,147.589,-0.123755,0.0,0.0
525,131,96.2666,106.651,133.642,101.071,102.621,0.00674887,0.495349,20.1959,147.619,-0.138059,0.0,0.0
528,131.75,95.0335,105.568,137.914,101.058,102.119,0.00625473,0.443701,20.2808,147.579,-0.0947829,0.0,0.0
531,132.5,94.6386,104.767,141.217,101.054,102.392,0.0057383,0.401469,20.3509,147.529,-0.119396,0.0,0.0
534,133.25,93.1528,103.581,135.073,101.048,102.286,0.00525192,0.359432,20.4161,147.529,-0.110432,0.0,0.0
537,134,92.5679,102.489,136.599,101.055,102.218,0.0048233,0.324252,20.4821,147.519,-0.10383,0.0,0.0
540,134.75,91.5639,101.27,134.721,101.052,102.48,0.00442253,0.29488,20.5391,147.499,-0.12736,0.0,0.0
543,135.5,91.139,100.083,136.377,101.042,102.653,0.00409504,0.270403,20.5892,147.479,-0.143565,0.0,0.0
546,136.25,89.6696,99.4684,135.356,101.053,102.449,0.00382995,0.24886,20.6338,147.469,-0.124432,0.0,0.0
549,137,89.4002,97.9517,134.463,101.047,102.467,0.00361741,0.231883,20.6726,147.509,-0.126671,0.0,0.0
552,137.75,87.7842,96.4806,134.386,101.066,102.721,0.00345742,0.21733,20.7026,147.479,-0.147419,0.0,0.0
555,138.5,85.8033,94.6102,136.144,101.042,102.13,0.00333865,0.204918,20.7273,147.449,-0.0971301,0.0,0.0
558,139.25,85.8009,93.7977,133.974,101.041,102.759,0.00327004,0.195101,20.747,147.389,-0.152959,0.0,0.0
561,140,85.0102,92.3458,135.201,101.049,102.924,0.00322002,0.185649,20.7622,147.409,-0.166851,0.0,0.0
564,140.75,84.2459,92.2195,137.539,101.052,102.647,0.00320694,0.178163,20.7755,147.399,-0.142126,0.0,0.0
567,141.5,83.4671,90.9606,135.051,101.042,102.557,0.00320624,0.171689,20.7875,147.369,-0.135022,0.0,0.0
570,142.25,83.2212,90.6572,136.671,101.057,102.574,0.00320949,0.165818,20.7968,147.369,-0.13514,0.0,0.0
573,143,81.9072,89.7746,135.184,101.043,102.547,0.00321186,0.161538,20.8043,147.359,-0.134037,0.0,0.0
576,143.75,81.3485,89.0669,133.598,101.049,102.57,0.00321292,0.157096,20.8109,147.379,-0.135564,0.0,0.0
579,144.5,80.8563,87.7786,137.07,101.044,102.314,0.00321256,0.153627,20.8172,147.309,-0.113317,0.0,0.0
582,145.25,80.8393,87.7044,135.051,101.051,102.112,0.0032159,0.150702,20.8222,147.319,-0.0947457,0.0,0.0
585,146,80.0697,86.582,138.967,101.036,102.401,0.00321833,0.147943,20.8261,147.349,-0.121793,0.0,0.0
588,146.75,79.4445,85.6014,130.183,101.044,102.067,0.00325071,0.145732,20.8298,147.369,-0.0914812,0.0,0.0
591,147.5,79.2591,85.0022,137.597,101.048,102.383,0.00329578,0.143781,20.8329,147.299,-0.119164,0.0,0.0
594,148.25,78.4385,84.8956,139.034,101.04,102.455,0.00333779,0.142071,20.8351,147.279,-0.126128,0.0,0.0
597,149,77.9033,84.1036,133.745,101.031,102.216,0.00339544,0.140543,20.8372,147.259,-0.105747,0.0,0.0
600,149.75,77.4934,83.5674,136.431,101.053,102.59,0.00344829,0.139157,20.8393,147.289,-0.13702,0.0,0.0
603,150.5,77.106,82.6975,132.637,101.057,102.232,0.00348748,0.137781,20.8411,147.249,-0.104952,0.0,0.0
606,151.25,76.4875,82.0731,137.153,101.041,102.523,0.00351718,0.136627,20.8437,147.249,-0.13213,0.0,0.0
609,152,76.0702,81.6822,135.326,101.053,102.397,0.00354263,0.135527,20.8455,147.209,-0.119824,0.0,0.0
612,152.75,75.2521,80.6955,137.737,101.057,101.84,0.0035628,0.134485,20.8469,147.239,-0.0699701,0.0,0.0
615,153.5,74.8476,80.5668,135.478,101.061,102.141,0.00357751,0.133622,20.8483,147.179,-0.0964446,0.0,0.0
618,154.25,74.7353,79.5425,136.501,101.056,102.152,0.00359621,0.132757,20.8496,147.149,-0.0978441,0.0,0.0
621,155,74.5894,79.5946,132.337,101.067,102.36,0.0036235,0.132006,20.8505,147.179,-0.115314,0.0,0.0
624,155.75,73.6415,78.8464,139.022,101.067,102.344,0.00366866,0.131407,20.8516,147.219,-0.113879,0.0,0.0
627,156.5,73.3037,78.4604,135.458,101.07,102.224,0.00372816,0.130927,20.8528,147.209,-0.103044,0.0,0.0
630,157.25,73.0203,77.9161,136.963,101.057,101.877,0.00379486,0.130487,20.8541,147.149,-0.0733654,0.0,0.0
633,158,72.8934,77.7878,134.907,101.066,101.952,0.00386401,0.13004,20.855,147.119,-0.0792425,0.0,0.0
636,158.75,72.4914,77.0604,138.459,101.073,102.311,0.00392449,0.129563,20.8557,147.119,-0.11045,0.0,0.0
639,159.5,71.6145,76.4201,140.049,101.075,102.53,0.00397287,0.129066,20.8562,147.119,-0.129618,0.0,0.0
642,160.25,71.561,76.1262,137.592,101.064,102.627,0.00399674,0.128639,20.8568,147.079,-0.139283,0.0,0.0
645,161,71.4329,75.8104,135.708,101.073,102.25,0.00400928,0.128199,20.8574,147.089,-0.105015,0.0,0.0
648,161.75,70.6245,75.4852,136.296,101.084,102.351,0.00400938,0.127854,20.8578,147.059,-0.113063,0.0,0.0
651,162.5,70.8952,75.0355,134.316,101.089,102.03,0.0040006,0.127563,20.8582,147.099,-0.0840921,0.0,0.0
654,163.25,70.2602,74.4743,137.028,101.082,102.049,0.00398908,0.127307,20.8584,147.039,-0.0863732,0.0,0.0
657,164,69.9824,74.3126,138.591,101.082,102.211,0.0039784,0.127031,20.8586,147.039,-0.100797,0.0,0.0
660,164.75,69.532,73.6939,139.675,101.096,102.519,0.00397965,0.126775,20.8592,146.999,-0.126871,0.0,0.0
663,165.5,69.1391,73.429,143.388,101.088,102.158,0.00399322,0.126561,20.8598,147.029,-0.0955044,0.0,0.0
666,166.25,68.7629,73.6605,138.886,101.093,102.269,0.00400852,0.126406,20.8602,147.019,-0.104871,0.0,0.0
669,167,68.5391,73.0012,136.683,101.098,102.598,0.00401967,0.126127,20.8606,147.009,-0.133634,0.0,0.0
672,167.75,68.2461,72.613,139.763,101.098,102.279,0.00406938,0.125853,20.8608,147.009,-0.105389,0.0,0.0
675,168.5,67.8977,72.2709,137.935,101.099,102.066,0.00411299,0.125504,20.8611,147.019,-0.0863595,0.0,0.0
678,169.25,67.605,72.071,137.381,101.086,102.426,0.0041574,0.125218,20.8617,146.999,-0.119497,0.0,0.0
681,170,67.5468,71.8089,138.472,101.086,102.258,0.0041781,0.125035,20.8622,146.989,-0.104655,0.0,0.0
684,170.75,67.4743,71.832,141.661,101.078,102.463,0.0041961,0.124781,20.8629,146.969,-0.12349,0.0,0.0
687,171.5,66.7734,71.619,138.337,101.09,102.481,0.00420351,0.124612,20.8634,146.989,-0.12404,0.0,0.0
690,172.25,66.5941,70.8749,137.166,101.092,101.893,0.00421399,0.124516,20.8638,146.939,-0.0716518,0.0,0.0
693,173,66.2114,70.1036,137.466,101.078,102.33,0.00423314,0.124488,20.8641,146.909,-0.111706,0.0,0.0
696,173.75,66.3367,70.1951,136.843,101.084,101.84,0.00426308,0.124436,20.8643,146.879,-0.0676212,0.0,0.0
699,174.5,66.0086,69.8351,135.67,101.081,102.339,0.00429693,0.124345,20.8645,146.899,-0.112233,0.0,0.0
702,175.25,65.4459,69.7619,137.628,101.082,102.404,0.00434217,0.124218,20.8646,146.909,-0.117914,0.0,0.0
705,176,65.6739,69.5565,136.928,101.069,102.341,0.00439689,0.124068,20.8646,146.879,-0.113514,0.0,0.0
708,176.75,65.6543,69.5017,135.063,101.068,102.155,0.00443804,0.123905,20.8647,146.899,-0.097041,0.0,0.0
711,177.5,65.0551,68.8388,138.947,101.068,102.471,0.00446458,0.123756,20.8647,146.909,-0.125066,0.0,0.0
714,178.25,65.2926,68.6089,135.49,101.075,102.18,0.00447706,0.123635,20.8648,146.879,-0.09872,0.0,0.0
717,179,64.5092,68.2039,138.661,101.056,102.494,0.00449124,0.123546,20.865,146.819,-0.128209,0.0,0.0
720,179.75,64.3531,68.3389,137.46,101.043,102.04,0.00450906,0.123585,20.8656,146.779,-0.0891115,0.0,0.0
723,180.5,63.8862,67.9518,138.72,101.041,102.151,0.00453113,0.123681,20.8658,146.809,-0.0991585,0.0,0.0
726,181.25,64.187,67.5149,137.566,101.073,102.207,0.0045519,0.123792,20.866,146.839,-0.101219,0.0,0.0
729,182,63.9689,67.0018,137.322,101.072,102.17,0.00457505,0.123798,20.8661,146.759,-0.0980612,0.0,0.0
732,182.75,64.0225,66.8423,137.576,101.019,102.023,0.00461226,0.12377,20.8661,146.759,-0.089714,0.0,0.0
735,183.5,63.0318,66.9666,138.282,101.024,102.381,0.00465943,0.123749,20.8662,146.728,-0.121119,0.0,0.0
738,184.25,63.3954,66.8419,139.62,101.013,102.142,0.00471328,0.12375,20.8662,146.779,-0.100944,0.0,0.0
741,185,62.9659,67.083,137.058,101.006,102.211,0.00477431,0.123756,20.8663,146.718,-0.107669,0.0,0.0
744,185.75,62.8051,66.2597,136.289,100.986,101.985,0.00483153,0.123761,20.8663,146.648,-0.0893638,0.0,0.0
747,186.5,62.5519,66.2449,138.321,100.979,102.275,0.00488403,0.1237,20.8663,146.678,-0.115679,0.0,0.0
750,187.25,62.896,65.7434,138.196,100.994,102.322,0.00493147,0.123608,20.8663,146.708,-0.118572,0.0,0.0
753,188,62.2417,65.562,139.187,100.979,102.361,0.0049694,0.123461,20.8663,146.678,-0.123369,0.0,0.0
756,188.75,62.3444,65.4528,138.727,100.954,102.165,0.00500278,0.123278,20.8663,146.648,-0.108157,0.0,0.0
759,189.5,61.7701,65.31,141.98,100.932,102.275,0.00501804,0.123112,20.8663,146.658,-0.120022,0.0,0.0
762,190.25,62.0808,65.3512,136.948,100.923,102.251,0.00502916,0.123001,20.8663,146.688,-0.118623,0.0,0.0
765,191,61.8715,65.0158,140.475,100.916,102.421,0.00501376,0.122934,20.8669,146.648,-0.134259,0.0,0.0
768,191.75,61.4206,65.2581,134.761,100.885,101.935,0.00499651,0.122929,20.8676,146.618,-0.0939926,0.0,0.0
771,192.5,61.4981,64.7533,137.416,100.866,101.79,0.00497362,0.122939,20.8681,146.648,-0.082746,0.0,0.0
774,193.25,61.0327,64.8782,136.051,100.849,102.259,0.0049642,0.122954,20.8684,146.618,-0.126047,0.0,0.0
777,194,60.586,63.9749,138.405,100.844,102.217,0.00497006,0.123028,20.8687,146.648,-0.122706,0.0,0.0
780,194.75,61.5105,63.9537,135.581,100.811,102.138,0.00498831,0.123082,20.8688,146.588,-0.118664,0.0,0.0
783,195.5,61.107,64.3744,139.975,100.785,101.881,0.00503153,0.123165,20.8689,146.588,-0.0981186,0.0,0.0
786,196.25,60.4706,63.764,138.685,100.773,102.572,0.00510088,0.1233,20.8691,146.568,-0.160511,0.0,0.0
789,197,60.4837,64.0669,137.303,100.762,101.982,0.00518235,0.123431,20.8691,146.598,-0.109294,0.0,0.0
792,197.75,60.4032,63.6438,133.939,100.744,102.053,0.00525578,0.123483,20.869,146.588,-0.117156,0.0,0.0
795,198.5,60.5916,63.264,135.427,100.728,101.468,0.00531193,0.123416,20.8684,146.538,-0.0663996,0.0,0.0
798,199.25,60.3816,63.4649,134.496,100.751,102.136,0.00534713,0.123315,20.8687,146.498,-0.123827,0.0,0.0
801,200,60.1634,63.2279,139.827,100.758,101.85,0.00534983,0.123227,20.8689,146.488,-0.0977867,0.0,0.0
804,200.75,59.8742,63.1716,142.254,100.751,102.279,0.00533262,0.123209,20.869,146.448,-0.136664,0.0,0.0
807,201.5,59.7782,63.1464,136.339,100.755,101.927,0.00530401,0.123206,20.8691,146.488,-0.104986,0.0,0.0
810,202.25,59.4125,62.93,136.49,100.779,101.647,0.00527242,0.123191,20.8692,146.468,-0.0778807,0.0,0.0
813,203,59.4319,62.4369,141.251,100.795,101.967,0.00523105,0.12318,20.8692,146.518,-0.104843,0.0,0.0
816,203.75,59.4675,62.5226,140.886,100.806,101.995,0.00520099,0.123174,20.8692,146.438,-0.106412,0.0,0.0
819,204.5,59.1205,62.0025,136.233,100.793,102.24,0.00516828,0.123258,20.8693,146.418,-0.129353,0.0,0.0
822,205.25,58.9977,61.8856,137.524,100.81,102.197,0.00514786,0.123444,20.8687,146.438,-0.124012,0.0,0.0
825,206,58.9619,62.1931,136.789,100.829,101.956,0.0051457,0.123728,20.8682,146.478,-0.100828,0.0,0.0
828,206.75,59.2141,62.3152,129.925,100.842,102.065,0.00514814,0.124086,20.8679,146.448,-0.109342,0.0,0.0
831,207.5,58.698,62.4374,134.519,100.849,101.896,0.00515748,0.124286,20.8676,146.418,-0.093697,0.0,0.0
834,208.25,59.0711,61.5158,135.983,100.861,101.761,0.00516543,0.124406,20.8668,146.398,-0.0806426,0.0,0.0
837,209,58.812,62.0184,139.804,100.866,102.127,0.00517189,0.124494,20.8662,146.408,-0.11274,0.0,0.0
840,209.75,58.9303,61.7831,134.681,100.886,102.091,0.00517775,0.124603,20.8658,146.418,-0.107761,0.0,0.0
843,210.5,59.1549,62.1885,137.131,100.88,101.878,0.00518374,0.124702,20.8655,146.378,-0.0893289,0.0,0.0
846,211.25,58.1143,61.5825,139.459,100.907,101.938,0.00518681,0.124826,20.8653,146.368,-0.0922697,0.0,0.0
849,212,58.4105,61.3849,138.995,100.92,101.743,0.00519216,0.125009,20.8649,146.408,-0.0737302,0.0,0.0
852,212.75,58.1258,61.2404,139.049,100.941,101.837,0.00521788,0.125209,20.8646,146.338,-0.0802547,0.0,0.0
855,213.5,57.8218,61.1168,133.113,100.949,102.06,0.00523663,0.125427,20.8644,146.328,-0.0992668,0.0,0.0
858,214.25,58.5471,61.2045,140.468,100.957,102.243,0.00527379,0.125707,20.8642,146.338,-0.11487,0.0,0.0
861,215,57.4674,60.8486,139.092,100.99,102.129,0.00534106,0.126002,20.8647,146.318,-0.101786,0.0,0.0
864,215.75,58.2123,60.9027,143.856,101.008,102.532,0.00541923,0.126255,20.865,146.358,-0.135856,0.0,0.0
867,216.5,57.8132,61.0154,135.372,101.019,102.223,0.00548832,0.126482,20.8653,146.298,-0.107582,0.0,0.0
870,217.25,57.92,60.7139,140.19,101.028,102.218,0.00555938,0.126569,20.8655,146.258,-0.106302,0.0,0.0
873,218,57.1245,60.5504,141.261,101.047,102.335,0.00561847,0.126497,20.8656,146.288,-0.114931,0.0,0.0
876,218.75,57.5457,60.8853,137.73,101.079,101.989,0.00565213,0.126252,20.8657,146.328,-0.0813428,0.0,0.0
879,219.5,57.1335,60.5903,136.767,101.074,101.983,0.00566057,0.126043,20.8658,146.318,-0.0813029,0.0,0.0
882,220.25,57.8057,60.2299,136.909,101.099,102.408,0.00562849,0.125862,20.8658,146.268,-0.116757,0.0,0.0
885,221,57.372,59.9015,139.086,101.122,102.475,0.00557703,0.125703,20.8659,146.248,-0.120651,0.0,0.0
888,221.75,56.7997,60.1716,136.992,101.147,102.337,0.00552754,0.125558,20.8659,146.218,-0.106197,0.0,0.0
891,222.5,56.832,59.7691,139.766,101.168,101.977,0.00547884,0.125441,20.8668,146.248,-0.0722553,0.0,0.0
894,223.25,56.8935,59.3145,135.465,101.165,101.917,0.00544669,0.125206,20.8674,146.218,-0.0671913,0.0,0.0
897,224,56.8005,59.9897,136.209,101.185,102.343,0.00542899,0.125089,20.8679,146.188,-0.103272,0.0,0.0
900,224.75,56.9034,59.7093,137.18,101.212,102.271,0.00541481,0.125099,20.8683,146.248,-0.0944194,0.0,0.0
903,225.5,57.0833,59.7489,135.964,101.228,102.266,0.00539387,0.125242,20.8685,146.188,-0.0925554,0.0,0.0
906,226.25,56.828,59.4616,140.381,101.241,102.408,0.00536139,0.125463,20.8687,146.178,-0.103993,0.0,0.0
909,227,56.8917,59.9423,137.97,101.254,102.172,0.00531226,0.12565,20.8688,146.188,-0.0819202,0.0,0.0
912,227.75,56.2671,59.1227,134.574,101.277,102.679,0.0052688,0.125722,20.8689,146.208,-0.124781,0.0,0.0
915,228.5,56.7544,59.6505,137.224,101.287,101.786,0.00523722,0.125839,20.869,146.198,-0.0445999,0.0,0.0
918,229.25,56.1768,59.4616,139.381,101.299,102.223,0.00521992,0.125972,20.869,146.128,-0.08243,0.0,0.0
921,230,56.413,59.5971,139.554,101.318,102.132,0.00521872,0.12615,20.8691,146.088,-0.0725606,0.0,0.0
924,230.75,56.6011,59.179,138.501,101.33,102.516,0.00523734,0.126355,20.8685,146.108,-0.105577,0.0,0.0
927,231.5,56.5518,59.2344,137.85,101.357,102.563,0.00528729,0.126536,20.868,146.118,-0.10733,0.0,0.0
930,232.25,56.3444,59.1233,136.922,101.353,102.118,0.00533714,0.126775,20.8677,146.068,-0.0682653,0.0,0.0
933,233,56.356,59.0847,134.412,101.369,102.532,0.00539644,0.126845,20.8675,146.058,-0.103483,0.0,0.0
936,233.75,56.3837,58.8394,140.276,101.375,101.899,0.00546517,0.126795,20.8673,146.068,-0.0467488,0.0,0.0
939,234.5,55.7623,58.4312,136.857,101.398,102.317,0.00553316,0.126664,20.8672,146.068,-0.0818089,0.0,0.0
942,235.25,56.3742,58.6016,138.714,101.404,102,0.00559034,0.126418,20.8671,146.018,-0.0531413,0.0,0.0
945,236,56.042,58.6339,139.042,101.404,102.185,0.00565573,0.126175,20.867,145.998,-0.0695902,0.0,0.0
948,236.75,55.5656,58.2676,134.812,101.429,102.37,0.00570339,0.125927,20.867,145.998,-0.0838448,0.0,0.0
951,237.5,55.8024,58.228,136.008,101.442,102.286,0.00575604,0.125624,20.8671,146.028,-0.0751606,0.0,0.0
954,238.25,56.2997,58.5418,141.142,101.444,102.403,0.00580205,0.125433,20.8675,145.968,-0.0853685,0.0,0.0
957,239,55.7985,58.4393,138.824,101.446,102.467,0.00583559,0.125291,20.8678,145.958,-0.0909163,0.0,0.0
960,239.75,55.5467,58.3991,136.688,101.454,102.331,0.00585876,0.125161,20.868,145.938,-0.0781404,0.0,0.0
963,240.5,55.8491,58.5492,137.308,101.482,102.54,0.00587444,0.125001,20.8682,145.948,-0.0941282,0.0,0.0
966,241.25,55.4767,58.2983,138.721,101.479,102.643,0.00588471,0.12487,20.8683,145.908,-0.103461,0.0,0.0
969,242,55.3231,58.1847,139.255,101.495,102.326,0.00589403,0.124768,20.8684,145.928,-0.0739706,0.0,0.0
972,242.75,55.2073,58.1606,139.683,101.491,102.636,0.00590347,0.12467,20.8685,145.908,-0.101831,0.0,0.0
975,243.5,55.3589,57.8825,138.822,101.527,102.47,0.0059149,0.124567,20.8685,145.938,-0.0838972,0.0,0.0
978,244.25,54.9204,57.7709,135.233,101.517,102.566,0.00593986,0.124437,20.8687,145.938,-0.0932926,0.0,0.0
981,245,55.0414,57.7073,138.04,101.515,102.35,0.00596514,0.124283,20.8691,145.878,-0.0743922,0.0,0.0
984,245.75,55.2333,58.368,135.465,101.52,102.461,0.00600182,0.124145,20.8694,145.878,-0.0836991,0.0,0.0
987,246.5,55.3221,57.8415,138.288,101.538,102.463,0.00603624,0.12383,20.8696,145.878,-0.0823094,0.0,0.0
990,247.25,55.3149,57.1922,137.711,101.545,102.287,0.00606865,0.123451,20.8697,145.898,-0.0660318,0.0,0.0
993,248,55.0132,57.93,137.44,101.541,102.484,0.0060992,0.123071,20.8698,145.848,-0.0838787,0.0,0.0
996,248.75,54.9626,57.8677,138.365,101.566,102.121,0.00612511,0.122726,20.8699,145.828,-0.0494876,0.0,0.0
999,249.5,55.1443,57.3274,138.953,101.558,102.388,0.00613376,0.122475,20.87,145.828,-0.0739052,0.0,0.0
1002,250.25,54.8782,57.5813,138.778,101.575,102.219,0.0061357,0.122262,20.87,145.848,-0.057364,0.0,0.0
1005,251,54.7381,57.6996,136.017,101.57,102.596,0.00611152,0.122094,20.8705,145.788,-0.0912654,0.0,0.0
1008,251.75,54.6924,57.5713,138.376,101.576,102.295,0.00607491,0.121971,20.871,145.758,-0.063953,0.0,0.0
1011,252.5,54.8422,56.943,139.324,101.581,102.576,0.0060344,0.121906,20.8714,145.758,-0.0885003,0.0,0.0
1014,253.25,54.6103,57.2888,138.814,101.598,102.691,0.00599209,0.121898,20.8717,145.778,-0.097082,0.0,0.0
1017,254,54.6826,57.4067,137.33,101.601,102.853,0.0059531,0.12185,20.8719,145.728,-0.111086,0.0,0.0
1020,254.75,54.5957,57.2992,137.495,101.596,102.489,0.00592007,0.121815,20.8721,145.708,-0.0794269,0.0,0.0
1023,255.5,54.9931,57.3949,132.502,101.596,102.93,0.00589782,0.12179,20.8717,145.708,-0.118435,0.0,0.0
1026,256.25,54.3333,57.3591,138.534,101.619,102.438,0.00588698,0.121856,20.8713,145.758,-0.0728272,0.0,0.0
1029,257,53.9334,56.5996,137.731,101.608,102.624,0.00588828,0.121945,20.871,145.728,-0.0902269,0.0,0.0
1030,257.25,54.6325,57.2549,138.511,101.621,102.339,0.00588863,0.121993,20.8709,145.758,-0.0638969,0.0,0.0