File: 01_Data/Masonite_Board/Cone/Masonite_Cone_HF50Scan_221212_R2.csv
Names,Time,Stack TC,Smoke TC,Exh Press,Smoke Comp,Smoke Meas,CO Meter,CO2 Meter,O2 Meter,Sample Mass,Ext Coeff,Start Test,Flame Verif
Chan Gain,,500,500,1,1,1,1,1,1,1,1,1.0,1.0
Offset,,0,0,0.131978,0,0,0,0,0,0,0,0.0,0.0
Gain,,1,1,25.011,13.4278,14.1503,1,1,1,1.00089,1.02125,1.0,1.0
Units,sec,C,C,Pa,%,%,%,%,%,g,/m,,
Baseline,,32.5823,33.3624,155.78,100.074,100.142,0.00122811,0.0522338,20.9276,-448.463,-0.00607411,,
4,0.75,31.8327,32.6252,156.423,99.6949,99.8057,0.00131186,0.0546713,20.9276,101.6,-0.00995212,0.0,0.0
8,1.75,31.7953,32.4963,155.965,99.6891,99.7932,0.00136237,0.055464,20.9274,101.44,-0.00934382,0.0,0.0
12,2.75,31.7641,32.6737,155.017,99.6875,99.747,0.00140335,0.0564405,20.9258,101.49,-0.00534226,0.0,0.0
16,3.75,32.1402,32.7015,158.874,99.6932,99.794,0.00141876,0.0574743,20.9247,101.46,-0.00905305,0.0,0.0
20,4.75,31.7698,32.2908,158.519,99.7072,99.7936,0.00140138,0.0583538,20.9233,101.44,-0.00776179,0.0,0.0
24,5.75,31.7788,32.2262,156.39,99.7002,99.7759,0.00137586,0.0591561,20.9223,101.45,-0.00679935,0.0,0.0
28,6.75,31.8145,32.415,154.962,99.7035,99.7949,0.00132193,0.0598105,20.9214,101.45,-0.00820965,0.0,0.0
32,7.75,31.7185,32.7692,155.985,99.7084,99.7737,0.00125531,0.0604346,20.9205,101.41,-0.00586854,0.0,0.0
36,8.75,32.0103,32.7547,157.816,99.7158,99.6144,0.00120393,0.0609173,20.9199,101.39,0.00911219,0.0,0.0
40,9.75,31.6875,32.2175,154.784,99.7223,99.595,0.00116935,0.0610307,20.9198,101.34,0.0114493,0.0,0.0
44,10.75,32.3402,32.6943,154.32,99.7334,99.5475,0.00115884,0.0608877,20.92,101.31,0.0167165,0.0,0.0
48,11.75,31.2952,32.1887,154.997,99.735,99.4823,0.00116027,0.0607705,20.9197,101.26,0.0227338,0.0,0.0
52,12.75,31.9013,32.4958,153.886,99.7404,99.3549,0.00116599,0.0608131,20.9192,101.21,0.0346924,0.0,0.0
56,13.75,32.1363,32.5865,155.183,99.7432,99.2491,0.0011839,0.0610084,20.9188,101.2,0.0444942,0.0,0.0
60,14.75,31.5783,32.458,156.548,99.7428,99.3337,0.00120654,0.0613196,20.9186,101.18,0.0368208,0.0,0.0
64,15.75,31.7192,32.7819,158.371,99.749,99.2072,0.00121939,0.0615238,20.9184,101.16,0.0487904,0.0,0.0
68,16.75,32.0726,33.177,153.119,99.7563,99.2067,0.00121694,0.0615357,20.9183,101.17,0.0494924,0.0,0.0
72,17.75,32.0178,32.5236,156.529,99.7609,98.971,0.00121216,0.0614294,20.9178,101.16,0.0712134,0.0,0.0
76,18.75,31.9764,32.7914,156.737,99.7715,99.031,0.00124497,0.0611751,20.9171,101.14,0.0667382,0.0,0.0
80,19.75,31.7553,32.7835,155.367,99.7916,99.1057,0.00132046,0.0608363,20.9169,101.11,0.0617855,0.0,0.0
84,20.75,31.7625,32.6032,154.881,99.7818,98.7853,0.00140232,0.0604501,20.9173,101.1,0.0899135,0.0,0.0
88,21.75,32.3528,32.7399,154.098,99.7826,98.8388,0.0014934,0.0600505,20.9176,101.06,0.0851313,0.0,0.0
92,22.75,32.027,33.1149,157.452,99.7895,98.743,0.00154306,0.0596407,20.9177,101,0.0944501,0.0,0.0
96,23.75,32.0115,32.6704,156.306,99.7822,98.6583,0.00156164,0.0590812,20.9185,100.98,0.10147,0.0,0.0
100,24.75,32.1579,33.0461,157.086,99.7883,98.7067,0.00154232,0.058508,20.9198,100.95,0.0976313,0.0,0.0
104,25.75,32.012,32.83,155.106,99.7936,98.4657,0.00150182,0.0580304,20.9208,100.9,0.120006,0.0,0.0
108,26.75,32.4833,32.9049,155.985,99.7875,98.1816,0.00144176,0.0576897,20.9215,100.89,0.145343,0.0,0.0
112,27.75,31.9979,32.9987,151.655,99.8051,98.2736,0.00136694,0.0574588,20.9219,100.87,0.138536,0.0,0.0
116,28.75,32.0999,32.9687,158.143,99.8104,97.8374,0.00131894,0.0573039,20.9222,100.84,0.178861,0.0,0.0
120,29.75,32.2668,33.023,154.605,99.817,97.6582,0.00132121,0.0572751,20.9224,100.79,0.195874,0.0,0.0
124,30.75,32.1668,32.7626,155.658,99.8248,97.1646,0.00136865,0.0573048,20.923,100.74,0.241965,0.0,0.0
128,31.75,32.4452,33.3962,155.249,99.8305,97.5187,0.00143318,0.0573425,20.9237,100.67,0.209891,0.0,0.0
132,32.75,32.3941,32.7213,154.015,99.8322,97.0791,0.00147958,0.0574526,20.9234,100.62,0.250513,0.0,0.0
136,33.75,32.1458,32.9817,153.615,99.8313,96.9569,0.00150364,0.057708,20.9231,100.55,0.261724,0.0,0.0
140,34.75,32.5941,32.2774,155.261,99.8506,96.7544,0.00144853,0.0580202,20.9228,100.459,0.282184,0.0,0.0
144,35.75,32.6225,32.7711,152.635,99.8588,96.3122,0.00133313,0.0583531,20.9227,100.379,0.323957,0.0,0.0
148,36.75,32.2742,33.0393,153.794,99.8703,95.4684,0.00122139,0.0587004,20.9224,100.319,0.403817,0.0,0.0
152,37.75,32.6408,33.1868,157.3,99.8748,96.2159,0.00113462,0.0591721,20.9216,100.239,0.334352,0.0,0.0
156,38.75,32.0883,33.1822,156.352,99.8977,95.7607,0.00109776,0.0597301,20.9211,100.129,0.378888,0.0,0.0
160,39.75,32.4111,33.3592,151.962,99.8969,98.5948,0.00112791,0.0603081,20.9199,100.079,0.117532,0.0,1.0
164,40.75,32.4091,33.2417,149.554,99.9207,99.8981,0.00119869,0.0608061,20.9192,100.049,0.00202241,0.0,1.0
168,41.75,33.0427,33.3756,146.779,99.9141,99.6019,0.00130893,0.0613309,20.9187,99.909,0.0280402,0.0,1.0
172,42.75,32.7423,33.6286,145.375,99.9244,99.0383,0.00141262,0.0617119,20.9184,99.8189,0.0797877,0.0,1.0
176,43.75,33.1404,33.5496,141.252,99.9342,98.6769,0.00148446,0.0620209,20.9177,99.6688,0.113422,0.0,1.0
180,44.75,33.8298,33.5961,143.379,99.9399,98.5633,0.00152273,0.062257,20.9169,99.5286,0.124254,0.0,0.0
184,45.75,34.0628,34.1062,143.038,99.9543,98.4433,0.00153481,0.062734,20.9164,99.4185,0.136457,0.0,0.0
188,46.75,34.4031,34.4824,141.563,99.9703,98.3388,0.00153614,0.0637431,20.9161,99.2584,0.147404,0.0,0.0
192,47.75,35.1847,34.839,143.493,100.001,98.1617,0.001534,0.0694755,20.9159,99.0983,0.166339,0.0,0.0
196,48.75,35.8279,35.6185,142.699,100.003,97.7174,0.00162266,0.0785592,20.9157,98.9381,0.207166,0.0,0.0
200,49.75,36.2254,36.1177,136.63,100.026,97.9799,0.00180487,0.0977962,20.9137,98.778,0.185111,0.0,0.0
204,50.75,36.7879,36.6564,132.916,100.046,97.5416,0.0020259,0.123002,20.9079,98.6278,0.227074,0.0,0.0
208,51.75,37.0803,37.0803,135.077,100.053,97.8301,0.00229455,0.14869,20.8903,98.4277,0.201243,0.0,0.0
212,52.75,38.0635,37.7739,136.981,100.069,98.3448,0.0025694,0.178682,20.8617,98.2375,0.155699,0.0,0.0
216,53.75,38.6849,38.4,139.536,100.074,98.2615,0.00289631,0.209505,20.8281,98.0774,0.163771,0.0,0.0
220,54.75,39.4923,39.3656,135.887,100.079,98.2813,0.00316351,0.239116,20.7996,97.8872,0.162401,0.0,0.0
224,55.75,40.0574,39.6208,131.639,100.09,98.2144,0.00340983,0.261069,20.773,97.707,0.169457,0.0,0.0
228,56.75,40.602,40.5156,134.106,100.121,97.7359,0.00359298,0.290909,20.7458,97.4768,0.216031,0.0,0.0
232,57.75,41.2857,40.7572,136.029,100.126,97.7877,0.003729,0.319977,20.7162,97.3367,0.211648,0.0,0.0
236,58.75,41.6989,42.16,137.371,100.135,97.8737,0.00383568,0.345796,20.6877,97.1365,0.204659,0.0,0.0
240,59.75,43.0053,42.6233,132.683,100.139,97.4397,0.00393626,0.370305,20.6538,96.9964,0.244838,0.0,0.0
244,60.75,43.7234,42.982,136.613,100.174,97.1309,0.0040263,0.392774,20.6171,96.8463,0.276312,0.0,0.0
248,61.75,44.1084,43.9807,136.406,100.183,97.2609,0.00409669,0.412505,20.5842,96.6261,0.265174,0.0,0.0
252,62.75,44.8092,44.0018,140.983,100.194,97.6586,0.00413604,0.430348,20.5545,96.4859,0.229605,0.0,0.0
256,63.75,45.6253,45.6964,134.693,100.21,97.2795,0.00416005,0.448368,20.5287,96.2757,0.265881,0.0,0.0
260,64.75,46.3492,46.1698,130.565,100.214,96.579,0.00416814,0.465681,20.5051,96.0455,0.330984,0.0,0.0
264,65.75,46.9716,47.1316,136.612,100.223,96.1213,0.00416792,0.481871,20.4818,95.8554,0.374312,0.0,0.0
268,66.75,47.8348,47.2824,129.806,100.24,96.2163,0.00417219,0.49693,20.4586,95.6252,0.367037,0.0,0.0
272,67.75,48.241,48.0619,131.518,100.257,95.2205,0.00419788,0.509802,20.4371,95.435,0.461739,0.0,0.0
276,68.75,49.2273,48.9092,132.126,100.265,95.3621,0.00423208,0.523437,20.4204,95.2048,0.449117,0.0,0.0
280,69.75,49.8955,50.1439,132.075,100.273,95.4433,0.004355,0.535739,20.4057,94.9746,0.44219,0.0,0.0
284,70.75,50.2932,50.3819,129.392,100.271,95.0715,0.00448593,0.550033,20.3906,94.8044,0.476973,0.0,0.0
288,71.75,50.9448,51.6788,123.181,100.288,95.2438,0.00458446,0.564433,20.3738,94.6043,0.462327,0.0,0.0
292,72.75,52.0025,52.2373,126.05,100.292,95.8475,0.00465935,0.579274,20.3544,94.3741,0.406017,0.0,0.0
296,73.75,52.6067,52.8945,127.944,100.326,94.1487,0.00473137,0.595084,20.3353,94.1338,0.569259,0.0,0.0
300,74.75,53.4804,53.6707,120.422,100.313,94.0645,0.00481754,0.609946,20.3159,93.9337,0.576177,0.0,0.0
304,75.75,53.9454,54.979,122.352,100.335,94.5239,0.00492217,0.62744,20.2998,93.7035,0.534464,0.0,0.0
308,76.75,54.7076,55.9972,129.027,100.346,94.3542,0.00507413,0.643853,20.2821,93.5033,0.551551,0.0,0.0
312,77.75,56.1139,56.3555,125.378,100.367,93.6473,0.00523648,0.660461,20.2642,93.233,0.620822,0.0,0.0
316,78.75,56.5885,57.4852,125.983,100.375,94.1763,0.00540814,0.67257,20.2485,92.9528,0.571055,0.0,0.0
320,79.75,57.4237,58.1274,126.123,100.374,93.6849,0.0055716,0.691242,20.2327,92.7226,0.617814,0.0,0.0
324,80.75,58.1855,59.3273,121.488,100.38,93.2189,0.00574035,0.708938,20.2145,92.4223,0.663066,0.0,0.0
328,81.75,59.0882,59.6546,124.316,100.386,93.8434,0.00589045,0.726021,20.1941,92.1721,0.603733,0.0,0.0
332,82.75,59.2904,60.9462,131.606,100.388,93.1904,0.00600749,0.742854,20.1739,91.9319,0.666499,0.0,0.0
336,83.75,60.5308,61.8347,133.663,100.401,92.7897,0.00613958,0.758652,20.1517,91.7017,0.706203,0.0,0.0
340,84.75,61.3379,62.7104,122.238,100.412,92.6325,0.00627007,0.773624,20.1298,91.4615,0.722379,0.0,0.0
344,85.75,62.3594,63.2379,124.084,100.416,93.2807,0.00638568,0.790835,20.109,91.1912,0.660278,0.0,0.0
348,86.75,63.1893,64.6124,125.527,100.42,91.2053,0.00649154,0.807467,20.087,90.931,0.862208,0.0,0.0
352,87.75,63.9007,65.6949,123.338,100.424,91.2014,0.00658268,0.819399,20.0702,90.6708,0.862991,0.0,0.0
356,88.75,64.872,66.0406,126.327,100.441,92.5565,0.00670159,0.833777,20.0494,90.3705,0.732327,0.0,0.0
360,89.75,65.8198,67.013,119.414,100.426,90.8875,0.00679497,0.852274,20.0332,90.0902,0.894063,0.0,0.0
364,90.75,66.5609,67.7949,123.111,100.436,92.1476,0.0068855,0.869892,20.017,89.7499,0.771557,0.0,0.0
368,91.75,67.1458,69.4258,123.262,100.426,91.0667,0.00692962,0.889483,20.0007,89.4296,0.876382,0.0,0.0
372,92.75,68.3572,70.1322,122.456,100.451,91.147,0.00700758,0.908771,19.9772,89.1094,0.870713,0.0,0.0
376,93.75,69.2052,71.3642,121.389,100.442,90.7113,0.00708281,0.9249,19.9569,88.7691,0.912873,0.0,0.0
380,94.75,69.9516,72.6575,113.963,100.434,88.7274,0.00728638,0.946102,19.9305,88.3787,1.11023,0.0,0.0
384,95.75,70.6329,73.5923,118.704,100.444,87.796,0.00749237,0.966084,19.9039,88.0584,1.20569,0.0,0.0
388,96.75,71.788,74.5493,116.913,100.456,88.154,0.0076861,0.988466,19.8821,87.6781,1.1703,0.0,0.0
392,97.75,72.8874,74.8597,113.674,100.444,88.9136,0.0078473,1.00974,19.8584,87.2677,1.09234,0.0,0.0
396,98.75,74.0945,75.8615,115.727,100.44,85.7854,0.00799012,1.03396,19.8356,86.9374,1.41287,0.0,0.0
400,99.75,73.8707,77.2067,117.069,100.448,85.2175,0.00816261,1.05977,19.8105,86.5271,1.47302,0.0,0.0
404,100.75,75.3877,77.8718,114.76,100.446,83.2311,0.00835311,1.08943,19.7843,86.1367,1.6842,0.0,0.0
408,101.75,76.44,78.4124,118.725,100.449,82.1528,0.00856246,1.11449,19.7605,85.7564,1.80124,0.0,0.0
412,102.75,76.7527,79.8267,117.534,100.44,81.9615,0.00888038,1.1446,19.732,85.346,1.82136,0.0,0.0
416,103.75,77.5532,80.7771,118.52,100.449,82.6408,0.0092119,1.17943,19.7073,84.9356,1.74822,0.0,0.0
420,104.75,77.8984,81.6433,118.043,100.448,82.7133,0.00967373,1.2153,19.679,84.5053,1.74029,0.0,0.0
424,105.75,78.7182,82.2111,115.95,100.465,81.6208,0.0101997,1.25316,19.6445,84.0849,1.86087,0.0,0.0
428,106.75,79.5133,83.0888,116.891,100.448,81.9377,0.0107951,1.29099,19.6009,83.6445,1.82465,0.0,0.0
432,107.75,80.1667,83.8116,121.201,100.451,80.7208,0.0114935,1.32527,19.5515,83.2341,1.95898,0.0,0.0
436,108.75,81.0346,84.3527,124.113,100.451,81.5776,0.0124993,1.36766,19.4919,82.8238,1.8644,0.0,0.0
440,109.75,81.76,85.2298,117.958,100.45,83.0424,0.0131847,1.39126,19.4592,82.4334,1.70483,0.0,0.0
444,110.75,82.5981,86.2183,115.231,100.448,83.1356,0.0141692,1.42173,19.4204,82.0331,1.69459,0.0,0.0
448,111.75,83.2171,86.9906,116.106,100.447,85.0823,0.0152339,1.45,19.3847,81.6327,1.48717,0.0,0.0
452,112.75,84.002,87.8115,115.294,100.44,84.6557,0.016334,1.47506,19.3527,81.2824,1.53162,0.0,0.0
456,113.75,84.5569,88.8725,118.455,100.438,84.8656,0.0172751,1.49563,19.3181,80.9021,1.50922,0.0,0.0
460,114.75,84.6955,89.789,114.664,100.434,84.1846,0.0180152,1.5123,19.2842,80.5217,1.58103,0.0,0.0
464,115.75,85.6361,90.3574,108.999,100.431,84.695,0.0185552,1.52695,19.2547,80.1214,1.52666,0.0,0.0
468,116.75,86.6612,91.0913,123.381,100.424,84.1746,0.0189322,1.53921,19.2322,79.731,1.58124,0.0,0.0
472,117.75,87.6527,91.5957,115.983,100.419,84.3629,0.0192007,1.55166,19.2152,79.3307,1.56075,0.0,0.0
476,118.75,87.6194,92.7234,118.587,100.422,86.2746,0.019402,1.56471,19.1996,78.9303,1.36031,0.0,0.0
480,119.75,88.3994,93.2457,108.604,100.411,85.5427,0.0195447,1.57356,19.1832,78.5199,1.43561,0.0,0.0
484,120.75,89.4959,94.3632,119.411,100.408,85.9983,0.0196413,1.57655,19.1692,78.1596,1.38777,0.0,0.0
488,121.75,89.8817,95.0325,114.355,100.398,83.2337,0.0197009,1.57513,19.16,77.7793,1.67957,0.0,0.0
492,122.75,90.0742,95.4361,113.939,100.392,84.0317,0.0197379,1.57226,19.154,77.479,1.59358,0.0,0.0
496,123.75,90.6909,96.6436,116.006,100.389,85.2581,0.0197621,1.56942,19.1501,77.0987,1.46349,0.0,0.0
500,124.75,91.2697,97.2591,112.51,100.373,86.9086,0.0197258,1.5668,19.1475,76.7684,1.29034,0.0,0.0
504,125.75,91.6025,97.2227,121.694,100.37,87.2376,0.0196437,1.56652,19.1498,76.4281,1.25619,0.0,0.0
508,126.75,91.9662,97.7175,116.021,100.374,90.1106,0.0194431,1.56555,19.1519,76.0677,0.966322,0.0,0.0
512,127.75,92.7317,99.1793,118.863,100.349,89.437,0.0191628,1.56044,19.1533,75.7274,1.03128,0.0,0.0
516,128.75,93.1874,99.0872,116.767,100.341,88.2991,0.0188017,1.55026,19.1551,75.4672,1.14529,0.0,0.0
520,129.75,93.1253,100.092,119.748,100.328,88.5409,0.018449,1.53684,19.1578,75.1269,1.11962,0.0,0.0
524,130.75,93.6831,100.121,118.997,100.326,89.2875,0.0180889,1.52429,19.1646,74.8667,1.04417,0.0,0.0
528,131.75,93.9658,100.277,123.201,100.303,91.1734,0.0178124,1.51033,19.1726,74.5264,0.854958,0.0,0.0
532,132.75,94.4973,100.051,121.509,100.303,91.1565,0.0175723,1.49475,19.1829,74.2261,0.856541,0.0,0.0
536,133.75,94.1601,100.988,126.789,100.289,89.5488,0.0173174,1.47831,19.1969,73.9359,1.01478,0.0,0.0
540,134.75,94.1244,100.673,127.925,100.284,89.6347,0.0169836,1.46007,19.2153,73.6756,1.00571,0.0,0.0
544,135.75,94.1593,101.552,127.304,100.267,90.2298,0.0166032,1.43749,19.2363,73.4354,0.944894,0.0,0.0
548,136.75,93.5533,101.739,127.269,100.256,90.1499,0.0162009,1.4094,19.2585,73.2452,0.951876,0.0,0.0
552,137.75,93.2815,101.182,131.583,100.233,90.8387,0.0158746,1.38112,19.281,73.0951,0.881605,0.0,0.0
556,138.75,93.3985,100.869,133.157,100.222,91.5719,0.0155475,1.35342,19.3065,72.975,0.808595,0.0,0.0
560,139.75,92.4887,100.503,133.373,100.203,94.1288,0.0152418,1.32398,19.3356,72.8249,0.560165,0.0,0.0
564,140.75,91.8748,100.001,138.698,100.194,97.1033,0.0148783,1.29473,19.3634,72.8048,0.280657,0.0,0.0
568,141.75,91.3254,99.3878,140.412,100.16,99.9197,0.0144516,1.25715,19.3947,72.7048,0.0215535,0.0,0.0
572,142.75,90.3602,98.6112,145.036,100.144,100.573,0.0139371,1.21772,19.4254,72.6447,-0.0383744,0.0,0.0
576,143.75,89.121,98.2383,144.748,100.119,100.878,0.0134072,1.16108,19.4611,72.6347,-0.067614,0.0,0.0
580,144.75,88.7204,97.4689,145.844,100.104,100.784,0.0129438,1.09619,19.5005,72.5846,-0.0606071,0.0,0.0
584,145.75,87.4302,96.3779,146.979,100.085,100.817,0.0124221,1.02467,19.5453,72.5746,-0.0652848,0.0,0.0
588,146.75,86.3762,95.8745,148.898,100.06,100.63,0.0119382,0.949471,19.6083,72.5246,-0.0509681,0.0,0.0
592,147.75,85.3395,94.855,148.542,100.037,100.75,0.0114606,0.873616,19.6672,72.5246,-0.0636272,0.0,0.0
596,148.75,84.5577,94.1283,145.441,100.008,100.708,0.0110313,0.7801,19.7303,72.4946,-0.0625459,0.0,0.0
600,149.75,83.5319,93.1391,147.738,99.9948,100.643,0.0103691,0.684544,19.822,72.4545,-0.0578814,0.0,0.0
604,150.75,82.8492,92.5987,145.9,99.9743,100.746,0.00969634,0.595221,19.9318,72.3945,-0.0689,0.0,0.0
608,151.75,81.5543,91.5592,149.079,99.9379,100.658,0.00885325,0.523589,20.0418,72.3945,-0.0642925,0.0,0.0
612,152.75,81.1162,90.3699,149.047,99.9055,100.687,0.008068,0.458334,20.1516,72.3745,-0.0698078,0.0,0.0
616,153.75,80.3158,89.5765,143.092,99.8789,100.645,0.00721632,0.3971,20.2548,72.3344,-0.0684313,0.0,0.0
620,154.75,79.4779,88.6252,146.499,99.874,100.485,0.00646766,0.345325,20.3517,72.2944,-0.0546774,0.0,0.0
624,155.75,78.9198,88.0204,144.501,99.8813,100.699,0.00590366,0.303468,20.4411,72.2644,-0.0730135,0.0,0.0
628,156.75,77.9219,87.1074,154.192,99.8985,100.799,0.00555096,0.270169,20.5243,72.2944,-0.080417,0.0,0.0
632,157.75,77.3275,86.465,145.54,99.9014,100.643,0.00536828,0.244059,20.5899,72.2544,-0.0662944,0.0,0.0
636,158.75,76.3285,85.4264,149.795,99.9084,100.746,0.00530922,0.223637,20.6369,72.2944,-0.0748133,0.0,0.0
640,159.75,75.7683,84.7525,149.153,99.9297,100.617,0.00533876,0.207557,20.6749,72.2544,-0.0614141,0.0,0.0
644,160.75,75.1629,84.2168,151.98,99.9362,100.599,0.00541553,0.194366,20.7037,72.2844,-0.0592498,0.0,0.0
648,161.75,74.4693,83.1908,149.778,99.9412,100.677,0.00552332,0.184151,20.7267,72.2143,-0.0656898,0.0,0.0
652,162.75,73.7252,82.4446,148.775,99.967,100.662,0.00565565,0.175612,20.7449,72.2043,-0.0620318,0.0,0.0
656,163.75,73.1071,81.6926,153.065,99.9793,100.734,0.00580076,0.16909,20.7604,72.1843,-0.0673451,0.0,0.0
660,164.75,72.5247,80.8987,145.456,99.9924,100.602,0.00593136,0.163462,20.7727,72.1843,-0.0544501,0.0,0.0
664,165.75,71.7608,80.2578,151.723,100.009,100.616,0.00603663,0.158688,20.7824,72.1643,-0.0542116,0.0,0.0
668,166.75,71.1786,79.9849,152.896,100.026,100.744,0.00614948,0.154539,20.7897,72.1643,-0.0640074,0.0,0.0
672,167.75,70.6427,79.1145,146.151,100.035,100.839,0.00628118,0.150923,20.795,72.1843,-0.0717167,0.0,0.0
676,168.75,70.046,78.2362,153.099,100.054,100.818,0.00641852,0.147577,20.8,72.1543,-0.0681505,0.0,0.0
680,169.75,69.1407,77.8604,149.686,100.074,100.669,0.00657512,0.144811,20.8053,72.1543,-0.0530685,0.0,0.0
684,170.75,69.2214,77.0921,153.014,100.086,100.778,0.0067074,0.142249,20.8095,72.1543,-0.0617582,0.0,0.0
688,171.75,68.3816,76.7732,150.485,100.115,100.741,0.0068066,0.140381,20.8128,72.1543,-0.0558158,0.0,0.0
692,172.75,67.8218,76.2254,150.759,100.125,100.828,0.00687351,0.138701,20.816,72.1443,-0.06269,0.0,0.0
696,173.75,67.1785,75.1791,146.202,100.138,100.89,0.00691387,0.136852,20.8188,72.1142,-0.0669997,0.0,0.0
700,174.75,66.8723,74.7517,149.613,100.154,100.935,0.0069305,0.135271,20.8206,72.1042,-0.0695586,0.0,0.0
704,175.75,66.1612,74.2904,151.292,100.167,100.823,0.00694373,0.133758,20.8226,72.0742,-0.0584544,0.0,0.0
708,176.75,65.6569,73.7264,150.277,100.187,100.852,0.0069604,0.132491,20.8256,72.0542,-0.0592638,0.0,0.0
712,177.75,65.2485,73.3273,151.924,100.202,100.899,0.00698693,0.131405,20.8275,72.0442,-0.0621259,0.0,0.0
716,178.75,65.0129,72.6507,145.974,100.217,100.921,0.00703248,0.130536,20.8295,72.0342,-0.0626512,0.0,0.0
720,179.75,64.2934,72.0039,144.194,100.23,100.915,0.00708698,0.129636,20.8309,72.0141,-0.0610544,0.0,0.0
724,180.75,63.9841,71.5718,150.262,100.244,100.964,0.00715557,0.128808,20.8318,72.0041,-0.0641779,0.0,0.0
728,181.75,63.266,71.242,149.488,100.256,100.926,0.00722767,0.128152,20.8328,71.9941,-0.0597062,0.0,0.0
732,182.75,63.0164,70.4383,148.724,100.274,100.944,0.00728628,0.127535,20.8338,72.0041,-0.0596691,0.0,0.0
736,183.75,62.5993,69.6991,152.013,100.298,100.971,0.00735168,0.126892,20.8345,72.0141,-0.0599201,0.0,0.0
740,184.75,62.1061,69.6483,146.449,100.305,100.947,0.00743111,0.126428,20.8349,72.0041,-0.057229,0.0,0.0
744,185.75,61.9746,69.0505,150.852,100.311,100.972,0.00754549,0.126028,20.8352,72.0141,-0.0588268,0.0,0.0
748,186.75,61.3451,68.3547,150.792,100.323,101.049,0.00766004,0.125728,20.8354,71.9841,-0.0646189,0.0,0.0
752,187.75,60.8699,68.3162,151.361,100.334,100.925,0.00777181,0.125463,20.836,71.9341,-0.0526394,0.0,0.0
756,188.75,60.9125,67.7131,153.822,100.351,100.979,0.00784102,0.125267,20.8366,71.9441,-0.0559658,0.0,0.0
760,189.75,60.2565,67.1787,150.871,100.363,100.921,0.00789589,0.12494,20.8371,71.864,-0.0496208,0.0,0.0
764,190.75,60.323,67.0382,149.379,100.379,100.976,0.0079093,0.124632,20.8379,71.864,-0.0530986,0.0,0.0
768,191.75,59.7689,66.2768,147.946,100.393,101.183,0.00789214,0.124297,20.8388,71.814,-0.0701877,0.0,0.0
772,192.75,59.2219,65.9085,154.792,100.407,101.062,0.00785144,0.123971,20.8393,71.7739,-0.0581964,0.0,0.0
776,193.75,58.731,65.0811,152.829,100.414,101.02,0.00781434,0.123736,20.8397,71.7939,-0.0539726,0.0,0.0
780,194.75,58.5258,64.8572,153.15,100.431,101.087,0.00780468,0.123546,20.84,71.7439,-0.0583329,0.0,0.0
784,195.75,58.4027,64.7638,149.396,100.439,100.979,0.00781306,0.123599,20.8401,71.7339,-0.0480295,0.0,0.0
788,196.75,57.9975,64.0585,149.154,100.458,101.153,0.00785461,0.123753,20.8394,71.6838,-0.0617372,0.0,0.0
792,197.75,57.8378,63.9241,151.739,100.472,101.041,0.00791148,0.123945,20.839,71.7639,-0.0505841,0.0,0.0
796,198.75,56.9643,63.2642,154.539,100.477,101.064,0.00798764,0.12415,20.8387,71.6939,-0.05225,0.0,0.0
800,199.75,56.6322,63.1796,148.87,100.502,101.068,0.00807144,0.124323,20.8385,71.7639,-0.0503661,0.0,0.0
804,200.75,56.4248,62.5903,150.273,100.507,101.023,0.00814457,0.124339,20.8383,71.7039,-0.0459077,0.0,0.0
808,201.75,56.1542,62.5574,152.833,100.539,101.247,0.00817055,0.124197,20.8383,71.7139,-0.0628362,0.0,0.0
812,202.75,55.9716,61.9139,146.023,100.538,101.166,0.00813587,0.123857,20.8382,71.6738,-0.0558003,0.0,0.0
816,203.75,55.7708,61.6797,145.94,100.56,101.192,0.00807333,0.123446,20.8382,71.6638,-0.056157,0.0,0.0
820,204.75,55.0614,60.629,151.245,100.569,101.145,0.00802363,0.123018,20.8384,71.6538,-0.0511866,0.0,0.0
824,205.75,54.8948,60.9854,150.503,100.575,101.117,0.00800925,0.12276,20.839,71.5938,-0.0481905,0.0,0.0
828,206.75,54.813,60.7525,150.58,100.587,101.01,0.00802894,0.122612,20.8392,71.5938,-0.0375663,0.0,0.0
832,207.75,54.2152,60.1974,149.006,100.606,101.053,0.00807484,0.122624,20.8393,71.5337,-0.0397163,0.0,0.0
836,208.75,54.6188,59.9406,153.04,100.608,101.169,0.00813519,0.122876,20.8394,71.5337,-0.0498243,0.0,0.0
840,209.75,54.3279,59.7245,152.59,100.619,101.247,0.00816781,0.123645,20.8395,71.5337,-0.0557557,0.0,0.0
844,210.75,54.0196,59.2759,150.873,100.628,101.293,0.00818223,0.12489,20.8389,71.5337,-0.0590407,0.0,0.0
848,211.75,53.6402,58.9092,151.853,100.633,101.255,0.00818252,0.126482,20.8379,71.5337,-0.055205,0.0,0.0
852,212.75,53.8969,58.9616,150.612,100.642,101.139,0.00815827,0.128152,20.8364,71.5337,-0.0441212,0.0,0.0
856,213.75,53.4284,58.18,150.413,100.654,101.279,0.00812437,0.129238,20.8347,71.5137,-0.0554462,0.0,0.0
860,214.75,52.845,57.9528,151.107,100.659,101.133,0.00807723,0.130391,20.8335,71.5237,-0.0420882,0.0,0.0
864,215.75,52.9393,58.1027,151.45,100.667,101.119,0.00802982,0.131127,20.8317,71.4837,-0.0400976,0.0,0.0
868,216.75,52.4013,58.0578,151.574,100.678,101.29,0.00802892,0.131392,20.8304,71.4837,-0.0542879,0.0,0.0
872,217.75,52.3089,57.4549,147.945,100.682,101.216,0.00807047,0.131151,20.8296,71.4837,-0.0473145,0.0,0.0
876,218.75,52.1087,57.2022,150.817,100.678,101.251,0.00812124,0.130742,20.829,71.4236,-0.0508478,0.0,0.0
880,219.75,52.2071,56.5346,151.619,100.693,101.128,0.00818898,0.129937,20.8289,71.4036,-0.0386796,0.0,0.0
884,220.75,51.6724,56.5889,153.254,100.694,101.178,0.0082416,0.129024,20.8297,71.4136,-0.0430427,0.0,0.0
888,221.75,51.738,56.2065,152.708,100.705,101.34,0.00826787,0.127997,20.831,71.3836,-0.0562736,0.0,0.0
892,222.75,51.1601,56.5315,152.922,100.693,101.199,0.00822828,0.127168,20.8323,71.3736,-0.0449127,0.0,0.0
896,223.75,51.1096,55.8861,153.433,100.703,101.175,0.00816519,0.126173,20.8339,71.3536,-0.0419729,0.0,0.0
900,224.75,51.2914,55.2291,152.896,100.707,101.212,0.00811479,0.125366,20.8351,71.3636,-0.0447474,0.0,0.0
904,225.75,50.8987,55.4076,145.838,100.707,101.414,0.00805746,0.12445,20.8363,71.4136,-0.0626168,0.0,0.0
908,226.75,50.5782,55.225,149.672,100.7,101.267,0.00803644,0.124133,20.8374,71.4036,-0.0503682,0.0,0.0
912,227.75,50.2795,54.7524,154.732,100.702,101.239,0.00805419,0.123879,20.8385,71.4336,-0.0476666,0.0,0.0
916,228.75,50.5142,54.4521,153.093,100.689,101.255,0.00811233,0.123804,20.8391,71.4436,-0.0502453,0.0,0.0
920,229.75,49.7753,54.5392,152.303,100.689,101.173,0.00818005,0.123886,20.8396,71.4236,-0.0429482,0.0,0.0
924,230.75,49.774,53.8522,149.738,100.682,101.232,0.00826001,0.124152,20.8399,71.4236,-0.0488053,0.0,0.0
928,231.75,50.2873,54.2138,154.833,100.68,101.265,0.008327,0.124411,20.8398,71.3936,-0.0519272,0.0,0.0
932,232.75,49.7245,53.5889,154.156,100.661,101.365,0.00837512,0.124666,20.8392,71.3536,-0.0624243,0.0,0.0
936,233.75,49.7232,53.8295,154.048,100.662,101.124,0.00838568,0.124913,20.8389,71.3035,-0.0409569,0.0,0.0
940,234.75,49.3946,52.9324,151.771,100.645,101.128,0.0083978,0.12505,20.8386,71.3435,-0.0428694,0.0,0.0
944,235.75,49.1504,52.7949,152.839,100.637,101.283,0.00840993,0.12494,20.8384,71.3235,-0.0573602,0.0,0.0
948,236.75,49.5871,52.3733,152.419,100.618,101.163,0.00845282,0.124756,20.8383,71.3135,-0.0483774,0.0,0.0
952,237.75,49.0873,53.0433,150.827,100.607,101.074,0.00849565,0.124484,20.8382,71.3035,-0.0415196,0.0,0.0
956,238.75,48.9708,52.4238,152.72,100.593,101.121,0.0085277,0.124226,20.8382,71.2935,-0.0468545,0.0,0.0
960,239.75,48.7311,52.0548,152.39,100.577,101.117,0.00853771,0.123951,20.8382,71.3135,-0.0480086,0.0,0.0
964,240.75,48.4591,51.9945,150,100.553,101.03,0.00852201,0.123479,20.8381,71.3135,-0.0423924,0.0,0.0
968,241.75,48.4442,52.1111,151.71,100.538,101.02,0.00849608,0.123037,20.8388,71.3135,-0.0427889,0.0,0.0
972,242.75,48.2019,51.4263,149.72,100.522,101.044,0.00843949,0.12261,20.8396,71.2935,-0.0463945,0.0,0.0
976,243.75,48.3671,51.346,155.834,100.51,100.946,0.0084152,0.122254,20.8407,71.2935,-0.0387965,0.0,0.0
980,244.75,48.3163,51.7265,147.093,100.477,100.979,0.00841429,0.121915,20.8418,71.2735,-0.0445923,0.0,0.0
984,245.75,48.1169,51.5291,150.933,100.442,100.981,0.00842179,0.121533,20.8425,71.2334,-0.0479656,0.0,0.0
988,246.75,47.5264,51.197,148.697,100.431,100.79,0.00840766,0.121018,20.8429,71.2234,-0.0319669,0.0,0.0
992,247.75,47.7573,50.8261,149.688,100.406,100.894,0.00836892,0.120492,20.8432,71.2134,-0.0434397,0.0,0.0
996,248.75,47.643,50.947,158.346,100.387,100.974,0.00830111,0.120034,20.8442,71.1634,-0.0522145,0.0,0.0
1000,249.75,47.4057,50.4974,152.361,100.352,100.95,0.00824178,0.119686,20.8449,71.1534,-0.0532136,0.0,0.0
1004,250.75,47.3166,50.3863,152.661,100.332,100.912,0.00822851,0.119359,20.8453,71.1734,-0.0517086,0.0,0.0
1008,251.75,47.2514,50.3108,151.049,100.307,100.881,0.00825972,0.119081,20.846,71.1534,-0.0510669,0.0,0.0
1012,252.75,46.9047,50.0787,150.13,100.285,100.815,0.00831291,0.118872,20.8469,71.1634,-0.047213,0.0,0.0
1016,253.75,46.977,50.0681,152.69,100.251,100.858,0.0083579,0.118716,20.8474,71.1734,-0.0540499,0.0,0.0
1020,254.75,46.9023,49.9034,151.13,100.225,100.732,0.00836397,0.118667,20.8478,71.1534,-0.0452266,0.0,0.0
1024,255.75,46.7157,49.4836,154.611,100.183,100.684,0.00831345,0.11874,20.848,71.1634,-0.044661,0.0,0.0
1028,256.75,46.5263,49.3492,150.74,100.164,100.604,0.00822653,0.118934,20.8482,71.1534,-0.0392732,0.0,0.0
1032,257.75,46.7257,48.9241,147.83,100.133,100.541,0.00810687,0.119351,20.8483,71.1133,-0.0363669,0.0,0.0
1036,258.75,46.1891,49.4461,152.22,100.105,100.476,0.00797959,0.119943,20.8479,71.1033,-0.0331255,0.0,0.0
1040,259.75,46.5234,49.0565,150.395,100.072,100.608,0.00788693,0.120682,20.8474,71.0733,-0.0478706,0.0,0.0
1044,260.75,45.849,48.8893,147.825,100.039,100.448,0.00784014,0.121375,20.8466,71.0533,-0.0365659,0.0,0.0
1048,261.75,45.9643,48.735,155.245,100.011,100.371,0.00785101,0.121947,20.8453,71.0132,-0.0322408,0.0,0.0
1052,262.75,46.4956,48.9238,150.942,99.9735,100.461,0.00788043,0.122287,20.8445,71.0132,-0.0435551,0.0,0.0
1056,263.75,46.0097,48.6192,150.968,99.9502,100.469,0.00790224,0.122496,20.8438,70.9932,-0.0463419,0.0,0.0
1060,264.75,45.6821,48.2567,158.355,99.9178,100.407,0.00790337,0.122633,20.8433,70.9832,-0.0437359,0.0,0.0
1064,265.75,45.5999,48.2102,152.622,99.8838,100.436,0.00789313,0.122245,20.8426,70.9832,-0.0493668,0.0,0.0
1068,266.75,45.7382,48.1662,146.96,99.8506,100.359,0.00790542,0.121859,20.8418,70.9932,-0.0454858,0.0,0.0
1072,267.75,45.7988,48.2504,149.994,99.8215,100.254,0.00792855,0.121525,20.8414,70.9832,-0.038686,0.0,0.0
1076,268.75,45.7637,48.094,152.753,99.7834,100.174,0.00793463,0.121439,20.8413,71.0032,-0.0349651,0.0,0.0
1080,269.75,45.2114,47.7529,150.155,99.7576,100.172,0.00792542,0.121257,20.8418,71.0032,-0.037168,0.0,0.0
1084,270.75,45.3362,47.725,153.338,99.7219,100.184,0.00791625,0.120896,20.8421,70.9432,-0.0414504,0.0,0.0
1088,271.75,45.3425,48.1087,151.152,99.6924,100.093,0.00791953,0.120525,20.8423,70.9532,-0.0359509,0.0,0.0
1092,272.75,44.6212,47.0741,149.031,99.6621,100.099,0.00794492,0.119978,20.8425,70.8831,-0.0392169,0.0,0.0
1096,273.75,44.8059,47.0542,151.96,99.6408,100.057,0.00798946,0.119348,20.8426,70.8931,-0.0373835,0.0,0.0
1100,274.75,44.3694,46.9043,152.772,99.5953,100.055,0.00804658,0.118708,20.8426,70.8631,-0.0412803,0.0,0.0
1104,275.75,44.4712,46.5245,149.558,99.5642,99.9871,0.00809139,0.118044,20.8436,70.8531,-0.0379712,0.0,0.0
1108,276.75,43.9634,46.236,149.827,99.5154,100.033,0.00812826,0.117514,20.8449,70.8031,-0.0464594,0.0,0.0
1112,277.75,44.0895,46.1656,148.392,99.5051,100.136,0.00816036,0.117219,20.8458,70.8031,-0.0566589,0.0,0.0
1116,278.75,44.2635,46.1779,152.481,99.4728,99.8934,0.00818662,0.117318,20.8463,70.783,-0.0377969,0.0,0.0
1120,279.75,43.813,45.8473,154.457,99.4334,100.004,0.00822016,0.117562,20.8467,70.7931,-0.0512876,0.0,0.0
1124,280.75,44.0565,46.2956,150.033,99.3998,99.7729,0.00824915,0.117803,20.8467,70.763,-0.033557,0.0,0.0
1128,281.75,44.1023,45.6849,153.537,99.3621,99.8826,0.00827282,0.117947,20.8467,70.773,-0.0467981,0.0,0.0
1132,282.75,44.1243,46.1558,154.373,99.3392,99.7228,0.00829202,0.118065,20.8466,70.783,-0.0345261,0.0,0.0
1136,283.75,44.015,45.3185,148.098,99.313,99.7711,0.00832395,0.118292,20.8466,70.8031,-0.0412353,0.0,0.0
1140,284.75,43.717,46.1286,152.243,99.2667,99.8303,0.00835728,0.118627,20.8464,70.8031,-0.0507232,0.0,0.0
1144,285.75,43.4363,45.764,153.129,99.2474,99.709,0.0084007,0.118721,20.8456,70.8231,-0.0415652,0.0,0.0
1148,286.75,43.8541,45.6519,149.549,99.224,99.7318,0.00844354,0.118645,20.8452,70.7931,-0.0457305,0.0,0.0
1152,287.75,43.5378,45.0241,150.232,99.1937,99.6062,0.00848652,0.118567,20.8448,70.773,-0.0371733,0.0,0.0
1156,288.75,43.4644,45.2242,153.59,99.1536,99.5332,0.00852489,0.118463,20.8446,70.763,-0.0342355,0.0,0.0
1160,289.75,43.7358,45.2595,152.513,99.1241,99.484,0.00857553,0.11838,20.8452,70.743,-0.032469,0.0,0.0
1164,290.75,43.1215,45.0864,153.07,99.0995,99.5349,0.00860363,0.118183,20.8456,70.713,-0.0392792,0.0,0.0
1168,291.75,43.3939,45.3124,155.234,99.0646,99.5699,0.00860554,0.117859,20.8459,70.693,-0.045576,0.0,0.0
1172,292.75,43.1511,44.5895,151.717,99.0302,99.427,0.00854438,0.117575,20.8461,70.6629,-0.0358201,0.0,0.0
1176,293.75,43.0767,45.1767,152.365,99.0126,99.4896,0.0084398,0.117151,20.8466,70.6429,-0.0430545,0.0,0.0
1180,294.75,43.4047,44.3354,152.34,98.9884,99.3911,0.00833637,0.116741,20.8474,70.6429,-0.0363723,0.0,0.0
1184,295.75,43.0194,44.8021,153.305,98.9716,99.2707,0.00826625,0.116234,20.8481,70.6229,-0.0270265,0.0,0.0
1188,296.75,42.811,44.8343,151.241,98.938,99.3829,0.00822766,0.115795,20.8491,70.6229,-0.0401952,0.0,0.0
1192,297.75,43.616,44.9471,147.15,98.9278,99.2564,0.00822037,0.115561,20.8498,70.6429,-0.0297101,0.0,0.0
1196,298.75,42.8516,44.7502,150.893,98.9142,99.3467,0.00821932,0.115439,20.8501,70.6429,-0.039077,0.0,0.0
1200,299.75,42.8422,44.0821,151.78,98.8806,99.3005,0.00824162,0.115326,20.8505,70.6429,-0.0379535,0.0,0.0
1204,300.75,42.7704,44.6053,152.924,98.8618,99.4123,0.00827644,0.115327,20.8507,70.6529,-0.0497448,0.0,0.0
1208,301.75,42.4005,44.3369,148.102,98.8434,99.3022,0.0083249,0.115607,20.8506,70.6529,-0.0414879,0.0,0.0
1212,302.75,42.7911,44.0562,152.38,98.8307,99.2681,0.00839515,0.116016,20.8505,70.6529,-0.0395613,0.0,0.0
1216,303.75,42.8312,44.2195,147.635,98.8061,99.2292,0.00849054,0.116364,20.8504,70.6329,-0.0382827,0.0,0.0
1220,304.75,42.4087,43.8583,150.156,98.7995,99.2167,0.00858972,0.116592,20.8503,70.6129,-0.0377465,0.0,0.0
1224,305.75,42.2486,44.114,149.825,98.7753,99.2106,0.008659,0.116662,20.8503,70.6129,-0.0393928,0.0,0.0
1228,306.75,42.7014,43.8939,151.916,98.7483,99.2292,0.00869174,0.116708,20.8503,70.5729,-0.0435229,0.0,0.0
1232,307.75,42.8076,43.7105,148.246,98.7327,99.2992,0.00869694,0.116717,20.8503,70.5528,-0.0512484,0.0,0.0
1236,308.75,42.7049,43.8069,149.014,98.7225,99.0521,0.00866128,0.116616,20.8502,70.5729,-0.0298666,0.0,0.0
1240,309.75,42.4615,43.6943,149.815,98.702,99.1536,0.00861309,0.11635,20.8502,70.5528,-0.0408995,0.0,0.0
1244,310.75,42.3536,43.6548,151.805,98.6889,99.1985,0.00853255,0.11608,20.8502,70.5528,-0.0461465,0.0,0.0
1248,311.75,42.3363,43.9983,151.375,98.6758,99.0496,0.00846347,0.115876,20.8502,70.5628,-0.0338716,0.0,0.0
1252,312.75,42.4476,43.6299,150.952,98.6725,99.0647,0.00837854,0.115681,20.8513,70.5929,-0.0355365,0.0,0.0
1256,313.75,42.1419,43.6423,149.537,98.67,99.1338,0.00830449,0.115467,20.852,70.5628,-0.0420061,0.0,0.0
1260,314.75,42.0885,43.1063,153.154,98.6516,99.0694,0.0082693,0.115337,20.8525,70.5729,-0.037864,0.0,0.0
1264,315.75,41.5945,42.5336,153.556,98.6475,98.9904,0.00827681,0.115203,20.8528,70.5829,-0.0310871,0.0,0.0
1268,316.75,42.1758,43.1223,151.668,98.6393,99.0711,0.00831425,0.115048,20.853,70.5729,-0.0391365,0.0,0.0
1272,317.75,42.151,43.4198,156.27,98.6393,99.0461,0.00835278,0.114964,20.8531,70.5528,-0.036872,0.0,0.0
1276,318.75,41.7394,43.1809,151.039,98.6454,98.9943,0.00838039,0.114856,20.8532,70.5428,-0.031625,0.0,0.0
1280,319.75,41.7169,43.292,151.136,98.6311,99.0383,0.00837535,0.114654,20.8533,70.5228,-0.0369133,0.0,0.0
1284,320.75,41.626,42.6665,149.445,98.6331,99.0625,0.00831346,0.114283,20.8533,70.4828,-0.0389134,0.0,0.0
1288,321.75,41.9041,43.084,151.652,98.6315,99.0396,0.00821694,0.113895,20.8542,70.4628,-0.0369932,0.0,0.0
1292,322.75,41.6667,43.1661,153.039,98.6233,98.8695,0.00809593,0.11339,20.8547,70.4227,-0.022334,0.0,0.0
1296,323.75,41.2433,42.0951,151.974,98.6249,98.9191,0.0079794,0.112909,20.8551,70.4227,-0.0266837,0.0,0.0
1300,324.75,41.5996,42.4841,152.384,98.6331,98.9373,0.00790526,0.112471,20.8553,70.4127,-0.0275814,0.0,0.0
1304,325.75,41.6122,43.1177,148.137,98.6237,98.9222,0.00789145,0.112074,20.8561,70.4127,-0.0270694,0.0,0.0
1308,326.75,41.8376,42.6803,153.13,98.6344,98.8729,0.0079483,0.11172,20.8568,70.4127,-0.0216419,0.0,0.0
1312,327.75,41.083,42.1835,149.876,98.6315,98.9649,0.00805648,0.111383,20.8572,70.4027,-0.030233,0.0,0.0
1316,328.75,41.2533,42.2065,151.254,98.6319,99.1584,0.00818028,0.111214,20.8575,70.4227,-0.0476902,0.0,0.0
1320,329.75,41.1335,42.3573,153.509,98.6348,98.9874,0.00828288,0.111235,20.8577,70.4327,-0.0319675,0.0,0.0
1324,330.75,41.231,42.7935,155.327,98.643,98.9537,0.00834214,0.111249,20.8578,70.4427,-0.0281743,0.0,0.0
1328,331.75,40.9465,42.49,152.801,98.6397,99.094,0.00836723,0.111362,20.8579,70.4327,-0.0411682,0.0,0.0
1332,332.75,41.3152,42.3173,150.073,98.6462,99.0461,0.00835728,0.111508,20.858,70.4227,-0.0362388,0.0,0.0
1336,333.75,40.9784,41.6493,152.361,98.6532,99.0366,0.0083554,0.111639,20.858,70.4127,-0.0347464,0.0,0.0
1340,334.75,40.8567,41.9975,149.298,98.654,98.9628,0.00837517,0.111667,20.858,70.3927,-0.0279906,0.0,0.0
1344,335.75,40.9807,42.1972,151.455,98.6581,99.0832,0.00845153,0.111638,20.8579,70.3727,-0.0385176,0.0,0.0
1348,336.75,40.8443,42.1783,152.076,98.668,99.1165,0.00853749,0.11156,20.8578,70.3326,-0.0406313,0.0,0.0
1352,337.75,40.4937,42.1269,154.453,98.6926,99.0375,0.00860876,0.111433,20.8578,70.3126,-0.0312537,0.0,0.0
1356,338.75,40.8982,41.862,153.716,98.6872,98.9982,0.00863455,0.111355,20.8578,70.2826,-0.0281818,0.0,0.0
1360,339.75,40.3732,41.9219,151.594,98.695,99.0478,0.00862815,0.11129,20.8584,70.2726,-0.031968,0.0,0.0
1364,340.75,40.6605,41.803,150.886,98.6934,99.069,0.0086111,0.111153,20.8589,70.2526,-0.0340297,0.0,0.0
1368,341.75,41.0107,41.8392,154.454,98.7053,99.2538,0.00860547,0.110931,20.8593,70.2426,-0.0496487,0.0,0.0
1372,342.75,40.6573,41.4577,152.837,98.7237,99.1402,0.00861992,0.11089,20.8596,70.2426,-0.0377186,0.0,0.0
1376,343.75,40.8528,41.8821,156.88,98.7331,99.1476,0.00866739,0.110911,20.8597,70.2526,-0.0375272,0.0,0.0
1380,344.75,40.8009,41.5582,155.772,98.7343,99.0159,0.00873751,0.110827,20.8598,70.2426,-0.0255067,0.0,0.0
1384,345.75,40.6042,41.8686,152.513,98.7462,99.1182,0.00881814,0.110628,20.8599,70.2326,-0.0336835,0.0,0.0
1388,346.75,40.3219,41.8706,153.51,98.768,99.2054,0.00889091,0.110395,20.8599,70.2125,-0.0395934,0.0,0.0
1392,347.75,40.6759,41.7455,150.375,98.77,99.1821,0.00896443,0.110223,20.8604,70.2025,-0.037302,0.0,0.0
1396,348.75,40.6459,41.3095,150.305,98.7831,99.183,0.00904353,0.109979,20.8611,70.1825,-0.0361906,0.0,0.0
1400,349.75,40.7561,41.3438,151.508,98.8007,99.1839,0.00912029,0.10966,20.8615,70.1725,-0.0346702,0.0,0.0
1404,350.75,39.7972,41.7288,152.993,98.8065,99.1428,0.00917377,0.10932,20.8618,70.1124,-0.0304441,0.0,0.0
1408,351.75,39.7668,40.6791,152.211,98.8282,99.1735,0.00919286,0.108991,20.862,70.1024,-0.0312462,0.0,0.0
1412,352.75,40.5417,41.3601,155.576,98.8401,99.2089,0.00918196,0.108736,20.8621,70.0724,-0.0333662,0.0,0.0
1416,353.75,40.3361,41.7525,151.243,98.852,99.215,0.00914828,0.108565,20.8622,70.0624,-0.0328356,0.0,0.0
1420,354.75,40.1641,41.4498,153.579,98.8692,99.2201,0.0090857,0.108472,20.8624,70.0424,-0.031744,0.0,0.0
1424,355.75,40.1386,41.2117,153.01,98.8757,99.24,0.0090264,0.108358,20.8627,70.0524,-0.0329433,0.0,0.0
1428,356.75,40.3429,41.139,148.877,98.8897,99.2469,0.00899287,0.10831,20.8629,70.0324,-0.0323045,0.0,0.0
1432,357.75,40.6718,40.8682,149.348,98.922,99.1424,0.00897285,0.108278,20.863,70.0624,-0.0199351,0.0,0.0
1436,358.75,40.1544,40.8242,149.264,98.9368,99.2452,0.00896438,0.108258,20.8628,70.0624,-0.0278808,0.0,0.0
1440,359.75,40.3146,41.1405,151.095,98.9552,99.3808,0.00894715,0.108186,20.8627,70.0624,-0.0384426,0.0,0.0
1444,360.75,40.358,40.8358,151.629,98.9642,99.3078,0.00892185,0.108053,20.8626,70.0624,-0.0310453,0.0,0.0
1448,361.75,40.3627,41.0131,157.54,98.9802,99.2538,0.00887216,0.107873,20.8629,70.0624,-0.0247281,0.0,0.0
1452,362.75,40.128,40.777,152.529,99.0019,99.3082,0.00881004,0.107834,20.8635,70.0324,-0.0276724,0.0,0.0
1456,363.75,40.1858,40.4091,149.785,99.0171,99.4119,0.00874041,0.107868,20.8639,70.0324,-0.0356448,0.0,0.0
1460,364.75,39.8385,40.5889,149.359,99.0413,99.4386,0.0086616,0.107948,20.8639,70.0124,-0.03587,0.0,0.0
1464,365.75,40.3291,40.7309,152.675,99.0564,99.4149,0.00860502,0.107909,20.8631,69.9723,-0.0323587,0.0,0.0
1468,366.75,39.8312,40.3136,151.368,99.0716,99.4071,0.00858226,0.107709,20.8625,69.9423,-0.0302866,0.0,0.0
1472,367.75,39.6726,40.6047,149.217,99.1068,99.4037,0.0085822,0.107467,20.8622,69.9323,-0.0267893,0.0,0.0
1476,368.75,39.8978,40.1033,155.983,99.1179,99.4438,0.00862411,0.107218,20.862,69.9323,-0.029408,0.0,0.0
1480,369.75,39.6181,40.5413,154.473,99.129,99.3808,0.00869825,0.106981,20.8618,69.9323,-0.0227274,0.0,0.0
1484,370.75,40.0748,40.5646,150.759,99.156,99.4918,0.00878,0.106825,20.8617,69.9323,-0.0302812,0.0,0.0
1488,371.75,39.7359,40.4357,151.287,99.1654,99.4987,0.00886462,0.10673,20.8616,69.9423,-0.0300525,0.0,0.0
1492,372.75,39.8696,40.5366,156.872,99.1831,99.4956,0.00895177,0.106671,20.8616,69.9323,-0.0281877,0.0,0.0
1496,373.75,39.5649,40.3646,152.056,99.2085,99.6191,0.00901816,0.106595,20.8618,69.9623,-0.0370066,0.0,0.0
1500,374.75,39.2088,40.5194,150.601,99.2306,99.6666,0.00906419,0.106338,20.8625,69.9623,-0.0392797,0.0,0.0
1504,375.75,39.7296,40.5559,152.394,99.2478,99.5721,0.00910374,0.106083,20.863,69.9623,-0.0292221,0.0,0.0
1508,376.75,39.3613,40.63,153.055,99.2613,99.661,0.00914137,0.105818,20.8633,69.9623,-0.0360008,0.0,0.0
1512,377.75,38.6779,39.8011,154.939,99.2855,99.5375,0.00917074,0.105558,20.8635,69.9623,-0.0227108,0.0,0.0
1516,378.75,39.4595,40.4751,154.215,99.2986,99.6809,0.00919468,0.105259,20.8636,69.9823,-0.034421,0.0,0.0
1520,379.75,39.5667,40.1773,150.005,99.3322,99.6964,0.00922208,0.104933,20.8637,69.9523,-0.0327874,0.0,0.0
1524,380.75,39.6218,40.0984,151.423,99.3445,99.7055,0.00924413,0.104615,20.8639,69.9623,-0.0324942,0.0,0.0
1528,381.75,39.6711,39.881,150.613,99.3625,99.7327,0.00926855,0.10432,20.8644,69.9523,-0.0333121,0.0,0.0
1532,382.75,39.4183,40.4905,152.626,99.3839,99.7215,0.00934305,0.104073,20.8647,69.9223,-0.030383,0.0,0.0
1536,383.75,39.9628,40.1936,154.298,99.4343,99.7046,0.0094411,0.103891,20.8649,69.9123,-0.0243271,0.0,0.0
1540,384.75,39.5011,40.3053,151.055,99.4101,99.8208,0.00952095,0.103749,20.8651,69.9023,-0.0369369,0.0,0.0
1544,385.75,38.9427,39.9867,150.365,99.4314,99.7966,0.00956779,0.103418,20.8655,69.9023,-0.0328463,0.0,0.0
1548,386.75,39.1533,39.9488,152.614,99.4482,99.737,0.00954635,0.102913,20.8665,69.9123,-0.0259822,0.0,0.0
1552,387.75,38.9979,40.1271,156.545,99.4744,99.7746,0.00946998,0.102631,20.8671,69.9123,-0.0269933,0.0,0.0
1556,388.75,38.5396,39.4915,152.939,99.492,99.7699,0.00934632,0.102373,20.8677,69.9123,-0.0249798,0.0,0.0
1560,389.75,39.2281,40.2082,157.012,99.4941,99.8683,0.00927156,0.102263,20.8679,69.9223,-0.0336315,0.0,0.0
1564,390.75,38.9772,39.5658,153.825,99.5174,99.7798,0.00920473,0.102129,20.8681,69.9223,-0.0235845,0.0,0.0
1568,391.75,38.7918,39.8587,152.036,99.533,100.028,0.00919359,0.102018,20.8683,69.9123,-0.0444098,0.0,0.0
1571,392.5,39.0128,39.7429,149.64,99.5379,99.9167,0.00921177,0.101916,20.8683,69.8122,-0.0340222,0.0,0.0