File: 01_Data/Masonite_Board/Cone/Masonite_Cone_HF50Scan_230105_R5.csv
Names,Time,Stack TC,Smoke TC,Exh Press,Smoke Comp,Smoke Meas,CO Meter,CO2 Meter,O2 Meter,Sample Mass,Ext Coeff,Start Test,Flame Verif
Chan Gain,,500,500,1,1,1,1,1,1,1,1,1.0,1.0
Offset,,0,0,0.131978,0,0,0,0,0,0,0,0.0,0.0
Gain,,1,1,25.011,13.5924,14.2928,1,1,1,1.00089,1.02125,1.0,1.0
Units,sec,C,C,Pa,%,%,%,%,%,g,/m,,
Baseline,,32.46,33.3829,156.237,99.7643,99.6276,0.00101055,0.0471042,20.9348,-449.899,0.0122893,,
3,0.5,30.4144,31.4892,157.406,99.8112,99.6037,0.000759503,0.0561224,20.93,175.286,0.0186435,0.0,0.0
6,1.25,30.6339,31.8346,155.715,99.8199,99.7131,0.00071065,0.0566586,20.9279,175.306,0.00958372,0.0,0.0
9,2,30.6492,31.4803,158.94,99.8211,99.642,0.000667243,0.0569595,20.9265,175.206,0.0160855,0.0,0.0
12,2.75,30.956,31.3798,155.917,99.8224,99.642,0.000630651,0.0570251,20.9254,175.206,0.0161974,0.0,0.0
15,3.5,30.7282,31.6179,156.383,99.8435,99.6848,0.000601867,0.056888,20.9246,175.246,0.0142529,0.0,0.0
18,4.25,30.9216,31.4641,156.977,99.8419,99.7633,0.000573826,0.0566567,20.924,175.236,0.00705083,0.0,0.0
21,5,30.6687,31.6591,159.014,99.8365,99.6983,0.000549675,0.0563985,20.9238,175.166,0.0124049,0.0,0.0
24,5.75,31.0495,31.8263,154.041,99.8485,99.632,0.000536997,0.0562306,20.9241,175.166,0.0194428,0.0,0.0
27,6.5,30.6449,31.3919,156.309,99.8614,99.6534,0.000538886,0.056153,20.9243,175.156,0.0186755,0.0,0.0
30,7.25,30.8013,31.5317,152.886,99.8717,99.6128,0.000572028,0.0561734,20.9244,175.136,0.0232536,0.0,0.0
33,8,30.5997,31.9176,158.733,99.8659,99.615,0.000615999,0.0561476,20.9248,175.066,0.0225368,0.0,0.0
36,8.75,30.7248,31.6745,155.403,99.8738,99.5317,0.000656498,0.0560689,20.9254,175.036,0.0307385,0.0,0.0
39,9.5,31.1736,31.7085,158.781,99.8792,99.543,0.000679506,0.0559091,20.9259,175.066,0.030201,0.0,0.0
42,10.25,31.0513,31.8221,156.991,99.8854,99.4793,0.000685134,0.0557499,20.9262,175.036,0.0364922,0.0,0.0
45,11,30.7959,31.9439,154.284,99.8908,99.4632,0.000675113,0.0556157,20.9265,174.966,0.0384298,0.0,0.0
48,11.75,30.9991,31.7053,157.708,99.89,99.4074,0.0006739,0.0554902,20.9266,174.966,0.0433858,0.0,0.0
51,12.5,30.972,31.6317,153.227,99.9057,99.3607,0.000677516,0.0552457,20.9267,174.976,0.0490049,0.0,0.0
54,13.25,30.8984,31.7264,157.912,99.9124,99.2421,0.000702441,0.0549502,20.9268,174.956,0.0603038,0.0,0.0
57,14,30.4533,31.959,156.435,99.9215,99.2804,0.000743155,0.0546068,20.9276,174.876,0.0576568,0.0,0.0
60,14.75,30.8255,32.2557,157.556,99.9169,99.1998,0.000795139,0.0541717,20.9281,174.846,0.0645331,0.0,0.0
63,15.5,31.3416,31.6345,154.951,99.9261,99.2233,0.000852871,0.0537758,20.9284,174.886,0.0632236,0.0,0.0
66,16.25,30.7804,32.08,151.755,99.9335,99.1788,0.000903415,0.0532642,20.9287,174.886,0.0679115,0.0,0.0
69,17,31.128,31.5232,153.457,99.9348,99.0554,0.000924344,0.052839,20.9289,174.826,0.0791791,0.0,0.0
72,17.75,31.2574,31.8073,161.541,99.9319,99.0689,0.000919384,0.0524395,20.9297,174.776,0.077696,0.0,0.0
75,18.5,31.0929,32.0483,151.481,99.9497,99.0214,0.000881198,0.0520875,20.9303,174.816,0.0835952,0.0,0.0
78,19.25,30.9927,31.7905,155.764,99.9543,98.846,0.000802159,0.0517929,20.9307,174.806,0.099881,0.0,0.0
81,20,31.1906,31.9252,157.482,99.9659,99.0759,0.00074454,0.0515132,20.931,174.736,0.0801148,0.0,0.0
84,20.75,31.22,31.8179,151.372,99.9609,99.0501,0.000686496,0.0513094,20.9312,174.686,0.0819954,0.0,0.0
87,21.5,30.5368,32.056,156.108,99.9642,98.8822,0.000637343,0.0514038,20.9311,174.696,0.0974929,0.0,0.0
90,22.25,31.3442,31.9375,155.866,99.9962,98.901,0.00063327,0.0515863,20.931,174.726,0.0986559,0.0,0.0
93,23,30.6955,31.8091,154.18,99.9862,98.969,0.00065382,0.0517678,20.9309,174.686,0.0916039,0.0,0.0
96,23.75,31.3074,31.7791,152.664,99.9738,98.7788,0.000678827,0.0521433,20.9308,174.646,0.107719,0.0,0.0
99,24.5,31.2804,32.2221,155.229,99.9883,98.897,0.000725322,0.052432,20.9307,174.606,0.0983063,0.0,0.0
102,25.25,31.0886,32.1927,155.618,100.001,98.7501,0.000759869,0.0526681,20.9301,174.646,0.112745,0.0,0.0
105,26,31.2028,32.2302,153.445,100.022,98.6925,0.000786169,0.052826,20.9296,174.626,0.119865,0.0,0.0
108,26.75,30.9725,31.7704,156.19,100.01,98.6257,0.000789441,0.052935,20.9292,174.555,0.124884,0.0,0.0
111,27.5,31.179,32.0863,154.595,100.004,98.5642,0.000773252,0.0530145,20.9289,174.525,0.129952,0.0,0.0
114,28.25,31.5287,32.2135,159.033,100.033,98.4325,0.000747017,0.0529508,20.9288,174.565,0.144459,0.0,0.0
117,29,31.3333,31.9882,157.949,100.027,98.5974,0.000716752,0.0528475,20.9286,174.525,0.128946,0.0,0.0
120,29.75,31.4061,32.4483,152.076,100.026,98.1939,0.00069116,0.052748,20.9285,174.455,0.165643,0.0,0.0
123,30.5,31.1968,31.8188,158.121,100.042,98.2332,0.000672503,0.0527363,20.9284,174.445,0.163474,0.0,0.0
126,31.25,31.0767,32.4315,152.987,100.056,98.1049,0.000677468,0.0527128,20.9284,174.495,0.176439,0.0,0.0
129,32,31.0881,32.0301,155.496,100.052,98.1891,0.000707256,0.0526701,20.9284,174.445,0.168384,0.0,0.0
132,32.75,31.2089,32.1538,160.009,100.038,98.1311,0.000760186,0.0526815,20.9283,174.325,0.172451,0.0,0.0
135,33.5,31.2705,32.3279,155.261,100.065,97.8703,0.000837671,0.0527604,20.9283,174.295,0.198709,0.0,0.0
138,34.25,31.4084,32.1203,153.606,100.068,97.6596,0.000881844,0.0528635,20.9283,174.305,0.218236,0.0,0.0
141,35,31.069,32.2152,152.551,100.077,97.3656,0.000938744,0.0531246,20.9283,174.285,0.246024,0.0,0.0
144,35.75,31.3645,32.1365,153.018,100.066,97.6439,0.000974916,0.0533523,20.9283,174.195,0.219491,0.0,0.0
147,36.5,31.5945,32.4174,156.644,100.078,97.2417,0.000986404,0.0535822,20.9276,174.155,0.25754,0.0,0.0
150,37.25,31.8328,32.4003,155.21,100.095,97.3141,0.000988435,0.0538921,20.9272,174.185,0.252433,0.0,0.0
153,38,31.5183,32.1491,156.516,100.096,96.9992,0.000976281,0.0541786,20.9268,174.155,0.281506,0.0,0.0
156,38.75,31.5226,32.6548,156.345,100.095,97.5854,0.000961608,0.0545903,20.9266,174.045,0.227491,0.0,0.0
159,39.5,31.5586,32.0287,157.707,100.097,96.4178,0.000950911,0.0550043,20.9264,173.985,0.335477,0.0,0.0
162,40.25,31.6534,32.4493,151.668,100.106,97.4965,0.000948071,0.0553546,20.9263,173.995,0.236629,0.0,0.0
165,41,31.8889,32.5269,153.523,100.131,99.0305,0.00095527,0.0558146,20.9257,173.935,0.0990361,0.0,1.0
168,41.75,31.7516,32.5324,153.48,100.128,99.7245,0.000972758,0.0562922,20.925,173.825,0.0361816,0.0,1.0
171,42.5,32.0534,32.5758,156.081,100.14,99.6643,0.00100287,0.0567161,20.9242,173.775,0.0426301,0.0,1.0
174,43.25,32.1224,32.6598,150.964,100.136,99.6298,0.00103222,0.0570508,20.9236,173.675,0.0453931,0.0,1.0
177,44,32.2886,32.8304,150.158,100.148,99.3568,0.00106748,0.0572218,20.9234,173.675,0.0710545,0.0,1.0
180,44.75,32.0848,32.6115,146.22,100.142,98.9703,0.00113421,0.0572771,20.9231,173.545,0.105448,0.0,1.0
183,45.5,32.0937,32.9699,146.625,100.144,99.0445,0.00120024,0.0572566,20.9229,173.414,0.0988862,0.0,0.0
186,46.25,32.2472,33.0693,144.774,100.154,98.5538,0.00125579,0.0572418,20.9228,173.324,0.144308,0.0,0.0
189,47,33.2035,33.5663,143.555,100.164,98.4063,0.00131401,0.0575726,20.9228,173.274,0.158572,0.0,0.0
192,47.75,33.3993,33.3813,146.909,100.162,98.3741,0.00138306,0.0586877,20.9227,173.164,0.161363,0.0,0.0
195,48.5,33.3301,34.2846,144.171,100.147,98.2559,0.00146449,0.0607457,20.9227,173.014,0.170761,0.0,0.0
198,49.25,34.2875,34.2096,140.514,100.156,98.4761,0.00155218,0.0674616,20.9226,172.904,0.151517,0.0,0.0
201,50,34.1763,34.8771,139.059,100.162,98.0552,0.00164188,0.0772669,20.9226,172.854,0.190409,0.0,0.0
204,50.75,34.9627,34.8804,142.893,100.162,97.9108,0.00174637,0.0865079,20.9204,172.734,0.203608,0.0,0.0
207,51.5,35.3109,35.3409,140.295,100.145,97.3059,0.00182254,0.101536,20.9178,172.534,0.257686,0.0,0.0
210,52.25,36.2149,35.2786,139.538,100.151,98.043,0.0019653,0.116027,20.9134,172.384,0.190559,0.0,0.0
213,53,35.9935,36.5093,137.813,100.159,98.1477,0.00211809,0.13814,20.9058,172.354,0.181705,0.0,0.0
216,53.75,36.4518,36.6013,138.197,100.159,98.3431,0.00227131,0.160039,20.8918,172.243,0.163887,0.0,0.0
219,54.5,37.5297,36.9217,134.241,100.147,98.1128,0.00241903,0.18154,20.8695,172.053,0.183813,0.0,0.0
222,55.25,38.3318,37.0313,140.821,100.149,97.7782,0.00255171,0.202472,20.8436,171.933,0.214636,0.0,0.0
225,56,38.1667,37.8174,138.126,100.155,98.1124,0.00265344,0.225122,20.8166,171.883,0.184634,0.0,0.0
228,56.75,38.8811,38.2963,136.296,100.161,97.7726,0.00272974,0.246763,20.7901,171.743,0.216194,0.0,0.0
231,57.5,39.1291,38.8756,136.103,100.161,97.7577,0.00280712,0.269557,20.7567,171.593,0.217552,0.0,0.0
234,58.25,39.5882,39.3885,137.506,100.143,98.0892,0.00283517,0.284215,20.7433,171.393,0.185631,0.0,0.0
237,59,40.3453,39.6092,133.506,100.148,97.5968,0.00291403,0.3037,20.7216,171.273,0.231201,0.0,0.0
240,59.75,40.5828,40.1449,132.993,100.17,97.5602,0.00301291,0.322265,20.7004,171.202,0.236456,0.0,0.0
243,60.5,41.4953,40.6989,134.399,100.163,97.2134,0.0031284,0.339704,20.6801,171.022,0.267761,0.0,0.0
246,61.25,41.7706,41.4805,133.882,100.152,96.7379,0.00325666,0.354083,20.6587,170.852,0.310717,0.0,0.0
249,62,41.7206,41.908,141.256,100.158,97.4376,0.00339288,0.369892,20.6367,170.712,0.246643,0.0,0.0
252,62.75,42.0979,42.4503,129.141,100.159,97.2029,0.00352496,0.384719,20.6147,170.632,0.268392,0.0,0.0
255,63.5,43.3766,43.063,134.5,100.161,96.6289,0.00364615,0.398561,20.592,170.442,0.321637,0.0,0.0
258,64.25,43.7447,43.4609,136.191,100.141,97.0738,0.003783,0.411433,20.5705,170.252,0.278667,0.0,0.0
261,65,44.2155,44.2704,134.315,100.141,96.5862,0.00388276,0.424448,20.5528,170.102,0.323819,0.0,0.0
264,65.75,44.9033,44.5887,132.773,100.15,96.7545,0.00402021,0.43744,20.5359,170.011,0.309033,0.0,0.0
267,66.5,44.6889,45.0613,134.131,100.156,96.3955,0.00419237,0.453703,20.5181,169.861,0.342815,0.0,0.0
270,67.25,45.7694,46.1134,129.638,100.141,96.7048,0.00426146,0.459598,20.5077,169.621,0.312822,0.0,0.0
273,68,46.298,46.1587,133.384,100.147,96.2394,0.00434128,0.473405,20.4956,169.481,0.356521,0.0,0.0
276,68.75,47.2456,47.0145,133.544,100.145,96.1365,0.00446793,0.485195,20.4828,169.401,0.365924,0.0,0.0
279,69.5,47.7749,47.409,134.96,100.131,95.8215,0.00456747,0.496742,20.4686,169.241,0.394129,0.0,0.0
282,70.25,47.8377,47.8733,134.762,100.153,95.7469,0.00463245,0.509998,20.4536,169.031,0.402999,0.0,0.0
285,71,48.4075,48.9728,128.671,100.126,95.8032,0.00467659,0.523056,20.4383,168.84,0.395323,0.0,0.0
288,71.75,48.8282,49.2218,128.727,100.132,95.6645,0.00469975,0.534021,20.4222,168.77,0.408897,0.0,0.0
291,72.5,49.1274,49.6407,132.291,100.122,95.8604,0.00471664,0.548167,20.4085,168.62,0.389685,0.0,0.0
294,73.25,49.9692,50.525,127.202,100.124,95.0198,0.00473079,0.560365,20.394,168.39,0.468728,0.0,0.0
297,74,50.3373,51.1545,128.16,100.11,95.7618,0.0047411,0.572481,20.3794,168.17,0.397788,0.0,0.0
300,74.75,51.4297,52.2007,124.779,100.115,95.1725,0.00474729,0.585824,20.365,168.12,0.453568,0.0,0.0
303,75.5,51.7685,51.8704,125.33,100.137,95.3422,0.00474953,0.598564,20.3482,167.96,0.43954,0.0,0.0
306,76.25,52.5162,53.083,129.796,100.121,94.8951,0.00475477,0.610456,20.331,167.789,0.480237,0.0,0.0
309,77,53.0359,53.5907,131.585,100.101,94.3555,0.00477301,0.621384,20.3125,167.549,0.529536,0.0,0.0
312,77.75,53.5623,54.0565,126.845,100.119,93.337,0.004804,0.632693,20.2954,167.409,0.628356,0.0,0.0
315,78.5,54.2199,54.6475,123.044,100.122,92.6501,0.00483414,0.64407,20.2797,167.269,0.694832,0.0,0.0
318,79.25,54.6818,55.5324,126.11,100.124,93.6297,0.00486743,0.653699,20.2683,167.089,0.600716,0.0,0.0
321,80,55.608,55.9484,126.368,100.115,94.1531,0.00491106,0.665084,20.2562,166.849,0.550034,0.0,0.0
324,80.75,55.5479,56.9238,129.904,100.116,92.2728,0.00496632,0.677034,20.2443,166.678,0.730867,0.0,0.0
327,81.5,56.7098,57.159,129.307,100.147,94.4982,0.00502561,0.688806,20.2312,166.488,0.520124,0.0,0.0
330,82.25,57.1619,58.0511,123.143,100.121,94.1278,0.00509759,0.702103,20.2203,166.338,0.552961,0.0,0.0
333,83,57.7877,58.5678,123.668,100.094,91.1099,0.00518542,0.714062,20.2047,166.098,0.842478,0.0,0.0
336,83.75,58.686,58.9288,129.066,100.084,92.7665,0.00530912,0.728414,20.1892,165.878,0.680126,0.0,0.0
339,84.5,59.0552,60.2334,122.189,100.091,91.6892,0.00543485,0.741883,20.1736,165.728,0.785406,0.0,0.0
342,85.25,59.8488,60.8752,124.393,100.096,92.1061,0.00554167,0.755455,20.1583,165.537,0.745203,0.0,0.0
345,86,60.3582,60.9875,123.565,100.082,92.3417,0.00565003,0.766949,20.1444,165.257,0.721135,0.0,0.0
348,86.75,60.9726,61.7972,119.315,100.069,92.3452,0.00575207,0.781321,20.1294,165.047,0.719609,0.0,0.0
351,87.5,61.4965,62.8132,125.32,100.067,92.5083,0.00584363,0.793846,20.1135,164.937,0.703574,0.0,0.0
354,88.25,61.954,63.529,119.182,100.056,92.2278,0.00593215,0.808606,20.0983,164.707,0.729846,0.0,0.0
357,89,62.8288,64.2301,117.516,100.052,92.1803,0.00600813,0.823009,20.0857,164.476,0.734057,0.0,0.0
360,89.75,63.378,65.0522,123.249,100.039,92.0228,0.00606841,0.833509,20.0735,164.246,0.748221,0.0,0.0
363,90.5,64.2006,65.4339,120.797,100.027,91.9282,0.00612776,0.85116,20.0594,164.086,0.756364,0.0,0.0
366,91.25,64.6944,66.0993,124.029,100.042,91.8881,0.00619739,0.867322,20.0423,163.906,0.76165,0.0,0.0
369,92,65.435,66.7678,120.446,100.034,91.4083,0.00628631,0.880509,20.0253,163.636,0.807805,0.0,0.0
372,92.75,66.1884,67.8482,117.73,100.011,91.786,0.00635114,0.895001,20.0111,163.396,0.768819,0.0,0.0
375,93.5,66.2704,68.9131,123.242,100.014,91.7598,0.00648209,0.905566,19.9941,163.205,0.771597,0.0,0.0
378,94.25,67.7487,68.7098,119.782,99.9974,90.699,0.00661972,0.919153,19.9759,163.045,0.874315,0.0,0.0
381,95,68.0199,69.9036,122.957,99.9991,90.0055,0.00675688,0.933478,19.9578,162.765,0.943226,0.0,0.0
384,95.75,68.8836,70.635,123.484,99.9825,88.7406,0.00688908,0.947391,19.9401,162.505,1.06853,0.0,0.0
387,96.5,69.3871,71.1721,128.499,99.9721,87.8364,0.00701465,0.959014,19.921,162.285,1.15935,0.0,0.0
390,97.25,69.8794,71.8711,115.558,99.9758,89.3176,0.0071254,0.971771,19.9026,162.104,1.00987,0.0,0.0
393,98,70.1169,72.5074,118.546,99.9833,89.9427,0.0072251,0.983496,19.886,161.864,0.948067,0.0,0.0
396,98.75,70.9762,72.8827,130.725,99.965,90.2253,0.00731623,0.994415,19.8682,161.564,0.918325,0.0,0.0
399,99.5,71.4005,74.2219,122.783,99.9543,87.2419,0.00740223,1.00466,19.8552,161.334,1.21859,0.0,0.0
402,100.25,72.2151,75.1963,117.838,99.9663,87.7997,0.00749837,1.01485,19.8418,161.174,1.16257,0.0,0.0
405,101,73.0468,75.6438,115.21,99.9472,89.6661,0.00760309,1.02691,19.8291,160.923,0.97242,0.0,0.0
408,101.75,73.2768,76.5029,122.725,99.9368,89.5793,0.0076942,1.04013,19.8179,160.623,0.980166,0.0,0.0
411,102.5,73.9893,76.9616,105.4,99.9107,89.1091,0.0078229,1.05365,19.8065,160.313,1.02497,0.0,0.0
414,103.25,74.5809,77.9639,121.595,99.9244,89.6958,0.00796943,1.06692,19.7947,160.173,0.967411,0.0,0.0
417,104,75.5902,78.3808,117.513,99.9074,89.0123,0.00809873,1.07935,19.7802,159.952,1.03441,0.0,0.0
420,104.75,76.1452,79.2264,125.303,99.8937,91.4658,0.00826827,1.09104,19.7638,159.682,0.7896,0.0,0.0
423,105.5,76.7275,79.6034,120.312,99.8825,89.9348,0.00842022,1.10209,19.7454,159.342,0.939813,0.0,0.0
426,106.25,77.1074,80.0393,128.086,99.875,90.5036,0.00854308,1.11453,19.7303,159.212,0.882666,0.0,0.0
429,107,77.8674,81.3921,113.287,99.875,89.2225,0.00866023,1.12547,19.7162,158.932,1.01038,0.0,0.0
432,107.75,78.4249,81.9572,118.588,99.8784,90.3972,0.00874822,1.13723,19.7027,158.661,0.893505,0.0,0.0
435,108.5,78.5319,82.9066,119.065,99.8531,88.4017,0.00881889,1.14782,19.6897,158.281,1.09121,0.0,0.0
438,109.25,79.26,82.5712,108.884,99.8481,88.6917,0.0088797,1.15969,19.6739,158.171,1.06141,0.0,0.0
441,110,79.9014,83.7603,117.619,99.8547,89.8341,0.00895164,1.16975,19.6593,157.901,0.947363,0.0,0.0
444,110.75,80.8084,84.3039,115.594,99.829,88.9325,0.00902312,1.18277,19.6473,157.67,1.03542,0.0,0.0
447,111.5,81.2338,84.9293,118.065,99.8186,88.0187,0.00910777,1.19525,19.6347,157.29,1.12701,0.0,0.0
450,112.25,81.7592,86.0307,120.985,99.8215,89.8096,0.00919897,1.20561,19.6256,157.13,0.946822,0.0,0.0
453,113,82.4742,86.3908,121.246,99.8257,88.4719,0.00926546,1.21316,19.6126,156.93,1.08164,0.0,0.0
456,113.75,82.7363,87.0572,121.822,99.8219,90.1189,0.00931393,1.22204,19.6032,156.66,0.916064,0.0,0.0
459,114.5,83.5115,87.8347,116.369,99.8024,87.9585,0.00936218,1.2285,19.5928,156.369,1.13169,0.0,0.0
462,115.25,84.0416,88.3859,118.253,99.7908,89.3669,0.00940769,1.23868,19.5823,156.099,0.988336,0.0,0.0
465,116,84.5436,89.3604,116.7,99.7991,87.3566,0.00945618,1.24942,19.5723,155.869,1.1929,0.0,0.0
468,116.75,85.0597,89.6771,113.278,99.7942,88.8313,0.00951015,1.26013,19.5625,155.569,1.04249,0.0,0.0
471,117.5,85.3713,90.4451,117.513,99.7883,90.2498,0.00959012,1.27044,19.5491,155.368,0.900051,0.0,0.0
474,118.25,85.906,91.2702,117.136,99.7771,89.6012,0.00967433,1.28149,19.5346,155.108,0.963659,0.0,0.0
477,119,86.3056,91.7235,118.907,99.7859,88.4226,0.00975631,1.29141,19.5205,154.868,1.08306,0.0,0.0
480,119.75,87.0071,92.101,118.502,99.7738,88.1626,0.0098324,1.30066,19.5064,154.618,1.10835,0.0,0.0
483,120.5,87.2104,93.0302,117.73,99.7697,87.1359,0.00988719,1.3095,19.4961,154.388,1.21292,0.0,0.0
486,121.25,87.5624,93.3196,124.584,99.7556,87.6737,0.00992597,1.31712,19.4842,154.067,1.15653,0.0,0.0
489,122,88.2744,93.2409,117.922,99.7676,88.7554,0.00993575,1.32468,19.4737,153.907,1.04776,0.0,0.0
492,122.75,88.4473,94.0664,117.87,99.7672,86.9557,0.00994158,1.33073,19.4639,153.657,1.23124,0.0,0.0
495,123.5,88.5839,94.4713,114.675,99.7547,88.8788,0.00994938,1.33392,19.4544,153.437,1.03416,0.0,0.0
498,124.25,88.9776,94.8526,125.692,99.7473,88.2826,0.00996206,1.33498,19.4466,153.156,1.09379,0.0,0.0
501,125,89.0943,95.1212,120.586,99.7531,88.7571,0.00997648,1.33448,19.4405,152.956,1.04628,0.0,0.0
504,125.75,89.9532,95.2101,118.868,99.7531,89.8254,0.00999399,1.33371,19.436,152.756,0.93911,0.0,0.0
507,126.5,89.7115,95.7192,114.924,99.7523,88.8256,0.0100149,1.33213,19.4328,152.546,1.0393,0.0,0.0
510,127.25,90.0899,95.9881,123.332,99.7369,90.1019,0.01006,1.32924,19.4307,152.236,0.910121,0.0,0.0
513,128,89.9877,96.7021,120.686,99.7386,88.8836,0.010122,1.32282,19.4295,152.055,1.03222,0.0,0.0
516,128.75,90.5734,96.5522,122.366,99.7419,89.2862,0.0101952,1.31421,19.4293,151.885,0.992034,0.0,0.0
519,129.5,90.4467,97.2021,123.123,99.7402,90.3148,0.0102746,1.30437,19.4303,151.685,0.88928,0.0,0.0
522,130.25,90.8484,97.2214,124.031,99.7207,89.8262,0.0103483,1.29143,19.4359,151.375,0.936117,0.0,0.0
525,131,90.7574,97.6774,120.557,99.7203,89.4079,0.0104102,1.27849,19.4447,151.235,0.977894,0.0,0.0
528,131.75,90.6923,98.1681,118.622,99.7294,90.8888,0.0104517,1.26756,19.4556,151.045,0.831555,0.0,0.0
531,132.5,91.5735,97.2893,126.734,99.7224,88.7009,0.0104744,1.25537,19.4679,150.874,1.04921,0.0,0.0
534,133.25,91.1331,98.0173,121.037,99.727,89.9671,0.010478,1.24493,19.4813,150.594,0.922637,0.0,0.0
537,134,91.231,97.8724,130.832,99.7257,89.4494,0.010456,1.23465,19.4927,150.374,0.974228,0.0,0.0
540,134.75,91.0892,98.0313,129.449,99.7278,90.8408,0.010422,1.22183,19.5039,150.274,0.836137,0.0,0.0
543,135.5,91.3644,98.4985,122.524,99.7253,90.6964,0.0103843,1.21248,19.5136,150.064,0.850162,0.0,0.0
546,136.25,91.6707,98.6582,128.056,99.7207,90.9511,0.0103568,1.19862,19.5235,149.823,0.824627,0.0,0.0
549,137,91.6083,98.0015,121.217,99.7162,88.8845,0.0103368,1.18343,19.5337,149.593,1.03012,0.0,0.0
552,137.75,91.3012,98.3781,130.024,99.7195,88.3231,0.0103166,1.1688,19.5473,149.493,1.08718,0.0,0.0
555,138.5,91.79,98.8353,129.52,99.7224,89.9183,0.0102902,1.15243,19.563,149.233,0.927093,0.0,0.0
558,139.25,91.394,98.8144,127.179,99.7216,87.8464,0.0102592,1.13633,19.5809,149.043,1.13585,0.0,0.0
561,140,91.2498,98.9058,120.008,99.712,87.7461,0.0102249,1.12282,19.6021,148.722,1.14523,0.0,0.0
564,140.75,91.2523,99.1311,128.512,99.7182,88.6307,0.0101992,1.10617,19.6176,148.642,1.05593,0.0,0.0
567,141.5,91.7274,98.5178,131.909,99.724,89.2945,0.0101793,1.09225,19.6358,148.432,0.9896,0.0,0.0
570,142.25,91.6143,98.5028,131.384,99.7195,88.994,0.0101815,1.07905,19.6517,148.252,1.01939,0.0,0.0
573,143,90.9549,99.4039,122.218,99.7211,86.9666,0.0102001,1.06662,19.67,147.972,1.22598,0.0,0.0
576,143.75,91.0722,98.9445,132.21,99.7153,88.9369,0.0102703,1.05601,19.6821,147.872,1.02477,0.0,0.0
579,144.5,91.2588,99.3296,123.308,99.724,88.683,0.0103389,1.05013,19.6997,147.641,1.05116,0.0,0.0
582,145.25,90.4995,99.045,134.352,99.7095,89.513,0.0104682,1.04087,19.714,147.481,0.966399,0.0,0.0
585,146,90.9206,98.7468,129.365,99.7124,88.3676,0.010648,1.0325,19.7283,147.281,1.08203,0.0,0.0
588,146.75,90.5936,99.3379,132.864,99.7133,88.6782,0.0109298,1.02571,19.7401,147.191,1.05068,0.0,0.0
591,147.5,90.286,98.8729,128.08,99.724,89.1833,0.0111353,1.02136,19.7494,147.051,1.00077,0.0,0.0
594,148.25,90.2397,98.5402,135.951,99.7224,90.634,0.0115166,1.0182,19.7584,146.951,0.856064,0.0,0.0
597,149,90.3657,98.1326,131.973,99.7108,91.15,0.0119876,1.01593,19.7659,146.721,0.804163,0.0,0.0
600,149.75,89.9217,98.0767,136.942,99.7191,93.2415,0.0123955,1.01281,19.7716,146.701,0.601677,0.0,0.0
603,150.5,89.4129,97.9378,138.531,99.7228,94.6831,0.0128032,1.00892,19.7762,146.641,0.46457,0.0,0.0
606,151.25,89.0723,97.6697,140.808,99.7128,96.0226,0.013255,1.0035,19.7804,146.571,0.337826,0.0,0.0
609,152,88.5074,97.1974,140.521,99.7075,97.7228,0.0136758,0.996305,19.784,146.39,0.180108,0.0,0.0
612,152.75,88.7106,96.3531,139.413,99.7058,98.4857,0.014053,0.982855,19.7871,146.46,0.110297,0.0,0.0
615,153.5,87.449,96.4598,143.73,99.7199,99.4235,0.0143817,0.97305,19.7913,146.43,0.0266657,0.0,0.0
618,154.25,86.9376,95.7375,144.684,99.7191,99.9242,0.0146074,0.951877,19.7943,146.38,-0.0184133,0.0,0.0
621,155,86.0967,95.5039,144.8,99.7033,100.107,0.014748,0.930791,19.8028,146.25,-0.0362383,0.0,0.0
624,155.75,85.8134,94.8249,141.779,99.7128,100.331,0.0146841,0.905754,19.8128,146.29,-0.0553833,0.0,0.0
627,156.5,85.2992,94.0765,142.238,99.7178,100.13,0.0145277,0.866923,19.8264,146.3,-0.0369245,0.0,0.0
630,157.25,84.5712,93.111,147.119,99.7178,100.46,0.0142259,0.825256,19.8487,146.28,-0.0664558,0.0,0.0
633,158,83.9701,92.5142,145.787,99.7104,100.138,0.0136388,0.789185,19.865,146.14,-0.0383369,0.0,0.0
636,158.75,83.4572,91.9338,147.446,99.7124,100.22,0.0132108,0.739281,19.8984,146.14,-0.0454831,0.0,0.0
639,159.5,82.2141,91.4423,144.845,99.7116,100.267,0.0123767,0.685392,19.9402,146.22,-0.0497679,0.0,0.0
642,160.25,81.5651,91.1534,147.631,99.7216,100.214,0.0115538,0.633379,19.9861,146.23,-0.0441179,0.0,0.0
645,161,80.8179,90.4706,147.17,99.7004,100.316,0.0108624,0.57943,20.0331,146.09,-0.0551378,0.0,0.0
648,161.75,80.2578,89.5872,148.423,99.7104,100.278,0.0100923,0.533265,20.0791,146.13,-0.050815,0.0,0.0
651,162.5,79.7189,88.84,150.324,99.7145,100.149,0.00933188,0.480056,20.1325,146.22,-0.0389783,0.0,0.0
654,163.25,79.0116,88.4222,148.427,99.7095,100.21,0.00863141,0.435934,20.2062,146.2,-0.0448086,0.0,0.0
657,164,78.595,87.4906,151.587,99.6987,100.24,0.00791912,0.394649,20.275,146.09,-0.0485454,0.0,0.0
660,164.75,77.6073,86.8524,149.349,99.7029,100.264,0.00731857,0.354876,20.3414,146.05,-0.0503172,0.0,0.0
663,165.5,77.186,86.5362,148.931,99.7,100.236,0.0068181,0.320512,20.4066,146.11,-0.0480435,0.0,0.0
666,166.25,76.9566,85.4106,147.306,99.7182,100.182,0.00640532,0.293172,20.4656,146.14,-0.0415298,0.0,0.0
669,167,75.7536,85.6244,148.862,99.7153,100.296,0.00607908,0.26667,20.5187,146.02,-0.0520045,0.0,0.0
672,167.75,75.7891,84.7364,146.216,99.7033,100.3,0.00583045,0.245538,20.5662,146,-0.0534349,0.0,0.0
675,168.5,74.676,83.9392,147.541,99.7029,100.152,0.00567327,0.227034,20.604,146.04,-0.0402955,0.0,0.0
678,169.25,74.7224,83.4382,151.375,99.7062,100.268,0.00559229,0.211155,20.6372,146.05,-0.0502914,0.0,0.0
681,170,73.878,82.935,150.637,99.6963,100.084,0.00557319,0.197757,20.6684,145.96,-0.0347641,0.0,0.0
684,170.75,73.5029,82.1927,153.523,99.6996,100.184,0.00564073,0.186618,20.6955,145.93,-0.0434021,0.0,0.0
687,171.5,72.7612,81.9951,151.004,99.6971,100.284,0.00574209,0.176651,20.719,145.96,-0.0525916,0.0,0.0
690,172.25,72.2482,81.1369,150.718,99.7016,100.298,0.005867,0.168539,20.7394,146.02,-0.053429,0.0,0.0
693,173,71.7614,80.785,147.779,99.7075,100.196,0.00600732,0.161984,20.7568,145.97,-0.0437477,0.0,0.0
696,173.75,71.2141,80.6453,148.782,99.6904,100.201,0.00616825,0.156725,20.7701,145.9,-0.0457826,0.0,0.0
699,174.5,71.1505,79.392,148.82,99.6992,100.287,0.00631057,0.152123,20.7811,145.89,-0.0526786,0.0,0.0
702,175.25,70.6233,79.057,147.958,99.7075,100.324,0.00645899,0.14844,20.7897,145.97,-0.0552055,0.0,0.0
705,176,69.8238,78.8076,149.485,99.6992,100.234,0.00660238,0.145003,20.7973,145.93,-0.0479237,0.0,0.0
708,176.75,69.621,78.1971,148.379,99.6946,100.236,0.00673451,0.141897,20.8034,145.82,-0.0485282,0.0,0.0
711,177.5,69.1317,77.5553,150.743,99.6963,100.308,0.00687175,0.139156,20.8083,145.84,-0.0547703,0.0,0.0
714,178.25,68.5876,77.0056,152.937,99.7128,100.243,0.00700272,0.136654,20.8127,145.91,-0.0474734,0.0,0.0
717,179,68.1678,76.6711,149.137,99.7016,100.157,0.00712123,0.134551,20.8171,145.89,-0.0408367,0.0,0.0
720,179.75,67.8829,76.2176,147.249,99.688,100.05,0.00722772,0.132852,20.8213,145.76,-0.0324637,0.0,0.0
723,180.5,67.7557,75.919,152.203,99.69,100.195,0.00732841,0.131534,20.8247,145.75,-0.0452341,0.0,0.0
726,181.25,66.9994,75.7557,149.177,99.705,100.243,0.00741164,0.130574,20.8276,145.85,-0.0482206,0.0,0.0
729,182,66.4241,75.2248,153.944,99.7008,100.075,0.00750405,0.129664,20.8299,145.83,-0.0335725,0.0,0.0
732,182.75,66.3676,74.3604,149.21,99.688,100.108,0.00758931,0.129145,20.8314,145.73,-0.0376564,0.0,0.0
735,183.5,65.8194,73.8421,149.195,99.6913,100.134,0.00776194,0.128296,20.833,145.73,-0.0396996,0.0,0.0
738,184.25,65.0882,73.773,151.178,99.6971,100.068,0.00783159,0.127885,20.8343,145.79,-0.0332445,0.0,0.0
741,185,65.2591,73.1108,153.616,99.7104,100.155,0.00795238,0.127411,20.8351,145.77,-0.0398192,0.0,0.0
744,185.75,64.1908,73.1584,146.761,99.6921,100.149,0.0080713,0.126856,20.8358,145.67,-0.040952,0.0,0.0
747,186.5,64.1401,72.8922,147.36,99.6958,100.147,0.00818538,0.126246,20.8363,145.65,-0.0404612,0.0,0.0
750,187.25,63.6487,72.0393,150.112,99.6954,100.118,0.00829287,0.125714,20.8366,145.73,-0.0379219,0.0,0.0
753,188,63.6261,71.4742,153.041,99.6958,100.051,0.00839698,0.124991,20.8371,145.7,-0.031834,0.0,0.0
756,188.75,62.9555,71.4455,148.995,99.6892,100.115,0.00848386,0.124333,20.8378,145.62,-0.0382082,0.0,0.0
759,189.5,63.2366,70.5544,154.33,99.7004,100.124,0.00855106,0.123797,20.8384,145.6,-0.0380221,0.0,0.0
762,190.25,62.6047,70.3474,151.202,99.6892,100.049,0.0086017,0.123186,20.8388,145.62,-0.0322349,0.0,0.0
765,191,62.1722,70.0696,152.32,99.7012,100.153,0.00863861,0.122586,20.8397,145.68,-0.0404832,0.0,0.0
768,191.75,62.0504,69.7617,146.782,99.6954,100.136,0.00868206,0.122043,20.8404,145.58,-0.039483,0.0,0.0
771,192.5,61.7094,68.9901,151.591,99.6942,100.033,0.00873307,0.121521,20.8409,145.55,-0.0303814,0.0,0.0
774,193.25,61.5385,69.0675,147.616,99.6925,100.054,0.00879412,0.121083,20.8412,145.6,-0.0324053,0.0,0.0
777,194,60.9502,68.2646,151.278,99.7058,100.118,0.00886532,0.120636,20.8415,145.62,-0.0369513,0.0,0.0
780,194.75,60.5374,68.0772,153.655,99.7046,100.148,0.00895596,0.120267,20.8421,145.61,-0.0397173,0.0,0.0
783,195.5,60.163,67.7007,151.561,99.69,100.019,0.00903854,0.119749,20.8428,145.5,-0.0295039,0.0,0.0
786,196.25,59.6423,67.4394,150.973,99.7008,100.098,0.00912732,0.119265,20.8433,145.5,-0.035603,0.0,0.0
789,197,59.4146,67.1155,154.583,99.705,100.11,0.00924089,0.118766,20.844,145.59,-0.0363235,0.0,0.0
792,197.75,59.1369,66.6637,151.268,99.7075,100.021,0.00934398,0.118271,20.8448,145.57,-0.0281341,0.0,0.0
795,198.5,59.0306,66.6619,149.445,99.6921,100.164,0.00941301,0.117792,20.846,145.48,-0.0423173,0.0,0.0
798,199.25,58.7907,65.6059,153.785,99.7211,100.119,0.00945285,0.117268,20.8469,145.46,-0.0356898,0.0,0.0
801,200,58.7264,65.626,151.465,99.7158,100.264,0.00943947,0.116708,20.8475,145.58,-0.049122,0.0,0.0
804,200.75,58.3145,65.2988,151.903,99.7104,100.1,0.0093855,0.116242,20.848,145.55,-0.0349415,0.0,0.0
807,201.5,58.0587,65.0994,150.604,99.7004,100.097,0.009338,0.115875,20.8489,145.44,-0.0355236,0.0,0.0
810,202.25,57.6397,65.0119,150.658,99.695,100.137,0.00928942,0.115639,20.8496,145.43,-0.0396385,0.0,0.0
813,203,57.6408,63.8377,153.284,99.7133,100.046,0.00925741,0.115519,20.8501,145.53,-0.0297996,0.0,0.0
816,203.75,57.0011,63.8443,151.555,99.7182,100.08,0.00923988,0.115417,20.8505,145.52,-0.0323983,0.0,0.0
819,204.5,57.0753,63.6647,149.795,99.7133,100.097,0.00922846,0.115337,20.8508,145.42,-0.0343679,0.0,0.0
822,205.25,56.8386,63.5006,151.995,99.7091,100.012,0.00922246,0.115217,20.851,145.4,-0.0272038,0.0,0.0
825,206,57.1663,62.7861,147.985,99.7166,100.048,0.00921292,0.115024,20.8503,145.45,-0.0296967,0.0,0.0
828,206.75,56.7663,62.6557,149.532,99.7303,100.08,0.00920377,0.1148,20.8498,145.45,-0.0313957,0.0,0.0
831,207.5,55.9731,62.5033,151.369,99.727,100.069,0.009212,0.114663,20.8496,145.389,-0.0307179,0.0,0.0
834,208.25,55.7978,62.4789,149.417,99.7162,100.083,0.00923647,0.114475,20.8493,145.319,-0.0328967,0.0,0.0
837,209,55.0375,62.3628,159.063,99.7232,100.014,0.00927988,0.11428,20.8491,145.359,-0.0260534,0.0,0.0
840,209.75,55.1927,61.9989,149.253,99.7303,100.123,0.00934103,0.114115,20.8489,145.379,-0.0351822,0.0,0.0
843,210.5,55.1934,61.4231,150.251,99.7361,100.039,0.0093856,0.114056,20.849,145.369,-0.0272032,0.0,0.0
846,211.25,55.1777,60.8566,155.602,99.7332,100.044,0.00944393,0.114021,20.8491,145.279,-0.0278942,0.0,0.0
849,212,54.8957,60.8694,153.137,99.7377,100.122,0.00950068,0.114009,20.8498,145.259,-0.034473,0.0,0.0
852,212.75,55.1004,60.3443,153.435,99.7531,100.035,0.00955562,0.114,20.8503,145.339,-0.0252855,0.0,0.0
855,213.5,54.2437,60.5354,148.372,99.7489,100.115,0.00960848,0.113949,20.8507,145.349,-0.0328035,0.0,0.0
858,214.25,54.1306,60.3726,146.988,99.7435,99.9666,0.0096544,0.113848,20.851,145.239,-0.0200074,0.0,0.0
861,215,54.1917,60.1909,151.047,99.7527,100.091,0.00968038,0.113695,20.8512,145.219,-0.03036,0.0,0.0
864,215.75,53.6612,59.7222,152.311,99.7684,100.155,0.00968651,0.113438,20.8513,145.319,-0.0346815,0.0,0.0
867,216.5,53.4102,59.2395,149.442,99.7726,100.207,0.00965863,0.113189,20.8514,145.299,-0.0389509,0.0,0.0
870,217.25,52.9797,59.4871,152.713,99.761,100.063,0.00962451,0.112799,20.852,145.199,-0.0270774,0.0,0.0
873,218,53.4066,58.9976,160.464,99.7639,100.201,0.00955908,0.112484,20.8525,145.179,-0.0391869,0.0,0.0
876,218.75,52.9376,58.5653,148.203,99.7771,100.023,0.00950389,0.112202,20.8529,145.289,-0.022031,0.0,0.0
879,219.5,52.9048,58.3457,149.566,99.8008,100.211,0.00945087,0.111953,20.8533,145.279,-0.0367691,0.0,0.0
882,220.25,53.0073,58.0873,153.042,99.7867,100.083,0.00939748,0.111752,20.8535,145.159,-0.0266034,0.0,0.0
885,221,52.7232,58.0204,148.095,99.7788,100.038,0.00935339,0.111606,20.8543,145.129,-0.0232108,0.0,0.0
888,221.75,52.2128,57.9074,152.046,99.8033,100.249,0.00932244,0.111541,20.8548,145.179,-0.0398981,0.0,0.0
891,222.5,51.8568,57.5599,148.048,99.7942,100.188,0.00930569,0.111479,20.8553,145.199,-0.035298,0.0,0.0
894,223.25,52.4228,57.1672,148.543,99.7929,100.121,0.00932297,0.111428,20.8556,145.179,-0.0294401,0.0,0.0
897,224,51.7422,56.9361,150.252,99.7979,100.041,0.00933556,0.111474,20.8558,145.079,-0.0217709,0.0,0.0
900,224.75,51.9043,56.572,149.295,99.8066,100.333,0.00938162,0.111507,20.856,145.169,-0.0471593,0.0,0.0
903,225.5,51.4141,56.6856,156.011,99.8215,100.219,0.0094318,0.111531,20.8561,145.149,-0.0355708,0.0,0.0
906,226.25,51.6441,56.2933,152.283,99.8136,100.104,0.00946838,0.111653,20.8562,145.159,-0.0259785,0.0,0.0
909,227,51.1232,56.1274,157.472,99.8153,100.103,0.00951165,0.111757,20.8562,145.049,-0.0257514,0.0,0.0
912,227.75,51.1307,55.4115,154.896,99.8166,100.145,0.0095432,0.111859,20.8563,145.069,-0.0293866,0.0,0.0
915,228.5,50.8423,55.7472,149.221,99.8419,100.018,0.00959467,0.111933,20.8563,145.119,-0.015755,0.0,0.0
918,229.25,50.9022,55.4783,149.648,99.8377,100.168,0.00965729,0.111988,20.856,145.129,-0.0295949,0.0,0.0
921,230,50.2694,55.2128,152.673,99.8236,100.15,0.0097251,0.111938,20.8556,145.029,-0.0292221,0.0,0.0
924,230.75,50.1905,55.115,153.07,99.8319,100.025,0.00979656,0.111865,20.8553,145.019,-0.0173122,0.0,0.0
927,231.5,50.3732,54.7163,151.297,99.8472,100.138,0.00985805,0.111686,20.8549,145.099,-0.026047,0.0,0.0
930,232.25,50.2119,54.405,152.702,99.8477,100.11,0.00990676,0.111556,20.8546,145.069,-0.0234731,0.0,0.0
933,233,50.2941,54.2393,151.433,99.8526,100.19,0.00993029,0.111337,20.8543,144.979,-0.0302052,0.0,0.0
936,233.75,49.9066,54.2701,149.639,99.8535,100.083,0.00992411,0.11106,20.8544,144.929,-0.0205698,0.0,0.0
939,234.5,49.695,53.8747,155.516,99.868,100.177,0.00987897,0.11074,20.8548,145.029,-0.0276976,0.0,0.0
942,235.25,49.2801,53.7953,149.782,99.8763,100.032,0.00982665,0.110388,20.8551,145.009,-0.0139156,0.0,0.0
945,236,48.8631,54.2164,152.73,99.8655,100.143,0.00977682,0.109987,20.8554,144.919,-0.024878,0.0,0.0
948,236.75,49.3091,53.4028,154.045,99.8655,100.219,0.00973467,0.109648,20.8558,144.909,-0.0316256,0.0,0.0
951,237.5,49.358,53.2863,151.111,99.8862,100.148,0.00972207,0.109323,20.8565,144.979,-0.0234464,0.0,0.0
954,238.25,48.6792,53.375,150.365,99.9157,100.206,0.0097206,0.109173,20.857,144.979,-0.0260325,0.0,0.0
957,239,48.5585,52.912,148.841,99.8991,100.173,0.00976386,0.10917,20.8573,144.869,-0.0245177,0.0,0.0
960,239.75,48.8398,52.3394,151.291,99.9082,100.168,0.00980903,0.109285,20.8576,144.859,-0.0232312,0.0,0.0
963,240.5,48.9117,52.5208,151.293,99.9086,100.271,0.00988928,0.109386,20.8578,144.949,-0.0323946,0.0,0.0
966,241.25,48.2469,52.0309,149.849,99.9443,100.329,0.00993033,0.109473,20.8579,144.929,-0.0344178,0.0,0.0
969,242,47.229,51.5469,150.668,99.9265,100.168,0.00997645,0.10955,20.8583,144.829,-0.0216333,0.0,0.0
972,242.75,47.7035,51.5566,151.499,99.9472,100.131,0.00999792,0.109606,20.8585,144.819,-0.0164579,0.0,0.0
975,243.5,47.3609,51.26,152.286,99.9526,100.283,0.00999374,0.109655,20.8587,144.909,-0.0295446,0.0,0.0
978,244.25,47.262,51.5446,153.395,99.9621,100.213,0.00996736,0.109703,20.8588,144.919,-0.0224137,0.0,0.0
981,245,47.3381,51.393,152.312,99.958,100.224,0.0099382,0.109738,20.8589,144.879,-0.0238383,0.0,0.0
984,245.75,47.0009,50.9682,153,99.9584,100.045,0.00989846,0.109734,20.859,144.799,-0.00772385,0.0,0.0
987,246.5,47.0976,50.6879,151.079,99.9742,100.288,0.00986561,0.109678,20.859,144.849,-0.0280404,0.0,0.0
990,247.25,47.0681,50.4996,152.33,99.9928,100.17,0.00984,0.109608,20.8591,144.839,-0.0158807,0.0,0.0
993,248,46.738,50.7474,153.984,99.9858,100.187,0.00983611,0.109521,20.8591,144.819,-0.0179943,0.0,0.0
996,248.75,46.9873,50.637,152.413,99.9841,100.251,0.00985919,0.109419,20.8591,144.739,-0.0238356,0.0,0.0
999,249.5,46.4919,49.9602,151.182,99.9995,100.262,0.0099048,0.109241,20.8591,144.779,-0.0234737,0.0,0.0
1002,250.25,46.6465,50.3059,148.846,100.013,100.327,0.00994938,0.109165,20.8592,144.809,-0.0281288,0.0,0.0
1005,251,46.4693,49.8231,157.863,100.019,100.329,0.0100009,0.109097,20.8592,144.789,-0.0277662,0.0,0.0
1008,251.75,46.3522,49.931,153.17,100.009,100.224,0.0101106,0.109047,20.8592,144.669,-0.0191913,0.0,0.0
1011,252.5,46.2246,50.1068,154.169,100.03,100.283,0.0101906,0.10903,20.8592,144.679,-0.0225952,0.0,0.0
1014,253.25,45.8707,49.7953,152.449,100.03,100.337,0.0102601,0.108987,20.8592,144.749,-0.027501,0.0,0.0
1017,254,46.1183,49.5054,152.568,100.035,100.262,0.0102977,0.108903,20.8592,144.759,-0.0203162,0.0,0.0
1020,254.75,46.2516,49.4817,149.567,100.037,100.313,0.0103128,0.108842,20.8592,144.659,-0.0246521,0.0,0.0
1023,255.5,46.2695,49.8397,152.018,100.038,100.386,0.0103121,0.108754,20.8592,144.639,-0.0310431,0.0,0.0
1026,256.25,45.9034,49.4655,148.909,100.06,100.434,0.0102986,0.108625,20.8592,144.719,-0.033468,0.0,0.0
1029,257,46.3122,49.0291,149.953,100.068,100.305,0.0102823,0.108452,20.8592,144.709,-0.0212394,0.0,0.0
1032,257.75,45.9635,48.8511,150.291,100.057,100.258,0.0102677,0.108243,20.8592,144.619,-0.0179959,0.0,0.0
1035,258.5,46.0136,48.697,150.749,100.062,100.324,0.0102329,0.108091,20.8592,144.589,-0.0233971,0.0,0.0
1038,259.25,45.877,48.383,152.484,100.082,100.336,0.0102076,0.108146,20.8596,144.679,-0.0227065,0.0,0.0
1041,260,45.5026,48.8943,152.137,100.096,100.259,0.0101411,0.10824,20.8601,144.669,-0.0146237,0.0,0.0
1044,260.75,45.5643,48.6777,150.797,100.085,100.499,0.0100796,0.1084,20.8605,144.609,-0.0369589,0.0,0.0
1047,261.5,45.5293,48.6857,147.296,100.097,100.405,0.0100126,0.108502,20.8608,144.549,-0.0275567,0.0,0.0
1050,262.25,45.1493,48.2592,151.468,100.113,100.337,0.00995475,0.108563,20.861,144.609,-0.0200357,0.0,0.0
1053,263,45.01,47.9248,151.884,100.129,100.284,0.00990665,0.108594,20.8611,144.619,-0.0138376,0.0,0.0
1056,263.75,44.8129,48.3024,150.219,100.131,100.323,0.00986808,0.108602,20.8608,144.589,-0.0171196,0.0,0.0
1059,264.5,45.1035,48.0418,151.009,100.118,100.35,0.00984551,0.108529,20.8604,144.499,-0.0207197,0.0,0.0
1062,265.25,44.7443,48.0015,151.79,100.132,100.359,0.00983294,0.108445,20.86,144.519,-0.020276,0.0,0.0
1065,266,44.8116,47.749,154.957,100.138,100.401,0.00982544,0.108176,20.8602,144.579,-0.0234555,0.0,0.0
1068,266.75,44.6179,47.6905,157.675,100.145,100.446,0.00983289,0.10798,20.8606,144.559,-0.0268717,0.0,0.0
1071,267.5,44.7413,47.3443,149.886,100.152,100.318,0.00985129,0.107837,20.8608,144.459,-0.0148334,0.0,0.0
1074,268.25,45.1492,47.3975,151.067,100.158,100.466,0.00986456,0.107793,20.8607,144.449,-0.0275482,0.0,0.0
1077,269,44.3601,47.4703,151.043,100.181,100.38,0.00989803,0.107719,20.8603,144.539,-0.017768,0.0,0.0
1080,269.75,44.5615,47.615,148.289,100.162,100.365,0.00993154,0.107626,20.8605,144.539,-0.0181131,0.0,0.0
1083,270.5,44.3429,47.1644,154.67,100.159,100.355,0.0099583,0.107515,20.8607,144.419,-0.0175128,0.0,0.0
1086,271.25,44.0331,47.3676,150.82,100.155,100.308,0.00995932,0.107415,20.861,144.439,-0.0136782,0.0,0.0
1089,272,43.9804,46.7235,150.085,100.178,100.49,0.00994915,0.107259,20.8611,144.499,-0.0278294,0.0,0.0
1092,272.75,43.7159,46.1987,156.172,100.17,100.464,0.00992308,0.107131,20.8612,144.499,-0.0262419,0.0,0.0
1095,273.5,44.2082,46.418,155.88,100.165,100.347,0.00988595,0.107031,20.8613,144.379,-0.0162578,0.0,0.0
1098,274.25,43.3328,46.3349,151.778,100.17,100.35,0.00985115,0.107061,20.8614,144.389,-0.0161588,0.0,0.0
1101,275,43.6137,46.6382,155.634,100.179,100.406,0.00983668,0.107125,20.8614,144.469,-0.0202883,0.0,0.0
1104,275.75,43.7654,46.4103,153.816,100.186,100.437,0.00984479,0.107231,20.8613,144.449,-0.0224186,0.0,0.0
1107,276.5,43.9974,46.0979,150.15,100.182,100.324,0.00988951,0.107302,20.8612,144.349,-0.0127076,0.0,0.0
1110,277.25,43.9047,46.2084,151.104,100.182,100.347,0.00993713,0.107301,20.8605,144.349,-0.014736,0.0,0.0
1113,278,43.4622,45.6283,150.417,100.202,100.462,0.0100037,0.107155,20.8599,144.449,-0.023267,0.0,0.0
1116,278.75,43.5401,45.7594,151.879,100.202,100.471,0.0100627,0.107019,20.8596,144.429,-0.0240085,0.0,0.0
1119,279.5,43.2341,45.883,149.656,100.198,100.494,0.0101057,0.106867,20.8599,144.319,-0.0264776,0.0,0.0
1122,280.25,43.3752,45.9794,151.819,100.2,100.421,0.010137,0.106785,20.8602,144.289,-0.0196815,0.0,0.0
1125,281,43.3687,45.8246,158.732,100.2,100.418,0.0101417,0.106776,20.8604,144.389,-0.0195236,0.0,0.0
1128,281.75,43.3101,45.3287,158.239,100.211,100.463,0.0101374,0.106835,20.8605,144.389,-0.0225668,0.0,0.0
1131,282.5,42.9657,45.1415,154.337,100.223,100.378,0.0101047,0.106966,20.8606,144.309,-0.0138664,0.0,0.0
1134,283.25,43.3254,45.5219,153.76,100.216,100.456,0.0100586,0.107108,20.8607,144.258,-0.0214219,0.0,0.0
1137,284,43.1801,45.626,152.343,100.211,100.299,0.0100147,0.107224,20.861,144.339,-0.00793014,0.0,0.0
1140,284.75,43.2874,45.3935,148.041,100.23,100.42,0.00997211,0.107288,20.8612,144.329,-0.0170094,0.0,0.0
1143,285.5,42.6165,45.3602,149.935,100.216,100.481,0.00993057,0.107291,20.8613,144.289,-0.0237162,0.0,0.0
1146,286.25,42.5816,45.0909,159.032,100.201,100.252,0.00989105,0.107228,20.8614,144.188,-0.00453767,0.0,0.0
1149,287,42.8003,44.9635,150.703,100.228,100.551,0.00987086,0.107141,20.8615,144.238,-0.0288219,0.0,0.0
1152,287.75,42.8639,44.6221,150.555,100.224,100.432,0.00986045,0.106995,20.8615,144.279,-0.0185786,0.0,0.0
1155,288.5,43.0764,44.5627,151.147,100.23,100.426,0.00985696,0.10681,20.8616,144.268,-0.0174786,0.0,0.0
1158,289.25,43.146,44.834,151.12,100.23,100.394,0.00986141,0.106675,20.8616,144.158,-0.0147136,0.0,0.0
1161,290,42.6981,44.5678,153.809,100.217,100.36,0.00985541,0.106576,20.8617,144.148,-0.0127889,0.0,0.0
1164,290.75,42.7521,44.4006,150.584,100.236,100.368,0.00984763,0.106525,20.8617,144.248,-0.0117832,0.0,0.0
1167,291.5,42.5687,44.6834,155.299,100.229,100.356,0.00983613,0.106474,20.8617,144.228,-0.0113255,0.0,0.0
1170,292.25,42.2974,44.7079,152.513,100.227,100.423,0.00983514,0.10643,20.8617,144.138,-0.0175027,0.0,0.0
1173,293,42.6391,44.678,151.504,100.217,100.45,0.00984464,0.106377,20.8623,144.158,-0.0208042,0.0,0.0
1176,293.75,42.5484,44.2491,147.854,100.234,100.361,0.00986906,0.10628,20.8628,144.208,-0.0113079,0.0,0.0
1179,294.5,42.5674,44.2666,156.237,100.232,100.593,0.00989914,0.106185,20.8631,144.178,-0.032222,0.0,0.0
1182,295.25,42.1282,44.5257,150.289,100.236,100.517,0.00994206,0.106199,20.8629,144.128,-0.0251634,0.0,0.0
1185,296,42.0261,44.1625,154.777,100.231,100.554,0.0099863,0.106216,20.8628,144.088,-0.0287603,0.0,0.0
1188,296.75,42.1519,44.0149,154.212,100.233,100.434,0.0100302,0.106212,20.8632,144.148,-0.0179564,0.0,0.0
1191,297.5,42.1568,43.8046,150.91,100.241,100.467,0.0100672,0.106156,20.8634,144.158,-0.0201711,0.0,0.0
1194,298.25,41.8087,43.7258,155.492,100.242,100.391,0.0101046,0.106115,20.8636,144.078,-0.0132894,0.0,0.0
1197,299,42.3446,43.7427,151.849,100.233,100.545,0.0101301,0.106065,20.8637,144.028,-0.0278347,0.0,0.0
1200,299.75,42.1008,43.7026,153.738,100.246,100.411,0.0101382,0.105997,20.8637,144.088,-0.0146708,0.0,0.0
1203,300.5,41.9117,43.4484,152.629,100.254,100.5,0.0101311,0.105896,20.8638,144.118,-0.022016,0.0,0.0
1206,301.25,41.8995,43.4808,156.733,100.253,100.456,0.0101204,0.105735,20.8638,144.088,-0.0180853,0.0,0.0
1209,302,41.6067,43.882,154.879,100.247,100.408,0.0101165,0.10558,20.8638,144.008,-0.0144002,0.0,0.0
1212,302.75,41.7349,44.0203,151.505,100.243,100.394,0.0101153,0.10553,20.8638,144.018,-0.0135274,0.0,0.0
1215,303.5,41.7707,43.1338,154.604,100.259,100.38,0.0101219,0.105523,20.8638,144.058,-0.0107973,0.0,0.0
1218,304.25,41.3837,43.3608,153.022,100.256,100.371,0.0101214,0.105569,20.8638,144.028,-0.0102392,0.0,0.0
1221,305,41.7528,43.1292,147.099,100.245,100.346,0.0101189,0.105582,20.8637,143.958,-0.00905786,0.0,0.0
1224,305.75,41.7333,43.1009,149.082,100.265,100.325,0.0100912,0.105547,20.8635,143.928,-0.00537218,0.0,0.0
1227,306.5,41.345,42.7829,149.6,100.267,100.433,0.0100516,0.105466,20.8634,144.018,-0.0147655,0.0,0.0
1230,307.25,41.5717,43.2025,151.22,100.273,100.422,0.010011,0.105341,20.8633,144.018,-0.0133493,0.0,0.0
1233,308,41.4121,42.9791,156.426,100.267,100.427,0.00997553,0.105192,20.8632,143.898,-0.0142959,0.0,0.0
1236,308.75,41.825,42.8359,152.399,100.244,100.38,0.00995488,0.105058,20.8631,143.898,-0.0120927,0.0,0.0
1239,309.5,41.5705,42.6886,151.951,100.26,100.423,0.00994204,0.105004,20.8631,143.978,-0.0145387,0.0,0.0
1242,310.25,41.2376,43.0322,151.386,100.277,100.384,0.00993453,0.104984,20.8631,143.948,-0.00963033,0.0,0.0
1245,311,40.9715,42.6324,152.522,100.252,100.499,0.00993294,0.105051,20.863,143.848,-0.0220085,0.0,0.0
1248,311.75,40.7957,42.4731,155.428,100.258,100.459,0.00992867,0.105115,20.863,143.858,-0.0179901,0.0,0.0
1251,312.5,40.9483,42.5025,151.467,100.279,100.37,0.00991739,0.105125,20.863,143.948,-0.00816155,0.0,0.0
1254,313.25,41.1065,42.6725,153.737,100.273,100.412,0.00988699,0.105113,20.863,143.938,-0.0123777,0.0,0.0
1257,314,41.2467,42.2001,154.966,100.272,100.382,0.00985393,0.105065,20.863,143.828,-0.00984147,0.0,0.0
1260,314.75,41.0082,42.818,153.324,100.266,100.351,0.00981118,0.105075,20.863,143.808,-0.00759506,0.0,0.0
1263,315.5,41.3936,42.6174,150.236,100.284,100.404,0.00978138,0.105162,20.863,143.918,-0.0107123,0.0,0.0
1266,316.25,41.0247,42.4317,151.958,100.287,100.357,0.00976198,0.105239,20.8632,143.888,-0.00625271,0.0,0.0
1269,317,41.161,42.0565,156.741,100.28,100.453,0.00975707,0.105302,20.8634,143.798,-0.0154431,0.0,0.0
1272,317.75,40.7764,42.4037,156.667,100.27,100.398,0.00975479,0.105348,20.8635,143.758,-0.0114292,0.0,0.0
1275,318.5,40.7596,42.546,152.636,100.288,100.347,0.00974822,0.105319,20.8636,143.858,-0.00528295,0.0,0.0
1278,319.25,40.754,42.0811,154.406,100.287,100.353,0.00973412,0.105298,20.8637,143.858,-0.00586319,0.0,0.0
1281,320,40.7269,42.4361,155.995,100.28,100.414,0.00971607,0.105282,20.8637,143.768,-0.0119425,0.0,0.0
1284,320.75,40.7775,42.2085,151.187,100.274,100.379,0.0096996,0.105286,20.8638,143.718,-0.0093481,0.0,0.0
1287,321.5,40.8867,42.3385,154.202,100.275,100.359,0.00970463,0.105316,20.8638,143.768,-0.00748123,0.0,0.0
1290,322.25,41.4479,42.08,155.398,100.287,100.465,0.00973743,0.105321,20.8642,143.798,-0.0158625,0.0,0.0
1293,323,40.5111,42.1655,154.495,100.286,100.34,0.00978077,0.1053,20.8644,143.758,-0.00484272,0.0,0.0
1296,323.75,40.8934,42.1637,150.804,100.27,100.456,0.00982064,0.105211,20.8646,143.678,-0.0166039,0.0,0.0
1299,324.5,40.7321,41.9758,151.089,100.282,100.501,0.00983715,0.105144,20.8647,143.718,-0.0194974,0.0,0.0
1302,325.25,40.8782,41.939,152.441,100.291,100.432,0.00985076,0.104899,20.8648,143.748,-0.0125729,0.0,0.0
1305,326,40.696,42.0023,153.938,100.288,100.408,0.00985135,0.104721,20.8647,143.748,-0.0107326,0.0,0.0
1308,326.75,40.6712,41.9686,151.301,100.277,100.355,0.00983701,0.10459,20.8646,143.638,-0.00690836,0.0,0.0
1311,327.5,40.3511,41.7693,151.878,100.283,100.376,0.00981878,0.104454,20.8645,143.618,-0.00833418,0.0,0.0
1314,328.25,40.1553,41.7612,154.668,100.281,100.363,0.00980219,0.104384,20.8645,143.708,-0.00731289,0.0,0.0
1317,329,40.6969,41.4038,151.12,100.285,100.357,0.00978455,0.104345,20.8644,143.708,-0.00636065,0.0,0.0
1320,329.75,40.2045,41.6734,150.793,100.283,100.426,0.00977169,0.104296,20.8644,143.608,-0.0127344,0.0,0.0
1323,330.5,40.5172,41.9099,152.488,100.274,100.502,0.00974939,0.104252,20.8644,143.578,-0.0203541,0.0,0.0
1326,331.25,39.8208,41.628,152.496,100.291,100.405,0.00974608,0.104208,20.8643,143.668,-0.0102381,0.0,0.0
1329,332,40.2765,41.3586,160.467,100.288,100.459,0.00974918,0.104237,20.8643,143.648,-0.0152832,0.0,0.0
1332,332.75,40.5998,41.3187,154.435,100.283,100.468,0.00980872,0.104259,20.8643,143.558,-0.0164686,0.0,0.0
1335,333.5,39.9422,41.5216,149,100.287,100.348,0.00987545,0.104274,20.8643,143.538,-0.00550895,0.0,0.0
1338,334.25,40.7302,41.6126,151.993,100.309,100.521,0.00995255,0.104253,20.8643,143.628,-0.0189152,0.0,0.0
1341,335,40.2026,40.9857,152.613,100.31,100.459,0.010031,0.104214,20.8643,143.608,-0.0133194,0.0,0.0
1344,335.75,39.876,40.9421,151.762,100.296,100.485,0.0100739,0.104159,20.8643,143.558,-0.0167997,0.0,0.0
1347,336.5,40.1706,40.7467,150.051,100.301,100.407,0.010099,0.104191,20.8643,143.478,-0.00950471,0.0,0.0
1350,337.25,39.8987,41.1985,151.749,100.311,100.452,0.0100471,0.104246,20.8648,143.548,-0.0126226,0.0,0.0
1353,338,40.2641,41.0263,153.56,100.322,100.365,0.00997821,0.1041,20.8653,143.578,-0.00383946,0.0,0.0
1356,338.75,39.9843,40.964,149.272,100.311,100.504,0.0099079,0.103806,20.8656,143.528,-0.0172159,0.0,0.0
1359,339.5,40.3852,40.9702,160.267,100.311,100.442,0.009845,0.103593,20.8659,143.448,-0.0117297,0.0,0.0
1362,340.25,39.9136,40.9318,152.212,100.323,100.457,0.00981576,0.103437,20.8661,143.488,-0.0119393,0.0,0.0
1365,341,40.0826,40.6157,153.051,100.338,100.35,0.00981557,0.103448,20.8663,143.518,-0.00114702,0.0,0.0
1368,341.75,39.34,40.9307,153.921,100.332,100.461,0.00987819,0.103557,20.8664,143.488,-0.0115137,0.0,0.0
1371,342.5,39.7993,40.9503,154.486,100.335,100.417,0.00996935,0.10368,20.8664,143.398,-0.00724876,0.0,0.0
1374,343.25,39.835,40.8327,153.404,100.338,100.572,0.0100358,0.10377,20.8665,143.378,-0.0208706,0.0,0.0
1377,344,39.1396,40.4235,155.476,100.345,100.347,0.0100843,0.103835,20.8665,143.468,-0.000170869,0.0,0.0
1380,344.75,39.1674,40.7013,148.299,100.342,100.432,0.0102214,0.103852,20.8666,143.478,-0.0080568,0.0,0.0
1383,345.5,39.7365,41.0334,154.181,100.333,100.454,0.0103221,0.103812,20.8665,143.358,-0.0108171,0.0,0.0
1386,346.25,39.4217,40.7949,154.806,100.336,100.411,0.0103967,0.103756,20.8665,143.348,-0.00666897,0.0,0.0
1389,347,39.7817,40.4474,152.729,100.353,100.415,0.0104344,0.10368,20.8667,143.428,-0.00549933,0.0,0.0
1392,347.75,39.284,40.5264,151.035,100.355,100.487,0.0104424,0.103585,20.8668,143.418,-0.0118473,0.0,0.0
1395,348.5,39.5081,40.1395,153.515,100.343,100.452,0.0104324,0.103537,20.8668,143.338,-0.00977252,0.0,0.0
1398,349.25,39.4621,40.399,149.298,100.35,100.519,0.0104122,0.103443,20.8669,143.318,-0.0150912,0.0,0.0
1401,350,39.3174,40.317,151.916,100.367,100.425,0.010379,0.103351,20.8669,143.408,-0.0052135,0.0,0.0
1404,350.75,39.5666,40.4945,158.61,100.377,100.516,0.0103548,0.103138,20.867,143.388,-0.0124119,0.0,0.0
1407,351.5,39.3879,40.4992,150.664,100.373,100.527,0.0103242,0.102983,20.867,143.278,-0.0137953,0.0,0.0
1410,352.25,39.5911,40.6009,150.946,100.389,100.388,0.010298,0.102901,20.867,143.268,0.000132421,0.0,0.0
1413,353,39.6542,40.7532,155.661,100.379,100.562,0.0102745,0.102893,20.867,143.368,-0.0162728,0.0,0.0
1416,353.75,39.6013,40.3714,155.508,100.39,100.572,0.0102527,0.102916,20.867,143.348,-0.0161647,0.0,0.0
1419,354.5,39.3516,40.4793,152.684,100.412,100.374,0.0102368,0.102953,20.867,143.258,0.00341669,0.0,0.0
1422,355.25,39.4192,40.9263,151.853,100.408,100.391,0.0102286,0.102994,20.867,143.238,0.00152806,0.0,0.0
1425,356,39.4779,40.528,149.727,100.406,100.498,0.0102285,0.103081,20.867,143.328,-0.0082663,0.0,0.0
1428,356.75,39.0237,39.8657,155.446,100.434,100.529,0.0102488,0.103169,20.867,143.318,-0.0084726,0.0,0.0
1431,357.5,39.4338,40.7534,154.121,100.423,100.566,0.0102636,0.103234,20.867,143.228,-0.0127381,0.0,0.0
1434,358.25,39.2595,40.2159,153.871,100.421,100.518,0.0102799,0.103208,20.867,143.198,-0.00872167,0.0,0.0
1437,359,39.5094,40.1008,152.311,100.423,100.635,0.0102814,0.103143,20.867,143.268,-0.0188734,0.0,0.0
1440,359.75,39.2597,39.8542,150.865,100.452,100.625,0.0102586,0.10307,20.8664,143.258,-0.0153902,0.0,0.0
1443,360.5,38.978,40.313,150.31,100.438,100.497,0.0102337,0.103037,20.8659,143.228,-0.00533905,0.0,0.0