File: 01_Data/Masonite_Board/Cone/Masonite_Cone_HF50Scan_221212_R1.csv
Names,Time,Stack TC,Smoke TC,Exh Press,Smoke Comp,Smoke Meas,CO Meter,CO2 Meter,O2 Meter,Sample Mass,Ext Coeff,Start Test,Flame Verif
Chan Gain,,500,500,1,1,1,1,1,1,1,1,1.0,1.0
Offset,,0,0,0.131978,0,0,0,0,0,0,0,0.0,0.0
Gain,,1,1,25.011,13.4278,14.1503,1,1,1,1.00089,1.02125,1.0,1.0
Units,sec,C,C,Pa,%,%,%,%,%,g,/m,,
Baseline,,30.6781,31.5392,156.571,99.8918,99.8833,0.000952378,0.0476023,20.9377,-448.047,0.000771405,,
3,0.5,29.818,30.7036,156.833,100.117,100.079,0.000901588,0.0545599,20.9296,80.3516,0.00346793,0.0,0.0
6,1.25,29.8568,30.8085,160.006,100.038,100.041,0.00089484,0.0544332,20.9296,80.2415,-0.000246159,0.0,0.0
9,2,29.9491,31.5842,155.631,99.9678,99.9612,0.000896116,0.0543281,20.9295,80.2615,0.000594811,0.0,0.0
12,2.75,29.9314,30.9356,157.084,99.9006,99.8942,0.000904253,0.0542941,20.9295,80.2615,0.000571318,0.0,0.0
15,3.5,29.6651,31.1159,160.226,99.9117,99.8739,0.000917994,0.0543099,20.9295,80.2615,0.0033836,0.0,0.0
18,4.25,30.1162,30.6184,157.371,99.9371,99.9193,0.000949231,0.0543599,20.9295,80.2515,0.00159533,0.0,0.0
21,5,29.9584,31.1324,153.676,99.9793,100.08,0.000981795,0.0544166,20.9295,80.2315,-0.00901296,0.0,0.0
24,5.75,29.5679,31.2773,153.729,100.009,99.9508,0.00102228,0.0544729,20.9295,80.2415,0.00523234,0.0,0.0
27,6.5,29.9452,30.7526,156.305,100.04,99.9862,0.0010629,0.0545395,20.9295,80.2014,0.00481182,0.0,0.0
30,7.25,30.2572,30.7278,157.772,100.079,99.9499,0.00111999,0.0545028,20.9295,80.1714,0.0115464,0.0,0.0
33,8,29.9328,30.5643,155.291,100.133,100.051,0.00117613,0.0543947,20.9295,80.1514,0.00741043,0.0,0.0
36,8.75,30.0934,31.2763,153.78,100.18,100.034,0.00124191,0.0542392,20.9295,80.1214,0.0130597,0.0,0.0
39,9.5,30.5063,31.1661,155.756,100.227,100.032,0.00131027,0.0540547,20.9295,80.0913,0.0174648,0.0,0.0
42,10.25,29.9754,30.8158,158.96,100.271,100.079,0.00137688,0.0538376,20.9295,80.0713,0.0172058,0.0,0.0
45,11,30.2794,30.6582,157.451,100.326,100.022,0.00143254,0.0535898,20.9295,80.0513,0.0272524,0.0,0.0
48,11.75,29.9015,30.6893,153.88,100.384,100.158,0.0014633,0.0533281,20.9295,80.0513,0.0202356,0.0,0.0
51,12.5,30.1886,30.7704,158.976,100.42,100.087,0.00146894,0.0531298,20.9301,80.0513,0.0297508,0.0,0.0
54,13.25,30.544,31.1617,153.77,100.461,100.107,0.00145017,0.0529725,20.9306,80.0313,0.0316303,0.0,0.0
57,14,30.0487,30.8004,152.652,100.51,100.076,0.00139735,0.0529288,20.9309,80.0013,0.0387563,0.0,0.0
60,14.75,30.2693,31.431,155.326,100.544,99.9875,0.0013323,0.0529273,20.9312,79.9812,0.0497176,0.0,0.0
63,15.5,30.2678,31.1831,158.882,100.569,99.886,0.00128096,0.0528654,20.9314,79.9512,0.061041,0.0,0.0
66,16.25,30.3916,30.9117,156.316,100.612,99.9244,0.00122757,0.0527473,20.9307,79.9512,0.0613899,0.0,0.0
69,17,30.5157,31.59,157.807,100.641,99.8351,0.00120499,0.0526285,20.9304,79.9212,0.0719974,0.0,0.0
72,17.75,30.4948,31.138,156.524,100.683,99.8208,0.00119965,0.052514,20.9302,79.8912,0.0770332,0.0,0.0
75,18.5,30.5256,31.1478,156.431,100.692,99.7863,0.00119348,0.0523817,20.93,79.8411,0.0809721,0.0,0.0
78,19.25,30.3422,31.4632,156.89,100.703,99.8623,0.00117985,0.0521858,20.9299,79.8111,0.0750626,0.0,0.0
81,20,30.4742,31.2316,154.254,100.714,99.7686,0.00115427,0.0520006,20.9305,79.8111,0.0844575,0.0,0.0
84,20.75,30.1161,31.1442,155.018,100.724,99.7517,0.00112845,0.0518049,20.9309,79.7911,0.0868808,0.0,0.0
87,21.5,30.0419,31.3796,154.882,100.717,99.7206,0.00109735,0.0517758,20.9319,79.771,0.0890899,0.0,0.0
90,22.25,30.5019,31.5898,158.192,100.712,99.2866,0.00108705,0.051803,20.9326,79.751,0.12769,0.0,0.0
93,23,30.7035,31.0972,154.442,100.7,99.4343,0.00109071,0.052066,20.9331,79.711,0.113353,0.0,0.0
96,23.75,30.3277,31.3993,160.704,100.695,99.3708,0.00109879,0.0526835,20.9335,79.701,0.118563,0.0,0.0
99,24.5,30.5387,31.6295,152.29,100.652,99.1238,0.0011058,0.0534892,20.9337,79.681,0.137031,0.0,0.0
102,25.25,30.8026,31.1391,152.152,100.611,99.0664,0.00110383,0.0542282,20.9337,79.6509,0.138574,0.0,0.0
105,26,30.2326,31.507,155.163,100.569,98.9861,0.00110044,0.0553556,20.9333,79.6109,0.142155,0.0,0.0
108,26.75,30.4365,31.622,154.325,100.532,98.7101,0.00109461,0.0563275,20.9323,79.5609,0.163804,0.0,0.0
111,27.5,30.2808,31.513,157.046,100.503,98.4251,0.00108293,0.0572923,20.9314,79.5008,0.187115,0.0,0.0
114,28.25,30.3674,30.7988,158.941,100.404,98.5193,0.00107124,0.0581382,20.9304,79.4408,0.16978,0.0,0.0
117,29,30.6182,31.4867,154.709,100.349,98.2658,0.00104503,0.0588156,20.9287,79.3907,0.187958,0.0,0.0
120,29.75,30.4287,31.2988,153.789,100.273,98.0801,0.00101484,0.0593094,20.9271,79.3407,0.198096,0.0,0.0
123,30.5,30.8391,31.5392,160.348,100.206,98.0473,0.000973863,0.0595126,20.9259,79.2806,0.195124,0.0,0.0
126,31.25,30.5418,31.6371,157.364,100.119,97.9747,0.00091926,0.059489,20.9251,79.2606,0.193948,0.0,0.0
129,32,30.2599,31.9472,157.543,100.015,97.6016,0.000875739,0.0592923,20.9245,79.1905,0.218811,0.0,0.0
132,32.75,31.2011,31.6231,153.278,99.9334,97.7497,0.000843732,0.0589496,20.924,79.1605,0.197918,0.0,0.0
135,33.5,30.939,31.3131,156.9,99.8535,97.4958,0.000822627,0.0585024,20.9237,79.1004,0.214053,0.0,0.0
138,34.25,30.3584,31.6552,158.524,99.7551,97.4738,0.000812457,0.0579843,20.9235,79.0404,0.20725,0.0,0.0
141,35,30.4393,31.847,157.172,99.6412,97.1629,0.000813511,0.0576371,20.9238,78.9803,0.225634,0.0,0.0
144,35.75,30.5579,31.5285,153.508,99.5465,96.8649,0.00082344,0.0571302,20.9242,78.9403,0.244634,0.0,0.0
147,36.5,30.569,31.7469,157.454,99.4556,96.4633,0.000834392,0.0566031,20.9251,78.8903,0.273663,0.0,0.0
150,37.25,30.9765,31.5804,152.253,99.3584,96.2297,0.000852979,0.0560768,20.9255,78.8402,0.286633,0.0,0.0
153,38,30.9071,31.7828,157.006,99.2642,96.2971,0.000869008,0.0555652,20.9258,78.8002,0.271862,0.0,0.0
156,38.75,30.8369,31.3147,155.493,99.1949,96.0984,0.000878488,0.0550097,20.926,78.7702,0.284108,0.0,0.0
159,39.5,30.3963,31.9182,151.929,99.0966,95.7456,0.000879823,0.0545151,20.9268,78.7201,0.308172,0.0,0.0
162,40.25,30.6789,31.6118,153.067,99.0109,95.7011,0.000868407,0.054001,20.9274,78.6901,0.304588,0.0,0.0
165,41,31.0251,31.4593,153.343,98.9306,94.78,0.000854804,0.053541,20.9278,78.64,0.383957,0.0,0.0
168,41.75,31.1306,31.8305,155.685,98.861,95.0698,0.000856037,0.0531693,20.9281,78.58,0.350302,0.0,0.0
171,42.5,31.26,31.4553,156.098,98.8044,94.574,0.000861689,0.052831,20.9288,78.54,0.392012,0.0,0.0
174,43.25,30.9393,31.8886,153.554,98.7528,93.8723,0.000911682,0.0524694,20.9297,78.4999,0.454047,0.0,0.0
177,44,31.1838,31.4677,155.256,98.695,93.798,0.000982705,0.0522199,20.9309,78.4299,0.455894,0.0,0.0
180,44.75,31.0566,31.7596,157.376,98.6524,93.3425,0.00106017,0.0520666,20.9324,78.3498,0.495643,0.0,0.0
183,45.5,30.9735,32.0639,149.172,98.6274,96.7902,0.00114024,0.0519931,20.9335,78.2797,0.168446,0.0,1.0
186,46.25,31.0549,32.1031,145.558,98.6044,98.6022,0.00120867,0.0520409,20.9343,78.2097,0.000206106,0.0,1.0
189,47,31.2928,32.0947,144.577,98.5876,98.3513,0.00130636,0.052181,20.9349,78.0695,0.0215034,0.0,1.0
192,47.75,31.6507,32.1146,146.846,98.5876,98.1712,0.00140744,0.0524632,20.9354,77.9995,0.0379215,0.0,1.0
195,48.5,31.8508,32.4287,146.254,98.6024,97.3093,0.00149385,0.0531951,20.9359,77.8994,0.118262,0.0,1.0
198,49.25,31.8347,31.6636,144.71,98.6143,96.9077,0.001578,0.0539528,20.9361,77.8193,0.156391,0.0,1.0
201,50,32.7127,32.4697,137.481,98.6458,96.0457,0.00164837,0.0556019,20.9358,77.6392,0.239292,0.0,0.0
204,50.75,33.166,33.0925,140.408,98.6598,96.2539,0.00169967,0.0571792,20.9349,77.5591,0.221164,0.0,0.0
207,51.5,33.7315,33.5696,134.508,98.7282,96.4719,0.0017433,0.0589708,20.9334,77.429,0.207103,0.0,0.0
210,52.25,33.8826,33.8632,136.38,98.7819,95.699,0.00178824,0.0617845,20.932,77.2788,0.28404,0.0,0.0
213,53,34.0535,34.1943,136.92,98.8212,95.8618,0.00183895,0.0671943,20.9296,77.1487,0.27238,0.0,0.0
216,53.75,34.9403,34.5542,135.484,98.8888,95.3008,0.00193815,0.0765955,20.9267,76.9786,0.331082,0.0,0.0
219,54.5,35.8823,35.2497,132.072,98.963,95.7149,0.00207039,0.0903328,20.9236,76.8484,0.298955,0.0,0.0
222,55.25,35.9513,35.6194,138.249,99.0396,95.8134,0.00219235,0.112598,20.9197,76.7083,0.296679,0.0,0.0
225,56,37.2801,36.3001,140.279,99.1056,96.0669,0.00235379,0.134051,20.9139,76.5882,0.278976,0.0,0.0
228,56.75,37.7818,37.0949,128.384,99.1802,95.936,0.00250241,0.171278,20.9044,76.4381,0.297924,0.0,0.0
231,57.5,37.949,37.3133,134.655,99.2744,96.5976,0.0026572,0.205105,20.8874,76.2479,0.244869,0.0,0.0
234,58.25,38.7827,38.817,128.984,99.3654,95.8721,0.00279385,0.241205,20.8634,76.0978,0.320608,0.0,0.0
237,59,39.5975,39.2324,127.958,99.4297,96.0699,0.00292211,0.281508,20.8335,75.9176,0.307946,0.0,0.0
240,59.75,40.631,39.4855,135.269,99.5109,96.0531,0.00304722,0.314882,20.784,75.7775,0.316823,0.0,0.0
243,60.5,40.9301,40.2273,135.659,99.5855,95.2473,0.00320111,0.349761,20.7324,75.5873,0.399004,0.0,0.0
246,61.25,41.5275,41.0202,127.303,99.6605,95.9784,0.00334308,0.381548,20.6882,75.4572,0.337248,0.0,0.0
249,62,42.7226,42.4639,126.885,99.7289,95.7257,0.00349749,0.409391,20.6427,75.2971,0.367008,0.0,0.0
252,62.75,43.3527,42.8148,121.855,99.7793,95.7136,0.0036485,0.437677,20.6095,75.1069,0.372666,0.0,0.0
255,63.5,43.8064,43.1988,133.89,99.8305,95.461,0.00382434,0.465829,20.5727,74.9367,0.400939,0.0,0.0
258,64.25,44.4256,44.0826,128.184,99.8981,95.2196,0.00401909,0.492698,20.5379,74.7366,0.429686,0.0,0.0
261,65,44.9144,44.5554,122.585,99.9362,94.9074,0.00420274,0.517644,20.5092,74.6265,0.462526,0.0,0.0
264,65.75,45.6877,45.1598,123.99,99.9637,94.9035,0.00435439,0.53583,20.4793,74.4463,0.465353,0.0,0.0
267,66.5,46.8399,46.3612,127.241,99.9846,93.9764,0.00452312,0.560882,20.4485,74.2461,0.555173,0.0,0.0
270,67.25,47.3145,47.2079,128.773,100.01,94.3266,0.00467091,0.583622,20.4168,74.056,0.524127,0.0,0.0
273,68,47.9383,47.9797,133.17,100.008,93.9863,0.00484006,0.604915,20.3862,73.8858,0.556355,0.0,0.0
276,68.75,49.0507,48.3982,128.83,99.9994,94.0882,0.00498618,0.625238,20.3567,73.6756,0.545839,0.0,0.0
279,69.5,48.8616,48.8483,122.414,99.9924,94.7407,0.00510243,0.643165,20.3284,73.4654,0.483303,0.0,0.0
282,70.25,50.2186,50.3974,125.062,99.9928,92.0366,0.00517957,0.661557,20.3041,73.2853,0.742755,0.0,0.0
285,71,50.854,50.8082,127.615,99.9973,92.1929,0.00522589,0.682354,20.28,73.1151,0.727955,0.0,0.0
288,71.75,51.525,51.429,118.016,99.9957,92.883,0.00524826,0.699918,20.2562,72.9249,0.661004,0.0,0.0
291,72.5,52.0987,52.3379,121.112,99.953,90.4189,0.00525949,0.71683,20.2332,72.7348,0.898045,0.0,0.0
294,73.25,52.8445,52.8194,124.184,99.9489,92.1748,0.00527286,0.734748,20.2113,72.5346,0.725385,0.0,0.0
297,74,53.8919,54.4124,122.804,99.9248,92.3341,0.00529515,0.75011,20.1873,72.2844,0.707744,0.0,0.0
300,74.75,54.5534,54.7731,125.555,99.8916,91.9671,0.00534056,0.76524,20.1639,72.0342,0.740451,0.0,0.0
303,75.5,55.5414,55.5989,108.895,99.858,91.5525,0.00542796,0.78174,20.1401,71.884,0.777911,0.0,0.0
306,76.25,55.9898,56.7543,124.564,99.8227,92.3423,0.00550954,0.795931,20.1187,71.6338,0.697796,0.0,0.0
309,77,56.8822,57.3136,118.254,99.794,89.9366,0.00563127,0.809973,20.1002,71.4236,0.931702,0.0,0.0
312,77.75,57.7843,58.2582,122.2,99.7604,90.3451,0.00574655,0.825158,20.0814,71.1734,0.888087,0.0,0.0
315,78.5,58.6406,58.7245,118.196,99.715,89.5268,0.00590138,0.841052,20.0638,70.9132,0.965513,0.0,0.0
318,79.25,59.3352,59.8985,120.312,99.6957,90.0212,0.00606521,0.857282,20.0471,70.693,0.914443,0.0,0.0
321,80,60.423,60.845,124.23,99.6867,88.16,0.00623458,0.876237,20.0314,70.4628,1.10079,0.0,0.0
324,80.75,60.9962,61.5268,123.014,99.7084,88.3565,0.00640628,0.892287,20.0092,70.1825,1.0828,0.0,0.0
327,81.5,62.2553,62.9664,120.215,99.8494,86.7522,0.00661163,0.907803,19.9868,69.9323,1.2596,0.0,0.0
330,82.25,63.011,63.8615,120.024,99.9731,88.5387,0.00678759,0.925509,19.9679,69.612,1.08809,0.0,0.0
333,83,63.9866,64.5666,120.834,100.122,87.4803,0.00696078,0.9428,19.9459,69.3718,1.20915,0.0,0.0
336,83.75,64.6625,65.9955,121.99,100.219,87.783,0.00711332,0.9629,19.9298,69.0815,1.18685,0.0,0.0
339,84.5,65.9846,66.4425,126.579,100.31,86.9336,0.00726949,0.986345,19.9111,68.7913,1.28208,0.0,0.0
342,85.25,66.83,67.7222,120.347,100.382,84.7934,0.00743822,1.00718,19.8922,68.541,1.51182,0.0,0.0
345,86,67.5904,68.3959,111.907,100.434,86.798,0.00760358,1.03252,19.8715,68.2208,1.30715,0.0,0.0
348,86.75,68.5878,69.4181,116.314,100.473,84.6199,0.00776993,1.06122,19.8485,67.9805,1.5383,0.0,0.0
351,87.5,69.3957,70.5676,117.722,100.487,83.8888,0.00793863,1.08552,19.814,67.6502,1.61735,0.0,0.0
354,88.25,70.2976,71.6204,114.901,100.483,85.2559,0.00814607,1.10898,19.7888,67.32,1.47216,0.0,0.0
357,89,71.3705,72.8663,109.107,100.466,85.8273,0.00829728,1.13294,19.7616,67.0097,1.41076,0.0,0.0
360,89.75,72.2701,73.6852,128.153,100.439,85.6157,0.00843433,1.16214,19.7345,66.6394,1.43053,0.0,0.0
363,90.5,73.1913,74.6386,113.289,100.382,83.1918,0.00866935,1.18274,19.7164,66.299,1.68266,0.0,0.0
366,91.25,73.7979,75.8537,113.712,100.303,86.874,0.00888425,1.21384,19.6955,65.9287,1.28761,0.0,0.0
369,92,74.7436,76.8273,116.304,100.209,87.2566,0.00911539,1.24767,19.67,65.5684,1.23985,0.0,0.0
372,92.75,75.7657,77.8569,111.925,100.106,87.5304,0.00937444,1.27709,19.6446,65.168,1.20259,0.0,0.0
375,93.5,76.6944,78.9822,108.216,99.9588,83.9868,0.00961795,1.31272,19.6145,64.8878,1.55964,0.0,0.0
378,94.25,77.9849,80.1044,104.394,99.9235,85.04,0.00988894,1.34676,19.5724,64.4974,1.44483,0.0,0.0
381,95,78.6764,81.2655,108.517,99.9592,85.6018,0.0102741,1.37987,19.5275,64.1471,1.38904,0.0,0.0
384,95.75,79.8333,82.3921,110.59,100.02,86.792,0.01073,1.41233,19.4824,63.7968,1.27082,0.0,0.0
387,96.5,80.7711,83.3978,104.558,100.071,88.6825,0.0112483,1.44924,19.4388,63.3865,1.08236,0.0,0.0
390,97.25,81.6011,84.4999,105.477,100.144,86.3545,0.0118164,1.48159,19.395,63.0462,1.3272,0.0,0.0
393,98,83.3885,86.0636,111.152,100.219,86.7475,0.012371,1.51448,19.3631,62.7059,1.29319,0.0,0.0
396,98.75,84.0746,87.229,108.767,100.29,83.7933,0.0131888,1.56383,19.3127,62.3856,1.60992,0.0,0.0
399,99.5,84.7275,88.2969,104.174,100.357,84.559,0.0136992,1.58452,19.2891,62.0353,1.53444,0.0,0.0
402,100.25,85.5317,89.0037,113.11,100.442,86.5061,0.0143506,1.63251,19.255,61.715,1.33802,0.0,0.0
405,101,86.4879,90.4003,110.055,100.501,86.3601,0.0151105,1.69938,19.2041,61.3446,1.35845,0.0,0.0
408,101.75,87.0082,90.9241,106.615,100.579,86.1947,0.0154173,1.73351,19.1693,60.9843,1.3826,0.0,0.0
411,102.5,88.2038,92.3111,113.501,100.632,87.6435,0.0157944,1.78136,19.1184,60.624,1.23798,0.0,0.0
414,103.25,88.9124,93.1959,102.368,100.67,87.8625,0.016079,1.82339,19.0629,60.2437,1.21899,0.0,0.0
417,104,89.8379,94.0521,109.808,100.705,86.7358,0.0163228,1.85707,19.0052,59.9434,1.3377,0.0,0.0
420,104.75,90.9578,95.4537,112.485,100.719,87.8284,0.0165308,1.88818,18.9558,59.563,1.2268,0.0,0.0
423,105.5,91.6917,96.1654,106.931,100.734,89.0949,0.0167343,1.9116,18.9033,59.2428,1.09989,0.0,0.0
426,106.25,92.7085,97.3994,101.053,100.724,86.7514,0.0169764,1.92994,18.8598,58.8724,1.33781,0.0,0.0
429,107,93.1579,98.1757,105.125,100.705,89.2331,0.0172095,1.94408,18.8258,58.5321,1.08345,0.0,0.0
432,107.75,94.1781,98.993,109.705,100.675,88.9473,0.017521,1.95486,18.7959,58.1818,1.10954,0.0,0.0
435,108.5,94.916,100.028,106.083,100.63,88.7266,0.0178244,1.96352,18.7728,57.9316,1.12781,0.0,0.0
438,109.25,95.6604,100.93,104.199,100.557,87.5593,0.0181014,1.97088,18.755,57.4812,1.23991,0.0,0.0
441,110,96.446,101.965,107.524,100.478,88.1915,0.0182856,1.97759,18.7411,57.2009,1.16838,0.0,0.0
444,110.75,97.6935,103.354,107.442,100.382,88.8769,0.0183896,1.98409,18.7292,56.8907,1.09055,0.0,0.0
447,111.5,97.9116,103.412,104.357,100.282,88.3945,0.0184036,1.99059,18.7204,56.5604,1.13034,0.0,0.0
450,112.25,98.4111,104.337,111.658,100.171,86.9911,0.0183084,1.99533,18.7134,56.2101,1.26379,0.0,0.0
453,113,98.8168,105.059,109.007,100.05,85.8704,0.0182389,2.00251,18.707,55.8898,1.36912,0.0,0.0
456,113.75,99.5033,106.328,117.207,99.9117,86.7825,0.0179375,2.00933,18.7003,55.5495,1.26207,0.0,0.0
459,114.5,99.9034,106.645,110.021,99.7986,85.2987,0.0176321,2.01346,18.6944,55.3293,1.40641,0.0,0.0
462,115.25,100.716,107.491,114.265,99.651,87.7744,0.0173665,2.01535,18.6885,54.959,1.13686,0.0,0.0
465,116,100.226,106.958,107.801,99.5146,89.1545,0.0171622,2.01583,18.6805,54.6887,0.984818,0.0,0.0
468,116.75,101.194,108.274,115.878,99.3818,88.157,0.0170418,2.0155,18.6746,54.3684,1.07366,0.0,0.0
471,117.5,101.592,108.892,117.631,99.2531,87.8012,0.0169603,2.01224,18.6703,54.0982,1.09828,0.0,0.0
474,118.25,102.463,109.645,116.416,99.1302,85.6658,0.0169118,2.0072,18.6672,53.848,1.30775,0.0,0.0
477,119,102.151,109.733,113.219,99.0114,83.9725,0.016835,1.99896,18.6649,53.6077,1.47584,0.0,0.0
480,119.75,102.42,110.029,113.934,98.9032,87.0956,0.0167613,1.98414,18.6632,53.3575,1.13892,0.0,0.0
483,120.5,102.974,110.923,109.655,98.8155,87.5179,0.0166295,1.96958,18.6651,53.1173,1.08764,0.0,0.0
486,121.25,103.403,111.727,115.446,98.7479,86.5031,0.0165215,1.9448,18.6702,52.8871,1.186,0.0,0.0
489,122,103.745,111.955,116.444,98.6934,88.0862,0.0164224,1.91939,18.6781,52.6969,1.01858,0.0,0.0
492,122.75,103.126,111.532,124.414,98.6315,88.743,0.0163482,1.89388,18.6953,52.4167,0.946415,0.0,0.0
495,123.5,103.341,111.972,117.41,98.627,90.4051,0.0162915,1.8687,18.7189,52.2465,0.779771,0.0,0.0
498,124.25,103.356,111.981,121.461,98.6188,88.6894,0.0162489,1.83979,18.7464,52.0263,0.950669,0.0,0.0
501,125,103.369,112.116,123.597,98.6413,89.4655,0.0161704,1.81871,18.7772,51.8762,0.874673,0.0,0.0
504,125.75,103.372,112.228,125.972,98.6725,90.2445,0.0160662,1.78734,18.7997,51.666,0.799834,0.0,0.0
507,126.5,103.011,112.259,125.795,98.7208,89.2741,0.01591,1.75851,18.8268,51.5259,0.901067,0.0,0.0
510,127.25,102.454,111.708,124.853,98.7917,87.2182,0.0156938,1.7273,18.8549,51.3557,1.11622,0.0,0.0
513,128,102.347,111.393,125.735,98.8753,87.2126,0.0155005,1.68578,18.8791,51.2356,1.12437,0.0,0.0
516,128.75,101.835,111.393,131.197,98.9593,87.9618,0.0152988,1.64128,18.9118,51.1155,1.05535,0.0,0.0
519,129.5,101.641,111.304,134.013,99.0581,90.9363,0.0150592,1.5952,18.9503,50.9854,0.766363,0.0,0.0
522,130.25,101.158,110.92,133.995,99.165,93.3524,0.0147933,1.54863,18.9939,50.8653,0.541122,0.0,0.0
525,131,100.33,110.358,130.5,99.2708,92.8709,0.0145037,1.49707,19.0416,50.7852,0.596992,0.0,0.0
528,131.75,99.8336,110.237,137.381,99.3843,95.1544,0.0141952,1.45198,19.0992,50.6451,0.389624,0.0,0.0
531,132.5,99.611,109.723,133.242,99.4843,95.7858,0.0139005,1.39513,19.1411,50.575,0.33939,0.0,0.0
534,133.25,98.9731,108.984,133.299,99.6174,96.6019,0.0135661,1.3437,19.1945,50.475,0.275366,0.0,0.0
537,134,98.2752,108.694,136.555,99.6936,97.6422,0.0131952,1.28914,19.2537,50.3949,0.186262,0.0,0.0
540,134.75,97.9703,108.108,140.57,99.7883,98.8401,0.0128704,1.22778,19.3056,50.3248,0.0855291,0.0,0.0
543,135.5,97.6717,108.041,136.074,99.8543,99.6554,0.0125406,1.18304,19.3515,50.2448,0.0178592,0.0,0.0
546,136.25,96.7141,107.266,138.646,99.9301,99.9106,0.0122186,1.1262,19.399,50.2147,0.00174481,0.0,0.0
549,137,96.2932,106.759,139.639,99.9625,99.9413,0.0118442,1.06632,19.4571,50.1447,0.00189856,0.0,0.0
552,137.75,95.4047,105.887,137.7,99.9928,100.241,0.0114452,1.00879,19.5286,50.0946,-0.0222082,0.0,0.0
555,138.5,94.8105,105.264,145.409,100.001,100.621,0.0109982,0.949393,19.5997,50.0446,-0.055371,0.0,0.0
558,139.25,94.1425,105.026,138.815,100.015,100.823,0.0106288,0.89387,19.6703,50.0145,-0.0721344,0.0,0.0
561,140,93.5665,104.19,139.509,100.001,100.885,0.0102122,0.848184,19.7348,49.9845,-0.078832,0.0,0.0
564,140.75,93.0366,103.601,144.822,99.9612,100.817,0.00978482,0.798879,19.8042,49.9445,-0.0763318,0.0,0.0
567,141.5,91.2995,102.548,140.702,99.9457,100.85,0.00949327,0.752266,19.8743,49.9044,-0.0806815,0.0,0.0
570,142.25,90.9635,101.528,145.484,99.9264,100.807,0.00905117,0.725253,19.9162,49.8744,-0.078609,0.0,0.0
573,143,89.9765,100.552,140.805,99.8994,100.791,0.00862742,0.680004,19.9724,49.8244,-0.079576,0.0,0.0
576,143.75,89.4605,100.265,144.368,99.8625,100.776,0.00822172,0.638016,20.0501,49.8344,-0.0816174,0.0,0.0
579,144.5,89.165,99.5263,144.434,99.8297,100.747,0.00779484,0.5995,20.0928,49.7743,-0.0819089,0.0,0.0
582,145.25,88.011,99.0291,144.313,99.7871,100.71,0.00741993,0.564466,20.1483,49.7343,-0.0824699,0.0,0.0
585,146,87.205,98.3611,146.482,99.7572,100.571,0.00711946,0.529345,20.1991,49.7143,-0.072817,0.0,0.0
588,146.75,86.748,97.4211,142.504,99.7199,100.526,0.00688131,0.499658,20.2415,49.7343,-0.0721264,0.0,0.0
591,147.5,86.1666,96.9822,146.767,99.6801,100.608,0.00670761,0.469895,20.2815,49.7243,-0.0830449,0.0,0.0
594,148.25,85.0366,96.589,145.465,99.651,100.501,0.00659473,0.441293,20.3191,49.6742,-0.0760809,0.0,0.0
597,149,84.8117,95.9665,147.276,99.6449,100.506,0.00655192,0.414555,20.3548,49.6442,-0.0770955,0.0,0.0
600,149.75,84.5529,95.3206,146.174,99.7424,100.559,0.00655768,0.388333,20.3888,49.6442,-0.0730646,0.0,0.0
603,150.5,83.8235,94.593,143.717,99.8961,100.864,0.00662184,0.36568,20.4281,49.6242,-0.086354,0.0,0.0
606,151.25,82.6362,93.4944,148.155,100.043,100.769,0.00671227,0.347658,20.4638,49.5942,-0.0647663,0.0,0.0
609,152,82.6972,93.1197,142.477,100.188,101.159,0.00680107,0.329463,20.4955,49.5942,-0.0863864,0.0,0.0
612,152.75,82.1446,92.7081,148.238,100.277,101.103,0.00690493,0.313368,20.5229,49.5441,-0.0735411,0.0,0.0
615,153.5,81.6653,92.4585,145.583,100.357,101.222,0.0070203,0.300426,20.5445,49.5241,-0.076921,0.0,0.0
618,154.25,80.7439,92.0464,146.086,100.405,101.299,0.00713008,0.287283,20.5628,49.5041,-0.0794811,0.0,0.0
621,155,79.9774,90.3828,146.119,100.46,101.312,0.00722508,0.276096,20.5819,49.4941,-0.0756538,0.0,0.0
624,155.75,79.5315,89.3577,152.927,100.469,101.362,0.00731227,0.267256,20.5972,49.454,-0.0792786,0.0,0.0
627,156.5,78.9356,89.646,145.997,100.451,101.136,0.00740782,0.258712,20.6107,49.444,-0.0609023,0.0,0.0
630,157.25,78.1081,89.0459,148.156,100.432,101.314,0.00752829,0.249139,20.6256,49.424,-0.0783666,0.0,0.0
633,158,78.2997,88.294,146.767,100.4,101.258,0.00759743,0.245421,20.6365,49.394,-0.0762532,0.0,0.0
636,158.75,77.7839,88.0241,148.031,100.326,101.118,0.00767731,0.239852,20.6476,49.374,-0.0704503,0.0,0.0
639,159.5,76.8547,87.1519,151.152,100.243,101.058,0.00779779,0.235249,20.6569,49.354,-0.0725618,0.0,0.0
642,160.25,76.2093,86.99,149.286,100.115,101.098,0.00788563,0.230635,20.6643,49.3439,-0.087516,0.0,0.0
645,161,76.3442,86.68,148.869,100.005,100.768,0.00799731,0.226817,20.6714,49.3439,-0.0680294,0.0,0.0
648,161.75,75.7498,86.0816,147.46,99.9018,100.68,0.00809362,0.223255,20.6773,49.354,-0.0695247,0.0,0.0
651,162.5,75.3797,85.2086,146.429,99.9289,100.814,0.00818928,0.21986,20.6836,49.3239,-0.0790416,0.0,0.0
654,163.25,75.1153,84.863,148.141,99.9723,100.748,0.00828287,0.216713,20.6902,49.2839,-0.0691981,0.0,0.0
657,164,74.1959,84.5474,150.41,100.031,100.808,0.0083713,0.213852,20.6969,49.2839,-0.0693617,0.0,0.0
660,164.75,73.4914,83.8685,152.538,100.104,100.93,0.0084226,0.211792,20.7008,49.2539,-0.0735712,0.0,0.0
663,165.5,73.4413,83.0417,146.892,100.167,101.062,0.00848969,0.208907,20.7072,49.2338,-0.0796853,0.0,0.0
666,166.25,72.7281,82.7974,145.219,100.244,100.935,0.00854891,0.206588,20.7123,49.2439,-0.061535,0.0,0.0
669,167,72.5765,82.364,147.592,100.296,101.195,0.00859647,0.204348,20.7169,49.2138,-0.0799288,0.0,0.0
672,167.75,72.2343,81.7676,147.983,100.381,101.173,0.00864531,0.20248,20.7209,49.2238,-0.0704433,0.0,0.0
675,168.5,72.2136,80.8503,148.986,100.461,101.165,0.00869171,0.200575,20.725,49.2138,-0.0625523,0.0,0.0
678,169.25,70.9856,81.1682,145.519,100.488,101.389,0.00873366,0.198774,20.7287,49.1838,-0.0799655,0.0,0.0
681,170,70.9728,80.1856,145.774,100.545,101.336,0.00877711,0.197286,20.7322,49.1338,-0.0701559,0.0,0.0
684,170.75,70.2393,79.9272,151.645,100.612,101.371,0.00882555,0.195767,20.7354,49.1238,-0.067337,0.0,0.0
687,171.5,70.0637,78.9198,146.187,100.653,101.45,0.00888295,0.194569,20.7381,49.1338,-0.0706699,0.0,0.0
690,172.25,69.9597,78.8628,146.169,100.668,101.465,0.00895034,0.193656,20.741,49.1338,-0.0706554,0.0,0.0
693,173,69.5225,78.4021,146.22,100.699,101.457,0.0090266,0.193075,20.7435,49.0937,-0.0671966,0.0,0.0
696,173.75,68.6521,78.3443,145.141,100.709,101.586,0.00909375,0.192636,20.7453,49.0937,-0.0776766,0.0,0.0
699,174.5,69.0155,77.5196,148.818,100.724,101.616,0.00916079,0.19231,20.7467,49.0737,-0.0789554,0.0,0.0
702,175.25,68.0329,77.3277,153.159,100.711,101.437,0.0092269,0.191855,20.748,49.0737,-0.0643484,0.0,0.0
705,176,67.6779,77.0521,149.12,100.68,101.463,0.00929138,0.191452,20.7496,49.0537,-0.0694069,0.0,0.0
708,176.75,67.0934,76.1496,145.274,100.664,101.47,0.00935002,0.191034,20.7508,49.0137,-0.0714756,0.0,0.0
711,177.5,67.2936,75.4112,147.837,100.623,101.402,0.00941445,0.190583,20.7521,48.9836,-0.069063,0.0,0.0
714,178.25,66.8383,75.5457,146.417,100.571,101.332,0.00943954,0.190346,20.7529,48.9936,-0.0675145,0.0,0.0
717,179,65.5222,74.5161,146.316,100.509,101.382,0.00947221,0.18999,20.7538,48.9836,-0.0775285,0.0,0.0
720,179.75,65.7891,74.1582,150.034,100.456,101.202,0.00950897,0.189471,20.7547,48.9636,-0.0663154,0.0,0.0
723,180.5,65.5884,74.0019,151.123,100.39,101.313,0.00954128,0.188925,20.7557,48.9436,-0.0819812,0.0,0.0
726,181.25,65.8837,73.5697,147.293,100.292,101.133,0.00960238,0.188456,20.7565,48.9036,-0.0748262,0.0,0.0
729,182,64.7722,73.2995,147.576,100.201,100.975,0.00966292,0.188018,20.7571,48.8735,-0.068908,0.0,0.0
732,182.75,64.2838,73.6373,148.518,100.115,100.926,0.00976148,0.187535,20.7576,48.8635,-0.0722733,0.0,0.0
735,183.5,63.4413,72.389,147.631,100.02,100.805,0.00985654,0.187064,20.7581,48.8935,-0.0700838,0.0,0.0
738,184.25,64.1796,72.2868,146.857,99.9088,100.784,0.00994802,0.186621,20.7594,48.8835,-0.0781555,0.0,0.0
741,185,63.5157,71.876,151.768,99.8121,100.542,0.0100186,0.186217,20.7608,48.8535,-0.0652708,0.0,0.0
744,185.75,63.4043,72.0433,146.065,99.7027,100.359,0.0100639,0.185814,20.7619,48.7935,-0.0587672,0.0,0.0
747,186.5,63.0602,71.2686,150.743,99.6158,100.578,0.0100937,0.185293,20.7628,48.7835,-0.0861373,0.0,0.0
750,187.25,63.2251,70.8643,154.44,99.5203,100.304,0.0100765,0.184816,20.7639,48.7835,-0.0702706,0.0,0.0
753,188,62.386,70.701,151.721,99.4093,100.097,0.0100606,0.1839,20.7651,48.7634,-0.0617791,0.0,0.0
756,188.75,62.5307,70.011,151.046,99.3117,100.113,0.0100147,0.183498,20.766,48.7534,-0.0720026,0.0,0.0
759,189.5,62.223,69.6613,145.225,99.2236,99.9465,0.00995278,0.182838,20.767,48.7634,-0.0650255,0.0,0.0
762,190.25,61.6105,69.6628,157.111,99.1593,99.9059,0.00989249,0.182237,20.7684,48.7534,-0.0671966,0.0,0.0
765,191,61.4734,69.7167,151.643,99.065,99.81,0.00983193,0.181715,20.77,48.7434,-0.0671153,0.0,0.0
768,191.75,61.4526,68.8892,152.065,98.9884,99.7228,0.0097826,0.18128,20.7712,48.7334,-0.0662148,0.0,0.0
771,192.5,60.9822,68.8128,147.932,98.92,99.6498,0.00974716,0.180855,20.7721,48.7234,-0.0658512,0.0,0.0
774,193.25,60.8014,68.7071,149.92,98.861,99.5734,0.00972599,0.180514,20.7734,48.7034,-0.0643231,0.0,0.0
777,194,60.6206,68.0793,150.438,98.8118,99.5595,0.00972608,0.180211,20.7743,48.7034,-0.0675366,0.0,0.0
780,194.75,60.5558,67.8137,149.943,98.7479,99.5583,0.00973277,0.179763,20.775,48.6834,-0.073218,0.0,0.0
783,195.5,59.9583,67.5122,153.149,98.7171,99.585,0.00975427,0.17934,20.7754,48.6633,-0.0784146,0.0,0.0
786,196.25,59.6851,66.7436,145.589,98.6856,99.5164,0.00976449,0.178666,20.7758,48.6333,-0.0750997,0.0,0.0
789,197,59.5742,66.3586,147.159,98.6524,99.424,0.00976262,0.178039,20.7767,48.5933,-0.0697916,0.0,0.0
792,197.75,59.4431,66.9233,148.354,98.6417,99.2784,0.0097391,0.177524,20.7774,48.6033,-0.0576364,0.0,0.0
795,198.5,59.0051,66.4525,150.687,98.6266,99.4028,0.00971419,0.177062,20.7781,48.5833,-0.0702291,0.0,0.0
798,199.25,58.8393,65.8967,147.083,98.6516,99.4935,0.00968999,0.176651,20.779,48.5733,-0.0761272,0.0,0.0
801,200,58.5669,65.6997,144.974,98.6479,99.5185,0.0096677,0.176318,20.7796,48.5633,-0.0787173,0.0,0.0
804,200.75,57.8715,65.5461,153.605,98.6585,99.322,0.00963771,0.175947,20.7809,48.5432,-0.0600459,0.0,0.0
807,201.5,58.3673,65.0794,152.305,98.6811,99.3199,0.00962684,0.175728,20.7814,48.5332,-0.0578046,0.0,0.0
810,202.25,57.6605,64.6605,151.335,98.7024,99.4512,0.00958476,0.17541,20.7821,48.5232,-0.0677039,0.0,0.0
813,203,57.4639,64.3733,146.137,98.7384,99.5557,0.00952824,0.17507,20.7825,48.5132,-0.0738393,0.0,0.0
816,203.75,57.4336,64.4356,149.961,98.7843,99.43,0.00947602,0.174717,20.7829,48.5132,-0.0583619,0.0,0.0
819,204.5,57.081,63.752,146.931,98.8126,99.4784,0.00942137,0.174415,20.7831,48.5032,-0.0601545,0.0,0.0
822,205.25,56.9498,63.5663,152.751,98.872,99.5479,0.00938152,0.174028,20.7839,48.4832,-0.0610281,0.0,0.0
825,206,56.7435,63.5402,150.111,98.9216,99.7392,0.00939118,0.173406,20.7838,48.4832,-0.0737359,0.0,0.0
828,206.75,56.779,63.1968,152.652,98.9806,99.7638,0.00942667,0.172858,20.7835,48.4732,-0.0706037,0.0,0.0
831,207.5,56.2181,62.7754,153.393,99.0314,99.6999,0.00946466,0.172443,20.7839,48.4532,-0.0602652,0.0,0.0
834,208.25,56.2364,62.6158,149.582,99.09,99.9266,0.0095422,0.172135,20.7842,48.4331,-0.075313,0.0,0.0
837,209,56.1809,62.0933,154.239,99.1572,99.8126,0.00959872,0.171867,20.7844,48.4131,-0.0590139,0.0,0.0
840,209.75,55.6859,61.8684,150.178,99.2126,99.8264,0.00967502,0.171632,20.7845,48.3931,-0.0552576,0.0,0.0
843,210.5,55.7605,61.5902,148.721,99.2712,99.9996,0.00975396,0.171393,20.7849,48.4031,-0.065494,0.0,0.0
846,211.25,55.6294,61.3096,152.698,99.3289,100.136,0.00982965,0.171133,20.7855,48.3831,-0.0725365,0.0,0.0
849,212,55.0889,61.1877,148.476,99.3986,100.096,0.00989882,0.170809,20.786,48.4031,-0.0626625,0.0,0.0
852,212.75,55.4333,61.2814,151.668,99.4584,100.231,0.0099548,0.170514,20.7863,48.4031,-0.06936,0.0,0.0
855,213.5,54.6168,60.9697,151.026,99.5158,100.314,0.00998912,0.17015,20.7868,48.3631,-0.0716021,0.0,0.0
858,214.25,54.8569,60.389,149.583,99.5531,100.279,0.0100114,0.169704,20.7876,48.3531,-0.0650831,0.0,0.0
861,215,54.8427,60.3101,153.751,99.5982,100.383,0.0100017,0.169302,20.7881,48.3531,-0.0702813,0.0,0.0
864,215.75,54.251,60.3814,152.022,99.6461,100.38,0.0099947,0.168579,20.7885,48.3731,-0.065777,0.0,0.0
867,216.5,53.8686,59.8989,151.449,99.6957,100.392,0.00995077,0.168052,20.7887,48.3431,-0.0623222,0.0,0.0
870,217.25,54.5037,60.0072,148.869,99.726,100.411,0.00991097,0.167368,20.7889,48.3531,-0.0613324,0.0,0.0
873,218,53.7922,58.9332,150.075,99.7756,100.457,0.00987865,0.166645,20.7895,48.313,-0.0610006,0.0,0.0
876,218.75,53.572,59.0886,150.288,99.8162,100.455,0.00986432,0.166022,20.7904,48.313,-0.0571275,0.0,0.0
879,219.5,54.142,59.2891,151.316,99.8449,100.464,0.00986423,0.165034,20.7912,48.283,-0.0553624,0.0,0.0
882,220.25,53.0019,58.0786,151.38,99.8596,100.57,0.00986927,0.163955,20.7918,48.263,-0.0634681,0.0,0.0
885,221,53.6344,58.924,155.277,99.9014,100.601,0.00987411,0.162731,20.7929,48.273,-0.0625265,0.0,0.0
888,221.75,53.3883,58.4961,145.895,99.9186,100.752,0.00986286,0.161719,20.7941,48.253,-0.0743939,0.0,0.0
891,222.5,53.0606,58.1722,151.954,99.9342,100.594,0.00985465,0.160618,20.7952,48.233,-0.0589725,0.0,0.0
894,223.25,52.7282,58.2908,153.408,99.9567,100.539,0.00982282,0.159683,20.7964,48.2129,-0.0520668,0.0,0.0
897,224,52.2645,57.3799,149.6,99.9743,100.547,0.00979832,0.158772,20.7977,48.2029,-0.051142,0.0,0.0
900,224.75,52.2902,57.4805,150.327,99.9911,100.693,0.0097799,0.157875,20.7991,48.1829,-0.0626706,0.0,0.0
903,225.5,52.4295,57.5441,151.107,99.9834,100.655,0.00976648,0.157095,20.8001,48.1729,-0.0599862,0.0,0.0
906,226.25,52.2038,56.9967,156.162,99.9834,100.712,0.00975152,0.156312,20.801,48.1629,-0.0650196,0.0,0.0
909,227,52.3038,57.0258,151.782,99.9871,100.681,0.0097275,0.155444,20.8021,48.1429,-0.0619614,0.0,0.0
912,227.75,52.0553,57.246,149.929,99.9989,100.732,0.00969137,0.154811,20.8034,48.1429,-0.0653908,0.0,0.0
915,228.5,51.5536,56.0789,150.107,99.9928,100.666,0.00966502,0.154142,20.8051,48.1329,-0.0601029,0.0,0.0
918,229.25,51.7425,56.7957,150.456,99.9768,100.773,0.00959602,0.153565,20.8066,48.1129,-0.0710978,0.0,0.0
921,230,52.1188,56.8118,146.512,99.9711,100.695,0.00954572,0.15307,20.8079,48.1129,-0.0646232,0.0,0.0
924,230.75,51.8306,56.0207,152.377,99.9727,100.756,0.00945193,0.152568,20.8088,48.1129,-0.0698917,0.0,0.0
927,231.5,51.4505,55.8772,154.218,99.951,100.691,0.00935387,0.152014,20.8097,48.1129,-0.0660378,0.0,0.0
930,232.25,51.6278,55.5149,151.458,99.9375,100.769,0.00925547,0.15121,20.8107,48.1129,-0.0742017,0.0,0.0
933,233,51.0388,55.2705,155.147,99.9125,100.615,0.00915937,0.150203,20.8115,48.0828,-0.0628029,0.0,0.0
936,233.75,51.1359,55.553,157.271,99.9104,100.592,0.00906095,0.149041,20.8123,48.0828,-0.0608722,0.0,0.0
939,234.5,50.64,55.194,151.238,99.8981,100.7,0.00894749,0.147581,20.8133,48.0628,-0.071622,0.0,0.0
942,235.25,50.9311,55.0674,147.821,99.8801,100.554,0.00885215,0.146221,20.8152,48.0528,-0.0602448,0.0,0.0
945,236,50.5473,54.9776,154.399,99.8674,100.515,0.0086894,0.144802,20.8177,48.0628,-0.0579212,0.0,0.0
948,236.75,50.3934,54.7342,150.66,99.8576,100.614,0.00863041,0.144097,20.8187,48.0428,-0.0675748,0.0,0.0
951,237.5,50.2657,54.4817,150.293,99.8584,100.552,0.00850541,0.143283,20.8209,48.0328,-0.0620012,0.0,0.0
954,238.25,50.0022,54.4989,149.34,99.8219,100.368,0.00840529,0.14231,20.8229,48.0228,-0.04883,0.0,0.0
957,239,49.6364,54.1685,153.055,99.8031,100.41,0.00832847,0.141364,20.8244,48.0228,-0.0542986,0.0,0.0
960,239.75,50.2779,54.0973,155.102,99.8031,100.434,0.0082908,0.140573,20.8255,48.0428,-0.0564563,0.0,0.0
963,240.5,49.5982,53.6404,151.326,99.7818,100.42,0.00829676,0.139702,20.8263,48.0128,-0.0571366,0.0,0.0
966,241.25,49.4389,53.8161,150.815,99.7789,100.393,0.00833363,0.138861,20.8269,48.0228,-0.0549277,0.0,0.0
969,242,49.6236,53.3103,151.299,99.7482,100.451,0.00839178,0.138089,20.8279,48.0028,-0.0628878,0.0,0.0
972,242.75,49.4272,53.3665,149.572,99.7461,100.476,0.00844335,0.137408,20.8287,48.0328,-0.0653058,0.0,0.0
975,243.5,49.2162,53.1988,151.435,99.7432,100.389,0.00848094,0.136721,20.8292,48.0128,-0.0577826,0.0,0.0
978,244.25,48.6939,53.1292,148.984,99.7227,100.265,0.0084643,0.136081,20.8301,48.0028,-0.0485948,0.0,0.0
981,245,49.0176,52.6776,146.895,99.7035,100.368,0.00843673,0.135376,20.8311,47.9927,-0.0595035,0.0,0.0
984,245.75,48.9554,52.9592,153.488,99.699,100.39,0.00840667,0.134526,20.8323,47.9727,-0.0619125,0.0,0.0
987,246.5,48.93,52.1136,152.557,99.6842,100.411,0.00838726,0.134091,20.8329,47.9727,-0.0650874,0.0,0.0
990,247.25,49.0424,52.2346,153.754,99.6744,100.365,0.00836613,0.13344,20.8337,47.9627,-0.061848,0.0,0.0
993,248,48.1982,52.3059,153.326,99.6506,100.268,0.00834788,0.132882,20.8348,47.9327,-0.0553468,0.0,0.0
996,248.75,48.4981,52.4176,153.616,99.6289,100.421,0.0083288,0.132357,20.836,47.9427,-0.0709078,0.0,0.0
999,249.5,48.1231,51.6494,154.186,99.6408,100.266,0.00829838,0.131924,20.8369,47.9127,-0.0559991,0.0,0.0
1002,250.25,48.7417,51.5935,151.669,99.6199,100.361,0.00827621,0.13152,20.8375,47.9027,-0.0664009,0.0,0.0
1005,251,47.7748,51.3772,151.689,99.6072,100.239,0.00823256,0.131188,20.8379,47.9127,-0.056667,0.0,0.0
1008,251.75,48.1023,51.4855,149.961,99.6006,100.225,0.00820074,0.13097,20.8383,47.8927,-0.0559824,0.0,0.0
1011,252.5,47.9113,50.9493,154.151,99.6027,100.273,0.00814641,0.13085,20.8386,47.8626,-0.0601206,0.0,0.0
1014,253.25,47.6418,50.9033,149.905,99.5982,100.114,0.00809937,0.130804,20.8391,47.8726,-0.0463177,0.0,0.0
1017,254,47.6833,51.0629,152.755,99.5834,100.182,0.00805237,0.130698,20.8394,47.8626,-0.0537083,0.0,0.0
1020,254.75,47.6266,51.1525,149.77,99.5601,100.243,0.00801811,0.130534,20.8396,47.8526,-0.0612533,0.0,0.0
1023,255.5,46.9646,50.5944,150.285,99.5724,100.212,0.00800211,0.130323,20.8398,47.8426,-0.0574064,0.0,0.0
1026,256.25,47.3366,50.813,150.12,99.5826,100.187,0.00799428,0.130043,20.8399,47.8326,-0.0542465,0.0,0.0
1029,257,46.9222,50.7098,151.52,99.5765,100.126,0.00799041,0.129839,20.84,47.8126,-0.0493137,0.0,0.0
1032,257.75,47.1512,50.1094,146.899,99.6273,100.3,0.00798758,0.129459,20.84,47.7926,-0.0602625,0.0,0.0
1035,258.5,46.9504,50.3849,152.94,99.6945,100.349,0.00795441,0.129121,20.8401,47.7926,-0.058579,0.0,0.0
1038,259.25,46.8837,50.2459,153.904,99.7563,100.387,0.00791098,0.128768,20.8401,47.7725,-0.0564891,0.0,0.0
1041,260,46.8789,50.0579,151.297,99.7867,100.529,0.00787112,0.128448,20.8401,47.7625,-0.0663595,0.0,0.0
1044,260.75,46.8265,50.1415,151.754,99.8293,100.512,0.00783658,0.128238,20.8408,47.7725,-0.0610329,0.0,0.0