File: 01_Data/Masonite_Board/Cone/Masonite_Cone_HF15Scan_230106_R2.csv
Names,Time,Stack TC,Smoke TC,Exh Press,Smoke Comp,Smoke Meas,CO Meter,CO2 Meter,O2 Meter,Sample Mass,Ext Coeff,Start Test,Flame Verif
Chan Gain,,500,500,1,1,1,1,1,1,1,1,1.0,1.0
Offset,,0,0,0.303564,0,0,0,0,0,0,0,0.0,0.0
Gain,,1,1,25.011,13.2774,14.4219,1,1,1,1.00089,1.1066,1.0,1.0
Units,sec,C,C,Pa,%,%,%,%,%,g,/m,,
Baseline,,21.5597,22.1098,150.188,99.8375,99.623,0.000444664,0.0482197,20.9605,-443.47,0.0208792,,
6,1.25,18.6147,19.164,149.303,99.4875,99.3451,0.000639773,0.0513913,20.9584,180.772,0.0139084,0.0,0.0
12,2.75,18.748,18.986,149.638,99.4401,99.2452,0.000689788,0.0527142,20.9585,180.682,0.0190479,0.0,0.0
18,4.25,18.8971,19.3396,152.406,99.4292,99.2483,0.000691121,0.0546021,20.9572,180.742,0.0176781,0.0,0.0
24,5.75,19.0474,19.9596,153.815,99.372,99.2575,0.000687916,0.0559532,20.9551,180.752,0.0111949,0.0,0.0
30,7.25,19.351,20.0679,148.137,99.3494,99.1105,0.000736825,0.0564437,20.9526,180.772,0.0233651,0.0,0.0
36,8.75,19.4679,19.6251,148.518,99.2967,99.1109,0.000816289,0.0564216,20.9512,180.702,0.0181736,0.0,0.0
42,10.25,19.3992,19.3428,148.586,99.2553,99.0533,0.000855818,0.0564891,20.9506,180.702,0.0197813,0.0,0.0
48,11.75,19.2499,19.523,149.236,99.2278,99.0366,0.000824434,0.0568512,20.9504,180.692,0.0187257,0.0,0.0
54,13.25,19.3257,19.881,147.64,99.18,99.0344,0.000762802,0.0569928,20.95,180.732,0.0142632,0.0,0.0
60,14.75,19.5477,20.2157,150.578,99.1322,98.9411,0.000714032,0.056698,20.9497,180.772,0.0187326,0.0,0.0
66,16.25,19.4664,19.8051,149.99,99.09,98.905,0.000692208,0.0561633,20.9495,180.561,0.0181459,0.0,0.0
72,17.75,19.3828,20.1469,147.547,99.0754,98.8768,0.000648954,0.0557516,20.9494,180.601,0.0194822,0.0,0.0
78,19.25,19.3192,20.3608,147.542,99.0803,98.8676,0.000566317,0.0554698,20.9494,180.631,0.0208656,0.0,0.0
84,20.75,19.4317,20.1333,148.433,99.0977,98.813,0.000432911,0.0551725,20.9498,180.672,0.0279331,0.0,0.0
90,22.25,19.6383,19.9448,151.298,99.1058,98.8935,0.000302443,0.0548578,20.9507,180.682,0.0208171,0.0,0.0
96,23.75,19.3888,19.8479,150.583,99.1152,98.9481,0.000230039,0.0545788,20.9511,180.662,0.016374,0.0,0.0
102,25.25,18.9688,19.4631,150.31,99.1383,98.9485,0.000202369,0.0543735,20.9514,180.641,0.0185929,0.0,0.0
108,26.75,19.387,19.7759,149.701,99.1419,98.9437,0.000182196,0.0543993,20.9515,180.662,0.0194256,0.0,0.0
114,28.25,19.2009,20.3554,149.157,99.1484,98.8882,0.000179204,0.0546994,20.9516,180.641,0.0255017,0.0,0.0
120,29.75,19.3121,19.9191,152.185,99.1662,98.9261,0.000224722,0.0552781,20.9516,180.652,0.0235325,0.0,0.0
126,31.25,19.2355,19.719,151.668,99.1739,98.9626,0.000313329,0.0557416,20.9516,180.601,0.0207016,0.0,0.0
132,32.75,19.3796,19.9256,150.114,99.1832,98.9635,0.000396904,0.0559556,20.9516,180.551,0.0215283,0.0,0.0
138,34.25,19.1427,19.8276,151.702,99.1889,98.9763,0.000414412,0.0556635,20.9522,180.571,0.0208309,0.0,0.0
144,35.75,19.2309,19.8898,150.996,99.2043,98.9978,0.000427326,0.0549876,20.9527,180.521,0.0202224,0.0,0.0
150,37.25,19.5204,20.1593,147.134,99.2136,99.0282,0.00046777,0.0542431,20.9529,180.521,0.0181586,0.0,0.0
156,38.75,19.2637,19.7213,152.376,99.2306,98.9521,0.000492936,0.053304,20.9537,180.581,0.0272892,0.0,0.0
162,40.25,19.1355,19.892,151.523,99.2395,99.0537,0.000466468,0.0523358,20.9546,180.511,0.0181933,0.0,0.0
168,41.75,18.9998,20.3313,149.099,99.2732,99.0036,0.000431298,0.0516324,20.9553,180.511,0.0263995,0.0,0.0
174,43.25,19.3287,19.7924,150.133,99.2764,99.0269,0.000459431,0.050966,20.9571,180.461,0.0244306,0.0,0.0
180,44.75,19.6117,20.2582,150.549,99.3011,99.022,0.000566484,0.0504643,20.9586,180.491,0.0273215,0.0,0.0
186,46.25,18.9527,19.9213,154.952,99.304,99.0066,0.00066524,0.0500733,20.9594,180.421,0.0291076,0.0,0.0
192,47.75,19.4529,19.6756,144.79,99.3222,99.059,0.000684089,0.0496789,20.9598,180.511,0.0257567,0.0,0.0
198,49.25,19.3848,19.9262,151.803,99.3388,99.1708,0.000612084,0.0494743,20.96,180.451,0.0164329,0.0,0.0
204,50.75,19.7426,20.0186,145.27,99.3648,99.1083,0.000489769,0.0492498,20.9601,180.481,0.0250862,0.0,0.0
210,52.25,19.4333,19.871,153.121,99.3773,99.1052,0.000373714,0.0491848,20.9602,180.411,0.026613,0.0,0.0
216,53.75,19.6598,20.224,148.152,99.3996,99.2395,0.000321159,0.0490905,20.9602,180.391,0.0156519,0.0,0.0
222,55.25,19.0026,19.9193,152.663,99.3968,99.2606,0.000361593,0.048995,20.9606,180.401,0.0133087,0.0,0.0
228,56.75,19.9026,20.0506,149.475,99.4166,99.2082,0.000481607,0.048884,20.9607,180.381,0.0203702,0.0,0.0
234,58.25,19.8941,20.1838,149.282,99.4219,99.1972,0.000651254,0.0488068,20.9613,180.381,0.0219613,0.0,0.0
240,59.75,19.9161,19.9786,152.016,99.4515,99.2958,0.0007384,0.0489121,20.9619,180.361,0.015206,0.0,0.0
246,61.25,19.6894,20.3132,146.475,99.4754,99.2601,0.000687917,0.049149,20.9622,180.341,0.0210249,0.0,0.0
252,62.75,19.9464,19.8671,150.721,99.492,99.3204,0.00062369,0.0492297,20.9624,180.321,0.0167506,0.0,0.0
258,64.25,19.3373,20.2388,150.469,99.5333,99.3077,0.000585859,0.0491527,20.9617,180.271,0.0220306,0.0,0.0
264,65.75,20.0248,20.0691,151.784,99.5386,99.3297,0.000589251,0.0493599,20.9606,180.281,0.0203933,0.0,0.0
270,67.25,19.737,20.0756,150.058,99.5674,99.3451,0.000585209,0.0499248,20.96,180.241,0.0216934,0.0,0.0
276,68.75,19.777,20.3367,152.315,99.5706,99.3169,0.000559837,0.0504979,20.9597,180.261,0.0247618,0.0,0.0
282,70.25,19.9137,20.4063,152.18,99.5896,99.3803,0.000530022,0.0509931,20.9596,180.251,0.0204256,0.0,0.0
288,71.75,20.179,20.5617,153.24,99.599,99.3939,0.000495426,0.0513558,20.9595,180.231,0.0200007,0.0,0.0
294,73.25,20.0208,20.2129,150.603,99.6221,99.3926,0.000467607,0.051844,20.9594,180.241,0.0223815,0.0,0.0
300,74.75,19.1652,20.5927,147.275,99.6277,99.4243,0.00049683,0.0524039,20.9594,180.211,0.019839,0.0,0.0
306,76.25,19.7708,20.4525,149.432,99.6358,99.3887,0.000551878,0.0527128,20.9587,180.221,0.0241108,0.0,0.0
312,77.75,19.5918,20.4443,147.794,99.65,99.4067,0.000590721,0.0526123,20.9583,180.161,0.0237288,0.0,0.0
318,79.25,19.87,20.3991,149.04,99.678,99.4027,0.000612184,0.0524095,20.9575,180.121,0.0268404,0.0,0.0
324,80.75,20.1213,20.748,151.17,99.6593,99.4428,0.000627154,0.0519427,20.9568,180.091,0.0211138,0.0,0.0
330,82.25,19.8941,20.5437,150.693,99.6707,99.3785,0.000628377,0.0514425,20.9565,180.141,0.0284927,0.0,0.0
336,83.75,20.1127,20.317,148.892,99.6618,99.3922,0.000608713,0.0509383,20.9564,180.041,0.0262922,0.0,0.0
342,85.25,19.9421,20.2974,150.098,99.6857,99.4102,0.000610482,0.0504325,20.9578,180.081,0.0268588,0.0,0.0
348,86.75,19.9698,20.4928,147.475,99.682,99.3561,0.00066069,0.0499842,20.959,180.071,0.0317908,0.0,0.0
354,88.25,20.0235,20.3529,148.719,99.6755,99.3829,0.000740596,0.0496405,20.9595,180.051,0.0285365,0.0,0.0
360,89.75,19.9266,20.721,149.952,99.6719,99.3733,0.000786828,0.0493733,20.9598,179.991,0.0291284,0.0,0.0
366,91.25,19.5547,20.3127,154.645,99.6784,99.401,0.000750289,0.0491421,20.9599,180.031,0.0270504,0.0,0.0
372,92.75,19.7209,20.5703,149.013,99.6735,99.4107,0.00060602,0.0490193,20.96,180.001,0.0256321,0.0,0.0
378,94.25,19.7569,20.8944,148.787,99.6682,99.4573,0.000441563,0.0490167,20.96,179.971,0.0205642,0.0,0.0
384,95.75,19.6204,20.4867,153.467,99.6537,99.3838,0.00031826,0.0488822,20.96,179.971,0.0263199,0.0,0.0
390,97.25,19.8374,20.6151,149.962,99.648,99.4512,0.000290136,0.0488422,20.9611,179.941,0.0191923,0.0,0.0
396,98.75,19.4456,20.2022,150.131,99.6366,99.3631,0.000309589,0.0488349,20.9621,179.921,0.0266823,0.0,0.0
402,100.25,20.0067,20.606,149.135,99.6375,99.3209,0.000318063,0.0488177,20.9627,179.921,0.03089,0.0,0.0
408,101.75,19.6317,20.3058,151.667,99.6075,99.4234,0.000251872,0.0486954,20.963,179.941,0.0179519,0.0,0.0
414,103.25,19.3431,20.4641,146.67,99.6289,99.2346,0.000182847,0.0486136,20.9631,179.911,0.0384954,0.0,0.0
420,104.75,20.158,20.8792,150.738,99.5783,99.2399,0.000234,0.0486077,20.9616,179.871,0.0330433,0.0,0.0
426,106.25,19.7399,20.7814,147.564,99.5528,99.2386,0.00031733,0.0486507,20.9614,179.831,0.0306835,0.0,0.0
432,107.75,19.6741,20.2323,146.542,99.5382,99.1545,0.000411347,0.0487727,20.9615,179.811,0.0374868,0.0,0.0
438,109.25,19.9275,20.4811,148.168,99.4968,99.1677,0.000514518,0.0488381,20.9615,179.811,0.0321633,0.0,0.0
444,110.75,19.79,20.5037,151.006,99.4717,99.1233,0.000612775,0.0488654,20.9614,179.711,0.0340638,0.0,0.0
450,112.25,20.2949,20.99,149.743,99.4255,99.0427,0.000686058,0.0488666,20.9606,179.741,0.0374453,0.0,0.0
456,113.75,20.2131,20.6384,150.115,99.3943,99.085,0.000725071,0.0489686,20.9599,179.711,0.030259,0.0,0.0
462,115.25,19.6313,20.4549,151.823,99.3356,98.9864,0.000755054,0.0490392,20.9595,179.671,0.0341826,0.0,0.0
468,116.75,19.8773,20.591,147.677,99.3024,99.0146,0.000760646,0.0490005,20.9593,179.701,0.0281731,0.0,0.0
474,118.25,19.5791,20.703,146.743,99.2553,98.9362,0.000678239,0.0489384,20.9592,179.621,0.0312602,0.0,0.0
480,119.75,19.964,20.4108,152.709,99.2116,98.8491,0.000493879,0.0489065,20.9591,179.641,0.0355339,0.0,0.0
486,121.25,19.973,20.6027,148.845,99.1289,98.8376,0.000305223,0.0488526,20.9591,179.551,0.0285665,0.0,0.0
492,122.75,19.8238,20.6777,149.387,99.0868,98.7461,0.000248805,0.0488841,20.9591,179.551,0.0334342,0.0,0.0
498,124.25,20.259,20.9588,150.073,99.0288,98.7104,0.000297944,0.0489879,20.959,179.51,0.0312614,0.0,0.0
504,125.75,19.9896,20.3358,148.697,98.9733,98.6682,0.00037292,0.0490807,20.959,179.53,0.0299752,0.0,0.0
510,127.25,19.8399,20.5261,147.175,98.9146,98.5577,0.000384629,0.0491795,20.9599,179.49,0.0350854,0.0,0.0
516,128.75,19.575,20.8483,152.44,98.8716,98.4957,0.000364417,0.0491053,20.961,179.53,0.0369831,0.0,0.0
522,130.25,19.9785,20.8704,149.285,98.8198,98.4314,0.000401597,0.0490356,20.9616,179.46,0.0382245,0.0,0.0
528,131.75,19.9344,20.8752,147.331,98.7549,98.3685,0.000496827,0.0489201,20.9619,179.47,0.0380632,0.0,0.0
534,133.25,20.11,20.8952,147.707,98.6852,98.3583,0.000601562,0.0488805,20.9621,179.41,0.0322083,0.0,0.0
540,134.75,19.9593,20.5022,148.559,98.6338,98.2505,0.000683112,0.04877,20.9622,179.34,0.0377934,0.0,0.0
546,136.25,20.1404,20.6253,151.289,98.5852,98.2562,0.000716373,0.0486628,20.9622,179.35,0.0324424,0.0,0.0
552,137.75,19.8318,20.6308,150.254,98.5434,98.265,0.000663829,0.0485495,20.9622,179.32,0.0274612,0.0,0.0
558,139.25,19.5865,20.5869,146.746,98.4875,98.1612,0.000519531,0.0485682,20.9625,179.31,0.0322175,0.0,0.0
564,140.75,19.5122,20.7474,152.929,98.4648,98.1088,0.000433042,0.0486203,20.9635,179.27,0.0351615,0.0,0.0
570,142.25,19.7434,20.954,151.2,98.4381,98.1017,0.00044513,0.0485834,20.964,179.27,0.033222,0.0,0.0
576,143.75,20.2124,20.8513,150.101,98.4158,98.0872,0.000522354,0.0486579,20.9643,179.27,0.032462,0.0,0.0
582,145.25,20.0476,20.6819,149.393,98.4065,98.052,0.000604114,0.0488263,20.9644,179.21,0.0350266,0.0,0.0
588,146.75,19.7367,20.5419,147.061,98.4016,98.0749,0.000622485,0.0491886,20.9639,179.18,0.0322821,0.0,0.0
594,148.25,19.7913,20.7566,148.664,98.3984,98.0494,0.000606734,0.0495102,20.9641,179.17,0.0344893,0.0,0.0
600,149.75,19.8774,20.6963,147.773,98.4085,98.0322,0.000592869,0.0495152,20.9634,179.13,0.0371883,0.0,0.0
606,151.25,20.1333,20.7294,148.142,98.4198,98.0296,0.000590995,0.0493968,20.9626,179.12,0.0385692,0.0,0.0
612,152.75,20.1408,20.772,144.532,98.4369,98.1796,0.000557379,0.0493553,20.9621,179.09,0.0253966,0.0,0.0
618,154.25,20.2826,20.5677,146.52,98.4563,98.1779,0.0005101,0.0492592,20.9619,179.1,0.0274889,0.0,0.0
624,155.75,20.2139,21.0417,148.66,98.4863,98.129,0.000508267,0.0491264,20.9617,179.03,0.0352757,0.0,0.0
630,157.25,20.1515,20.7415,150.157,98.5159,98.1202,0.000518978,0.0491032,20.9617,179.05,0.0390613,0.0,0.0
636,158.75,19.7481,20.6585,147.368,98.5341,98.1981,0.000497551,0.0490927,20.9616,178.98,0.033154,0.0,0.0
642,160.25,20.103,20.3744,148.699,98.5993,98.1964,0.00043682,0.0491101,20.9616,178.98,0.0397528,0.0,0.0
648,161.75,20.0288,20.7546,154.95,98.6046,98.2421,0.00039174,0.0490969,20.9621,178.93,0.0357484,0.0,0.0
654,163.25,20.1219,20.9482,150.236,98.65,98.3381,0.000391987,0.0491891,20.9629,178.97,0.0307388,0.0,0.0
660,164.75,20.2031,20.5462,146.549,98.682,98.3319,0.00041713,0.0493424,20.9634,178.93,0.0344962,0.0,0.0
666,166.25,20.0305,21.0825,148.068,98.7444,98.3997,0.000444944,0.0494317,20.9627,178.94,0.0339439,0.0,0.0
672,167.75,19.5852,20.7045,147.886,98.7805,98.4037,0.000416131,0.0495328,20.9622,178.91,0.0370972,0.0,0.0
678,169.25,19.7496,20.5258,151.866,98.8084,98.4851,0.000303063,0.0498402,20.9619,178.9,0.0318162,0.0,0.0
684,170.75,20.5194,20.3776,151.905,98.8558,98.5353,0.000224256,0.0504006,20.9618,178.85,0.031529,0.0,0.0
690,172.25,19.7584,20.2098,149.644,98.8781,98.603,0.000219915,0.0511798,20.9621,178.82,0.0270411,0.0,0.0
696,173.75,19.8716,20.8307,152.327,98.9251,98.5722,0.000275235,0.0521503,20.9619,178.79,0.0346888,0.0,0.0
702,175.25,19.7822,20.7749,147.295,98.9348,98.6286,0.000333267,0.0529618,20.9607,178.74,0.0300963,0.0,0.0
708,176.75,20.0487,20.8186,148.692,98.9693,98.7386,0.000334247,0.0535402,20.9593,178.76,0.0226517,0.0,0.0
714,178.25,20.266,20.4962,151.112,98.9908,98.7078,0.000318864,0.0540664,20.9577,178.75,0.0277877,0.0,0.0
720,179.75,19.9447,20.6263,154.223,99.0301,98.7157,0.000324923,0.0547269,20.9568,178.74,0.0308611,0.0,0.0
726,181.25,19.8635,20.6427,147.56,99.0706,98.7716,0.000362007,0.055106,20.9564,178.74,0.0293384,0.0,0.0
732,182.75,19.824,20.1473,155.108,99.101,98.831,0.000397423,0.0550851,20.9561,178.73,0.0264769,0.0,0.0
738,184.25,19.4763,20.2999,154.85,99.1245,98.8442,0.000422397,0.0545253,20.956,178.69,0.0274819,0.0,0.0
744,185.75,19.7795,20.4672,147.348,99.1427,98.765,0.000439241,0.0535966,20.9559,178.67,0.0370511,0.0,0.0
750,187.25,19.5423,20.0776,150.761,99.1569,98.7663,0.000429293,0.0527667,20.9559,178.64,0.0383098,0.0,0.0
756,188.75,19.5567,20.1531,148.321,99.2051,98.8623,0.000402598,0.0517436,20.9572,178.63,0.0336037,0.0,0.0
762,190.25,19.4862,20.7565,147.998,99.2002,98.8891,0.00041581,0.0509243,20.9588,178.59,0.030492,0.0,0.0
768,191.75,19.375,19.6786,149.859,99.2246,98.8882,0.000443378,0.0502651,20.9598,178.58,0.0329568,0.0,0.0
774,193.25,19.3762,20.1312,152.981,99.2436,98.7949,0.000455339,0.0498121,20.9608,178.55,0.0439836,0.0,0.0
780,194.75,18.9696,20.1197,149.425,99.2582,98.9107,0.000457367,0.0496039,20.9613,178.56,0.0340431,0.0,0.0
786,196.25,19.2291,19.9841,148.379,99.2513,98.9212,0.000470372,0.0494647,20.9617,178.51,0.0323329,0.0,0.0
792,197.75,19.1636,20.0924,150.389,99.2679,98.901,0.000537053,0.0493533,20.9615,178.52,0.0359444,0.0,0.0
798,199.25,18.8813,20.205,150.356,99.2671,98.8931,0.000560581,0.0493376,20.9614,178.43,0.036643,0.0,0.0
804,200.75,18.9084,19.5552,150.566,99.272,98.9494,0.000528078,0.0492391,20.9613,178.47,0.0315912,0.0,0.0
810,202.25,18.8307,19.5553,146.062,99.2647,98.9525,0.000449395,0.049176,20.9616,178.44,0.030575,0.0,0.0
816,203.75,18.6771,19.5861,146.759,99.2837,98.868,0.000373482,0.0490809,20.9612,178.48,0.04073,0.0,0.0
822,205.25,18.9533,19.1867,148.516,99.2955,98.9745,0.000339715,0.049005,20.9605,178.419,0.0314275,0.0,0.0
828,206.75,19.0996,19.458,149.721,99.2841,98.9239,0.000409448,0.0488707,20.9602,178.45,0.0352838,0.0,0.0
834,208.25,18.7023,19.5,146.937,99.2801,98.8997,0.000493615,0.0487936,20.96,178.44,0.037262,0.0,0.0
840,209.75,19.0254,19.672,148.407,99.2861,98.9014,0.000574195,0.0488165,20.9599,178.419,0.0376851,0.0,0.0
846,211.25,18.775,19.5879,148.503,99.2914,98.9186,0.000618725,0.0487609,20.9603,178.43,0.036515,0.0,0.0
852,212.75,19.3166,19.5789,150.21,99.2833,98.9164,0.000624319,0.0487437,20.9611,178.419,0.0359386,0.0,0.0
858,214.25,19.0225,19.7912,152.792,99.2886,98.8394,0.000636954,0.0487254,20.9616,178.41,0.0440147,0.0,0.0
864,215.75,19.3627,19.9956,146.136,99.274,98.8218,0.000656494,0.048801,20.9616,178.389,0.0443177,0.0,0.0
870,217.25,19.531,19.7583,151.091,99.2756,98.8429,0.000684549,0.0488725,20.9607,178.389,0.0424019,0.0,0.0
876,218.75,19.617,20.2254,149.639,99.2655,98.7826,0.000714251,0.0489151,20.9603,178.379,0.047334,0.0,0.0
882,220.25,19.269,20.0727,150.032,99.2549,98.8398,0.000704571,0.0488587,20.9603,178.379,0.0406828,0.0,0.0
888,221.75,18.5923,20.0946,148.877,99.2663,98.8777,0.000641456,0.0489224,20.9616,178.369,0.0380758,0.0,0.0
894,223.25,19.0388,20.0255,148.497,99.2456,98.7743,0.00060012,0.0488857,20.9618,178.359,0.0462135,0.0,0.0
900,224.75,19.0344,19.7649,148.796,99.2371,98.8315,0.000561967,0.0488297,20.9619,178.359,0.0397597,0.0,0.0
906,226.25,19.0668,20.0688,150.566,99.263,98.8491,0.000532507,0.0488455,20.962,178.329,0.0405675,0.0,0.0
912,227.75,19.4644,20.1461,149.445,99.2331,98.8007,0.000513965,0.048774,20.962,178.309,0.0423904,0.0,0.0
918,229.25,19.4757,20.4714,149.964,99.2558,98.8451,0.00050577,0.0486859,20.962,178.319,0.0402437,0.0,0.0
924,230.75,19.7214,20.2628,148.896,99.2246,98.7949,0.000502587,0.0487236,20.962,178.299,0.0421208,0.0,0.0
930,232.25,19.5586,20.402,152.404,99.2343,98.8231,0.000455997,0.0488486,20.962,178.329,0.0403048,0.0,0.0
936,233.75,19.6459,20.1889,150.093,99.2209,98.7809,0.000379177,0.0490004,20.9624,178.269,0.0431473,0.0,0.0
942,235.25,19.0281,19.7725,148.517,99.2359,98.8099,0.000337254,0.0490212,20.9626,178.299,0.0417601,0.0,0.0
948,236.75,19.7564,20.4182,148.603,99.2347,98.6968,0.000326136,0.0489035,20.9628,178.249,0.0527597,0.0,0.0
954,238.25,19.4069,20.1467,151.127,99.2318,98.7575,0.000312639,0.0489466,20.9628,178.289,0.0465106,0.0,0.0
960,239.75,19.279,20.4504,149.347,99.2132,98.6387,0.000265952,0.0490071,20.9629,178.219,0.056374,0.0,0.0
966,241.25,19.7072,20.4316,150.383,99.2128,98.7025,0.000232116,0.0490269,20.9629,178.249,0.0500559,0.0,0.0
972,242.75,19.6434,20.1924,152.485,99.2274,98.6946,0.000225779,0.0491047,20.9629,178.209,0.0522625,0.0,0.0
978,244.25,19.86,20.6697,148.224,99.2019,98.71,0.000237966,0.0491043,20.9629,178.249,0.0482506,0.0,0.0
984,245.75,19.6475,20.2728,150.608,99.1857,98.6867,0.000276294,0.0491145,20.9629,178.229,0.0489575,0.0,0.0
990,247.25,19.3337,20.2077,148.279,99.1913,98.6369,0.000324076,0.0491576,20.9629,178.239,0.0544065,0.0,0.0
996,248.75,19.7774,20.4209,147.524,99.1601,98.6088,0.000362262,0.0491351,20.9625,178.229,0.0541245,0.0,0.0
1002,250.25,19.2908,20.1022,146.085,99.1605,98.5876,0.000392454,0.0491658,20.9616,178.229,0.0562451,0.0,0.0
1008,251.75,19.6326,20.3905,149.793,99.1322,98.5626,0.000385993,0.0491658,20.9622,178.239,0.0559379,0.0,0.0
1014,253.25,19.8413,19.8703,149.393,99.1265,98.6114,0.000339272,0.0491958,20.9625,178.209,0.0505716,0.0,0.0
1020,254.75,19.2962,20.3516,151.66,99.0965,98.5766,0.000278797,0.04917,20.9627,178.199,0.0510585,0.0,0.0
1026,256.25,19.6701,20.7878,152.285,99.0831,98.4499,0.000295843,0.049302,20.9628,178.199,0.0622384,0.0,0.0
1032,257.75,19.4575,20.3055,152.586,99.0791,98.4983,0.000418048,0.0493061,20.9618,178.199,0.05707,0.0,0.0
1038,259.25,19.6924,20.1957,149.614,99.0455,98.4895,0.000551869,0.0491355,20.9612,178.199,0.0546412,0.0,0.0
1044,260.75,20.0256,20.4037,147.723,99.024,98.5225,0.000644421,0.0491138,20.9609,178.189,0.0492845,0.0,0.0
1050,262.25,19.5077,20.3831,147.284,98.9948,98.3781,0.000679942,0.0491119,20.9608,178.179,0.0606574,0.0,0.0
1056,263.75,19.8523,20.2763,148.935,98.9859,98.3689,0.000664607,0.0492267,20.9607,178.179,0.0606953,0.0,0.0
1062,265.25,19.8445,20.5002,146.743,98.9519,98.269,0.00063275,0.0493392,20.961,178.169,0.0672202,0.0,0.0
1068,266.75,19.6277,20.7881,149.496,98.9446,98.2589,0.000618456,0.0493705,20.9612,178.159,0.0675052,0.0,0.0
1074,268.25,19.4618,20.1162,150.439,98.8927,98.2096,0.000592402,0.0492968,20.9612,178.129,0.0672869,0.0,0.0
1080,269.75,20.067,20.6555,151.35,98.8712,98.166,0.000543714,0.049284,20.9612,178.139,0.0694862,0.0,0.0
1086,271.25,19.9227,20.4564,149.398,98.8368,98.0014,0.000485147,0.0494078,20.9612,178.099,0.0823948,0.0,0.0
1092,272.75,19.8021,20.441,146.839,98.8267,98.052,0.0005053,0.0495997,20.9612,178.139,0.0763875,0.0,0.0
1098,274.25,19.5464,20.3684,149.47,98.7983,98.0062,0.000559513,0.0498469,20.9612,178.089,0.0781336,0.0,0.0
1104,275.75,19.8071,20.0678,153.946,98.7736,97.9922,0.00058839,0.0503115,20.9612,178.139,0.0770993,0.0,0.0
1110,277.25,19.6346,20.7585,151.13,98.7383,98.0269,0.000557788,0.050756,20.9604,178.079,0.0701904,0.0,0.0
1116,278.75,19.7279,20.751,145.881,98.7124,97.9666,0.000561631,0.0509396,20.9597,178.119,0.0736133,0.0,0.0
1122,280.25,19.5965,20.2691,149.057,98.6856,97.8504,0.000607836,0.0508881,20.9593,178.069,0.0825038,0.0,0.0
1128,281.75,19.7873,20.2402,148.943,98.6593,97.7778,0.000592633,0.0507131,20.9591,178.099,0.0871186,0.0,0.0
1134,283.25,19.8944,20.4937,150.336,98.6334,97.7796,0.000517892,0.0504957,20.9592,178.059,0.0843922,0.0,0.0
1140,284.75,19.7505,20.545,148.766,98.6127,97.769,0.000409194,0.0502185,20.9602,178.089,0.0834067,0.0,0.0
1146,286.25,19.4045,20.2601,147.537,98.5892,97.8003,0.000352965,0.0500249,20.9607,178.069,0.0779913,0.0,0.0
1152,287.75,19.7185,20.8834,150.529,98.5637,97.7611,0.000370723,0.0498694,20.9607,178.069,0.0793664,0.0,0.0
1158,289.25,19.7125,21.0404,151.52,98.5588,97.6616,0.000389739,0.0497317,20.9598,178.059,0.0887699,0.0,0.0
1164,290.75,20.0671,20.5519,148.115,98.5305,97.5441,0.000425634,0.0496586,20.9595,178.049,0.0976625,0.0,0.0
1170,292.25,20.0613,20.54,152.331,98.4968,97.5481,0.000527657,0.0496037,20.9598,178.049,0.0939547,0.0,0.0
1176,293.75,20.022,20.6807,149.94,98.4871,97.5806,0.00063201,0.0496057,20.96,178.029,0.0897548,0.0,0.0
1182,295.25,19.7785,20.8809,152.29,98.4713,97.4662,0.000623137,0.0495289,20.9612,178.029,0.0995881,0.0,0.0
1188,296.75,19.9187,21.0362,148.068,98.4579,97.4266,0.000505167,0.0495104,20.9618,178.019,0.102215,0.0,0.0
1194,298.25,20.1656,20.9904,149.758,98.451,97.5181,0.000381369,0.0494906,20.9622,178.009,0.0924189,0.0,0.0
1200,299.75,20.0117,20.6719,155.027,98.4312,97.4169,0.000306503,0.049438,20.9624,177.989,0.100543,0.0,0.0
1206,301.25,19.8105,20.48,151.026,98.4275,97.4851,0.000313378,0.0493881,20.9618,177.999,0.0933874,0.0,0.0
1212,302.75,20.2768,20.2905,149.653,98.4247,97.3962,0.000397862,0.0493835,20.9611,177.949,0.101964,0.0,0.0
1218,304.25,19.7991,20.9974,150.856,98.4308,97.4829,0.000475659,0.0493682,20.9607,177.979,0.0939272,0.0,0.0
1224,305.75,19.865,20.85,148.911,98.4211,97.3491,0.000644621,0.0493891,20.9605,177.949,0.1063,0.0,0.0
1230,307.25,20.0073,21.0073,155.958,98.4393,97.3962,0.00079601,0.0494811,20.9601,177.939,0.103404,0.0,0.0
1236,308.75,19.8068,21.1073,153.961,98.4365,97.3139,0.000830601,0.0495732,20.9598,177.889,0.111331,0.0,0.0
1242,310.25,19.6512,20.7841,151.442,98.4689,97.3447,0.000762955,0.0496383,20.9596,177.919,0.111454,0.0,0.0
1248,311.75,19.4994,20.637,153.03,98.477,97.3632,0.000687169,0.0496125,20.9595,177.879,0.11041,0.0,0.0
1254,313.25,20.1641,20.9324,149.321,98.5147,97.2778,0.000635615,0.0495791,20.9594,177.909,0.12264,0.0,0.0
1260,314.75,19.6078,20.8413,151.312,98.5268,97.3285,0.000618988,0.0496668,20.9597,177.859,0.118788,0.0,0.0
1266,316.25,19.7556,20.3519,150.546,98.5677,97.4583,0.00059745,0.0496344,20.9599,177.879,0.109878,0.0,0.0
1272,317.75,20.2078,21.066,149.151,98.5933,97.3936,0.000573423,0.0497016,20.9603,177.839,0.118838,0.0,0.0
1278,319.25,19.9439,20.9379,154.579,98.635,97.5846,0.000639727,0.0498219,20.9615,177.859,0.103927,0.0,0.0
1284,320.75,19.6137,20.5531,150.681,98.6719,97.3659,0.000812727,0.0499385,20.9622,177.849,0.129339,0.0,0.0
1290,322.25,19.8434,20.5128,149.47,98.7047,97.3491,0.00102099,0.0498907,20.9617,177.829,0.134234,0.0,0.0
1296,323.75,20.001,21.2205,148.472,98.7537,97.3773,0.00114994,0.0498865,20.9614,177.809,0.136247,0.0,0.0
1302,325.25,20.4938,20.4862,153.366,98.7967,97.6968,0.0011463,0.0499157,20.9612,177.809,0.108668,0.0,0.0
1308,326.75,19.9014,20.682,150.863,98.8368,97.6533,0.00102629,0.0499044,20.9612,177.799,0.116938,0.0,0.0
1314,328.25,20.2973,20.7608,146.879,98.8899,97.4477,0.000903095,0.0499578,20.9611,177.769,0.142603,0.0,0.0
1320,329.75,20.2928,20.9026,153.06,98.9466,97.618,0.000809428,0.0498695,20.9609,177.759,0.131218,0.0,0.0
1326,331.25,19.5004,21.0236,147.352,98.9932,97.6035,0.000710522,0.0499366,20.9599,177.749,0.137232,0.0,0.0
1332,332.75,19.9557,20.5808,148.761,99.0426,97.5754,0.000632298,0.050004,20.9593,177.739,0.14488,0.0,0.0
1338,334.25,19.3908,21.0757,147.317,99.0856,97.8262,0.00059031,0.05006,20.959,177.719,0.124163,0.0,0.0
1344,335.75,20.6802,21.238,150.523,99.1297,97.8958,0.000585202,0.05012,20.9589,177.749,0.121592,0.0,0.0
1350,337.25,20.0166,21.3366,147.11,99.1816,97.6916,0.000605177,0.050246,20.9588,177.699,0.146939,0.0,0.0
1356,338.75,19.5752,20.8195,151.453,99.2298,97.6383,0.000682172,0.0502868,20.9587,177.699,0.156951,0.0,0.0
1362,340.25,19.8115,20.6471,145.347,99.2659,97.8636,0.000812594,0.0504568,20.9592,177.639,0.138101,0.0,0.0
1368,341.75,20.4379,20.7885,146.875,99.3165,97.6357,0.000968933,0.0505915,20.9593,177.659,0.165692,0.0,0.0
1374,343.25,20.1898,21.0313,147.883,99.3437,97.8421,0.00101758,0.0506491,20.96,177.609,0.147844,0.0,0.0
1380,344.75,19.7693,20.9113,151.098,99.4089,97.9477,0.000960998,0.0506427,20.9604,177.629,0.143743,0.0,0.0
1386,346.25,20.1864,20.7673,146.677,99.4434,97.7778,0.000895945,0.0507934,20.9606,177.579,0.163956,0.0,0.0
1392,347.75,20.5197,21.3518,149.369,99.4806,97.7492,0.00087272,0.0514423,20.9603,177.599,0.170435,0.0,0.0
1398,349.25,20.2226,20.8262,149.596,99.4997,98.1299,0.00089642,0.0529556,20.9595,177.559,0.13456,0.0,0.0
1404,350.75,20.2147,20.8885,146.886,99.5447,97.8209,0.000945708,0.0548946,20.9579,177.569,0.169559,0.0,0.0
1410,352.25,20.142,21.6767,146.52,99.5787,98.0221,0.00101249,0.0572295,20.9565,177.529,0.152938,0.0,0.0
1416,353.75,20.1799,20.9573,151.381,99.6135,97.9992,0.00107962,0.0594415,20.9544,177.519,0.158601,0.0,0.0
1422,355.25,20.4914,20.9624,150.896,99.6281,97.9807,0.00112703,0.0610143,20.9522,177.509,0.161853,0.0,0.0
1428,356.75,19.8386,20.5034,153.04,99.6622,98.0032,0.00117702,0.062451,20.9495,177.499,0.162946,0.0,0.0
1434,358.25,20.111,21.2329,148.375,99.6703,97.916,0.00118788,0.0631923,20.9471,177.469,0.172371,0.0,0.0
1440,359.75,20.2971,20.6523,148.031,99.6865,97.9481,0.00115477,0.0633467,20.9458,177.449,0.170765,0.0,0.0
1446,361.25,20.4989,21.2335,147.275,99.7007,98.0551,0.00109184,0.0625404,20.9452,177.429,0.161552,0.0,0.0
1452,362.75,20.4126,21.4307,147.452,99.7055,98.0111,0.00103588,0.0611123,20.9458,177.429,0.166384,0.0,0.0
1458,364.25,20.3414,21.1401,150.207,99.7132,98.1471,0.0010425,0.0595222,20.9469,177.409,0.153673,0.0,0.0
1464,365.75,20.7076,20.9987,147.964,99.7104,98.107,0.00109164,0.0581222,20.9487,177.379,0.157358,0.0,0.0
1470,367.25,20.2421,21.4431,146.945,99.7116,97.7853,0.00111648,0.0569515,20.9502,177.369,0.189363,0.0,0.0
1476,368.75,20.035,20.9223,147.369,99.699,97.795,0.00110431,0.0559101,20.9519,177.349,0.187178,0.0,0.0
1482,370.25,20.6026,21.2504,149.138,99.6808,97.9635,0.00106595,0.0549871,20.9528,177.329,0.168685,0.0,0.0
1488,371.75,20.0252,21.2781,151.464,99.6731,97.8553,0.000995742,0.0543106,20.9535,177.299,0.178669,0.0,0.0
1494,373.25,20.315,21.1685,148.068,99.6589,97.9266,0.000909819,0.053684,20.9548,177.288,0.170219,0.0,0.0
1500,374.75,20.4597,21.2141,150.288,99.6265,98.0124,0.000855363,0.0533099,20.9554,177.238,0.158557,0.0,0.0
1506,376.25,20.1057,20.9076,151.157,99.6143,97.9763,0.000914219,0.0532583,20.9558,177.228,0.160947,0.0,0.0
1512,377.75,20.1641,21.1473,149.077,99.5827,97.4891,0.00102172,0.053371,20.956,177.178,0.206259,0.0,0.0
1518,379.25,20.388,21.1029,152.126,99.5572,97.736,0.00111778,0.0534662,20.9561,177.198,0.179216,0.0,0.0
1524,380.75,20.3618,21.6709,146.478,99.5268,97.8381,0.00118615,0.053401,20.956,177.128,0.166117,0.0,0.0
1530,382.25,20.2107,21.6646,148.023,99.4964,97.4622,0.00124626,0.0532653,20.9557,177.158,0.200516,0.0,0.0
1536,383.75,20.1189,20.8765,150.991,99.4588,97.8311,0.00129223,0.0529247,20.9557,177.088,0.160173,0.0,0.0
1542,385.25,20.5691,21.1574,148.61,99.4231,97.5005,0.0013148,0.05285,20.9559,177.108,0.189545,0.0,0.0
1548,386.75,20.3771,21.0706,147.9,99.4105,97.1876,0.00129369,0.0529348,20.9561,177.048,0.219522,0.0,0.0
1554,388.25,19.9934,21.2662,144.524,99.3773,97.5556,0.00127462,0.0529729,20.9561,177.078,0.179597,0.0,0.0
1560,389.75,20.4411,21.0812,146.562,99.3571,97.5428,0.0012759,0.0530556,20.9561,177.028,0.178888,0.0,0.0
1566,391.25,19.8815,21.063,151.122,99.3295,97.4341,0.00126018,0.0533397,20.9562,177.018,0.18702,0.0,0.0
1572,392.75,20.5646,20.5524,151.176,99.3036,97.3245,0.00124219,0.0538297,20.9562,176.988,0.19541,0.0,0.0
1578,394.25,20.1737,21.2681,150.715,99.274,97.4957,0.00125536,0.0542452,20.9562,176.978,0.175457,0.0,0.0
1584,395.75,20.1878,21.0261,145.835,99.2424,97.137,0.00127358,0.0543818,20.9562,176.948,0.208146,0.0,0.0
1590,397.25,20.3788,21.3024,148.603,99.2306,97.104,0.00125436,0.0544187,20.9562,176.928,0.210297,0.0,0.0
1596,398.75,20.3522,21.4373,150.511,99.2084,97.0604,0.00114892,0.0546007,20.9562,176.838,0.212473,0.0,0.0
1602,400.25,20.1613,21.2374,150.247,99.1763,97.3056,0.00101709,0.0557777,20.9562,176.868,0.184853,0.0,0.0
1608,401.75,20.2562,21.5486,150.203,99.1642,97.2387,0.000946692,0.0576522,20.9562,176.848,0.19034,0.0,0.0
1614,403.25,20.5706,21.6876,149.932,99.1285,97.1053,0.00102743,0.059201,20.9557,176.828,0.20017,0.0,0.0
1620,404.75,20.393,21.0576,149.693,99.1103,97.0058,0.00123641,0.0604424,20.9536,176.798,0.208333,0.0,0.0
1626,406.25,20.7256,21.6475,150.815,99.1216,97.3051,0.00144848,0.0607779,20.9519,176.768,0.179542,0.0,0.0
1632,407.75,20.6308,21.3805,149.103,99.231,97.3544,0.0015489,0.0606143,20.9508,176.758,0.185334,0.0,0.0
1638,409.25,20.367,21.449,146.017,99.3368,96.9323,0.00151668,0.0601539,20.95,176.718,0.237849,0.0,0.0
1644,410.75,20.4815,20.9662,150.525,99.4462,97.4455,0.0014458,0.0593606,20.9505,176.718,0.197278,0.0,0.0
1650,412.25,20.4569,21.1458,151.977,99.5394,97.3425,0.00151208,0.0580866,20.9509,176.628,0.216635,0.0,0.0
1656,413.75,20.2397,21.4071,151.63,99.6427,97.7972,0.00169054,0.056693,20.9507,176.638,0.181475,0.0,0.0
1662,415.25,21.1394,21.0099,152.763,99.7011,97.7998,0.00182362,0.0557337,20.9516,176.568,0.186895,0.0,0.0
1668,416.75,20.3979,21.3459,148.018,99.7833,97.2708,0.00185616,0.0549632,20.9527,176.578,0.24755,0.0,0.0
1674,418.25,20.1118,20.8512,148.51,99.8234,97.1506,0.00182336,0.054392,20.9539,176.538,0.26345,0.0,0.0
1680,419.75,20.9789,21.5975,147.413,99.8919,97.3064,0.00178925,0.0538699,20.9546,176.518,0.254553,0.0,1.0
1686,421.25,20.595,21.7149,146.549,99.9126,96.8408,0.00173836,0.05364,20.956,176.448,0.303123,0.0,0.0
1692,422.75,20.7332,22.0221,145.924,99.9353,97.905,0.00169859,0.0539475,20.9568,176.468,0.199235,0.0,0.0
1698,424.25,20.2965,21.4303,150.039,99.9486,97.4416,0.00166981,0.0543953,20.9572,176.418,0.246592,0.0,0.0
1704,425.75,20.2712,21.469,149.706,99.9786,97.5005,0.00164334,0.0550305,20.9564,176.378,0.243631,0.0,0.0
1710,427.25,20.2475,21.4088,145.742,99.9543,97.8658,0.00164377,0.0563709,20.9553,176.328,0.204971,0.0,0.0
1716,428.75,20.6175,21.6019,148.116,99.9462,97.9393,0.00172957,0.057402,20.9542,176.258,0.196895,0.0,0.0
1722,430.25,20.8346,21.8371,150.069,99.9037,96.8923,0.00182638,0.0578887,20.9528,176.318,0.297097,0.0,0.0
1728,431.75,20.619,21.5561,146.57,99.8648,99.1149,0.00189681,0.0578754,20.9517,176.167,0.073162,0.0,1.0
1734,433.25,21.0315,21.6348,141.146,99.7979,99.6391,0.00184361,0.0574547,20.9511,176.137,0.015459,0.0,1.0
1740,434.75,19.9846,21.9599,144.234,99.7319,99.6202,0.00175698,0.0573672,20.9508,176.057,0.0108771,0.0,1.0
1746,436.25,20.4051,21.9073,141.384,99.6395,99.3781,0.00170532,0.0584311,20.9506,175.817,0.025497,0.0,1.0
1752,437.75,21.1112,22.7217,138.868,99.5366,99.2645,0.00172528,0.0596363,20.9505,175.777,0.0265622,0.0,0.0
1758,439.25,21.637,23.7481,134.733,99.492,98.6959,0.0018612,0.0640384,20.9499,175.607,0.0779821,0.0,0.0
1764,440.75,23.06,25.7725,134.811,99.5447,98.8002,0.00208921,0.0772654,20.9478,175.407,0.0728668,0.0,0.0
1770,442.25,23.7528,26.8682,134.452,99.5937,98.4684,0.00225634,0.0989427,20.9435,175.257,0.110305,0.0,0.0
1776,443.75,25.0912,28.6053,133.687,99.6492,98.923,0.0023654,0.131457,20.9301,174.966,0.070998,0.0,0.0
1782,445.25,26.0155,30.0141,133.414,99.7035,98.8059,0.0024668,0.168865,20.9104,174.786,0.0877814,0.0,0.0
1788,446.75,27.4324,30.6773,132.515,99.7764,98.6312,0.00250201,0.211676,20.8731,174.576,0.11206,0.0,0.0
1794,448.25,28.196,31.9984,129.144,99.8672,99.1325,0.00245084,0.260874,20.8274,174.396,0.0716746,0.0,0.0
1800,449.75,28.9663,34.3885,126.883,99.9353,99.1264,0.00234064,0.303559,20.7792,174.146,0.0788923,0.0,0.0
1806,451.25,30.2148,35.4846,134.338,100.015,99.188,0.00228158,0.341717,20.725,173.956,0.0806506,0.0,0.0
1812,452.75,31.0341,36.5252,123.299,100.073,99.607,0.002288,0.373862,20.6831,173.705,0.045314,0.0,0.0
1818,454.25,31.8884,38.2248,131.537,100.146,99.6928,0.0022953,0.399414,20.6397,173.555,0.0440262,0.0,0.0
1824,455.75,33.0253,39.1005,128.683,100.203,99.2597,0.00232008,0.419218,20.6039,173.265,0.0918229,0.0,0.0
1830,457.25,34.0674,39.8615,125.64,100.268,99.283,0.00241842,0.437815,20.5649,173.115,0.0958202,0.0,0.0
1836,458.75,34.7938,41.7985,139.846,100.293,99.4872,0.00254994,0.451265,20.5344,172.845,0.078346,0.0,0.0
1842,460.25,35.4976,42.4292,127.19,100.326,99.3948,0.00275459,0.462918,20.5121,172.654,0.0905046,0.0,0.0
1848,461.75,37.086,43.7963,125.365,100.348,99.3873,0.00300696,0.472393,20.4955,172.414,0.0933519,0.0,0.0
1854,463.25,37.5841,44.9071,124.304,100.352,99.4067,0.00322139,0.481085,20.4812,172.144,0.0918917,0.0,0.0
1860,464.75,38.5516,45.989,127.283,100.362,99.4798,0.00332647,0.488781,20.4698,171.914,0.085701,0.0,0.0
1866,466.25,39.0449,46.7527,128.623,100.351,99.4318,0.00328346,0.495131,20.461,171.663,0.0892859,0.0,0.0
1872,467.75,39.7378,47.2593,130.196,100.326,99.5097,0.00320008,0.501689,20.4516,171.433,0.0793308,0.0,0.0
1878,469.25,40.4826,48.5699,130.173,100.297,99.2866,0.00315378,0.508284,20.4436,171.183,0.0982994,0.0,0.0
1884,470.75,41.6428,49.2354,124.549,100.255,99.2835,0.00318407,0.514338,20.4355,170.983,0.094522,0.0,0.0
1890,472.25,41.7753,50.2483,132.751,100.206,99.1484,0.0032709,0.519927,20.4281,170.703,0.103033,0.0,0.0
1896,473.75,42.9253,50.7261,127.361,100.145,98.8108,0.00334594,0.524475,20.4225,170.442,0.13017,0.0,0.0
1902,475.25,43.3993,51.5843,128.92,100.073,98.7219,0.00338006,0.530445,20.4148,170.212,0.131993,0.0,0.0
1908,476.75,44.3712,52.4503,130.586,99.992,98.6862,0.00335007,0.535436,20.4095,169.952,0.127596,0.0,0.0
1914,478.25,44.7014,53.4981,129.591,99.9069,98.192,0.00326007,0.540365,20.4032,169.702,0.168071,0.0,0.0
1920,479.75,45.3018,54.4697,121.564,99.8271,97.9904,0.00319368,0.544186,20.3977,169.451,0.180259,0.0,0.0
1926,481.25,46.185,54.8148,123.414,99.7201,98.298,0.00318089,0.547811,20.3927,169.181,0.139424,0.0,0.0
1932,482.75,46.5006,55.9468,129.032,99.6403,97.758,0.00324865,0.553012,20.3864,168.871,0.185127,0.0,0.0
1938,484.25,47.4902,56.0095,128.926,99.5191,98.1097,0.00332698,0.55874,20.381,168.601,0.138461,0.0,0.0
1944,485.75,47.8915,56.9501,124.085,99.4215,97.1859,0.0033573,0.564813,20.3744,168.391,0.220766,0.0,0.0
1950,487.25,48.6177,57.5293,129.019,99.3096,97.2404,0.00334222,0.572015,20.3681,168.07,0.204393,0.0,0.0
1956,488.75,48.8767,58.2946,120.352,99.2181,97.3571,0.00336074,0.579649,20.3614,167.84,0.183802,0.0,0.0
1962,490.25,49.794,59.1894,126.449,99.1066,97.0124,0.00343598,0.586849,20.3524,167.51,0.207315,0.0,0.0
1968,491.75,50.4944,59.9559,123.431,99.013,96.8412,0.00353741,0.593714,20.3436,167.27,0.215289,0.0,0.0
1974,493.25,50.867,60.2811,129.156,98.913,96.5904,0.00363826,0.599228,20.3355,166.989,0.230651,0.0,0.0
1980,494.75,51.3215,61.0908,127.838,98.8258,96.4108,0.00374876,0.604348,20.3286,166.719,0.240161,0.0,0.0
1986,496.25,51.3971,61.4205,130.879,98.7521,96.4887,0.00387913,0.609444,20.322,166.409,0.225074,0.0,0.0
1992,497.75,52.2446,62.2308,122.69,98.6816,96.5402,0.00398484,0.614244,20.3159,166.159,0.212963,0.0,0.0
1998,499.25,52.752,62.8884,124.505,98.6127,95.9003,0.00402657,0.618926,20.3108,165.868,0.270743,0.0,0.0
2004,500.75,53.0314,63.3043,127.849,98.558,95.9799,0.00400522,0.623053,20.3062,165.638,0.257297,0.0,0.0
2010,502.25,53.9291,64.0506,123.311,98.511,95.6991,0.00393755,0.626081,20.3013,165.368,0.281107,0.0,0.0
2016,503.75,54.5807,64.6513,126.249,98.5061,95.3404,0.00394023,0.628474,20.2948,165.038,0.317079,0.0,0.0
2022,505.25,55.1194,65.0173,124.082,98.4632,95.7779,0.00399577,0.631051,20.2906,164.757,0.268407,0.0,0.0
2028,506.75,55.1047,65.5371,125.226,98.4701,94.873,0.00404305,0.635938,20.2871,164.437,0.361231,0.0,0.0
2034,508.25,56.0151,65.9133,125.643,98.4713,94.4553,0.004032,0.640351,20.2848,164.187,0.404181,0.0,0.0
2040,509.75,56.2287,66.4896,122.251,98.4867,94.4082,0.00403768,0.643747,20.279,163.907,0.410539,0.0,0.0
2046,511.25,56.5071,67.3137,119.566,98.5102,94.4905,0.00411514,0.647584,20.2721,163.606,0.404396,0.0,0.0
2052,512.75,57.4875,66.8819,127.215,98.539,94.8057,0.00424131,0.651754,20.2672,163.336,0.374911,0.0,0.0
2058,514.25,57.4557,68.0197,126.756,98.5912,94.6904,0.00431038,0.655502,20.2638,163.036,0.391874,0.0,0.0
2064,515.75,57.9682,68.3932,121.493,98.6293,95.2828,0.00431449,0.658113,20.26,162.745,0.335083,0.0,0.0
2070,517.25,57.8478,68.7595,130.58,98.6958,94.8541,0.00431087,0.660621,20.2556,162.495,0.385391,0.0,0.0
2076,518.75,58.8218,68.9475,123.709,98.748,94.888,0.00438169,0.664083,20.2511,162.185,0.387064,0.0,0.0
2082,520.25,58.9224,69.7853,127.996,98.8214,94.2489,0.00448941,0.666848,20.2482,161.825,0.459866,0.0,0.0
2088,521.75,59.3569,69.9064,122.351,98.8595,94.6305,0.00461207,0.670437,20.2442,161.574,0.424386,0.0,0.0
2094,523.25,59.5892,70.0277,120.156,98.9332,94.0038,0.00473009,0.673525,20.2406,161.294,0.496126,0.0,0.0
2100,524.75,59.9664,70.1083,118.587,98.9936,93.7542,0.00484852,0.676274,20.2384,161.014,0.527851,0.0,0.0
2106,526.25,60.3754,70.4761,128.49,99.0548,94.7106,0.00490655,0.677581,20.2347,160.714,0.43533,0.0,0.0
2112,527.75,60.2324,70.7314,121.563,99.1111,93.9888,0.00487806,0.677084,20.23,160.363,0.515109,0.0,0.0
2118,529.25,60.4546,71.2523,124.738,99.1776,93.7467,0.00485496,0.675685,20.2279,160.093,0.546648,0.0,0.0
2124,530.75,60.4694,71.3005,129.844,99.2464,94.66,0.00492464,0.67481,20.227,159.773,0.459283,0.0,0.0
2130,532.25,60.8293,71.3936,126.136,99.2813,93.9003,0.00504156,0.676132,20.2271,159.503,0.540904,0.0,0.0
2136,533.75,61.8566,72.0464,125.424,99.3299,94.1908,0.00513388,0.677558,20.2271,159.132,0.515674,0.0,0.0
2142,535.25,62.0292,72.2507,125.974,99.3915,92.8168,0.00521552,0.679411,20.2262,158.792,0.664341,0.0,0.0
2148,536.75,62.1082,72.5598,126.859,99.4268,91.9981,0.00535311,0.682392,20.2244,158.582,0.753777,0.0,0.0
2154,538.25,62.9463,73.0665,123.883,99.4669,90.6373,0.00548374,0.684191,20.2225,158.292,0.902353,0.0,0.0
2160,539.75,62.7448,73.1562,127.914,99.5054,89.868,0.0055984,0.684969,20.2191,157.971,0.988854,0.0,0.0
2166,541.25,63.2725,73.2421,117.582,99.5455,90.6214,0.00575351,0.687925,20.2165,157.701,0.911719,0.0,0.0
2172,542.75,63.4748,73.4175,123.716,99.5722,92.2552,0.00593978,0.6936,20.2149,157.361,0.740885,0.0,0.0
2178,544.25,63.8133,74.4591,125.132,99.5949,91.918,0.00612727,0.698535,20.2117,157.03,0.778636,0.0,0.0
2184,545.75,63.9961,74.2936,118.588,99.6245,92.3348,0.00632735,0.703519,20.2049,156.66,0.737602,0.0,0.0
2190,547.25,64.4886,75.4537,121.49,99.6375,93.4307,0.00651711,0.707759,20.1986,156.32,0.624334,0.0,0.0
2196,548.75,64.6848,75.57,123.806,99.6601,94.2164,0.00675577,0.711882,20.1928,156.009,0.545263,0.0,0.0
2202,550.25,65.6838,76.0783,117.251,99.6686,93.6618,0.00702101,0.723867,20.1863,155.619,0.603395,0.0,0.0
2208,551.75,65.7571,76.1086,121.287,99.68,93.3665,0.00726588,0.741941,20.1795,155.289,0.635155,0.0,0.0
2214,553.25,65.7373,76.6743,125.112,99.697,93.2296,0.00740991,0.760985,20.1663,154.969,0.651054,0.0,0.0
2220,554.75,66.1861,76.8464,125.746,99.7047,91.2733,0.00749168,0.784609,20.1424,154.578,0.857663,0.0,0.0
2226,556.25,65.1762,76.0895,124.045,99.7108,91.3917,0.00758942,0.800404,20.1208,154.398,0.845673,0.0,0.0
2232,557.75,65.7131,75.5075,126.319,99.7071,91.4132,0.0078636,0.812817,20.0944,154.178,0.843027,0.0,0.0
2238,559.25,64.7419,74.5709,130.255,99.7092,92.4867,0.00832095,0.818501,20.0699,153.968,0.7299,0.0,0.0
2244,560.75,64.1953,73.7485,133.552,99.708,93.9809,0.00894889,0.817755,20.0532,153.757,0.574209,0.0,0.0
2250,562.25,63.7026,72.4063,134.199,99.71,95.0341,0.00969248,0.807266,20.0444,153.597,0.466227,0.0,0.0
2256,563.75,62.9729,71.975,137.935,99.6763,96.3382,0.0105188,0.784314,20.0416,153.457,0.330656,0.0,0.0
2262,565.25,61.6592,69.7195,137.336,99.6618,97.4843,0.0112437,0.746295,20.0463,153.347,0.214439,0.0,0.0
2268,566.75,61.0233,68.8696,138.983,99.6577,98.6198,0.0114806,0.691126,20.0706,153.287,0.101629,0.0,0.0
2274,568.25,59.4671,67.0289,138.854,99.6419,99.1479,0.0109226,0.63373,20.1229,153.197,0.0482437,0.0,0.0
2280,569.75,57.9948,65.7585,140.741,99.633,99.5643,0.00982255,0.577023,20.1853,153.097,0.00669768,0.0,0.0
2286,571.25,57.4961,63.6043,138.634,99.603,99.6004,0.00896479,0.521851,20.2368,153.087,0.000258045,0.0,0.0
2292,572.75,55.8484,61.8515,143.328,99.5973,99.6417,0.00763887,0.468126,20.2944,153.027,-0.00432587,0.0,0.0
2298,574.25,55.16,60.893,145.088,99.5669,99.6972,0.0066096,0.408314,20.3663,152.997,-0.0126885,0.0,0.0
2304,575.75,54.102,59.0116,142.885,99.5455,99.6188,0.00580003,0.356317,20.4533,152.897,-0.00715219,0.0,0.0
2310,577.25,52.7972,57.7389,138.797,99.5374,99.5779,0.00524633,0.309492,20.5323,152.857,-0.00395311,0.0,0.0
2316,578.75,51.5869,56.3331,142.918,99.5106,99.6602,0.00502227,0.271065,20.5971,152.867,-0.014582,0.0,0.0
2322,580.25,50.4833,55.0987,143.541,99.5025,99.6083,0.00507585,0.240299,20.6513,152.867,-0.0103124,0.0,0.0
2328,581.75,50.0625,53.7461,146.078,99.4648,99.5581,0.00551059,0.216246,20.6907,152.837,-0.00909785,0.0,0.0
2334,583.25,48.5778,52.1676,143.167,99.4268,99.5145,0.00621338,0.192316,20.7333,152.827,-0.00856681,0.0,0.0
2340,584.75,48.0704,51.9284,146.675,99.4049,99.4362,0.00715209,0.172717,20.7687,152.797,-0.00305829,0.0,0.0
2346,586.25,47.2404,49.9918,143.205,99.3676,99.452,0.00834202,0.15663,20.7932,152.807,-0.00824542,0.0,0.0
2352,587.75,46.411,48.9949,143.197,99.3579,99.4331,0.00967507,0.142684,20.813,152.767,-0.00734905,0.0,0.0
2358,589.25,43.6992,45.999,146.378,99.3396,99.4494,0.0108826,0.130924,20.8318,152.687,-0.0107195,0.0,0.0
2364,590.75,42.6741,45.0279,143.883,99.3246,99.3913,0.0119567,0.121237,20.8463,152.596,-0.00651298,0.0,0.0
2370,592.25,41.726,44.2166,142.44,99.3052,99.4644,0.0127134,0.114053,20.8559,152.636,-0.0155462,0.0,0.0
2376,593.75,41.1534,43.124,151.227,99.274,99.3746,0.0135329,0.106531,20.8665,152.606,-0.00983047,0.0,0.0
2382,595.25,39.8922,42.041,144.24,99.2785,99.32,0.0141004,0.100602,20.8757,152.666,-0.00406192,0.0,0.0
2388,596.75,40.169,41.709,149.694,99.2501,99.3336,0.0144911,0.0953309,20.8837,152.646,-0.00816956,0.0,0.0
2394,598.25,38.7933,40.2695,145.524,99.2493,99.3627,0.0147237,0.091238,20.8899,152.596,-0.0110868,0.0,0.0
2400,599.75,38.3993,40.324,143.176,99.2302,99.3601,0.0149235,0.0876361,20.8944,152.596,-0.012692,0.0,0.0
2406,601.25,38.225,39.2553,145.076,99.2254,99.3042,0.0150752,0.0846078,20.8993,152.586,-0.00770458,0.0,0.0
2412,602.75,37.8299,38.5674,146.746,99.2112,99.2866,0.0151249,0.0820107,20.9036,152.566,-0.00737163,0.0,0.0
2418,604.25,36.5127,38.0864,149.406,99.2209,99.2923,0.0150432,0.0801588,20.9075,152.576,-0.00697906,0.0,0.0
2424,605.75,35.9482,37.3789,146.026,99.2047,99.2804,0.0149051,0.0788925,20.9097,152.556,-0.0074029,0.0,0.0
2430,607.25,35.9746,37.242,146.925,99.2217,99.3358,0.014753,0.0779561,20.9115,152.556,-0.0111592,0.0,0.0
2436,608.75,35.1516,35.813,142.004,99.1861,99.3042,0.0145691,0.0771181,20.913,152.516,-0.0115502,0.0,0.0
2442,610.25,35.3139,35.7502,144.369,99.1913,99.2623,0.0143909,0.0765406,20.9137,152.546,-0.00694722,0.0,0.0
2448,611.75,34.3781,35.244,147.661,99.18,99.2452,0.014268,0.0762254,20.9141,152.496,-0.00637866,0.0,0.0
2454,613.25,34.0433,34.7429,149.34,99.1877,99.2351,0.0142084,0.0760591,20.9143,152.526,-0.00463556,0.0,0.0
2460,614.75,33.8387,34.3823,143.459,99.1642,99.1875,0.0141516,0.075887,20.9144,152.456,-0.00228451,0.0,0.0
2466,616.25,33.2496,34.0324,142.122,99.1723,99.2324,0.0140501,0.0755511,20.9151,152.496,-0.00588366,0.0,0.0
2472,617.75,32.8708,33.6553,144.795,99.1836,99.346,0.0139434,0.0752848,20.9153,152.366,-0.0158748,0.0,0.0
2478,619.25,32.1474,33.1519,146.386,99.1678,99.1924,0.0137995,0.0749697,20.9153,152.436,-0.00240142,0.0,0.0
2484,620.75,32.1855,32.912,142.528,99.1585,99.1871,0.013656,0.0746313,20.9153,152.416,-0.00279727,0.0,0.0
2490,622.25,31.7417,32.521,144.114,99.1565,99.1554,0.0135635,0.0744715,20.9154,152.416,0.000106459,0.0,0.0
2496,623.75,31.7589,32.3036,142.612,99.1618,99.1695,0.0136061,0.0743077,20.9151,152.406,-0.000756238,0.0,0.0
2502,625.25,31.476,32.1714,144.811,99.1557,99.221,0.0137548,0.0743783,20.9149,152.406,-0.00639082,0.0,0.0
2508,626.75,30.9193,31.5848,144.653,99.1605,99.2632,0.0138821,0.0745857,20.9147,152.376,-0.0100477,0.0,0.0
2514,628.25,30.9308,31.7033,143.759,99.1468,99.2914,0.0139751,0.0746251,20.9146,152.296,-0.0141503,0.0,0.0
2520,629.75,30.2005,30.9555,145.772,99.1431,99.2263,0.0141115,0.0747207,20.9146,152.336,-0.00813713,0.0,0.0
2526,631.25,29.5914,30.3316,147.821,99.1395,99.239,0.0142247,0.0747288,20.9146,152.396,-0.00974302,0.0,0.0
2532,632.75,30.3493,30.616,146.007,99.1492,99.2813,0.0143066,0.0746295,20.9145,152.386,-0.0129226,0.0,0.0
2538,634.25,29.2715,30.2848,147.803,99.131,99.1554,0.0143258,0.0746778,20.9145,152.346,-0.00239274,0.0,0.0
2544,635.75,29.5363,29.8303,146.798,99.1536,99.2403,0.01433,0.0747261,20.9145,152.336,-0.00848342,0.0,0.0
2550,637.25,29.4976,29.4101,147.561,99.1443,99.1083,0.0143872,0.074532,20.9141,152.296,0.00352756,0.0,0.0
2556,638.75,29.3779,29.4956,145.301,99.1613,99.151,0.0145202,0.0744811,20.9132,152.306,0.00101362,0.0,0.0
2562,640.25,28.8628,29.0817,146.198,99.1504,99.1928,0.0146786,0.0745605,20.9137,152.286,-0.00414991,0.0,0.0
2568,641.75,28.7288,29.1846,146.266,99.1699,99.2368,0.0147844,0.0747067,20.9131,152.316,-0.00655235,0.0,0.0
2574,643.25,28.6041,28.7822,150.967,99.1727,99.2434,0.0149655,0.0749987,20.9128,152.306,-0.00692058,0.0,0.0
2580,644.75,28.1195,28.5589,145.598,99.1958,99.2408,0.0151838,0.0753668,20.9127,152.326,-0.0044017,0.0,0.0
2586,646.25,28.3002,28.1658,146.966,99.2015,99.2311,0.0153995,0.0754789,20.913,152.256,-0.00289913,0.0,0.0
2592,647.75,27.8941,28.2672,144.018,99.2108,99.3257,0.0156117,0.0755463,20.9131,152.306,-0.0112397,0.0,0.0
2598,649.25,27.8016,28.3438,147.453,99.2104,99.265,0.0158271,0.075691,20.9132,152.166,-0.00534179,0.0,0.0
2604,650.75,27.9039,28.0293,143.657,99.2266,99.3279,0.0161076,0.0759257,20.9132,152.236,-0.00990982,0.0,0.0
2610,652.25,27.7744,27.9134,147.491,99.2278,99.2918,0.016333,0.0759972,20.9132,152.086,-0.00626229,0.0,0.0
2616,653.75,27.613,27.341,146.186,99.2436,99.3112,0.016447,0.0761324,20.9132,152.126,-0.00660909,0.0,0.0
2622,655.25,27.3859,27.2226,145.854,99.2477,99.3024,0.0165237,0.0762621,20.9132,152.076,-0.00535337,0.0,0.0
2628,656.75,27.2452,26.5254,146.559,99.2464,99.3077,0.0166782,0.0764579,20.9132,152.126,-0.00598787,0.0,0.0
2634,658.25,26.9499,26.8894,142.705,99.2602,99.3693,0.0169053,0.0766077,20.9128,152.166,-0.010661,0.0,0.0
2640,659.75,27.0955,27.2527,146.994,99.2898,99.3697,0.017138,0.0766302,20.9119,152.156,-0.00781228,0.0,0.0
2646,661.25,26.8899,26.9821,149.167,99.2675,99.2892,0.0173412,0.076722,20.9114,152.146,-0.00212016,0.0,0.0
2652,662.75,26.9083,26.8206,146.267,99.274,99.3627,0.0175301,0.0769264,20.9112,152.126,-0.00866989,0.0,0.0
2658,664.25,26.8512,26.6485,146.195,99.2809,99.3645,0.0176878,0.07699,20.911,152.136,-0.0081684,0.0,0.0
2664,665.75,26.7156,26.4448,145.666,99.2849,99.3671,0.0178169,0.0772681,20.9108,152.106,-0.00803,0.0,0.0
2670,667.25,26.6393,26.5727,147.408,99.2943,99.3662,0.0179954,0.0774808,20.9104,152.086,-0.00703233,0.0,0.0
2676,668.75,26.1002,26.3362,145.485,99.3011,99.401,0.0181784,0.0775026,20.9102,152.046,-0.00975518,0.0,0.0
2682,670.25,26.3825,26.4036,149.269,99.3129,99.3121,0.018323,0.0775679,20.9101,152.026,7.8687e-05,0.0,0.0
2688,671.75,25.8171,25.9654,146.333,99.3113,99.3416,0.01842,0.0777274,20.9101,152.026,-0.00296164,0.0,0.0
2694,673.25,26.1216,25.5783,151.47,99.3194,99.4252,0.0184641,0.0778222,20.9091,151.996,-0.0103367,0.0,0.0
2700,674.75,25.4437,26.0583,143.398,99.3165,99.272,0.0184833,0.0779999,20.9084,152.006,0.00435113,0.0,0.0
2706,676.25,25.7967,25.9102,146.394,99.3291,99.456,0.0185416,0.0780769,20.9078,152.016,-0.0123942,0.0,0.0
2712,677.75,25.9077,25.2083,146.135,99.3311,99.3834,0.0186412,0.0780334,20.9073,151.956,-0.00510502,0.0,0.0
2718,679.25,25.4178,25.9128,146.979,99.338,99.3706,0.0187274,0.0781299,20.9071,152.006,-0.00318504,0.0,0.0
2724,680.75,25.0382,25.6438,147.548,99.3344,99.4076,0.0188635,0.078321,20.9069,151.926,-0.00715219,0.0,0.0
2730,682.25,25.2654,24.7762,145.33,99.3408,99.4027,0.019107,0.0785138,20.9069,151.956,-0.00604634,0.0,0.0
2736,683.75,25.0779,25.5125,145.121,99.3481,99.3671,0.019345,0.0787968,20.9068,151.826,-0.00185222,0.0,0.0
2742,685.25,25.0962,25.287,146.554,99.3538,99.3746,0.0196776,0.0790863,20.9064,151.906,-0.00202815,0.0,0.0
2748,686.75,24.5379,24.9621,148.732,99.3485,99.364,0.0199332,0.0790505,20.9058,151.816,-0.0015108,0.0,0.0
2754,688.25,24.9105,25.327,146.937,99.3603,99.3997,0.0200515,0.0790161,20.9055,151.776,-0.00384545,0.0,0.0
2760,689.75,24.8914,24.9005,148.455,99.3639,99.3882,0.0200804,0.0790511,20.9057,151.846,-0.00237132,0.0,0.0
2766,691.25,24.6382,24.5685,145.685,99.3627,99.408,0.0201257,0.0792133,20.9063,151.806,-0.00442485,0.0,0.0
2772,692.75,24.9083,25.1537,148.529,99.3648,99.4468,0.0202278,0.0793419,20.9072,151.726,-0.00800742,0.0,0.0
2778,694.25,24.1415,24.5689,149.583,99.3895,99.4481,0.0203067,0.0793295,20.9075,151.736,-0.00572156,0.0,0.0
2784,695.75,24.1689,24.2462,144.924,99.3793,99.4137,0.0203347,0.0792144,20.9068,151.796,-0.00336041,0.0,0.0
2790,697.25,23.7271,24.529,147.106,99.3757,99.3517,0.0202777,0.0789736,20.9064,151.706,0.00234529,0.0,0.0
2796,698.75,24.6385,24.3718,147.352,99.3838,99.4375,0.0201895,0.0790915,20.907,151.796,-0.00524512,0.0,0.0
2802,700.25,24.1003,23.835,146.355,99.3968,99.3975,0.0201827,0.0793313,20.9065,151.736,-6.76945e-05,0.0,0.0
2808,701.75,23.9923,24.1423,145.187,99.415,99.3658,0.0203202,0.079536,20.9063,151.696,0.00480799,0.0,0.0
2814,703.25,24.1634,23.8587,148.783,99.4203,99.3992,0.0205219,0.0796876,20.9061,151.656,0.00205491,0.0,0.0
2820,704.75,24.011,24.1808,146.757,99.4397,99.4784,0.0208306,0.07987,20.9061,151.626,-0.00378062,0.0,0.0
2826,706.25,23.4044,24.1823,150.131,99.462,99.4837,0.0212059,0.080129,20.906,151.646,-0.00212016,0.0,0.0
2832,707.75,23.6798,23.8481,145.554,99.4802,99.5233,0.0215125,0.0802399,20.9058,151.676,-0.00420547,0.0,0.0
2835,708.5,24.2797,24.4085,147.199,99.4786,99.4208,0.0216171,0.0804061,20.9056,151.656,0.00564417,0.0,0.0