File: 01_Data/Masonite_Board/Cone/Masonite_Cone_HF15Scan_230106_R3.csv
Names,Time,Stack TC,Smoke TC,Exh Press,Smoke Comp,Smoke Meas,CO Meter,CO2 Meter,O2 Meter,Sample Mass,Ext Coeff,Start Test,Flame Verif
Chan Gain,,500,500,1,1,1,1,1,1,1,1,1.0,1.0
Offset,,0,0,0.303564,0,0,0,0,0,0,0,0.0,0.0
Gain,,1,1,25.011,13.3266,14.4891,1,1,1,1.00089,1.1066,1.0,1.0
Units,sec,C,C,Pa,%,%,%,%,%,g,/m,,
Baseline,,21.4337,21.9732,149.901,99.862,99.8678,0.000507439,0.0498404,20.9588,-443.532,-0.000557067,,
6,1.25,19.1027,20.0621,154.245,99.9645,99.8734,0.000886213,0.0600768,20.9519,177.178,0.00884713,0.0,0.0
12,2.75,19.2766,20.053,149.239,99.9543,99.9088,0.000844709,0.0608836,20.9478,177.208,0.00442168,0.0,0.0
18,4.25,19.252,19.792,152.98,99.9246,99.8155,0.000756597,0.0612764,20.9455,177.218,0.0106077,0.0,0.0
24,5.75,19.5526,19.8943,148.857,99.9124,99.7841,0.000638002,0.0615493,20.9453,177.238,0.0124766,0.0,0.0
30,7.25,19.5807,19.8065,151.396,99.8754,99.716,0.00057014,0.061765,20.9452,177.198,0.0155064,0.0,0.0
36,8.75,19.8921,19.7167,147.438,99.8481,99.8137,0.000574244,0.0616076,20.9454,177.238,0.00334942,0.0,0.0
42,10.25,19.956,19.8462,148.421,99.8156,99.7275,0.000633567,0.0605542,20.9451,177.218,0.00857429,0.0,0.0
48,11.75,19.689,19.9742,149.722,99.7916,99.712,0.00069102,0.0590875,20.9447,177.238,0.00774761,0.0,0.0
54,13.25,19.9302,19.4558,151.615,99.7538,99.6479,0.000673324,0.05745,20.945,177.228,0.0103107,0.0,0.0
60,14.75,19.6939,20.2551,152.418,99.7339,99.5736,0.000540196,0.0558258,20.9474,177.248,0.0156103,0.0,0.0
66,16.25,19.7466,20.4496,148.371,99.718,99.6346,0.000411968,0.0544114,20.9504,177.248,0.00811991,0.0,0.0
72,17.75,19.614,20.5305,151.631,99.6956,99.6267,0.000340893,0.0532314,20.9526,177.238,0.0067185,0.0,0.0
78,19.25,19.746,20.2585,150.143,99.6737,99.6094,0.000303939,0.0525638,20.9543,177.218,0.00625941,0.0,0.0
84,20.75,19.8852,20.0133,149.427,99.6635,99.5528,0.000270862,0.0525745,20.9551,177.198,0.0107869,0.0,0.0
90,22.25,19.872,19.7896,145.42,99.6619,99.6015,0.000269134,0.0526824,20.9556,177.178,0.00588703,0.0,0.0
96,23.75,19.6357,20.2046,152.547,99.6257,99.5555,0.000302692,0.0528349,20.9558,177.178,0.00684338,0.0,0.0
102,25.25,19.4338,20.3717,147.384,99.6119,99.5802,0.000320552,0.0529171,20.956,177.148,0.00308104,0.0,0.0
108,26.75,19.1057,20.0012,150.941,99.5883,99.5197,0.000291217,0.0527987,20.956,177.168,0.00669074,0.0,0.0
114,28.25,19.5988,20.6098,147.724,99.5635,99.4516,0.000281856,0.0524608,20.9561,177.128,0.0109164,0.0,0.0
120,29.75,19.8306,20.3918,150.532,99.5472,99.4197,0.000297923,0.0520967,20.9561,177.128,0.0124385,0.0,0.0
126,31.25,19.3352,20.5096,151.862,99.5248,99.4127,0.000301671,0.0516869,20.9561,177.118,0.0109476,0.0,0.0
132,32.75,19.1671,20.1342,149.715,99.4992,99.3848,0.000304712,0.0512667,20.9565,177.098,0.0111672,0.0,0.0
138,34.25,18.9995,20.043,150.642,99.4837,99.4299,0.000322589,0.0508512,20.958,177.098,0.00525674,0.0,0.0
144,35.75,19.2248,20.4282,151.707,99.4683,99.3981,0.000345369,0.0504028,20.9589,177.058,0.00685726,0.0,0.0
150,37.25,19.8291,19.8474,146.073,99.4813,99.3401,0.00036732,0.0499811,20.9593,176.998,0.0137848,0.0,0.0
156,38.75,19.7452,20.6982,149.677,99.4715,99.3627,0.000415403,0.0495822,20.9595,177.018,0.0106297,0.0,0.0
162,40.25,19.8329,20.4901,149.49,99.4528,99.4025,0.000523702,0.0493889,20.9594,177.048,0.00491555,0.0,0.0
168,41.75,19.7165,20.3204,147.925,99.452,99.2804,0.000679045,0.049258,20.9592,176.978,0.0167621,0.0,0.0
174,43.25,19.7022,19.9051,152.485,99.4427,99.2972,0.00083514,0.0491495,20.9602,176.998,0.0142065,0.0,0.0
180,44.75,19.3142,20.9153,151.134,99.4305,99.3684,0.000910374,0.0490445,20.9607,176.958,0.00605934,0.0,0.0
186,46.25,19.4828,20.3383,148.273,99.4321,99.3476,0.000892962,0.048926,20.961,176.988,0.00824825,0.0,0.0
192,47.75,19.6471,20.4385,147.417,99.4187,99.3552,0.000743983,0.0489906,20.9611,176.948,0.00620274,0.0,0.0
198,49.25,19.6238,20.1073,151.784,99.4093,99.433,0.0005996,0.0493358,20.9612,176.918,-0.00231056,0.0,0.0
204,50.75,19.6226,20.4461,145.685,99.4118,99.3795,0.000477028,0.0494935,20.9615,176.888,0.00315277,0.0,0.0
210,52.25,20.0069,20.0893,150.666,99.413,99.3238,0.000415945,0.0494693,20.9614,176.908,0.00871418,0.0,0.0
216,53.75,19.6278,20.7181,148.301,99.4183,99.3538,0.000379293,0.0495191,20.9606,176.838,0.00629179,0.0,0.0
222,55.25,19.4319,20.1823,148.106,99.4191,99.3401,0.000333212,0.0495456,20.9603,176.888,0.00771176,0.0,0.0
228,56.75,19.6535,20.5288,151.248,99.4256,99.3826,0.000287952,0.0495461,20.9599,176.888,0.0041996,0.0,0.0
234,58.25,19.8786,20.4871,150.151,99.4248,99.2919,0.00024497,0.0495527,20.9595,176.898,0.0129782,0.0,0.0
240,59.75,19.4391,20.4365,157.057,99.4264,99.3087,0.000195212,0.0494963,20.9593,176.888,0.0114943,0.0,0.0
246,61.25,19.8088,20.2587,147.593,99.4398,99.3202,0.000133257,0.0495359,20.9599,176.868,0.0116815,0.0,0.0
252,62.75,19.8996,20.886,149.153,99.4528,99.2911,8.15554e-05,0.0497794,20.9605,176.838,0.0158033,0.0,0.0
258,64.25,20.1193,20.4319,148.187,99.4711,99.372,2.59111e-05,0.0502892,20.9608,176.828,0.00968181,0.0,0.0
264,65.75,19.9041,20.0414,149.66,99.487,99.4427,-3.58338e-05,0.0509284,20.96,176.818,0.00432105,0.0,0.0
270,67.25,19.612,20.335,151.002,99.5073,99.3945,-0.000114419,0.0516379,20.9588,176.828,0.0110111,0.0,0.0
276,68.75,20.2214,19.831,150.105,99.5382,99.4082,-0.000140864,0.0520599,20.9578,176.808,0.0126881,0.0,0.0
282,70.25,19.5721,20.5069,151.059,99.5553,99.425,-8.91196e-05,0.0520919,20.9573,176.788,0.0127124,0.0,0.0
288,71.75,19.9438,20.5171,152.411,99.5826,99.4617,-1.08045e-05,0.0518738,20.9571,176.768,0.0117867,0.0,0.0
294,73.25,19.9245,20.5222,150.988,99.6208,99.5435,1.57815e-05,0.0515886,20.9569,176.748,0.00753254,0.0,0.0
300,74.75,19.9702,20.6487,151.685,99.6684,99.5656,-1.40559e-05,0.0511479,20.9569,176.768,0.0100113,0.0,0.0
306,76.25,20.0388,20.3086,150.214,99.6867,99.5051,-2.58354e-05,0.0507546,20.9568,176.688,0.0177024,0.0,0.0
312,77.75,19.5954,20.8853,148.826,99.7335,99.5687,4.9058e-05,0.0503575,20.9578,176.698,0.0160447,0.0,0.0
318,79.25,19.7245,20.2217,148.882,99.7697,99.6081,0.000118096,0.0500573,20.9584,176.668,0.0157316,0.0,0.0
324,80.75,19.4436,20.6163,148.041,99.801,99.6749,0.000205726,0.0498914,20.9576,176.678,0.0122744,0.0,0.0
330,82.25,19.5664,20.3594,145.328,99.8221,99.7027,0.000241573,0.0497807,20.9568,176.608,0.0116191,0.0,0.0
336,83.75,19.6944,20.4416,146.966,99.8713,99.693,0.000242854,0.0496455,20.957,176.638,0.0173501,0.0,0.0
342,85.25,20.0618,20.5314,144.691,99.9063,99.7558,0.000256238,0.0494948,20.9576,176.588,0.0146364,0.0,0.0
348,86.75,19.6277,20.5854,152.421,99.9608,99.8336,0.00029948,0.0494654,20.9579,176.608,0.0123599,0.0,0.0
354,88.25,19.3852,20.558,149.986,99.9868,99.7881,0.000347584,0.0494343,20.9581,176.548,0.019317,0.0,0.0
360,89.75,19.9824,20.2477,149.572,100.04,99.8208,0.000404683,0.0493684,20.9582,176.558,0.0213055,0.0,0.0
366,91.25,19.6615,20.3128,146.404,100.074,99.8102,0.000462098,0.0493284,20.9582,176.548,0.0256125,0.0,0.0
372,92.75,19.7247,20.629,152.613,100.096,99.8615,0.000490366,0.0492701,20.9582,176.548,0.0227937,0.0,0.0
378,94.25,19.807,20.2081,147.064,100.137,99.911,0.000539746,0.04921,20.9583,176.488,0.0219255,0.0,0.0
384,95.75,19.8627,20.4467,148.619,100.169,99.9813,0.000585664,0.0491103,20.9583,176.488,0.0182106,0.0,0.0
390,97.25,19.8042,20.6628,149.962,100.208,100.077,0.000613301,0.04911,20.9578,176.448,0.0126431,0.0,0.0
396,98.75,20.1492,20.4297,150.663,100.237,100.073,0.000603905,0.0491928,20.9572,176.428,0.0159477,0.0,0.0
402,100.25,19.8549,20.8719,149.116,100.261,100.087,0.000554182,0.0492659,20.9577,176.398,0.0169019,0.0,0.0
408,101.75,19.7833,20.5854,149.29,100.285,100.097,0.000494612,0.0491958,20.958,176.348,0.0182383,0.0,0.0
414,103.25,20.0258,20.3476,149.254,100.347,100.215,0.000434557,0.04919,20.9587,176.318,0.0127783,0.0,0.0
420,104.75,19.7332,20.5688,149.467,100.368,100.247,0.000325003,0.0491768,20.96,176.258,0.0116538,0.0,0.0
426,106.25,19.8359,20.6853,144.283,100.407,100.178,0.000170336,0.0491748,20.9607,176.278,0.0221149,0.0,0.0
432,107.75,19.958,21.0435,148.178,100.429,100.28,1.23075e-05,0.0491688,20.9611,176.248,0.0143891,0.0,0.0
438,109.25,20.0795,20.5689,149.418,100.467,100.282,-0.00011955,0.0491588,20.9613,176.258,0.0179126,0.0,0.0
444,110.75,20.2891,20.4035,148.084,100.487,100.232,-0.000135827,0.0491333,20.9614,176.228,0.0247538,0.0,0.0
450,112.25,20.3663,20.9045,150.357,100.527,100.244,-4.03862e-05,0.0489955,20.9614,176.218,0.027325,0.0,0.0
456,113.75,20.3305,20.396,147.552,100.541,100.274,0.000152354,0.0490027,20.9615,176.147,0.0258317,0.0,0.0
462,115.25,20.065,20.9218,152.779,100.581,100.331,0.000336976,0.0490599,20.9617,176.178,0.0241986,0.0,0.0
468,116.75,20.0946,20.3858,150.336,100.589,100.321,0.000485911,0.0490863,20.9627,176.107,0.0258421,0.0,0.0
474,118.25,19.7535,20.7659,150.043,100.607,100.413,0.000541474,0.0492592,20.9632,176.117,0.018795,0.0,0.0
480,119.75,20.2695,20.701,148.973,100.614,100.338,0.00053502,0.0496149,20.9627,176.087,0.0267307,0.0,0.0
486,121.25,20.1336,20.3577,149.595,100.641,100.392,0.000483396,0.0503943,20.9622,176.057,0.0240208,0.0,0.0
492,122.75,20.1513,20.6407,150.022,100.649,100.439,0.000435246,0.0511973,20.9612,176.017,0.0202709,0.0,0.0
498,124.25,19.8654,20.954,151.701,100.67,100.453,0.000447206,0.0517506,20.9594,176.007,0.0209083,0.0,0.0
504,125.75,19.9061,20.8469,151.039,100.672,100.416,0.000489703,0.0520379,20.9582,176.007,0.024733,0.0,0.0
510,127.25,19.6604,21.0998,147.94,100.658,100.338,0.000543675,0.0521081,20.9578,175.967,0.0309672,0.0,0.0
516,128.75,19.6168,20.9358,151.003,100.668,100.38,0.000563043,0.051945,20.9576,175.917,0.0278846,0.0,0.0
522,130.25,20.4507,20.8013,147.737,100.66,100.469,0.000575087,0.0517203,20.9576,175.897,0.0184243,0.0,0.0
528,131.75,20.4086,21.0946,153.931,100.658,100.445,0.000576923,0.0512729,20.9575,175.907,0.0205827,0.0,0.0
534,133.25,19.8319,20.7133,145.712,100.659,100.452,0.000534419,0.0507478,20.9585,175.857,0.0199741,0.0,0.0
540,134.75,20.1778,20.6276,148.879,100.645,100.438,0.000473843,0.0503403,20.9591,175.827,0.0200492,0.0,0.0
546,136.25,19.8291,20.2866,148.078,100.629,100.422,0.000416523,0.0499915,20.9594,175.837,0.0199764,0.0,0.0
552,137.75,20.2734,20.8725,149.18,100.618,100.453,0.00037887,0.0497345,20.9596,175.807,0.0159304,0.0,0.0
558,139.25,19.7179,20.5505,148.176,100.592,100.296,0.000314563,0.049562,20.9597,175.747,0.0285989,0.0,0.0
564,140.75,19.9122,21.1318,149.167,100.568,100.414,0.000207736,0.0494455,20.9609,175.757,0.0148986,0.0,0.0
570,142.25,20.4564,20.9076,150.59,100.527,100.299,0.000121649,0.0493064,20.9615,175.667,0.0220952,0.0,0.0
576,143.75,19.772,20.3454,145.747,100.515,100.307,0.000113317,0.0492437,20.9618,175.697,0.0201081,0.0,0.0
582,145.25,19.3597,20.6118,149.113,100.49,100.224,0.000179078,0.0491572,20.962,175.637,0.0256736,0.0,0.0
588,146.75,19.954,20.564,150.274,100.473,100.263,0.000259469,0.0491091,20.962,175.647,0.0203413,0.0,0.0
594,148.25,19.6348,21.2509,147.626,100.432,100.153,0.000367061,0.0490767,20.9621,175.587,0.0270342,0.0,0.0
600,149.75,20.1186,20.7086,149.026,100.417,100.159,0.000419396,0.0489764,20.9621,175.597,0.024898,0.0,0.0
606,151.25,20.5308,20.6132,153.814,100.378,100.092,0.000369785,0.0489417,20.9621,175.517,0.0276816,0.0,0.0
612,152.75,20.0093,20.6787,152.689,100.368,100.146,0.000387105,0.0489831,20.9622,175.487,0.0214683,0.0,0.0
618,154.25,19.7438,20.8646,149.059,100.316,100.098,0.000502403,0.0489707,20.9622,175.457,0.0210977,0.0,0.0
624,155.75,19.519,21.1627,150.46,100.282,99.949,0.000632981,0.0488899,20.9622,175.477,0.032296,0.0,0.0
630,157.25,19.9805,20.319,151.976,100.244,99.9685,0.000647962,0.0487663,20.9622,175.457,0.0267446,0.0,0.0
636,158.75,19.5422,20.4588,150.118,100.224,99.957,0.000584074,0.0486793,20.9622,175.457,0.0258917,0.0,0.0
642,160.25,20.3098,20.9165,149.896,100.178,99.8371,0.000551628,0.0486857,20.9622,175.407,0.0330836,0.0,0.0
648,161.75,19.7975,20.5477,150.776,100.169,99.8721,0.000631427,0.0487159,20.9622,175.377,0.0287811,0.0,0.0
654,163.25,20.0677,20.6151,149.68,100.14,99.8849,0.000779844,0.0487456,20.9622,175.407,0.0247364,0.0,0.0
660,164.75,20.2419,20.4249,147.738,100.111,99.7996,0.000836033,0.0486587,20.9622,175.377,0.0302728,0.0,0.0
666,166.25,20.0908,20.7968,153.064,100.093,99.8309,0.000749637,0.0487085,20.9619,175.347,0.0254059,0.0,0.0
672,167.75,20.1371,20.7653,153.76,100.067,99.7584,0.000576252,0.0488246,20.9616,175.317,0.0300144,0.0,0.0
678,169.25,19.977,20.6433,150.996,100.035,99.8097,0.00041929,0.0489223,20.9615,175.267,0.021907,0.0,0.0
684,170.75,19.6874,20.4987,152.284,100.012,99.7111,0.000400525,0.0488666,20.9614,175.237,0.0292911,0.0,0.0
690,172.25,20.3041,20.3895,149.74,99.9881,99.6417,0.000484985,0.048837,20.9613,175.247,0.0336833,0.0,0.0
696,173.75,19.9812,20.6903,154.047,99.9555,99.6797,0.000584063,0.0488213,20.9613,175.207,0.0268196,0.0,0.0
702,175.25,20.2798,20.3652,148.276,99.9388,99.5957,0.000680806,0.0488161,20.9619,175.217,0.0333858,0.0,0.0
708,176.75,20.0082,20.4474,149.251,99.9124,99.5714,0.00067141,0.0488397,20.9628,175.177,0.0331886,0.0,0.0
714,178.25,19.8478,20.5157,144.178,99.8949,99.5882,0.000547987,0.0488182,20.9632,175.187,0.0298506,0.0,0.0
720,179.75,20.0029,20.8476,150.405,99.864,99.5201,0.000385625,0.0487994,20.9634,175.147,0.0334861,0.0,0.0
726,181.25,19.8549,20.6326,147.165,99.8477,99.5878,0.000281849,0.0487423,20.9636,175.157,0.0253089,0.0,0.0
732,182.75,19.8651,20.5529,149.014,99.827,99.5674,0.00027339,0.0486873,20.9636,175.077,0.0252754,0.0,0.0
738,184.25,19.8303,20.4768,151.198,99.8103,99.5528,0.000326187,0.0486418,20.9637,175.147,0.0250758,0.0,0.0
744,185.75,19.9943,20.6362,149.762,99.7896,99.4746,0.000344923,0.0487566,20.9637,175.067,0.0306927,0.0,0.0
750,187.25,20.0001,20.796,148.413,99.8042,99.4582,0.000328719,0.0487554,20.9637,175.117,0.0337133,0.0,0.0
756,188.75,19.6105,21.1673,150.913,99.8355,99.5312,0.00030929,0.0487357,20.9637,175.026,0.0296406,0.0,0.0
762,190.25,20.3554,20.6848,146.04,99.8884,99.6554,0.000276057,0.0486631,20.9629,175.067,0.0226702,0.0,0.0
768,191.75,20.1598,21.0105,148.485,99.9368,99.5993,0.000210982,0.0486508,20.9622,175.026,0.0328426,0.0,0.0
774,193.25,19.9567,20.8624,149.86,99.9925,99.6939,0.000156599,0.0486896,20.9618,174.996,0.0290361,0.0,0.0
780,194.75,20.1846,20.6344,153.685,100.03,99.6753,9.28673e-05,0.0487308,20.962,175.006,0.0344766,0.0,0.0
786,196.25,19.8551,21.1388,151.063,100.084,99.7907,4.91904e-05,0.0486963,20.9628,175.036,0.0285308,0.0,0.0
792,197.75,19.6339,20.7898,149.286,100.11,99.7854,3.27416e-05,0.0492112,20.9635,175.046,0.0315313,0.0,0.0
798,199.25,19.3937,20.6093,149.936,100.154,99.8022,-8.74857e-06,0.0500567,20.964,175.016,0.0341549,0.0,0.0
804,200.75,19.786,20.858,150.5,100.18,99.834,-7.11726e-05,0.0510638,20.9636,175.016,0.0335415,0.0,0.0
810,202.25,19.8165,20.7665,150.177,100.216,99.8473,-0.000133893,0.0520408,20.9621,175.006,0.0357588,0.0,0.0
816,203.75,20.0556,20.6153,150.699,100.217,99.9194,-0.000139798,0.0526994,20.9608,174.986,0.0288331,0.0,0.0
822,205.25,20.0802,20.4019,150.288,100.235,99.75,-6.31554e-05,0.0528587,20.9592,174.956,0.0471106,0.0,0.0
828,206.75,20.0119,20.4206,150.388,100.248,99.8968,4.22041e-05,0.0525482,20.9584,174.956,0.0340569,0.0,0.0
834,208.25,19.8774,20.6536,149.884,100.253,99.8699,0.000112485,0.0520658,20.9591,174.926,0.0371514,0.0,0.0
840,209.75,20.1673,20.9052,148.036,100.255,99.8376,0.000144359,0.0514374,20.9594,174.916,0.0404857,0.0,0.0
846,211.25,20.0395,20.4985,151.747,100.248,99.8867,0.000176134,0.0509519,20.9604,174.876,0.0350843,0.0,0.0
852,212.75,20.1585,20.8065,151.307,100.251,99.8725,0.000256714,0.0505246,20.9612,174.846,0.0367352,0.0,0.0
858,214.25,19.9032,21.1321,151.115,100.241,99.8566,0.000369962,0.0500085,20.9617,174.826,0.0373381,0.0,0.0
864,215.75,19.4254,20.2994,148.221,100.204,99.7867,0.000460158,0.0496041,20.9619,174.876,0.0405076,0.0,0.0
870,217.25,20.0922,20.5421,151.767,100.208,99.7602,0.000493903,0.0494755,20.962,174.816,0.0434422,0.0,0.0
876,218.75,20.0696,20.6125,147.748,100.173,99.7089,0.000449031,0.049296,20.9621,174.846,0.0450468,0.0,0.0
882,220.25,20.1252,20.6055,151.164,100.124,99.7195,0.000386301,0.0491194,20.9621,174.766,0.0392826,0.0,0.0
888,221.75,19.7495,20.9663,149.271,100.096,99.5763,0.00028132,0.0490731,20.961,174.866,0.0505566,0.0,0.0
894,223.25,19.8599,21.0264,149.321,100.03,99.6435,0.000201421,0.0491421,20.9605,174.816,0.0376171,0.0,0.0
900,224.75,19.7364,20.6834,150.299,100.013,99.5581,0.000152575,0.0490865,20.9602,174.856,0.044275,0.0,0.0
906,226.25,20.1985,20.4318,149.578,99.9588,99.5148,0.000165969,0.0490703,20.9602,174.836,0.0432106,0.0,0.0
912,227.75,20.2246,20.679,147.073,99.9018,99.5603,0.00025562,0.0490689,20.9611,174.846,0.0332393,0.0,0.0
918,229.25,19.856,20.527,151.859,99.8408,99.4971,0.000417539,0.0491089,20.9619,174.826,0.0334757,0.0,0.0
924,230.75,20.0481,20.4019,146.826,99.7794,99.3101,0.00051972,0.0491722,20.9624,174.836,0.0457689,0.0,0.0
930,232.25,20.1709,20.6268,150.441,99.6859,99.2322,0.000501958,0.049198,20.9627,174.816,0.0442739,0.0,0.0
936,233.75,19.9898,21.2948,153.622,99.6163,99.173,0.000425613,0.0491063,20.9629,174.836,0.043297,0.0,0.0
942,235.25,20.068,20.963,150.535,99.5224,98.9736,0.000372501,0.0490425,20.9629,174.816,0.0536769,0.0,0.0
948,236.75,20.2585,21.0726,149.462,99.4463,98.8997,0.00037295,0.0490086,20.963,174.806,0.0535008,0.0,0.0
954,238.25,19.8613,20.7274,152.289,99.3988,98.921,0.000388758,0.0491327,20.9624,174.756,0.046772,0.0,0.0
960,239.75,19.7896,20.6436,148.427,99.4146,98.867,0.000379181,0.0491761,20.9612,174.796,0.0536159,0.0,0.0
966,241.25,20.6557,21.081,152.556,99.4467,98.9532,0.00037495,0.0491199,20.9606,174.816,0.0482909,0.0,0.0
972,242.75,20.2377,20.166,147.093,99.4606,98.9448,0.000408194,0.0491182,20.9608,174.786,0.0504645,0.0,0.0
978,244.25,19.9111,20.6141,144.302,99.4858,98.863,0.000423602,0.0491456,20.9615,174.816,0.060954,0.0,0.0
984,245.75,20.1355,20.9481,146.206,99.5081,98.9776,0.000373649,0.0490697,20.9618,174.796,0.0518976,0.0,0.0
990,247.25,19.8954,21.0192,152.571,99.5407,98.9484,0.000315747,0.0489421,20.9619,174.736,0.0579339,0.0,0.0
996,248.75,20.137,20.6539,150.199,99.5777,99.0859,0.000316653,0.0490448,20.962,174.746,0.0480618,0.0,0.0
1002,250.25,19.8394,20.896,146.105,99.6123,98.9762,0.000392513,0.0492657,20.9617,174.756,0.0621798,0.0,0.0
1008,251.75,19.8593,20.5638,149.08,99.6493,98.9723,0.000422812,0.0497069,20.9615,174.716,0.0661756,0.0,0.0
1014,253.25,20.0824,20.6481,154.396,99.6749,99.2402,0.00037298,0.0508516,20.9614,174.746,0.0424261,0.0,0.0
1020,254.75,20.1416,20.9649,152.524,99.7099,99.089,0.000293223,0.052094,20.9604,174.706,0.0606344,0.0,0.0
1026,256.25,20.0245,20.9972,150.979,99.7619,99.1584,0.000252616,0.0530464,20.9593,174.726,0.0589024,0.0,0.0
1032,257.75,20.0994,20.8556,150.396,99.7819,99.1102,0.000253675,0.0536861,20.958,174.676,0.0655607,0.0,0.0
1038,259.25,19.8262,20.6161,147.812,99.8339,99.2446,0.000315513,0.0539537,20.9573,174.696,0.0574668,0.0,0.0
1044,260.75,19.3005,21.327,149.954,99.8567,99.276,0.000435374,0.0538165,20.9568,174.626,0.056611,0.0,0.0
1050,262.25,19.9393,20.72,149.677,99.9112,99.223,0.000528806,0.0534143,20.9571,174.656,0.0670973,0.0,0.0
1056,263.75,20.0027,20.5105,154.008,99.9327,99.2597,0.000538407,0.0528227,20.9573,174.556,0.0656009,0.0,0.0
1062,265.25,19.3855,20.5462,146.878,99.9738,99.2468,0.000481804,0.052218,20.9573,174.596,0.0708441,0.0,0.0
1068,266.75,19.8832,21.0985,150.09,99.9767,99.215,0.000415533,0.0515617,20.9574,174.586,0.0742346,0.0,0.0
1074,268.25,19.7227,20.6393,150.465,100.004,99.3379,0.000362876,0.0510353,20.9582,174.616,0.0648618,0.0,0.0
1080,269.75,20.2089,20.9087,149.288,100.014,99.2384,0.000299333,0.0506438,20.9586,174.596,0.0755356,0.0,0.0
1086,271.25,20.0461,21.4502,150.563,100.028,99.303,0.000239126,0.0503082,20.9585,174.586,0.0705649,0.0,0.0
1092,272.75,19.9447,20.8535,154.566,100.034,99.2605,0.000256216,0.0500694,20.9584,174.576,0.0753473,0.0,0.0
1098,274.25,20.2841,20.8467,146.98,100.036,99.242,0.000312812,0.0499424,20.9592,174.576,0.0773209,0.0,0.0
1104,275.75,20.4514,20.5291,146.284,100.034,99.1509,0.000399965,0.0499013,20.9598,174.586,0.0861162,0.0,0.0
1110,277.25,19.3576,20.9832,151.611,100.032,99.3145,0.00051671,0.0501042,20.9602,174.576,0.0699136,0.0,0.0
1116,278.75,20.2048,21.1393,150.856,100.014,99.3132,0.000629992,0.0506475,20.9604,174.566,0.0683073,0.0,0.0
1122,280.25,20.2543,21.1751,152.233,100.017,99.2,0.000676108,0.0512926,20.9597,174.576,0.0796154,0.0,0.0
1128,281.75,19.8364,20.8443,148.305,99.9937,99.1672,0.00062193,0.0518494,20.959,174.586,0.0805669,0.0,0.0
1134,283.25,19.9231,21.1368,149.987,99.9645,99.0735,0.00052875,0.0520904,20.958,174.576,0.086903,0.0,0.0
1140,284.75,19.8676,20.688,145.717,99.9486,99.1429,0.00044372,0.0522064,20.9575,174.546,0.0785641,0.0,0.0
1146,286.25,20.0452,21.1094,151.652,99.9124,98.9921,0.000332073,0.0521602,20.9572,174.506,0.0898224,0.0,0.0
1152,287.75,20.3024,20.9489,148.077,99.8831,99.0076,0.000281224,0.0519413,20.957,174.496,0.0854601,0.0,0.0
1158,289.25,19.8333,20.6172,148.254,99.8237,98.8498,0.000297562,0.0516939,20.9573,174.476,0.0951763,0.0,0.0
1164,290.75,20.4214,20.8406,147.21,99.7916,98.9099,0.000365887,0.0514088,20.9584,174.446,0.0861483,0.0,0.0
1170,292.25,19.9892,21.1068,148.949,99.7412,98.8223,0.000474211,0.0510465,20.959,174.436,0.0898373,0.0,0.0
1176,293.75,20.2006,21.0787,153.984,99.6928,98.7848,0.000651192,0.0507973,20.9594,174.446,0.088818,0.0,0.0
1182,295.25,20.2257,20.8646,149.54,99.6558,98.5628,0.000820986,0.050569,20.9596,174.446,0.107051,0.0,0.0
1188,296.75,20.0631,21.1852,148.928,99.596,98.7759,0.000885339,0.0504622,20.9597,174.456,0.0802581,0.0,0.0
1194,298.25,20.0306,20.9957,149.9,99.5525,98.4156,0.000839831,0.0502979,20.9597,174.446,0.111496,0.0,0.0
1200,299.75,20.2997,21.1595,148.641,99.4858,98.3156,0.000777429,0.0501517,20.9598,174.466,0.114852,0.0,0.0
1206,301.25,20.4368,21.1076,148.485,99.4065,98.1259,0.000736126,0.0499894,20.9598,174.416,0.125858,0.0,0.0
1212,302.75,20.2313,20.9814,150.177,99.3601,98.3081,0.000679917,0.0500599,20.9602,174.446,0.103325,0.0,0.0
1218,304.25,20.0354,21.4288,147.609,99.282,98.2665,0.000594299,0.0499755,20.9611,174.406,0.0997977,0.0,0.0
1224,305.75,19.7984,21.0091,148.835,99.2259,98.1171,0.00053068,0.049824,20.9616,174.416,0.109083,0.0,0.0
1230,307.25,20.1258,21.0681,149.271,99.1657,98.0503,0.0005543,0.0497962,20.9619,174.366,0.109802,0.0,0.0
1236,308.75,19.8399,21.2107,151.688,99.1165,97.7983,0.000642604,0.0498218,20.962,174.356,0.129967,0.0,0.0
1242,310.25,20.3082,21.1056,148.926,99.0669,97.9782,0.000714241,0.0498348,20.9621,174.316,0.10726,0.0,0.0
1248,311.75,20.3625,20.9876,143.86,99.0201,97.6285,0.000725213,0.0498568,20.9621,174.286,0.13739,0.0,0.0
1254,313.25,20.1185,21.0744,150.257,98.964,97.6338,0.00072122,0.0498816,20.9621,174.266,0.131359,0.0,0.0
1260,314.75,20.0797,20.5067,147.716,98.94,97.5648,0.00085953,0.049865,20.9627,174.306,0.135866,0.0,0.0
1266,316.25,20.052,20.851,148.217,98.8822,97.4339,0.000976979,0.0498447,20.9631,174.316,0.143229,0.0,0.0
1272,317.75,19.9434,21.2424,152.891,98.8574,97.5913,0.000983091,0.0498828,20.9633,174.286,0.125123,0.0,0.0
1278,319.25,20.2243,20.8891,149.985,98.8261,97.4949,0.000924756,0.0499618,20.9634,174.266,0.131641,0.0,0.0
1284,320.75,20.2665,21.3062,150.501,98.8009,97.4401,0.000874121,0.0500231,20.9634,174.266,0.134623,0.0,0.0
1290,322.25,20.4844,21.1034,151.822,98.785,97.437,0.000877221,0.0500151,20.9627,174.206,0.133373,0.0,0.0
1296,323.75,20.1827,21.3992,149.345,98.7741,97.3831,0.000931663,0.0501488,20.9619,174.206,0.137671,0.0,0.0
1302,325.25,20.1897,20.763,150.029,98.7741,97.1257,0.000957038,0.0502313,20.9616,174.176,0.163355,0.0,0.0
1308,326.75,20.193,20.9416,150.116,98.772,97.3831,0.000914776,0.0502615,20.9614,174.156,0.13747,0.0,0.0
1314,328.25,20.3623,20.4675,148.729,98.7724,97.3415,0.000777986,0.0503403,20.9613,174.176,0.141655,0.0,0.0
1320,329.75,19.9587,20.6052,145.505,98.7769,97.2553,0.000656439,0.0503972,20.9612,174.116,0.150696,0.0,0.0
1326,331.25,20.2159,21.1519,150.78,98.8074,97.093,0.000560712,0.0503917,20.9612,174.046,0.169904,0.0,0.0
1332,332.75,20.4522,20.7952,148.012,98.8196,97.3915,0.000545458,0.0504666,20.9614,174.066,0.141308,0.0,0.0
1338,334.25,20.1303,20.9185,146.443,98.8668,97.0245,0.000652486,0.0505155,20.9619,174.056,0.18259,0.0,0.0
1344,335.75,20.1993,21.2282,148.735,98.89,97.2549,0.000798628,0.0504128,20.9616,174.016,0.161844,0.0,0.0
1350,337.25,20.2004,21.1897,148.938,98.9514,97.3482,0.000946289,0.0505085,20.9618,174.036,0.158563,0.0,0.0
1356,338.75,20.1939,21.2168,148.169,99.0067,97.5268,0.0010672,0.0504397,20.9613,174.016,0.146192,0.0,0.0
1362,340.25,20.4217,21.1655,152.958,99.0803,97.3588,0.00111134,0.0503577,20.9611,174.066,0.170144,0.0,0.0
1368,341.75,19.9546,21.229,146.278,99.1519,97.5458,0.00105417,0.0505336,20.961,174.006,0.158524,0.0,0.0
1374,343.25,19.9809,20.6609,155.926,99.2405,97.5374,0.000920103,0.0508918,20.9609,173.996,0.168035,0.0,0.0
1380,344.75,20.2872,21.6284,147.563,99.3109,97.1669,0.000819132,0.0513835,20.9609,173.976,0.211861,0.0,0.0
1386,346.25,19.9936,21.073,153.205,99.4048,97.7996,0.000774884,0.0517673,20.9609,173.986,0.158033,0.0,0.0
1392,347.75,20.4425,21.2946,147.294,99.4618,97.9827,0.000793294,0.0520114,20.9599,173.915,0.145439,0.0,0.0
1398,349.25,19.832,21.0456,149.446,99.5578,97.525,0.000874798,0.0520997,20.9592,173.956,0.200247,0.0,0.0
1404,350.75,20.3767,21.2624,148.129,99.6489,97.8045,0.00091851,0.052059,20.9589,173.905,0.18135,0.0,0.0
1410,352.25,20.4585,21.5818,150.277,99.7416,97.5516,0.000911729,0.0518991,20.9587,173.905,0.215513,0.0,0.0
1416,353.75,20.2473,21.3951,149.273,99.8209,98.2276,0.000920859,0.0516284,20.9586,173.855,0.156187,0.0,0.0
1422,355.25,20.3961,21.329,149.135,99.8884,98.0012,0.000971086,0.0515109,20.9585,173.885,0.185148,0.0,0.0
1428,356.75,19.9236,21.4237,151.574,99.9551,98.2573,0.00103163,0.0516643,20.9589,173.875,0.166301,0.0,0.0
1434,358.25,20.2089,21.2182,150.547,100.038,98.5407,0.00107058,0.0517597,20.9591,173.845,0.146355,0.0,0.0
1440,359.75,20.4263,20.6367,146.672,100.099,97.6983,0.00107566,0.0517801,20.9593,173.855,0.235685,0.0,0.0
1446,361.25,20.2083,21.3242,149.999,100.149,98.1312,0.00104031,0.0518537,20.9595,173.755,0.197541,0.0,0.0
1452,362.75,20.4182,20.8893,150.905,100.239,98.3032,0.00102437,0.0519736,20.9597,173.765,0.189327,0.0,0.0
1458,364.25,20.574,21.2325,151.253,100.261,98.3147,0.00106517,0.0519857,20.9597,173.755,0.190281,0.0,0.0
1464,365.75,20.3297,21.3496,146.466,100.323,98.1016,0.00116348,0.0518547,20.9597,173.655,0.217328,0.0,0.0
1470,367.25,20.3206,21.7564,151.417,100.367,98.0888,0.00122853,0.0517793,20.9593,173.595,0.222886,0.0,0.0
1476,368.75,20.3881,21.6563,150.469,100.426,98.4859,0.0012355,0.0516718,20.9591,173.565,0.189333,0.0,0.0
1482,370.25,20.4531,20.9943,153.069,100.455,98.0839,0.00122489,0.0515507,20.959,173.575,0.231821,0.0,0.0
1488,371.75,20.2807,21.7805,148.578,100.523,98.2506,0.00121412,0.0515491,20.959,173.615,0.221936,0.0,0.0
1494,373.25,20.805,20.9712,151.403,100.534,98.0769,0.00119096,0.0514283,20.959,173.555,0.24018,0.0,0.0
1500,374.75,20.3987,21.4338,148.53,100.573,98.3731,0.00116292,0.0514118,20.959,173.555,0.214672,0.0,0.0
1506,376.25,20.5663,21.2522,147.759,100.599,98.3921,0.00111645,0.0514752,20.9589,173.485,0.215308,0.0,0.0
1512,377.75,20.523,21.2288,149.463,100.62,97.988,0.00105278,0.0515898,20.9589,173.505,0.257263,0.0,0.0
1518,379.25,20.4267,21.6293,152.774,100.634,98.0795,0.00108774,0.0516299,20.9589,173.465,0.249574,0.0,0.0
1524,380.75,20.8982,21.5946,151.044,100.655,98.2732,0.00121763,0.0517584,20.9589,173.445,0.232504,0.0,0.0
1530,382.25,20.8135,21.254,150.519,100.66,98.2351,0.00136849,0.051848,20.9589,173.385,0.236732,0.0,0.0
1536,383.75,20.426,21.1181,150.739,100.675,98.1259,0.0014562,0.0521152,20.9595,173.385,0.24898,0.0,0.0
1542,385.25,20.1977,21.3807,147.977,100.67,97.6815,0.00150848,0.0530302,20.9599,173.325,0.292491,0.0,0.0
1548,386.75,20.2741,21.4249,147.858,100.67,98.179,0.00153462,0.0534993,20.9591,173.305,0.243223,0.0,0.0
1554,388.25,20.8845,21.075,152.919,100.66,97.9831,0.00154616,0.0533173,20.9586,173.255,0.261589,0.0,0.0
1560,389.75,20.0843,21.5751,151.898,100.656,97.8611,0.00150251,0.0530277,20.9584,173.295,0.273334,0.0,0.0
1566,391.25,20.278,21.9149,148.564,100.64,98.0623,0.0014113,0.0528372,20.9583,173.235,0.251868,0.0,0.0
1572,392.75,20.186,21.593,150.056,100.622,97.7125,0.00127091,0.0526294,20.9582,173.175,0.284787,0.0,0.0
1578,394.25,20.2486,21.2197,150.437,100.599,97.5365,0.00118798,0.0524399,20.9582,173.175,0.300089,0.0,0.0
1584,395.75,20.6429,21.504,152.149,100.581,98.2077,0.0011861,0.0522915,20.9581,173.165,0.23179,0.0,0.0
1590,397.25,20.7041,21.3869,150.764,100.562,97.6289,0.00127449,0.0523085,20.9581,173.085,0.287324,0.0,0.0
1596,398.75,20.2595,21.5064,149.546,100.533,99.5656,0.00146632,0.052293,20.9581,173.145,0.0938585,0.0,1.0
1602,400.25,20.5607,21.0089,149.364,100.504,100.202,0.00157694,0.0522964,20.9581,173.045,0.0292334,0.0,1.0
1608,401.75,20.4626,21.8723,146.338,100.477,100.301,0.00156421,0.0524076,20.9581,173.015,0.0169677,0.0,1.0
1614,403.25,19.4521,20.6314,143.078,100.47,100.439,0.00153991,0.052488,20.9581,172.885,0.00291909,0.0,1.0
1620,404.75,19.9855,21.7534,142.545,100.432,99.9826,0.00158875,0.0529686,20.9581,172.814,0.0435078,0.0,0.0
1626,406.25,20.319,21.8701,146.098,100.417,99.8177,0.00170976,0.0550723,20.9581,172.654,0.05808,0.0,0.0
1632,407.75,20.7124,23.0083,137.106,100.367,99.5855,0.00184655,0.061236,20.9581,172.474,0.0758835,0.0,0.0
1638,409.25,21.724,23.9194,135.929,100.34,99.4816,0.00191512,0.0757164,20.9573,172.384,0.0834217,0.0,0.0
1644,410.75,22.7643,24.6845,135.803,100.293,99.6205,0.00193441,0.0958633,20.9518,172.194,0.0653572,0.0,0.0
1650,412.25,23.2642,25.8418,137.544,100.272,99.5789,0.00195349,0.118328,20.9438,172.024,0.0673214,0.0,0.0
1656,413.75,24.2195,26.7892,136.631,100.216,99.7173,0.00200759,0.151362,20.9212,171.804,0.0484452,0.0,0.0
1662,415.25,24.7851,28.3675,136.989,100.21,99.5621,0.00217307,0.184244,20.8894,171.714,0.0629731,0.0,0.0
1668,416.75,25.6255,29.5108,138.192,100.15,99.5572,0.00240019,0.21571,20.8503,171.523,0.0576152,0.0,0.0
1674,418.25,26.2839,30.4342,136.122,100.109,99.4896,0.00259226,0.245561,20.8158,171.323,0.0602319,0.0,0.0
1680,419.75,27.0118,31.6617,129.377,100.062,99.2756,0.00273629,0.27674,20.7796,171.133,0.0766378,0.0,0.0
1686,421.25,28.0203,33.183,131.83,100.045,99.1257,0.00284913,0.301957,20.7407,170.923,0.0896493,0.0,0.0
1692,422.75,29.3711,33.8242,130.495,100.01,98.7671,0.00287151,0.324084,20.7015,170.733,0.121356,0.0,0.0
1698,424.25,30.3597,35.6992,129.954,99.9612,99.0841,0.00283639,0.341706,20.6683,170.492,0.0855484,0.0,0.0
1704,425.75,31.3126,36.6665,128.864,99.9275,98.8409,0.00279077,0.358895,20.6462,170.212,0.106125,0.0,0.0
1710,427.25,32.7014,38.0317,132.362,99.8925,98.9285,0.00278417,0.377425,20.6267,170.072,0.0941312,0.0,0.0
1716,428.75,33.5501,39.4138,133.649,99.8685,98.8714,0.00283546,0.396225,20.61,169.872,0.097399,0.0,0.0
1722,430.25,34.398,40.5657,131.52,99.8457,99.0664,0.00291242,0.416687,20.5887,169.612,0.0760592,0.0,0.0
1728,431.75,34.8951,42.1836,134.154,99.8278,98.9254,0.00297748,0.433816,20.5664,169.361,0.0881495,0.0,0.0
1734,433.25,36.1346,43.3686,127.086,99.8018,98.7467,0.00304136,0.448345,20.5427,169.091,0.103163,0.0,0.0
1740,434.75,36.8422,43.9043,131.111,99.7924,98.622,0.00305602,0.46204,20.5214,168.861,0.114518,0.0,0.0
1746,436.25,37.8125,44.8477,128.431,99.8689,98.6216,0.00301467,0.474642,20.5036,168.601,0.121996,0.0,0.0
1752,437.75,38.5656,45.949,124.848,99.9169,98.5283,0.00300873,0.484351,20.4869,168.35,0.135847,0.0,0.0
1758,439.25,39.5095,46.9,125.937,99.9893,98.703,0.00307682,0.495977,20.4716,168.12,0.125685,0.0,0.0
1764,440.75,40.4958,47.9501,131.906,100.033,98.8184,0.00320082,0.507076,20.4588,167.87,0.118566,0.0,0.0
1770,442.25,40.6207,48.9448,131.707,100.091,99.0125,0.0032853,0.513138,20.4482,167.58,0.105119,0.0,0.0
1776,443.75,41.8046,50.0241,125.905,100.134,98.982,0.00337139,0.519348,20.4331,167.36,0.112369,0.0,0.0
1782,445.25,42.6712,50.5154,127.932,100.161,98.8312,0.00344652,0.527593,20.4232,167.059,0.12973,0.0,0.0
1788,446.75,43.3391,51.628,123.267,100.174,98.6729,0.00354791,0.537153,20.4177,166.849,0.146552,0.0,0.0
1794,448.25,44.1419,52.778,127.403,100.199,98.4845,0.00362571,0.548003,20.4093,166.549,0.167543,0.0,0.0
1800,449.75,45.0132,53.5144,123.174,100.227,98.7985,0.00367695,0.556984,20.3964,166.299,0.139366,0.0,0.0
1806,451.25,44.8597,54.497,124.426,100.236,98.4253,0.0037341,0.563954,20.3821,165.988,0.176931,0.0,0.0
1812,452.75,46.7369,55.425,125.443,100.246,98.6088,0.00376903,0.569153,20.3723,165.768,0.159834,0.0,0.0
1818,454.25,46.8687,55.2998,133.837,100.247,98.3253,0.00377036,0.576534,20.3648,165.468,0.187893,0.0,0.0
1824,455.75,47.9401,56.4916,125.516,100.273,98.4708,0.00378475,0.586513,20.3578,165.178,0.176023,0.0,0.0
1830,457.25,48.994,57.6956,131.988,100.267,98.6893,0.00383517,0.594903,20.3494,164.907,0.153962,0.0,0.0
1836,458.75,48.6247,58.3645,123.85,100.275,98.3134,0.00386229,0.600735,20.338,164.597,0.191749,0.0,0.0
1842,460.25,49.7404,59.0443,131.7,100.276,98.2767,0.00385385,0.607026,20.3279,164.317,0.195531,0.0,0.0
1848,461.75,50.4674,59.4021,127.645,100.28,98.1728,0.00382659,0.613109,20.3214,164.007,0.206155,0.0,0.0
1854,463.25,50.8702,60.2095,126.62,100.291,98.2847,0.00378297,0.61979,20.3133,163.726,0.196162,0.0,0.0
1860,464.75,51.5782,61.0682,124.106,100.278,98.4748,0.00369549,0.625948,20.3055,163.406,0.176182,0.0,0.0
1866,466.25,51.663,61.0211,122.273,100.277,97.7939,0.00363846,0.630138,20.2985,163.106,0.243419,0.0,0.0
1872,467.75,52.7394,62.6685,128.373,100.287,98.1954,0.00370862,0.634128,20.291,162.836,0.204634,0.0,0.0
1878,469.25,53.1193,62.8108,128.699,100.307,98.2329,0.00387528,0.640021,20.2864,162.555,0.202848,0.0,0.0
1884,470.75,53.5723,63.7921,124.853,100.294,97.7713,0.00406409,0.646358,20.2813,162.275,0.247312,0.0,0.0
1890,472.25,54.0264,64.5054,125.379,100.293,97.4512,0.00417799,0.650752,20.2745,161.965,0.27899,0.0,0.0
1896,473.75,54.8712,64.7796,132.993,100.28,97.7594,0.00423673,0.656263,20.2675,161.685,0.247159,0.0,0.0
1902,475.25,54.9114,65.6829,122.143,100.283,97.0546,0.00421021,0.661627,20.2615,161.414,0.317634,0.0,0.0
1908,476.75,56.0156,65.7739,123.457,100.282,97.6833,0.00417272,0.667608,20.2574,161.084,0.254831,0.0,0.0
1914,478.25,56.7415,66.3022,126.408,100.292,97.2602,0.00417998,0.67275,20.2489,160.814,0.297997,0.0,0.0
1920,479.75,56.7466,66.3926,121.994,100.283,96.6451,0.00421878,0.678068,20.2405,160.473,0.358712,0.0,0.0
1926,481.25,57.0941,68.0433,120.026,100.287,96.4872,0.00422932,0.681704,20.2352,160.233,0.374973,0.0,0.0
1932,482.75,57.9948,68.2743,129.216,100.285,96.2299,0.00421705,0.683325,20.2292,159.903,0.400622,0.0,0.0
1938,484.25,57.3602,68.3521,123.034,100.291,95.8779,0.00427471,0.686169,20.2247,159.643,0.43686,0.0,0.0
1944,485.75,58.3325,68.5971,118.427,100.274,96.1154,0.00447153,0.688221,20.2204,159.282,0.411157,0.0,0.0
1950,487.25,58.9502,69.1578,130.569,100.285,96.6809,0.0046444,0.688249,20.2176,159.032,0.355273,0.0,0.0
1956,488.75,59.1361,69.3002,121.998,100.287,96.6791,0.00474593,0.687217,20.2152,158.702,0.355646,0.0,0.0
1962,490.25,59.4457,69.9796,129.833,100.274,96.8927,0.00478499,0.686194,20.214,158.442,0.332927,0.0,0.0
1968,491.75,59.2207,70.3651,125.887,100.261,97.1434,0.00485063,0.686407,20.2152,158.141,0.306623,0.0,0.0
1974,493.25,59.9412,70.3101,123.344,100.252,96.2374,0.00496357,0.688729,20.2162,157.821,0.396675,0.0,0.0
1980,494.75,60.2611,70.442,127.09,100.24,96.1136,0.00504983,0.690769,20.2162,157.521,0.408029,0.0,0.0
1986,496.25,60.7687,70.9815,118.069,100.217,96.34,0.00508737,0.692237,20.214,157.231,0.382946,0.0,0.0
1992,497.75,61.0632,71.7108,130.937,100.195,97.0576,0.00508527,0.69327,20.2111,156.92,0.308779,0.0,0.0
1998,499.25,61.3098,71.6087,123.375,100.166,96.1375,0.00505064,0.691712,20.2097,156.66,0.398486,0.0,0.0
2004,500.75,60.9828,71.9403,128.625,100.122,95.2651,0.00499351,0.690759,20.2094,156.34,0.482718,0.0,0.0
2010,502.25,60.9006,71.7643,122.611,100.086,95.8695,0.00500318,0.693688,20.2093,156.05,0.417812,0.0,0.0
2016,503.75,62.1093,71.8798,128.679,100.029,95.518,0.00509947,0.69632,20.2092,155.739,0.447947,0.0,0.0
2022,505.25,61.6591,71.8084,120.263,99.9637,96.2321,0.00529887,0.696486,20.2083,155.499,0.36929,0.0,0.0
2028,506.75,61.786,72.6494,124.568,99.9002,95.2691,0.00551362,0.694186,20.2065,155.189,0.46076,0.0,0.0
2034,508.25,62.1603,72.4561,124.215,99.8201,94.9511,0.0056992,0.690135,20.2055,154.908,0.485419,0.0,0.0
2040,509.75,62.2607,72.4916,127.909,99.829,95.2735,0.00579356,0.683259,20.2055,154.658,0.453391,0.0,0.0
2046,511.25,62.256,72.5866,123.034,99.8599,95.4862,0.00581692,0.677683,20.2081,154.368,0.43475,0.0,0.0
2052,512.75,62.5496,72.6282,126.669,99.9014,95.9885,0.00584601,0.67769,20.213,154.088,0.387852,0.0,0.0
2058,514.25,62.581,72.1505,125.417,99.934,95.7983,0.00588025,0.6789,20.2178,153.818,0.41026,0.0,0.0
2064,515.75,62.2347,72.452,130.224,99.9791,94.7928,0.00588729,0.678769,20.2204,153.547,0.517067,0.0,0.0
2070,517.25,63.0709,72.4186,127.913,100.036,94.9759,0.00584851,0.675811,20.2206,153.247,0.503826,0.0,0.0
2076,518.75,62.9055,72.7277,123.206,100.085,94.65,0.00576916,0.671328,20.2208,152.977,0.541964,0.0,0.0
2082,520.25,62.8218,72.311,126.903,100.141,93.4495,0.00570803,0.66742,20.2227,152.687,0.671353,0.0,0.0
2088,521.75,62.0807,71.7323,130.515,100.189,92.7129,0.00565226,0.661453,20.2274,152.446,0.752826,0.0,0.0
2094,523.25,62.4827,72.1536,127.118,100.24,91.8966,0.00560516,0.654516,20.2308,152.126,0.843551,0.0,0.0
2100,524.75,62.5583,71.6479,124.411,100.3,92.9733,0.00551533,0.648096,20.2364,151.886,0.736309,0.0,0.0
2106,526.25,62.6684,72.0306,127.009,100.351,92.9821,0.00545409,0.642455,20.2429,151.606,0.740303,0.0,0.0
2112,527.75,62.6234,71.9386,133.014,100.396,91.5809,0.0055091,0.637776,20.2522,151.315,0.892067,0.0,0.0
2118,529.25,62.6341,71.8333,127.098,100.448,91.6671,0.00570943,0.635271,20.2593,151.035,0.887925,0.0,0.0
2124,530.75,62.793,71.861,122.983,100.488,92.192,0.00606415,0.634223,20.2642,150.755,0.836395,0.0,0.0
2130,532.25,62.8268,71.6732,125.997,100.523,91.66,0.00650134,0.635919,20.2671,150.465,0.895943,0.0,0.0
2136,533.75,62.2135,71.4227,133.938,100.561,91.9647,0.00682851,0.640848,20.2678,150.194,0.867385,0.0,0.0
2142,535.25,61.7178,69.9611,128.706,100.594,92.3932,0.00697416,0.651865,20.2655,149.934,0.825483,0.0,0.0
2148,536.75,61.3556,70.302,137.037,100.634,94.7619,0.00694491,0.663221,20.2586,149.724,0.583603,0.0,0.0
2154,538.25,61.1568,69.1612,132.75,100.645,95.9911,0.00687603,0.670831,20.2444,149.524,0.459554,0.0,0.0
2160,539.75,59.9936,68.5821,134.603,100.666,97.0846,0.00700032,0.668493,20.2304,149.384,0.35164,0.0,0.0
2166,541.25,59.6578,67.867,138.236,100.683,99.2221,0.00768559,0.656399,20.2215,149.253,0.141891,0.0,0.0
2172,542.75,59.2038,66.4844,139.011,100.692,99.8203,0.00935216,0.637751,20.2195,149.163,0.0844014,0.0,0.0
2178,544.25,58.0459,65.0409,141.259,100.703,100.614,0.0114503,0.614702,20.2264,149.073,0.00862053,0.0,0.0
2184,545.75,57.1797,63.4892,138.62,100.7,100.723,0.0133701,0.585167,20.2386,149.023,-0.00226368,0.0,0.0
2190,547.25,56.1197,62.2767,144.24,100.688,100.884,0.013735,0.537851,20.2625,148.943,-0.0188599,0.0,0.0
2196,548.75,55.1696,60.6492,138.773,100.676,101.017,0.012714,0.494213,20.3003,148.883,-0.032791,0.0,0.0
2202,550.25,54.1294,59.6833,144.354,100.667,100.932,0.0107669,0.436235,20.362,148.843,-0.0255741,0.0,0.0
2208,551.75,53.2826,58.4263,141.059,100.625,101.012,0.0088915,0.38321,20.4229,148.783,-0.0372233,0.0,0.0
2214,553.25,51.4939,56.4739,142.767,100.609,100.857,0.00736802,0.333363,20.4855,148.793,-0.0239128,0.0,0.0
2220,554.75,51.0584,55.4974,145.952,100.566,100.801,0.00644284,0.291329,20.5549,148.713,-0.022627,0.0,0.0
2226,556.25,50.0905,54.133,144.926,100.539,100.88,0.0060492,0.254332,20.6193,148.713,-0.0328769,0.0,0.0
2232,557.75,49.1011,53.0048,146.531,100.5,100.74,0.00595234,0.225674,20.6735,148.633,-0.0230683,0.0,0.0
2238,559.25,47.8556,51.3524,144.76,100.455,100.786,0.00606794,0.202729,20.7181,148.663,-0.0318598,0.0,0.0
2244,560.75,47.4544,50.7834,151.878,100.408,100.604,0.00644204,0.181487,20.7534,148.593,-0.0189404,0.0,0.0
2250,562.25,45.16,47.8394,147.671,100.36,100.735,0.00706213,0.164972,20.7829,148.643,-0.0362046,0.0,0.0
2256,563.75,43.6617,46.3664,147.139,100.306,100.657,0.00789086,0.150601,20.8038,148.593,-0.0339748,0.0,0.0
2262,565.25,43.0139,45.8123,145.877,100.257,100.484,0.00885282,0.136931,20.8193,148.613,-0.0220111,0.0,0.0
2268,566.75,42.0735,44.3428,145.563,100.197,100.471,0.010104,0.125539,20.8343,148.553,-0.0264773,0.0,0.0
2274,568.25,41.0516,43.4883,149.568,100.149,100.468,0.0114238,0.115147,20.8481,148.583,-0.0308719,0.0,0.0
2280,569.75,40.5072,42.7916,146.336,100.084,100.336,0.0122818,0.107789,20.8593,148.543,-0.0243588,0.0,0.0
2286,571.25,39.917,41.9653,145.392,100.029,100.265,0.0133521,0.0995863,20.87,148.563,-0.0228781,0.0,0.0
2292,572.75,39.6831,41.132,146.193,99.9637,100.21,0.014155,0.0926162,20.8796,148.533,-0.0238809,0.0,0.0
2298,574.25,38.9714,40.3629,147.486,99.9128,100.197,0.0147104,0.087068,20.888,148.533,-0.027535,0.0,0.0
2304,575.75,38.2852,39.5536,144.131,99.8469,100.104,0.0150229,0.0828268,20.8951,148.543,-0.0249371,0.0,0.0
2310,577.25,37.6984,38.7461,148.351,99.7945,100.061,0.01515,0.0793527,20.9028,148.533,-0.0259221,0.0,0.0
2316,578.75,37.0165,37.9586,148.15,99.7387,99.9999,0.0151508,0.0769322,20.9079,148.513,-0.0253791,0.0,0.0
2322,580.25,36.8089,37.7467,144.178,99.6676,99.8906,0.0149458,0.0752502,20.9116,148.513,-0.0217014,0.0,0.0
2328,581.75,36.1115,37.447,151.78,99.6106,99.8371,0.0146907,0.0741707,20.9136,148.493,-0.0220476,0.0,0.0
2334,583.25,35.679,37.1109,147.418,99.5395,99.7496,0.0144943,0.0735761,20.9157,148.483,-0.0204693,0.0,0.0
2340,584.75,35.5791,36.1986,147.094,99.4764,99.6925,0.0143807,0.073112,20.9167,148.473,-0.0210659,0.0,0.0
2346,586.25,34.6887,35.1286,146.775,99.4305,99.6337,0.0142505,0.0725644,20.9168,148.463,-0.0198234,0.0,0.0
2352,587.75,34.8238,35.5038,146.671,99.3646,99.6302,0.0139758,0.071969,20.9175,148.453,-0.025914,0.0,0.0
2358,589.25,34.0461,34.7206,145.783,99.3076,99.5338,0.0136758,0.0716312,20.9179,148.423,-0.0220813,0.0,0.0
2364,590.75,33.2354,34.5067,143.846,99.2588,99.4551,0.0134466,0.071263,20.9181,148.403,-0.0191741,0.0,0.0
2370,592.25,33.4663,33.9397,145.06,99.1755,99.3905,0.013298,0.0710029,20.9182,148.393,-0.0210276,0.0,0.0
2376,593.75,33.4403,33.4072,146.511,99.1303,99.3689,0.0132286,0.0706632,20.9177,148.403,-0.023331,0.0,0.0
2382,595.25,32.5602,33.4971,151.898,99.077,99.3008,0.0131789,0.0704977,20.9169,148.353,-0.0218951,0.0,0.0
2388,596.75,32.5274,32.7305,151.25,99.0331,99.2804,0.0131441,0.0704058,20.9169,148.393,-0.0242109,0.0,0.0
2394,598.25,31.6537,32.122,148.464,98.9729,99.1721,0.013182,0.0703666,20.9176,148.323,-0.019515,0.0,0.0
2400,599.75,31.4392,32.0009,147.404,98.9424,99.0647,0.0133001,0.0703666,20.918,148.373,-0.0119835,0.0,0.0
2406,601.25,31.3512,31.5786,142.471,98.8892,99.1155,0.0134774,0.0702239,20.9181,148.303,-0.0221932,0.0,0.0
2412,602.75,30.6028,30.9781,143.867,98.8831,99.0434,0.0136286,0.0701039,20.9182,148.353,-0.0157311,0.0,0.0
2418,604.25,30.8691,30.9655,149.527,98.8448,99.0775,0.0137511,0.070035,20.9183,148.293,-0.0228212,0.0,0.0
2424,605.75,30.5495,31.083,147.488,98.8257,99.1173,0.0138506,0.0699572,20.9183,148.343,-0.0285963,0.0,0.0
2430,607.25,29.9781,30.6039,145.544,98.8192,98.9762,0.0139693,0.0698797,20.9183,148.283,-0.0154118,0.0,0.0
2436,608.75,30.312,30.407,147.444,98.8143,99.0607,0.014069,0.0697832,20.9184,148.313,-0.0241709,0.0,0.0
2442,610.25,30.2285,30.1108,145.281,98.8078,98.9842,0.0140393,0.0696686,20.9184,148.273,-0.017311,0.0,0.0
2448,611.75,29.441,29.7594,150.128,98.8005,98.9736,0.0139254,0.0696004,20.9184,148.283,-0.0169893,0.0,0.0
2454,613.25,29.4765,29.6169,142.727,98.8042,99.0554,0.0138365,0.0696348,20.9184,148.283,-0.0246488,0.0,0.0
2460,614.75,29.1601,29.9026,146.614,98.8225,99.1018,0.0138159,0.0696022,20.9184,148.263,-0.027401,0.0,0.0
2466,616.25,28.9964,29.1066,150.751,98.8241,98.97,0.0138288,0.0695566,20.919,148.253,-0.0143253,0.0,0.0
2472,617.75,28.4642,29.0818,144.695,98.8375,98.9515,0.0138932,0.0696793,20.921,148.243,-0.0111858,0.0,0.0
2478,619.25,28.4248,28.9775,149.177,98.8648,98.9926,0.0139853,0.070158,20.9212,148.233,-0.0125431,0.0,0.0
2484,620.75,28.515,28.722,148.805,98.8822,99.0434,0.0140623,0.0707782,20.9213,148.202,-0.0158111,0.0,0.0
2490,622.25,27.9399,28.2709,142.463,98.9066,99.0894,0.0141124,0.0713199,20.9213,148.202,-0.0179219,0.0,0.0
2496,623.75,27.9313,28.4631,145.304,98.9323,99.1438,0.0141794,0.0716693,20.9214,148.213,-0.0207342,0.0,0.0
2502,625.25,28.2785,28.1546,145.601,98.9916,99.2349,0.0143145,0.0716052,20.9214,148.182,-0.023824,0.0,0.0
2508,626.75,27.8153,27.7382,147.146,99.0095,99.2159,0.0145201,0.071457,20.9203,148.182,-0.0202089,0.0,0.0
2514,628.25,27.6452,27.6543,150.273,99.0425,99.1982,0.0146683,0.0711695,20.9197,148.192,-0.0152495,0.0,0.0
2520,629.75,27.2388,27.5865,145.282,99.0714,99.177,0.0147569,0.0708321,20.9202,148.112,-0.0103425,0.0,0.0
2526,631.25,27.2997,27.5114,148.104,99.1267,99.3366,0.014797,0.0705626,20.9207,148.152,-0.0205359,0.0,0.0
2532,632.75,26.8299,27.022,145.888,99.1612,99.3008,0.0148098,0.070537,20.921,148.092,-0.0136503,0.0,0.0
2538,634.25,26.7453,27.1552,145.756,99.1999,99.3503,0.0148121,0.0704939,20.9212,148.122,-0.0147089,0.0,0.0
2544,635.75,26.5901,26.938,151.391,99.2442,99.3932,0.0148596,0.0704418,20.9213,148.062,-0.0145623,0.0,0.0
2550,637.25,26.6419,26.8113,147.746,99.2841,99.5157,0.0148949,0.0703857,20.9213,148.122,-0.0226194,0.0,0.0
2556,638.75,26.5668,26.7362,151.429,99.3377,99.4852,0.0149029,0.0704355,20.9214,148.092,-0.0143948,0.0,0.0
2562,640.25,26.3805,26.6998,146.407,99.3955,99.6833,0.0149522,0.0703847,20.9213,148.082,-0.0280625,0.0,0.0
2568,641.75,25.9357,26.1234,147.161,99.4195,99.6722,0.015018,0.0703139,20.9212,148.042,-0.024643,0.0,0.0
2574,643.25,26.4664,26.2848,146.101,99.4833,99.6435,0.015109,0.070365,20.9211,148.062,-0.0156117,0.0,0.0
2580,644.75,26.094,26.2484,147.561,99.5265,99.7195,0.0152767,0.0703867,20.9211,148.042,-0.0188123,0.0,0.0
2586,646.25,26.192,26.5597,147.33,99.5757,99.7602,0.0154261,0.0704818,20.921,148.022,-0.017973,0.0,0.0
2592,647.75,25.6381,25.7789,145.108,99.6285,99.7907,0.0154949,0.0705369,20.9204,148.012,-0.0157885,0.0,0.0
2598,649.25,26.0287,25.9258,147.683,99.6761,99.834,0.0154648,0.0705153,20.9196,148.012,-0.0153672,0.0,0.0
2604,650.75,25.6587,25.4224,146.553,99.7168,99.9132,0.0154161,0.0705655,20.9201,148.012,-0.019101,0.0,0.0
2610,652.25,25.6743,25.585,149.887,99.7619,99.8871,0.0154296,0.0706929,20.9205,148.002,-0.0121723,0.0,0.0
2616,653.75,25.2195,25.7209,147.637,99.8034,99.9826,0.0155501,0.0705858,20.9208,148.012,-0.0174136,0.0,0.0
2622,655.25,25.3574,25.0604,146.12,99.8303,99.9755,0.0156808,0.0704591,20.9209,147.982,-0.0141167,0.0,0.0
2628,656.75,25.4453,25.4271,143.111,99.8705,100.124,0.0157306,0.070351,20.921,147.962,-0.0246169,0.0,0.0
2634,658.25,25.2529,25.2332,147.53,99.9035,100.161,0.0156938,0.0703906,20.921,147.932,-0.0249725,0.0,0.0
2640,659.75,25.5755,25.1195,150.516,99.9405,100.123,0.015683,0.0707685,20.921,147.942,-0.0177341,0.0,0.0
2646,661.25,25.141,25.1304,146.171,99.9576,100.214,0.0157672,0.071174,20.921,147.882,-0.0249023,0.0,0.0
2652,662.75,25.0592,25.141,146.91,99.9836,100.2,0.0158794,0.0713171,20.9207,147.902,-0.0210039,0.0,0.0
2658,664.25,25.1298,25.4813,149.093,100.003,100.278,0.0159534,0.0713932,20.9196,147.872,-0.0266032,0.0,0.0
2664,665.75,24.6303,25.0274,150.531,100.035,100.216,0.0159364,0.0713499,20.9185,147.862,-0.0174901,0.0,0.0
2670,667.25,24.9117,24.3145,144.857,100.047,100.258,0.0158877,0.0713994,20.918,147.792,-0.0204536,0.0,0.0
2676,668.75,24.8238,24.945,149.074,100.058,100.271,0.0158516,0.0715669,20.9177,147.842,-0.0206357,0.0,0.0
2682,670.25,24.7428,23.7497,145.456,100.06,100.22,0.0158315,0.0716344,20.9175,147.802,-0.0155932,0.0,0.0
2688,671.75,24.6934,24.7374,145.427,100.079,100.233,0.0158771,0.0716703,20.9174,147.822,-0.0149389,0.0,0.0
2694,673.25,24.7022,24.5309,151.918,100.073,100.293,0.0159521,0.0717187,20.918,147.732,-0.0213558,0.0,0.0
2700,674.75,23.9055,24.6257,149.384,100.078,100.214,0.0160449,0.0716547,20.9188,147.782,-0.0132586,0.0,0.0
2706,676.25,23.9421,24.4532,144.811,100.061,100.265,0.0160351,0.0712602,20.9192,147.772,-0.0197996,0.0,0.0
2712,677.75,24.0521,23.9353,146.488,100.071,100.297,0.0158973,0.0710038,20.9194,147.822,-0.0219386,0.0,0.0
2718,679.25,24.3508,24.0642,148.387,100.048,100.225,0.015795,0.0711143,20.9196,147.762,-0.0171273,0.0,0.0
2724,680.75,24.109,24.112,146.679,100.024,100.258,0.0158412,0.0713441,20.9196,147.802,-0.0226635,0.0,0.0