File: 01_Data/Masonite_Board/Cone/Masonite_Cone_HF75Scan_230106_R3.csv
Names,Time,Stack TC,Smoke TC,Exh Press,Smoke Comp,Smoke Meas,CO Meter,CO2 Meter,O2 Meter,Sample Mass,Ext Coeff,Start Test,Flame Verif
Chan Gain,,500,500,1,1,1,1,1,1,1,1,1.0,1.0
Offset,,0,0,0.303564,0,0,0,0,0,0,0,0.0,0.0
Gain,,1,1,25.011,13.2065,15.7892,1,1,1,1.00088,1.03447,1.0,1.0
Units,sec,C,C,Pa,%,%,%,%,%,g,/m,,
Baseline,,52.2108,54.6965,140.779,100.001,99.9351,0.000500167,0.0475518,20.9612,-448.362,0.0060084,,
3,0.5,47.5739,48.2773,141.929,100.077,100.332,0.000556564,0.0610015,20.9463,172.741,-0.0230916,0.0,0.0
6,1.25,46.9222,48.8723,141.604,100.062,100.487,0.000585969,0.0603172,20.9458,172.731,-0.0384214,0.0,0.0
9,2,47.2786,48.682,138.35,100.067,100.176,0.00062609,0.0594022,20.9457,172.631,-0.00983675,0.0,0.0
12,2.75,47.2308,49.4788,141.313,100.074,100.33,0.000663303,0.0585893,20.946,172.651,-0.0231653,0.0,0.0
15,3.5,47.1725,49.2207,138.093,100.081,100.42,0.000729544,0.0579346,20.9467,172.471,-0.0306895,0.0,0.0
18,4.25,47.0331,49.1606,139.414,100.054,100.275,0.000777834,0.0575821,20.9474,172.401,-0.0199866,0.0,0.0
21,5,47.6849,49.8127,141.733,100.069,100.363,0.000852177,0.0573251,20.9483,172.461,-0.026574,0.0,0.0
24,5.75,47.3681,49.2308,138.833,100.069,100.122,0.000910314,0.0573666,20.9492,172.491,-0.0048448,0.0,0.0
27,6.5,47.5748,49.446,140.277,100.063,99.8849,0.000959435,0.0574405,20.9499,172.441,0.0161264,0.0,0.0
30,7.25,47.554,49.3046,143.776,100.057,99.7471,0.000995244,0.0574287,20.9503,172.301,0.0281789,0.0,0.0
33,8,47.8465,49.8949,142.294,100.051,99.565,0.0010176,0.0572757,20.9507,172.321,0.0442155,0.0,0.0
36,8.75,47.457,49.886,139.113,100.055,99.499,0.00103231,0.0569146,20.9509,172.311,0.0505989,0.0,0.0
39,9.5,47.8318,50.1948,138.789,100.064,99.1328,0.00104303,0.0565201,20.9505,172.151,0.0848628,0.0,0.0
42,10.25,48.4644,50.528,143.373,100.049,99.0802,0.00105262,0.0561767,20.9501,172.271,0.0882829,0.0,0.0
45,11,47.975,49.9231,138.597,100.057,99.1053,0.00105699,0.0557808,20.9499,172.201,0.0866823,0.0,0.0
48,11.75,48.3317,50.3151,140.454,100.058,99.0971,0.00105568,0.0555306,20.9497,172.251,0.0875426,0.0,0.0
51,12.5,47.687,50.3894,142.516,100.069,98.8118,0.0010316,0.0554137,20.9496,172.191,0.114761,0.0,0.0
54,13.25,48.259,50.442,137.441,100.044,98.7179,0.00101404,0.0554896,20.9499,172.091,0.121127,0.0,0.0
57,14,48.5425,50.8338,139.975,100.038,98.8258,0.000947644,0.0558205,20.9502,172.051,0.110627,0.0,0.0
60,14.75,48.1823,50.4756,141.515,100.05,98.557,0.000876394,0.0562075,20.9501,172.051,0.136408,0.0,0.0
63,15.5,48.2997,50.7522,145.327,100.037,98.0717,0.000781837,0.0565519,20.9501,172.021,0.180024,0.0,0.0
66,16.25,48.2387,50.2307,135.422,100.055,97.1996,0.000679321,0.0568029,20.95,171.961,0.26269,0.0,0.0
69,17,48.3486,50.4594,137.892,100.032,97.0839,0.000616886,0.0569005,20.95,171.901,0.271482,0.0,0.0
72,17.75,48.1501,50.8295,139.259,100.061,96.962,0.000527023,0.0569738,20.95,171.861,0.285444,0.0,0.0
75,18.5,48.5386,50.8741,140.998,100.052,96.6238,0.000461513,0.0571104,20.95,171.901,0.316387,0.0,0.0
78,19.25,48.5981,50.9991,138.193,100.035,96.3135,0.000438581,0.0573176,20.9499,171.8,0.344041,0.0,0.0
81,20,48.7207,51.2752,141.757,100.05,95.6268,0.000424351,0.0576524,20.9499,171.72,0.41028,0.0,0.0
84,20.75,49.0494,50.9526,139.751,100.04,95.0115,0.000412419,0.058276,20.9499,171.75,0.468018,0.0,0.0
87,21.5,48.924,51.1067,136.156,100.049,95.8138,0.000399245,0.0592846,20.9499,171.67,0.392485,0.0,0.0
90,22.25,49.0215,51.5172,136.348,100.026,100.268,0.000387154,0.0606907,20.9499,171.45,-0.021979,0.0,1.0
93,23,49.3707,52.2955,124.817,100.017,99.5809,0.000383169,0.0631982,20.9499,171.41,0.0396952,0.0,1.0
96,23.75,49.5515,52.6286,127.954,100.022,99.0696,0.000390337,0.0655358,20.9486,171.32,0.0868044,0.0,1.0
99,24.5,50.2369,53.6807,127.278,100.026,97.8886,0.000413899,0.0681113,20.9475,171.21,0.195959,0.0,1.0
102,25.25,50.9308,54.8006,124.705,100.033,98.2919,0.000462432,0.0702673,20.9462,171.08,0.159343,0.0,1.0
105,26,51.7127,55.5458,125.664,100.02,98.0168,0.000552626,0.0723151,20.9446,170.98,0.183573,0.0,1.0
108,26.75,51.0552,54.7865,125.228,100.022,98.2823,0.000641746,0.0739008,20.9422,170.84,0.159209,0.0,1.0
111,27.5,51.3869,56.423,131.348,100.026,97.6265,0.000774331,0.0752155,20.9391,170.73,0.220289,0.0,0.0
114,28.25,52.6871,57.3504,120.345,100.033,97.639,0.000907204,0.0769717,20.9358,170.529,0.21982,0.0,0.0
117,29,53.1608,58.2269,128.689,100.018,97.9696,0.00103793,0.0814588,20.9326,170.359,0.187798,0.0,0.0
120,29.75,53.3512,59.1738,124.359,100.028,96.8001,0.00116474,0.0900212,20.9297,170.229,0.297682,0.0,0.0
123,30.5,54.1483,60.4696,124.695,100.013,97.4704,0.0012822,0.102973,20.9275,170.039,0.233716,0.0,0.0
126,31.25,55.3121,61.3905,128.656,100.037,96.4238,0.00139728,0.127248,20.9245,169.919,0.333834,0.0,0.0
129,32,56.34,62.6771,120.363,100.019,96.592,0.00148917,0.157752,20.9199,169.729,0.316376,0.0,0.0
132,32.75,57.0721,64.0739,123.737,100.008,97.1456,0.00158874,0.185448,20.9114,169.599,0.263489,0.0,0.0
135,33.5,57.8758,65.6287,118.742,100.021,96.8449,0.00169501,0.223068,20.8963,169.388,0.292826,0.0,0.0
138,34.25,58.5257,65.7128,120.496,100.011,96.1935,0.00180633,0.254889,20.8655,169.288,0.353195,0.0,0.0
141,35,59.4829,67.7301,117.91,100.007,95.9955,0.00194775,0.285603,20.8355,169.038,0.37153,0.0,0.0
144,35.75,60.3812,69.0176,119.847,100.01,96.8474,0.00210901,0.319144,20.8008,168.898,0.291575,0.0,0.0
147,36.5,61.5854,70.0329,117.867,100.008,95.6683,0.00228208,0.343595,20.7755,168.698,0.402583,0.0,0.0
150,37.25,62.3621,70.7589,125.943,100.023,96.1651,0.00240825,0.370429,20.733,168.618,0.3569,0.0,0.0
153,38,63.1792,72.7224,115.963,100.006,95.808,0.00263641,0.393831,20.6974,168.317,0.389119,0.0,0.0
156,38.75,64.4059,73.1938,114.027,100.011,95.9911,0.00289873,0.420286,20.6634,168.177,0.372306,0.0,0.0
159,39.5,65.0935,74.774,116.857,100.01,95.8297,0.00315483,0.442845,20.6265,167.967,0.387468,0.0,0.0
162,40.25,66.2469,76.2788,111.865,100.029,95.9502,0.00338421,0.464886,20.5958,167.837,0.377751,0.0,0.0
165,41,66.7031,76.9274,116.888,100.03,95.4514,0.00364778,0.487364,20.5671,167.617,0.425111,0.0,0.0
168,41.75,67.6125,77.9206,117.859,100.008,94.9388,0.0038799,0.50915,20.5307,167.417,0.472007,0.0,0.0
171,42.5,68.6045,78.9085,119.786,100.003,95.198,0.00408535,0.52959,20.4976,167.206,0.446861,0.0,0.0
174,43.25,69.1893,79.531,112.666,100.014,94.3461,0.00424115,0.550765,20.4705,167.106,0.529382,0.0,0.0
177,44,69.8667,81.2214,115.973,100.013,94.2035,0.00436502,0.571241,20.4393,166.816,0.543074,0.0,0.0
180,44.75,70.8077,82.577,117.403,100.01,94.1905,0.00447526,0.590727,20.4098,166.596,0.544035,0.0,0.0
183,45.5,71.6678,83.7034,111.265,99.9961,93.8565,0.00457036,0.609053,20.3855,166.396,0.574981,0.0,0.0
186,46.25,72.2548,84.7616,110.778,100.019,93.566,0.00466487,0.625685,20.3607,166.196,0.605165,0.0,0.0
189,47,73.6595,85.9696,113.445,100.019,94.0825,0.0047639,0.643408,20.3398,166.015,0.555207,0.0,0.0
192,47.75,74.3003,87.5424,111.565,100.02,94.0363,0.00485062,0.65497,20.3256,165.745,0.559815,0.0,0.0
195,48.5,75.6698,88.4283,112.356,100.008,92.1151,0.00499672,0.671545,20.3063,165.555,0.746023,0.0,0.0
198,49.25,76.2448,89.7174,108.348,100.014,92.5146,0.0051369,0.6892,20.2875,165.395,0.707306,0.0,0.0
201,50,77.5504,90.4654,119.524,100.026,92.7676,0.00526322,0.705491,20.2648,165.225,0.683588,0.0,0.0
204,50.75,78.3642,92.6149,107.43,100,91.454,0.00537898,0.718826,20.2415,164.944,0.810652,0.0,0.0
207,51.5,79.1972,93.4166,112.568,99.9981,91.4801,0.00547998,0.735753,20.2217,164.704,0.807887,0.0,0.0
210,52.25,80.0969,94.5313,109.15,100.018,91.9532,0.00556944,0.753153,20.2003,164.554,0.762864,0.0,0.0
213,53,80.8646,95.2708,109.544,100.009,91.7668,0.0056496,0.767994,20.1801,164.354,0.780481,0.0,0.0
216,53.75,81.334,96.6664,110.022,100.006,92.9295,0.00572959,0.787763,20.1655,164.074,0.665974,0.0,0.0
219,54.5,82.3881,97.5483,110.927,100.015,92.1098,0.00582473,0.80585,20.1465,163.833,0.747204,0.0,0.0
222,55.25,83.4828,99.2488,106.436,99.9989,91.1823,0.00594888,0.825319,20.1289,163.563,0.837547,0.0,0.0
225,56,84.7327,100.065,112.36,100.014,90.5597,0.006063,0.847222,20.1096,163.413,0.901104,0.0,0.0
228,56.75,85.1339,101.19,117.443,100.013,90.3843,0.00618656,0.866181,20.0879,163.143,0.918623,0.0,0.0
231,57.5,86.2404,102.567,109.199,100.015,90.1709,0.00631514,0.885117,20.0622,162.853,0.940225,0.0,0.0
234,58.25,87.4291,103.92,112.085,99.9997,90.6103,0.00647024,0.90496,20.0393,162.652,0.894719,0.0,0.0
237,59,87.82,105.152,102.614,100.013,90.1078,0.00660248,0.923883,20.0137,162.492,0.946396,0.0,0.0
240,59.75,88.508,106.053,102.449,100.011,91.3717,0.00677409,0.939578,19.995,162.252,0.819782,0.0,0.0
243,60.5,89.7511,107.152,103.01,100,88.6295,0.00689919,0.951019,19.9705,161.962,1.09533,0.0,0.0
246,61.25,90.1601,108.125,104.037,100.011,88.3702,0.00701208,0.970803,19.9527,161.662,1.1229,0.0,0.0
249,62,91.0059,110.094,109.446,100.006,89.1017,0.00713146,0.991619,19.9338,161.511,1.04766,0.0,0.0
252,62.75,92.6583,110.794,112.523,100.009,88.5114,0.00722584,1.0124,19.9152,161.231,1.10823,0.0,0.0
255,63.5,93.3235,111.999,109.908,99.9929,88.0146,0.00730109,1.03247,19.8962,160.921,1.15784,0.0,0.0
258,64.25,93.7085,113.163,102.218,99.9953,89.1552,0.00736615,1.055,19.8767,160.681,1.04123,0.0,0.0
261,65,94.4808,113.533,113.593,99.9945,87.831,0.00742635,1.07408,19.8479,160.491,1.17694,0.0,0.0
264,65.75,95.6177,114.756,104.511,99.9969,87.7809,0.00750518,1.0925,19.8196,160.21,1.18234,0.0,0.0
267,66.5,96.4872,115.763,106.513,99.9783,87.2649,0.00758302,1.11139,19.796,159.87,1.23416,0.0,0.0
270,67.25,97.1062,116.881,104.385,99.9812,88.2213,0.00767462,1.12742,19.7699,159.71,1.1355,0.0,0.0
273,68,97.4283,117.455,108.086,99.9896,87.5641,0.00778017,1.14294,19.7508,159.44,1.20412,0.0,0.0
276,68.75,98.5432,118.717,105.336,99.9977,88.5292,0.00792342,1.15883,19.728,159.139,1.10538,0.0,0.0
279,69.5,99.7218,119.038,107.324,99.9804,89.0516,0.00810296,1.17236,19.709,158.849,1.05043,0.0,0.0
282,70.25,100.468,121.028,106.228,99.9719,89.4794,0.00830205,1.18718,19.6911,158.589,1.00616,0.0,0.0
285,71,101.3,121.612,103.36,99.9775,88.3823,0.00850907,1.20383,19.6729,158.349,1.11863,0.0,0.0
288,71.75,101.742,122.698,104.375,99.9844,89.8418,0.00873412,1.21928,19.6539,158.209,0.970624,0.0,0.0
291,72.5,102.936,124.077,100.493,99.9699,91.7504,0.0089385,1.23349,19.6342,157.808,0.778553,0.0,0.0
294,73.25,104.607,125.158,104.559,99.9578,90.9389,0.00912319,1.24888,19.6143,157.518,0.858065,0.0,0.0
297,74,105.067,126.237,98.6142,99.9566,90.446,0.00928947,1.26258,19.594,157.258,0.907275,0.0,0.0
300,74.75,105.65,126.787,103.501,99.9655,89.6259,0.00943745,1.27678,19.5792,157.088,0.990734,0.0,0.0
303,75.5,106.66,127.882,106.303,99.9558,88.9215,0.00959107,1.29252,19.5639,156.797,1.06146,0.0,0.0
306,76.25,107.287,128.911,106.977,99.93,89.1937,0.00976635,1.30629,19.5488,156.497,1.03138,0.0,0.0
309,77,108.1,129.855,110.492,99.9308,87.8792,0.00992031,1.32245,19.536,156.167,1.16618,0.0,0.0
312,77.75,108.763,131.048,103.05,99.9409,89.8982,0.0100773,1.33667,19.519,155.967,0.960981,0.0,0.0
315,78.5,110.189,131.959,104.112,99.9558,90.115,0.010216,1.35121,19.5035,155.746,0.940474,0.0,0.0
318,79.25,110.373,132.982,99.4531,99.9102,89.7806,0.0103102,1.36718,19.4866,155.336,0.970074,0.0,0.0
321,80,110.783,132.951,97.2319,99.9139,89.7175,0.0103672,1.38119,19.4667,155.076,0.976787,0.0,0.0
324,80.75,112.003,134.156,95.0696,99.9106,91.0638,0.0103751,1.39544,19.4468,154.916,0.841337,0.0,0.0
327,81.5,112.647,134.673,98.1586,99.9151,90.3328,0.0103809,1.41086,19.4299,154.605,0.914873,0.0,0.0
330,82.25,112.854,136.306,102.127,99.8961,91.2483,0.0103627,1.4221,19.4141,154.245,0.821648,0.0,0.0
333,83,113.736,136.829,102.116,99.9114,90.3911,0.0103404,1.43248,19.4011,153.965,0.908689,0.0,0.0
336,83.75,113.618,137.647,109.002,99.8913,91.3162,0.0103262,1.43779,19.3915,153.735,0.814456,0.0,0.0
339,84.5,114.689,138.532,97.2503,99.8965,91.0218,0.0103098,1.44587,19.3769,153.504,0.844235,0.0,0.0
342,85.25,115.564,139.59,96.4664,99.8728,90.726,0.0102979,1.45361,19.3608,153.124,0.871618,0.0,0.0
345,86,116.273,140.24,109.326,99.8768,88.0291,0.0103041,1.46008,19.3473,152.864,1.14582,0.0,0.0
348,86.75,116.629,140.894,99.347,99.8611,89.2544,0.0103256,1.46547,19.3359,152.554,1.01895,0.0,0.0
351,87.5,117.72,141.742,94.4063,99.884,89.9174,0.0103486,1.47197,19.3265,152.393,0.953875,0.0,0.0
354,88.25,118.111,142.153,95.3215,99.8639,88.6251,0.0103951,1.47671,19.3178,152.043,1.08341,0.0,0.0
357,89,118.94,143.476,97.0671,99.8409,90.6171,0.0104365,1.48371,19.3106,151.723,0.879622,0.0,0.0
360,89.75,119.318,143.899,99.3615,99.8421,91.3268,0.0104796,1.48978,19.3044,151.513,0.808935,0.0,0.0
363,90.5,120.011,144.064,96.8801,99.8445,92.2785,0.0105186,1.49583,19.2994,151.252,0.715087,0.0,0.0
366,91.25,120.313,145.067,105.279,99.8296,90.7332,0.0105476,1.50006,19.2955,150.922,0.866976,0.0,0.0
369,92,121.184,145.608,99.734,99.7817,90.9722,0.0106099,1.50638,19.2874,150.572,0.838744,0.0,0.0
372,92.75,121.259,145.952,108.99,99.797,92.7213,0.0106862,1.5132,19.28,150.372,0.667322,0.0,0.0
375,93.5,121.235,145.543,104.111,99.8067,92.9213,0.0107737,1.51972,19.2727,150.202,0.648653,0.0,0.0
378,94.25,121.572,145.819,111.7,99.7994,92.2351,0.0108898,1.52615,19.2647,149.851,0.715249,0.0,0.0
381,95,121.792,146.428,99.4248,99.7672,91.3124,0.0109889,1.53255,19.257,149.531,0.803555,0.0,0.0
384,95.75,122.014,146.704,104.934,99.7672,90.3776,0.0110673,1.53935,19.2502,149.301,0.89693,0.0,0.0
387,96.5,122.938,147.829,105.706,99.7611,91.5509,0.0111047,1.54522,19.243,149.371,0.779334,0.0,0.0
390,97.25,123.245,148.083,102.182,99.7651,89.9218,0.0111092,1.55069,19.2367,149.111,0.942629,0.0,0.0
393,98,123.589,148.168,104.798,99.7418,89.5623,0.0110876,1.55307,19.2297,148.9,0.976849,0.0,0.0
396,98.75,123.65,148.512,101.26,99.7208,91.1625,0.011038,1.55413,19.2233,148.12,0.814242,0.0,0.0
399,99.5,124.259,148.638,106.028,99.7075,92.1734,0.0109707,1.54812,19.2167,148,0.712959,0.0,0.0
402,100.25,124.476,148.911,103.493,99.6978,90.2393,0.0108934,1.53806,19.2121,147.669,0.904518,0.0,0.0
405,101,124.856,149.636,107.084,99.6757,91.3201,0.0107979,1.52832,19.2087,147.399,0.794465,0.0,0.0
408,101.75,125.002,149.958,99.624,99.6708,89.57,0.0107145,1.51601,19.2063,147.159,0.969613,0.0,0.0
411,102.5,125.578,149.864,104.331,99.6491,89.3744,0.0106302,1.50747,19.2121,147.009,0.987471,0.0,0.0
414,103.25,125.826,150.299,105.104,99.6378,90.6209,0.0105622,1.50196,19.2204,146.809,0.860756,0.0,0.0
417,104,126.389,151.063,104.525,99.6269,89.9415,0.0105098,1.50045,19.2333,146.518,0.928054,0.0,0.0
420,104.75,126.078,150.807,99.4485,99.6039,90.0148,0.0105108,1.50038,19.2427,146.208,0.918574,0.0,0.0
423,105.5,126.193,151.034,107.795,99.5882,89.9666,0.010556,1.50027,19.2496,145.978,0.922001,0.0,0.0
426,106.25,126.79,151.443,102.033,99.5846,90.9539,0.0106258,1.4984,19.2545,145.798,0.82263,0.0,0.0
429,107,126.747,151.161,111.079,99.5669,89.8562,0.0107073,1.49705,19.2582,145.497,0.931191,0.0,0.0
432,107.75,127.21,151.037,106.872,99.5471,89.8297,0.0107723,1.49539,19.2608,145.217,0.932067,0.0,0.0
435,108.5,126.938,151.071,104.418,99.5241,89.824,0.0108291,1.49403,19.2628,145.037,0.930557,0.0,0.0
438,109.25,127.269,150.916,105.026,99.5205,88.4825,0.0108587,1.49297,19.2642,144.827,1.06677,0.0,0.0
441,110,127.291,151.145,105.3,99.5072,89.4284,0.0108753,1.49038,19.2652,144.667,0.969066,0.0,0.0
444,110.75,127.466,151.005,102.83,99.4758,89.225,0.0108648,1.48772,19.2663,144.406,0.986856,0.0,0.0
447,111.5,127.17,150.358,107.7,99.4713,89.0101,0.0108516,1.48295,19.2671,144.206,1.00833,0.0,0.0
450,112.25,127.551,150.103,114.757,99.4556,90.4798,0.0108326,1.47577,19.269,144.036,0.858299,0.0,0.0
453,113,126.415,149.948,111.709,99.4322,90.9775,0.0108169,1.46635,19.2713,143.876,0.806382,0.0,0.0
456,113.75,126.392,149.039,113.648,99.4077,90.6161,0.0107963,1.45499,19.2746,143.636,0.840256,0.0,0.0
459,114.5,126.192,148.105,115.155,99.3935,90.4846,0.0107629,1.4402,19.2808,143.536,0.85215,0.0,0.0
462,115.25,125.64,147.193,114.452,99.3742,91.229,0.0107235,1.42578,19.2886,143.446,0.776031,0.0,0.0
465,116,125.14,146.097,118.091,99.3524,91.6058,0.0106795,1.41372,19.3032,143.336,0.736641,0.0,0.0
468,116.75,124.133,145.227,121.982,99.3335,91.1182,0.0106419,1.39772,19.3139,143.165,0.783343,0.0,0.0
471,117.5,122.858,144.003,120.266,99.3117,91.8145,0.0106051,1.38223,19.3299,143.085,0.712278,0.0,0.0
474,118.25,122.804,142.782,120.59,99.294,92.5396,0.0105839,1.36438,19.3448,143.045,0.639267,0.0,0.0
477,119,121.456,141.444,125.839,99.2783,94.9677,0.0105677,1.33845,19.3569,143.005,0.402811,0.0,0.0
480,119.75,120.587,139.231,128.951,99.2553,97.6511,0.0105547,1.31105,19.3709,142.915,0.147864,0.0,0.0
483,120.5,119.331,138.061,127.481,99.2243,99.5814,0.0105098,1.27654,19.3896,142.875,-0.0325979,0.0,0.0
486,121.25,118.207,135.677,132.164,99.2291,100.444,0.0104524,1.23042,19.4068,142.875,-0.110456,0.0,0.0
489,122,116.439,134.023,130.391,99.2106,100.744,0.0103682,1.18655,19.4341,142.795,-0.139144,0.0,0.0
492,122.75,115.774,132.745,131.929,99.1638,100.311,0.010222,1.13702,19.4638,142.745,-0.104406,0.0,0.0
495,123.5,114.657,130.902,131.365,99.1481,100.679,0.0100794,1.08164,19.5025,142.715,-0.139086,0.0,0.0
498,124.25,113.645,129.411,131.607,99.138,100.834,0.00983628,1.03305,19.5499,142.735,-0.153937,0.0,0.0
501,125,112.158,127.385,128.614,99.1151,100.659,0.00954041,0.964118,19.5926,142.775,-0.140287,0.0,0.0
504,125.75,111.264,125.454,130.001,99.0901,100.313,0.00931804,0.919272,19.6355,142.695,-0.111288,0.0,0.0
507,126.5,110.254,124.667,133.409,99.0623,100.692,0.00888974,0.846114,19.7061,142.675,-0.148118,0.0,0.0
510,127.25,109.133,122.488,136.599,99.0417,100.729,0.00846414,0.777379,19.7823,142.685,-0.153258,0.0,0.0
513,128,108.227,121.172,133.512,99.0465,100.281,0.00803323,0.710365,19.8648,142.685,-0.112398,0.0,0.0
516,128.75,106.888,120.003,131.12,99.022,100.366,0.00759543,0.646936,19.9483,142.635,-0.122365,0.0,0.0
519,129.5,105.699,118.328,129.773,98.9929,100.188,0.00708099,0.588098,20.019,142.605,-0.108892,0.0,0.0
522,130.25,104.835,116.814,131.942,98.97,100.069,0.00670596,0.545204,20.0921,142.585,-0.100255,0.0,0.0
525,131,103.863,115.963,132.165,98.9696,100.54,0.00643256,0.486828,20.1545,142.615,-0.142881,0.0,0.0
528,131.75,103.115,114.095,136.496,98.953,100.199,0.00583209,0.444271,20.2202,142.575,-0.11351,0.0,0.0
531,132.5,102.481,113.342,134.801,98.9091,100.613,0.00515379,0.39853,20.2767,142.575,-0.154947,0.0,0.0
534,133.25,101.213,112.132,132.225,98.9023,100.095,0.00468086,0.347288,20.3598,142.545,-0.108737,0.0,0.0
537,134,99.9952,110.225,134.927,98.8821,100.287,0.00438656,0.327387,20.4055,142.545,-0.127999,0.0,0.0
540,134.75,99.6876,109.794,131.969,98.862,100.856,0.00399741,0.298664,20.4678,142.515,-0.181193,0.0,0.0
543,135.5,98.6803,108.476,130.985,98.8269,100.138,0.00368083,0.274808,20.5294,142.485,-0.119585,0.0,0.0
546,136.25,98.0485,107.567,135.621,98.8047,100.178,0.00342965,0.255218,20.5838,142.485,-0.125288,0.0,0.0
549,137,97.2128,106.615,135.338,98.7971,99.7818,0.00324295,0.239302,20.6256,142.495,-0.0899986,0.0,0.0
552,137.75,96.4379,105.466,130.764,98.789,100.051,0.00310684,0.226173,20.6597,142.465,-0.115158,0.0,0.0
555,138.5,95.7477,104.364,137.067,98.7483,100.244,0.00300636,0.215951,20.6881,142.405,-0.136405,0.0,0.0
558,139.25,94.9511,102.939,131.359,98.7374,100.145,0.00292754,0.206797,20.7113,142.385,-0.128416,0.0,0.0
561,140,94.4734,103.186,132.111,98.7314,100.246,0.0028686,0.199241,20.7298,142.385,-0.138179,0.0,0.0
564,140.75,93.1932,101.47,134.569,98.7366,100.234,0.00282676,0.192887,20.7446,142.395,-0.136607,0.0,0.0
567,141.5,92.5535,101.098,137.467,98.6983,99.9755,0.00280507,0.18745,20.7554,142.355,-0.116672,0.0,0.0
570,142.25,91.7894,99.7967,138.557,98.6758,100.158,0.00280494,0.182532,20.7651,142.325,-0.135307,0.0,0.0
573,143,89.64,97.8455,137.445,98.6681,100.021,0.00282525,0.178541,20.7732,142.335,-0.123561,0.0,0.0
576,143.75,89.3468,96.7957,132.34,98.6568,99.8497,0.00287407,0.174384,20.7796,142.365,-0.109067,0.0,0.0
579,144.5,88.5208,95.8341,134.34,98.6258,100.087,0.00292417,0.170344,20.7847,142.305,-0.133441,0.0,0.0
582,145.25,87.8884,95.2378,134.893,98.6278,99.8762,0.00299474,0.166969,20.7892,142.225,-0.114144,0.0,0.0
585,146,86.823,94.7525,134.026,98.6137,99.6594,0.0030627,0.163289,20.7936,142.235,-0.0957203,0.0,0.0
588,146.75,87.0236,94.1114,134.605,98.6133,99.7991,0.00311565,0.159952,20.7981,142.275,-0.108472,0.0,0.0
591,147.5,86.1561,93.0902,141.21,98.6004,99.9249,0.00313805,0.15688,20.8023,142.245,-0.121086,0.0,0.0
594,148.25,85.9346,92.3735,133.091,98.5871,100.37,0.00313294,0.154025,20.8067,142.255,-0.162609,0.0,0.0
597,149,85.161,92.0835,138.091,98.5786,100.198,0.00310748,0.151057,20.8115,142.245,-0.147822,0.0,0.0
600,149.75,85.0252,91.1842,133.667,98.5863,99.6329,0.00307935,0.149277,20.8148,142.285,-0.0958285,0.0,0.0
603,150.5,84.3889,90.6969,132.136,98.5778,100.141,0.00303068,0.146883,20.8191,142.215,-0.14279,0.0,0.0
606,151.25,84.349,90.0553,137.827,98.5637,99.7635,0.0029952,0.144447,20.8225,142.205,-0.109793,0.0,0.0
609,152,83.2457,89.4296,137.054,98.5436,100.003,0.00300528,0.142671,20.8254,142.205,-0.133448,0.0,0.0
612,152.75,82.5985,88.7513,133.887,98.5319,99.9158,0.00303918,0.140601,20.8276,142.245,-0.126563,0.0,0.0
615,153.5,82.2272,88.4062,137.092,98.5327,99.83,0.0031093,0.139091,20.8298,142.195,-0.118695,0.0,0.0
618,154.25,81.7853,87.6898,133.916,98.5415,99.7013,0.00319367,0.137644,20.8321,142.164,-0.106178,0.0,0.0
621,155,81.2311,87.4257,137.239,98.5214,99.6242,0.00331201,0.136394,20.835,142.174,-0.101014,0.0,0.0
624,155.75,81.1103,87.2652,133.754,98.517,100.145,0.00342358,0.135401,20.8373,142.164,-0.148699,0.0,0.0
627,156.5,80.6902,86.1029,135.241,98.5278,99.6064,0.00351769,0.134483,20.8393,142.144,-0.098796,0.0,0.0
630,157.25,80.1922,86.055,134.488,98.5117,99.5534,0.00358972,0.133618,20.8415,142.104,-0.0954508,0.0,0.0
633,158,79.6196,84.6963,135.597,98.5061,99.8261,0.00365406,0.132578,20.8441,142.074,-0.120796,0.0,0.0
636,158.75,79.0915,84.8105,137.695,98.5202,99.8536,0.00367738,0.132019,20.8452,142.094,-0.121993,0.0,0.0
639,159.5,79.3282,84.6234,133.865,98.519,99.9543,0.00369891,0.131373,20.8464,142.094,-0.131251,0.0,0.0
642,160.25,78.8053,83.6063,135.464,98.5125,99.8883,0.0037222,0.130645,20.8472,142.074,-0.12585,0.0,0.0
645,161,78.3857,83.9112,130.767,98.5061,99.7514,0.00374241,0.130084,20.8479,142.054,-0.114004,0.0,0.0
648,161.75,77.7826,83.4651,133.139,98.5141,99.896,0.00375174,0.129639,20.849,142.044,-0.126402,0.0,0.0
651,162.5,77.2681,82.653,132.936,98.5383,99.7924,0.00373829,0.129273,20.85,142.064,-0.114759,0.0,0.0
654,163.25,77.5015,82.5256,135.269,98.5222,99.9423,0.00370061,0.128923,20.8512,142.014,-0.12986,0.0,0.0
657,164,77.0351,81.6957,134.813,98.5254,99.9244,0.0036402,0.128637,20.8521,141.984,-0.127944,0.0,0.0
660,164.75,76.5231,80.8202,137.75,98.5307,99.8199,0.00357722,0.128373,20.8528,141.974,-0.117961,0.0,0.0
663,165.5,76.773,81.3721,133.783,98.5484,100.013,0.00352323,0.128142,20.8534,141.994,-0.133877,0.0,0.0
666,166.25,75.876,80.6206,132.781,98.5536,99.7442,0.00349145,0.127906,20.8541,141.974,-0.108967,0.0,0.0
669,167,75.9277,80.3086,133.036,98.5387,99.8112,0.00348281,0.127463,20.8551,141.954,-0.116431,0.0,0.0
672,167.75,75.4238,79.8328,135.067,98.5681,99.8589,0.00349585,0.126874,20.8557,141.944,-0.118058,0.0,0.0
675,168.5,75.0936,79.431,132.943,98.577,99.6917,0.00352518,0.126189,20.8567,141.974,-0.102034,0.0,0.0
678,169.25,74.9296,79.7275,140.211,98.5927,99.9379,0.00355388,0.125367,20.8575,141.954,-0.122973,0.0,0.0
681,170,74.8047,79.0014,134.919,98.5863,99.5973,0.00358733,0.124514,20.8582,141.924,-0.0925811,0.0,0.0
684,170.75,74.6129,78.3903,136.77,98.5931,99.9162,0.00362974,0.123672,20.8595,141.924,-0.120966,0.0,0.0
687,171.5,73.8406,78.2608,137.942,98.6201,99.8338,0.00367206,0.12287,20.8609,141.954,-0.110996,0.0,0.0
690,172.25,73.9007,77.7724,136.273,98.6173,99.3703,0.00370775,0.12218,20.8619,141.974,-0.0690245,0.0,0.0
693,173,73.4126,77.6438,132.105,98.6354,99.684,0.00375002,0.121633,20.8627,141.884,-0.0959553,0.0,0.0
696,173.75,73.0699,76.992,135.239,98.6475,99.4484,0.00378147,0.121041,20.8632,141.874,-0.0733686,0.0,0.0
699,174.5,72.6497,76.858,138.213,98.6641,99.75,0.00380548,0.120546,20.8642,141.914,-0.0993303,0.0,0.0
702,175.25,72.1744,76.7118,140.101,98.702,99.857,0.00381538,0.120076,20.8648,141.894,-0.105572,0.0,0.0
705,176,72.7665,76.5847,136.092,98.6749,99.8122,0.00381804,0.119605,20.8652,141.854,-0.103983,0.0,0.0
708,176.75,71.7146,75.9237,135.239,98.7064,99.8772,0.00381769,0.119262,20.8656,141.824,-0.107004,0.0,0.0
711,177.5,71.9653,75.9895,135.227,98.7261,99.9895,0.0038281,0.118787,20.8664,141.834,-0.115383,0.0,0.0
714,178.25,71.592,75.3802,136.189,98.7781,100.021,0.00385392,0.118353,20.8671,141.834,-0.113447,0.0,0.0
717,179,70.8696,74.8931,137.184,98.756,99.9196,0.00390164,0.11805,20.8681,141.784,-0.1063,0.0,0.0
720,179.75,71.5624,74.9853,134.213,98.7805,100.215,0.00393643,0.117829,20.869,141.784,-0.130826,0.0,0.0
723,180.5,70.8277,75.0907,138.311,98.793,99.7577,0.00398709,0.117668,20.8697,141.764,-0.0881781,0.0,0.0
726,181.25,70.6563,74.6199,135.909,98.8398,100.217,0.00401432,0.117586,20.87,141.784,-0.125559,0.0,0.0
729,182,70.7733,73.9621,136.225,98.8277,100.022,0.00404749,0.117566,20.8704,141.734,-0.108982,0.0,0.0
732,182.75,70.4684,74.1726,132.688,98.8559,99.9466,0.0040771,0.117662,20.8707,141.714,-0.0995698,0.0,0.0
735,183.5,70.3133,74.1101,134.961,98.8672,100.073,0.00410882,0.117866,20.8709,141.734,-0.110033,0.0,0.0
738,184.25,69.7581,73.4805,137.108,98.9111,99.8189,0.00413627,0.118392,20.8711,141.764,-0.0829027,0.0,0.0
741,185,69.3009,73.6153,133.624,98.9176,99.882,0.00417808,0.119053,20.8712,141.744,-0.088047,0.0,0.0
744,185.75,69.7807,73.3285,137.046,98.924,100.042,0.00421524,0.119738,20.8713,141.754,-0.101977,0.0,0.0
747,186.5,68.776,72.6608,139.878,98.943,100.128,0.00425375,0.120411,20.8716,141.754,-0.108016,0.0,0.0
750,187.25,68.9222,72.3811,135.774,98.974,100.115,0.00429251,0.121198,20.8718,141.774,-0.103992,0.0,0.0
753,188,69.3049,72.0736,136.497,99.003,100.487,0.00434506,0.121952,20.8713,141.714,-0.135029,0.0,0.0
756,188.75,68.937,71.7587,140.264,99.0002,100.221,0.00439365,0.122634,20.8703,141.664,-0.111193,0.0,0.0
759,189.5,68.4241,72.0658,134.933,99.0264,100.043,0.00443924,0.123226,20.8691,141.634,-0.0926795,0.0,0.0
762,190.25,68.341,71.8594,136.129,99.0606,100.204,0.00448549,0.123829,20.8681,141.654,-0.10417,0.0,0.0
765,191,67.8498,71.0675,138.04,99.0812,100.067,0.00453408,0.124403,20.8667,141.624,-0.0898429,0.0,0.0
768,191.75,68.5318,71.4995,137.172,99.0925,100.084,0.00459307,0.12488,20.8657,141.624,-0.0903826,0.0,0.0
771,192.5,67.297,71.1247,137.305,99.1219,100.168,0.00465642,0.125249,20.8649,141.644,-0.0952431,0.0,0.0
774,193.25,67.6992,70.9303,134.184,99.1578,100.655,0.00471128,0.125323,20.8644,141.634,-0.136028,0.0,0.0
777,194,66.9211,70.8141,134.922,99.1562,100.328,0.00477927,0.125293,20.864,141.644,-0.106588,0.0,0.0
780,194.75,67.4829,71.1332,140.139,99.1759,100.236,0.00483671,0.125091,20.8637,141.614,-0.0964971,0.0,0.0
783,195.5,67.3722,70.846,135.437,99.1791,100.186,0.00487165,0.124805,20.8635,141.594,-0.0916643,0.0,0.0
786,196.25,66.8707,70.7464,134.339,99.2126,100.374,0.00486277,0.124571,20.8632,141.574,-0.105566,0.0,0.0
789,197,67.3644,70.1422,137.81,99.2585,100.474,0.00482493,0.124357,20.8629,141.574,-0.110421,0.0,0.0
792,197.75,66.859,70.3764,136.705,99.2456,100.352,0.00476875,0.124122,20.8633,141.534,-0.100583,0.0,0.0
795,198.5,67.0492,69.7452,133.746,99.2553,100.094,0.00470424,0.123816,20.8636,141.514,-0.0763577,0.0,0.0
798,199.25,66.6347,69.5015,133.969,99.2811,100.405,0.00465587,0.123443,20.8638,141.524,-0.102175,0.0,0.0
801,200,66.9354,69.8474,136.612,99.3105,100.615,0.00461833,0.123171,20.864,141.534,-0.118454,0.0,0.0
804,200.75,66.3181,69.648,135.894,99.3186,100.745,0.00459096,0.122898,20.8641,141.494,-0.129357,0.0,0.0
807,201.5,66.2038,69.4781,131.57,99.3315,100.545,0.00463443,0.122667,20.8643,141.494,-0.110149,0.0,0.0
810,202.25,66.2137,69.5614,135.928,99.3593,100.462,0.00471193,0.122263,20.8648,141.474,-0.100126,0.0,0.0
813,203,65.9815,69.2899,135.053,99.4,100.557,0.00478795,0.121774,20.8655,141.494,-0.104979,0.0,0.0
816,203.75,66.0929,68.8999,135.824,99.396,100.507,0.00492149,0.121334,20.866,141.444,-0.100911,0.0,0.0
819,204.5,65.3565,68.6406,138.042,99.398,100.706,0.00504562,0.1208,20.8664,141.454,-0.11859,0.0,0.0
822,205.25,65.8314,68.6785,132.751,99.4407,100.452,0.00514752,0.120364,20.8673,141.444,-0.091779,0.0,0.0
825,206,65.9873,68.6462,138.01,99.4673,100.872,0.00522555,0.119967,20.868,141.474,-0.127272,0.0,0.0
828,206.75,65.814,68.6242,135.231,99.4738,100.785,0.0052764,0.119592,20.8685,141.434,-0.118836,0.0,0.0
831,207.5,65.362,68.1522,136.813,99.4786,100.143,0.00530313,0.119271,20.8697,141.414,-0.0604219,0.0,0.0
834,208.25,65.2407,68.1193,135.071,99.4899,100.852,0.00531188,0.118956,20.8706,141.424,-0.123437,0.0,0.0
837,209,65.14,67.8496,136.867,99.5161,100.824,0.0052999,0.118696,20.8719,141.454,-0.118446,0.0,0.0
840,209.75,64.8497,67.5788,134.641,99.5362,100.926,0.00527844,0.118436,20.8728,141.444,-0.125798,0.0,0.0
843,210.5,64.8123,67.7442,136.328,99.5435,100.479,0.00525642,0.118219,20.8735,141.414,-0.0848864,0.0,0.0
846,211.25,64.1381,67.8489,136.549,99.5636,100.864,0.00523162,0.118019,20.874,141.394,-0.117709,0.0,0.0
849,212,64.487,67.3517,139.327,99.5838,100.73,0.00520323,0.117873,20.8744,141.374,-0.103814,0.0,0.0
852,212.75,64.3261,67.3662,138.081,99.6043,100.73,0.00516799,0.117766,20.8746,141.354,-0.101984,0.0,0.0
855,213.5,64.6563,67.1694,136.925,99.6019,100.604,0.00513721,0.11771,20.8748,141.214,-0.0908682,0.0,0.0
858,214.25,63.665,67.3076,136.412,99.6088,100.385,0.0051126,0.117653,20.875,141.244,-0.0704045,0.0,0.0
861,215,64.2278,67.0841,137.346,99.6346,100.675,0.00511759,0.117585,20.8751,141.294,-0.0942812,0.0,0.0
864,215.75,63.9244,66.9588,131.94,99.6539,100.884,0.00513099,0.117459,20.8752,141.314,-0.111349,0.0,0.0
867,216.5,64.2101,66.7693,135.166,99.6483,100.77,0.00521158,0.117303,20.8752,141.274,-0.101585,0.0,0.0
870,217.25,64.096,66.4274,135.47,99.6503,100.648,0.00529788,0.117135,20.8752,141.234,-0.0904165,0.0,0.0
873,218,63.6554,66.4801,134.566,99.6664,100.856,0.00537501,0.117018,20.875,141.274,-0.107697,0.0,0.0
876,218.75,63.6913,66.1394,134.326,99.6861,101.025,0.00550057,0.116842,20.8749,141.294,-0.12106,0.0,0.0
879,219.5,63.2332,66.2832,133.694,99.6906,100.521,0.00561257,0.116735,20.8748,141.214,-0.0753149,0.0,0.0
882,220.25,63.573,66.2432,137.399,99.7003,100.977,0.00570293,0.116643,20.8747,141.214,-0.115447,0.0,0.0
885,221,63.5043,66.1998,134.596,99.7067,100.837,0.00578887,0.116537,20.8746,141.174,-0.102251,0.0,0.0
888,221.75,63.0781,66.0107,134.457,99.7115,100.918,0.00585691,0.116406,20.8746,141.204,-0.109179,0.0,0.0
891,222.5,63.1828,66.2096,135.785,99.7075,100.842,0.00591573,0.11624,20.8752,141.144,-0.102654,0.0,0.0
894,223.25,63.3007,66.1243,137.073,99.7099,100.84,0.0059586,0.115998,20.8757,141.144,-0.102261,0.0,0.0
897,224,62.8518,65.8085,139.934,99.7031,100.214,0.00598986,0.115881,20.876,141.104,-0.0463399,0.0,0.0
900,224.75,62.7709,65.8569,137.72,99.7188,100.976,0.00600456,0.115839,20.8762,141.144,-0.113673,0.0,0.0
903,225.5,63.0472,65.9153,134.925,99.7168,100.812,0.00601937,0.115757,20.8767,141.134,-0.0991657,0.0,0.0
906,226.25,62.8003,65.9951,138.534,99.7128,101.029,0.00601566,0.115723,20.8768,141.084,-0.118985,0.0,0.0
909,227,62.7856,65.2579,134.566,99.7196,100.468,0.00599611,0.115773,20.877,141.064,-0.0678882,0.0,0.0
912,227.75,62.952,65.4861,132.185,99.7111,100.949,0.00597534,0.115809,20.8771,141.084,-0.111945,0.0,0.0
915,228.5,62.5189,65.0464,134.458,99.7055,100.971,0.00595655,0.115835,20.8774,141.064,-0.114493,0.0,0.0
918,229.25,62.7444,64.8989,137.044,99.7019,100.646,0.00594218,0.115939,20.8777,141.034,-0.0855039,0.0,0.0
921,230,63.0054,65.7368,135.342,99.6942,100.534,0.00593055,0.116039,20.8779,141.034,-0.0761586,0.0,0.0
924,230.75,62.7636,64.9934,134.748,99.6841,100.773,0.00592336,0.116152,20.878,141.074,-0.0985795,0.0,0.0
927,231.5,62.1337,64.7348,136.16,99.6918,100.483,0.00591933,0.116213,20.8781,141.074,-0.0717248,0.0,0.0
930,232.25,62.6801,65.3972,136.508,99.6704,100.375,0.00592158,0.116288,20.8782,141.034,-0.0639607,0.0,0.0
933,233,62.6032,64.8641,136.675,99.6656,100.537,0.00593013,0.116378,20.8776,141.023,-0.0790248,0.0,0.0
936,233.75,62.4062,64.8307,135.065,99.6543,100.502,0.00594089,0.116453,20.8775,141.044,-0.0768339,0.0,0.0
939,234.5,61.9599,64.6835,138.192,99.6458,100.307,0.00595266,0.116582,20.8778,141.074,-0.0599678,0.0,0.0
942,235.25,62.0276,64.8973,139.002,99.6309,100.924,0.00596008,0.116676,20.8773,141.023,-0.117037,0.0,0.0
945,236,61.8616,65.2537,137.169,99.6176,100.19,0.0059554,0.116851,20.8769,141.013,-0.0519814,0.0,0.0
948,236.75,62.3842,64.6071,132.578,99.6156,100.766,0.00593472,0.116979,20.8767,140.963,-0.104168,0.0,0.0
951,237.5,62.0341,65.1612,137.774,99.6104,100.823,0.00590303,0.117072,20.8765,140.923,-0.109764,0.0,0.0
954,238.25,61.6498,64.801,135.192,99.5789,100.616,0.00587284,0.117215,20.8764,140.813,-0.0940046,0.0,0.0
957,239,62.095,65.0676,136.421,99.564,100.661,0.00583443,0.117351,20.8763,140.823,-0.0994035,0.0,0.0
960,239.75,62.0656,64.5539,135.806,99.5451,100.282,0.0058026,0.117556,20.8762,140.843,-0.0669243,0.0,0.0
963,240.5,61.7583,64.1763,137.299,99.56,100.713,0.00577574,0.117677,20.8762,140.933,-0.104461,0.0,0.0
966,241.25,62.0446,64.5122,139.507,99.5354,100.12,0.00575271,0.117796,20.8761,140.873,-0.0531445,0.0,0.0
969,242,61.6209,64.1392,135.327,99.51,100.429,0.00574477,0.117871,20.8761,140.863,-0.0834097,0.0,0.0
972,242.75,61.7316,64.5958,135.266,99.4866,100.528,0.0057356,0.118017,20.8761,140.793,-0.0945058,0.0,0.0
975,243.5,61.3471,63.8761,135.048,99.475,100.578,0.00575625,0.118149,20.8761,140.883,-0.100052,0.0,0.0
978,244.25,61.1076,63.9783,137.075,99.4673,100.056,0.00578665,0.118203,20.8761,140.883,-0.053589,0.0,0.0
981,245,61.7558,63.6641,138.005,99.4403,100.208,0.00581871,0.118122,20.876,140.823,-0.0698082,0.0,0.0
984,245.75,60.9511,63.3657,138.72,99.4282,100.215,0.00584784,0.117925,20.876,140.783,-0.0715231,0.0,0.0
987,246.5,60.8431,64.2504,136.635,99.4282,100.008,0.00588185,0.117634,20.876,140.823,-0.0527419,0.0,0.0
990,247.25,61.2145,63.7184,137.418,99.4048,100.129,0.00590664,0.117327,20.876,140.853,-0.0658869,0.0,0.0
993,248,60.9276,63.3599,131.214,99.3798,100.06,0.00597462,0.116942,20.876,140.763,-0.0618774,0.0,0.0
996,248.75,60.6786,63.3261,138.338,99.369,100.136,0.00604547,0.116601,20.8761,140.873,-0.0697728,0.0,0.0
999,249.5,61.0704,63.6644,135.728,99.3428,100.317,0.00616658,0.116327,20.8761,140.813,-0.0885691,0.0,0.0
1002,250.25,61.0776,63.8572,138.465,99.3424,100.321,0.00625486,0.116085,20.8761,140.893,-0.0889979,0.0,0.0
1005,251,60.9077,63.2809,135.364,99.3166,100.124,0.00637229,0.115924,20.8766,140.773,-0.0734668,0.0,0.0
1008,251.75,60.7078,63.3921,133.497,99.2908,100.146,0.0064502,0.115834,20.8771,140.723,-0.0777891,0.0,0.0
1011,252.5,60.2063,63.6474,138.608,99.2912,99.9832,0.00648548,0.115789,20.8775,140.733,-0.0630265,0.0,0.0
1014,253.25,60.3982,62.8647,136.831,99.2751,100.024,0.00648003,0.115709,20.8778,140.793,-0.0681727,0.0,0.0
1017,254,60.3414,63.2062,135.722,99.2456,99.9509,0.00643583,0.115571,20.878,140.753,-0.0642597,0.0,0.0
1020,254.75,60.5173,62.6433,136.25,99.2424,99.5462,0.00639337,0.115427,20.8781,140.763,-0.0277328,0.0,0.0
1023,255.5,60.4638,62.8213,133.752,99.2118,100.127,0.00635804,0.115314,20.8783,140.733,-0.0833082,0.0,0.0
1026,256.25,60.4543,63.2056,139.969,99.2202,99.8367,0.00634691,0.115218,20.8783,140.763,-0.056208,0.0,0.0
1029,257,60.1105,62.7516,138.237,99.1936,100.042,0.00633879,0.114935,20.8784,140.683,-0.0773221,0.0,0.0
1032,257.75,60.4609,62.6489,136.718,99.1816,99.924,0.00634018,0.114674,20.8789,140.703,-0.0676703,0.0,0.0
1035,258.5,60.0767,62.7956,137.661,99.1598,99.7148,0.00633576,0.11439,20.8794,140.683,-0.0506509,0.0,0.0
1038,259.25,60.1895,62.6565,134.517,99.1469,99.5447,0.00632325,0.114244,20.8798,140.683,-0.0363392,0.0,0.0
1041,260,60.3706,62.3761,136.979,99.1344,99.7452,0.00631029,0.114244,20.8799,140.643,-0.0557373,0.0,0.0
1044,260.75,60.0893,62.1745,136.273,99.113,99.9562,0.00630324,0.114245,20.88,140.573,-0.0768721,0.0,0.0
1047,261.5,60.0887,62.7502,140.652,99.0889,99.6691,0.00630502,0.114245,20.88,140.563,-0.0529775,0.0,0.0
1049,262,59.5208,62.4179,139.565,99.1038,99.8999,0.00632259,0.114245,20.88,140.593,-0.0726015,0.0,0.0